subject_id,rt_μ,rt_σ,rt_shift,β_trial,β_anticipation,β_zero_order,α_zero_order,αM,γ,λ,β_targets_2,β_targets_3,β_targets_4,β_targets_5,β_targets_6,β_targets_7,β_targets_8,β_targets_9,β_targets_10,β_targets_11,β_targets_12,β_targets_13,β_targets_14,β_targets_15,β_key_2
14085.0,-0.33337463988682653,-1.6493122929732889,-2.3754586389124754,-0.13195503485853466,-0.09092214000152062,-0.2843515369564469,-1.885150181402371,-1.2693342270863839,-0.7708513288434322,-0.3344055757854391,0.03580337008388734,0.0875972409715561,0.0478987195545838,0.044655371087204875,0.05825887174095735,0.07481908756804147,0.08145404362606821,-0.04334130130715321,-0.04593003069943121,0.01844227072938576,0.05844017645617878,0.01304015991761081,0.0625287920094507,0.03387402948765318,0.016598993840461367
14086.0,-0.380931689783841,-1.6685099934635454,-1.939295572145462,0.044235117980809084,-0.19519620504949425,-0.2997258355825547,-1.9320822519272678,-1.2115754534519678,-0.6632007401553714,-0.36549636085507836,0.03315184916736033,0.04962917830479649,0.015988831327688253,0.045171649232130094,0.04255162938245107,0.10192258826181547,0.023582060023115258,-0.045803699839467374,-0.0307804767016316,0.028694091634598556,0.11035153468485653,0.0026859583850929155,0.11735025389564557,0.026235881096640087,0.061102904852949086
14087.0,-0.25266233929763715,-1.7816170004728278,-1.9739660592130979,-0.1815379807894365,0.057271053277514083,-0.33783689931078936,-1.8396917574683513,-0.8385181797016987,-0.21996753579613826,0.06464933818600885,0.009965124784136062,0.0388907409565373,0.02251257209626631,0.035902760928484205,0.060857306870055465,0.06976630141425967,0.11404981696727731,0.040906812903392965,-0.024603805775573476,0.01848441908414256,0.05066105347144455,-0.006678953679434927,0.048907925262165274,0.07225044967555072,-0.015772072414458528
14089.0,-0.22344221077578236,-1.5260364968371878,-1.937757001929242,-0.27063303837890185,0.009249127316341614,-0.21655125451951804,-1.8528625317543206,-1.1840169926766668,-0.14348340795335932,-0.016448015048162665,-0.029582685335521712,0.020275009244692128,0.04103650010989752,0.03424689585596318,0.06173793221442929,0.07954605766698185,0.060605025678243614,0.005695199782267509,-0.05076761516247339,0.039200900174472225,0.024688892542984665,0.010003614715863689,0.0684504473416512,0.050762306184274505,-0.014552061304888978
14090.0,-0.2731559431087154,-1.3965299612719455,-2.3196410642120657,0.008543294913370086,-0.015036434291473898,-0.19525633549119242,-1.8250480829588294,-1.1881779837645012,-0.27936508506333035,-0.09012544014590693,0.0038068841280978673,0.05909125077545557,0.022261663927615194,0.020958628314581722,0.057874415232348465,0.0760631424419724,0.10747037317360791,-0.006445259986401951,-0.030900838990307156,0.029711385012608914,0.04886590672139637,0.030172531619625364,0.08223263178202213,0.04332501123711791,-0.05624692124575381
14091.0,-0.9142997506967451,-1.2900673994193492,0.1591025832873361,0.13070866375236373,-0.7959897047421939,-0.2732359939607236,-1.6726169857018731,-1.3780268650262242,1.2378495422916338,0.6532189825138414,0.009002799665763825,0.0666255069099519,0.04060950862468892,0.012874439027569259,0.06429617519636584,0.08115921368435278,0.08734984356820077,0.017299490491336847,-0.029743315443794712,0.035883405062627334,0.05201840151258166,0.024752307264846597,0.11250178107304051,0.03695619962536273,0.012226261238111385
14092.0,-0.3288185325683722,-1.4139799783352731,-1.2192131434011095,0.04503450519349503,-0.9642808122034987,0.08900696673896134,-1.5927033069387533,-1.7221575383329675,1.8896845540413307,0.6340618256422433,-0.016109653367008824,0.07200816055196761,0.027564854823336437,0.03158282528585041,0.047398476121249616,0.0981134151963453,0.0708400350105966,0.0013730262319083357,-0.008200632811146833,0.05049778431494066,0.0699253542294811,-0.0011237932302116539,0.0676103351453094,0.06522121587726808,-0.030131904450216462
14093.0,-0.7372245566070613,-1.3655580092766821,0.1579327807317932,-0.0027553551689902117,-0.9948412391359145,-0.1444217245743443,-1.6087581016223553,-0.9746565258575868,1.3800487522615634,0.9603971788451294,0.01369430886754051,0.07220105786356458,0.033420220591152516,0.01630512527289607,0.04152129456316427,0.0873480125158737,0.07948864897549844,0.025692894537786656,-0.0538031521798663,0.056767293257341,0.054859395223349816,0.009540760726434125,0.08739626055936321,0.052481205205642256,0.03854121648460818
14094.0,-0.8698716593202507,-1.444417837791299,0.44538867755849176,-0.10768772787565047,-1.1732531664859718,-0.18456446725436637,-1.614316462345535,-0.8881891984097562,1.5188662674586897,0.6673658573850751,-0.035146050841757495,0.12116177035396963,0.02945659088053028,0.005780081666033038,0.09489681613713298,0.10029579916306791,0.09577267241535362,0.01712034189253137,-0.04010313318154132,0.05375896750345372,0.06537514273050724,-0.005741919965766198,0.07459362197211641,0.05762499931967584,0.09438668088618425
14095.0,-0.7788775057170887,-1.2594905241339454,0.4423179211635419,-0.03395363977129369,-1.144491043743841,-0.16553928137875593,-1.5513613721925288,-0.9069078072545265,1.4198307386939215,1.3714692773124841,-0.032566890756717856,0.09290946009724294,0.04326208743278031,0.018415746420132842,0.049815725335765504,0.11094451314808053,0.10948892238175745,0.02711183094041088,-0.05019130429102032,0.06315961343140132,0.0768483222722737,0.00018383646181706904,0.07674404759553978,0.05591201763326545,-0.020142042400756753
14154.0,-0.2922060138857478,-1.4134280491342779,-2.031964089093937,-0.024847647680697523,-0.3625715310455084,-0.3908972027662281,-1.6661493285401892,-1.4188172692239522,0.5028907894008295,0.246589774167983,-0.015946574494304176,0.04549965025274298,0.040326525331009534,0.05282804466255364,0.07977915894943571,0.07312577428243257,0.059373181982927674,0.04862667095867623,-0.04800926672423528,0.042542276137938324,0.03746411134685244,-0.024667070819361876,0.09236186800328783,0.03884178467841884,0.019672757598133844
14155.0,-0.9409438975594863,-1.3062285954231119,0.3692217923311573,-0.14887703721160875,-0.9112988880868952,-0.04235589198155027,-1.6221613185873767,-1.7057866912513504,1.6915599923646898,0.44337804435945366,0.003914738503326179,0.08008498457491327,0.049712629798274566,0.005690462894294012,0.04438948071869579,0.10269745467498526,0.12363645004153138,0.001018129745445378,-0.04240637453607323,0.049701762295236575,0.01610775342739874,0.004254463582353893,0.09254955434294765,0.07156084598017314,0.0027244554874179152
14156.0,-0.5287395194125479,-1.4616807072416487,-0.3237785767298019,-0.07906611991352368,-0.9818907030049826,-0.19915873420911476,-1.6195978760040997,-1.0419143672950848,1.9349296108045548,2.2816830895343205,-0.011143605417336763,0.10776153608821606,0.024993429292310014,0.043955572599297346,0.04866943777004536,0.08628992256001138,0.10915534312388582,0.007719480627262866,-0.04985563761081387,0.0377485078806518,0.043509739021018234,0.058677924963471684,0.08506819427113306,0.05200398940212714,-0.004333692370478743
14157.0,-1.0120715129205657,-1.2529098347714915,-0.028096073783057753,0.13794768809472172,-1.026314439847544,-0.12705169272422578,-1.598942410359479,-1.6138817033642532,1.894956015123554,0.6597249418263106,-0.060645283275055015,0.10165132138836823,0.025856443113545662,0.014101828731481574,0.057556900530751305,0.06973088569672722,0.1104906339921982,0.002640687976132048,-0.03506687893321851,0.066830938923862,-0.014833349048768443,0.033557085971658775,0.12413472778464156,0.061243682829590015,-0.01059336816422207
14223.0,-0.34658945800740903,-1.8104815592700862,-2.0189978663094066,0.2018002482206329,0.04069584787878384,-0.22284675886179042,-1.9041927118808681,-1.1542300862401214,-0.2881136485327898,-0.087535028971773,-0.027389179528877358,0.09303254941681112,0.05530412536958838,0.021026324031114124,0.008445373349128987,0.07118640135446411,0.05989092965219491,0.0007766789515130955,-0.0581225241604191,0.03592064112383332,0.02111845549137609,0.014150818550451147,0.10410322077519372,0.03985003037797256,-0.016819344312464485
14224.0,-0.8011361187790136,-1.45520113693504,-0.01759150932797167,0.07857241016094434,-0.3574891673670735,-0.3242469973857855,-1.7595172847767142,-1.8043771954036003,0.1479296654597338,0.10295702556546214,-0.024159516782960692,0.05820861628490588,0.03412215442073853,0.04522063152516944,0.06445757249698404,0.08182604859560666,0.10273662909420594,-0.018773431549089746,-0.049383349677084944,0.03261831697447007,0.04631512647030249,0.022327794999545684,0.08046638609153858,0.04043592490606245,-0.009038137453588179
14244.0,-0.21367176739377383,-1.3653996142786513,-2.3751404598635952,0.014157064987359582,0.11153231498341372,-0.22163192888101071,-1.8573889935136116,-0.9333321057830378,-0.44713168541864934,-0.06851733684350902,-0.02641677870630867,0.058611883074621805,0.03594698582728555,0.044639610729850406,0.03432315703069523,0.09007981152995476,0.06363979720710074,0.013757441756188243,-0.029559057733442966,0.03344393246834956,0.0610135509653844,-0.01306233463177032,0.09323408096244297,0.04079227041053692,0.0034977998834289734
14245.0,-0.5382536296654639,-1.6919787659148706,-1.5442776060193726,0.01925260418239863,-0.14394596226280568,-0.20314060445496596,-1.8496082142467645,-1.2033370519116873,-0.26680446598702245,0.1039874791181732,-0.03681250723983391,0.09269409522965805,0.03130369421784708,0.02689177875852887,0.041759682663533255,0.08021277098974734,0.10347473526533361,0.039173504909319194,-0.038839671538884964,0.026176108965509752,0.0693185430775296,0.007520286220882713,0.07289554630304013,0.03691705863231778,0.0438871241332172
14264.0,-0.24353029176066027,-1.4299592148131952,-2.187818109184944,-0.10144918554420375,-0.2499955992118002,-0.324415235869966,-1.8127711552934287,-1.5560969753373513,-0.10752075010846376,0.06924947383589433,-0.007233027576986554,0.04988173136356825,0.04720596656330818,0.024340544241818193,0.06721514904037042,0.0928807990214752,0.029368311268517903,-0.024265749394372167,-0.025524379437566136,0.02822953093044654,0.04106489725644095,-0.014114793768322708,0.07808360017434596,0.03779656895342077,0.03347737015136896
14265.0,-0.4569567038887402,-1.4086695978736365,-1.9364757625912166,-0.08507452479443671,0.10858941004391506,-0.2822115461967979,-1.7983511071896494,-1.0104320910402593,-0.17642620542679954,0.013353282213089712,-0.028055898710119764,0.044083772185003,0.047653263725351995,0.06289404429867719,0.06352641052477005,0.06691030378954682,0.0350424990764985,0.002929383197053972,-0.0021846925755871277,0.0207905302659298,0.09088925943402458,0.018058742949746732,0.05042460847848717,0.03679816867374654,0.002360434210930136
14266.0,-1.156383152150772,-1.2503729755954207,0.4725975247489344,-0.11281991379313981,-0.4401748884431215,-0.2863514739326337,-1.7513351543613678,-1.2471694941884908,0.1016823669069939,-0.24683747715438925,0.006252289843029924,0.10279427965127669,0.025999826912918935,0.02369031603146864,0.0524848672679346,0.0801647996805246,0.15040508415342438,0.025375363691683493,-0.06570171128964519,0.03288847453151814,0.09097856499538684,0.04141405434131861,0.07711206567956652,0.04401882834227485,0.019396468544832495
14267.0,-0.7426369036333041,-1.6357248150317656,-0.5106982146371613,-0.0767452234560263,-0.8872839099387823,-0.35315716887613063,-1.614042287611106,-1.9615131196752025,1.7780049478772169,0.3903038681252213,-0.020022189555001624,0.09508827783475916,0.02447841834911784,0.006728189137373045,0.06490287505613598,0.10478193370337709,0.10610098932930766,-0.018851945893967,-0.0425106390286053,0.043156934849470155,0.0712585750969129,0.005600040078604754,0.09118705899389444,0.06559030729142534,-0.006203251057375232
14268.0,-1.4260843294899155,-1.1512455872166667,0.6901735595520325,-0.030279855362625806,-0.9530384837077625,-0.058891453867668614,-1.6399798511093986,-1.6418303563327399,1.5435928547885533,0.4507331226260996,-0.06089151757000583,0.11113550960187207,0.03572195069341858,0.016844086332348115,0.0601775510089639,0.10440248624334776,0.12235048989333891,-0.02210857187674235,-0.04889012193978608,0.04029139862778925,0.012934910993227196,0.0877914978018632,0.10644058978294031,0.047702976580784505,0.047083872039408906
14269.0,-1.038970130372159,-1.1189907059095077,0.6658503888072103,-0.07973359262449435,-1.1498136907018972,-0.15931143651871635,-1.6262708927275147,-1.0063326396020926,1.9586129189407953,2.1638676624592237,0.0071217492224155176,0.10872669262475888,0.03255536800929504,0.02187926812758013,0.032456862942360366,0.11187573072776867,0.09871440081065819,-0.011722540784205144,-0.06219913543552431,0.049846334960606156,0.10061770530293603,0.0058730369853789615,0.0752337633854445,0.05787499570379674,0.026588742258575535
14270.0,-0.903322684334691,-1.2613840282376245,0.5384333879291717,0.006717089968504733,-1.4524481807621261,-0.0945305379597351,-1.5501724435439972,-1.0961000740618454,1.7407756322015266,1.9018467106726995,-0.0398976334758618,0.0672879753578121,0.020980443564490782,0.02174573879940077,0.03122960886942763,0.0990801302559211,0.1078329284273347,0.009329681362515633,-0.043878193231414904,0.04304346775609407,0.053560725881823354,0.030831708917356822,0.0971387446947899,0.07837933312556246,-0.005721248260376068
14348.0,-0.3354538224034894,-1.3277354587463395,-2.1863137240702444,-0.14791104473203487,0.09111925455134992,-0.12420263395329474,-1.8428143780601183,-0.7876531520628092,-0.2133093235624125,-0.03394520115862123,-0.014898658517268938,0.06220352595718637,0.019794623979383395,0.03897742684275853,0.07146431028290112,0.07954949637244701,0.09443804856711904,0.016714271103270777,-0.051201852158698324,0.03380485660920548,0.04245457103477072,0.02254017130289948,0.09353619293824783,0.010598677678053673,0.04606411553309328
14349.0,-0.24770195959505564,-1.4856523615349493,-2.1008331597615735,-0.010093637647071784,0.014625739975451314,-0.4141615839014571,-1.8099968040353849,-1.158736395403985,-0.0312327394655937,0.06174738124949634,-0.035659970650640783,0.0714619825707983,0.04901574076733552,0.02941703890442797,0.041192384432192794,0.08123397380650668,0.10163698859099746,0.0221874967106384,-0.040760250209253855,0.03419140312207512,0.03988625625460966,0.024213013220081042,0.09053137755130553,0.03315913842409171,0.0029177673268307325
14394.0,-0.3015550475955336,-1.557839771522495,-2.5041960152429645,-0.1808342769208779,-0.030167897528336582,-0.2573657113970403,-1.9291293515600814,-1.1479029823744944,-0.984983397257051,-0.5011241280473926,-0.05240515465351712,0.03511259706224521,0.04140888202100592,0.029628608484089783,0.08522484579959258,0.07001732899890847,0.056627104114949985,-0.003941143303193332,-0.030118651075026388,0.03896425547565604,0.019132052574992515,0.001641046856910016,0.07788922269444037,0.024118879112124705,0.010642254274080843
14398.0,-0.9052526977416643,-1.6755061753090679,-1.6360980199829593,0.22583504148107736,-0.10578700422637095,-0.211374645713752,-1.7296858293315176,-1.1240087313866631,0.16084322507379617,0.30402632493079296,-0.0404968727102613,0.040809974543211655,0.03630276723889915,0.00044305230200112646,0.056347333422652635,0.0837985372515468,0.04069959156322392,-0.002215201833438992,-0.0014534392310410185,0.04758332655410614,0.03289558204616097,-0.0023132280297406974,0.10430875919570128,0.03419720968818006,0.006201540898393058
14401.0,-0.9189835162068449,-1.531478995043549,0.2331950452246403,0.13431091517634888,-1.1355274705048963,-0.26018613298771665,-1.6294252011533932,-1.3179436379985827,1.0111899431825233,0.15717272562827353,-0.016379246673596814,0.13437203548324475,0.026515548870262102,0.023706346246599272,0.05437834865519612,0.08959418076041176,0.09414434017475706,0.008333124984451023,-0.04729651352635814,0.03660405072228437,0.03730962408737016,0.03148948388784085,0.09162728361410372,0.06555729246830472,0.013490775185502447
14402.0,-0.4082790560754545,-1.5692709030336345,-1.0139381764620135,-0.05215485568130676,-1.259463330354734,0.048706325716553193,-1.531428186712795,-1.5961103448458938,2.472220590667234,0.8925632137669399,-0.0016037415949745528,0.08901310924140339,0.02854287007891672,0.03380491029262774,0.06903855822593889,0.09830725912247174,0.02927830302740783,-0.020620914080286823,-0.05896795144119465,0.06469754234715341,0.07036731350439493,0.0005178359208501428,0.12414086769109961,0.07073709726160106,0.061978730025622264
14411.0,-0.40043437574152707,-1.5609609609490616,-2.178023327525216,-0.2230792925375047,0.04082344466720157,-0.36045300020820326,-1.8852027983411561,-1.179808762922211,-0.7838395954429439,-0.4189164799851504,-0.02956877569956725,0.060046515445572865,0.031041326668762956,0.06032761686193263,0.06294439741809238,0.075556967972213,0.036439258985674766,-0.01685403418203916,-0.006642662750586093,0.01824665242559564,0.021637394064721916,0.01822468988912124,0.06011850827099803,0.046428254405395594,0.057871050319390514
14412.0,-0.12756921846192792,-1.6310619739824095,-2.406002029331117,-0.21230971105149846,0.09542795097768073,-0.3422276227771436,-1.8292708866911795,-1.0632886835883961,-0.7287102693833876,-0.27245699668672013,-0.05188456605443351,0.08442480446859975,0.04447928751600346,0.03562863235241729,0.040582453121310764,0.07181371858376573,0.01385801332578612,-0.0204083098570437,-0.04784032764137668,0.029996511299582265,0.048656651463378726,0.03661352770807201,0.062182385816558064,0.04326339514824754,0.017035200695820835
14414.0,-0.36085393916532615,-1.5896233415421348,-1.289158980380417,0.026127662857271364,-0.39747915546473894,-0.1962130292305478,-1.7562667967415015,-1.5098069323670518,0.0018268788567111316,0.34911438017635543,0.009336425674887626,0.11437923061531086,0.01981612607121151,0.03282494691861265,0.09531683799229523,0.10561436531543038,0.0774990441702959,0.039489431544512364,-0.06730460095144161,0.027139979018256433,0.0404974925626566,-0.03138617035295396,0.07987591085268943,0.042233203665578034,0.01891962374169325
14415.0,-0.3302280786108716,-1.6619383866192536,-1.4658359097966231,-0.02760521560764888,-0.3621935107709311,-0.26982579259391304,-1.711250093525741,-1.4135476480367395,0.6491397520326982,0.38171282699046205,-0.026157439809341862,0.03306379606732207,0.01376111894737375,0.01930159433564006,-0.005260134974962209,0.07001999094985616,0.01812489613540713,0.008175417099972925,-0.05266867455874249,0.03758379808968037,0.08819416985876424,0.07579698851648922,0.09729911696680998,0.06571103833827376,0.009852478438603656
14416.0,-0.7638038207337545,-1.3222206967360366,0.16410824858411832,-0.10646831246637328,-0.5080808051893418,-0.3728752395803548,-1.6572301421003057,-1.2629237486424676,1.0610760283541405,0.2541868265275327,0.018438997735275808,0.10403223410973114,0.029962041161132703,0.02778810450701365,0.03697806700686097,0.08882726199147474,0.10575571028439414,-0.011766780064052568,-0.061947939941664705,0.04558356294519627,0.03796998420584497,0.03410488270171365,0.062136088559759974,0.05687774438860623,-0.03069005216504863
14417.0,-0.20660511712446436,-1.5233426052362133,-1.499316515398566,-0.2882783908170029,-0.9726642384465235,-0.23918532959877722,-1.5663472211615628,-1.8161694312577648,0.6164904383363453,0.4052395495078013,0.026557906517896822,0.09938889668789054,0.04737270288776963,0.03205172862885568,0.0573580937422695,0.06803423524735952,0.09583003712117759,-0.011695072430969239,-0.0411645197030346,0.03768780104429497,0.041727742578989056,0.03319861470082537,0.06047477380529385,0.0414717867449408,-0.02345620931875497
14460.0,-0.4900261914750687,-1.445156674745694,-0.18696522556649905,-0.14439736371165754,-0.45331433049050496,-0.3343497420891317,-1.6843119132701982,-1.639796628750203,0.7015459847092608,0.21508748757179005,0.04526997272667114,0.059261627210646484,0.014108862429722669,0.02909797336428733,0.00700075340228062,0.08334592419904983,0.0982139897403782,0.030158626195517492,-0.0161415956986188,0.03903669365201632,0.1249172870762269,-0.005669959660566932,0.12377932580658248,0.04862623170984592,0.00573654465663639
14463.0,-0.35522121781392196,-1.3758048233301814,-1.7788159739699465,-0.17957703563293145,-0.3228115260120272,-0.27020709157561035,-1.714510688807314,-1.3685050645503352,0.4943867839412311,0.29569373114224407,-0.01852487876707051,0.07217712050461775,0.0483665386132153,0.034034626978251575,0.058788597914940274,0.07110449415157838,0.0941611837432422,-0.0012787083029076147,-0.03775762661983332,0.04636073936174188,0.012351827408106456,0.020344493359104845,0.08124674524369457,0.038377832564256,0.01639868625542148
14464.0,-0.8517203673796904,-1.7566084685804912,-0.2986960687681531,0.07888812934122662,-0.6545795397295859,-0.0801736396491612,-1.7056036195113704,-1.3162192808852682,1.1849213373010974,0.14040826149062188,-0.025356973774341575,0.13226673483794105,0.018372400902531463,0.05926048318303123,0.0822760180361149,0.06881585285195696,0.1116407091008374,0.012546345509371467,-0.05305770063383176,0.0359439670181826,0.047187087764444045,-0.011198398366391644,0.10478445294059494,0.0404356468245768,0.03798032773221411
14477.0,-0.14643077593389797,-1.7078766384568764,-2.5529872445036044,-0.038157069683031154,-0.12655933890512794,-0.3652127755924686,-1.9352365460698455,-1.2734433602844275,-0.9013715482962317,-0.3674895002736147,-0.028685171511746297,0.04579490597927179,0.0476099734723819,0.05821801164136177,0.040022687854088974,0.10682571847722455,0.1047480555551471,-0.005023540293142651,-0.050995587717188595,0.011389388676987409,0.0506160324268841,0.007015234399006348,0.07911276652985033,0.03718605018866855,0.012654701770475143
14478.0,-0.3702333954807855,-1.872300771836405,-1.6769966165823376,-0.08638526204906555,-0.19378919016673551,-0.20016812683644883,-1.8655717680081805,-1.4360235879664873,-0.09937763488739138,0.1392679467261505,-0.014454054054981564,0.05995040337821942,0.03206598486471949,0.04271021879828377,0.03128034009385746,0.06819685939844916,0.08424052333440371,-0.011721024855371959,-0.033082357795291596,0.05028991975229312,0.07335457543898521,0.006140430430291086,0.04890565167697136,0.029198951322477164,0.04398195427983365
14479.0,-0.6893582914592719,-1.3196613629550091,0.36911809852406136,-0.15458479829043484,-0.9385880878581482,-0.22166620888112967,-1.6095996205369807,-1.586068653762094,1.3120405982253538,1.2114148672274438,-0.0397091007448173,0.08238375457096195,0.031027564513914457,0.031983986540192515,0.061445381753913134,0.0760450487791169,0.10047426932934143,-0.019709587076514375,-0.01746974229724665,0.04183957866054898,0.08003092316598169,0.017486463543586992,0.08770122515504691,0.04672791033235605,0.02502056915217039
14481.0,-0.6149844598350291,-1.4804808432142649,-0.20954538388254276,-0.3173854748412005,-1.2902249355882012,0.04890290011364194,-1.5701265798916966,-0.6747230474698094,1.397209046509714,0.7098563437219516,0.015801045132932054,0.1054217072624562,0.02844230620376175,0.006476778178745604,0.03463852828559088,0.08805423896011898,0.09011978153710563,-0.007084954932968094,-0.013441993140913273,0.04038592604960639,0.027179773504098555,0.029045048611247636,0.0926344733297922,0.07883573181201026,0.012288473835847006
14515.0,-0.399078286229235,-1.4069869915284428,-0.14145201479592862,-0.1830129166656299,-0.8624490833156945,-0.12859432682957286,-1.6325369094057771,-1.6733789407955297,1.7913994874979582,0.45566507517699334,-0.044051150937693705,0.09681751998142399,0.02211484376878583,0.013749055804291019,0.022852318152906878,0.09617452727261692,0.1145786724421829,0.016070745026948864,-0.024156672601727262,0.05499118467035349,0.036750631995489565,0.05937583783050794,0.07008848885493559,0.06508027841085995,0.020461638250772834
14519.0,-0.6938575316561179,-1.4352826184888212,-0.49590997645670887,0.20534440860677225,-1.2945914446707545,0.060285183404473315,-1.5400630472427908,-1.2582928754438287,1.8512023225557155,1.6824231725655174,-0.009139296348591711,0.07369948385684917,0.017345235547096938,0.02270021796521261,0.0305249822910056,0.08821606148056652,0.13974279389116692,0.044919865919893213,-0.037232114047178966,0.057420859642989784,0.04639204543273072,0.05406945902952952,0.09748763253296223,0.05973295415070122,0.05506961231067059
14613.0,-0.364548732270614,-1.6967066727054276,-2.100943158131136,-0.1485050181660231,0.06580392592298276,-0.20918234608738193,-1.8490743062043817,-0.9992003603351368,-0.5739600269851926,-0.20389008475912915,-0.045368690879333935,0.07568685846316185,0.034557467090853375,0.08670916498523086,0.11483940911298504,0.10318841834529882,0.06422734512426323,0.01513219162022419,-0.04185057052835825,0.019823367137525475,0.037194783262208514,0.016817776531694365,0.06994604347486216,0.025674746134697637,-0.011359688954387862
14614.0,-0.9332692596947413,-1.2298535791510388,0.5029833642923016,-0.004264707452388287,-1.3333885817822873,-0.2574553945958094,-1.4948006710981419,-1.024131424029695,1.826415494030264,1.4819615867536708,-0.09077161661491541,0.13772749687843935,0.022844531939175492,-6.0932933201352306e-5,0.05466588332260009,0.08574649164639048,0.09757667720158525,-0.006375905344706153,-0.0615535260643964,0.07721892615023009,0.06534440131446981,0.039255675671539945,0.11365571486032378,0.08095687623117537,0.015430199867249724
14615.0,-0.48412358327343863,-1.4070412532962502,0.06749888524287748,-0.22071170880672833,-1.3799954788277693,-0.1451364538036,-1.5204906048273044,-1.5308577323286456,1.553674810578474,1.9043608724127654,0.0001435386998300682,0.12726484895600257,0.029581979821833564,0.022635291735717884,0.03653724290104884,0.10633686700565241,0.14338403393713867,0.001429794461403109,-0.05578826206062769,0.0513187644931913,0.09205837959693805,0.007788950817054838,0.09006828487961079,0.0457958892255015,-0.019330722796372723
14651.0,-0.2054711899183518,-1.1511202949676733,-2.565324378571522,0.026655413021748,-0.30574880392186693,-0.325897319462809,-1.8812129635847592,-1.004974938166831,-0.9899862789278745,-0.35823956653934497,-0.024513061549282806,0.04026028092509626,0.04133345207059807,0.041717923669970174,0.06883269924757673,0.08245012221091891,0.03867700402951754,-0.016816854191011105,-0.03400453844779468,0.01806672548017861,0.05520785740333038,0.011582614492989191,0.05759327662240499,0.049073265544224226,0.02496773085637317
14653.0,-0.626692183126632,-1.303846337084693,-0.07035399126695198,-0.32939148103969124,-1.0528905848836643,-0.023407985540443686,-1.5838723300487525,-1.4983152302698282,1.90783104314513,1.2363638196057498,-0.039031902393719446,0.06304560751697834,0.012549230203228883,0.03862007220466765,0.05000995945353455,0.06297169867657887,0.08591362803365303,0.06804493853880554,-0.040504364576213175,0.058520893508491725,0.05852164089002901,0.035011318377651604,0.09149896243014222,0.059895331486952606,0.054778112224892477
14675.0,-0.3636150402542107,-1.4883171988934392,-1.7828508634052447,-0.1487985780243015,0.08708118462802825,-0.2851174837988514,-1.8373924043236383,-0.8546476048386813,-0.01469774954974124,0.2910897905668271,0.002584459288763364,0.06812119528432627,0.03372301626339078,0.016874641678576177,0.030270204576413783,0.07712746833863267,0.02908982515669777,0.005527249863130058,-0.02658126312556075,0.035964164574243826,0.09281044748866542,0.019850945637013055,0.09474390026779259,0.04362866535525243,0.04331621390618871
14676.0,-0.7268021496131791,-1.4013323328672571,0.009569566432393784,-0.23777557983737457,-0.3476800999897168,-0.06877906828624826,-1.7678582452543083,-1.5702751306109481,0.7919701759335208,0.23941883703672961,-0.0005625082648962842,0.056053481355519796,0.057358814328135665,0.013775214775338745,0.03680307954268643,0.09100405423151126,0.07239314788429267,-0.003564394333472256,-0.06315259712101505,0.053377388710940915,0.09241998158772373,0.021144866966522912,0.06358605297158719,0.013644567415068143,0.06926117893838162
14689.0,-0.25663440632076184,-1.4129782631952712,-2.1789924167703103,-0.2284112486969377,-0.047621273364110484,-0.27894156574351997,-1.7909247689594652,-1.1529447200789207,-0.11130598646517927,0.03442870143809951,-0.04423601618943691,0.07813791424074838,0.04731652370908988,0.05122766035108625,0.04703276134706726,0.06392806913666396,0.08529105503851726,-0.018058592885930584,-0.03963944022899588,0.043702551244929985,0.0709405916138038,0.017292630929301753,0.06830863642976645,0.029791883011420023,0.025720605309211237
14690.0,-1.1912576307115144,-1.042698507352989,0.6550387738179543,-0.06728804813384938,-1.3665518645136565,-0.14657235032325777,-1.5558076378503494,-1.3110371011213127,1.5911777612450366,1.4318995290324943,-0.03370072012107453,0.12618454883508096,0.033028630048522904,0.03444366937099352,0.03637787605026865,0.08982050794558157,0.06993871322903854,-0.013621191015240038,-0.03651870948986855,0.04959107713077163,0.09137227376145257,0.00022194723915032008,0.12424416356756203,0.05557663851710568,0.0008427694364627779
14701.0,-0.33058191271081255,-1.6203717146323273,-1.7141132630655842,0.04611907293608588,-0.2657376317567403,-0.36181613763977716,-1.9102779816192368,-1.0693144513332407,-0.7404996100743739,-0.07525339484222361,-0.017387418208491844,0.05349394855656421,0.0332200415660199,0.04022285783052732,0.05403801311108447,0.09339548546811044,0.09521383418784087,0.040244714230847814,-0.06922739521548948,0.027483639186177012,0.07160497446816848,-0.013245117902849504,0.08170014991677677,0.05234940445161397,0.00811940455209666
14702.0,-0.5023909462702728,-1.4729987475676318,-1.6926384538858399,0.04123964692299887,-0.4554535173259751,-0.16369013048084433,-1.6964144708895208,-1.6211889883039399,1.0433105670444642,0.150696364483791,0.019370165867422906,0.06167894075280832,0.008362800453452711,0.030747015499679457,0.03974885988526671,0.06872167618162764,0.0755275219595444,-0.005859468351279197,-0.033439291715222516,0.05069450952996213,0.05104313174480309,0.026873130971465934,0.10801092760616715,0.06902326479448016,0.022378773875441144
14718.0,-0.4518859664427797,-1.6807501776120506,-0.7741029646105282,-0.03275074817465331,-0.6144897273703116,0.05359765327854169,-1.679994600772254,-1.7380952819050808,1.258022129952369,0.2971665046726415,-0.012695128363133659,0.13629501652639167,0.023337012145293382,0.03034556723080896,0.03664129471810429,0.09632291306915004,0.1419415216105659,-0.002696196853375077,-0.04648587890106407,0.037954160915258967,0.05292402187058023,-0.021076460451333167,0.10769734086366196,0.04175777070848565,0.06270487528292693
14719.0,-1.213742584381595,-1.1528473485379085,0.7283882213691653,-0.08316599626937456,-1.2570274040194847,-0.21421682060148156,-1.5294501674099745,-1.3355222753261093,2.034281483501067,0.7911849676087054,-0.05248605162715576,0.080125919010598,0.0234523234860463,0.021937244193191204,0.0527441538495462,0.10530356474794036,0.1374432281072688,-0.013794235608835,-0.0571370512439253,0.052358165487395254,0.0384475501385217,0.038883910677099426,0.09555796492842862,0.07116247547158466,0.009298782423590958
14814.0,-0.15795575128238196,-1.5698356544800918,-2.3917814139261204,-0.0011143634094768623,-0.15389970321505406,-0.36400374750342673,-1.8138616302242576,-0.675810009676434,-0.5078518756282497,-0.19342112540174766,0.02498667633211752,0.03275367272467265,0.03679933046970254,0.02744382229736275,0.05499911295584859,0.10265499730851088,0.0828485929395263,0.01699161890668379,-0.04889877040721393,0.037046768634993274,0.012444490474023902,0.011583541310253987,0.06352364212684734,0.036853313124760534,0.001566516593732313
14817.0,-0.26167304654979634,-1.8277985750516565,-1.5620969214319618,-0.032752506992886794,-0.41283695053183106,-0.10605419006814536,-1.7712937029889941,-0.8973876263602488,0.5767475915883943,0.2146770607684804,-0.027030619997219434,0.07271486910133615,0.02600322609329389,0.07162345713863828,0.04483735583949742,0.0950801044673625,0.08071570227309333,0.0639820519056111,-0.033464882139181806,0.026814017785522448,0.11435341566119375,0.0009807434899689648,0.09817384164048171,0.046370302018848786,-0.01643282140095875
14818.0,-0.3381890345623675,-1.5458438490764568,-1.353940153943729,-0.15506534682825074,-0.495262599773446,-0.29223819066661805,-1.7384912346350174,-1.4682566728107507,0.8415643290050483,0.1535728335140058,-0.055649038691352834,0.08536561451970437,0.03832376114635031,0.03819648547663393,0.040199427674644614,0.0676319438300654,0.02799528380099806,0.011330269200749407,-0.040145892056562195,0.04885026796375203,0.04284498431916125,0.041255732855388604,0.10379700027797926,0.03926567445652473,-0.028399095508743574
14819.0,-1.070665925510757,-1.2503256074786562,0.7024233249013643,0.028216140325952266,-0.8312786007142481,-0.38100481328354735,-1.7181645135331005,-0.21366975591023352,1.4347588735715333,2.162183111394637,-0.030469158820986535,0.08969892944464232,0.050556203198070124,0.06773693559079785,0.02677753575084589,0.08185946086330076,0.1312265008485634,-0.029370159556373444,-0.0708129506911119,0.037123427742030944,0.12709286960081995,0.020181788758534606,0.09515307828135042,0.04945562021845408,-0.06986709189656938
14820.0,-0.5007959738303548,-1.1843896738304112,0.31254509268212505,-0.3780003867275847,-0.9015395910793955,-0.16754203667879247,-1.637549513836304,-1.2121522613428393,0.6832275051374009,0.36707608019668203,-0.04273288106997091,0.06977085416266234,0.034774620263192335,0.02903474934045128,0.06789333188433833,0.08885290491742306,0.10708424586075012,-0.029919566188325815,-0.041086274733577156,0.04184759404185981,0.04591881191312776,0.03797582802419507,0.07654271219120329,0.05047459347075462,-0.045726053765884754
14821.0,-0.853117063411964,-1.2300274863154002,0.23142216634710472,-0.06178334155279457,-0.911438294220337,-0.1817615745672577,-1.621009767379046,-0.8928025260029709,1.876562618374493,1.6774878573950094,-0.0600933803772598,0.10455133049536641,0.03701961558371153,0.02696822753074293,0.057359450231008836,0.09444070256323707,0.09774830087551706,0.009226152014675488,-0.04244907442968941,0.041180804382788004,0.06461803858647834,0.01790194386655598,0.10259735918851799,0.05474683188257835,0.03513669350284687
14822.0,-0.8385157580151531,-1.5339954204091295,0.12101600274021276,0.03191929367404717,-1.2203132100057053,-0.01966730217650189,-1.5586143627815943,-1.3907609869563031,1.8746800752107666,1.1258391411285846,-0.011564578450550271,0.1077963972306632,0.022227602957926394,0.024905105061888033,0.03752288855281812,0.09055770221050402,0.04257541975300485,-0.011210840819138384,-0.044479904282149686,0.05572528877956771,0.0726741163581079,0.020792720227057852,0.10045810440529994,0.07739228751809774,-0.07783213139115587
14824.0,-0.5519350724503503,-1.4440599372974323,-1.1905907633017434,0.040912395706875805,-1.024962866272209,-0.11867512981342992,-1.579245561232197,-1.6379612869091953,2.0952980619816186,0.7291422395036313,-0.021137083124040997,0.08081474786551525,0.04056524118416208,0.030038781270520457,0.021493890668355126,0.09908050557297371,0.06548312057225356,0.01134302203750452,-0.03556741510535813,0.0511584957396122,0.05910658263969152,0.042763627247607135,0.09839577096437914,0.05924013683695493,0.024373471456079366
14826.0,-1.0670510193760687,-0.9900965827485877,0.9307671593423861,-0.38975361802552744,-1.2442197906626737,-0.1644220741356366,-1.5615650858005876,-1.3649327001230664,2.04035651843473,0.8463706623994143,-0.028368425186764717,0.10082399202816353,0.032671573884492405,0.025273019868798346,0.032355397472190094,0.0928048884574264,0.07117092510389021,0.0006484164806482843,-0.04649772585681315,0.05246640725176313,0.0708687852520234,0.043262913363198145,0.09593559821386548,0.05718143873480859,0.05272812469110208
14827.0,-1.2627856599382352,-1.133968400040477,0.6360853076168588,0.11046312261883742,-1.2927027531510866,-0.08585323215946074,-1.5587844838394194,-1.1162887662057053,1.6120842058113254,1.3061644069164662,-0.03481765877885663,0.122288355998176,0.01517102043842473,0.039381125281047716,0.03133426470746546,0.08348542260778052,0.06778306897368755,0.003925999870055818,-0.020633980598900658,0.054058163605506596,0.01636045579412237,0.04810032185533315,0.11412613547761956,0.06240962060922398,0.053026675905545065
14828.0,-1.083126175776348,-1.3876160237118744,0.5821193009490497,-0.022257354189688393,-1.4174355276907917,-0.02530780212987261,-1.5119247831490443,-1.4404976869501913,2.381088253317308,1.1104556962065197,-0.025086834461197634,0.10062903833282424,0.04274621697592415,0.012913552333458254,0.05834230859591513,0.08584456791323522,0.1143931074606856,-0.019962851861468553,-0.04522060244168628,0.05343955657459315,0.039027037879906905,0.03225048305885948,0.1031438561076811,0.078838709250137,0.0734445318253868
14927.0,-0.24686470035660507,-1.3363746581219365,-2.414662813157299,-0.08405140888666365,-0.08415425708743499,-0.17460459730655176,-1.8809523005964495,-0.9055872290169229,-0.6313365634304189,-0.27799670464214465,-0.03654059706112933,0.05239675820678133,0.029906950872721594,0.043812913717847145,0.04830089287111394,0.0649955185035299,0.1256633637565313,-0.0009137714835171511,-0.02304516428182117,0.0295998200340019,0.017982868681586595,0.004970226676684387,0.09070515671329554,0.03461416187231976,0.046732619211155305
14928.0,-0.36974742368986935,-1.6146779087304712,-2.228690717448421,-0.03845812857145342,0.1761213261399509,-0.4000389189953288,-1.88712971788629,-0.9669993823668351,-0.45041255614718917,-0.38832950858595494,-0.054370588543667914,0.07227338864981987,0.03132252505854531,0.06710581010837023,0.044600171631788005,0.10035128668711762,0.040318122844963604,-0.015859712451015414,-0.034197034672090156,0.05175166985485882,0.04744552182230146,-0.0009709650503217675,0.07793152250914875,0.024127116808974863,0.047029201181379564
14929.0,-0.9678883659707779,-1.19338708599585,0.20103995119366416,0.13249019019994748,-0.36473322129569397,-0.2667269612127293,-1.803325506427569,-1.1761347408169756,0.45971941840997016,0.39185577490832585,-0.028644873775563275,0.032276984133718746,0.030304204928754897,0.037036182325897,0.06455301324025432,0.08344619731382105,0.06190901440243558,-0.009678594887779158,-0.04068092061891125,0.041413490875463636,0.059769922411791805,0.014512329525939538,0.08401660833991116,0.043718536494527636,0.00589453559605051
14966.0,-0.6392287456959167,-1.4964347516452674,-0.1321717182440527,-0.11591991019262128,-0.6175599393956713,-0.22603917331025844,-1.7707751725527792,-1.457929102544936,-0.14907261318707213,0.18667966709310774,-0.0013580576855512375,0.0612602783289599,0.03589610186812919,0.03661541849269718,0.046933051101531544,0.0697643147410685,0.1339526279433554,0.00022365733698226036,-0.02904974485748696,0.04649336920336273,0.009952350221640613,0.015331804187295923,0.10419745557905351,0.020659595456703317,0.03953697369436424
14968.0,-0.616165270964053,-1.432799337079843,-0.10931099902279112,-0.04692817735370238,-0.7849718453633747,-0.22274340746600443,-1.7155845872728883,-1.0173082942903857,1.6919487921403367,1.242458118104741,0.016132391970812357,0.075713701976254,0.03564340419684812,0.04203780994965722,0.00831611935695057,0.0916558569763403,0.0590698559968779,-0.009196107608653626,-0.034506430120872164,0.04103887071499781,0.04219871904014662,0.008835776177305054,0.09301499443805103,0.0570339201521609,0.0452927138627496
14969.0,-0.7661597839579536,-1.4423962355010653,0.29764392166375425,-0.20044700815187938,-1.3384386611331391,-0.08623332574825932,-1.528062790254484,-1.3041988711785386,2.241340213697679,1.2860431785533324,-0.042057846520719616,0.09424841115063332,0.020773997518996303,0.01241499969880701,0.035164125294054306,0.12045540665646516,0.07861082754361227,-0.016556762646685944,-0.03049327496834587,0.06760372536519735,0.04335224316717784,0.02201184627834866,0.10396197601423485,0.0770637256824671,-0.005208372034913522
14977.0,-0.19580416222827243,-1.8111797776435379,-1.7428209807492914,-0.15550319343130353,0.10563968194320086,-0.5095219360541646,-1.9198258159295356,-0.9517678526951571,-0.28599616648597526,0.11527168746924754,-0.00671169023420013,0.13329504765081787,0.033411222415026476,0.0403869648384948,0.029107935387464392,0.07452846004541795,0.05506200166898921,-0.05676576012400054,-0.04099382505869916,0.02043565954811602,-0.0038155732514050253,0.003867585038098203,0.11017131756543282,0.03514359652662564,-0.027876713095359055
14979.0,-0.44722989682193354,-1.446498781681042,-1.6863745743333853,0.050569726229839025,-0.49556179689373936,-0.22029706207168193,-1.7344628779408215,-1.0196226300918165,0.3762078568379115,0.6106908227412231,-0.01581056789868243,0.08985946666862356,0.03533442019347074,0.05985705899467562,0.046783690967004875,0.07018423504843853,0.07599758860789953,0.004111020867020886,-0.020205925464504473,0.04925062624115051,0.024520991128941915,0.04174421302485109,0.0945598768449589,0.015938532804548298,0.0203200674174801
14981.0,-0.48295788929320205,-1.4950552529562076,-0.7909401131114439,-0.13257373630746633,-0.5041371726302523,-0.1319690547301964,-1.7470314026929883,-1.7215118885871679,0.8113798870844893,0.33078105253094103,-0.018480699557109063,0.06924718271844957,0.03500472413123623,0.02215729951365381,0.05113648602018294,0.08778895841685638,0.1366423801484395,-0.02970261918229139,-0.04206181113273109,0.04419286696487738,0.04878384719800152,0.04182960177734426,0.07874407790943365,0.034703508562942915,0.008706131316966037
14985.0,-1.1262856361278535,-1.0687499460495407,0.8801765036123528,-0.14783941683231325,-1.488488291642991,-0.11978279965590014,-1.5289470830841423,-0.8596087451522945,1.6483540402493246,1.5252501250666077,-0.05092826318951125,0.10137396716628483,0.02745782261789913,0.028452700408362,0.0707916057387507,0.10003734269582752,0.028755755545185835,0.02109337454359143,-0.05754594810027015,0.0494328721624671,0.05426177191764194,0.0347763664067186,0.10295223160478136,0.07362108578479305,-0.009869927007139463
14999.0,-0.5181054777439427,-1.4876476906912857,-0.630171110624201,-0.04653032482494353,-1.0671612309938643,-0.08392492018948622,-1.6198959827428157,-0.9738185650780414,1.1531087343144915,1.1121234211306545,-0.020878447248755053,0.08697415271882665,0.034728619383347814,0.027902298525767887,0.022889115459815035,0.10502904948764376,0.06104173854493206,-0.007091502117079385,-0.04797466141456153,0.048981475464691414,0.10825310283759994,0.03761620187620385,0.08657593979381321,0.05111875566992815,0.03490267658435346
15000.0,-0.7622385766805309,-1.433932996414472,-0.03760934494842265,0.10102984956972066,-1.0300310731721622,-0.08388105431124998,-1.6269915847053227,-0.5949588329949036,1.4464957063665997,0.7003567766826474,-0.05667351448272184,0.13454117376715743,0.03141187041975289,0.057210763597605505,-0.0022376925776513143,0.10334175810764333,0.11860581584488061,0.05582552667250923,-0.04179408984393056,0.055133609202254484,0.07395291335055511,0.005551024512808486,0.028604803169465176,0.044745115103778495,0.022831273224321363
15001.0,-0.42815682437704766,-1.1997812565392807,-1.3251693919255356,0.09389263068477391,-1.1716288870705784,-0.126162192675644,-1.5489190201954346,-1.5138122500215438,2.2413676830903793,0.9213270646656683,-0.017812124893585378,0.11581501812353644,0.03548310486880791,0.045673083652608644,0.04016035126762734,0.10975849100580429,0.009347708797629965,-0.0060162542887662014,-0.03125127082740267,0.05374167604461714,0.07279840732786179,0.03606491431914526,0.06455169213107666,0.049479909911782846,0.008107319953549312
15009.0,-0.94897462761944,-1.5783953059506441,0.406459122665347,-0.022709916941091226,-0.8069002181289024,-0.20094097964240704,-1.6180323737902254,-0.14281809451843994,1.0751031040515757,1.487458190952073,-0.03635619924451594,0.11049368311393612,0.04200524668356723,0.03542794816724679,0.06299008439239058,0.09223732235315753,0.12656380556346342,-0.004854298519698073,-0.07199156911479039,0.04184970678716496,0.0467454644375081,0.056952193563869775,0.10800750224231354,0.06212837865427135,0.03041568519119317
15010.0,-0.10723403254957559,-1.479362974535246,-2.2290230232369526,-0.028786539251094753,-0.12738892209447128,-0.33769160888035327,-1.8260688374566287,-1.1025186196929957,-0.13996146487095795,0.1046572637617519,-0.035322429264768855,0.0767168259083683,0.04433092696174807,0.031128733316577336,0.05814145898613246,0.07658264702761264,0.0133935025739895,-0.00545922259797877,-0.03311567011740053,0.04115599378294527,0.05346600378896175,0.034062660786396776,0.08872776968026884,0.03173423851968342,-0.020723531021505467
15011.0,-0.24860291065781828,-1.6036992428839474,-1.9959870556698607,-0.1620525291516927,0.10561134313570571,-0.288709162268056,-1.7616625492725273,-0.8131246707991254,-0.018360788394515166,0.2001427959074542,-0.03775794048945628,0.05274446374626165,0.06137079291907538,0.038334089938849035,0.07063087200109641,0.056341882197647464,0.04180465139745032,-0.016587312297001857,-0.020621515867787443,0.025264145683804487,0.06116587795635104,0.03510229870316263,0.07544665396653029,0.03432476573955661,0.02810490830638293
15034.0,-0.7851898711959683,-1.134930786831173,0.45252245739068636,-0.05447649081601807,-1.3682786879283284,-0.18482452836316787,-1.5175852638206502,-1.233109579534587,2.2205256729426965,1.997745114835396,-0.04701765999832626,0.11123463806138932,0.028853113825357345,-0.00277294742099061,0.06623408700538348,0.09832288946412973,0.08116103189622144,0.03533804269526303,-0.0242320437894979,0.05453102944516836,0.02496136934451036,0.02021676342054376,0.12535003415514645,0.062234082170720885,0.042065000756955344
15035.0,-0.7793874408153824,-1.436120381212568,0.17425612262196288,-0.19070924636772993,-1.3752384613580608,-0.18799324052043886,-1.5095007432247165,-1.057400970570913,1.9877975072857013,0.8414087180743277,-0.042181899689770666,0.08162242841893315,0.03693479845052201,0.005466571812819935,0.04474793932408473,0.07912869368683786,0.12056849792227897,0.007458229307340439,-0.036596477092254304,0.05341833185489201,0.03221014834448107,0.023578738818105027,0.12731502044956436,0.08764665303651667,0.037020870281416665
15036.0,-0.7396402682862311,-1.2859758552343452,0.043174724938776894,-0.1007537200450653,-0.7828536485898009,-0.3035396345892894,-1.6659241792158663,-1.6393935976798926,0.6670501424077889,0.44823430510515516,-0.0355813605070106,0.11090709981944695,0.027735337539957803,0.017954462254662452,0.036093533995442045,0.09698535231491066,0.06057765266053384,0.03709227415912458,-0.03657813612237953,0.029768253132897028,0.0498404829177085,0.008765113880000798,0.12390772765290735,0.050721321844221075,0.02066231462331113
15074.0,-0.5881525925340122,-1.5894445348757071,-0.4571167326876697,-0.1097372578495004,-0.6202191072495382,-0.2550434463572153,-1.6837725626291675,-1.649437222566713,1.3095675020392528,0.1872048110264076,-0.05939858500154003,0.07191555516656815,0.049885074087354334,0.021360793317249605,0.058917927310424875,0.0714876535088113,0.06745383280341763,0.02021803819155833,-0.03525330504068225,0.034144188000569696,0.01410343649158256,0.037974566391281245,0.1192086328638541,0.05766172115807174,-0.0012712010619189303
15139.0,-0.7642756538758494,-1.5242162432263713,-0.09037287354090466,0.10614605928465498,-0.7155078100944743,-0.3869685836484178,-1.6376850782439756,-1.062571444519046,0.555867337955233,0.10653088420134094,0.0019805384004932224,0.1054144826578832,0.02812831578515705,0.03868352300223216,0.04511122493409618,0.10433038473803574,0.1274485481450563,-0.006827864544738766,-0.04341632324697551,0.03381590377904525,0.05484073279842406,0.028353983630818237,0.06775187197112043,0.032282230463030734,-0.028805917762312415
15140.0,-0.5381816652529697,-1.5280845844879234,-0.11010343260780714,0.048586975172012124,-0.6242418286959133,-0.27143890442005664,-1.677506504018004,-1.640698483327212,1.3221960308793999,0.5034659872204471,-0.0389185558978875,0.12251895003692263,0.01342151879892317,0.008855333872496032,0.048316757969817936,0.07585934033949984,0.08912465186489957,0.05398595780550917,-0.032657184127314734,0.04272702284027209,0.07248388469461349,0.04147656275366909,0.09490571645209886,0.05686306090581461,-0.03952577113816206
15141.0,-0.43317029704310744,-1.5973595044574689,-0.6988921908553475,0.05382455492441901,-0.28961995844602173,-0.1206600611242714,-1.6945227147219089,-0.350179916130803,0.3446714750964568,-0.03339028676814796,0.0014687479141976022,0.09956048023325519,0.02120118585351195,0.02407542041626138,0.037290523767039646,0.10113077342583461,0.05629035478036846,-0.03683152142301737,-0.0427694532847966,0.04883453164842886,0.05435896546719995,0.004768506620271719,0.10779249684845685,0.056601088013835066,-0.027280086645475
15142.0,-1.1911819625678546,-1.6113787871353968,0.21795591980330825,-0.04727091630648624,-1.1069692387266565,-0.3278631390418674,-1.7120388292205742,-0.7904189422285971,1.0521207020567385,0.7359999986611643,-0.06471271397050578,0.10642781429710232,0.035720955712491655,0.03368990984426206,0.06525571783796297,0.08027250363238587,0.14313111933345363,-0.0026687548767319502,-0.030104822785922067,0.04371091844900383,0.04384588055010073,0.05800081845634415,0.0698045103110291,0.05583881168519055,0.006177691268791602
15144.0,-0.9307782028437682,-1.128253334859674,0.6325416640252297,-0.11229469179215901,-0.8918240996534393,-0.3981712447149707,-1.536777933059067,-1.2649477179414237,1.5845789838034054,1.1668691313803428,-0.03526870062379886,0.08445142480371699,0.01667698912976947,0.03928171501452895,0.052186231962964465,0.08615346373567749,0.06724493168094961,0.01859152236405161,-0.05171775081645317,0.05984196578154889,0.041534077425625,0.033378419163116575,0.07171652085966376,0.054200320319218884,0.027686544739040295
15146.0,-1.0287644850175583,-1.2578806856754634,0.33663014843841144,0.09406149027325479,-1.139320813919255,-0.2613597861943982,-1.551506812262475,-0.9950367941122238,1.8289375769341634,1.4016181108633117,-0.061835990411891334,0.111921928562001,0.04319237170152654,0.025881532220796265,0.036974620585490045,0.10078881412128714,0.09013034460528103,-0.00016194227125558152,-0.06277315801226968,0.047148179019577144,0.05335536958203942,0.005416745821892768,0.12462593334512932,0.06214065046924442,0.044687325202780466
15147.0,-0.40788874813869747,-1.631498018933966,-0.6164639364022363,-0.04567112693347858,-1.3562034190708039,-0.1256430577394015,-1.536359944161575,-0.7871287158932415,1.8182300006384116,1.1608686448983405,0.0033074794211105122,0.06572907850907225,0.042668076527623305,0.03423832054303783,0.06060796234035452,0.09599864402740639,0.1153214413499154,0.0030316452006302823,-0.01295362928388499,0.05747761036111891,0.03869166000058185,0.02314868531920559,0.09218800087777729,0.057460712439489144,0.009558743289813132
15160.0,-0.9155926419963012,-1.126087788183787,0.754830200881284,-0.21583128353030034,-1.3688203724376788,-0.15122886956050016,-1.5570764318563695,-1.246410557382661,2.0779889401640927,1.6430135944205033,0.0037260827153213407,0.08427281856738347,0.027767584230848012,0.033759998133839966,0.03781901304902563,0.07339595597090288,0.08398914088812766,0.0608222548141337,-0.049650641341737266,0.05653813840961509,0.08667831786990694,0.0053453356979631566,0.08331380841340451,0.06314833943336326,0.05215511451191045
15203.0,-0.42678369563125784,-1.8492345947318616,-2.0444675189220725,-0.02721868329767106,-0.1856445984077724,-0.35858550993674765,-1.887885801874234,-1.6343263017455467,-0.45402811859467046,-0.31891886550418447,-0.025438797293127414,0.027142246078381196,0.04628645588128262,0.04256686201250581,0.006142189050945604,0.08158691086109736,0.012211936332968682,0.04823495180368262,0.007670301033009041,0.04806174456707386,0.02777594773840921,0.049858527432267805,0.06392141138431534,0.05285276652270575,0.014563807963837981
15205.0,-0.30019789253729234,-1.5268836100778627,-1.4291299653177316,0.019997398885904145,-0.6825348815833409,-0.16309930404613743,-1.6686340425908663,-1.5477337153459667,1.397197683582602,0.25043686326221865,-0.024407039213939885,0.04404078191605024,0.03909917770087076,0.04570971944586792,0.07034701511150697,0.08245706593042564,0.14828867546445174,0.0025851777939953054,-0.030994260352911623,0.048840904679190125,-0.01463586969437615,0.019722656824962936,0.08404067353623268,0.050285518717555315,0.05857451989824436
15208.0,-0.2685013889049769,-1.5610727993860705,-1.0420145021593226,-0.18360127405279458,-1.0503331237190197,0.08230871023751472,-1.563111088628511,-1.7640040152885872,1.9640420398233405,0.7873412442846708,-0.002508750638143381,0.1139227940655404,0.033924676192536196,0.017062562531447372,0.052574399461142236,0.0804866254915647,0.0705456774781235,0.016610292195450474,-0.04096515890857299,0.04723643772745063,0.07495099823254865,0.0359463823122479,0.07225982673408896,0.05123356856284116,-0.0023482321794991265
15333.0,-0.5040934649545922,-1.3778990245812126,-0.16244071810531277,-0.21636288864685904,-0.9168823104485958,-0.24911648568510592,-1.628288062567273,-0.9331334873069242,1.4187622211027848,1.882779861362975,-0.039823403621132306,0.08658994427475754,0.0135698155388845,0.0318153964523687,0.0622275308191893,0.10269261612222245,0.05726435345773933,0.010601980513584734,-0.042290132464738034,0.05366058589335736,0.10951734539465227,0.006925105134105375,0.10409919407125465,0.05656992233671995,-0.031862384960300166
15359.0,-0.6289172562469898,-1.5320746597111055,-0.48397692341990034,0.02209444610070636,-0.5131196523705903,0.05640624492560657,-1.6852965738902883,-1.2620072180385211,0.6697634766784852,0.12575519438351257,-0.01730341201756208,0.0857441781800232,0.03622308833752468,0.04029024872924569,0.061254925923823415,0.0978358269612247,0.10186060052889764,-0.04206910907952669,-0.0409924290726883,0.030526250193941753,0.06728338108917585,0.05226489206494963,0.07662743085669631,0.04824653280891812,0.018535538343454713
15360.0,-0.8706955816037801,-1.3620580460451424,0.2549863204668409,-0.08559727973257804,-1.242335648994545,-0.03440335490358162,-1.5584240117712946,-1.2113614885090611,1.9588155012216641,1.968681935764055,0.0012460308633987394,0.17381749894941836,0.015706385656444,0.01873783149233355,0.025805478104729072,0.11409415131679455,0.11030308108555477,-0.00023923528421174018,-0.041030643063344995,0.04508241997977269,0.06765705834525804,-0.01679152902725878,0.09364353857066082,0.05708502073229237,0.03124963356357349
15361.0,-0.8878347628332424,-1.429638911883075,0.21845144805933767,-0.013929239442628572,-1.422255336404962,-0.11912540330429364,-1.5240299060710196,-1.4754324447761789,2.489743177391651,0.9883316261994072,-0.028721729644046484,0.09184215597366532,0.0277149668561826,0.06369175894349505,0.057946210988674314,0.11754543928459366,0.136500528603229,-0.0012533668297643344,-0.07434346987381697,0.05292861028187921,0.11812265641773109,-0.016622530851589813,0.09667904814364547,0.06169112441825495,0.05110591591853819
15422.0,-1.1904471529640681,-1.055773400890048,0.8232288345590515,-0.3417941576134593,-1.4489120636613173,-0.12851426925061346,-1.573125640059789,-0.8286427835146744,1.4466538332851586,1.1694997560560982,-0.02520504922006689,0.10267453990921367,0.023329991664175723,0.03421066767245994,0.02331126159574393,0.10754462830357253,0.1518730149060272,-0.04280504031544204,-0.039219568083214314,0.04825727376290129,0.01125812877623493,0.05134313367953527,0.09789054309078866,0.07390668182742659,0.008691539202847253
15455.0,-0.9913667463115141,-1.6108331678317913,0.2540076697485902,0.2962634245630438,-1.3284414806026326,0.01864907916750966,-1.548799424206816,-1.4941108286176523,1.8994129943288254,0.7416142118643299,-0.007425928731252046,0.08072136635828807,0.02812660983591223,0.009860035092747972,0.05304356914194822,0.07384567571500403,0.03686402220115646,0.014427358697259572,-0.009240038350064381,0.04271983181594221,0.045402625317901554,0.0339242687412665,0.07981902812091778,0.07867476539747018,0.04380349698888399
15535.0,-0.9271559159531069,-1.3723298278474902,0.18705357184596652,0.06834362715398273,-0.925078203566278,-0.11978176138857896,-1.6447616264740974,-1.3087416673602916,1.040090435231263,1.0646368845296084,-0.014013304107497052,0.07782890208903148,0.0058758522463927135,0.019803477927725816,0.06446805695031961,0.0971196825754239,0.1603699948918959,0.05906031029998782,-0.030807341408826783,0.04991977598686524,0.07349883928764554,0.06429953652727413,0.057291442521740975,0.05219097008806635,-0.05783226216674905
15560.0,-0.8954823283626389,-1.3095526721035535,-0.013320082687605992,0.10081848409426948,-0.43859049874576667,-0.2891939128139976,-1.7354081611556118,-1.7259832997676952,0.12764637266771633,0.0860114394591853,-0.05460618418205035,0.0478868420528101,0.03334440648437167,0.0328672015131406,0.071328241747495,0.07962065594816808,0.05195642351673786,-0.007311033752167267,-0.020305267946354993,0.030718917750440847,0.07466623049556492,0.02789066240259576,0.09068340190329872,0.0475276814742945,0.024152169559976643
15561.0,-0.6800779860601647,-1.327098435934781,-0.31693601290622647,0.0015142606739709857,0.06184437170673359,-0.17723448924081575,-1.7592248842341198,-1.105429945830531,0.3096384801826536,0.2753678884807026,-0.016915111754896132,0.06003293728871675,0.02882810653333109,0.04236662683034096,0.062010178323325366,0.07199187574509434,0.07662620030730272,0.006580764136590195,-0.028067260011971882,0.03379881229678338,0.06696959375693799,0.04151311189061602,0.10113180648905311,0.04238786825444875,-0.009331397537302333
