subject_id,rt_μ,rt_σ,rt_shift,β_trial,β_anticipation,β_zero_order,α_zero_order,αM,γ,λ,β_targets_2,β_targets_3,β_targets_4,β_targets_5,β_targets_6,β_targets_7,β_targets_8,β_targets_9,β_targets_10,β_targets_11,β_targets_12,β_targets_13,β_targets_14,β_targets_15,β_key_2
14085.0,-0.11544205243147039,-1.6496058825748416,-2.3970276148219987,-0.0066079855367687755,-4.037318873764332,-0.16082412254908127,-1.7605332457875633,-2.253425883234973,0.7779522306859656,-0.07010551295649733,0.03380136434488253,0.08431482333902265,0.048625170721201795,0.0411861167121602,0.06604688740331162,0.06755268279066677,0.0854109251469267,-0.0576425431833969,-0.045596260795580934,0.02012984042567409,0.06523602843719921,0.0032402262035712967,0.06176664421290339,0.02969477398139517,0.01881740458997691
14086.0,-0.21720436433477627,-1.6746373917237647,-1.9605401171672066,0.12068131202688628,-2.8837171392438585,-0.19352192085180583,-1.7845546947526765,-2.179012595469885,0.8052483094539677,-0.4566141829452507,0.030548996676449284,0.04849391155814723,0.01188398353949784,0.04489671096066325,0.03871866942133061,0.10166106531758133,0.014060945393602012,-0.0447522470674327,-0.036130559733560316,0.02970972527446955,0.10322717885196084,-0.0029027265117075106,0.10744579276987205,0.015449957221544791,0.059863026982729196
14087.0,-0.04342946002411672,-1.7788194053330117,-1.9857676140110319,-0.1108795961191417,-3.3728565930027488,-0.23071406367210961,-1.74560185535038,-2.1825776095045075,0.9289723347382638,-0.5741797353819199,0.0054674345063142425,0.04433634230921984,0.02304818585039934,0.029256437180004542,0.059579878263973624,0.06270987587755764,0.11113362968973894,0.014255662850124282,-0.027554618814224302,0.008835721849068383,0.06253716730552492,-0.007306830291515718,0.05689574096056297,0.07755478354992108,-0.010656581603683926
14089.0,-0.07973234831577551,-1.4935664512837523,-1.9226190927419233,-0.04459150891877659,-3.1058887614783086,-0.06073099985155354,-1.716111098600232,-1.94014693846811,0.8466392238873027,0.32900985261038773,-0.020717608229531954,0.022004625494401638,0.03593045319274079,0.02731413380790022,0.07219256760948992,0.07542069643022126,0.04269567209902648,-0.011590393213639942,-0.03948065647992884,0.03805753631949982,0.031288629507075824,0.00945194308385805,0.061501080960747266,0.04887755701768346,-0.012944628718472614
14090.0,-0.2213482280886252,-1.3973308602924972,-2.347325684318751,0.03331964659058483,-0.8349529114318572,-0.14234640077480915,-1.7120415441445362,-2.2154734452170217,1.0166402657936344,0.032417848812271985,-0.00038249805033074716,0.05638698475015678,0.016488199166634156,0.017595646984933724,0.056437940996381476,0.0737596473248851,0.10255477290728136,-0.012990706966297661,-0.031152566645557853,0.0287091379303805,0.0446512782523892,0.025770267959938677,0.07654064501896375,0.04137013237101041,-0.056509685411785984
14091.0,-0.5429322492069678,-1.2796420579072199,0.18717791912455256,0.07737319593588023,-6.192131652735251,-0.2611243276430128,-1.5761772690212434,-2.3705834692508767,1.6721555156111163,-0.031792686529284846,0.007627248230154113,0.06934823816210943,0.04608672907632231,0.013260859216345403,0.06659223077343522,0.08229867320119964,0.08933471373473709,0.018656511704804292,-0.025881509685316464,0.027330743261921434,0.04873802430786699,0.01827802243662398,0.10224992532839883,0.02970261417252908,0.012738315291405726
14092.0,-0.21488669495221535,-1.4175621419274806,-1.2650556819815562,0.056198343294240415,-2.573747191303137,0.04760348362574528,-1.5196647898949525,-2.2113866323468385,1.686436763942735,-0.008578071240705552,-0.014497415584670745,0.07522920552582243,0.027555448316614467,0.03247240932462591,0.047151108912110065,0.09925905130834545,0.07059881225340119,0.0038008328919386875,-0.004855879166946951,0.0513051399656688,0.07152730586335874,0.00033159819622957193,0.0714022047765997,0.06994381491750691,-0.02828659736827428
14093.0,-0.543267953065876,-1.3812223341935501,0.11824300162875481,0.07717478500162397,-3.9926704631910193,-0.17898723409094422,-1.527642351863217,-1.7391825999734776,1.4317420904770894,0.0087649663507596,0.024810099636674347,0.07054104540314927,0.032551161291421334,0.012810786033854172,0.04008992930251046,0.08804572460360223,0.08638128818785717,0.029969200668044763,-0.05345511610507148,0.06475982933987293,0.049369204176864405,0.007522988647261861,0.09317090286805836,0.05092393254078297,0.03668300725263266
14094.0,-0.6225852665241006,-1.440031627547004,0.45759741058526815,-0.05084321934888893,-5.142983251735409,-0.19233108725408873,-1.5377624869484356,-1.7186858154487958,1.4951505881692844,0.1921105612992991,-0.0234549586059252,0.11852297982452473,0.029707810041585975,0.004173646050992902,0.0992063670815581,0.10182421009425915,0.09418014619517528,0.01934556962298609,-0.041375960492813536,0.055504692420400396,0.08026538243630231,-0.007526079857061058,0.0827497153013746,0.060827591493445674,0.09384299257722503
14095.0,-0.5621942968899458,-1.2797879490409199,0.3974976644909258,0.10311982609850552,-4.632097169069043,-0.24525721891955582,-1.491984736034213,-1.7076442848628892,1.2996081992886428,-0.24023802318224777,-0.02921296818194681,0.09853403859564172,0.05267345557583408,0.01936179531548518,0.05133388459823105,0.11127087827185046,0.12269502332144687,0.033602775048180496,-0.05181571845693235,0.06824826844750767,0.07226827440483885,0.005049444676915733,0.07699520943778217,0.05829048603519006,-0.021850183621418322
14154.0,-0.13783182687636258,-1.4191526403605974,-2.063014956793234,0.07128574358411478,-3.090510770636353,-0.3152916677824056,-1.5806996885611997,-2.0180515910612433,1.097923546444646,0.24994183322375407,-0.01970236246815886,0.04243128150354277,0.04149354565870066,0.0553939926088827,0.08658591561884738,0.0677562980633459,0.06825978068042819,0.05095738478999596,-0.04598276225695343,0.044089832562424276,0.030343664355579638,-0.019835693784770844,0.0888416055999939,0.03061682533149105,0.019920585373553214
14155.0,-0.6307310136119492,-1.3246396072949482,0.3380900080891376,-0.1520995444413275,-5.5784828554632515,-0.07836055390586066,-1.5321555586275344,-2.280021555347511,1.7145648164771878,-0.0032135819205562936,0.0082894116201856,0.08234250251351442,0.058075418115088234,0.0016553789087333365,0.045458865235130194,0.10470393882499297,0.12457123749492839,0.0036354719329001048,-0.04237509141380217,0.05177776075204581,0.01770402253170844,0.004546587590539684,0.08953813964211498,0.0783815931330768,0.0030976026319673266
14156.0,-0.3547758279926581,-1.4605678545470524,-0.3292294040820619,0.025341207829939198,-3.8609797126033554,-0.24739147999404204,-1.5503570705113188,-2.058029667068987,1.3155708731598024,0.36248264318086415,-0.0025122690977664413,0.10542486147389685,0.020518204917310972,0.05013155327768874,0.050251186545860776,0.08689684199136391,0.10349808653624386,0.009152153973041689,-0.0457357875365188,0.027651890778482333,0.04303729913328462,0.05299842706658192,0.08425322920615114,0.05070289847837458,-0.005300709204397783
14157.0,-1.0553593120541038,-1.2822454874108018,-0.1266379321933533,0.05321179859651947,0.5969068981891672,-0.1560336384141982,-1.527331043460648,-1.6561444393800322,1.1014845833567435,0.3417292364580743,-0.05927443114221034,0.09684096363247416,0.024272140290833456,0.017164319100414847,0.05815550836559147,0.06501502369012846,0.11636209184813892,0.010176987049427497,-0.031420757945045084,0.07798637943989566,-0.021260026658390885,0.031932847354747974,0.11765692816810878,0.06086611669378786,-0.009497872422629377
14223.0,-0.3632880665368664,-1.8179142238804853,-2.126501561026786,0.18898025485885334,0.6681950186825201,-0.2176421549182529,-1.7977641040954233,-1.9029054678708468,0.8524148969696485,0.35606161162995414,-0.028031165309755048,0.0891252382805427,0.05696808752346473,0.011986688929931528,0.0024601684558862922,0.06406148321550371,0.05281874820275682,-0.00783128659270891,-0.06500078799657834,0.03739597922254655,0.018856771915489037,0.014728118417362369,0.10196566551833375,0.036798439959526676,-0.015234665458852499
14224.0,-0.5098652845645683,-1.459067495918778,-0.008071899266621494,0.15076601246806307,-4.879899690137322,-0.23630384829895404,-1.6574190888509661,-2.3009025400600325,1.1113226963911196,0.2977481077712243,-0.028673431793072007,0.06156783466513468,0.03229355787291093,0.047940226282771545,0.06304529346694432,0.08010276987804359,0.10226133855511742,-0.023426157479732233,-0.04857273828162994,0.03407010633810713,0.04249281495397047,0.020815988241154305,0.0744135708991972,0.036412662205121855,-0.0068141665578616934
14244.0,-0.09934193444190732,-1.3676541653449505,-2.402594453862834,0.07577332465123567,-1.6046885943590172,-0.12254963379586177,-1.7369868825327486,-2.268982556965432,1.020755713623611,0.027329555142601908,-0.028926595237291214,0.0560804087648814,0.03539410082319587,0.047423170070577246,0.031687650785688234,0.08886709936409565,0.056226069663145556,0.005477173856089399,-0.031341595219558836,0.03466793129885509,0.06051476876558185,-0.015154884392057788,0.08609509116984337,0.03797785368748615,0.0032785767272597
14245.0,-0.3585302413432939,-1.6918998015233069,-1.5622823736893083,0.02497488227223693,-2.8283345878548123,-0.1599026148850926,-1.7261397115398662,-2.424446976368479,1.0583523059268745,-0.26782968139283275,-0.04201507864723229,0.0889773436891189,0.02800641541442808,0.025214057957830622,0.03896346571185784,0.07743553061234652,0.10134122720538574,0.03570266043449919,-0.03971299129919529,0.022486546035737673,0.06675317284810656,0.0039427396296320815,0.07084926180351325,0.03219838871809801,0.04328875749724074
14264.0,-0.08700430353985564,-1.4320191922402399,-2.213406679302794,0.010698291789398625,-3.044435147693001,-0.1971839193829335,-1.692834692104762,-2.06928133685027,0.8946118473257952,0.39567458502349045,-0.020474020091627923,0.04870679839728957,0.055178626170271215,0.030388143453319146,0.06471697690494195,0.0878251643350037,0.02160493331284396,-0.02931809625939685,-0.03230172435476366,0.02033406960552016,0.027664588341669176,-0.019954553161023954,0.07441735442166787,0.03988049638116144,0.03641854261809577
14265.0,-0.24334638784803583,-1.4100589625211728,-1.964821526899121,0.03487487765667275,-3.5585964908234926,-0.17389163972047453,-1.684297393412659,-2.3291342472849097,1.1808482045868303,0.15588333188717807,-0.03635171529601217,0.03858053973663682,0.04602779194094803,0.07054964413934256,0.06292881193512831,0.06616959936828987,0.034427369642089506,0.0031772642421145276,0.001686338290242819,0.0076462359727440836,0.107020105408723,0.010296230612285172,0.05556478036177192,0.029638702371027968,-0.001331141592207646
14266.0,-0.807084038001713,-1.2362317000991352,0.5132894084320794,-0.11080502681195534,-6.197823280874031,-0.24302272467739444,-1.6434935563045807,-2.2446575759743914,1.1527908466829027,-0.30507403058797533,0.004795493741841994,0.10052084847472093,0.0202637900203363,0.0219021355275681,0.05288117400106144,0.07893905075249594,0.14574711431572823,0.0205245680365069,-0.06686461230865677,0.02939801465683231,0.09866212149834327,0.035187577763550415,0.07622626557062379,0.042104792267758075,0.01824601639824828
14267.0,-0.541113705032838,-1.6417782242973773,-0.5614010763127676,-0.006768128172917982,-4.258836177859004,-0.3031604617199028,-1.5410271281244883,-2.2837413129232336,1.5626092655826502,-0.12083946636409817,-0.02538928577211617,0.10038625921683443,0.020481168486699106,0.0017298344811830196,0.07017031197339917,0.105791441833294,0.10675097376435849,-0.0226600226861641,-0.0409854816086121,0.03709747916470412,0.07737919365067794,0.008947778224935601,0.0906469148546104,0.06602941242505456,-0.0049762548432104635
14268.0,-0.9746478290389873,-1.1355737325392319,0.7271831527465216,-0.011413746735379727,-8.094479031552662,-0.052416853310103005,-1.5536307289966265,-2.2516885736838526,1.6750214648350659,-0.1225893120194841,-0.06292157764469343,0.11113100828458336,0.038028118269676774,0.014839098439128262,0.061636251360146325,0.10538203894402086,0.12315664114405098,-0.021256937828499033,-0.05189535787765489,0.03579365315214707,0.0069000731248951815,0.08239303524685772,0.10465204660776267,0.04551623753081664,0.04733001143605094
14269.0,-0.6743114635736409,-1.1330451379712119,0.6535924603542379,0.13113501530231764,-6.922492525313508,-0.16440711143047743,-1.5498478595064777,-2.0733735138479585,0.9228029811594788,-0.6224773486623614,0.0026026143759025787,0.10517198087398039,0.032967351704053516,0.02564880146340995,0.031175446961013924,0.11148890649349459,0.10611012882248387,-0.00257704190666451,-0.06405429402010299,0.047128981984330465,0.1097819719103575,0.004256227603923406,0.07779446665505738,0.061334626574561256,0.02561261006755761
14270.0,-0.6737207882917887,-1.253874063231859,0.5709142385673759,-0.0038663439545109984,-4.909616085963421,-0.07838315385224301,-1.4750145662710656,-1.3624131370492583,2.1468074050916637,1.7569004212282764,-0.03902914323830337,0.06766775097317042,0.021102585168191596,0.026856217373441977,0.02854189271723565,0.09993020722672001,0.11917412353577406,0.015321485697216322,-0.04367674553713769,0.03436598958650746,0.05076441187782466,0.028683104678274222,0.10350272850513233,0.08417960123288096,-0.004428500684109669
14348.0,-0.20463381271926356,-1.323805228143132,-2.211469957685651,-0.06326384329262069,-2.2547038705773184,-0.029905651151714435,-1.7186154165871628,-2.229706450612455,0.9406613109599261,-0.19259327911705654,-0.025901821350360812,0.0580625363155723,0.010407850673737756,0.04545479188536142,0.0675656289306797,0.08469866201880033,0.08322674151078344,0.0066542751541544005,-0.04470343438547091,0.03408061501299525,0.031184618505480977,0.024390834490835338,0.08581586235129801,-0.005743303477572036,0.047582795449568914
14349.0,-0.13410733112423479,-1.4881168509571134,-2.1304003318618556,0.06694047043422849,-1.9479970617881095,-0.2955829308054794,-1.706616863980107,-2.228742198621964,0.9751384336835953,-0.08454131965879998,-0.03557182212335602,0.06559977547354064,0.05488686209766088,0.031579254561375024,0.03983920464006558,0.08745856280370891,0.09260125414912956,0.016562286326714665,-0.046304200817980826,0.03439480834428043,0.03736313095871765,0.016489065077585373,0.08544984588735224,0.025819463806353953,0.0031424053787234532
14394.0,-0.159206125859339,-1.549487714578758,-2.5260574416839074,-0.03325468867848018,-2.8894894701287916,-0.0966378847271434,-1.798534070492511,-2.078950598876175,0.7319695262703753,0.16579946893551703,-0.05798875950567965,0.041183727829280696,0.04180558542734182,0.027727106693964165,0.08933831885470875,0.054459030286650285,0.06569173899577711,-0.009521590711819862,-0.03286023031675482,0.0503091771985449,0.016233543609233965,0.0016186798614473094,0.07498519735047621,0.00861893765559104,0.01152610279449491
14398.0,-0.9767675754167489,-1.6646410404819367,-1.7786447742234037,0.054759554426383146,1.81717081960052,-0.31411581148598194,-1.6336800519969146,-1.948572132955822,0.7871316224433409,0.5922585203501809,-0.03831870643355094,0.048007717290236514,0.023733415737591745,0.0016862853614604274,0.02722654990964549,0.08710777543136206,0.06585918781896452,-0.0042133823133075465,0.0023578992025961873,0.05891548266532148,0.021101115000194248,0.0054891343461906566,0.07639883344133194,0.027158293948488163,0.004448763594356836
14401.0,-0.4502789813262774,-1.547259518098469,0.19942574786147735,0.08769858506649017,-7.693792935623949,-0.2928719931604703,-1.5592412161235243,-2.126636518568816,1.6694258521028886,-0.39606856892316733,-0.018585697231431858,0.1238473288196856,0.03152612283057382,0.020347281797148155,0.04558417141158915,0.09517333719083836,0.0988976529004482,0.016670454664526907,-0.04111807329922268,0.032139098008717885,0.018325506956440297,0.025248994147839435,0.08850425501050094,0.0714173483271978,0.012942596566521953
14402.0,-0.3524132143970555,-1.5723754944326778,-1.078879664235447,0.025416074826710423,-2.377139507875698,0.010082063837762792,-1.4603142840005718,-1.9237516987789192,1.6307516403688764,0.006000497527936201,0.00845575467697253,0.09565283887655103,0.02976070153705062,0.033614821139286453,0.06852324538009691,0.10183905487570737,0.03419918548835427,-0.016212824092786148,-0.05970139735886439,0.06800159452297351,0.07608578698382318,0.0039774715483508125,0.1255866541728961,0.07333438524784035,0.06405009337921269
14411.0,-0.2200061022016896,-1.5561567921028496,-2.2019177907307665,-0.14215855659675491,-3.1094494896668405,-0.17979671211830167,-1.7697514627409783,-2.2495859980341453,0.7816234154512752,0.21920824468720437,-0.047049688848246375,0.06837304142936454,0.027482084600895317,0.06313908269856845,0.05471741195210243,0.07225290207519004,0.03426404024004051,-0.015497494189121701,-0.0017560565455033092,0.009014832961914767,0.005603940452250016,0.005822073188622569,0.04926010521061756,0.04784024285068188,0.06032259075073494
14412.0,-0.0007141228040525436,-1.6149996088178642,-2.416701221938738,-0.07998877056526643,-2.3720054250380596,-0.16411678977281477,-1.723690373562576,-2.018307699271385,0.8932514049438407,0.50494710880392,-0.0415601384689467,0.07210724215778143,0.04476453652319657,0.02841635363804576,0.04652690658657676,0.06839182989997225,0.020357572712309337,-0.020361698719842596,-0.04579576540502018,0.03158302284067185,0.034667966106103336,0.026590259903408024,0.05180784403456424,0.036302549634229166,0.0182760228245271
14414.0,-0.14472157433363547,-1.5975186063874638,-1.325970447267363,0.07205749062743247,-3.78508589577049,-0.17386913735771714,-1.6313646489422502,-2.1900454239538263,1.0866750983028735,-0.22911092751035136,0.007451465768840184,0.10814525988923168,0.013880225700622527,0.030644550884757774,0.09723091929582044,0.10391609484915353,0.07943676722792727,0.03833631510397713,-0.06815060691283471,0.02105410181910738,0.04044080782045086,-0.02904402830578588,0.07718501647820154,0.03599248686755516,0.01949787249827395
14415.0,-0.21217637303734813,-1.666617306512669,-1.4796321461306532,0.06709373100115096,-2.4432317508923593,-0.24410678649224135,-1.6036724874140695,-1.9415344636960408,1.1872274305888804,0.5238859105743465,-0.026898145683802804,0.050149238632421385,0.010130646428160256,0.023812240750190533,0.004702473076157539,0.06366839817169521,-0.0002309841781466564,0.002355086254744222,-0.058615196956118214,0.028477053906248297,0.08907073217648494,0.06835185867720572,0.0918723565265541,0.06650409720109308,0.009596861335373562
14416.0,-0.4908649988317348,-1.3433766610555495,0.12809673092104754,-0.1377691203002592,-4.600753580944771,-0.32350382298192215,-1.5744629071761,-2.335483741241537,1.542767281053803,-0.07963032271441456,0.02111121916144741,0.1032417272917667,0.028884059593936105,0.029627402069859792,0.03469862514349205,0.08607722488607886,0.10535908057166915,-0.010844299427351187,-0.06226175089773578,0.04596841085757687,0.03256215719502894,0.031099261576899167,0.06269335779394909,0.0579916877196147,-0.029126423794685004
14417.0,0.023130288897518333,-1.514049026892653,-1.4822463852342949,-0.13032240366712555,-5.059719859339223,-0.1611257073861039,-1.5112725832509557,-2.089297806792225,0.6562609660181464,0.05065526837432964,0.01566318926697482,0.09803138097291997,0.052399111134330684,0.023054310093354215,0.04548208729379901,0.07199616510129093,0.0737927022266559,-0.004841364944634592,-0.03525236344158428,0.04023782107543278,0.014677038108804422,0.039940745026771536,0.08034679938242013,0.036546933210317586,-0.019873777082857598
14460.0,-0.33996861393092737,-1.445266092911552,-0.19721335936623613,-0.08840632955207316,-3.0500684385101002,-0.2553816852188435,-1.6085105385639407,-2.0247100392634634,1.140958108651815,0.13077599796201292,0.04483331551898637,0.060555199745105294,0.011047237927182726,0.022134069989979854,0.002544242889584762,0.08381597380336415,0.09579848526644233,0.03018758353111917,-0.0168781063207629,0.040075822097183106,0.13042418317668306,-0.009970245115756485,0.11534296181671784,0.048189100116701286,0.006119789979179307
14463.0,-0.2475532927590403,-1.373916917447515,-1.8154144595571624,-0.12403386263705714,-2.5191474365854787,-0.22628768552059705,-1.621996017467305,-1.9639390897655122,1.115444964561744,-0.10485557006961292,-0.013252111921743009,0.06834421041930702,0.05065893470582722,0.030888777232648514,0.06443286501002002,0.06664417669900628,0.10340299076402881,-0.006816309387822132,-0.03353732901827909,0.053900677196038346,-0.0008921126371059966,0.015158083937560648,0.07915180751217515,0.031165944057337906,0.02056492666634056
14464.0,-0.49728759717134335,-1.770791143665962,-0.33000561364815256,0.05988176367876465,-5.682393045050162,-0.094825681829508,-1.6054116788645632,-2.448395774690983,1.6230492125731948,-0.17080536408451433,-0.03232349222273684,0.1298729391122168,0.013068167207194049,0.06198598165268963,0.0841654761527006,0.06750592547967452,0.1150055726280794,0.01211826103243375,-0.05197835557623214,0.03017108712620456,0.047286052730471394,-0.011168879003169666,0.10479572860249114,0.03674062561790143,0.038579155184284536
14477.0,-0.07530120255813881,-1.7059665688742573,-2.576556254433935,0.0016543748673219112,-1.4395518140558505,-0.24335587254847427,-1.7962002077244377,-2.10920897710984,0.7343561443439689,0.04929264611184472,-0.032203235716285986,0.04295543045397274,0.045664232719891756,0.061612072973978554,0.0321514297102248,0.10438943988692892,0.09668125084601409,-0.010599547849508019,-0.05246122417502763,0.008160202285687326,0.040895626554726734,0.007891673398150355,0.06987750843492707,0.03024985147126063,0.012471904960662306
14478.0,-0.2239940826716089,-1.871735860982867,-1.7325364631824922,-0.025388089574468205,-2.6521465635719372,-0.13127902348884352,-1.721357839157692,-2.0861334946922687,0.9524476947348145,-0.02518501447760475,-0.01961232210802502,0.06049331129986968,0.032359010084776825,0.04603982359500314,0.03218952635129436,0.06472414933224277,0.08212548738045787,-0.013474736873822864,-0.03364870592224769,0.05788111900602642,0.07524464378056632,0.004980089916288342,0.05308166109265583,0.020387636862063137,0.04297525950587204
14479.0,-0.43951252796938145,-1.3269834019776237,0.3556974744227133,-0.11846905062517835,-4.99668162117496,-0.20101395226562505,-1.5326088024146556,-2.094690590258892,1.329089883024517,0.14692356955691455,-0.04680452125421036,0.08390728232244024,0.03478286099776002,0.034835669454004396,0.062165554444652,0.07219498135517581,0.10600916719683162,-0.013619318862550285,-0.013671412133441464,0.04348321257790313,0.09518656867247464,0.012340406660043695,0.0807691136702567,0.04636070476466176,0.026894073166599895
14481.0,-0.39703759897688223,-1.4255620035027106,-0.09291874096694397,-0.029827735118464517,-5.758657665325808,0.001086200217759927,-1.4936734577136046,-1.7986920559108113,0.8973306165968447,0.3589021813181643,0.020935930384988692,0.11304718522208929,0.022165979118484953,0.007390253681890488,0.028636897805224545,0.09288306049300939,0.09125708946596897,0.011854677234798817,-0.025118947771872104,0.024241768107335183,0.03611066757223002,0.014258802427755877,0.09179141082970187,0.0797358114765153,0.011080946277026615
14515.0,-0.3381593066610605,-1.389675847561203,-0.12997151622662662,-0.0555492893111489,-2.79567588370446,-0.07996162192051053,-1.5436963996628492,-1.9870832612890985,1.4113452670196536,0.026640275924411563,-0.04841636449871681,0.09995745764926652,0.01576959647676219,0.016077307759603317,0.01527632911328812,0.09718590402311261,0.10840603320786836,0.02256674001454485,-0.015369111881163062,0.053941261159315704,0.036709490721650424,0.06350865827650046,0.06496735235888636,0.07541378808500486,0.018075834403385695
14519.0,-0.7624621216598617,-1.4335297517267342,-0.6067522020746849,0.03733808828219511,0.8827009330953164,-0.05295712367108994,-1.4709346674668577,-1.6324195746537613,1.1901688354820048,0.1573988507826107,-0.0012524790696567512,0.09039791032846779,0.01901988587029673,0.02883305449033036,0.035142463855806105,0.08286878358873784,0.15893686496285964,0.029074311061712044,-0.026047702544778815,0.04916577158437396,0.05663250753882024,0.04424763679148749,0.10799672270804835,0.03641704544051676,0.05534450903862646
14613.0,-0.2593623188310705,-1.6999616669242266,-2.1440422967993085,-0.12959308862408056,-1.6361833758989612,-0.11998051004015836,-1.7368468367422745,-2.2669193353777697,0.993694671575005,0.004142681624339135,-0.05147896555486127,0.06945563164695832,0.03076124065960166,0.09923367786207456,0.12109306634527184,0.09752717549145798,0.06659331521706753,0.010710793662947752,-0.043778116545824856,0.011497940295389177,0.03555103396243809,0.00963661348213803,0.06761085301229894,0.012702685396680452,-0.01264420323887304
14614.0,-0.6413479891809487,-1.2441673921061513,0.4783570794103952,0.07031474852077702,-5.879240261199404,-0.3007425631433064,-1.434484281109965,-1.8062327401420988,1.7822863475678974,0.07291287468198887,-0.09378060687101668,0.13887666500062193,0.022865896060102878,-9.133342593724076e-5,0.05594063655477309,0.08841866478560181,0.09802278743498931,-0.0016634459980690392,-0.05947756857533652,0.09190404975303788,0.06665204998467117,0.038633943397721936,0.113324417155186,0.08833693457870094,0.014930133198605224
14615.0,-0.34358287836175827,-1.359423776574359,0.1644306268647621,0.028203444542108266,-4.7902270431142915,-0.10053198661397406,-1.4579692958502115,-1.750617343107907,1.0354841574135727,0.14524346197507182,0.006452531509411808,0.12804478969921776,0.04143194950084785,0.027166754339227488,0.026558116554532333,0.10267599331662874,0.13130581985864917,0.0006511791793289618,-0.05161596853430996,0.0493830351960589,0.0820198451839613,0.02367391165291146,0.0821153664802332,0.060561091442584335,-0.015965441935177644
14651.0,-0.09819092977214493,-1.1460545978824779,-2.587147920423215,-0.020168638112468835,-1.778337306747834,-0.21511585270710507,-1.7578896995829656,-2.0406332687072357,0.7513546024276421,-0.17494863771677818,-0.028702523906435937,0.03487207169908526,0.04101434382796576,0.04182582231970746,0.07118089320377524,0.07537585466769808,0.03353164579013596,-0.02126757189701416,-0.033133704283792545,0.01091425160069299,0.05302570205530664,0.005892129982579755,0.05640150090980166,0.048957390269631564,0.0241942425938287
14653.0,-0.43282198236808744,-1.2518483449158437,-0.011254022469923868,0.04838814462615613,-5.718869525415793,0.037641347608708305,-1.5080398897817064,-1.9344885851504283,1.1616379534515617,0.7379375108796778,-0.05290219060613242,0.07070691929796223,0.011163244042107855,0.036011008591671154,0.07230984017321082,0.05840210316331223,0.07624869555257822,0.06406267503632107,-0.0334148614657557,0.07211766054587664,0.06212623838478797,0.024371527696532336,0.08711167827880219,0.07418853197280671,0.055705157748096736
14675.0,-0.20993292695241275,-1.4837653435036449,-1.809171595029639,-0.07157760262557193,-2.522373424616452,-0.13677860883546053,-1.7002190980138399,-2.1516896892552215,1.0929680448532573,0.29913474835946263,-0.01236807622549753,0.060829820012866645,0.027955349652789546,0.0170792427932349,0.045804212829356,0.07198488984385461,0.01953330251520554,0.015255456217393342,-0.031461348645673175,0.03617395817718808,0.09547446493279785,0.027299138865855815,0.08819818668857012,0.03918832723691822,0.041496256349422715
14676.0,-0.49072877453744096,-1.3793517669364581,0.038088982289651976,-0.13371045311473229,-4.799302538874545,0.011787583273381684,-1.6427797561570243,-2.0943922441829668,1.3086446744265718,0.20343392038818148,0.0011037391859496707,0.04343260744982324,0.06179543880768233,0.017852616918198363,0.0394901084703089,0.08789112136443405,0.06951843414983098,0.00832214124100539,-0.05528508577416198,0.057881858110490236,0.09668442152863559,0.012466860414025295,0.062390963756308176,0.0029956308259561394,0.06876719376284118
14689.0,-0.07415124401049909,-1.3950612275998204,-2.1990181071958164,0.0005579968090229762,-3.900222137613794,-0.1347629480448963,-1.703014749611688,-2.08741377149225,0.7766175312444454,-0.1096568717701422,-0.057241876828786065,0.060180324075659174,0.04942550884873353,0.05619861278322273,0.05391855062310735,0.07494408937754496,0.06331581812474497,-0.03220946658905289,-0.051920759375212795,0.051505883025256154,0.08444857586479423,0.004834328577654273,0.07546050390474655,0.022447772018600525,0.029179904853324837
14690.0,-0.8282116312793257,-1.0326504241816041,0.6961030841343294,0.06611421391781402,-7.487123055042429,-0.13066469275767373,-1.4843590524222603,-1.7958671137787796,1.7344521602445624,0.8007417286534899,-0.033850375227452385,0.1260220010008679,0.03414989020757732,0.04653308461608792,0.029137934102196818,0.08883334489295441,0.06504661856717832,-0.0030858106120995933,-0.037236992845185016,0.04509858847782556,0.10839481026491213,0.010069436549654266,0.12110806836438677,0.05066370822920698,0.005321710289461101
14701.0,-0.31231444799422103,-1.6180385590420454,-1.808485269037284,0.04143488804006491,-0.43776235644873784,-0.2705784144588623,-1.7805542634206726,-1.349518402917482,0.36490107728403887,0.3791547816641771,-0.02588519507428493,0.05245106208428843,0.027352164955200504,0.03629136287987708,0.05321839643042208,0.09246686090935569,0.09625408030928075,0.03743962936406915,-0.07161742380120961,0.026001739668164353,0.0714895495915586,-0.015981314537331093,0.07890848283489722,0.050742823151653245,0.007369345706258359
14702.0,-0.43113036139731326,-1.4750582631299842,-1.7410308942007933,0.020789363402893883,-1.4040372209786236,-0.15953756867909616,-1.6075522894218097,-2.229567773559363,1.430457494455823,-0.02374579837966142,0.01983291410077649,0.0638623114485163,0.0011281805239865845,0.031396184620364635,0.0403913379058803,0.06866118719491264,0.0773014975050497,-0.005867011608906649,-0.03230298766111559,0.05300810868744585,0.050264614592488724,0.02356805543627613,0.10300957424298844,0.07197287789039145,0.02392317835897881
14718.0,-0.29898039854021435,-1.6867593933814764,-0.8081209406789936,0.03514331765539713,-3.143753037778392,0.06935127085371123,-1.592432986150072,-2.1039625986571453,1.3840308982664258,0.08401772411744199,-0.011262210061111461,0.12861353435387304,0.01947308903672718,0.02784045856160069,0.03677466810932177,0.09649073417910557,0.14292157856626317,-0.0030486665859047,-0.04271384241245649,0.0343541878116932,0.05120319874709848,-0.01867719099597889,0.10417132279735564,0.035557197248291546,0.06309907272559673
14719.0,-0.7737693861208939,-1.1743995163329235,0.7030310461228689,0.11331864968963087,-8.498066361519488,-0.17378740666217973,-1.4570176711540488,-2.0317260921433133,1.6656658089466765,0.2605317507524765,-0.05483315775616588,0.07932390816595515,0.021290541228729896,0.03252741832702153,0.05015346049799338,0.10619542646466533,0.13874996621442776,-0.009896607051455836,-0.05320475831626296,0.049988405147353344,0.03682514934468409,0.04092512041881693,0.09310331573996951,0.07910913361728145,0.0059122884639658015
14814.0,-0.09534119738092335,-1.5675380679389492,-2.420105716697621,0.03401040328977996,-1.3911655004422807,-0.3063306116583535,-1.6960057866286464,-2.1834678073391753,0.9166469072436123,0.059224358030176394,0.023604649904611263,0.031023664038838123,0.03436433603986234,0.025162780283157583,0.057188963578289786,0.0999241066328501,0.07848060760701624,0.012011093797421915,-0.051284121009375024,0.04134855201712606,0.0075323697353074865,0.00854167270787944,0.06036871558626444,0.03266736968044286,0.0034706448458135916
14817.0,-0.25228239053288815,-1.829435348201632,-1.6143432248501641,6.632872490182782e-5,-0.7164426425097284,-0.08440959525635658,-1.657328412298491,-1.265118680713487,0.9031851532684667,0.38873669523358834,-0.032858387914391954,0.06870747391993515,0.02773335419401288,0.07767902142390248,0.04212689701208802,0.09428447976329288,0.07553640998218523,0.06737389192278524,-0.03691492545877116,0.019552364588577523,0.11771551261818948,-0.0015883791827720761,0.09338890408735874,0.041288687716204246,-0.016668031875010425
14818.0,-0.17920766981456263,-1.5551719074932902,-1.4233808302938515,-0.1351444060904042,-3.019147350955694,-0.23462170146153796,-1.6449096575139683,-1.9670623420299755,1.1588683480645499,0.13590600931564123,-0.061934879737195504,0.08674566571308519,0.04427524810535074,0.04562015803783448,0.032230448395502494,0.06604815732367221,0.03006070941549016,0.006429758314542348,-0.046232930894892645,0.052866964116182115,0.03865112647437263,0.035673117952532564,0.10045991632959057,0.03616349217322464,-0.02754503768838928
14819.0,-1.0394608070818818,-1.253841529904409,0.7002075498407618,0.08576894748659361,-1.5080866429577375,-0.2747297331777803,-1.6347418902452784,-0.6112147492532223,1.615262439716351,2.1558356703928343,-0.022346876808038107,0.0878039081813834,0.06352049441619514,0.07805260562380734,0.024427935434685966,0.0798139567682902,0.12790341394850271,-0.030201046513441163,-0.07073716013057979,0.030436423553166895,0.13776833560002674,0.015321033375908727,0.08900492921708573,0.0466756100323872,-0.07026351444369391
14820.0,-0.30834594156463324,-1.1132743838343548,0.45197587691302143,0.01818597676007305,-5.71333198838548,-0.08570719113786637,-1.5496148550516922,-1.8026897442187726,0.5034428350047707,-0.6316325230546467,-0.025663057166200303,0.05222537200654138,0.031933550740488946,0.0326556869882663,0.09067788858959093,0.08784275884905474,0.11209255035670253,-0.038461042652379505,-0.04581898867988933,0.046790943014600565,0.04412899507401002,0.02112316735417787,0.0752031950889016,0.04551476321672133,-0.04791489392397784
14821.0,-0.6095968906870171,-1.2380858443768399,0.22508982047477322,0.12580882623505923,-5.295763889880088,-0.17794675954395645,-1.5425946482241657,-2.065673358916027,1.3192185501674376,0.06777100049297714,-0.061707752835709596,0.10676536385043078,0.043268474066405306,0.028920009901097093,0.06062059424700362,0.0956970166318544,0.10133425611569258,0.009771446455274696,-0.040747275196086646,0.034818710688199105,0.0600495151628911,0.015039541444408252,0.09481511933087063,0.054442957546995206,0.03723232324604507
14822.0,-0.5712433488403083,-1.5311647183003294,0.13446677722875183,0.049122653651269645,-5.260427891198217,-0.06992531512843554,-1.4796529760215684,-2.083277867017096,1.6727719661890716,-0.07068999611305735,-0.008943429894094086,0.1091564332156429,0.02155325869252678,0.02750004008463912,0.037094578900836964,0.09232942015923115,0.04410440186524596,-0.005890441164210974,-0.04372740714106049,0.05862828502087177,0.07143043637135031,0.020874614347187462,0.10110330955959247,0.08156511793936501,-0.0769674461926032
14824.0,-0.6213210502299249,-1.4550900061614744,-1.299697678334547,0.04126418848526596,0.1622537732044147,-0.14263151236096008,-1.5073514104474837,-1.8158815093585983,1.4302290595539053,0.24188125260468882,-0.020270874911089587,0.0856058728585281,0.04593481761383629,0.03100602861870228,0.020868850364203443,0.0985235524536656,0.06936123010655305,0.013286534842002675,-0.03426538781487579,0.05329391632071646,0.058116220954264275,0.038192914195124585,0.09627358185634192,0.061797170657649315,0.023443711270514464
14826.0,-0.7231566549470732,-0.9522702505277021,0.9628038120994931,-0.09851628847389993,-7.617570273474322,-0.1399233071528349,-1.4920063487927455,-1.8509238272689394,1.08707080980538,-0.47241976578893563,-0.023899616741745643,0.10156645855402488,0.03362007503874493,0.014874860135677273,0.0435025627029907,0.09943693331221401,0.07239571719683298,0.002342134974198179,-0.04736311976423818,0.05521144141337239,0.07009537403493228,0.03977766876214096,0.09000159021791414,0.05724390613864367,0.05546991623532784
14827.0,-0.877695737080827,-1.1232167903293673,0.6602815859390404,0.12769627914269044,-7.331766989133554,-0.16178877337238573,-1.488141708721506,-2.1488862253394827,1.9034578667644715,-0.0699716686939268,-0.03091899588621657,0.12316606388151975,0.013719266928764172,0.04241041991866568,0.023918880496838515,0.08313470932128715,0.06668709693570028,0.009799210192146326,-0.01761571825614643,0.05537598365496785,0.01799689116063021,0.04416800232063211,0.1110707845929143,0.06308284482622392,0.05562447462502267
14828.0,-0.7736412377574144,-1.3996339820747987,0.5685335518192028,0.10078185811015831,-6.360347456791237,-0.03338346752366257,-1.4480736378121324,-1.846163178629577,1.8333241034259473,0.10552232185379891,-0.02530322446265627,0.10353379550414743,0.04538748564295834,0.014872586035301616,0.05070165329042759,0.09039656157186472,0.1288460092674878,-0.018053810290312156,-0.043308202449792346,0.0534367590762908,0.03740125401508617,0.03501869879208298,0.1066203091080048,0.08809620876409222,0.07355493966451465
14927.0,-0.12476596396530376,-1.3349605565101281,-2.437391236778701,0.04161498637233127,-2.4674784276709665,-0.10693784440496504,-1.7500127477871272,-2.145632449869009,0.7877344005304218,-0.20877335289400367,-0.04386566460024011,0.04866500949942855,0.024887337143163303,0.0410318731531532,0.04774423792213991,0.06062712327946064,0.12042314575168984,-0.007142415880221476,-0.01933041543674181,0.028860685130894025,0.011669010683884972,0.0044674789567636704,0.08454031450833735,0.0289433216981974,0.04921023992258655
14928.0,-0.17291479449742536,-1.6152998859469823,-2.24997546058694,-0.00404512878250947,-2.7941477766685896,-0.23827866225523747,-1.7753208946339312,-2.574440348307851,1.0943264736101934,-0.15462866257292998,-0.05858400919406864,0.07091434660222211,0.0252232835686918,0.07229000328656562,0.04920366279824742,0.09839780692289077,0.028535700773458555,-0.022619972806117074,-0.03150328341181475,0.0647480337161527,0.04862796642949951,-0.004207340188104921,0.07448978177523963,0.015760889633617083,0.04615719961471808
14929.0,-0.6182348896200545,-1.2394287007078966,0.13022602985638898,0.2771894519775001,-5.652982564550591,-0.2052929266552184,-1.6876320714473112,-2.1758611240914822,1.2626248213196196,0.4265869002240607,-0.022560824173082528,0.030393741048839205,0.027458922515389002,0.03388106302864981,0.06760491980988932,0.08378215292743382,0.056051869898262136,-0.010508315433578296,-0.04363836078997436,0.04474147781159629,0.06201960630931191,0.012987637054620577,0.07926842724961539,0.04216688975191318,0.0060759798151159864
14966.0,-0.4672758233759074,-1.4761428116315112,-0.07740517536833932,-0.002983145901799275,-3.9838608892425893,-0.13374211693080534,-1.6639458900908068,-1.9514718763836332,0.7830457208351528,-0.21533865342154768,0.000862431103238773,0.06006139773527935,0.03826703420887696,0.039811487940362156,0.03628803307402299,0.07225259327997038,0.1326471241550664,-0.008535197463477119,-0.0345480761735652,0.05221494648984023,0.0016920640495311412,0.008545869504266179,0.09459232377358316,0.011405166160991947,0.041709934873735595
14968.0,-0.43468303027924104,-1.4362744435580663,-0.11162103646206993,0.0998188125597319,-4.0162169401274666,-0.1875019192463114,-1.6175467434580024,-1.6449095534205322,1.6481697248862006,0.6613011835550494,0.02102787729089955,0.08532427112005994,0.031728708513618906,0.03732338101788761,0.0015741128770938545,0.08937794349424928,0.056857540070750896,-0.006208204829844691,-0.03493162362645075,0.04314133520430848,0.05781157061411394,0.018601723725787042,0.08428484359512081,0.0547217500353164,0.043486597774863814
14969.0,-0.49308127510010424,-1.4411019118436568,0.28938548942151765,-0.12151899623844077,-5.807113622841108,-0.10459723405780325,-1.466257636627556,-1.9485567414394027,1.667781881587934,0.4746389279647056,-0.038008329620108264,0.0952729906487365,0.020011077698486306,0.0195683494460582,0.022187944183786563,0.12068325601004824,0.08448633676124086,-0.015317510026221259,-0.02212135735914276,0.07265670295305027,0.03769424478385864,0.021855199388989683,0.10505145543141613,0.08814100439800941,-0.005402614967785259
14977.0,0.019827585836002908,-1.7919415874069722,-1.6240354375437853,0.008324947142128022,-3.832829921906105,-0.22009457086556053,-1.8028014474296101,-2.217975011207154,1.0106694111136616,0.8175354543522301,-0.00033911257216499304,0.11178631988686596,0.03802282570990618,0.046517150474521755,0.02944983563493721,0.06480072259894427,0.02772547290447587,-0.06524462927775204,-0.043603110723133574,0.012493167200628513,0.0066556084136973935,0.012086524835429543,0.10358306543590849,0.026348907116635446,-0.03146252937157166
14979.0,-0.2106294534205257,-1.4513698152138994,-1.7346996323039001,0.07527298812031458,-4.258643700411255,-0.22954490507389178,-1.632997098128756,-2.2017248859442144,1.2892518618136204,-0.158466805929036,-0.018710081053495618,0.08880911927322643,0.0347871192678432,0.06613159270593817,0.04630079492832468,0.06884426017777413,0.0711764326732441,0.0017564275081164594,-0.021078557011803684,0.05561913236565876,0.01625191796035484,0.04026796592822945,0.08859427827812207,0.004534769901055337,0.019649714181701288
14981.0,-0.29239520697869226,-1.486878487906045,-0.7827889972393143,0.045122906596075776,-4.110452457635899,-0.07987340302241742,-1.6345480405936896,-2.0295394900642743,1.0019481582351244,0.19429127555636047,-0.022797850395127727,0.06265372283928254,0.03351123020895673,0.024317215592331177,0.0608423097260945,0.08522986436814209,0.1289989323213669,-0.029638464209815717,-0.04354136014267142,0.052186936924508286,0.04074998840918408,0.03332068325671562,0.08855156460407707,0.021135802183132248,0.011743537933607787
14985.0,-0.8046951356780098,-1.056346450302608,0.8946374523982739,0.01184781623870198,-7.507866094800236,-0.19804066215979202,-1.4723239465859568,-1.6290237265133325,1.993922615286575,0.5715006881208021,-0.04935074588045903,0.10019557936261787,0.025978553496510157,0.028621861809519217,0.07781441784850256,0.10119049891187988,0.019216679793678172,0.0357226649949698,-0.05196893373869055,0.04272881786129655,0.04817975249532773,0.032137230234799675,0.10131303841649289,0.0827021554960609,-0.008713748006073274
14999.0,-0.4779122032839581,-1.4957460690377142,-0.6873944292771138,-0.009181265819081304,-1.6521109112350354,-0.09672235936290849,-1.5414339391593557,-1.322482298045493,1.1711552388318218,0.8778566000908887,-0.01473394274376338,0.08440073760735457,0.036893396641295616,0.028441101247471727,0.019504429595766502,0.10587855883993638,0.0581498677805901,-0.007416859299615614,-0.05022416280145048,0.043483623942489634,0.11645530409333558,0.03448671588511423,0.09211520128406894,0.054369503587293894,0.03422508485202117
15000.0,-0.5552993627758017,-1.4460340764492141,-0.06577386980325342,0.15683872191259685,-4.140773379010691,-0.1410597100295258,-1.5484289905567459,-1.9276749665809256,1.5401867950365553,0.30087375173782777,-0.06154998434285717,0.13590810198183054,0.03589483784942785,0.05900842992047511,0.000837745843274718,0.10423091417532096,0.12108545046412822,0.053298477045876265,-0.04117329409261805,0.05734738700323984,0.07549377291124576,0.0006373836431609482,0.0425730617430501,0.045657039016986395,0.02017348897466664
15001.0,-0.5583531568044486,-1.2068611849086668,-1.427380855844077,-0.03580398368590113,1.2634829201663222,-0.17625805505167144,-1.4830229699895983,-1.5181597760872134,1.233300890611762,0.5980033014981215,-0.019505213748828236,0.11492631493392978,0.04174169357968343,0.04600657158596437,0.03567513764946847,0.11345354329659676,0.013085158914984032,0.004448827318409724,-0.02947609668990973,0.051810301341133846,0.07452427648689793,0.032770160666634754,0.07023628472089584,0.04748938220535237,0.00899237431469976
15009.0,-0.9111713242575306,-1.5958254516719546,0.3426095040225084,-0.009344073368605219,-0.947132331633428,-0.2694992868139214,-1.50338355754861,-0.80741750465371,1.09768881150562,1.1390976616825719,-0.034139552767794124,0.11183868732717717,0.04197557682869957,0.036074820493218425,0.06544502638341013,0.0922867525328136,0.12182881076472855,-0.003048747342554142,-0.0725937635718231,0.04114247217206387,0.041778718222278265,0.05630442403649844,0.10390699595612,0.06314723184127942,0.02792526665477985
15010.0,-0.05221842125991258,-1.4785203896568573,-2.2565028339879416,0.02270917326040502,-1.2872297794380183,-0.25467879191597614,-1.7086843788822754,-2.0770756458126174,0.9506985128760346,0.13692886022014397,-0.03883565077539493,0.0725279245333252,0.04527797998120557,0.030295326501638343,0.0580191501456722,0.07421722941234052,0.009462742618448898,-0.006431472195757271,-0.034772916679391835,0.04485311165916508,0.04991505624443169,0.030349550912816024,0.084517623654632,0.0233971023563432,-0.019361904383147117
15011.0,-0.12279702352989595,-1.592455247586563,-2.0206765571311665,0.006509681119200077,-2.686764843691002,-0.14854355504522299,-1.6758928393720354,-2.186155339460479,0.8688490248540448,-0.2251313307352295,-0.04247576547947014,0.050776892446096886,0.0752434313569213,0.01916391105540124,0.09491206119368926,0.07061353347506655,0.006492181358965282,0.009051120525762589,-0.021061106083371126,0.0071315509444877,0.07164630835433661,0.018610244109716352,0.07585672131064318,0.017806842839431278,0.030622672214990238
15034.0,-0.5342583355546324,-1.159976892586816,0.39584830607985066,0.06690811976983602,-5.148458115175475,-0.19467272200724406,-1.460544364238471,-1.8448763614131964,1.689678006505145,0.27159993201751215,-0.04922961643845788,0.11691926090475574,0.03081008173573209,-0.0061860905383572095,0.0661651869222565,0.10422356148358629,0.0850062051248841,0.037929329026965,-0.023978099501634965,0.05054498968663162,0.019434274323812544,0.02038484798405872,0.12726559223585915,0.06552720256404138,0.04301051818660118
15035.0,-0.5013231459539669,-1.4571011345898393,0.08605838768175408,0.0025899780932379293,-6.023007010857154,-0.1204128955217205,-1.450212470929082,-1.5961964601821097,1.6119639857253398,-0.29443301274125816,-0.034434689052276556,0.10276327412747968,0.04482542853784993,0.0010426494052873556,0.02877733207095012,0.08212906099921807,0.14137279354540214,0.008365165495931177,-0.03409383408746481,0.054578090056165984,0.01813799099599008,0.018841491711526825,0.1334823980397828,0.09044782492535705,0.034760024192168226
15036.0,-0.4568968180673751,-1.2707607445757447,0.09583620743431545,0.05687006184670561,-5.811170059954531,-0.2174622759593122,-1.5925893929198016,-2.023282809004539,1.0679673003834165,0.22294543783934223,-0.041319487793814294,0.10974752602865351,0.023898201077367443,0.026034959123588098,0.038836771019873755,0.095363983422795,0.04572108829518673,0.025660052492085195,-0.03866027176897801,0.024832061937680335,0.03723789431783278,0.002785644037241842,0.11283867525583012,0.05838036974878539,0.02270849672829499
15074.0,-0.3837445258769045,-1.6099670605313787,-0.5764697668707397,0.07976561160509299,-4.419600506853059,-0.1335180703876508,-1.5824334292903828,-2.0337740858956335,1.2628514194456228,-0.5181150409810855,-0.05748382801020516,0.0758813143356534,0.06306420079375111,0.015006530157475306,0.053055137873982625,0.08700880759665844,0.08025384522635169,0.01029945159379178,-0.045646491622754734,0.021703172279553557,0.0003397195314441073,0.02202905873111212,0.10355002486892487,0.07404388720103933,-0.0011942814306975698
15139.0,-0.6732856771856497,-1.5596598342694494,-0.18920044610172648,0.14495496147108175,-1.4846915227884083,-0.33577249821957256,-1.565130724449079,-1.315070195518101,1.0514306174755115,0.26596412905908634,-0.0035211563912201814,0.10862578486471539,0.027931709493105854,0.034275614002385275,0.050084179835187856,0.10392684983153408,0.1317176592269045,-0.004494655589295547,-0.03791029053756411,0.02954567041459764,0.054718484447320616,0.022606097211603674,0.06221720707014091,0.01774186514064598,-0.03255475443412951
15140.0,-0.36482401981443074,-1.545069088536649,-0.13867417111817515,0.11323831648776021,-3.313737841411535,-0.2272868934726447,-1.594048894471554,-2.1760429136258677,1.4574906775454377,0.20441580977147136,-0.04076235446311968,0.11711681175718278,0.005802325647784873,0.00782247339618208,0.05133134419813681,0.07410762541453558,0.09457860455381484,0.05537998924556155,-0.027421938864664742,0.03967118021081125,0.06997052754554649,0.035093214350915836,0.09023969065874585,0.05514429690902913,-0.040536483399098565
15141.0,-0.2265973041108443,-1.6074360298681867,-0.7674649349886317,0.05860651607841065,-3.359118650318777,-0.18248977297163155,-1.586234603526424,-2.3681031499856138,1.560032722332046,-0.18247670220221324,-0.0069565178695444275,0.09829681314786758,0.017149177177134333,0.024831994521421735,0.035548840052807174,0.09914096655726616,0.06005103585631583,-0.029159610248472752,-0.04218015711310744,0.05196349811077184,0.05140874799903996,0.003773738400603454,0.10409589792355171,0.05865287730914057,-0.027547181346882662
15142.0,-0.8857878585465202,-1.5544194182623345,0.3360299783071947,0.029825663941047787,-6.9480650494815,-0.26229517386906903,-1.6100152231903504,-0.8336735642563957,2.1177697520153513,0.6692627867635945,-0.06656017439421767,0.09686048123236705,0.032486607510168755,0.04149527959995479,0.058286941104692146,0.09186767636003136,0.13171228286009873,-0.00241721198517472,-0.021217107545044248,0.0389635413414746,0.01977846110649722,0.04392361165548907,0.07841189896059562,0.053399063517120766,0.004886299971839828
15144.0,-0.6526409480782662,-1.1525526546294163,0.5988323835080086,-0.17198724216168565,-4.863741988907688,-0.3926951408271848,-1.4844593443589518,-2.2058507407273407,1.7115162440790457,0.24112163632114547,-0.03170493738771674,0.08500756260615473,0.013574502364765099,0.04031728889927859,0.05239502746813423,0.08660369249036055,0.06552107933974942,0.020087098946689624,-0.049294651135641944,0.06798779483494137,0.037896008281202084,0.029628516734283582,0.07519569728324264,0.05162726385992541,0.030125687269503827
15146.0,-0.6642323260416951,-1.2740513294810256,0.28984988368401066,0.0863982555277683,-6.245346528331026,-0.3194471486985665,-1.4703796496462884,-2.2059487968834577,1.8513501791536908,0.17850735623608446,-0.060211909185177014,0.11371024308837596,0.05196985774298492,0.03104559127056154,0.03502504588897752,0.1009304906060826,0.08282623267001149,0.006366405163728988,-0.064282745892362,0.045565726250254464,0.051924501291997965,-0.0003649444507106211,0.12146657046159921,0.06371187379816902,0.04238775074411926
15147.0,-0.33050067055705207,-1.636924504195444,-0.6610370800047168,0.01931528810533855,-2.6269898879185183,-0.16920975786709225,-1.4781455482129553,-1.5286790214387749,1.5640844023416771,0.48368505749893154,0.001743381448799191,0.07299442621518842,0.04845750451086305,0.03685291859884746,0.06488624652253458,0.10077286083877193,0.1167902193653135,0.005649032987227593,-0.0111677903162579,0.059296643280076305,0.03901397785871334,0.024196842073443,0.09450309846639038,0.05630821651299295,0.0089223697179181
15160.0,-0.6516068995131862,-1.1089779271168065,0.7841708687730579,0.079015937784277,-6.620680678500088,-0.13172335215314637,-1.4857335242847356,-1.9414141836299819,1.4237265618289483,0.8934301920290496,0.005916449811120264,0.1036240408623222,0.033147313057934405,0.031523165890260205,0.03936032138449799,0.07743184388665755,0.08771933204980714,0.07272809473596846,-0.04697490862024805,0.065663233581208,0.07670047142393686,-0.003631590692329918,0.08377837875108274,0.05985758613154097,0.052311421038025774
15203.0,-0.19779098769340286,-1.8563817755502843,-2.0553089034654852,0.05375734610182156,-3.955878102868974,-0.2235948289371538,-1.7557886135316412,-2.183960658641438,1.0090194963503616,-0.1968898588770461,-0.03160823685542058,0.03898918806383146,0.04651036507210028,0.03626503371220673,0.015782584720529267,0.07737264821646991,0.01204977702873119,0.03938820288011956,0.010443111407399883,0.05886248576066563,0.010769218491310076,0.03984005662071764,0.06410358339732482,0.04944675959665086,0.015778163323558962
15205.0,-0.22350794478853278,-1.5368334029431139,-1.4910039708662164,0.08640013640978732,-2.065402949708987,-0.14503160854461244,-1.5784684120269232,-1.9558481354062003,1.3386993339742508,-0.1422327646536703,-0.0210806542448408,0.0437374303376199,0.04355712135582557,0.05016141737539511,0.07295308249826411,0.07885310423826165,0.1501210336669744,-0.0014739218191402491,-0.029504200709323563,0.05139851054157968,-0.019678372343975226,0.019835859511854438,0.08098710879677595,0.05127539440307625,0.05918312665297443
15208.0,-0.13167405076439764,-1.5565643461026089,-1.0845558942368279,-0.11713298643774761,-3.627003157030749,0.09700080608763709,-1.4839912727498183,-2.0471575889070235,1.4572768519605095,-0.10049331165995595,0.0015150967102525508,0.12034986538601555,0.029197246958618042,0.024666985135345206,0.04735904745302217,0.08406639430936785,0.07685269896572504,0.025191388122493143,-0.03468015324430177,0.04031779837939754,0.08328055124903674,0.03948042082925214,0.07469694485394932,0.0446245521157158,-0.0008511212360860588
15333.0,-0.37158084071028497,-1.4154404422625924,-0.3454727481889361,-0.01924512296548287,-3.1559724543687775,-0.26857309730142487,-1.5551071812253823,-1.7619193934202142,1.0390083482022934,0.16046736473046755,-0.047853649518135,0.09858520978124495,0.0022703865847988674,0.02013724543953205,0.07810519249303714,0.10994285967716487,0.061349485938776045,0.016687775104891858,-0.039390015070288525,0.05756032303762371,0.13015691363562507,-0.004876573297817356,0.11150673271938454,0.061371548845201955,-0.027133059642919285
15359.0,-0.4029501216223847,-1.5494989753618322,-0.5376512955204366,0.10321424208207325,-4.12595974878243,0.02700014686824914,-1.5962996159121559,-2.0210648797244772,1.3670987383239481,-0.47027664463507235,-0.023390804922732527,0.08558543342352021,0.035757578214752325,0.04420810958734338,0.058780478815869806,0.10002695496584858,0.10091298871986654,-0.042891087660412205,-0.04183516008515577,0.024811577583169063,0.06382382559868045,0.050097237227037926,0.07627096039579767,0.045153691847046665,0.015936457352099465
15360.0,-0.6248390253193077,-1.357596068763082,0.2586476050818132,0.015017609230930791,-5.298669027094276,-0.0798494787286153,-1.4854282778526184,-1.9772130029168558,1.5918135619483451,0.2981128609977789,0.00833320903892386,0.16777516309650028,0.011479159517537743,0.018703619900146438,0.025140362030630723,0.11682459738073629,0.11289736006754339,0.0083508042487747,-0.03982022292173533,0.03886428525773946,0.0701107599998383,-0.016852256025970534,0.09082387343654648,0.05766062402442253,0.03126669722967427
15361.0,-0.5400313327637508,-1.446401627839505,0.1956629191808055,0.005574766552237593,-6.513954137688601,-0.11989415108451384,-1.4610204123965118,-2.1191075345777963,1.867459298882655,-0.19514557367515362,-0.02614227690097706,0.09600034431743315,0.030280769807309874,0.07325947193323702,0.06094271482730321,0.12192674655420738,0.13896610458711,-2.431070769571576e-5,-0.0714050375324835,0.05241130824035647,0.12650986313839094,-0.013837213516014827,0.09843324067389339,0.06297196045035858,0.05016308984273307
15422.0,-0.8001096065588236,-1.0115075723346594,0.8832273385820909,-0.14750474895147356,-8.336416590711785,-0.16464665374482154,-1.50119625870261,-1.50014350369252,1.5066686940571565,0.18561099781989734,-0.03369268083218993,0.10231860783544335,0.023345755052868688,0.028022883006060515,0.020588632284385146,0.10689454119859255,0.14330819046884485,-0.03373973654769622,-0.044018675117415744,0.045702050063636236,0.02223812155264433,0.03057581881747606,0.10775956173824126,0.08552370600030389,0.008460760606553255
15455.0,-0.9957410399116831,-1.617351367969123,0.09940802463743459,0.10335125679792126,0.8785944986700378,-0.0898777967254769,-1.4899484519014399,-1.643296613580674,1.0610264178544284,0.4429056040878565,0.008782601624342629,0.07439200563193514,0.030963098517291694,0.021089045126766525,0.04363215532399517,0.07723242416116434,0.016954663185773666,0.03266152478939156,-0.0007150844166649287,0.02411876583643117,0.031138771497169065,0.04639076453587003,0.07735807179310526,0.09554483000924809,0.04635899378508258
15535.0,-0.6316781386048167,-1.3665550756439733,0.22159902394641878,0.162870477766995,-5.8400257050280295,-0.13505150471986027,-1.5530206425935238,-1.9468896906919158,1.4200730717060626,0.30433300314205924,-0.018168848478999126,0.07617943334275766,0.0017355145173385488,0.02171959845054134,0.0642873802521395,0.09427951701851174,0.1674972768827389,0.0552301615003796,-0.03373252768298719,0.054182753404788286,0.07999620338154631,0.056489269522219374,0.06453088371427192,0.052799755171241865,-0.0555420223507285
15560.0,-0.47638243608365505,-1.3311388837377522,-0.03748554992619144,0.18785258184675477,-6.679600593915658,-0.21177627762155776,-1.6457030159520343,-2.323673700951016,1.097732175265648,0.17017492968292028,-0.05639004037369282,0.053517955764105035,0.03348297920138698,0.03472499339865889,0.06865937242332434,0.07422263336914878,0.058046771268441336,-0.014377194354950067,-0.025184186841951343,0.028504375360260157,0.06538337090431709,0.028784206734822595,0.08658326613301552,0.048024632174576684,0.023281172850258464
15561.0,-0.45638793661036886,-1.316485786130202,-0.26061871905561074,0.047642826980386764,-3.567821206695803,-0.10691372726348555,-1.652913564789796,-2.43578813950204,1.359490235701797,-0.06655975310512713,-0.014727169209031686,0.05845701553260806,0.02461090294847112,0.04102355342318793,0.06234781627100218,0.06940871037110323,0.07262626896708421,0.007671216259435889,-0.028417925467682088,0.029169766411444698,0.07159279229515894,0.04036281455151738,0.0930039952886438,0.03820291241717082,-0.009930982113603002
