subject_id,rt_μ,rt_σ,rt_shift,β_trial,β_block,β_anticipation,β_zero_order,α_zero_order,αM,γ,λ,β_targets_2,β_targets_3,β_targets_4,β_targets_5,β_targets_6,β_targets_7,β_targets_8,β_targets_9,β_targets_10,β_targets_11,β_targets_12,β_targets_13,β_targets_14,β_targets_15,β_key_2
14085.0,-0.352252156079748,-1.6504901381062946,-2.422488842012544,-0.00011066452906679102,-0.07754744213006522,-0.03831409080185887,-0.28423779274505784,-1.815399418508257,-0.8753226147824014,-0.8276131620815043,0.02303612986162386,0.031922289880134805,0.0888992782388015,0.04590946532678642,0.04184693359041043,0.05821946274611004,0.07006969501803112,0.07960532602844247,-0.040676016613809624,-0.04389307356153813,0.01837750401207604,0.05666937121990782,0.009234120412342372,0.06199116334415705,0.03373967684168528,0.017724849855973494
14086.0,-0.40773316137791354,-1.6794298601854118,-1.9884564479726194,0.0003271921770030153,-0.013315652892843739,-0.1212644780742992,-0.2822891808585335,-1.9129948748959777,-0.8296236577693623,-0.7611144120813337,0.034154364054034804,0.03278526505792116,0.05340977123191326,0.015687692824026465,0.04007915550535239,0.04177320787395566,0.09499335001087875,0.01741078074947589,-0.0419434135451754,-0.03182161658281538,0.02983469466505996,0.09342642723243486,-0.0013738092151376194,0.11580330457185342,0.022474821374453856,0.06177982246165955
14087.0,-0.2464809140689492,-1.7836017163326277,-2.0158343533275067,-0.0003582805096984284,-0.08265483770366978,0.0583159163407598,-0.35346401400469235,-1.8204067989155281,-0.6912889018278465,-0.2860671878666641,0.3201205272133937,0.009536638658554052,0.0381407972589016,0.01993652825114033,0.03457021117243458,0.06135675391060269,0.06645916185539548,0.11240857590101073,0.03928226884915003,-0.02447804024353019,0.01895718565270648,0.05075278678013858,-0.008085484528082413,0.049536621320572065,0.07132330627042349,-0.014318903720599994
14089.0,-0.2814212450924702,-1.5716575399378272,-2.0020767916436575,0.00016975657345545269,-0.20004188454444158,-0.0378282636496341,-0.22314612004016865,-1.7907853307159585,-0.8365368407792925,-0.21514263537776826,0.27357745289890917,-0.02260943042848469,0.023446935937403716,0.034293069146050334,0.02577734389067744,0.06907557741027458,0.0757206140183129,0.055443694054186574,0.0018352448861073632,-0.04583698458456987,0.03975442061945729,0.03209764743231716,0.003625526187849189,0.07050322896854029,0.04649251580918351,-0.0007589464227840183
14090.0,-0.27854674379880956,-1.3987102756879746,-2.349684387727462,0.00010233548160825549,-0.006697597264564564,-0.014595838248728045,-0.19580543476923112,-1.7878793599121092,-0.8770817227410732,-0.358381473173782,0.19245931900565122,0.0042022907934400645,0.05715582977769784,0.017267028551110945,0.018678177214699936,0.059015561556150724,0.07354305171581778,0.10631554209271113,-0.0041617595131630165,-0.0313094233254207,0.029129870257055008,0.04913471651656999,0.030043081619599503,0.08150252462364141,0.041872699550180775,-0.057082473131064015
14091.0,-0.9225282317120417,-1.2900920440864116,0.163258009231221,7.641659905279457e-5,0.071210430949551,-0.4654089920656074,-0.29481699721092486,-1.7507305473668378,-0.9043934054898833,1.1267040221091107,0.5840621996854438,0.009140486133565485,0.0682806326376766,0.04351023747539988,0.014261346787156728,0.06698470631113983,0.08426864611841847,0.09235746662659598,0.01812225741202962,-0.029300842726348305,0.03903651049511345,0.055142556075226154,0.02685749039968086,0.11240982696987817,0.03844504139016415,0.013110381534054054
14092.0,-0.36355199211126044,-1.4138181608323683,-1.225004054498122,0.00020595075210750707,0.009161044037654107,-0.5751422731717372,0.059655905404527095,-1.6992448521870451,-1.1454343525229358,1.8536171035827047,0.4826770422071793,-0.012965577550750002,0.07496942266703867,0.030768472373575877,0.03591601228522503,0.048260463014553244,0.10125411661486199,0.07249750139918305,0.004858808653107418,-0.007009539950983986,0.053442562042987043,0.07411882253580995,0.0017013919104078338,0.07209726248142592,0.06599285068857301,-0.028193251065448233
14093.0,-0.76197499225513,-1.3730802349791273,0.13879313312697858,6.0738695143088484e-5,-0.014093451834564742,-0.6431832094452874,-0.17462099287164687,-1.7027932787844617,-0.8633508238962806,1.160848969742949,0.7140307287329651,0.016857253467583135,0.07491746805030962,0.03703598413922022,0.020729291055704167,0.045627640837467134,0.09063764454512988,0.08314998901232126,0.027186638536629205,-0.05484030561951096,0.05955324722395366,0.060167462086569326,0.009449405427676033,0.08957571812302681,0.05326433098352208,0.03803414215411237
14094.0,-0.8946234133586104,-1.4469987599290683,0.43928941345051953,-0.00021121025196599793,-0.054119617694093285,-0.7348953163930092,-0.2550575280837269,-1.749142376586741,-0.858760985182742,1.3567325644140074,0.5967052222329555,-0.03328551243989936,0.12737699268876002,0.03351061265903807,0.0096885752312329,0.0995558293862839,0.10505299982696578,0.09991969810368895,0.019519037070798526,-0.039020755686907035,0.057280503651295916,0.06618428275161863,-0.0018593361220499976,0.07701968912289255,0.05848882019460984,0.09381802220707597
14095.0,-0.815901112926163,-1.2827432492585373,0.4021363574781037,0.0001980038505538902,-0.05011069696361308,-0.7746333077380976,-0.23647735380720278,-1.6974929090882775,-0.8777869372504178,1.308105922177518,1.1352170289457957,-0.02867092409442242,0.09604791094042504,0.04976598336208293,0.024108515295238997,0.05448785845848211,0.11730448724868525,0.11642450209264708,0.031226366061587497,-0.04903239209711042,0.066702797260189,0.08152075046283432,0.0008210538725402043,0.08179087721705432,0.05672304014447721,-0.023446252759650718
14154.0,-0.33948423654482596,-1.438343875716047,-2.074265504922403,0.00040015719234671424,-0.07109941857394171,-0.19652910075006236,-0.40354748558888676,-1.6555138359827268,-0.8682791904954847,0.33078100301170704,0.4085316816658179,-0.016261917091125722,0.034353677257578645,0.03763946369403092,0.05510224576092047,0.08445192324316948,0.07017287598948904,0.06790956972231352,0.04811725309554752,-0.0419220770587078,0.04301553088836687,0.032547770021457895,-0.021196973392611753,0.09444154681777338,0.03971324840551961,0.020730859620101315
14155.0,-0.9516171945867651,-1.314534528928157,0.3515103278743398,-0.00036418845519049146,-0.05546866769171924,-0.5315055086598608,-0.0422196880474717,-1.7117520051628075,-1.2436796360695896,1.6012890700898825,0.33916345681188825,0.005701023495258948,0.08317575455210714,0.05512159099915566,0.0069207196545111255,0.046281563773430914,0.10622062584086163,0.1291704056277744,0.0038838704055350905,-0.04217659467947065,0.05223922972442332,0.02586715194227449,0.006154553333721639,0.09308929686389954,0.07253216597795725,0.0030261810902729156
14156.0,-0.5876859150999668,-1.4903146330140908,-0.3466947307133666,0.0003445288388582228,-0.08750322353861929,-0.5988332146935923,-0.2664803421590266,-1.7166576624803644,-0.8802363806944533,1.722574555797834,1.737770577550276,-0.018178114671643236,0.10777765746035434,0.03134934102543567,0.05970366146400026,0.05777488456273214,0.09331157363698382,0.09901612125144998,0.006752393059811087,-0.04260975877448867,0.03839507818826108,0.04941199721173711,0.0638960420366168,0.08805092925484809,0.0462852972483785,-0.0038217255675302626
14223.0,-0.3530730622823521,-1.8201549694775123,-2.0964341066386587,0.0005011251451007883,0.08314257012888204,0.01626539669151887,-0.25903350703836786,-1.918674959514341,-0.8625870415815736,-0.3736037636481831,0.18113791222633452,-0.02709259374448536,0.09487236259750033,0.05819727461587439,0.012504475181364775,0.005435952136197737,0.06409211921029594,0.05574668755907463,0.0017077459189577097,-0.06196312376616113,0.035742997026460215,0.02362789824157046,0.0138275955376691,0.10463045090185784,0.041111981531890156,-0.014562400336024121
14224.0,-0.8062698666749517,-1.5211293256019893,-0.1471539021205782,0.00043507577121850187,-0.012141431953762875,0.03765901931920566,-0.41622063933143316,-1.7072295689767196,-0.8071697792154676,-0.06749097358928312,0.31726851127659234,-0.03285113682216862,0.05884042939859527,0.02661016571017986,0.05277416127351339,0.05949834082230887,0.07402985338720183,0.11516633430220742,-0.011524736776278025,-0.04517411525071767,0.03547792927047584,0.05263450343789652,0.02863953191915794,0.08077446915445993,0.04252620269268144,-0.006402233805044277
14244.0,-0.22308501110329268,-1.3700616394247769,-2.408800002114212,0.00021014456253107652,-0.014202939016102105,0.08598464738147064,-0.2331283276065665,-1.8098414471683097,-0.7649451851569951,-0.5051726638614374,0.20481248747967354,-0.02377644420527041,0.0548894037942383,0.03273839290529287,0.04319535309900699,0.03211855687659827,0.0873925812135174,0.06143498013435403,0.012720152273269713,-0.029468450718185515,0.03254331610306373,0.061294968696479775,-0.013689155463112309,0.0913493694401158,0.03933521368059279,0.003923103556010867
14245.0,-0.5427982037117765,-1.6951700356468864,-1.6040013161228575,8.063217717018809e-5,0.0018413711723390598,-0.10947014135324912,-0.19727850055180474,-1.8461551551774658,-0.914988267671244,-0.30373472790023814,0.3332479742777338,-0.034897271707164564,0.09491767995315618,0.027403340693051368,0.024697577886269282,0.04232400618479748,0.07828732840816213,0.09890272455434086,0.0412465278935815,-0.03932520287427997,0.026254577319555734,0.06746462164105495,0.007275309739584082,0.0741095736698712,0.03762178268280748,0.044049549756789715
14264.0,-0.26986913905330345,-1.4327829804652894,-2.223953605592061,-7.073674249253973e-6,-0.07862940319688215,-0.08377632981216755,-0.3435450276243095,-1.7813420371298447,-1.0742467231402992,-0.18345218635757013,0.27316124431557204,-0.0045876973505639285,0.046558520469311956,0.044230696388840335,0.02067099781063728,0.06857224822370077,0.08974598970033168,0.025444100022842246,-0.0216774290355683,-0.02351110641744787,0.02927191218855858,0.04347851403692017,-0.014743796146573876,0.07889274577278002,0.03662279526969835,0.03377702361883963
14265.0,-0.48044296597688674,-1.4208832976223869,-1.983039544732125,0.0002087822202467219,-0.07541118012296623,0.0641303415998419,-0.2571718110962501,-1.7618182438975016,-0.8221921120742433,-0.23957434399737332,0.2625910352020628,-0.026840230889963707,0.04552770809068019,0.04802831911561827,0.06278385827202748,0.06224574127087349,0.06745540419387532,0.03479342305809114,-0.00021954601423384185,-0.002462232894576569,0.0220468902696813,0.08606258512140379,0.015884781433719873,0.04984667450036378,0.03493610410530473,-0.00439618563176716
14266.0,-1.1341638660524627,-1.2729683215967917,0.4309007069869526,-0.00038575305359122636,-0.04168452032819838,-0.2638371730010479,-0.29146895832345465,-1.7858320042159108,-0.8572378540075537,-0.07226598462093835,-0.05750977820980981,0.007023712849428369,0.10474252257120797,0.024386410211112187,0.023747969882193725,0.052287099025495574,0.08028179115949412,0.14831299301643389,0.026355705686771976,-0.06400907667164228,0.03462370911317324,0.08827818810138516,0.040767974206116074,0.07985211042485399,0.04464928321906319,0.01789289555494486
14267.0,-0.8098616333799029,-1.6546944113192115,-0.4665363435325386,0.00032596467218304624,-0.09226788481466593,-0.48101672615162866,-0.37930715747692634,-1.7428152469558456,-0.7931804713919988,1.837049548597695,1.4854367270361302,-0.008379630794524539,0.08612660251863992,0.027949526128627923,0.013639563985928053,0.05681254943527302,0.09962993591338204,0.11254778954594508,-0.005218274802050416,-0.04879607659706432,0.047576588764624145,0.06900529387272412,0.009224419902535816,0.0919382873612219,0.0701218387246495,-0.009075251881006104
14268.0,-1.4494809187676123,-1.1554477426473335,0.681396515805103,-2.7143172374664846e-5,-0.016170026765863273,-0.5512470314531951,-0.07614453529461632,-1.7408893786386161,-1.1913308784150245,1.4329518157994356,0.33924734760226744,-0.05609497219200492,0.11608245966396052,0.03902907064198878,0.02023210226852264,0.06333433420015068,0.10786445753392514,0.12622750532062996,-0.02009367334365682,-0.047804785267236714,0.04397442285243692,0.022480522694334308,0.09087577197170366,0.10734326424295258,0.04863937402692808,0.04702912919151448
14269.0,-1.0856722872150855,-1.1801220044193723,0.58054023627971,0.0004721555974061603,-0.09997333420891501,-0.650340382733586,-0.23597817456106854,-1.7483368891636883,-1.1637427823160351,1.6454032329592878,0.5231884768461026,0.0018200086564107677,0.11247041586420226,0.03668404553107555,0.033929784930314906,0.03193900228619881,0.11149493703210447,0.09977442172923248,-0.010118735682724783,-0.06346659673228364,0.05677260522035883,0.09406335910039085,0.005191928907712366,0.08273592975469718,0.061825689797927345,0.02310587330041383
14270.0,-0.9151734903851847,-1.2676507314522725,0.525050659300016,-0.00019337586148397034,0.021132937554393137,-0.8816909901268924,-0.21495455604334335,-1.7511870566978078,-0.9866681311858848,1.745873288298796,1.7131139222506395,-0.038060675465609525,0.07233803945713135,0.02818579467779732,0.02904844987777806,0.0284012298655139,0.10674217893434933,0.11395500673571901,0.006924862747511035,-0.040889932266307424,0.04884975044924398,0.06299219049885257,0.031065850048360294,0.10191686605658466,0.0796145684180677,-0.006571228523456302
14348.0,-0.34808416773554735,-1.330896832844099,-2.225464083802519,-8.397667589714816e-5,-0.08853838350981144,0.06734247415856424,-0.10509890805207017,-1.814925952886833,-0.6975254912749838,-0.3178772088021716,0.21956185487603647,-0.015405922808049926,0.06184513919023448,0.015877369195153285,0.03805494483495107,0.07197446715490508,0.07711024809310081,0.09589152663215479,0.018209189175464182,-0.04951929335827696,0.03263709039603728,0.04278988955341496,0.02151701942367199,0.09224830303814072,0.011302560225057054,0.04576273993309962
14349.0,-0.2627865762706803,-1.4948057603728142,-2.139181166457731,0.000244978958099419,-0.03380892451387709,-0.002126397896356311,-0.4514130906660426,-1.795251055670815,-0.8783010472233757,-0.11830123638192191,0.27514843942474637,-0.035504718694977844,0.06972909578102084,0.04802649328454164,0.026525496975385764,0.038277379089285336,0.08098275353811665,0.10115768340410473,0.023372165189689334,-0.04008958186291454,0.03434535010051868,0.04387502002236284,0.024193809763208143,0.08928244723416982,0.03452748696285324,0.002443435363130072
14394.0,-0.32673570669909147,-1.5642904984373915,-2.5654272889119127,-7.083106675695909e-5,-0.11112647140316087,-0.002432789383374746,-0.2591110069768755,-1.8405436955031662,-0.8134370237208524,-1.043846927831402,-0.06468197607362232,-0.0580189147267894,0.026739359107641948,0.0352828819528944,0.02988498587102012,0.08897962152622858,0.06420737051309384,0.04425846894109953,0.0028631567360466225,-0.03047679704451268,0.03343266728225063,0.018134914485951222,0.0037823622450841006,0.0778707314752413,0.020107432377247655,0.009806405679076629
14398.0,-0.8859339368069422,-1.682814501247344,-1.672043786341589,0.0001829957444770483,0.1290420632674332,-0.08312874217011855,-0.19969086102035818,-1.7296243657726091,-0.9762772942868634,0.10503954459034578,0.42878860089965415,-0.037038143016456415,0.03718774309835349,0.03574498771904603,-0.0033013000250775855,0.056375743028052996,0.0839149929093061,0.035715075602826045,-0.0014345800982075942,-0.001408577682725713,0.04654561118811951,0.03965462495923062,-0.004910342107589618,0.10453037128400963,0.033616713451668494,0.0060294465713290725
14401.0,-0.9531185137393927,-1.519563542123409,0.2608398379082239,0.0001507511307994855,0.05962292607760366,-0.6666023788992125,-0.2709761154577775,-1.7409675529131068,-0.8829292868125486,0.878044171899815,0.3729141675771182,-0.014199639226540307,0.14107527198635428,0.03087329770096185,0.029904513776392357,0.052555270364958294,0.09560574047503835,0.10371108921907932,0.014358873585760585,-0.04622805653254889,0.040746671362083736,0.04398000397058468,0.02965459114480817,0.09587199076354173,0.06569238022462122,0.013748656964817732
14402.0,-0.4583668566051378,-1.5712554695446805,-1.0225986171764625,6.487844621947199e-5,-0.038078245344621724,-0.7800406765930867,0.07052934543006349,-1.6948111217552866,-1.2677408447222411,2.298412120979194,0.436704626243866,0.0020958741635155927,0.09486167137327776,0.03349482015384275,0.03991571583268183,0.06963751148762139,0.10568414141305234,0.03577688594208529,-0.016727727971421278,-0.05829193783094076,0.06709108011792023,0.07458685446089845,0.005987071844741018,0.12691450935634735,0.07218657549834222,0.0619628215103172
14411.0,-0.39865652329885304,-1.5628274619057485,-2.2590509704343846,-0.00038552812614583705,-0.1062267637899954,0.03478133249127942,-0.34564343931122643,-1.8234578626545557,-0.8322545061827157,-0.8652491459627942,-0.021897314692689143,-0.02939087194247567,0.05883416391425169,0.026473565684972084,0.05934961824089376,0.06275468772924304,0.07145162098370038,0.034352238284106704,-0.016958855765972298,-0.006524447495175952,0.017887781383625397,0.022084599781006596,0.01624160743275931,0.05955851847005555,0.04524034443275832,0.05826690779775811
14412.0,-0.13711196292253178,-1.6343652559003183,-2.449954462963238,-0.00021118965987089802,-0.11887349890427744,0.09797577849138821,-0.36431447536474115,-1.7003241489460372,-0.8055473143790643,-0.7676526064763357,0.13920041573370504,-0.05095526274780021,0.08181026719900496,0.04205968028884896,0.032952771172324535,0.04205736239383871,0.066355898968695,0.010766679317568242,-0.021092185627245335,-0.04681691824808651,0.029128409274615855,0.04828554340339841,0.035194799698999295,0.06206563954953251,0.042895078744625684,0.016975172889784083
14414.0,-0.3732544565514347,-1.5922464339911684,-1.3168385612603506,7.621413689181189e-5,-0.0013451804065122105,-0.23910004377588837,-0.20607879929601644,-1.75340695889594,-1.2444008216322198,0.014168964844381128,0.445814528078013,0.010021127263998286,0.11581463391501319,0.018196634804033905,0.03303605507828723,0.09645474237563215,0.10476675698437872,0.07495049256411485,0.04032244071029499,-0.06677190244753914,0.02852574571347397,0.04141889326179746,-0.03337319782705104,0.08194673998811253,0.04346199976338397,0.01918851073880319
14415.0,-0.35402939214236756,-1.6860925811778664,-1.5374879016346095,0.00030929935146439943,-0.05481130665416724,-0.3101025151547306,-0.30994141988028245,-1.7427121634167286,-1.1369488425406045,0.6075531153459349,0.4453413284508208,-0.02534081767298343,0.03176770192814229,0.007530415937319667,0.011149717109357091,-0.011163722026271127,0.07233192815442269,0.021233482432953674,0.01583562022945176,-0.046464689706811176,0.04005107797728634,0.08456242525093936,0.0732466120125103,0.09765108049573995,0.0644881416056955,0.009091128464413232
14416.0,-0.7469960002765964,-1.336357529188172,0.1521782212649975,-0.00046817625494638556,-0.022641252287575114,-0.3006267920152212,-0.3759671027299213,-1.6784699445658635,-0.9138239112309264,0.8059051800808085,0.33712850563624736,0.021007053731828162,0.10975709754143673,0.030016887134108602,0.029587739824942023,0.03785007028667423,0.09044667238477738,0.10355990978886025,-0.010075954386019617,-0.05881481739186918,0.04701727673697217,0.03823895533499941,0.03333899650885405,0.06271426363295177,0.05777760469292018,-0.028709603804248432
14417.0,-0.25296731093655617,-1.5245829730321878,-1.5251377431063158,-0.00029838582151084115,-0.1748764746445071,-0.5517601493099301,-0.2829495117237396,-1.5779911896741416,-1.4456380226420238,0.9133244765649006,0.18359246507467883,0.02511389957148563,0.10521442444579468,0.050748532440244576,0.03517350862410177,0.05627420066979369,0.07165686646563263,0.09802561054528108,-0.00756743358935596,-0.040514614000508306,0.041634377796813005,0.04449140810119943,0.03600988055619514,0.06183192015396974,0.04311605967161821,-0.02637629955424183
14460.0,-0.5075403011949962,-1.4446015773131884,-0.186955997255934,-0.00018094995011356252,-0.08233349524071164,-0.24597146311181703,-0.34371317536251134,-1.6990270464537343,-1.2315238389319543,0.5640642881494167,0.2566187884202963,0.04340958347455679,0.05843476613844717,0.012913916299975587,0.03123882160034368,0.006797596368098341,0.08262128456977658,0.09893534374017918,0.030657418465568954,-0.016251814413327098,0.04038126371082326,0.11870237066017211,-0.0053134418309487225,0.12178548075191739,0.04878112453143935,0.005130406038900732
14463.0,-0.36713917651294936,-1.3773078578532507,-1.8048456897879088,-0.0002123320997954031,-0.10336255402715391,-0.21502581396749537,-0.2704698830341078,-1.7299841065915837,-0.9777075148300188,0.33698837270241594,0.5643066513343123,-0.017280641024915274,0.07253408504947721,0.04936698671913001,0.03600773446140059,0.060576166183486484,0.07151920941182462,0.09474561279593427,0.0013345172085391045,-0.0375706968837782,0.046828392174940364,0.019856930600955214,0.02076852563043635,0.08187392531470673,0.03896561478175663,0.013871570903574222
14464.0,-0.866699447570146,-1.7538787971534784,-0.28720504753516723,3.34808213996467e-5,0.044432706606588,-0.37678515231299725,-0.07189234197693538,-1.7631488263723183,-1.0344482951709058,1.0593172009603968,0.27564034370617785,-0.02469254699030318,0.1371219499041106,0.017988933593548646,0.06199182738745231,0.08532118177682535,0.07077740158660666,0.1135291611476806,0.01458702195652602,-0.04991505288242257,0.039145963894242165,0.05031093134752825,-0.011083446799010993,0.10696764395355715,0.041065009412336165,0.03811685899426958
14477.0,-0.15568343149012034,-1.7069545121312728,-2.595727173703129,-3.395038776319135e-5,-0.02699919566537954,-0.06523308880770919,-0.3616185031998645,-1.8892081593973498,-0.9730234001834411,-0.9298783825329887,0.02116746999957178,-0.029173576503038996,0.0444788301958236,0.044805906540379,0.05696711097825356,0.039934363422703296,0.10244612420698189,0.10295823098372461,-0.004946945300873014,-0.05192208911109741,0.01014325975092338,0.050376475256971025,0.003047213510174276,0.07847888490596115,0.037089701388126076,0.013481778801101884
14478.0,-0.387276312122787,-1.8778193756877677,-1.7265642280788216,-3.0234693899093213e-5,-0.06244808154207333,-0.107900207637204,-0.15971478024155022,-1.8660190220024437,-0.9324082439371211,-0.192866664500562,0.39572299789253745,-0.013290428124654734,0.058872599388784516,0.02976078486001346,0.0455549434277802,0.029349518530873125,0.06544163480344427,0.08516575589102435,-0.012117252289786865,-0.03211488783418969,0.04880857562539166,0.07186303465341781,0.005832038342324203,0.0489210431458891,0.02963476099255246,0.04241004758272689
14479.0,-0.7192360928164525,-1.3185651528578786,0.3681342832543942,-0.0002272199892959368,-0.08345166336057731,-0.5648289066355371,-0.2466200291889971,-1.6830602896542628,-1.1791591869871054,1.3200857782712514,0.8706844809604295,-0.035000753041494116,0.08629146253279638,0.03256104911511488,0.03585266659591787,0.06456538988233056,0.07967670530236418,0.10266271361676901,-0.016981882909890052,-0.01729458210117846,0.04438682029952528,0.07991229619205249,0.020052546151646224,0.0909729272564797,0.04783148726196715,0.024732613427123046
14481.0,-0.6693401879731041,-1.4801893450484007,-0.2103167246092011,-0.00035468789294162273,-0.18115032967191638,-0.8297723910342699,0.01038580262043327,-1.6945028065239218,-0.764675366621493,1.129615682124497,0.6367975403985043,0.0149064554124549,0.11279944990978004,0.03473354367735321,0.010560737883066844,0.039553672159897635,0.09154832786270571,0.09380624921079947,-0.00317821736358445,-0.011245213708913921,0.04398769623025544,0.0357515627459299,0.03140082642865267,0.09728456052248027,0.08025603848788998,0.016365953688755378
14515.0,-0.44242648283096175,-1.4085897472060775,-0.13516708406346672,-8.196171659686665e-5,-0.11342992278341883,-0.52431576982405,-0.15286931733375295,-1.748337105835473,-1.2295159022773954,1.7064734327329398,0.36036184804112287,-0.040621257634359774,0.10294903732879723,0.023849039753123562,0.018811542051423397,0.026340247897424344,0.09822276022591779,0.11566717653957007,0.012496490189040288,-0.024844078642676404,0.05978887100761784,0.04677841841763821,0.05850499107189696,0.07286905593032465,0.06519899804362486,0.02033773730563634
14519.0,-0.6823315082371848,-1.4662582051133781,-0.4263642405117648,-0.00030875102433076853,0.1718570862036858,-0.7913904329704861,-0.012562629436823677,-1.6840711979926033,-1.0742093736767764,1.8635743666933884,1.2957766383030742,-0.003209671258799382,0.07637210416069155,0.019975329450052433,0.030879814235748773,0.033028205422276746,0.09172586069943785,0.14006204028695315,0.04435024673733513,-0.03511920415999156,0.060506337361535385,0.057758706689523764,0.05454798561969181,0.10711052293526561,0.05759783273073637,0.05345831088305776
14613.0,-0.3388048198123292,-1.7114758621797899,-2.1760467106768857,-0.0004942784097023825,-0.04762830963894317,0.06866725113210709,-0.2072076713442451,-1.7853885801498885,-0.7801727527626062,-0.6273965760494531,0.1342110922839748,-0.047593517534519555,0.07550594362060874,0.03175461040818854,0.089687325941016,0.12169543132808691,0.09940801227112625,0.06347521095410803,0.019138268430394668,-0.042068056504833425,0.01830185710363285,0.03458591066898887,0.015055468082449086,0.07033450607348947,0.024269517940777165,-0.013547501756410504
14614.0,-0.9782698137161485,-1.2357506898355097,0.49279914323855634,0.0001538002921280509,-0.023774468393932796,-0.8432037077001764,-0.30209908352208026,-1.6293126122463537,-0.8478136469821357,1.707328479560795,1.5052619158321037,-0.08689899865242942,0.14286439715498636,0.02820719050797826,0.006293242787956354,0.05764658653388856,0.0933147077455378,0.10066134365295036,-0.002994107154399658,-0.061033128815816774,0.07990927883569664,0.07142507697133121,0.044675844000267875,0.11597117889948938,0.08164451695735546,0.015625041652673623
14615.0,-0.5664269252679935,-1.422743347612801,0.07353948918516975,7.500914679403393e-5,-0.16439881989081712,-0.845197780306781,-0.21626834486844654,-1.656473980299519,-1.2787515136918373,1.6835021722167502,1.4693921066417455,0.0075301971138191,0.13679565491460233,0.036315394751488456,0.028911587450580135,0.03094073476121074,0.11279854043897936,0.15716258295389277,-0.0014339682229735997,-0.054676596423541474,0.0574598211968558,0.08541771678907674,0.01100149524824315,0.09267783382578532,0.047169080065403386,-0.02541579113607648
14651.0,-0.1823975891434615,-1.1796259876776942,-2.608835301079388,-0.0005562342455771224,0.08076208913440125,-0.1778797983207391,-0.30495639072980396,-1.8076108158081596,-0.8178346958354179,-1.028066020439477,0.010314260968622632,-0.025901614879214035,0.032658899907291004,0.0387712266994933,0.041497702299523404,0.07138307792829605,0.07322075871145958,0.03714317278146664,-0.011363331924652489,-0.031017123133789907,0.017686998113495275,0.0525852110970238,0.00800005813650586,0.05661005458124634,0.04627304182323798,0.023722357250460416
14653.0,-0.7432840261557488,-1.3820944585062689,-0.05611013535326055,0.0004389633746406597,-0.27044175023378697,-0.6375992352542619,-0.11814132401179087,-1.7277751875226919,-1.1590786782648144,1.9026616829215242,0.9652508981037372,-0.03697239975743411,0.0715812091332532,0.017286038617734926,0.041783362044221097,0.058100756867909456,0.06849915447471666,0.10044203340651975,0.06720770108907195,-0.04283868038333798,0.05688844497555108,0.06284849732139819,0.037282212417031654,0.10248219463496552,0.06051574571991967,0.04525195522481847
14675.0,-0.36879096601775757,-1.4898640937475531,-1.8030414291931764,-0.00010695336226325426,-0.08467380700996018,0.03597982156071363,-0.2879250460222967,-1.8564741117383572,-0.814927720976956,-0.014725288345808342,0.39371871826508226,0.0017006267442356538,0.06978338183783239,0.031868360254801706,0.01546894963368833,0.03149918874213246,0.07673533958153635,0.02632491087444483,0.005103167579442582,-0.026830775468877233,0.03615732392938624,0.08973665812153021,0.0202977783478159,0.09343005151818928,0.042961737468160906,0.04149109628380247
14676.0,-0.7457114512901503,-1.4305718183726193,-0.056852853441316756,-0.00012866161053732804,-0.14760766197710573,-0.1725136563796119,-0.030374424840059585,-1.779895549409114,-0.8957922146712883,0.6530305223233706,0.33008334677078244,-0.002630583995934664,0.061878896828443754,0.05816226288895164,0.012200874560241127,0.03688291506299716,0.09104919875545998,0.07030191804563503,-0.002954742171932814,-0.06282502712602787,0.05315564316227831,0.08983817848232938,0.02338698008410329,0.06503939704256617,0.013593756688140762,0.07123904421841568
14689.0,-0.2939282158278196,-1.4419490035108564,-2.2326185104489125,0.0001380236706770093,-0.17584067451618227,-0.06134297411743748,-0.25800739262128763,-1.7799561096793353,-0.8648157281797031,-0.16838920477328947,0.32343450923962025,-0.04335325477017842,0.08419148409969218,0.043856755784822024,0.04783027673159589,0.046574522702054456,0.05769409299788116,0.08655021786449463,-0.009086757158925504,-0.03576880490522416,0.04369006595720085,0.06235892967980889,0.022678889672331715,0.05979947844868388,0.030687117003953414,0.025727973173629397
14690.0,-1.2400616735884118,-1.0479918649474826,0.6397265656961252,2.2266269288959434e-5,-0.05681456229887262,-0.8236019227270192,-0.19212251100747035,-1.6868534041360526,-1.0320326184690312,1.572692603996692,0.9914718853251626,-0.027542987825390674,0.13244305736655776,0.03688135650674626,0.040985064434772726,0.03941722244613064,0.0968933529689697,0.07367922851008887,-0.012561923935472815,-0.036542452461948496,0.05502889576187507,0.09263688779995562,0.0026230880342463852,0.12384338446325924,0.0566454565555525,0.0022219719981047188
14701.0,-0.31642581775351364,-1.6289046373181264,-1.8003763322669508,-0.00011488923292170092,0.03811372082883919,-0.17940362197772863,-0.3787735433812382,-1.9000009230704948,-0.9169562919198929,-0.757050760017643,0.19629552835856548,-0.015580836172693447,0.05176119155801323,0.032153335739323476,0.03762784934478919,0.05590176202986498,0.08791315863101068,0.09512948572743785,0.039155336914148124,-0.06821031972979653,0.02678225562837282,0.0722180827568331,-0.010706150522730256,0.07817066770282244,0.05081536924857521,0.007375463331765527
14702.0,-0.502478896507138,-1.4751839876098711,-1.701455437233903,-4.5523933774843e-5,0.03061798863249857,-0.2509617632716273,-0.14415600230569403,-1.7372924243400427,-1.041417051154963,0.8459061772450572,0.2600249800860198,0.017868434449355656,0.06107278465043627,0.006693495024185288,0.032878194739837587,0.039957189747903986,0.06869635432018317,0.0777433430078783,-0.004250153902044089,-0.031410556875974,0.051271766131353515,0.05422665283866213,0.02715584769058318,0.1070065451409424,0.06735421524044134,0.02121361085482522
14718.0,-0.49331168864750924,-1.6822180292784839,-0.7495798290920642,0.00013058237182810906,-0.03732101847647888,-0.3253414138934836,0.06683334226352605,-1.7408825690323741,-1.2184764677420756,1.2218578718176676,0.2453223338840708,-0.01146310746891487,0.1418935095140756,0.025088470012212313,0.03414862251472396,0.03547040672771475,0.09893740499936063,0.1439110452383422,-0.002377087118119205,-0.045513433248445916,0.03991637985534659,0.0549074062084,-0.020284065764810393,0.1079440828261049,0.043072352869295845,0.06361893347929502
14719.0,-1.2928282232070543,-1.2204017727359435,0.6699801834407688,0.0005867348495879043,-0.12355401927292982,-0.7452161812082734,-0.22574118649217645,-1.6163434648278223,-1.0791498146499123,2.0157712326881003,0.6379730979466544,-0.04001418526033603,0.0811858637338411,0.028540599070224857,0.034323320744966815,0.049805093393461466,0.10993004833337901,0.135151948396743,-0.010348496144707446,-0.05825264128186257,0.05872578883514409,0.04167959025287068,0.04256586162103715,0.09630689532871849,0.074533170941493,0.01543431324869611
14814.0,-0.16906523317156685,-1.571575242967935,-2.4233800234578746,9.446801241592502e-5,-0.012600242000113001,-0.12715405901820737,-0.3612328573504463,-1.7698987507573223,-0.6296735248847886,-0.6098865406221514,0.12632960745856353,0.02373948050929797,0.02946987467215755,0.0337398121871293,0.025192585688012203,0.05606214978682231,0.10032247229978764,0.08078283546010338,0.016701482627705405,-0.04783241802873782,0.03587644285193495,0.01487056962904342,0.009971049447242366,0.06315413165943838,0.03637663156885227,0.001673480755734714
14817.0,-0.2672686124440546,-1.8277925030719464,-1.5875855413132653,-7.33115020208677e-5,-0.018597783655524718,-0.31391883271326854,-0.13075697049172086,-1.799347354924192,-0.860938061452409,0.4632450304646256,0.2732415465555291,-0.024045759099881134,0.07232682171461906,0.024389909336577104,0.07347054451849198,0.047211424392825156,0.0938534721500331,0.08163478149506094,0.06300258003770806,-0.03255946559482401,0.028777508861603723,0.11218648141879853,0.001120660228851131,0.09762764908353155,0.04747967055555105,-0.016376746337774046
14818.0,-0.3602737254097206,-1.548283591801523,-1.3798011289620138,-0.00015884875478836636,-0.09249754913351535,-0.27682133181526225,-0.2969699861270605,-1.7816155541352743,-0.9564581896292987,0.6963278575107447,0.28616949875528896,-0.05087162273696707,0.08614897757159089,0.037996557093380644,0.03917437151888542,0.04242047441877184,0.06826090606564009,0.025793684118927983,0.01404999708521891,-0.0374496536024041,0.04946005071634176,0.04609651183438383,0.042870117501557815,0.10331557546527026,0.039583859714009406,-0.028902869691517095
14819.0,-1.0983048849554629,-1.3001793698208564,0.6313402272694064,0.00046938054539994985,-0.028060300174074543,-0.4885317679623188,-0.49723647082925476,-1.758602323302401,-0.4717307766627349,1.2409560318417032,1.8838508891720491,-0.026400653163201192,0.08730159296187973,0.05098138974507089,0.07499301768088132,0.029888315337740713,0.08062081037044733,0.1359400125619418,-0.02527284195504614,-0.06734145083325989,0.0385772653627922,0.129257055818886,0.020554449963187747,0.09220405535680799,0.04895356640369862,-0.06618668734330593
14820.0,-0.5741755048950758,-1.2267267544549658,0.27337810109791,2.060924954960838e-5,-0.2757615211490404,-0.596237169709915,-0.19276118175977763,-1.7246415073212724,-0.8733413077074661,0.7496590983875213,0.5799328545850272,-0.044717971922358456,0.0792577684543258,0.03861444889235576,0.03274310135043623,0.0677908461230511,0.09292136990690861,0.10601551587929403,-0.021091891526589836,-0.03707798712947326,0.04289342300811556,0.05719155115860749,0.03885526888198709,0.08357008796933008,0.04903219604542184,-0.04705626912849642
14821.0,-0.8940347177999275,-1.305509184861558,0.12761095755497007,0.0005837001775481747,-0.10134317120616944,-0.5877739629372493,-0.2308408110185058,-1.7348196677409071,-0.7856709910986303,1.4732900753106533,1.3753869917042363,-0.06015646028913891,0.11528999708924793,0.0430103941910812,0.030472821678436672,0.0595490313855326,0.09183355180737149,0.10637422699286146,0.01599544951995834,-0.04866898677067302,0.046267314173156604,0.07360206123737129,0.01645241732405294,0.10352864331432929,0.058617061067900066,0.0352143893117064
14822.0,-0.8776399743642261,-1.5275351661036536,0.1360906966695798,6.179119497813983e-5,0.012681582451088897,-0.7440114894273369,-0.015638475256646987,-1.6908989330838964,-1.112236463695226,1.7526378221882635,0.9409935226456326,-0.009294625295272087,0.11346658086322203,0.026470159974461498,0.03009489202698775,0.0389024875775465,0.09591632501906168,0.045659067581219195,-0.008110215012793767,-0.044194047693571596,0.05949815812820901,0.07725370675287306,0.023715555650161747,0.10341995166243388,0.07798788118206199,-0.07828211480826867
14824.0,-0.5770412229894347,-1.44355593020572,-1.1844372116555375,4.207871941926355e-5,0.02535619234804245,-0.6189968616673011,-0.12753928754479218,-1.6910985181531093,-1.2319640846892876,1.9888921389618912,0.5579706090525703,-0.017343721380781402,0.08324554960569569,0.044972635935722614,0.03604331980588736,0.021117971652684597,0.1040218691445419,0.06690805274791786,0.014529533420106691,-0.03455076271174696,0.054141340216307295,0.0644625953503511,0.046628237115968134,0.10137715173923141,0.05943829012529544,0.02432715884446991
14826.0,-1.1466880244968092,-1.0100794721994102,0.9143812908008632,-0.00010488730904546058,-0.2462747172973309,-0.7678924910385122,-0.1690643893181192,-1.7161997275869671,-1.0534423746039656,1.8825166438104834,0.6173635914225556,-0.030087702235395305,0.10576677252686048,0.04101232189883083,0.03243876168571448,0.03633291698348539,0.09539693953230838,0.06530960423379421,0.01046670409509701,-0.04333598671835511,0.05547407834451234,0.07702059224745668,0.05086567008132001,0.09650713454107221,0.06031629157371331,0.05218444565808573
14827.0,-1.2791924595289554,-1.1347299304641707,0.6465337796400368,-0.00010428537621115311,0.08383569528809379,-0.7944301281437485,-0.12560460288129774,-1.6987191483678246,-1.027930011235096,1.5462451368704875,1.0477792811454103,-0.030849674453366213,0.12958852099733292,0.017626356674793696,0.04810290860848207,0.030672034891004177,0.08808117185169857,0.07626146980353779,0.004662537313597849,-0.019058792489658787,0.05870197395386483,0.02929593985565746,0.04991869487744962,0.11503824571907843,0.06405423424289752,0.05114449834879573
14828.0,-1.1447748149583012,-1.3864505514015741,0.5906745150278206,0.00016123517972145256,-0.027495899227212402,-0.8642380567228921,-0.02077114705353132,-1.6732504201272047,-1.1602513717308227,2.190596462190168,0.8590015503113202,-0.022223098113789547,0.11066103701174745,0.0480120089846474,0.021852281674059358,0.05846869034267918,0.09523577558275326,0.12381077672655298,-0.01626802806946805,-0.04398919010525733,0.05753578434282898,0.04673920327269963,0.03633522358359797,0.10507275058673513,0.08031491164818931,0.073584890560619
14927.0,-0.2835369779197693,-1.3534572141427021,-2.4574885939666284,0.0002562846230012208,-0.08793614998847,-0.08644797134219673,-0.15598665822559415,-1.8257237504157606,-0.6514526050395101,-0.7303509963787215,0.08825315046117603,-0.03699468400145576,0.05368095677290732,0.0251728340919497,0.045232035584850165,0.05116225630544269,0.059685320202035,0.11870083472997865,-0.002374436748823148,-0.021893975837668805,0.029493340008003754,0.017393877943909352,0.0071043984682330604,0.08546438656942526,0.03590210023366526,0.05097375550963477
14928.0,-0.36884770416566665,-1.6151072642423832,-2.2743264762529964,-1.2592481930174989e-5,-0.02079903754447717,0.13032209222901545,-0.38784642561644317,-1.852567418625379,-0.828740180293883,-0.5862799265640474,-0.02574835483085291,-0.05344760290702458,0.07193450756394681,0.026105500454718312,0.06802008151958967,0.04305460976178726,0.0955671910151028,0.03661998860271943,-0.017277046432953833,-0.03305738698080486,0.049878389538615335,0.047154299413500925,-0.0043504530285057436,0.07761592476102348,0.023645143428921815,0.04781370031187375
14929.0,-0.9789908572331456,-1.2596688924527792,0.07929784755038603,0.0007585914521189853,-0.006334494727826106,-0.2574857641386984,-0.30837220823794875,-1.8038271123142064,-0.8664276323824002,0.3586445548184673,0.649383241531892,-0.017063166268600494,0.02518323886855155,0.02872984484260945,0.038521840069875586,0.06534932948334936,0.08568383135666846,0.05836633093302886,-0.008763232338585978,-0.03989770006144604,0.04038501957096096,0.06272087571819789,0.013903345537448333,0.08177906898928308,0.04203199285431501,0.0033068056267205
14966.0,-0.6415071299211065,-1.509321475489557,-0.17443375939399575,-0.00021175621609691368,-0.06995129787528552,-0.39197783602639413,-0.2514047478588401,-1.784351919709509,-1.246162892391311,-0.21580490681287368,0.2699399720519079,-0.001208643904749934,0.06288135869586539,0.03488585640864212,0.036286010538304256,0.0497475601276501,0.06770410562230762,0.1328236076701209,0.0035661789534268728,-0.026918053935081423,0.04567507503951607,0.015686381253060485,0.016279340728578527,0.10428779323483883,0.0208984745606685,0.038949222651147024
14968.0,-0.6693445543499871,-1.4766981635878216,-0.17021607268898875,0.00043763368669872874,-0.07956084403732012,-0.44845495756652837,-0.27447767037705695,-1.826594302933091,-0.9551191913636259,1.3914001167521508,0.690954806078215,0.00845748489950904,0.103262990833562,0.03597385133184065,0.04035592660900572,0.0223772969128691,0.08657621845392942,0.04135559890616779,-0.0078062042905804735,-0.03978142614275274,0.0508358114378043,0.06267350997940792,0.025368693666528108,0.09149081143869722,0.05040169484876752,0.04127009657428779
14969.0,-0.8216812257381333,-1.439102402113648,0.3076380905598255,-0.0001949988666981866,-0.11124329517948772,-0.8166122659491767,-0.08222918964721923,-1.6808376749613474,-1.111795070362138,2.1303046741549694,0.9610932276492788,-0.03752546334372252,0.09677616695749183,0.02613489310886173,0.018396061196077267,0.036626781126496054,0.12773215868923413,0.0851787665434666,-0.013264277164638086,-0.031444264163938876,0.07044711864236726,0.04826525048757653,0.02783422231027619,0.10533856531461988,0.07903858868567926,-0.005101704171447492
14977.0,-0.22798082504210762,-1.8469390295312307,-1.8417145294782116,0.00015218022631881096,-0.11842127396010167,0.07381246245527497,-0.463933387965131,-1.9272417503420147,-0.7788229717908062,-0.3028124369896185,0.32180941252691914,-0.0018035448594664123,0.1381709648476458,0.03098816501368222,0.034797351574467686,0.023419594216249905,0.08074612514308313,0.04942995670587565,-0.055941333996870124,-0.04247721432594589,0.02538021183089887,-0.009685801099480898,0.0020300478683382786,0.12108593725073465,0.0345774767567257,-0.0269203838057053
14979.0,-0.463987337703005,-1.4478795266412325,-1.714552821675519,0.00012903378356559717,0.012031408393532025,-0.35396260640020133,-0.24092104950131352,-1.762738100133819,-0.8964459992205397,0.2838364231226551,0.6469527910607106,-0.013972939920938066,0.09286665108895234,0.03494710566381357,0.06399090513832885,0.0468369634255163,0.07088950405891595,0.07743171234226259,0.005287796632359082,-0.020453579869711754,0.049729126021203766,0.030925080524289515,0.04177440706809717,0.09397758236156453,0.016887127102203126,0.02042314238149636
14985.0,-1.1646551085662078,-1.0793818787950515,0.8551421710363615,-0.0002005976208853212,-0.07382565873645647,-0.939047030867236,-0.22356878401561758,-1.6886119952303777,-0.8530821191133616,1.6208509313006292,1.4591891859695492,-0.042394841591070334,0.10898825928707669,0.033901742612153986,0.03774430282506394,0.07256220851323417,0.10799656436554778,0.03419732369173099,0.019741063472086626,-0.058673937868871595,0.05531220653486655,0.0620466971235674,0.03936004143473659,0.10731058212610896,0.07387715491601887,-0.010707427169508
14999.0,-0.5311480185684471,-1.4931465099251222,-0.6523537433877249,-0.0002123820710499893,-0.014153425160312618,-0.6994575314054887,-0.147861436077067,-1.7532403138446926,-0.8808119799583144,1.0195915131519824,0.9756269309376158,-0.01719759612153642,0.09121216786405562,0.039403468346756745,0.035560946544344746,0.024394665461075864,0.10872819913075982,0.06664172142225618,-0.009196509009523976,-0.04656034362853561,0.052525723423893486,0.10890020482414044,0.04135435633144335,0.08641059497029005,0.05042580737453155,0.03482335730633383
15000.0,-0.8094198828359126,-1.4478153094510615,-0.0522720383008716,0.0004289880854918112,0.011653850738241135,-0.6235074848664235,-0.08517065870216538,-1.7412135350294087,-0.4847880578351359,1.1036573755989378,0.8308700536148486,-0.05726981205639227,0.14193192889883705,0.036599421933945685,0.061323628041711424,0.0011012867716177544,0.10492287854079503,0.12773599241029426,0.05779675057879009,-0.040974585261739555,0.05660299157957633,0.0757547971837686,0.004917251860800807,0.04049498697338823,0.04800646083054947,0.020800908826230334
15001.0,-0.4444189442421134,-1.203209320931227,-1.3379263005670767,3.229128209307967e-5,0.060430579205588274,-0.7249249950764504,-0.14816338624932263,-1.6843784512864708,-1.169458924057562,2.1171542066608326,0.669225950662332,-0.012638286077025699,0.12272386841145401,0.040292369382785936,0.053960548080960506,0.042556384045297824,0.11537605753138866,0.010887482370161015,-0.0041176352992821205,-0.029374869730987917,0.05806456498621865,0.0766346511061024,0.040692315036266115,0.06883353057114316,0.05053983507562331,0.00801509871698551
15009.0,-0.9462471800866497,-1.5878937875484933,0.3791526209192068,-0.00011483376903507048,-0.004896301058921795,-0.6033652740707556,-0.27816330617576346,-1.6470003844235874,-0.25001808818506704,0.9070966374905338,1.3651474687052343,-0.03150997053595428,0.11056651082907547,0.045764355947226984,0.03863303824715111,0.06141670636033112,0.0964506842990714,0.1294263036855795,0.0008503405689826097,-0.06970029709180316,0.04302610658257136,0.05389759099571783,0.05678192123063806,0.11111101034053383,0.06439009597028254,0.02988576468325391
15010.0,-0.12867857083270814,-1.4859720557515783,-2.2609307791162383,0.0001773570355778978,-0.04179049307537802,-0.10683330599899643,-0.32172992492134744,-1.8193119978100045,-0.8618725112638543,-0.24796612843685323,0.3269370678407875,-0.03471130025564387,0.07736831018671482,0.04567682110420369,0.03081927251774682,0.059886532612978764,0.07407387309970942,0.011662709140255904,-0.005187105453153159,-0.03352101897247575,0.04003499531667968,0.05318114114396836,0.03069235148210584,0.0888251487729036,0.031777256414417164,-0.015613831440995804
15011.0,-0.29544248544531554,-1.6436606053442084,-2.0389973221888478,0.0002564071427659238,-0.13979848500130415,0.07338133073020021,-0.26852245197531033,-1.7917248674355593,-0.7038707995765556,-0.09418862849948166,0.3943921902026295,-0.020349927832035104,0.06881174137404941,0.056930283664926605,0.03842768041149935,0.05604092093168343,0.04347621451572163,0.03983348066201722,-0.029997865864187234,-0.015159491661781769,0.027554248818207654,0.05145867720933049,0.036642631977294116,0.09001933009996997,0.03953154133811727,0.031180484969957272
15034.0,-0.8415740037794255,-1.1420528730440103,0.44401106500477183,0.00021423689426597665,-0.05765227294491589,-0.8342707613653944,-0.25522987657357943,-1.6502876017061348,-1.0746017240451198,2.1581577212901806,1.345144481724255,-0.04183449596241146,0.1191628085417354,0.03451120910326806,0.003127395560688458,0.06654757729723829,0.10693149698152603,0.08770849454139083,0.03325721282735654,-0.025037389635543486,0.058701285828138966,0.038119723796934055,0.026050654123942234,0.12828937385166714,0.06207996878660392,0.043796370468410596
15035.0,-0.8528530745164615,-1.4357890761599972,0.21704202488212607,8.459588918901745e-5,-0.13191227864559132,-0.8159573470244288,-0.1781248450554352,-1.6625493658077375,-0.6563766561125713,1.1976481792949087,0.7547895583401883,-0.03267979520278576,0.09300851867053336,0.04762666459955675,0.007992731562069448,0.046427022337016094,0.09019449456636716,0.13230854422998697,0.006389636487863301,-0.04289507426739404,0.05892595907823416,0.0360015148090531,0.028562062130739835,0.1311860598192556,0.08427021545967003,0.03479579091550355
15036.0,-0.7640469498132746,-1.3395924886233892,-0.06484718316161969,0.0002786960030459907,-0.10657892913577048,-0.4379418086969502,-0.3368353393098458,-1.7120232610732804,-1.3411805680147275,0.6805361554362341,0.31887278434256155,-0.03622517288125471,0.1048224888270955,0.02236015721145247,0.02454077686725831,0.0442519627665187,0.10096568224056744,0.05549254608353536,0.040499785853640356,-0.04159836877457623,0.03578225377518919,0.04997320701931218,0.001187227685106045,0.12128883632329983,0.05445735227074967,0.020175821122912753
15139.0,-0.7766611996346556,-1.5179063241296817,-0.06890262425749824,3.2802088616001366e-6,0.05717223573483856,-0.44383535137787034,-0.42586428994602765,-1.6310062155632399,-0.8532496891261351,0.4350532735480062,0.15653581901097915,0.006575131786427382,0.10206950159206925,0.027139755685971153,0.04365262973489964,0.042064765503477174,0.10422835530264468,0.12568423487352876,-0.008365666579983737,-0.04547617990524991,0.03586826577394372,0.05584832040794439,0.030100078113718204,0.07272512281423313,0.036695658818872934,-0.027185745474236148
15140.0,-0.5850663391241013,-1.5270369596811173,-0.08150922475095826,0.0003507163371761462,-0.006049533496443281,-0.3774160149021045,-0.24768250798491706,-1.7390221055649693,-0.850737911061276,1.160447198124873,0.7569172089124815,-0.041348892967803745,0.11846063959545032,0.011395953439129771,0.014266707104460319,0.05925650392700422,0.07556596464924918,0.11166134459381052,0.05273731946834578,-0.022874608974466526,0.042210248202984135,0.06744721026303867,0.03857914389529763,0.09179975558581273,0.05240813446717825,-0.04294573777581763
15141.0,-0.45261816151651374,-1.5958581493823472,-0.6768772885060939,0.00023895012923945503,0.010440230928199894,-0.282418687399097,-0.123136494839102,-1.7583548486559641,-0.4244368724277148,0.2631029970457657,0.0848602704645782,0.0033785867389985067,0.10142155394544508,0.02057111111610366,0.026066967148433054,0.03935873158642674,0.10133485777645869,0.05904891749046502,-0.03305400894846778,-0.04165721851521321,0.05066114790007609,0.05978583711603024,0.007990520615672958,0.10509117172263135,0.05607535572184709,-0.02740190624354778
15142.0,-1.1856849965053406,-1.6379727485678373,0.16255931095486068,-0.00016390529968625018,-0.01944184799679661,-0.7164820317210671,-0.4216203264137749,-1.7807623237719417,-0.8467613255191172,0.752695963064136,0.6708020969802869,-0.05788022498633391,0.1128537842296783,0.03828720147618829,0.03276337999399095,0.07037847347437093,0.08016204714491243,0.14794096476687305,-0.003304737923473218,-0.030588221642601884,0.04763691845849382,0.052081466069662394,0.06211908247094201,0.06944752351011552,0.05704184045959414,0.00599556184533893
15144.0,-0.926076539351603,-1.1427750120078535,0.607070000135998,-0.00038187881978087756,-0.03182192055548072,-0.5456418866507643,-0.45272564623221007,-1.5715730280457174,-1.007978204898969,1.4458293760206722,1.089318512904018,-0.030861085724454458,0.0855841139721088,0.01803517040874721,0.04394803915567787,0.05470799109089878,0.08921354816628954,0.07080291500028021,0.02158142347223867,-0.05037134136345096,0.06182399920185528,0.046850073132730534,0.03536272521750968,0.07546145191421293,0.053946592613715594,0.028808601763966643
15146.0,-1.0524374179810811,-1.2555174986799904,0.3462942834787445,7.710010253123444e-5,0.05273032271324697,-0.7028410467502265,-0.2992100229405569,-1.6682989960821089,-0.9128810363723842,1.5961631915431465,1.2832892968464462,-0.05550336882375945,0.11830600322310215,0.049022380926634496,0.031440203623577564,0.03819382229238174,0.10507659138444056,0.09198208647568527,0.0045631246214561235,-0.06200483024922836,0.051085637287865485,0.057946878488467635,0.008484197346394759,0.12652969244002765,0.063040931242305,0.044752456770633296
15147.0,-0.4525008066095391,-1.6332688577933978,-0.6124066723883097,5.014767029807433e-5,-0.037059956573693945,-0.864588643640922,-0.2121504621339783,-1.704981453107333,-0.7420795212544631,1.7176642286437571,1.0965090017694827,0.006664351472671615,0.06833515778787776,0.05163550125663255,0.04270550374838105,0.06678138512631164,0.09992136279884714,0.12424701440221116,0.0045721281598280475,-0.012765921568785704,0.06155786134629775,0.04534941488743992,0.02845147559630227,0.09341001622542063,0.06053237476651208,0.008306172238267915
15160.0,-1.0210930485873497,-1.1508605977197288,0.7655432115438047,0.0003213090889297533,-0.18180186147164595,-0.834450565273718,-0.2360210881598438,-1.7384760533353376,-1.087903835256835,2.160111113995538,1.3607666084814438,-0.003242683463306576,0.0987075144137788,0.03817491190792773,0.03476590657379785,0.035491386784476046,0.08147305300394803,0.08850751670004377,0.07093588090194491,-0.050751567074509896,0.06450163031719894,0.07855111358320198,0.013615736000657014,0.09071014284618299,0.061656573132060535,0.05677040209340183
15203.0,-0.4470435593957522,-1.8551914306801192,-2.110396452188624,9.200575730272599e-5,-0.03932428858136015,-0.04373067760083198,-0.38583949732057676,-1.8717219198147577,-0.9132043633384732,-0.5258374278337175,0.10383739754788213,-0.02916749632751003,0.022620322942089727,0.04486767492605614,0.04411210113433128,-0.00012013816698427719,0.08021878784258582,0.008682327862591318,0.05061849299009146,0.006110155760150832,0.047342556529381095,0.03118023417517408,0.04898778090068241,0.0655163049474246,0.05384453333675224,0.011970941192089853
15205.0,-0.3461368925341136,-1.5404222866577322,-1.4585232451194774,0.00035142515868467856,-0.023743294250895334,-0.3986902383386402,-0.14470316253439963,-1.7421794888356252,-1.0308772442121317,1.1800617396515494,0.3936781220772476,-0.016443652236784186,0.041410894134722855,0.043427071621700994,0.05016318791012207,0.07436104981656709,0.07945585947787114,0.15429343653141678,-0.0008824647932858894,-0.03144886315535933,0.052508622315014034,-0.004974027070098786,0.025330610544871287,0.07860424637296944,0.05437929528116981,0.05992025704257722
15208.0,-0.3144716516526642,-1.5638608478304328,-1.0513785655802672,-6.174225360603247e-5,-0.1125928568864284,-0.6418804331272178,0.028492003889003772,-1.6915290731649604,-1.286658493820047,1.8482677350855499,0.398152668161256,0.0005248998988097293,0.11874152473336974,0.038749023099477864,0.018228641428312767,0.0526458475986296,0.08223098970985304,0.07736430745457369,0.01540924926691492,-0.040158969727170556,0.05247231180039792,0.08120885412222022,0.03553540062553208,0.07713721404128847,0.05276083142041252,-0.001867288615550087
15333.0,-0.5412743608872279,-1.4082131710614183,-0.21446357277822967,4.106760765499208e-5,-0.14679782740993313,-0.621033244201269,-0.324460285484904,-1.733430194223731,-0.8382233255140713,1.2100269292145476,1.4578146219343526,-0.03506884464428938,0.08735879209988237,0.014372178772952094,0.03371949171257641,0.06680171204314174,0.10693051550429494,0.05834580105446727,0.01296107946665229,-0.04014652928217359,0.05578153631729213,0.10813405244892967,0.012100679094168206,0.10288765958228555,0.05695446277383189,-0.03823648426826971
15359.0,-0.6496808757756795,-1.5575496882968891,-0.5594874865106233,0.0003129837141477883,-0.02603053479221065,-0.35075435602468086,0.06702699145283857,-1.7310923173900536,-0.9716073474708237,0.4576406547169592,0.4077112494263311,-0.0167106136395868,0.08598819967797454,0.035251242243153416,0.04354435554608075,0.05811804357024747,0.09953047154500526,0.11193204561800532,-0.03998646444963451,-0.043356609476510634,0.03517359220488172,0.06272214867738411,0.056326299093417284,0.08059919507333278,0.04758055297689395,0.015591906159148081
15360.0,-0.9333111191072416,-1.3652559982385053,0.2653739399794507,0.00015110580968199895,-0.07634314273722266,-0.7659944723106809,-0.08146262806400253,-1.6924421309505278,-1.0103438836442307,1.8694246653521138,1.7036648268355965,0.006151993566472925,0.1840616106672199,0.020731444233749653,0.020502640191280105,0.03323376491509157,0.11981523245324388,0.10808329643524188,0.001857399402505436,-0.04052257840504979,0.049022846915587864,0.07611244850102075,-0.013016026923870428,0.09416042638555391,0.05757302726504527,0.03381984562918159
15361.0,-0.9351978961670904,-1.4325739456357578,0.2161253358104046,0.00011485525503223746,-0.018173996518899643,-0.8620273145855621,-0.16654404184847849,-1.6927728226727994,-1.1683306604887491,2.3034812350812106,0.6190073023094378,-0.02428455475277357,0.09942755849356044,0.03469081806419641,0.07633805669700981,0.06332421803857242,0.1254551946706034,0.13715369995599763,0.003919610318360746,-0.07351789441402529,0.05703355172651793,0.12013176636324256,-0.014886291763565731,0.1007594925419428,0.06206194493298686,0.050831810838269945
15422.0,-1.2255103313018878,-1.0722253588751458,0.7898763241684613,-0.0004733417634818952,-0.17744106800117537,-0.8905298860972478,-0.2403974124575176,-1.7392593338448794,-0.8184786483471167,1.3088195701870926,1.0017073879755967,-0.020669635341517886,0.10873559997066173,0.02807980460254738,0.043171217214210994,0.024843794254162943,0.11401622151955665,0.15802546284501373,-0.03972366037763386,-0.03846564358035594,0.05267986249904265,0.02111034496110889,0.05662123214278437,0.10011567573751964,0.07482765250086072,0.008039949500327472
15535.0,-0.9803716516293475,-1.3721048159570437,0.19805554868570874,0.00032765447016378413,-0.002552363664183722,-0.5577175621998994,-0.1415478227591561,-1.724731421195824,-1.0102980031705215,0.922842527003471,0.8569269326799792,-0.01446982022075353,0.07882875108321369,0.005732597336769609,0.02447054123180419,0.06738694717583918,0.0979161302217312,0.1641538279544244,0.05750295055603941,-0.03130813538725917,0.0525733533813181,0.07482042478301738,0.06775858364758985,0.06155259752797735,0.05288930785180323,-0.05498186146219589
15560.0,-0.9178605092698463,-1.3201862297639446,-0.03804259074869635,0.0003356138893279641,0.014059999838175918,-0.15915454263240664,-0.30023567764734993,-1.71690835909626,-0.9512030191387639,0.041790250823799016,0.316501954886794,-0.04970305350088956,0.041556005303211165,0.034079448736331626,0.037457382147084925,0.07052901434433176,0.07642413229430169,0.04613417514611039,-0.0070360692589788556,-0.020968533119132955,0.03060351042083857,0.07137548733075222,0.02409669974228137,0.09216153350168765,0.04774030354011243,0.024199415379607226
15561.0,-0.686851768055794,-1.3429887761983275,-0.3696642719239125,0.0002610344227372896,-0.024220618529265686,-0.018314395623790575,-0.14123398686507524,-1.7771817356490827,-0.8987758856689121,0.2816400574282445,0.4389499219362363,-0.01278198007187994,0.05889161272621195,0.027452784975685506,0.04321181425935443,0.06309606109983344,0.07017798450385315,0.07471793700107664,0.00699254839515304,-0.02824768754482583,0.03481867392020236,0.06996322352701106,0.04150051636795822,0.09979409271165704,0.0425634546207405,-0.008606230702950005
