subject_id,rt_μ,rt_σ,rt_shift,β_trial,β_anticipation,β_zero_order,α_zero_order,αM,γ,λ,β_targets_2,β_targets_3,β_targets_4,β_targets_5,β_targets_6,β_targets_7,β_targets_8,β_targets_9,β_targets_10,β_targets_11,β_targets_12,β_targets_13,β_targets_14,β_targets_15,β_key_2
14085.0,-0.11544267523356137,-1.6496058850143553,-2.397027551819324,-0.006607908365858396,-4.037310090465689,-0.16082441065436676,-1.7605330746503542,-2.253430283338517,0.7779432675597325,-0.07009626513012002,0.033801424089663655,0.08431488764827687,0.04862523428098412,0.04118618589117391,0.0660469519669972,0.06755272722419915,0.08541097613019777,-0.05764250805959375,-0.045596184990469635,0.0201299043624432,0.06523610240876285,0.003240275673803698,0.06176671471422734,0.029694834355495133,0.018817407366619156
14086.0,-0.21720533924469446,-1.6746373770978376,-1.9605400105822752,0.12068136195643554,-2.8837039418121635,-0.19352142014000115,-1.7845534855241478,-2.179016464953644,0.8052398908499321,-0.45659987551477743,0.030549043881752266,0.04849394293508873,0.011884023528287007,0.04489675169347529,0.0387187033831506,0.10166116257174741,0.014060983162118136,-0.0447522010298597,-0.03613051307479144,0.029709772098174967,0.10322718899466074,-0.0029026840840724565,0.10744584651442105,0.015449974620688145,0.059863023336867355
14087.0,-0.043430121956338705,-1.7788193861192774,-1.9857676121348324,-0.11087959842706693,-3.372848312570257,-0.23071337849621923,-1.7456008302450268,-2.182582320058934,0.9289653021285679,-0.574164903597786,0.005467487549526734,0.044336362321984034,0.023048230486842722,0.02925647743843988,0.05957991709759176,0.06270989021597612,0.11113365376288598,0.01425571944410006,-0.027554577087702287,0.008835733843843995,0.06253719694665538,-0.007306795070615022,0.05689578771234841,0.0775549045243081,-0.01065657500675443
14089.0,-0.07973273072968026,-1.4935664331096428,-1.9226189646020424,-0.044591501169015266,-3.1058825729603963,-0.060732089961887926,-1.7161100502479338,-1.9401494653344171,0.8466345423796655,0.3290134057112785,-0.020717559337393,0.022004648305537437,0.03593048921568767,0.027314174390117886,0.07219260786437337,0.0754207205566651,0.042695711117555095,-0.011590372320766547,-0.03948061598186869,0.03805757418567089,0.03128867157042024,0.009451964137355339,0.061501121228459216,0.048877617853821616,-0.012944627016591582
14090.0,-0.2213491596021141,-1.3973308615673858,-2.3473257202486266,0.03331958233993738,-0.8349393140219719,-0.14234678414538895,-1.7120407016113104,-2.215475565882381,1.0166319438649059,0.0324269546006987,-0.0003824462340503528,0.056387021039868014,0.016488229805738917,0.01759570334182395,0.0564379861765736,0.07375967929156049,0.10255481753800612,-0.012990659299770084,-0.031152539901151233,0.028709167925242644,0.04465132471117564,0.02577030822472582,0.07654069308171978,0.04137018395882501,-0.056509689606297014
14091.0,-0.5429321749624759,-1.2796419893189979,0.18717807880867326,0.0773731857307299,-6.19213495242593,-0.2611225919868258,-1.576174263247824,-2.370583403086652,1.6721564596970009,-0.031785586243415695,0.007627223611479141,0.06934820738098742,0.046086709556032376,0.013260853354056034,0.06659219577818211,0.08229861462051762,0.08933465855214304,0.0186564940013247,-0.02588154770317902,0.0273306944433604,0.048738007875586326,0.018277996715623523,0.1022498904222935,0.02970253751755882,0.012738329794073373
14092.0,-0.21488665113556518,-1.4175621233894573,-1.2650557125210589,0.05619837055046038,-2.5737457334350617,0.047602241405454854,-1.5196612790573223,-2.2113852740879603,1.6864398182062537,-0.008572271639228397,-0.014497472339088466,0.07522913752871331,0.027555393014554053,0.032472368222877177,0.04715104219432389,0.09925901292691944,0.07059875097338379,0.003800800064206609,-0.004855916916248773,0.05130508615379439,0.07152726921057495,0.00033155044324700443,0.07140215185115957,0.06994379119126906,-0.028286590676335932
14093.0,-0.5432680721566335,-1.3812223726075994,0.11824289661488394,0.07717484519496712,-3.992668501948095,-0.17898630531982992,-1.5276388985701381,-1.7391815850356418,1.4317442157698794,0.008772709309838377,0.024810063372803663,0.07054098590520262,0.03255111323850285,0.012810733409058757,0.04008985070473145,0.08804565909364626,0.0863812513720297,0.029969160421656097,-0.05345514562424442,0.06475978795363595,0.04936916386000387,0.007522962730686882,0.09317085884707081,0.05092386347568796,0.03668300619657399
14094.0,-0.6225850856334845,-1.4400316000834217,0.4575974447634826,-0.05084321182553853,-5.142987017466616,-0.1923294652258521,-1.5377582716330305,-1.7186841572739364,1.4951530275423859,0.19211420832887346,-0.023455009741824857,0.11852292154771965,0.029707755368930854,0.004173604694901359,0.09920632663174078,0.10182416371996324,0.09418010809866871,0.019345534254694825,-0.04137601142083788,0.05550462952207392,0.08026535385439607,-0.007526129500986147,0.08274965168099858,0.06082754034932347,0.09384299625037149
14095.0,-0.5621943154409595,-1.2797878844886303,0.3974977098595011,0.10311976712085036,-4.632098369593574,-0.24525485861927376,-1.4919800398048129,-1.707642161078665,1.2996115736788978,-0.24022961296622264,-0.02921304387515419,0.09853396076919585,0.052673394151181274,0.01936169946463464,0.05133382042954307,0.11127082452944739,0.12269494493025049,0.033602716162625716,-0.0518157902049598,0.06824819381270268,0.07226820380119336,0.0050493856086480954,0.07699511499799853,0.05829040753043031,-0.021850187470240916
14154.0,-0.13783217612675425,-1.4191526300229433,-2.0630150495133823,0.07128584852252762,-3.0905076699716743,-0.3152899803628819,-1.580698610145917,-2.0180536162386766,1.0979199763327956,0.24994519744099408,-0.019702342036847512,0.04243126057191852,0.041493551361137145,0.0553939867006681,0.08658594039283017,0.0677562639330962,0.06825977954218015,0.05095738935890505,-0.0459827579924641,0.044089852388438946,0.030343679689903577,-0.019835674125643504,0.08884162551492197,0.03061680861450493,0.019920582815975627
14155.0,-0.6307309016827853,-1.3246395874508923,0.3380900704253775,-0.1520995721841343,-5.578483441345592,-0.07836122269565024,-1.5321521131055065,-2.280020755365895,1.7145670716000012,-0.003208283975061413,0.008289385488971316,0.08234245397888396,0.05807538470224845,0.0016553441560797685,0.045458842935092836,0.10470393149562153,0.1245712026276243,0.003635448370232519,-0.0423751320089514,0.0517777224695196,0.017703995674374334,0.0045465572899143865,0.08953810114597682,0.0783816126225138,0.0030976078874707276
14156.0,-0.3547757359396748,-1.4605678853642965,-0.32922956266145104,0.025341170720886295,-3.8609809865586717,-0.24738979437200315,-1.5503537679897164,-2.0580289826120355,1.3155716150268106,0.362483495932747,-0.0025123169850535844,0.10542480557483548,0.02051813612475344,0.050131484083639266,0.05025114818827042,0.08689677690127624,0.10349802785035916,0.00915212948425703,-0.04573583531113007,0.02765181493808114,0.043037281897268694,0.05299838408009359,0.08425318890091013,0.05070284259288069,-0.005300700286593819
14157.0,-1.0553593322082462,-1.282245516237245,-0.1266379912869103,0.05321176369259662,0.5969073938324642,-0.1560329535236961,-1.527327593583231,-1.6561438690840855,1.1014848446743544,0.3417295172089928,-0.059274487076829405,0.09684090138220451,0.024272087249972447,0.01716427776570281,0.05815546788249078,0.06501489227388889,0.11636204621256076,0.010176946190206228,-0.03142080423714366,0.07798634994365529,-0.021260065648193393,0.03193279516999635,0.11765687473596045,0.06086607536693979,-0.009497869266073676
14223.0,-0.3632880908732131,-1.8179141947476536,-2.1265013412585363,0.18898022694481365,0.66819402515597,-0.2176412123786704,-1.797762368430462,-1.9029092413495206,0.8524088685223236,0.3560629212007934,-0.028031112388160685,0.08912527651358496,0.05696812570806779,0.011986734760467058,0.0024601957666123184,0.06406150121595752,0.05281879690737516,-0.007831245829574118,-0.06500074806770967,0.037396026133573554,0.018856824153982238,0.014728171419532827,0.10196570095548164,0.03679847460290472,-0.015234665097581802
14224.0,-0.5098657151971603,-1.4590674903252085,-0.008071877421321767,0.15076608615613363,-4.879894457454794,-0.2363030248942262,-1.6574178513487543,-2.30090474096596,1.1113179600844458,0.2977501736277509,-0.028673419189047346,0.061567851236063564,0.032293573699489625,0.04794024550923892,0.06304531870085957,0.0801027864400205,0.10226136460371049,-0.02342613838394077,-0.04857271786207723,0.034070126939085066,0.04249284292962572,0.0208160100263613,0.07441359383534762,0.036412677683153406,-0.0068141715891871695
14244.0,-0.09934265318690587,-1.3676541602123171,-2.402594462597001,0.07577331325870137,-1.6046777946491004,-0.12255028621212719,-1.7369861180635457,-2.2689864537858937,1.0207477237863003,0.027338537429173082,-0.028926549590145203,0.0560804509140987,0.035394146144799056,0.04742322078071969,0.031687677624071264,0.088867180994794,0.05622611114539329,0.005477217749920802,-0.03134155527661882,0.03466797970401669,0.06051482619879854,-0.015154836781328122,0.08609514337402363,0.03797791738154986,0.0032785760761132577
14245.0,-0.35853146093353794,-1.6918998030554,-1.5622824905240247,0.02497491038329068,-2.8283168467441366,-0.15990244845699256,-1.726138376357769,-2.4244495304379847,1.0583456922191459,-0.2678168798995138,-0.04201505360356483,0.08897737753984662,0.028006447060352352,0.025214096330886542,0.03896348119554291,0.07743556270533633,0.10134126294565138,0.03570269301583025,-0.03971296751613447,0.02248657104595903,0.06675320248841603,0.003942763962356896,0.07084929756508206,0.03219841241419904,0.04328875727224495
14264.0,-0.08700479022198389,-1.4320191930141806,-2.213406732564657,0.010698329968165369,-3.0444285069186496,-0.19718361209390783,-1.6928336849646393,-2.0692834592907428,0.8946065072386652,0.3956770077689869,-0.02047398640467329,0.04870682313512113,0.05517866845828672,0.03038818014197523,0.06471701826586089,0.08782522786836938,0.02160497079116938,-0.02931806609260183,-0.03230168858663336,0.020334097981958996,0.02766462915635255,-0.019954515504521445,0.07441739263708297,0.03988053617259878,0.036418540798327334
14265.0,-0.24334684478998053,-1.4100589639873398,-1.964821540686575,0.034874906739861156,-3.558589923519811,-0.1738915286883734,-1.684296226260578,-2.329137611139237,1.1808424453108748,0.15588870997493612,-0.036351699034318674,0.03858055203300572,0.046027818309673375,0.07054965666828902,0.06292883899588679,0.06616960009802723,0.034427394739490434,0.0031772897002509755,0.0016863594044252267,0.007646233926951256,0.10702012694200971,0.010296252903810784,0.0555648111835726,0.02963871122756189,-0.0013311391864144157
14266.0,-0.8070845620287703,-1.2362316834729334,0.5132894159818819,-0.11080499123928397,-6.197816994519203,-0.2430214157831533,-1.6434913541935827,-2.244660381463893,1.152788022667688,-0.3050606682237505,0.004795525192788554,0.10052083069258619,0.020263788403967597,0.02190214984607749,0.05288118675849651,0.0789390390040604,0.14574713114689633,0.02052458216566384,-0.06686460068381897,0.02939801044293147,0.09866211854491658,0.03518757588452236,0.07622627089435087,0.042104808161469526,0.018246007365265687
14267.0,-0.5411137499000311,-1.6417782848017568,-0.5614015363728866,-0.006768112752691701,-4.258835799256808,-0.30315872134111915,-1.541024120342341,-2.2837407751768732,1.5626109855745274,-0.12083289967076662,-0.025389307235833897,0.10038620033076608,0.020481139858097172,0.001729815560342826,0.07017027331047761,0.10579142644077143,0.10675094903114711,-0.022660067047358456,-0.04098552546021654,0.037097441217576646,0.07737911165095294,0.008947730850933073,0.09064688385156577,0.06602940753736643,-0.00497625528631899
14268.0,-0.9746476873898527,-1.13557363179129,0.7271833405412933,-0.011413775538509448,-8.094481420960651,-0.05241725503687284,-1.553627273755232,-2.2516884508265465,1.6750236524859003,-0.12258188409959073,-0.06292162668858249,0.11113096722389619,0.03802807461043733,0.014839066703910806,0.061636225820530126,0.10538203415528653,0.12315661426182035,-0.021256989471144235,-0.051895396072305165,0.03579359827421262,0.0069000476074346,0.08239298578744737,0.10465200342438369,0.04551617955365473,0.047330015887509444
14269.0,-0.6743115550705505,-1.133045040586291,0.6535925993610664,0.1311350548855762,-6.922493174325697,-0.164405591918992,-1.5498438290321321,-2.073373579079373,0.9228037113823166,-0.6224691899876083,0.0026025772867191194,0.10517190475408515,0.03296729071755916,0.025648738182727518,0.03117537673531972,0.11148889677731459,0.10611008029558185,-0.0025770850744321274,-0.06405433031120819,0.047128918373175906,0.10978190046693831,0.004256186246228984,0.07779442021013584,0.06133456705177766,0.02561260641251456
14270.0,-0.6737202210737345,-1.253874090696962,0.5709140812189087,-0.003866196957279871,-4.909619852280814,-0.0783828522387795,-1.4750098102690197,-1.3624070187726693,2.1468069754590386,1.756886545102567,-0.03902924369146066,0.06766762735499943,0.021102506117522374,0.026856099544911916,0.028541762247070994,0.09993016293543736,0.11917397349314712,0.015321354699349164,-0.04367683834573156,0.034365913000483944,0.050764391451546174,0.028683024860573544,0.10350269263350907,0.08417958727265103,-0.004428523085352919
14348.0,-0.20463470047599708,-1.3238052078279492,-2.2114699399681164,-0.06326381856576976,-2.2546893187709216,-0.029907280125779884,-1.7186144995250987,-2.2297097751965036,0.9406541992500588,-0.19258207879087885,-0.02590179001864098,0.05806255828166456,0.010407866506866124,0.04545483842234208,0.06756566657645714,0.08469872542590487,0.08322679297878388,0.0066542987529114575,-0.0447033945294067,0.03408064579509996,0.031184641369787516,0.02439087916055913,0.08581589030318272,-0.0057433765181237415,0.04758279838175627
14349.0,-0.13410808691793294,-1.488116833097124,-2.1304003680750867,0.06694054662781515,-1.9479879464109546,-0.2955813807974137,-1.7066154859877702,-2.22874443522217,0.9751325794735908,-0.08452980271928873,-0.03557181248165367,0.06559980462049979,0.05488687878011381,0.03157928222616392,0.03983923067060934,0.08745859435136273,0.0926012829786383,0.016562321172557303,-0.046304170319917376,0.034394845286152574,0.03736317587145524,0.01648909392439545,0.08544988494649637,0.025819473834311744,0.0031424038210665513
14394.0,-0.15920689531677867,-1.5494877013083255,-2.526057330244319,-0.03325469409463631,-2.8894779703024907,-0.09663910835329836,-1.7985342329199672,-2.0789550315546306,0.7319601172532334,0.1658077024869851,-0.05798870779676682,0.041183795828466985,0.04180564804887252,0.02772719231097197,0.08933840653865699,0.054459069256028135,0.06569181046086306,-0.00952151977798727,-0.032860167558233525,0.05030926987662229,0.01623361843985212,0.001618753519803884,0.07498528304444624,0.008618984382164087,0.011526116232787141
14398.0,-0.976767564269184,-1.6646410418583415,-1.7786452213363746,0.05475960485647881,1.8171688739489007,-0.3141141433111611,-1.6336789390105433,-1.948573626002927,0.7871276265852144,0.5922551711766889,-0.038318686390223865,0.0480077347817816,0.02373341162547543,0.0016863227340475633,0.02722653676018605,0.08710780782731102,0.06585921527766334,-0.00421337489791595,0.002357899480531554,0.05891552777263615,0.021101153057248714,0.005489146272674423,0.07639886103354511,0.02715828038227069,0.004448763427391982
14401.0,-0.45027883559805776,-1.54725948942744,0.19942570242954,0.08769860435164183,-7.69379671388132,-0.29286986481605304,-1.5592370290620792,-2.126635222755988,1.6694286685258113,-0.3960585975175605,-0.01858572066400638,0.12384725736787079,0.031526078875751436,0.020347226113471985,0.045584112207840255,0.09517329582068403,0.09889758827263842,0.016670418373436132,-0.04111810705886129,0.03213904644236111,0.018325482662748208,0.025248928038804876,0.08850420972722754,0.07141731810958891,0.012942583356543368
14402.0,-0.35241301810918707,-1.5723754865172974,-1.078879751645166,0.025416012213303488,-2.3771402527269205,0.010081122858120992,-1.4603095493310687,-1.92374955053549,1.6307567603460378,0.006004893144567546,0.00845569445239761,0.09565274025673698,0.029760615887534612,0.033614751312932054,0.06852318371229191,0.10183897521175755,0.03419911182348026,-0.01621290249878379,-0.05970146691290194,0.0680015357091766,0.07608571013484595,0.003977394576309388,0.12558656920705755,0.07333431951561173,0.06405009729718622
14411.0,-0.2200069314662544,-1.5561567943325405,-2.20191760371648,-0.1421585293656135,-3.1094378311430506,-0.1797968175114755,-1.7697512952162444,-2.2495892176658945,0.7816147117098478,0.21921347860467733,-0.04704963851543171,0.06837310185153653,0.02748214852534854,0.06313913864087384,0.05471746857616117,0.07225296617178982,0.034264100330648806,-0.015497433483758729,-0.0017559978061498234,0.009014881455002862,0.005604004312152451,0.005822134220166365,0.04926017126067194,0.04784034480080011,0.060322592399586164
14412.0,-0.0007145287816255399,-1.6149995934040606,-2.4167011798010716,-0.07998875893854837,-2.372000112947506,-0.16411709343891262,-1.7236902362501012,-2.018311143134067,0.8932442038922351,0.5049484991990428,-0.04156009482433958,0.07210730853346187,0.044764594438858406,0.028416422334999195,0.0465269619018044,0.06839188907009112,0.02035761670719747,-0.020361641047845627,-0.04579571105782267,0.03158307585498709,0.03466803848031115,0.026590312835031268,0.05180791548638589,0.036302618009773226,0.018276022565310305
14414.0,-0.14472212387893324,-1.597518605551382,-1.3259704290037935,0.07205753332562051,-3.7850781423981914,-0.17386899683788937,-1.6313631061544143,-2.190048080853457,1.0866711450247903,-0.22910094341757795,0.007451480632915726,0.10814527882091066,0.013880234776409475,0.03064457216947246,0.09723094646214625,0.10391616527336073,0.07943681212705528,0.03833634820496422,-0.06815058354008119,0.021054107255814573,0.04044082271885756,-0.029044001597580225,0.07718503369830919,0.035992504774705864,0.019497869781042124
14415.0,-0.2121766582242672,-1.666617336544494,-1.4796325242272186,0.06709373698151314,-2.443227827391805,-0.24410613921525104,-1.603671153249825,-1.9415356759762368,1.187224279342388,0.523885844808285,-0.026898133112020904,0.05014921796447651,0.01013064803712718,0.023812239103225268,0.004702452359877111,0.0636683660497183,-0.00023097418849803516,0.002355097469761889,-0.05861518666639406,0.02847704764695239,0.08907073492661134,0.06835187006195793,0.09187237129406234,0.06650415060218808,0.009596864495493924
14416.0,-0.4908652904123359,-1.3433766462046217,0.12809671030254355,-0.13776911115290258,-4.600751397114264,-0.32350177021037924,-1.574460922063849,-2.335485125254361,1.5427661941849202,-0.07962270515222794,0.021111208393529535,0.10324170967516144,0.028884049290664193,0.029627402024847895,0.03469859578577773,0.08607720448070683,0.10535906972480501,-0.010844301563470278,-0.06226176117673348,0.04596840870259155,0.03256214873463978,0.03109925508954228,0.06269335254485028,0.05799170170390328,-0.029126414816276466
14417.0,0.02313018345366956,-1.5140490604133883,-1.4822465714776834,-0.13032239212192312,-5.059717397729282,-0.16112569374908264,-1.5112700985699856,-2.089298560067599,0.656259541692903,0.05065784012739541,0.015663166631809427,0.09803134539104003,0.05239908097368041,0.023054278225732885,0.045482056188356795,0.0719960876378796,0.07379266197775741,-0.004841393036481525,-0.03525239397594329,0.04023778177315715,0.014677012223010774,0.03994070860799552,0.08034677482874779,0.03654687683314273,-0.019873775435216373
14460.0,-0.3399689373744006,-1.4452661350480667,-0.19721348994060325,-0.0884062562661514,-3.050064275597522,-0.25538047906771577,-1.6085087641828486,-2.024711845967924,1.1409555606361577,0.13078204193298903,0.04483333053382496,0.060555176201957876,0.011047232223565514,0.02213406589205601,0.002544220030901542,0.08381596397998,0.09579849371982356,0.030187585430723713,-0.016878105568600445,0.04007580992374217,0.13042417209955506,-0.00997025539187961,0.11534296127302802,0.04818910519984804,0.006119788042486929
14463.0,-0.24755396312155203,-1.373916912261286,-1.815414544769431,-0.12403381500132693,-2.5191386074422297,-0.2262866964184005,-1.621994206378,-1.9639406977928,1.1154418346847443,-0.10484752500613616,-0.013252111775205062,0.06834420068787875,0.05065893406314167,0.03088878436190831,0.06443285861164727,0.06664412562552649,0.10340298165522617,-0.006816304833627499,-0.0335373288576066,0.05390069218999639,-0.0008920890832651362,0.015158085846871441,0.07915180627879993,0.031165922820905762,0.02056492873454594
14464.0,-0.49728767684956465,-1.7707911174980027,-0.3300055351307121,0.05988178082935274,-5.682391829428567,-0.09482578344144708,-1.6054090583190725,-2.4483970709925758,1.6230489487106685,-0.1707968999518858,-0.032323513631374506,0.12987292853387605,0.013068144471003287,0.06198595143644215,0.08416546623930446,0.06750587567589256,0.1150055568161774,0.012118245544506039,-0.05197837473534092,0.030171058577248094,0.047286042741622056,-0.011168901158624693,0.10479570844198748,0.03674058645852413,0.03857915963925355
14477.0,-0.07530210658697101,-1.7059665828190025,-2.5765562391699355,0.0016544290447493351,-1.4395398671779676,-0.24335528740148135,-1.7961998955032057,-2.1092112578809146,0.7343458113065517,0.049303632436032196,-0.032203165481485954,0.042955495371404154,0.04566430332686163,0.06161213587654143,0.03215147805291996,0.10438957896660017,0.09668131731940488,-0.010599482454875749,-0.05246116232898141,0.008160257343790348,0.040895695291386355,0.007891742799037356,0.06987758173585097,0.030249931183056144,0.012471904565325856
14478.0,-0.22399473055722383,-1.8717358574782224,-1.7325363628850088,-0.025388061886135925,-2.6521371732847863,-0.13127895168781717,-1.7213563653728086,-2.0861360424476127,0.9524425154891104,-0.025176488643925528,-0.01961230676115909,0.06049333824880085,0.03235902523211333,0.04603985998371285,0.03218953045448791,0.06472414176636,0.08212550340659255,-0.013474731509973546,-0.03364867917117969,0.057881163326466506,0.07524465956116039,0.004980107164387629,0.053081694447005466,0.020387624698878237,0.04297525524877038
14479.0,-0.4395125291907501,-1.3269834280093782,0.355697372440887,-0.11846901571907169,-4.996681576731106,-0.2010129894631824,-1.5326058233311723,-2.094690510496072,1.3290904364876872,0.14692759255861101,-0.04680457355009997,0.08390724008327545,0.03478282672746557,0.03483562013077306,0.0621655186302445,0.07219489144766666,0.10600912982536906,-0.013619359722865742,-0.013671451608741572,0.04348315828371465,0.09518652650249898,0.012340363663596986,0.08076906856800238,0.046360651026489716,0.026894072845978167
14481.0,-0.3970372561272158,-1.4255619962319621,-0.09291873086964257,-0.029827786207903398,-5.758660408169488,0.0010850192746577603,-1.4936691545907963,-1.7986919293299812,0.897331242781639,0.3589013536153818,0.020935879207021453,0.11304711844455029,0.022165914251383565,0.007390189253609924,0.02863682000124873,0.0928829861199531,0.09125701791671108,0.011854615534350759,-0.02511900975304277,0.02424168479949634,0.03611060161199535,0.014258726210612945,0.09179133699015846,0.0797357995178095,0.011080942271567256
14515.0,-0.33815938025285563,-1.3896758513014138,-0.12997154282206533,-0.05554930908818142,-2.7956737865418244,-0.0799616715028499,-1.543692766762693,-1.9870827130352486,1.41134648956553,0.026644045796527946,-0.04841641304397408,0.09995741133703243,0.015769543340580738,0.01607726767335352,0.015276262524399077,0.09718586691084963,0.10840598183899666,0.022566708372509445,-0.015369158962450115,0.05394122292550191,0.03670945219411422,0.06350861262139273,0.06496731350710307,0.07541379071209414,0.018075831854807788
14519.0,-0.7624619806412554,-1.4335297899684176,-0.6067524117785882,0.03733809755000364,0.8827012131190505,-0.05295732212397744,-1.4709299524577584,-1.632418124920387,1.1901709860019336,0.15740021572021026,-0.0012525565655105747,0.09039781428127706,0.01901980302388752,0.028832962320629152,0.035142380228630664,0.08286866454681202,0.1589367789049557,0.029074229522684444,-0.026047774484613102,0.0491656792090139,0.05663242206326528,0.04424754958391357,0.10799664315954215,0.03641691646535764,0.05534451178685186
14613.0,-0.25936328333804176,-1.6999616767419579,-2.1440422693005505,-0.12959313630738942,-1.6361692042484008,-0.11998108285003141,-1.7368464646614938,-2.266923890099335,0.9936853242193967,0.0041538418383610665,-0.051478920492953176,0.06945568289178596,0.030761292341550707,0.09923370613617669,0.12109314149038528,0.09752728320919207,0.066593361544726,0.010710845692333314,-0.04377807277126821,0.011497977754382865,0.035551086339812216,0.009636665128874617,0.06761091020440854,0.012702706141201685,-0.01264420276273749
14614.0,-0.6413476399073264,-1.2441674924313628,0.4783568355321949,0.07031477862763758,-5.879245321856401,-0.3007404175087865,-1.4344804724265985,-1.8062291088773201,1.7822908253806407,0.07291826221055764,-0.09378069194393569,0.1388765956807293,0.022865809732097037,-9.140338267313194e-5,0.055940574923763496,0.0884185638742178,0.09802269796001657,-0.0016635027823063632,-0.0594776384507385,0.09190401686079357,0.06665199063072205,0.038633852605440167,0.11332434125665271,0.08833692927646584,0.014930126505367321
14615.0,-0.3435825285049565,-1.3594238092962152,0.16443053032108165,0.028203411071576923,-4.790230872780176,-0.10053170757920663,-1.4579648313686333,-1.7506167564504853,1.035485688155615,0.14524393523187332,0.006452452090181491,0.12804470945341614,0.04143187193801583,0.027166661709209478,0.026558026525160344,0.10267590971408135,0.13130573077435623,0.0006511061952211906,-0.05161604215622905,0.04938294546979936,0.08201976967040572,0.02367383339375073,0.08211528954125703,0.06056100385690351,-0.015965443770536884
14651.0,-0.09819192922895294,-1.1460545868351175,-2.587147843207168,-0.020168697452808155,-1.778324171090488,-0.21511552626511465,-1.7578896284553203,-2.0406378861860204,0.7513447010079726,-0.174934525869641,-0.028702454752887945,0.03487213086537095,0.041014405398576516,0.0418258982908771,0.07118096529258693,0.07537591722669436,0.033531697821817114,-0.021267526733795183,-0.03313364601158142,0.010914303672287292,0.05302577313559391,0.0058921985536500646,0.05640156963468749,0.048957510241407154,0.024194229730336348
14653.0,-0.4328215680161971,-1.2518483288250264,-0.011254011001149457,0.048388115155996336,-5.718872702641097,0.03763978267790856,-1.5080359375506582,-1.9344875903650696,1.1616385572220123,0.7379328266569447,-0.05290225215134927,0.07070683029278599,0.011163180054316811,0.03601093420812863,0.07230979066268449,0.058401944638828016,0.07624864633858978,0.06406265263848672,-0.033414928361570256,0.07211762118643655,0.062126187069887935,0.024371459646741096,0.08711162905681172,0.07418850675123562,0.05570515487951394
14675.0,-0.20993358792401012,-1.483765334871504,-1.809171454593942,-0.07157758431149085,-2.522363820466958,-0.13677850158727803,-1.7002172651457583,-2.1516914160723335,1.0929630932366068,0.2991373850542656,-0.012368054599249717,0.06082983365378609,0.027955366006800837,0.017079267997234013,0.04580422228280115,0.0719848870410178,0.019533318402793595,0.015255474814688719,-0.031461335374682806,0.03617397088208086,0.09547448256957768,0.027299153824014766,0.08819820575655249,0.039188344052048754,0.041496257309200375
14676.0,-0.49072903089463393,-1.3793516414456874,0.03808929570799316,-0.13371054341119246,-4.799298761983143,0.011786269690434784,-1.6427780683873578,-2.0943954335885073,1.308641340148077,0.20343644417793294,0.001103737519551248,0.04343260683962888,0.06179544098991551,0.017852626935936033,0.03949011926902549,0.08789113614290874,0.06951844622261037,0.008322142487138029,-0.055285086592944566,0.057881877344655386,0.09668440772337346,0.012466864542076826,0.06239096711797211,0.002995564333866702,0.06876719817114121
14689.0,-0.07415171643243862,-1.3950612294900873,-2.199018116120562,0.0005580469013048796,-3.900214873188975,-0.13476322392228748,-1.7030136475550026,-2.0874169955696993,0.7766114224354899,-0.10964954252088702,-0.0572418639930848,0.060180342751577326,0.04942553391885685,0.056198638061759267,0.053918578339870106,0.07494411874944401,0.06331584715014356,-0.03220945004757228,-0.05192073199580646,0.0515059350899012,0.08444860590421117,0.004834354044295384,0.07546054598121019,0.022447772946547567,0.029179908623606164
14690.0,-0.8282111047021478,-1.0326504074653637,0.6961031279190834,0.06611420722571004,-7.487130086813647,-0.13066422712953146,-1.4843549683533308,-1.795863620257229,1.7344543649413444,0.8007374668771464,-0.03385044082541448,0.1260219350975584,0.03414982202161318,0.04653299223438741,0.02913785028372904,0.08883325014953193,0.0650465629979836,-0.003085889890329045,-0.03723705092583565,0.04509850293448879,0.10839472897476067,0.010069351923091304,0.12110799981142417,0.050663611182139454,0.005321719018138385
14701.0,-0.3123143441678477,-1.618038619489953,-1.8084845376124439,0.0414350991418329,-0.43776291329251643,-0.27057607972982733,-1.7805530018566862,-1.3495129459735555,0.36488707871998827,0.3791612386257938,-0.02588514817675714,0.052451108737611364,0.027352259251915916,0.0362914455541724,0.05321843246700528,0.09246696706661081,0.09625412298970573,0.037439724385165234,-0.07161741996135365,0.026001788497857323,0.0714895596424195,-0.015981272236748577,0.07890856534628132,0.0507429224985499,0.007369364203196737
14702.0,-0.43113167328840396,-1.4750582803437633,-1.7410311381318622,0.02078932688097162,-1.4040175642952666,-0.15953728817637156,-1.6075499244890523,-2.22956693635534,1.430454435691215,-0.023737818693689443,0.01983290658857435,0.06386229790507231,0.001128164477601155,0.03139617636601138,0.04039132119384339,0.06866113009664371,0.07730149452695133,-0.005867017188898178,-0.03230299721360279,0.05300810006924723,0.05026460813688197,0.02356803642552794,0.1030095596009283,0.07197290645843595,0.023923177346616947
14718.0,-0.2989805122829885,-1.6867593300370538,-0.8081206686402304,0.0351432615034803,-3.1437494950635894,0.06934986642358232,-1.5924302388348097,-2.103963815406041,1.384030283239411,0.08402217426437085,-0.011262223206381147,0.1286135043937068,0.0194730916826193,0.027840444529012742,0.03677463464600358,0.09649073749436032,0.14292157334887529,-0.003048701656450515,-0.04271385689022993,0.0343541561079165,0.05120317863841326,-0.01867721280769759,0.10417130964558598,0.03555713418178846,0.0630990712102534
14719.0,-0.7737689187338016,-1.1743995615103926,0.7030309913315143,0.11331864971848435,-8.498072522576555,-0.17378687632692677,-1.457013491599195,-2.0317234962467,1.6656690716104412,0.2605322900556918,-0.05483323969426294,0.07932382051204874,0.02129046960037429,0.032527343871716664,0.05015339696762773,0.10619538411180753,0.1387499105421467,-0.009896673494189136,-0.053204815192259024,0.049988327788056265,0.03682508753734521,0.0409250454551965,0.0931032482834799,0.07910910355371122,0.0059122896461245135
14814.0,-0.09534173339681837,-1.5675380596512536,-2.420105678952185,0.03401044623192475,-1.3911598900917352,-0.3063292109002437,-1.6960054223105496,-2.1834707866953913,0.9166388129353027,0.05923245926307862,0.023604705873845843,0.03102370675919544,0.03436438199379752,0.025162845785561164,0.0571890129522569,0.09992420436187203,0.07848064423505925,0.012011141262530275,-0.05128407456482978,0.041348623777185546,0.0075324284307129105,0.008541725438063554,0.060368767839976446,0.03266742786932113,0.0034706619056013937
14817.0,-0.2522824800411543,-1.8294353384213853,-1.6143431749658252,6.631377771892673e-5,-0.7164409695481594,-0.08441009984576579,-1.6573265242846782,-1.2651206345242132,0.9031820514311122,0.3887380043863049,-0.03285838099251721,0.06870746957182548,0.027733354456612323,0.07767900933719421,0.042126911965141456,0.09428450369657893,0.07553642033656457,0.06737389840978093,-0.036914917715060024,0.019552358208643088,0.1177155204132934,-0.0015883757794686998,0.09338891548821693,0.04128870138447822,-0.016668030672254995
14818.0,-0.1792081231071883,-1.5551719096678347,-1.4233810044274209,-0.1351443673829958,-3.0191415978145204,-0.2346203026570483,-1.6449071779008828,-1.9670639438036044,1.1588655968518002,0.13591098600436816,-0.061934905664862344,0.08674566402859969,0.04427523430392857,0.04562014429106974,0.032230435010102344,0.06604810567807343,0.030060706588858385,0.006429745033354723,-0.04623294134549279,0.05286696753480321,0.03865111583658335,0.03567310384772408,0.10045991286575563,0.03616346976180574,-0.0275450346102769
14819.0,-1.039460910686144,-1.2538413765393817,0.7002077497429501,0.08576899152649702,-1.5080879403584917,-0.27472780328770735,-1.6347393287168386,-0.6112141088220668,1.6152620599419736,2.1558303782328796,-0.02234690278109969,0.08780389768451728,0.06352046391847752,0.07805256003983378,0.024427899141112774,0.07981393730114031,0.1279033901165639,-0.03020106309693128,-0.07073716390577886,0.030436390506916978,0.13776830461318165,0.01532102758553764,0.08900492887251975,0.04667560588935586,-0.07026350316598232
14820.0,-0.30834625753225586,-1.1132743335182693,0.4519760291524394,0.018186014616204147,-5.713326417524692,-0.08570743103858362,-1.5496114559742085,-1.802690231334964,0.5034415871912753,-0.6316263344461819,-0.025663107921927605,0.05222531270924311,0.03193350627370252,0.032655631181225,0.09067788497111405,0.08784270134657177,0.1120925009317344,-0.03846110638921869,-0.0458190121021402,0.04679089477834371,0.04412895829939236,0.021123120420726397,0.07520316888153741,0.045514701978023334,-0.047914895316257304
14821.0,-0.609596604382266,-1.2380858388861953,0.2250898273368929,0.1258088693951322,-5.295768690595652,-0.1779456100970153,-1.542591005856657,-2.065673194443139,1.319219800509565,0.06777447735534561,-0.06170781853488884,0.106765315722309,0.0432684293316172,0.028919961740519872,0.0606205596628182,0.0956969706611582,0.10133419201287573,0.009771412899931704,-0.040747319294201834,0.03481864997655756,0.06004947200231914,0.015039483970879732,0.0948150692053969,0.054442909105430023,0.03723233033553065
14822.0,-0.5712430872285984,-1.5311647413654403,0.13446671960379913,0.04912257888773925,-5.260429941582777,-0.06992568305122034,-1.4796487099950284,-2.0832757270520363,1.6727762948144427,-0.07068402596646017,-0.00894348863278988,0.10915635184008726,0.02155319373960969,0.027499967174376007,0.03709451533813607,0.09232933856588516,0.044104347784782644,-0.005890505050834815,-0.04372747211959401,0.05862821922649633,0.07143037185271463,0.020874544275983356,0.10110324813047247,0.08156509755125375,-0.07696744481603376
14824.0,-0.6213206791348047,-1.455090000622211,-1.2996977078186454,0.04126426352537959,0.16224880104225303,-0.1426308913422049,-1.5073475790349025,-1.8158814938342815,1.4302325440940857,0.24188223580325158,-0.020270920222590985,0.08560580124464659,0.045934748258522624,0.031005972870302486,0.020868778564656323,0.09852350338892217,0.06936117263259782,0.013286490332595897,-0.03426543905258339,0.05329385288980201,0.05811617904265909,0.03819285960630311,0.09627352440646479,0.061797119935072926,0.02344371183098589
14826.0,-0.7231564708209054,-0.9522702134886908,0.9628038514981341,-0.09851630818428866,-7.617573679747693,-0.13992225178589024,-1.4920019010607453,-1.8509233644567697,1.0870728764043158,-0.47241216363059113,-0.02389967313902619,0.10156635570439176,0.03361999996555893,0.014874792034731186,0.043502487641407586,0.09943685993377194,0.07239563797400551,0.0023420645112226827,-0.047363175924909795,0.05521138159667138,0.07009530927569128,0.03977759333243432,0.09000151092198788,0.05724381253899539,0.05546992424733614
14827.0,-0.8776954325308315,-1.123216771290588,0.6602816285262328,0.1276962819393465,-7.331771892518452,-0.16178772735933455,-1.4881377053469877,-2.1488821952694943,1.9034638487959146,-0.0699635037221813,-0.030919073498887444,0.12316598035992318,0.0137191844038104,0.042410338038721324,0.023918791550867766,0.08313460115189346,0.06668702878534416,0.009799152236449081,-0.017615782803543627,0.05537590788722969,0.017996831041184724,0.04416792925658534,0.11107071343797208,0.06308277972482301,0.05562448373620632
14828.0,-0.7736406675922148,-1.3996339872080694,0.5685335450889476,0.10078180504092549,-6.360354386733711,-0.03338381567088137,-1.4480688347061113,-1.8461604237239926,1.8333283161890837,0.10552598848942871,-0.025303318954987365,0.10353369263390949,0.045387407338298755,0.014872495552680052,0.05070156729519153,0.0903964514846841,0.12884592117168744,-0.018053892037154993,-0.04330827966863242,0.05343666475869456,0.03740118695094879,0.03501860836319895,0.10662022686103917,0.08809617163759209,0.07355494181225034
14927.0,-0.12476679518145152,-1.3349605383706669,-2.437391209711458,0.04161498932541693,-2.467465921214479,-0.10693871464856404,-1.7500122136878362,-2.1456367940842584,0.7877260781533737,-0.20875914631412182,-0.043865621375523904,0.04866506005675683,0.024887385381616188,0.041031926122855555,0.047744292883622814,0.06062713546031727,0.12042319541328605,-0.0071423719877759945,-0.019330366495354134,0.02886073530425285,0.01166907778656057,0.00446752394275963,0.08454036992787035,0.028943370029995082,0.049210241984814516
14928.0,-0.17291551834724236,-1.6152998848784472,-2.249975434137867,-0.00404512505870314,-2.7941384238455194,-0.23827800894462786,-1.7753201268461585,-2.57444513098496,1.0943173580220378,-0.15461690421601326,-0.05858396755567027,0.0709143966766911,0.025223336683783286,0.07229003909505417,0.04920371006504791,0.0983979245382726,0.028535760697173947,-0.022619919358466953,-0.031503239776822976,0.06474810157926254,0.048628026165679336,-0.0042072817493241975,0.07448983696400037,0.015760914283761668,0.0461572051348281
14929.0,-0.6182352471739944,-1.2394286390130123,0.13022621261644027,0.27718951978127454,-5.652979430418815,-0.20529199387080654,-1.6876301355384964,-2.175863530891595,1.2626210284446842,0.4265878629704625,-0.02256080983023873,0.030393741478458067,0.027458935534390487,0.03388108397955043,0.06760493502897168,0.08378217585687966,0.05605187925491947,-0.01050830226912282,-0.04363834690398062,0.044741498706069575,0.06201961814776935,0.012987651147852096,0.07926845127323419,0.042166904677836695,0.00607598466269969
14966.0,-0.46727651083747024,-1.4761427842899781,-0.07740507971279181,-0.0029830969004378464,-3.983850756435093,-0.1337421922384064,-1.6639443353023315,-1.951473991831687,0.7830412671402619,-0.21533194054124266,0.0008624451601983999,0.06006139723539228,0.0382670488185175,0.03981149442075474,0.03628801832637497,0.07225258665559194,0.13264711408571295,-0.00853519224830129,-0.03454806634719954,0.05221498073704167,0.0016920832954012007,0.008545877581910433,0.0945923394666745,0.011405114448860613,0.04170992519731837
14968.0,-0.4346829172593096,-1.4362743084542302,-0.11162063619477208,0.09981885057331155,-4.01622097145359,-0.18750069687483903,-1.6175432547395587,-1.6449086317377004,1.648169874777386,0.6612996653525924,0.02102786412426742,0.08532423038460807,0.03172868277154077,0.03732334929225621,0.0015740526143393006,0.08937792197767393,0.05685752968450013,-0.006208218180404412,-0.03493164123024328,0.043141296837147666,0.05781156256165702,0.018601694262118478,0.08428482047061449,0.05472173168025314,0.04348660398908885
14969.0,-0.4930808384717074,-1.4411019423093794,0.28938541184608335,-0.12151901320342061,-5.807119183557845,-0.10459680062309545,-1.4662530494911095,-1.9485537955865952,1.667785154734164,0.47463763824386257,-0.03800839963420997,0.09527290823094074,0.020010997517397898,0.01956827596496829,0.022187865611198947,0.12068321902832836,0.08448626262630457,-0.015317579453984157,-0.022121426172298665,0.07265663792883562,0.03769418219666948,0.021855117902050105,0.10505137936979084,0.08814097828550464,-0.005402612839426416
14977.0,0.0198272961406723,-1.7919415408046344,-1.624035143470377,0.008325035657615856,-3.8328274586061957,-0.22009343073657878,-1.8027994543469583,-2.2179762921199644,1.0106653281826956,0.8175341216393944,-0.0003390924750939414,0.11178635929102626,0.03802286775851754,0.046517165841777806,0.029449845656718633,0.06480071898443628,0.02772551473910608,-0.06524459947881799,-0.04360308567776664,0.012493172413939735,0.006655634097075266,0.012086551732767011,0.10358307659906592,0.026348931112364894,-0.03146253195479336
14979.0,-0.2106298217318173,-1.451369811391637,-1.7346997105565136,0.07527300944499458,-4.258639220327386,-0.22954382403651993,-1.6329950886796254,-2.2017275415187063,1.289249476311483,-0.15845613240237488,-0.01871007522371206,0.08880912544846829,0.03478711065721851,0.06613155976317049,0.04630078442686456,0.06884421395609872,0.0711764216993544,0.0017564398163085193,-0.021078567470474447,0.05561914456098639,0.016251916951334214,0.04026795935724258,0.08859428235521662,0.00453467943148103,0.019649707555774845
14981.0,-0.29239550419598803,-1.4868784777890869,-0.7827889204728616,0.04512294502097345,-4.110447766329048,-0.07987346821668702,-1.634545585544683,-2.0295406115435246,1.0019459959738184,0.19429386127626425,-0.022797867328430015,0.06265369760264108,0.03351121628252152,0.024317212425853975,0.060842303770469904,0.08522985519708322,0.128998922927707,-0.029638472104616117,-0.043541366980768326,0.052186935450249244,0.04074997130213542,0.03332066580208457,0.08855156070562947,0.021135739407849026,0.01174353768155215
14985.0,-0.8046947861302021,-1.0563464403721963,0.8946375323296658,0.011847688263064472,-7.5078717264652255,-0.19803836104309555,-1.4723193867411608,-1.6290159165251992,1.9939293188883986,0.5715077540712846,-0.04935087734381216,0.10019543734983445,0.02597844735887089,0.028621739040914182,0.07781439061641796,0.10119039885417064,0.019216570596287313,0.03572266173892556,-0.051968976507278296,0.042728697406898365,0.04817966715291603,0.032137139759917444,0.10131292813001709,0.08270213868746697,-0.008713739277267525
14999.0,-0.4779120070174821,-1.4957460808447716,-0.6873945733577261,-0.00918121937133208,-1.6521135012707513,-0.09672181615476805,-1.5414299257110384,-1.3224814542183898,1.1711564061617197,0.8778521137764393,-0.01473399015852465,0.08440067471486029,0.0368933492352417,0.02844106042101138,0.01950436401763,0.10587853529469167,0.058149836379605,-0.007416916516336202,-0.05022420703619094,0.04348355609747479,0.11645525283295327,0.03448667580706247,0.09211514744988927,0.05436943256846352,0.03422508387024039
15000.0,-0.5552993142190557,-1.4460340651958172,-0.06577384323426523,0.15683874184559082,-4.140774462917398,-0.14105885605977198,-1.5484250033639928,-1.9276734460350164,1.5401884993447343,0.3008746793137359,-0.06155003638389959,0.13590804362085826,0.0358947859639146,0.05900835743959677,0.0008376736252444598,0.10423089282744281,0.12108539636480839,0.05329844913645783,-0.041173335689457094,0.0573473489967817,0.07549373162814585,0.0006373435585963476,0.04257300842060768,0.04565696962587988,0.020173495759599366
15001.0,-0.5583531575238005,-1.206861183702661,-1.4273810245352263,-0.03580394076638112,1.2634833678366952,-0.1762567283554719,-1.4830187445709766,-1.518158011733756,1.2333025588715218,0.597997828021116,-0.0195052959371967,0.11492623917276458,0.041741620065844885,0.046006485862894554,0.035675060115577306,0.11345350854382322,0.013085082557078614,0.004448753822906965,-0.029476163880497164,0.05181022646563606,0.07452420956146795,0.03277007817841661,0.07023621547526669,0.047489271932643816,0.008992372492673423
15009.0,-0.9111713100589774,-1.5958254491240895,0.34260950487861414,-0.009344080648789175,-0.947132279277611,-0.2694980859817859,-1.5033812845965746,-0.8074160032575773,1.097687636918037,1.1390913055305805,-0.03413956236655758,0.11183864575183976,0.04197555234639869,0.036074754676716295,0.06544499220998251,0.09228673585612861,0.12182875303797498,-0.0030487613193764455,-0.07259378909010986,0.04114241358381954,0.041778715679451475,0.056304369321151265,0.10390698173555886,0.06314724974813843,0.027925269006658197
15010.0,-0.05221879183908109,-1.478520382210675,-2.2565028692898905,0.022709240623203574,-1.287225831811016,-0.2546775403384453,-1.7086829418865754,-2.077077864616505,0.950692383353457,0.13693573034443038,-0.03883563641971444,0.07252794739205208,0.04527801005015941,0.030295364643414188,0.05801917773856089,0.07421724381168916,0.009462777592198794,-0.006431449519931481,-0.034772891623745215,0.04485314873987536,0.04991508243707524,0.030349573796118037,0.08451765746212053,0.023397099928853617,-0.019361903567435442
15011.0,-0.12279769940539881,-1.5924552548125603,-2.0206766086382615,0.0065096975225870405,-2.686754695384311,-0.1485435459425728,-1.6758915251463988,-2.186157651685993,0.8688434774102797,-0.2251221257365377,-0.042475758193717496,0.050776906162356084,0.07524345621657963,0.019163936542182413,0.094912101911519,0.07061353773699282,0.006492177243107903,0.009051149575632439,-0.021061088516768585,0.007131538715788174,0.0716463112926607,0.018610259404347487,0.07585674893199573,0.01780682272212735,0.030622675095894645
15034.0,-0.5342579228676587,-1.1599769076943942,0.39584824078282166,0.06690809512456393,-5.1484645486871345,-0.19467110492524656,-1.46053995566158,-1.844872776921304,1.689682018234725,0.2715997916363293,-0.04922970484451084,0.11691917043057583,0.030810000039879378,-0.006186155728465733,0.06616512107471123,0.10422348753069936,0.08500613298779668,0.0379292665397764,-0.02397817318883286,0.050544899071764196,0.01943420518267487,0.020384749997050623,0.1272655018595357,0.06552711897037691,0.04301052401447951
15035.0,-0.5013225692193651,-1.4571012095694393,0.08605817503075103,0.0025899053798536594,-6.023014169072075,-0.12041246936525943,-1.4502080119131566,-1.5961964252233773,1.6119662844103986,-0.29442606556531276,-0.03443477966528165,0.1027631601183766,0.0448253611069733,0.0010425858474735164,0.028777257306412243,0.08212894585235625,0.14137270837274515,0.008365073383840783,-0.03409389907899689,0.05457798598252576,0.018137923013651327,0.01884140523432213,0.1334823165949747,0.09044779273280396,0.034760034067659144
15036.0,-0.4568970045087515,-1.2707607365033817,0.09583623122442265,0.05687013396353613,-5.811168312258716,-0.21746119530277175,-1.5925871996417207,-2.0232837438947873,1.0679659651693996,0.22294812543243928,-0.04131950495675107,0.10974750317931987,0.02389817716412983,0.026034947929920848,0.038836749542455806,0.09536398670560409,0.04572107694098742,0.025660044301577478,-0.038660283085325965,0.02483203147985516,0.03723787888011044,0.0027856266698334797,0.11283866200769001,0.05838038064320679,0.02270849572214583
15074.0,-0.38374481155744733,-1.6099670557322714,-0.5764697962510648,0.07976558745840051,-4.41959603933423,-0.13351790580929254,-1.5824305126346025,-2.0337751340690584,1.2628514270962738,-0.5181051468044084,-0.057483854069449884,0.07588126937728436,0.06306419802554175,0.015006516189406266,0.053055120832843854,0.08700878058345134,0.0802538191095049,0.01029944173101741,-0.0456465093700497,0.02170312913579795,0.00033971013126467574,0.022029019897545216,0.10355001374860469,0.074043906621382,-0.0011942777658392042
15139.0,-0.6732858353189154,-1.5596599931254362,-0.18920094356740988,0.14495501306023137,-1.4846881351237684,-0.3357706671805566,-1.5651293314452754,-1.3150704574673346,1.051427752044912,0.2659675535094082,-0.003521140457688485,0.10862575606217179,0.02793171282081025,0.034275610444419416,0.05008414404642372,0.10392689733394478,0.13171768166907605,-0.004494671243633842,-0.037910302643450036,0.029545668909787645,0.054718509691154944,0.022606108727738414,0.062217212301173615,0.017741805975477958,-0.03255475074725143
15140.0,-0.36482421047423547,-1.5450691659141875,-0.13867442728447715,0.11323838750041607,-3.3137347252056353,-0.22728571604577213,-1.5940462980779857,-2.1760428984619122,1.4574900549743335,0.2044201752459019,-0.04076236486884758,0.117116796228854,0.005802302693653374,0.007822467635687072,0.051331319863386286,0.07410757037712168,0.09457857140212873,0.055379986748947875,-0.027421963753378294,0.03967115234363078,0.06997050996371529,0.03509318060675391,0.09023967223588249,0.05514428487971308,-0.040536478022917925
15141.0,-0.22659749659855966,-1.6074360502564198,-0.7674650653704729,0.058606514389538865,-3.359115777593725,-0.18248913758754104,-1.5862319072151523,-2.368104038030917,1.5600327312428168,-0.18246822987480635,-0.006956532581579999,0.09829678966469746,0.017149152629829103,0.024831982276606077,0.035548815738086936,0.09914097026116246,0.06005102421173709,-0.02915962797268666,-0.04218016950080417,0.051963491722530834,0.05140873826838785,0.003773713309502991,0.10409588520568176,0.0586528852383381,-0.027547183505942423
15142.0,-0.8857875320618016,-1.554419268381238,0.33603023420988043,0.02982564524721881,-6.948073270687437,-0.2622929787463867,-1.6100117471242954,-0.833672695841867,2.1177702269865377,0.6692629854994178,-0.06656022597685518,0.09686045957666228,0.03248657101695988,0.04149524705465991,0.05828691735470679,0.09186765494090006,0.13171227974277996,-0.002417252962280066,-0.021217145514964026,0.0389635005400115,0.01977845791249449,0.04392359269534993,0.07841188163018623,0.053399043997036245,0.004886306182732379
15144.0,-0.6526410287363562,-1.1525525676392578,0.5988324913118934,-0.1719871978242638,-4.863744530935388,-0.3926921118662891,-1.4844573763333582,-2.205848641902949,1.711517905912629,0.24112587265045182,-0.031704964493335853,0.08500751626309719,0.013574469099471834,0.04031723666886538,0.05239495464366851,0.08660361748607354,0.0655210090586672,0.020087066629140626,-0.04929468252018854,0.06798777433227406,0.03789599538514733,0.029628478610768838,0.07519566523411145,0.05162722088456977,0.03012570357610198
15146.0,-0.6642320616067815,-1.274051378824005,0.2898496772796974,0.08639825290670575,-6.245350790921251,-0.31944498291806794,-1.4703760442964804,-2.2059453647071816,1.8513539961950367,0.17851209475881302,-0.0602119609614817,0.11371018621951112,0.0519698073301105,0.031045531299327946,0.03502496717350607,0.10093042106580392,0.08282613976349401,0.00636635824532643,-0.06428278847035754,0.04556565610984757,0.051924428061222945,-0.00036501548874704186,0.12146651603199742,0.0637118309393631,0.04238774079737917
15147.0,-0.3305002125795235,-1.6369245164544948,-0.6610372946860356,0.01931529652242004,-2.6269965523832006,-0.1692083016699326,-1.4781407178371473,-1.528675585573529,1.5640875849532494,0.48368264718564363,0.001743306480139313,0.0729943382160102,0.04845741506508054,0.03685282594283076,0.06488618012681213,0.10077277537824739,0.11679015308987371,0.005648963569261006,-0.011167865862463416,0.05929657544418017,0.03901391011521945,0.02419676325180361,0.09450302784473463,0.0563081112010438,0.008922362274871807
15160.0,-0.6516064038306646,-1.1089779075906978,0.7841708747395673,0.07901589159242145,-6.6206883484311465,-0.13172187700186555,-1.4857285570538088,-1.9414118261524493,1.4237289716576629,0.8934266623506114,0.005916355754886291,0.10362392964967004,0.03314722191120034,0.03152307339568485,0.039360239913602255,0.07743169417624295,0.08771925894621845,0.07272801897840925,-0.0469749882422103,0.0656631450061756,0.07670037102876724,-0.0036316639575260964,0.08377830297942863,0.05985750887887603,0.05231141929436641
15203.0,-0.19779176451368743,-1.8563817735619628,-2.0553090293543157,0.053757332234509646,-3.955867940242638,-0.22359435755328178,-1.7557878338620156,-2.1839659624153294,1.0090119591836777,-0.1968781550271305,-0.03160819593891614,0.03898919590071328,0.0465104226188493,0.03626509575720613,0.01578261289977783,0.07737269312027782,0.012049827770357265,0.03938827330669373,0.010443153863391385,0.05886256471963336,0.01076931364056425,0.039840107920205446,0.06410362970703777,0.049446828173212234,0.015778163838568195
15205.0,-0.22350828590683233,-1.5368334038912899,-1.491004129279429,0.08640013002603535,-2.065397800441753,-0.14503112766756193,-1.5784653599412932,-1.955848754920191,1.338699508542223,-0.14222400466483012,-0.021080688593338687,0.043737393181682474,0.04355708510238737,0.05016137609808798,0.0729530546039701,0.07885304701416013,0.15012100717641266,-0.001473940602126496,-0.029504231491838593,0.051398483753247515,-0.019678398881861965,0.019835825868285188,0.0809870801702823,0.05127536381447328,0.05918312809757517
15208.0,-0.13167391262777695,-1.556564336274011,-1.0845559854650026,-0.11713305593077564,-3.6270030830669553,0.09699956870041075,-1.483987968278574,-2.0471574213625074,1.4572796327119175,-0.10048632435499812,0.0015150310488213589,0.12034980053303702,0.029197183841834843,0.0246669413816923,0.047358975493517405,0.08406632222773303,0.07685262857829962,0.025191364977180802,-0.034680215690587525,0.04031772251606112,0.08328048496540848,0.03948035005133146,0.07469688015715113,0.044624462460246046,-0.0008511215471543191
15333.0,-0.37158101526723514,-1.4154404502122897,-0.3454728988620687,-0.01924508543629638,-3.155971045451125,-0.268570749438988,-1.5551031161221247,-1.7619191496989228,1.0390082123479303,0.1604695575484171,-0.04785371912973896,0.09858515873038937,0.002270328871484266,0.020137189629402766,0.07810516465727788,0.10994284683937214,0.061349451944896195,0.01668774550677439,-0.03939005534462185,0.057560281683166396,0.1301568794974329,-0.004876629864404475,0.1115066974594624,0.06137152579866686,-0.027133057713397774
15359.0,-0.40295036366913767,-1.5494988550817181,-0.5376508387096595,0.10321411541680044,-4.125955944319164,0.02699878352355677,-1.5962969322207694,-2.0210676398282206,1.3670983257553544,-0.4702655538981164,-0.02339079302965449,0.08558540898901877,0.03575755586163927,0.04420809940585446,0.05878046380566492,0.1000269714588836,0.10091296419195067,-0.04289111702789127,-0.041835180069906656,0.02481152901785744,0.06382382248181653,0.05009721204219278,0.07627093851683264,0.04515365549953601,0.015936472509363055
15360.0,-0.6248387035266139,-1.3575960916770022,0.25864755905069153,0.015017563095709991,-5.298672358973124,-0.07984957571740223,-1.4854240388854056,-1.9772108936161223,1.5918167357619333,0.2981137616991052,0.008333153978770921,0.16777509772933966,0.01147908435578967,0.01870355298105447,0.025140282706029228,0.11682457983290673,0.11289729139140962,0.008350741429013315,-0.039820281522316425,0.038864197621788645,0.07011069502833712,-0.016852324259537872,0.09082380931603073,0.057660548344106895,0.03126669189821356
15361.0,-0.540030965674113,-1.4464016227984247,0.1956629019511352,0.005574668378247352,-6.5139594031046935,-0.11989334913370386,-1.4610154352433022,-2.1191039974711043,1.867466322104731,-0.19513757550289945,-0.026142358142898288,0.0960002530793866,0.03028067805799392,0.07325935178595087,0.060942625305890084,0.12192670652225968,0.13896602227982308,-2.438909045196297e-5,-0.07140512336508559,0.05241120856743553,0.126509783478558,-0.01383729938245781,0.09843316192745812,0.06297187842994781,0.05016308210085404
15422.0,-0.8001091448032713,-1.0115075558493256,0.883227371035539,-0.1475048051006458,-8.336424301243566,-0.16464490237345797,-1.5011915808437482,-1.500141957287337,1.5066705523837838,0.18561245359033723,-0.033692753362016936,0.1023185297171547,0.023345665498524338,0.028022805055266605,0.020588532219950276,0.10689448121261241,0.14330814350749033,-0.03373981001078112,-0.04401874508375844,0.04570196429025686,0.02223807991788776,0.030575734584698148,0.10775949011766014,0.08552369318002115,0.008460755123304282
15455.0,-0.9957408675806257,-1.6173514952194916,0.09940771557607463,0.10335126405169785,0.8785944425889121,-0.08987735594334731,-1.489943904562162,-1.6432954810540772,1.0610277819156235,0.4429036842472211,0.008782544436913231,0.07439192915767755,0.030963028677368616,0.021088974748159253,0.04363208834611648,0.0772323036519999,0.01695460334077055,0.032661464345067136,-0.000715148119755711,0.024118673800825736,0.031138717638263064,0.04639069491075235,0.07735799998205692,0.09554483255548299,0.0463589903647478
15535.0,-0.6316782674584076,-1.3665548774249259,0.2215994789037985,0.16287054262637282,-5.8400263109884,-0.13505139242658815,-1.5530175504786363,-1.9468907434408047,1.4200720892426404,0.3043350704561073,-0.018168885376375905,0.07617939669902776,0.001735473460196943,0.0217195673770161,0.06428734691145754,0.09427949815599862,0.16749724267334676,0.05523014865157697,-0.03373255697678161,0.054182728976973585,0.07999617543830545,0.05648922575081445,0.06453086242276629,0.05279973150104513,-0.05554202545877661
15560.0,-0.4763827770407257,-1.331138846204033,-0.03748540618714971,0.18785268048531445,-6.679597104581574,-0.21177566485634872,-1.6457018326190864,-2.323676340624388,1.0977279017892896,0.17017990393341553,-0.056390030049520416,0.05351798478391683,0.03348299680927196,0.03472501962879163,0.06865939185304865,0.07422263531252836,0.05804679781808895,-0.01437718304743444,-0.025184176983870547,0.028504389434494414,0.06538339348413964,0.02878423249983038,0.08658328522515436,0.04802466690478394,0.023281173544818453
15561.0,-0.45638837520951325,-1.3164857563578456,-0.2606185826344394,0.047642843124971426,-3.567814486230982,-0.10691405243454477,-1.65291163289227,-2.435790365353469,1.3594869889486312,-0.06655171645035776,-0.014727150025696488,0.05845700494533451,0.024610901331806018,0.04102355362512649,0.062347818904483245,0.06940867952798531,0.07262626837438596,0.0076712246013213815,-0.028417923379845562,0.02916976177861693,0.07159280876680314,0.04036282231127218,0.0930040054689408,0.03820290548858903,-0.009930979779905787
