subject_id,age,block_num,within_block_trial,node,target_button,stim_id,rt,isValid,bad_browser_sub,bad_missed_trials,bad_acc_trials,fast_rt_subs,incomplete_subs,long_break_subs,exclude
14085,9.34,1,1,13,f,10,1007.2000000000116,1,0,0,0,0,0,0,0
14085,9.34,1,2,11,j,6,846.0999999999767,1,0,0,0,0,0,0,0
14085,9.34,1,3,12,f,4,679.2999999999884,1,0,0,0,0,0,0,0
14085,9.34,1,4,11,j,6,695.2999999999884,1,0,0,0,0,0,0,0
14085,9.34,1,5,12,j,4,301.3999999999651,0,0,0,0,0,0,0,0
14085,9.34,1,6,14,j,11,1069.5,0,0,0,0,0,0,0,0
14085,9.34,1,7,11,f,6,161.90000000002328,0,0,0,0,0,0,0,0
14085,9.34,1,8,13,f,10,784,1,0,0,0,0,0,0,0
14085,9.34,1,9,12,f,4,812.5,1,0,0,0,0,0,0,0
14085,9.34,1,10,15,j,3,922.2000000000116,1,0,0,0,0,0,0,0
14085,9.34,1,11,12,j,4,0,0,0,0,0,0,0,0,0
14085,9.34,1,12,11,f,6,93.39999999996508,0,0,0,0,0,0,0,0
14085,9.34,1,13,13,f,10,805.2000000000116,1,0,0,0,0,0,0,0
14085,9.34,1,14,14,j,11,253.5,0,0,0,0,0,0,0,0
14085,9.34,1,15,11,j,6,215.5,0,0,0,0,0,0,0,0
14085,9.34,1,16,10,f,8,667.2999999999884,1,0,0,0,0,0,0,0
14085,9.34,1,17,7,j,12,86.59999999997672,0,0,0,0,0,0,0,0
14085,9.34,1,18,9,j,15,80,0,0,0,0,0,0,0,0
14085,9.34,1,19,10,j,8,117.60000000003492,0,0,0,0,0,0,0,0
14085,9.34,1,20,11,f,6,117,0,0,0,0,0,0,0,0
14085,9.34,1,21,10,j,8,154.20000000001164,0,0,0,0,0,0,0,0
14085,9.34,1,22,7,j,12,64.09999999997672,0,0,0,0,0,0,0,0
14085,9.34,1,23,10,j,8,12,0,0,0,0,0,0,0,0
14085,9.34,1,24,7,j,12,0.8999999999650754,0,0,0,0,0,0,0,0
14085,9.34,1,25,10,f,8,67.90000000002328,0,0,0,0,0,0,0,0
14085,9.34,1,26,11,j,6,88.09999999997672,0,0,0,0,0,0,0,0
14085,9.34,1,27,10,j,8,221.09999999997672,1,0,0,0,0,0,0,0
14085,9.34,1,28,11,j,6,123,0,0,0,0,0,0,0,0
14085,9.34,1,29,14,f,11,6.2999999999883585,0,0,0,0,0,0,0,0
14085,9.34,1,30,13,f,10,760,1,0,0,0,0,0,0,0
14085,9.34,1,31,11,f,6,939.5999999999768,1,0,0,0,0,0,0,0
14085,9.34,1,32,12,j,4,759.2999999999884,1,0,0,0,0,0,0,0
14085,9.34,1,33,15,j,3,723.4000000000233,1,0,0,0,0,0,0,0
14085,9.34,1,34,12,j,4,0,0,0,0,0,0,0,0,0
14085,9.34,1,35,13,j,10,2.599999999976717,0,0,0,0,0,0,0,0
14085,9.34,1,36,15,f,3,912.0999999999768,1,0,0,0,0,0,0,0
14085,9.34,1,37,13,f,10,636,1,0,0,0,0,0,0,0
14085,9.34,1,38,12,j,4,320.29999999998836,0,0,0,0,0,0,0,0
14085,9.34,1,39,14,f,11,723.4000000000233,1,0,0,0,0,0,0,0
14085,9.34,1,40,12,j,4,56.90000000002328,0,0,0,0,0,0,0,0
14085,9.34,1,41,14,j,11,0,0,0,0,0,0,0,0,0
14085,9.34,1,42,13,f,10,87.20000000001164,0,0,0,0,0,0,0,0
14085,9.34,1,43,11,j,6,843.8000000000466,0,0,0,0,0,0,0,0
14085,9.34,1,44,13,f,10,55.59999999997672,0,0,0,0,0,0,0,0
14085,9.34,1,45,11,f,6,883.1000000000349,1,0,0,0,0,0,0,0
14085,9.34,1,46,14,f,11,735.5999999999767,1,0,0,0,0,0,0,0
14085,9.34,1,47,11,j,6,515.1000000000349,0,0,0,0,0,0,0,0
14085,9.34,1,48,14,f,11,720.2999999999884,1,0,0,0,0,0,0,0
14085,9.34,1,49,15,f,3,916.2999999999884,1,0,0,0,0,0,0,0
14085,9.34,1,50,13,f,10,713.1000000000349,1,0,0,0,0,0,0,0
14085,9.34,1,51,14,j,11,821.9000000000233,1,0,0,0,0,0,0,0
14085,9.34,1,52,15,f,3,754.6999999999534,0,0,0,0,0,0,0,0
14085,9.34,1,53,14,j,11,1039.3000000000466,0,0,0,0,0,0,0,0
14085,9.34,1,54,12,f,4,212,0,0,0,0,0,0,0,0
14085,9.34,1,55,15,j,3,959.5,0,0,0,0,0,0,0,0
14085,9.34,1,56,13,f,10,437.4000000000233,1,0,0,0,0,0,0,0
14085,9.34,1,57,15,f,3,0.19999999995343387,0,0,0,0,0,0,0,0
14085,9.34,1,58,12,f,4,140.5,0,0,0,0,0,0,0,0
14085,9.34,1,59,13,j,10,33.20000000001164,0,0,0,0,0,0,0,0
14085,9.34,1,60,12,f,4,109.39999999996508,0,0,0,0,0,0,0,0
14085,9.34,1,61,14,f,11,56.90000000002328,0,0,0,0,0,0,0,0
14085,9.34,1,62,11,j,6,637.5,0,0,0,0,0,0,0,0
14085,9.34,1,63,13,f,10,384.8999999999651,1,0,0,0,0,0,0,0
14085,9.34,1,64,11,j,6,0,0,0,0,0,0,0,0,0
14085,9.34,1,65,13,f,10,0,0,0,0,0,0,0,0,0
14085,9.34,1,66,15,f,3,0,0,0,0,0,0,0,0,0
14085,9.34,1,67,14,f,11,0,0,0,0,0,0,0,0,0
14085,9.34,1,68,11,j,6,0,0,0,0,0,0,0,0,0
14085,9.34,1,69,14,f,11,0,0,0,0,0,0,0,0,0
14085,9.34,1,70,11,f,6,0,0,0,0,0,0,0,0,0
14085,9.34,1,71,12,j,4,0,0,0,0,0,0,0,0,0
14085,9.34,1,72,11,f,6,0,0,0,0,0,0,0,0,0
14085,9.34,1,73,14,f,11,0,0,0,0,0,0,0,0,0
14085,9.34,1,74,12,j,4,0,0,0,0,0,0,0,0,0
14085,9.34,1,75,14,f,11,0,0,0,0,0,0,0,0,0
14085,9.34,1,76,15,j,3,0,0,0,0,0,0,0,0,0
14085,9.34,1,77,13,f,10,0,0,0,0,0,0,0,0,0
14085,9.34,1,78,15,f,3,0,0,0,0,0,0,0,0,0
14085,9.34,1,79,1,j,9,0,0,0,0,0,0,0,0,0
14085,9.34,1,80,3,j,5,0,0,0,0,0,0,0,0,0
14085,9.34,1,81,5,f,13,0,0,0,0,0,0,0,0,0
14085,9.34,1,82,2,f,1,0,0,0,0,0,0,0,0,0
14085,9.34,1,83,3,f,5,0,0,0,0,0,0,0,0,0
14085,9.34,1,84,5,j,13,0,0,0,0,0,0,0,0,0
14085,9.34,1,85,2,f,1,0,0,0,0,0,0,0,0,0
14085,9.34,1,86,1,j,9,0,0,0,0,0,0,0,0,0
14085,9.34,1,87,3,j,5,0,0,0,0,0,0,0,0,0
14085,9.34,1,88,5,f,13,0,0,0,0,0,0,0,0,0
14085,9.34,1,89,6,f,2,0,0,0,0,0,0,0,0,0
14085,9.34,1,90,9,f,15,0,0,0,0,0,0,0,0,0
14085,9.34,1,91,10,j,8,0,0,0,0,0,0,0,0,0
14085,9.34,1,92,7,j,12,659.2999999999884,0,0,0,0,0,0,0,0
14085,9.34,1,93,10,f,8,1103.4000000000233,0,0,0,0,0,0,0,0
14085,9.34,1,94,9,f,15,66.79999999998836,0,0,0,0,0,0,0,0
14085,9.34,1,95,7,j,12,70.59999999997672,0,0,0,0,0,0,0,0
14085,9.34,1,96,6,f,2,10.699999999953434,0,0,0,0,0,0,0,0
14085,9.34,1,97,8,j,14,0,0,0,0,0,0,0,0,0
14085,9.34,1,98,6,f,2,385.9000000000233,0,0,0,0,0,0,0,0
14085,9.34,1,99,7,f,12,1037.9000000000233,1,0,0,0,0,0,0,0
14085,9.34,1,100,8,f,14,1099.600000000035,1,0,0,0,0,0,0,0
14085,9.34,1,101,7,j,12,943.4000000000232,1,0,0,0,0,0,0,0
14085,9.34,1,102,6,f,2,746.7000000000116,1,0,0,0,0,0,0,0
14085,9.34,1,103,7,j,12,1142,1,0,0,0,0,0,0,0
14085,9.34,1,104,10,j,8,579,0,0,0,0,0,0,0,0
14085,9.34,1,105,11,f,6,423.3999999999651,1,0,0,0,0,0,0,0
14085,9.34,1,106,14,f,11,652.0999999999767,1,0,0,0,0,0,0,0
14085,9.34,1,107,12,j,4,958.6999999999534,1,0,0,0,0,0,0,0
14085,9.34,1,108,13,f,10,779.7000000000116,1,0,0,0,0,0,0,0
14085,9.34,1,109,12,f,4,1056.600000000035,1,0,0,0,0,0,0,0
14085,9.34,1,110,15,f,3,819.9000000000233,1,0,0,0,0,0,0,0
14085,9.34,1,111,14,j,11,944.3000000000466,1,0,0,0,0,0,0,0
14085,9.34,1,112,11,f,6,908.3999999999652,1,0,0,0,0,0,0,0
14085,9.34,1,113,14,f,11,825.2999999999884,1,0,0,0,0,0,0,0
14085,9.34,1,114,11,j,6,829.5999999999767,1,0,0,0,0,0,0,0
14085,9.34,1,115,12,f,4,545.4000000000233,1,0,0,0,0,0,0,0
14085,9.34,1,116,13,f,10,349,1,0,0,0,0,0,0,0
14085,9.34,1,117,14,f,11,121.09999999997672,0,0,0,0,0,0,0,0
14085,9.34,1,118,12,f,4,1055,1,0,0,0,0,0,0,0
14085,9.34,1,119,13,j,10,690.8000000000466,0,0,0,0,0,0,0,0
14085,9.34,1,120,12,j,4,0,0,0,0,0,0,0,0,0
14085,9.34,1,121,14,f,11,228.90000000002328,1,0,0,0,0,0,0,0
14085,9.34,1,122,15,f,3,864.7000000000116,1,0,0,0,0,0,0,0
14085,9.34,1,123,14,j,11,0,0,0,0,0,0,0,0,0
14085,9.34,1,124,12,j,4,800.1000000000349,1,0,0,0,0,0,0,0
14085,9.34,1,125,13,f,10,420.5,0,0,0,0,0,0,0,0
14085,9.34,1,126,14,j,11,89.20000000001164,0,0,0,0,0,0,0,0
14085,9.34,1,127,13,j,10,166.29999999998836,0,0,0,0,0,0,0,0
14085,9.34,1,128,15,f,3,0,0,0,0,0,0,0,0,0
14085,9.34,1,129,1,f,9,334.70000000001164,1,0,0,0,0,0,0,0
14085,9.34,1,130,15,f,3,163.20000000001164,0,0,0,0,0,0,0,0
14085,9.34,1,131,13,j,10,1023.7999999999884,0,0,0,0,0,0,0,0
14085,9.34,1,132,14,f,11,76.70000000001164,0,0,0,0,0,0,0,0
14085,9.34,1,133,11,f,6,1.7999999999883585,0,0,0,0,0,0,0,0
14085,9.34,1,134,13,j,10,38.70000000001164,0,0,0,0,0,0,0,0
14085,9.34,1,135,11,f,6,1003.8999999999652,1,0,0,0,0,0,0,0
14085,9.34,1,136,13,f,10,528.3000000000466,0,0,0,0,0,0,0,0
14085,9.34,1,137,11,j,6,797,1,0,0,0,0,0,0,0
14085,9.34,1,138,10,j,8,960.5,1,0,0,0,0,0,0,0
14085,9.34,1,139,11,f,6,1244.899999999965,0,0,0,0,0,0,0,0
14085,9.34,1,140,10,j,8,872.6999999999534,1,0,0,0,0,0,0,0
14085,9.34,1,141,9,j,15,645.0999999999767,1,0,0,0,0,0,0,0
14085,9.34,1,142,6,f,2,674.3999999999651,1,0,0,0,0,0,0,0
14085,9.34,1,143,9,j,15,710.7000000000116,1,0,0,0,0,0,0,0
14085,9.34,1,144,8,f,14,731.6000000000349,1,0,0,0,0,0,0,0
14085,9.34,1,145,7,j,12,783.8000000000466,1,0,0,0,0,0,0,0
14085,9.34,1,146,6,f,2,779.5,1,0,0,0,0,0,0,0
14085,9.34,1,147,7,j,12,672.1000000000349,0,0,0,0,0,0,0,0
14085,9.34,1,148,8,f,14,636.5999999999767,1,0,0,0,0,0,0,0
14085,9.34,1,149,10,j,8,753.8000000000466,1,0,0,0,0,0,0,0
14085,9.34,1,150,11,f,6,741.3999999999069,1,0,0,0,0,0,0,0
14085,9.34,1,151,10,f,8,746.0999999999767,1,0,0,0,0,0,0,0
14085,9.34,1,152,9,j,15,639.0999999999767,0,0,0,0,0,0,0,0
14085,9.34,1,153,6,j,2,1236.5,1,0,0,0,0,0,0,0
14085,9.34,1,154,7,j,12,816.3000000000466,1,0,0,0,0,0,0,0
14085,9.34,1,155,9,j,15,732.1000000000931,1,0,0,0,0,0,0,0
14085,9.34,1,156,7,f,12,720.8999999999069,1,0,0,0,0,0,0,0
14085,9.34,1,157,9,j,15,614.6999999999534,1,0,0,0,0,0,0,0
14085,9.34,1,158,10,j,8,745.4000000000233,1,0,0,0,0,0,0,0
14085,9.34,1,159,9,j,15,557.8000000000466,1,0,0,0,0,0,0,0
14085,9.34,1,160,8,f,14,762.5,1,0,0,0,0,0,0,0
14085,9.34,1,161,10,j,8,654.9000000000233,1,0,0,0,0,0,0,0
14085,9.34,1,162,8,f,14,746,1,0,0,0,0,0,0,0
14085,9.34,1,163,7,j,12,670.7000000000698,1,0,0,0,0,0,0,0
14085,9.34,1,164,6,f,2,764.1999999999534,1,0,0,0,0,0,0,0
14085,9.34,1,165,8,j,14,599.9000000000233,1,0,0,0,0,0,0,0
14085,9.34,1,166,10,f,8,652.1999999999534,1,0,0,0,0,0,0,0
14085,9.34,1,167,11,f,6,902.1999999999534,1,0,0,0,0,0,0,0
14085,9.34,1,168,14,j,11,674.3999999999069,1,0,0,0,0,0,0,0
14085,9.34,1,169,12,j,4,943.2000000000698,1,0,0,0,0,0,0,0
14085,9.34,1,170,15,j,3,1060.7000000000698,1,0,0,0,0,0,0,0
14085,9.34,1,171,14,f,11,569.0999999999767,1,0,0,0,0,0,0,0
14085,9.34,1,172,12,j,4,575.3000000000466,1,0,0,0,0,0,0,0
14085,9.34,1,173,14,f,11,1160.5999999999767,1,0,0,0,0,0,0,0
14085,9.34,1,174,13,f,10,675.2000000000698,1,0,0,0,0,0,0,0
14085,9.34,1,175,15,f,3,622.8000000000466,1,0,0,0,0,0,0,0
14085,9.34,1,176,13,f,10,514.9000000000233,1,0,0,0,0,0,0,0
14085,9.34,1,177,15,f,3,718.8999999999069,1,0,0,0,0,0,0,0
14085,9.34,1,178,1,j,9,539.1000000000931,1,0,0,0,0,0,0,0
14085,9.34,1,179,15,j,3,557.3000000000466,1,0,0,0,0,0,0,0
14085,9.34,1,180,14,f,11,617.5,0,0,0,0,0,0,0,0
14085,9.34,1,181,15,j,3,591,1,0,0,0,0,0,0,0
14085,9.34,1,182,1,j,9,539.8000000000466,1,0,0,0,0,0,0,0
14085,9.34,1,183,2,j,1,665.0999999999767,1,0,0,0,0,0,0,0
14085,9.34,1,184,1,f,9,613.7000000000698,1,0,0,0,0,0,0,0
14085,9.34,1,185,4,j,7,649.5999999999767,1,0,0,0,0,0,0,0
14085,9.34,1,186,2,f,1,613.3000000000466,1,0,0,0,0,0,0,0
14085,9.34,1,187,4,j,7,713.7999999999302,1,0,0,0,0,0,0,0
14085,9.34,1,188,5,f,13,567,1,0,0,0,0,0,0,0
14085,9.34,1,189,2,f,1,611.9000000000233,1,0,0,0,0,0,0,0
14085,9.34,1,190,3,j,5,776.1999999999534,1,0,0,0,0,0,0,0
14085,9.34,1,191,4,j,7,868.5,1,0,0,0,0,0,0,0
14085,9.34,1,192,1,j,9,519.6999999999534,1,0,0,0,0,0,0,0
14085,9.34,1,193,3,f,5,619.6000000000931,1,0,0,0,0,0,0,0
14085,9.34,1,194,4,f,7,743.2000000000698,1,0,0,0,0,0,0,0
14085,9.34,1,195,2,j,1,673.2999999999302,1,0,0,0,0,0,0,0
14085,9.34,1,196,4,j,7,829,1,0,0,0,0,0,0,0
14085,9.34,1,197,3,f,5,592.6999999999534,1,0,0,0,0,0,0,0
14085,9.34,1,198,5,f,13,725.3000000000466,1,0,0,0,0,0,0,0
14085,9.34,1,199,4,f,7,720.4000000000233,1,0,0,0,0,0,0,0
14085,9.34,1,200,3,j,5,829.2999999999302,1,0,0,0,0,0,0,0
14085,9.34,1,201,4,f,7,752.5999999999767,1,0,0,0,0,0,0,0
14085,9.34,1,202,5,f,13,636.7999999999302,1,0,0,0,0,0,0,0
14085,9.34,1,203,6,j,2,656.2999999999302,1,0,0,0,0,0,0,0
14085,9.34,1,204,5,j,13,588.8000000000466,1,0,0,0,0,0,0,0
14085,9.34,1,205,6,f,2,537.1000000000931,1,0,0,0,0,0,0,0
14085,9.34,1,206,8,f,14,580.8000000000466,1,0,0,0,0,0,0,0
14085,9.34,1,207,10,f,8,768.2000000000698,1,0,0,0,0,0,0,0
14085,9.34,1,208,7,f,12,779.0999999999767,1,0,0,0,0,0,0,0
14085,9.34,1,209,10,j,8,1039.7999999999302,1,0,0,0,0,0,0,0
14085,9.34,1,210,11,f,6,0,0,0,0,0,0,0,0,0
14085,9.34,1,211,10,j,8,56.40000000002328,0,0,0,0,0,0,0,0
14085,9.34,1,212,9,f,15,684.5,1,0,0,0,0,0,0,0
14085,9.34,1,213,10,f,8,665.3000000000466,1,0,0,0,0,0,0,0
14085,9.34,1,214,8,j,14,684.6999999999534,1,0,0,0,0,0,0,0
14085,9.34,1,215,9,f,15,808.9000000000233,1,0,0,0,0,0,0,0
14085,9.34,1,216,6,j,2,517.0999999999767,1,0,0,0,0,0,0,0
14085,9.34,1,217,7,f,12,665.7000000000698,1,0,0,0,0,0,0,0
14085,9.34,1,218,10,j,8,0,0,0,0,0,0,0,0,0
14085,9.34,1,219,7,f,12,24.899999999906868,0,0,0,0,0,0,0,0
14085,9.34,1,220,6,f,2,724.8000000000466,1,0,0,0,0,0,0,0
14085,9.34,1,221,8,j,14,632.5999999999767,1,0,0,0,0,0,0,0
14085,9.34,1,222,9,j,15,884.9000000000233,1,0,0,0,0,0,0,0
14085,9.34,1,223,8,j,14,975,1,0,0,0,0,0,0,0
14085,9.34,1,224,9,f,15,699.3000000000466,1,0,0,0,0,0,0,0
14085,9.34,1,225,6,j,2,656,1,0,0,0,0,0,0,0
14085,9.34,1,226,8,j,14,684.1000000000931,1,0,0,0,0,0,0,0
14085,9.34,1,227,9,f,15,711.7999999999302,1,0,0,0,0,0,0,0
14085,9.34,1,228,8,f,14,731.8000000000466,1,0,0,0,0,0,0,0
14085,9.34,1,229,10,j,8,824.7000000000698,1,0,0,0,0,0,0,0
14085,9.34,1,230,7,j,12,684.8000000000466,1,0,0,0,0,0,0,0
14085,9.34,1,231,9,j,15,745.3999999999069,1,0,0,0,0,0,0,0
14085,9.34,1,232,7,f,12,649.4000000000233,1,0,0,0,0,0,0,0
14085,9.34,1,233,8,j,14,585.8000000000466,1,0,0,0,0,0,0,0
14085,9.34,1,234,9,f,15,809,1,0,0,0,0,0,0,0
14085,9.34,1,235,8,f,14,676.5,1,0,0,0,0,0,0,0
14085,9.34,1,236,10,j,8,626.3999999999069,1,0,0,0,0,0,0,0
14085,9.34,1,237,11,f,6,662.6000000000931,1,0,0,0,0,0,0,0
14085,9.34,1,238,10,f,8,689.5999999999767,1,0,0,0,0,0,0,0
14085,9.34,1,239,7,f,12,663.0999999999767,1,0,0,0,0,0,0,0
14085,9.34,1,240,6,f,2,844,1,0,0,0,0,0,0,0
14085,9.34,1,241,9,j,15,751.0999999999767,1,0,0,0,0,0,0,0
14085,9.34,1,242,7,f,12,675,1,0,0,0,0,0,0,0
14085,9.34,1,243,6,f,2,647.7000000000698,1,0,0,0,0,0,0,0
14085,9.34,1,244,5,f,13,548.2000000000698,1,0,0,0,0,0,0,0
14085,9.34,1,245,3,f,5,535.2999999999302,1,0,0,0,0,0,0,0
14085,9.34,1,246,5,f,13,634.5999999999767,1,0,0,0,0,0,0,0
14085,9.34,1,247,4,f,7,719,1,0,0,0,0,0,0,0
14085,9.34,1,248,2,j,1,596.4000000000233,1,0,0,0,0,0,0,0
14085,9.34,1,249,5,j,13,546.5999999999767,1,0,0,0,0,0,0,0
14085,9.34,1,250,3,f,5,644.2000000000698,1,0,0,0,0,0,0,0
14085,9.34,1,251,1,j,9,887.7999999999302,1,0,0,0,0,0,0,0
14085,9.34,1,252,2,f,1,740.5,1,0,0,0,0,0,0,0
14085,9.34,1,253,5,f,13,688.0999999999767,1,0,0,0,0,0,0,0
14085,9.34,1,254,3,j,5,643.6999999999534,1,0,0,0,0,0,0,0
14085,9.34,1,255,5,f,13,1241.4000000000233,0,0,0,0,0,0,0,0
14085,9.34,1,256,3,f,5,797.3000000000466,1,0,0,0,0,0,0,0
14085,9.34,1,257,2,f,1,897.3999999999069,1,0,0,0,0,0,0,0
14085,9.34,1,258,3,f,5,644.1999999999534,1,0,0,0,0,0,0,0
14085,9.34,1,259,2,f,1,578.0999999999767,1,0,0,0,0,0,0,0
14085,9.34,1,260,4,f,7,756.5999999999767,1,0,0,0,0,0,0,0
14085,9.34,1,261,5,j,13,761.3000000000466,1,0,0,0,0,0,0,0
14085,9.34,1,262,6,j,2,725.9000000000233,1,0,0,0,0,0,0,0
14085,9.34,1,263,8,j,14,705.4000000000233,1,0,0,0,0,0,0,0
14085,9.34,1,264,7,j,12,764.6999999999534,1,0,0,0,0,0,0,0
14085,9.34,1,265,10,f,8,633.9000000000233,1,0,0,0,0,0,0,0
14085,9.34,1,266,7,j,12,646.8000000000466,1,0,0,0,0,0,0,0
14085,9.34,1,267,6,j,2,817.5,1,0,0,0,0,0,0,0
14085,9.34,1,268,5,f,13,1190.5999999999767,1,0,0,0,0,0,0,0
14085,9.34,1,269,6,j,2,593.4000000000233,1,0,0,0,0,0,0,0
14085,9.34,1,270,8,j,14,797,1,0,0,0,0,0,0,0
14085,9.34,1,271,7,f,12,713.5,1,0,0,0,0,0,0,0
14085,9.34,1,272,6,f,2,749,1,0,0,0,0,0,0,0
14085,9.34,1,273,5,j,13,529.4000000000233,1,0,0,0,0,0,0,0
14085,9.34,1,274,2,f,1,605.3000000000466,1,0,0,0,0,0,0,0
14085,9.34,1,275,4,f,7,801.9000000000233,1,0,0,0,0,0,0,0
14085,9.34,1,276,2,f,1,654.7000000000698,1,0,0,0,0,0,0,0
14085,9.34,1,277,4,f,7,650.9000000000233,1,0,0,0,0,0,0,0
14085,9.34,1,278,3,f,5,766.0999999999767,1,0,0,0,0,0,0,0
14085,9.34,1,279,2,f,1,707.0999999999767,1,0,0,0,0,0,0,0
14085,9.34,1,280,4,f,7,551.2999999999302,1,0,0,0,0,0,0,0
14085,9.34,1,281,2,j,1,675.1999999999534,1,0,0,0,0,0,0,0
14085,9.34,1,282,4,j,7,647.2999999999302,1,0,0,0,0,0,0,0
14085,9.34,1,283,3,f,5,932.0999999999768,1,0,0,0,0,0,0,0
14085,9.34,1,284,2,f,1,577.3000000000466,1,0,0,0,0,0,0,0
14085,9.34,1,285,4,f,7,632.0999999999767,1,0,0,0,0,0,0,0
14085,9.34,1,286,1,j,9,506.80000000004657,0,0,0,0,0,0,0,0
14085,9.34,1,287,4,f,7,711,1,0,0,0,0,0,0,0
14085,9.34,1,288,2,j,1,577.6999999999534,1,0,0,0,0,0,0,0
14085,9.34,1,289,1,f,9,677,0,0,0,0,0,0,0,0
14085,9.34,1,290,2,f,1,801.3000000000466,1,0,0,0,0,0,0,0
14085,9.34,1,291,5,j,13,605.4000000000233,1,0,0,0,0,0,0,0
14085,9.34,1,292,2,f,1,578.1999999999534,1,0,0,0,0,0,0,0
14085,9.34,1,293,5,j,13,600.5999999999767,1,0,0,0,0,0,0,0
14085,9.34,1,294,3,f,5,565.6999999999534,1,0,0,0,0,0,0,0
14085,9.34,1,295,5,j,13,584.6999999999534,1,0,0,0,0,0,0,0
14085,9.34,1,296,6,f,2,613.5999999999767,1,0,0,0,0,0,0,0
14085,9.34,1,297,8,j,14,641.4000000000233,1,0,0,0,0,0,0,0
14085,9.34,1,298,6,j,2,854,1,0,0,0,0,0,0,0
14085,9.34,1,299,8,f,14,689.9000000000233,1,0,0,0,0,0,0,0
14085,9.34,1,300,6,f,2,709.1000000000931,1,0,0,0,0,0,0,0
14085,9.34,2,1,12,f,4,946.2999999999302,1,0,0,0,0,0,0,0
14085,9.34,2,2,14,j,11,674.8000000000466,1,0,0,0,0,0,0,0
14085,9.34,2,3,15,j,3,802.6999999999534,1,0,0,0,0,0,0,0
14085,9.34,2,4,12,f,4,573.9000000000233,1,0,0,0,0,0,0,0
14085,9.34,2,5,13,j,10,594.2000000000698,1,0,0,0,0,0,0,0
14085,9.34,2,6,14,f,11,621.6999999999534,1,0,0,0,0,0,0,0
14085,9.34,2,7,11,f,6,602,1,0,0,0,0,0,0,0
14085,9.34,2,8,10,f,8,654,1,0,0,0,0,0,0,0
14085,9.34,2,9,9,f,15,513.9000000000233,1,0,0,0,0,0,0,0
14085,9.34,2,10,8,f,14,534.7000000000698,1,0,0,0,0,0,0,0
14085,9.34,2,11,10,f,8,649.7000000000698,1,0,0,0,0,0,0,0
14085,9.34,2,12,8,f,14,709.7999999999302,1,0,0,0,0,0,0,0
14085,9.34,2,13,10,f,8,593.9000000000233,1,0,0,0,0,0,0,0
14085,9.34,2,14,9,f,15,733.9000000000233,1,0,0,0,0,0,0,0
14085,9.34,2,15,7,j,12,578,1,0,0,0,0,0,0,0
14085,9.34,2,16,6,f,2,670,1,0,0,0,0,0,0,0
14085,9.34,2,17,8,f,14,523.3000000000466,1,0,0,0,0,0,0,0
14085,9.34,2,18,7,j,12,542.5,1,0,0,0,0,0,0,0
14085,9.34,2,19,8,f,14,618.9000000000233,1,0,0,0,0,0,0,0
14085,9.34,2,20,9,f,15,662.6999999999534,1,0,0,0,0,0,0,0
14085,9.34,2,21,6,j,2,602.1000000000931,1,0,0,0,0,0,0,0
14085,9.34,2,22,8,f,14,815.8000000000466,1,0,0,0,0,0,0,0
14085,9.34,2,23,10,f,8,691.6999999999534,1,0,0,0,0,0,0,0
14085,9.34,2,24,7,j,12,583.2000000000698,1,0,0,0,0,0,0,0
14085,9.34,2,25,6,f,2,668,1,0,0,0,0,0,0,0
14085,9.34,2,26,5,j,13,544.7000000000698,1,0,0,0,0,0,0,0
14085,9.34,2,27,4,f,7,645,1,0,0,0,0,0,0,0
14085,9.34,2,28,1,j,9,591.8000000000466,1,0,0,0,0,0,0,0
14085,9.34,2,29,3,f,5,587.6999999999534,1,0,0,0,0,0,0,0
14085,9.34,2,30,4,f,7,688,1,0,0,0,0,0,0,0
14085,9.34,2,31,3,f,5,634.5,1,0,0,0,0,0,0,0
14085,9.34,2,32,1,f,9,542.0999999999767,1,0,0,0,0,0,0,0
14085,9.34,2,33,4,f,7,657.6999999999534,1,0,0,0,0,0,0,0
14085,9.34,2,34,5,f,13,661.8000000000466,1,0,0,0,0,0,0,0
14085,9.34,2,35,3,j,5,681.0999999999767,1,0,0,0,0,0,0,0
14085,9.34,2,36,1,f,9,780.7999999999302,1,0,0,0,0,0,0,0
14085,9.34,2,37,3,j,5,705,1,0,0,0,0,0,0,0
14085,9.34,2,38,1,j,9,613.5,0,0,0,0,0,0,0,0
14085,9.34,2,39,4,j,7,905,1,0,0,0,0,0,0,0
14085,9.34,2,40,1,f,9,1004.5999999999768,1,0,0,0,0,0,0,0
14085,9.34,2,41,15,j,3,632.8000000000466,1,0,0,0,0,0,0,0
14085,9.34,2,42,13,f,10,796.2000000000698,1,0,0,0,0,0,0,0
14085,9.34,2,43,12,f,4,584.4000000000233,1,0,0,0,0,0,0,0
14085,9.34,2,44,14,f,11,629.0999999999767,1,0,0,0,0,0,0,0
14085,9.34,2,45,15,f,3,760,1,0,0,0,0,0,0,0
14085,9.34,2,46,13,j,10,636.5999999999767,1,0,0,0,0,0,0,0
14085,9.34,2,47,14,f,11,672,1,0,0,0,0,0,0,0
14085,9.34,2,48,11,f,6,1036.0999999999767,0,0,0,0,0,0,0,0
14085,9.34,2,49,10,f,8,1159,1,0,0,0,0,0,0,0
14085,9.34,2,50,8,j,14,771.7000000000698,1,0,0,0,0,0,0,0
14085,9.34,2,51,9,f,15,720.2999999999302,1,0,0,0,0,0,0,0
14085,9.34,2,52,7,f,12,628,1,0,0,0,0,0,0,0
14085,9.34,2,53,8,f,14,624.1999999999534,1,0,0,0,0,0,0,0
14085,9.34,2,54,9,f,15,619.8000000000466,1,0,0,0,0,0,0,0
14085,9.34,2,55,7,f,12,599.3000000000466,1,0,0,0,0,0,0,0
14085,9.34,2,56,6,f,2,635.4000000000233,1,0,0,0,0,0,0,0
14085,9.34,2,57,7,f,12,712.5,1,0,0,0,0,0,0,0
14085,9.34,2,58,10,f,8,628.2000000000698,1,0,0,0,0,0,0,0
14085,9.34,2,59,7,j,12,592.5999999999767,1,0,0,0,0,0,0,0
14085,9.34,2,60,8,j,14,741.0999999999767,1,0,0,0,0,0,0,0
14085,9.34,2,61,10,j,8,831.6000000000931,1,0,0,0,0,0,0,0
14085,9.34,2,62,9,j,15,770.9000000000233,1,0,0,0,0,0,0,0
14085,9.34,2,63,7,j,12,630.6000000000931,1,0,0,0,0,0,0,0
14085,9.34,2,64,8,f,14,648.9000000000233,1,0,0,0,0,0,0,0
14085,9.34,2,65,6,j,2,805.0999999999767,1,0,0,0,0,0,0,0
14085,9.34,2,66,5,f,13,601.3999999999069,1,0,0,0,0,0,0,0
14085,9.34,2,67,6,f,2,724.1000000000931,1,0,0,0,0,0,0,0
14085,9.34,2,68,8,f,14,631.9000000000233,1,0,0,0,0,0,0,0
14085,9.34,2,69,7,j,12,652.6999999999534,1,0,0,0,0,0,0,0
14085,9.34,2,70,8,f,14,922.1999999999534,1,0,0,0,0,0,0,0
14085,9.34,2,71,6,f,2,870.1000000000931,1,0,0,0,0,0,0,0
14085,9.34,2,72,5,f,13,689.2000000000698,1,0,0,0,0,0,0,0
14085,9.34,2,73,6,j,2,596,1,0,0,0,0,0,0,0
14085,9.34,2,74,8,f,14,623.8000000000466,1,0,0,0,0,0,0,0
14085,9.34,2,75,10,j,8,587.4000000000233,1,0,0,0,0,0,0,0
14085,9.34,2,76,7,j,12,623.5999999999767,1,0,0,0,0,0,0,0
14085,9.34,2,77,8,j,14,714.7999999999302,1,0,0,0,0,0,0,0
14085,9.34,2,78,9,j,15,733.8000000000466,1,0,0,0,0,0,0,0
14085,9.34,2,79,8,f,14,650.1999999999534,1,0,0,0,0,0,0,0
14085,9.34,2,80,10,f,8,622.8000000000466,1,0,0,0,0,0,0,0
14085,9.34,2,81,9,f,15,514.7999999999302,1,0,0,0,0,0,0,0
14085,9.34,2,82,8,f,14,558.9000000000233,1,0,0,0,0,0,0,0
14085,9.34,2,83,7,j,12,531.0999999999767,1,0,0,0,0,0,0,0
14085,9.34,2,84,6,j,2,810.5,1,0,0,0,0,0,0,0
14085,9.34,2,85,9,j,15,550.3000000000466,1,0,0,0,0,0,0,0
14085,9.34,2,86,8,f,14,601.9000000000233,1,0,0,0,0,0,0,0
14085,9.34,2,87,7,j,12,997.2999999999302,1,0,0,0,0,0,0,0
14085,9.34,2,88,6,f,2,578.8000000000466,1,0,0,0,0,0,0,0
14085,9.34,2,89,5,f,13,1014,1,0,0,0,0,0,0,0
14085,9.34,2,90,2,f,1,609.5,1,0,0,0,0,0,0,0
14085,9.34,2,91,5,f,13,590.3000000000466,1,0,0,0,0,0,0,0
14085,9.34,2,92,6,j,2,706.4000000000233,1,0,0,0,0,0,0,0
14085,9.34,2,93,5,j,13,750.1999999999534,1,0,0,0,0,0,0,0
14085,9.34,2,94,4,j,7,650.5,1,0,0,0,0,0,0,0
14085,9.34,2,95,5,j,13,541.8000000000466,1,0,0,0,0,0,0,0
14085,9.34,2,96,3,f,5,658,1,0,0,0,0,0,0,0
14085,9.34,2,97,1,f,9,573.4000000000233,1,0,0,0,0,0,0,0
14085,9.34,2,98,3,j,5,737.6000000000931,1,0,0,0,0,0,0,0
14085,9.34,2,99,1,f,9,622.2000000000698,1,0,0,0,0,0,0,0
14085,9.34,2,100,3,f,5,594.6999999999534,1,0,0,0,0,0,0,0
14085,9.34,2,101,2,f,1,485.4000000000233,1,0,0,0,0,0,0,0
14085,9.34,2,102,5,j,13,561.1000000000931,0,0,0,0,0,0,0,0
14085,9.34,2,103,3,j,5,726.5,1,0,0,0,0,0,0,0
14085,9.34,2,104,4,f,7,817.9000000000233,1,0,0,0,0,0,0,0
14085,9.34,2,105,5,f,13,861.8000000000466,1,0,0,0,0,0,0,0
14085,9.34,2,106,4,f,7,610.5,1,0,0,0,0,0,0,0
14085,9.34,2,107,1,f,9,534.7999999999302,1,0,0,0,0,0,0,0
14085,9.34,2,108,2,f,1,538.8000000000466,1,0,0,0,0,0,0,0
14085,9.34,2,109,1,j,9,447.0999999999767,1,0,0,0,0,0,0,0
14085,9.34,2,110,2,j,1,579.6999999999534,1,0,0,0,0,0,0,0
14085,9.34,2,111,4,f,7,696.8999999999069,1,0,0,0,0,0,0,0
14085,9.34,2,112,5,j,13,588.7000000000698,1,0,0,0,0,0,0,0
14085,9.34,2,113,3,j,5,608.1999999999534,1,0,0,0,0,0,0,0
14085,9.34,2,114,5,j,13,475.4000000000233,1,0,0,0,0,0,0,0
14085,9.34,2,115,4,f,7,639.4000000000233,1,0,0,0,0,0,0,0
14085,9.34,2,116,3,j,5,661.8999999999069,1,0,0,0,0,0,0,0
14085,9.34,2,117,4,f,7,1177.4000000000233,0,0,0,0,0,0,0,0
14085,9.34,2,118,1,j,9,0,0,0,0,0,0,0,0,0
14085,9.34,2,119,3,j,5,113,0,0,0,0,0,0,0,0
14085,9.34,2,120,1,f,9,669,1,0,0,0,0,0,0,0
14085,9.34,2,121,15,j,3,608.5999999999767,1,0,0,0,0,0,0,0
14085,9.34,2,122,12,f,4,627.1999999999534,1,0,0,0,0,0,0,0
14085,9.34,2,123,13,j,10,592,1,0,0,0,0,0,0,0
14085,9.34,2,124,11,f,6,748.8999999999069,1,0,0,0,0,0,0,0
14085,9.34,2,125,13,f,10,552.8999999999069,1,0,0,0,0,0,0,0
14085,9.34,2,126,11,f,6,557,1,0,0,0,0,0,0,0
14085,9.34,2,127,14,f,11,601.5,1,0,0,0,0,0,0,0
14085,9.34,2,128,13,j,10,533.7999999999302,0,0,0,0,0,0,0,0
14085,9.34,2,129,11,j,6,611,1,0,0,0,0,0,0,0
14085,9.34,2,130,12,f,4,669.9000000000233,1,0,0,0,0,0,0,0
14085,9.34,2,131,14,f,11,578.3000000000466,1,0,0,0,0,0,0,0
14085,9.34,2,132,12,j,4,592.0999999999767,1,0,0,0,0,0,0,0
14085,9.34,2,133,15,j,3,706.6999999999534,1,0,0,0,0,0,0,0
14085,9.34,2,134,13,j,10,527.0999999999767,1,0,0,0,0,0,0,0
14085,9.34,2,135,11,f,6,595,1,0,0,0,0,0,0,0
14085,9.34,2,136,10,f,8,631.5999999999767,1,0,0,0,0,0,0,0
14085,9.34,2,137,9,f,15,628.4000000000233,1,0,0,0,0,0,0,0
14085,9.34,2,138,7,j,12,529,1,0,0,0,0,0,0,0
14085,9.34,2,139,10,f,8,628.1999999999534,0,0,0,0,0,0,0,0
14085,9.34,2,140,9,j,15,616.7999999999302,1,0,0,0,0,0,0,0
14085,9.34,2,141,10,f,8,957.6999999999534,1,0,0,0,0,0,0,0
14085,9.34,2,142,8,j,14,601.8000000000466,1,0,0,0,0,0,0,0
14085,9.34,2,143,9,j,15,550.5,1,0,0,0,0,0,0,0
14085,9.34,2,144,8,j,14,603.1999999999534,1,0,0,0,0,0,0,0
14085,9.34,2,145,7,f,12,695,1,0,0,0,0,0,0,0
14085,9.34,2,146,8,f,14,819.0999999999767,1,0,0,0,0,0,0,0
14085,9.34,2,147,10,f,8,679.7999999999302,1,0,0,0,0,0,0,0
14085,9.34,2,148,9,f,15,572.1000000000931,1,0,0,0,0,0,0,0
14085,9.34,2,149,8,j,14,495.5999999999767,1,0,0,0,0,0,0,0
14085,9.34,2,150,7,j,12,572,1,0,0,0,0,0,0,0
14085,9.34,2,151,8,f,14,484.80000000004657,0,0,0,0,0,0,0,0
14085,9.34,2,152,9,f,15,825.5,1,0,0,0,0,0,0,0
14085,9.34,2,153,10,f,8,708.6999999999534,1,0,0,0,0,0,0,0
14085,9.34,2,154,9,j,15,560.8000000000466,1,0,0,0,0,0,0,0
14085,9.34,2,155,8,j,14,661.1000000000931,1,0,0,0,0,0,0,0
14085,9.34,2,156,6,f,2,0,0,0,0,0,0,0,0,0
14085,9.34,2,157,5,f,13,52.199999999953434,0,0,0,0,0,0,0,0
14085,9.34,2,158,2,f,1,545.4000000000233,1,0,0,0,0,0,0,0
14085,9.34,2,159,3,f,5,533.4000000000233,1,0,0,0,0,0,0,0
14085,9.34,2,160,2,f,1,503.69999999995343,1,0,0,0,0,0,0,0
14085,9.34,2,161,1,j,9,548.5,1,0,0,0,0,0,0,0
14085,9.34,2,162,4,f,7,696.1999999999534,1,0,0,0,0,0,0,0
14085,9.34,2,163,2,j,1,596.6999999999534,1,0,0,0,0,0,0,0
14085,9.34,2,164,5,j,13,575.9000000000233,1,0,0,0,0,0,0,0
14085,9.34,2,165,3,j,5,651.3000000000466,1,0,0,0,0,0,0,0
14085,9.34,2,166,4,j,7,744.0999999999767,1,0,0,0,0,0,0,0
14085,9.34,2,167,3,f,5,651.3000000000466,1,0,0,0,0,0,0,0
14085,9.34,2,168,4,j,7,542.5,1,0,0,0,0,0,0,0
14085,9.34,2,169,3,j,5,602.4000000000233,1,0,0,0,0,0,0,0
14085,9.34,2,170,5,j,13,638.2000000000698,1,0,0,0,0,0,0,0
14085,9.34,2,171,3,f,5,578.5999999999767,1,0,0,0,0,0,0,0
14085,9.34,2,172,2,f,1,734,0,0,0,0,0,0,0,0
14085,9.34,2,173,5,f,13,848.5,1,0,0,0,0,0,0,0
14085,9.34,2,174,3,f,5,702.0999999999767,1,0,0,0,0,0,0,0
14085,9.34,2,175,1,j,9,658.5,1,0,0,0,0,0,0,0
14085,9.34,2,176,15,f,3,710.0999999999767,1,0,0,0,0,0,0,0
14085,9.34,2,177,12,j,4,706.5,1,0,0,0,0,0,0,0
14085,9.34,2,178,15,j,3,728.3000000000466,1,0,0,0,0,0,0,0
14085,9.34,2,179,1,j,9,523.8000000000466,1,0,0,0,0,0,0,0
14085,9.34,2,180,2,f,1,548.8000000000466,1,0,0,0,0,0,0,0
14085,9.34,2,181,5,f,13,589.4000000000233,1,0,0,0,0,0,0,0
14085,9.34,2,182,2,j,1,706.9000000000233,1,0,0,0,0,0,0,0
14085,9.34,2,183,5,f,13,704.0999999999767,1,0,0,0,0,0,0,0
14085,9.34,2,184,6,j,2,650.4000000000233,1,0,0,0,0,0,0,0
14085,9.34,2,185,9,j,15,1159.5,0,0,0,0,0,0,0,0
14085,9.34,2,186,6,f,2,806.2000000000698,1,0,0,0,0,0,0,0
14085,9.34,2,187,7,j,12,698.3000000000466,1,0,0,0,0,0,0,0
14085,9.34,2,188,10,f,8,1119.4000000000233,1,0,0,0,0,0,0,0
14085,9.34,2,189,11,j,6,603,1,0,0,0,0,0,0,0
14085,9.34,2,190,12,j,4,670.1999999999534,1,0,0,0,0,0,0,0
14085,9.34,2,191,13,f,10,586.4000000000233,1,0,0,0,0,0,0,0
14085,9.34,2,192,12,j,4,542.4000000000233,1,0,0,0,0,0,0,0
14085,9.34,2,193,13,j,10,762.2000000000698,1,0,0,0,0,0,0,0
14085,9.34,2,194,11,f,6,559.4000000000233,1,0,0,0,0,0,0,0
14085,9.34,2,195,13,f,10,594.8000000000466,0,0,0,0,0,0,0,0
14085,9.34,2,196,15,f,3,886.5,1,0,0,0,0,0,0,0
14085,9.34,2,197,12,j,4,546.3000000000466,1,0,0,0,0,0,0,0
14085,9.34,2,198,13,f,10,598.1999999999534,1,0,0,0,0,0,0,0
14085,9.34,2,199,12,f,4,650.6000000000931,1,0,0,0,0,0,0,0
14085,9.34,2,200,14,j,11,591.2999999999302,1,0,0,0,0,0,0,0
14085,9.34,2,201,12,j,4,996,1,0,0,0,0,0,0,0
14085,9.34,2,202,14,f,11,624.5999999999767,1,0,0,0,0,0,0,0
14085,9.34,2,203,11,j,6,780.3000000000466,1,0,0,0,0,0,0,0
14085,9.34,2,204,12,j,4,608,0,0,0,0,0,0,0,0
14085,9.34,2,205,15,j,3,1212.1999999999534,1,0,0,0,0,0,0,0
14085,9.34,2,206,12,f,4,575.9000000000233,1,0,0,0,0,0,0,0
14085,9.34,2,207,11,j,6,659.3000000000466,1,0,0,0,0,0,0,0
14085,9.34,2,208,13,j,10,511.69999999995343,1,0,0,0,0,0,0,0
14085,9.34,2,209,11,f,6,714.5999999999767,1,0,0,0,0,0,0,0
14085,9.34,2,210,12,f,4,830.1999999999534,1,0,0,0,0,0,0,0
14085,9.34,2,211,14,j,11,529.7999999999302,1,0,0,0,0,0,0,0
14085,9.34,2,212,12,f,4,670.0999999999767,1,0,0,0,0,0,0,0
14085,9.34,2,213,13,j,10,702.0999999999767,1,0,0,0,0,0,0,0
14085,9.34,2,214,15,f,3,683.2999999999302,1,0,0,0,0,0,0,0
14085,9.34,2,215,1,j,9,558,0,0,0,0,0,0,0,0
14085,9.34,2,216,2,f,1,722.5,1,0,0,0,0,0,0,0
14085,9.34,2,217,5,j,13,518.5,1,0,0,0,0,0,0,0
14085,9.34,2,218,3,j,5,787.0999999999767,1,0,0,0,0,0,0,0
14085,9.34,2,219,2,j,1,670.9000000000233,1,0,0,0,0,0,0,0
14085,9.34,2,220,5,f,13,723.0999999999767,1,0,0,0,0,0,0,0
14085,9.34,2,221,6,f,2,566.8999999999069,1,0,0,0,0,0,0,0
14085,9.34,2,222,8,j,14,602.5,1,0,0,0,0,0,0,0
14085,9.34,2,223,9,f,15,975.6999999999534,0,0,0,0,0,0,0,0
14085,9.34,2,224,10,f,8,977.4000000000232,1,0,0,0,0,0,0,0
14085,9.34,2,225,9,j,15,525.0999999999767,0,0,0,0,0,0,0,0
14085,9.34,2,226,8,f,14,866,1,0,0,0,0,0,0,0
14085,9.34,2,227,10,j,8,589.0999999999767,1,0,0,0,0,0,0,0
14085,9.34,2,228,7,j,12,745.5,1,0,0,0,0,0,0,0
14085,9.34,2,229,10,j,8,762.7000000000698,1,0,0,0,0,0,0,0
14085,9.34,2,230,11,j,6,614.7000000000698,1,0,0,0,0,0,0,0
14085,9.34,2,231,13,f,10,554.4000000000233,1,0,0,0,0,0,0,0
14085,9.34,2,232,15,j,3,710,1,0,0,0,0,0,0,0
14085,9.34,2,233,14,f,11,674.8000000000466,1,0,0,0,0,0,0,0
14085,9.34,2,234,13,j,10,598.7999999999302,1,0,0,0,0,0,0,0
14085,9.34,2,235,11,f,6,610.9000000000233,1,0,0,0,0,0,0,0
14085,9.34,2,236,13,j,10,543,1,0,0,0,0,0,0,0
14085,9.34,2,237,12,f,4,539,1,0,0,0,0,0,0,0
14085,9.34,2,238,14,f,11,575.6999999999534,1,0,0,0,0,0,0,0
14085,9.34,2,239,15,j,3,571.9000000000233,1,0,0,0,0,0,0,0
14085,9.34,2,240,12,f,4,618.7999999999302,1,0,0,0,0,0,0,0
14085,9.34,2,241,11,j,6,496.20000000006985,1,0,0,0,0,0,0,0
14085,9.34,2,242,12,j,4,635.4000000000233,1,0,0,0,0,0,0,0
14085,9.34,2,243,13,j,10,600.6999999999534,1,0,0,0,0,0,0,0
14085,9.34,2,244,15,j,3,685.3000000000466,1,0,0,0,0,0,0,0
14085,9.34,2,245,12,f,4,641.6000000000931,1,0,0,0,0,0,0,0
14085,9.34,2,246,13,f,10,429.39999999990687,0,0,0,0,0,0,0,0
14085,9.34,2,247,14,j,11,586.1000000000931,1,0,0,0,0,0,0,0
14085,9.34,2,248,11,j,6,510.5,0,0,0,0,0,0,0,0
14085,9.34,2,249,12,j,4,563.8000000000466,1,0,0,0,0,0,0,0
14085,9.34,2,250,14,f,11,574.8999999999069,1,0,0,0,0,0,0,0
14085,9.34,2,251,12,f,4,555,1,0,0,0,0,0,0,0
14085,9.34,2,252,15,j,3,547.3999999999069,1,0,0,0,0,0,0,0
14085,9.34,2,253,1,f,9,495.5,0,0,0,0,0,0,0,0
14085,9.34,2,254,3,f,5,756.1999999999534,1,0,0,0,0,0,0,0
14085,9.34,2,255,5,j,13,600,1,0,0,0,0,0,0,0
14085,9.34,2,256,2,f,1,988.5,1,0,0,0,0,0,0,0
14085,9.34,2,257,5,j,13,713.1000000000931,1,0,0,0,0,0,0,0
14085,9.34,2,258,4,f,7,805.1999999999534,1,0,0,0,0,0,0,0
14085,9.34,2,259,1,f,9,585.3999999999069,1,0,0,0,0,0,0,0
14085,9.34,2,260,4,j,7,572.8999999999069,1,0,0,0,0,0,0,0
14085,9.34,2,261,5,j,13,600.6999999999534,1,0,0,0,0,0,0,0
14085,9.34,2,262,6,f,2,877.6000000000931,1,0,0,0,0,0,0,0
14085,9.34,2,263,5,j,13,640.9000000001397,1,0,0,0,0,0,0,0
14085,9.34,2,264,3,f,5,876.5,1,0,0,0,0,0,0,0
14085,9.34,2,265,4,f,7,705.3999999999069,1,0,0,0,0,0,0,0
14085,9.34,2,266,1,j,9,621.3000000000466,1,0,0,0,0,0,0,0
14085,9.34,2,267,2,f,1,592.6000000000931,1,0,0,0,0,0,0,0
14085,9.34,2,268,3,j,5,646,1,0,0,0,0,0,0,0
14085,9.34,2,269,4,j,7,593.6000000000931,1,0,0,0,0,0,0,0
14085,9.34,2,270,1,j,9,533.3000000000466,1,0,0,0,0,0,0,0
14085,9.34,2,271,2,f,1,528.9000000001397,1,0,0,0,0,0,0,0
14085,9.34,2,272,4,f,7,764.5999999998603,1,0,0,0,0,0,0,0
14085,9.34,2,273,2,j,1,545.3000000000466,1,0,0,0,0,0,0,0
14085,9.34,2,274,5,f,13,629.8000000000466,1,0,0,0,0,0,0,0
14085,9.34,2,275,2,j,1,1041.1999999999534,0,0,0,0,0,0,0,0
14085,9.34,2,276,3,j,5,727.3000000000466,1,0,0,0,0,0,0,0
14085,9.34,2,277,5,j,13,698.5999999998603,1,0,0,0,0,0,0,0
14085,9.34,2,278,6,j,2,518.1999999999534,1,0,0,0,0,0,0,0
14085,9.34,2,279,9,j,15,1114,1,0,0,0,0,0,0,0
14085,9.34,2,280,7,f,12,684.3999999999069,1,0,0,0,0,0,0,0
14085,9.34,2,281,8,f,14,698.0999999998603,1,0,0,0,0,0,0,0
14085,9.34,2,282,10,f,8,750.8000000000466,1,0,0,0,0,0,0,0
14085,9.34,2,283,8,j,14,521.8000000000466,1,0,0,0,0,0,0,0
14085,9.34,2,284,7,f,12,718,1,0,0,0,0,0,0,0
14085,9.34,2,285,6,f,2,993.8999999999068,0,0,0,0,0,0,0,0
14085,9.34,2,286,7,f,12,726,1,0,0,0,0,0,0,0
14085,9.34,2,287,10,f,8,658.3999999999069,1,0,0,0,0,0,0,0
14085,9.34,2,288,7,f,12,558.5,1,0,0,0,0,0,0,0
14085,9.34,2,289,10,f,8,651.4000000001397,1,0,0,0,0,0,0,0
14085,9.34,2,290,9,j,15,551.9000000001397,1,0,0,0,0,0,0,0
14085,9.34,2,291,8,j,14,684.5,0,0,0,0,0,0,0,0
14085,9.34,2,292,6,f,2,655.8000000000466,1,0,0,0,0,0,0,0
14085,9.34,2,293,5,j,13,499.69999999995343,1,0,0,0,0,0,0,0
14085,9.34,2,294,2,j,1,712,1,0,0,0,0,0,0,0
14085,9.34,2,295,5,f,13,691.3999999999069,1,0,0,0,0,0,0,0
14085,9.34,2,296,3,j,5,519.3999999999069,1,0,0,0,0,0,0,0
14085,9.34,2,297,2,j,1,596.5999999998603,1,0,0,0,0,0,0,0
14085,9.34,2,298,3,f,5,759.8999999999069,1,0,0,0,0,0,0,0
14085,9.34,2,299,1,j,9,603.5999999998603,1,0,0,0,0,0,0,0
14085,9.34,2,300,4,f,7,626.1999999999534,1,0,0,0,0,0,0,0
14086,10.89,1,1,10,f,2,0,0,0,0,0,0,0,0,0
14086,10.89,1,2,11,f,4,143.5,0,0,0,0,0,0,0,0
14086,10.89,1,3,12,f,1,761.5,1,0,0,0,0,0,0,0
14086,10.89,1,4,15,j,3,739.2000000476837,1,0,0,0,0,0,0,0
14086,10.89,1,5,13,j,9,524.5,1,0,0,0,0,0,0,0
14086,10.89,1,6,11,f,4,753.7000000476837,0,0,0,0,0,0,0,0
14086,10.89,1,7,10,f,2,1026.100000023842,1,0,0,0,0,0,0,0
14086,10.89,1,8,7,j,6,904.7000000476836,1,0,0,0,0,0,0,0
14086,10.89,1,9,9,f,14,904,1,0,0,0,0,0,0,0
14086,10.89,1,10,10,f,2,759,1,0,0,0,0,0,0,0
14086,10.89,1,11,7,j,6,715.5,1,0,0,0,0,0,0,0
14086,10.89,1,12,8,j,10,546,1,0,0,0,0,0,0,0
14086,10.89,1,13,10,j,2,799.5,1,0,0,0,0,0,0,0
14086,10.89,1,14,7,j,6,922.899999976158,0,0,0,0,0,0,0,0
14086,10.89,1,15,6,f,8,35.60000002384186,0,0,0,0,0,0,0,0
14086,10.89,1,16,5,j,5,588.2999999523163,1,0,0,0,0,0,0,0
14086,10.89,1,17,6,j,8,686.1000000238419,1,0,0,0,0,0,0,0
14086,10.89,1,18,8,f,10,599.3999999761581,1,0,0,0,0,0,0,0
14086,10.89,1,19,7,f,6,908.5,0,0,0,0,0,0,0,0
14086,10.89,1,20,8,f,10,877,1,0,0,0,0,0,0,0
14086,10.89,1,21,10,j,2,682.6000000238419,1,0,0,0,0,0,0,0
14086,10.89,1,22,11,j,4,619.1000000238419,1,0,0,0,0,0,0,0
14086,10.89,1,23,14,j,11,657.5,1,0,0,0,0,0,0,0
14086,10.89,1,24,11,j,4,669.1000000238419,1,0,0,0,0,0,0,0
14086,10.89,1,25,10,j,2,740.5,1,0,0,0,0,0,0,0
14086,10.89,1,26,7,f,6,644.8000000715256,1,0,0,0,0,0,0,0
14086,10.89,1,27,6,f,8,725.8999999761581,1,0,0,0,0,0,0,0
14086,10.89,1,28,5,f,5,645.3999999761581,1,0,0,0,0,0,0,0
14086,10.89,1,29,2,j,7,763.9000000953674,1,0,0,0,0,0,0,0
14086,10.89,1,30,5,j,5,724.7999999523163,1,0,0,0,0,0,0,0
14086,10.89,1,31,2,f,7,738.5,1,0,0,0,0,0,0,0
14086,10.89,1,32,5,f,5,805.6000000238419,1,0,0,0,0,0,0,0
14086,10.89,1,33,6,f,8,791.5,1,0,0,0,0,0,0,0
14086,10.89,1,34,5,j,5,777.3000000715256,1,0,0,0,0,0,0,0
14086,10.89,1,35,2,j,7,655.5,1,0,0,0,0,0,0,0
14086,10.89,1,36,3,f,12,556.5999999046326,1,0,0,0,0,0,0,0
14086,10.89,1,37,2,f,7,573,1,0,0,0,0,0,0,0
14086,10.89,1,38,5,f,5,695.5,1,0,0,0,0,0,0,0
14086,10.89,1,39,2,j,7,565.2000000476837,1,0,0,0,0,0,0,0
14086,10.89,1,40,4,j,15,745.8999999761581,1,0,0,0,0,0,0,0
14086,10.89,1,41,5,j,5,830.7999999523163,1,0,0,0,0,0,0,0
14086,10.89,1,42,4,j,15,881.5,0,0,0,0,0,0,0,0
14086,10.89,1,43,2,j,7,0,0,0,0,0,0,0,0,0
14086,10.89,1,44,5,f,5,193.40000009536743,0,0,0,0,0,0,0,0
14086,10.89,1,45,2,f,7,745.7000000476837,1,0,0,0,0,0,0,0
14086,10.89,1,46,1,f,13,748.1000000238419,1,0,0,0,0,0,0,0
14086,10.89,1,47,15,f,3,962.399999976158,1,0,0,0,0,0,0,0
14086,10.89,1,48,1,f,13,737.7999999523163,1,0,0,0,0,0,0,0
14086,10.89,1,49,15,j,3,609.6999999284744,0,0,0,0,0,0,0,0
14086,10.89,1,50,13,j,9,669.2999999523163,1,0,0,0,0,0,0,0
14086,10.89,1,51,11,j,4,567,1,0,0,0,0,0,0,0
14086,10.89,1,52,12,f,1,582.5,1,0,0,0,0,0,0,0
14086,10.89,1,53,15,j,3,702.6999999284744,1,0,0,0,0,0,0,0
14086,10.89,1,54,13,j,9,679.3999999761581,1,0,0,0,0,0,0,0
14086,10.89,1,55,14,j,11,606.3999999761581,1,0,0,0,0,0,0,0
14086,10.89,1,56,13,f,9,562.6000000238419,1,0,0,0,0,0,0,0
14086,10.89,1,57,14,f,11,644,1,0,0,0,0,0,0,0
14086,10.89,1,58,11,j,4,542.2000000476837,1,0,0,0,0,0,0,0
14086,10.89,1,59,12,j,1,673.7000000476837,1,0,0,0,0,0,0,0
14086,10.89,1,60,11,f,4,612.7000000476837,1,0,0,0,0,0,0,0
14086,10.89,1,61,14,f,11,674.6000000238419,1,0,0,0,0,0,0,0
14086,10.89,1,62,11,j,4,515.1999999284744,1,0,0,0,0,0,0,0
14086,10.89,1,63,14,j,11,550.2999999523163,1,0,0,0,0,0,0,0
14086,10.89,1,64,11,j,4,581.1000000238419,1,0,0,0,0,0,0,0
14086,10.89,1,65,13,j,9,484.60000002384186,1,0,0,0,0,0,0,0
14086,10.89,1,66,14,j,11,688.3000000715256,1,0,0,0,0,0,0,0
14086,10.89,1,67,12,j,1,623.8999999761581,1,0,0,0,0,0,0,0
14086,10.89,1,68,13,f,9,587.6000000238419,1,0,0,0,0,0,0,0
14086,10.89,1,69,15,f,3,757.5999999046326,1,0,0,0,0,0,0,0
14086,10.89,1,70,1,f,13,669.8000000715256,1,0,0,0,0,0,0,0
14086,10.89,1,71,15,f,3,571.2999999523163,1,0,0,0,0,0,0,0
14086,10.89,1,72,13,f,9,630.2999999523163,1,0,0,0,0,0,0,0
14086,10.89,1,73,11,j,4,877.8999999761581,1,0,0,0,0,0,0,0
14086,10.89,1,74,10,f,2,760,1,0,0,0,0,0,0,0
14086,10.89,1,75,7,f,6,688.8999999761581,1,0,0,0,0,0,0,0
14086,10.89,1,76,6,j,8,633.3999999761581,1,0,0,0,0,0,0,0
14086,10.89,1,77,5,j,5,746.6000000238419,1,0,0,0,0,0,0,0
14086,10.89,1,78,4,j,15,1223.7000000476835,0,0,0,0,0,0,0,0
14086,10.89,1,79,3,j,12,1068.7999999523165,1,0,0,0,0,0,0,0
14086,10.89,1,80,1,j,13,1243.100000023842,1,0,0,0,0,0,0,0
14086,10.89,1,81,15,f,3,629.1999999284744,1,0,0,0,0,0,0,0
14086,10.89,1,82,1,f,13,669.2000000476837,1,0,0,0,0,0,0,0
14086,10.89,1,83,4,f,15,666.8000000715256,1,0,0,0,0,0,0,0
14086,10.89,1,84,2,f,7,926.600000023842,0,0,0,0,0,0,0,0
14086,10.89,1,85,3,j,12,677.9000000953674,1,0,0,0,0,0,0,0
14086,10.89,1,86,5,j,5,723.8999999761581,1,0,0,0,0,0,0,0
14086,10.89,1,87,2,j,7,901.7000000476836,1,0,0,0,0,0,0,0
14086,10.89,1,88,5,f,5,1028,1,0,0,0,0,0,0,0
14086,10.89,1,89,6,f,8,789.1000000238419,1,0,0,0,0,0,0,0
14086,10.89,1,90,9,f,14,972.6999999284744,1,0,0,0,0,0,0,0
14086,10.89,1,91,6,f,8,910,1,0,0,0,0,0,0,0
14086,10.89,1,92,8,f,10,667.2000000476837,1,0,0,0,0,0,0,0
14086,10.89,1,93,6,f,8,758.8999999761581,1,0,0,0,0,0,0,0
14086,10.89,1,94,8,f,10,787.1000000238419,1,0,0,0,0,0,0,0
14086,10.89,1,95,7,j,6,759.5,1,0,0,0,0,0,0,0
14086,10.89,1,96,9,j,14,992.100000023842,1,0,0,0,0,0,0,0
14086,10.89,1,97,7,f,6,707.5,1,0,0,0,0,0,0,0
14086,10.89,1,98,8,j,10,520.3000000715256,1,0,0,0,0,0,0,0
14086,10.89,1,99,6,j,8,583.6000000238419,1,0,0,0,0,0,0,0
14086,10.89,1,100,8,j,10,550.7000000476837,1,0,0,0,0,0,0,0
14086,10.89,1,101,6,j,8,489.59999990463257,1,0,0,0,0,0,0,0
14086,10.89,1,102,7,j,6,730.2000000476837,1,0,0,0,0,0,0,0
14086,10.89,1,103,9,f,14,719.6000000238419,1,0,0,0,0,0,0,0
14086,10.89,1,104,6,j,8,734.7000000476837,1,0,0,0,0,0,0,0
14086,10.89,1,105,5,f,5,635.1999999284744,1,0,0,0,0,0,0,0
14086,10.89,1,106,6,f,8,745.3000000715256,1,0,0,0,0,0,0,0
14086,10.89,1,107,5,f,5,504.10000002384186,0,0,0,0,0,0,0,0
14086,10.89,1,108,3,f,12,505.89999997615814,0,0,0,0,0,0,0,0
14086,10.89,1,109,4,j,15,534.6000000238419,1,0,0,0,0,0,0,0
14086,10.89,1,110,1,f,13,814.7999999523163,1,0,0,0,0,0,0,0
14086,10.89,1,111,2,j,7,764.8999999761581,1,0,0,0,0,0,0,0
14086,10.89,1,112,5,f,5,683.3999999761581,1,0,0,0,0,0,0,0
14086,10.89,1,113,2,j,7,576.5,1,0,0,0,0,0,0,0
14086,10.89,1,114,5,j,5,735.2000000476837,1,0,0,0,0,0,0,0
14086,10.89,1,115,6,j,8,694.8999999761581,1,0,0,0,0,0,0,0
14086,10.89,1,116,7,j,6,633.5,1,0,0,0,0,0,0,0
14086,10.89,1,117,6,f,8,584.1999999284744,1,0,0,0,0,0,0,0
14086,10.89,1,118,9,j,14,558.1999999284744,1,0,0,0,0,0,0,0
14086,10.89,1,119,7,j,6,490.8000000715256,1,0,0,0,0,0,0,0
14086,10.89,1,120,6,f,8,554.6999999284744,1,0,0,0,0,0,0,0
14086,10.89,1,121,9,f,14,702.8999999761581,1,0,0,0,0,0,0,0
14086,10.89,1,122,10,j,2,536.5,1,0,0,0,0,0,0,0
14086,10.89,1,123,9,f,14,0,0,0,0,0,0,0,0,0
14086,10.89,1,124,6,j,8,824,1,0,0,0,0,0,0,0
14086,10.89,1,125,8,j,10,749.2999999523163,1,0,0,0,0,0,0,0
14086,10.89,1,126,7,j,6,633.3999999761581,1,0,0,0,0,0,0,0
14086,10.89,1,127,8,j,10,485.3000000715256,1,0,0,0,0,0,0,0
14086,10.89,1,128,7,f,6,500.10000002384186,0,0,0,0,0,0,0,0
14086,10.89,1,129,6,j,8,553.8000000715256,1,0,0,0,0,0,0,0
14086,10.89,1,130,9,j,14,0,0,0,0,0,0,0,0,0
14086,10.89,1,131,10,j,2,0,0,0,0,0,0,0,0,0
14086,10.89,1,132,8,j,10,0,0,0,0,0,0,0,0,0
14086,10.89,1,133,9,j,14,0,0,0,0,0,0,0,0,0
14086,10.89,1,134,6,f,8,627.4000000953674,1,0,0,0,0,0,0,0
14086,10.89,1,135,7,j,6,0,0,0,0,0,0,0,0,0
14086,10.89,1,136,9,j,14,712.3999999761581,1,0,0,0,0,0,0,0
14086,10.89,1,137,10,f,2,566.8999999761581,1,0,0,0,0,0,0,0
14086,10.89,1,138,7,f,6,761.5,1,0,0,0,0,0,0,0
14086,10.89,1,139,6,f,8,551.2000000476837,0,0,0,0,0,0,0,0
14086,10.89,1,140,7,j,6,521.1000000238419,1,0,0,0,0,0,0,0
14086,10.89,1,141,10,j,2,0,0,0,0,0,0,0,0,0
14086,10.89,1,142,8,f,10,751.6999999284744,1,0,0,0,0,0,0,0
14086,10.89,1,143,10,f,2,1222,1,0,0,0,0,0,0,0
14086,10.89,1,144,11,f,4,735.1000000238419,0,0,0,0,0,0,0,0
14086,10.89,1,145,12,j,1,615.5,1,0,0,0,0,0,0,0
14086,10.89,1,146,11,j,4,772.6000000238419,1,0,0,0,0,0,0,0
14086,10.89,1,147,13,j,9,658.2000000476837,1,0,0,0,0,0,0,0
14086,10.89,1,148,15,f,3,725,1,0,0,0,0,0,0,0
14086,10.89,1,149,14,f,11,813.8000000715256,1,0,0,0,0,0,0,0
14086,10.89,1,150,15,f,3,0,0,0,0,0,0,0,0,0
14086,10.89,1,151,13,f,9,473.60000002384186,1,0,0,0,0,0,0,0
14086,10.89,1,152,14,f,11,588.8999999761581,1,0,0,0,0,0,0,0
14086,10.89,1,153,15,f,3,1032.2000000476835,1,0,0,0,0,0,0,0
14086,10.89,1,154,12,f,1,846.3999999761581,1,0,0,0,0,0,0,0
14086,10.89,1,155,13,j,9,700.2000000476837,1,0,0,0,0,0,0,0
14086,10.89,1,156,14,j,11,976.5,1,0,0,0,0,0,0,0
14086,10.89,1,157,12,f,1,788.8999999761581,1,0,0,0,0,0,0,0
14086,10.89,1,158,11,f,4,0,0,0,0,0,0,0,0,0
14086,10.89,1,159,10,j,2,221,0,0,0,0,0,0,0,0
14086,10.89,1,160,11,j,4,898.1999999284744,1,0,0,0,0,0,0,0
14086,10.89,1,161,12,f,1,716.7000000476837,1,0,0,0,0,0,0,0
14086,10.89,1,162,14,f,11,693.8999999761581,1,0,0,0,0,0,0,0
14086,10.89,1,163,15,f,3,832.3999999761581,1,0,0,0,0,0,0,0
14086,10.89,1,164,13,f,9,901,1,0,0,0,0,0,0,0
14086,10.89,1,165,14,j,11,690.3999999761581,1,0,0,0,0,0,0,0
14086,10.89,1,166,15,f,3,881,1,0,0,0,0,0,0,0
14086,10.89,1,167,14,f,11,1235.5,1,0,0,0,0,0,0,0
14086,10.89,1,168,15,f,3,0,0,0,0,0,0,0,0,0
14086,10.89,1,169,1,j,13,64.89999997615814,0,0,0,0,0,0,0,0
14086,10.89,1,170,4,j,15,312.5,1,0,0,0,0,0,0,0
14086,10.89,1,171,1,j,13,579.3999999761581,1,0,0,0,0,0,0,0
14086,10.89,1,172,3,f,12,0,0,0,0,0,0,0,0,0
14086,10.89,1,173,5,j,5,977.7999999523164,1,0,0,0,0,0,0,0
14086,10.89,1,174,3,j,12,1136.7999999523165,1,0,0,0,0,0,0,0
14086,10.89,1,175,4,j,15,884.0999999046326,1,0,0,0,0,0,0,0
14086,10.89,1,176,2,f,7,790.2000000476837,1,0,0,0,0,0,0,0
14086,10.89,1,177,3,f,12,881.3000000715256,1,0,0,0,0,0,0,0
14086,10.89,1,178,2,f,7,1039.100000023842,1,0,0,0,0,0,0,0
14086,10.89,1,179,1,j,13,823.1000000238419,1,0,0,0,0,0,0,0
14086,10.89,1,180,4,f,15,759.1000000238419,0,0,0,0,0,0,0,0
14086,10.89,1,181,2,j,7,1033,1,0,0,0,0,0,0,0
14086,10.89,1,182,3,j,12,841.9000000953674,1,0,0,0,0,0,0,0
14086,10.89,1,183,5,j,5,762.1000000238419,1,0,0,0,0,0,0,0
14086,10.89,1,184,2,f,7,812.5,1,0,0,0,0,0,0,0
14086,10.89,1,185,5,f,5,649.6999999284744,0,0,0,0,0,0,0,0
14086,10.89,1,186,3,f,12,899.2999999523163,1,0,0,0,0,0,0,0
14086,10.89,1,187,2,f,7,909.3000000715256,1,0,0,0,0,0,0,0
14086,10.89,1,188,5,j,5,662.2000000476837,1,0,0,0,0,0,0,0
14086,10.89,1,189,3,j,12,954.600000023842,1,0,0,0,0,0,0,0
14086,10.89,1,190,4,j,15,1152.1999999284744,0,0,0,0,0,0,0,0
14086,10.89,1,191,3,j,12,0,0,0,0,0,0,0,0,0
14086,10.89,1,192,5,f,5,624.5,0,0,0,0,0,0,0,0
14086,10.89,1,193,6,j,8,595.7000000476837,1,0,0,0,0,0,0,0
14086,10.89,1,194,9,j,14,0,0,0,0,0,0,0,0,0
14086,10.89,1,195,8,j,10,1015.600000023842,1,0,0,0,0,0,0,0
14086,10.89,1,196,10,f,2,674.5,1,0,0,0,0,0,0,0
14086,10.89,1,197,8,j,10,566.8999999761581,1,0,0,0,0,0,0,0
14086,10.89,1,198,10,f,2,684.5,1,0,0,0,0,0,0,0
14086,10.89,1,199,7,j,6,649.0999999046326,1,0,0,0,0,0,0,0
14086,10.89,1,200,8,f,10,510.40000009536743,1,0,0,0,0,0,0,0
14086,10.89,1,201,10,f,2,817.8999999761581,0,0,0,0,0,0,0,0
14086,10.89,1,202,7,f,6,567.2999999523163,0,0,0,0,0,0,0,0
14086,10.89,1,203,9,j,14,0,0,0,0,0,0,0,0,0
14086,10.89,1,204,8,f,10,0,0,0,0,0,0,0,0,0
14086,10.89,1,205,6,f,8,0,0,0,0,0,0,0,0,0
14086,10.89,1,206,9,f,14,17.199999928474426,0,0,0,0,0,0,0,0
14086,10.89,1,207,8,j,10,647.2000000476837,0,0,0,0,0,0,0,0
14086,10.89,1,208,9,j,14,959.100000023842,1,0,0,0,0,0,0,0
14086,10.89,1,209,6,f,8,672.2999999523163,1,0,0,0,0,0,0,0
14086,10.89,1,210,5,j,5,575.6000000238419,1,0,0,0,0,0,0,0
14086,10.89,1,211,3,j,12,601.2999999523163,1,0,0,0,0,0,0,0
14086,10.89,1,212,2,j,7,710.0999999046326,1,0,0,0,0,0,0,0
14086,10.89,1,213,4,f,15,705.7000000476837,1,0,0,0,0,0,0,0
14086,10.89,1,214,5,j,5,582.9000000953674,1,0,0,0,0,0,0,0
14086,10.89,1,215,3,f,12,816.8000000715256,1,0,0,0,0,0,0,0
14086,10.89,1,216,1,f,13,837.1999999284744,1,0,0,0,0,0,0,0
14086,10.89,1,217,3,j,12,555.9000000953674,1,0,0,0,0,0,0,0
14086,10.89,1,218,4,f,15,497.5,1,0,0,0,0,0,0,0
14086,10.89,1,219,2,j,7,771.3999999761581,1,0,0,0,0,0,0,0
14086,10.89,1,220,3,f,12,677.5999999046326,1,0,0,0,0,0,0,0
14086,10.89,1,221,5,j,5,610.1000000238419,1,0,0,0,0,0,0,0
14086,10.89,1,222,6,j,8,701.3999999761581,1,0,0,0,0,0,0,0
14086,10.89,1,223,5,f,5,544.2999999523163,1,0,0,0,0,0,0,0
14086,10.89,1,224,3,f,12,767.1000000238419,1,0,0,0,0,0,0,0
14086,10.89,1,225,2,j,7,632.5,1,0,0,0,0,0,0,0
14086,10.89,1,226,5,j,5,718.6000000238419,1,0,0,0,0,0,0,0
14086,10.89,1,227,4,f,15,690.1999999284744,1,0,0,0,0,0,0,0
14086,10.89,1,228,5,f,5,840.6999999284744,1,0,0,0,0,0,0,0
14086,10.89,1,229,4,f,15,854.3999999761581,1,0,0,0,0,0,0,0
14086,10.89,1,230,3,j,12,710.6000000238419,1,0,0,0,0,0,0,0
14086,10.89,1,231,1,f,13,604.5,1,0,0,0,0,0,0,0
14086,10.89,1,232,3,f,12,626.7000000476837,1,0,0,0,0,0,0,0
14086,10.89,1,233,2,f,7,793.2999999523163,0,0,0,0,0,0,0,0
14086,10.89,1,234,3,f,12,0,0,0,0,0,0,0,0,0
14086,10.89,1,235,5,f,5,0,0,0,0,0,0,0,0,0
14086,10.89,1,236,3,j,12,766.1000000238419,1,0,0,0,0,0,0,0
14086,10.89,1,237,5,f,5,634.6000000238419,1,0,0,0,0,0,0,0
14086,10.89,1,238,3,j,12,750.7000000476837,1,0,0,0,0,0,0,0
14086,10.89,1,239,2,j,7,875.5,1,0,0,0,0,0,0,0
14086,10.89,1,240,3,j,12,1061,1,0,0,0,0,0,0,0
14086,10.89,1,241,4,f,15,1115.1999999284744,1,0,0,0,0,0,0,0
14086,10.89,1,242,1,j,13,687.6999999284744,1,0,0,0,0,0,0,0
14086,10.89,1,243,15,j,3,797.0999999046326,1,0,0,0,0,0,0,0
14086,10.89,1,244,12,j,1,721.3000000715256,1,0,0,0,0,0,0,0
14086,10.89,1,245,15,f,3,814.2999999523163,1,0,0,0,0,0,0,0
14086,10.89,1,246,12,j,1,597.4000000953674,1,0,0,0,0,0,0,0
14086,10.89,1,247,13,j,9,571,0,0,0,0,0,0,0,0
14086,10.89,1,248,11,j,4,472,1,0,0,0,0,0,0,0
14086,10.89,1,249,12,j,1,827.0999999046326,0,0,0,0,0,0,0,0
14086,10.89,1,250,14,f,11,628.3000000715256,1,0,0,0,0,0,0,0
14086,10.89,1,251,12,j,1,483.60000002384186,1,0,0,0,0,0,0,0
14086,10.89,1,252,14,j,11,842.1999999284744,1,0,0,0,0,0,0,0
14086,10.89,1,253,12,j,1,575.5,0,0,0,0,0,0,0,0
14086,10.89,1,254,11,j,4,732.3999999761581,1,0,0,0,0,0,0,0
14086,10.89,1,255,12,f,1,755,1,0,0,0,0,0,0,0
14086,10.89,1,256,13,f,9,836.5999999046326,1,0,0,0,0,0,0,0
14086,10.89,1,257,15,f,3,878.7000000476837,1,0,0,0,0,0,0,0
14086,10.89,1,258,12,j,1,742.7999999523163,1,0,0,0,0,0,0,0
14086,10.89,1,259,13,j,9,651.4000000953674,1,0,0,0,0,0,0,0
14086,10.89,1,260,14,j,11,760.3999999761581,1,0,0,0,0,0,0,0
14086,10.89,1,261,13,j,9,951.600000023842,1,0,0,0,0,0,0,0
14086,10.89,1,262,14,j,11,746.7000000476837,1,0,0,0,0,0,0,0
14086,10.89,1,263,13,j,9,0,0,0,0,0,0,0,0,0
14086,10.89,1,264,11,j,4,0,0,0,0,0,0,0,0,0
14086,10.89,1,265,14,j,11,0,0,0,0,0,0,0,0,0
14086,10.89,1,266,11,j,4,0,0,0,0,0,0,0,0,0
14086,10.89,1,267,14,f,11,0,0,0,0,0,0,0,0,0
14086,10.89,1,268,11,j,4,0,0,0,0,0,0,0,0,0
14086,10.89,1,269,12,j,1,770.7000000476837,1,0,0,0,0,0,0,0
14086,10.89,1,270,13,f,9,623,1,0,0,0,0,0,0,0
14086,10.89,1,271,15,f,3,767.6000000238419,1,0,0,0,0,0,0,0
14086,10.89,1,272,1,f,13,810.1000000238419,0,0,0,0,0,0,0,0
14086,10.89,1,273,4,j,15,595.1999999284744,1,0,0,0,0,0,0,0
14086,10.89,1,274,1,j,13,871.9000000953674,1,0,0,0,0,0,0,0
14086,10.89,1,275,3,f,12,920.600000023842,1,0,0,0,0,0,0,0
14086,10.89,1,276,1,f,13,795.7999999523163,1,0,0,0,0,0,0,0
14086,10.89,1,277,3,j,12,616.7000000476837,1,0,0,0,0,0,0,0
14086,10.89,1,278,2,f,7,801.8000000715256,1,0,0,0,0,0,0,0
14086,10.89,1,279,1,j,13,750,1,0,0,0,0,0,0,0
14086,10.89,1,280,2,f,7,1054.9000000953674,1,0,0,0,0,0,0,0
14086,10.89,1,281,3,f,12,664.3999999761581,1,0,0,0,0,0,0,0
14086,10.89,1,282,2,j,7,710.2000000476837,1,0,0,0,0,0,0,0
14086,10.89,1,283,3,j,12,978.2999999523164,1,0,0,0,0,0,0,0
14086,10.89,1,284,1,f,13,648.6000000238419,1,0,0,0,0,0,0,0
14086,10.89,1,285,3,j,12,916,1,0,0,0,0,0,0,0
14086,10.89,1,286,5,j,5,821.3000000715256,0,0,0,0,0,0,0,0
14086,10.89,1,287,2,j,7,960.1999999284744,1,0,0,0,0,0,0,0
14086,10.89,1,288,4,f,15,634.1000000238419,1,0,0,0,0,0,0,0
14086,10.89,1,289,3,f,12,0,0,0,0,0,0,0,0,0
14086,10.89,1,290,2,j,7,35.89999997615814,0,0,0,0,0,0,0,0
14086,10.89,1,291,3,j,12,0,0,0,0,0,0,0,0,0
14086,10.89,1,292,1,f,13,419.8000000715256,0,0,0,0,0,0,0,0
14086,10.89,1,293,2,f,7,1176.2000000476835,1,0,0,0,0,0,0,0
14086,10.89,1,294,3,j,12,0,0,0,0,0,0,0,0,0
14086,10.89,1,295,1,j,13,573.2999999523163,1,0,0,0,0,0,0,0
14086,10.89,1,296,4,j,15,1184.600000023842,0,0,0,0,0,0,0,0
14086,10.89,1,297,5,f,5,916.3000000715256,1,0,0,0,0,0,0,0
14086,10.89,1,298,3,f,12,964,1,0,0,0,0,0,0,0
14086,10.89,1,299,4,j,15,755.8999999761581,1,0,0,0,0,0,0,0
14086,10.89,1,300,2,j,7,0,0,0,0,0,0,0,0,0
14086,10.89,2,1,15,j,3,1070.2000000476835,1,0,0,0,0,0,0,0
14086,10.89,2,2,14,f,11,620.1000000238419,1,0,0,0,0,0,0,0
14086,10.89,2,3,15,j,3,778,1,0,0,0,0,0,0,0
14086,10.89,2,4,12,j,1,689.2000000476837,1,0,0,0,0,0,0,0
14086,10.89,2,5,14,f,11,547.1999999284744,1,0,0,0,0,0,0,0
14086,10.89,2,6,11,j,4,506.2999999523163,1,0,0,0,0,0,0,0
14086,10.89,2,7,14,f,11,933.6999999284744,1,0,0,0,0,0,0,0
14086,10.89,2,8,15,f,3,777.3999999761581,1,0,0,0,0,0,0,0
14086,10.89,2,9,1,f,13,639.8999999761581,1,0,0,0,0,0,0,0
14086,10.89,2,10,2,j,7,511.2000000476837,1,0,0,0,0,0,0,0
14086,10.89,2,11,3,j,12,536.2999999523163,1,0,0,0,0,0,0,0
14086,10.89,2,12,1,f,13,623.5,1,0,0,0,0,0,0,0
14086,10.89,2,13,4,j,15,430.1999999284744,1,0,0,0,0,0,0,0
14086,10.89,2,14,1,f,13,593.2999999523163,1,0,0,0,0,0,0,0
14086,10.89,2,15,15,f,3,611.8000000715256,1,0,0,0,0,0,0,0
14086,10.89,2,16,13,j,9,498.39999997615814,1,0,0,0,0,0,0,0
14086,10.89,2,17,12,j,1,532.5,1,0,0,0,0,0,0,0
14086,10.89,2,18,13,j,9,598.9000000953674,1,0,0,0,0,0,0,0
14086,10.89,2,19,11,f,4,614.4000000953674,1,0,0,0,0,0,0,0
14086,10.89,2,20,14,f,11,728.0999999046326,1,0,0,0,0,0,0,0
14086,10.89,2,21,12,f,1,654.5,1,0,0,0,0,0,0,0
14086,10.89,2,22,15,j,3,740,1,0,0,0,0,0,0,0
14086,10.89,2,23,1,f,13,575,1,0,0,0,0,0,0,0
14086,10.89,2,24,3,j,12,519.6999999284744,1,0,0,0,0,0,0,0
14086,10.89,2,25,2,j,7,742.2999999523163,1,0,0,0,0,0,0,0
14086,10.89,2,26,4,f,15,707.6999999284744,1,0,0,0,0,0,0,0
14086,10.89,2,27,5,f,5,506.5,0,0,0,0,0,0,0,0
14086,10.89,2,28,3,j,12,664.5,1,0,0,0,0,0,0,0
14086,10.89,2,29,4,j,15,964.7000000476836,1,0,0,0,0,0,0,0
14086,10.89,2,30,2,f,7,875.5,1,0,0,0,0,0,0,0
14086,10.89,2,31,3,j,12,601.5,1,0,0,0,0,0,0,0
14086,10.89,2,32,1,j,13,595.5,1,0,0,0,0,0,0,0
14086,10.89,2,33,2,f,7,591.7000000476837,1,0,0,0,0,0,0,0
14086,10.89,2,34,1,j,13,629.6000000238419,1,0,0,0,0,0,0,0
14086,10.89,2,35,15,f,3,643.8999999761581,1,0,0,0,0,0,0,0
14086,10.89,2,36,12,j,1,582.2000000476837,1,0,0,0,0,0,0,0
14086,10.89,2,37,13,f,9,854.7999999523163,1,0,0,0,0,0,0,0
14086,10.89,2,38,11,f,4,784.8999999761581,1,0,0,0,0,0,0,0
14086,10.89,2,39,14,f,11,648.1999999284744,1,0,0,0,0,0,0,0
14086,10.89,2,40,12,j,1,669,1,0,0,0,0,0,0,0
14086,10.89,2,41,14,j,11,910.2000000476836,1,0,0,0,0,0,0,0
14086,10.89,2,42,12,j,1,781.3000000715256,1,0,0,0,0,0,0,0
14086,10.89,2,43,11,f,4,694.2000000476837,1,0,0,0,0,0,0,0
14086,10.89,2,44,10,f,2,711.1999999284744,1,0,0,0,0,0,0,0
14086,10.89,2,45,11,j,4,716.1000000238419,1,0,0,0,0,0,0,0
14086,10.89,2,46,12,f,1,640.8999999761581,1,0,0,0,0,0,0,0
14086,10.89,2,47,15,j,3,715.6999999284744,1,0,0,0,0,0,0,0
14086,10.89,2,48,12,f,1,776.9000000953674,1,0,0,0,0,0,0,0
14086,10.89,2,49,11,f,4,0,0,0,0,0,0,0,0,0
14086,10.89,2,50,14,j,11,17.799999952316284,0,0,0,0,0,0,0,0
14086,10.89,2,51,13,j,9,539,1,0,0,0,0,0,0,0
14086,10.89,2,52,12,f,1,790.6000000238419,1,0,0,0,0,0,0,0
14086,10.89,2,53,13,j,9,576.2999999523163,1,0,0,0,0,0,0,0
14086,10.89,2,54,11,j,4,720.6999999284744,1,0,0,0,0,0,0,0
14086,10.89,2,55,12,f,1,624,1,0,0,0,0,0,0,0
14086,10.89,2,56,14,j,11,586,1,0,0,0,0,0,0,0
14086,10.89,2,57,12,f,1,520.8999999761581,1,0,0,0,0,0,0,0
14086,10.89,2,58,13,f,9,1035.7999999523165,1,0,0,0,0,0,0,0
14086,10.89,2,59,11,f,4,604.4000000953674,0,0,0,0,0,0,0,0
14086,10.89,2,60,12,j,1,509.7999999523163,1,0,0,0,0,0,0,0
14086,10.89,2,61,15,f,3,646.5,0,0,0,0,0,0,0,0
14086,10.89,2,62,12,f,1,760.7999999523163,1,0,0,0,0,0,0,0
14086,10.89,2,63,11,j,4,562.5,1,0,0,0,0,0,0,0
14086,10.89,2,64,12,f,1,491.2999999523163,1,0,0,0,0,0,0,0
14086,10.89,2,65,14,j,11,641.8999999761581,1,0,0,0,0,0,0,0
14086,10.89,2,66,13,j,9,802.7000000476837,1,0,0,0,0,0,0,0
14086,10.89,2,67,11,f,4,565.6000000238419,1,0,0,0,0,0,0,0
14086,10.89,2,68,14,j,11,617.7000000476837,1,0,0,0,0,0,0,0
14086,10.89,2,69,15,f,3,615.2000000476837,1,0,0,0,0,0,0,0
14086,10.89,2,70,13,j,9,602.3999999761581,1,0,0,0,0,0,0,0
14086,10.89,2,71,11,f,4,678.1999999284744,1,0,0,0,0,0,0,0
14086,10.89,2,72,10,f,2,816.7999999523163,1,0,0,0,0,0,0,0
14086,10.89,2,73,7,j,6,763.8999999761581,1,0,0,0,0,0,0,0
14086,10.89,2,74,9,f,14,852.7000000476837,1,0,0,0,0,0,0,0
14086,10.89,2,75,10,f,2,972.100000023842,1,0,0,0,0,0,0,0
14086,10.89,2,76,9,j,14,872.2000000476837,1,0,0,0,0,0,0,0
14086,10.89,2,77,6,j,8,808.8000000715256,1,0,0,0,0,0,0,0
14086,10.89,2,78,5,f,5,739.8000000715256,1,0,0,0,0,0,0,0
14086,10.89,2,79,6,j,8,657.6000000238419,1,0,0,0,0,0,0,0
14086,10.89,2,80,7,j,6,837.2999999523163,1,0,0,0,0,0,0,0
14086,10.89,2,81,8,j,10,636,0,0,0,0,0,0,0,0
14086,10.89,2,82,7,j,6,1217,0,0,0,0,0,0,0,0
14086,10.89,2,83,6,j,8,1031.5,1,0,0,0,0,0,0,0
14086,10.89,2,84,5,j,5,883.3000000715256,1,0,0,0,0,0,0,0
14086,10.89,2,85,3,f,12,736,1,0,0,0,0,0,0,0
14086,10.89,2,86,1,j,13,627.3000000715256,1,0,0,0,0,0,0,0
14086,10.89,2,87,15,f,3,632.2999999523163,1,0,0,0,0,0,0,0
14086,10.89,2,88,13,j,9,497.6999999284744,1,0,0,0,0,0,0,0
14086,10.89,2,89,14,j,11,677.8999999761581,1,0,0,0,0,0,0,0
14086,10.89,2,90,12,j,1,433.3000000715256,0,0,0,0,0,0,0,0
14086,10.89,2,91,11,j,4,655.7999999523163,1,0,0,0,0,0,0,0
14086,10.89,2,92,13,j,9,542.5,1,0,0,0,0,0,0,0
14086,10.89,2,93,15,f,3,648.1000000238419,1,0,0,0,0,0,0,0
14086,10.89,2,94,1,f,13,654,0,0,0,0,0,0,0,0
14086,10.89,2,95,15,f,3,851.1999999284744,1,0,0,0,0,0,0,0
14086,10.89,2,96,13,f,9,745.5,1,0,0,0,0,0,0,0
14086,10.89,2,97,14,f,11,632,1,0,0,0,0,0,0,0
14086,10.89,2,98,13,f,9,597.8000000715256,1,0,0,0,0,0,0,0
14086,10.89,2,99,15,j,3,657.5,1,0,0,0,0,0,0,0
14086,10.89,2,100,12,f,1,703.5999999046326,1,0,0,0,0,0,0,0
14086,10.89,2,101,11,j,4,529.3000000715256,1,0,0,0,0,0,0,0
14086,10.89,2,102,12,j,1,646.2000000476837,1,0,0,0,0,0,0,0
14086,10.89,2,103,15,j,3,683,1,0,0,0,0,0,0,0
14086,10.89,2,104,13,f,9,589.6000000238419,1,0,0,0,0,0,0,0
14086,10.89,2,105,11,j,4,614.7000000476837,1,0,0,0,0,0,0,0
14086,10.89,2,106,13,f,9,645.8999999761581,1,0,0,0,0,0,0,0
14086,10.89,2,107,12,f,1,715.1000000238419,1,0,0,0,0,0,0,0
14086,10.89,2,108,15,j,3,624,1,0,0,0,0,0,0,0
14086,10.89,2,109,12,j,1,669.5,1,0,0,0,0,0,0,0
14086,10.89,2,110,11,j,4,794.6000000238419,1,0,0,0,0,0,0,0
14086,10.89,2,111,10,f,2,727.6000000238419,1,0,0,0,0,0,0,0
14086,10.89,2,112,11,j,4,546.1000000238419,1,0,0,0,0,0,0,0
14086,10.89,2,113,13,f,9,520.5,1,0,0,0,0,0,0,0
14086,10.89,2,114,15,j,3,593.3999999761581,1,0,0,0,0,0,0,0
14086,10.89,2,115,14,f,11,614.1000000238419,1,0,0,0,0,0,0,0
14086,10.89,2,116,11,f,4,875.1000000238419,1,0,0,0,0,0,0,0
14086,10.89,2,117,14,j,11,934.399999976158,1,0,0,0,0,0,0,0
14086,10.89,2,118,15,f,3,841.6000000238419,1,0,0,0,0,0,0,0
14086,10.89,2,119,1,j,13,652.6999999284744,1,0,0,0,0,0,0,0
14086,10.89,2,120,4,j,15,0,0,0,0,0,0,0,0,0
14086,10.89,2,121,5,j,5,163.5,0,0,0,0,0,0,0,0
14086,10.89,2,122,4,f,15,137.29999995231628,0,0,0,0,0,0,0,0
14086,10.89,2,123,2,f,7,778.5,1,0,0,0,0,0,0,0
14086,10.89,2,124,3,f,12,759.3999999761581,1,0,0,0,0,0,0,0
14086,10.89,2,125,2,f,7,1030.1999999284744,1,0,0,0,0,0,0,0
14086,10.89,2,126,3,f,12,1185.899999976158,1,0,0,0,0,0,0,0
14086,10.89,2,127,2,j,7,683.1000000238419,1,0,0,0,0,0,0,0
14086,10.89,2,128,3,j,12,578.5,0,0,0,0,0,0,0,0
14086,10.89,2,129,5,j,5,721.8999999761581,1,0,0,0,0,0,0,0
14086,10.89,2,130,6,f,8,715.6000000238419,1,0,0,0,0,0,0,0
14086,10.89,2,131,7,j,6,936.8000000715256,1,0,0,0,0,0,0,0
14086,10.89,2,132,8,j,10,725.7000000476837,1,0,0,0,0,0,0,0
14086,10.89,2,133,9,j,14,917.0999999046326,1,0,0,0,0,0,0,0
14086,10.89,2,134,8,j,10,866.2999999523163,1,0,0,0,0,0,0,0
14086,10.89,2,135,7,j,6,758,1,0,0,0,0,0,0,0
14086,10.89,2,136,9,f,14,844.8999999761581,1,0,0,0,0,0,0,0
14086,10.89,2,137,8,f,10,579.3000000715256,1,0,0,0,0,0,0,0
14086,10.89,2,138,7,j,6,525.6000000238419,1,0,0,0,0,0,0,0
14086,10.89,2,139,8,f,10,902.6999999284744,1,0,0,0,0,0,0,0
14086,10.89,2,140,9,f,14,1060.7000000476835,1,0,0,0,0,0,0,0
14086,10.89,2,141,8,j,10,625.2999999523163,1,0,0,0,0,0,0,0
14086,10.89,2,142,9,f,14,843.2000000476837,1,0,0,0,0,0,0,0
14086,10.89,2,143,7,j,6,608,1,0,0,0,0,0,0,0
14086,10.89,2,144,6,f,8,751.1000000238419,1,0,0,0,0,0,0,0
14086,10.89,2,145,9,j,14,940.899999976158,1,0,0,0,0,0,0,0
14086,10.89,2,146,8,f,10,608.5,1,0,0,0,0,0,0,0
14086,10.89,2,147,7,f,6,722.6000000238419,0,0,0,0,0,0,0,0
14086,10.89,2,148,10,j,2,588.5999999046326,1,0,0,0,0,0,0,0
14086,10.89,2,149,7,f,6,605.1999999284744,1,0,0,0,0,0,0,0
14086,10.89,2,150,6,f,8,689.1000000238419,0,0,0,0,0,0,0,0
14086,10.89,2,151,8,f,10,1099.5,1,0,0,0,0,0,0,0
14086,10.89,2,152,6,j,8,576.1000000238419,1,0,0,0,0,0,0,0
14086,10.89,2,153,5,f,5,648.3999999761581,1,0,0,0,0,0,0,0
14086,10.89,2,154,3,j,12,515,1,0,0,0,0,0,0,0
14086,10.89,2,155,5,j,5,810,1,0,0,0,0,0,0,0
14086,10.89,2,156,3,j,12,764.1000000238419,1,0,0,0,0,0,0,0
14086,10.89,2,157,5,j,5,698.2000000476837,1,0,0,0,0,0,0,0
14086,10.89,2,158,3,f,12,546.3000000715256,1,0,0,0,0,0,0,0
14086,10.89,2,159,2,f,7,753.5,1,0,0,0,0,0,0,0
14086,10.89,2,160,5,f,5,684.7999999523163,1,0,0,0,0,0,0,0
14086,10.89,2,161,2,f,7,826.2000000476837,1,0,0,0,0,0,0,0
14086,10.89,2,162,3,j,12,743.5,1,0,0,0,0,0,0,0
14086,10.89,2,163,5,f,5,638.2999999523163,1,0,0,0,0,0,0,0
14086,10.89,2,164,4,j,15,606,1,0,0,0,0,0,0,0
14086,10.89,2,165,3,j,12,829,1,0,0,0,0,0,0,0
14086,10.89,2,166,5,f,5,779,1,0,0,0,0,0,0,0
14086,10.89,2,167,3,j,12,669.1000000238419,1,0,0,0,0,0,0,0
14086,10.89,2,168,1,f,13,732.5,1,0,0,0,0,0,0,0
14086,10.89,2,169,4,f,15,886.1999999284744,1,0,0,0,0,0,0,0
14086,10.89,2,170,1,j,13,651.3999999761581,1,0,0,0,0,0,0,0
14086,10.89,2,171,15,j,3,765.7000000476837,1,0,0,0,0,0,0,0
14086,10.89,2,172,12,f,1,919,1,0,0,0,0,0,0,0
14086,10.89,2,173,15,f,3,690,1,0,0,0,0,0,0,0
14086,10.89,2,174,14,f,11,773.6000000238419,1,0,0,0,0,0,0,0
14086,10.89,2,175,12,f,1,925.2000000476836,1,0,0,0,0,0,0,0
14086,10.89,2,176,11,j,4,678.3999999761581,1,0,0,0,0,0,0,0
14086,10.89,2,177,14,f,11,625,1,0,0,0,0,0,0,0
14086,10.89,2,178,11,f,4,1008.399999976158,1,0,0,0,0,0,0,0
14086,10.89,2,179,14,f,11,630.6000000238419,1,0,0,0,0,0,0,0
14086,10.89,2,180,12,f,1,661.1000000238419,1,0,0,0,0,0,0,0
14086,10.89,2,181,15,f,3,490.1999999284744,1,0,0,0,0,0,0,0
14086,10.89,2,182,13,f,9,645.2999999523163,1,0,0,0,0,0,0,0
14086,10.89,2,183,15,f,3,705.1999999284744,1,0,0,0,0,0,0,0
14086,10.89,2,184,14,f,11,784.1000000238419,0,0,0,0,0,0,0,0
14086,10.89,2,185,12,f,1,647.1000000238419,1,0,0,0,0,0,0,0
14086,10.89,2,186,15,f,3,625.3000000715256,1,0,0,0,0,0,0,0
14086,10.89,2,187,1,j,13,526.1000000238419,1,0,0,0,0,0,0,0
14086,10.89,2,188,15,f,3,643.5,1,0,0,0,0,0,0,0
14086,10.89,2,189,1,j,13,537.7999999523163,1,0,0,0,0,0,0,0
14086,10.89,2,190,2,f,7,741.8999999761581,1,0,0,0,0,0,0,0
14086,10.89,2,191,1,f,13,709.8999999761581,1,0,0,0,0,0,0,0
14086,10.89,2,192,3,f,12,788.3000000715256,1,0,0,0,0,0,0,0
14086,10.89,2,193,4,j,15,0,0,0,0,0,0,0,0,0
14086,10.89,2,194,2,j,7,576.2000000476837,1,0,0,0,0,0,0,0
14086,10.89,2,195,3,j,12,650.1000000238419,1,0,0,0,0,0,0,0
14086,10.89,2,196,4,j,15,545.7999999523163,0,0,0,0,0,0,0,0
14086,10.89,2,197,2,f,7,579.7999999523163,1,0,0,0,0,0,0,0
14086,10.89,2,198,3,j,12,652.8000000715256,1,0,0,0,0,0,0,0
14086,10.89,2,199,5,f,5,590.7999999523163,1,0,0,0,0,0,0,0
14086,10.89,2,200,2,f,7,885.1999999284744,1,0,0,0,0,0,0,0
14086,10.89,2,201,4,j,15,949,1,0,0,0,0,0,0,0
14086,10.89,2,202,5,f,5,711.6000000238419,1,0,0,0,0,0,0,0
14086,10.89,2,203,3,f,12,1058.7000000476835,1,0,0,0,0,0,0,0
14086,10.89,2,204,2,f,7,921,1,0,0,0,0,0,0,0
14086,10.89,2,205,1,f,13,645.5999999046326,1,0,0,0,0,0,0,0
14086,10.89,2,206,3,f,12,674.3999999761581,1,0,0,0,0,0,0,0
14086,10.89,2,207,4,j,15,637,1,0,0,0,0,0,0,0
14086,10.89,2,208,1,j,13,903.5999999046326,1,0,0,0,0,0,0,0
14086,10.89,2,209,3,f,12,860.6999999284744,1,0,0,0,0,0,0,0
14086,10.89,2,210,4,f,15,725.0999999046326,1,0,0,0,0,0,0,0
14086,10.89,2,211,1,j,13,595.6000000238419,1,0,0,0,0,0,0,0
14086,10.89,2,212,3,j,12,802.2000000476837,1,0,0,0,0,0,0,0
14086,10.89,2,213,4,j,15,1198.7999999523165,0,0,0,0,0,0,0,0
14086,10.89,2,214,2,f,7,919.5,1,0,0,0,0,0,0,0
14086,10.89,2,215,3,f,12,782.4000000953674,1,0,0,0,0,0,0,0
14086,10.89,2,216,5,f,5,637.6000000238419,1,0,0,0,0,0,0,0
14086,10.89,2,217,3,j,12,572,1,0,0,0,0,0,0,0
14086,10.89,2,218,4,f,15,639.7000000476837,1,0,0,0,0,0,0,0
14086,10.89,2,219,5,j,5,645.7999999523163,1,0,0,0,0,0,0,0
14086,10.89,2,220,2,j,7,879.1000000238419,1,0,0,0,0,0,0,0
14086,10.89,2,221,3,j,12,1001.1999999284744,0,0,0,0,0,0,0,0
14086,10.89,2,222,5,f,5,622.6999999284744,1,0,0,0,0,0,0,0
14086,10.89,2,223,6,j,8,645,1,0,0,0,0,0,0,0
14086,10.89,2,224,5,f,5,728.3999999761581,1,0,0,0,0,0,0,0
14086,10.89,2,225,3,f,12,0,0,0,0,0,0,0,0,0
14086,10.89,2,226,1,f,13,34.10000002384186,0,0,0,0,0,0,0,0
14086,10.89,2,227,3,f,12,898,1,0,0,0,0,0,0,0
14086,10.89,2,228,4,j,15,783.7000000476837,1,0,0,0,0,0,0,0
14086,10.89,2,229,3,j,12,1036.600000023842,0,0,0,0,0,0,0,0
14086,10.89,2,230,5,j,5,877.2000000476837,1,0,0,0,0,0,0,0
14086,10.89,2,231,4,f,15,624.5,1,0,0,0,0,0,0,0
14086,10.89,2,232,3,f,12,777.4000000953674,1,0,0,0,0,0,0,0
14086,10.89,2,233,5,j,5,668,1,0,0,0,0,0,0,0
14086,10.89,2,234,4,f,15,634,1,0,0,0,0,0,0,0
14086,10.89,2,235,3,f,12,861,1,0,0,0,0,0,0,0
14086,10.89,2,236,1,f,13,1135.100000023842,0,0,0,0,0,0,0,0
14086,10.89,2,237,2,f,7,1220.7000000476835,1,0,0,0,0,0,0,0
14086,10.89,2,238,3,f,12,860.5,1,0,0,0,0,0,0,0
14086,10.89,2,239,1,j,13,684.6000000238419,1,0,0,0,0,0,0,0
14086,10.89,2,240,3,j,12,607.6000000238419,1,0,0,0,0,0,0,0
14086,10.89,2,241,1,f,13,600.7999999523163,0,0,0,0,0,0,0,0
14086,10.89,2,242,15,j,3,492.60000002384186,1,0,0,0,0,0,0,0
14086,10.89,2,243,13,f,9,599,1,0,0,0,0,0,0,0
14086,10.89,2,244,12,f,1,890.0999999046326,1,0,0,0,0,0,0,0
14086,10.89,2,245,15,f,3,1105.600000023842,1,0,0,0,0,0,0,0
14086,10.89,2,246,12,j,1,676.7000000476837,1,0,0,0,0,0,0,0
14086,10.89,2,247,14,j,11,1200.5,0,0,0,0,0,0,0,0
14086,10.89,2,248,13,j,9,684.6000000238419,1,0,0,0,0,0,0,0
14086,10.89,2,249,15,j,3,585,1,0,0,0,0,0,0,0
14086,10.89,2,250,12,j,1,657.3000000715256,1,0,0,0,0,0,0,0
14086,10.89,2,251,13,j,9,506.10000002384186,1,0,0,0,0,0,0,0
14086,10.89,2,252,12,j,1,593,1,0,0,0,0,0,0,0
14086,10.89,2,253,11,f,4,526.6999999284744,1,0,0,0,0,0,0,0
14086,10.89,2,254,12,f,1,614.3999999761581,1,0,0,0,0,0,0,0
14086,10.89,2,255,15,f,3,822.4000000953674,1,0,0,0,0,0,0,0
14086,10.89,2,256,1,j,13,714.8999999761581,1,0,0,0,0,0,0,0
14086,10.89,2,257,4,j,15,839.2999999523163,1,0,0,0,0,0,0,0
14086,10.89,2,258,2,j,7,851.3999999761581,1,0,0,0,0,0,0,0
14086,10.89,2,259,1,f,13,749.4000000953674,1,0,0,0,0,0,0,0
14086,10.89,2,260,3,f,12,757.8999999761581,1,0,0,0,0,0,0,0
14086,10.89,2,261,2,j,7,735.9000000953674,1,0,0,0,0,0,0,0
14086,10.89,2,262,4,f,15,1152.5,0,0,0,0,0,0,0,0
14086,10.89,2,263,1,j,13,714.8000000715256,1,0,0,0,0,0,0,0
14086,10.89,2,264,3,f,12,957,1,0,0,0,0,0,0,0
14086,10.89,2,265,4,f,15,1011.7000000476836,1,0,0,0,0,0,0,0
14086,10.89,2,266,3,f,12,629.6000000238419,1,0,0,0,0,0,0,0
14086,10.89,2,267,1,f,13,682.1000000238419,1,0,0,0,0,0,0,0
14086,10.89,2,268,3,j,12,674.2999999523163,1,0,0,0,0,0,0,0
14086,10.89,2,269,1,f,13,577,1,0,0,0,0,0,0,0
14086,10.89,2,270,4,j,15,675,1,0,0,0,0,0,0,0
14086,10.89,2,271,2,j,7,577.6999999284744,0,0,0,0,0,0,0,0
14086,10.89,2,272,5,j,5,778.1999999284744,1,0,0,0,0,0,0,0
14086,10.89,2,273,4,f,15,824.2999999523163,1,0,0,0,0,0,0,0
14086,10.89,2,274,1,f,13,774.1000000238419,1,0,0,0,0,0,0,0
14086,10.89,2,275,2,j,7,640,1,0,0,0,0,0,0,0
14086,10.89,2,276,3,j,12,828.3000000715256,1,0,0,0,0,0,0,0
14086,10.89,2,277,5,j,5,736.6000000238419,1,0,0,0,0,0,0,0
14086,10.89,2,278,6,j,8,639.1999999284744,1,0,0,0,0,0,0,0
14086,10.89,2,279,7,j,6,698.6000000238419,0,0,0,0,0,0,0,0
14086,10.89,2,280,9,j,14,796.3999999761581,1,0,0,0,0,0,0,0
14086,10.89,2,281,7,f,6,827.2999999523163,1,0,0,0,0,0,0,0
14086,10.89,2,282,6,j,8,596.8999999761581,1,0,0,0,0,0,0,0
14086,10.89,2,283,9,f,14,930.600000023842,1,0,0,0,0,0,0,0
14086,10.89,2,284,10,f,2,1115.6999999284744,1,0,0,0,0,0,0,0
14086,10.89,2,285,8,j,10,754,1,0,0,0,0,0,0,0
14086,10.89,2,286,10,f,2,987.4000000953674,1,0,0,0,0,0,0,0
14086,10.89,2,287,8,f,10,744.8999999761581,1,0,0,0,0,0,0,0
14086,10.89,2,288,6,f,8,756.4000000953674,1,0,0,0,0,0,0,0
14086,10.89,2,289,9,j,14,826.5,1,0,0,0,0,0,0,0
14086,10.89,2,290,8,f,10,580.7999999523163,1,0,0,0,0,0,0,0
14086,10.89,2,291,6,j,8,629.8999999761581,1,0,0,0,0,0,0,0
14086,10.89,2,292,8,j,10,625.1000000238419,0,0,0,0,0,0,0,0
14086,10.89,2,293,10,f,2,735,1,0,0,0,0,0,0,0
14086,10.89,2,294,7,j,6,704.3000000715256,1,0,0,0,0,0,0,0
14086,10.89,2,295,6,j,8,782.7999999523163,1,0,0,0,0,0,0,0
14086,10.89,2,296,7,j,6,832.3999999761581,1,0,0,0,0,0,0,0
14086,10.89,2,297,8,f,10,633.8999999761581,1,0,0,0,0,0,0,0
14086,10.89,2,298,6,j,8,549.0999999046326,1,0,0,0,0,0,0,0
14086,10.89,2,299,8,f,10,643.3999999761581,1,0,0,0,0,0,0,0
14086,10.89,2,300,10,f,2,892.6999999284744,1,0,0,0,0,0,0,0
14087,11.42,1,1,14,f,9,1093,1,0,0,0,0,0,0,0
14087,11.42,1,2,11,f,11,866,1,0,0,0,0,0,0,0
14087,11.42,1,3,12,f,7,855,1,0,0,0,0,0,0,0
14087,11.42,1,4,11,j,11,871,1,0,0,0,0,0,0,0
14087,11.42,1,5,13,j,8,895,1,0,0,0,0,0,0,0
14087,11.42,1,6,11,f,11,824,1,0,0,0,0,0,0,0
14087,11.42,1,7,12,f,7,720,1,0,0,0,0,0,0,0
14087,11.42,1,8,11,j,11,713,1,0,0,0,0,0,0,0
14087,11.42,1,9,13,f,8,811,1,0,0,0,0,0,0,0
14087,11.42,1,10,12,j,7,979,1,0,0,0,0,0,0,0
14087,11.42,1,11,15,j,5,767,1,0,0,0,0,0,0,0
14087,11.42,1,12,1,f,6,866,1,0,0,0,0,0,0,0
14087,11.42,1,13,3,j,10,728,1,0,0,0,0,0,0,0
14087,11.42,1,14,5,j,13,868,1,0,0,0,0,0,0,0
14087,11.42,1,15,6,f,3,822,1,0,0,0,0,0,0,0
14087,11.42,1,16,5,f,13,727,1,0,0,0,0,0,0,0
14087,11.42,1,17,6,j,3,726,1,0,0,0,0,0,0,0
14087,11.42,1,18,7,j,4,737,1,0,0,0,0,0,0,0
14087,11.42,1,19,8,j,12,706,1,0,0,0,0,0,0,0
14087,11.42,1,20,10,f,2,862,1,0,0,0,0,0,0,0
14087,11.42,1,21,8,j,12,677,1,0,0,0,0,0,0,0
14087,11.42,1,22,10,f,2,992,1,0,0,0,0,0,0,0
14087,11.42,1,23,8,f,12,930,1,0,0,0,0,0,0,0
14087,11.42,1,24,9,j,14,889,1,0,0,0,0,0,0,0
14087,11.42,1,25,10,f,2,861,1,0,0,0,0,0,0,0
14087,11.42,1,26,9,f,14,824,1,0,0,0,0,0,0,0
14087,11.42,1,27,7,j,4,554,1,0,0,0,0,0,0,0
14087,11.42,1,28,9,j,14,761,1,0,0,0,0,0,0,0
14087,11.42,1,29,8,j,12,918,1,0,0,0,0,0,0,0
14087,11.42,1,30,7,j,4,789,1,0,0,0,0,0,0,0
14087,11.42,1,31,10,f,2,714,1,0,0,0,0,0,0,0
14087,11.42,1,32,7,j,4,802,1,0,0,0,0,0,0,0
14087,11.42,1,33,8,f,12,643,1,0,0,0,0,0,0,0
14087,11.42,1,34,9,j,14,782,1,0,0,0,0,0,0,0
14087,11.42,1,35,6,f,3,641,1,0,0,0,0,0,0,0
14087,11.42,1,36,5,f,13,650,1,0,0,0,0,0,0,0
14087,11.42,1,37,6,j,3,762,1,0,0,0,0,0,0,0
14087,11.42,1,38,8,j,12,817,1,0,0,0,0,0,0,0
14087,11.42,1,39,9,f,14,669,1,0,0,0,0,0,0,0
14087,11.42,1,40,8,j,12,617,1,0,0,0,0,0,0,0
14087,11.42,1,41,7,f,4,618,1,0,0,0,0,0,0,0
14087,11.42,1,42,9,j,14,564,1,0,0,0,0,0,0,0
14087,11.42,1,43,7,f,4,584,1,0,0,0,0,0,0,0
14087,11.42,1,44,9,j,14,622,1,0,0,0,0,0,0,0
14087,11.42,1,45,6,j,3,841,1,0,0,0,0,0,0,0
14087,11.42,1,46,7,j,4,763,1,0,0,0,0,0,0,0
14087,11.42,1,47,8,f,12,530,1,0,0,0,0,0,0,0
14087,11.42,1,48,9,j,14,760,1,0,0,0,0,0,0,0
14087,11.42,1,49,10,f,2,648,1,0,0,0,0,0,0,0
14087,11.42,1,50,9,f,14,732,1,0,0,0,0,0,0,0
14087,11.42,1,51,10,f,2,660,1,0,0,0,0,0,0,0
14087,11.42,1,52,7,j,4,946,1,0,0,0,0,0,0,0
14087,11.42,1,53,6,j,3,703,1,0,0,0,0,0,0,0
14087,11.42,1,54,5,f,13,841,1,0,0,0,0,0,0,0
14087,11.42,1,55,2,f,1,640,1,0,0,0,0,0,0,0
14087,11.42,1,56,4,f,15,702,1,0,0,0,0,0,0,0
14087,11.42,1,57,5,f,13,611,1,0,0,0,0,0,0,0
14087,11.42,1,58,3,j,10,949,0,0,0,0,0,0,0,0
14087,11.42,1,59,4,f,15,828,1,0,0,0,0,0,0,0
14087,11.42,1,60,5,f,13,690,1,0,0,0,0,0,0,0
14087,11.42,1,61,6,f,3,729,1,0,0,0,0,0,0,0
14087,11.42,1,62,5,f,13,663,1,0,0,0,0,0,0,0
14087,11.42,1,63,3,j,10,759,1,0,0,0,0,0,0,0
14087,11.42,1,64,1,j,6,736,1,0,0,0,0,0,0,0
14087,11.42,1,65,2,f,1,603,0,0,0,0,0,0,0,0
14087,11.42,1,66,1,j,6,755,1,0,0,0,0,0,0,0
14087,11.42,1,67,4,j,15,1149,1,0,0,0,0,0,0,0
14087,11.42,1,68,2,j,1,804,1,0,0,0,0,0,0,0
14087,11.42,1,69,5,f,13,615,1,0,0,0,0,0,0,0
14087,11.42,1,70,4,j,15,751,1,0,0,0,0,0,0,0
14087,11.42,1,71,3,j,10,589,1,0,0,0,0,0,0,0
14087,11.42,1,72,4,f,15,668,1,0,0,0,0,0,0,0
14087,11.42,1,73,5,j,13,691,1,0,0,0,0,0,0,0
14087,11.42,1,74,3,f,10,883,1,0,0,0,0,0,0,0
14087,11.42,1,75,2,j,1,851,1,0,0,0,0,0,0,0
14087,11.42,1,76,5,f,13,852,1,0,0,0,0,0,0,0
14087,11.42,1,77,2,f,1,848,1,0,0,0,0,0,0,0
14087,11.42,1,78,3,f,10,922,1,0,0,0,0,0,0,0
14087,11.42,1,79,5,f,13,861,1,0,0,0,0,0,0,0
14087,11.42,1,80,2,f,1,698,1,0,0,0,0,0,0,0
14087,11.42,1,81,1,f,6,671,1,0,0,0,0,0,0,0
14087,11.42,1,82,4,j,15,863,1,0,0,0,0,0,0,0
14087,11.42,1,83,1,j,6,1154,1,0,0,0,0,0,0,0
14087,11.42,1,84,2,j,1,819,1,0,0,0,0,0,0,0
14087,11.42,1,85,4,f,15,919,1,0,0,0,0,0,0,0
14087,11.42,1,86,1,j,6,1010,1,0,0,0,0,0,0,0
14087,11.42,1,87,3,f,10,724,1,0,0,0,0,0,0,0
14087,11.42,1,88,4,f,15,988,1,0,0,0,0,0,0,0
14087,11.42,1,89,3,j,10,728,1,0,0,0,0,0,0,0
14087,11.42,1,90,1,f,6,967,1,0,0,0,0,0,0,0
14087,11.42,1,91,2,f,1,777,1,0,0,0,0,0,0,0
14087,11.42,1,92,4,j,15,875,1,0,0,0,0,0,0,0
14087,11.42,1,93,5,f,13,641,1,0,0,0,0,0,0,0
14087,11.42,1,94,6,f,3,979,1,0,0,0,0,0,0,0
14087,11.42,1,95,8,j,12,1016,1,0,0,0,0,0,0,0
14087,11.42,1,96,7,f,4,809,0,0,0,0,0,0,0,0
14087,11.42,1,97,6,j,3,1073,1,0,0,0,0,0,0,0
14087,11.42,1,98,8,f,12,695,1,0,0,0,0,0,0,0
14087,11.42,1,99,6,j,3,1098,1,0,0,0,0,0,0,0
14087,11.42,1,100,7,j,4,633,1,0,0,0,0,0,0,0
14087,11.42,1,101,6,j,3,767,1,0,0,0,0,0,0,0
14087,11.42,1,102,8,f,12,749,1,0,0,0,0,0,0,0
14087,11.42,1,103,10,f,2,617,1,0,0,0,0,0,0,0
14087,11.42,1,104,11,f,11,720,1,0,0,0,0,0,0,0
14087,11.42,1,105,10,f,2,683,1,0,0,0,0,0,0,0
14087,11.42,1,106,9,j,14,1115,1,0,0,0,0,0,0,0
14087,11.42,1,107,6,j,3,761,1,0,0,0,0,0,0,0
14087,11.42,1,108,8,j,12,967,1,0,0,0,0,0,0,0
14087,11.42,1,109,10,f,2,1106,1,0,0,0,0,0,0,0
14087,11.42,1,110,9,j,14,725,1,0,0,0,0,0,0,0
14087,11.42,1,111,7,f,4,909,1,0,0,0,0,0,0,0
14087,11.42,1,112,6,j,3,927,1,0,0,0,0,0,0,0
14087,11.42,1,113,5,j,13,688,1,0,0,0,0,0,0,0
14087,11.42,1,114,3,f,10,653,1,0,0,0,0,0,0,0
14087,11.42,1,115,4,j,15,941,1,0,0,0,0,0,0,0
14087,11.42,1,116,2,j,1,698,1,0,0,0,0,0,0,0
14087,11.42,1,117,1,j,6,678,1,0,0,0,0,0,0,0
14087,11.42,1,118,15,f,5,824,1,0,0,0,0,0,0,0
14087,11.42,1,119,1,j,6,644,1,0,0,0,0,0,0,0
14087,11.42,1,120,2,f,1,614,1,0,0,0,0,0,0,0
14087,11.42,1,121,4,f,15,806,1,0,0,0,0,0,0,0
14087,11.42,1,122,2,j,1,592,1,0,0,0,0,0,0,0
14087,11.42,1,123,3,f,10,528,1,0,0,0,0,0,0,0
14087,11.42,1,124,2,f,1,976,1,0,0,0,0,0,0,0
14087,11.42,1,125,3,f,10,692,1,0,0,0,0,0,0,0
14087,11.42,1,126,1,j,6,802,1,0,0,0,0,0,0,0
14087,11.42,1,127,3,j,10,672,0,0,0,0,0,0,0,0
14087,11.42,1,128,5,f,13,694,1,0,0,0,0,0,0,0
14087,11.42,1,129,6,j,3,821,1,0,0,0,0,0,0,0
14087,11.42,1,130,8,f,12,783,1,0,0,0,0,0,0,0
14087,11.42,1,131,9,f,14,720,1,0,0,0,0,0,0,0
14087,11.42,1,132,7,j,4,775,1,0,0,0,0,0,0,0
14087,11.42,1,133,8,f,12,715,1,0,0,0,0,0,0,0
14087,11.42,1,134,7,f,4,683,1,0,0,0,0,0,0,0
14087,11.42,1,135,8,j,12,764,1,0,0,0,0,0,0,0
14087,11.42,1,136,9,j,14,798,1,0,0,0,0,0,0,0
14087,11.42,1,137,10,f,2,748,1,0,0,0,0,0,0,0
14087,11.42,1,138,11,j,11,917,1,0,0,0,0,0,0,0
14087,11.42,1,139,14,f,9,830,1,0,0,0,0,0,0,0
14087,11.42,1,140,13,f,8,786,1,0,0,0,0,0,0,0
14087,11.42,1,141,11,f,11,679,1,0,0,0,0,0,0,0
14087,11.42,1,142,12,j,7,835,1,0,0,0,0,0,0,0
14087,11.42,1,143,13,j,8,1051,1,0,0,0,0,0,0,0
14087,11.42,1,144,11,j,11,666,1,0,0,0,0,0,0,0
14087,11.42,1,145,12,j,7,706,1,0,0,0,0,0,0,0
14087,11.42,1,146,13,f,8,779,1,0,0,0,0,0,0,0
14087,11.42,1,147,11,j,11,854,1,0,0,0,0,0,0,0
14087,11.42,1,148,13,f,8,815,1,0,0,0,0,0,0,0
14087,11.42,1,149,15,j,5,749,1,0,0,0,0,0,0,0
14087,11.42,1,150,13,j,8,863,1,0,0,0,0,0,0,0
14087,11.42,1,151,11,j,11,704,1,0,0,0,0,0,0,0
14087,11.42,1,152,14,f,9,617,1,0,0,0,0,0,0,0
14087,11.42,1,153,12,f,7,722,1,0,0,0,0,0,0,0
14087,11.42,1,154,13,f,8,824,1,0,0,0,0,0,0,0
14087,11.42,1,155,12,f,7,775,1,0,0,0,0,0,0,0
14087,11.42,1,156,11,f,11,734,1,0,0,0,0,0,0,0
14087,11.42,1,157,12,f,7,703,1,0,0,0,0,0,0,0
14087,11.42,1,158,15,f,5,608,1,0,0,0,0,0,0,0
14087,11.42,1,159,12,f,7,688,1,0,0,0,0,0,0,0
14087,11.42,1,160,13,j,8,698,1,0,0,0,0,0,0,0
14087,11.42,1,161,14,f,9,669,1,0,0,0,0,0,0,0
14087,11.42,1,162,15,j,5,566,1,0,0,0,0,0,0,0
14087,11.42,1,163,13,f,8,717,1,0,0,0,0,0,0,0
14087,11.42,1,164,15,f,5,751,1,0,0,0,0,0,0,0
14087,11.42,1,165,13,j,8,847,1,0,0,0,0,0,0,0
14087,11.42,1,166,15,f,5,659,1,0,0,0,0,0,0,0
14087,11.42,1,167,12,j,7,857,1,0,0,0,0,0,0,0
14087,11.42,1,168,13,f,8,651,1,0,0,0,0,0,0,0
14087,11.42,1,169,15,j,5,671,1,0,0,0,0,0,0,0
14087,11.42,1,170,13,j,8,778,1,0,0,0,0,0,0,0
14087,11.42,1,171,15,j,5,604,1,0,0,0,0,0,0,0
14087,11.42,1,172,1,j,6,808,1,0,0,0,0,0,0,0
14087,11.42,1,173,15,f,5,778,1,0,0,0,0,0,0,0
14087,11.42,1,174,1,f,6,801,0,0,0,0,0,0,0,0
14087,11.42,1,175,2,f,1,961,0,0,0,0,0,0,0,0
14087,11.42,1,176,4,j,15,1196,1,0,0,0,0,0,0,0
14087,11.42,1,177,1,j,6,958,0,0,0,0,0,0,0,0
14087,11.42,1,178,4,f,15,786,1,0,0,0,0,0,0,0
14087,11.42,1,179,1,j,6,716,1,0,0,0,0,0,0,0
14087,11.42,1,180,2,j,1,1032,1,0,0,0,0,0,0,0
14087,11.42,1,181,5,f,13,644,1,0,0,0,0,0,0,0
14087,11.42,1,182,4,j,15,1006,1,0,0,0,0,0,0,0
14087,11.42,1,183,3,f,10,764,1,0,0,0,0,0,0,0
14087,11.42,1,184,2,f,1,947,1,0,0,0,0,0,0,0
14087,11.42,1,185,3,f,10,597,1,0,0,0,0,0,0,0
14087,11.42,1,186,2,f,1,702,1,0,0,0,0,0,0,0
14087,11.42,1,187,5,f,13,758,1,0,0,0,0,0,0,0
14087,11.42,1,188,6,f,3,675,1,0,0,0,0,0,0,0
14087,11.42,1,189,8,j,12,821,1,0,0,0,0,0,0,0
14087,11.42,1,190,6,f,3,654,1,0,0,0,0,0,0,0
14087,11.42,1,191,5,f,13,622,1,0,0,0,0,0,0,0
14087,11.42,1,192,3,j,10,547,0,0,0,0,0,0,0,0
14087,11.42,1,193,1,j,6,579,1,0,0,0,0,0,0,0
14087,11.42,1,194,4,j,15,790,1,0,0,0,0,0,0,0
14087,11.42,1,195,3,f,10,697,1,0,0,0,0,0,0,0
14087,11.42,1,196,5,f,13,809,1,0,0,0,0,0,0,0
14087,11.42,1,197,3,f,10,842,1,0,0,0,0,0,0,0
14087,11.42,1,198,4,f,15,1220,1,0,0,0,0,0,0,0
14087,11.42,1,199,1,f,6,882,0,0,0,0,0,0,0,0
14087,11.42,1,200,2,f,1,651,1,0,0,0,0,0,0,0
14087,11.42,1,201,5,j,13,753,1,0,0,0,0,0,0,0
14087,11.42,1,202,4,j,15,1073,1,0,0,0,0,0,0,0
14087,11.42,1,203,2,f,1,547,1,0,0,0,0,0,0,0
14087,11.42,1,204,5,f,13,696,1,0,0,0,0,0,0,0
14087,11.42,1,205,6,f,3,830,1,0,0,0,0,0,0,0
14087,11.42,1,206,9,j,14,697,1,0,0,0,0,0,0,0
14087,11.42,1,207,7,j,4,843,1,0,0,0,0,0,0,0
14087,11.42,1,208,8,f,12,813,1,0,0,0,0,0,0,0
14087,11.42,1,209,6,f,3,671,1,0,0,0,0,0,0,0
14087,11.42,1,210,5,j,13,765,1,0,0,0,0,0,0,0
14087,11.42,1,211,2,j,1,845,1,0,0,0,0,0,0,0
14087,11.42,1,212,4,f,15,767,1,0,0,0,0,0,0,0
14087,11.42,1,213,3,j,10,805,1,0,0,0,0,0,0,0
14087,11.42,1,214,5,f,13,681,1,0,0,0,0,0,0,0
14087,11.42,1,215,6,f,3,771,1,0,0,0,0,0,0,0
14087,11.42,1,216,8,f,12,744,1,0,0,0,0,0,0,0
14087,11.42,1,217,10,j,2,950,1,0,0,0,0,0,0,0
14087,11.42,1,218,7,j,4,673,1,0,0,0,0,0,0,0
14087,11.42,1,219,6,j,3,664,1,0,0,0,0,0,0,0
14087,11.42,1,220,9,j,14,674,1,0,0,0,0,0,0,0
14087,11.42,1,221,10,f,2,766,1,0,0,0,0,0,0,0
14087,11.42,1,222,7,j,4,969,1,0,0,0,0,0,0,0
14087,11.42,1,223,8,j,12,1014,1,0,0,0,0,0,0,0
14087,11.42,1,224,9,f,14,852,1,0,0,0,0,0,0,0
14087,11.42,1,225,10,f,2,755,1,0,0,0,0,0,0,0
14087,11.42,1,226,8,f,12,944,1,0,0,0,0,0,0,0
14087,11.42,1,227,10,f,2,606,1,0,0,0,0,0,0,0
14087,11.42,1,228,11,j,11,777,1,0,0,0,0,0,0,0
14087,11.42,1,229,14,f,9,1113,1,0,0,0,0,0,0,0
14087,11.42,1,230,12,f,7,952,1,0,0,0,0,0,0,0
14087,11.42,1,231,11,f,11,732,1,0,0,0,0,0,0,0
14087,11.42,1,232,12,f,7,729,1,0,0,0,0,0,0,0
14087,11.42,1,233,14,j,9,779,1,0,0,0,0,0,0,0
14087,11.42,1,234,13,f,8,926,1,0,0,0,0,0,0,0
14087,11.42,1,235,14,j,9,759,1,0,0,0,0,0,0,0
14087,11.42,1,236,13,f,8,683,1,0,0,0,0,0,0,0
14087,11.42,1,237,15,f,5,1216,1,0,0,0,0,0,0,0
14087,11.42,1,238,14,f,9,730,0,0,0,0,0,0,0,0
14087,11.42,1,239,11,f,11,603,1,0,0,0,0,0,0,0
14087,11.42,1,240,12,f,7,638,1,0,0,0,0,0,0,0
14087,11.42,1,241,15,j,5,660,1,0,0,0,0,0,0,0
14087,11.42,1,242,12,j,7,0,0,0,0,0,0,0,0,0
14087,11.42,1,243,11,j,11,219,1,0,0,0,0,0,0,0
14087,11.42,1,244,14,f,9,140,0,0,0,0,0,0,0,0
14087,11.42,1,245,11,f,11,769,1,0,0,0,0,0,0,0
14087,11.42,1,246,10,f,2,678,1,0,0,0,0,0,0,0
14087,11.42,1,247,7,j,4,736,1,0,0,0,0,0,0,0
14087,11.42,1,248,8,j,12,1104,1,0,0,0,0,0,0,0
14087,11.42,1,249,7,j,4,732,1,0,0,0,0,0,0,0
14087,11.42,1,250,10,f,2,684,1,0,0,0,0,0,0,0
14087,11.42,1,251,7,f,4,711,1,0,0,0,0,0,0,0
14087,11.42,1,252,6,j,3,678,0,0,0,0,0,0,0,0
14087,11.42,1,253,5,j,13,623,1,0,0,0,0,0,0,0
14087,11.42,1,254,2,f,1,724,1,0,0,0,0,0,0,0
14087,11.42,1,255,1,f,6,1090,0,0,0,0,0,0,0,0
14087,11.42,1,256,15,j,5,719,1,0,0,0,0,0,0,0
14087,11.42,1,257,13,f,8,615,1,0,0,0,0,0,0,0
14087,11.42,1,258,15,f,5,1224,1,0,0,0,0,0,0,0
14087,11.42,1,259,13,j,8,880,1,0,0,0,0,0,0,0
14087,11.42,1,260,11,f,11,832,1,0,0,0,0,0,0,0
14087,11.42,1,261,13,f,8,972,1,0,0,0,0,0,0,0
14087,11.42,1,262,11,f,11,631,1,0,0,0,0,0,0,0
14087,11.42,1,263,10,f,2,696,1,0,0,0,0,0,0,0
14087,11.42,1,264,8,j,12,774,1,0,0,0,0,0,0,0
14087,11.42,1,265,10,f,2,714,1,0,0,0,0,0,0,0
14087,11.42,1,266,9,f,14,677,1,0,0,0,0,0,0,0
14087,11.42,1,267,7,f,4,641,1,0,0,0,0,0,0,0
14087,11.42,1,268,8,f,12,615,1,0,0,0,0,0,0,0
14087,11.42,1,269,10,f,2,653,1,0,0,0,0,0,0,0
14087,11.42,1,270,8,f,12,697,1,0,0,0,0,0,0,0
14087,11.42,1,271,9,f,14,738,1,0,0,0,0,0,0,0
14087,11.42,1,272,6,f,3,610,1,0,0,0,0,0,0,0
14087,11.42,1,273,7,f,4,608,1,0,0,0,0,0,0,0
14087,11.42,1,274,9,j,14,630,1,0,0,0,0,0,0,0
14087,11.42,1,275,6,f,3,844,1,0,0,0,0,0,0,0
14087,11.42,1,276,5,j,13,661,1,0,0,0,0,0,0,0
14087,11.42,1,277,2,j,1,858,0,0,0,0,0,0,0,0
14087,11.42,1,278,1,f,6,810,1,0,0,0,0,0,0,0
14087,11.42,1,279,2,f,1,744,1,0,0,0,0,0,0,0
14087,11.42,1,280,1,j,6,658,1,0,0,0,0,0,0,0
14087,11.42,1,281,2,f,1,646,1,0,0,0,0,0,0,0
14087,11.42,1,282,1,j,6,851,1,0,0,0,0,0,0,0
14087,11.42,1,283,4,f,15,608,1,0,0,0,0,0,0,0
14087,11.42,1,284,1,f,6,683,1,0,0,0,0,0,0,0
14087,11.42,1,285,3,f,10,688,1,0,0,0,0,0,0,0
14087,11.42,1,286,1,j,6,683,1,0,0,0,0,0,0,0
14087,11.42,1,287,2,f,1,563,1,0,0,0,0,0,0,0
14087,11.42,1,288,4,j,15,798,1,0,0,0,0,0,0,0
14087,11.42,1,289,5,f,13,616,1,0,0,0,0,0,0,0
14087,11.42,1,290,6,j,3,641,1,0,0,0,0,0,0,0
14087,11.42,1,291,7,f,4,472,1,0,0,0,0,0,0,0
14087,11.42,1,292,6,j,3,568,1,0,0,0,0,0,0,0
14087,11.42,1,293,8,j,12,692,1,0,0,0,0,0,0,0
14087,11.42,1,294,9,f,14,712,1,0,0,0,0,0,0,0
14087,11.42,1,295,7,f,4,701,1,0,0,0,0,0,0,0
14087,11.42,1,296,6,f,3,571,1,0,0,0,0,0,0,0
14087,11.42,1,297,9,f,14,680,1,0,0,0,0,0,0,0
14087,11.42,1,298,7,j,4,762,1,0,0,0,0,0,0,0
14087,11.42,1,299,8,f,12,651,1,0,0,0,0,0,0,0
14087,11.42,1,300,9,j,14,643,1,0,0,0,0,0,0,0
14087,11.42,2,1,3,f,10,26,0,0,0,0,0,0,0,0
14087,11.42,2,2,5,f,13,655,1,0,0,0,0,0,0,0
14087,11.42,2,3,4,j,15,618,1,0,0,0,0,0,0,0
14087,11.42,2,4,5,f,13,714,1,0,0,0,0,0,0,0
14087,11.42,2,5,3,j,10,642,1,0,0,0,0,0,0,0
14087,11.42,2,6,5,f,13,492,1,0,0,0,0,0,0,0
14087,11.42,2,7,6,j,3,776,1,0,0,0,0,0,0,0
14087,11.42,2,8,9,j,14,861,1,0,0,0,0,0,0,0
14087,11.42,2,9,7,j,4,778,1,0,0,0,0,0,0,0
14087,11.42,2,10,6,j,3,763,1,0,0,0,0,0,0,0
14087,11.42,2,11,8,j,12,716,1,0,0,0,0,0,0,0
14087,11.42,2,12,7,j,4,806,1,0,0,0,0,0,0,0
14087,11.42,2,13,8,j,12,698,1,0,0,0,0,0,0,0
14087,11.42,2,14,9,j,14,752,1,0,0,0,0,0,0,0
14087,11.42,2,15,7,f,4,758,1,0,0,0,0,0,0,0
14087,11.42,2,16,6,f,3,619,1,0,0,0,0,0,0,0
14087,11.42,2,17,9,f,14,723,1,0,0,0,0,0,0,0
14087,11.42,2,18,8,f,12,789,1,0,0,0,0,0,0,0
14087,11.42,2,19,7,j,4,653,1,0,0,0,0,0,0,0
14087,11.42,2,20,8,j,12,719,0,0,0,0,0,0,0,0
14087,11.42,2,21,9,f,14,1124,1,0,0,0,0,0,0,0
14087,11.42,2,22,7,f,4,724,0,0,0,0,0,0,0,0
14087,11.42,2,23,10,j,2,884,1,0,0,0,0,0,0,0
14087,11.42,2,24,8,f,12,746,1,0,0,0,0,0,0,0
14087,11.42,2,25,9,j,14,675,1,0,0,0,0,0,0,0
14087,11.42,2,26,7,f,4,691,1,0,0,0,0,0,0,0
14087,11.42,2,27,6,f,3,678,1,0,0,0,0,0,0,0
14087,11.42,2,28,5,f,13,757,1,0,0,0,0,0,0,0
14087,11.42,2,29,6,j,3,652,1,0,0,0,0,0,0,0
14087,11.42,2,30,5,j,13,679,1,0,0,0,0,0,0,0
14087,11.42,2,31,2,f,1,711,1,0,0,0,0,0,0,0
14087,11.42,2,32,5,j,13,684,1,0,0,0,0,0,0,0
14087,11.42,2,33,4,j,15,749,1,0,0,0,0,0,0,0
14087,11.42,2,34,3,f,10,659,1,0,0,0,0,0,0,0
14087,11.42,2,35,4,j,15,889,1,0,0,0,0,0,0,0
14087,11.42,2,36,5,j,13,806,1,0,0,0,0,0,0,0
14087,11.42,2,37,3,f,10,615,1,0,0,0,0,0,0,0
14087,11.42,2,38,2,f,1,814,1,0,0,0,0,0,0,0
14087,11.42,2,39,3,j,10,650,1,0,0,0,0,0,0,0
14087,11.42,2,40,2,f,1,634,1,0,0,0,0,0,0,0
14087,11.42,2,41,5,j,13,679,1,0,0,0,0,0,0,0
14087,11.42,2,42,2,f,1,592,1,0,0,0,0,0,0,0
14087,11.42,2,43,3,j,10,658,1,0,0,0,0,0,0,0
14087,11.42,2,44,2,j,1,589,0,0,0,0,0,0,0,0
14087,11.42,2,45,4,f,15,518,1,0,0,0,0,0,0,0
14087,11.42,2,46,1,f,6,722,0,0,0,0,0,0,0,0
14087,11.42,2,47,4,j,15,810,1,0,0,0,0,0,0,0
14087,11.42,2,48,5,f,13,595,1,0,0,0,0,0,0,0
14087,11.42,2,49,2,f,1,682,1,0,0,0,0,0,0,0
14087,11.42,2,50,1,j,6,1239,1,0,0,0,0,0,0,0
14087,11.42,2,51,15,j,5,606,0,0,0,0,0,0,0,0
14087,11.42,2,52,13,j,8,734,1,0,0,0,0,0,0,0
14087,11.42,2,53,14,j,9,877,1,0,0,0,0,0,0,0
14087,11.42,2,54,12,j,7,758,1,0,0,0,0,0,0,0
14087,11.42,2,55,13,f,8,908,1,0,0,0,0,0,0,0
14087,11.42,2,56,11,f,11,1022,1,0,0,0,0,0,0,0
14087,11.42,2,57,13,j,8,1179,1,0,0,0,0,0,0,0
14087,11.42,2,58,11,f,11,647,1,0,0,0,0,0,0,0
14087,11.42,2,59,10,f,2,908,1,0,0,0,0,0,0,0
14087,11.42,2,60,11,j,11,623,1,0,0,0,0,0,0,0
14087,11.42,2,61,12,j,7,694,1,0,0,0,0,0,0,0
14087,11.42,2,62,11,j,11,745,1,0,0,0,0,0,0,0
14087,11.42,2,63,12,j,7,683,1,0,0,0,0,0,0,0
14087,11.42,2,64,13,j,8,747,1,0,0,0,0,0,0,0
14087,11.42,2,65,14,j,9,815,1,0,0,0,0,0,0,0
14087,11.42,2,66,12,f,7,659,1,0,0,0,0,0,0,0
14087,11.42,2,67,15,j,5,936,1,0,0,0,0,0,0,0
14087,11.42,2,68,12,j,7,678,1,0,0,0,0,0,0,0
14087,11.42,2,69,15,f,5,813,1,0,0,0,0,0,0,0
14087,11.42,2,70,13,f,8,686,1,0,0,0,0,0,0,0
14087,11.42,2,71,12,j,7,730,1,0,0,0,0,0,0,0
14087,11.42,2,72,13,j,8,769,1,0,0,0,0,0,0,0
14087,11.42,2,73,15,f,5,747,0,0,0,0,0,0,0,0
14087,11.42,2,74,14,f,9,704,1,0,0,0,0,0,0,0
14087,11.42,2,75,11,f,11,720,1,0,0,0,0,0,0,0
14087,11.42,2,76,12,f,7,764,1,0,0,0,0,0,0,0
14087,11.42,2,77,15,f,5,735,1,0,0,0,0,0,0,0
14087,11.42,2,78,13,f,8,727,1,0,0,0,0,0,0,0
14087,11.42,2,79,15,f,5,621,1,0,0,0,0,0,0,0
14087,11.42,2,80,12,j,7,376,0,0,0,0,0,0,0,0
14087,11.42,2,81,13,j,8,966,1,0,0,0,0,0,0,0
14087,11.42,2,82,15,j,5,750,1,0,0,0,0,0,0,0
14087,11.42,2,83,12,j,7,615,1,0,0,0,0,0,0,0
14087,11.42,2,84,14,f,9,730,1,0,0,0,0,0,0,0
14087,11.42,2,85,13,j,8,636,1,0,0,0,0,0,0,0
14087,11.42,2,86,11,f,11,595,1,0,0,0,0,0,0,0
14087,11.42,2,87,13,f,8,725,1,0,0,0,0,0,0,0
14087,11.42,2,88,11,f,11,767,0,0,0,0,0,0,0,0
14087,11.42,2,89,12,j,7,453,1,0,0,0,0,0,0,0
14087,11.42,2,90,13,j,8,832,0,0,0,0,0,0,0,0
14087,11.42,2,91,14,f,9,557,1,0,0,0,0,0,0,0
14087,11.42,2,92,13,f,8,1178,1,0,0,0,0,0,0,0
14087,11.42,2,93,15,f,5,793,1,0,0,0,0,0,0,0
14087,11.42,2,94,12,j,7,719,1,0,0,0,0,0,0,0
14087,11.42,2,95,15,j,5,692,1,0,0,0,0,0,0,0
14087,11.42,2,96,1,j,6,676,1,0,0,0,0,0,0,0
14087,11.42,2,97,2,j,1,643,1,0,0,0,0,0,0,0
14087,11.42,2,98,1,f,6,631,1,0,0,0,0,0,0,0
14087,11.42,2,99,15,f,5,0,0,0,0,0,0,0,0,0
14087,11.42,2,100,14,f,9,1,0,0,0,0,0,0,0,0
14087,11.42,2,101,12,f,7,684,1,0,0,0,0,0,0,0
14087,11.42,2,102,11,j,11,743,1,0,0,0,0,0,0,0
14087,11.42,2,103,14,j,9,828,1,0,0,0,0,0,0,0
14087,11.42,2,104,13,f,8,971,1,0,0,0,0,0,0,0
14087,11.42,2,105,11,j,11,545,1,0,0,0,0,0,0,0
14087,11.42,2,106,13,j,8,807,0,0,0,0,0,0,0,0
14087,11.42,2,107,12,j,7,731,1,0,0,0,0,0,0,0
14087,11.42,2,108,11,j,11,591,1,0,0,0,0,0,0,0
14087,11.42,2,109,14,j,9,542,1,0,0,0,0,0,0,0
14087,11.42,2,110,12,f,7,689,1,0,0,0,0,0,0,0
14087,11.42,2,111,14,f,9,638,1,0,0,0,0,0,0,0
14087,11.42,2,112,12,j,7,711,1,0,0,0,0,0,0,0
14087,11.42,2,113,13,j,8,784,1,0,0,0,0,0,0,0
14087,11.42,2,114,12,j,7,816,1,0,0,0,0,0,0,0
14087,11.42,2,115,13,j,8,561,1,0,0,0,0,0,0,0
14087,11.42,2,116,12,j,7,755,1,0,0,0,0,0,0,0
14087,11.42,2,117,11,j,11,581,1,0,0,0,0,0,0,0
14087,11.42,2,118,14,j,9,599,1,0,0,0,0,0,0,0
14087,11.42,2,119,15,f,5,597,0,0,0,0,0,0,0,0
14087,11.42,2,120,13,f,8,847,1,0,0,0,0,0,0,0
14087,11.42,2,121,15,f,5,681,1,0,0,0,0,0,0,0
14087,11.42,2,122,12,j,7,830,1,0,0,0,0,0,0,0
14087,11.42,2,123,11,f,11,689,1,0,0,0,0,0,0,0
14087,11.42,2,124,10,f,2,0,0,0,0,0,0,0,0,0
14087,11.42,2,125,8,j,12,816,1,0,0,0,0,0,0,0
14087,11.42,2,126,9,j,14,669,1,0,0,0,0,0,0,0
14087,11.42,2,127,8,f,12,758,0,0,0,0,0,0,0,0
14087,11.42,2,128,10,f,2,872,1,0,0,0,0,0,0,0
14087,11.42,2,129,11,j,11,750,1,0,0,0,0,0,0,0
14087,11.42,2,130,13,f,8,639,1,0,0,0,0,0,0,0
14087,11.42,2,131,15,f,5,634,1,0,0,0,0,0,0,0
14087,11.42,2,132,14,j,9,695,1,0,0,0,0,0,0,0
14087,11.42,2,133,12,f,7,615,1,0,0,0,0,0,0,0
14087,11.42,2,134,11,f,11,626,1,0,0,0,0,0,0,0
14087,11.42,2,135,14,j,9,788,1,0,0,0,0,0,0,0
14087,11.42,2,136,13,j,8,677,1,0,0,0,0,0,0,0
14087,11.42,2,137,14,j,9,688,1,0,0,0,0,0,0,0
14087,11.42,2,138,15,j,5,626,1,0,0,0,0,0,0,0
14087,11.42,2,139,1,j,6,763,1,0,0,0,0,0,0,0
14087,11.42,2,140,4,j,15,720,1,0,0,0,0,0,0,0
14087,11.42,2,141,3,f,10,572,1,0,0,0,0,0,0,0
14087,11.42,2,142,2,j,1,760,1,0,0,0,0,0,0,0
14087,11.42,2,143,1,j,6,932,1,0,0,0,0,0,0,0
14087,11.42,2,144,2,j,1,516,1,0,0,0,0,0,0,0
14087,11.42,2,145,5,f,13,628,1,0,0,0,0,0,0,0
14087,11.42,2,146,2,j,1,741,1,0,0,0,0,0,0,0
14087,11.42,2,147,3,j,10,678,1,0,0,0,0,0,0,0
14087,11.42,2,148,4,j,15,741,1,0,0,0,0,0,0,0
14087,11.42,2,149,1,f,6,694,1,0,0,0,0,0,0,0
14087,11.42,2,150,2,f,1,698,1,0,0,0,0,0,0,0
14087,11.42,2,151,1,f,6,584,0,0,0,0,0,0,0,0
14087,11.42,2,152,4,f,15,740,1,0,0,0,0,0,0,0
14087,11.42,2,153,3,j,10,735,1,0,0,0,0,0,0,0
14087,11.42,2,154,1,j,6,956,1,0,0,0,0,0,0,0
14087,11.42,2,155,4,f,15,728,1,0,0,0,0,0,0,0
14087,11.42,2,156,1,j,6,547,1,0,0,0,0,0,0,0
14087,11.42,2,157,15,f,5,547,1,0,0,0,0,0,0,0
14087,11.42,2,158,13,f,8,620,1,0,0,0,0,0,0,0
14087,11.42,2,159,14,j,9,789,1,0,0,0,0,0,0,0
14087,11.42,2,160,13,j,8,650,0,0,0,0,0,0,0,0
14087,11.42,2,161,14,j,9,652,1,0,0,0,0,0,0,0
14087,11.42,2,162,15,f,5,545,1,0,0,0,0,0,0,0
14087,11.42,2,163,1,j,6,575,1,0,0,0,0,0,0,0
14087,11.42,2,164,15,j,5,632,1,0,0,0,0,0,0,0
14087,11.42,2,165,1,f,6,637,1,0,0,0,0,0,0,0
14087,11.42,2,166,15,f,5,606,0,0,0,0,0,0,0,0
14087,11.42,2,167,13,f,8,719,1,0,0,0,0,0,0,0
14087,11.42,2,168,14,f,9,545,1,0,0,0,0,0,0,0
14087,11.42,2,169,12,f,7,720,1,0,0,0,0,0,0,0
14087,11.42,2,170,13,j,8,650,1,0,0,0,0,0,0,0
14087,11.42,2,171,12,f,7,714,1,0,0,0,0,0,0,0
14087,11.42,2,172,13,f,8,752,1,0,0,0,0,0,0,0
14087,11.42,2,173,15,j,5,648,1,0,0,0,0,0,0,0
14087,11.42,2,174,13,f,8,690,1,0,0,0,0,0,0,0
14087,11.42,2,175,12,f,7,842,1,0,0,0,0,0,0,0
14087,11.42,2,176,15,f,5,596,1,0,0,0,0,0,0,0
14087,11.42,2,177,14,j,9,620,1,0,0,0,0,0,0,0
14087,11.42,2,178,11,j,11,764,1,0,0,0,0,0,0,0
14087,11.42,2,179,10,f,2,598,1,0,0,0,0,0,0,0
14087,11.42,2,180,8,j,12,629,1,0,0,0,0,0,0,0
14087,11.42,2,181,7,f,4,723,1,0,0,0,0,0,0,0
14087,11.42,2,182,9,j,14,718,1,0,0,0,0,0,0,0
14087,11.42,2,183,6,f,3,603,1,0,0,0,0,0,0,0
14087,11.42,2,184,8,f,12,785,1,0,0,0,0,0,0,0
14087,11.42,2,185,7,j,4,756,1,0,0,0,0,0,0,0
14087,11.42,2,186,6,f,3,586,1,0,0,0,0,0,0,0
14087,11.42,2,187,8,f,12,782,1,0,0,0,0,0,0,0
14087,11.42,2,188,9,f,14,698,1,0,0,0,0,0,0,0
14087,11.42,2,189,8,j,12,612,1,0,0,0,0,0,0,0
14087,11.42,2,190,9,f,14,695,1,0,0,0,0,0,0,0
14087,11.42,2,191,7,j,4,538,0,0,0,0,0,0,0,0
14087,11.42,2,192,9,j,14,745,1,0,0,0,0,0,0,0
14087,11.42,2,193,8,j,12,730,1,0,0,0,0,0,0,0
14087,11.42,2,194,7,j,4,672,1,0,0,0,0,0,0,0
14087,11.42,2,195,8,j,12,809,1,0,0,0,0,0,0,0
14087,11.42,2,196,9,j,14,882,1,0,0,0,0,0,0,0
14087,11.42,2,197,6,j,3,657,1,0,0,0,0,0,0,0
14087,11.42,2,198,7,f,4,538,0,0,0,0,0,0,0,0
14087,11.42,2,199,8,j,12,575,1,0,0,0,0,0,0,0
14087,11.42,2,200,9,j,14,446,1,0,0,0,0,0,0,0
14087,11.42,2,201,8,j,12,546,1,0,0,0,0,0,0,0
14087,11.42,2,202,6,f,3,396,0,0,0,0,0,0,0,0
14087,11.42,2,203,7,f,4,580,0,0,0,0,0,0,0,0
14087,11.42,2,204,9,j,14,644,1,0,0,0,0,0,0,0
14087,11.42,2,205,7,j,4,613,1,0,0,0,0,0,0,0
14087,11.42,2,206,10,f,2,704,1,0,0,0,0,0,0,0
14087,11.42,2,207,11,f,11,688,1,0,0,0,0,0,0,0
14087,11.42,2,208,12,j,7,740,1,0,0,0,0,0,0,0
14087,11.42,2,209,15,j,5,611,1,0,0,0,0,0,0,0
14087,11.42,2,210,12,f,7,777,1,0,0,0,0,0,0,0
14087,11.42,2,211,11,j,11,693,1,0,0,0,0,0,0,0
14087,11.42,2,212,10,f,2,513,1,0,0,0,0,0,0,0
14087,11.42,2,213,8,j,12,554,1,0,0,0,0,0,0,0
14087,11.42,2,214,10,j,2,727,1,0,0,0,0,0,0,0
14087,11.42,2,215,11,f,11,668,1,0,0,0,0,0,0,0
14087,11.42,2,216,13,f,8,704,0,0,0,0,0,0,0,0
14087,11.42,2,217,14,f,9,916,1,0,0,0,0,0,0,0
14087,11.42,2,218,11,j,11,649,1,0,0,0,0,0,0,0
14087,11.42,2,219,13,j,8,739,1,0,0,0,0,0,0,0
14087,11.42,2,220,12,f,7,632,1,0,0,0,0,0,0,0
14087,11.42,2,221,14,j,9,721,1,0,0,0,0,0,0,0
14087,11.42,2,222,11,f,11,713,1,0,0,0,0,0,0,0
14087,11.42,2,223,10,f,2,574,1,0,0,0,0,0,0,0
14087,11.42,2,224,11,j,11,687,1,0,0,0,0,0,0,0
14087,11.42,2,225,12,j,7,653,0,0,0,0,0,0,0,0
14087,11.42,2,226,14,j,9,769,1,0,0,0,0,0,0,0
14087,11.42,2,227,13,j,8,771,1,0,0,0,0,0,0,0
14087,11.42,2,228,12,f,7,707,1,0,0,0,0,0,0,0
14087,11.42,2,229,15,j,5,777,1,0,0,0,0,0,0,0
14087,11.42,2,230,12,f,7,660,1,0,0,0,0,0,0,0
14087,11.42,2,231,14,f,9,815,1,0,0,0,0,0,0,0
14087,11.42,2,232,15,f,5,767,1,0,0,0,0,0,0,0
14087,11.42,2,233,1,j,6,830,1,0,0,0,0,0,0,0
14087,11.42,2,234,2,j,1,661,1,0,0,0,0,0,0,0
14087,11.42,2,235,4,j,15,699,1,0,0,0,0,0,0,0
14087,11.42,2,236,2,j,1,554,1,0,0,0,0,0,0,0
14087,11.42,2,237,4,f,15,511,0,0,0,0,0,0,0,0
14087,11.42,2,238,3,f,10,588,1,0,0,0,0,0,0,0
14087,11.42,2,239,1,f,6,741,0,0,0,0,0,0,0,0
14087,11.42,2,240,3,j,10,589,1,0,0,0,0,0,0,0
14087,11.42,2,241,1,j,6,709,1,0,0,0,0,0,0,0
14087,11.42,2,242,2,f,1,550,1,0,0,0,0,0,0,0
14087,11.42,2,243,3,f,10,596,1,0,0,0,0,0,0,0
14087,11.42,2,244,4,f,15,688,1,0,0,0,0,0,0,0
14087,11.42,2,245,1,j,6,741,1,0,0,0,0,0,0,0
14087,11.42,2,246,3,f,10,543,1,0,0,0,0,0,0,0
14087,11.42,2,247,2,f,1,585,0,0,0,0,0,0,0,0
14087,11.42,2,248,3,f,10,666,1,0,0,0,0,0,0,0
14087,11.42,2,249,2,j,1,591,1,0,0,0,0,0,0,0
14087,11.42,2,250,5,f,13,567,1,0,0,0,0,0,0,0
14087,11.42,2,251,3,f,10,546,1,0,0,0,0,0,0,0
14087,11.42,2,252,4,j,15,577,1,0,0,0,0,0,0,0
14087,11.42,2,253,3,f,10,806,1,0,0,0,0,0,0,0
14087,11.42,2,254,2,f,1,811,1,0,0,0,0,0,0,0
14087,11.42,2,255,4,f,15,874,1,0,0,0,0,0,0,0
14087,11.42,2,256,3,f,10,875,1,0,0,0,0,0,0,0
14087,11.42,2,257,5,f,13,1073,1,0,0,0,0,0,0,0
14087,11.42,2,258,3,f,10,1085,1,0,0,0,0,0,0,0
14087,11.42,2,259,5,j,13,598,1,0,0,0,0,0,0,0
14087,11.42,2,260,6,j,3,731,1,0,0,0,0,0,0,0
14087,11.42,2,261,9,j,14,771,1,0,0,0,0,0,0,0
14087,11.42,2,262,10,f,2,658,1,0,0,0,0,0,0,0
14087,11.42,2,263,8,f,12,788,1,0,0,0,0,0,0,0
14087,11.42,2,264,9,f,14,696,1,0,0,0,0,0,0,0
14087,11.42,2,265,6,j,3,602,1,0,0,0,0,0,0,0
14087,11.42,2,266,5,f,13,619,1,0,0,0,0,0,0,0
14087,11.42,2,267,2,j,1,579,1,0,0,0,0,0,0,0
14087,11.42,2,268,3,f,10,470,1,0,0,0,0,0,0,0
14087,11.42,2,269,2,f,1,631,1,0,0,0,0,0,0,0
14087,11.42,2,270,3,j,10,678,1,0,0,0,0,0,0,0
14087,11.42,2,271,4,f,15,615,1,0,0,0,0,0,0,0
14087,11.42,2,272,3,j,10,527,1,0,0,0,0,0,0,0
14087,11.42,2,273,4,j,15,813,1,0,0,0,0,0,0,0
14087,11.42,2,274,1,f,6,619,1,0,0,0,0,0,0,0
14087,11.42,2,275,4,f,15,651,0,0,0,0,0,0,0,0
14087,11.42,2,276,5,f,13,631,1,0,0,0,0,0,0,0
14087,11.42,2,277,3,f,10,617,1,0,0,0,0,0,0,0
14087,11.42,2,278,1,j,6,605,1,0,0,0,0,0,0,0
14087,11.42,2,279,3,j,10,661,1,0,0,0,0,0,0,0
14087,11.42,2,280,2,j,1,647,1,0,0,0,0,0,0,0
14087,11.42,2,281,5,j,13,711,1,0,0,0,0,0,0,0
14087,11.42,2,282,6,j,3,796,1,0,0,0,0,0,0,0
14087,11.42,2,283,7,f,4,782,1,0,0,0,0,0,0,0
14087,11.42,2,284,8,f,12,707,1,0,0,0,0,0,0,0
14087,11.42,2,285,10,f,2,566,1,0,0,0,0,0,0,0
14087,11.42,2,286,8,j,12,519,1,0,0,0,0,0,0,0
14087,11.42,2,287,10,j,2,644,1,0,0,0,0,0,0,0
14087,11.42,2,288,9,j,14,515,1,0,0,0,0,0,0,0
14087,11.42,2,289,7,f,4,563,0,0,0,0,0,0,0,0
14087,11.42,2,290,8,j,12,570,1,0,0,0,0,0,0,0
14087,11.42,2,291,7,f,4,539,1,0,0,0,0,0,0,0
14087,11.42,2,292,6,j,3,752,1,0,0,0,0,0,0,0
14087,11.42,2,293,8,f,12,687,1,0,0,0,0,0,0,0
14087,11.42,2,294,6,f,3,746,0,0,0,0,0,0,0,0
14087,11.42,2,295,8,j,12,783,1,0,0,0,0,0,0,0
14087,11.42,2,296,7,j,4,632,0,0,0,0,0,0,0,0
14087,11.42,2,297,9,j,14,730,1,0,0,0,0,0,0,0
14087,11.42,2,298,6,j,3,639,1,0,0,0,0,0,0,0
14087,11.42,2,299,8,j,12,850,1,0,0,0,0,0,0,0
14087,11.42,2,300,9,f,14,640,1,0,0,0,0,0,0,0
14089,11.99,1,1,9,f,14,857,1,0,0,0,0,0,0,0
14089,11.99,1,2,10,f,2,774,1,0,0,0,0,0,0,0
14089,11.99,1,3,8,f,10,619,1,0,0,0,0,0,0,0
14089,11.99,1,4,10,f,2,597,1,0,0,0,0,0,0,0
14089,11.99,1,5,7,f,1,636,1,0,0,0,0,0,0,0
14089,11.99,1,6,6,j,9,694,1,0,0,0,0,0,0,0
14089,11.99,1,7,5,f,15,790,1,0,0,0,0,0,0,0
14089,11.99,1,8,4,f,13,758,1,0,0,0,0,0,0,0
14089,11.99,1,9,3,f,5,809,1,0,0,0,0,0,0,0
14089,11.99,1,10,1,f,8,741,1,0,0,0,0,0,0,0
14089,11.99,1,11,4,j,13,724,1,0,0,0,0,0,0,0
14089,11.99,1,12,5,f,15,658,1,0,0,0,0,0,0,0
14089,11.99,1,13,4,f,13,857,1,0,0,0,0,0,0,0
14089,11.99,1,14,3,j,5,658,1,0,0,0,0,0,0,0
14089,11.99,1,15,4,j,13,627,0,0,0,0,0,0,0,0
14089,11.99,1,16,1,j,8,757,1,0,0,0,0,0,0,0
14089,11.99,1,17,15,f,12,659,1,0,0,0,0,0,0,0
14089,11.99,1,18,12,j,3,701,1,0,0,0,0,0,0,0
14089,11.99,1,19,11,j,11,858,1,0,0,0,0,0,0,0
14089,11.99,1,20,10,j,2,764,1,0,0,0,0,0,0,0
14089,11.99,1,21,9,j,14,741,1,0,0,0,0,0,0,0
14089,11.99,1,22,6,f,9,675,1,0,0,0,0,0,0,0
14089,11.99,1,23,9,j,14,1020,1,0,0,0,0,0,0,0
14089,11.99,1,24,8,j,10,831,1,0,0,0,0,0,0,0
14089,11.99,1,25,10,f,2,691,1,0,0,0,0,0,0,0
14089,11.99,1,26,7,j,1,618,1,0,0,0,0,0,0,0
14089,11.99,1,27,10,j,2,580,1,0,0,0,0,0,0,0
14089,11.99,1,28,7,f,1,689,1,0,0,0,0,0,0,0
14089,11.99,1,29,8,f,10,918,1,0,0,0,0,0,0,0
14089,11.99,1,30,10,j,2,912,1,0,0,0,0,0,0,0
14089,11.99,1,31,11,f,11,866,1,0,0,0,0,0,0,0
14089,11.99,1,32,10,j,2,482,1,0,0,0,0,0,0,0
14089,11.99,1,33,8,f,10,485,1,0,0,0,0,0,0,0
14089,11.99,1,34,9,j,14,688,1,0,0,0,0,0,0,0
14089,11.99,1,35,8,f,10,754,1,0,0,0,0,0,0,0
14089,11.99,1,36,7,f,1,933,1,0,0,0,0,0,0,0
14089,11.99,1,37,8,f,10,638,1,0,0,0,0,0,0,0
14089,11.99,1,38,7,f,1,796,1,0,0,0,0,0,0,0
14089,11.99,1,39,8,f,10,737,1,0,0,0,0,0,0,0
14089,11.99,1,40,6,f,9,750,1,0,0,0,0,0,0,0
14089,11.99,1,41,8,f,10,749,1,0,0,0,0,0,0,0
14089,11.99,1,42,10,f,2,672,1,0,0,0,0,0,0,0
14089,11.99,1,43,9,f,14,793,1,0,0,0,0,0,0,0
14089,11.99,1,44,10,j,2,822,1,0,0,0,0,0,0,0
14089,11.99,1,45,8,f,10,535,1,0,0,0,0,0,0,0
14089,11.99,1,46,7,f,1,993,1,0,0,0,0,0,0,0
14089,11.99,1,47,9,j,14,758,1,0,0,0,0,0,0,0
14089,11.99,1,48,8,f,10,610,1,0,0,0,0,0,0,0
14089,11.99,1,49,9,f,14,533,1,0,0,0,0,0,0,0
14089,11.99,1,50,10,j,2,499,0,0,0,0,0,0,0,0
14089,11.99,1,51,8,j,10,590,1,0,0,0,0,0,0,0
14089,11.99,1,52,9,j,14,658,1,0,0,0,0,0,0,0
14089,11.99,1,53,10,j,2,768,1,0,0,0,0,0,0,0
14089,11.99,1,54,7,f,1,688,0,0,0,0,0,0,0,0
14089,11.99,1,55,6,f,9,925,0,0,0,0,0,0,0,0
14089,11.99,1,56,8,j,10,762,0,0,0,0,0,0,0,0
14089,11.99,1,57,10,j,2,924,1,0,0,0,0,0,0,0
14089,11.99,1,58,11,f,11,706,1,0,0,0,0,0,0,0
14089,11.99,1,59,14,j,7,944,1,0,0,0,0,0,0,0
14089,11.99,1,60,15,j,12,974,1,0,0,0,0,0,0,0
14089,11.99,1,61,12,f,3,839,1,0,0,0,0,0,0,0
14089,11.99,1,62,13,j,6,659,1,0,0,0,0,0,0,0
14089,11.99,1,63,12,j,3,1076,1,0,0,0,0,0,0,0
14089,11.99,1,64,13,j,6,947,1,0,0,0,0,0,0,0
14089,11.99,1,65,12,j,3,798,1,0,0,0,0,0,0,0
14089,11.99,1,66,13,f,6,783,1,0,0,0,0,0,0,0
14089,11.99,1,67,14,j,7,745,1,0,0,0,0,0,0,0
14089,11.99,1,68,11,f,11,1030,1,0,0,0,0,0,0,0
14089,11.99,1,69,13,j,6,644,1,0,0,0,0,0,0,0
14089,11.99,1,70,12,f,3,653,1,0,0,0,0,0,0,0
14089,11.99,1,71,15,f,12,892,1,0,0,0,0,0,0,0
14089,11.99,1,72,13,f,6,672,0,0,0,0,0,0,0,0
14089,11.99,1,73,11,j,11,761,1,0,0,0,0,0,0,0
14089,11.99,1,74,14,f,7,794,1,0,0,0,0,0,0,0
14089,11.99,1,75,12,j,3,611,1,0,0,0,0,0,0,0
14089,11.99,1,76,11,j,11,796,1,0,0,0,0,0,0,0
14089,11.99,1,77,13,f,6,877,1,0,0,0,0,0,0,0
14089,11.99,1,78,15,j,12,721,1,0,0,0,0,0,0,0
14089,11.99,1,79,14,f,7,716,1,0,0,0,0,0,0,0
14089,11.99,1,80,13,f,6,1126,1,0,0,0,0,0,0,0
14089,11.99,1,81,15,f,12,822,1,0,0,0,0,0,0,0
14089,11.99,1,82,1,f,8,836,1,0,0,0,0,0,0,0
14089,11.99,1,83,4,f,13,769,1,0,0,0,0,0,0,0
14089,11.99,1,84,2,f,4,759,1,0,0,0,0,0,0,0
14089,11.99,1,85,3,j,5,601,0,0,0,0,0,0,0,0
14089,11.99,1,86,1,j,8,703,1,0,0,0,0,0,0,0
14089,11.99,1,87,2,j,4,888,1,0,0,0,0,0,0,0
14089,11.99,1,88,5,j,15,911,1,0,0,0,0,0,0,0
14089,11.99,1,89,6,f,9,877,1,0,0,0,0,0,0,0
14089,11.99,1,90,7,j,1,1143,1,0,0,0,0,0,0,0
14089,11.99,1,91,8,f,10,990,1,0,0,0,0,0,0,0
14089,11.99,1,92,7,f,1,1185,1,0,0,0,0,0,0,0
14089,11.99,1,93,9,f,14,890,1,0,0,0,0,0,0,0
14089,11.99,1,94,8,j,10,823,0,0,0,0,0,0,0,0
14089,11.99,1,95,7,f,1,21,0,0,0,0,0,0,0,0
14089,11.99,1,96,6,f,9,776,1,0,0,0,0,0,0,0
14089,11.99,1,97,5,f,15,831,1,0,0,0,0,0,0,0
14089,11.99,1,98,3,j,5,750,1,0,0,0,0,0,0,0
14089,11.99,1,99,4,f,13,777,1,0,0,0,0,0,0,0
14089,11.99,1,100,5,j,15,728,1,0,0,0,0,0,0,0
14089,11.99,1,101,2,f,4,883,1,0,0,0,0,0,0,0
14089,11.99,1,102,3,j,5,803,1,0,0,0,0,0,0,0
14089,11.99,1,103,5,j,15,1153,0,0,0,0,0,0,0,0
14089,11.99,1,104,4,f,13,879,1,0,0,0,0,0,0,0
14089,11.99,1,105,5,f,15,161,0,0,0,0,0,0,0,0
14089,11.99,1,106,4,f,13,845,1,0,0,0,0,0,0,0
14089,11.99,1,107,1,f,8,854,1,0,0,0,0,0,0,0
14089,11.99,1,108,4,j,13,723,1,0,0,0,0,0,0,0
14089,11.99,1,109,5,j,15,968,1,0,0,0,0,0,0,0
14089,11.99,1,110,2,j,4,955,1,0,0,0,0,0,0,0
14089,11.99,1,111,3,j,5,746,1,0,0,0,0,0,0,0
14089,11.99,1,112,5,j,15,789,1,0,0,0,0,0,0,0
14089,11.99,1,113,4,j,13,751,1,0,0,0,0,0,0,0
14089,11.99,1,114,2,j,4,785,1,0,0,0,0,0,0,0
14089,11.99,1,115,5,f,15,801,1,0,0,0,0,0,0,0
14089,11.99,1,116,3,j,5,807,1,0,0,0,0,0,0,0
14089,11.99,1,117,2,f,4,758,1,0,0,0,0,0,0,0
14089,11.99,1,118,1,j,8,1037,1,0,0,0,0,0,0,0
14089,11.99,1,119,15,j,12,687,1,0,0,0,0,0,0,0
14089,11.99,1,120,13,f,6,637,1,0,0,0,0,0,0,0
14089,11.99,1,121,14,f,7,869,0,0,0,0,0,0,0,0
14089,11.99,1,122,12,j,3,800,1,0,0,0,0,0,0,0
14089,11.99,1,123,13,f,6,681,1,0,0,0,0,0,0,0
14089,11.99,1,124,15,j,12,701,1,0,0,0,0,0,0,0
14089,11.99,1,125,13,f,6,625,1,0,0,0,0,0,0,0
14089,11.99,1,126,11,f,11,737,1,0,0,0,0,0,0,0
14089,11.99,1,127,12,f,3,779,1,0,0,0,0,0,0,0
14089,11.99,1,128,14,f,7,740,1,0,0,0,0,0,0,0
14089,11.99,1,129,15,f,12,587,1,0,0,0,0,0,0,0
14089,11.99,1,130,14,j,7,748,1,0,0,0,0,0,0,0
14089,11.99,1,131,15,j,12,889,1,0,0,0,0,0,0,0
14089,11.99,1,132,13,f,6,878,1,0,0,0,0,0,0,0
14089,11.99,1,133,15,j,12,818,1,0,0,0,0,0,0,0
14089,11.99,1,134,14,j,7,798,1,0,0,0,0,0,0,0
14089,11.99,1,135,11,f,11,675,1,0,0,0,0,0,0,0
14089,11.99,1,136,10,j,2,607,1,0,0,0,0,0,0,0
14089,11.99,1,137,7,j,1,912,1,0,0,0,0,0,0,0
14089,11.99,1,138,9,j,14,755,1,0,0,0,0,0,0,0
14089,11.99,1,139,8,j,10,699,1,0,0,0,0,0,0,0
14089,11.99,1,140,10,f,2,858,1,0,0,0,0,0,0,0
14089,11.99,1,141,8,j,10,880,1,0,0,0,0,0,0,0
14089,11.99,1,142,6,j,9,955,1,0,0,0,0,0,0,0
14089,11.99,1,143,7,j,1,863,1,0,0,0,0,0,0,0
14089,11.99,1,144,10,f,2,770,1,0,0,0,0,0,0,0
14089,11.99,1,145,8,j,10,750,1,0,0,0,0,0,0,0
14089,11.99,1,146,9,f,14,694,1,0,0,0,0,0,0,0
14089,11.99,1,147,10,j,2,595,1,0,0,0,0,0,0,0
14089,11.99,1,148,11,f,11,346,0,0,0,0,0,0,0,0
14089,11.99,1,149,12,j,3,380,1,0,0,0,0,0,0,0
14089,11.99,1,150,11,f,11,802,1,0,0,0,0,0,0,0
14089,11.99,1,151,10,j,2,528,1,0,0,0,0,0,0,0
14089,11.99,1,152,8,f,10,457,1,0,0,0,0,0,0,0
14089,11.99,1,153,9,f,14,1067,1,0,0,0,0,0,0,0
14089,11.99,1,154,8,j,10,621,1,0,0,0,0,0,0,0
14089,11.99,1,155,7,f,1,575,1,0,0,0,0,0,0,0
14089,11.99,1,156,10,j,2,831,1,0,0,0,0,0,0,0
14089,11.99,1,157,11,f,11,607,1,0,0,0,0,0,0,0
14089,11.99,1,158,13,j,6,714,0,0,0,0,0,0,0,0
14089,11.99,1,159,12,j,3,738,0,0,0,0,0,0,0,0
14089,11.99,1,160,15,j,12,1045,0,0,0,0,0,0,0,0
14089,11.99,1,161,12,j,3,622,1,0,0,0,0,0,0,0
14089,11.99,1,162,11,j,11,906,1,0,0,0,0,0,0,0
14089,11.99,1,163,13,f,6,737,1,0,0,0,0,0,0,0
14089,11.99,1,164,15,j,12,625,1,0,0,0,0,0,0,0
14089,11.99,1,165,14,j,7,948,1,0,0,0,0,0,0,0
14089,11.99,1,166,11,j,11,1015,1,0,0,0,0,0,0,0
14089,11.99,1,167,14,f,7,1177,1,0,0,0,0,0,0,0
14089,11.99,1,168,11,f,11,951,1,0,0,0,0,0,0,0
14089,11.99,1,169,10,j,2,650,1,0,0,0,0,0,0,0
14089,11.99,1,170,7,j,1,1058,1,0,0,0,0,0,0,0
14089,11.99,1,171,9,j,14,860,1,0,0,0,0,0,0,0
14089,11.99,1,172,10,f,2,580,1,0,0,0,0,0,0,0
14089,11.99,1,173,7,j,1,988,1,0,0,0,0,0,0,0
14089,11.99,1,174,10,j,2,1134,1,0,0,0,0,0,0,0
14089,11.99,1,175,8,f,10,752,0,0,0,0,0,0,0,0
14089,11.99,1,176,6,j,9,895,1,0,0,0,0,0,0,0
14089,11.99,1,177,7,j,1,1005,1,0,0,0,0,0,0,0
14089,11.99,1,178,8,j,10,697,1,0,0,0,0,0,0,0
