subject_id,trial_type,trial_index,time_elapsed,block,rt,stimulus,planet,community,response,correct,key_press,learning_correct_response,parse,init_locations,final_locations,browser_interactions,num_comp,planet_map
14826,commdev-instructions,7,25825,NA,1470.4000000357628,"<p>In this game, you are a scientist on board a space shuttle. </p><p> On each mission, you will visit planets all across the universe.</p><img src=""img/controlroom.jpg"" width=300vw>",NA,NA,NA,NA,NA,NA,NA,NA,NA,3,6,"11,1,2,8,7,14,12,15,10,5,3,9,13,4,6"
14826,commdev-instructions,8,28706,NA,798.1999999880791,"<p>Here are a few planets you might see:</p><img src=""img/practice1.png"" width=200vw><img src=""img/practice2.png"" width=200vw><img src=""img/practice3.png"" width=200vw>",NA,NA,NA,NA,NA,NA,NA,NA,NA,3,6,"11,1,2,8,7,14,12,15,10,5,3,9,13,4,6"
14826,commdev-instructions,9,37736,NA,1635.1000000238419,"<p>Your job as a scientist is to record which direction the winds are moving on each planet.</p><p>There are two types of wind directions:</p><img src=""img/practice1_left.png"" width=200vw><img src=""img/practice1_right.png"" width=200vw>",NA,NA,NA,NA,NA,NA,NA,NA,NA,3,6,"11,1,2,8,7,14,12,15,10,5,3,9,13,4,6"
14826,commdev-instructions,10,45170,NA,2554.699999988079,"<p>If the winds are moving this way, press the letter <strong>F</strong> on the keyboard as fast as you can.</p><img src=""img/leftwind.png"" width=250vw>",NA,NA,NA,NA,NA,NA,NA,NA,NA,3,6,"11,1,2,8,7,14,12,15,10,5,3,9,13,4,6"
14826,commdev-instructions,11,51706,NA,2028.4000000357628,"<p>If the winds are moving this way, press the letter <strong>J</strong> on the keyboard as fast as you can.</p><img src=""img/rightwind.png"" width=350vw>",NA,NA,NA,NA,NA,NA,NA,NA,NA,3,6,"11,1,2,8,7,14,12,15,10,5,3,9,13,4,6"
14826,commdev-instructions,12,57339,NA,1207.4000000357628,<p>You will have 1 second to respond. Try to respond before the time runs out!,NA,NA,NA,NA,NA,NA,NA,NA,NA,3,6,"11,1,2,8,7,14,12,15,10,5,3,9,13,4,6"
14826,commdev-instructions,13,63832,NA,1057,<p>The planets you will visit will look different from each other.</p><p>You should respond <strong>only</strong> based on wind direction.,NA,NA,NA,NA,NA,NA,NA,NA,NA,3,6,"11,1,2,8,7,14,12,15,10,5,3,9,13,4,6"
14826,commdev-instructions,14,70428,NA,1432.4000000357628,"<p> Ready to start the practice round? </p><p> Remember, press <strong>F</strong> or <strong>J</strong> depending on the wind direction.<br><img src=""img/categorize_planet_example.png""",NA,NA,NA,NA,NA,NA,NA,NA,NA,3,6,"11,1,2,8,7,14,12,15,10,5,3,9,13,4,6"
14826,commdev-instructions,26,127270,NA,949.6999999880791,"<p>Great, now try a short practice mission. </p><p> This time, you will have 1 second to respond and you won't know whether you pressed the right or wrong key for each planet.</p>",NA,NA,NA,NA,NA,NA,NA,NA,NA,3,6,"11,1,2,8,7,14,12,15,10,5,3,9,13,4,6"
14826,commdev-image-keyboard-response,27,128639,practice,758.0999999642372,img/practice1_right.png,NA,Number not found in mappings,NA,TRUE,j,j,NA,NA,NA,3,6,"11,1,2,8,7,14,12,15,10,5,3,9,13,4,6"
14826,commdev-image-keyboard-response,28,129896,practice,774.8000000119209,img/practice3_left.png,NA,Number not found in mappings,NA,TRUE,f,f,NA,NA,NA,3,6,"11,1,2,8,7,14,12,15,10,5,3,9,13,4,6"
14826,commdev-image-keyboard-response,29,131159,practice,629.7000000476837,img/practice4_right.png,NA,Number not found in mappings,NA,TRUE,j,j,NA,NA,NA,3,6,"11,1,2,8,7,14,12,15,10,5,3,9,13,4,6"
14826,commdev-image-keyboard-response,30,132414,practice,768.8999999761581,img/practice2_right.png,NA,Number not found in mappings,NA,TRUE,j,j,NA,NA,NA,3,6,"11,1,2,8,7,14,12,15,10,5,3,9,13,4,6"
14826,commdev-image-keyboard-response,31,133667,practice,629.8000000119209,img/practice1_right.png,NA,Number not found in mappings,NA,TRUE,j,j,NA,NA,NA,3,6,"11,1,2,8,7,14,12,15,10,5,3,9,13,4,6"
14826,commdev-image-keyboard-response,32,134921,practice,629.8000000119209,img/practice2_right.png,NA,Number not found in mappings,NA,TRUE,j,j,NA,NA,NA,3,6,"11,1,2,8,7,14,12,15,10,5,3,9,13,4,6"
14826,commdev-image-keyboard-response,33,136178,practice,527.3999999761581,img/practice4_left.png,NA,Number not found in mappings,NA,TRUE,f,f,NA,NA,NA,3,6,"11,1,2,8,7,14,12,15,10,5,3,9,13,4,6"
14826,commdev-image-keyboard-response,34,137433,practice,1014,img/practice2_left.png,NA,Number not found in mappings,NA,FALSE,j,f,NA,NA,NA,3,6,"11,1,2,8,7,14,12,15,10,5,3,9,13,4,6"
14826,commdev-instructions,35,148070,NA,1076.6000000238419,"<p>Great job with the practice round.</p><p>During real missions, you won't know whether you pressed the right or wrong key for each planet.</p><p>But between missions, we will tell you how you did overall.</p>",NA,NA,NA,NA,NA,NA,NA,NA,NA,3,6,"11,1,2,8,7,14,12,15,10,5,3,9,13,4,6"
14826,commdev-instructions,36,158481,NA,2165.5,<p>Try your best! You will be paid a bonus based on how many correct responses you make!</p><p>Responses that are too slow will not count toward your bonus.</p>,NA,NA,NA,NA,NA,NA,NA,NA,NA,3,6,"11,1,2,8,7,14,12,15,10,5,3,9,13,4,6"
14826,commdev-instructions,37,165758,NA,1069.8999999761581,"<p>You are almost ready to start the real game.</p><p> First, we are going to ask you some questions about how the game works.</p>",NA,NA,NA,NA,NA,NA,NA,NA,NA,3,6,"11,1,2,8,7,14,12,15,10,5,3,9,13,4,6"
14826,commdev-instructions,46,245880,NA,998.3999999761581,"<p> Nice work! It is now time to start the real game.<p></p>You will go on two missions to record wind directions of different planets.<p></p>Each one will take about 5 minutes. You will get to take a break between missions.<p><p> Remember, press <strong>F</strong> or <strong>J</strong> depending on the wind direction. Good luck!<br><img src=""img/categorize_planet_example.png""",NA,NA,NA,NA,NA,NA,NA,NA,NA,3,6,"11,1,2,8,7,14,12,15,10,5,3,9,13,4,6"
14826,commdev-image-keyboard-response,48,249260,learnblock1,1010.4000000357628,img/planet13_left.png,13,Community 3,NA,TRUE,f,f,NA,NA,NA,3,6,"11,1,2,8,7,14,12,15,10,5,3,9,13,4,6"
14826,commdev-image-keyboard-response,49,250513,learnblock1,721.0999999642372,img/planet6_right.png,6,Community 3,NA,TRUE,j,j,NA,NA,NA,3,6,"11,1,2,8,7,14,12,15,10,5,3,9,13,4,6"
14826,commdev-image-keyboard-response,50,251769,learnblock1,921.3999999761581,img/planet13_right.png,13,Community 3,NA,FALSE,f,j,NA,NA,NA,3,6,"11,1,2,8,7,14,12,15,10,5,3,9,13,4,6"
14826,commdev-image-keyboard-response,51,253021,learnblock1,965.7999999523163,img/planet6_right.png,6,Community 3,NA,TRUE,j,j,NA,NA,NA,3,6,"11,1,2,8,7,14,12,15,10,5,3,9,13,4,6"
14826,commdev-image-keyboard-response,52,254280,learnblock1,691.1000000238419,img/planet13_right.png,13,Community 3,NA,TRUE,j,j,NA,NA,NA,3,6,"11,1,2,8,7,14,12,15,10,5,3,9,13,4,6"
14826,commdev-image-keyboard-response,53,255533,learnblock1,685.7999999523163,img/planet6_left.png,6,Community 3,NA,TRUE,f,f,NA,NA,NA,3,6,"11,1,2,8,7,14,12,15,10,5,3,9,13,4,6"
14826,commdev-image-keyboard-response,54,256792,learnblock1,747.9000000357628,img/planet9_right.png,9,Community 3,NA,TRUE,j,j,NA,NA,NA,3,6,"11,1,2,8,7,14,12,15,10,5,3,9,13,4,6"
14826,commdev-image-keyboard-response,55,258053,learnblock1,920.7000000476837,img/planet4_left.png,4,Community 3,NA,TRUE,f,f,NA,NA,NA,3,6,"11,1,2,8,7,14,12,15,10,5,3,9,13,4,6"
14826,commdev-image-keyboard-response,56,259306,learnblock1,694.1999999880791,img/planet3_right.png,3,Community 3,NA,TRUE,j,j,NA,NA,NA,3,6,"11,1,2,8,7,14,12,15,10,5,3,9,13,4,6"
14826,commdev-image-keyboard-response,57,260559,learnblock1,732.6999999880791,img/planet7_right.png,7,Community 1,NA,TRUE,j,j,NA,NA,NA,3,6,"11,1,2,8,7,14,12,15,10,5,3,9,13,4,6"
14826,commdev-image-keyboard-response,58,261823,learnblock1,664.7000000476837,img/planet2_right.png,2,Community 1,NA,TRUE,j,j,NA,NA,NA,3,6,"11,1,2,8,7,14,12,15,10,5,3,9,13,4,6"
14826,commdev-image-keyboard-response,59,263077,learnblock1,648.6999999880791,img/planet7_right.png,7,Community 1,NA,TRUE,j,j,NA,NA,NA,3,6,"11,1,2,8,7,14,12,15,10,5,3,9,13,4,6"
14826,commdev-image-keyboard-response,60,264331,learnblock1,582.6000000238419,img/planet3_right.png,3,Community 3,NA,TRUE,j,j,NA,NA,NA,3,6,"11,1,2,8,7,14,12,15,10,5,3,9,13,4,6"
14826,commdev-image-keyboard-response,61,265594,learnblock1,695.1000000238419,img/planet4_right.png,4,Community 3,NA,TRUE,j,j,NA,NA,NA,3,6,"11,1,2,8,7,14,12,15,10,5,3,9,13,4,6"
14826,commdev-image-keyboard-response,62,266858,learnblock1,825.8999999761581,img/planet3_left.png,3,Community 3,NA,TRUE,f,f,NA,NA,NA,3,6,"11,1,2,8,7,14,12,15,10,5,3,9,13,4,6"
14826,commdev-image-keyboard-response,63,268114,learnblock1,642.2000000476837,img/planet4_right.png,4,Community 3,NA,TRUE,j,j,NA,NA,NA,3,6,"11,1,2,8,7,14,12,15,10,5,3,9,13,4,6"
14826,commdev-image-keyboard-response,64,269380,learnblock1,559.5,img/planet3_right.png,3,Community 3,NA,TRUE,j,j,NA,NA,NA,3,6,"11,1,2,8,7,14,12,15,10,5,3,9,13,4,6"
14826,commdev-image-keyboard-response,65,270636,learnblock1,596.2000000476837,img/planet13_right.png,13,Community 3,NA,TRUE,j,j,NA,NA,NA,3,6,"11,1,2,8,7,14,12,15,10,5,3,9,13,4,6"
14826,commdev-image-keyboard-response,66,271898,learnblock1,737.6999999880791,img/planet3_left.png,3,Community 3,NA,TRUE,f,f,NA,NA,NA,3,6,"11,1,2,8,7,14,12,15,10,5,3,9,13,4,6"
14826,commdev-image-keyboard-response,67,273163,learnblock1,865.3000000119209,img/planet6_right.png,6,Community 3,NA,TRUE,j,j,NA,NA,NA,3,6,"11,1,2,8,7,14,12,15,10,5,3,9,13,4,6"
14826,commdev-image-keyboard-response,68,274430,learnblock1,720.3999999761581,img/planet4_left.png,4,Community 3,NA,TRUE,f,f,NA,NA,NA,3,6,"11,1,2,8,7,14,12,15,10,5,3,9,13,4,6"
14826,commdev-image-keyboard-response,69,275684,learnblock1,515.6999999880791,img/planet6_right.png,6,Community 3,NA,TRUE,j,j,NA,NA,NA,3,6,"11,1,2,8,7,14,12,15,10,5,3,9,13,4,6"
14826,commdev-image-keyboard-response,70,276938,learnblock1,735.3999999761581,img/planet9_left.png,9,Community 3,NA,TRUE,f,f,NA,NA,NA,3,6,"11,1,2,8,7,14,12,15,10,5,3,9,13,4,6"
14826,commdev-image-keyboard-response,71,278198,learnblock1,883.7000000476837,img/planet15_left.png,15,Community 2,NA,TRUE,f,f,NA,NA,NA,3,6,"11,1,2,8,7,14,12,15,10,5,3,9,13,4,6"
14826,commdev-image-keyboard-response,72,279455,learnblock1,734.5,img/planet9_right.png,9,Community 3,NA,TRUE,j,j,NA,NA,NA,3,6,"11,1,2,8,7,14,12,15,10,5,3,9,13,4,6"
14826,commdev-image-keyboard-response,73,280711,learnblock1,763.0999999642372,img/planet4_left.png,4,Community 3,NA,TRUE,f,f,NA,NA,NA,3,6,"11,1,2,8,7,14,12,15,10,5,3,9,13,4,6"
14826,commdev-image-keyboard-response,74,281978,learnblock1,834.8000000119209,img/planet3_right.png,3,Community 3,NA,TRUE,j,j,NA,NA,NA,3,6,"11,1,2,8,7,14,12,15,10,5,3,9,13,4,6"
14826,commdev-image-keyboard-response,75,283231,learnblock1,788.8000000119209,img/planet4_left.png,4,Community 3,NA,TRUE,f,f,NA,NA,NA,3,6,"11,1,2,8,7,14,12,15,10,5,3,9,13,4,6"
14826,commdev-image-keyboard-response,76,284489,learnblock1,709.3999999761581,img/planet3_left.png,3,Community 3,NA,TRUE,f,f,NA,NA,NA,3,6,"11,1,2,8,7,14,12,15,10,5,3,9,13,4,6"
14826,commdev-image-keyboard-response,77,285744,learnblock1,704.1000000238419,img/planet13_left.png,13,Community 3,NA,TRUE,f,f,NA,NA,NA,3,6,"11,1,2,8,7,14,12,15,10,5,3,9,13,4,6"
14826,commdev-image-keyboard-response,78,287004,learnblock1,546.5999999642372,img/planet6_right.png,6,Community 3,NA,TRUE,j,j,NA,NA,NA,3,6,"11,1,2,8,7,14,12,15,10,5,3,9,13,4,6"
14826,commdev-image-keyboard-response,79,288256,learnblock1,640.5,img/planet9_right.png,9,Community 3,NA,TRUE,j,j,NA,NA,NA,3,6,"11,1,2,8,7,14,12,15,10,5,3,9,13,4,6"
14826,commdev-image-keyboard-response,80,289510,learnblock1,751,img/planet13_left.png,13,Community 3,NA,TRUE,f,f,NA,NA,NA,3,6,"11,1,2,8,7,14,12,15,10,5,3,9,13,4,6"
14826,commdev-image-keyboard-response,81,290771,learnblock1,671.1999999880791,img/planet6_right.png,6,Community 3,NA,TRUE,j,j,NA,NA,NA,3,6,"11,1,2,8,7,14,12,15,10,5,3,9,13,4,6"
14826,commdev-image-keyboard-response,82,292031,learnblock1,996.4000000357628,img/planet4_right.png,4,Community 3,NA,FALSE,f,j,NA,NA,NA,3,6,"11,1,2,8,7,14,12,15,10,5,3,9,13,4,6"
14826,commdev-image-keyboard-response,83,293284,learnblock1,null,img/planet9_left.png,9,Community 3,NA,FALSE,null,f,NA,NA,NA,3,6,"11,1,2,8,7,14,12,15,10,5,3,9,13,4,6"
14826,commdev-image-keyboard-response,84,294538,learnblock1,221.10000002384186,img/planet15_right.png,15,Community 2,NA,FALSE,f,j,NA,NA,NA,3,6,"11,1,2,8,7,14,12,15,10,5,3,9,13,4,6"
14826,commdev-image-keyboard-response,85,295801,learnblock1,46.30000001192093,img/planet12_left.png,12,Community 2,NA,FALSE,j,f,NA,NA,NA,3,6,"11,1,2,8,7,14,12,15,10,5,3,9,13,4,6"
14826,commdev-image-keyboard-response,86,297069,learnblock1,636.6999999880791,img/planet10_right.png,10,Community 2,NA,TRUE,j,j,NA,NA,NA,3,6,"11,1,2,8,7,14,12,15,10,5,3,9,13,4,6"
14826,commdev-image-keyboard-response,87,298323,learnblock1,652.8000000119209,img/planet5_right.png,5,Community 2,NA,TRUE,j,j,NA,NA,NA,3,6,"11,1,2,8,7,14,12,15,10,5,3,9,13,4,6"
14826,commdev-image-keyboard-response,88,299578,learnblock1,648.8999999761581,img/planet10_left.png,10,Community 2,NA,TRUE,f,f,NA,NA,NA,3,6,"11,1,2,8,7,14,12,15,10,5,3,9,13,4,6"
14826,commdev-image-keyboard-response,89,300842,learnblock1,837.5999999642372,img/planet15_left.png,15,Community 2,NA,TRUE,f,f,NA,NA,NA,3,6,"11,1,2,8,7,14,12,15,10,5,3,9,13,4,6"
14826,commdev-image-keyboard-response,90,302107,learnblock1,715.3999999761581,img/planet10_right.png,10,Community 2,NA,TRUE,j,j,NA,NA,NA,3,6,"11,1,2,8,7,14,12,15,10,5,3,9,13,4,6"
14826,commdev-image-keyboard-response,91,303361,learnblock1,972.1999999880791,img/planet12_left.png,12,Community 2,NA,TRUE,f,f,NA,NA,NA,3,6,"11,1,2,8,7,14,12,15,10,5,3,9,13,4,6"
14826,commdev-image-keyboard-response,92,304628,learnblock1,732.8000000119209,img/planet14_left.png,14,Community 2,NA,TRUE,f,f,NA,NA,NA,3,6,"11,1,2,8,7,14,12,15,10,5,3,9,13,4,6"
14826,commdev-image-keyboard-response,93,305888,learnblock1,587.5,img/planet10_left.png,10,Community 2,NA,TRUE,f,f,NA,NA,NA,3,6,"11,1,2,8,7,14,12,15,10,5,3,9,13,4,6"
14826,commdev-image-keyboard-response,94,307146,learnblock1,612,img/planet15_left.png,15,Community 2,NA,TRUE,f,f,NA,NA,NA,3,6,"11,1,2,8,7,14,12,15,10,5,3,9,13,4,6"
14826,commdev-image-keyboard-response,95,308401,learnblock1,584.4000000357628,img/planet5_right.png,5,Community 2,NA,TRUE,j,j,NA,NA,NA,3,6,"11,1,2,8,7,14,12,15,10,5,3,9,13,4,6"
14826,commdev-image-keyboard-response,96,309663,learnblock1,653.8000000119209,img/planet14_left.png,14,Community 2,NA,TRUE,f,f,NA,NA,NA,3,6,"11,1,2,8,7,14,12,15,10,5,3,9,13,4,6"
14826,commdev-image-keyboard-response,97,310927,learnblock1,632.3999999761581,img/planet12_left.png,12,Community 2,NA,TRUE,f,f,NA,NA,NA,3,6,"11,1,2,8,7,14,12,15,10,5,3,9,13,4,6"
14826,commdev-image-keyboard-response,98,312193,learnblock1,680.1999999880791,img/planet15_right.png,15,Community 2,NA,TRUE,j,j,NA,NA,NA,3,6,"11,1,2,8,7,14,12,15,10,5,3,9,13,4,6"
14826,commdev-image-keyboard-response,99,313453,learnblock1,679.3999999761581,img/planet12_left.png,12,Community 2,NA,TRUE,f,f,NA,NA,NA,3,6,"11,1,2,8,7,14,12,15,10,5,3,9,13,4,6"
14826,commdev-image-keyboard-response,100,314705,learnblock1,633.1000000238419,img/planet15_right.png,15,Community 2,NA,TRUE,j,j,NA,NA,NA,3,6,"11,1,2,8,7,14,12,15,10,5,3,9,13,4,6"
14826,commdev-image-keyboard-response,101,315959,learnblock1,613.5999999642372,img/planet9_left.png,9,Community 3,NA,TRUE,f,f,NA,NA,NA,3,6,"11,1,2,8,7,14,12,15,10,5,3,9,13,4,6"
14826,commdev-image-keyboard-response,102,317217,learnblock1,630.6000000238419,img/planet15_left.png,15,Community 2,NA,TRUE,f,f,NA,NA,NA,3,6,"11,1,2,8,7,14,12,15,10,5,3,9,13,4,6"
14826,commdev-image-keyboard-response,103,318475,learnblock1,687.9000000357628,img/planet5_left.png,5,Community 2,NA,TRUE,f,f,NA,NA,NA,3,6,"11,1,2,8,7,14,12,15,10,5,3,9,13,4,6"
14826,commdev-image-keyboard-response,104,319742,learnblock1,621.1999999880791,img/planet15_right.png,15,Community 2,NA,TRUE,j,j,NA,NA,NA,3,6,"11,1,2,8,7,14,12,15,10,5,3,9,13,4,6"
14826,commdev-image-keyboard-response,105,321002,learnblock1,593,img/planet12_right.png,12,Community 2,NA,TRUE,j,j,NA,NA,NA,3,6,"11,1,2,8,7,14,12,15,10,5,3,9,13,4,6"
14826,commdev-image-keyboard-response,106,322254,learnblock1,675.7000000476837,img/planet14_right.png,14,Community 2,NA,TRUE,j,j,NA,NA,NA,3,6,"11,1,2,8,7,14,12,15,10,5,3,9,13,4,6"
14826,commdev-image-keyboard-response,107,323512,learnblock1,689.5999999642372,img/planet8_left.png,8,Community 1,NA,TRUE,f,f,NA,NA,NA,3,6,"11,1,2,8,7,14,12,15,10,5,3,9,13,4,6"
14826,commdev-image-keyboard-response,108,324769,learnblock1,725.4000000357628,img/planet14_left.png,14,Community 2,NA,TRUE,f,f,NA,NA,NA,3,6,"11,1,2,8,7,14,12,15,10,5,3,9,13,4,6"
14826,commdev-image-keyboard-response,109,326031,learnblock1,720.3000000119209,img/planet8_left.png,8,Community 1,NA,TRUE,f,f,NA,NA,NA,3,6,"11,1,2,8,7,14,12,15,10,5,3,9,13,4,6"
14826,commdev-image-keyboard-response,110,327296,learnblock1,792.6999999880791,img/planet11_right.png,11,Community 1,NA,TRUE,j,j,NA,NA,NA,3,6,"11,1,2,8,7,14,12,15,10,5,3,9,13,4,6"
14826,commdev-image-keyboard-response,111,328563,learnblock1,879.5999999642372,img/planet7_left.png,7,Community 1,NA,TRUE,f,f,NA,NA,NA,3,6,"11,1,2,8,7,14,12,15,10,5,3,9,13,4,6"
14826,commdev-image-keyboard-response,112,329822,learnblock1,686.0999999642372,img/planet2_left.png,2,Community 1,NA,TRUE,f,f,NA,NA,NA,3,6,"11,1,2,8,7,14,12,15,10,5,3,9,13,4,6"
14826,commdev-image-keyboard-response,113,331081,learnblock1,658,img/planet11_left.png,11,Community 1,NA,TRUE,f,f,NA,NA,NA,3,6,"11,1,2,8,7,14,12,15,10,5,3,9,13,4,6"
14826,commdev-image-keyboard-response,114,332348,learnblock1,663.5,img/planet1_left.png,1,Community 1,NA,TRUE,f,f,NA,NA,NA,3,6,"11,1,2,8,7,14,12,15,10,5,3,9,13,4,6"
14826,commdev-image-keyboard-response,115,333604,learnblock1,617.8999999761581,img/planet8_left.png,8,Community 1,NA,TRUE,f,f,NA,NA,NA,3,6,"11,1,2,8,7,14,12,15,10,5,3,9,13,4,6"
14826,commdev-image-keyboard-response,116,334865,learnblock1,689.7999999523163,img/planet1_right.png,1,Community 1,NA,TRUE,j,j,NA,NA,NA,3,6,"11,1,2,8,7,14,12,15,10,5,3,9,13,4,6"
14826,commdev-image-keyboard-response,117,336122,learnblock1,740.5999999642372,img/planet7_right.png,7,Community 1,NA,TRUE,j,j,NA,NA,NA,3,6,"11,1,2,8,7,14,12,15,10,5,3,9,13,4,6"
14826,commdev-image-keyboard-response,118,337390,learnblock1,729,img/planet2_left.png,2,Community 1,NA,TRUE,f,f,NA,NA,NA,3,6,"11,1,2,8,7,14,12,15,10,5,3,9,13,4,6"
14826,commdev-image-keyboard-response,119,338645,learnblock1,null,img/planet8_right.png,8,Community 1,NA,FALSE,null,j,NA,NA,NA,3,6,"11,1,2,8,7,14,12,15,10,5,3,9,13,4,6"
14826,commdev-image-keyboard-response,120,339900,learnblock1,177.10000002384186,img/planet1_right.png,1,Community 1,NA,TRUE,j,j,NA,NA,NA,3,6,"11,1,2,8,7,14,12,15,10,5,3,9,13,4,6"
14826,commdev-image-keyboard-response,121,341153,learnblock1,665.3000000119209,img/planet8_left.png,8,Community 1,NA,TRUE,f,f,NA,NA,NA,3,6,"11,1,2,8,7,14,12,15,10,5,3,9,13,4,6"
14826,commdev-image-keyboard-response,122,342410,learnblock1,713.5999999642372,img/planet11_right.png,11,Community 1,NA,TRUE,j,j,NA,NA,NA,3,6,"11,1,2,8,7,14,12,15,10,5,3,9,13,4,6"
14826,commdev-image-keyboard-response,123,343662,learnblock1,731.6999999880791,img/planet2_left.png,2,Community 1,NA,TRUE,f,f,NA,NA,NA,3,6,"11,1,2,8,7,14,12,15,10,5,3,9,13,4,6"
14826,commdev-image-keyboard-response,124,344918,learnblock1,848.3000000119209,img/planet1_left.png,1,Community 1,NA,TRUE,f,f,NA,NA,NA,3,6,"11,1,2,8,7,14,12,15,10,5,3,9,13,4,6"
14826,commdev-image-keyboard-response,125,346176,learnblock1,1040.199999988079,img/planet11_left.png,11,Community 1,NA,TRUE,f,f,NA,NA,NA,3,6,"11,1,2,8,7,14,12,15,10,5,3,9,13,4,6"
14826,commdev-image-keyboard-response,126,347433,learnblock1,961.5,img/planet7_left.png,7,Community 1,NA,TRUE,f,f,NA,NA,NA,3,6,"11,1,2,8,7,14,12,15,10,5,3,9,13,4,6"
14826,commdev-image-keyboard-response,127,348694,learnblock1,715.6999999880791,img/planet1_right.png,1,Community 1,NA,TRUE,j,j,NA,NA,NA,3,6,"11,1,2,8,7,14,12,15,10,5,3,9,13,4,6"
14826,commdev-image-keyboard-response,128,349961,learnblock1,788.6999999880791,img/planet11_left.png,11,Community 1,NA,TRUE,f,f,NA,NA,NA,3,6,"11,1,2,8,7,14,12,15,10,5,3,9,13,4,6"
14826,commdev-image-keyboard-response,129,351227,learnblock1,754.6000000238419,img/planet2_left.png,2,Community 1,NA,TRUE,f,f,NA,NA,NA,3,6,"11,1,2,8,7,14,12,15,10,5,3,9,13,4,6"
14826,commdev-image-keyboard-response,130,352484,learnblock1,690.1999999880791,img/planet1_right.png,1,Community 1,NA,TRUE,j,j,NA,NA,NA,3,6,"11,1,2,8,7,14,12,15,10,5,3,9,13,4,6"
14826,commdev-image-keyboard-response,131,353747,learnblock1,656.5,img/planet8_left.png,8,Community 1,NA,TRUE,f,f,NA,NA,NA,3,6,"11,1,2,8,7,14,12,15,10,5,3,9,13,4,6"
14826,commdev-image-keyboard-response,132,355006,learnblock1,621.3000000119209,img/planet11_left.png,11,Community 1,NA,TRUE,f,f,NA,NA,NA,3,6,"11,1,2,8,7,14,12,15,10,5,3,9,13,4,6"
14826,commdev-image-keyboard-response,133,356263,learnblock1,621.3000000119209,img/planet2_right.png,2,Community 1,NA,TRUE,j,j,NA,NA,NA,3,6,"11,1,2,8,7,14,12,15,10,5,3,9,13,4,6"
14826,commdev-image-keyboard-response,134,357521,learnblock1,627,img/planet1_left.png,1,Community 1,NA,TRUE,f,f,NA,NA,NA,3,6,"11,1,2,8,7,14,12,15,10,5,3,9,13,4,6"
14826,commdev-image-keyboard-response,135,358778,learnblock1,703.6000000238419,img/planet11_left.png,11,Community 1,NA,TRUE,f,f,NA,NA,NA,3,6,"11,1,2,8,7,14,12,15,10,5,3,9,13,4,6"
14826,commdev-image-keyboard-response,136,360030,learnblock1,673.7999999523163,img/planet2_left.png,2,Community 1,NA,TRUE,f,f,NA,NA,NA,3,6,"11,1,2,8,7,14,12,15,10,5,3,9,13,4,6"
14826,commdev-image-keyboard-response,137,361290,learnblock1,661.5,img/planet8_left.png,8,Community 1,NA,TRUE,f,f,NA,NA,NA,3,6,"11,1,2,8,7,14,12,15,10,5,3,9,13,4,6"
14826,commdev-image-keyboard-response,138,362549,learnblock1,682.3999999761581,img/planet1_right.png,1,Community 1,NA,FALSE,f,j,NA,NA,NA,3,6,"11,1,2,8,7,14,12,15,10,5,3,9,13,4,6"
14826,commdev-image-keyboard-response,139,363806,learnblock1,1128.5,img/planet8_right.png,8,Community 1,NA,TRUE,j,j,NA,NA,NA,3,6,"11,1,2,8,7,14,12,15,10,5,3,9,13,4,6"
14826,commdev-image-keyboard-response,140,365060,learnblock1,886,img/planet2_right.png,2,Community 1,NA,TRUE,j,j,NA,NA,NA,3,6,"11,1,2,8,7,14,12,15,10,5,3,9,13,4,6"
14826,commdev-image-keyboard-response,141,366313,learnblock1,1043.4000000357628,img/planet11_right.png,11,Community 1,NA,TRUE,j,j,NA,NA,NA,3,6,"11,1,2,8,7,14,12,15,10,5,3,9,13,4,6"
14826,commdev-image-keyboard-response,142,367569,learnblock1,1131.5,img/planet8_right.png,8,Community 1,NA,TRUE,j,j,NA,NA,NA,3,6,"11,1,2,8,7,14,12,15,10,5,3,9,13,4,6"
14826,commdev-image-keyboard-response,143,368818,learnblock1,1100.8999999761581,img/planet11_right.png,11,Community 1,NA,TRUE,j,j,NA,NA,NA,3,6,"11,1,2,8,7,14,12,15,10,5,3,9,13,4,6"
14826,commdev-image-keyboard-response,144,370072,learnblock1,816.6000000238419,img/planet7_left.png,7,Community 1,NA,TRUE,f,f,NA,NA,NA,3,6,"11,1,2,8,7,14,12,15,10,5,3,9,13,4,6"
14826,commdev-image-keyboard-response,145,371335,learnblock1,760.3999999761581,img/planet1_left.png,1,Community 1,NA,TRUE,f,f,NA,NA,NA,3,6,"11,1,2,8,7,14,12,15,10,5,3,9,13,4,6"
14826,commdev-image-keyboard-response,146,372588,learnblock1,773.6999999880791,img/planet7_right.png,7,Community 1,NA,TRUE,j,j,NA,NA,NA,3,6,"11,1,2,8,7,14,12,15,10,5,3,9,13,4,6"
14826,commdev-image-keyboard-response,147,373840,learnblock1,941.2999999523163,img/planet1_right.png,1,Community 1,NA,TRUE,j,j,NA,NA,NA,3,6,"11,1,2,8,7,14,12,15,10,5,3,9,13,4,6"
14826,commdev-image-keyboard-response,148,375093,learnblock1,857,img/planet7_right.png,7,Community 1,NA,TRUE,j,j,NA,NA,NA,3,6,"11,1,2,8,7,14,12,15,10,5,3,9,13,4,6"
14826,commdev-image-keyboard-response,149,376351,learnblock1,840.9000000357628,img/planet3_right.png,3,Community 3,NA,TRUE,j,j,NA,NA,NA,3,6,"11,1,2,8,7,14,12,15,10,5,3,9,13,4,6"
14826,commdev-image-keyboard-response,150,377605,learnblock1,911.8000000119209,img/planet7_right.png,7,Community 1,NA,TRUE,j,j,NA,NA,NA,3,6,"11,1,2,8,7,14,12,15,10,5,3,9,13,4,6"
14826,commdev-image-keyboard-response,151,378863,learnblock1,728.0999999642372,img/planet11_left.png,11,Community 1,NA,TRUE,f,f,NA,NA,NA,3,6,"11,1,2,8,7,14,12,15,10,5,3,9,13,4,6"
14826,commdev-image-keyboard-response,152,380119,learnblock1,894.3999999761581,img/planet7_right.png,7,Community 1,NA,TRUE,j,j,NA,NA,NA,3,6,"11,1,2,8,7,14,12,15,10,5,3,9,13,4,6"
14826,commdev-image-keyboard-response,153,381382,learnblock1,704.1000000238419,img/planet1_left.png,1,Community 1,NA,TRUE,f,f,NA,NA,NA,3,6,"11,1,2,8,7,14,12,15,10,5,3,9,13,4,6"
14826,commdev-image-keyboard-response,154,382642,learnblock1,604.6999999880791,img/planet8_right.png,8,Community 1,NA,TRUE,j,j,NA,NA,NA,3,6,"11,1,2,8,7,14,12,15,10,5,3,9,13,4,6"
14826,commdev-image-keyboard-response,155,383899,learnblock1,747,img/planet11_left.png,11,Community 1,NA,TRUE,f,f,NA,NA,NA,3,6,"11,1,2,8,7,14,12,15,10,5,3,9,13,4,6"
14826,commdev-image-keyboard-response,156,385153,learnblock1,837.4000000357628,img/planet7_left.png,7,Community 1,NA,TRUE,f,f,NA,NA,NA,3,6,"11,1,2,8,7,14,12,15,10,5,3,9,13,4,6"
14826,commdev-image-keyboard-response,157,386406,learnblock1,875.1000000238419,img/planet1_left.png,1,Community 1,NA,TRUE,f,f,NA,NA,NA,3,6,"11,1,2,8,7,14,12,15,10,5,3,9,13,4,6"
14826,commdev-image-keyboard-response,158,387660,learnblock1,812.0999999642372,img/planet8_left.png,8,Community 1,NA,TRUE,f,f,NA,NA,NA,3,6,"11,1,2,8,7,14,12,15,10,5,3,9,13,4,6"
14826,commdev-image-keyboard-response,159,388916,learnblock1,736.8000000119209,img/planet14_left.png,14,Community 2,NA,TRUE,f,f,NA,NA,NA,3,6,"11,1,2,8,7,14,12,15,10,5,3,9,13,4,6"
14826,commdev-image-keyboard-response,160,390169,learnblock1,651.1999999880791,img/planet5_right.png,5,Community 2,NA,TRUE,j,j,NA,NA,NA,3,6,"11,1,2,8,7,14,12,15,10,5,3,9,13,4,6"
14826,commdev-image-keyboard-response,161,391423,learnblock1,707.6000000238419,img/planet15_left.png,15,Community 2,NA,TRUE,f,f,NA,NA,NA,3,6,"11,1,2,8,7,14,12,15,10,5,3,9,13,4,6"
14826,commdev-image-keyboard-response,162,392688,learnblock1,839.5,img/planet9_right.png,9,Community 3,NA,TRUE,j,j,NA,NA,NA,3,6,"11,1,2,8,7,14,12,15,10,5,3,9,13,4,6"
14826,commdev-image-keyboard-response,163,393956,learnblock1,742.6999999880791,img/planet4_left.png,4,Community 3,NA,TRUE,f,f,NA,NA,NA,3,6,"11,1,2,8,7,14,12,15,10,5,3,9,13,4,6"
14826,commdev-image-keyboard-response,164,395219,learnblock1,677.8000000119209,img/planet3_left.png,3,Community 3,NA,TRUE,f,f,NA,NA,NA,3,6,"11,1,2,8,7,14,12,15,10,5,3,9,13,4,6"
14826,commdev-image-keyboard-response,165,396477,learnblock1,724.3999999761581,img/planet13_left.png,13,Community 3,NA,TRUE,f,f,NA,NA,NA,3,6,"11,1,2,8,7,14,12,15,10,5,3,9,13,4,6"
14826,commdev-image-keyboard-response,166,397742,learnblock1,712.6999999880791,img/planet6_right.png,6,Community 3,NA,TRUE,j,j,NA,NA,NA,3,6,"11,1,2,8,7,14,12,15,10,5,3,9,13,4,6"
14826,commdev-image-keyboard-response,167,399005,learnblock1,692.3000000119209,img/planet3_left.png,3,Community 3,NA,TRUE,f,f,NA,NA,NA,3,6,"11,1,2,8,7,14,12,15,10,5,3,9,13,4,6"
14826,commdev-image-keyboard-response,168,400261,learnblock1,734.5,img/planet7_left.png,7,Community 1,NA,TRUE,f,f,NA,NA,NA,3,6,"11,1,2,8,7,14,12,15,10,5,3,9,13,4,6"
14826,commdev-image-keyboard-response,169,401521,learnblock1,674.7000000476837,img/planet3_right.png,3,Community 3,NA,TRUE,j,j,NA,NA,NA,3,6,"11,1,2,8,7,14,12,15,10,5,3,9,13,4,6"
14826,commdev-image-keyboard-response,170,402781,learnblock1,553.2999999523163,img/planet13_right.png,13,Community 3,NA,TRUE,j,j,NA,NA,NA,3,6,"11,1,2,8,7,14,12,15,10,5,3,9,13,4,6"
14826,commdev-image-keyboard-response,171,404043,learnblock1,678.6999999880791,img/planet9_left.png,9,Community 3,NA,TRUE,f,f,NA,NA,NA,3,6,"11,1,2,8,7,14,12,15,10,5,3,9,13,4,6"
14826,commdev-image-keyboard-response,172,405297,learnblock1,768,img/planet13_left.png,13,Community 3,NA,TRUE,f,f,NA,NA,NA,3,6,"11,1,2,8,7,14,12,15,10,5,3,9,13,4,6"
14826,commdev-image-keyboard-response,173,406564,learnblock1,852.5,img/planet3_right.png,3,Community 3,NA,TRUE,j,j,NA,NA,NA,3,6,"11,1,2,8,7,14,12,15,10,5,3,9,13,4,6"
14826,commdev-image-keyboard-response,174,407826,learnblock1,869.6999999880791,img/planet6_right.png,6,Community 3,NA,TRUE,j,j,NA,NA,NA,3,6,"11,1,2,8,7,14,12,15,10,5,3,9,13,4,6"
14826,commdev-image-keyboard-response,175,409087,learnblock1,966.3000000119209,img/planet4_right.png,4,Community 3,NA,TRUE,j,j,NA,NA,NA,3,6,"11,1,2,8,7,14,12,15,10,5,3,9,13,4,6"
14826,commdev-image-keyboard-response,176,410349,learnblock1,968.4000000357628,img/planet9_right.png,9,Community 3,NA,TRUE,j,j,NA,NA,NA,3,6,"11,1,2,8,7,14,12,15,10,5,3,9,13,4,6"
14826,commdev-image-keyboard-response,177,411607,learnblock1,1147.3999999761581,img/planet4_right.png,4,Community 3,NA,TRUE,j,j,NA,NA,NA,3,6,"11,1,2,8,7,14,12,15,10,5,3,9,13,4,6"
14826,commdev-image-keyboard-response,178,412872,learnblock1,950.9000000357628,img/planet13_left.png,13,Community 3,NA,TRUE,f,f,NA,NA,NA,3,6,"11,1,2,8,7,14,12,15,10,5,3,9,13,4,6"
14826,commdev-image-keyboard-response,179,414126,learnblock1,738.5999999642372,img/planet9_left.png,9,Community 3,NA,TRUE,f,f,NA,NA,NA,3,6,"11,1,2,8,7,14,12,15,10,5,3,9,13,4,6"
14826,commdev-image-keyboard-response,180,415386,learnblock1,873.8999999761581,img/planet6_right.png,6,Community 3,NA,TRUE,j,j,NA,NA,NA,3,6,"11,1,2,8,7,14,12,15,10,5,3,9,13,4,6"
14826,commdev-image-keyboard-response,181,416654,learnblock1,832.1000000238419,img/planet9_right.png,9,Community 3,NA,TRUE,j,j,NA,NA,NA,3,6,"11,1,2,8,7,14,12,15,10,5,3,9,13,4,6"
14826,commdev-image-keyboard-response,182,417908,learnblock1,941.7999999523163,img/planet13_left.png,13,Community 3,NA,TRUE,f,f,NA,NA,NA,3,6,"11,1,2,8,7,14,12,15,10,5,3,9,13,4,6"
14826,commdev-image-keyboard-response,183,419171,learnblock1,774.3000000119209,img/planet6_left.png,6,Community 3,NA,TRUE,f,f,NA,NA,NA,3,6,"11,1,2,8,7,14,12,15,10,5,3,9,13,4,6"
14826,commdev-image-keyboard-response,184,420438,learnblock1,736.9000000357628,img/planet13_right.png,13,Community 3,NA,TRUE,j,j,NA,NA,NA,3,6,"11,1,2,8,7,14,12,15,10,5,3,9,13,4,6"
14826,commdev-image-keyboard-response,185,421706,learnblock1,613.6999999880791,img/planet9_right.png,9,Community 3,NA,TRUE,j,j,NA,NA,NA,3,6,"11,1,2,8,7,14,12,15,10,5,3,9,13,4,6"
14826,commdev-image-keyboard-response,186,422968,learnblock1,635.5999999642372,img/planet13_left.png,13,Community 3,NA,TRUE,f,f,NA,NA,NA,3,6,"11,1,2,8,7,14,12,15,10,5,3,9,13,4,6"
14826,commdev-image-keyboard-response,187,424228,learnblock1,640,img/planet3_right.png,3,Community 3,NA,TRUE,j,j,NA,NA,NA,3,6,"11,1,2,8,7,14,12,15,10,5,3,9,13,4,6"
14826,commdev-image-keyboard-response,188,425487,learnblock1,617.5,img/planet6_right.png,6,Community 3,NA,TRUE,j,j,NA,NA,NA,3,6,"11,1,2,8,7,14,12,15,10,5,3,9,13,4,6"
14826,commdev-image-keyboard-response,189,426748,learnblock1,960.3999999761581,img/planet13_left.png,13,Community 3,NA,TRUE,f,f,NA,NA,NA,3,6,"11,1,2,8,7,14,12,15,10,5,3,9,13,4,6"
14826,commdev-image-keyboard-response,190,428007,learnblock1,null,img/planet3_left.png,3,Community 3,NA,FALSE,null,f,NA,NA,NA,3,6,"11,1,2,8,7,14,12,15,10,5,3,9,13,4,6"
14826,commdev-image-keyboard-response,191,429265,learnblock1,11.299999952316284,img/planet6_left.png,6,Community 3,NA,TRUE,f,f,NA,NA,NA,3,6,"11,1,2,8,7,14,12,15,10,5,3,9,13,4,6"
14826,commdev-image-keyboard-response,192,430523,learnblock1,943.8999999761581,img/planet3_right.png,3,Community 3,NA,TRUE,j,j,NA,NA,NA,3,6,"11,1,2,8,7,14,12,15,10,5,3,9,13,4,6"
14826,commdev-image-keyboard-response,193,431781,learnblock1,774.5,img/planet7_left.png,7,Community 1,NA,TRUE,f,f,NA,NA,NA,3,6,"11,1,2,8,7,14,12,15,10,5,3,9,13,4,6"
14826,commdev-image-keyboard-response,194,433040,learnblock1,818.2000000476837,img/planet3_left.png,3,Community 3,NA,TRUE,f,f,NA,NA,NA,3,6,"11,1,2,8,7,14,12,15,10,5,3,9,13,4,6"
14826,commdev-image-keyboard-response,195,434304,learnblock1,751.3000000119209,img/planet7_left.png,7,Community 1,NA,TRUE,f,f,NA,NA,NA,3,6,"11,1,2,8,7,14,12,15,10,5,3,9,13,4,6"
14826,commdev-image-keyboard-response,196,435557,learnblock1,700,img/planet2_left.png,2,Community 1,NA,TRUE,f,f,NA,NA,NA,3,6,"11,1,2,8,7,14,12,15,10,5,3,9,13,4,6"
14826,commdev-image-keyboard-response,197,436812,learnblock1,727.3000000119209,img/planet11_left.png,11,Community 1,NA,TRUE,f,f,NA,NA,NA,3,6,"11,1,2,8,7,14,12,15,10,5,3,9,13,4,6"
14826,commdev-image-keyboard-response,198,438068,learnblock1,696.9000000357628,img/planet2_left.png,2,Community 1,NA,TRUE,f,f,NA,NA,NA,3,6,"11,1,2,8,7,14,12,15,10,5,3,9,13,4,6"
14826,commdev-image-keyboard-response,199,439320,learnblock1,647.4000000357628,img/planet1_left.png,1,Community 1,NA,TRUE,f,f,NA,NA,NA,3,6,"11,1,2,8,7,14,12,15,10,5,3,9,13,4,6"
14826,commdev-image-keyboard-response,200,440585,learnblock1,618.2000000476837,img/planet7_left.png,7,Community 1,NA,TRUE,f,f,NA,NA,NA,3,6,"11,1,2,8,7,14,12,15,10,5,3,9,13,4,6"
14826,commdev-image-keyboard-response,201,441843,learnblock1,533.5,img/planet1_right.png,1,Community 1,NA,TRUE,j,j,NA,NA,NA,3,6,"11,1,2,8,7,14,12,15,10,5,3,9,13,4,6"
14826,commdev-image-keyboard-response,202,443102,learnblock1,540.3000000119209,img/planet11_right.png,11,Community 1,NA,TRUE,j,j,NA,NA,NA,3,6,"11,1,2,8,7,14,12,15,10,5,3,9,13,4,6"
14826,commdev-image-keyboard-response,203,444360,learnblock1,627.9000000357628,img/planet2_left.png,2,Community 1,NA,TRUE,f,f,NA,NA,NA,3,6,"11,1,2,8,7,14,12,15,10,5,3,9,13,4,6"
14826,commdev-image-keyboard-response,204,445617,learnblock1,602.6999999880791,img/planet7_right.png,7,Community 1,NA,TRUE,j,j,NA,NA,NA,3,6,"11,1,2,8,7,14,12,15,10,5,3,9,13,4,6"
14826,commdev-image-keyboard-response,205,446884,learnblock1,794.8000000119209,img/planet3_right.png,3,Community 3,NA,TRUE,j,j,NA,NA,NA,3,6,"11,1,2,8,7,14,12,15,10,5,3,9,13,4,6"
14826,commdev-image-keyboard-response,206,448136,learnblock1,584.3999999761581,img/planet6_left.png,6,Community 3,NA,TRUE,f,f,NA,NA,NA,3,6,"11,1,2,8,7,14,12,15,10,5,3,9,13,4,6"
14826,commdev-image-keyboard-response,207,449390,learnblock1,691.3999999761581,img/planet13_right.png,13,Community 3,NA,TRUE,j,j,NA,NA,NA,3,6,"11,1,2,8,7,14,12,15,10,5,3,9,13,4,6"
14826,commdev-image-keyboard-response,208,450656,learnblock1,706.1999999880791,img/planet3_right.png,3,Community 3,NA,TRUE,j,j,NA,NA,NA,3,6,"11,1,2,8,7,14,12,15,10,5,3,9,13,4,6"
14826,commdev-image-keyboard-response,209,451914,learnblock1,738.6000000238419,img/planet6_left.png,6,Community 3,NA,TRUE,f,f,NA,NA,NA,3,6,"11,1,2,8,7,14,12,15,10,5,3,9,13,4,6"
14826,commdev-image-keyboard-response,210,453171,learnblock1,721.1999999880791,img/planet3_left.png,3,Community 3,NA,TRUE,f,f,NA,NA,NA,3,6,"11,1,2,8,7,14,12,15,10,5,3,9,13,4,6"
14826,commdev-image-keyboard-response,211,454430,learnblock1,735.2000000476837,img/planet13_left.png,13,Community 3,NA,TRUE,f,f,NA,NA,NA,3,6,"11,1,2,8,7,14,12,15,10,5,3,9,13,4,6"
14826,commdev-image-keyboard-response,212,455689,learnblock1,791,img/planet6_right.png,6,Community 3,NA,TRUE,j,j,NA,NA,NA,3,6,"11,1,2,8,7,14,12,15,10,5,3,9,13,4,6"
14826,commdev-image-keyboard-response,213,456947,learnblock1,784,img/planet3_right.png,3,Community 3,NA,TRUE,j,j,NA,NA,NA,3,6,"11,1,2,8,7,14,12,15,10,5,3,9,13,4,6"
14826,commdev-image-keyboard-response,214,458202,learnblock1,915.6999999880791,img/planet6_left.png,6,Community 3,NA,TRUE,f,f,NA,NA,NA,3,6,"11,1,2,8,7,14,12,15,10,5,3,9,13,4,6"
14826,commdev-image-keyboard-response,215,459456,learnblock1,898.8999999761581,img/planet4_left.png,4,Community 3,NA,TRUE,f,f,NA,NA,NA,3,6,"11,1,2,8,7,14,12,15,10,5,3,9,13,4,6"
14826,commdev-image-keyboard-response,216,460719,learnblock1,773.8999999761581,img/planet13_left.png,13,Community 3,NA,TRUE,f,f,NA,NA,NA,3,6,"11,1,2,8,7,14,12,15,10,5,3,9,13,4,6"
14826,commdev-image-keyboard-response,217,461972,learnblock1,827.1999999880791,img/planet6_right.png,6,Community 3,NA,TRUE,j,j,NA,NA,NA,3,6,"11,1,2,8,7,14,12,15,10,5,3,9,13,4,6"
14826,commdev-image-keyboard-response,218,463225,learnblock1,1104.800000011921,img/planet9_left.png,9,Community 3,NA,TRUE,f,f,NA,NA,NA,3,6,"11,1,2,8,7,14,12,15,10,5,3,9,13,4,6"
14826,commdev-image-keyboard-response,219,464484,learnblock1,1053.2999999523163,img/planet15_left.png,15,Community 2,NA,TRUE,f,f,NA,NA,NA,3,6,"11,1,2,8,7,14,12,15,10,5,3,9,13,4,6"
14826,commdev-image-keyboard-response,220,465737,learnblock1,1012.4000000357628,img/planet5_left.png,5,Community 2,NA,TRUE,f,f,NA,NA,NA,3,6,"11,1,2,8,7,14,12,15,10,5,3,9,13,4,6"
14826,commdev-image-keyboard-response,221,466994,learnblock1,984.1999999880791,img/planet10_left.png,10,Community 2,NA,TRUE,f,f,NA,NA,NA,3,6,"11,1,2,8,7,14,12,15,10,5,3,9,13,4,6"
14826,commdev-image-keyboard-response,222,468249,learnblock1,873.3000000119209,img/planet5_right.png,5,Community 2,NA,TRUE,j,j,NA,NA,NA,3,6,"11,1,2,8,7,14,12,15,10,5,3,9,13,4,6"
14826,commdev-image-keyboard-response,223,469501,learnblock1,847.8000000119209,img/planet12_right.png,12,Community 2,NA,TRUE,j,j,NA,NA,NA,3,6,"11,1,2,8,7,14,12,15,10,5,3,9,13,4,6"
14826,commdev-image-keyboard-response,224,470766,learnblock1,819.8000000119209,img/planet14_right.png,14,Community 2,NA,TRUE,j,j,NA,NA,NA,3,6,"11,1,2,8,7,14,12,15,10,5,3,9,13,4,6"
14826,commdev-image-keyboard-response,225,472020,learnblock1,820.6000000238419,img/planet8_left.png,8,Community 1,NA,TRUE,f,f,NA,NA,NA,3,6,"11,1,2,8,7,14,12,15,10,5,3,9,13,4,6"
14826,commdev-image-keyboard-response,226,473277,learnblock1,897,img/planet1_left.png,1,Community 1,NA,TRUE,f,f,NA,NA,NA,3,6,"11,1,2,8,7,14,12,15,10,5,3,9,13,4,6"
14826,commdev-image-keyboard-response,227,474537,learnblock1,695,img/planet7_right.png,7,Community 1,NA,TRUE,j,j,NA,NA,NA,3,6,"11,1,2,8,7,14,12,15,10,5,3,9,13,4,6"
14826,commdev-image-keyboard-response,228,475791,learnblock1,993.3999999761581,img/planet11_left.png,11,Community 1,NA,FALSE,j,f,NA,NA,NA,3,6,"11,1,2,8,7,14,12,15,10,5,3,9,13,4,6"
14826,commdev-image-keyboard-response,229,477050,learnblock1,1214,img/planet7_left.png,7,Community 1,NA,TRUE,f,f,NA,NA,NA,3,6,"11,1,2,8,7,14,12,15,10,5,3,9,13,4,6"
14826,commdev-image-keyboard-response,230,478307,learnblock1,1075,img/planet1_left.png,1,Community 1,NA,TRUE,f,f,NA,NA,NA,3,6,"11,1,2,8,7,14,12,15,10,5,3,9,13,4,6"
14826,commdev-image-keyboard-response,231,479561,learnblock1,864.6000000238419,img/planet11_right.png,11,Community 1,NA,TRUE,j,j,NA,NA,NA,3,6,"11,1,2,8,7,14,12,15,10,5,3,9,13,4,6"
14826,commdev-image-keyboard-response,232,480814,learnblock1,697,img/planet2_left.png,2,Community 1,NA,TRUE,f,f,NA,NA,NA,3,6,"11,1,2,8,7,14,12,15,10,5,3,9,13,4,6"
14826,commdev-image-keyboard-response,233,482070,learnblock1,756.0999999642372,img/planet7_left.png,7,Community 1,NA,TRUE,f,f,NA,NA,NA,3,6,"11,1,2,8,7,14,12,15,10,5,3,9,13,4,6"
14826,commdev-image-keyboard-response,234,483329,learnblock1,690,img/planet11_left.png,11,Community 1,NA,TRUE,f,f,NA,NA,NA,3,6,"11,1,2,8,7,14,12,15,10,5,3,9,13,4,6"
14826,commdev-image-keyboard-response,235,484587,learnblock1,617.6999999880791,img/planet1_right.png,1,Community 1,NA,TRUE,j,j,NA,NA,NA,3,6,"11,1,2,8,7,14,12,15,10,5,3,9,13,4,6"
14826,commdev-image-keyboard-response,236,485840,learnblock1,731.5999999642372,img/planet8_right.png,8,Community 1,NA,TRUE,j,j,NA,NA,NA,3,6,"11,1,2,8,7,14,12,15,10,5,3,9,13,4,6"
14826,commdev-image-keyboard-response,237,487094,learnblock1,686.3000000119209,img/planet2_left.png,2,Community 1,NA,TRUE,f,f,NA,NA,NA,3,6,"11,1,2,8,7,14,12,15,10,5,3,9,13,4,6"
14826,commdev-image-keyboard-response,238,488356,learnblock1,582.9000000357628,img/planet7_left.png,7,Community 1,NA,TRUE,f,f,NA,NA,NA,3,6,"11,1,2,8,7,14,12,15,10,5,3,9,13,4,6"
14826,commdev-image-keyboard-response,239,489616,learnblock1,772.5,img/planet11_right.png,11,Community 1,NA,TRUE,j,j,NA,NA,NA,3,6,"11,1,2,8,7,14,12,15,10,5,3,9,13,4,6"
14826,commdev-image-keyboard-response,240,490875,learnblock1,735.6000000238419,img/planet1_left.png,1,Community 1,NA,TRUE,f,f,NA,NA,NA,3,6,"11,1,2,8,7,14,12,15,10,5,3,9,13,4,6"
14826,commdev-image-keyboard-response,241,492142,learnblock1,613.8000000119209,img/planet2_right.png,2,Community 1,NA,TRUE,j,j,NA,NA,NA,3,6,"11,1,2,8,7,14,12,15,10,5,3,9,13,4,6"
14826,commdev-image-keyboard-response,242,493395,learnblock1,572,img/planet11_left.png,11,Community 1,NA,TRUE,f,f,NA,NA,NA,3,6,"11,1,2,8,7,14,12,15,10,5,3,9,13,4,6"
14826,commdev-image-keyboard-response,243,494655,learnblock1,599.5,img/planet2_left.png,2,Community 1,NA,TRUE,f,f,NA,NA,NA,3,6,"11,1,2,8,7,14,12,15,10,5,3,9,13,4,6"
14826,commdev-image-keyboard-response,244,495913,learnblock1,676.6999999880791,img/planet1_left.png,1,Community 1,NA,TRUE,f,f,NA,NA,NA,3,6,"11,1,2,8,7,14,12,15,10,5,3,9,13,4,6"
14826,commdev-image-keyboard-response,245,497167,learnblock1,609.5999999642372,img/planet8_right.png,8,Community 1,NA,TRUE,j,j,NA,NA,NA,3,6,"11,1,2,8,7,14,12,15,10,5,3,9,13,4,6"
14826,commdev-image-keyboard-response,246,498424,learnblock1,639.1999999880791,img/planet11_left.png,11,Community 1,NA,TRUE,f,f,NA,NA,NA,3,6,"11,1,2,8,7,14,12,15,10,5,3,9,13,4,6"
14826,commdev-image-keyboard-response,247,499688,learnblock1,668.0999999642372,img/planet8_left.png,8,Community 1,NA,TRUE,f,f,NA,NA,NA,3,6,"11,1,2,8,7,14,12,15,10,5,3,9,13,4,6"
14826,commdev-image-keyboard-response,248,500942,learnblock1,607.3000000119209,img/planet14_right.png,14,Community 2,NA,TRUE,j,j,NA,NA,NA,3,6,"11,1,2,8,7,14,12,15,10,5,3,9,13,4,6"
14826,commdev-image-keyboard-response,249,502197,learnblock1,739.8999999761581,img/planet8_right.png,8,Community 1,NA,TRUE,j,j,NA,NA,NA,3,6,"11,1,2,8,7,14,12,15,10,5,3,9,13,4,6"
14826,commdev-image-keyboard-response,250,503451,learnblock1,665.5,img/planet11_left.png,11,Community 1,NA,TRUE,f,f,NA,NA,NA,3,6,"11,1,2,8,7,14,12,15,10,5,3,9,13,4,6"
14826,commdev-image-keyboard-response,251,504704,learnblock1,702.3999999761581,img/planet1_left.png,1,Community 1,NA,TRUE,f,f,NA,NA,NA,3,6,"11,1,2,8,7,14,12,15,10,5,3,9,13,4,6"
14826,commdev-image-keyboard-response,252,505959,learnblock1,648.8999999761581,img/planet7_left.png,7,Community 1,NA,TRUE,f,f,NA,NA,NA,3,6,"11,1,2,8,7,14,12,15,10,5,3,9,13,4,6"
14826,commdev-image-keyboard-response,253,507213,learnblock1,722.6999999880791,img/planet2_right.png,2,Community 1,NA,TRUE,j,j,NA,NA,NA,3,6,"11,1,2,8,7,14,12,15,10,5,3,9,13,4,6"
14826,commdev-image-keyboard-response,254,508480,learnblock1,594,img/planet11_left.png,11,Community 1,NA,TRUE,f,f,NA,NA,NA,3,6,"11,1,2,8,7,14,12,15,10,5,3,9,13,4,6"
14826,commdev-image-keyboard-response,255,509743,learnblock1,753.5,img/planet8_left.png,8,Community 1,NA,TRUE,f,f,NA,NA,NA,3,6,"11,1,2,8,7,14,12,15,10,5,3,9,13,4,6"
14826,commdev-image-keyboard-response,256,510997,learnblock1,615.3000000119209,img/planet14_right.png,14,Community 2,NA,TRUE,j,j,NA,NA,NA,3,6,"11,1,2,8,7,14,12,15,10,5,3,9,13,4,6"
14826,commdev-image-keyboard-response,257,512255,learnblock1,837.3000000119209,img/planet12_left.png,12,Community 2,NA,TRUE,f,f,NA,NA,NA,3,6,"11,1,2,8,7,14,12,15,10,5,3,9,13,4,6"
14826,commdev-image-keyboard-response,258,513515,learnblock1,867.8000000119209,img/planet14_left.png,14,Community 2,NA,TRUE,f,f,NA,NA,NA,3,6,"11,1,2,8,7,14,12,15,10,5,3,9,13,4,6"
14826,commdev-image-keyboard-response,259,514784,learnblock1,792.7000000476837,img/planet5_left.png,5,Community 2,NA,TRUE,f,f,NA,NA,NA,3,6,"11,1,2,8,7,14,12,15,10,5,3,9,13,4,6"
14826,commdev-image-keyboard-response,260,516052,learnblock1,627.9000000357628,img/planet10_left.png,10,Community 2,NA,TRUE,f,f,NA,NA,NA,3,6,"11,1,2,8,7,14,12,15,10,5,3,9,13,4,6"
14826,commdev-image-keyboard-response,261,517313,learnblock1,686.1000000238419,img/planet15_right.png,15,Community 2,NA,TRUE,j,j,NA,NA,NA,3,6,"11,1,2,8,7,14,12,15,10,5,3,9,13,4,6"
14826,commdev-image-keyboard-response,262,518569,learnblock1,584.0999999642372,img/planet12_right.png,12,Community 2,NA,TRUE,j,j,NA,NA,NA,3,6,"11,1,2,8,7,14,12,15,10,5,3,9,13,4,6"
14826,commdev-image-keyboard-response,263,519822,learnblock1,773,img/planet15_right.png,15,Community 2,NA,TRUE,j,j,NA,NA,NA,3,6,"11,1,2,8,7,14,12,15,10,5,3,9,13,4,6"
14826,commdev-image-keyboard-response,264,521089,learnblock1,804.6999999880791,img/planet12_right.png,12,Community 2,NA,TRUE,j,j,NA,NA,NA,3,6,"11,1,2,8,7,14,12,15,10,5,3,9,13,4,6"
14826,commdev-image-keyboard-response,265,522350,learnblock1,737.3000000119209,img/planet15_right.png,15,Community 2,NA,TRUE,j,j,NA,NA,NA,3,6,"11,1,2,8,7,14,12,15,10,5,3,9,13,4,6"
14826,commdev-image-keyboard-response,266,523610,learnblock1,690.3000000119209,img/planet10_left.png,10,Community 2,NA,TRUE,f,f,NA,NA,NA,3,6,"11,1,2,8,7,14,12,15,10,5,3,9,13,4,6"
14826,commdev-image-keyboard-response,267,524864,learnblock1,651.5,img/planet15_right.png,15,Community 2,NA,FALSE,f,j,NA,NA,NA,3,6,"11,1,2,8,7,14,12,15,10,5,3,9,13,4,6"
14826,commdev-image-keyboard-response,268,526122,learnblock1,723.8999999761581,img/planet10_left.png,10,Community 2,NA,TRUE,f,f,NA,NA,NA,3,6,"11,1,2,8,7,14,12,15,10,5,3,9,13,4,6"
14826,commdev-image-keyboard-response,269,527386,learnblock1,566.7000000476837,img/planet12_right.png,12,Community 2,NA,TRUE,j,j,NA,NA,NA,3,6,"11,1,2,8,7,14,12,15,10,5,3,9,13,4,6"
14826,commdev-image-keyboard-response,270,528642,learnblock1,898.0999999642372,img/planet10_right.png,10,Community 2,NA,TRUE,j,j,NA,NA,NA,3,6,"11,1,2,8,7,14,12,15,10,5,3,9,13,4,6"
14826,commdev-image-keyboard-response,271,529898,learnblock1,728.8000000119209,img/planet14_right.png,14,Community 2,NA,TRUE,j,j,NA,NA,NA,3,6,"11,1,2,8,7,14,12,15,10,5,3,9,13,4,6"
14826,commdev-image-keyboard-response,272,531155,learnblock1,752.1999999880791,img/planet12_right.png,12,Community 2,NA,TRUE,j,j,NA,NA,NA,3,6,"11,1,2,8,7,14,12,15,10,5,3,9,13,4,6"
14826,commdev-image-keyboard-response,273,532414,learnblock1,830.1000000238419,img/planet15_left.png,15,Community 2,NA,TRUE,f,f,NA,NA,NA,3,6,"11,1,2,8,7,14,12,15,10,5,3,9,13,4,6"
14826,commdev-image-keyboard-response,274,533674,learnblock1,801.1000000238419,img/planet10_right.png,10,Community 2,NA,TRUE,j,j,NA,NA,NA,3,6,"11,1,2,8,7,14,12,15,10,5,3,9,13,4,6"
14826,commdev-image-keyboard-response,275,534932,learnblock1,1018,img/planet5_left.png,5,Community 2,NA,TRUE,f,f,NA,NA,NA,3,6,"11,1,2,8,7,14,12,15,10,5,3,9,13,4,6"
14826,commdev-image-keyboard-response,276,536192,learnblock1,891.3000000119209,img/planet12_right.png,12,Community 2,NA,TRUE,j,j,NA,NA,NA,3,6,"11,1,2,8,7,14,12,15,10,5,3,9,13,4,6"
14826,commdev-image-keyboard-response,277,537445,learnblock1,698.6999999880791,img/planet10_right.png,10,Community 2,NA,FALSE,f,j,NA,NA,NA,3,6,"11,1,2,8,7,14,12,15,10,5,3,9,13,4,6"
14826,commdev-image-keyboard-response,278,538705,learnblock1,875.8000000119209,img/planet15_right.png,15,Community 2,NA,TRUE,j,j,NA,NA,NA,3,6,"11,1,2,8,7,14,12,15,10,5,3,9,13,4,6"
14826,commdev-image-keyboard-response,279,539958,learnblock1,803.5,img/planet10_right.png,10,Community 2,NA,TRUE,j,j,NA,NA,NA,3,6,"11,1,2,8,7,14,12,15,10,5,3,9,13,4,6"
14826,commdev-image-keyboard-response,280,541215,learnblock1,949.5,img/planet14_right.png,14,Community 2,NA,TRUE,j,j,NA,NA,NA,3,6,"11,1,2,8,7,14,12,15,10,5,3,9,13,4,6"
14826,commdev-image-keyboard-response,281,542473,learnblock1,665.1000000238419,img/planet8_right.png,8,Community 1,NA,TRUE,j,j,NA,NA,NA,3,6,"11,1,2,8,7,14,12,15,10,5,3,9,13,4,6"
14826,commdev-image-keyboard-response,282,543736,learnblock1,616.1999999880791,img/planet1_right.png,1,Community 1,NA,TRUE,j,j,NA,NA,NA,3,6,"11,1,2,8,7,14,12,15,10,5,3,9,13,4,6"
14826,commdev-image-keyboard-response,283,544990,learnblock1,602,img/planet2_left.png,2,Community 1,NA,TRUE,f,f,NA,NA,NA,3,6,"11,1,2,8,7,14,12,15,10,5,3,9,13,4,6"
14826,commdev-image-keyboard-response,284,546247,learnblock1,678.5999999642372,img/planet1_right.png,1,Community 1,NA,TRUE,j,j,NA,NA,NA,3,6,"11,1,2,8,7,14,12,15,10,5,3,9,13,4,6"
14826,commdev-image-keyboard-response,285,547500,learnblock1,632,img/planet7_right.png,7,Community 1,NA,TRUE,j,j,NA,NA,NA,3,6,"11,1,2,8,7,14,12,15,10,5,3,9,13,4,6"
14826,commdev-image-keyboard-response,286,548759,learnblock1,674.8000000119209,img/planet2_left.png,2,Community 1,NA,TRUE,f,f,NA,NA,NA,3,6,"11,1,2,8,7,14,12,15,10,5,3,9,13,4,6"
14826,commdev-image-keyboard-response,287,550018,learnblock1,725.3000000119209,img/planet8_left.png,8,Community 1,NA,TRUE,f,f,NA,NA,NA,3,6,"11,1,2,8,7,14,12,15,10,5,3,9,13,4,6"
14826,commdev-image-keyboard-response,288,551274,learnblock1,645.3000000119209,img/planet1_right.png,1,Community 1,NA,TRUE,j,j,NA,NA,NA,3,6,"11,1,2,8,7,14,12,15,10,5,3,9,13,4,6"
14826,commdev-image-keyboard-response,289,552540,learnblock1,793,img/planet7_left.png,7,Community 1,NA,TRUE,f,f,NA,NA,NA,3,6,"11,1,2,8,7,14,12,15,10,5,3,9,13,4,6"
14826,commdev-image-keyboard-response,290,553802,learnblock1,967,img/planet1_left.png,1,Community 1,NA,TRUE,f,f,NA,NA,NA,3,6,"11,1,2,8,7,14,12,15,10,5,3,9,13,4,6"
14826,commdev-image-keyboard-response,291,555070,learnblock1,820.4000000357628,img/planet11_right.png,11,Community 1,NA,TRUE,j,j,NA,NA,NA,3,6,"11,1,2,8,7,14,12,15,10,5,3,9,13,4,6"
14826,commdev-image-keyboard-response,292,556325,learnblock1,627.9000000357628,img/planet2_right.png,2,Community 1,NA,TRUE,j,j,NA,NA,NA,3,6,"11,1,2,8,7,14,12,15,10,5,3,9,13,4,6"
14826,commdev-image-keyboard-response,293,557582,learnblock1,654.6000000238419,img/planet7_right.png,7,Community 1,NA,TRUE,j,j,NA,NA,NA,3,6,"11,1,2,8,7,14,12,15,10,5,3,9,13,4,6"
14826,commdev-image-keyboard-response,294,558839,learnblock1,697.3000000119209,img/planet1_right.png,1,Community 1,NA,TRUE,j,j,NA,NA,NA,3,6,"11,1,2,8,7,14,12,15,10,5,3,9,13,4,6"
14826,commdev-image-keyboard-response,295,560099,learnblock1,655.1000000238419,img/planet7_left.png,7,Community 1,NA,TRUE,f,f,NA,NA,NA,3,6,"11,1,2,8,7,14,12,15,10,5,3,9,13,4,6"
14826,commdev-image-keyboard-response,296,561354,learnblock1,734.8999999761581,img/planet3_left.png,3,Community 3,NA,TRUE,f,f,NA,NA,NA,3,6,"11,1,2,8,7,14,12,15,10,5,3,9,13,4,6"
14826,commdev-image-keyboard-response,297,562611,learnblock1,675.4000000357628,img/planet4_left.png,4,Community 3,NA,TRUE,f,f,NA,NA,NA,3,6,"11,1,2,8,7,14,12,15,10,5,3,9,13,4,6"
14826,commdev-image-keyboard-response,298,563874,learnblock1,730.6000000238419,img/planet13_left.png,13,Community 3,NA,TRUE,f,f,NA,NA,NA,3,6,"11,1,2,8,7,14,12,15,10,5,3,9,13,4,6"
14826,commdev-image-keyboard-response,299,565133,learnblock1,795.5999999642372,img/planet6_left.png,6,Community 3,NA,TRUE,f,f,NA,NA,NA,3,6,"11,1,2,8,7,14,12,15,10,5,3,9,13,4,6"
14826,commdev-image-keyboard-response,300,566391,learnblock1,744,img/planet4_left.png,4,Community 3,NA,TRUE,f,f,NA,NA,NA,3,6,"11,1,2,8,7,14,12,15,10,5,3,9,13,4,6"
14826,commdev-image-keyboard-response,301,567648,learnblock1,737.2999999523163,img/planet13_left.png,13,Community 3,NA,TRUE,f,f,NA,NA,NA,3,6,"11,1,2,8,7,14,12,15,10,5,3,9,13,4,6"
14826,commdev-image-keyboard-response,302,568903,learnblock1,1012.5999999642372,img/planet9_left.png,9,Community 3,NA,TRUE,f,f,NA,NA,NA,3,6,"11,1,2,8,7,14,12,15,10,5,3,9,13,4,6"
14826,commdev-image-keyboard-response,303,570159,learnblock1,929.0999999642372,img/planet15_left.png,15,Community 2,NA,TRUE,f,f,NA,NA,NA,3,6,"11,1,2,8,7,14,12,15,10,5,3,9,13,4,6"
14826,commdev-image-keyboard-response,304,571422,learnblock1,818.8000000119209,img/planet10_right.png,10,Community 2,NA,TRUE,j,j,NA,NA,NA,3,6,"11,1,2,8,7,14,12,15,10,5,3,9,13,4,6"
14826,commdev-image-keyboard-response,305,572683,learnblock1,859.8999999761581,img/planet12_left.png,12,Community 2,NA,TRUE,f,f,NA,NA,NA,3,6,"11,1,2,8,7,14,12,15,10,5,3,9,13,4,6"
14826,commdev-image-keyboard-response,306,573945,learnblock1,856.1999999880791,img/planet10_left.png,10,Community 2,NA,TRUE,f,f,NA,NA,NA,3,6,"11,1,2,8,7,14,12,15,10,5,3,9,13,4,6"
14826,commdev-image-keyboard-response,307,575198,learnblock1,1092.1000000238419,img/planet14_left.png,14,Community 2,NA,TRUE,f,f,NA,NA,NA,3,6,"11,1,2,8,7,14,12,15,10,5,3,9,13,4,6"
14826,commdev-image-keyboard-response,308,576456,learnblock1,658.8999999761581,img/planet8_right.png,8,Community 1,NA,TRUE,j,j,NA,NA,NA,3,6,"11,1,2,8,7,14,12,15,10,5,3,9,13,4,6"
14826,commdev-image-keyboard-response,309,577718,learnblock1,558.3999999761581,img/planet2_right.png,2,Community 1,NA,FALSE,f,j,NA,NA,NA,3,6,"11,1,2,8,7,14,12,15,10,5,3,9,13,4,6"
14826,commdev-image-keyboard-response,310,578980,learnblock1,639.1000000238419,img/planet8_left.png,8,Community 1,NA,TRUE,f,f,NA,NA,NA,3,6,"11,1,2,8,7,14,12,15,10,5,3,9,13,4,6"
14826,commdev-image-keyboard-response,311,580234,learnblock1,620.6000000238419,img/planet11_right.png,11,Community 1,NA,TRUE,j,j,NA,NA,NA,3,6,"11,1,2,8,7,14,12,15,10,5,3,9,13,4,6"
14826,commdev-image-keyboard-response,312,581490,learnblock1,741.0999999642372,img/planet7_left.png,7,Community 1,NA,TRUE,f,f,NA,NA,NA,3,6,"11,1,2,8,7,14,12,15,10,5,3,9,13,4,6"
14826,commdev-image-keyboard-response,313,582744,learnblock1,647.4000000357628,img/planet2_right.png,2,Community 1,NA,TRUE,j,j,NA,NA,NA,3,6,"11,1,2,8,7,14,12,15,10,5,3,9,13,4,6"
14826,commdev-image-keyboard-response,314,583998,learnblock1,769.9000000357628,img/planet7_left.png,7,Community 1,NA,TRUE,f,f,NA,NA,NA,3,6,"11,1,2,8,7,14,12,15,10,5,3,9,13,4,6"
14826,commdev-image-keyboard-response,315,585255,learnblock1,616.0999999642372,img/planet3_right.png,3,Community 3,NA,TRUE,j,j,NA,NA,NA,3,6,"11,1,2,8,7,14,12,15,10,5,3,9,13,4,6"
14826,commdev-image-keyboard-response,316,586509,learnblock1,674.5999999642372,img/planet7_right.png,7,Community 1,NA,TRUE,j,j,NA,NA,NA,3,6,"11,1,2,8,7,14,12,15,10,5,3,9,13,4,6"
14826,commdev-image-keyboard-response,317,587769,learnblock1,710.1000000238419,img/planet2_left.png,2,Community 1,NA,TRUE,f,f,NA,NA,NA,3,6,"11,1,2,8,7,14,12,15,10,5,3,9,13,4,6"
14826,commdev-image-keyboard-response,318,589023,learnblock1,735.2000000476837,img/planet11_left.png,11,Community 1,NA,TRUE,f,f,NA,NA,NA,3,6,"11,1,2,8,7,14,12,15,10,5,3,9,13,4,6"
14826,commdev-image-keyboard-response,319,590290,learnblock1,601.6000000238419,img/planet8_right.png,8,Community 1,NA,TRUE,j,j,NA,NA,NA,3,6,"11,1,2,8,7,14,12,15,10,5,3,9,13,4,6"
14826,commdev-image-keyboard-response,320,591546,learnblock1,535.4000000357628,img/planet11_right.png,11,Community 1,NA,TRUE,j,j,NA,NA,NA,3,6,"11,1,2,8,7,14,12,15,10,5,3,9,13,4,6"
14826,commdev-image-keyboard-response,321,592809,learnblock1,604.5999999642372,img/planet7_left.png,7,Community 1,NA,TRUE,f,f,NA,NA,NA,3,6,"11,1,2,8,7,14,12,15,10,5,3,9,13,4,6"
14826,commdev-image-keyboard-response,322,594061,learnblock1,675.2000000476837,img/planet1_right.png,1,Community 1,NA,TRUE,j,j,NA,NA,NA,3,6,"11,1,2,8,7,14,12,15,10,5,3,9,13,4,6"
14826,commdev-image-keyboard-response,323,595317,learnblock1,713.5,img/planet2_left.png,2,Community 1,NA,TRUE,f,f,NA,NA,NA,3,6,"11,1,2,8,7,14,12,15,10,5,3,9,13,4,6"
14826,commdev-image-keyboard-response,324,596582,learnblock1,751.6000000238419,img/planet1_left.png,1,Community 1,NA,TRUE,f,f,NA,NA,NA,3,6,"11,1,2,8,7,14,12,15,10,5,3,9,13,4,6"
14826,commdev-image-keyboard-response,325,597838,learnblock1,578.7999999523163,img/planet8_right.png,8,Community 1,NA,TRUE,j,j,NA,NA,NA,3,6,"11,1,2,8,7,14,12,15,10,5,3,9,13,4,6"
14826,commdev-image-keyboard-response,326,599090,learnblock1,657,img/planet14_right.png,14,Community 2,NA,TRUE,j,j,NA,NA,NA,3,6,"11,1,2,8,7,14,12,15,10,5,3,9,13,4,6"
14826,commdev-image-keyboard-response,327,600342,learnblock1,713.4000000357628,img/planet8_left.png,8,Community 1,NA,TRUE,f,f,NA,NA,NA,3,6,"11,1,2,8,7,14,12,15,10,5,3,9,13,4,6"
14826,commdev-image-keyboard-response,328,601599,learnblock1,577.5999999642372,img/planet2_right.png,2,Community 1,NA,TRUE,j,j,NA,NA,NA,3,6,"11,1,2,8,7,14,12,15,10,5,3,9,13,4,6"
14826,commdev-image-keyboard-response,329,602863,learnblock1,627.2000000476837,img/planet7_right.png,7,Community 1,NA,TRUE,j,j,NA,NA,NA,3,6,"11,1,2,8,7,14,12,15,10,5,3,9,13,4,6"
14826,commdev-image-keyboard-response,330,604115,learnblock1,660.1000000238419,img/planet1_left.png,1,Community 1,NA,TRUE,f,f,NA,NA,NA,3,6,"11,1,2,8,7,14,12,15,10,5,3,9,13,4,6"
14826,commdev-image-keyboard-response,331,605372,learnblock1,636.3999999761581,img/planet8_right.png,8,Community 1,NA,TRUE,j,j,NA,NA,NA,3,6,"11,1,2,8,7,14,12,15,10,5,3,9,13,4,6"
14826,commdev-image-keyboard-response,332,606627,learnblock1,678.5999999642372,img/planet14_left.png,14,Community 2,NA,TRUE,f,f,NA,NA,NA,3,6,"11,1,2,8,7,14,12,15,10,5,3,9,13,4,6"
14826,commdev-image-keyboard-response,333,607884,learnblock1,748.5,img/planet12_right.png,12,Community 2,NA,TRUE,j,j,NA,NA,NA,3,6,"11,1,2,8,7,14,12,15,10,5,3,9,13,4,6"
14826,commdev-image-keyboard-response,334,609147,learnblock1,695.6000000238419,img/planet5_right.png,5,Community 2,NA,TRUE,j,j,NA,NA,NA,3,6,"11,1,2,8,7,14,12,15,10,5,3,9,13,4,6"
14826,commdev-image-keyboard-response,335,610409,learnblock1,686.8999999761581,img/planet12_left.png,12,Community 2,NA,TRUE,f,f,NA,NA,NA,3,6,"11,1,2,8,7,14,12,15,10,5,3,9,13,4,6"
14826,commdev-image-keyboard-response,336,611668,learnblock1,591.8999999761581,img/planet10_right.png,10,Community 2,NA,TRUE,j,j,NA,NA,NA,3,6,"11,1,2,8,7,14,12,15,10,5,3,9,13,4,6"
14826,commdev-image-keyboard-response,337,612926,learnblock1,661.6999999880791,img/planet5_right.png,5,Community 2,NA,TRUE,j,j,NA,NA,NA,3,6,"11,1,2,8,7,14,12,15,10,5,3,9,13,4,6"
14826,commdev-image-keyboard-response,338,614187,learnblock1,699.5999999642372,img/planet15_right.png,15,Community 2,NA,TRUE,j,j,NA,NA,NA,3,6,"11,1,2,8,7,14,12,15,10,5,3,9,13,4,6"
14826,commdev-image-keyboard-response,339,615449,learnblock1,819.9000000357628,img/planet9_right.png,9,Community 3,NA,TRUE,j,j,NA,NA,NA,3,6,"11,1,2,8,7,14,12,15,10,5,3,9,13,4,6"
14826,commdev-image-keyboard-response,340,616702,learnblock1,650.8999999761581,img/planet4_left.png,4,Community 3,NA,TRUE,f,f,NA,NA,NA,3,6,"11,1,2,8,7,14,12,15,10,5,3,9,13,4,6"
14826,commdev-image-keyboard-response,341,617962,learnblock1,599.1000000238419,img/planet6_right.png,6,Community 3,NA,TRUE,j,j,NA,NA,NA,3,6,"11,1,2,8,7,14,12,15,10,5,3,9,13,4,6"
14826,commdev-image-keyboard-response,342,619215,learnblock1,556.5,img/planet9_right.png,9,Community 3,NA,TRUE,j,j,NA,NA,NA,3,6,"11,1,2,8,7,14,12,15,10,5,3,9,13,4,6"
14826,commdev-image-keyboard-response,343,620476,learnblock1,563.8000000119209,img/planet15_left.png,15,Community 2,NA,TRUE,f,f,NA,NA,NA,3,6,"11,1,2,8,7,14,12,15,10,5,3,9,13,4,6"
14826,commdev-image-keyboard-response,344,621736,learnblock1,1158.5999999642372,img/planet9_right.png,9,Community 3,NA,FALSE,f,j,NA,NA,NA,3,6,"11,1,2,8,7,14,12,15,10,5,3,9,13,4,6"
14826,commdev-image-keyboard-response,345,622991,learnblock1,35.10000002384186,img/planet4_right.png,4,Community 3,NA,TRUE,j,j,NA,NA,NA,3,6,"11,1,2,8,7,14,12,15,10,5,3,9,13,4,6"
14826,commdev-image-keyboard-response,346,624244,learnblock1,745.6999999880791,img/planet13_left.png,13,Community 3,NA,TRUE,f,f,NA,NA,NA,3,6,"11,1,2,8,7,14,12,15,10,5,3,9,13,4,6"
14826,commdev-image-keyboard-response,347,625499,learnblock1,1148.3999999761581,img/planet6_left.png,6,Community 3,NA,TRUE,f,f,NA,NA,NA,3,6,"11,1,2,8,7,14,12,15,10,5,3,9,13,4,6"
14826,commdev-image-keyboard-response,351,691453,learnblock2,854.1000000238419,img/planet9_right.png,9,Community 3,NA,TRUE,j,j,NA,NA,NA,3,6,"11,1,2,8,7,14,12,15,10,5,3,9,13,4,6"
14826,commdev-image-keyboard-response,352,692707,learnblock2,575.8999999761581,img/planet13_right.png,13,Community 3,NA,TRUE,j,j,NA,NA,NA,3,6,"11,1,2,8,7,14,12,15,10,5,3,9,13,4,6"
14826,commdev-image-keyboard-response,353,693961,learnblock2,672.8999999761581,img/planet4_right.png,4,Community 3,NA,TRUE,j,j,NA,NA,NA,3,6,"11,1,2,8,7,14,12,15,10,5,3,9,13,4,6"
14826,commdev-image-keyboard-response,354,695220,learnblock2,581.8999999761581,img/planet9_left.png,9,Community 3,NA,TRUE,f,f,NA,NA,NA,3,6,"11,1,2,8,7,14,12,15,10,5,3,9,13,4,6"
14826,commdev-image-keyboard-response,355,696473,learnblock2,574.8999999761581,img/planet15_left.png,15,Community 2,NA,TRUE,f,f,NA,NA,NA,3,6,"11,1,2,8,7,14,12,15,10,5,3,9,13,4,6"
14826,commdev-image-keyboard-response,356,697726,learnblock2,741.9000000357628,img/planet5_right.png,5,Community 2,NA,TRUE,j,j,NA,NA,NA,3,6,"11,1,2,8,7,14,12,15,10,5,3,9,13,4,6"
14826,commdev-image-keyboard-response,357,698982,learnblock2,802.5,img/planet12_left.png,12,Community 2,NA,FALSE,j,f,NA,NA,NA,3,6,"11,1,2,8,7,14,12,15,10,5,3,9,13,4,6"
14826,commdev-image-keyboard-response,358,700235,learnblock2,696.6999999880791,img/planet14_left.png,14,Community 2,NA,TRUE,f,f,NA,NA,NA,3,6,"11,1,2,8,7,14,12,15,10,5,3,9,13,4,6"
14826,commdev-image-keyboard-response,359,701489,learnblock2,582.3999999761581,img/planet10_left.png,10,Community 2,NA,TRUE,f,f,NA,NA,NA,3,6,"11,1,2,8,7,14,12,15,10,5,3,9,13,4,6"
14826,commdev-image-keyboard-response,360,702756,learnblock2,840.2999999523163,img/planet12_right.png,12,Community 2,NA,TRUE,j,j,NA,NA,NA,3,6,"11,1,2,8,7,14,12,15,10,5,3,9,13,4,6"
14826,commdev-image-keyboard-response,361,704013,learnblock2,619.7000000476837,img/planet14_left.png,14,Community 2,NA,TRUE,f,f,NA,NA,NA,3,6,"11,1,2,8,7,14,12,15,10,5,3,9,13,4,6"
14826,commdev-image-keyboard-response,362,705272,learnblock2,793.8000000119209,img/planet12_left.png,12,Community 2,NA,TRUE,f,f,NA,NA,NA,3,6,"11,1,2,8,7,14,12,15,10,5,3,9,13,4,6"
14826,commdev-image-keyboard-response,363,706536,learnblock2,715.8000000119209,img/planet10_right.png,10,Community 2,NA,TRUE,j,j,NA,NA,NA,3,6,"11,1,2,8,7,14,12,15,10,5,3,9,13,4,6"
14826,commdev-image-keyboard-response,364,707793,learnblock2,728.0999999642372,img/planet15_right.png,15,Community 2,NA,TRUE,j,j,NA,NA,NA,3,6,"11,1,2,8,7,14,12,15,10,5,3,9,13,4,6"
14826,commdev-image-keyboard-response,365,709049,learnblock2,715.1000000238419,img/planet5_left.png,5,Community 2,NA,TRUE,f,f,NA,NA,NA,3,6,"11,1,2,8,7,14,12,15,10,5,3,9,13,4,6"
14826,commdev-image-keyboard-response,366,710306,learnblock2,546.2000000476837,img/planet10_right.png,10,Community 2,NA,TRUE,j,j,NA,NA,NA,3,6,"11,1,2,8,7,14,12,15,10,5,3,9,13,4,6"
14826,commdev-image-keyboard-response,367,711566,learnblock2,592,img/planet15_left.png,15,Community 2,NA,TRUE,f,f,NA,NA,NA,3,6,"11,1,2,8,7,14,12,15,10,5,3,9,13,4,6"
14826,commdev-image-keyboard-response,368,712825,learnblock2,564.5,img/planet10_right.png,10,Community 2,NA,TRUE,j,j,NA,NA,NA,3,6,"11,1,2,8,7,14,12,15,10,5,3,9,13,4,6"
14826,commdev-image-keyboard-response,369,714091,learnblock2,707.4000000357628,img/planet15_right.png,15,Community 2,NA,TRUE,j,j,NA,NA,NA,3,6,"11,1,2,8,7,14,12,15,10,5,3,9,13,4,6"
14826,commdev-image-keyboard-response,370,715353,learnblock2,610.9000000357628,img/planet9_right.png,9,Community 3,NA,TRUE,j,j,NA,NA,NA,3,6,"11,1,2,8,7,14,12,15,10,5,3,9,13,4,6"
14826,commdev-image-keyboard-response,371,716613,learnblock2,509.19999998807907,img/planet13_right.png,13,Community 3,NA,TRUE,j,j,NA,NA,NA,3,6,"11,1,2,8,7,14,12,15,10,5,3,9,13,4,6"
14826,commdev-image-keyboard-response,372,717880,learnblock2,740.1000000238419,img/planet6_left.png,6,Community 3,NA,TRUE,f,f,NA,NA,NA,3,6,"11,1,2,8,7,14,12,15,10,5,3,9,13,4,6"
14826,commdev-image-keyboard-response,373,719147,learnblock2,815.6000000238419,img/planet9_left.png,9,Community 3,NA,TRUE,f,f,NA,NA,NA,3,6,"11,1,2,8,7,14,12,15,10,5,3,9,13,4,6"
14826,commdev-image-keyboard-response,374,720401,learnblock2,731.9000000357628,img/planet4_left.png,4,Community 3,NA,TRUE,f,f,NA,NA,NA,3,6,"11,1,2,8,7,14,12,15,10,5,3,9,13,4,6"
14826,commdev-image-keyboard-response,375,721655,learnblock2,557.6999999880791,img/planet9_left.png,9,Community 3,NA,TRUE,f,f,NA,NA,NA,3,6,"11,1,2,8,7,14,12,15,10,5,3,9,13,4,6"
14826,commdev-image-keyboard-response,376,722916,learnblock2,567.7000000476837,img/planet4_right.png,4,Community 3,NA,TRUE,j,j,NA,NA,NA,3,6,"11,1,2,8,7,14,12,15,10,5,3,9,13,4,6"
14826,commdev-image-keyboard-response,377,724171,learnblock2,565.1999999880791,img/planet9_left.png,9,Community 3,NA,TRUE,f,f,NA,NA,NA,3,6,"11,1,2,8,7,14,12,15,10,5,3,9,13,4,6"
14826,commdev-image-keyboard-response,378,725423,learnblock2,606.3999999761581,img/planet13_left.png,13,Community 3,NA,TRUE,f,f,NA,NA,NA,3,6,"11,1,2,8,7,14,12,15,10,5,3,9,13,4,6"
14826,commdev-image-keyboard-response,379,726699,learnblock2,617.8999999761581,img/planet6_left.png,6,Community 3,NA,TRUE,f,f,NA,NA,NA,3,6,"11,1,2,8,7,14,12,15,10,5,3,9,13,4,6"
14826,commdev-image-keyboard-response,380,727962,learnblock2,645.7999999523163,img/planet9_left.png,9,Community 3,NA,TRUE,f,f,NA,NA,NA,3,6,"11,1,2,8,7,14,12,15,10,5,3,9,13,4,6"
14826,commdev-image-keyboard-response,381,729221,learnblock2,856.8000000119209,img/planet13_left.png,13,Community 3,NA,TRUE,f,f,NA,NA,NA,3,6,"11,1,2,8,7,14,12,15,10,5,3,9,13,4,6"
14826,commdev-image-keyboard-response,382,730474,learnblock2,554.5,img/planet4_right.png,4,Community 3,NA,TRUE,j,j,NA,NA,NA,3,6,"11,1,2,8,7,14,12,15,10,5,3,9,13,4,6"
14826,commdev-image-keyboard-response,383,731731,learnblock2,560.4000000357628,img/planet6_right.png,6,Community 3,NA,TRUE,j,j,NA,NA,NA,3,6,"11,1,2,8,7,14,12,15,10,5,3,9,13,4,6"
14826,commdev-image-keyboard-response,384,732989,learnblock2,608.1999999880791,img/planet4_right.png,4,Community 3,NA,TRUE,j,j,NA,NA,NA,3,6,"11,1,2,8,7,14,12,15,10,5,3,9,13,4,6"
14826,commdev-image-keyboard-response,385,734245,learnblock2,576.8999999761581,img/planet6_left.png,6,Community 3,NA,TRUE,f,f,NA,NA,NA,3,6,"11,1,2,8,7,14,12,15,10,5,3,9,13,4,6"
14826,commdev-image-keyboard-response,386,735503,learnblock2,718.2999999523163,img/planet13_left.png,13,Community 3,NA,TRUE,f,f,NA,NA,NA,3,6,"11,1,2,8,7,14,12,15,10,5,3,9,13,4,6"
14826,commdev-image-keyboard-response,387,736766,learnblock2,573,img/planet9_left.png,9,Community 3,NA,TRUE,f,f,NA,NA,NA,3,6,"11,1,2,8,7,14,12,15,10,5,3,9,13,4,6"
14826,commdev-image-keyboard-response,388,738020,learnblock2,730,img/planet13_right.png,13,Community 3,NA,TRUE,j,j,NA,NA,NA,3,6,"11,1,2,8,7,14,12,15,10,5,3,9,13,4,6"
14826,commdev-image-keyboard-response,389,739280,learnblock2,606.2000000476837,img/planet9_left.png,9,Community 3,NA,TRUE,f,f,NA,NA,NA,3,6,"11,1,2,8,7,14,12,15,10,5,3,9,13,4,6"
14826,commdev-image-keyboard-response,390,740542,learnblock2,613.3999999761581,img/planet15_left.png,15,Community 2,NA,TRUE,f,f,NA,NA,NA,3,6,"11,1,2,8,7,14,12,15,10,5,3,9,13,4,6"
14826,commdev-image-keyboard-response,391,741798,learnblock2,575.6999999880791,img/planet9_right.png,9,Community 3,NA,TRUE,j,j,NA,NA,NA,3,6,"11,1,2,8,7,14,12,15,10,5,3,9,13,4,6"
14826,commdev-image-keyboard-response,392,743059,learnblock2,614.6000000238419,img/planet4_right.png,4,Community 3,NA,TRUE,j,j,NA,NA,NA,3,6,"11,1,2,8,7,14,12,15,10,5,3,9,13,4,6"
14826,commdev-image-keyboard-response,393,744317,learnblock2,615,img/planet13_left.png,13,Community 3,NA,TRUE,f,f,NA,NA,NA,3,6,"11,1,2,8,7,14,12,15,10,5,3,9,13,4,6"
14826,commdev-image-keyboard-response,394,745573,learnblock2,568.1999999880791,img/planet6_right.png,6,Community 3,NA,TRUE,j,j,NA,NA,NA,3,6,"11,1,2,8,7,14,12,15,10,5,3,9,13,4,6"
14826,commdev-image-keyboard-response,395,746825,learnblock2,781.2999999523163,img/planet13_right.png,13,Community 3,NA,TRUE,j,j,NA,NA,NA,3,6,"11,1,2,8,7,14,12,15,10,5,3,9,13,4,6"
14826,commdev-image-keyboard-response,396,748096,learnblock2,938,img/planet4_right.png,4,Community 3,NA,TRUE,j,j,NA,NA,NA,3,6,"11,1,2,8,7,14,12,15,10,5,3,9,13,4,6"
14826,commdev-image-keyboard-response,397,749355,learnblock2,880.6999999880791,img/planet13_right.png,13,Community 3,NA,TRUE,j,j,NA,NA,NA,3,6,"11,1,2,8,7,14,12,15,10,5,3,9,13,4,6"
14826,commdev-image-keyboard-response,398,750616,learnblock2,769.1000000238419,img/planet4_right.png,4,Community 3,NA,TRUE,j,j,NA,NA,NA,3,6,"11,1,2,8,7,14,12,15,10,5,3,9,13,4,6"
14826,commdev-image-keyboard-response,399,751870,learnblock2,594.8000000119209,img/planet6_left.png,6,Community 3,NA,TRUE,f,f,NA,NA,NA,3,6,"11,1,2,8,7,14,12,15,10,5,3,9,13,4,6"
14826,commdev-image-keyboard-response,400,753131,learnblock2,911.7999999523163,img/planet9_right.png,9,Community 3,NA,TRUE,j,j,NA,NA,NA,3,6,"11,1,2,8,7,14,12,15,10,5,3,9,13,4,6"
14826,commdev-image-keyboard-response,401,754398,learnblock2,772.5,img/planet15_right.png,15,Community 2,NA,TRUE,j,j,NA,NA,NA,3,6,"11,1,2,8,7,14,12,15,10,5,3,9,13,4,6"
14826,commdev-image-keyboard-response,402,755658,learnblock2,645.1999999880791,img/planet12_left.png,12,Community 2,NA,TRUE,f,f,NA,NA,NA,3,6,"11,1,2,8,7,14,12,15,10,5,3,9,13,4,6"
14826,commdev-image-keyboard-response,403,756915,learnblock2,749.0999999642372,img/planet10_left.png,10,Community 2,NA,TRUE,f,f,NA,NA,NA,3,6,"11,1,2,8,7,14,12,15,10,5,3,9,13,4,6"
14826,commdev-image-keyboard-response,404,758175,learnblock2,631,img/planet12_right.png,12,Community 2,NA,TRUE,j,j,NA,NA,NA,3,6,"11,1,2,8,7,14,12,15,10,5,3,9,13,4,6"
14826,commdev-image-keyboard-response,405,759434,learnblock2,630.6000000238419,img/planet15_left.png,15,Community 2,NA,TRUE,f,f,NA,NA,NA,3,6,"11,1,2,8,7,14,12,15,10,5,3,9,13,4,6"
14826,commdev-image-keyboard-response,406,760692,learnblock2,536.5,img/planet5_right.png,5,Community 2,NA,TRUE,j,j,NA,NA,NA,3,6,"11,1,2,8,7,14,12,15,10,5,3,9,13,4,6"
14826,commdev-image-keyboard-response,407,761949,learnblock2,681.2999999523163,img/planet14_right.png,14,Community 2,NA,FALSE,f,j,NA,NA,NA,3,6,"11,1,2,8,7,14,12,15,10,5,3,9,13,4,6"
14826,commdev-image-keyboard-response,408,763214,learnblock2,737.3000000119209,img/planet10_right.png,10,Community 2,NA,TRUE,j,j,NA,NA,NA,3,6,"11,1,2,8,7,14,12,15,10,5,3,9,13,4,6"
14826,commdev-image-keyboard-response,409,764469,learnblock2,564.3000000119209,img/planet12_right.png,12,Community 2,NA,TRUE,j,j,NA,NA,NA,3,6,"11,1,2,8,7,14,12,15,10,5,3,9,13,4,6"
14826,commdev-image-keyboard-response,410,765730,learnblock2,602.3999999761581,img/planet10_right.png,10,Community 2,NA,TRUE,j,j,NA,NA,NA,3,6,"11,1,2,8,7,14,12,15,10,5,3,9,13,4,6"
14826,commdev-image-keyboard-response,411,766991,learnblock2,584.3999999761581,img/planet12_right.png,12,Community 2,NA,TRUE,j,j,NA,NA,NA,3,6,"11,1,2,8,7,14,12,15,10,5,3,9,13,4,6"
14826,commdev-image-keyboard-response,412,768243,learnblock2,549.6000000238419,img/planet10_right.png,10,Community 2,NA,TRUE,j,j,NA,NA,NA,3,6,"11,1,2,8,7,14,12,15,10,5,3,9,13,4,6"
14826,commdev-image-keyboard-response,413,769503,learnblock2,615.3000000119209,img/planet14_left.png,14,Community 2,NA,FALSE,j,f,NA,NA,NA,3,6,"11,1,2,8,7,14,12,15,10,5,3,9,13,4,6"
14826,commdev-image-keyboard-response,414,770766,learnblock2,581.3000000119209,img/planet10_left.png,10,Community 2,NA,TRUE,f,f,NA,NA,NA,3,6,"11,1,2,8,7,14,12,15,10,5,3,9,13,4,6"
14826,commdev-image-keyboard-response,415,772020,learnblock2,877.5999999642372,img/planet12_right.png,12,Community 2,NA,TRUE,j,j,NA,NA,NA,3,6,"11,1,2,8,7,14,12,15,10,5,3,9,13,4,6"
14826,commdev-image-keyboard-response,416,773275,learnblock2,681.3000000119209,img/planet5_left.png,5,Community 2,NA,TRUE,f,f,NA,NA,NA,3,6,"11,1,2,8,7,14,12,15,10,5,3,9,13,4,6"
14826,commdev-image-keyboard-response,417,774532,learnblock2,622.3000000119209,img/planet15_right.png,15,Community 2,NA,TRUE,j,j,NA,NA,NA,3,6,"11,1,2,8,7,14,12,15,10,5,3,9,13,4,6"
14826,commdev-image-keyboard-response,418,775800,learnblock2,774.3000000119209,img/planet12_right.png,12,Community 2,NA,TRUE,j,j,NA,NA,NA,3,6,"11,1,2,8,7,14,12,15,10,5,3,9,13,4,6"
14826,commdev-image-keyboard-response,419,777067,learnblock2,632.3000000119209,img/planet15_right.png,15,Community 2,NA,TRUE,j,j,NA,NA,NA,3,6,"11,1,2,8,7,14,12,15,10,5,3,9,13,4,6"
14826,commdev-image-keyboard-response,420,778324,learnblock2,537,img/planet9_left.png,9,Community 3,NA,TRUE,f,f,NA,NA,NA,3,6,"11,1,2,8,7,14,12,15,10,5,3,9,13,4,6"
14826,commdev-image-keyboard-response,421,779579,learnblock2,795.6000000238419,img/planet15_left.png,15,Community 2,NA,TRUE,f,f,NA,NA,NA,3,6,"11,1,2,8,7,14,12,15,10,5,3,9,13,4,6"
14826,commdev-image-keyboard-response,422,780838,learnblock2,738.5999999642372,img/planet5_left.png,5,Community 2,NA,TRUE,f,f,NA,NA,NA,3,6,"11,1,2,8,7,14,12,15,10,5,3,9,13,4,6"
14826,commdev-image-keyboard-response,423,782096,learnblock2,733,img/planet12_right.png,12,Community 2,NA,TRUE,j,j,NA,NA,NA,3,6,"11,1,2,8,7,14,12,15,10,5,3,9,13,4,6"
14826,commdev-image-keyboard-response,424,783354,learnblock2,924.0999999642372,img/planet15_right.png,15,Community 2,NA,TRUE,j,j,NA,NA,NA,3,6,"11,1,2,8,7,14,12,15,10,5,3,9,13,4,6"
14826,commdev-image-keyboard-response,425,784607,learnblock2,708,img/planet9_right.png,9,Community 3,NA,TRUE,j,j,NA,NA,NA,3,6,"11,1,2,8,7,14,12,15,10,5,3,9,13,4,6"
14826,commdev-image-keyboard-response,426,785866,learnblock2,639.1999999880791,img/planet15_right.png,15,Community 2,NA,TRUE,j,j,NA,NA,NA,3,6,"11,1,2,8,7,14,12,15,10,5,3,9,13,4,6"
14826,commdev-image-keyboard-response,427,787125,learnblock2,568.8999999761581,img/planet10_right.png,10,Community 2,NA,TRUE,j,j,NA,NA,NA,3,6,"11,1,2,8,7,14,12,15,10,5,3,9,13,4,6"
14826,commdev-image-keyboard-response,428,788381,learnblock2,599,img/planet14_right.png,14,Community 2,NA,TRUE,j,j,NA,NA,NA,3,6,"11,1,2,8,7,14,12,15,10,5,3,9,13,4,6"
14826,commdev-image-keyboard-response,429,789643,learnblock2,525.1000000238419,img/planet10_right.png,10,Community 2,NA,TRUE,j,j,NA,NA,NA,3,6,"11,1,2,8,7,14,12,15,10,5,3,9,13,4,6"
14826,commdev-image-keyboard-response,430,790900,learnblock2,556.3999999761581,img/planet12_left.png,12,Community 2,NA,TRUE,f,f,NA,NA,NA,3,6,"11,1,2,8,7,14,12,15,10,5,3,9,13,4,6"
14826,commdev-image-keyboard-response,431,792160,learnblock2,530.1999999880791,img/planet5_right.png,5,Community 2,NA,TRUE,j,j,NA,NA,NA,3,6,"11,1,2,8,7,14,12,15,10,5,3,9,13,4,6"
14826,commdev-image-keyboard-response,432,793414,learnblock2,653.1000000238419,img/planet12_right.png,12,Community 2,NA,TRUE,j,j,NA,NA,NA,3,6,"11,1,2,8,7,14,12,15,10,5,3,9,13,4,6"
14826,commdev-image-keyboard-response,433,794667,learnblock2,594.8000000119209,img/planet15_left.png,15,Community 2,NA,TRUE,f,f,NA,NA,NA,3,6,"11,1,2,8,7,14,12,15,10,5,3,9,13,4,6"
14826,commdev-image-keyboard-response,434,795931,learnblock2,654.8000000119209,img/planet9_right.png,9,Community 3,NA,TRUE,j,j,NA,NA,NA,3,6,"11,1,2,8,7,14,12,15,10,5,3,9,13,4,6"
14826,commdev-image-keyboard-response,435,797183,learnblock2,525.8000000119209,img/planet15_left.png,15,Community 2,NA,TRUE,f,f,NA,NA,NA,3,6,"11,1,2,8,7,14,12,15,10,5,3,9,13,4,6"
14826,commdev-image-keyboard-response,436,798450,learnblock2,640.3999999761581,img/planet10_left.png,10,Community 2,NA,TRUE,f,f,NA,NA,NA,3,6,"11,1,2,8,7,14,12,15,10,5,3,9,13,4,6"
14826,commdev-image-keyboard-response,437,799717,learnblock2,635.1999999880791,img/planet14_left.png,14,Community 2,NA,TRUE,f,f,NA,NA,NA,3,6,"11,1,2,8,7,14,12,15,10,5,3,9,13,4,6"
14826,commdev-image-keyboard-response,438,800974,learnblock2,583.1999999880791,img/planet5_right.png,5,Community 2,NA,TRUE,j,j,NA,NA,NA,3,6,"11,1,2,8,7,14,12,15,10,5,3,9,13,4,6"
14826,commdev-image-keyboard-response,439,802228,learnblock2,569.5,img/planet14_left.png,14,Community 2,NA,FALSE,j,f,NA,NA,NA,3,6,"11,1,2,8,7,14,12,15,10,5,3,9,13,4,6"
14826,commdev-image-keyboard-response,440,803484,learnblock2,607,img/planet12_right.png,12,Community 2,NA,TRUE,j,j,NA,NA,NA,3,6,"11,1,2,8,7,14,12,15,10,5,3,9,13,4,6"
14826,commdev-image-keyboard-response,441,804741,learnblock2,782.3000000119209,img/planet14_left.png,14,Community 2,NA,TRUE,f,f,NA,NA,NA,3,6,"11,1,2,8,7,14,12,15,10,5,3,9,13,4,6"
14826,commdev-image-keyboard-response,442,805999,learnblock2,643.5,img/planet5_right.png,5,Community 2,NA,TRUE,j,j,NA,NA,NA,3,6,"11,1,2,8,7,14,12,15,10,5,3,9,13,4,6"
14826,commdev-image-keyboard-response,443,807260,learnblock2,982.7000000476837,img/planet12_right.png,12,Community 2,NA,FALSE,f,j,NA,NA,NA,3,6,"11,1,2,8,7,14,12,15,10,5,3,9,13,4,6"
14826,commdev-image-keyboard-response,444,808517,learnblock2,922,img/planet5_left.png,5,Community 2,NA,TRUE,f,f,NA,NA,NA,3,6,"11,1,2,8,7,14,12,15,10,5,3,9,13,4,6"
14826,commdev-image-keyboard-response,445,809777,learnblock2,650.3000000119209,img/planet10_right.png,10,Community 2,NA,TRUE,j,j,NA,NA,NA,3,6,"11,1,2,8,7,14,12,15,10,5,3,9,13,4,6"
14826,commdev-image-keyboard-response,446,811040,learnblock2,588.8999999761581,img/planet5_left.png,5,Community 2,NA,TRUE,f,f,NA,NA,NA,3,6,"11,1,2,8,7,14,12,15,10,5,3,9,13,4,6"
14826,commdev-image-keyboard-response,447,812300,learnblock2,580.8999999761581,img/planet15_right.png,15,Community 2,NA,TRUE,j,j,NA,NA,NA,3,6,"11,1,2,8,7,14,12,15,10,5,3,9,13,4,6"
14826,commdev-image-keyboard-response,448,813558,learnblock2,683.8999999761581,img/planet12_right.png,12,Community 2,NA,TRUE,j,j,NA,NA,NA,3,6,"11,1,2,8,7,14,12,15,10,5,3,9,13,4,6"
14826,commdev-image-keyboard-response,449,814813,learnblock2,668.5,img/planet15_left.png,15,Community 2,NA,TRUE,f,f,NA,NA,NA,3,6,"11,1,2,8,7,14,12,15,10,5,3,9,13,4,6"
14826,commdev-image-keyboard-response,450,816071,learnblock2,700.5,img/planet5_left.png,5,Community 2,NA,TRUE,f,f,NA,NA,NA,3,6,"11,1,2,8,7,14,12,15,10,5,3,9,13,4,6"
14826,commdev-image-keyboard-response,451,817326,learnblock2,608.4000000357628,img/planet10_left.png,10,Community 2,NA,TRUE,f,f,NA,NA,NA,3,6,"11,1,2,8,7,14,12,15,10,5,3,9,13,4,6"
14826,commdev-image-keyboard-response,452,818586,learnblock2,680.3999999761581,img/planet12_right.png,12,Community 2,NA,TRUE,j,j,NA,NA,NA,3,6,"11,1,2,8,7,14,12,15,10,5,3,9,13,4,6"
14826,commdev-image-keyboard-response,453,819846,learnblock2,640.2999999523163,img/planet14_right.png,14,Community 2,NA,TRUE,j,j,NA,NA,NA,3,6,"11,1,2,8,7,14,12,15,10,5,3,9,13,4,6"
14826,commdev-image-keyboard-response,454,821107,learnblock2,667.8999999761581,img/planet10_left.png,10,Community 2,NA,TRUE,f,f,NA,NA,NA,3,6,"11,1,2,8,7,14,12,15,10,5,3,9,13,4,6"
14826,commdev-image-keyboard-response,455,822363,learnblock2,679.1000000238419,img/planet15_right.png,15,Community 2,NA,TRUE,j,j,NA,NA,NA,3,6,"11,1,2,8,7,14,12,15,10,5,3,9,13,4,6"
14826,commdev-image-keyboard-response,456,823622,learnblock2,569.9000000357628,img/planet10_left.png,10,Community 2,NA,TRUE,f,f,NA,NA,NA,3,6,"11,1,2,8,7,14,12,15,10,5,3,9,13,4,6"
14826,commdev-image-keyboard-response,457,824888,learnblock2,581.3000000119209,img/planet12_right.png,12,Community 2,NA,TRUE,j,j,NA,NA,NA,3,6,"11,1,2,8,7,14,12,15,10,5,3,9,13,4,6"
14826,commdev-image-keyboard-response,458,826144,learnblock2,788.5,img/planet10_right.png,10,Community 2,NA,TRUE,j,j,NA,NA,NA,3,6,"11,1,2,8,7,14,12,15,10,5,3,9,13,4,6"
14826,commdev-image-keyboard-response,459,827409,learnblock2,663.3000000119209,img/planet14_right.png,14,Community 2,NA,TRUE,j,j,NA,NA,NA,3,6,"11,1,2,8,7,14,12,15,10,5,3,9,13,4,6"
14826,commdev-image-keyboard-response,460,828665,learnblock2,552.3999999761581,img/planet10_left.png,10,Community 2,NA,TRUE,f,f,NA,NA,NA,3,6,"11,1,2,8,7,14,12,15,10,5,3,9,13,4,6"
14826,commdev-image-keyboard-response,461,829920,learnblock2,626,img/planet5_left.png,5,Community 2,NA,TRUE,f,f,NA,NA,NA,3,6,"11,1,2,8,7,14,12,15,10,5,3,9,13,4,6"
14826,commdev-image-keyboard-response,462,831174,learnblock2,686.3999999761581,img/planet14_right.png,14,Community 2,NA,TRUE,j,j,NA,NA,NA,3,6,"11,1,2,8,7,14,12,15,10,5,3,9,13,4,6"
14826,commdev-image-keyboard-response,463,832434,learnblock2,725,img/planet8_left.png,8,Community 1,NA,TRUE,f,f,NA,NA,NA,3,6,"11,1,2,8,7,14,12,15,10,5,3,9,13,4,6"
14826,commdev-image-keyboard-response,464,833688,learnblock2,633.1000000238419,img/planet1_right.png,1,Community 1,NA,TRUE,j,j,NA,NA,NA,3,6,"11,1,2,8,7,14,12,15,10,5,3,9,13,4,6"
14826,commdev-image-keyboard-response,465,834954,learnblock2,560,img/planet11_left.png,11,Community 1,NA,TRUE,f,f,NA,NA,NA,3,6,"11,1,2,8,7,14,12,15,10,5,3,9,13,4,6"
14826,commdev-image-keyboard-response,466,836209,learnblock2,720.1999999880791,img/planet8_left.png,8,Community 1,NA,TRUE,f,f,NA,NA,NA,3,6,"11,1,2,8,7,14,12,15,10,5,3,9,13,4,6"
14826,commdev-image-keyboard-response,467,837464,learnblock2,656.5,img/planet2_right.png,2,Community 1,NA,TRUE,j,j,NA,NA,NA,3,6,"11,1,2,8,7,14,12,15,10,5,3,9,13,4,6"
14826,commdev-image-keyboard-response,468,838723,learnblock2,680.5,img/planet8_left.png,8,Community 1,NA,TRUE,f,f,NA,NA,NA,3,6,"11,1,2,8,7,14,12,15,10,5,3,9,13,4,6"
14826,commdev-image-keyboard-response,469,839982,learnblock2,840.3000000119209,img/planet11_left.png,11,Community 1,NA,TRUE,f,f,NA,NA,NA,3,6,"11,1,2,8,7,14,12,15,10,5,3,9,13,4,6"
14826,commdev-image-keyboard-response,470,841247,learnblock2,681.7999999523163,img/planet7_left.png,7,Community 1,NA,TRUE,f,f,NA,NA,NA,3,6,"11,1,2,8,7,14,12,15,10,5,3,9,13,4,6"
14826,commdev-image-keyboard-response,471,842506,learnblock2,674.3000000119209,img/planet11_right.png,11,Community 1,NA,TRUE,j,j,NA,NA,NA,3,6,"11,1,2,8,7,14,12,15,10,5,3,9,13,4,6"
14826,commdev-image-keyboard-response,472,843765,learnblock2,637.8999999761581,img/planet2_left.png,2,Community 1,NA,TRUE,f,f,NA,NA,NA,3,6,"11,1,2,8,7,14,12,15,10,5,3,9,13,4,6"
14826,commdev-image-keyboard-response,473,845021,learnblock2,636.5,img/planet7_left.png,7,Community 1,NA,TRUE,f,f,NA,NA,NA,3,6,"11,1,2,8,7,14,12,15,10,5,3,9,13,4,6"
14826,commdev-image-keyboard-response,474,846290,learnblock2,642.3000000119209,img/planet11_left.png,11,Community 1,NA,TRUE,f,f,NA,NA,NA,3,6,"11,1,2,8,7,14,12,15,10,5,3,9,13,4,6"
14826,commdev-image-keyboard-response,475,847548,learnblock2,603.7999999523163,img/planet7_left.png,7,Community 1,NA,TRUE,f,f,NA,NA,NA,3,6,"11,1,2,8,7,14,12,15,10,5,3,9,13,4,6"
14826,commdev-image-keyboard-response,476,848806,learnblock2,559.3999999761581,img/planet11_right.png,11,Community 1,NA,TRUE,j,j,NA,NA,NA,3,6,"11,1,2,8,7,14,12,15,10,5,3,9,13,4,6"
14826,commdev-image-keyboard-response,477,850064,learnblock2,840.3000000119209,img/planet8_left.png,8,Community 1,NA,TRUE,f,f,NA,NA,NA,3,6,"11,1,2,8,7,14,12,15,10,5,3,9,13,4,6"
14826,commdev-image-keyboard-response,478,851326,learnblock2,847.8000000119209,img/planet2_left.png,2,Community 1,NA,TRUE,f,f,NA,NA,NA,3,6,"11,1,2,8,7,14,12,15,10,5,3,9,13,4,6"
14826,commdev-image-keyboard-response,479,852582,learnblock2,746,img/planet1_left.png,1,Community 1,NA,TRUE,f,f,NA,NA,NA,3,6,"11,1,2,8,7,14,12,15,10,5,3,9,13,4,6"
14826,commdev-image-keyboard-response,480,853839,learnblock2,597.3999999761581,img/planet2_right.png,2,Community 1,NA,TRUE,j,j,NA,NA,NA,3,6,"11,1,2,8,7,14,12,15,10,5,3,9,13,4,6"
14826,commdev-image-keyboard-response,481,855097,learnblock2,642.6000000238419,img/planet11_left.png,11,Community 1,NA,TRUE,f,f,NA,NA,NA,3,6,"11,1,2,8,7,14,12,15,10,5,3,9,13,4,6"
14826,commdev-image-keyboard-response,482,856356,learnblock2,631.2000000476837,img/planet8_right.png,8,Community 1,NA,TRUE,j,j,NA,NA,NA,3,6,"11,1,2,8,7,14,12,15,10,5,3,9,13,4,6"
14826,commdev-image-keyboard-response,483,857610,learnblock2,646,img/planet1_right.png,1,Community 1,NA,TRUE,j,j,NA,NA,NA,3,6,"11,1,2,8,7,14,12,15,10,5,3,9,13,4,6"
14826,commdev-image-keyboard-response,484,858864,learnblock2,549.8000000119209,img/planet8_left.png,8,Community 1,NA,TRUE,f,f,NA,NA,NA,3,6,"11,1,2,8,7,14,12,15,10,5,3,9,13,4,6"
14826,commdev-image-keyboard-response,485,860121,learnblock2,666.1000000238419,img/planet1_right.png,1,Community 1,NA,TRUE,j,j,NA,NA,NA,3,6,"11,1,2,8,7,14,12,15,10,5,3,9,13,4,6"
14826,commdev-image-keyboard-response,486,861373,learnblock2,668.1999999880791,img/planet2_right.png,2,Community 1,NA,TRUE,j,j,NA,NA,NA,3,6,"11,1,2,8,7,14,12,15,10,5,3,9,13,4,6"
14826,commdev-image-keyboard-response,487,862635,learnblock2,668.6999999880791,img/planet11_left.png,11,Community 1,NA,TRUE,f,f,NA,NA,NA,3,6,"11,1,2,8,7,14,12,15,10,5,3,9,13,4,6"
14826,commdev-image-keyboard-response,488,863893,learnblock2,716.8999999761581,img/planet7_left.png,7,Community 1,NA,TRUE,f,f,NA,NA,NA,3,6,"11,1,2,8,7,14,12,15,10,5,3,9,13,4,6"
14826,commdev-image-keyboard-response,489,865159,learnblock2,661,img/planet3_left.png,3,Community 3,NA,TRUE,f,f,NA,NA,NA,3,6,"11,1,2,8,7,14,12,15,10,5,3,9,13,4,6"
14826,commdev-image-keyboard-response,490,866414,learnblock2,633.0999999642372,img/planet6_left.png,6,Community 3,NA,TRUE,f,f,NA,NA,NA,3,6,"11,1,2,8,7,14,12,15,10,5,3,9,13,4,6"
14826,commdev-image-keyboard-response,491,867675,learnblock2,812.1999999880791,img/planet4_left.png,4,Community 3,NA,TRUE,f,f,NA,NA,NA,3,6,"11,1,2,8,7,14,12,15,10,5,3,9,13,4,6"
14826,commdev-image-keyboard-response,492,868941,learnblock2,656.4000000357628,img/planet6_right.png,6,Community 3,NA,TRUE,j,j,NA,NA,NA,3,6,"11,1,2,8,7,14,12,15,10,5,3,9,13,4,6"
14826,commdev-image-keyboard-response,493,870197,learnblock2,629.6000000238419,img/planet4_left.png,4,Community 3,NA,TRUE,f,f,NA,NA,NA,3,6,"11,1,2,8,7,14,12,15,10,5,3,9,13,4,6"
14826,commdev-image-keyboard-response,494,871450,learnblock2,583.1999999880791,img/planet9_left.png,9,Community 3,NA,TRUE,f,f,NA,NA,NA,3,6,"11,1,2,8,7,14,12,15,10,5,3,9,13,4,6"
14826,commdev-image-keyboard-response,495,872717,learnblock2,624.5,img/planet4_left.png,4,Community 3,NA,TRUE,f,f,NA,NA,NA,3,6,"11,1,2,8,7,14,12,15,10,5,3,9,13,4,6"
14826,commdev-image-keyboard-response,496,873977,learnblock2,561.6000000238419,img/planet13_left.png,13,Community 3,NA,TRUE,f,f,NA,NA,NA,3,6,"11,1,2,8,7,14,12,15,10,5,3,9,13,4,6"
14826,commdev-image-keyboard-response,497,875245,learnblock2,561.6999999880791,img/planet4_left.png,4,Community 3,NA,TRUE,f,f,NA,NA,NA,3,6,"11,1,2,8,7,14,12,15,10,5,3,9,13,4,6"
14826,commdev-image-keyboard-response,498,876498,learnblock2,613.9000000357628,img/planet3_left.png,3,Community 3,NA,TRUE,f,f,NA,NA,NA,3,6,"11,1,2,8,7,14,12,15,10,5,3,9,13,4,6"
14826,commdev-image-keyboard-response,499,877757,learnblock2,637.5,img/planet7_left.png,7,Community 1,NA,TRUE,f,f,NA,NA,NA,3,6,"11,1,2,8,7,14,12,15,10,5,3,9,13,4,6"
14826,commdev-image-keyboard-response,500,879014,learnblock2,594,img/planet1_left.png,1,Community 1,NA,TRUE,f,f,NA,NA,NA,3,6,"11,1,2,8,7,14,12,15,10,5,3,9,13,4,6"
14826,commdev-image-keyboard-response,501,880278,learnblock2,560.8000000119209,img/planet7_left.png,7,Community 1,NA,TRUE,f,f,NA,NA,NA,3,6,"11,1,2,8,7,14,12,15,10,5,3,9,13,4,6"
14826,commdev-image-keyboard-response,502,881543,learnblock2,678.9000000357628,img/planet3_left.png,3,Community 3,NA,TRUE,f,f,NA,NA,NA,3,6,"11,1,2,8,7,14,12,15,10,5,3,9,13,4,6"
14826,commdev-image-keyboard-response,503,882800,learnblock2,592.8999999761581,img/planet7_left.png,7,Community 1,NA,TRUE,f,f,NA,NA,NA,3,6,"11,1,2,8,7,14,12,15,10,5,3,9,13,4,6"
14826,commdev-image-keyboard-response,504,884065,learnblock2,645.5,img/planet1_left.png,1,Community 1,NA,TRUE,f,f,NA,NA,NA,3,6,"11,1,2,8,7,14,12,15,10,5,3,9,13,4,6"
14826,commdev-image-keyboard-response,505,885318,learnblock2,666.5,img/planet11_left.png,11,Community 1,NA,TRUE,f,f,NA,NA,NA,3,6,"11,1,2,8,7,14,12,15,10,5,3,9,13,4,6"
14826,commdev-image-keyboard-response,506,886578,learnblock2,608.3000000119209,img/planet8_left.png,8,Community 1,NA,TRUE,f,f,NA,NA,NA,3,6,"11,1,2,8,7,14,12,15,10,5,3,9,13,4,6"
14826,commdev-image-keyboard-response,507,887844,learnblock2,604.5,img/planet14_left.png,14,Community 2,NA,TRUE,f,f,NA,NA,NA,3,6,"11,1,2,8,7,14,12,15,10,5,3,9,13,4,6"
14826,commdev-image-keyboard-response,508,889103,learnblock2,601.6999999880791,img/planet5_right.png,5,Community 2,NA,TRUE,j,j,NA,NA,NA,3,6,"11,1,2,8,7,14,12,15,10,5,3,9,13,4,6"
14826,commdev-image-keyboard-response,509,890367,learnblock2,657.8000000119209,img/planet15_left.png,15,Community 2,NA,TRUE,f,f,NA,NA,NA,3,6,"11,1,2,8,7,14,12,15,10,5,3,9,13,4,6"
14826,commdev-image-keyboard-response,510,891620,learnblock2,548.1999999880791,img/planet10_left.png,10,Community 2,NA,TRUE,f,f,NA,NA,NA,3,6,"11,1,2,8,7,14,12,15,10,5,3,9,13,4,6"
14826,commdev-image-keyboard-response,511,892875,learnblock2,608.7999999523163,img/planet15_right.png,15,Community 2,NA,TRUE,j,j,NA,NA,NA,3,6,"11,1,2,8,7,14,12,15,10,5,3,9,13,4,6"
14826,commdev-image-keyboard-response,512,894127,learnblock2,656.3000000119209,img/planet9_right.png,9,Community 3,NA,TRUE,j,j,NA,NA,NA,3,6,"11,1,2,8,7,14,12,15,10,5,3,9,13,4,6"
14826,commdev-image-keyboard-response,513,895386,learnblock2,633.1999999880791,img/planet13_right.png,13,Community 3,NA,TRUE,j,j,NA,NA,NA,3,6,"11,1,2,8,7,14,12,15,10,5,3,9,13,4,6"
14826,commdev-image-keyboard-response,514,896649,learnblock2,686.6999999880791,img/planet3_left.png,3,Community 3,NA,TRUE,f,f,NA,NA,NA,3,6,"11,1,2,8,7,14,12,15,10,5,3,9,13,4,6"
14826,commdev-image-keyboard-response,515,897913,learnblock2,630.6999999880791,img/planet13_left.png,13,Community 3,NA,TRUE,f,f,NA,NA,NA,3,6,"11,1,2,8,7,14,12,15,10,5,3,9,13,4,6"
14826,commdev-image-keyboard-response,516,899169,learnblock2,653.6999999880791,img/planet4_left.png,4,Community 3,NA,TRUE,f,f,NA,NA,NA,3,6,"11,1,2,8,7,14,12,15,10,5,3,9,13,4,6"
14826,commdev-image-keyboard-response,517,900429,learnblock2,781.2999999523163,img/planet13_right.png,13,Community 3,NA,TRUE,j,j,NA,NA,NA,3,6,"11,1,2,8,7,14,12,15,10,5,3,9,13,4,6"
14826,commdev-image-keyboard-response,518,901686,learnblock2,744.3000000119209,img/planet9_left.png,9,Community 3,NA,TRUE,f,f,NA,NA,NA,3,6,"11,1,2,8,7,14,12,15,10,5,3,9,13,4,6"
14826,commdev-image-keyboard-response,519,902944,learnblock2,703,img/planet4_right.png,4,Community 3,NA,TRUE,j,j,NA,NA,NA,3,6,"11,1,2,8,7,14,12,15,10,5,3,9,13,4,6"
14826,commdev-image-keyboard-response,520,904209,learnblock2,586.8999999761581,img/planet3_left.png,3,Community 3,NA,TRUE,f,f,NA,NA,NA,3,6,"11,1,2,8,7,14,12,15,10,5,3,9,13,4,6"
14826,commdev-image-keyboard-response,521,905462,learnblock2,589.1999999880791,img/planet6_left.png,6,Community 3,NA,TRUE,f,f,NA,NA,NA,3,6,"11,1,2,8,7,14,12,15,10,5,3,9,13,4,6"
14826,commdev-image-keyboard-response,522,906729,learnblock2,556.0999999642372,img/planet4_left.png,4,Community 3,NA,TRUE,f,f,NA,NA,NA,3,6,"11,1,2,8,7,14,12,15,10,5,3,9,13,4,6"
14826,commdev-image-keyboard-response,523,907988,learnblock2,600.8000000119209,img/planet3_right.png,3,Community 3,NA,TRUE,j,j,NA,NA,NA,3,6,"11,1,2,8,7,14,12,15,10,5,3,9,13,4,6"
14826,commdev-image-keyboard-response,524,909254,learnblock2,587.1000000238419,img/planet6_right.png,6,Community 3,NA,TRUE,j,j,NA,NA,NA,3,6,"11,1,2,8,7,14,12,15,10,5,3,9,13,4,6"
14826,commdev-image-keyboard-response,525,910516,learnblock2,580.5,img/planet4_right.png,4,Community 3,NA,TRUE,j,j,NA,NA,NA,3,6,"11,1,2,8,7,14,12,15,10,5,3,9,13,4,6"
14826,commdev-image-keyboard-response,526,911776,learnblock2,543.6999999880791,img/planet6_right.png,6,Community 3,NA,TRUE,j,j,NA,NA,NA,3,6,"11,1,2,8,7,14,12,15,10,5,3,9,13,4,6"
14826,commdev-image-keyboard-response,527,913030,learnblock2,607.3000000119209,img/planet4_left.png,4,Community 3,NA,TRUE,f,f,NA,NA,NA,3,6,"11,1,2,8,7,14,12,15,10,5,3,9,13,4,6"
14826,commdev-image-keyboard-response,528,914291,learnblock2,914.2000000476837,img/planet13_right.png,13,Community 3,NA,TRUE,j,j,NA,NA,NA,3,6,"11,1,2,8,7,14,12,15,10,5,3,9,13,4,6"
14826,commdev-image-keyboard-response,529,915550,learnblock2,798.6999999880791,img/planet3_right.png,3,Community 3,NA,TRUE,j,j,NA,NA,NA,3,6,"11,1,2,8,7,14,12,15,10,5,3,9,13,4,6"
14826,commdev-image-keyboard-response,530,916809,learnblock2,764.8000000119209,img/planet6_left.png,6,Community 3,NA,TRUE,f,f,NA,NA,NA,3,6,"11,1,2,8,7,14,12,15,10,5,3,9,13,4,6"
14826,commdev-image-keyboard-response,531,918065,learnblock2,781.1000000238419,img/planet3_right.png,3,Community 3,NA,TRUE,j,j,NA,NA,NA,3,6,"11,1,2,8,7,14,12,15,10,5,3,9,13,4,6"
14826,commdev-image-keyboard-response,532,919328,learnblock2,721.1999999880791,img/planet7_right.png,7,Community 1,NA,TRUE,j,j,NA,NA,NA,3,6,"11,1,2,8,7,14,12,15,10,5,3,9,13,4,6"
14826,commdev-image-keyboard-response,533,920583,learnblock2,702.1999999880791,img/planet11_right.png,11,Community 1,NA,TRUE,j,j,NA,NA,NA,3,6,"11,1,2,8,7,14,12,15,10,5,3,9,13,4,6"
14826,commdev-image-keyboard-response,534,921836,learnblock2,759.9000000357628,img/planet8_right.png,8,Community 1,NA,TRUE,j,j,NA,NA,NA,3,6,"11,1,2,8,7,14,12,15,10,5,3,9,13,4,6"
14826,commdev-image-keyboard-response,535,923095,learnblock2,625.6999999880791,img/planet1_left.png,1,Community 1,NA,TRUE,f,f,NA,NA,NA,3,6,"11,1,2,8,7,14,12,15,10,5,3,9,13,4,6"
14826,commdev-image-keyboard-response,536,924361,learnblock2,734.3000000119209,img/planet8_right.png,8,Community 1,NA,TRUE,j,j,NA,NA,NA,3,6,"11,1,2,8,7,14,12,15,10,5,3,9,13,4,6"
14826,commdev-image-keyboard-response,537,925628,learnblock2,679.7999999523163,img/planet2_left.png,2,Community 1,NA,TRUE,f,f,NA,NA,NA,3,6,"11,1,2,8,7,14,12,15,10,5,3,9,13,4,6"
14826,commdev-image-keyboard-response,538,926888,learnblock2,673.5,img/planet7_left.png,7,Community 1,NA,TRUE,f,f,NA,NA,NA,3,6,"11,1,2,8,7,14,12,15,10,5,3,9,13,4,6"
14826,commdev-image-keyboard-response,539,928146,learnblock2,703.2000000476837,img/planet3_right.png,3,Community 3,NA,TRUE,j,j,NA,NA,NA,3,6,"11,1,2,8,7,14,12,15,10,5,3,9,13,4,6"
14826,commdev-image-keyboard-response,540,929412,learnblock2,948.8000000119209,img/planet13_left.png,13,Community 3,NA,TRUE,f,f,NA,NA,NA,3,6,"11,1,2,8,7,14,12,15,10,5,3,9,13,4,6"
14826,commdev-image-keyboard-response,541,930664,learnblock2,675.1999999880791,img/planet6_right.png,6,Community 3,NA,TRUE,j,j,NA,NA,NA,3,6,"11,1,2,8,7,14,12,15,10,5,3,9,13,4,6"
14826,commdev-image-keyboard-response,542,931923,learnblock2,722.8999999761581,img/planet3_right.png,3,Community 3,NA,TRUE,j,j,NA,NA,NA,3,6,"11,1,2,8,7,14,12,15,10,5,3,9,13,4,6"
14826,commdev-image-keyboard-response,543,933183,learnblock2,615.8999999761581,img/planet13_left.png,13,Community 3,NA,TRUE,f,f,NA,NA,NA,3,6,"11,1,2,8,7,14,12,15,10,5,3,9,13,4,6"
14826,commdev-image-keyboard-response,544,934440,learnblock2,682.0999999642372,img/planet6_right.png,6,Community 3,NA,TRUE,j,j,NA,NA,NA,3,6,"11,1,2,8,7,14,12,15,10,5,3,9,13,4,6"
14826,commdev-image-keyboard-response,545,935699,learnblock2,612.5,img/planet9_right.png,9,Community 3,NA,TRUE,j,j,NA,NA,NA,3,6,"11,1,2,8,7,14,12,15,10,5,3,9,13,4,6"
14826,commdev-image-keyboard-response,546,936954,learnblock2,590.3999999761581,img/planet13_right.png,13,Community 3,NA,TRUE,j,j,NA,NA,NA,3,6,"11,1,2,8,7,14,12,15,10,5,3,9,13,4,6"
14826,commdev-image-keyboard-response,547,938216,learnblock2,571.8000000119209,img/planet9_right.png,9,Community 3,NA,TRUE,j,j,NA,NA,NA,3,6,"11,1,2,8,7,14,12,15,10,5,3,9,13,4,6"
14826,commdev-image-keyboard-response,548,939474,learnblock2,638.4000000357628,img/planet6_left.png,6,Community 3,NA,TRUE,f,f,NA,NA,NA,3,6,"11,1,2,8,7,14,12,15,10,5,3,9,13,4,6"
14826,commdev-image-keyboard-response,549,940733,learnblock2,621.7999999523163,img/planet13_right.png,13,Community 3,NA,TRUE,j,j,NA,NA,NA,3,6,"11,1,2,8,7,14,12,15,10,5,3,9,13,4,6"
14826,commdev-image-keyboard-response,550,941995,learnblock2,662.8999999761581,img/planet6_left.png,6,Community 3,NA,TRUE,f,f,NA,NA,NA,3,6,"11,1,2,8,7,14,12,15,10,5,3,9,13,4,6"
14826,commdev-image-keyboard-response,551,943252,learnblock2,589.3000000119209,img/planet4_right.png,4,Community 3,NA,TRUE,j,j,NA,NA,NA,3,6,"11,1,2,8,7,14,12,15,10,5,3,9,13,4,6"
14826,commdev-image-keyboard-response,552,944518,learnblock2,568.5,img/planet13_right.png,13,Community 3,NA,TRUE,j,j,NA,NA,NA,3,6,"11,1,2,8,7,14,12,15,10,5,3,9,13,4,6"
14826,commdev-image-keyboard-response,553,945771,learnblock2,543.5,img/planet4_right.png,4,Community 3,NA,TRUE,j,j,NA,NA,NA,3,6,"11,1,2,8,7,14,12,15,10,5,3,9,13,4,6"
14826,commdev-image-keyboard-response,554,947031,learnblock2,637.8000000119209,img/planet3_left.png,3,Community 3,NA,TRUE,f,f,NA,NA,NA,3,6,"11,1,2,8,7,14,12,15,10,5,3,9,13,4,6"
14826,commdev-image-keyboard-response,555,948287,learnblock2,586.6000000238419,img/planet13_right.png,13,Community 3,NA,TRUE,j,j,NA,NA,NA,3,6,"11,1,2,8,7,14,12,15,10,5,3,9,13,4,6"
14826,commdev-image-keyboard-response,556,949554,learnblock2,737,img/planet3_left.png,3,Community 3,NA,TRUE,f,f,NA,NA,NA,3,6,"11,1,2,8,7,14,12,15,10,5,3,9,13,4,6"
14826,commdev-image-keyboard-response,557,950812,learnblock2,561.6000000238419,img/planet6_right.png,6,Community 3,NA,TRUE,j,j,NA,NA,NA,3,6,"11,1,2,8,7,14,12,15,10,5,3,9,13,4,6"
14826,commdev-image-keyboard-response,558,952071,learnblock2,573.2999999523163,img/planet4_right.png,4,Community 3,NA,TRUE,j,j,NA,NA,NA,3,6,"11,1,2,8,7,14,12,15,10,5,3,9,13,4,6"
14826,commdev-image-keyboard-response,559,953326,learnblock2,547.6999999880791,img/planet9_right.png,9,Community 3,NA,TRUE,j,j,NA,NA,NA,3,6,"11,1,2,8,7,14,12,15,10,5,3,9,13,4,6"
14826,commdev-image-keyboard-response,560,954581,learnblock2,537.3999999761581,img/planet6_right.png,6,Community 3,NA,TRUE,j,j,NA,NA,NA,3,6,"11,1,2,8,7,14,12,15,10,5,3,9,13,4,6"
14826,commdev-image-keyboard-response,561,955848,learnblock2,558.8000000119209,img/planet9_left.png,9,Community 3,NA,TRUE,f,f,NA,NA,NA,3,6,"11,1,2,8,7,14,12,15,10,5,3,9,13,4,6"
14826,commdev-image-keyboard-response,562,957108,learnblock2,549.0999999642372,img/planet6_right.png,6,Community 3,NA,FALSE,f,j,NA,NA,NA,3,6,"11,1,2,8,7,14,12,15,10,5,3,9,13,4,6"
14826,commdev-image-keyboard-response,563,958364,learnblock2,638.1000000238419,img/planet3_right.png,3,Community 3,NA,TRUE,j,j,NA,NA,NA,3,6,"11,1,2,8,7,14,12,15,10,5,3,9,13,4,6"
14826,commdev-image-keyboard-response,564,959617,learnblock2,599.3999999761581,img/planet7_right.png,7,Community 1,NA,TRUE,j,j,NA,NA,NA,3,6,"11,1,2,8,7,14,12,15,10,5,3,9,13,4,6"
14826,commdev-image-keyboard-response,565,960870,learnblock2,494.39999997615814,img/planet2_right.png,2,Community 1,NA,TRUE,j,j,NA,NA,NA,3,6,"11,1,2,8,7,14,12,15,10,5,3,9,13,4,6"
14826,commdev-image-keyboard-response,566,962123,learnblock2,607.1999999880791,img/planet7_right.png,7,Community 1,NA,TRUE,j,j,NA,NA,NA,3,6,"11,1,2,8,7,14,12,15,10,5,3,9,13,4,6"
14826,commdev-image-keyboard-response,567,963382,learnblock2,810.8000000119209,img/planet11_left.png,11,Community 1,NA,TRUE,f,f,NA,NA,NA,3,6,"11,1,2,8,7,14,12,15,10,5,3,9,13,4,6"
14826,commdev-image-keyboard-response,568,964635,learnblock2,824.5,img/planet7_left.png,7,Community 1,NA,TRUE,f,f,NA,NA,NA,3,6,"11,1,2,8,7,14,12,15,10,5,3,9,13,4,6"
14826,commdev-image-keyboard-response,569,965890,learnblock2,1040.5,img/planet3_right.png,3,Community 3,NA,TRUE,j,j,NA,NA,NA,3,6,"11,1,2,8,7,14,12,15,10,5,3,9,13,4,6"
14826,commdev-image-keyboard-response,570,967144,learnblock2,798.3000000119209,img/planet13_right.png,13,Community 3,NA,TRUE,j,j,NA,NA,NA,3,6,"11,1,2,8,7,14,12,15,10,5,3,9,13,4,6"
14826,commdev-image-keyboard-response,571,968411,learnblock2,707.3000000119209,img/planet4_left.png,4,Community 3,NA,TRUE,f,f,NA,NA,NA,3,6,"11,1,2,8,7,14,12,15,10,5,3,9,13,4,6"
14826,commdev-image-keyboard-response,572,969668,learnblock2,518.1000000238419,img/planet3_right.png,3,Community 3,NA,TRUE,j,j,NA,NA,NA,3,6,"11,1,2,8,7,14,12,15,10,5,3,9,13,4,6"
14826,commdev-image-keyboard-response,573,970920,learnblock2,639.1999999880791,img/planet4_right.png,4,Community 3,NA,TRUE,j,j,NA,NA,NA,3,6,"11,1,2,8,7,14,12,15,10,5,3,9,13,4,6"
14826,commdev-image-keyboard-response,574,972182,learnblock2,620.1000000238419,img/planet13_left.png,13,Community 3,NA,TRUE,f,f,NA,NA,NA,3,6,"11,1,2,8,7,14,12,15,10,5,3,9,13,4,6"
14826,commdev-image-keyboard-response,575,973438,learnblock2,994,img/planet4_right.png,4,Community 3,NA,TRUE,j,j,NA,NA,NA,3,6,"11,1,2,8,7,14,12,15,10,5,3,9,13,4,6"
14826,commdev-image-keyboard-response,576,974698,learnblock2,658.6999999880791,img/planet6_right.png,6,Community 3,NA,TRUE,j,j,NA,NA,NA,3,6,"11,1,2,8,7,14,12,15,10,5,3,9,13,4,6"
14826,commdev-image-keyboard-response,577,975960,learnblock2,634.3000000119209,img/planet9_left.png,9,Community 3,NA,TRUE,f,f,NA,NA,NA,3,6,"11,1,2,8,7,14,12,15,10,5,3,9,13,4,6"
14826,commdev-image-keyboard-response,578,977217,learnblock2,687.5,img/planet15_right.png,15,Community 2,NA,TRUE,j,j,NA,NA,NA,3,6,"11,1,2,8,7,14,12,15,10,5,3,9,13,4,6"
14826,commdev-image-keyboard-response,579,978483,learnblock2,623.6999999880791,img/planet10_right.png,10,Community 2,NA,TRUE,j,j,NA,NA,NA,3,6,"11,1,2,8,7,14,12,15,10,5,3,9,13,4,6"
14826,commdev-image-keyboard-response,580,979742,learnblock2,673.3000000119209,img/planet12_right.png,12,Community 2,NA,TRUE,j,j,NA,NA,NA,3,6,"11,1,2,8,7,14,12,15,10,5,3,9,13,4,6"
14826,commdev-image-keyboard-response,581,980999,learnblock2,613.8999999761581,img/planet5_left.png,5,Community 2,NA,TRUE,f,f,NA,NA,NA,3,6,"11,1,2,8,7,14,12,15,10,5,3,9,13,4,6"
14826,commdev-image-keyboard-response,582,982255,learnblock2,738.6999999880791,img/planet15_left.png,15,Community 2,NA,TRUE,f,f,NA,NA,NA,3,6,"11,1,2,8,7,14,12,15,10,5,3,9,13,4,6"
14826,commdev-image-keyboard-response,583,983515,learnblock2,667.8000000119209,img/planet10_right.png,10,Community 2,NA,TRUE,j,j,NA,NA,NA,3,6,"11,1,2,8,7,14,12,15,10,5,3,9,13,4,6"
14826,commdev-image-keyboard-response,584,984771,learnblock2,890.1000000238419,img/planet12_left.png,12,Community 2,NA,TRUE,f,f,NA,NA,NA,3,6,"11,1,2,8,7,14,12,15,10,5,3,9,13,4,6"
14826,commdev-image-keyboard-response,585,986023,learnblock2,953.8999999761581,img/planet14_right.png,14,Community 2,NA,TRUE,j,j,NA,NA,NA,3,6,"11,1,2,8,7,14,12,15,10,5,3,9,13,4,6"
14826,commdev-image-keyboard-response,586,987279,learnblock2,631.8999999761581,img/planet12_left.png,12,Community 2,NA,TRUE,f,f,NA,NA,NA,3,6,"11,1,2,8,7,14,12,15,10,5,3,9,13,4,6"
