subject_id,trial_type,trial_index,time_elapsed,block,rt,stimulus,planet,community,response,correct,key_press,learning_correct_response,parse,init_locations,final_locations,browser_interactions,num_comp,planet_map
14620,commdev-instructions,7,36357,NA,9049,"<p>In this game, you are a scientist on board a space shuttle. </p><p> On each mission, you will visit planets all across the universe.</p><img src=""img/controlroom.jpg"" width=300vw>",NA,NA,NA,NA,NA,NA,NA,NA,NA,1,6,"13,2,3,12,8,1,15,14,4,9,10,6,5,11,7"
14620,commdev-instructions,8,48917,NA,10465,"<p>Here are a few planets you might see:</p><img src=""img/practice1.png"" width=200vw><img src=""img/practice2.png"" width=200vw><img src=""img/practice3.png"" width=200vw>",NA,NA,NA,NA,NA,NA,NA,NA,NA,1,6,"13,2,3,12,8,1,15,14,4,9,10,6,5,11,7"
14620,commdev-instructions,9,57708,NA,1376,"<p>Your job as a scientist is to record which direction the winds are moving on each planet.</p><p>There are two types of wind directions:</p><img src=""img/practice1_left.png"" width=200vw><img src=""img/practice1_right.png"" width=200vw>",NA,NA,NA,NA,NA,NA,NA,NA,NA,1,6,"13,2,3,12,8,1,15,14,4,9,10,6,5,11,7"
14620,commdev-instructions,10,63957,NA,1353,"<p>If the winds are moving this way, press the letter <strong>F</strong> on the keyboard as fast as you can.</p><img src=""img/leftwind.png"" width=250vw>",NA,NA,NA,NA,NA,NA,NA,NA,NA,1,6,"13,2,3,12,8,1,15,14,4,9,10,6,5,11,7"
14620,commdev-instructions,11,70533,NA,2068,"<p>If the winds are moving this way, press the letter <strong>J</strong> on the keyboard as fast as you can.</p><img src=""img/rightwind.png"" width=350vw>",NA,NA,NA,NA,NA,NA,NA,NA,NA,1,6,"13,2,3,12,8,1,15,14,4,9,10,6,5,11,7"
14620,commdev-instructions,12,76504,NA,1525,<p>You will have 1 second to respond. Try to respond before the time runs out!,NA,NA,NA,NA,NA,NA,NA,NA,NA,1,6,"13,2,3,12,8,1,15,14,4,9,10,6,5,11,7"
14620,commdev-instructions,13,83540,NA,1596,<p>The planets you will visit will look different from each other.</p><p>You should respond <strong>only</strong> based on wind direction.,NA,NA,NA,NA,NA,NA,NA,NA,NA,1,6,"13,2,3,12,8,1,15,14,4,9,10,6,5,11,7"
14620,commdev-instructions,14,90772,NA,2047,"<p> Ready to start the practice round? </p><p> Remember, press <strong>F</strong> or <strong>J</strong> depending on the wind direction.<br><img src=""img/categorize_planet_example.png""",NA,NA,NA,NA,NA,NA,NA,NA,NA,1,6,"13,2,3,12,8,1,15,14,4,9,10,6,5,11,7"
14620,commdev-instructions,26,135157,NA,3742,"<p>Great, now try a short practice mission. </p><p> This time, you will have 1 second to respond and you won't know whether you pressed the right or wrong key for each planet.</p>",NA,NA,NA,NA,NA,NA,NA,NA,NA,1,6,"13,2,3,12,8,1,15,14,4,9,10,6,5,11,7"
14620,commdev-image-keyboard-response,27,136511,practice,null,img/practice3_left.png,NA,Number not found in mappings,NA,FALSE,null,f,NA,NA,NA,1,6,"13,2,3,12,8,1,15,14,4,9,10,6,5,11,7"
14620,commdev-image-keyboard-response,28,137766,practice,937,img/practice2_left.png,NA,Number not found in mappings,NA,TRUE,f,f,NA,NA,NA,1,6,"13,2,3,12,8,1,15,14,4,9,10,6,5,11,7"
14620,commdev-image-keyboard-response,29,139019,practice,90,img/practice4_left.png,NA,Number not found in mappings,NA,TRUE,f,f,NA,NA,NA,1,6,"13,2,3,12,8,1,15,14,4,9,10,6,5,11,7"
14620,commdev-image-keyboard-response,30,140273,practice,null,img/practice1_left.png,NA,Number not found in mappings,NA,FALSE,null,f,NA,NA,NA,1,6,"13,2,3,12,8,1,15,14,4,9,10,6,5,11,7"
14620,commdev-image-keyboard-response,31,141530,practice,null,img/practice3_right.png,NA,Number not found in mappings,NA,FALSE,null,j,NA,NA,NA,1,6,"13,2,3,12,8,1,15,14,4,9,10,6,5,11,7"
14620,commdev-image-keyboard-response,32,142820,practice,null,img/practice1_left.png,NA,Number not found in mappings,NA,FALSE,null,f,NA,NA,NA,1,6,"13,2,3,12,8,1,15,14,4,9,10,6,5,11,7"
14620,commdev-image-keyboard-response,33,144076,practice,null,img/practice3_left.png,NA,Number not found in mappings,NA,FALSE,null,f,NA,NA,NA,1,6,"13,2,3,12,8,1,15,14,4,9,10,6,5,11,7"
14620,commdev-image-keyboard-response,34,145333,practice,164,img/practice1_right.png,NA,Number not found in mappings,NA,TRUE,j,j,NA,NA,NA,1,6,"13,2,3,12,8,1,15,14,4,9,10,6,5,11,7"
14620,commdev-instructions,35,157078,NA,2186,"<p>Great job with the practice round.</p><p>During real missions, you won't know whether you pressed the right or wrong key for each planet.</p><p>But between missions, we will tell you how you did overall.</p>",NA,NA,NA,NA,NA,NA,NA,NA,NA,1,6,"13,2,3,12,8,1,15,14,4,9,10,6,5,11,7"
14620,commdev-instructions,36,167119,NA,1790,<p>Try your best! You will be paid a bonus based on how many correct responses you make!</p><p>Responses that are too slow will not count toward your bonus.</p>,NA,NA,NA,NA,NA,NA,NA,NA,NA,1,6,"13,2,3,12,8,1,15,14,4,9,10,6,5,11,7"
14620,commdev-instructions,37,188863,NA,15522,"<p>You are almost ready to start the real game.</p><p> First, we are going to ask you some questions about how the game works.</p>",NA,NA,NA,NA,NA,NA,NA,NA,NA,1,6,"13,2,3,12,8,1,15,14,4,9,10,6,5,11,7"
14620,commdev-instructions,46,322572,NA,1048,"<p> Nice work! It is now time to start the real game.<p></p>You will go on two missions to record wind directions of different planets.<p></p>Each one will take about 5 minutes. You will get to take a break between missions.<p><p> Remember, press <strong>F</strong> or <strong>J</strong> depending on the wind direction. Good luck!<br><img src=""img/categorize_planet_example.png""",NA,NA,NA,NA,NA,NA,NA,NA,NA,1,6,"13,2,3,12,8,1,15,14,4,9,10,6,5,11,7"
14620,commdev-image-keyboard-response,48,324355,learnblock1,279,img/planet4_right.png,4,Community 2,NA,FALSE,f,j,NA,NA,NA,1,6,"13,2,3,12,8,1,15,14,4,9,10,6,5,11,7"
14620,commdev-image-keyboard-response,49,325610,learnblock1,27,img/planet14_right.png,14,Community 2,NA,TRUE,j,j,NA,NA,NA,1,6,"13,2,3,12,8,1,15,14,4,9,10,6,5,11,7"
14620,commdev-image-keyboard-response,50,326864,learnblock1,271,img/planet4_left.png,4,Community 2,NA,FALSE,j,f,NA,NA,NA,1,6,"13,2,3,12,8,1,15,14,4,9,10,6,5,11,7"
14620,commdev-image-keyboard-response,51,328114,learnblock1,145,img/planet15_left.png,15,Community 2,NA,TRUE,f,f,NA,NA,NA,1,6,"13,2,3,12,8,1,15,14,4,9,10,6,5,11,7"
14620,commdev-image-keyboard-response,52,329373,learnblock1,45,img/planet9_right.png,9,Community 2,NA,FALSE,f,j,NA,NA,NA,1,6,"13,2,3,12,8,1,15,14,4,9,10,6,5,11,7"
14620,commdev-image-keyboard-response,53,330652,learnblock1,5,img/planet4_right.png,4,Community 2,NA,FALSE,f,j,NA,NA,NA,1,6,"13,2,3,12,8,1,15,14,4,9,10,6,5,11,7"
14620,commdev-image-keyboard-response,54,331905,learnblock1,179,img/planet14_left.png,14,Community 2,NA,TRUE,f,f,NA,NA,NA,1,6,"13,2,3,12,8,1,15,14,4,9,10,6,5,11,7"
14620,commdev-image-keyboard-response,55,333159,learnblock1,294,img/planet6_right.png,6,Community 3,NA,FALSE,f,j,NA,NA,NA,1,6,"13,2,3,12,8,1,15,14,4,9,10,6,5,11,7"
14620,commdev-image-keyboard-response,56,334414,learnblock1,49,img/planet11_right.png,11,Community 3,NA,FALSE,f,j,NA,NA,NA,1,6,"13,2,3,12,8,1,15,14,4,9,10,6,5,11,7"
14620,commdev-image-keyboard-response,57,335669,learnblock1,171,img/planet6_left.png,6,Community 3,NA,FALSE,j,f,NA,NA,NA,1,6,"13,2,3,12,8,1,15,14,4,9,10,6,5,11,7"
14620,commdev-image-keyboard-response,58,336925,learnblock1,29,img/planet7_right.png,7,Community 3,NA,FALSE,f,j,NA,NA,NA,1,6,"13,2,3,12,8,1,15,14,4,9,10,6,5,11,7"
14620,commdev-image-keyboard-response,59,338176,learnblock1,202,img/planet10_right.png,10,Community 3,NA,FALSE,f,j,NA,NA,NA,1,6,"13,2,3,12,8,1,15,14,4,9,10,6,5,11,7"
14620,commdev-image-keyboard-response,60,339433,learnblock1,176,img/planet5_left.png,5,Community 3,NA,TRUE,f,f,NA,NA,NA,1,6,"13,2,3,12,8,1,15,14,4,9,10,6,5,11,7"
14620,commdev-image-keyboard-response,61,340687,learnblock1,47,img/planet6_left.png,6,Community 3,NA,TRUE,f,f,NA,NA,NA,1,6,"13,2,3,12,8,1,15,14,4,9,10,6,5,11,7"
14620,commdev-image-keyboard-response,62,341940,learnblock1,114,img/planet11_left.png,11,Community 3,NA,TRUE,f,f,NA,NA,NA,1,6,"13,2,3,12,8,1,15,14,4,9,10,6,5,11,7"
14620,commdev-image-keyboard-response,63,343193,learnblock1,3,img/planet5_right.png,5,Community 3,NA,FALSE,f,j,NA,NA,NA,1,6,"13,2,3,12,8,1,15,14,4,9,10,6,5,11,7"
14620,commdev-image-keyboard-response,64,344444,learnblock1,166,img/planet6_right.png,6,Community 3,NA,FALSE,f,j,NA,NA,NA,1,6,"13,2,3,12,8,1,15,14,4,9,10,6,5,11,7"
14620,commdev-image-keyboard-response,65,345695,learnblock1,115,img/planet5_left.png,5,Community 3,NA,FALSE,j,f,NA,NA,NA,1,6,"13,2,3,12,8,1,15,14,4,9,10,6,5,11,7"
14620,commdev-image-keyboard-response,66,346949,learnblock1,19,img/planet10_left.png,10,Community 3,NA,TRUE,f,f,NA,NA,NA,1,6,"13,2,3,12,8,1,15,14,4,9,10,6,5,11,7"
14620,commdev-image-keyboard-response,67,348202,learnblock1,81,img/planet8_right.png,8,Community 1,NA,FALSE,f,j,NA,NA,NA,1,6,"13,2,3,12,8,1,15,14,4,9,10,6,5,11,7"
14620,commdev-image-keyboard-response,68,349457,learnblock1,182,img/planet10_right.png,10,Community 3,NA,TRUE,j,j,NA,NA,NA,1,6,"13,2,3,12,8,1,15,14,4,9,10,6,5,11,7"
14620,commdev-image-keyboard-response,69,350712,learnblock1,134,img/planet11_left.png,11,Community 3,NA,FALSE,j,f,NA,NA,NA,1,6,"13,2,3,12,8,1,15,14,4,9,10,6,5,11,7"
14620,commdev-image-keyboard-response,70,351964,learnblock1,256,img/planet6_left.png,6,Community 3,NA,FALSE,j,f,NA,NA,NA,1,6,"13,2,3,12,8,1,15,14,4,9,10,6,5,11,7"
14620,commdev-image-keyboard-response,71,353219,learnblock1,113,img/planet14_right.png,14,Community 2,NA,TRUE,j,j,NA,NA,NA,1,6,"13,2,3,12,8,1,15,14,4,9,10,6,5,11,7"
14620,commdev-image-keyboard-response,72,354472,learnblock1,109,img/planet15_left.png,15,Community 2,NA,FALSE,j,f,NA,NA,NA,1,6,"13,2,3,12,8,1,15,14,4,9,10,6,5,11,7"
14620,commdev-image-keyboard-response,73,355724,learnblock1,264,img/planet9_right.png,9,Community 2,NA,FALSE,f,j,NA,NA,NA,1,6,"13,2,3,12,8,1,15,14,4,9,10,6,5,11,7"
14620,commdev-image-keyboard-response,74,356980,learnblock1,357,img/planet4_left.png,4,Community 2,NA,TRUE,f,f,NA,NA,NA,1,6,"13,2,3,12,8,1,15,14,4,9,10,6,5,11,7"
14620,commdev-image-keyboard-response,75,358234,learnblock1,245,img/planet15_left.png,15,Community 2,NA,TRUE,f,f,NA,NA,NA,1,6,"13,2,3,12,8,1,15,14,4,9,10,6,5,11,7"
14620,commdev-image-keyboard-response,76,359488,learnblock1,167,img/planet14_left.png,14,Community 2,NA,TRUE,f,f,NA,NA,NA,1,6,"13,2,3,12,8,1,15,14,4,9,10,6,5,11,7"
14620,commdev-image-keyboard-response,77,360743,learnblock1,63,img/planet9_left.png,9,Community 2,NA,TRUE,f,f,NA,NA,NA,1,6,"13,2,3,12,8,1,15,14,4,9,10,6,5,11,7"
14620,commdev-image-keyboard-response,78,361995,learnblock1,202,img/planet4_right.png,4,Community 2,NA,TRUE,j,j,NA,NA,NA,1,6,"13,2,3,12,8,1,15,14,4,9,10,6,5,11,7"
14620,commdev-image-keyboard-response,79,363249,learnblock1,197,img/planet14_right.png,14,Community 2,NA,TRUE,j,j,NA,NA,NA,1,6,"13,2,3,12,8,1,15,14,4,9,10,6,5,11,7"
14620,commdev-image-keyboard-response,80,364503,learnblock1,15,img/planet9_left.png,9,Community 2,NA,TRUE,f,f,NA,NA,NA,1,6,"13,2,3,12,8,1,15,14,4,9,10,6,5,11,7"
14620,commdev-image-keyboard-response,81,365829,learnblock1,88,img/planet14_right.png,14,Community 2,NA,FALSE,f,j,NA,NA,NA,1,6,"13,2,3,12,8,1,15,14,4,9,10,6,5,11,7"
14620,commdev-image-keyboard-response,82,367084,learnblock1,149,img/planet15_left.png,15,Community 2,NA,TRUE,f,f,NA,NA,NA,1,6,"13,2,3,12,8,1,15,14,4,9,10,6,5,11,7"
14620,commdev-image-keyboard-response,83,368337,learnblock1,131,img/planet14_right.png,14,Community 2,NA,TRUE,j,j,NA,NA,NA,1,6,"13,2,3,12,8,1,15,14,4,9,10,6,5,11,7"
14620,commdev-image-keyboard-response,84,369590,learnblock1,287,img/planet9_left.png,9,Community 2,NA,TRUE,f,f,NA,NA,NA,1,6,"13,2,3,12,8,1,15,14,4,9,10,6,5,11,7"
14620,commdev-image-keyboard-response,85,370843,learnblock1,214,img/planet4_right.png,4,Community 2,NA,FALSE,f,j,NA,NA,NA,1,6,"13,2,3,12,8,1,15,14,4,9,10,6,5,11,7"
14620,commdev-image-keyboard-response,86,372097,learnblock1,71,img/planet1_left.png,1,Community 2,NA,TRUE,f,f,NA,NA,NA,1,6,"13,2,3,12,8,1,15,14,4,9,10,6,5,11,7"
14620,commdev-image-keyboard-response,87,373351,learnblock1,256,img/planet15_left.png,15,Community 2,NA,TRUE,f,f,NA,NA,NA,1,6,"13,2,3,12,8,1,15,14,4,9,10,6,5,11,7"
14620,commdev-image-keyboard-response,88,374605,learnblock1,177,img/planet4_left.png,4,Community 2,NA,FALSE,j,f,NA,NA,NA,1,6,"13,2,3,12,8,1,15,14,4,9,10,6,5,11,7"
14620,commdev-image-keyboard-response,89,375986,learnblock1,83,img/planet15_left.png,15,Community 2,NA,TRUE,f,f,NA,NA,NA,1,6,"13,2,3,12,8,1,15,14,4,9,10,6,5,11,7"
14620,commdev-image-keyboard-response,90,377241,learnblock1,94,img/planet14_left.png,14,Community 2,NA,FALSE,j,f,NA,NA,NA,1,6,"13,2,3,12,8,1,15,14,4,9,10,6,5,11,7"
14620,commdev-image-keyboard-response,91,378492,learnblock1,87,img/planet6_left.png,6,Community 3,NA,TRUE,f,f,NA,NA,NA,1,6,"13,2,3,12,8,1,15,14,4,9,10,6,5,11,7"
14620,commdev-image-keyboard-response,92,379747,learnblock1,190,img/planet7_right.png,7,Community 3,NA,FALSE,f,j,NA,NA,NA,1,6,"13,2,3,12,8,1,15,14,4,9,10,6,5,11,7"
14620,commdev-image-keyboard-response,93,381002,learnblock1,223,img/planet5_right.png,5,Community 3,NA,FALSE,f,j,NA,NA,NA,1,6,"13,2,3,12,8,1,15,14,4,9,10,6,5,11,7"
14620,commdev-image-keyboard-response,94,382256,learnblock1,206,img/planet11_left.png,11,Community 3,NA,TRUE,f,f,NA,NA,NA,1,6,"13,2,3,12,8,1,15,14,4,9,10,6,5,11,7"
14620,commdev-image-keyboard-response,95,383509,learnblock1,9,img/planet7_left.png,7,Community 3,NA,FALSE,j,f,NA,NA,NA,1,6,"13,2,3,12,8,1,15,14,4,9,10,6,5,11,7"
14620,commdev-image-keyboard-response,96,384764,learnblock1,83,img/planet10_right.png,10,Community 3,NA,TRUE,j,j,NA,NA,NA,1,6,"13,2,3,12,8,1,15,14,4,9,10,6,5,11,7"
14620,commdev-image-keyboard-response,97,386018,learnblock1,234,img/planet11_left.png,11,Community 3,NA,TRUE,f,f,NA,NA,NA,1,6,"13,2,3,12,8,1,15,14,4,9,10,6,5,11,7"
14620,commdev-image-keyboard-response,98,387271,learnblock1,70,img/planet7_right.png,7,Community 3,NA,TRUE,j,j,NA,NA,NA,1,6,"13,2,3,12,8,1,15,14,4,9,10,6,5,11,7"
14620,commdev-image-keyboard-response,99,388525,learnblock1,217,img/planet10_left.png,10,Community 3,NA,TRUE,f,f,NA,NA,NA,1,6,"13,2,3,12,8,1,15,14,4,9,10,6,5,11,7"
14620,commdev-image-keyboard-response,100,389782,learnblock1,219,img/planet7_right.png,7,Community 3,NA,FALSE,f,j,NA,NA,NA,1,6,"13,2,3,12,8,1,15,14,4,9,10,6,5,11,7"
14620,commdev-image-keyboard-response,101,391034,learnblock1,22,img/planet6_left.png,6,Community 3,NA,FALSE,j,f,NA,NA,NA,1,6,"13,2,3,12,8,1,15,14,4,9,10,6,5,11,7"
14620,commdev-image-keyboard-response,102,392419,learnblock1,239,img/planet14_right.png,14,Community 2,NA,TRUE,j,j,NA,NA,NA,1,6,"13,2,3,12,8,1,15,14,4,9,10,6,5,11,7"
14620,commdev-image-keyboard-response,103,393669,learnblock1,247,img/planet15_right.png,15,Community 2,NA,TRUE,j,j,NA,NA,NA,1,6,"13,2,3,12,8,1,15,14,4,9,10,6,5,11,7"
14620,commdev-image-keyboard-response,104,394923,learnblock1,163,img/planet1_left.png,1,Community 2,NA,TRUE,f,f,NA,NA,NA,1,6,"13,2,3,12,8,1,15,14,4,9,10,6,5,11,7"
14620,commdev-image-keyboard-response,105,396178,learnblock1,78,img/planet12_left.png,12,Community 1,NA,TRUE,f,f,NA,NA,NA,1,6,"13,2,3,12,8,1,15,14,4,9,10,6,5,11,7"
14620,commdev-image-keyboard-response,106,397433,learnblock1,319,img/planet1_right.png,1,Community 2,NA,FALSE,f,j,NA,NA,NA,1,6,"13,2,3,12,8,1,15,14,4,9,10,6,5,11,7"
14620,commdev-image-keyboard-response,107,398684,learnblock1,176,img/planet4_left.png,4,Community 2,NA,FALSE,j,f,NA,NA,NA,1,6,"13,2,3,12,8,1,15,14,4,9,10,6,5,11,7"
14620,commdev-image-keyboard-response,108,399939,learnblock1,396,img/planet9_right.png,9,Community 2,NA,FALSE,f,j,NA,NA,NA,1,6,"13,2,3,12,8,1,15,14,4,9,10,6,5,11,7"
14620,commdev-image-keyboard-response,109,401192,learnblock1,134,img/planet4_right.png,4,Community 2,NA,TRUE,j,j,NA,NA,NA,1,6,"13,2,3,12,8,1,15,14,4,9,10,6,5,11,7"
14620,commdev-image-keyboard-response,110,402548,learnblock1,232,img/planet14_left.png,14,Community 2,NA,FALSE,j,f,NA,NA,NA,1,6,"13,2,3,12,8,1,15,14,4,9,10,6,5,11,7"
14620,commdev-image-keyboard-response,111,403802,learnblock1,416,img/planet6_left.png,6,Community 3,NA,TRUE,f,f,NA,NA,NA,1,6,"13,2,3,12,8,1,15,14,4,9,10,6,5,11,7"
14620,commdev-image-keyboard-response,112,405058,learnblock1,150,img/planet11_right.png,11,Community 3,NA,FALSE,f,j,NA,NA,NA,1,6,"13,2,3,12,8,1,15,14,4,9,10,6,5,11,7"
14620,commdev-image-keyboard-response,113,406314,learnblock1,576,img/planet5_left.png,5,Community 3,NA,TRUE,f,f,NA,NA,NA,1,6,"13,2,3,12,8,1,15,14,4,9,10,6,5,11,7"
14620,commdev-image-keyboard-response,114,407566,learnblock1,199,img/planet11_right.png,11,Community 3,NA,TRUE,j,j,NA,NA,NA,1,6,"13,2,3,12,8,1,15,14,4,9,10,6,5,11,7"
14620,commdev-image-keyboard-response,115,408819,learnblock1,28,img/planet7_right.png,7,Community 3,NA,FALSE,f,j,NA,NA,NA,1,6,"13,2,3,12,8,1,15,14,4,9,10,6,5,11,7"
14620,commdev-image-keyboard-response,116,410075,learnblock1,135,img/planet10_left.png,10,Community 3,NA,FALSE,j,f,NA,NA,NA,1,6,"13,2,3,12,8,1,15,14,4,9,10,6,5,11,7"
14620,commdev-image-keyboard-response,117,411330,learnblock1,null,img/planet8_right.png,8,Community 1,NA,FALSE,null,j,NA,NA,NA,1,6,"13,2,3,12,8,1,15,14,4,9,10,6,5,11,7"
14620,commdev-image-keyboard-response,118,412652,learnblock1,64,img/planet10_left.png,10,Community 3,NA,TRUE,f,f,NA,NA,NA,1,6,"13,2,3,12,8,1,15,14,4,9,10,6,5,11,7"
14620,commdev-image-keyboard-response,119,413906,learnblock1,125,img/planet7_left.png,7,Community 3,NA,FALSE,j,f,NA,NA,NA,1,6,"13,2,3,12,8,1,15,14,4,9,10,6,5,11,7"
14620,commdev-image-keyboard-response,120,415160,learnblock1,240,img/planet10_right.png,10,Community 3,NA,TRUE,j,j,NA,NA,NA,1,6,"13,2,3,12,8,1,15,14,4,9,10,6,5,11,7"
14620,commdev-image-keyboard-response,121,416415,learnblock1,729,img/planet5_right.png,5,Community 3,NA,FALSE,f,j,NA,NA,NA,1,6,"13,2,3,12,8,1,15,14,4,9,10,6,5,11,7"
14620,commdev-image-keyboard-response,122,417667,learnblock1,195,img/planet10_right.png,10,Community 3,NA,TRUE,j,j,NA,NA,NA,1,6,"13,2,3,12,8,1,15,14,4,9,10,6,5,11,7"
14620,commdev-image-keyboard-response,123,418921,learnblock1,254,img/planet8_right.png,8,Community 1,NA,FALSE,f,j,NA,NA,NA,1,6,"13,2,3,12,8,1,15,14,4,9,10,6,5,11,7"
14620,commdev-image-keyboard-response,124,420173,learnblock1,130,img/planet13_right.png,13,Community 1,NA,TRUE,j,j,NA,NA,NA,1,6,"13,2,3,12,8,1,15,14,4,9,10,6,5,11,7"
14620,commdev-image-keyboard-response,125,421427,learnblock1,125,img/planet8_left.png,8,Community 1,NA,FALSE,j,f,NA,NA,NA,1,6,"13,2,3,12,8,1,15,14,4,9,10,6,5,11,7"
14620,commdev-image-keyboard-response,126,422769,learnblock1,278,img/planet3_left.png,3,Community 1,NA,TRUE,f,f,NA,NA,NA,1,6,"13,2,3,12,8,1,15,14,4,9,10,6,5,11,7"
14620,commdev-image-keyboard-response,127,424025,learnblock1,88,img/planet13_left.png,13,Community 1,NA,FALSE,j,f,NA,NA,NA,1,6,"13,2,3,12,8,1,15,14,4,9,10,6,5,11,7"
14620,commdev-image-keyboard-response,128,425280,learnblock1,73,img/planet8_right.png,8,Community 1,NA,TRUE,j,j,NA,NA,NA,1,6,"13,2,3,12,8,1,15,14,4,9,10,6,5,11,7"
14620,commdev-image-keyboard-response,129,426535,learnblock1,4,img/planet13_right.png,13,Community 1,NA,TRUE,j,j,NA,NA,NA,1,6,"13,2,3,12,8,1,15,14,4,9,10,6,5,11,7"
14620,commdev-image-keyboard-response,130,427788,learnblock1,68,img/planet2_right.png,2,Community 1,NA,TRUE,j,j,NA,NA,NA,1,6,"13,2,3,12,8,1,15,14,4,9,10,6,5,11,7"
14620,commdev-image-keyboard-response,131,429044,learnblock1,158,img/planet3_left.png,3,Community 1,NA,FALSE,j,f,NA,NA,NA,1,6,"13,2,3,12,8,1,15,14,4,9,10,6,5,11,7"
14620,commdev-image-keyboard-response,132,430299,learnblock1,174,img/planet13_right.png,13,Community 1,NA,FALSE,f,j,NA,NA,NA,1,6,"13,2,3,12,8,1,15,14,4,9,10,6,5,11,7"
14620,commdev-image-keyboard-response,133,431553,learnblock1,45,img/planet3_left.png,3,Community 1,NA,TRUE,f,f,NA,NA,NA,1,6,"13,2,3,12,8,1,15,14,4,9,10,6,5,11,7"
14620,commdev-image-keyboard-response,134,432886,learnblock1,401,img/planet2_right.png,2,Community 1,NA,FALSE,f,j,NA,NA,NA,1,6,"13,2,3,12,8,1,15,14,4,9,10,6,5,11,7"
14620,commdev-image-keyboard-response,135,434137,learnblock1,52,img/planet8_left.png,8,Community 1,NA,TRUE,f,f,NA,NA,NA,1,6,"13,2,3,12,8,1,15,14,4,9,10,6,5,11,7"
14620,commdev-image-keyboard-response,136,435388,learnblock1,154,img/planet10_right.png,10,Community 3,NA,TRUE,j,j,NA,NA,NA,1,6,"13,2,3,12,8,1,15,14,4,9,10,6,5,11,7"
14620,commdev-image-keyboard-response,137,436644,learnblock1,20,img/planet7_left.png,7,Community 3,NA,FALSE,j,f,NA,NA,NA,1,6,"13,2,3,12,8,1,15,14,4,9,10,6,5,11,7"
14620,commdev-image-keyboard-response,138,437899,learnblock1,175,img/planet11_left.png,11,Community 3,NA,TRUE,f,f,NA,NA,NA,1,6,"13,2,3,12,8,1,15,14,4,9,10,6,5,11,7"
14620,commdev-image-keyboard-response,139,439154,learnblock1,39,img/planet5_right.png,5,Community 3,NA,TRUE,j,j,NA,NA,NA,1,6,"13,2,3,12,8,1,15,14,4,9,10,6,5,11,7"
14620,commdev-image-keyboard-response,140,440411,learnblock1,40,img/planet11_right.png,11,Community 3,NA,FALSE,f,j,NA,NA,NA,1,6,"13,2,3,12,8,1,15,14,4,9,10,6,5,11,7"
14620,commdev-image-keyboard-response,141,441666,learnblock1,95,img/planet6_left.png,6,Community 3,NA,TRUE,f,f,NA,NA,NA,1,6,"13,2,3,12,8,1,15,14,4,9,10,6,5,11,7"
14620,commdev-image-keyboard-response,142,442920,learnblock1,160,img/planet14_left.png,14,Community 2,NA,FALSE,j,f,NA,NA,NA,1,6,"13,2,3,12,8,1,15,14,4,9,10,6,5,11,7"
14620,commdev-image-keyboard-response,143,444174,learnblock1,51,img/planet15_right.png,15,Community 2,NA,FALSE,f,j,NA,NA,NA,1,6,"13,2,3,12,8,1,15,14,4,9,10,6,5,11,7"
14620,commdev-image-keyboard-response,144,445427,learnblock1,204,img/planet9_right.png,9,Community 2,NA,FALSE,f,j,NA,NA,NA,1,6,"13,2,3,12,8,1,15,14,4,9,10,6,5,11,7"
14620,commdev-image-keyboard-response,145,446684,learnblock1,167,img/planet1_right.png,1,Community 2,NA,FALSE,f,j,NA,NA,NA,1,6,"13,2,3,12,8,1,15,14,4,9,10,6,5,11,7"
14620,commdev-image-keyboard-response,146,447941,learnblock1,213,img/planet9_right.png,9,Community 2,NA,FALSE,f,j,NA,NA,NA,1,6,"13,2,3,12,8,1,15,14,4,9,10,6,5,11,7"
14620,commdev-image-keyboard-response,147,449197,learnblock1,125,img/planet4_right.png,4,Community 2,NA,FALSE,f,j,NA,NA,NA,1,6,"13,2,3,12,8,1,15,14,4,9,10,6,5,11,7"
14620,commdev-image-keyboard-response,148,450449,learnblock1,182,img/planet14_left.png,14,Community 2,NA,FALSE,j,f,NA,NA,NA,1,6,"13,2,3,12,8,1,15,14,4,9,10,6,5,11,7"
14620,commdev-image-keyboard-response,149,451704,learnblock1,266,img/planet9_left.png,9,Community 2,NA,TRUE,f,f,NA,NA,NA,1,6,"13,2,3,12,8,1,15,14,4,9,10,6,5,11,7"
14620,commdev-image-keyboard-response,150,452960,learnblock1,107,img/planet1_left.png,1,Community 2,NA,FALSE,j,f,NA,NA,NA,1,6,"13,2,3,12,8,1,15,14,4,9,10,6,5,11,7"
14620,commdev-image-keyboard-response,151,454216,learnblock1,211,img/planet4_right.png,4,Community 2,NA,TRUE,j,j,NA,NA,NA,1,6,"13,2,3,12,8,1,15,14,4,9,10,6,5,11,7"
14620,commdev-image-keyboard-response,152,455471,learnblock1,164,img/planet1_right.png,1,Community 2,NA,TRUE,j,j,NA,NA,NA,1,6,"13,2,3,12,8,1,15,14,4,9,10,6,5,11,7"
14620,commdev-image-keyboard-response,153,456725,learnblock1,68,img/planet4_left.png,4,Community 2,NA,TRUE,f,f,NA,NA,NA,1,6,"13,2,3,12,8,1,15,14,4,9,10,6,5,11,7"
14620,commdev-image-keyboard-response,154,457978,learnblock1,63,img/planet15_left.png,15,Community 2,NA,FALSE,j,f,NA,NA,NA,1,6,"13,2,3,12,8,1,15,14,4,9,10,6,5,11,7"
14620,commdev-image-keyboard-response,155,459232,learnblock1,257,img/planet14_right.png,14,Community 2,NA,TRUE,j,j,NA,NA,NA,1,6,"13,2,3,12,8,1,15,14,4,9,10,6,5,11,7"
14620,commdev-image-keyboard-response,156,460488,learnblock1,99,img/planet6_left.png,6,Community 3,NA,TRUE,f,f,NA,NA,NA,1,6,"13,2,3,12,8,1,15,14,4,9,10,6,5,11,7"
14620,commdev-image-keyboard-response,157,461741,learnblock1,226,img/planet11_left.png,11,Community 3,NA,TRUE,f,f,NA,NA,NA,1,6,"13,2,3,12,8,1,15,14,4,9,10,6,5,11,7"
14620,commdev-image-keyboard-response,158,462995,learnblock1,79,img/planet5_right.png,5,Community 3,NA,FALSE,f,j,NA,NA,NA,1,6,"13,2,3,12,8,1,15,14,4,9,10,6,5,11,7"
14620,commdev-image-keyboard-response,159,464249,learnblock1,153,img/planet7_right.png,7,Community 3,NA,FALSE,f,j,NA,NA,NA,1,6,"13,2,3,12,8,1,15,14,4,9,10,6,5,11,7"
14620,commdev-image-keyboard-response,160,465505,learnblock1,11,img/planet5_right.png,5,Community 3,NA,FALSE,f,j,NA,NA,NA,1,6,"13,2,3,12,8,1,15,14,4,9,10,6,5,11,7"
14620,commdev-image-keyboard-response,161,466756,learnblock1,50,img/planet7_left.png,7,Community 3,NA,FALSE,j,f,NA,NA,NA,1,6,"13,2,3,12,8,1,15,14,4,9,10,6,5,11,7"
14620,commdev-image-keyboard-response,162,468010,learnblock1,21,img/planet10_left.png,10,Community 3,NA,FALSE,j,f,NA,NA,NA,1,6,"13,2,3,12,8,1,15,14,4,9,10,6,5,11,7"
14620,commdev-image-keyboard-response,163,469264,learnblock1,273,img/planet7_right.png,7,Community 3,NA,FALSE,f,j,NA,NA,NA,1,6,"13,2,3,12,8,1,15,14,4,9,10,6,5,11,7"
14620,commdev-image-keyboard-response,164,470518,learnblock1,117,img/planet11_left.png,11,Community 3,NA,FALSE,j,f,NA,NA,NA,1,6,"13,2,3,12,8,1,15,14,4,9,10,6,5,11,7"
14620,commdev-image-keyboard-response,165,471772,learnblock1,32,img/planet7_right.png,7,Community 3,NA,FALSE,f,j,NA,NA,NA,1,6,"13,2,3,12,8,1,15,14,4,9,10,6,5,11,7"
14620,commdev-image-keyboard-response,166,473027,learnblock1,113,img/planet11_left.png,11,Community 3,NA,TRUE,f,f,NA,NA,NA,1,6,"13,2,3,12,8,1,15,14,4,9,10,6,5,11,7"
14620,commdev-image-keyboard-response,167,474279,learnblock1,201,img/planet5_right.png,5,Community 3,NA,TRUE,j,j,NA,NA,NA,1,6,"13,2,3,12,8,1,15,14,4,9,10,6,5,11,7"
14620,commdev-image-keyboard-response,168,475534,learnblock1,275,img/planet6_right.png,6,Community 3,NA,TRUE,j,j,NA,NA,NA,1,6,"13,2,3,12,8,1,15,14,4,9,10,6,5,11,7"
14620,commdev-image-keyboard-response,169,476787,learnblock1,29,img/planet7_left.png,7,Community 3,NA,FALSE,j,f,NA,NA,NA,1,6,"13,2,3,12,8,1,15,14,4,9,10,6,5,11,7"
14620,commdev-image-keyboard-response,170,478041,learnblock1,112,img/planet11_right.png,11,Community 3,NA,FALSE,f,j,NA,NA,NA,1,6,"13,2,3,12,8,1,15,14,4,9,10,6,5,11,7"
14620,commdev-image-keyboard-response,171,479295,learnblock1,202,img/planet6_left.png,6,Community 3,NA,FALSE,j,f,NA,NA,NA,1,6,"13,2,3,12,8,1,15,14,4,9,10,6,5,11,7"
14620,commdev-image-keyboard-response,172,480549,learnblock1,261,img/planet5_left.png,5,Community 3,NA,TRUE,f,f,NA,NA,NA,1,6,"13,2,3,12,8,1,15,14,4,9,10,6,5,11,7"
14620,commdev-image-keyboard-response,173,481803,learnblock1,87,img/planet7_right.png,7,Community 3,NA,TRUE,j,j,NA,NA,NA,1,6,"13,2,3,12,8,1,15,14,4,9,10,6,5,11,7"
14620,commdev-image-keyboard-response,174,483057,learnblock1,401,img/planet11_right.png,11,Community 3,NA,FALSE,f,j,NA,NA,NA,1,6,"13,2,3,12,8,1,15,14,4,9,10,6,5,11,7"
14620,commdev-image-keyboard-response,175,484311,learnblock1,331,img/planet7_right.png,7,Community 3,NA,TRUE,j,j,NA,NA,NA,1,6,"13,2,3,12,8,1,15,14,4,9,10,6,5,11,7"
14620,commdev-image-keyboard-response,176,485564,learnblock1,181,img/planet5_left.png,5,Community 3,NA,FALSE,j,f,NA,NA,NA,1,6,"13,2,3,12,8,1,15,14,4,9,10,6,5,11,7"
14620,commdev-image-keyboard-response,177,486818,learnblock1,239,img/planet11_left.png,11,Community 3,NA,FALSE,j,f,NA,NA,NA,1,6,"13,2,3,12,8,1,15,14,4,9,10,6,5,11,7"
14620,commdev-image-keyboard-response,178,488070,learnblock1,98,img/planet5_right.png,5,Community 3,NA,TRUE,j,j,NA,NA,NA,1,6,"13,2,3,12,8,1,15,14,4,9,10,6,5,11,7"
14620,commdev-image-keyboard-response,179,489321,learnblock1,108,img/planet6_left.png,6,Community 3,NA,FALSE,j,f,NA,NA,NA,1,6,"13,2,3,12,8,1,15,14,4,9,10,6,5,11,7"
14620,commdev-image-keyboard-response,180,490574,learnblock1,3,img/planet7_right.png,7,Community 3,NA,FALSE,f,j,NA,NA,NA,1,6,"13,2,3,12,8,1,15,14,4,9,10,6,5,11,7"
14620,commdev-image-keyboard-response,181,491824,learnblock1,62,img/planet6_left.png,6,Community 3,NA,FALSE,j,f,NA,NA,NA,1,6,"13,2,3,12,8,1,15,14,4,9,10,6,5,11,7"
14620,commdev-image-keyboard-response,182,493077,learnblock1,35,img/planet5_right.png,5,Community 3,NA,TRUE,j,j,NA,NA,NA,1,6,"13,2,3,12,8,1,15,14,4,9,10,6,5,11,7"
14620,commdev-image-keyboard-response,183,494331,learnblock1,142,img/planet11_left.png,11,Community 3,NA,TRUE,f,f,NA,NA,NA,1,6,"13,2,3,12,8,1,15,14,4,9,10,6,5,11,7"
14620,commdev-image-keyboard-response,184,495582,learnblock1,130,img/planet10_left.png,10,Community 3,NA,TRUE,f,f,NA,NA,NA,1,6,"13,2,3,12,8,1,15,14,4,9,10,6,5,11,7"
14620,commdev-image-keyboard-response,185,496838,learnblock1,120,img/planet5_left.png,5,Community 3,NA,FALSE,j,f,NA,NA,NA,1,6,"13,2,3,12,8,1,15,14,4,9,10,6,5,11,7"
14620,commdev-image-keyboard-response,186,498092,learnblock1,254,img/planet7_right.png,7,Community 3,NA,FALSE,f,j,NA,NA,NA,1,6,"13,2,3,12,8,1,15,14,4,9,10,6,5,11,7"
14620,commdev-image-keyboard-response,187,499346,learnblock1,201,img/planet6_left.png,6,Community 3,NA,TRUE,f,f,NA,NA,NA,1,6,"13,2,3,12,8,1,15,14,4,9,10,6,5,11,7"
14620,commdev-image-keyboard-response,188,500600,learnblock1,75,img/planet11_right.png,11,Community 3,NA,TRUE,j,j,NA,NA,NA,1,6,"13,2,3,12,8,1,15,14,4,9,10,6,5,11,7"
14620,commdev-image-keyboard-response,189,501852,learnblock1,123,img/planet6_right.png,6,Community 3,NA,FALSE,f,j,NA,NA,NA,1,6,"13,2,3,12,8,1,15,14,4,9,10,6,5,11,7"
14620,commdev-image-keyboard-response,190,503105,learnblock1,82,img/planet7_left.png,7,Community 3,NA,TRUE,f,f,NA,NA,NA,1,6,"13,2,3,12,8,1,15,14,4,9,10,6,5,11,7"
14620,commdev-image-keyboard-response,191,504360,learnblock1,251,img/planet6_left.png,6,Community 3,NA,TRUE,f,f,NA,NA,NA,1,6,"13,2,3,12,8,1,15,14,4,9,10,6,5,11,7"
14620,commdev-image-keyboard-response,192,505702,learnblock1,null,img/planet5_right.png,5,Community 3,NA,FALSE,null,j,NA,NA,NA,1,6,"13,2,3,12,8,1,15,14,4,9,10,6,5,11,7"
14620,commdev-image-keyboard-response,193,506955,learnblock1,63,img/planet11_right.png,11,Community 3,NA,FALSE,f,j,NA,NA,NA,1,6,"13,2,3,12,8,1,15,14,4,9,10,6,5,11,7"
14620,commdev-image-keyboard-response,194,508209,learnblock1,2,img/planet10_right.png,10,Community 3,NA,TRUE,j,j,NA,NA,NA,1,6,"13,2,3,12,8,1,15,14,4,9,10,6,5,11,7"
14620,commdev-image-keyboard-response,195,509461,learnblock1,204,img/planet7_left.png,7,Community 3,NA,TRUE,f,f,NA,NA,NA,1,6,"13,2,3,12,8,1,15,14,4,9,10,6,5,11,7"
14620,commdev-image-keyboard-response,196,510713,learnblock1,111,img/planet6_left.png,6,Community 3,NA,FALSE,j,f,NA,NA,NA,1,6,"13,2,3,12,8,1,15,14,4,9,10,6,5,11,7"
14620,commdev-image-keyboard-response,197,511992,learnblock1,69,img/planet11_right.png,11,Community 3,NA,FALSE,f,j,NA,NA,NA,1,6,"13,2,3,12,8,1,15,14,4,9,10,6,5,11,7"
14620,commdev-image-keyboard-response,198,513245,learnblock1,5,img/planet10_right.png,10,Community 3,NA,TRUE,j,j,NA,NA,NA,1,6,"13,2,3,12,8,1,15,14,4,9,10,6,5,11,7"
14620,commdev-image-keyboard-response,199,514498,learnblock1,199,img/planet5_right.png,5,Community 3,NA,TRUE,j,j,NA,NA,NA,1,6,"13,2,3,12,8,1,15,14,4,9,10,6,5,11,7"
14620,commdev-image-keyboard-response,200,515751,learnblock1,42,img/planet10_left.png,10,Community 3,NA,FALSE,j,f,NA,NA,NA,1,6,"13,2,3,12,8,1,15,14,4,9,10,6,5,11,7"
14620,commdev-image-keyboard-response,201,517006,learnblock1,109,img/planet5_right.png,5,Community 3,NA,FALSE,f,j,NA,NA,NA,1,6,"13,2,3,12,8,1,15,14,4,9,10,6,5,11,7"
14620,commdev-image-keyboard-response,202,518260,learnblock1,27,img/planet10_right.png,10,Community 3,NA,TRUE,j,j,NA,NA,NA,1,6,"13,2,3,12,8,1,15,14,4,9,10,6,5,11,7"
14620,commdev-image-keyboard-response,203,519511,learnblock1,209,img/planet8_left.png,8,Community 1,NA,FALSE,j,f,NA,NA,NA,1,6,"13,2,3,12,8,1,15,14,4,9,10,6,5,11,7"
14620,commdev-image-keyboard-response,204,520764,learnblock1,142,img/planet10_right.png,10,Community 3,NA,FALSE,f,j,NA,NA,NA,1,6,"13,2,3,12,8,1,15,14,4,9,10,6,5,11,7"
14620,commdev-image-keyboard-response,205,522167,learnblock1,41,img/planet8_left.png,8,Community 1,NA,FALSE,j,f,NA,NA,NA,1,6,"13,2,3,12,8,1,15,14,4,9,10,6,5,11,7"
14620,commdev-image-keyboard-response,206,523423,learnblock1,149,img/planet2_right.png,2,Community 1,NA,FALSE,f,j,NA,NA,NA,1,6,"13,2,3,12,8,1,15,14,4,9,10,6,5,11,7"
14620,commdev-image-keyboard-response,207,524678,learnblock1,334,img/planet13_right.png,13,Community 1,NA,FALSE,f,j,NA,NA,NA,1,6,"13,2,3,12,8,1,15,14,4,9,10,6,5,11,7"
14620,commdev-image-keyboard-response,208,525934,learnblock1,207,img/planet8_right.png,8,Community 1,NA,FALSE,f,j,NA,NA,NA,1,6,"13,2,3,12,8,1,15,14,4,9,10,6,5,11,7"
14620,commdev-image-keyboard-response,209,527186,learnblock1,224,img/planet2_right.png,2,Community 1,NA,TRUE,j,j,NA,NA,NA,1,6,"13,2,3,12,8,1,15,14,4,9,10,6,5,11,7"
14620,commdev-image-keyboard-response,210,528442,learnblock1,101,img/planet13_right.png,13,Community 1,NA,FALSE,f,j,NA,NA,NA,1,6,"13,2,3,12,8,1,15,14,4,9,10,6,5,11,7"
14620,commdev-image-keyboard-response,211,529695,learnblock1,67,img/planet2_left.png,2,Community 1,NA,TRUE,f,f,NA,NA,NA,1,6,"13,2,3,12,8,1,15,14,4,9,10,6,5,11,7"
14620,commdev-image-keyboard-response,212,530950,learnblock1,61,img/planet13_right.png,13,Community 1,NA,FALSE,f,j,NA,NA,NA,1,6,"13,2,3,12,8,1,15,14,4,9,10,6,5,11,7"
14620,commdev-image-keyboard-response,213,532281,learnblock1,223,img/planet12_left.png,12,Community 1,NA,TRUE,f,f,NA,NA,NA,1,6,"13,2,3,12,8,1,15,14,4,9,10,6,5,11,7"
14620,commdev-image-keyboard-response,214,533535,learnblock1,118,img/planet13_right.png,13,Community 1,NA,FALSE,f,j,NA,NA,NA,1,6,"13,2,3,12,8,1,15,14,4,9,10,6,5,11,7"
14620,commdev-image-keyboard-response,215,534787,learnblock1,86,img/planet2_right.png,2,Community 1,NA,TRUE,j,j,NA,NA,NA,1,6,"13,2,3,12,8,1,15,14,4,9,10,6,5,11,7"
14620,commdev-image-keyboard-response,216,536043,learnblock1,121,img/planet13_right.png,13,Community 1,NA,TRUE,j,j,NA,NA,NA,1,6,"13,2,3,12,8,1,15,14,4,9,10,6,5,11,7"
14620,commdev-image-keyboard-response,217,537297,learnblock1,73,img/planet3_left.png,3,Community 1,NA,TRUE,f,f,NA,NA,NA,1,6,"13,2,3,12,8,1,15,14,4,9,10,6,5,11,7"
14620,commdev-image-keyboard-response,218,538553,learnblock1,37,img/planet8_left.png,8,Community 1,NA,TRUE,f,f,NA,NA,NA,1,6,"13,2,3,12,8,1,15,14,4,9,10,6,5,11,7"
14620,commdev-image-keyboard-response,219,539807,learnblock1,62,img/planet3_left.png,3,Community 1,NA,TRUE,f,f,NA,NA,NA,1,6,"13,2,3,12,8,1,15,14,4,9,10,6,5,11,7"
14620,commdev-image-keyboard-response,220,541062,learnblock1,29,img/planet12_left.png,12,Community 1,NA,FALSE,j,f,NA,NA,NA,1,6,"13,2,3,12,8,1,15,14,4,9,10,6,5,11,7"
14620,commdev-image-keyboard-response,221,542374,learnblock1,152,img/planet1_right.png,1,Community 2,NA,TRUE,j,j,NA,NA,NA,1,6,"13,2,3,12,8,1,15,14,4,9,10,6,5,11,7"
14620,commdev-image-keyboard-response,222,543630,learnblock1,207,img/planet4_right.png,4,Community 2,NA,TRUE,j,j,NA,NA,NA,1,6,"13,2,3,12,8,1,15,14,4,9,10,6,5,11,7"
14620,commdev-image-keyboard-response,223,544882,learnblock1,208,img/planet15_right.png,15,Community 2,NA,FALSE,f,j,NA,NA,NA,1,6,"13,2,3,12,8,1,15,14,4,9,10,6,5,11,7"
14620,commdev-image-keyboard-response,224,546136,learnblock1,179,img/planet9_right.png,9,Community 2,NA,FALSE,f,j,NA,NA,NA,1,6,"13,2,3,12,8,1,15,14,4,9,10,6,5,11,7"
14620,commdev-image-keyboard-response,225,547390,learnblock1,165,img/planet4_right.png,4,Community 2,NA,FALSE,f,j,NA,NA,NA,1,6,"13,2,3,12,8,1,15,14,4,9,10,6,5,11,7"
14620,commdev-image-keyboard-response,226,548641,learnblock1,111,img/planet14_right.png,14,Community 2,NA,FALSE,f,j,NA,NA,NA,1,6,"13,2,3,12,8,1,15,14,4,9,10,6,5,11,7"
14620,commdev-image-keyboard-response,227,549897,learnblock1,245,img/planet9_left.png,9,Community 2,NA,FALSE,j,f,NA,NA,NA,1,6,"13,2,3,12,8,1,15,14,4,9,10,6,5,11,7"
14620,commdev-image-keyboard-response,228,551151,learnblock1,678,img/planet4_right.png,4,Community 2,NA,TRUE,j,j,NA,NA,NA,1,6,"13,2,3,12,8,1,15,14,4,9,10,6,5,11,7"
14620,commdev-image-keyboard-response,229,552504,learnblock1,159,img/planet15_right.png,15,Community 2,NA,FALSE,f,j,NA,NA,NA,1,6,"13,2,3,12,8,1,15,14,4,9,10,6,5,11,7"
14620,commdev-image-keyboard-response,230,553758,learnblock1,239,img/planet1_left.png,1,Community 2,NA,TRUE,f,f,NA,NA,NA,1,6,"13,2,3,12,8,1,15,14,4,9,10,6,5,11,7"
14620,commdev-image-keyboard-response,231,555014,learnblock1,391,img/planet4_right.png,4,Community 2,NA,FALSE,f,j,NA,NA,NA,1,6,"13,2,3,12,8,1,15,14,4,9,10,6,5,11,7"
14620,commdev-image-keyboard-response,232,556269,learnblock1,32,img/planet9_right.png,9,Community 2,NA,TRUE,j,j,NA,NA,NA,1,6,"13,2,3,12,8,1,15,14,4,9,10,6,5,11,7"
14620,commdev-image-keyboard-response,233,557524,learnblock1,1,img/planet1_right.png,1,Community 2,NA,TRUE,j,j,NA,NA,NA,1,6,"13,2,3,12,8,1,15,14,4,9,10,6,5,11,7"
14620,commdev-image-keyboard-response,234,558779,learnblock1,30,img/planet4_right.png,4,Community 2,NA,FALSE,f,j,NA,NA,NA,1,6,"13,2,3,12,8,1,15,14,4,9,10,6,5,11,7"
14620,commdev-image-keyboard-response,235,560033,learnblock1,114,img/planet9_right.png,9,Community 2,NA,TRUE,j,j,NA,NA,NA,1,6,"13,2,3,12,8,1,15,14,4,9,10,6,5,11,7"
14620,commdev-image-keyboard-response,236,561289,learnblock1,204,img/planet14_right.png,14,Community 2,NA,FALSE,f,j,NA,NA,NA,1,6,"13,2,3,12,8,1,15,14,4,9,10,6,5,11,7"
14620,commdev-image-keyboard-response,237,562600,learnblock1,254,img/planet15_right.png,15,Community 2,NA,TRUE,j,j,NA,NA,NA,1,6,"13,2,3,12,8,1,15,14,4,9,10,6,5,11,7"
14620,commdev-image-keyboard-response,238,563854,learnblock1,86,img/planet1_left.png,1,Community 2,NA,FALSE,j,f,NA,NA,NA,1,6,"13,2,3,12,8,1,15,14,4,9,10,6,5,11,7"
14620,commdev-image-keyboard-response,239,565107,learnblock1,146,img/planet4_left.png,4,Community 2,NA,TRUE,f,f,NA,NA,NA,1,6,"13,2,3,12,8,1,15,14,4,9,10,6,5,11,7"
14620,commdev-image-keyboard-response,240,566362,learnblock1,50,img/planet1_right.png,1,Community 2,NA,FALSE,f,j,NA,NA,NA,1,6,"13,2,3,12,8,1,15,14,4,9,10,6,5,11,7"
14620,commdev-image-keyboard-response,241,567615,learnblock1,227,img/planet4_left.png,4,Community 2,NA,TRUE,f,f,NA,NA,NA,1,6,"13,2,3,12,8,1,15,14,4,9,10,6,5,11,7"
14620,commdev-image-keyboard-response,242,568871,learnblock1,151,img/planet15_right.png,15,Community 2,NA,FALSE,f,j,NA,NA,NA,1,6,"13,2,3,12,8,1,15,14,4,9,10,6,5,11,7"
14620,commdev-image-keyboard-response,243,570123,learnblock1,14,img/planet14_left.png,14,Community 2,NA,TRUE,f,f,NA,NA,NA,1,6,"13,2,3,12,8,1,15,14,4,9,10,6,5,11,7"
14620,commdev-image-keyboard-response,244,571377,learnblock1,6,img/planet9_left.png,9,Community 2,NA,FALSE,j,f,NA,NA,NA,1,6,"13,2,3,12,8,1,15,14,4,9,10,6,5,11,7"
14620,commdev-image-keyboard-response,245,572633,learnblock1,24,img/planet1_left.png,1,Community 2,NA,FALSE,j,f,NA,NA,NA,1,6,"13,2,3,12,8,1,15,14,4,9,10,6,5,11,7"
14620,commdev-image-keyboard-response,246,573884,learnblock1,278,img/planet4_right.png,4,Community 2,NA,TRUE,j,j,NA,NA,NA,1,6,"13,2,3,12,8,1,15,14,4,9,10,6,5,11,7"
14620,commdev-image-keyboard-response,247,575138,learnblock1,97,img/planet14_left.png,14,Community 2,NA,FALSE,j,f,NA,NA,NA,1,6,"13,2,3,12,8,1,15,14,4,9,10,6,5,11,7"
14620,commdev-image-keyboard-response,248,576392,learnblock1,171,img/planet6_left.png,6,Community 3,NA,FALSE,j,f,NA,NA,NA,1,6,"13,2,3,12,8,1,15,14,4,9,10,6,5,11,7"
14620,commdev-image-keyboard-response,249,577647,learnblock1,150,img/planet7_right.png,7,Community 3,NA,TRUE,j,j,NA,NA,NA,1,6,"13,2,3,12,8,1,15,14,4,9,10,6,5,11,7"
14620,commdev-image-keyboard-response,250,579033,learnblock1,113,img/planet5_right.png,5,Community 3,NA,FALSE,f,j,NA,NA,NA,1,6,"13,2,3,12,8,1,15,14,4,9,10,6,5,11,7"
14620,commdev-image-keyboard-response,251,580287,learnblock1,30,img/planet7_left.png,7,Community 3,NA,TRUE,f,f,NA,NA,NA,1,6,"13,2,3,12,8,1,15,14,4,9,10,6,5,11,7"
14620,commdev-image-keyboard-response,252,581539,learnblock1,77,img/planet6_right.png,6,Community 3,NA,TRUE,j,j,NA,NA,NA,1,6,"13,2,3,12,8,1,15,14,4,9,10,6,5,11,7"
14620,commdev-image-keyboard-response,253,582794,learnblock1,107,img/planet7_right.png,7,Community 3,NA,TRUE,j,j,NA,NA,NA,1,6,"13,2,3,12,8,1,15,14,4,9,10,6,5,11,7"
14620,commdev-image-keyboard-response,254,584047,learnblock1,12,img/planet5_right.png,5,Community 3,NA,TRUE,j,j,NA,NA,NA,1,6,"13,2,3,12,8,1,15,14,4,9,10,6,5,11,7"
14620,commdev-image-keyboard-response,255,585300,learnblock1,87,img/planet7_right.png,7,Community 3,NA,FALSE,f,j,NA,NA,NA,1,6,"13,2,3,12,8,1,15,14,4,9,10,6,5,11,7"
14620,commdev-image-keyboard-response,256,586552,learnblock1,163,img/planet10_right.png,10,Community 3,NA,TRUE,j,j,NA,NA,NA,1,6,"13,2,3,12,8,1,15,14,4,9,10,6,5,11,7"
14620,commdev-image-keyboard-response,257,587805,learnblock1,96,img/planet11_left.png,11,Community 3,NA,FALSE,j,f,NA,NA,NA,1,6,"13,2,3,12,8,1,15,14,4,9,10,6,5,11,7"
14620,commdev-image-keyboard-response,258,589148,learnblock1,41,img/planet10_right.png,10,Community 3,NA,TRUE,j,j,NA,NA,NA,1,6,"13,2,3,12,8,1,15,14,4,9,10,6,5,11,7"
14620,commdev-image-keyboard-response,259,590403,learnblock1,34,img/planet8_left.png,8,Community 1,NA,TRUE,f,f,NA,NA,NA,1,6,"13,2,3,12,8,1,15,14,4,9,10,6,5,11,7"
14620,commdev-image-keyboard-response,260,591659,learnblock1,20,img/planet2_right.png,2,Community 1,NA,FALSE,f,j,NA,NA,NA,1,6,"13,2,3,12,8,1,15,14,4,9,10,6,5,11,7"
14620,commdev-image-keyboard-response,261,592913,learnblock1,148,img/planet3_right.png,3,Community 1,NA,TRUE,j,j,NA,NA,NA,1,6,"13,2,3,12,8,1,15,14,4,9,10,6,5,11,7"
14620,commdev-image-keyboard-response,262,594168,learnblock1,77,img/planet12_left.png,12,Community 1,NA,TRUE,f,f,NA,NA,NA,1,6,"13,2,3,12,8,1,15,14,4,9,10,6,5,11,7"
14620,commdev-image-keyboard-response,263,595422,learnblock1,47,img/planet1_left.png,1,Community 2,NA,FALSE,j,f,NA,NA,NA,1,6,"13,2,3,12,8,1,15,14,4,9,10,6,5,11,7"
14620,commdev-image-keyboard-response,264,596673,learnblock1,98,img/planet4_left.png,4,Community 2,NA,FALSE,j,f,NA,NA,NA,1,6,"13,2,3,12,8,1,15,14,4,9,10,6,5,11,7"
14620,commdev-image-keyboard-response,265,597929,learnblock1,15,img/planet1_left.png,1,Community 2,NA,FALSE,j,f,NA,NA,NA,1,6,"13,2,3,12,8,1,15,14,4,9,10,6,5,11,7"
14620,commdev-image-keyboard-response,266,599244,learnblock1,166,img/planet15_right.png,15,Community 2,NA,FALSE,f,j,NA,NA,NA,1,6,"13,2,3,12,8,1,15,14,4,9,10,6,5,11,7"
14620,commdev-image-keyboard-response,267,600497,learnblock1,475,img/planet4_left.png,4,Community 2,NA,TRUE,f,f,NA,NA,NA,1,6,"13,2,3,12,8,1,15,14,4,9,10,6,5,11,7"
14620,commdev-image-keyboard-response,268,601752,learnblock1,231,img/planet15_right.png,15,Community 2,NA,TRUE,j,j,NA,NA,NA,1,6,"13,2,3,12,8,1,15,14,4,9,10,6,5,11,7"
14620,commdev-image-keyboard-response,269,603003,learnblock1,135,img/planet4_right.png,4,Community 2,NA,FALSE,f,j,NA,NA,NA,1,6,"13,2,3,12,8,1,15,14,4,9,10,6,5,11,7"
14620,commdev-image-keyboard-response,270,604385,learnblock1,132,img/planet14_right.png,14,Community 2,NA,TRUE,j,j,NA,NA,NA,1,6,"13,2,3,12,8,1,15,14,4,9,10,6,5,11,7"
14620,commdev-image-keyboard-response,271,605775,learnblock1,168,img/planet15_right.png,15,Community 2,NA,FALSE,f,j,NA,NA,NA,1,6,"13,2,3,12,8,1,15,14,4,9,10,6,5,11,7"
14620,commdev-image-keyboard-response,272,607032,learnblock1,208,img/planet9_right.png,9,Community 2,NA,TRUE,j,j,NA,NA,NA,1,6,"13,2,3,12,8,1,15,14,4,9,10,6,5,11,7"
14620,commdev-image-keyboard-response,273,608286,learnblock1,137,img/planet15_right.png,15,Community 2,NA,FALSE,f,j,NA,NA,NA,1,6,"13,2,3,12,8,1,15,14,4,9,10,6,5,11,7"
14620,commdev-image-keyboard-response,274,609539,learnblock1,194,img/planet4_left.png,4,Community 2,NA,TRUE,f,f,NA,NA,NA,1,6,"13,2,3,12,8,1,15,14,4,9,10,6,5,11,7"
14620,commdev-image-keyboard-response,275,610793,learnblock1,174,img/planet1_right.png,1,Community 2,NA,FALSE,f,j,NA,NA,NA,1,6,"13,2,3,12,8,1,15,14,4,9,10,6,5,11,7"
14620,commdev-image-keyboard-response,276,612064,learnblock1,198,img/planet9_left.png,9,Community 2,NA,TRUE,f,f,NA,NA,NA,1,6,"13,2,3,12,8,1,15,14,4,9,10,6,5,11,7"
14620,commdev-image-keyboard-response,277,613320,learnblock1,89,img/planet14_left.png,14,Community 2,NA,TRUE,f,f,NA,NA,NA,1,6,"13,2,3,12,8,1,15,14,4,9,10,6,5,11,7"
14620,commdev-image-keyboard-response,278,614573,learnblock1,31,img/planet6_left.png,6,Community 3,NA,TRUE,f,f,NA,NA,NA,1,6,"13,2,3,12,8,1,15,14,4,9,10,6,5,11,7"
14620,commdev-image-keyboard-response,279,615826,learnblock1,130,img/planet7_left.png,7,Community 3,NA,FALSE,j,f,NA,NA,NA,1,6,"13,2,3,12,8,1,15,14,4,9,10,6,5,11,7"
14620,commdev-image-keyboard-response,280,617082,learnblock1,7,img/planet5_left.png,5,Community 3,NA,FALSE,j,f,NA,NA,NA,1,6,"13,2,3,12,8,1,15,14,4,9,10,6,5,11,7"
14620,commdev-image-keyboard-response,281,618336,learnblock1,63,img/planet11_left.png,11,Community 3,NA,TRUE,f,f,NA,NA,NA,1,6,"13,2,3,12,8,1,15,14,4,9,10,6,5,11,7"
14620,commdev-image-keyboard-response,282,619587,learnblock1,10,img/planet10_right.png,10,Community 3,NA,FALSE,f,j,NA,NA,NA,1,6,"13,2,3,12,8,1,15,14,4,9,10,6,5,11,7"
14620,commdev-image-keyboard-response,283,620843,learnblock1,43,img/planet8_right.png,8,Community 1,NA,TRUE,j,j,NA,NA,NA,1,6,"13,2,3,12,8,1,15,14,4,9,10,6,5,11,7"
14620,commdev-image-keyboard-response,284,622097,learnblock1,12,img/planet10_right.png,10,Community 3,NA,FALSE,f,j,NA,NA,NA,1,6,"13,2,3,12,8,1,15,14,4,9,10,6,5,11,7"
14620,commdev-image-keyboard-response,285,623354,learnblock1,46,img/planet7_right.png,7,Community 3,NA,FALSE,f,j,NA,NA,NA,1,6,"13,2,3,12,8,1,15,14,4,9,10,6,5,11,7"
14620,commdev-image-keyboard-response,286,624610,learnblock1,198,img/planet11_right.png,11,Community 3,NA,FALSE,f,j,NA,NA,NA,1,6,"13,2,3,12,8,1,15,14,4,9,10,6,5,11,7"
14620,commdev-image-keyboard-response,287,625864,learnblock1,126,img/planet5_left.png,5,Community 3,NA,TRUE,f,f,NA,NA,NA,1,6,"13,2,3,12,8,1,15,14,4,9,10,6,5,11,7"
14620,commdev-image-keyboard-response,288,627117,learnblock1,47,img/planet6_left.png,6,Community 3,NA,FALSE,j,f,NA,NA,NA,1,6,"13,2,3,12,8,1,15,14,4,9,10,6,5,11,7"
14620,commdev-image-keyboard-response,289,628523,learnblock1,307,img/planet5_left.png,5,Community 3,NA,FALSE,j,f,NA,NA,NA,1,6,"13,2,3,12,8,1,15,14,4,9,10,6,5,11,7"
14620,commdev-image-keyboard-response,290,629777,learnblock1,150,img/planet10_right.png,10,Community 3,NA,TRUE,j,j,NA,NA,NA,1,6,"13,2,3,12,8,1,15,14,4,9,10,6,5,11,7"
14620,commdev-image-keyboard-response,291,631030,learnblock1,120,img/planet5_left.png,5,Community 3,NA,FALSE,j,f,NA,NA,NA,1,6,"13,2,3,12,8,1,15,14,4,9,10,6,5,11,7"
14620,commdev-image-keyboard-response,292,632284,learnblock1,30,img/planet10_left.png,10,Community 3,NA,TRUE,f,f,NA,NA,NA,1,6,"13,2,3,12,8,1,15,14,4,9,10,6,5,11,7"
14620,commdev-image-keyboard-response,293,633537,learnblock1,27,img/planet8_right.png,8,Community 1,NA,TRUE,j,j,NA,NA,NA,1,6,"13,2,3,12,8,1,15,14,4,9,10,6,5,11,7"
14620,commdev-image-keyboard-response,294,634787,learnblock1,287,img/planet10_right.png,10,Community 3,NA,TRUE,j,j,NA,NA,NA,1,6,"13,2,3,12,8,1,15,14,4,9,10,6,5,11,7"
14620,commdev-image-keyboard-response,295,636039,learnblock1,172,img/planet5_right.png,5,Community 3,NA,TRUE,j,j,NA,NA,NA,1,6,"13,2,3,12,8,1,15,14,4,9,10,6,5,11,7"
14620,commdev-image-keyboard-response,296,637294,learnblock1,82,img/planet11_left.png,11,Community 3,NA,FALSE,j,f,NA,NA,NA,1,6,"13,2,3,12,8,1,15,14,4,9,10,6,5,11,7"
14620,commdev-image-keyboard-response,297,638698,learnblock1,163,img/planet5_left.png,5,Community 3,NA,FALSE,j,f,NA,NA,NA,1,6,"13,2,3,12,8,1,15,14,4,9,10,6,5,11,7"
14620,commdev-image-keyboard-response,298,639951,learnblock1,128,img/planet7_right.png,7,Community 3,NA,FALSE,f,j,NA,NA,NA,1,6,"13,2,3,12,8,1,15,14,4,9,10,6,5,11,7"
14620,commdev-image-keyboard-response,299,641206,learnblock1,97,img/planet5_right.png,5,Community 3,NA,FALSE,f,j,NA,NA,NA,1,6,"13,2,3,12,8,1,15,14,4,9,10,6,5,11,7"
14620,commdev-image-keyboard-response,300,642462,learnblock1,115,img/planet10_right.png,10,Community 3,NA,TRUE,j,j,NA,NA,NA,1,6,"13,2,3,12,8,1,15,14,4,9,10,6,5,11,7"
14620,commdev-image-keyboard-response,301,643715,learnblock1,131,img/planet11_left.png,11,Community 3,NA,TRUE,f,f,NA,NA,NA,1,6,"13,2,3,12,8,1,15,14,4,9,10,6,5,11,7"
14620,commdev-image-keyboard-response,302,644970,learnblock1,173,img/planet7_right.png,7,Community 3,NA,TRUE,j,j,NA,NA,NA,1,6,"13,2,3,12,8,1,15,14,4,9,10,6,5,11,7"
14620,commdev-image-keyboard-response,303,646222,learnblock1,46,img/planet5_left.png,5,Community 3,NA,FALSE,j,f,NA,NA,NA,1,6,"13,2,3,12,8,1,15,14,4,9,10,6,5,11,7"
14620,commdev-image-keyboard-response,304,647473,learnblock1,170,img/planet10_right.png,10,Community 3,NA,FALSE,f,j,NA,NA,NA,1,6,"13,2,3,12,8,1,15,14,4,9,10,6,5,11,7"
14620,commdev-image-keyboard-response,305,648725,learnblock1,223,img/planet5_left.png,5,Community 3,NA,TRUE,f,f,NA,NA,NA,1,6,"13,2,3,12,8,1,15,14,4,9,10,6,5,11,7"
14620,commdev-image-keyboard-response,306,649981,learnblock1,null,img/planet11_right.png,11,Community 3,NA,FALSE,null,j,NA,NA,NA,1,6,"13,2,3,12,8,1,15,14,4,9,10,6,5,11,7"
14620,commdev-image-keyboard-response,307,651233,learnblock1,null,img/planet5_right.png,5,Community 3,NA,FALSE,null,j,NA,NA,NA,1,6,"13,2,3,12,8,1,15,14,4,9,10,6,5,11,7"
14620,commdev-image-keyboard-response,308,652486,learnblock1,null,img/planet6_right.png,6,Community 3,NA,FALSE,null,j,NA,NA,NA,1,6,"13,2,3,12,8,1,15,14,4,9,10,6,5,11,7"
14620,commdev-image-keyboard-response,309,653743,learnblock1,418,img/planet5_left.png,5,Community 3,NA,TRUE,f,f,NA,NA,NA,1,6,"13,2,3,12,8,1,15,14,4,9,10,6,5,11,7"
14620,commdev-image-keyboard-response,310,654994,learnblock1,76,img/planet10_left.png,10,Community 3,NA,FALSE,j,f,NA,NA,NA,1,6,"13,2,3,12,8,1,15,14,4,9,10,6,5,11,7"
14620,commdev-image-keyboard-response,311,656248,learnblock1,94,img/planet5_left.png,5,Community 3,NA,TRUE,f,f,NA,NA,NA,1,6,"13,2,3,12,8,1,15,14,4,9,10,6,5,11,7"
14620,commdev-image-keyboard-response,312,657505,learnblock1,184,img/planet7_left.png,7,Community 3,NA,TRUE,f,f,NA,NA,NA,1,6,"13,2,3,12,8,1,15,14,4,9,10,6,5,11,7"
14620,commdev-image-keyboard-response,313,658757,learnblock1,75,img/planet10_left.png,10,Community 3,NA,TRUE,f,f,NA,NA,NA,1,6,"13,2,3,12,8,1,15,14,4,9,10,6,5,11,7"
14620,commdev-image-keyboard-response,314,660010,learnblock1,75,img/planet5_left.png,5,Community 3,NA,TRUE,f,f,NA,NA,NA,1,6,"13,2,3,12,8,1,15,14,4,9,10,6,5,11,7"
14620,commdev-image-keyboard-response,315,661264,learnblock1,168,img/planet11_right.png,11,Community 3,NA,FALSE,f,j,NA,NA,NA,1,6,"13,2,3,12,8,1,15,14,4,9,10,6,5,11,7"
14620,commdev-image-keyboard-response,316,662517,learnblock1,65,img/planet7_left.png,7,Community 3,NA,TRUE,f,f,NA,NA,NA,1,6,"13,2,3,12,8,1,15,14,4,9,10,6,5,11,7"
14620,commdev-image-keyboard-response,317,663771,learnblock1,132,img/planet10_right.png,10,Community 3,NA,FALSE,f,j,NA,NA,NA,1,6,"13,2,3,12,8,1,15,14,4,9,10,6,5,11,7"
14620,commdev-image-keyboard-response,318,665026,learnblock1,39,img/planet5_left.png,5,Community 3,NA,TRUE,f,f,NA,NA,NA,1,6,"13,2,3,12,8,1,15,14,4,9,10,6,5,11,7"
14620,commdev-image-keyboard-response,319,666279,learnblock1,168,img/planet10_left.png,10,Community 3,NA,TRUE,f,f,NA,NA,NA,1,6,"13,2,3,12,8,1,15,14,4,9,10,6,5,11,7"
14620,commdev-image-keyboard-response,320,667533,learnblock1,17,img/planet5_right.png,5,Community 3,NA,TRUE,j,j,NA,NA,NA,1,6,"13,2,3,12,8,1,15,14,4,9,10,6,5,11,7"
14620,commdev-image-keyboard-response,321,668787,learnblock1,145,img/planet7_right.png,7,Community 3,NA,FALSE,f,j,NA,NA,NA,1,6,"13,2,3,12,8,1,15,14,4,9,10,6,5,11,7"
14620,commdev-image-keyboard-response,322,670042,learnblock1,22,img/planet5_left.png,5,Community 3,NA,FALSE,j,f,NA,NA,NA,1,6,"13,2,3,12,8,1,15,14,4,9,10,6,5,11,7"
14620,commdev-image-keyboard-response,323,671295,learnblock1,17,img/planet10_right.png,10,Community 3,NA,FALSE,f,j,NA,NA,NA,1,6,"13,2,3,12,8,1,15,14,4,9,10,6,5,11,7"
14620,commdev-image-keyboard-response,324,672549,learnblock1,35,img/planet11_left.png,11,Community 3,NA,FALSE,j,f,NA,NA,NA,1,6,"13,2,3,12,8,1,15,14,4,9,10,6,5,11,7"
14620,commdev-image-keyboard-response,325,673803,learnblock1,51,img/planet5_right.png,5,Community 3,NA,FALSE,f,j,NA,NA,NA,1,6,"13,2,3,12,8,1,15,14,4,9,10,6,5,11,7"
14620,commdev-image-keyboard-response,326,675059,learnblock1,7,img/planet10_right.png,10,Community 3,NA,TRUE,j,j,NA,NA,NA,1,6,"13,2,3,12,8,1,15,14,4,9,10,6,5,11,7"
14620,commdev-image-keyboard-response,327,676314,learnblock1,95,img/planet7_left.png,7,Community 3,NA,FALSE,j,f,NA,NA,NA,1,6,"13,2,3,12,8,1,15,14,4,9,10,6,5,11,7"
14620,commdev-image-keyboard-response,328,677565,learnblock1,128,img/planet11_right.png,11,Community 3,NA,TRUE,j,j,NA,NA,NA,1,6,"13,2,3,12,8,1,15,14,4,9,10,6,5,11,7"
14620,commdev-image-keyboard-response,329,678819,learnblock1,77,img/planet5_right.png,5,Community 3,NA,TRUE,j,j,NA,NA,NA,1,6,"13,2,3,12,8,1,15,14,4,9,10,6,5,11,7"
14620,commdev-image-keyboard-response,330,680073,learnblock1,47,img/planet10_left.png,10,Community 3,NA,FALSE,j,f,NA,NA,NA,1,6,"13,2,3,12,8,1,15,14,4,9,10,6,5,11,7"
14620,commdev-image-keyboard-response,331,681326,learnblock1,73,img/planet7_right.png,7,Community 3,NA,TRUE,j,j,NA,NA,NA,1,6,"13,2,3,12,8,1,15,14,4,9,10,6,5,11,7"
14620,commdev-image-keyboard-response,332,682581,learnblock1,75,img/planet11_right.png,11,Community 3,NA,TRUE,j,j,NA,NA,NA,1,6,"13,2,3,12,8,1,15,14,4,9,10,6,5,11,7"
14620,commdev-image-keyboard-response,333,683836,learnblock1,7,img/planet6_right.png,6,Community 3,NA,TRUE,j,j,NA,NA,NA,1,6,"13,2,3,12,8,1,15,14,4,9,10,6,5,11,7"
14620,commdev-image-keyboard-response,334,685091,learnblock1,93,img/planet11_left.png,11,Community 3,NA,TRUE,f,f,NA,NA,NA,1,6,"13,2,3,12,8,1,15,14,4,9,10,6,5,11,7"
14620,commdev-image-keyboard-response,335,686343,learnblock1,143,img/planet7_right.png,7,Community 3,NA,FALSE,f,j,NA,NA,NA,1,6,"13,2,3,12,8,1,15,14,4,9,10,6,5,11,7"
14620,commdev-image-keyboard-response,336,687593,learnblock1,44,img/planet6_right.png,6,Community 3,NA,FALSE,f,j,NA,NA,NA,1,6,"13,2,3,12,8,1,15,14,4,9,10,6,5,11,7"
14620,commdev-image-keyboard-response,337,688850,learnblock1,56,img/planet5_left.png,5,Community 3,NA,TRUE,f,f,NA,NA,NA,1,6,"13,2,3,12,8,1,15,14,4,9,10,6,5,11,7"
14620,commdev-image-keyboard-response,338,690104,learnblock1,17,img/planet6_left.png,6,Community 3,NA,TRUE,f,f,NA,NA,NA,1,6,"13,2,3,12,8,1,15,14,4,9,10,6,5,11,7"
14620,commdev-image-keyboard-response,339,691358,learnblock1,187,img/planet7_left.png,7,Community 3,NA,FALSE,j,f,NA,NA,NA,1,6,"13,2,3,12,8,1,15,14,4,9,10,6,5,11,7"
14620,commdev-image-keyboard-response,340,692610,learnblock1,124,img/planet10_right.png,10,Community 3,NA,TRUE,j,j,NA,NA,NA,1,6,"13,2,3,12,8,1,15,14,4,9,10,6,5,11,7"
14620,commdev-image-keyboard-response,341,693866,learnblock1,158,img/planet5_right.png,5,Community 3,NA,TRUE,j,j,NA,NA,NA,1,6,"13,2,3,12,8,1,15,14,4,9,10,6,5,11,7"
14620,commdev-image-keyboard-response,342,695119,learnblock1,441,img/planet6_right.png,6,Community 3,NA,FALSE,f,j,NA,NA,NA,1,6,"13,2,3,12,8,1,15,14,4,9,10,6,5,11,7"
14620,commdev-image-keyboard-response,343,696370,learnblock1,66,img/planet11_right.png,11,Community 3,NA,TRUE,j,j,NA,NA,NA,1,6,"13,2,3,12,8,1,15,14,4,9,10,6,5,11,7"
14620,commdev-image-keyboard-response,344,697628,learnblock1,327,img/planet5_left.png,5,Community 3,NA,TRUE,f,f,NA,NA,NA,1,6,"13,2,3,12,8,1,15,14,4,9,10,6,5,11,7"
14620,commdev-image-keyboard-response,345,698980,learnblock1,215,img/planet6_right.png,6,Community 3,NA,FALSE,f,j,NA,NA,NA,1,6,"13,2,3,12,8,1,15,14,4,9,10,6,5,11,7"
14620,commdev-image-keyboard-response,346,700235,learnblock1,38,img/planet11_right.png,11,Community 3,NA,TRUE,j,j,NA,NA,NA,1,6,"13,2,3,12,8,1,15,14,4,9,10,6,5,11,7"
14620,commdev-image-keyboard-response,347,701490,learnblock1,120,img/planet10_left.png,10,Community 3,NA,FALSE,j,f,NA,NA,NA,1,6,"13,2,3,12,8,1,15,14,4,9,10,6,5,11,7"
14620,commdev-image-keyboard-response,351,757273,learnblock2,215,img/planet9_right.png,9,Community 2,NA,FALSE,f,j,NA,NA,NA,1,6,"13,2,3,12,8,1,15,14,4,9,10,6,5,11,7"
14620,commdev-image-keyboard-response,352,758526,learnblock2,51,img/planet4_right.png,4,Community 2,NA,FALSE,f,j,NA,NA,NA,1,6,"13,2,3,12,8,1,15,14,4,9,10,6,5,11,7"
14620,commdev-image-keyboard-response,353,759872,learnblock2,158,img/planet9_right.png,9,Community 2,NA,FALSE,f,j,NA,NA,NA,1,6,"13,2,3,12,8,1,15,14,4,9,10,6,5,11,7"
14620,commdev-image-keyboard-response,354,761220,learnblock2,283,img/planet1_left.png,1,Community 2,NA,TRUE,f,f,NA,NA,NA,1,6,"13,2,3,12,8,1,15,14,4,9,10,6,5,11,7"
14620,commdev-image-keyboard-response,355,762471,learnblock2,345,img/planet9_right.png,9,Community 2,NA,FALSE,f,j,NA,NA,NA,1,6,"13,2,3,12,8,1,15,14,4,9,10,6,5,11,7"
14620,commdev-image-keyboard-response,356,763725,learnblock2,228,img/planet4_left.png,4,Community 2,NA,TRUE,f,f,NA,NA,NA,1,6,"13,2,3,12,8,1,15,14,4,9,10,6,5,11,7"
14620,commdev-image-keyboard-response,357,764979,learnblock2,null,img/planet1_left.png,1,Community 2,NA,FALSE,null,f,NA,NA,NA,1,6,"13,2,3,12,8,1,15,14,4,9,10,6,5,11,7"
14620,commdev-image-keyboard-response,358,766232,learnblock2,1217,img/planet9_right.png,9,Community 2,NA,FALSE,f,j,NA,NA,NA,1,6,"13,2,3,12,8,1,15,14,4,9,10,6,5,11,7"
14620,commdev-image-keyboard-response,359,767510,learnblock2,165,img/planet1_left.png,1,Community 2,NA,TRUE,f,f,NA,NA,NA,1,6,"13,2,3,12,8,1,15,14,4,9,10,6,5,11,7"
14620,commdev-image-keyboard-response,360,768764,learnblock2,96,img/planet4_right.png,4,Community 2,NA,FALSE,f,j,NA,NA,NA,1,6,"13,2,3,12,8,1,15,14,4,9,10,6,5,11,7"
14620,commdev-image-keyboard-response,361,770018,learnblock2,168,img/planet15_right.png,15,Community 2,NA,FALSE,f,j,NA,NA,NA,1,6,"13,2,3,12,8,1,15,14,4,9,10,6,5,11,7"
14620,commdev-image-keyboard-response,362,771272,learnblock2,155,img/planet1_left.png,1,Community 2,NA,TRUE,f,f,NA,NA,NA,1,6,"13,2,3,12,8,1,15,14,4,9,10,6,5,11,7"
14620,commdev-image-keyboard-response,363,772526,learnblock2,203,img/planet9_left.png,9,Community 2,NA,TRUE,f,f,NA,NA,NA,1,6,"13,2,3,12,8,1,15,14,4,9,10,6,5,11,7"
14620,commdev-image-keyboard-response,364,773780,learnblock2,328,img/planet4_left.png,4,Community 2,NA,TRUE,f,f,NA,NA,NA,1,6,"13,2,3,12,8,1,15,14,4,9,10,6,5,11,7"
14620,commdev-image-keyboard-response,365,775033,learnblock2,24,img/planet15_left.png,15,Community 2,NA,TRUE,f,f,NA,NA,NA,1,6,"13,2,3,12,8,1,15,14,4,9,10,6,5,11,7"
14620,commdev-image-keyboard-response,366,776287,learnblock2,155,img/planet4_right.png,4,Community 2,NA,FALSE,f,j,NA,NA,NA,1,6,"13,2,3,12,8,1,15,14,4,9,10,6,5,11,7"
14620,commdev-image-keyboard-response,367,777541,learnblock2,28,img/planet14_left.png,14,Community 2,NA,TRUE,f,f,NA,NA,NA,1,6,"13,2,3,12,8,1,15,14,4,9,10,6,5,11,7"
14620,commdev-image-keyboard-response,368,778795,learnblock2,192,img/planet6_right.png,6,Community 3,NA,FALSE,f,j,NA,NA,NA,1,6,"13,2,3,12,8,1,15,14,4,9,10,6,5,11,7"
14620,commdev-image-keyboard-response,369,780049,learnblock2,145,img/planet5_right.png,5,Community 3,NA,FALSE,f,j,NA,NA,NA,1,6,"13,2,3,12,8,1,15,14,4,9,10,6,5,11,7"
14620,commdev-image-keyboard-response,370,781302,learnblock2,259,img/planet10_right.png,10,Community 3,NA,FALSE,f,j,NA,NA,NA,1,6,"13,2,3,12,8,1,15,14,4,9,10,6,5,11,7"
14620,commdev-image-keyboard-response,371,782557,learnblock2,269,img/planet11_right.png,11,Community 3,NA,FALSE,f,j,NA,NA,NA,1,6,"13,2,3,12,8,1,15,14,4,9,10,6,5,11,7"
14620,commdev-image-keyboard-response,372,783813,learnblock2,145,img/planet7_left.png,7,Community 3,NA,TRUE,f,f,NA,NA,NA,1,6,"13,2,3,12,8,1,15,14,4,9,10,6,5,11,7"
14620,commdev-image-keyboard-response,373,785064,learnblock2,153,img/planet5_left.png,5,Community 3,NA,TRUE,f,f,NA,NA,NA,1,6,"13,2,3,12,8,1,15,14,4,9,10,6,5,11,7"
14620,commdev-image-keyboard-response,374,786319,learnblock2,165,img/planet10_right.png,10,Community 3,NA,FALSE,f,j,NA,NA,NA,1,6,"13,2,3,12,8,1,15,14,4,9,10,6,5,11,7"
14620,commdev-image-keyboard-response,375,787573,learnblock2,null,img/planet7_left.png,7,Community 3,NA,FALSE,null,f,NA,NA,NA,1,6,"13,2,3,12,8,1,15,14,4,9,10,6,5,11,7"
14620,commdev-image-keyboard-response,376,788827,learnblock2,24,img/planet5_right.png,5,Community 3,NA,FALSE,f,j,NA,NA,NA,1,6,"13,2,3,12,8,1,15,14,4,9,10,6,5,11,7"
14620,commdev-image-keyboard-response,377,790080,learnblock2,283,img/planet10_left.png,10,Community 3,NA,TRUE,f,f,NA,NA,NA,1,6,"13,2,3,12,8,1,15,14,4,9,10,6,5,11,7"
14620,commdev-image-keyboard-response,378,791334,learnblock2,95,img/planet7_left.png,7,Community 3,NA,TRUE,f,f,NA,NA,NA,1,6,"13,2,3,12,8,1,15,14,4,9,10,6,5,11,7"
14620,commdev-image-keyboard-response,379,792588,learnblock2,400,img/planet10_right.png,10,Community 3,NA,FALSE,f,j,NA,NA,NA,1,6,"13,2,3,12,8,1,15,14,4,9,10,6,5,11,7"
14620,commdev-image-keyboard-response,380,793842,learnblock2,187,img/planet8_right.png,8,Community 1,NA,FALSE,f,j,NA,NA,NA,1,6,"13,2,3,12,8,1,15,14,4,9,10,6,5,11,7"
14620,commdev-image-keyboard-response,381,795096,learnblock2,18,img/planet10_left.png,10,Community 3,NA,TRUE,f,f,NA,NA,NA,1,6,"13,2,3,12,8,1,15,14,4,9,10,6,5,11,7"
14620,commdev-image-keyboard-response,382,796350,learnblock2,315,img/planet11_right.png,11,Community 3,NA,FALSE,f,j,NA,NA,NA,1,6,"13,2,3,12,8,1,15,14,4,9,10,6,5,11,7"
14620,commdev-image-keyboard-response,383,797604,learnblock2,200,img/planet7_right.png,7,Community 3,NA,FALSE,f,j,NA,NA,NA,1,6,"13,2,3,12,8,1,15,14,4,9,10,6,5,11,7"
14620,commdev-image-keyboard-response,384,798857,learnblock2,440,img/planet10_left.png,10,Community 3,NA,TRUE,f,f,NA,NA,NA,1,6,"13,2,3,12,8,1,15,14,4,9,10,6,5,11,7"
14620,commdev-image-keyboard-response,385,800112,learnblock2,836,img/planet11_left.png,11,Community 3,NA,TRUE,f,f,NA,NA,NA,1,6,"13,2,3,12,8,1,15,14,4,9,10,6,5,11,7"
14620,commdev-image-keyboard-response,386,801365,learnblock2,157,img/planet7_right.png,7,Community 3,NA,FALSE,f,j,NA,NA,NA,1,6,"13,2,3,12,8,1,15,14,4,9,10,6,5,11,7"
14620,commdev-image-keyboard-response,387,802736,learnblock2,978,img/planet10_left.png,10,Community 3,NA,TRUE,f,f,NA,NA,NA,1,6,"13,2,3,12,8,1,15,14,4,9,10,6,5,11,7"
14620,commdev-image-keyboard-response,388,803990,learnblock2,430,img/planet5_left.png,5,Community 3,NA,TRUE,f,f,NA,NA,NA,1,6,"13,2,3,12,8,1,15,14,4,9,10,6,5,11,7"
14620,commdev-image-keyboard-response,389,805243,learnblock2,239,img/planet10_right.png,10,Community 3,NA,FALSE,f,j,NA,NA,NA,1,6,"13,2,3,12,8,1,15,14,4,9,10,6,5,11,7"
14620,commdev-image-keyboard-response,390,806497,learnblock2,691,img/planet8_right.png,8,Community 1,NA,FALSE,f,j,NA,NA,NA,1,6,"13,2,3,12,8,1,15,14,4,9,10,6,5,11,7"
14620,commdev-image-keyboard-response,391,807751,learnblock2,null,img/planet10_right.png,10,Community 3,NA,FALSE,null,j,NA,NA,NA,1,6,"13,2,3,12,8,1,15,14,4,9,10,6,5,11,7"
14620,commdev-image-keyboard-response,392,809005,learnblock2,null,img/planet8_left.png,8,Community 1,NA,FALSE,null,f,NA,NA,NA,1,6,"13,2,3,12,8,1,15,14,4,9,10,6,5,11,7"
14620,commdev-image-keyboard-response,393,810259,learnblock2,null,img/planet10_left.png,10,Community 3,NA,FALSE,null,f,NA,NA,NA,1,6,"13,2,3,12,8,1,15,14,4,9,10,6,5,11,7"
14620,commdev-image-keyboard-response,394,811513,learnblock2,null,img/planet5_right.png,5,Community 3,NA,FALSE,null,j,NA,NA,NA,1,6,"13,2,3,12,8,1,15,14,4,9,10,6,5,11,7"
14620,commdev-image-keyboard-response,395,812766,learnblock2,null,img/planet7_right.png,7,Community 3,NA,FALSE,null,j,NA,NA,NA,1,6,"13,2,3,12,8,1,15,14,4,9,10,6,5,11,7"
14620,commdev-image-keyboard-response,396,814021,learnblock2,null,img/planet6_right.png,6,Community 3,NA,FALSE,null,j,NA,NA,NA,1,6,"13,2,3,12,8,1,15,14,4,9,10,6,5,11,7"
14620,commdev-image-keyboard-response,397,815274,learnblock2,null,img/planet5_left.png,5,Community 3,NA,FALSE,null,f,NA,NA,NA,1,6,"13,2,3,12,8,1,15,14,4,9,10,6,5,11,7"
14620,commdev-image-keyboard-response,398,816529,learnblock2,null,img/planet11_right.png,11,Community 3,NA,FALSE,null,j,NA,NA,NA,1,6,"13,2,3,12,8,1,15,14,4,9,10,6,5,11,7"
14620,commdev-image-keyboard-response,399,817782,learnblock2,null,img/planet6_right.png,6,Community 3,NA,FALSE,null,j,NA,NA,NA,1,6,"13,2,3,12,8,1,15,14,4,9,10,6,5,11,7"
14620,commdev-image-keyboard-response,400,819036,learnblock2,null,img/planet5_left.png,5,Community 3,NA,FALSE,null,f,NA,NA,NA,1,6,"13,2,3,12,8,1,15,14,4,9,10,6,5,11,7"
14620,commdev-image-keyboard-response,401,820290,learnblock2,null,img/planet6_right.png,6,Community 3,NA,FALSE,null,j,NA,NA,NA,1,6,"13,2,3,12,8,1,15,14,4,9,10,6,5,11,7"
14620,commdev-image-keyboard-response,402,821632,learnblock2,null,img/planet5_right.png,5,Community 3,NA,FALSE,null,j,NA,NA,NA,1,6,"13,2,3,12,8,1,15,14,4,9,10,6,5,11,7"
14620,commdev-image-keyboard-response,403,822886,learnblock2,null,img/planet7_right.png,7,Community 3,NA,FALSE,null,j,NA,NA,NA,1,6,"13,2,3,12,8,1,15,14,4,9,10,6,5,11,7"
14620,commdev-image-keyboard-response,404,824141,learnblock2,96,img/planet11_left.png,11,Community 3,NA,TRUE,f,f,NA,NA,NA,1,6,"13,2,3,12,8,1,15,14,4,9,10,6,5,11,7"
14620,commdev-image-keyboard-response,405,825396,learnblock2,105,img/planet10_right.png,10,Community 3,NA,FALSE,f,j,NA,NA,NA,1,6,"13,2,3,12,8,1,15,14,4,9,10,6,5,11,7"
14620,commdev-image-keyboard-response,406,826653,learnblock2,145,img/planet8_right.png,8,Community 1,NA,FALSE,f,j,NA,NA,NA,1,6,"13,2,3,12,8,1,15,14,4,9,10,6,5,11,7"
14620,commdev-image-keyboard-response,407,827907,learnblock2,186,img/planet3_right.png,3,Community 1,NA,FALSE,f,j,NA,NA,NA,1,6,"13,2,3,12,8,1,15,14,4,9,10,6,5,11,7"
14620,commdev-image-keyboard-response,408,829161,learnblock2,276,img/planet12_left.png,12,Community 1,NA,TRUE,f,f,NA,NA,NA,1,6,"13,2,3,12,8,1,15,14,4,9,10,6,5,11,7"
14620,commdev-image-keyboard-response,409,830415,learnblock2,45,img/planet2_right.png,2,Community 1,NA,FALSE,f,j,NA,NA,NA,1,6,"13,2,3,12,8,1,15,14,4,9,10,6,5,11,7"
14620,commdev-image-keyboard-response,410,831667,learnblock2,241,img/planet3_right.png,3,Community 1,NA,FALSE,f,j,NA,NA,NA,1,6,"13,2,3,12,8,1,15,14,4,9,10,6,5,11,7"
14620,commdev-image-keyboard-response,411,832922,learnblock2,106,img/planet13_left.png,13,Community 1,NA,TRUE,f,f,NA,NA,NA,1,6,"13,2,3,12,8,1,15,14,4,9,10,6,5,11,7"
14620,commdev-image-keyboard-response,412,834177,learnblock2,70,img/planet3_right.png,3,Community 1,NA,FALSE,f,j,NA,NA,NA,1,6,"13,2,3,12,8,1,15,14,4,9,10,6,5,11,7"
14620,commdev-image-keyboard-response,413,835427,learnblock2,70,img/planet8_left.png,8,Community 1,NA,TRUE,f,f,NA,NA,NA,1,6,"13,2,3,12,8,1,15,14,4,9,10,6,5,11,7"
14620,commdev-image-keyboard-response,414,836683,learnblock2,27,img/planet10_left.png,10,Community 3,NA,TRUE,f,f,NA,NA,NA,1,6,"13,2,3,12,8,1,15,14,4,9,10,6,5,11,7"
14620,commdev-image-keyboard-response,415,837937,learnblock2,43,img/planet11_left.png,11,Community 3,NA,TRUE,f,f,NA,NA,NA,1,6,"13,2,3,12,8,1,15,14,4,9,10,6,5,11,7"
14620,commdev-image-keyboard-response,416,839189,learnblock2,30,img/planet6_right.png,6,Community 3,NA,FALSE,f,j,NA,NA,NA,1,6,"13,2,3,12,8,1,15,14,4,9,10,6,5,11,7"
14620,commdev-image-keyboard-response,417,840442,learnblock2,25,img/planet7_right.png,7,Community 3,NA,FALSE,f,j,NA,NA,NA,1,6,"13,2,3,12,8,1,15,14,4,9,10,6,5,11,7"
14620,commdev-image-keyboard-response,418,841696,learnblock2,9,img/planet11_right.png,11,Community 3,NA,FALSE,f,j,NA,NA,NA,1,6,"13,2,3,12,8,1,15,14,4,9,10,6,5,11,7"
14620,commdev-image-keyboard-response,419,842952,learnblock2,239,img/planet5_right.png,5,Community 3,NA,TRUE,j,j,NA,NA,NA,1,6,"13,2,3,12,8,1,15,14,4,9,10,6,5,11,7"
14620,commdev-image-keyboard-response,420,844208,learnblock2,277,img/planet6_left.png,6,Community 3,NA,TRUE,f,f,NA,NA,NA,1,6,"13,2,3,12,8,1,15,14,4,9,10,6,5,11,7"
14620,commdev-image-keyboard-response,421,845461,learnblock2,207,img/planet14_right.png,14,Community 2,NA,FALSE,f,j,NA,NA,NA,1,6,"13,2,3,12,8,1,15,14,4,9,10,6,5,11,7"
14620,commdev-image-keyboard-response,422,846716,learnblock2,145,img/planet9_left.png,9,Community 2,NA,FALSE,j,f,NA,NA,NA,1,6,"13,2,3,12,8,1,15,14,4,9,10,6,5,11,7"
14620,commdev-image-keyboard-response,423,847969,learnblock2,186,img/planet15_left.png,15,Community 2,NA,TRUE,f,f,NA,NA,NA,1,6,"13,2,3,12,8,1,15,14,4,9,10,6,5,11,7"
14620,commdev-image-keyboard-response,424,849225,learnblock2,157,img/planet14_right.png,14,Community 2,NA,TRUE,j,j,NA,NA,NA,1,6,"13,2,3,12,8,1,15,14,4,9,10,6,5,11,7"
14620,commdev-image-keyboard-response,425,850476,learnblock2,12,img/planet9_left.png,9,Community 2,NA,FALSE,j,f,NA,NA,NA,1,6,"13,2,3,12,8,1,15,14,4,9,10,6,5,11,7"
14620,commdev-image-keyboard-response,426,851731,learnblock2,137,img/planet14_left.png,14,Community 2,NA,TRUE,f,f,NA,NA,NA,1,6,"13,2,3,12,8,1,15,14,4,9,10,6,5,11,7"
14620,commdev-image-keyboard-response,427,852985,learnblock2,44,img/planet6_right.png,6,Community 3,NA,TRUE,j,j,NA,NA,NA,1,6,"13,2,3,12,8,1,15,14,4,9,10,6,5,11,7"
14620,commdev-image-keyboard-response,428,854239,learnblock2,110,img/planet11_left.png,11,Community 3,NA,TRUE,f,f,NA,NA,NA,1,6,"13,2,3,12,8,1,15,14,4,9,10,6,5,11,7"
14620,commdev-image-keyboard-response,429,855493,learnblock2,64,img/planet5_left.png,5,Community 3,NA,TRUE,f,f,NA,NA,NA,1,6,"13,2,3,12,8,1,15,14,4,9,10,6,5,11,7"
14620,commdev-image-keyboard-response,430,856747,learnblock2,210,img/planet6_left.png,6,Community 3,NA,FALSE,j,f,NA,NA,NA,1,6,"13,2,3,12,8,1,15,14,4,9,10,6,5,11,7"
14620,commdev-image-keyboard-response,431,858002,learnblock2,16,img/planet7_left.png,7,Community 3,NA,FALSE,j,f,NA,NA,NA,1,6,"13,2,3,12,8,1,15,14,4,9,10,6,5,11,7"
14620,commdev-image-keyboard-response,432,859255,learnblock2,8,img/planet10_left.png,10,Community 3,NA,TRUE,f,f,NA,NA,NA,1,6,"13,2,3,12,8,1,15,14,4,9,10,6,5,11,7"
14620,commdev-image-keyboard-response,433,860510,learnblock2,201,img/planet8_right.png,8,Community 1,NA,TRUE,j,j,NA,NA,NA,1,6,"13,2,3,12,8,1,15,14,4,9,10,6,5,11,7"
14620,commdev-image-keyboard-response,434,861762,learnblock2,280,img/planet2_right.png,2,Community 1,NA,TRUE,j,j,NA,NA,NA,1,6,"13,2,3,12,8,1,15,14,4,9,10,6,5,11,7"
14620,commdev-image-keyboard-response,435,863168,learnblock2,141,img/planet8_right.png,8,Community 1,NA,TRUE,j,j,NA,NA,NA,1,6,"13,2,3,12,8,1,15,14,4,9,10,6,5,11,7"
14620,commdev-image-keyboard-response,436,864421,learnblock2,160,img/planet3_left.png,3,Community 1,NA,TRUE,f,f,NA,NA,NA,1,6,"13,2,3,12,8,1,15,14,4,9,10,6,5,11,7"
14620,commdev-image-keyboard-response,437,865675,learnblock2,58,img/planet12_left.png,12,Community 1,NA,FALSE,j,f,NA,NA,NA,1,6,"13,2,3,12,8,1,15,14,4,9,10,6,5,11,7"
14620,commdev-image-keyboard-response,438,866928,learnblock2,180,img/planet2_right.png,2,Community 1,NA,FALSE,f,j,NA,NA,NA,1,6,"13,2,3,12,8,1,15,14,4,9,10,6,5,11,7"
14620,commdev-image-keyboard-response,439,868184,learnblock2,22,img/planet3_right.png,3,Community 1,NA,FALSE,f,j,NA,NA,NA,1,6,"13,2,3,12,8,1,15,14,4,9,10,6,5,11,7"
14620,commdev-image-keyboard-response,440,869438,learnblock2,17,img/planet2_right.png,2,Community 1,NA,FALSE,f,j,NA,NA,NA,1,6,"13,2,3,12,8,1,15,14,4,9,10,6,5,11,7"
14620,commdev-image-keyboard-response,441,870694,learnblock2,258,img/planet3_right.png,3,Community 1,NA,TRUE,j,j,NA,NA,NA,1,6,"13,2,3,12,8,1,15,14,4,9,10,6,5,11,7"
14620,commdev-image-keyboard-response,442,871949,learnblock2,5,img/planet13_left.png,13,Community 1,NA,TRUE,f,f,NA,NA,NA,1,6,"13,2,3,12,8,1,15,14,4,9,10,6,5,11,7"
14620,commdev-image-keyboard-response,443,873202,learnblock2,1,img/planet3_left.png,3,Community 1,NA,FALSE,j,f,NA,NA,NA,1,6,"13,2,3,12,8,1,15,14,4,9,10,6,5,11,7"
14620,commdev-image-keyboard-response,444,874456,learnblock2,201,img/planet12_right.png,12,Community 1,NA,TRUE,j,j,NA,NA,NA,1,6,"13,2,3,12,8,1,15,14,4,9,10,6,5,11,7"
14620,commdev-image-keyboard-response,445,875711,learnblock2,130,img/planet13_right.png,13,Community 1,NA,FALSE,f,j,NA,NA,NA,1,6,"13,2,3,12,8,1,15,14,4,9,10,6,5,11,7"
14620,commdev-image-keyboard-response,446,876965,learnblock2,157,img/planet2_right.png,2,Community 1,NA,TRUE,j,j,NA,NA,NA,1,6,"13,2,3,12,8,1,15,14,4,9,10,6,5,11,7"
14620,commdev-image-keyboard-response,447,878220,learnblock2,39,img/planet12_left.png,12,Community 1,NA,TRUE,f,f,NA,NA,NA,1,6,"13,2,3,12,8,1,15,14,4,9,10,6,5,11,7"
14620,commdev-image-keyboard-response,448,879473,learnblock2,114,img/planet1_right.png,1,Community 2,NA,FALSE,f,j,NA,NA,NA,1,6,"13,2,3,12,8,1,15,14,4,9,10,6,5,11,7"
14620,commdev-image-keyboard-response,449,880727,learnblock2,187,img/planet12_right.png,12,Community 1,NA,TRUE,j,j,NA,NA,NA,1,6,"13,2,3,12,8,1,15,14,4,9,10,6,5,11,7"
14620,commdev-image-keyboard-response,450,881984,learnblock2,207,img/planet1_right.png,1,Community 2,NA,TRUE,j,j,NA,NA,NA,1,6,"13,2,3,12,8,1,15,14,4,9,10,6,5,11,7"
14620,commdev-image-keyboard-response,451,883237,learnblock2,67,img/planet15_left.png,15,Community 2,NA,TRUE,f,f,NA,NA,NA,1,6,"13,2,3,12,8,1,15,14,4,9,10,6,5,11,7"
14620,commdev-image-keyboard-response,452,884488,learnblock2,113,img/planet14_left.png,14,Community 2,NA,FALSE,j,f,NA,NA,NA,1,6,"13,2,3,12,8,1,15,14,4,9,10,6,5,11,7"
14620,commdev-image-keyboard-response,453,885825,learnblock2,169,img/planet6_left.png,6,Community 3,NA,TRUE,f,f,NA,NA,NA,1,6,"13,2,3,12,8,1,15,14,4,9,10,6,5,11,7"
14620,commdev-image-keyboard-response,454,887081,learnblock2,70,img/planet11_right.png,11,Community 3,NA,TRUE,j,j,NA,NA,NA,1,6,"13,2,3,12,8,1,15,14,4,9,10,6,5,11,7"
14620,commdev-image-keyboard-response,455,888333,learnblock2,56,img/planet10_left.png,10,Community 3,NA,TRUE,f,f,NA,NA,NA,1,6,"13,2,3,12,8,1,15,14,4,9,10,6,5,11,7"
14620,commdev-image-keyboard-response,456,889588,learnblock2,27,img/planet8_right.png,8,Community 1,NA,FALSE,f,j,NA,NA,NA,1,6,"13,2,3,12,8,1,15,14,4,9,10,6,5,11,7"
14620,commdev-image-keyboard-response,457,890842,learnblock2,4,img/planet10_right.png,10,Community 3,NA,TRUE,j,j,NA,NA,NA,1,6,"13,2,3,12,8,1,15,14,4,9,10,6,5,11,7"
14620,commdev-image-keyboard-response,458,892098,learnblock2,214,img/planet5_left.png,5,Community 3,NA,TRUE,f,f,NA,NA,NA,1,6,"13,2,3,12,8,1,15,14,4,9,10,6,5,11,7"
14620,commdev-image-keyboard-response,459,893350,learnblock2,229,img/planet7_right.png,7,Community 3,NA,TRUE,j,j,NA,NA,NA,1,6,"13,2,3,12,8,1,15,14,4,9,10,6,5,11,7"
14620,commdev-image-keyboard-response,460,894605,learnblock2,234,img/planet6_left.png,6,Community 3,NA,FALSE,j,f,NA,NA,NA,1,6,"13,2,3,12,8,1,15,14,4,9,10,6,5,11,7"
14620,commdev-image-keyboard-response,461,895855,learnblock2,114,img/planet7_right.png,7,Community 3,NA,TRUE,j,j,NA,NA,NA,1,6,"13,2,3,12,8,1,15,14,4,9,10,6,5,11,7"
14620,commdev-image-keyboard-response,462,897112,learnblock2,10,img/planet10_right.png,10,Community 3,NA,FALSE,f,j,NA,NA,NA,1,6,"13,2,3,12,8,1,15,14,4,9,10,6,5,11,7"
14620,commdev-image-keyboard-response,463,898364,learnblock2,184,img/planet8_left.png,8,Community 1,NA,TRUE,f,f,NA,NA,NA,1,6,"13,2,3,12,8,1,15,14,4,9,10,6,5,11,7"
14620,commdev-image-keyboard-response,464,899621,learnblock2,68,img/planet13_left.png,13,Community 1,NA,FALSE,j,f,NA,NA,NA,1,6,"13,2,3,12,8,1,15,14,4,9,10,6,5,11,7"
14620,commdev-image-keyboard-response,465,900873,learnblock2,43,img/planet12_left.png,12,Community 1,NA,TRUE,f,f,NA,NA,NA,1,6,"13,2,3,12,8,1,15,14,4,9,10,6,5,11,7"
14620,commdev-image-keyboard-response,466,902128,learnblock2,183,img/planet1_right.png,1,Community 2,NA,TRUE,j,j,NA,NA,NA,1,6,"13,2,3,12,8,1,15,14,4,9,10,6,5,11,7"
14620,commdev-image-keyboard-response,467,903383,learnblock2,106,img/planet4_left.png,4,Community 2,NA,FALSE,j,f,NA,NA,NA,1,6,"13,2,3,12,8,1,15,14,4,9,10,6,5,11,7"
14620,commdev-image-keyboard-response,468,904635,learnblock2,51,img/planet14_right.png,14,Community 2,NA,FALSE,f,j,NA,NA,NA,1,6,"13,2,3,12,8,1,15,14,4,9,10,6,5,11,7"
14620,commdev-image-keyboard-response,469,905890,learnblock2,142,img/planet9_right.png,9,Community 2,NA,FALSE,f,j,NA,NA,NA,1,6,"13,2,3,12,8,1,15,14,4,9,10,6,5,11,7"
14620,commdev-image-keyboard-response,470,907145,learnblock2,54,img/planet1_right.png,1,Community 2,NA,FALSE,f,j,NA,NA,NA,1,6,"13,2,3,12,8,1,15,14,4,9,10,6,5,11,7"
14620,commdev-image-keyboard-response,471,908398,learnblock2,153,img/planet4_left.png,4,Community 2,NA,TRUE,f,f,NA,NA,NA,1,6,"13,2,3,12,8,1,15,14,4,9,10,6,5,11,7"
14620,commdev-image-keyboard-response,472,909653,learnblock2,66,img/planet9_right.png,9,Community 2,NA,TRUE,j,j,NA,NA,NA,1,6,"13,2,3,12,8,1,15,14,4,9,10,6,5,11,7"
14620,commdev-image-keyboard-response,473,910908,learnblock2,165,img/planet14_right.png,14,Community 2,NA,FALSE,f,j,NA,NA,NA,1,6,"13,2,3,12,8,1,15,14,4,9,10,6,5,11,7"
14620,commdev-image-keyboard-response,474,912160,learnblock2,55,img/planet9_left.png,9,Community 2,NA,TRUE,f,f,NA,NA,NA,1,6,"13,2,3,12,8,1,15,14,4,9,10,6,5,11,7"
14620,commdev-image-keyboard-response,475,913412,learnblock2,58,img/planet4_right.png,4,Community 2,NA,TRUE,j,j,NA,NA,NA,1,6,"13,2,3,12,8,1,15,14,4,9,10,6,5,11,7"
14620,commdev-image-keyboard-response,476,914667,learnblock2,111,img/planet1_right.png,1,Community 2,NA,TRUE,j,j,NA,NA,NA,1,6,"13,2,3,12,8,1,15,14,4,9,10,6,5,11,7"
14620,commdev-image-keyboard-response,477,915921,learnblock2,44,img/planet15_right.png,15,Community 2,NA,FALSE,f,j,NA,NA,NA,1,6,"13,2,3,12,8,1,15,14,4,9,10,6,5,11,7"
14620,commdev-image-keyboard-response,478,917175,learnblock2,194,img/planet14_right.png,14,Community 2,NA,TRUE,j,j,NA,NA,NA,1,6,"13,2,3,12,8,1,15,14,4,9,10,6,5,11,7"
14620,commdev-image-keyboard-response,479,918431,learnblock2,90,img/planet9_right.png,9,Community 2,NA,TRUE,j,j,NA,NA,NA,1,6,"13,2,3,12,8,1,15,14,4,9,10,6,5,11,7"
14620,commdev-image-keyboard-response,480,919772,learnblock2,148,img/planet14_right.png,14,Community 2,NA,TRUE,j,j,NA,NA,NA,1,6,"13,2,3,12,8,1,15,14,4,9,10,6,5,11,7"
14620,commdev-image-keyboard-response,481,921026,learnblock2,62,img/planet15_right.png,15,Community 2,NA,TRUE,j,j,NA,NA,NA,1,6,"13,2,3,12,8,1,15,14,4,9,10,6,5,11,7"
14620,commdev-image-keyboard-response,482,922277,learnblock2,169,img/planet14_left.png,14,Community 2,NA,FALSE,j,f,NA,NA,NA,1,6,"13,2,3,12,8,1,15,14,4,9,10,6,5,11,7"
14620,commdev-image-keyboard-response,483,923532,learnblock2,61,img/planet15_left.png,15,Community 2,NA,TRUE,f,f,NA,NA,NA,1,6,"13,2,3,12,8,1,15,14,4,9,10,6,5,11,7"
14620,commdev-image-keyboard-response,484,924788,learnblock2,110,img/planet9_left.png,9,Community 2,NA,FALSE,j,f,NA,NA,NA,1,6,"13,2,3,12,8,1,15,14,4,9,10,6,5,11,7"
14620,commdev-image-keyboard-response,485,926043,learnblock2,166,img/planet4_left.png,4,Community 2,NA,FALSE,j,f,NA,NA,NA,1,6,"13,2,3,12,8,1,15,14,4,9,10,6,5,11,7"
14620,commdev-image-keyboard-response,486,927297,learnblock2,207,img/planet14_left.png,14,Community 2,NA,FALSE,j,f,NA,NA,NA,1,6,"13,2,3,12,8,1,15,14,4,9,10,6,5,11,7"
14620,commdev-image-keyboard-response,487,928549,learnblock2,2,img/planet9_right.png,9,Community 2,NA,FALSE,f,j,NA,NA,NA,1,6,"13,2,3,12,8,1,15,14,4,9,10,6,5,11,7"
14620,commdev-image-keyboard-response,488,929804,learnblock2,215,img/planet15_right.png,15,Community 2,NA,TRUE,j,j,NA,NA,NA,1,6,"13,2,3,12,8,1,15,14,4,9,10,6,5,11,7"
14620,commdev-image-keyboard-response,489,931056,learnblock2,79,img/planet1_right.png,1,Community 2,NA,FALSE,f,j,NA,NA,NA,1,6,"13,2,3,12,8,1,15,14,4,9,10,6,5,11,7"
14620,commdev-image-keyboard-response,490,932310,learnblock2,49,img/planet12_right.png,12,Community 1,NA,TRUE,j,j,NA,NA,NA,1,6,"13,2,3,12,8,1,15,14,4,9,10,6,5,11,7"
14620,commdev-image-keyboard-response,491,933565,learnblock2,117,img/planet2_left.png,2,Community 1,NA,FALSE,j,f,NA,NA,NA,1,6,"13,2,3,12,8,1,15,14,4,9,10,6,5,11,7"
14620,commdev-image-keyboard-response,492,934821,learnblock2,141,img/planet8_right.png,8,Community 1,NA,TRUE,j,j,NA,NA,NA,1,6,"13,2,3,12,8,1,15,14,4,9,10,6,5,11,7"
14620,commdev-image-keyboard-response,493,936074,learnblock2,32,img/planet13_right.png,13,Community 1,NA,TRUE,j,j,NA,NA,NA,1,6,"13,2,3,12,8,1,15,14,4,9,10,6,5,11,7"
14620,commdev-image-keyboard-response,494,937327,learnblock2,41,img/planet3_left.png,3,Community 1,NA,FALSE,j,f,NA,NA,NA,1,6,"13,2,3,12,8,1,15,14,4,9,10,6,5,11,7"
14620,commdev-image-keyboard-response,495,938583,learnblock2,21,img/planet2_left.png,2,Community 1,NA,FALSE,j,f,NA,NA,NA,1,6,"13,2,3,12,8,1,15,14,4,9,10,6,5,11,7"
14620,commdev-image-keyboard-response,496,939837,learnblock2,147,img/planet13_left.png,13,Community 1,NA,FALSE,j,f,NA,NA,NA,1,6,"13,2,3,12,8,1,15,14,4,9,10,6,5,11,7"
14620,commdev-image-keyboard-response,497,941091,learnblock2,117,img/planet12_right.png,12,Community 1,NA,FALSE,f,j,NA,NA,NA,1,6,"13,2,3,12,8,1,15,14,4,9,10,6,5,11,7"
14620,commdev-image-keyboard-response,498,942344,learnblock2,106,img/planet1_left.png,1,Community 2,NA,TRUE,f,f,NA,NA,NA,1,6,"13,2,3,12,8,1,15,14,4,9,10,6,5,11,7"
14620,commdev-image-keyboard-response,499,943596,learnblock2,58,img/planet12_left.png,12,Community 1,NA,FALSE,j,f,NA,NA,NA,1,6,"13,2,3,12,8,1,15,14,4,9,10,6,5,11,7"
14620,commdev-image-keyboard-response,500,944848,learnblock2,272,img/planet1_right.png,1,Community 2,NA,TRUE,j,j,NA,NA,NA,1,6,"13,2,3,12,8,1,15,14,4,9,10,6,5,11,7"
14620,commdev-image-keyboard-response,501,946104,learnblock2,163,img/planet4_left.png,4,Community 2,NA,TRUE,f,f,NA,NA,NA,1,6,"13,2,3,12,8,1,15,14,4,9,10,6,5,11,7"
14620,commdev-image-keyboard-response,502,947356,learnblock2,379,img/planet9_right.png,9,Community 2,NA,TRUE,j,j,NA,NA,NA,1,6,"13,2,3,12,8,1,15,14,4,9,10,6,5,11,7"
14620,commdev-image-keyboard-response,503,948611,learnblock2,135,img/planet1_left.png,1,Community 2,NA,TRUE,f,f,NA,NA,NA,1,6,"13,2,3,12,8,1,15,14,4,9,10,6,5,11,7"
14620,commdev-image-keyboard-response,504,949868,learnblock2,104,img/planet4_right.png,4,Community 2,NA,FALSE,f,j,NA,NA,NA,1,6,"13,2,3,12,8,1,15,14,4,9,10,6,5,11,7"
14620,commdev-image-keyboard-response,505,951123,learnblock2,10,img/planet9_left.png,9,Community 2,NA,FALSE,j,f,NA,NA,NA,1,6,"13,2,3,12,8,1,15,14,4,9,10,6,5,11,7"
14620,commdev-image-keyboard-response,506,952379,learnblock2,30,img/planet15_left.png,15,Community 2,NA,TRUE,f,f,NA,NA,NA,1,6,"13,2,3,12,8,1,15,14,4,9,10,6,5,11,7"
14620,commdev-image-keyboard-response,507,953633,learnblock2,168,img/planet1_right.png,1,Community 2,NA,TRUE,j,j,NA,NA,NA,1,6,"13,2,3,12,8,1,15,14,4,9,10,6,5,11,7"
14620,commdev-image-keyboard-response,508,954887,learnblock2,18,img/planet9_left.png,9,Community 2,NA,TRUE,f,f,NA,NA,NA,1,6,"13,2,3,12,8,1,15,14,4,9,10,6,5,11,7"
14620,commdev-image-keyboard-response,509,956140,learnblock2,117,img/planet14_left.png,14,Community 2,NA,FALSE,j,f,NA,NA,NA,1,6,"13,2,3,12,8,1,15,14,4,9,10,6,5,11,7"
14620,commdev-image-keyboard-response,510,957395,learnblock2,15,img/planet9_right.png,9,Community 2,NA,TRUE,j,j,NA,NA,NA,1,6,"13,2,3,12,8,1,15,14,4,9,10,6,5,11,7"
14620,commdev-image-keyboard-response,511,958646,learnblock2,23,img/planet1_right.png,1,Community 2,NA,TRUE,j,j,NA,NA,NA,1,6,"13,2,3,12,8,1,15,14,4,9,10,6,5,11,7"
14620,commdev-image-keyboard-response,512,959903,learnblock2,9,img/planet9_right.png,9,Community 2,NA,FALSE,f,j,NA,NA,NA,1,6,"13,2,3,12,8,1,15,14,4,9,10,6,5,11,7"
14620,commdev-image-keyboard-response,513,961156,learnblock2,204,img/planet15_left.png,15,Community 2,NA,TRUE,f,f,NA,NA,NA,1,6,"13,2,3,12,8,1,15,14,4,9,10,6,5,11,7"
14620,commdev-image-keyboard-response,514,962411,learnblock2,128,img/planet1_left.png,1,Community 2,NA,FALSE,j,f,NA,NA,NA,1,6,"13,2,3,12,8,1,15,14,4,9,10,6,5,11,7"
14620,commdev-image-keyboard-response,515,963663,learnblock2,9,img/planet9_right.png,9,Community 2,NA,FALSE,f,j,NA,NA,NA,1,6,"13,2,3,12,8,1,15,14,4,9,10,6,5,11,7"
14620,commdev-image-keyboard-response,516,964919,learnblock2,16,img/planet4_right.png,4,Community 2,NA,TRUE,j,j,NA,NA,NA,1,6,"13,2,3,12,8,1,15,14,4,9,10,6,5,11,7"
14620,commdev-image-keyboard-response,517,966172,learnblock2,15,img/planet15_left.png,15,Community 2,NA,TRUE,f,f,NA,NA,NA,1,6,"13,2,3,12,8,1,15,14,4,9,10,6,5,11,7"
14620,commdev-image-keyboard-response,518,967426,learnblock2,136,img/planet4_left.png,4,Community 2,NA,FALSE,j,f,NA,NA,NA,1,6,"13,2,3,12,8,1,15,14,4,9,10,6,5,11,7"
14620,commdev-image-keyboard-response,519,968680,learnblock2,154,img/planet15_left.png,15,Community 2,NA,TRUE,f,f,NA,NA,NA,1,6,"13,2,3,12,8,1,15,14,4,9,10,6,5,11,7"
14620,commdev-image-keyboard-response,520,969936,learnblock2,163,img/planet4_left.png,4,Community 2,NA,FALSE,j,f,NA,NA,NA,1,6,"13,2,3,12,8,1,15,14,4,9,10,6,5,11,7"
14620,commdev-image-keyboard-response,521,971188,learnblock2,204,img/planet15_left.png,15,Community 2,NA,TRUE,f,f,NA,NA,NA,1,6,"13,2,3,12,8,1,15,14,4,9,10,6,5,11,7"
14620,commdev-image-keyboard-response,522,972442,learnblock2,218,img/planet9_right.png,9,Community 2,NA,FALSE,f,j,NA,NA,NA,1,6,"13,2,3,12,8,1,15,14,4,9,10,6,5,11,7"
14620,commdev-image-keyboard-response,523,973696,learnblock2,250,img/planet15_left.png,15,Community 2,NA,FALSE,j,f,NA,NA,NA,1,6,"13,2,3,12,8,1,15,14,4,9,10,6,5,11,7"
14620,commdev-image-keyboard-response,524,974950,learnblock2,687,img/planet1_left.png,1,Community 2,NA,TRUE,f,f,NA,NA,NA,1,6,"13,2,3,12,8,1,15,14,4,9,10,6,5,11,7"
14620,commdev-image-keyboard-response,525,976203,learnblock2,166,img/planet12_left.png,12,Community 1,NA,FALSE,j,f,NA,NA,NA,1,6,"13,2,3,12,8,1,15,14,4,9,10,6,5,11,7"
14620,commdev-image-keyboard-response,526,977458,learnblock2,210,img/planet13_right.png,13,Community 1,NA,TRUE,j,j,NA,NA,NA,1,6,"13,2,3,12,8,1,15,14,4,9,10,6,5,11,7"
14620,commdev-image-keyboard-response,527,978712,learnblock2,2,img/planet8_left.png,8,Community 1,NA,TRUE,f,f,NA,NA,NA,1,6,"13,2,3,12,8,1,15,14,4,9,10,6,5,11,7"
14620,commdev-image-keyboard-response,528,979965,learnblock2,148,img/planet10_left.png,10,Community 3,NA,FALSE,j,f,NA,NA,NA,1,6,"13,2,3,12,8,1,15,14,4,9,10,6,5,11,7"
14620,commdev-image-keyboard-response,529,981219,learnblock2,63,img/planet7_left.png,7,Community 3,NA,FALSE,j,f,NA,NA,NA,1,6,"13,2,3,12,8,1,15,14,4,9,10,6,5,11,7"
14620,commdev-image-keyboard-response,530,982473,learnblock2,264,img/planet6_left.png,6,Community 3,NA,TRUE,f,f,NA,NA,NA,1,6,"13,2,3,12,8,1,15,14,4,9,10,6,5,11,7"
14620,commdev-image-keyboard-response,531,983728,learnblock2,18,img/planet5_right.png,5,Community 3,NA,TRUE,j,j,NA,NA,NA,1,6,"13,2,3,12,8,1,15,14,4,9,10,6,5,11,7"
14620,commdev-image-keyboard-response,532,984982,learnblock2,123,img/planet6_right.png,6,Community 3,NA,TRUE,j,j,NA,NA,NA,1,6,"13,2,3,12,8,1,15,14,4,9,10,6,5,11,7"
14620,commdev-image-keyboard-response,533,986235,learnblock2,184,img/planet5_right.png,5,Community 3,NA,FALSE,f,j,NA,NA,NA,1,6,"13,2,3,12,8,1,15,14,4,9,10,6,5,11,7"
14620,commdev-image-keyboard-response,534,987488,learnblock2,81,img/planet10_left.png,10,Community 3,NA,TRUE,f,f,NA,NA,NA,1,6,"13,2,3,12,8,1,15,14,4,9,10,6,5,11,7"
14620,commdev-image-keyboard-response,535,988743,learnblock2,85,img/planet7_right.png,7,Community 3,NA,FALSE,f,j,NA,NA,NA,1,6,"13,2,3,12,8,1,15,14,4,9,10,6,5,11,7"
14620,commdev-image-keyboard-response,536,990000,learnblock2,133,img/planet6_left.png,6,Community 3,NA,TRUE,f,f,NA,NA,NA,1,6,"13,2,3,12,8,1,15,14,4,9,10,6,5,11,7"
14620,commdev-image-keyboard-response,537,991250,learnblock2,262,img/planet11_left.png,11,Community 3,NA,FALSE,j,f,NA,NA,NA,1,6,"13,2,3,12,8,1,15,14,4,9,10,6,5,11,7"
14620,commdev-image-keyboard-response,538,992506,learnblock2,289,img/planet7_right.png,7,Community 3,NA,TRUE,j,j,NA,NA,NA,1,6,"13,2,3,12,8,1,15,14,4,9,10,6,5,11,7"
14620,commdev-image-keyboard-response,539,993759,learnblock2,null,img/planet11_left.png,11,Community 3,NA,FALSE,null,f,NA,NA,NA,1,6,"13,2,3,12,8,1,15,14,4,9,10,6,5,11,7"
14620,commdev-image-keyboard-response,540,995012,learnblock2,198,img/planet6_left.png,6,Community 3,NA,FALSE,j,f,NA,NA,NA,1,6,"13,2,3,12,8,1,15,14,4,9,10,6,5,11,7"
14620,commdev-image-keyboard-response,541,996266,learnblock2,32,img/planet5_right.png,5,Community 3,NA,FALSE,f,j,NA,NA,NA,1,6,"13,2,3,12,8,1,15,14,4,9,10,6,5,11,7"
14620,commdev-image-keyboard-response,542,997520,learnblock2,54,img/planet10_right.png,10,Community 3,NA,TRUE,j,j,NA,NA,NA,1,6,"13,2,3,12,8,1,15,14,4,9,10,6,5,11,7"
14620,commdev-image-keyboard-response,543,998774,learnblock2,5,img/planet11_right.png,11,Community 3,NA,TRUE,j,j,NA,NA,NA,1,6,"13,2,3,12,8,1,15,14,4,9,10,6,5,11,7"
14620,commdev-image-keyboard-response,544,1000025,learnblock2,58,img/planet10_left.png,10,Community 3,NA,TRUE,f,f,NA,NA,NA,1,6,"13,2,3,12,8,1,15,14,4,9,10,6,5,11,7"
14620,commdev-image-keyboard-response,545,1001281,learnblock2,131,img/planet5_right.png,5,Community 3,NA,FALSE,f,j,NA,NA,NA,1,6,"13,2,3,12,8,1,15,14,4,9,10,6,5,11,7"
14620,commdev-image-keyboard-response,546,1002533,learnblock2,107,img/planet6_right.png,6,Community 3,NA,FALSE,f,j,NA,NA,NA,1,6,"13,2,3,12,8,1,15,14,4,9,10,6,5,11,7"
14620,commdev-image-keyboard-response,547,1003784,learnblock2,121,img/planet5_left.png,5,Community 3,NA,TRUE,f,f,NA,NA,NA,1,6,"13,2,3,12,8,1,15,14,4,9,10,6,5,11,7"
14620,commdev-image-keyboard-response,548,1005040,learnblock2,207,img/planet6_right.png,6,Community 3,NA,FALSE,f,j,NA,NA,NA,1,6,"13,2,3,12,8,1,15,14,4,9,10,6,5,11,7"
14620,commdev-image-keyboard-response,549,1006296,learnblock2,93,img/planet5_right.png,5,Community 3,NA,FALSE,f,j,NA,NA,NA,1,6,"13,2,3,12,8,1,15,14,4,9,10,6,5,11,7"
14620,commdev-image-keyboard-response,550,1007552,learnblock2,133,img/planet10_right.png,10,Community 3,NA,FALSE,f,j,NA,NA,NA,1,6,"13,2,3,12,8,1,15,14,4,9,10,6,5,11,7"
14620,commdev-image-keyboard-response,551,1008806,learnblock2,27,img/planet8_right.png,8,Community 1,NA,TRUE,j,j,NA,NA,NA,1,6,"13,2,3,12,8,1,15,14,4,9,10,6,5,11,7"
14620,commdev-image-keyboard-response,552,1010059,learnblock2,391,img/planet2_left.png,2,Community 1,NA,TRUE,f,f,NA,NA,NA,1,6,"13,2,3,12,8,1,15,14,4,9,10,6,5,11,7"
14620,commdev-image-keyboard-response,553,1011313,learnblock2,33,img/planet8_right.png,8,Community 1,NA,FALSE,f,j,NA,NA,NA,1,6,"13,2,3,12,8,1,15,14,4,9,10,6,5,11,7"
14620,commdev-image-keyboard-response,554,1012567,learnblock2,251,img/planet3_right.png,3,Community 1,NA,FALSE,f,j,NA,NA,NA,1,6,"13,2,3,12,8,1,15,14,4,9,10,6,5,11,7"
14620,commdev-image-keyboard-response,555,1013823,learnblock2,191,img/planet12_right.png,12,Community 1,NA,FALSE,f,j,NA,NA,NA,1,6,"13,2,3,12,8,1,15,14,4,9,10,6,5,11,7"
14620,commdev-image-keyboard-response,556,1015075,learnblock2,134,img/planet3_left.png,3,Community 1,NA,FALSE,j,f,NA,NA,NA,1,6,"13,2,3,12,8,1,15,14,4,9,10,6,5,11,7"
14620,commdev-image-keyboard-response,557,1016330,learnblock2,51,img/planet13_right.png,13,Community 1,NA,FALSE,f,j,NA,NA,NA,1,6,"13,2,3,12,8,1,15,14,4,9,10,6,5,11,7"
14620,commdev-image-keyboard-response,558,1017669,learnblock2,202,img/planet12_left.png,12,Community 1,NA,TRUE,f,f,NA,NA,NA,1,6,"13,2,3,12,8,1,15,14,4,9,10,6,5,11,7"
14620,commdev-image-keyboard-response,559,1018922,learnblock2,121,img/planet13_right.png,13,Community 1,NA,FALSE,f,j,NA,NA,NA,1,6,"13,2,3,12,8,1,15,14,4,9,10,6,5,11,7"
14620,commdev-image-keyboard-response,560,1020172,learnblock2,100,img/planet3_left.png,3,Community 1,NA,TRUE,f,f,NA,NA,NA,1,6,"13,2,3,12,8,1,15,14,4,9,10,6,5,11,7"
14620,commdev-image-keyboard-response,561,1021426,learnblock2,4,img/planet12_right.png,12,Community 1,NA,FALSE,f,j,NA,NA,NA,1,6,"13,2,3,12,8,1,15,14,4,9,10,6,5,11,7"
14620,commdev-image-keyboard-response,562,1022679,learnblock2,12,img/planet1_left.png,1,Community 2,NA,FALSE,j,f,NA,NA,NA,1,6,"13,2,3,12,8,1,15,14,4,9,10,6,5,11,7"
14620,commdev-image-keyboard-response,563,1023933,learnblock2,149,img/planet4_right.png,4,Community 2,NA,TRUE,j,j,NA,NA,NA,1,6,"13,2,3,12,8,1,15,14,4,9,10,6,5,11,7"
14620,commdev-image-keyboard-response,564,1025186,learnblock2,121,img/planet15_left.png,15,Community 2,NA,FALSE,j,f,NA,NA,NA,1,6,"13,2,3,12,8,1,15,14,4,9,10,6,5,11,7"
14620,commdev-image-keyboard-response,565,1026440,learnblock2,285,img/planet1_left.png,1,Community 2,NA,TRUE,f,f,NA,NA,NA,1,6,"13,2,3,12,8,1,15,14,4,9,10,6,5,11,7"
14620,commdev-image-keyboard-response,566,1027692,learnblock2,21,img/planet4_right.png,4,Community 2,NA,FALSE,f,j,NA,NA,NA,1,6,"13,2,3,12,8,1,15,14,4,9,10,6,5,11,7"
14620,commdev-image-keyboard-response,567,1028949,learnblock2,193,img/planet9_right.png,9,Community 2,NA,FALSE,f,j,NA,NA,NA,1,6,"13,2,3,12,8,1,15,14,4,9,10,6,5,11,7"
14620,commdev-image-keyboard-response,568,1030203,learnblock2,232,img/planet14_right.png,14,Community 2,NA,FALSE,f,j,NA,NA,NA,1,6,"13,2,3,12,8,1,15,14,4,9,10,6,5,11,7"
14620,commdev-image-keyboard-response,569,1031457,learnblock2,418,img/planet9_left.png,9,Community 2,NA,TRUE,f,f,NA,NA,NA,1,6,"13,2,3,12,8,1,15,14,4,9,10,6,5,11,7"
14620,commdev-image-keyboard-response,570,1032712,learnblock2,109,img/planet1_right.png,1,Community 2,NA,FALSE,f,j,NA,NA,NA,1,6,"13,2,3,12,8,1,15,14,4,9,10,6,5,11,7"
14620,commdev-image-keyboard-response,571,1034004,learnblock2,10,img/planet15_right.png,15,Community 2,NA,FALSE,f,j,NA,NA,NA,1,6,"13,2,3,12,8,1,15,14,4,9,10,6,5,11,7"
14620,commdev-image-keyboard-response,572,1035256,learnblock2,26,img/planet1_right.png,1,Community 2,NA,FALSE,f,j,NA,NA,NA,1,6,"13,2,3,12,8,1,15,14,4,9,10,6,5,11,7"
14620,commdev-image-keyboard-response,573,1036508,learnblock2,110,img/planet4_left.png,4,Community 2,NA,FALSE,j,f,NA,NA,NA,1,6,"13,2,3,12,8,1,15,14,4,9,10,6,5,11,7"
14620,commdev-image-keyboard-response,574,1037762,learnblock2,285,img/planet14_left.png,14,Community 2,NA,TRUE,f,f,NA,NA,NA,1,6,"13,2,3,12,8,1,15,14,4,9,10,6,5,11,7"
14620,commdev-image-keyboard-response,575,1039015,learnblock2,143,img/planet15_right.png,15,Community 2,NA,FALSE,f,j,NA,NA,NA,1,6,"13,2,3,12,8,1,15,14,4,9,10,6,5,11,7"
14620,commdev-image-keyboard-response,576,1040271,learnblock2,199,img/planet4_left.png,4,Community 2,NA,TRUE,f,f,NA,NA,NA,1,6,"13,2,3,12,8,1,15,14,4,9,10,6,5,11,7"
14620,commdev-image-keyboard-response,577,1041523,learnblock2,54,img/planet14_left.png,14,Community 2,NA,TRUE,f,f,NA,NA,NA,1,6,"13,2,3,12,8,1,15,14,4,9,10,6,5,11,7"
14620,commdev-image-keyboard-response,578,1042776,learnblock2,20,img/planet9_right.png,9,Community 2,NA,FALSE,f,j,NA,NA,NA,1,6,"13,2,3,12,8,1,15,14,4,9,10,6,5,11,7"
14620,commdev-image-keyboard-response,579,1044031,learnblock2,230,img/planet4_right.png,4,Community 2,NA,FALSE,f,j,NA,NA,NA,1,6,"13,2,3,12,8,1,15,14,4,9,10,6,5,11,7"
14620,commdev-image-keyboard-response,580,1045285,learnblock2,96,img/planet15_left.png,15,Community 2,NA,FALSE,j,f,NA,NA,NA,1,6,"13,2,3,12,8,1,15,14,4,9,10,6,5,11,7"
14620,commdev-image-keyboard-response,581,1046538,learnblock2,175,img/planet14_right.png,14,Community 2,NA,FALSE,f,j,NA,NA,NA,1,6,"13,2,3,12,8,1,15,14,4,9,10,6,5,11,7"
14620,commdev-image-keyboard-response,582,1047793,learnblock2,35,img/planet9_left.png,9,Community 2,NA,TRUE,f,f,NA,NA,NA,1,6,"13,2,3,12,8,1,15,14,4,9,10,6,5,11,7"
14620,commdev-image-keyboard-response,583,1049046,learnblock2,153,img/planet14_left.png,14,Community 2,NA,FALSE,j,f,NA,NA,NA,1,6,"13,2,3,12,8,1,15,14,4,9,10,6,5,11,7"
14620,commdev-image-keyboard-response,584,1050322,learnblock2,87,img/planet6_left.png,6,Community 3,NA,FALSE,j,f,NA,NA,NA,1,6,"13,2,3,12,8,1,15,14,4,9,10,6,5,11,7"
14620,commdev-image-keyboard-response,585,1051578,learnblock2,133,img/planet11_right.png,11,Community 3,NA,FALSE,f,j,NA,NA,NA,1,6,"13,2,3,12,8,1,15,14,4,9,10,6,5,11,7"
14620,commdev-image-keyboard-response,586,1052832,learnblock2,20,img/planet10_right.png,10,Community 3,NA,FALSE,f,j,NA,NA,NA,1,6,"13,2,3,12,8,1,15,14,4,9,10,6,5,11,7"
14620,commdev-image-keyboard-response,587,1054085,learnblock2,17,img/planet5_right.png,5,Community 3,NA,FALSE,f,j,NA,NA,NA,1,6,"13,2,3,12,8,1,15,14,4,9,10,6,5,11,7"
14620,commdev-image-keyboard-response,588,1055340,learnblock2,161,img/planet7_right.png,7,Community 3,NA,FALSE,f,j,NA,NA,NA,1,6,"13,2,3,12,8,1,15,14,4,9,10,6,5,11,7"
14620,commdev-image-keyboard-response,589,1056593,learnblock2,163,img/planet6_right.png,6,Community 3,NA,FALSE,f,j,NA,NA,NA,1,6,"13,2,3,12,8,1,15,14,4,9,10,6,5,11,7"
14620,commdev-image-keyboard-response,590,1057848,learnblock2,6,img/planet5_left.png,5,Community 3,NA,TRUE,f,f,NA,NA,NA,1,6,"13,2,3,12,8,1,15,14,4,9,10,6,5,11,7"
14620,commdev-image-keyboard-response,591,1059101,learnblock2,112,img/planet7_left.png,7,Community 3,NA,TRUE,f,f,NA,NA,NA,1,6,"13,2,3,12,8,1,15,14,4,9,10,6,5,11,7"
14620,commdev-image-keyboard-response,592,1060355,learnblock2,60,img/planet5_left.png,5,Community 3,NA,TRUE,f,f,NA,NA,NA,1,6,"13,2,3,12,8,1,15,14,4,9,10,6,5,11,7"
14620,commdev-image-keyboard-response,593,1061609,learnblock2,171,img/planet11_left.png,11,Community 3,NA,FALSE,j,f,NA,NA,NA,1,6,"13,2,3,12,8,1,15,14,4,9,10,6,5,11,7"
14620,commdev-image-keyboard-response,594,1062863,learnblock2,22,img/planet6_left.png,6,Community 3,NA,FALSE,j,f,NA,NA,NA,1,6,"13,2,3,12,8,1,15,14,4,9,10,6,5,11,7"
14620,commdev-image-keyboard-response,595,1064117,learnblock2,87,img/planet5_left.png,5,Community 3,NA,TRUE,f,f,NA,NA,NA,1,6,"13,2,3,12,8,1,15,14,4,9,10,6,5,11,7"
14620,commdev-image-keyboard-response,596,1065371,learnblock2,297,img/planet6_right.png,6,Community 3,NA,FALSE,f,j,NA,NA,NA,1,6,"13,2,3,12,8,1,15,14,4,9,10,6,5,11,7"
14620,commdev-image-keyboard-response,597,1066625,learnblock2,11,img/planet5_left.png,5,Community 3,NA,TRUE,f,f,NA,NA,NA,1,6,"13,2,3,12,8,1,15,14,4,9,10,6,5,11,7"
14620,commdev-image-keyboard-response,598,1067879,learnblock2,134,img/planet11_left.png,11,Community 3,NA,TRUE,f,f,NA,NA,NA,1,6,"13,2,3,12,8,1,15,14,4,9,10,6,5,11,7"
14620,commdev-image-keyboard-response,599,1069133,learnblock2,88,img/planet7_left.png,7,Community 3,NA,TRUE,f,f,NA,NA,NA,1,6,"13,2,3,12,8,1,15,14,4,9,10,6,5,11,7"
14620,commdev-image-keyboard-response,600,1070388,learnblock2,348,img/planet11_right.png,11,Community 3,NA,FALSE,f,j,NA,NA,NA,1,6,"13,2,3,12,8,1,15,14,4,9,10,6,5,11,7"
14620,commdev-image-keyboard-response,601,1071641,learnblock2,99,img/planet7_right.png,7,Community 3,NA,FALSE,f,j,NA,NA,NA,1,6,"13,2,3,12,8,1,15,14,4,9,10,6,5,11,7"
14620,commdev-image-keyboard-response,602,1072894,learnblock2,70,img/planet5_right.png,5,Community 3,NA,TRUE,j,j,NA,NA,NA,1,6,"13,2,3,12,8,1,15,14,4,9,10,6,5,11,7"
14620,commdev-image-keyboard-response,603,1074148,learnblock2,288,img/planet7_right.png,7,Community 3,NA,TRUE,j,j,NA,NA,NA,1,6,"13,2,3,12,8,1,15,14,4,9,10,6,5,11,7"
14620,commdev-image-keyboard-response,604,1075442,learnblock2,43,img/planet10_left.png,10,Community 3,NA,FALSE,j,f,NA,NA,NA,1,6,"13,2,3,12,8,1,15,14,4,9,10,6,5,11,7"
14620,commdev-image-keyboard-response,605,1076697,learnblock2,292,img/planet5_left.png,5,Community 3,NA,FALSE,j,f,NA,NA,NA,1,6,"13,2,3,12,8,1,15,14,4,9,10,6,5,11,7"
14620,commdev-image-keyboard-response,606,1077949,learnblock2,7,img/planet6_left.png,6,Community 3,NA,FALSE,j,f,NA,NA,NA,1,6,"13,2,3,12,8,1,15,14,4,9,10,6,5,11,7"
14620,commdev-image-keyboard-response,607,1079201,learnblock2,170,img/planet7_right.png,7,Community 3,NA,TRUE,j,j,NA,NA,NA,1,6,"13,2,3,12,8,1,15,14,4,9,10,6,5,11,7"
14620,commdev-image-keyboard-response,608,1080453,learnblock2,158,img/planet11_left.png,11,Community 3,NA,FALSE,j,f,NA,NA,NA,1,6,"13,2,3,12,8,1,15,14,4,9,10,6,5,11,7"
14620,commdev-image-keyboard-response,609,1081708,learnblock2,219,img/planet6_right.png,6,Community 3,NA,FALSE,f,j,NA,NA,NA,1,6,"13,2,3,12,8,1,15,14,4,9,10,6,5,11,7"
14620,commdev-image-keyboard-response,610,1082961,learnblock2,179,img/planet11_left.png,11,Community 3,NA,FALSE,j,f,NA,NA,NA,1,6,"13,2,3,12,8,1,15,14,4,9,10,6,5,11,7"
14620,commdev-image-keyboard-response,611,1084215,learnblock2,31,img/planet10_left.png,10,Community 3,NA,FALSE,j,f,NA,NA,NA,1,6,"13,2,3,12,8,1,15,14,4,9,10,6,5,11,7"
14620,commdev-image-keyboard-response,612,1085468,learnblock2,9,img/planet5_right.png,5,Community 3,NA,FALSE,f,j,NA,NA,NA,1,6,"13,2,3,12,8,1,15,14,4,9,10,6,5,11,7"
14620,commdev-image-keyboard-response,613,1086722,learnblock2,211,img/planet11_left.png,11,Community 3,NA,FALSE,j,f,NA,NA,NA,1,6,"13,2,3,12,8,1,15,14,4,9,10,6,5,11,7"
14620,commdev-image-keyboard-response,614,1087977,learnblock2,60,img/planet5_right.png,5,Community 3,NA,FALSE,f,j,NA,NA,NA,1,6,"13,2,3,12,8,1,15,14,4,9,10,6,5,11,7"
14620,commdev-image-keyboard-response,615,1089230,learnblock2,55,img/planet10_left.png,10,Community 3,NA,FALSE,j,f,NA,NA,NA,1,6,"13,2,3,12,8,1,15,14,4,9,10,6,5,11,7"
14620,commdev-image-keyboard-response,616,1090483,learnblock2,209,img/planet5_right.png,5,Community 3,NA,TRUE,j,j,NA,NA,NA,1,6,"13,2,3,12,8,1,15,14,4,9,10,6,5,11,7"
14620,commdev-image-keyboard-response,617,1091738,learnblock2,108,img/planet7_right.png,7,Community 3,NA,TRUE,j,j,NA,NA,NA,1,6,"13,2,3,12,8,1,15,14,4,9,10,6,5,11,7"
14620,commdev-image-keyboard-response,618,1092991,learnblock2,54,img/planet6_right.png,6,Community 3,NA,TRUE,j,j,NA,NA,NA,1,6,"13,2,3,12,8,1,15,14,4,9,10,6,5,11,7"
14620,commdev-image-keyboard-response,619,1094246,learnblock2,97,img/planet7_left.png,7,Community 3,NA,TRUE,f,f,NA,NA,NA,1,6,"13,2,3,12,8,1,15,14,4,9,10,6,5,11,7"
14620,commdev-image-keyboard-response,620,1095500,learnblock2,123,img/planet5_left.png,5,Community 3,NA,TRUE,f,f,NA,NA,NA,1,6,"13,2,3,12,8,1,15,14,4,9,10,6,5,11,7"
14620,commdev-image-keyboard-response,621,1096753,learnblock2,85,img/planet7_right.png,7,Community 3,NA,TRUE,j,j,NA,NA,NA,1,6,"13,2,3,12,8,1,15,14,4,9,10,6,5,11,7"
14620,commdev-image-keyboard-response,622,1098007,learnblock2,25,img/planet5_right.png,5,Community 3,NA,FALSE,f,j,NA,NA,NA,1,6,"13,2,3,12,8,1,15,14,4,9,10,6,5,11,7"
14620,commdev-image-keyboard-response,623,1099262,learnblock2,129,img/planet7_right.png,7,Community 3,NA,FALSE,f,j,NA,NA,NA,1,6,"13,2,3,12,8,1,15,14,4,9,10,6,5,11,7"
