subject_id,trial_type,trial_index,time_elapsed,block,rt,stimulus,planet,community,response,correct,key_press,learning_correct_response,parse,init_locations,final_locations,browser_interactions,num_comp,planet_map
15359,commdev-instructions,7,82398,NA,999.0999999046326,"<p>In this game, you will be shown a 3x3 grid of patterns.</p> <p>The last one in the bottom right-hand corner, <strong>will be missing:</strong></p> <div style='width: 700px;'><div style='float: top;'><img style='width: 200px;' src='practice/p1_M1.png'></img><p class='small'>You need to select<strong> which of the four possible patterns </strong>along the bottom<strong> fits into the gap:</strong></p></div><div style='float: top;'><img style='width: 300px;' src='practice/p1_T1.png'></img></div><br>",NA,NA,NA,NA,NA,NA,NA,NA,NA,3,6,"1,8,9,11,14,6,4,12,2,10,5,15,7,13,3"
15359,commdev-instructions,8,103397,NA,1080.5,"<p>Try to be as fast and as accurate as you can be.</p> <p>If you cannot solve the puzzle then you should guess - you will not be penalised for an incorrect answer.</p> <p>The task contains a shuffled mix of easy, medium and hard puzzles.</p> <p>You will have <strong>30 seconds</strong> to complete each puzzle.</p><br>",NA,NA,NA,NA,NA,NA,NA,NA,NA,3,6,"1,8,9,11,14,6,4,12,2,10,5,15,7,13,3"
15359,commdev-instructions,15,130262,NA,1155.5,<p><strong>Success!</strong></p> <p>You seem to be getting the hang of this...</p> <p>Let's move on to the real trials.</p><br>,NA,NA,NA,NA,NA,NA,NA,NA,NA,3,6,"1,8,9,11,14,6,4,12,2,10,5,15,7,13,3"
15359,commdev-instructions,93,627498,NA,4329.600000143051,"<p>In this game, you are a scientist on board a space shuttle. </p><p> On each mission, you will visit planets all across the universe.</p><img src=""img/controlroom.jpg"" width=300vw>",NA,NA,NA,NA,NA,NA,NA,NA,NA,3,6,"1,8,9,11,14,6,4,12,2,10,5,15,7,13,3"
15359,commdev-instructions,94,640890,NA,11311.5,"<p>Here are a few planets you might see:</p><img src=""img/practice1.png"" width=200vw><img src=""img/practice2.png"" width=200vw><img src=""img/practice3.png"" width=200vw>",NA,NA,NA,NA,NA,NA,NA,NA,NA,3,6,"1,8,9,11,14,6,4,12,2,10,5,15,7,13,3"
15359,commdev-instructions,95,652066,NA,3778.5999999046326,"<p>Your job as a scientist is to record which direction the winds are moving on each planet.</p><p>There are two types of wind directions:</p><img src=""img/practice1_left.png"" width=200vw><img src=""img/practice1_right.png"" width=200vw>",NA,NA,NA,NA,NA,NA,NA,NA,NA,3,6,"1,8,9,11,14,6,4,12,2,10,5,15,7,13,3"
15359,commdev-instructions,96,676561,NA,19603.900000095367,"<p>If the winds are moving this way, press the letter <strong>F</strong> on the keyboard as fast as you can.</p><img src=""img/leftwind.png"" width=250vw>",NA,NA,NA,NA,NA,NA,NA,NA,NA,3,6,"1,8,9,11,14,6,4,12,2,10,5,15,7,13,3"
15359,commdev-instructions,97,681786,NA,718.5,"<p>If the winds are moving this way, press the letter <strong>J</strong> on the keyboard as fast as you can.</p><img src=""img/rightwind.png"" width=350vw>",NA,NA,NA,NA,NA,NA,NA,NA,NA,3,6,"1,8,9,11,14,6,4,12,2,10,5,15,7,13,3"
15359,commdev-instructions,98,690158,NA,3951.2999999523163,<p>You will have 1 second to respond. Try to respond before the time runs out!,NA,NA,NA,NA,NA,NA,NA,NA,NA,3,6,"1,8,9,11,14,6,4,12,2,10,5,15,7,13,3"
15359,commdev-instructions,99,697357,NA,1770.9000000953674,<p>The planets you will visit will look different from each other.</p><p>You should respond <strong>only</strong> based on wind direction.,NA,NA,NA,NA,NA,NA,NA,NA,NA,3,6,"1,8,9,11,14,6,4,12,2,10,5,15,7,13,3"
15359,commdev-instructions,100,703037,NA,500.90000009536743,"<p> Ready to start the practice round? </p><p> Remember, press <strong>F</strong> or <strong>J</strong> depending on the wind direction.<br><img src=""img/categorize_planet_example.png""",NA,NA,NA,NA,NA,NA,NA,NA,NA,3,6,"1,8,9,11,14,6,4,12,2,10,5,15,7,13,3"
15359,commdev-instructions,112,757554,NA,5442.700000047684,"<p>Great, now try a short practice mission. </p><p> This time, you will have 1 second to respond and you won't know whether you pressed the right or wrong key for each planet.</p>",NA,NA,NA,NA,NA,NA,NA,NA,NA,3,6,"1,8,9,11,14,6,4,12,2,10,5,15,7,13,3"
15359,commdev-image-keyboard-response,113,758909,practice,1126.1000001430511,img/practice4_right.png,NA,Number not found in mappings,NA,TRUE,j,j,NA,NA,NA,3,6,"1,8,9,11,14,6,4,12,2,10,5,15,7,13,3"
15359,commdev-image-keyboard-response,114,760162,practice,586.7999999523163,img/practice3_left.png,NA,Number not found in mappings,NA,TRUE,f,f,NA,NA,NA,3,6,"1,8,9,11,14,6,4,12,2,10,5,15,7,13,3"
15359,commdev-image-keyboard-response,115,761426,practice,669.2000000476837,img/practice1_right.png,NA,Number not found in mappings,NA,TRUE,j,j,NA,NA,NA,3,6,"1,8,9,11,14,6,4,12,2,10,5,15,7,13,3"
15359,commdev-image-keyboard-response,116,762691,practice,741.6000001430511,img/practice4_left.png,NA,Number not found in mappings,NA,TRUE,f,f,NA,NA,NA,3,6,"1,8,9,11,14,6,4,12,2,10,5,15,7,13,3"
15359,commdev-image-keyboard-response,117,763944,practice,619.9000000953674,img/practice3_right.png,NA,Number not found in mappings,NA,TRUE,j,j,NA,NA,NA,3,6,"1,8,9,11,14,6,4,12,2,10,5,15,7,13,3"
15359,commdev-image-keyboard-response,118,765197,practice,742.7999999523163,img/practice4_right.png,NA,Number not found in mappings,NA,TRUE,j,j,NA,NA,NA,3,6,"1,8,9,11,14,6,4,12,2,10,5,15,7,13,3"
15359,commdev-image-keyboard-response,119,766453,practice,522,img/practice1_left.png,NA,Number not found in mappings,NA,TRUE,f,f,NA,NA,NA,3,6,"1,8,9,11,14,6,4,12,2,10,5,15,7,13,3"
15359,commdev-image-keyboard-response,120,767708,practice,584.4000000953674,img/practice3_left.png,NA,Number not found in mappings,NA,TRUE,f,f,NA,NA,NA,3,6,"1,8,9,11,14,6,4,12,2,10,5,15,7,13,3"
15359,commdev-instructions,121,781090,NA,3829.5999999046326,"<p>Great job with the practice round.</p><p>During real missions, you won't know whether you pressed the right or wrong key for each planet.</p><p>But between missions, we will tell you how you did overall.</p>",NA,NA,NA,NA,NA,NA,NA,NA,NA,3,6,"1,8,9,11,14,6,4,12,2,10,5,15,7,13,3"
15359,commdev-instructions,122,789982,NA,650.7000000476837,<p>Try your best! You will be paid a bonus based on how many correct responses you make!</p><p>Responses that are too slow will not count toward your bonus.</p>,NA,NA,NA,NA,NA,NA,NA,NA,NA,3,6,"1,8,9,11,14,6,4,12,2,10,5,15,7,13,3"
15359,commdev-instructions,123,797434,NA,1252.8000001907349,"<p>You are almost ready to start the real game.</p><p> First, we are going to ask you some questions about how the game works.</p>",NA,NA,NA,NA,NA,NA,NA,NA,NA,3,6,"1,8,9,11,14,6,4,12,2,10,5,15,7,13,3"
15359,commdev-instructions,132,884418,NA,2786.5999999046326,"<p> Nice work! It is now time to start the real game.<p></p>You will go on two missions to record wind directions of different planets.<p></p>Each one will take about 5 minutes. You will get to take a break between missions.<p><p> Remember, press <strong>F</strong> or <strong>J</strong> depending on the wind direction. Good luck!<br><img src=""img/categorize_planet_example.png""",NA,NA,NA,NA,NA,NA,NA,NA,NA,3,6,"1,8,9,11,14,6,4,12,2,10,5,15,7,13,3"
15359,commdev-image-keyboard-response,134,887769,learnblock1,884.9000000953674,img/planet15_left.png,15,Community 3,NA,TRUE,f,f,NA,NA,NA,3,6,"1,8,9,11,14,6,4,12,2,10,5,15,7,13,3"
15359,commdev-image-keyboard-response,135,889035,learnblock1,654.2000000476837,img/planet13_right.png,13,Community 3,NA,TRUE,j,j,NA,NA,NA,3,6,"1,8,9,11,14,6,4,12,2,10,5,15,7,13,3"
15359,commdev-image-keyboard-response,136,890300,learnblock1,915.7000000476837,img/planet3_right.png,3,Community 3,NA,TRUE,j,j,NA,NA,NA,3,6,"1,8,9,11,14,6,4,12,2,10,5,15,7,13,3"
15359,commdev-image-keyboard-response,137,891565,learnblock1,604.4000000953674,img/planet5_right.png,5,Community 3,NA,TRUE,j,j,NA,NA,NA,3,6,"1,8,9,11,14,6,4,12,2,10,5,15,7,13,3"
15359,commdev-image-keyboard-response,138,892818,learnblock1,490,img/planet7_left.png,7,Community 3,NA,TRUE,f,f,NA,NA,NA,3,6,"1,8,9,11,14,6,4,12,2,10,5,15,7,13,3"
15359,commdev-image-keyboard-response,139,894072,learnblock1,644.1000001430511,img/planet5_right.png,5,Community 3,NA,TRUE,j,j,NA,NA,NA,3,6,"1,8,9,11,14,6,4,12,2,10,5,15,7,13,3"
15359,commdev-image-keyboard-response,140,895329,learnblock1,671.2000000476837,img/planet7_right.png,7,Community 3,NA,TRUE,j,j,NA,NA,NA,3,6,"1,8,9,11,14,6,4,12,2,10,5,15,7,13,3"
15359,commdev-image-keyboard-response,141,896588,learnblock1,503.89999985694885,img/planet5_right.png,5,Community 3,NA,TRUE,j,j,NA,NA,NA,3,6,"1,8,9,11,14,6,4,12,2,10,5,15,7,13,3"
15359,commdev-image-keyboard-response,142,897854,learnblock1,826.9000000953674,img/planet3_right.png,3,Community 3,NA,FALSE,f,j,NA,NA,NA,3,6,"1,8,9,11,14,6,4,12,2,10,5,15,7,13,3"
15359,commdev-image-keyboard-response,143,899120,learnblock1,809.6000001430511,img/planet15_left.png,15,Community 3,NA,TRUE,f,f,NA,NA,NA,3,6,"1,8,9,11,14,6,4,12,2,10,5,15,7,13,3"
15359,commdev-image-keyboard-response,144,900374,learnblock1,631.6000001430511,img/planet12_left.png,12,Community 2,NA,TRUE,f,f,NA,NA,NA,3,6,"1,8,9,11,14,6,4,12,2,10,5,15,7,13,3"
15359,commdev-image-keyboard-response,145,901635,learnblock1,587.1000001430511,img/planet4_left.png,4,Community 2,NA,TRUE,f,f,NA,NA,NA,3,6,"1,8,9,11,14,6,4,12,2,10,5,15,7,13,3"
15359,commdev-image-keyboard-response,146,902902,learnblock1,818.7999999523163,img/planet10_right.png,10,Community 2,NA,TRUE,j,j,NA,NA,NA,3,6,"1,8,9,11,14,6,4,12,2,10,5,15,7,13,3"
15359,commdev-image-keyboard-response,147,904155,learnblock1,null,img/planet6_right.png,6,Community 2,NA,FALSE,null,j,NA,NA,NA,3,6,"1,8,9,11,14,6,4,12,2,10,5,15,7,13,3"
15359,commdev-image-keyboard-response,148,905419,learnblock1,125.39999985694885,img/planet4_right.png,4,Community 2,NA,TRUE,j,j,NA,NA,NA,3,6,"1,8,9,11,14,6,4,12,2,10,5,15,7,13,3"
15359,commdev-image-keyboard-response,149,906685,learnblock1,10.400000095367432,img/planet2_left.png,2,Community 2,NA,FALSE,j,f,NA,NA,NA,3,6,"1,8,9,11,14,6,4,12,2,10,5,15,7,13,3"
15359,commdev-image-keyboard-response,150,907949,learnblock1,626.7999999523163,img/planet10_left.png,10,Community 2,NA,TRUE,f,f,NA,NA,NA,3,6,"1,8,9,11,14,6,4,12,2,10,5,15,7,13,3"
15359,commdev-image-keyboard-response,151,909202,learnblock1,552.4000000953674,img/planet4_right.png,4,Community 2,NA,TRUE,j,j,NA,NA,NA,3,6,"1,8,9,11,14,6,4,12,2,10,5,15,7,13,3"
15359,commdev-image-keyboard-response,152,910461,learnblock1,579.9000000953674,img/planet2_right.png,2,Community 2,NA,TRUE,j,j,NA,NA,NA,3,6,"1,8,9,11,14,6,4,12,2,10,5,15,7,13,3"
15359,commdev-image-keyboard-response,153,911713,learnblock1,616.5999999046326,img/planet10_right.png,10,Community 2,NA,TRUE,j,j,NA,NA,NA,3,6,"1,8,9,11,14,6,4,12,2,10,5,15,7,13,3"
15359,commdev-image-keyboard-response,154,912966,learnblock1,532.9000000953674,img/planet4_right.png,4,Community 2,NA,TRUE,j,j,NA,NA,NA,3,6,"1,8,9,11,14,6,4,12,2,10,5,15,7,13,3"
15359,commdev-image-keyboard-response,155,914218,learnblock1,536.7000000476837,img/planet12_left.png,12,Community 2,NA,TRUE,f,f,NA,NA,NA,3,6,"1,8,9,11,14,6,4,12,2,10,5,15,7,13,3"
15359,commdev-image-keyboard-response,156,915479,learnblock1,470.7999999523163,img/planet2_right.png,2,Community 2,NA,TRUE,j,j,NA,NA,NA,3,6,"1,8,9,11,14,6,4,12,2,10,5,15,7,13,3"
15359,commdev-image-keyboard-response,157,916732,learnblock1,455.40000009536743,img/planet4_left.png,4,Community 2,NA,FALSE,j,f,NA,NA,NA,3,6,"1,8,9,11,14,6,4,12,2,10,5,15,7,13,3"
15359,commdev-image-keyboard-response,158,917985,learnblock1,146.40000009536743,img/planet2_left.png,2,Community 2,NA,TRUE,f,f,NA,NA,NA,3,6,"1,8,9,11,14,6,4,12,2,10,5,15,7,13,3"
15359,commdev-image-keyboard-response,159,919236,learnblock1,510.40000009536743,img/planet12_right.png,12,Community 2,NA,TRUE,j,j,NA,NA,NA,3,6,"1,8,9,11,14,6,4,12,2,10,5,15,7,13,3"
15359,commdev-image-keyboard-response,160,920488,learnblock1,555.0999999046326,img/planet10_left.png,10,Community 2,NA,TRUE,f,f,NA,NA,NA,3,6,"1,8,9,11,14,6,4,12,2,10,5,15,7,13,3"
15359,commdev-image-keyboard-response,161,921741,learnblock1,775.5,img/planet6_right.png,6,Community 2,NA,TRUE,j,j,NA,NA,NA,3,6,"1,8,9,11,14,6,4,12,2,10,5,15,7,13,3"
15359,commdev-image-keyboard-response,162,922999,learnblock1,556,img/planet10_right.png,10,Community 2,NA,TRUE,j,j,NA,NA,NA,3,6,"1,8,9,11,14,6,4,12,2,10,5,15,7,13,3"
15359,commdev-image-keyboard-response,163,924250,learnblock1,583.2000000476837,img/planet12_right.png,12,Community 2,NA,TRUE,j,j,NA,NA,NA,3,6,"1,8,9,11,14,6,4,12,2,10,5,15,7,13,3"
15359,commdev-image-keyboard-response,164,925503,learnblock1,575,img/planet2_right.png,2,Community 2,NA,TRUE,j,j,NA,NA,NA,3,6,"1,8,9,11,14,6,4,12,2,10,5,15,7,13,3"
15359,commdev-image-keyboard-response,165,926755,learnblock1,584.4000000953674,img/planet6_right.png,6,Community 2,NA,TRUE,j,j,NA,NA,NA,3,6,"1,8,9,11,14,6,4,12,2,10,5,15,7,13,3"
15359,commdev-image-keyboard-response,166,928006,learnblock1,693.4000000953674,img/planet11_left.png,11,Community 1,NA,TRUE,f,f,NA,NA,NA,3,6,"1,8,9,11,14,6,4,12,2,10,5,15,7,13,3"
15359,commdev-image-keyboard-response,167,929258,learnblock1,729,img/planet8_left.png,8,Community 1,NA,TRUE,f,f,NA,NA,NA,3,6,"1,8,9,11,14,6,4,12,2,10,5,15,7,13,3"
15359,commdev-image-keyboard-response,168,930510,learnblock1,622.5,img/planet11_right.png,11,Community 1,NA,TRUE,j,j,NA,NA,NA,3,6,"1,8,9,11,14,6,4,12,2,10,5,15,7,13,3"
15359,commdev-image-keyboard-response,169,931762,learnblock1,728.7999999523163,img/planet1_right.png,1,Community 1,NA,TRUE,j,j,NA,NA,NA,3,6,"1,8,9,11,14,6,4,12,2,10,5,15,7,13,3"
15359,commdev-image-keyboard-response,170,933013,learnblock1,550.7999999523163,img/planet14_left.png,14,Community 1,NA,FALSE,j,f,NA,NA,NA,3,6,"1,8,9,11,14,6,4,12,2,10,5,15,7,13,3"
15359,commdev-image-keyboard-response,171,934265,learnblock1,770.9000000953674,img/planet8_right.png,8,Community 1,NA,TRUE,j,j,NA,NA,NA,3,6,"1,8,9,11,14,6,4,12,2,10,5,15,7,13,3"
15359,commdev-image-keyboard-response,172,935517,learnblock1,569.2999999523163,img/planet11_left.png,11,Community 1,NA,TRUE,f,f,NA,NA,NA,3,6,"1,8,9,11,14,6,4,12,2,10,5,15,7,13,3"
15359,commdev-image-keyboard-response,173,936769,learnblock1,1250,img/planet1_right.png,1,Community 1,NA,TRUE,j,j,NA,NA,NA,3,6,"1,8,9,11,14,6,4,12,2,10,5,15,7,13,3"
15359,commdev-image-keyboard-response,174,938021,learnblock1,653.7999999523163,img/planet11_left.png,11,Community 1,NA,TRUE,f,f,NA,NA,NA,3,6,"1,8,9,11,14,6,4,12,2,10,5,15,7,13,3"
15359,commdev-image-keyboard-response,175,939273,learnblock1,651.2000000476837,img/planet9_right.png,9,Community 1,NA,TRUE,j,j,NA,NA,NA,3,6,"1,8,9,11,14,6,4,12,2,10,5,15,7,13,3"
15359,commdev-image-keyboard-response,176,940524,learnblock1,799.3999998569489,img/planet11_left.png,11,Community 1,NA,TRUE,f,f,NA,NA,NA,3,6,"1,8,9,11,14,6,4,12,2,10,5,15,7,13,3"
15359,commdev-image-keyboard-response,177,941776,learnblock1,603.1000001430511,img/planet1_left.png,1,Community 1,NA,TRUE,f,f,NA,NA,NA,3,6,"1,8,9,11,14,6,4,12,2,10,5,15,7,13,3"
15359,commdev-image-keyboard-response,178,943028,learnblock1,721.2999999523163,img/planet11_right.png,11,Community 1,NA,TRUE,j,j,NA,NA,NA,3,6,"1,8,9,11,14,6,4,12,2,10,5,15,7,13,3"
15359,commdev-image-keyboard-response,179,944280,learnblock1,771,img/planet6_left.png,6,Community 2,NA,TRUE,f,f,NA,NA,NA,3,6,"1,8,9,11,14,6,4,12,2,10,5,15,7,13,3"
15359,commdev-image-keyboard-response,180,945533,learnblock1,686.7000000476837,img/planet10_left.png,10,Community 2,NA,TRUE,f,f,NA,NA,NA,3,6,"1,8,9,11,14,6,4,12,2,10,5,15,7,13,3"
15359,commdev-image-keyboard-response,181,946785,learnblock1,618,img/planet12_left.png,12,Community 2,NA,TRUE,f,f,NA,NA,NA,3,6,"1,8,9,11,14,6,4,12,2,10,5,15,7,13,3"
15359,commdev-image-keyboard-response,182,948037,learnblock1,414.09999990463257,img/planet4_right.png,4,Community 2,NA,TRUE,j,j,NA,NA,NA,3,6,"1,8,9,11,14,6,4,12,2,10,5,15,7,13,3"
15359,commdev-image-keyboard-response,183,949289,learnblock1,515.1000001430511,img/planet10_right.png,10,Community 2,NA,TRUE,j,j,NA,NA,NA,3,6,"1,8,9,11,14,6,4,12,2,10,5,15,7,13,3"
15359,commdev-image-keyboard-response,184,950543,learnblock1,484.2000000476837,img/planet2_left.png,2,Community 2,NA,TRUE,f,f,NA,NA,NA,3,6,"1,8,9,11,14,6,4,12,2,10,5,15,7,13,3"
15359,commdev-image-keyboard-response,185,951795,learnblock1,495.59999990463257,img/planet4_left.png,4,Community 2,NA,TRUE,f,f,NA,NA,NA,3,6,"1,8,9,11,14,6,4,12,2,10,5,15,7,13,3"
15359,commdev-image-keyboard-response,186,953047,learnblock1,531.9000000953674,img/planet6_right.png,6,Community 2,NA,TRUE,j,j,NA,NA,NA,3,6,"1,8,9,11,14,6,4,12,2,10,5,15,7,13,3"
15359,commdev-image-keyboard-response,187,954299,learnblock1,466.10000014305115,img/planet10_right.png,10,Community 2,NA,TRUE,j,j,NA,NA,NA,3,6,"1,8,9,11,14,6,4,12,2,10,5,15,7,13,3"
15359,commdev-image-keyboard-response,188,955552,learnblock1,555.5,img/planet6_left.png,6,Community 2,NA,TRUE,f,f,NA,NA,NA,3,6,"1,8,9,11,14,6,4,12,2,10,5,15,7,13,3"
15359,commdev-image-keyboard-response,189,956804,learnblock1,607.6000001430511,img/planet11_left.png,11,Community 1,NA,TRUE,f,f,NA,NA,NA,3,6,"1,8,9,11,14,6,4,12,2,10,5,15,7,13,3"
15359,commdev-image-keyboard-response,190,958056,learnblock1,483.2000000476837,img/planet9_right.png,9,Community 1,NA,TRUE,j,j,NA,NA,NA,3,6,"1,8,9,11,14,6,4,12,2,10,5,15,7,13,3"
15359,commdev-image-keyboard-response,191,959308,learnblock1,671,img/planet11_right.png,11,Community 1,NA,FALSE,f,j,NA,NA,NA,3,6,"1,8,9,11,14,6,4,12,2,10,5,15,7,13,3"
15359,commdev-image-keyboard-response,192,960560,learnblock1,923.2999999523163,img/planet8_left.png,8,Community 1,NA,TRUE,f,f,NA,NA,NA,3,6,"1,8,9,11,14,6,4,12,2,10,5,15,7,13,3"
15359,commdev-image-keyboard-response,193,961812,learnblock1,767,img/planet1_left.png,1,Community 1,NA,TRUE,f,f,NA,NA,NA,3,6,"1,8,9,11,14,6,4,12,2,10,5,15,7,13,3"
15359,commdev-image-keyboard-response,194,963064,learnblock1,531.1000001430511,img/planet14_right.png,14,Community 1,NA,TRUE,j,j,NA,NA,NA,3,6,"1,8,9,11,14,6,4,12,2,10,5,15,7,13,3"
15359,commdev-image-keyboard-response,195,964315,learnblock1,561.0999999046326,img/planet9_right.png,9,Community 1,NA,TRUE,j,j,NA,NA,NA,3,6,"1,8,9,11,14,6,4,12,2,10,5,15,7,13,3"
15359,commdev-image-keyboard-response,196,965568,learnblock1,795.7999999523163,img/planet8_right.png,8,Community 1,NA,TRUE,j,j,NA,NA,NA,3,6,"1,8,9,11,14,6,4,12,2,10,5,15,7,13,3"
15359,commdev-image-keyboard-response,197,966820,learnblock1,711.4000000953674,img/planet14_right.png,14,Community 1,NA,TRUE,j,j,NA,NA,NA,3,6,"1,8,9,11,14,6,4,12,2,10,5,15,7,13,3"
15359,commdev-image-keyboard-response,198,968072,learnblock1,554.8999998569489,img/planet5_left.png,5,Community 3,NA,TRUE,f,f,NA,NA,NA,3,6,"1,8,9,11,14,6,4,12,2,10,5,15,7,13,3"
15359,commdev-image-keyboard-response,199,969324,learnblock1,752.9000000953674,img/planet3_left.png,3,Community 3,NA,TRUE,f,f,NA,NA,NA,3,6,"1,8,9,11,14,6,4,12,2,10,5,15,7,13,3"
15359,commdev-image-keyboard-response,200,970575,learnblock1,851.2999999523163,img/planet5_right.png,5,Community 3,NA,TRUE,j,j,NA,NA,NA,3,6,"1,8,9,11,14,6,4,12,2,10,5,15,7,13,3"
15359,commdev-image-keyboard-response,201,971828,learnblock1,599.5999999046326,img/planet13_left.png,13,Community 3,NA,TRUE,f,f,NA,NA,NA,3,6,"1,8,9,11,14,6,4,12,2,10,5,15,7,13,3"
15359,commdev-image-keyboard-response,202,973086,learnblock1,651.4000000953674,img/planet5_left.png,5,Community 3,NA,TRUE,f,f,NA,NA,NA,3,6,"1,8,9,11,14,6,4,12,2,10,5,15,7,13,3"
15359,commdev-image-keyboard-response,203,974339,learnblock1,null,img/planet7_left.png,7,Community 3,NA,FALSE,null,f,NA,NA,NA,3,6,"1,8,9,11,14,6,4,12,2,10,5,15,7,13,3"
15359,commdev-image-keyboard-response,204,975591,learnblock1,3.4000000953674316,img/planet3_left.png,3,Community 3,NA,TRUE,f,f,NA,NA,NA,3,6,"1,8,9,11,14,6,4,12,2,10,5,15,7,13,3"
15359,commdev-image-keyboard-response,205,976844,learnblock1,607.2999999523163,img/planet5_left.png,5,Community 3,NA,TRUE,f,f,NA,NA,NA,3,6,"1,8,9,11,14,6,4,12,2,10,5,15,7,13,3"
15359,commdev-image-keyboard-response,206,978096,learnblock1,674,img/planet13_right.png,13,Community 3,NA,TRUE,j,j,NA,NA,NA,3,6,"1,8,9,11,14,6,4,12,2,10,5,15,7,13,3"
15359,commdev-image-keyboard-response,207,979347,learnblock1,737.7000000476837,img/planet7_right.png,7,Community 3,NA,TRUE,j,j,NA,NA,NA,3,6,"1,8,9,11,14,6,4,12,2,10,5,15,7,13,3"
15359,commdev-image-keyboard-response,208,980598,learnblock1,749.6999998092651,img/planet15_left.png,15,Community 3,NA,FALSE,j,f,NA,NA,NA,3,6,"1,8,9,11,14,6,4,12,2,10,5,15,7,13,3"
15359,commdev-image-keyboard-response,209,981850,learnblock1,1103.9000000953674,img/planet7_left.png,7,Community 3,NA,TRUE,f,f,NA,NA,NA,3,6,"1,8,9,11,14,6,4,12,2,10,5,15,7,13,3"
15359,commdev-image-keyboard-response,210,983101,learnblock1,719.9000000953674,img/planet15_right.png,15,Community 3,NA,TRUE,j,j,NA,NA,NA,3,6,"1,8,9,11,14,6,4,12,2,10,5,15,7,13,3"
15359,commdev-image-keyboard-response,211,984354,learnblock1,784.2000000476837,img/planet13_right.png,13,Community 3,NA,TRUE,j,j,NA,NA,NA,3,6,"1,8,9,11,14,6,4,12,2,10,5,15,7,13,3"
15359,commdev-image-keyboard-response,212,985606,learnblock1,514.7000000476837,img/planet7_right.png,7,Community 3,NA,TRUE,j,j,NA,NA,NA,3,6,"1,8,9,11,14,6,4,12,2,10,5,15,7,13,3"
15359,commdev-image-keyboard-response,213,986859,learnblock1,640.8000001907349,img/planet13_right.png,13,Community 3,NA,TRUE,j,j,NA,NA,NA,3,6,"1,8,9,11,14,6,4,12,2,10,5,15,7,13,3"
15359,commdev-image-keyboard-response,214,988111,learnblock1,507.7000000476837,img/planet7_left.png,7,Community 3,NA,TRUE,f,f,NA,NA,NA,3,6,"1,8,9,11,14,6,4,12,2,10,5,15,7,13,3"
15359,commdev-image-keyboard-response,215,989364,learnblock1,648.3999998569489,img/planet5_right.png,5,Community 3,NA,TRUE,j,j,NA,NA,NA,3,6,"1,8,9,11,14,6,4,12,2,10,5,15,7,13,3"
15359,commdev-image-keyboard-response,216,990616,learnblock1,851.6000001430511,img/planet3_left.png,3,Community 3,NA,FALSE,j,f,NA,NA,NA,3,6,"1,8,9,11,14,6,4,12,2,10,5,15,7,13,3"
15359,commdev-image-keyboard-response,217,991883,learnblock1,693.2000000476837,img/planet5_right.png,5,Community 3,NA,TRUE,j,j,NA,NA,NA,3,6,"1,8,9,11,14,6,4,12,2,10,5,15,7,13,3"
15359,commdev-image-keyboard-response,218,993135,learnblock1,899.5999999046326,img/planet7_right.png,7,Community 3,NA,TRUE,j,j,NA,NA,NA,3,6,"1,8,9,11,14,6,4,12,2,10,5,15,7,13,3"
15359,commdev-image-keyboard-response,219,994388,learnblock1,513.2000000476837,img/planet5_right.png,5,Community 3,NA,TRUE,j,j,NA,NA,NA,3,6,"1,8,9,11,14,6,4,12,2,10,5,15,7,13,3"
15359,commdev-image-keyboard-response,220,995640,learnblock1,603,img/planet7_left.png,7,Community 3,NA,TRUE,f,f,NA,NA,NA,3,6,"1,8,9,11,14,6,4,12,2,10,5,15,7,13,3"
15359,commdev-image-keyboard-response,221,996891,learnblock1,639.9000000953674,img/planet15_right.png,15,Community 3,NA,TRUE,j,j,NA,NA,NA,3,6,"1,8,9,11,14,6,4,12,2,10,5,15,7,13,3"
15359,commdev-image-keyboard-response,222,998143,learnblock1,573.6999998092651,img/planet13_left.png,13,Community 3,NA,TRUE,f,f,NA,NA,NA,3,6,"1,8,9,11,14,6,4,12,2,10,5,15,7,13,3"
15359,commdev-image-keyboard-response,223,999396,learnblock1,662.5999999046326,img/planet5_right.png,5,Community 3,NA,TRUE,j,j,NA,NA,NA,3,6,"1,8,9,11,14,6,4,12,2,10,5,15,7,13,3"
15359,commdev-image-keyboard-response,224,1000649,learnblock1,754.5999999046326,img/planet13_right.png,13,Community 3,NA,TRUE,j,j,NA,NA,NA,3,6,"1,8,9,11,14,6,4,12,2,10,5,15,7,13,3"
15359,commdev-image-keyboard-response,225,1001901,learnblock1,477.7999999523163,img/planet5_right.png,5,Community 3,NA,TRUE,j,j,NA,NA,NA,3,6,"1,8,9,11,14,6,4,12,2,10,5,15,7,13,3"
15359,commdev-image-keyboard-response,226,1003153,learnblock1,490.7999999523163,img/planet7_left.png,7,Community 3,NA,TRUE,f,f,NA,NA,NA,3,6,"1,8,9,11,14,6,4,12,2,10,5,15,7,13,3"
15359,commdev-image-keyboard-response,227,1004406,learnblock1,526.9000000953674,img/planet3_left.png,3,Community 3,NA,TRUE,f,f,NA,NA,NA,3,6,"1,8,9,11,14,6,4,12,2,10,5,15,7,13,3"
15359,commdev-image-keyboard-response,228,1005657,learnblock1,506.7999999523163,img/planet5_right.png,5,Community 3,NA,TRUE,j,j,NA,NA,NA,3,6,"1,8,9,11,14,6,4,12,2,10,5,15,7,13,3"
15359,commdev-image-keyboard-response,229,1006909,learnblock1,509.89999985694885,img/planet3_right.png,3,Community 3,NA,TRUE,j,j,NA,NA,NA,3,6,"1,8,9,11,14,6,4,12,2,10,5,15,7,13,3"
15359,commdev-image-keyboard-response,230,1008161,learnblock1,505,img/planet15_left.png,15,Community 3,NA,TRUE,f,f,NA,NA,NA,3,6,"1,8,9,11,14,6,4,12,2,10,5,15,7,13,3"
15359,commdev-image-keyboard-response,231,1009413,learnblock1,422,img/planet13_right.png,13,Community 3,NA,TRUE,j,j,NA,NA,NA,3,6,"1,8,9,11,14,6,4,12,2,10,5,15,7,13,3"
15359,commdev-image-keyboard-response,232,1010664,learnblock1,588.6000001430511,img/planet5_left.png,5,Community 3,NA,TRUE,f,f,NA,NA,NA,3,6,"1,8,9,11,14,6,4,12,2,10,5,15,7,13,3"
15359,commdev-image-keyboard-response,233,1011916,learnblock1,511.5,img/planet7_right.png,7,Community 3,NA,TRUE,j,j,NA,NA,NA,3,6,"1,8,9,11,14,6,4,12,2,10,5,15,7,13,3"
15359,commdev-image-keyboard-response,234,1013167,learnblock1,667.5,img/planet3_right.png,3,Community 3,NA,TRUE,j,j,NA,NA,NA,3,6,"1,8,9,11,14,6,4,12,2,10,5,15,7,13,3"
15359,commdev-image-keyboard-response,235,1014419,learnblock1,488.2999999523163,img/planet13_right.png,13,Community 3,NA,FALSE,f,j,NA,NA,NA,3,6,"1,8,9,11,14,6,4,12,2,10,5,15,7,13,3"
15359,commdev-image-keyboard-response,236,1015670,learnblock1,1156.5,img/planet15_right.png,15,Community 3,NA,TRUE,j,j,NA,NA,NA,3,6,"1,8,9,11,14,6,4,12,2,10,5,15,7,13,3"
15359,commdev-image-keyboard-response,237,1016923,learnblock1,671.2000000476837,img/planet7_left.png,7,Community 3,NA,TRUE,f,f,NA,NA,NA,3,6,"1,8,9,11,14,6,4,12,2,10,5,15,7,13,3"
15359,commdev-image-keyboard-response,238,1018175,learnblock1,684.2000000476837,img/planet13_left.png,13,Community 3,NA,TRUE,f,f,NA,NA,NA,3,6,"1,8,9,11,14,6,4,12,2,10,5,15,7,13,3"
15359,commdev-image-keyboard-response,239,1019427,learnblock1,791.0999999046326,img/planet7_right.png,7,Community 3,NA,TRUE,j,j,NA,NA,NA,3,6,"1,8,9,11,14,6,4,12,2,10,5,15,7,13,3"
15359,commdev-image-keyboard-response,240,1020679,learnblock1,659.5999999046326,img/planet5_left.png,5,Community 3,NA,TRUE,f,f,NA,NA,NA,3,6,"1,8,9,11,14,6,4,12,2,10,5,15,7,13,3"
15359,commdev-image-keyboard-response,241,1021931,learnblock1,958.2999999523163,img/planet7_left.png,7,Community 3,NA,TRUE,f,f,NA,NA,NA,3,6,"1,8,9,11,14,6,4,12,2,10,5,15,7,13,3"
15359,commdev-image-keyboard-response,242,1023183,learnblock1,786.7999999523163,img/planet5_right.png,5,Community 3,NA,FALSE,f,j,NA,NA,NA,3,6,"1,8,9,11,14,6,4,12,2,10,5,15,7,13,3"
15359,commdev-image-keyboard-response,243,1024435,learnblock1,872.7000000476837,img/planet3_right.png,3,Community 3,NA,TRUE,j,j,NA,NA,NA,3,6,"1,8,9,11,14,6,4,12,2,10,5,15,7,13,3"
15359,commdev-image-keyboard-response,244,1025688,learnblock1,603.4000000953674,img/planet7_left.png,7,Community 3,NA,TRUE,f,f,NA,NA,NA,3,6,"1,8,9,11,14,6,4,12,2,10,5,15,7,13,3"
15359,commdev-image-keyboard-response,245,1026939,learnblock1,479.90000009536743,img/planet15_right.png,15,Community 3,NA,TRUE,j,j,NA,NA,NA,3,6,"1,8,9,11,14,6,4,12,2,10,5,15,7,13,3"
15359,commdev-image-keyboard-response,246,1028191,learnblock1,660.0999999046326,img/planet3_right.png,3,Community 3,NA,TRUE,j,j,NA,NA,NA,3,6,"1,8,9,11,14,6,4,12,2,10,5,15,7,13,3"
15359,commdev-image-keyboard-response,247,1029443,learnblock1,735.8999998569489,img/planet13_left.png,13,Community 3,NA,TRUE,f,f,NA,NA,NA,3,6,"1,8,9,11,14,6,4,12,2,10,5,15,7,13,3"
15359,commdev-image-keyboard-response,248,1030696,learnblock1,555.2999999523163,img/planet5_right.png,5,Community 3,NA,TRUE,j,j,NA,NA,NA,3,6,"1,8,9,11,14,6,4,12,2,10,5,15,7,13,3"
15359,commdev-image-keyboard-response,249,1031954,learnblock1,775,img/planet7_right.png,7,Community 3,NA,TRUE,j,j,NA,NA,NA,3,6,"1,8,9,11,14,6,4,12,2,10,5,15,7,13,3"
15359,commdev-image-keyboard-response,250,1033205,learnblock1,709.2000000476837,img/planet3_left.png,3,Community 3,NA,TRUE,f,f,NA,NA,NA,3,6,"1,8,9,11,14,6,4,12,2,10,5,15,7,13,3"
15359,commdev-image-keyboard-response,251,1034457,learnblock1,554.1000001430511,img/planet7_left.png,7,Community 3,NA,TRUE,f,f,NA,NA,NA,3,6,"1,8,9,11,14,6,4,12,2,10,5,15,7,13,3"
15359,commdev-image-keyboard-response,252,1035710,learnblock1,717.2999999523163,img/planet5_left.png,5,Community 3,NA,TRUE,f,f,NA,NA,NA,3,6,"1,8,9,11,14,6,4,12,2,10,5,15,7,13,3"
15359,commdev-image-keyboard-response,253,1036963,learnblock1,577.0999999046326,img/planet3_right.png,3,Community 3,NA,TRUE,j,j,NA,NA,NA,3,6,"1,8,9,11,14,6,4,12,2,10,5,15,7,13,3"
15359,commdev-image-keyboard-response,254,1038215,learnblock1,779.1000001430511,img/planet5_right.png,5,Community 3,NA,TRUE,j,j,NA,NA,NA,3,6,"1,8,9,11,14,6,4,12,2,10,5,15,7,13,3"
15359,commdev-image-keyboard-response,255,1039467,learnblock1,1086.3999998569489,img/planet7_left.png,7,Community 3,NA,FALSE,j,f,NA,NA,NA,3,6,"1,8,9,11,14,6,4,12,2,10,5,15,7,13,3"
15359,commdev-image-keyboard-response,256,1040719,learnblock1,835.7999999523163,img/planet3_left.png,3,Community 3,NA,TRUE,f,f,NA,NA,NA,3,6,"1,8,9,11,14,6,4,12,2,10,5,15,7,13,3"
15359,commdev-image-keyboard-response,257,1041971,learnblock1,663.7000000476837,img/planet13_left.png,13,Community 3,NA,TRUE,f,f,NA,NA,NA,3,6,"1,8,9,11,14,6,4,12,2,10,5,15,7,13,3"
15359,commdev-image-keyboard-response,258,1043223,learnblock1,659.5999999046326,img/planet5_left.png,5,Community 3,NA,TRUE,f,f,NA,NA,NA,3,6,"1,8,9,11,14,6,4,12,2,10,5,15,7,13,3"
15359,commdev-image-keyboard-response,259,1044476,learnblock1,975.7999999523163,img/planet3_right.png,3,Community 3,NA,FALSE,f,j,NA,NA,NA,3,6,"1,8,9,11,14,6,4,12,2,10,5,15,7,13,3"
15359,commdev-image-keyboard-response,260,1045728,learnblock1,731.1000001430511,img/planet7_left.png,7,Community 3,NA,TRUE,f,f,NA,NA,NA,3,6,"1,8,9,11,14,6,4,12,2,10,5,15,7,13,3"
15359,commdev-image-keyboard-response,261,1046980,learnblock1,534.2999999523163,img/planet3_right.png,3,Community 3,NA,TRUE,j,j,NA,NA,NA,3,6,"1,8,9,11,14,6,4,12,2,10,5,15,7,13,3"
15359,commdev-image-keyboard-response,262,1048246,learnblock1,659.9000000953674,img/planet7_left.png,7,Community 3,NA,TRUE,f,f,NA,NA,NA,3,6,"1,8,9,11,14,6,4,12,2,10,5,15,7,13,3"
15359,commdev-image-keyboard-response,263,1049498,learnblock1,680.5,img/planet13_left.png,13,Community 3,NA,TRUE,f,f,NA,NA,NA,3,6,"1,8,9,11,14,6,4,12,2,10,5,15,7,13,3"
15359,commdev-image-keyboard-response,264,1050750,learnblock1,502.2999999523163,img/planet15_left.png,15,Community 3,NA,TRUE,f,f,NA,NA,NA,3,6,"1,8,9,11,14,6,4,12,2,10,5,15,7,13,3"
15359,commdev-image-keyboard-response,265,1052003,learnblock1,480,img/planet13_right.png,13,Community 3,NA,TRUE,j,j,NA,NA,NA,3,6,"1,8,9,11,14,6,4,12,2,10,5,15,7,13,3"
15359,commdev-image-keyboard-response,266,1053256,learnblock1,603.6999998092651,img/planet15_right.png,15,Community 3,NA,TRUE,j,j,NA,NA,NA,3,6,"1,8,9,11,14,6,4,12,2,10,5,15,7,13,3"
15359,commdev-image-keyboard-response,267,1054508,learnblock1,590.7000000476837,img/planet13_left.png,13,Community 3,NA,TRUE,f,f,NA,NA,NA,3,6,"1,8,9,11,14,6,4,12,2,10,5,15,7,13,3"
15359,commdev-image-keyboard-response,268,1055760,learnblock1,619.1000001430511,img/planet7_left.png,7,Community 3,NA,FALSE,j,f,NA,NA,NA,3,6,"1,8,9,11,14,6,4,12,2,10,5,15,7,13,3"
15359,commdev-image-keyboard-response,269,1057012,learnblock1,679.8999998569489,img/planet13_left.png,13,Community 3,NA,TRUE,f,f,NA,NA,NA,3,6,"1,8,9,11,14,6,4,12,2,10,5,15,7,13,3"
15359,commdev-image-keyboard-response,270,1058263,learnblock1,547.5,img/planet7_left.png,7,Community 3,NA,TRUE,f,f,NA,NA,NA,3,6,"1,8,9,11,14,6,4,12,2,10,5,15,7,13,3"
15359,commdev-image-keyboard-response,271,1059515,learnblock1,671.8999998569489,img/planet5_left.png,5,Community 3,NA,TRUE,f,f,NA,NA,NA,3,6,"1,8,9,11,14,6,4,12,2,10,5,15,7,13,3"
15359,commdev-image-keyboard-response,272,1060768,learnblock1,533.7999999523163,img/planet14_right.png,14,Community 1,NA,TRUE,j,j,NA,NA,NA,3,6,"1,8,9,11,14,6,4,12,2,10,5,15,7,13,3"
15359,commdev-image-keyboard-response,273,1062020,learnblock1,657.2000000476837,img/planet5_left.png,5,Community 3,NA,TRUE,f,f,NA,NA,NA,3,6,"1,8,9,11,14,6,4,12,2,10,5,15,7,13,3"
15359,commdev-image-keyboard-response,274,1063271,learnblock1,482.90000009536743,img/planet7_right.png,7,Community 3,NA,TRUE,j,j,NA,NA,NA,3,6,"1,8,9,11,14,6,4,12,2,10,5,15,7,13,3"
15359,commdev-image-keyboard-response,275,1064524,learnblock1,472.7000000476837,img/planet3_right.png,3,Community 3,NA,TRUE,j,j,NA,NA,NA,3,6,"1,8,9,11,14,6,4,12,2,10,5,15,7,13,3"
15359,commdev-image-keyboard-response,276,1065777,learnblock1,730.7000000476837,img/planet7_left.png,7,Community 3,NA,TRUE,f,f,NA,NA,NA,3,6,"1,8,9,11,14,6,4,12,2,10,5,15,7,13,3"
15359,commdev-image-keyboard-response,277,1067028,learnblock1,630.6000001430511,img/planet15_left.png,15,Community 3,NA,TRUE,f,f,NA,NA,NA,3,6,"1,8,9,11,14,6,4,12,2,10,5,15,7,13,3"
15359,commdev-image-keyboard-response,278,1068280,learnblock1,1021.2999999523163,img/planet3_left.png,3,Community 3,NA,TRUE,f,f,NA,NA,NA,3,6,"1,8,9,11,14,6,4,12,2,10,5,15,7,13,3"
15359,commdev-image-keyboard-response,279,1069532,learnblock1,688.6000001430511,img/planet5_right.png,5,Community 3,NA,TRUE,j,j,NA,NA,NA,3,6,"1,8,9,11,14,6,4,12,2,10,5,15,7,13,3"
15359,commdev-image-keyboard-response,280,1070785,learnblock1,null,img/planet13_left.png,13,Community 3,NA,FALSE,null,f,NA,NA,NA,3,6,"1,8,9,11,14,6,4,12,2,10,5,15,7,13,3"
15359,commdev-image-keyboard-response,281,1072036,learnblock1,717.7999999523163,img/planet15_left.png,15,Community 3,NA,TRUE,f,f,NA,NA,NA,3,6,"1,8,9,11,14,6,4,12,2,10,5,15,7,13,3"
15359,commdev-image-keyboard-response,282,1073288,learnblock1,706.9000000953674,img/planet3_left.png,3,Community 3,NA,TRUE,f,f,NA,NA,NA,3,6,"1,8,9,11,14,6,4,12,2,10,5,15,7,13,3"
15359,commdev-image-keyboard-response,283,1074540,learnblock1,504.5,img/planet5_left.png,5,Community 3,NA,TRUE,f,f,NA,NA,NA,3,6,"1,8,9,11,14,6,4,12,2,10,5,15,7,13,3"
15359,commdev-image-keyboard-response,284,1075798,learnblock1,499.7999999523163,img/planet14_left.png,14,Community 1,NA,TRUE,f,f,NA,NA,NA,3,6,"1,8,9,11,14,6,4,12,2,10,5,15,7,13,3"
15359,commdev-image-keyboard-response,285,1077050,learnblock1,449.7999999523163,img/planet8_right.png,8,Community 1,NA,TRUE,j,j,NA,NA,NA,3,6,"1,8,9,11,14,6,4,12,2,10,5,15,7,13,3"
15359,commdev-image-keyboard-response,286,1078302,learnblock1,500.89999985694885,img/planet9_right.png,9,Community 1,NA,TRUE,j,j,NA,NA,NA,3,6,"1,8,9,11,14,6,4,12,2,10,5,15,7,13,3"
15359,commdev-image-keyboard-response,287,1079553,learnblock1,484.2000000476837,img/planet1_left.png,1,Community 1,NA,FALSE,j,f,NA,NA,NA,3,6,"1,8,9,11,14,6,4,12,2,10,5,15,7,13,3"
15359,commdev-image-keyboard-response,288,1080806,learnblock1,653.0999999046326,img/planet8_right.png,8,Community 1,NA,FALSE,f,j,NA,NA,NA,3,6,"1,8,9,11,14,6,4,12,2,10,5,15,7,13,3"
15359,commdev-image-keyboard-response,289,1082058,learnblock1,594.6000001430511,img/planet14_right.png,14,Community 1,NA,TRUE,j,j,NA,NA,NA,3,6,"1,8,9,11,14,6,4,12,2,10,5,15,7,13,3"
15359,commdev-image-keyboard-response,290,1083310,learnblock1,604.3999998569489,img/planet1_left.png,1,Community 1,NA,TRUE,f,f,NA,NA,NA,3,6,"1,8,9,11,14,6,4,12,2,10,5,15,7,13,3"
15359,commdev-image-keyboard-response,291,1084561,learnblock1,641.2999999523163,img/planet9_left.png,9,Community 1,NA,TRUE,f,f,NA,NA,NA,3,6,"1,8,9,11,14,6,4,12,2,10,5,15,7,13,3"
15359,commdev-image-keyboard-response,292,1085827,learnblock1,597.9000000953674,img/planet11_left.png,11,Community 1,NA,TRUE,f,f,NA,NA,NA,3,6,"1,8,9,11,14,6,4,12,2,10,5,15,7,13,3"
15359,commdev-image-keyboard-response,293,1087080,learnblock1,465.30000019073486,img/planet9_right.png,9,Community 1,NA,TRUE,j,j,NA,NA,NA,3,6,"1,8,9,11,14,6,4,12,2,10,5,15,7,13,3"
15359,commdev-image-keyboard-response,294,1088331,learnblock1,681.9000000953674,img/planet14_right.png,14,Community 1,NA,TRUE,j,j,NA,NA,NA,3,6,"1,8,9,11,14,6,4,12,2,10,5,15,7,13,3"
15359,commdev-image-keyboard-response,295,1089583,learnblock1,563.9000000953674,img/planet5_right.png,5,Community 3,NA,TRUE,j,j,NA,NA,NA,3,6,"1,8,9,11,14,6,4,12,2,10,5,15,7,13,3"
15359,commdev-image-keyboard-response,296,1090835,learnblock1,648,img/planet3_left.png,3,Community 3,NA,TRUE,f,f,NA,NA,NA,3,6,"1,8,9,11,14,6,4,12,2,10,5,15,7,13,3"
15359,commdev-image-keyboard-response,297,1092087,learnblock1,660.5,img/planet13_right.png,13,Community 3,NA,TRUE,j,j,NA,NA,NA,3,6,"1,8,9,11,14,6,4,12,2,10,5,15,7,13,3"
15359,commdev-image-keyboard-response,298,1093339,learnblock1,767.5,img/planet15_right.png,15,Community 3,NA,TRUE,j,j,NA,NA,NA,3,6,"1,8,9,11,14,6,4,12,2,10,5,15,7,13,3"
15359,commdev-image-keyboard-response,299,1094592,learnblock1,645.0999999046326,img/planet13_left.png,13,Community 3,NA,TRUE,f,f,NA,NA,NA,3,6,"1,8,9,11,14,6,4,12,2,10,5,15,7,13,3"
15359,commdev-image-keyboard-response,300,1095843,learnblock1,695,img/planet5_right.png,5,Community 3,NA,TRUE,j,j,NA,NA,NA,3,6,"1,8,9,11,14,6,4,12,2,10,5,15,7,13,3"
15359,commdev-image-keyboard-response,301,1097097,learnblock1,762.4000000953674,img/planet14_right.png,14,Community 1,NA,TRUE,j,j,NA,NA,NA,3,6,"1,8,9,11,14,6,4,12,2,10,5,15,7,13,3"
15359,commdev-image-keyboard-response,302,1098349,learnblock1,566.5,img/planet9_right.png,9,Community 1,NA,TRUE,j,j,NA,NA,NA,3,6,"1,8,9,11,14,6,4,12,2,10,5,15,7,13,3"
15359,commdev-image-keyboard-response,303,1099601,learnblock1,499.40000009536743,img/planet1_left.png,1,Community 1,NA,TRUE,f,f,NA,NA,NA,3,6,"1,8,9,11,14,6,4,12,2,10,5,15,7,13,3"
15359,commdev-image-keyboard-response,304,1100853,learnblock1,549.5,img/planet9_right.png,9,Community 1,NA,FALSE,f,j,NA,NA,NA,3,6,"1,8,9,11,14,6,4,12,2,10,5,15,7,13,3"
15359,commdev-image-keyboard-response,305,1102105,learnblock1,794.7000000476837,img/planet8_left.png,8,Community 1,NA,FALSE,j,f,NA,NA,NA,3,6,"1,8,9,11,14,6,4,12,2,10,5,15,7,13,3"
15359,commdev-image-keyboard-response,306,1103357,learnblock1,773.9000000953674,img/planet9_left.png,9,Community 1,NA,TRUE,f,f,NA,NA,NA,3,6,"1,8,9,11,14,6,4,12,2,10,5,15,7,13,3"
15359,commdev-image-keyboard-response,307,1104609,learnblock1,685.3999998569489,img/planet14_right.png,14,Community 1,NA,FALSE,f,j,NA,NA,NA,3,6,"1,8,9,11,14,6,4,12,2,10,5,15,7,13,3"
15359,commdev-image-keyboard-response,308,1105861,learnblock1,605.5999999046326,img/planet8_left.png,8,Community 1,NA,TRUE,f,f,NA,NA,NA,3,6,"1,8,9,11,14,6,4,12,2,10,5,15,7,13,3"
15359,commdev-image-keyboard-response,309,1107118,learnblock1,618.8999998569489,img/planet1_right.png,1,Community 1,NA,TRUE,j,j,NA,NA,NA,3,6,"1,8,9,11,14,6,4,12,2,10,5,15,7,13,3"
15359,commdev-image-keyboard-response,310,1108370,learnblock1,512.5999999046326,img/planet9_left.png,9,Community 1,NA,TRUE,f,f,NA,NA,NA,3,6,"1,8,9,11,14,6,4,12,2,10,5,15,7,13,3"
15359,commdev-image-keyboard-response,311,1109622,learnblock1,558.5,img/planet14_left.png,14,Community 1,NA,TRUE,f,f,NA,NA,NA,3,6,"1,8,9,11,14,6,4,12,2,10,5,15,7,13,3"
15359,commdev-image-keyboard-response,312,1110874,learnblock1,591.5,img/planet8_left.png,8,Community 1,NA,TRUE,f,f,NA,NA,NA,3,6,"1,8,9,11,14,6,4,12,2,10,5,15,7,13,3"
15359,commdev-image-keyboard-response,313,1112136,learnblock1,525,img/planet1_left.png,1,Community 1,NA,TRUE,f,f,NA,NA,NA,3,6,"1,8,9,11,14,6,4,12,2,10,5,15,7,13,3"
15359,commdev-image-keyboard-response,314,1113389,learnblock1,684.7000000476837,img/planet8_left.png,8,Community 1,NA,TRUE,f,f,NA,NA,NA,3,6,"1,8,9,11,14,6,4,12,2,10,5,15,7,13,3"
15359,commdev-image-keyboard-response,315,1114641,learnblock1,506.09999990463257,img/planet11_right.png,11,Community 1,NA,TRUE,j,j,NA,NA,NA,3,6,"1,8,9,11,14,6,4,12,2,10,5,15,7,13,3"
15359,commdev-image-keyboard-response,316,1115893,learnblock1,517.6000001430511,img/planet9_right.png,9,Community 1,NA,TRUE,j,j,NA,NA,NA,3,6,"1,8,9,11,14,6,4,12,2,10,5,15,7,13,3"
15359,commdev-image-keyboard-response,317,1117146,learnblock1,657.2999999523163,img/planet14_left.png,14,Community 1,NA,TRUE,f,f,NA,NA,NA,3,6,"1,8,9,11,14,6,4,12,2,10,5,15,7,13,3"
15359,commdev-image-keyboard-response,318,1118399,learnblock1,572.6000001430511,img/planet5_right.png,5,Community 3,NA,TRUE,j,j,NA,NA,NA,3,6,"1,8,9,11,14,6,4,12,2,10,5,15,7,13,3"
15359,commdev-image-keyboard-response,319,1119650,learnblock1,849,img/planet13_right.png,13,Community 3,NA,TRUE,j,j,NA,NA,NA,3,6,"1,8,9,11,14,6,4,12,2,10,5,15,7,13,3"
15359,commdev-image-keyboard-response,320,1120902,learnblock1,709.5999999046326,img/planet3_left.png,3,Community 3,NA,TRUE,f,f,NA,NA,NA,3,6,"1,8,9,11,14,6,4,12,2,10,5,15,7,13,3"
15359,commdev-image-keyboard-response,321,1122153,learnblock1,633.6000001430511,img/planet13_right.png,13,Community 3,NA,TRUE,j,j,NA,NA,NA,3,6,"1,8,9,11,14,6,4,12,2,10,5,15,7,13,3"
15359,commdev-image-keyboard-response,322,1123406,learnblock1,622.5999999046326,img/planet15_right.png,15,Community 3,NA,TRUE,j,j,NA,NA,NA,3,6,"1,8,9,11,14,6,4,12,2,10,5,15,7,13,3"
15359,commdev-image-keyboard-response,323,1124659,learnblock1,584.5,img/planet3_left.png,3,Community 3,NA,TRUE,f,f,NA,NA,NA,3,6,"1,8,9,11,14,6,4,12,2,10,5,15,7,13,3"
15359,commdev-image-keyboard-response,324,1125911,learnblock1,633.7999999523163,img/planet15_left.png,15,Community 3,NA,TRUE,f,f,NA,NA,NA,3,6,"1,8,9,11,14,6,4,12,2,10,5,15,7,13,3"
15359,commdev-image-keyboard-response,325,1127163,learnblock1,576.4000000953674,img/planet12_right.png,12,Community 2,NA,TRUE,j,j,NA,NA,NA,3,6,"1,8,9,11,14,6,4,12,2,10,5,15,7,13,3"
15359,commdev-image-keyboard-response,326,1128414,learnblock1,1093.2999999523163,img/planet2_right.png,2,Community 2,NA,FALSE,f,j,NA,NA,NA,3,6,"1,8,9,11,14,6,4,12,2,10,5,15,7,13,3"
15359,commdev-image-keyboard-response,327,1129667,learnblock1,744.8999998569489,img/planet6_left.png,6,Community 2,NA,TRUE,f,f,NA,NA,NA,3,6,"1,8,9,11,14,6,4,12,2,10,5,15,7,13,3"
15359,commdev-image-keyboard-response,328,1130918,learnblock1,622.9000000953674,img/planet10_left.png,10,Community 2,NA,TRUE,f,f,NA,NA,NA,3,6,"1,8,9,11,14,6,4,12,2,10,5,15,7,13,3"
15359,commdev-image-keyboard-response,329,1132169,learnblock1,482.39999985694885,img/planet12_right.png,12,Community 2,NA,TRUE,j,j,NA,NA,NA,3,6,"1,8,9,11,14,6,4,12,2,10,5,15,7,13,3"
15359,commdev-image-keyboard-response,330,1133423,learnblock1,572.6000001430511,img/planet4_left.png,4,Community 2,NA,TRUE,f,f,NA,NA,NA,3,6,"1,8,9,11,14,6,4,12,2,10,5,15,7,13,3"
15359,commdev-image-keyboard-response,331,1134675,learnblock1,911.7000000476837,img/planet6_left.png,6,Community 2,NA,TRUE,f,f,NA,NA,NA,3,6,"1,8,9,11,14,6,4,12,2,10,5,15,7,13,3"
15359,commdev-image-keyboard-response,332,1135927,learnblock1,939.8000001907349,img/planet2_left.png,2,Community 2,NA,TRUE,f,f,NA,NA,NA,3,6,"1,8,9,11,14,6,4,12,2,10,5,15,7,13,3"
15359,commdev-image-keyboard-response,333,1137179,learnblock1,632.1000001430511,img/planet6_right.png,6,Community 2,NA,TRUE,j,j,NA,NA,NA,3,6,"1,8,9,11,14,6,4,12,2,10,5,15,7,13,3"
15359,commdev-image-keyboard-response,334,1138431,learnblock1,796.9000000953674,img/planet4_right.png,4,Community 2,NA,TRUE,j,j,NA,NA,NA,3,6,"1,8,9,11,14,6,4,12,2,10,5,15,7,13,3"
15359,commdev-image-keyboard-response,335,1139683,learnblock1,712.2000000476837,img/planet10_right.png,10,Community 2,NA,TRUE,j,j,NA,NA,NA,3,6,"1,8,9,11,14,6,4,12,2,10,5,15,7,13,3"
15359,commdev-image-keyboard-response,336,1140935,learnblock1,629.5999999046326,img/planet12_right.png,12,Community 2,NA,TRUE,j,j,NA,NA,NA,3,6,"1,8,9,11,14,6,4,12,2,10,5,15,7,13,3"
15359,commdev-image-keyboard-response,337,1142188,learnblock1,590.7000000476837,img/planet2_left.png,2,Community 2,NA,TRUE,f,f,NA,NA,NA,3,6,"1,8,9,11,14,6,4,12,2,10,5,15,7,13,3"
15359,commdev-image-keyboard-response,338,1143441,learnblock1,794.2999999523163,img/planet6_left.png,6,Community 2,NA,TRUE,f,f,NA,NA,NA,3,6,"1,8,9,11,14,6,4,12,2,10,5,15,7,13,3"
15359,commdev-image-keyboard-response,339,1144693,learnblock1,486.10000014305115,img/planet4_right.png,4,Community 2,NA,TRUE,j,j,NA,NA,NA,3,6,"1,8,9,11,14,6,4,12,2,10,5,15,7,13,3"
15359,commdev-image-keyboard-response,340,1145945,learnblock1,786.3999998569489,img/planet12_right.png,12,Community 2,NA,TRUE,j,j,NA,NA,NA,3,6,"1,8,9,11,14,6,4,12,2,10,5,15,7,13,3"
15359,commdev-image-keyboard-response,341,1147197,learnblock1,574.1000001430511,img/planet2_left.png,2,Community 2,NA,FALSE,j,f,NA,NA,NA,3,6,"1,8,9,11,14,6,4,12,2,10,5,15,7,13,3"
15359,commdev-image-keyboard-response,342,1148448,learnblock1,756.2000000476837,img/planet12_left.png,12,Community 2,NA,TRUE,f,f,NA,NA,NA,3,6,"1,8,9,11,14,6,4,12,2,10,5,15,7,13,3"
15359,commdev-image-keyboard-response,343,1149700,learnblock1,696.5,img/planet2_left.png,2,Community 2,NA,TRUE,f,f,NA,NA,NA,3,6,"1,8,9,11,14,6,4,12,2,10,5,15,7,13,3"
15359,commdev-image-keyboard-response,344,1150951,learnblock1,540.6999998092651,img/planet10_left.png,10,Community 2,NA,TRUE,f,f,NA,NA,NA,3,6,"1,8,9,11,14,6,4,12,2,10,5,15,7,13,3"
15359,commdev-image-keyboard-response,345,1152204,learnblock1,632.7000000476837,img/planet2_right.png,2,Community 2,NA,TRUE,j,j,NA,NA,NA,3,6,"1,8,9,11,14,6,4,12,2,10,5,15,7,13,3"
15359,commdev-image-keyboard-response,346,1153456,learnblock1,667.5,img/planet12_right.png,12,Community 2,NA,TRUE,j,j,NA,NA,NA,3,6,"1,8,9,11,14,6,4,12,2,10,5,15,7,13,3"
15359,commdev-image-keyboard-response,347,1154708,learnblock1,526.2999999523163,img/planet2_right.png,2,Community 2,NA,TRUE,j,j,NA,NA,NA,3,6,"1,8,9,11,14,6,4,12,2,10,5,15,7,13,3"
15359,commdev-image-keyboard-response,348,1155960,learnblock1,562.7000000476837,img/planet10_left.png,10,Community 2,NA,TRUE,f,f,NA,NA,NA,3,6,"1,8,9,11,14,6,4,12,2,10,5,15,7,13,3"
15359,commdev-image-keyboard-response,349,1157212,learnblock1,552.2999999523163,img/planet2_right.png,2,Community 2,NA,TRUE,j,j,NA,NA,NA,3,6,"1,8,9,11,14,6,4,12,2,10,5,15,7,13,3"
15359,commdev-image-keyboard-response,350,1158464,learnblock1,490.40000009536743,img/planet10_left.png,10,Community 2,NA,TRUE,f,f,NA,NA,NA,3,6,"1,8,9,11,14,6,4,12,2,10,5,15,7,13,3"
15359,commdev-image-keyboard-response,351,1159716,learnblock1,312.5,img/planet12_left.png,12,Community 2,NA,FALSE,j,f,NA,NA,NA,3,6,"1,8,9,11,14,6,4,12,2,10,5,15,7,13,3"
15359,commdev-image-keyboard-response,352,1160969,learnblock1,434.5,img/planet10_right.png,10,Community 2,NA,TRUE,j,j,NA,NA,NA,3,6,"1,8,9,11,14,6,4,12,2,10,5,15,7,13,3"
15359,commdev-image-keyboard-response,353,1162221,learnblock1,566.2000000476837,img/planet2_left.png,2,Community 2,NA,TRUE,f,f,NA,NA,NA,3,6,"1,8,9,11,14,6,4,12,2,10,5,15,7,13,3"
15359,commdev-image-keyboard-response,354,1163473,learnblock1,658.5999999046326,img/planet6_left.png,6,Community 2,NA,TRUE,f,f,NA,NA,NA,3,6,"1,8,9,11,14,6,4,12,2,10,5,15,7,13,3"
15359,commdev-image-keyboard-response,355,1164725,learnblock1,599.0999999046326,img/planet11_right.png,11,Community 1,NA,TRUE,j,j,NA,NA,NA,3,6,"1,8,9,11,14,6,4,12,2,10,5,15,7,13,3"
15359,commdev-image-keyboard-response,356,1165976,learnblock1,676.7999999523163,img/planet6_left.png,6,Community 2,NA,TRUE,f,f,NA,NA,NA,3,6,"1,8,9,11,14,6,4,12,2,10,5,15,7,13,3"
15359,commdev-image-keyboard-response,357,1167229,learnblock1,726.2999999523163,img/planet4_left.png,4,Community 2,NA,TRUE,f,f,NA,NA,NA,3,6,"1,8,9,11,14,6,4,12,2,10,5,15,7,13,3"
15359,commdev-image-keyboard-response,358,1168481,learnblock1,833.6999998092651,img/planet10_right.png,10,Community 2,NA,FALSE,f,j,NA,NA,NA,3,6,"1,8,9,11,14,6,4,12,2,10,5,15,7,13,3"
15359,commdev-image-keyboard-response,359,1169733,learnblock1,981.7999999523163,img/planet12_right.png,12,Community 2,NA,TRUE,j,j,NA,NA,NA,3,6,"1,8,9,11,14,6,4,12,2,10,5,15,7,13,3"
15359,commdev-image-keyboard-response,360,1170985,learnblock1,1035,img/planet15_right.png,15,Community 3,NA,TRUE,j,j,NA,NA,NA,3,6,"1,8,9,11,14,6,4,12,2,10,5,15,7,13,3"
15359,commdev-image-keyboard-response,361,1172237,learnblock1,862.0999999046326,img/planet7_right.png,7,Community 3,NA,TRUE,j,j,NA,NA,NA,3,6,"1,8,9,11,14,6,4,12,2,10,5,15,7,13,3"
15359,commdev-image-keyboard-response,362,1173489,learnblock1,1121.7999999523163,img/planet15_left.png,15,Community 3,NA,TRUE,f,f,NA,NA,NA,3,6,"1,8,9,11,14,6,4,12,2,10,5,15,7,13,3"
15359,commdev-image-keyboard-response,363,1174741,learnblock1,852.2000000476837,img/planet3_left.png,3,Community 3,NA,TRUE,f,f,NA,NA,NA,3,6,"1,8,9,11,14,6,4,12,2,10,5,15,7,13,3"
15359,commdev-image-keyboard-response,364,1175993,learnblock1,505.90000009536743,img/planet15_right.png,15,Community 3,NA,TRUE,j,j,NA,NA,NA,3,6,"1,8,9,11,14,6,4,12,2,10,5,15,7,13,3"
15359,commdev-image-keyboard-response,365,1177246,learnblock1,734,img/planet3_right.png,3,Community 3,NA,TRUE,j,j,NA,NA,NA,3,6,"1,8,9,11,14,6,4,12,2,10,5,15,7,13,3"
15359,commdev-image-keyboard-response,366,1178498,learnblock1,591,img/planet5_right.png,5,Community 3,NA,TRUE,j,j,NA,NA,NA,3,6,"1,8,9,11,14,6,4,12,2,10,5,15,7,13,3"
15359,commdev-image-keyboard-response,367,1179750,learnblock1,380.60000014305115,img/planet13_left.png,13,Community 3,NA,TRUE,f,f,NA,NA,NA,3,6,"1,8,9,11,14,6,4,12,2,10,5,15,7,13,3"
15359,commdev-image-keyboard-response,368,1181001,learnblock1,281.2000000476837,img/planet15_left.png,15,Community 3,NA,TRUE,f,f,NA,NA,NA,3,6,"1,8,9,11,14,6,4,12,2,10,5,15,7,13,3"
15359,commdev-image-keyboard-response,369,1182253,learnblock1,333.09999990463257,img/planet12_right.png,12,Community 2,NA,TRUE,j,j,NA,NA,NA,3,6,"1,8,9,11,14,6,4,12,2,10,5,15,7,13,3"
15359,commdev-image-keyboard-response,370,1183506,learnblock1,631.9000000953674,img/planet4_right.png,4,Community 2,NA,TRUE,j,j,NA,NA,NA,3,6,"1,8,9,11,14,6,4,12,2,10,5,15,7,13,3"
15359,commdev-image-keyboard-response,371,1184759,learnblock1,571.7999999523163,img/planet12_right.png,12,Community 2,NA,TRUE,j,j,NA,NA,NA,3,6,"1,8,9,11,14,6,4,12,2,10,5,15,7,13,3"
15359,commdev-image-keyboard-response,372,1186011,learnblock1,528,img/planet2_right.png,2,Community 2,NA,TRUE,j,j,NA,NA,NA,3,6,"1,8,9,11,14,6,4,12,2,10,5,15,7,13,3"
15359,commdev-image-keyboard-response,373,1187263,learnblock1,388.2000000476837,img/planet4_left.png,4,Community 2,NA,FALSE,j,f,NA,NA,NA,3,6,"1,8,9,11,14,6,4,12,2,10,5,15,7,13,3"
15359,commdev-image-keyboard-response,374,1188514,learnblock1,705.8999998569489,img/planet6_right.png,6,Community 2,NA,TRUE,j,j,NA,NA,NA,3,6,"1,8,9,11,14,6,4,12,2,10,5,15,7,13,3"
15359,commdev-image-keyboard-response,375,1189766,learnblock1,572.7000000476837,img/planet4_right.png,4,Community 2,NA,TRUE,j,j,NA,NA,NA,3,6,"1,8,9,11,14,6,4,12,2,10,5,15,7,13,3"
15359,commdev-image-keyboard-response,376,1191017,learnblock1,441.5,img/planet2_left.png,2,Community 2,NA,TRUE,f,f,NA,NA,NA,3,6,"1,8,9,11,14,6,4,12,2,10,5,15,7,13,3"
15359,commdev-image-keyboard-response,377,1192269,learnblock1,1117.0999999046326,img/planet12_left.png,12,Community 2,NA,TRUE,f,f,NA,NA,NA,3,6,"1,8,9,11,14,6,4,12,2,10,5,15,7,13,3"
15359,commdev-image-keyboard-response,378,1193535,learnblock1,599.6000001430511,img/planet10_right.png,10,Community 2,NA,TRUE,j,j,NA,NA,NA,3,6,"1,8,9,11,14,6,4,12,2,10,5,15,7,13,3"
15359,commdev-image-keyboard-response,379,1194787,learnblock1,776.7999999523163,img/planet6_left.png,6,Community 2,NA,TRUE,f,f,NA,NA,NA,3,6,"1,8,9,11,14,6,4,12,2,10,5,15,7,13,3"
15359,commdev-image-keyboard-response,380,1196040,learnblock1,475,img/planet10_right.png,10,Community 2,NA,TRUE,j,j,NA,NA,NA,3,6,"1,8,9,11,14,6,4,12,2,10,5,15,7,13,3"
15359,commdev-image-keyboard-response,381,1197293,learnblock1,806.1999998092651,img/planet6_right.png,6,Community 2,NA,FALSE,f,j,NA,NA,NA,3,6,"1,8,9,11,14,6,4,12,2,10,5,15,7,13,3"
15359,commdev-image-keyboard-response,382,1198545,learnblock1,617.7999999523163,img/planet10_right.png,10,Community 2,NA,TRUE,j,j,NA,NA,NA,3,6,"1,8,9,11,14,6,4,12,2,10,5,15,7,13,3"
15359,commdev-image-keyboard-response,383,1199796,learnblock1,750.5,img/planet2_left.png,2,Community 2,NA,FALSE,j,f,NA,NA,NA,3,6,"1,8,9,11,14,6,4,12,2,10,5,15,7,13,3"
15359,commdev-image-keyboard-response,384,1201048,learnblock1,650.2999999523163,img/planet10_left.png,10,Community 2,NA,TRUE,f,f,NA,NA,NA,3,6,"1,8,9,11,14,6,4,12,2,10,5,15,7,13,3"
15359,commdev-image-keyboard-response,385,1202308,learnblock1,510.7999999523163,img/planet6_left.png,6,Community 2,NA,TRUE,f,f,NA,NA,NA,3,6,"1,8,9,11,14,6,4,12,2,10,5,15,7,13,3"
15359,commdev-image-keyboard-response,386,1203560,learnblock1,617.6000001430511,img/planet10_right.png,10,Community 2,NA,FALSE,f,j,NA,NA,NA,3,6,"1,8,9,11,14,6,4,12,2,10,5,15,7,13,3"
15359,commdev-image-keyboard-response,387,1204812,learnblock1,761.0999999046326,img/planet12_right.png,12,Community 2,NA,TRUE,j,j,NA,NA,NA,3,6,"1,8,9,11,14,6,4,12,2,10,5,15,7,13,3"
15359,commdev-image-keyboard-response,388,1206064,learnblock1,619.7999999523163,img/planet15_left.png,15,Community 3,NA,TRUE,f,f,NA,NA,NA,3,6,"1,8,9,11,14,6,4,12,2,10,5,15,7,13,3"
15359,commdev-image-keyboard-response,389,1207316,learnblock1,760.4000000953674,img/planet7_left.png,7,Community 3,NA,TRUE,f,f,NA,NA,NA,3,6,"1,8,9,11,14,6,4,12,2,10,5,15,7,13,3"
15359,commdev-image-keyboard-response,390,1208569,learnblock1,794.2000000476837,img/planet13_right.png,13,Community 3,NA,TRUE,j,j,NA,NA,NA,3,6,"1,8,9,11,14,6,4,12,2,10,5,15,7,13,3"
15359,commdev-image-keyboard-response,391,1209821,learnblock1,654.1999998092651,img/planet3_left.png,3,Community 3,NA,TRUE,f,f,NA,NA,NA,3,6,"1,8,9,11,14,6,4,12,2,10,5,15,7,13,3"
15359,commdev-image-keyboard-response,392,1211073,learnblock1,570,img/planet5_right.png,5,Community 3,NA,FALSE,f,j,NA,NA,NA,3,6,"1,8,9,11,14,6,4,12,2,10,5,15,7,13,3"
15359,commdev-image-keyboard-response,393,1212324,learnblock1,638,img/planet14_left.png,14,Community 1,NA,TRUE,f,f,NA,NA,NA,3,6,"1,8,9,11,14,6,4,12,2,10,5,15,7,13,3"
15359,commdev-image-keyboard-response,394,1213577,learnblock1,554.4000000953674,img/planet9_right.png,9,Community 1,NA,TRUE,j,j,NA,NA,NA,3,6,"1,8,9,11,14,6,4,12,2,10,5,15,7,13,3"
15359,commdev-image-keyboard-response,395,1214828,learnblock1,718.2999999523163,img/planet8_right.png,8,Community 1,NA,TRUE,j,j,NA,NA,NA,3,6,"1,8,9,11,14,6,4,12,2,10,5,15,7,13,3"
15359,commdev-image-keyboard-response,396,1216081,learnblock1,617.5999999046326,img/planet11_left.png,11,Community 1,NA,TRUE,f,f,NA,NA,NA,3,6,"1,8,9,11,14,6,4,12,2,10,5,15,7,13,3"
15359,commdev-image-keyboard-response,397,1217333,learnblock1,645.7999999523163,img/planet6_left.png,6,Community 2,NA,TRUE,f,f,NA,NA,NA,3,6,"1,8,9,11,14,6,4,12,2,10,5,15,7,13,3"
15359,commdev-image-keyboard-response,398,1218585,learnblock1,683.4000000953674,img/planet4_left.png,4,Community 2,NA,TRUE,f,f,NA,NA,NA,3,6,"1,8,9,11,14,6,4,12,2,10,5,15,7,13,3"
15359,commdev-image-keyboard-response,399,1219838,learnblock1,646.3999998569489,img/planet6_left.png,6,Community 2,NA,TRUE,f,f,NA,NA,NA,3,6,"1,8,9,11,14,6,4,12,2,10,5,15,7,13,3"
15359,commdev-image-keyboard-response,400,1221091,learnblock1,529,img/planet2_right.png,2,Community 2,NA,TRUE,j,j,NA,NA,NA,3,6,"1,8,9,11,14,6,4,12,2,10,5,15,7,13,3"
15359,commdev-image-keyboard-response,401,1222343,learnblock1,882.7999999523163,img/planet4_right.png,4,Community 2,NA,TRUE,j,j,NA,NA,NA,3,6,"1,8,9,11,14,6,4,12,2,10,5,15,7,13,3"
15359,commdev-image-keyboard-response,402,1223595,learnblock1,647.5999999046326,img/planet2_left.png,2,Community 2,NA,TRUE,f,f,NA,NA,NA,3,6,"1,8,9,11,14,6,4,12,2,10,5,15,7,13,3"
15359,commdev-image-keyboard-response,403,1224847,learnblock1,771.5,img/planet6_left.png,6,Community 2,NA,TRUE,f,f,NA,NA,NA,3,6,"1,8,9,11,14,6,4,12,2,10,5,15,7,13,3"
15359,commdev-image-keyboard-response,404,1226099,learnblock1,751.0999999046326,img/planet4_left.png,4,Community 2,NA,TRUE,f,f,NA,NA,NA,3,6,"1,8,9,11,14,6,4,12,2,10,5,15,7,13,3"
15359,commdev-image-keyboard-response,405,1227351,learnblock1,549.8999998569489,img/planet6_right.png,6,Community 2,NA,TRUE,j,j,NA,NA,NA,3,6,"1,8,9,11,14,6,4,12,2,10,5,15,7,13,3"
15359,commdev-image-keyboard-response,406,1228603,learnblock1,547,img/planet11_left.png,11,Community 1,NA,TRUE,f,f,NA,NA,NA,3,6,"1,8,9,11,14,6,4,12,2,10,5,15,7,13,3"
15359,commdev-image-keyboard-response,407,1229856,learnblock1,410.69999980926514,img/planet1_right.png,1,Community 1,NA,TRUE,j,j,NA,NA,NA,3,6,"1,8,9,11,14,6,4,12,2,10,5,15,7,13,3"
15359,commdev-image-keyboard-response,408,1231109,learnblock1,670.7999999523163,img/planet9_left.png,9,Community 1,NA,TRUE,f,f,NA,NA,NA,3,6,"1,8,9,11,14,6,4,12,2,10,5,15,7,13,3"
15359,commdev-image-keyboard-response,409,1232361,learnblock1,777.3999998569489,img/planet8_left.png,8,Community 1,NA,TRUE,f,f,NA,NA,NA,3,6,"1,8,9,11,14,6,4,12,2,10,5,15,7,13,3"
15359,commdev-image-keyboard-response,410,1233613,learnblock1,790.5999999046326,img/planet11_left.png,11,Community 1,NA,TRUE,f,f,NA,NA,NA,3,6,"1,8,9,11,14,6,4,12,2,10,5,15,7,13,3"
15359,commdev-image-keyboard-response,411,1234865,learnblock1,687.6999998092651,img/planet6_right.png,6,Community 2,NA,TRUE,j,j,NA,NA,NA,3,6,"1,8,9,11,14,6,4,12,2,10,5,15,7,13,3"
15359,commdev-image-keyboard-response,412,1236117,learnblock1,646.3999998569489,img/planet10_left.png,10,Community 2,NA,TRUE,f,f,NA,NA,NA,3,6,"1,8,9,11,14,6,4,12,2,10,5,15,7,13,3"
15359,commdev-image-keyboard-response,413,1237369,learnblock1,697.9000000953674,img/planet4_right.png,4,Community 2,NA,TRUE,j,j,NA,NA,NA,3,6,"1,8,9,11,14,6,4,12,2,10,5,15,7,13,3"
15359,commdev-image-keyboard-response,414,1238621,learnblock1,703.4000000953674,img/planet6_left.png,6,Community 2,NA,TRUE,f,f,NA,NA,NA,3,6,"1,8,9,11,14,6,4,12,2,10,5,15,7,13,3"
15359,commdev-image-keyboard-response,415,1239873,learnblock1,1040.4000000953674,img/planet4_right.png,4,Community 2,NA,TRUE,j,j,NA,NA,NA,3,6,"1,8,9,11,14,6,4,12,2,10,5,15,7,13,3"
15359,commdev-image-keyboard-response,416,1241125,learnblock1,1086.5999999046326,img/planet2_right.png,2,Community 2,NA,FALSE,f,j,NA,NA,NA,3,6,"1,8,9,11,14,6,4,12,2,10,5,15,7,13,3"
15359,commdev-image-keyboard-response,417,1242377,learnblock1,722.5,img/planet12_left.png,12,Community 2,NA,TRUE,f,f,NA,NA,NA,3,6,"1,8,9,11,14,6,4,12,2,10,5,15,7,13,3"
15359,commdev-image-keyboard-response,418,1243629,learnblock1,710.5,img/planet15_right.png,15,Community 3,NA,TRUE,j,j,NA,NA,NA,3,6,"1,8,9,11,14,6,4,12,2,10,5,15,7,13,3"
15359,commdev-image-keyboard-response,419,1244881,learnblock1,692.4000000953674,img/planet12_right.png,12,Community 2,NA,TRUE,j,j,NA,NA,NA,3,6,"1,8,9,11,14,6,4,12,2,10,5,15,7,13,3"
15359,commdev-image-keyboard-response,420,1246133,learnblock1,772.7000000476837,img/planet4_left.png,4,Community 2,NA,TRUE,f,f,NA,NA,NA,3,6,"1,8,9,11,14,6,4,12,2,10,5,15,7,13,3"
15359,commdev-image-keyboard-response,421,1247385,learnblock1,1072.5,img/planet12_left.png,12,Community 2,NA,TRUE,f,f,NA,NA,NA,3,6,"1,8,9,11,14,6,4,12,2,10,5,15,7,13,3"
15359,commdev-image-keyboard-response,422,1248637,learnblock1,629.1000001430511,img/planet15_left.png,15,Community 3,NA,TRUE,f,f,NA,NA,NA,3,6,"1,8,9,11,14,6,4,12,2,10,5,15,7,13,3"
15359,commdev-image-keyboard-response,423,1249890,learnblock1,568,img/planet3_right.png,3,Community 3,NA,TRUE,j,j,NA,NA,NA,3,6,"1,8,9,11,14,6,4,12,2,10,5,15,7,13,3"
15359,commdev-image-keyboard-response,424,1251143,learnblock1,628.4000000953674,img/planet13_right.png,13,Community 3,NA,FALSE,f,j,NA,NA,NA,3,6,"1,8,9,11,14,6,4,12,2,10,5,15,7,13,3"
15359,commdev-image-keyboard-response,425,1252395,learnblock1,904,img/planet7_right.png,7,Community 3,NA,TRUE,j,j,NA,NA,NA,3,6,"1,8,9,11,14,6,4,12,2,10,5,15,7,13,3"
15359,commdev-image-keyboard-response,426,1253647,learnblock1,700.7999999523163,img/planet5_left.png,5,Community 3,NA,TRUE,f,f,NA,NA,NA,3,6,"1,8,9,11,14,6,4,12,2,10,5,15,7,13,3"
15359,commdev-image-keyboard-response,427,1254907,learnblock1,689.8999998569489,img/planet13_left.png,13,Community 3,NA,TRUE,f,f,NA,NA,NA,3,6,"1,8,9,11,14,6,4,12,2,10,5,15,7,13,3"
15359,commdev-image-keyboard-response,428,1256159,learnblock1,620.2000000476837,img/planet15_right.png,15,Community 3,NA,TRUE,j,j,NA,NA,NA,3,6,"1,8,9,11,14,6,4,12,2,10,5,15,7,13,3"
15359,commdev-image-keyboard-response,429,1257411,learnblock1,535.8000001907349,img/planet13_left.png,13,Community 3,NA,TRUE,f,f,NA,NA,NA,3,6,"1,8,9,11,14,6,4,12,2,10,5,15,7,13,3"
15359,commdev-image-keyboard-response,430,1258663,learnblock1,779.7000000476837,img/planet5_right.png,5,Community 3,NA,FALSE,f,j,NA,NA,NA,3,6,"1,8,9,11,14,6,4,12,2,10,5,15,7,13,3"
15359,commdev-image-keyboard-response,431,1259915,learnblock1,639.2000000476837,img/planet14_left.png,14,Community 1,NA,TRUE,f,f,NA,NA,NA,3,6,"1,8,9,11,14,6,4,12,2,10,5,15,7,13,3"
15359,commdev-image-keyboard-response,432,1261168,learnblock1,523.2000000476837,img/planet9_left.png,9,Community 1,NA,TRUE,f,f,NA,NA,NA,3,6,"1,8,9,11,14,6,4,12,2,10,5,15,7,13,3"
15359,commdev-image-keyboard-response,433,1262420,learnblock1,575.0999999046326,img/planet8_left.png,8,Community 1,NA,TRUE,f,f,NA,NA,NA,3,6,"1,8,9,11,14,6,4,12,2,10,5,15,7,13,3"
15359,commdev-image-keyboard-response,437,1411245,learnblock2,902,img/planet5_left.png,5,Community 3,NA,TRUE,f,f,NA,NA,NA,3,6,"1,8,9,11,14,6,4,12,2,10,5,15,7,13,3"
15359,commdev-image-keyboard-response,438,1412498,learnblock2,816.4000000953674,img/planet3_right.png,3,Community 3,NA,TRUE,j,j,NA,NA,NA,3,6,"1,8,9,11,14,6,4,12,2,10,5,15,7,13,3"
15359,commdev-image-keyboard-response,439,1413751,learnblock2,803.3999998569489,img/planet13_right.png,13,Community 3,NA,TRUE,j,j,NA,NA,NA,3,6,"1,8,9,11,14,6,4,12,2,10,5,15,7,13,3"
15359,commdev-image-keyboard-response,440,1415003,learnblock2,565.3999998569489,img/planet7_right.png,7,Community 3,NA,TRUE,j,j,NA,NA,NA,3,6,"1,8,9,11,14,6,4,12,2,10,5,15,7,13,3"
15359,commdev-image-keyboard-response,441,1416256,learnblock2,458.5,img/planet13_right.png,13,Community 3,NA,TRUE,j,j,NA,NA,NA,3,6,"1,8,9,11,14,6,4,12,2,10,5,15,7,13,3"
15359,commdev-image-keyboard-response,442,1417507,learnblock2,560,img/planet5_right.png,5,Community 3,NA,TRUE,j,j,NA,NA,NA,3,6,"1,8,9,11,14,6,4,12,2,10,5,15,7,13,3"
15359,commdev-image-keyboard-response,443,1418770,learnblock2,571.1000001430511,img/planet7_right.png,7,Community 3,NA,TRUE,j,j,NA,NA,NA,3,6,"1,8,9,11,14,6,4,12,2,10,5,15,7,13,3"
15359,commdev-image-keyboard-response,444,1420023,learnblock2,602.2000000476837,img/planet15_left.png,15,Community 3,NA,TRUE,f,f,NA,NA,NA,3,6,"1,8,9,11,14,6,4,12,2,10,5,15,7,13,3"
15359,commdev-image-keyboard-response,445,1421274,learnblock2,1071.2000000476837,img/planet13_right.png,13,Community 3,NA,TRUE,j,j,NA,NA,NA,3,6,"1,8,9,11,14,6,4,12,2,10,5,15,7,13,3"
15359,commdev-image-keyboard-response,446,1422527,learnblock2,603,img/planet7_left.png,7,Community 3,NA,TRUE,f,f,NA,NA,NA,3,6,"1,8,9,11,14,6,4,12,2,10,5,15,7,13,3"
15359,commdev-image-keyboard-response,447,1423779,learnblock2,559.2999999523163,img/planet15_right.png,15,Community 3,NA,TRUE,j,j,NA,NA,NA,3,6,"1,8,9,11,14,6,4,12,2,10,5,15,7,13,3"
15359,commdev-image-keyboard-response,448,1425031,learnblock2,626.1999998092651,img/planet13_right.png,13,Community 3,NA,TRUE,j,j,NA,NA,NA,3,6,"1,8,9,11,14,6,4,12,2,10,5,15,7,13,3"
15359,commdev-image-keyboard-response,449,1426283,learnblock2,583,img/planet15_right.png,15,Community 3,NA,TRUE,j,j,NA,NA,NA,3,6,"1,8,9,11,14,6,4,12,2,10,5,15,7,13,3"
15359,commdev-image-keyboard-response,450,1427534,learnblock2,858.8999998569489,img/planet12_right.png,12,Community 2,NA,TRUE,j,j,NA,NA,NA,3,6,"1,8,9,11,14,6,4,12,2,10,5,15,7,13,3"
15359,commdev-image-keyboard-response,451,1428787,learnblock2,607.4000000953674,img/planet4_left.png,4,Community 2,NA,TRUE,f,f,NA,NA,NA,3,6,"1,8,9,11,14,6,4,12,2,10,5,15,7,13,3"
15359,commdev-image-keyboard-response,452,1430040,learnblock2,618.5,img/planet2_right.png,2,Community 2,NA,TRUE,j,j,NA,NA,NA,3,6,"1,8,9,11,14,6,4,12,2,10,5,15,7,13,3"
15359,commdev-image-keyboard-response,453,1431293,learnblock2,557.7000000476837,img/planet10_right.png,10,Community 2,NA,TRUE,j,j,NA,NA,NA,3,6,"1,8,9,11,14,6,4,12,2,10,5,15,7,13,3"
15359,commdev-image-keyboard-response,454,1432545,learnblock2,586.1000001430511,img/planet6_left.png,6,Community 2,NA,TRUE,f,f,NA,NA,NA,3,6,"1,8,9,11,14,6,4,12,2,10,5,15,7,13,3"
15359,commdev-image-keyboard-response,455,1433797,learnblock2,541.3999998569489,img/planet11_left.png,11,Community 1,NA,TRUE,f,f,NA,NA,NA,3,6,"1,8,9,11,14,6,4,12,2,10,5,15,7,13,3"
15359,commdev-image-keyboard-response,456,1435050,learnblock2,536.5,img/planet6_left.png,6,Community 2,NA,TRUE,f,f,NA,NA,NA,3,6,"1,8,9,11,14,6,4,12,2,10,5,15,7,13,3"
15359,commdev-image-keyboard-response,457,1436302,learnblock2,548.2000000476837,img/planet4_right.png,4,Community 2,NA,TRUE,j,j,NA,NA,NA,3,6,"1,8,9,11,14,6,4,12,2,10,5,15,7,13,3"
15359,commdev-image-keyboard-response,458,1437554,learnblock2,559.5,img/planet2_left.png,2,Community 2,NA,TRUE,f,f,NA,NA,NA,3,6,"1,8,9,11,14,6,4,12,2,10,5,15,7,13,3"
15359,commdev-image-keyboard-response,459,1438806,learnblock2,563.7000000476837,img/planet10_left.png,10,Community 2,NA,TRUE,f,f,NA,NA,NA,3,6,"1,8,9,11,14,6,4,12,2,10,5,15,7,13,3"
15359,commdev-image-keyboard-response,460,1440058,learnblock2,575.4000000953674,img/planet2_left.png,2,Community 2,NA,TRUE,f,f,NA,NA,NA,3,6,"1,8,9,11,14,6,4,12,2,10,5,15,7,13,3"
15359,commdev-image-keyboard-response,461,1441311,learnblock2,563.6000001430511,img/planet6_left.png,6,Community 2,NA,TRUE,f,f,NA,NA,NA,3,6,"1,8,9,11,14,6,4,12,2,10,5,15,7,13,3"
15359,commdev-image-keyboard-response,462,1442563,learnblock2,710.5999999046326,img/planet11_right.png,11,Community 1,NA,TRUE,j,j,NA,NA,NA,3,6,"1,8,9,11,14,6,4,12,2,10,5,15,7,13,3"
15359,commdev-image-keyboard-response,463,1443814,learnblock2,643.7000000476837,img/planet1_right.png,1,Community 1,NA,TRUE,j,j,NA,NA,NA,3,6,"1,8,9,11,14,6,4,12,2,10,5,15,7,13,3"
15359,commdev-image-keyboard-response,464,1445066,learnblock2,560.7000000476837,img/planet11_right.png,11,Community 1,NA,TRUE,j,j,NA,NA,NA,3,6,"1,8,9,11,14,6,4,12,2,10,5,15,7,13,3"
15359,commdev-image-keyboard-response,465,1446318,learnblock2,707.7000000476837,img/planet8_right.png,8,Community 1,NA,TRUE,j,j,NA,NA,NA,3,6,"1,8,9,11,14,6,4,12,2,10,5,15,7,13,3"
15359,commdev-image-keyboard-response,466,1447571,learnblock2,600.0999999046326,img/planet11_left.png,11,Community 1,NA,TRUE,f,f,NA,NA,NA,3,6,"1,8,9,11,14,6,4,12,2,10,5,15,7,13,3"
15359,commdev-image-keyboard-response,467,1448822,learnblock2,523.2000000476837,img/planet9_right.png,9,Community 1,NA,TRUE,j,j,NA,NA,NA,3,6,"1,8,9,11,14,6,4,12,2,10,5,15,7,13,3"
15359,commdev-image-keyboard-response,468,1450075,learnblock2,535.4000000953674,img/planet11_right.png,11,Community 1,NA,TRUE,j,j,NA,NA,NA,3,6,"1,8,9,11,14,6,4,12,2,10,5,15,7,13,3"
15359,commdev-image-keyboard-response,469,1451328,learnblock2,666.9000000953674,img/planet8_left.png,8,Community 1,NA,TRUE,f,f,NA,NA,NA,3,6,"1,8,9,11,14,6,4,12,2,10,5,15,7,13,3"
15359,commdev-image-keyboard-response,470,1452580,learnblock2,576.3000001907349,img/planet1_right.png,1,Community 1,NA,TRUE,j,j,NA,NA,NA,3,6,"1,8,9,11,14,6,4,12,2,10,5,15,7,13,3"
15359,commdev-image-keyboard-response,471,1453832,learnblock2,513.7000000476837,img/planet9_left.png,9,Community 1,NA,FALSE,j,f,NA,NA,NA,3,6,"1,8,9,11,14,6,4,12,2,10,5,15,7,13,3"
15359,commdev-image-keyboard-response,472,1455085,learnblock2,772,img/planet14_right.png,14,Community 1,NA,TRUE,j,j,NA,NA,NA,3,6,"1,8,9,11,14,6,4,12,2,10,5,15,7,13,3"
15359,commdev-image-keyboard-response,473,1456336,learnblock2,609.5,img/planet8_right.png,8,Community 1,NA,TRUE,j,j,NA,NA,NA,3,6,"1,8,9,11,14,6,4,12,2,10,5,15,7,13,3"
15359,commdev-image-keyboard-response,474,1457588,learnblock2,582.0999999046326,img/planet9_right.png,9,Community 1,NA,TRUE,j,j,NA,NA,NA,3,6,"1,8,9,11,14,6,4,12,2,10,5,15,7,13,3"
15359,commdev-image-keyboard-response,475,1458841,learnblock2,987.5999999046326,img/planet14_left.png,14,Community 1,NA,TRUE,f,f,NA,NA,NA,3,6,"1,8,9,11,14,6,4,12,2,10,5,15,7,13,3"
15359,commdev-image-keyboard-response,476,1460093,learnblock2,605,img/planet1_left.png,1,Community 1,NA,TRUE,f,f,NA,NA,NA,3,6,"1,8,9,11,14,6,4,12,2,10,5,15,7,13,3"
15359,commdev-image-keyboard-response,477,1461345,learnblock2,512.9000000953674,img/planet14_left.png,14,Community 1,NA,TRUE,f,f,NA,NA,NA,3,6,"1,8,9,11,14,6,4,12,2,10,5,15,7,13,3"
15359,commdev-image-keyboard-response,478,1462598,learnblock2,412.39999985694885,img/planet1_right.png,1,Community 1,NA,TRUE,j,j,NA,NA,NA,3,6,"1,8,9,11,14,6,4,12,2,10,5,15,7,13,3"
15359,commdev-image-keyboard-response,479,1463851,learnblock2,665.5,img/planet8_left.png,8,Community 1,NA,TRUE,f,f,NA,NA,NA,3,6,"1,8,9,11,14,6,4,12,2,10,5,15,7,13,3"
15359,commdev-image-keyboard-response,480,1465103,learnblock2,491.2999999523163,img/planet1_right.png,1,Community 1,NA,TRUE,j,j,NA,NA,NA,3,6,"1,8,9,11,14,6,4,12,2,10,5,15,7,13,3"
15359,commdev-image-keyboard-response,481,1466356,learnblock2,760.7000000476837,img/planet8_right.png,8,Community 1,NA,TRUE,j,j,NA,NA,NA,3,6,"1,8,9,11,14,6,4,12,2,10,5,15,7,13,3"
15359,commdev-image-keyboard-response,482,1467608,learnblock2,900,img/planet9_right.png,9,Community 1,NA,FALSE,f,j,NA,NA,NA,3,6,"1,8,9,11,14,6,4,12,2,10,5,15,7,13,3"
15359,commdev-image-keyboard-response,483,1468863,learnblock2,775.3999998569489,img/planet8_right.png,8,Community 1,NA,TRUE,j,j,NA,NA,NA,3,6,"1,8,9,11,14,6,4,12,2,10,5,15,7,13,3"
15359,commdev-image-keyboard-response,484,1470114,learnblock2,599.0999999046326,img/planet1_left.png,1,Community 1,NA,TRUE,f,f,NA,NA,NA,3,6,"1,8,9,11,14,6,4,12,2,10,5,15,7,13,3"
15359,commdev-image-keyboard-response,485,1471366,learnblock2,924.1000001430511,img/planet8_left.png,8,Community 1,NA,TRUE,f,f,NA,NA,NA,3,6,"1,8,9,11,14,6,4,12,2,10,5,15,7,13,3"
15359,commdev-image-keyboard-response,486,1472619,learnblock2,615.6000001430511,img/planet11_left.png,11,Community 1,NA,TRUE,f,f,NA,NA,NA,3,6,"1,8,9,11,14,6,4,12,2,10,5,15,7,13,3"
15359,commdev-image-keyboard-response,487,1473871,learnblock2,499.5,img/planet8_right.png,8,Community 1,NA,TRUE,j,j,NA,NA,NA,3,6,"1,8,9,11,14,6,4,12,2,10,5,15,7,13,3"
15359,commdev-image-keyboard-response,488,1475123,learnblock2,583.1999998092651,img/planet11_left.png,11,Community 1,NA,TRUE,f,f,NA,NA,NA,3,6,"1,8,9,11,14,6,4,12,2,10,5,15,7,13,3"
15359,commdev-image-keyboard-response,489,1476374,learnblock2,564.5999999046326,img/planet1_left.png,1,Community 1,NA,TRUE,f,f,NA,NA,NA,3,6,"1,8,9,11,14,6,4,12,2,10,5,15,7,13,3"
15359,commdev-image-keyboard-response,490,1477626,learnblock2,480.2999999523163,img/planet11_right.png,11,Community 1,NA,TRUE,j,j,NA,NA,NA,3,6,"1,8,9,11,14,6,4,12,2,10,5,15,7,13,3"
15359,commdev-image-keyboard-response,491,1478878,learnblock2,564.4000000953674,img/planet9_right.png,9,Community 1,NA,TRUE,j,j,NA,NA,NA,3,6,"1,8,9,11,14,6,4,12,2,10,5,15,7,13,3"
15359,commdev-image-keyboard-response,492,1480130,learnblock2,632.7000000476837,img/planet14_right.png,14,Community 1,NA,TRUE,j,j,NA,NA,NA,3,6,"1,8,9,11,14,6,4,12,2,10,5,15,7,13,3"
15359,commdev-image-keyboard-response,493,1481383,learnblock2,502.89999985694885,img/planet8_left.png,8,Community 1,NA,TRUE,f,f,NA,NA,NA,3,6,"1,8,9,11,14,6,4,12,2,10,5,15,7,13,3"
15359,commdev-image-keyboard-response,494,1482635,learnblock2,559,img/planet11_left.png,11,Community 1,NA,TRUE,f,f,NA,NA,NA,3,6,"1,8,9,11,14,6,4,12,2,10,5,15,7,13,3"
15359,commdev-image-keyboard-response,495,1483887,learnblock2,532.5,img/planet6_left.png,6,Community 2,NA,TRUE,f,f,NA,NA,NA,3,6,"1,8,9,11,14,6,4,12,2,10,5,15,7,13,3"
15359,commdev-image-keyboard-response,496,1485139,learnblock2,614.6000001430511,img/planet2_left.png,2,Community 2,NA,TRUE,f,f,NA,NA,NA,3,6,"1,8,9,11,14,6,4,12,2,10,5,15,7,13,3"
15359,commdev-image-keyboard-response,497,1486391,learnblock2,533.2999999523163,img/planet6_left.png,6,Community 2,NA,TRUE,f,f,NA,NA,NA,3,6,"1,8,9,11,14,6,4,12,2,10,5,15,7,13,3"
15359,commdev-image-keyboard-response,498,1487642,learnblock2,584.4000000953674,img/planet2_left.png,2,Community 2,NA,TRUE,f,f,NA,NA,NA,3,6,"1,8,9,11,14,6,4,12,2,10,5,15,7,13,3"
15359,commdev-image-keyboard-response,499,1488895,learnblock2,524,img/planet10_right.png,10,Community 2,NA,TRUE,j,j,NA,NA,NA,3,6,"1,8,9,11,14,6,4,12,2,10,5,15,7,13,3"
15359,commdev-image-keyboard-response,500,1490147,learnblock2,567.7999999523163,img/planet4_right.png,4,Community 2,NA,TRUE,j,j,NA,NA,NA,3,6,"1,8,9,11,14,6,4,12,2,10,5,15,7,13,3"
15359,commdev-image-keyboard-response,501,1491399,learnblock2,468.09999990463257,img/planet2_right.png,2,Community 2,NA,TRUE,j,j,NA,NA,NA,3,6,"1,8,9,11,14,6,4,12,2,10,5,15,7,13,3"
15359,commdev-image-keyboard-response,502,1492651,learnblock2,441.40000009536743,img/planet12_left.png,12,Community 2,NA,TRUE,f,f,NA,NA,NA,3,6,"1,8,9,11,14,6,4,12,2,10,5,15,7,13,3"
15359,commdev-image-keyboard-response,503,1493903,learnblock2,491.59999990463257,img/planet15_right.png,15,Community 3,NA,TRUE,j,j,NA,NA,NA,3,6,"1,8,9,11,14,6,4,12,2,10,5,15,7,13,3"
15359,commdev-image-keyboard-response,504,1495155,learnblock2,544.5,img/planet3_left.png,3,Community 3,NA,TRUE,f,f,NA,NA,NA,3,6,"1,8,9,11,14,6,4,12,2,10,5,15,7,13,3"
15359,commdev-image-keyboard-response,505,1496407,learnblock2,573.7999999523163,img/planet13_right.png,13,Community 3,NA,TRUE,j,j,NA,NA,NA,3,6,"1,8,9,11,14,6,4,12,2,10,5,15,7,13,3"
15359,commdev-image-keyboard-response,506,1497659,learnblock2,495.30000019073486,img/planet15_right.png,15,Community 3,NA,TRUE,j,j,NA,NA,NA,3,6,"1,8,9,11,14,6,4,12,2,10,5,15,7,13,3"
15359,commdev-image-keyboard-response,507,1498911,learnblock2,769.7000000476837,img/planet13_right.png,13,Community 3,NA,TRUE,j,j,NA,NA,NA,3,6,"1,8,9,11,14,6,4,12,2,10,5,15,7,13,3"
15359,commdev-image-keyboard-response,508,1500163,learnblock2,575.1000001430511,img/planet3_left.png,3,Community 3,NA,TRUE,f,f,NA,NA,NA,3,6,"1,8,9,11,14,6,4,12,2,10,5,15,7,13,3"
15359,commdev-image-keyboard-response,509,1501415,learnblock2,604.7000000476837,img/planet7_right.png,7,Community 3,NA,TRUE,j,j,NA,NA,NA,3,6,"1,8,9,11,14,6,4,12,2,10,5,15,7,13,3"
15359,commdev-image-keyboard-response,510,1502667,learnblock2,633.3999998569489,img/planet13_right.png,13,Community 3,NA,TRUE,j,j,NA,NA,NA,3,6,"1,8,9,11,14,6,4,12,2,10,5,15,7,13,3"
15359,commdev-image-keyboard-response,511,1503919,learnblock2,549.1000001430511,img/planet15_left.png,15,Community 3,NA,TRUE,f,f,NA,NA,NA,3,6,"1,8,9,11,14,6,4,12,2,10,5,15,7,13,3"
15359,commdev-image-keyboard-response,512,1505171,learnblock2,728.5,img/planet13_right.png,13,Community 3,NA,TRUE,j,j,NA,NA,NA,3,6,"1,8,9,11,14,6,4,12,2,10,5,15,7,13,3"
15359,commdev-image-keyboard-response,513,1506423,learnblock2,531.7999999523163,img/planet5_right.png,5,Community 3,NA,TRUE,j,j,NA,NA,NA,3,6,"1,8,9,11,14,6,4,12,2,10,5,15,7,13,3"
15359,commdev-image-keyboard-response,514,1507676,learnblock2,623.6000001430511,img/planet13_left.png,13,Community 3,NA,TRUE,f,f,NA,NA,NA,3,6,"1,8,9,11,14,6,4,12,2,10,5,15,7,13,3"
15359,commdev-image-keyboard-response,515,1508940,learnblock2,553.4000000953674,img/planet3_left.png,3,Community 3,NA,TRUE,f,f,NA,NA,NA,3,6,"1,8,9,11,14,6,4,12,2,10,5,15,7,13,3"
15359,commdev-image-keyboard-response,516,1510193,learnblock2,458.09999990463257,img/planet5_right.png,5,Community 3,NA,TRUE,j,j,NA,NA,NA,3,6,"1,8,9,11,14,6,4,12,2,10,5,15,7,13,3"
15359,commdev-image-keyboard-response,517,1511444,learnblock2,598,img/planet7_right.png,7,Community 3,NA,TRUE,j,j,NA,NA,NA,3,6,"1,8,9,11,14,6,4,12,2,10,5,15,7,13,3"
15359,commdev-image-keyboard-response,518,1512708,learnblock2,554.5999999046326,img/planet3_left.png,3,Community 3,NA,TRUE,f,f,NA,NA,NA,3,6,"1,8,9,11,14,6,4,12,2,10,5,15,7,13,3"
15359,commdev-image-keyboard-response,519,1513961,learnblock2,490.19999980926514,img/planet13_left.png,13,Community 3,NA,TRUE,f,f,NA,NA,NA,3,6,"1,8,9,11,14,6,4,12,2,10,5,15,7,13,3"
15359,commdev-image-keyboard-response,520,1515213,learnblock2,869.4000000953674,img/planet5_right.png,5,Community 3,NA,FALSE,f,j,NA,NA,NA,3,6,"1,8,9,11,14,6,4,12,2,10,5,15,7,13,3"
15359,commdev-image-keyboard-response,521,1516465,learnblock2,729.2999999523163,img/planet3_right.png,3,Community 3,NA,TRUE,j,j,NA,NA,NA,3,6,"1,8,9,11,14,6,4,12,2,10,5,15,7,13,3"
15359,commdev-image-keyboard-response,522,1517717,learnblock2,686.1999998092651,img/planet7_left.png,7,Community 3,NA,TRUE,f,f,NA,NA,NA,3,6,"1,8,9,11,14,6,4,12,2,10,5,15,7,13,3"
15359,commdev-image-keyboard-response,523,1518968,learnblock2,584.9000000953674,img/planet5_left.png,5,Community 3,NA,TRUE,f,f,NA,NA,NA,3,6,"1,8,9,11,14,6,4,12,2,10,5,15,7,13,3"
15359,commdev-image-keyboard-response,524,1520221,learnblock2,598.5,img/planet3_left.png,3,Community 3,NA,TRUE,f,f,NA,NA,NA,3,6,"1,8,9,11,14,6,4,12,2,10,5,15,7,13,3"
15359,commdev-image-keyboard-response,525,1521473,learnblock2,569.3999998569489,img/planet7_left.png,7,Community 3,NA,TRUE,f,f,NA,NA,NA,3,6,"1,8,9,11,14,6,4,12,2,10,5,15,7,13,3"
15359,commdev-image-keyboard-response,526,1522726,learnblock2,615.4000000953674,img/planet3_left.png,3,Community 3,NA,TRUE,f,f,NA,NA,NA,3,6,"1,8,9,11,14,6,4,12,2,10,5,15,7,13,3"
15359,commdev-image-keyboard-response,527,1523978,learnblock2,455.2000000476837,img/planet5_right.png,5,Community 3,NA,TRUE,j,j,NA,NA,NA,3,6,"1,8,9,11,14,6,4,12,2,10,5,15,7,13,3"
15359,commdev-image-keyboard-response,528,1525230,learnblock2,579.6000001430511,img/planet14_left.png,14,Community 1,NA,TRUE,f,f,NA,NA,NA,3,6,"1,8,9,11,14,6,4,12,2,10,5,15,7,13,3"
15359,commdev-image-keyboard-response,529,1526481,learnblock2,703,img/planet9_left.png,9,Community 1,NA,TRUE,f,f,NA,NA,NA,3,6,"1,8,9,11,14,6,4,12,2,10,5,15,7,13,3"
15359,commdev-image-keyboard-response,530,1527733,learnblock2,717.4000000953674,img/planet8_right.png,8,Community 1,NA,TRUE,j,j,NA,NA,NA,3,6,"1,8,9,11,14,6,4,12,2,10,5,15,7,13,3"
15359,commdev-image-keyboard-response,531,1528985,learnblock2,537,img/planet9_left.png,9,Community 1,NA,TRUE,f,f,NA,NA,NA,3,6,"1,8,9,11,14,6,4,12,2,10,5,15,7,13,3"
15359,commdev-image-keyboard-response,532,1530249,learnblock2,836.7999999523163,img/planet14_right.png,14,Community 1,NA,TRUE,j,j,NA,NA,NA,3,6,"1,8,9,11,14,6,4,12,2,10,5,15,7,13,3"
15359,commdev-image-keyboard-response,533,1531502,learnblock2,604.9000000953674,img/planet1_left.png,1,Community 1,NA,TRUE,f,f,NA,NA,NA,3,6,"1,8,9,11,14,6,4,12,2,10,5,15,7,13,3"
15359,commdev-image-keyboard-response,534,1532754,learnblock2,632.6000001430511,img/planet8_left.png,8,Community 1,NA,TRUE,f,f,NA,NA,NA,3,6,"1,8,9,11,14,6,4,12,2,10,5,15,7,13,3"
15359,commdev-image-keyboard-response,535,1534005,learnblock2,509,img/planet1_left.png,1,Community 1,NA,TRUE,f,f,NA,NA,NA,3,6,"1,8,9,11,14,6,4,12,2,10,5,15,7,13,3"
15359,commdev-image-keyboard-response,536,1535258,learnblock2,601,img/planet9_right.png,9,Community 1,NA,TRUE,j,j,NA,NA,NA,3,6,"1,8,9,11,14,6,4,12,2,10,5,15,7,13,3"
15359,commdev-image-keyboard-response,537,1536510,learnblock2,796.7000000476837,img/planet8_left.png,8,Community 1,NA,TRUE,f,f,NA,NA,NA,3,6,"1,8,9,11,14,6,4,12,2,10,5,15,7,13,3"
15359,commdev-image-keyboard-response,538,1537763,learnblock2,600.5,img/planet14_left.png,14,Community 1,NA,TRUE,f,f,NA,NA,NA,3,6,"1,8,9,11,14,6,4,12,2,10,5,15,7,13,3"
15359,commdev-image-keyboard-response,539,1539016,learnblock2,547.5999999046326,img/planet1_left.png,1,Community 1,NA,TRUE,f,f,NA,NA,NA,3,6,"1,8,9,11,14,6,4,12,2,10,5,15,7,13,3"
15359,commdev-image-keyboard-response,540,1540268,learnblock2,503.7000000476837,img/planet14_left.png,14,Community 1,NA,TRUE,f,f,NA,NA,NA,3,6,"1,8,9,11,14,6,4,12,2,10,5,15,7,13,3"
15359,commdev-image-keyboard-response,541,1541521,learnblock2,496.7000000476837,img/planet8_left.png,8,Community 1,NA,FALSE,j,f,NA,NA,NA,3,6,"1,8,9,11,14,6,4,12,2,10,5,15,7,13,3"
15359,commdev-image-keyboard-response,542,1542773,learnblock2,416.2000000476837,img/planet11_right.png,11,Community 1,NA,TRUE,j,j,NA,NA,NA,3,6,"1,8,9,11,14,6,4,12,2,10,5,15,7,13,3"
15359,commdev-image-keyboard-response,543,1544026,learnblock2,448.69999980926514,img/planet9_right.png,9,Community 1,NA,TRUE,j,j,NA,NA,NA,3,6,"1,8,9,11,14,6,4,12,2,10,5,15,7,13,3"
15359,commdev-image-keyboard-response,544,1545278,learnblock2,557.2999999523163,img/planet1_right.png,1,Community 1,NA,TRUE,j,j,NA,NA,NA,3,6,"1,8,9,11,14,6,4,12,2,10,5,15,7,13,3"
15359,commdev-image-keyboard-response,545,1546530,learnblock2,472.10000014305115,img/planet9_right.png,9,Community 1,NA,TRUE,j,j,NA,NA,NA,3,6,"1,8,9,11,14,6,4,12,2,10,5,15,7,13,3"
15359,commdev-image-keyboard-response,546,1547782,learnblock2,596.7999999523163,img/planet1_right.png,1,Community 1,NA,TRUE,j,j,NA,NA,NA,3,6,"1,8,9,11,14,6,4,12,2,10,5,15,7,13,3"
15359,commdev-image-keyboard-response,547,1549034,learnblock2,536.8999998569489,img/planet14_left.png,14,Community 1,NA,TRUE,f,f,NA,NA,NA,3,6,"1,8,9,11,14,6,4,12,2,10,5,15,7,13,3"
15359,commdev-image-keyboard-response,548,1550287,learnblock2,675.7000000476837,img/planet9_right.png,9,Community 1,NA,TRUE,j,j,NA,NA,NA,3,6,"1,8,9,11,14,6,4,12,2,10,5,15,7,13,3"
15359,commdev-image-keyboard-response,549,1551540,learnblock2,573.7000000476837,img/planet11_left.png,11,Community 1,NA,FALSE,j,f,NA,NA,NA,3,6,"1,8,9,11,14,6,4,12,2,10,5,15,7,13,3"
15359,commdev-image-keyboard-response,550,1552805,learnblock2,658.7999999523163,img/planet9_right.png,9,Community 1,NA,FALSE,f,j,NA,NA,NA,3,6,"1,8,9,11,14,6,4,12,2,10,5,15,7,13,3"
15359,commdev-image-keyboard-response,551,1554057,learnblock2,1106.2999999523163,img/planet1_right.png,1,Community 1,NA,TRUE,j,j,NA,NA,NA,3,6,"1,8,9,11,14,6,4,12,2,10,5,15,7,13,3"
15359,commdev-image-keyboard-response,552,1555309,learnblock2,827.7000000476837,img/planet14_right.png,14,Community 1,NA,TRUE,j,j,NA,NA,NA,3,6,"1,8,9,11,14,6,4,12,2,10,5,15,7,13,3"
15359,commdev-image-keyboard-response,553,1556562,learnblock2,570.7999999523163,img/planet5_right.png,5,Community 3,NA,TRUE,j,j,NA,NA,NA,3,6,"1,8,9,11,14,6,4,12,2,10,5,15,7,13,3"
15359,commdev-image-keyboard-response,554,1557823,learnblock2,748.0999999046326,img/planet7_left.png,7,Community 3,NA,TRUE,f,f,NA,NA,NA,3,6,"1,8,9,11,14,6,4,12,2,10,5,15,7,13,3"
15359,commdev-image-keyboard-response,555,1559075,learnblock2,560.2999999523163,img/planet13_left.png,13,Community 3,NA,TRUE,f,f,NA,NA,NA,3,6,"1,8,9,11,14,6,4,12,2,10,5,15,7,13,3"
15359,commdev-image-keyboard-response,556,1560328,learnblock2,498.7999999523163,img/planet15_right.png,15,Community 3,NA,TRUE,j,j,NA,NA,NA,3,6,"1,8,9,11,14,6,4,12,2,10,5,15,7,13,3"
15359,commdev-image-keyboard-response,557,1561580,learnblock2,584,img/planet12_right.png,12,Community 2,NA,TRUE,j,j,NA,NA,NA,3,6,"1,8,9,11,14,6,4,12,2,10,5,15,7,13,3"
15359,commdev-image-keyboard-response,558,1562833,learnblock2,634.5999999046326,img/planet4_right.png,4,Community 2,NA,TRUE,j,j,NA,NA,NA,3,6,"1,8,9,11,14,6,4,12,2,10,5,15,7,13,3"
15359,commdev-image-keyboard-response,559,1564091,learnblock2,711.7000000476837,img/planet12_right.png,12,Community 2,NA,TRUE,j,j,NA,NA,NA,3,6,"1,8,9,11,14,6,4,12,2,10,5,15,7,13,3"
15359,commdev-image-keyboard-response,560,1565356,learnblock2,588.7000000476837,img/planet4_right.png,4,Community 2,NA,TRUE,j,j,NA,NA,NA,3,6,"1,8,9,11,14,6,4,12,2,10,5,15,7,13,3"
15359,commdev-image-keyboard-response,561,1566608,learnblock2,626.5999999046326,img/planet6_right.png,6,Community 2,NA,TRUE,j,j,NA,NA,NA,3,6,"1,8,9,11,14,6,4,12,2,10,5,15,7,13,3"
15359,commdev-image-keyboard-response,562,1567860,learnblock2,542.2999999523163,img/planet10_right.png,10,Community 2,NA,TRUE,j,j,NA,NA,NA,3,6,"1,8,9,11,14,6,4,12,2,10,5,15,7,13,3"
15359,commdev-image-keyboard-response,563,1569112,learnblock2,515.2000000476837,img/planet4_right.png,4,Community 2,NA,TRUE,j,j,NA,NA,NA,3,6,"1,8,9,11,14,6,4,12,2,10,5,15,7,13,3"
15359,commdev-image-keyboard-response,564,1570364,learnblock2,544.2999999523163,img/planet12_left.png,12,Community 2,NA,TRUE,f,f,NA,NA,NA,3,6,"1,8,9,11,14,6,4,12,2,10,5,15,7,13,3"
15359,commdev-image-keyboard-response,565,1571615,learnblock2,518.0999999046326,img/planet2_left.png,2,Community 2,NA,TRUE,f,f,NA,NA,NA,3,6,"1,8,9,11,14,6,4,12,2,10,5,15,7,13,3"
15359,commdev-image-keyboard-response,566,1572874,learnblock2,534.8999998569489,img/planet6_left.png,6,Community 2,NA,TRUE,f,f,NA,NA,NA,3,6,"1,8,9,11,14,6,4,12,2,10,5,15,7,13,3"
15359,commdev-image-keyboard-response,567,1574125,learnblock2,508.7000000476837,img/planet11_left.png,11,Community 1,NA,TRUE,f,f,NA,NA,NA,3,6,"1,8,9,11,14,6,4,12,2,10,5,15,7,13,3"
15359,commdev-image-keyboard-response,568,1575377,learnblock2,483.7000000476837,img/planet8_right.png,8,Community 1,NA,TRUE,j,j,NA,NA,NA,3,6,"1,8,9,11,14,6,4,12,2,10,5,15,7,13,3"
15359,commdev-image-keyboard-response,569,1576628,learnblock2,494.90000009536743,img/planet11_left.png,11,Community 1,NA,FALSE,j,f,NA,NA,NA,3,6,"1,8,9,11,14,6,4,12,2,10,5,15,7,13,3"
15359,commdev-image-keyboard-response,570,1577881,learnblock2,675.7000000476837,img/planet8_left.png,8,Community 1,NA,TRUE,f,f,NA,NA,NA,3,6,"1,8,9,11,14,6,4,12,2,10,5,15,7,13,3"
15359,commdev-image-keyboard-response,571,1579133,learnblock2,582,img/planet1_right.png,1,Community 1,NA,TRUE,j,j,NA,NA,NA,3,6,"1,8,9,11,14,6,4,12,2,10,5,15,7,13,3"
15359,commdev-image-keyboard-response,572,1580386,learnblock2,568.2999999523163,img/planet8_right.png,8,Community 1,NA,TRUE,j,j,NA,NA,NA,3,6,"1,8,9,11,14,6,4,12,2,10,5,15,7,13,3"
15359,commdev-image-keyboard-response,573,1581638,learnblock2,445.10000014305115,img/planet11_left.png,11,Community 1,NA,TRUE,f,f,NA,NA,NA,3,6,"1,8,9,11,14,6,4,12,2,10,5,15,7,13,3"
15359,commdev-image-keyboard-response,574,1582890,learnblock2,520.0999999046326,img/planet6_left.png,6,Community 2,NA,TRUE,f,f,NA,NA,NA,3,6,"1,8,9,11,14,6,4,12,2,10,5,15,7,13,3"
15359,commdev-image-keyboard-response,575,1584143,learnblock2,516.2000000476837,img/planet10_right.png,10,Community 2,NA,FALSE,f,j,NA,NA,NA,3,6,"1,8,9,11,14,6,4,12,2,10,5,15,7,13,3"
15359,commdev-image-keyboard-response,576,1585405,learnblock2,566.5,img/planet2_right.png,2,Community 2,NA,TRUE,j,j,NA,NA,NA,3,6,"1,8,9,11,14,6,4,12,2,10,5,15,7,13,3"
15359,commdev-image-keyboard-response,577,1586657,learnblock2,601.4000000953674,img/planet4_right.png,4,Community 2,NA,TRUE,j,j,NA,NA,NA,3,6,"1,8,9,11,14,6,4,12,2,10,5,15,7,13,3"
15359,commdev-image-keyboard-response,578,1587909,learnblock2,572.7000000476837,img/planet12_left.png,12,Community 2,NA,TRUE,f,f,NA,NA,NA,3,6,"1,8,9,11,14,6,4,12,2,10,5,15,7,13,3"
15359,commdev-image-keyboard-response,579,1589162,learnblock2,665.2999999523163,img/planet15_left.png,15,Community 3,NA,TRUE,f,f,NA,NA,NA,3,6,"1,8,9,11,14,6,4,12,2,10,5,15,7,13,3"
15359,commdev-image-keyboard-response,580,1590416,learnblock2,636.8999998569489,img/planet13_left.png,13,Community 3,NA,TRUE,f,f,NA,NA,NA,3,6,"1,8,9,11,14,6,4,12,2,10,5,15,7,13,3"
15359,commdev-image-keyboard-response,581,1591667,learnblock2,743,img/planet5_right.png,5,Community 3,NA,FALSE,f,j,NA,NA,NA,3,6,"1,8,9,11,14,6,4,12,2,10,5,15,7,13,3"
15359,commdev-image-keyboard-response,582,1592919,learnblock2,700.5999999046326,img/planet3_right.png,3,Community 3,NA,TRUE,j,j,NA,NA,NA,3,6,"1,8,9,11,14,6,4,12,2,10,5,15,7,13,3"
15359,commdev-image-keyboard-response,583,1594171,learnblock2,553.7999999523163,img/planet13_right.png,13,Community 3,NA,TRUE,j,j,NA,NA,NA,3,6,"1,8,9,11,14,6,4,12,2,10,5,15,7,13,3"
15359,commdev-image-keyboard-response,584,1595423,learnblock2,548.7000000476837,img/planet3_right.png,3,Community 3,NA,TRUE,j,j,NA,NA,NA,3,6,"1,8,9,11,14,6,4,12,2,10,5,15,7,13,3"
15359,commdev-image-keyboard-response,585,1596675,learnblock2,598.8000001907349,img/planet13_right.png,13,Community 3,NA,TRUE,j,j,NA,NA,NA,3,6,"1,8,9,11,14,6,4,12,2,10,5,15,7,13,3"
15359,commdev-image-keyboard-response,586,1597927,learnblock2,515,img/planet5_left.png,5,Community 3,NA,TRUE,f,f,NA,NA,NA,3,6,"1,8,9,11,14,6,4,12,2,10,5,15,7,13,3"
15359,commdev-image-keyboard-response,587,1599179,learnblock2,599.6999998092651,img/planet7_left.png,7,Community 3,NA,TRUE,f,f,NA,NA,NA,3,6,"1,8,9,11,14,6,4,12,2,10,5,15,7,13,3"
15359,commdev-image-keyboard-response,588,1600431,learnblock2,635.3999998569489,img/planet13_left.png,13,Community 3,NA,TRUE,f,f,NA,NA,NA,3,6,"1,8,9,11,14,6,4,12,2,10,5,15,7,13,3"
15359,commdev-image-keyboard-response,589,1601692,learnblock2,647.2999999523163,img/planet7_left.png,7,Community 3,NA,TRUE,f,f,NA,NA,NA,3,6,"1,8,9,11,14,6,4,12,2,10,5,15,7,13,3"
15359,commdev-image-keyboard-response,590,1602944,learnblock2,473.59999990463257,img/planet3_right.png,3,Community 3,NA,TRUE,j,j,NA,NA,NA,3,6,"1,8,9,11,14,6,4,12,2,10,5,15,7,13,3"
15359,commdev-image-keyboard-response,591,1604197,learnblock2,622.1000001430511,img/planet5_left.png,5,Community 3,NA,TRUE,f,f,NA,NA,NA,3,6,"1,8,9,11,14,6,4,12,2,10,5,15,7,13,3"
15359,commdev-image-keyboard-response,592,1605449,learnblock2,627.2000000476837,img/planet13_right.png,13,Community 3,NA,TRUE,j,j,NA,NA,NA,3,6,"1,8,9,11,14,6,4,12,2,10,5,15,7,13,3"
15359,commdev-image-keyboard-response,593,1606703,learnblock2,685.2999999523163,img/planet7_left.png,7,Community 3,NA,TRUE,f,f,NA,NA,NA,3,6,"1,8,9,11,14,6,4,12,2,10,5,15,7,13,3"
15359,commdev-image-keyboard-response,594,1607955,learnblock2,759.2000000476837,img/planet5_left.png,5,Community 3,NA,TRUE,f,f,NA,NA,NA,3,6,"1,8,9,11,14,6,4,12,2,10,5,15,7,13,3"
15359,commdev-image-keyboard-response,595,1609208,learnblock2,715.4000000953674,img/planet13_left.png,13,Community 3,NA,TRUE,f,f,NA,NA,NA,3,6,"1,8,9,11,14,6,4,12,2,10,5,15,7,13,3"
15359,commdev-image-keyboard-response,596,1610460,learnblock2,629.4000000953674,img/planet7_right.png,7,Community 3,NA,TRUE,j,j,NA,NA,NA,3,6,"1,8,9,11,14,6,4,12,2,10,5,15,7,13,3"
15359,commdev-image-keyboard-response,597,1611712,learnblock2,818.0999999046326,img/planet5_right.png,5,Community 3,NA,TRUE,j,j,NA,NA,NA,3,6,"1,8,9,11,14,6,4,12,2,10,5,15,7,13,3"
15359,commdev-image-keyboard-response,598,1612964,learnblock2,694.5999999046326,img/planet14_left.png,14,Community 1,NA,TRUE,f,f,NA,NA,NA,3,6,"1,8,9,11,14,6,4,12,2,10,5,15,7,13,3"
15359,commdev-image-keyboard-response,599,1614216,learnblock2,498.90000009536743,img/planet1_right.png,1,Community 1,NA,TRUE,j,j,NA,NA,NA,3,6,"1,8,9,11,14,6,4,12,2,10,5,15,7,13,3"
15359,commdev-image-keyboard-response,600,1615467,learnblock2,604.8000001907349,img/planet8_left.png,8,Community 1,NA,TRUE,f,f,NA,NA,NA,3,6,"1,8,9,11,14,6,4,12,2,10,5,15,7,13,3"
15359,commdev-image-keyboard-response,601,1616720,learnblock2,733.4000000953674,img/planet11_left.png,11,Community 1,NA,TRUE,f,f,NA,NA,NA,3,6,"1,8,9,11,14,6,4,12,2,10,5,15,7,13,3"
15359,commdev-image-keyboard-response,602,1617971,learnblock2,726.5999999046326,img/planet8_left.png,8,Community 1,NA,TRUE,f,f,NA,NA,NA,3,6,"1,8,9,11,14,6,4,12,2,10,5,15,7,13,3"
15359,commdev-image-keyboard-response,603,1619224,learnblock2,701.8999998569489,img/planet14_left.png,14,Community 1,NA,TRUE,f,f,NA,NA,NA,3,6,"1,8,9,11,14,6,4,12,2,10,5,15,7,13,3"
15359,commdev-image-keyboard-response,604,1620475,learnblock2,511,img/planet9_right.png,9,Community 1,NA,TRUE,j,j,NA,NA,NA,3,6,"1,8,9,11,14,6,4,12,2,10,5,15,7,13,3"
15359,commdev-image-keyboard-response,605,1621728,learnblock2,395.89999985694885,img/planet1_right.png,1,Community 1,NA,TRUE,j,j,NA,NA,NA,3,6,"1,8,9,11,14,6,4,12,2,10,5,15,7,13,3"
15359,commdev-image-keyboard-response,606,1622980,learnblock2,425.60000014305115,img/planet9_right.png,9,Community 1,NA,TRUE,j,j,NA,NA,NA,3,6,"1,8,9,11,14,6,4,12,2,10,5,15,7,13,3"
15359,commdev-image-keyboard-response,607,1624233,learnblock2,651.1000001430511,img/planet8_right.png,8,Community 1,NA,TRUE,j,j,NA,NA,NA,3,6,"1,8,9,11,14,6,4,12,2,10,5,15,7,13,3"
15359,commdev-image-keyboard-response,608,1625485,learnblock2,646.0999999046326,img/planet1_left.png,1,Community 1,NA,TRUE,f,f,NA,NA,NA,3,6,"1,8,9,11,14,6,4,12,2,10,5,15,7,13,3"
15359,commdev-image-keyboard-response,609,1626737,learnblock2,714.6000001430511,img/planet8_left.png,8,Community 1,NA,TRUE,f,f,NA,NA,NA,3,6,"1,8,9,11,14,6,4,12,2,10,5,15,7,13,3"
15359,commdev-image-keyboard-response,610,1627990,learnblock2,719,img/planet14_left.png,14,Community 1,NA,TRUE,f,f,NA,NA,NA,3,6,"1,8,9,11,14,6,4,12,2,10,5,15,7,13,3"
15359,commdev-image-keyboard-response,611,1629242,learnblock2,712.7999999523163,img/planet5_left.png,5,Community 3,NA,TRUE,f,f,NA,NA,NA,3,6,"1,8,9,11,14,6,4,12,2,10,5,15,7,13,3"
15359,commdev-image-keyboard-response,612,1630508,learnblock2,596.2000000476837,img/planet13_left.png,13,Community 3,NA,TRUE,f,f,NA,NA,NA,3,6,"1,8,9,11,14,6,4,12,2,10,5,15,7,13,3"
15359,commdev-image-keyboard-response,613,1631760,learnblock2,653.2000000476837,img/planet5_left.png,5,Community 3,NA,TRUE,f,f,NA,NA,NA,3,6,"1,8,9,11,14,6,4,12,2,10,5,15,7,13,3"
15359,commdev-image-keyboard-response,614,1633013,learnblock2,535.1000001430511,img/planet14_right.png,14,Community 1,NA,TRUE,j,j,NA,NA,NA,3,6,"1,8,9,11,14,6,4,12,2,10,5,15,7,13,3"
15359,commdev-image-keyboard-response,615,1634266,learnblock2,665.0999999046326,img/planet5_left.png,5,Community 3,NA,TRUE,f,f,NA,NA,NA,3,6,"1,8,9,11,14,6,4,12,2,10,5,15,7,13,3"
15359,commdev-image-keyboard-response,616,1635518,learnblock2,581.5,img/planet13_left.png,13,Community 3,NA,TRUE,f,f,NA,NA,NA,3,6,"1,8,9,11,14,6,4,12,2,10,5,15,7,13,3"
15359,commdev-image-keyboard-response,617,1636770,learnblock2,577,img/planet7_right.png,7,Community 3,NA,TRUE,j,j,NA,NA,NA,3,6,"1,8,9,11,14,6,4,12,2,10,5,15,7,13,3"
15359,commdev-image-keyboard-response,618,1638023,learnblock2,645.6000001430511,img/planet5_left.png,5,Community 3,NA,TRUE,f,f,NA,NA,NA,3,6,"1,8,9,11,14,6,4,12,2,10,5,15,7,13,3"
15359,commdev-image-keyboard-response,619,1639275,learnblock2,583.3999998569489,img/planet13_right.png,13,Community 3,NA,TRUE,j,j,NA,NA,NA,3,6,"1,8,9,11,14,6,4,12,2,10,5,15,7,13,3"
15359,commdev-image-keyboard-response,620,1640527,learnblock2,579.6000001430511,img/planet3_right.png,3,Community 3,NA,TRUE,j,j,NA,NA,NA,3,6,"1,8,9,11,14,6,4,12,2,10,5,15,7,13,3"
15359,commdev-image-keyboard-response,621,1641779,learnblock2,705.5999999046326,img/planet5_right.png,5,Community 3,NA,TRUE,j,j,NA,NA,NA,3,6,"1,8,9,11,14,6,4,12,2,10,5,15,7,13,3"
15359,commdev-image-keyboard-response,622,1643031,learnblock2,627.5999999046326,img/planet13_right.png,13,Community 3,NA,TRUE,j,j,NA,NA,NA,3,6,"1,8,9,11,14,6,4,12,2,10,5,15,7,13,3"
15359,commdev-image-keyboard-response,623,1644290,learnblock2,567.6999998092651,img/planet3_right.png,3,Community 3,NA,TRUE,j,j,NA,NA,NA,3,6,"1,8,9,11,14,6,4,12,2,10,5,15,7,13,3"
15359,commdev-image-keyboard-response,624,1645543,learnblock2,588.2999999523163,img/planet15_left.png,15,Community 3,NA,TRUE,f,f,NA,NA,NA,3,6,"1,8,9,11,14,6,4,12,2,10,5,15,7,13,3"
15359,commdev-image-keyboard-response,625,1646794,learnblock2,616.9000000953674,img/planet3_left.png,3,Community 3,NA,TRUE,f,f,NA,NA,NA,3,6,"1,8,9,11,14,6,4,12,2,10,5,15,7,13,3"
15359,commdev-image-keyboard-response,626,1648045,learnblock2,670.1999998092651,img/planet5_right.png,5,Community 3,NA,TRUE,j,j,NA,NA,NA,3,6,"1,8,9,11,14,6,4,12,2,10,5,15,7,13,3"
15359,commdev-image-keyboard-response,627,1649296,learnblock2,666.1000001430511,img/planet3_right.png,3,Community 3,NA,TRUE,j,j,NA,NA,NA,3,6,"1,8,9,11,14,6,4,12,2,10,5,15,7,13,3"
15359,commdev-image-keyboard-response,628,1650548,learnblock2,718.2999999523163,img/planet15_right.png,15,Community 3,NA,FALSE,f,j,NA,NA,NA,3,6,"1,8,9,11,14,6,4,12,2,10,5,15,7,13,3"
15359,commdev-image-keyboard-response,629,1651801,learnblock2,651.2000000476837,img/planet3_left.png,3,Community 3,NA,TRUE,f,f,NA,NA,NA,3,6,"1,8,9,11,14,6,4,12,2,10,5,15,7,13,3"
15359,commdev-image-keyboard-response,630,1653066,learnblock2,648.0999999046326,img/planet7_left.png,7,Community 3,NA,TRUE,f,f,NA,NA,NA,3,6,"1,8,9,11,14,6,4,12,2,10,5,15,7,13,3"
15359,commdev-image-keyboard-response,631,1654319,learnblock2,614.5999999046326,img/planet15_right.png,15,Community 3,NA,TRUE,j,j,NA,NA,NA,3,6,"1,8,9,11,14,6,4,12,2,10,5,15,7,13,3"
15359,commdev-image-keyboard-response,632,1655570,learnblock2,591.7999999523163,img/planet13_right.png,13,Community 3,NA,TRUE,j,j,NA,NA,NA,3,6,"1,8,9,11,14,6,4,12,2,10,5,15,7,13,3"
15359,commdev-image-keyboard-response,633,1656822,learnblock2,658.5999999046326,img/planet5_right.png,5,Community 3,NA,TRUE,j,j,NA,NA,NA,3,6,"1,8,9,11,14,6,4,12,2,10,5,15,7,13,3"
15359,commdev-image-keyboard-response,634,1658074,learnblock2,746.9000000953674,img/planet7_right.png,7,Community 3,NA,TRUE,j,j,NA,NA,NA,3,6,"1,8,9,11,14,6,4,12,2,10,5,15,7,13,3"
15359,commdev-image-keyboard-response,635,1659326,learnblock2,646.7999999523163,img/planet15_left.png,15,Community 3,NA,TRUE,f,f,NA,NA,NA,3,6,"1,8,9,11,14,6,4,12,2,10,5,15,7,13,3"
15359,commdev-image-keyboard-response,636,1660579,learnblock2,642.5,img/planet7_right.png,7,Community 3,NA,TRUE,j,j,NA,NA,NA,3,6,"1,8,9,11,14,6,4,12,2,10,5,15,7,13,3"
15359,commdev-image-keyboard-response,637,1661831,learnblock2,594.8999998569489,img/planet3_left.png,3,Community 3,NA,TRUE,f,f,NA,NA,NA,3,6,"1,8,9,11,14,6,4,12,2,10,5,15,7,13,3"
15359,commdev-image-keyboard-response,638,1663084,learnblock2,783.2999999523163,img/planet13_left.png,13,Community 3,NA,TRUE,f,f,NA,NA,NA,3,6,"1,8,9,11,14,6,4,12,2,10,5,15,7,13,3"
15359,commdev-image-keyboard-response,639,1664335,learnblock2,581.5,img/planet5_right.png,5,Community 3,NA,TRUE,j,j,NA,NA,NA,3,6,"1,8,9,11,14,6,4,12,2,10,5,15,7,13,3"
15359,commdev-image-keyboard-response,640,1665588,learnblock2,782.7999999523163,img/planet14_right.png,14,Community 1,NA,TRUE,j,j,NA,NA,NA,3,6,"1,8,9,11,14,6,4,12,2,10,5,15,7,13,3"
15359,commdev-image-keyboard-response,641,1666841,learnblock2,682,img/planet8_left.png,8,Community 1,NA,TRUE,f,f,NA,NA,NA,3,6,"1,8,9,11,14,6,4,12,2,10,5,15,7,13,3"
15359,commdev-image-keyboard-response,642,1668097,learnblock2,637.5,img/planet1_left.png,1,Community 1,NA,FALSE,j,f,NA,NA,NA,3,6,"1,8,9,11,14,6,4,12,2,10,5,15,7,13,3"
15359,commdev-image-keyboard-response,643,1669350,learnblock2,454.69999980926514,img/planet8_left.png,8,Community 1,NA,FALSE,j,f,NA,NA,NA,3,6,"1,8,9,11,14,6,4,12,2,10,5,15,7,13,3"
15359,commdev-image-keyboard-response,644,1670603,learnblock2,663,img/planet1_left.png,1,Community 1,NA,TRUE,f,f,NA,NA,NA,3,6,"1,8,9,11,14,6,4,12,2,10,5,15,7,13,3"
15359,commdev-image-keyboard-response,645,1671856,learnblock2,555.0999999046326,img/planet11_left.png,11,Community 1,NA,TRUE,f,f,NA,NA,NA,3,6,"1,8,9,11,14,6,4,12,2,10,5,15,7,13,3"
15359,commdev-image-keyboard-response,646,1673107,learnblock2,605.4000000953674,img/planet6_left.png,6,Community 2,NA,TRUE,f,f,NA,NA,NA,3,6,"1,8,9,11,14,6,4,12,2,10,5,15,7,13,3"
15359,commdev-image-keyboard-response,647,1674359,learnblock2,597.1000001430511,img/planet10_right.png,10,Community 2,NA,TRUE,j,j,NA,NA,NA,3,6,"1,8,9,11,14,6,4,12,2,10,5,15,7,13,3"
15359,commdev-image-keyboard-response,648,1675613,learnblock2,712,img/planet12_right.png,12,Community 2,NA,TRUE,j,j,NA,NA,NA,3,6,"1,8,9,11,14,6,4,12,2,10,5,15,7,13,3"
15359,commdev-image-keyboard-response,649,1676866,learnblock2,623.4000000953674,img/planet2_right.png,2,Community 2,NA,TRUE,j,j,NA,NA,NA,3,6,"1,8,9,11,14,6,4,12,2,10,5,15,7,13,3"
15359,commdev-image-keyboard-response,650,1678118,learnblock2,599.2999999523163,img/planet6_right.png,6,Community 2,NA,TRUE,j,j,NA,NA,NA,3,6,"1,8,9,11,14,6,4,12,2,10,5,15,7,13,3"
15359,commdev-image-keyboard-response,651,1679370,learnblock2,464.09999990463257,img/planet2_right.png,2,Community 2,NA,TRUE,j,j,NA,NA,NA,3,6,"1,8,9,11,14,6,4,12,2,10,5,15,7,13,3"
15359,commdev-image-keyboard-response,652,1680623,learnblock2,533.3999998569489,img/planet10_left.png,10,Community 2,NA,TRUE,f,f,NA,NA,NA,3,6,"1,8,9,11,14,6,4,12,2,10,5,15,7,13,3"
15359,commdev-image-keyboard-response,653,1681874,learnblock2,584.1000001430511,img/planet4_right.png,4,Community 2,NA,TRUE,j,j,NA,NA,NA,3,6,"1,8,9,11,14,6,4,12,2,10,5,15,7,13,3"
15359,commdev-image-keyboard-response,654,1683126,learnblock2,654.2000000476837,img/planet6_left.png,6,Community 2,NA,TRUE,f,f,NA,NA,NA,3,6,"1,8,9,11,14,6,4,12,2,10,5,15,7,13,3"
15359,commdev-image-keyboard-response,655,1684379,learnblock2,615.8999998569489,img/planet4_right.png,4,Community 2,NA,TRUE,j,j,NA,NA,NA,3,6,"1,8,9,11,14,6,4,12,2,10,5,15,7,13,3"
15359,commdev-image-keyboard-response,656,1685631,learnblock2,627.0999999046326,img/planet10_left.png,10,Community 2,NA,TRUE,f,f,NA,NA,NA,3,6,"1,8,9,11,14,6,4,12,2,10,5,15,7,13,3"
15359,commdev-image-keyboard-response,657,1686883,learnblock2,656.5,img/planet12_left.png,12,Community 2,NA,TRUE,f,f,NA,NA,NA,3,6,"1,8,9,11,14,6,4,12,2,10,5,15,7,13,3"
15359,commdev-image-keyboard-response,658,1688135,learnblock2,563.0999999046326,img/planet4_left.png,4,Community 2,NA,TRUE,f,f,NA,NA,NA,3,6,"1,8,9,11,14,6,4,12,2,10,5,15,7,13,3"
15359,commdev-image-keyboard-response,659,1689387,learnblock2,649.1000001430511,img/planet6_right.png,6,Community 2,NA,TRUE,j,j,NA,NA,NA,3,6,"1,8,9,11,14,6,4,12,2,10,5,15,7,13,3"
15359,commdev-image-keyboard-response,660,1690639,learnblock2,643.7999999523163,img/planet2_left.png,2,Community 2,NA,TRUE,f,f,NA,NA,NA,3,6,"1,8,9,11,14,6,4,12,2,10,5,15,7,13,3"
15359,commdev-image-keyboard-response,661,1691892,learnblock2,519.0999999046326,img/planet12_left.png,12,Community 2,NA,TRUE,f,f,NA,NA,NA,3,6,"1,8,9,11,14,6,4,12,2,10,5,15,7,13,3"
