subject_id,trial_type,trial_index,time_elapsed,block,rt,stimulus,planet,community,response,correct,key_press,learning_correct_response,parse,init_locations,final_locations,browser_interactions,num_comp,planet_map
14478,commdev-instructions,7,22791,NA,1278.5,"<p>In this game, you are a scientist on board a space shuttle. </p><p> On each mission, you will visit planets all across the universe.</p><img src=""img/controlroom.jpg"" width=300vw>",NA,NA,NA,NA,NA,NA,NA,NA,NA,6,6,"14,10,4,13,6,15,11,3,5,8,2,7,1,9,12"
14478,commdev-instructions,8,25758,NA,895.7999999523163,"<p>Here are a few planets you might see:</p><img src=""img/practice1.png"" width=200vw><img src=""img/practice2.png"" width=200vw><img src=""img/practice3.png"" width=200vw>",NA,NA,NA,NA,NA,NA,NA,NA,NA,6,6,"14,10,4,13,6,15,11,3,5,8,2,7,1,9,12"
14478,commdev-instructions,9,33974,NA,818.9000000953674,"<p>Your job as a scientist is to record which direction the winds are moving on each planet.</p><p>There are two types of wind directions:</p><img src=""img/practice1_left.png"" width=200vw><img src=""img/practice1_right.png"" width=200vw>",NA,NA,NA,NA,NA,NA,NA,NA,NA,6,6,"14,10,4,13,6,15,11,3,5,8,2,7,1,9,12"
14478,commdev-instructions,10,39689,NA,833.5999999046326,"<p>If the winds are moving this way, press the letter <strong>F</strong> on the keyboard as fast as you can.</p><img src=""img/leftwind.png"" width=250vw>",NA,NA,NA,NA,NA,NA,NA,NA,NA,6,6,"14,10,4,13,6,15,11,3,5,8,2,7,1,9,12"
14478,commdev-instructions,11,44924,NA,740.2000000476837,"<p>If the winds are moving this way, press the letter <strong>J</strong> on the keyboard as fast as you can.</p><img src=""img/rightwind.png"" width=350vw>",NA,NA,NA,NA,NA,NA,NA,NA,NA,6,6,"14,10,4,13,6,15,11,3,5,8,2,7,1,9,12"
14478,commdev-instructions,12,50508,NA,1161.5999999046326,<p>You will have 1 second to respond. Try to respond before the time runs out!,NA,NA,NA,NA,NA,NA,NA,NA,NA,6,6,"14,10,4,13,6,15,11,3,5,8,2,7,1,9,12"
14478,commdev-instructions,13,56492,NA,553.2000000476837,<p>The planets you will visit will look different from each other.</p><p>You should respond <strong>only</strong> based on wind direction.,NA,NA,NA,NA,NA,NA,NA,NA,NA,6,6,"14,10,4,13,6,15,11,3,5,8,2,7,1,9,12"
14478,commdev-instructions,14,62292,NA,629.7000000476837,"<p> Ready to start the practice round? </p><p> Remember, press <strong>F</strong> or <strong>J</strong> depending on the wind direction.<br><img src=""img/categorize_planet_example.png""",NA,NA,NA,NA,NA,NA,NA,NA,NA,6,6,"14,10,4,13,6,15,11,3,5,8,2,7,1,9,12"
14478,commdev-instructions,26,113809,NA,1743.5,"<p>Great, now try a short practice mission. </p><p> This time, you will have 1 second to respond and you won't know whether you pressed the right or wrong key for each planet.</p>",NA,NA,NA,NA,NA,NA,NA,NA,NA,6,6,"14,10,4,13,6,15,11,3,5,8,2,7,1,9,12"
14478,commdev-image-keyboard-response,27,115166,practice,1120.9000000953674,img/practice3_left.png,NA,Number not found in mappings,NA,FALSE,j,f,NA,NA,NA,6,6,"14,10,4,13,6,15,11,3,5,8,2,7,1,9,12"
14478,commdev-image-keyboard-response,28,116419,practice,null,img/practice1_left.png,NA,Number not found in mappings,NA,FALSE,null,f,NA,NA,NA,6,6,"14,10,4,13,6,15,11,3,5,8,2,7,1,9,12"
14478,commdev-image-keyboard-response,29,117673,practice,263.59999990463257,img/practice4_left.png,NA,Number not found in mappings,NA,TRUE,f,f,NA,NA,NA,6,6,"14,10,4,13,6,15,11,3,5,8,2,7,1,9,12"
14478,commdev-image-keyboard-response,30,118926,practice,612,img/practice1_right.png,NA,Number not found in mappings,NA,TRUE,j,j,NA,NA,NA,6,6,"14,10,4,13,6,15,11,3,5,8,2,7,1,9,12"
14478,commdev-image-keyboard-response,31,120179,practice,1005.1000001430511,img/practice2_left.png,NA,Number not found in mappings,NA,TRUE,f,f,NA,NA,NA,6,6,"14,10,4,13,6,15,11,3,5,8,2,7,1,9,12"
14478,commdev-image-keyboard-response,32,121432,practice,660.3999998569489,img/practice4_right.png,NA,Number not found in mappings,NA,TRUE,j,j,NA,NA,NA,6,6,"14,10,4,13,6,15,11,3,5,8,2,7,1,9,12"
14478,commdev-image-keyboard-response,33,122686,practice,609.6999998092651,img/practice1_right.png,NA,Number not found in mappings,NA,TRUE,j,j,NA,NA,NA,6,6,"14,10,4,13,6,15,11,3,5,8,2,7,1,9,12"
14478,commdev-image-keyboard-response,34,123939,practice,785.5999999046326,img/practice3_left.png,NA,Number not found in mappings,NA,TRUE,f,f,NA,NA,NA,6,6,"14,10,4,13,6,15,11,3,5,8,2,7,1,9,12"
14478,commdev-instructions,35,134158,NA,668.6999998092651,"<p>Great job with the practice round.</p><p>During real missions, you won't know whether you pressed the right or wrong key for each planet.</p><p>But between missions, we will tell you how you did overall.</p>",NA,NA,NA,NA,NA,NA,NA,NA,NA,6,6,"14,10,4,13,6,15,11,3,5,8,2,7,1,9,12"
14478,commdev-instructions,36,143243,NA,846.4000000953674,<p>Try your best! You will be paid a bonus based on how many correct responses you make!</p><p>Responses that are too slow will not count toward your bonus.</p>,NA,NA,NA,NA,NA,NA,NA,NA,NA,6,6,"14,10,4,13,6,15,11,3,5,8,2,7,1,9,12"
14478,commdev-instructions,37,149759,NA,317.5,"<p>You are almost ready to start the real game.</p><p> First, we are going to ask you some questions about how the game works.</p>",NA,NA,NA,NA,NA,NA,NA,NA,NA,6,6,"14,10,4,13,6,15,11,3,5,8,2,7,1,9,12"
14478,commdev-instructions,46,224943,NA,1190.6000001430511,"<p> Nice work! It is now time to start the real game.<p></p>You will go on two missions to record wind directions of different planets.<p></p>Each one will take about 5 minutes. You will get to take a break between missions.<p><p> Remember, press <strong>F</strong> or <strong>J</strong> depending on the wind direction. Good luck!<br><img src=""img/categorize_planet_example.png""",NA,NA,NA,NA,NA,NA,NA,NA,NA,6,6,"14,10,4,13,6,15,11,3,5,8,2,7,1,9,12"
14478,commdev-image-keyboard-response,48,228098,learnblock1,null,img/planet6_right.png,6,Community 1,NA,FALSE,null,j,NA,NA,NA,6,6,"14,10,4,13,6,15,11,3,5,8,2,7,1,9,12"
14478,commdev-image-keyboard-response,49,229352,learnblock1,53.200000047683716,img/planet4_left.png,4,Community 1,NA,FALSE,j,f,NA,NA,NA,6,6,"14,10,4,13,6,15,11,3,5,8,2,7,1,9,12"
14478,commdev-image-keyboard-response,50,230604,learnblock1,736.2000000476837,img/planet13_right.png,13,Community 1,NA,TRUE,j,j,NA,NA,NA,6,6,"14,10,4,13,6,15,11,3,5,8,2,7,1,9,12"
14478,commdev-image-keyboard-response,51,231857,learnblock1,531,img/planet10_left.png,10,Community 1,NA,TRUE,f,f,NA,NA,NA,6,6,"14,10,4,13,6,15,11,3,5,8,2,7,1,9,12"
14478,commdev-image-keyboard-response,52,233110,learnblock1,680.5,img/planet6_left.png,6,Community 1,NA,TRUE,f,f,NA,NA,NA,6,6,"14,10,4,13,6,15,11,3,5,8,2,7,1,9,12"
14478,commdev-image-keyboard-response,53,234363,learnblock1,698.7000000476837,img/planet10_right.png,10,Community 1,NA,TRUE,j,j,NA,NA,NA,6,6,"14,10,4,13,6,15,11,3,5,8,2,7,1,9,12"
14478,commdev-image-keyboard-response,54,235616,learnblock1,849.5999999046326,img/planet14_left.png,14,Community 1,NA,TRUE,f,f,NA,NA,NA,6,6,"14,10,4,13,6,15,11,3,5,8,2,7,1,9,12"
14478,commdev-image-keyboard-response,55,236868,learnblock1,656.7999999523163,img/planet6_right.png,6,Community 1,NA,TRUE,j,j,NA,NA,NA,6,6,"14,10,4,13,6,15,11,3,5,8,2,7,1,9,12"
14478,commdev-image-keyboard-response,56,238122,learnblock1,773.7000000476837,img/planet14_right.png,14,Community 1,NA,TRUE,j,j,NA,NA,NA,6,6,"14,10,4,13,6,15,11,3,5,8,2,7,1,9,12"
14478,commdev-image-keyboard-response,57,239374,learnblock1,706.6000001430511,img/planet4_right.png,4,Community 1,NA,TRUE,j,j,NA,NA,NA,6,6,"14,10,4,13,6,15,11,3,5,8,2,7,1,9,12"
14478,commdev-image-keyboard-response,58,240628,learnblock1,820.2999999523163,img/planet14_right.png,14,Community 1,NA,TRUE,j,j,NA,NA,NA,6,6,"14,10,4,13,6,15,11,3,5,8,2,7,1,9,12"
14478,commdev-image-keyboard-response,59,241881,learnblock1,873.8999998569489,img/planet6_left.png,6,Community 1,NA,TRUE,f,f,NA,NA,NA,6,6,"14,10,4,13,6,15,11,3,5,8,2,7,1,9,12"
14478,commdev-image-keyboard-response,60,243134,learnblock1,751.2999999523163,img/planet14_left.png,14,Community 1,NA,TRUE,f,f,NA,NA,NA,6,6,"14,10,4,13,6,15,11,3,5,8,2,7,1,9,12"
14478,commdev-image-keyboard-response,61,244387,learnblock1,739.2000000476837,img/planet6_right.png,6,Community 1,NA,TRUE,j,j,NA,NA,NA,6,6,"14,10,4,13,6,15,11,3,5,8,2,7,1,9,12"
14478,commdev-image-keyboard-response,62,245640,learnblock1,675.7000000476837,img/planet2_right.png,2,Community 3,NA,TRUE,j,j,NA,NA,NA,6,6,"14,10,4,13,6,15,11,3,5,8,2,7,1,9,12"
14478,commdev-image-keyboard-response,63,246894,learnblock1,738.7000000476837,img/planet12_left.png,12,Community 3,NA,TRUE,f,f,NA,NA,NA,6,6,"14,10,4,13,6,15,11,3,5,8,2,7,1,9,12"
14478,commdev-image-keyboard-response,64,248146,learnblock1,670.7000000476837,img/planet7_right.png,7,Community 3,NA,TRUE,j,j,NA,NA,NA,6,6,"14,10,4,13,6,15,11,3,5,8,2,7,1,9,12"
14478,commdev-image-keyboard-response,65,249399,learnblock1,656.9000000953674,img/planet9_right.png,9,Community 3,NA,TRUE,j,j,NA,NA,NA,6,6,"14,10,4,13,6,15,11,3,5,8,2,7,1,9,12"
14478,commdev-image-keyboard-response,66,250652,learnblock1,816.7999999523163,img/planet12_right.png,12,Community 3,NA,TRUE,j,j,NA,NA,NA,6,6,"14,10,4,13,6,15,11,3,5,8,2,7,1,9,12"
14478,commdev-image-keyboard-response,67,251906,learnblock1,705.0999999046326,img/planet2_left.png,2,Community 3,NA,TRUE,f,f,NA,NA,NA,6,6,"14,10,4,13,6,15,11,3,5,8,2,7,1,9,12"
14478,commdev-image-keyboard-response,68,253159,learnblock1,710.4000000953674,img/planet6_right.png,6,Community 1,NA,TRUE,j,j,NA,NA,NA,6,6,"14,10,4,13,6,15,11,3,5,8,2,7,1,9,12"
14478,commdev-image-keyboard-response,69,254412,learnblock1,642.9000000953674,img/planet4_left.png,4,Community 1,NA,TRUE,f,f,NA,NA,NA,6,6,"14,10,4,13,6,15,11,3,5,8,2,7,1,9,12"
14478,commdev-image-keyboard-response,70,255666,learnblock1,692.3999998569489,img/planet14_right.png,14,Community 1,NA,TRUE,j,j,NA,NA,NA,6,6,"14,10,4,13,6,15,11,3,5,8,2,7,1,9,12"
14478,commdev-image-keyboard-response,71,256919,learnblock1,781.5,img/planet13_right.png,13,Community 1,NA,TRUE,j,j,NA,NA,NA,6,6,"14,10,4,13,6,15,11,3,5,8,2,7,1,9,12"
14478,commdev-image-keyboard-response,72,258172,learnblock1,657.5999999046326,img/planet10_left.png,10,Community 1,NA,TRUE,f,f,NA,NA,NA,6,6,"14,10,4,13,6,15,11,3,5,8,2,7,1,9,12"
14478,commdev-image-keyboard-response,73,259425,learnblock1,559,img/planet14_right.png,14,Community 1,NA,TRUE,j,j,NA,NA,NA,6,6,"14,10,4,13,6,15,11,3,5,8,2,7,1,9,12"
14478,commdev-image-keyboard-response,74,260678,learnblock1,555.8999998569489,img/planet6_left.png,6,Community 1,NA,TRUE,f,f,NA,NA,NA,6,6,"14,10,4,13,6,15,11,3,5,8,2,7,1,9,12"
14478,commdev-image-keyboard-response,75,261931,learnblock1,524.5999999046326,img/planet2_left.png,2,Community 3,NA,FALSE,j,f,NA,NA,NA,6,6,"14,10,4,13,6,15,11,3,5,8,2,7,1,9,12"
14478,commdev-image-keyboard-response,76,263184,learnblock1,814.5999999046326,img/planet12_right.png,12,Community 3,NA,TRUE,j,j,NA,NA,NA,6,6,"14,10,4,13,6,15,11,3,5,8,2,7,1,9,12"
14478,commdev-image-keyboard-response,77,264437,learnblock1,814.5,img/planet9_right.png,9,Community 3,NA,TRUE,j,j,NA,NA,NA,6,6,"14,10,4,13,6,15,11,3,5,8,2,7,1,9,12"
14478,commdev-image-keyboard-response,78,265691,learnblock1,757.5999999046326,img/planet12_left.png,12,Community 3,NA,TRUE,f,f,NA,NA,NA,6,6,"14,10,4,13,6,15,11,3,5,8,2,7,1,9,12"
14478,commdev-image-keyboard-response,79,266943,learnblock1,697.2999999523163,img/planet2_right.png,2,Community 3,NA,TRUE,j,j,NA,NA,NA,6,6,"14,10,4,13,6,15,11,3,5,8,2,7,1,9,12"
14478,commdev-image-keyboard-response,80,268196,learnblock1,763.8999998569489,img/planet1_right.png,1,Community 3,NA,TRUE,j,j,NA,NA,NA,6,6,"14,10,4,13,6,15,11,3,5,8,2,7,1,9,12"
14478,commdev-image-keyboard-response,81,269448,learnblock1,695.4000000953674,img/planet9_right.png,9,Community 3,NA,TRUE,j,j,NA,NA,NA,6,6,"14,10,4,13,6,15,11,3,5,8,2,7,1,9,12"
14478,commdev-image-keyboard-response,82,270701,learnblock1,670.5,img/planet2_right.png,2,Community 3,NA,TRUE,j,j,NA,NA,NA,6,6,"14,10,4,13,6,15,11,3,5,8,2,7,1,9,12"
14478,commdev-image-keyboard-response,83,271955,learnblock1,708.2999999523163,img/planet12_right.png,12,Community 3,NA,TRUE,j,j,NA,NA,NA,6,6,"14,10,4,13,6,15,11,3,5,8,2,7,1,9,12"
14478,commdev-image-keyboard-response,84,273207,learnblock1,591.9000000953674,img/planet9_left.png,9,Community 3,NA,TRUE,f,f,NA,NA,NA,6,6,"14,10,4,13,6,15,11,3,5,8,2,7,1,9,12"
14478,commdev-image-keyboard-response,85,274460,learnblock1,736.5,img/planet12_right.png,12,Community 3,NA,TRUE,j,j,NA,NA,NA,6,6,"14,10,4,13,6,15,11,3,5,8,2,7,1,9,12"
14478,commdev-image-keyboard-response,86,275713,learnblock1,801.5999999046326,img/planet7_left.png,7,Community 3,NA,TRUE,f,f,NA,NA,NA,6,6,"14,10,4,13,6,15,11,3,5,8,2,7,1,9,12"
14478,commdev-image-keyboard-response,87,276966,learnblock1,793.0999999046326,img/planet3_right.png,3,Community 2,NA,TRUE,j,j,NA,NA,NA,6,6,"14,10,4,13,6,15,11,3,5,8,2,7,1,9,12"
14478,commdev-image-keyboard-response,88,278220,learnblock1,873.7999999523163,img/planet11_right.png,11,Community 2,NA,TRUE,j,j,NA,NA,NA,6,6,"14,10,4,13,6,15,11,3,5,8,2,7,1,9,12"
14478,commdev-image-keyboard-response,89,279472,learnblock1,802.1000001430511,img/planet8_right.png,8,Community 2,NA,TRUE,j,j,NA,NA,NA,6,6,"14,10,4,13,6,15,11,3,5,8,2,7,1,9,12"
14478,commdev-image-keyboard-response,90,280725,learnblock1,804,img/planet5_right.png,5,Community 2,NA,TRUE,j,j,NA,NA,NA,6,6,"14,10,4,13,6,15,11,3,5,8,2,7,1,9,12"
14478,commdev-image-keyboard-response,91,281977,learnblock1,915.4000000953674,img/planet3_right.png,3,Community 2,NA,TRUE,j,j,NA,NA,NA,6,6,"14,10,4,13,6,15,11,3,5,8,2,7,1,9,12"
14478,commdev-image-keyboard-response,92,283231,learnblock1,797.2999999523163,img/planet11_left.png,11,Community 2,NA,TRUE,f,f,NA,NA,NA,6,6,"14,10,4,13,6,15,11,3,5,8,2,7,1,9,12"
14478,commdev-image-keyboard-response,93,284483,learnblock1,956.2999999523163,img/planet15_left.png,15,Community 2,NA,TRUE,f,f,NA,NA,NA,6,6,"14,10,4,13,6,15,11,3,5,8,2,7,1,9,12"
14478,commdev-image-keyboard-response,94,285736,learnblock1,957.5999999046326,img/planet13_left.png,13,Community 1,NA,TRUE,f,f,NA,NA,NA,6,6,"14,10,4,13,6,15,11,3,5,8,2,7,1,9,12"
14478,commdev-image-keyboard-response,95,286989,learnblock1,743.5999999046326,img/planet15_right.png,15,Community 2,NA,TRUE,j,j,NA,NA,NA,6,6,"14,10,4,13,6,15,11,3,5,8,2,7,1,9,12"
14478,commdev-image-keyboard-response,96,288242,learnblock1,777.7999999523163,img/planet13_left.png,13,Community 1,NA,TRUE,f,f,NA,NA,NA,6,6,"14,10,4,13,6,15,11,3,5,8,2,7,1,9,12"
14478,commdev-image-keyboard-response,97,289495,learnblock1,834.0999999046326,img/planet4_left.png,4,Community 1,NA,TRUE,f,f,NA,NA,NA,6,6,"14,10,4,13,6,15,11,3,5,8,2,7,1,9,12"
14478,commdev-image-keyboard-response,98,290749,learnblock1,774,img/planet13_left.png,13,Community 1,NA,TRUE,f,f,NA,NA,NA,6,6,"14,10,4,13,6,15,11,3,5,8,2,7,1,9,12"
14478,commdev-image-keyboard-response,99,292001,learnblock1,771.2999999523163,img/planet14_left.png,14,Community 1,NA,TRUE,f,f,NA,NA,NA,6,6,"14,10,4,13,6,15,11,3,5,8,2,7,1,9,12"
14478,commdev-image-keyboard-response,100,293254,learnblock1,790.5999999046326,img/planet13_left.png,13,Community 1,NA,TRUE,f,f,NA,NA,NA,6,6,"14,10,4,13,6,15,11,3,5,8,2,7,1,9,12"
14478,commdev-image-keyboard-response,101,294507,learnblock1,685.7999999523163,img/planet14_left.png,14,Community 1,NA,TRUE,f,f,NA,NA,NA,6,6,"14,10,4,13,6,15,11,3,5,8,2,7,1,9,12"
14478,commdev-image-keyboard-response,102,295758,learnblock1,707.5,img/planet6_left.png,6,Community 1,NA,TRUE,f,f,NA,NA,NA,6,6,"14,10,4,13,6,15,11,3,5,8,2,7,1,9,12"
14478,commdev-image-keyboard-response,103,297012,learnblock1,590.6000001430511,img/planet14_right.png,14,Community 1,NA,FALSE,f,j,NA,NA,NA,6,6,"14,10,4,13,6,15,11,3,5,8,2,7,1,9,12"
14478,commdev-image-keyboard-response,104,298265,learnblock1,659.2000000476837,img/planet10_left.png,10,Community 1,NA,TRUE,f,f,NA,NA,NA,6,6,"14,10,4,13,6,15,11,3,5,8,2,7,1,9,12"
14478,commdev-image-keyboard-response,105,299519,learnblock1,655.2999999523163,img/planet13_right.png,13,Community 1,NA,TRUE,j,j,NA,NA,NA,6,6,"14,10,4,13,6,15,11,3,5,8,2,7,1,9,12"
14478,commdev-image-keyboard-response,106,300771,learnblock1,749.6000001430511,img/planet15_left.png,15,Community 2,NA,TRUE,f,f,NA,NA,NA,6,6,"14,10,4,13,6,15,11,3,5,8,2,7,1,9,12"
14478,commdev-image-keyboard-response,107,302025,learnblock1,566.4000000953674,img/planet13_right.png,13,Community 1,NA,TRUE,j,j,NA,NA,NA,6,6,"14,10,4,13,6,15,11,3,5,8,2,7,1,9,12"
14478,commdev-image-keyboard-response,108,303279,learnblock1,466.89999985694885,img/planet14_left.png,14,Community 1,NA,TRUE,f,f,NA,NA,NA,6,6,"14,10,4,13,6,15,11,3,5,8,2,7,1,9,12"
14478,commdev-image-keyboard-response,109,304532,learnblock1,627.5999999046326,img/planet6_left.png,6,Community 1,NA,TRUE,f,f,NA,NA,NA,6,6,"14,10,4,13,6,15,11,3,5,8,2,7,1,9,12"
14478,commdev-image-keyboard-response,110,305785,learnblock1,612.1999998092651,img/planet10_left.png,10,Community 1,NA,TRUE,f,f,NA,NA,NA,6,6,"14,10,4,13,6,15,11,3,5,8,2,7,1,9,12"
14478,commdev-image-keyboard-response,111,307037,learnblock1,488.09999990463257,img/planet14_right.png,14,Community 1,NA,TRUE,j,j,NA,NA,NA,6,6,"14,10,4,13,6,15,11,3,5,8,2,7,1,9,12"
14478,commdev-image-keyboard-response,112,308290,learnblock1,640.5999999046326,img/planet13_right.png,13,Community 1,NA,TRUE,j,j,NA,NA,NA,6,6,"14,10,4,13,6,15,11,3,5,8,2,7,1,9,12"
14478,commdev-image-keyboard-response,113,309543,learnblock1,666.7999999523163,img/planet4_left.png,4,Community 1,NA,TRUE,f,f,NA,NA,NA,6,6,"14,10,4,13,6,15,11,3,5,8,2,7,1,9,12"
14478,commdev-image-keyboard-response,114,310796,learnblock1,612.3999998569489,img/planet14_left.png,14,Community 1,NA,TRUE,f,f,NA,NA,NA,6,6,"14,10,4,13,6,15,11,3,5,8,2,7,1,9,12"
14478,commdev-image-keyboard-response,115,312049,learnblock1,631.6999998092651,img/planet10_right.png,10,Community 1,NA,TRUE,j,j,NA,NA,NA,6,6,"14,10,4,13,6,15,11,3,5,8,2,7,1,9,12"
14478,commdev-image-keyboard-response,116,313302,learnblock1,615.1000001430511,img/planet4_right.png,4,Community 1,NA,FALSE,f,j,NA,NA,NA,6,6,"14,10,4,13,6,15,11,3,5,8,2,7,1,9,12"
14478,commdev-image-keyboard-response,117,314555,learnblock1,675.7999999523163,img/planet10_left.png,10,Community 1,NA,TRUE,f,f,NA,NA,NA,6,6,"14,10,4,13,6,15,11,3,5,8,2,7,1,9,12"
14478,commdev-image-keyboard-response,118,315808,learnblock1,629.7000000476837,img/planet13_left.png,13,Community 1,NA,TRUE,f,f,NA,NA,NA,6,6,"14,10,4,13,6,15,11,3,5,8,2,7,1,9,12"
14478,commdev-image-keyboard-response,119,317061,learnblock1,744,img/planet10_left.png,10,Community 1,NA,TRUE,f,f,NA,NA,NA,6,6,"14,10,4,13,6,15,11,3,5,8,2,7,1,9,12"
14478,commdev-image-keyboard-response,120,318314,learnblock1,767.2999999523163,img/planet4_left.png,4,Community 1,NA,TRUE,f,f,NA,NA,NA,6,6,"14,10,4,13,6,15,11,3,5,8,2,7,1,9,12"
14478,commdev-image-keyboard-response,121,319567,learnblock1,640.7000000476837,img/planet6_right.png,6,Community 1,NA,TRUE,j,j,NA,NA,NA,6,6,"14,10,4,13,6,15,11,3,5,8,2,7,1,9,12"
14478,commdev-image-keyboard-response,122,320821,learnblock1,795.5,img/planet4_left.png,4,Community 1,NA,TRUE,f,f,NA,NA,NA,6,6,"14,10,4,13,6,15,11,3,5,8,2,7,1,9,12"
14478,commdev-image-keyboard-response,123,322073,learnblock1,668.6999998092651,img/planet13_right.png,13,Community 1,NA,TRUE,j,j,NA,NA,NA,6,6,"14,10,4,13,6,15,11,3,5,8,2,7,1,9,12"
14478,commdev-image-keyboard-response,124,323326,learnblock1,569.0999999046326,img/planet4_left.png,4,Community 1,NA,TRUE,f,f,NA,NA,NA,6,6,"14,10,4,13,6,15,11,3,5,8,2,7,1,9,12"
14478,commdev-image-keyboard-response,125,324579,learnblock1,690.7000000476837,img/planet14_left.png,14,Community 1,NA,TRUE,f,f,NA,NA,NA,6,6,"14,10,4,13,6,15,11,3,5,8,2,7,1,9,12"
14478,commdev-image-keyboard-response,126,325832,learnblock1,534.2000000476837,img/planet13_left.png,13,Community 1,NA,FALSE,j,f,NA,NA,NA,6,6,"14,10,4,13,6,15,11,3,5,8,2,7,1,9,12"
14478,commdev-image-keyboard-response,127,327084,learnblock1,768.2000000476837,img/planet4_left.png,4,Community 1,NA,TRUE,f,f,NA,NA,NA,6,6,"14,10,4,13,6,15,11,3,5,8,2,7,1,9,12"
14478,commdev-image-keyboard-response,128,328337,learnblock1,697.2999999523163,img/planet14_right.png,14,Community 1,NA,TRUE,j,j,NA,NA,NA,6,6,"14,10,4,13,6,15,11,3,5,8,2,7,1,9,12"
14478,commdev-image-keyboard-response,129,329590,learnblock1,725.3999998569489,img/planet10_left.png,10,Community 1,NA,TRUE,f,f,NA,NA,NA,6,6,"14,10,4,13,6,15,11,3,5,8,2,7,1,9,12"
14478,commdev-image-keyboard-response,130,330843,learnblock1,769.0999999046326,img/planet4_right.png,4,Community 1,NA,TRUE,j,j,NA,NA,NA,6,6,"14,10,4,13,6,15,11,3,5,8,2,7,1,9,12"
14478,commdev-image-keyboard-response,131,332095,learnblock1,755.2999999523163,img/planet6_left.png,6,Community 1,NA,TRUE,f,f,NA,NA,NA,6,6,"14,10,4,13,6,15,11,3,5,8,2,7,1,9,12"
14478,commdev-image-keyboard-response,132,333349,learnblock1,845.8999998569489,img/planet2_left.png,2,Community 3,NA,TRUE,f,f,NA,NA,NA,6,6,"14,10,4,13,6,15,11,3,5,8,2,7,1,9,12"
14478,commdev-image-keyboard-response,133,334601,learnblock1,914,img/planet6_right.png,6,Community 1,NA,TRUE,j,j,NA,NA,NA,6,6,"14,10,4,13,6,15,11,3,5,8,2,7,1,9,12"
14478,commdev-image-keyboard-response,134,335854,learnblock1,650.5,img/planet4_left.png,4,Community 1,NA,TRUE,f,f,NA,NA,NA,6,6,"14,10,4,13,6,15,11,3,5,8,2,7,1,9,12"
14478,commdev-image-keyboard-response,135,337107,learnblock1,664.9000000953674,img/planet14_left.png,14,Community 1,NA,TRUE,f,f,NA,NA,NA,6,6,"14,10,4,13,6,15,11,3,5,8,2,7,1,9,12"
14478,commdev-image-keyboard-response,136,338361,learnblock1,640.7999999523163,img/planet6_right.png,6,Community 1,NA,TRUE,j,j,NA,NA,NA,6,6,"14,10,4,13,6,15,11,3,5,8,2,7,1,9,12"
14478,commdev-image-keyboard-response,137,339614,learnblock1,796.5,img/planet14_right.png,14,Community 1,NA,TRUE,j,j,NA,NA,NA,6,6,"14,10,4,13,6,15,11,3,5,8,2,7,1,9,12"
14478,commdev-image-keyboard-response,138,340866,learnblock1,718.7000000476837,img/planet6_left.png,6,Community 1,NA,TRUE,f,f,NA,NA,NA,6,6,"14,10,4,13,6,15,11,3,5,8,2,7,1,9,12"
14478,commdev-image-keyboard-response,139,342119,learnblock1,716.2000000476837,img/planet2_left.png,2,Community 3,NA,TRUE,f,f,NA,NA,NA,6,6,"14,10,4,13,6,15,11,3,5,8,2,7,1,9,12"
14478,commdev-image-keyboard-response,140,343372,learnblock1,683.5999999046326,img/planet1_right.png,1,Community 3,NA,TRUE,j,j,NA,NA,NA,6,6,"14,10,4,13,6,15,11,3,5,8,2,7,1,9,12"
14478,commdev-image-keyboard-response,141,344626,learnblock1,692.4000000953674,img/planet9_right.png,9,Community 3,NA,TRUE,j,j,NA,NA,NA,6,6,"14,10,4,13,6,15,11,3,5,8,2,7,1,9,12"
14478,commdev-image-keyboard-response,142,345879,learnblock1,828.7999999523163,img/planet2_left.png,2,Community 3,NA,TRUE,f,f,NA,NA,NA,6,6,"14,10,4,13,6,15,11,3,5,8,2,7,1,9,12"
14478,commdev-image-keyboard-response,143,347132,learnblock1,829.2000000476837,img/planet1_left.png,1,Community 3,NA,TRUE,f,f,NA,NA,NA,6,6,"14,10,4,13,6,15,11,3,5,8,2,7,1,9,12"
14478,commdev-image-keyboard-response,144,348385,learnblock1,578.9000000953674,img/planet2_left.png,2,Community 3,NA,TRUE,f,f,NA,NA,NA,6,6,"14,10,4,13,6,15,11,3,5,8,2,7,1,9,12"
14478,commdev-image-keyboard-response,145,349638,learnblock1,579.8999998569489,img/planet12_left.png,12,Community 3,NA,TRUE,f,f,NA,NA,NA,6,6,"14,10,4,13,6,15,11,3,5,8,2,7,1,9,12"
14478,commdev-image-keyboard-response,146,350891,learnblock1,803.2000000476837,img/planet1_right.png,1,Community 3,NA,TRUE,j,j,NA,NA,NA,6,6,"14,10,4,13,6,15,11,3,5,8,2,7,1,9,12"
14478,commdev-image-keyboard-response,147,352144,learnblock1,644.4000000953674,img/planet12_right.png,12,Community 3,NA,TRUE,j,j,NA,NA,NA,6,6,"14,10,4,13,6,15,11,3,5,8,2,7,1,9,12"
14478,commdev-image-keyboard-response,148,353397,learnblock1,617.1000001430511,img/planet1_left.png,1,Community 3,NA,TRUE,f,f,NA,NA,NA,6,6,"14,10,4,13,6,15,11,3,5,8,2,7,1,9,12"
14478,commdev-image-keyboard-response,149,354650,learnblock1,635.4000000953674,img/planet9_right.png,9,Community 3,NA,TRUE,j,j,NA,NA,NA,6,6,"14,10,4,13,6,15,11,3,5,8,2,7,1,9,12"
14478,commdev-image-keyboard-response,150,355903,learnblock1,621.4000000953674,img/planet7_right.png,7,Community 3,NA,TRUE,j,j,NA,NA,NA,6,6,"14,10,4,13,6,15,11,3,5,8,2,7,1,9,12"
14478,commdev-image-keyboard-response,151,357156,learnblock1,642.7000000476837,img/planet12_right.png,12,Community 3,NA,TRUE,j,j,NA,NA,NA,6,6,"14,10,4,13,6,15,11,3,5,8,2,7,1,9,12"
14478,commdev-image-keyboard-response,152,358409,learnblock1,527.8000001907349,img/planet9_left.png,9,Community 3,NA,TRUE,f,f,NA,NA,NA,6,6,"14,10,4,13,6,15,11,3,5,8,2,7,1,9,12"
14478,commdev-image-keyboard-response,153,359662,learnblock1,499.60000014305115,img/planet7_right.png,7,Community 3,NA,TRUE,j,j,NA,NA,NA,6,6,"14,10,4,13,6,15,11,3,5,8,2,7,1,9,12"
14478,commdev-image-keyboard-response,154,360915,learnblock1,515.7999999523163,img/planet9_left.png,9,Community 3,NA,TRUE,f,f,NA,NA,NA,6,6,"14,10,4,13,6,15,11,3,5,8,2,7,1,9,12"
14478,commdev-image-keyboard-response,155,362167,learnblock1,601.7000000476837,img/planet2_right.png,2,Community 3,NA,TRUE,j,j,NA,NA,NA,6,6,"14,10,4,13,6,15,11,3,5,8,2,7,1,9,12"
14478,commdev-image-keyboard-response,156,363421,learnblock1,754.4000000953674,img/planet6_right.png,6,Community 1,NA,TRUE,j,j,NA,NA,NA,6,6,"14,10,4,13,6,15,11,3,5,8,2,7,1,9,12"
14478,commdev-image-keyboard-response,157,364673,learnblock1,768.6000001430511,img/planet4_right.png,4,Community 1,NA,TRUE,j,j,NA,NA,NA,6,6,"14,10,4,13,6,15,11,3,5,8,2,7,1,9,12"
14478,commdev-image-keyboard-response,158,365927,learnblock1,664.0999999046326,img/planet14_left.png,14,Community 1,NA,TRUE,f,f,NA,NA,NA,6,6,"14,10,4,13,6,15,11,3,5,8,2,7,1,9,12"
14478,commdev-image-keyboard-response,159,367181,learnblock1,647.7000000476837,img/planet6_left.png,6,Community 1,NA,TRUE,f,f,NA,NA,NA,6,6,"14,10,4,13,6,15,11,3,5,8,2,7,1,9,12"
14478,commdev-image-keyboard-response,160,368434,learnblock1,778.7999999523163,img/planet4_left.png,4,Community 1,NA,TRUE,f,f,NA,NA,NA,6,6,"14,10,4,13,6,15,11,3,5,8,2,7,1,9,12"
14478,commdev-image-keyboard-response,161,369687,learnblock1,754.0999999046326,img/planet14_right.png,14,Community 1,NA,TRUE,j,j,NA,NA,NA,6,6,"14,10,4,13,6,15,11,3,5,8,2,7,1,9,12"
14478,commdev-image-keyboard-response,162,370940,learnblock1,660.2999999523163,img/planet4_right.png,4,Community 1,NA,TRUE,j,j,NA,NA,NA,6,6,"14,10,4,13,6,15,11,3,5,8,2,7,1,9,12"
14478,commdev-image-keyboard-response,163,372193,learnblock1,616.3999998569489,img/planet10_right.png,10,Community 1,NA,TRUE,j,j,NA,NA,NA,6,6,"14,10,4,13,6,15,11,3,5,8,2,7,1,9,12"
14478,commdev-image-keyboard-response,164,373446,learnblock1,558.2000000476837,img/planet13_left.png,13,Community 1,NA,TRUE,f,f,NA,NA,NA,6,6,"14,10,4,13,6,15,11,3,5,8,2,7,1,9,12"
14478,commdev-image-keyboard-response,165,374699,learnblock1,676.2999999523163,img/planet15_left.png,15,Community 2,NA,TRUE,f,f,NA,NA,NA,6,6,"14,10,4,13,6,15,11,3,5,8,2,7,1,9,12"
14478,commdev-image-keyboard-response,166,375952,learnblock1,694,img/planet8_right.png,8,Community 2,NA,TRUE,j,j,NA,NA,NA,6,6,"14,10,4,13,6,15,11,3,5,8,2,7,1,9,12"
14478,commdev-image-keyboard-response,167,377205,learnblock1,864.8999998569489,img/planet11_left.png,11,Community 2,NA,TRUE,f,f,NA,NA,NA,6,6,"14,10,4,13,6,15,11,3,5,8,2,7,1,9,12"
14478,commdev-image-keyboard-response,168,378457,learnblock1,739.5,img/planet5_right.png,5,Community 2,NA,TRUE,j,j,NA,NA,NA,6,6,"14,10,4,13,6,15,11,3,5,8,2,7,1,9,12"
14478,commdev-image-keyboard-response,169,379710,learnblock1,842,img/planet8_left.png,8,Community 2,NA,TRUE,f,f,NA,NA,NA,6,6,"14,10,4,13,6,15,11,3,5,8,2,7,1,9,12"
14478,commdev-image-keyboard-response,170,380964,learnblock1,1082.5999999046326,img/planet11_left.png,11,Community 2,NA,TRUE,f,f,NA,NA,NA,6,6,"14,10,4,13,6,15,11,3,5,8,2,7,1,9,12"
14478,commdev-image-keyboard-response,171,382217,learnblock1,686.1999998092651,img/planet5_left.png,5,Community 2,NA,TRUE,f,f,NA,NA,NA,6,6,"14,10,4,13,6,15,11,3,5,8,2,7,1,9,12"
14478,commdev-image-keyboard-response,172,383470,learnblock1,1109,img/planet3_left.png,3,Community 2,NA,TRUE,f,f,NA,NA,NA,6,6,"14,10,4,13,6,15,11,3,5,8,2,7,1,9,12"
14478,commdev-image-keyboard-response,173,384723,learnblock1,773.2000000476837,img/planet8_right.png,8,Community 2,NA,TRUE,j,j,NA,NA,NA,6,6,"14,10,4,13,6,15,11,3,5,8,2,7,1,9,12"
14478,commdev-image-keyboard-response,174,385975,learnblock1,841,img/planet11_left.png,11,Community 2,NA,TRUE,f,f,NA,NA,NA,6,6,"14,10,4,13,6,15,11,3,5,8,2,7,1,9,12"
14478,commdev-image-keyboard-response,175,387228,learnblock1,716,img/planet3_right.png,3,Community 2,NA,TRUE,j,j,NA,NA,NA,6,6,"14,10,4,13,6,15,11,3,5,8,2,7,1,9,12"
14478,commdev-image-keyboard-response,176,388481,learnblock1,778.9000000953674,img/planet7_left.png,7,Community 3,NA,TRUE,f,f,NA,NA,NA,6,6,"14,10,4,13,6,15,11,3,5,8,2,7,1,9,12"
14478,commdev-image-keyboard-response,177,389734,learnblock1,650.7000000476837,img/planet1_left.png,1,Community 3,NA,TRUE,f,f,NA,NA,NA,6,6,"14,10,4,13,6,15,11,3,5,8,2,7,1,9,12"
14478,commdev-image-keyboard-response,178,390987,learnblock1,733.2000000476837,img/planet7_left.png,7,Community 3,NA,TRUE,f,f,NA,NA,NA,6,6,"14,10,4,13,6,15,11,3,5,8,2,7,1,9,12"
14478,commdev-image-keyboard-response,179,392240,learnblock1,808.3999998569489,img/planet3_left.png,3,Community 2,NA,TRUE,f,f,NA,NA,NA,6,6,"14,10,4,13,6,15,11,3,5,8,2,7,1,9,12"
14478,commdev-image-keyboard-response,180,393494,learnblock1,683.0999999046326,img/planet5_left.png,5,Community 2,NA,TRUE,f,f,NA,NA,NA,6,6,"14,10,4,13,6,15,11,3,5,8,2,7,1,9,12"
14478,commdev-image-keyboard-response,181,394747,learnblock1,710.5999999046326,img/planet8_right.png,8,Community 2,NA,TRUE,j,j,NA,NA,NA,6,6,"14,10,4,13,6,15,11,3,5,8,2,7,1,9,12"
14478,commdev-image-keyboard-response,182,396000,learnblock1,647.2999999523163,img/planet3_right.png,3,Community 2,NA,TRUE,j,j,NA,NA,NA,6,6,"14,10,4,13,6,15,11,3,5,8,2,7,1,9,12"
14478,commdev-image-keyboard-response,183,397253,learnblock1,597.4000000953674,img/planet11_right.png,11,Community 2,NA,FALSE,f,j,NA,NA,NA,6,6,"14,10,4,13,6,15,11,3,5,8,2,7,1,9,12"
14478,commdev-image-keyboard-response,184,398506,learnblock1,738.8999998569489,img/planet5_right.png,5,Community 2,NA,TRUE,j,j,NA,NA,NA,6,6,"14,10,4,13,6,15,11,3,5,8,2,7,1,9,12"
14478,commdev-image-keyboard-response,185,399758,learnblock1,681.0999999046326,img/planet8_right.png,8,Community 2,NA,TRUE,j,j,NA,NA,NA,6,6,"14,10,4,13,6,15,11,3,5,8,2,7,1,9,12"
14478,commdev-image-keyboard-response,186,401010,learnblock1,619.2000000476837,img/planet3_right.png,3,Community 2,NA,TRUE,j,j,NA,NA,NA,6,6,"14,10,4,13,6,15,11,3,5,8,2,7,1,9,12"
14478,commdev-image-keyboard-response,187,402263,learnblock1,629.3999998569489,img/planet11_left.png,11,Community 2,NA,TRUE,f,f,NA,NA,NA,6,6,"14,10,4,13,6,15,11,3,5,8,2,7,1,9,12"
14478,commdev-image-keyboard-response,188,403517,learnblock1,628.9000000953674,img/planet15_right.png,15,Community 2,NA,FALSE,f,j,NA,NA,NA,6,6,"14,10,4,13,6,15,11,3,5,8,2,7,1,9,12"
14478,commdev-image-keyboard-response,189,404768,learnblock1,719.7999999523163,img/planet5_left.png,5,Community 2,NA,TRUE,f,f,NA,NA,NA,6,6,"14,10,4,13,6,15,11,3,5,8,2,7,1,9,12"
14478,commdev-image-keyboard-response,190,406021,learnblock1,787.1000001430511,img/planet3_left.png,3,Community 2,NA,TRUE,f,f,NA,NA,NA,6,6,"14,10,4,13,6,15,11,3,5,8,2,7,1,9,12"
14478,commdev-image-keyboard-response,191,407274,learnblock1,696.9000000953674,img/planet5_left.png,5,Community 2,NA,TRUE,f,f,NA,NA,NA,6,6,"14,10,4,13,6,15,11,3,5,8,2,7,1,9,12"
14478,commdev-image-keyboard-response,192,408527,learnblock1,682,img/planet3_left.png,3,Community 2,NA,TRUE,f,f,NA,NA,NA,6,6,"14,10,4,13,6,15,11,3,5,8,2,7,1,9,12"
14478,commdev-image-keyboard-response,193,409780,learnblock1,643.3000001907349,img/planet7_right.png,7,Community 3,NA,TRUE,j,j,NA,NA,NA,6,6,"14,10,4,13,6,15,11,3,5,8,2,7,1,9,12"
14478,commdev-image-keyboard-response,194,411033,learnblock1,619,img/planet9_right.png,9,Community 3,NA,TRUE,j,j,NA,NA,NA,6,6,"14,10,4,13,6,15,11,3,5,8,2,7,1,9,12"
14478,commdev-image-keyboard-response,195,412286,learnblock1,544.0999999046326,img/planet2_right.png,2,Community 3,NA,TRUE,j,j,NA,NA,NA,6,6,"14,10,4,13,6,15,11,3,5,8,2,7,1,9,12"
14478,commdev-image-keyboard-response,196,413540,learnblock1,490,img/planet6_right.png,6,Community 1,NA,TRUE,j,j,NA,NA,NA,6,6,"14,10,4,13,6,15,11,3,5,8,2,7,1,9,12"
14478,commdev-image-keyboard-response,197,414793,learnblock1,525.2999999523163,img/planet10_left.png,10,Community 1,NA,FALSE,j,f,NA,NA,NA,6,6,"14,10,4,13,6,15,11,3,5,8,2,7,1,9,12"
14478,commdev-image-keyboard-response,198,416046,learnblock1,762.3000001907349,img/planet4_left.png,4,Community 1,NA,TRUE,f,f,NA,NA,NA,6,6,"14,10,4,13,6,15,11,3,5,8,2,7,1,9,12"
14478,commdev-image-keyboard-response,199,417299,learnblock1,593,img/planet6_right.png,6,Community 1,NA,FALSE,f,j,NA,NA,NA,6,6,"14,10,4,13,6,15,11,3,5,8,2,7,1,9,12"
14478,commdev-image-keyboard-response,200,418552,learnblock1,716.0999999046326,img/planet14_left.png,14,Community 1,NA,TRUE,f,f,NA,NA,NA,6,6,"14,10,4,13,6,15,11,3,5,8,2,7,1,9,12"
14478,commdev-image-keyboard-response,201,419805,learnblock1,536,img/planet4_right.png,4,Community 1,NA,TRUE,j,j,NA,NA,NA,6,6,"14,10,4,13,6,15,11,3,5,8,2,7,1,9,12"
14478,commdev-image-keyboard-response,202,421057,learnblock1,726.2999999523163,img/planet10_right.png,10,Community 1,NA,TRUE,j,j,NA,NA,NA,6,6,"14,10,4,13,6,15,11,3,5,8,2,7,1,9,12"
14478,commdev-image-keyboard-response,203,422311,learnblock1,634.2999999523163,img/planet14_left.png,14,Community 1,NA,TRUE,f,f,NA,NA,NA,6,6,"14,10,4,13,6,15,11,3,5,8,2,7,1,9,12"
14478,commdev-image-keyboard-response,204,423563,learnblock1,713.2000000476837,img/planet6_left.png,6,Community 1,NA,TRUE,f,f,NA,NA,NA,6,6,"14,10,4,13,6,15,11,3,5,8,2,7,1,9,12"
14478,commdev-image-keyboard-response,205,424815,learnblock1,689.7000000476837,img/planet2_right.png,2,Community 3,NA,TRUE,j,j,NA,NA,NA,6,6,"14,10,4,13,6,15,11,3,5,8,2,7,1,9,12"
14478,commdev-image-keyboard-response,206,426068,learnblock1,609.0999999046326,img/planet9_right.png,9,Community 3,NA,TRUE,j,j,NA,NA,NA,6,6,"14,10,4,13,6,15,11,3,5,8,2,7,1,9,12"
14478,commdev-image-keyboard-response,207,427322,learnblock1,644.7999999523163,img/planet7_right.png,7,Community 3,NA,TRUE,j,j,NA,NA,NA,6,6,"14,10,4,13,6,15,11,3,5,8,2,7,1,9,12"
14478,commdev-image-keyboard-response,208,428575,learnblock1,591.5999999046326,img/planet9_right.png,9,Community 3,NA,TRUE,j,j,NA,NA,NA,6,6,"14,10,4,13,6,15,11,3,5,8,2,7,1,9,12"
14478,commdev-image-keyboard-response,209,429829,learnblock1,638.4000000953674,img/planet2_right.png,2,Community 3,NA,TRUE,j,j,NA,NA,NA,6,6,"14,10,4,13,6,15,11,3,5,8,2,7,1,9,12"
14478,commdev-image-keyboard-response,210,431082,learnblock1,657.5,img/planet6_right.png,6,Community 1,NA,TRUE,j,j,NA,NA,NA,6,6,"14,10,4,13,6,15,11,3,5,8,2,7,1,9,12"
14478,commdev-image-keyboard-response,211,432334,learnblock1,774.4000000953674,img/planet4_right.png,4,Community 1,NA,TRUE,j,j,NA,NA,NA,6,6,"14,10,4,13,6,15,11,3,5,8,2,7,1,9,12"
14478,commdev-image-keyboard-response,212,433587,learnblock1,646.0999999046326,img/planet6_right.png,6,Community 1,NA,TRUE,j,j,NA,NA,NA,6,6,"14,10,4,13,6,15,11,3,5,8,2,7,1,9,12"
14478,commdev-image-keyboard-response,213,434841,learnblock1,887.7000000476837,img/planet14_right.png,14,Community 1,NA,TRUE,j,j,NA,NA,NA,6,6,"14,10,4,13,6,15,11,3,5,8,2,7,1,9,12"
14478,commdev-image-keyboard-response,214,436094,learnblock1,918.9000000953674,img/planet13_left.png,13,Community 1,NA,TRUE,f,f,NA,NA,NA,6,6,"14,10,4,13,6,15,11,3,5,8,2,7,1,9,12"
14478,commdev-image-keyboard-response,215,437346,learnblock1,730.2000000476837,img/planet10_right.png,10,Community 1,NA,TRUE,j,j,NA,NA,NA,6,6,"14,10,4,13,6,15,11,3,5,8,2,7,1,9,12"
14478,commdev-image-keyboard-response,216,438599,learnblock1,755.2000000476837,img/planet6_left.png,6,Community 1,NA,TRUE,f,f,NA,NA,NA,6,6,"14,10,4,13,6,15,11,3,5,8,2,7,1,9,12"
14478,commdev-image-keyboard-response,217,439852,learnblock1,766.5,img/planet10_left.png,10,Community 1,NA,TRUE,f,f,NA,NA,NA,6,6,"14,10,4,13,6,15,11,3,5,8,2,7,1,9,12"
14478,commdev-image-keyboard-response,218,441105,learnblock1,781.2000000476837,img/planet13_right.png,13,Community 1,NA,TRUE,j,j,NA,NA,NA,6,6,"14,10,4,13,6,15,11,3,5,8,2,7,1,9,12"
14478,commdev-image-keyboard-response,219,442357,learnblock1,835.1000001430511,img/planet15_right.png,15,Community 2,NA,TRUE,j,j,NA,NA,NA,6,6,"14,10,4,13,6,15,11,3,5,8,2,7,1,9,12"
14478,commdev-image-keyboard-response,220,443611,learnblock1,647.5,img/planet13_left.png,13,Community 1,NA,FALSE,j,f,NA,NA,NA,6,6,"14,10,4,13,6,15,11,3,5,8,2,7,1,9,12"
14478,commdev-image-keyboard-response,221,444864,learnblock1,672.5,img/planet4_right.png,4,Community 1,NA,TRUE,j,j,NA,NA,NA,6,6,"14,10,4,13,6,15,11,3,5,8,2,7,1,9,12"
14478,commdev-image-keyboard-response,222,446117,learnblock1,645.1000001430511,img/planet6_left.png,6,Community 1,NA,TRUE,f,f,NA,NA,NA,6,6,"14,10,4,13,6,15,11,3,5,8,2,7,1,9,12"
14478,commdev-image-keyboard-response,223,447370,learnblock1,820.0999999046326,img/planet2_left.png,2,Community 3,NA,TRUE,f,f,NA,NA,NA,6,6,"14,10,4,13,6,15,11,3,5,8,2,7,1,9,12"
14478,commdev-image-keyboard-response,224,448624,learnblock1,610.9000000953674,img/planet6_right.png,6,Community 1,NA,TRUE,j,j,NA,NA,NA,6,6,"14,10,4,13,6,15,11,3,5,8,2,7,1,9,12"
14478,commdev-image-keyboard-response,225,449877,learnblock1,788.9000000953674,img/planet4_left.png,4,Community 1,NA,TRUE,f,f,NA,NA,NA,6,6,"14,10,4,13,6,15,11,3,5,8,2,7,1,9,12"
14478,commdev-image-keyboard-response,226,451130,learnblock1,765.7999999523163,img/planet13_right.png,13,Community 1,NA,TRUE,j,j,NA,NA,NA,6,6,"14,10,4,13,6,15,11,3,5,8,2,7,1,9,12"
14478,commdev-image-keyboard-response,227,452382,learnblock1,638.2999999523163,img/planet14_left.png,14,Community 1,NA,TRUE,f,f,NA,NA,NA,6,6,"14,10,4,13,6,15,11,3,5,8,2,7,1,9,12"
14478,commdev-image-keyboard-response,228,453635,learnblock1,470.40000009536743,img/planet4_right.png,4,Community 1,NA,TRUE,j,j,NA,NA,NA,6,6,"14,10,4,13,6,15,11,3,5,8,2,7,1,9,12"
14478,commdev-image-keyboard-response,229,454888,learnblock1,417,img/planet13_right.png,13,Community 1,NA,FALSE,f,j,NA,NA,NA,6,6,"14,10,4,13,6,15,11,3,5,8,2,7,1,9,12"
14478,commdev-image-keyboard-response,230,456141,learnblock1,759.4000000953674,img/planet15_left.png,15,Community 2,NA,TRUE,f,f,NA,NA,NA,6,6,"14,10,4,13,6,15,11,3,5,8,2,7,1,9,12"
14478,commdev-image-keyboard-response,231,457394,learnblock1,673.5,img/planet11_right.png,11,Community 2,NA,TRUE,j,j,NA,NA,NA,6,6,"14,10,4,13,6,15,11,3,5,8,2,7,1,9,12"
14478,commdev-image-keyboard-response,232,458647,learnblock1,656.2000000476837,img/planet3_right.png,3,Community 2,NA,TRUE,j,j,NA,NA,NA,6,6,"14,10,4,13,6,15,11,3,5,8,2,7,1,9,12"
14478,commdev-image-keyboard-response,233,459900,learnblock1,687.7000000476837,img/planet7_left.png,7,Community 3,NA,TRUE,f,f,NA,NA,NA,6,6,"14,10,4,13,6,15,11,3,5,8,2,7,1,9,12"
14478,commdev-image-keyboard-response,234,461151,learnblock1,746.5999999046326,img/planet9_left.png,9,Community 3,NA,TRUE,f,f,NA,NA,NA,6,6,"14,10,4,13,6,15,11,3,5,8,2,7,1,9,12"
14478,commdev-image-keyboard-response,235,462404,learnblock1,755.7000000476837,img/planet1_right.png,1,Community 3,NA,FALSE,f,j,NA,NA,NA,6,6,"14,10,4,13,6,15,11,3,5,8,2,7,1,9,12"
14478,commdev-image-keyboard-response,236,463657,learnblock1,873.2000000476837,img/planet12_left.png,12,Community 3,NA,TRUE,f,f,NA,NA,NA,6,6,"14,10,4,13,6,15,11,3,5,8,2,7,1,9,12"
14478,commdev-image-keyboard-response,237,464911,learnblock1,864.2000000476837,img/planet7_left.png,7,Community 3,NA,TRUE,f,f,NA,NA,NA,6,6,"14,10,4,13,6,15,11,3,5,8,2,7,1,9,12"
14478,commdev-image-keyboard-response,238,466163,learnblock1,838.8999998569489,img/planet12_left.png,12,Community 3,NA,TRUE,f,f,NA,NA,NA,6,6,"14,10,4,13,6,15,11,3,5,8,2,7,1,9,12"
14478,commdev-image-keyboard-response,239,467416,learnblock1,788.8000001907349,img/planet1_left.png,1,Community 3,NA,TRUE,f,f,NA,NA,NA,6,6,"14,10,4,13,6,15,11,3,5,8,2,7,1,9,12"
14478,commdev-image-keyboard-response,240,468669,learnblock1,687.7000000476837,img/planet12_right.png,12,Community 3,NA,TRUE,j,j,NA,NA,NA,6,6,"14,10,4,13,6,15,11,3,5,8,2,7,1,9,12"
14478,commdev-image-keyboard-response,241,469922,learnblock1,725.9000000953674,img/planet1_left.png,1,Community 3,NA,TRUE,f,f,NA,NA,NA,6,6,"14,10,4,13,6,15,11,3,5,8,2,7,1,9,12"
14478,commdev-image-keyboard-response,242,471175,learnblock1,639,img/planet7_right.png,7,Community 3,NA,TRUE,j,j,NA,NA,NA,6,6,"14,10,4,13,6,15,11,3,5,8,2,7,1,9,12"
14478,commdev-image-keyboard-response,243,472428,learnblock1,673,img/planet9_right.png,9,Community 3,NA,TRUE,j,j,NA,NA,NA,6,6,"14,10,4,13,6,15,11,3,5,8,2,7,1,9,12"
14478,commdev-image-keyboard-response,244,473680,learnblock1,630.7999999523163,img/planet1_right.png,1,Community 3,NA,TRUE,j,j,NA,NA,NA,6,6,"14,10,4,13,6,15,11,3,5,8,2,7,1,9,12"
14478,commdev-image-keyboard-response,245,474933,learnblock1,574.6000001430511,img/planet12_left.png,12,Community 3,NA,TRUE,f,f,NA,NA,NA,6,6,"14,10,4,13,6,15,11,3,5,8,2,7,1,9,12"
14478,commdev-image-keyboard-response,246,476186,learnblock1,750.7999999523163,img/planet2_left.png,2,Community 3,NA,TRUE,f,f,NA,NA,NA,6,6,"14,10,4,13,6,15,11,3,5,8,2,7,1,9,12"
14478,commdev-image-keyboard-response,247,477438,learnblock1,710.7999999523163,img/planet12_left.png,12,Community 3,NA,TRUE,f,f,NA,NA,NA,6,6,"14,10,4,13,6,15,11,3,5,8,2,7,1,9,12"
14478,commdev-image-keyboard-response,248,478691,learnblock1,620.9000000953674,img/planet7_left.png,7,Community 3,NA,FALSE,j,f,NA,NA,NA,6,6,"14,10,4,13,6,15,11,3,5,8,2,7,1,9,12"
14478,commdev-image-keyboard-response,249,479944,learnblock1,740.1000001430511,img/planet1_left.png,1,Community 3,NA,TRUE,f,f,NA,NA,NA,6,6,"14,10,4,13,6,15,11,3,5,8,2,7,1,9,12"
14478,commdev-image-keyboard-response,250,481197,learnblock1,1020.5999999046326,img/planet12_right.png,12,Community 3,NA,TRUE,j,j,NA,NA,NA,6,6,"14,10,4,13,6,15,11,3,5,8,2,7,1,9,12"
14478,commdev-image-keyboard-response,251,482450,learnblock1,799,img/planet9_right.png,9,Community 3,NA,TRUE,j,j,NA,NA,NA,6,6,"14,10,4,13,6,15,11,3,5,8,2,7,1,9,12"
14478,commdev-image-keyboard-response,252,483703,learnblock1,821.5,img/planet12_left.png,12,Community 3,NA,TRUE,f,f,NA,NA,NA,6,6,"14,10,4,13,6,15,11,3,5,8,2,7,1,9,12"
14478,commdev-image-keyboard-response,253,484956,learnblock1,575.9000000953674,img/planet9_right.png,9,Community 3,NA,TRUE,j,j,NA,NA,NA,6,6,"14,10,4,13,6,15,11,3,5,8,2,7,1,9,12"
14478,commdev-image-keyboard-response,254,486208,learnblock1,817,img/planet7_left.png,7,Community 3,NA,TRUE,f,f,NA,NA,NA,6,6,"14,10,4,13,6,15,11,3,5,8,2,7,1,9,12"
14478,commdev-image-keyboard-response,255,487461,learnblock1,589.2000000476837,img/planet3_right.png,3,Community 2,NA,TRUE,j,j,NA,NA,NA,6,6,"14,10,4,13,6,15,11,3,5,8,2,7,1,9,12"
14478,commdev-image-keyboard-response,256,488714,learnblock1,632.7999999523163,img/planet11_left.png,11,Community 2,NA,TRUE,f,f,NA,NA,NA,6,6,"14,10,4,13,6,15,11,3,5,8,2,7,1,9,12"
14478,commdev-image-keyboard-response,257,489968,learnblock1,853.4000000953674,img/planet5_left.png,5,Community 2,NA,TRUE,f,f,NA,NA,NA,6,6,"14,10,4,13,6,15,11,3,5,8,2,7,1,9,12"
14478,commdev-image-keyboard-response,258,491220,learnblock1,740.5,img/planet15_left.png,15,Community 2,NA,TRUE,f,f,NA,NA,NA,6,6,"14,10,4,13,6,15,11,3,5,8,2,7,1,9,12"
14478,commdev-image-keyboard-response,259,492473,learnblock1,660.2000000476837,img/planet11_left.png,11,Community 2,NA,FALSE,j,f,NA,NA,NA,6,6,"14,10,4,13,6,15,11,3,5,8,2,7,1,9,12"
14478,commdev-image-keyboard-response,260,493726,learnblock1,663.5,img/planet15_right.png,15,Community 2,NA,TRUE,j,j,NA,NA,NA,6,6,"14,10,4,13,6,15,11,3,5,8,2,7,1,9,12"
14478,commdev-image-keyboard-response,261,494979,learnblock1,677.9000000953674,img/planet11_left.png,11,Community 2,NA,TRUE,f,f,NA,NA,NA,6,6,"14,10,4,13,6,15,11,3,5,8,2,7,1,9,12"
14478,commdev-image-keyboard-response,262,496232,learnblock1,780.7000000476837,img/planet15_left.png,15,Community 2,NA,TRUE,f,f,NA,NA,NA,6,6,"14,10,4,13,6,15,11,3,5,8,2,7,1,9,12"
14478,commdev-image-keyboard-response,263,497485,learnblock1,647.4000000953674,img/planet13_left.png,13,Community 1,NA,TRUE,f,f,NA,NA,NA,6,6,"14,10,4,13,6,15,11,3,5,8,2,7,1,9,12"
14478,commdev-image-keyboard-response,264,498738,learnblock1,653.5,img/planet4_right.png,4,Community 1,NA,TRUE,j,j,NA,NA,NA,6,6,"14,10,4,13,6,15,11,3,5,8,2,7,1,9,12"
14478,commdev-image-keyboard-response,265,499990,learnblock1,899.2999999523163,img/planet6_left.png,6,Community 1,NA,TRUE,f,f,NA,NA,NA,6,6,"14,10,4,13,6,15,11,3,5,8,2,7,1,9,12"
14478,commdev-image-keyboard-response,266,501243,learnblock1,688.2999999523163,img/planet10_right.png,10,Community 1,NA,TRUE,j,j,NA,NA,NA,6,6,"14,10,4,13,6,15,11,3,5,8,2,7,1,9,12"
14478,commdev-image-keyboard-response,267,502496,learnblock1,623.9000000953674,img/planet13_right.png,13,Community 1,NA,TRUE,j,j,NA,NA,NA,6,6,"14,10,4,13,6,15,11,3,5,8,2,7,1,9,12"
14478,commdev-image-keyboard-response,268,503748,learnblock1,636.8999998569489,img/planet4_left.png,4,Community 1,NA,FALSE,j,f,NA,NA,NA,6,6,"14,10,4,13,6,15,11,3,5,8,2,7,1,9,12"
14478,commdev-image-keyboard-response,269,505001,learnblock1,753.1000001430511,img/planet10_left.png,10,Community 1,NA,TRUE,f,f,NA,NA,NA,6,6,"14,10,4,13,6,15,11,3,5,8,2,7,1,9,12"
14478,commdev-image-keyboard-response,270,506254,learnblock1,622.3999998569489,img/planet4_right.png,4,Community 1,NA,FALSE,f,j,NA,NA,NA,6,6,"14,10,4,13,6,15,11,3,5,8,2,7,1,9,12"
14478,commdev-image-keyboard-response,271,507507,learnblock1,676.5,img/planet13_left.png,13,Community 1,NA,TRUE,f,f,NA,NA,NA,6,6,"14,10,4,13,6,15,11,3,5,8,2,7,1,9,12"
14478,commdev-image-keyboard-response,272,508760,learnblock1,590.5999999046326,img/planet14_right.png,14,Community 1,NA,TRUE,j,j,NA,NA,NA,6,6,"14,10,4,13,6,15,11,3,5,8,2,7,1,9,12"
14478,commdev-image-keyboard-response,273,510013,learnblock1,708.6000001430511,img/planet10_left.png,10,Community 1,NA,TRUE,f,f,NA,NA,NA,6,6,"14,10,4,13,6,15,11,3,5,8,2,7,1,9,12"
14478,commdev-image-keyboard-response,274,511265,learnblock1,684.7999999523163,img/planet13_left.png,13,Community 1,NA,TRUE,f,f,NA,NA,NA,6,6,"14,10,4,13,6,15,11,3,5,8,2,7,1,9,12"
14478,commdev-image-keyboard-response,275,512518,learnblock1,576.6999998092651,img/planet10_right.png,10,Community 1,NA,TRUE,j,j,NA,NA,NA,6,6,"14,10,4,13,6,15,11,3,5,8,2,7,1,9,12"
14478,commdev-image-keyboard-response,276,513771,learnblock1,584.4000000953674,img/planet4_left.png,4,Community 1,NA,TRUE,f,f,NA,NA,NA,6,6,"14,10,4,13,6,15,11,3,5,8,2,7,1,9,12"
14478,commdev-image-keyboard-response,277,515024,learnblock1,555.7999999523163,img/planet13_right.png,13,Community 1,NA,TRUE,j,j,NA,NA,NA,6,6,"14,10,4,13,6,15,11,3,5,8,2,7,1,9,12"
14478,commdev-image-keyboard-response,278,516276,learnblock1,384.2999999523163,img/planet15_left.png,15,Community 2,NA,TRUE,f,f,NA,NA,NA,6,6,"14,10,4,13,6,15,11,3,5,8,2,7,1,9,12"
14478,commdev-image-keyboard-response,279,517529,learnblock1,611.7999999523163,img/planet8_right.png,8,Community 2,NA,TRUE,j,j,NA,NA,NA,6,6,"14,10,4,13,6,15,11,3,5,8,2,7,1,9,12"
14478,commdev-image-keyboard-response,280,518782,learnblock1,382.2000000476837,img/planet15_left.png,15,Community 2,NA,TRUE,f,f,NA,NA,NA,6,6,"14,10,4,13,6,15,11,3,5,8,2,7,1,9,12"
14478,commdev-image-keyboard-response,281,520035,learnblock1,508.19999980926514,img/planet11_right.png,11,Community 2,NA,TRUE,j,j,NA,NA,NA,6,6,"14,10,4,13,6,15,11,3,5,8,2,7,1,9,12"
14478,commdev-image-keyboard-response,282,521288,learnblock1,401.2999999523163,img/planet8_right.png,8,Community 2,NA,FALSE,f,j,NA,NA,NA,6,6,"14,10,4,13,6,15,11,3,5,8,2,7,1,9,12"
14478,commdev-image-keyboard-response,283,522540,learnblock1,867.5,img/planet5_left.png,5,Community 2,NA,TRUE,f,f,NA,NA,NA,6,6,"14,10,4,13,6,15,11,3,5,8,2,7,1,9,12"
14478,commdev-image-keyboard-response,284,523793,learnblock1,1079.5999999046326,img/planet11_right.png,11,Community 2,NA,TRUE,j,j,NA,NA,NA,6,6,"14,10,4,13,6,15,11,3,5,8,2,7,1,9,12"
14478,commdev-image-keyboard-response,285,525045,learnblock1,1016.9000000953674,img/planet15_right.png,15,Community 2,NA,TRUE,j,j,NA,NA,NA,6,6,"14,10,4,13,6,15,11,3,5,8,2,7,1,9,12"
14478,commdev-image-keyboard-response,286,526298,learnblock1,831.2999999523163,img/planet8_right.png,8,Community 2,NA,TRUE,j,j,NA,NA,NA,6,6,"14,10,4,13,6,15,11,3,5,8,2,7,1,9,12"
14478,commdev-image-keyboard-response,287,527552,learnblock1,670.6999998092651,img/planet15_right.png,15,Community 2,NA,TRUE,j,j,NA,NA,NA,6,6,"14,10,4,13,6,15,11,3,5,8,2,7,1,9,12"
14478,commdev-image-keyboard-response,288,528805,learnblock1,762.2000000476837,img/planet8_left.png,8,Community 2,NA,FALSE,j,f,NA,NA,NA,6,6,"14,10,4,13,6,15,11,3,5,8,2,7,1,9,12"
14478,commdev-image-keyboard-response,289,530058,learnblock1,664.5999999046326,img/planet5_right.png,5,Community 2,NA,TRUE,j,j,NA,NA,NA,6,6,"14,10,4,13,6,15,11,3,5,8,2,7,1,9,12"
14478,commdev-image-keyboard-response,290,531311,learnblock1,690.8000001907349,img/planet8_left.png,8,Community 2,NA,TRUE,f,f,NA,NA,NA,6,6,"14,10,4,13,6,15,11,3,5,8,2,7,1,9,12"
14478,commdev-image-keyboard-response,291,532564,learnblock1,737,img/planet3_left.png,3,Community 2,NA,TRUE,f,f,NA,NA,NA,6,6,"14,10,4,13,6,15,11,3,5,8,2,7,1,9,12"
14478,commdev-image-keyboard-response,292,533817,learnblock1,685,img/planet5_right.png,5,Community 2,NA,TRUE,j,j,NA,NA,NA,6,6,"14,10,4,13,6,15,11,3,5,8,2,7,1,9,12"
14478,commdev-image-keyboard-response,293,535070,learnblock1,611.9000000953674,img/planet3_left.png,3,Community 2,NA,TRUE,f,f,NA,NA,NA,6,6,"14,10,4,13,6,15,11,3,5,8,2,7,1,9,12"
14478,commdev-image-keyboard-response,294,536324,learnblock1,608.7000000476837,img/planet5_left.png,5,Community 2,NA,FALSE,j,f,NA,NA,NA,6,6,"14,10,4,13,6,15,11,3,5,8,2,7,1,9,12"
14478,commdev-image-keyboard-response,295,537576,learnblock1,938.1000001430511,img/planet8_left.png,8,Community 2,NA,TRUE,f,f,NA,NA,NA,6,6,"14,10,4,13,6,15,11,3,5,8,2,7,1,9,12"
14478,commdev-image-keyboard-response,296,538829,learnblock1,713,img/planet3_right.png,3,Community 2,NA,TRUE,j,j,NA,NA,NA,6,6,"14,10,4,13,6,15,11,3,5,8,2,7,1,9,12"
14478,commdev-image-keyboard-response,297,540082,learnblock1,878.2000000476837,img/planet7_left.png,7,Community 3,NA,TRUE,f,f,NA,NA,NA,6,6,"14,10,4,13,6,15,11,3,5,8,2,7,1,9,12"
14478,commdev-image-keyboard-response,298,541335,learnblock1,640.0999999046326,img/planet9_left.png,9,Community 3,NA,TRUE,f,f,NA,NA,NA,6,6,"14,10,4,13,6,15,11,3,5,8,2,7,1,9,12"
14478,commdev-image-keyboard-response,299,542588,learnblock1,750.7999999523163,img/planet7_right.png,7,Community 3,NA,TRUE,j,j,NA,NA,NA,6,6,"14,10,4,13,6,15,11,3,5,8,2,7,1,9,12"
14478,commdev-image-keyboard-response,300,543841,learnblock1,675.5,img/planet9_left.png,9,Community 3,NA,TRUE,f,f,NA,NA,NA,6,6,"14,10,4,13,6,15,11,3,5,8,2,7,1,9,12"
14478,commdev-image-keyboard-response,301,545094,learnblock1,743.5,img/planet1_right.png,1,Community 3,NA,TRUE,j,j,NA,NA,NA,6,6,"14,10,4,13,6,15,11,3,5,8,2,7,1,9,12"
14478,commdev-image-keyboard-response,302,546347,learnblock1,692.7999999523163,img/planet2_right.png,2,Community 3,NA,TRUE,j,j,NA,NA,NA,6,6,"14,10,4,13,6,15,11,3,5,8,2,7,1,9,12"
14478,commdev-image-keyboard-response,303,547600,learnblock1,859.7999999523163,img/planet1_left.png,1,Community 3,NA,TRUE,f,f,NA,NA,NA,6,6,"14,10,4,13,6,15,11,3,5,8,2,7,1,9,12"
14478,commdev-image-keyboard-response,304,548853,learnblock1,827.9000000953674,img/planet12_right.png,12,Community 3,NA,TRUE,j,j,NA,NA,NA,6,6,"14,10,4,13,6,15,11,3,5,8,2,7,1,9,12"
14478,commdev-image-keyboard-response,305,550106,learnblock1,800.7000000476837,img/planet1_left.png,1,Community 3,NA,TRUE,f,f,NA,NA,NA,6,6,"14,10,4,13,6,15,11,3,5,8,2,7,1,9,12"
14478,commdev-image-keyboard-response,306,551359,learnblock1,816.2999999523163,img/planet7_left.png,7,Community 3,NA,TRUE,f,f,NA,NA,NA,6,6,"14,10,4,13,6,15,11,3,5,8,2,7,1,9,12"
14478,commdev-image-keyboard-response,307,552612,learnblock1,718.5,img/planet3_right.png,3,Community 2,NA,TRUE,j,j,NA,NA,NA,6,6,"14,10,4,13,6,15,11,3,5,8,2,7,1,9,12"
14478,commdev-image-keyboard-response,308,553864,learnblock1,669.8999998569489,img/planet5_right.png,5,Community 2,NA,TRUE,j,j,NA,NA,NA,6,6,"14,10,4,13,6,15,11,3,5,8,2,7,1,9,12"
14478,commdev-image-keyboard-response,309,555117,learnblock1,649.7999999523163,img/planet8_left.png,8,Community 2,NA,TRUE,f,f,NA,NA,NA,6,6,"14,10,4,13,6,15,11,3,5,8,2,7,1,9,12"
14478,commdev-image-keyboard-response,310,556370,learnblock1,598.8000001907349,img/planet3_left.png,3,Community 2,NA,FALSE,j,f,NA,NA,NA,6,6,"14,10,4,13,6,15,11,3,5,8,2,7,1,9,12"
14478,commdev-image-keyboard-response,311,557623,learnblock1,718.8999998569489,img/planet11_left.png,11,Community 2,NA,TRUE,f,f,NA,NA,NA,6,6,"14,10,4,13,6,15,11,3,5,8,2,7,1,9,12"
14478,commdev-image-keyboard-response,312,558877,learnblock1,611.8999998569489,img/planet3_right.png,3,Community 2,NA,TRUE,j,j,NA,NA,NA,6,6,"14,10,4,13,6,15,11,3,5,8,2,7,1,9,12"
14478,commdev-image-keyboard-response,313,560129,learnblock1,744.5,img/planet5_right.png,5,Community 2,NA,TRUE,j,j,NA,NA,NA,6,6,"14,10,4,13,6,15,11,3,5,8,2,7,1,9,12"
14478,commdev-image-keyboard-response,314,561382,learnblock1,795.2999999523163,img/planet11_left.png,11,Community 2,NA,TRUE,f,f,NA,NA,NA,6,6,"14,10,4,13,6,15,11,3,5,8,2,7,1,9,12"
14478,commdev-image-keyboard-response,315,562636,learnblock1,880.7000000476837,img/planet8_left.png,8,Community 2,NA,TRUE,f,f,NA,NA,NA,6,6,"14,10,4,13,6,15,11,3,5,8,2,7,1,9,12"
14478,commdev-image-keyboard-response,316,563889,learnblock1,553.1000001430511,img/planet11_left.png,11,Community 2,NA,TRUE,f,f,NA,NA,NA,6,6,"14,10,4,13,6,15,11,3,5,8,2,7,1,9,12"
14478,commdev-image-keyboard-response,317,565142,learnblock1,736.6000001430511,img/planet8_right.png,8,Community 2,NA,TRUE,j,j,NA,NA,NA,6,6,"14,10,4,13,6,15,11,3,5,8,2,7,1,9,12"
14478,commdev-image-keyboard-response,318,566395,learnblock1,794.7999999523163,img/planet11_left.png,11,Community 2,NA,TRUE,f,f,NA,NA,NA,6,6,"14,10,4,13,6,15,11,3,5,8,2,7,1,9,12"
14478,commdev-image-keyboard-response,319,567648,learnblock1,895.9000000953674,img/planet3_left.png,3,Community 2,NA,TRUE,f,f,NA,NA,NA,6,6,"14,10,4,13,6,15,11,3,5,8,2,7,1,9,12"
14478,commdev-image-keyboard-response,320,568901,learnblock1,773.8000001907349,img/planet7_left.png,7,Community 3,NA,TRUE,f,f,NA,NA,NA,6,6,"14,10,4,13,6,15,11,3,5,8,2,7,1,9,12"
14478,commdev-image-keyboard-response,321,570154,learnblock1,663.2000000476837,img/planet9_right.png,9,Community 3,NA,TRUE,j,j,NA,NA,NA,6,6,"14,10,4,13,6,15,11,3,5,8,2,7,1,9,12"
14478,commdev-image-keyboard-response,322,571407,learnblock1,834.3999998569489,img/planet1_left.png,1,Community 3,NA,TRUE,f,f,NA,NA,NA,6,6,"14,10,4,13,6,15,11,3,5,8,2,7,1,9,12"
14478,commdev-image-keyboard-response,323,572660,learnblock1,699.3000001907349,img/planet2_right.png,2,Community 3,NA,TRUE,j,j,NA,NA,NA,6,6,"14,10,4,13,6,15,11,3,5,8,2,7,1,9,12"
14478,commdev-image-keyboard-response,324,573912,learnblock1,749.1000001430511,img/planet9_left.png,9,Community 3,NA,TRUE,f,f,NA,NA,NA,6,6,"14,10,4,13,6,15,11,3,5,8,2,7,1,9,12"
14478,commdev-image-keyboard-response,325,575165,learnblock1,786.2000000476837,img/planet12_left.png,12,Community 3,NA,TRUE,f,f,NA,NA,NA,6,6,"14,10,4,13,6,15,11,3,5,8,2,7,1,9,12"
14478,commdev-image-keyboard-response,326,576418,learnblock1,644.5,img/planet1_left.png,1,Community 3,NA,TRUE,f,f,NA,NA,NA,6,6,"14,10,4,13,6,15,11,3,5,8,2,7,1,9,12"
14478,commdev-image-keyboard-response,327,577670,learnblock1,456.30000019073486,img/planet9_right.png,9,Community 3,NA,FALSE,f,j,NA,NA,NA,6,6,"14,10,4,13,6,15,11,3,5,8,2,7,1,9,12"
14478,commdev-image-keyboard-response,328,578924,learnblock1,838,img/planet7_left.png,7,Community 3,NA,TRUE,f,f,NA,NA,NA,6,6,"14,10,4,13,6,15,11,3,5,8,2,7,1,9,12"
14478,commdev-image-keyboard-response,329,580177,learnblock1,841.2000000476837,img/planet3_left.png,3,Community 2,NA,TRUE,f,f,NA,NA,NA,6,6,"14,10,4,13,6,15,11,3,5,8,2,7,1,9,12"
14478,commdev-image-keyboard-response,330,581430,learnblock1,648.2000000476837,img/planet8_left.png,8,Community 2,NA,TRUE,f,f,NA,NA,NA,6,6,"14,10,4,13,6,15,11,3,5,8,2,7,1,9,12"
14478,commdev-image-keyboard-response,331,582681,learnblock1,538.2000000476837,img/planet3_left.png,3,Community 2,NA,TRUE,f,f,NA,NA,NA,6,6,"14,10,4,13,6,15,11,3,5,8,2,7,1,9,12"
14478,commdev-image-keyboard-response,332,583934,learnblock1,483.7000000476837,img/planet11_left.png,11,Community 2,NA,TRUE,f,f,NA,NA,NA,6,6,"14,10,4,13,6,15,11,3,5,8,2,7,1,9,12"
14478,commdev-image-keyboard-response,333,585187,learnblock1,747.3999998569489,img/planet8_left.png,8,Community 2,NA,TRUE,f,f,NA,NA,NA,6,6,"14,10,4,13,6,15,11,3,5,8,2,7,1,9,12"
14478,commdev-image-keyboard-response,334,586440,learnblock1,786.2999999523163,img/planet11_left.png,11,Community 2,NA,TRUE,f,f,NA,NA,NA,6,6,"14,10,4,13,6,15,11,3,5,8,2,7,1,9,12"
14478,commdev-image-keyboard-response,335,587692,learnblock1,865.7999999523163,img/planet3_left.png,3,Community 2,NA,TRUE,f,f,NA,NA,NA,6,6,"14,10,4,13,6,15,11,3,5,8,2,7,1,9,12"
14478,commdev-image-keyboard-response,336,588945,learnblock1,853.5999999046326,img/planet8_right.png,8,Community 2,NA,TRUE,j,j,NA,NA,NA,6,6,"14,10,4,13,6,15,11,3,5,8,2,7,1,9,12"
14478,commdev-image-keyboard-response,337,590198,learnblock1,623.7999999523163,img/planet5_left.png,5,Community 2,NA,FALSE,j,f,NA,NA,NA,6,6,"14,10,4,13,6,15,11,3,5,8,2,7,1,9,12"
14478,commdev-image-keyboard-response,338,591451,learnblock1,791.2999999523163,img/planet11_left.png,11,Community 2,NA,TRUE,f,f,NA,NA,NA,6,6,"14,10,4,13,6,15,11,3,5,8,2,7,1,9,12"
14478,commdev-image-keyboard-response,339,592703,learnblock1,784.5,img/planet15_right.png,15,Community 2,NA,TRUE,j,j,NA,NA,NA,6,6,"14,10,4,13,6,15,11,3,5,8,2,7,1,9,12"
14478,commdev-image-keyboard-response,340,593956,learnblock1,798,img/planet11_left.png,11,Community 2,NA,TRUE,f,f,NA,NA,NA,6,6,"14,10,4,13,6,15,11,3,5,8,2,7,1,9,12"
14478,commdev-image-keyboard-response,341,595210,learnblock1,818.4000000953674,img/planet3_left.png,3,Community 2,NA,TRUE,f,f,NA,NA,NA,6,6,"14,10,4,13,6,15,11,3,5,8,2,7,1,9,12"
14478,commdev-image-keyboard-response,342,596463,learnblock1,652.9000000953674,img/planet8_left.png,8,Community 2,NA,FALSE,j,f,NA,NA,NA,6,6,"14,10,4,13,6,15,11,3,5,8,2,7,1,9,12"
14478,commdev-image-keyboard-response,343,597715,learnblock1,681.4000000953674,img/planet5_right.png,5,Community 2,NA,FALSE,f,j,NA,NA,NA,6,6,"14,10,4,13,6,15,11,3,5,8,2,7,1,9,12"
14478,commdev-image-keyboard-response,344,598968,learnblock1,873.3000001907349,img/planet11_right.png,11,Community 2,NA,TRUE,j,j,NA,NA,NA,6,6,"14,10,4,13,6,15,11,3,5,8,2,7,1,9,12"
14478,commdev-image-keyboard-response,345,600222,learnblock1,687.7999999523163,img/planet3_right.png,3,Community 2,NA,TRUE,j,j,NA,NA,NA,6,6,"14,10,4,13,6,15,11,3,5,8,2,7,1,9,12"
14478,commdev-image-keyboard-response,346,601475,learnblock1,722,img/planet11_right.png,11,Community 2,NA,TRUE,j,j,NA,NA,NA,6,6,"14,10,4,13,6,15,11,3,5,8,2,7,1,9,12"
14478,commdev-image-keyboard-response,347,602729,learnblock1,767.1999998092651,img/planet15_left.png,15,Community 2,NA,TRUE,f,f,NA,NA,NA,6,6,"14,10,4,13,6,15,11,3,5,8,2,7,1,9,12"
14478,commdev-image-keyboard-response,351,974211,learnblock2,756.5,img/planet5_left.png,5,Community 2,NA,TRUE,f,f,NA,NA,NA,6,6,"14,10,4,13,6,15,11,3,5,8,2,7,1,9,12"
14478,commdev-image-keyboard-response,352,975464,learnblock2,711.5,img/planet11_left.png,11,Community 2,NA,TRUE,f,f,NA,NA,NA,6,6,"14,10,4,13,6,15,11,3,5,8,2,7,1,9,12"
14478,commdev-image-keyboard-response,353,976717,learnblock2,711.6999998092651,img/planet5_right.png,5,Community 2,NA,TRUE,j,j,NA,NA,NA,6,6,"14,10,4,13,6,15,11,3,5,8,2,7,1,9,12"
14478,commdev-image-keyboard-response,354,977969,learnblock2,673.7999999523163,img/planet8_right.png,8,Community 2,NA,TRUE,j,j,NA,NA,NA,6,6,"14,10,4,13,6,15,11,3,5,8,2,7,1,9,12"
14478,commdev-image-keyboard-response,355,979222,learnblock2,712.3999998569489,img/planet11_left.png,11,Community 2,NA,TRUE,f,f,NA,NA,NA,6,6,"14,10,4,13,6,15,11,3,5,8,2,7,1,9,12"
14478,commdev-image-keyboard-response,356,980475,learnblock2,633.0999999046326,img/planet8_left.png,8,Community 2,NA,TRUE,f,f,NA,NA,NA,6,6,"14,10,4,13,6,15,11,3,5,8,2,7,1,9,12"
14478,commdev-image-keyboard-response,357,981728,learnblock2,661.2000000476837,img/planet3_right.png,3,Community 2,NA,TRUE,j,j,NA,NA,NA,6,6,"14,10,4,13,6,15,11,3,5,8,2,7,1,9,12"
14478,commdev-image-keyboard-response,358,982980,learnblock2,656.7000000476837,img/planet8_right.png,8,Community 2,NA,TRUE,j,j,NA,NA,NA,6,6,"14,10,4,13,6,15,11,3,5,8,2,7,1,9,12"
14478,commdev-image-keyboard-response,359,984233,learnblock2,690.2000000476837,img/planet5_left.png,5,Community 2,NA,TRUE,f,f,NA,NA,NA,6,6,"14,10,4,13,6,15,11,3,5,8,2,7,1,9,12"
14478,commdev-image-keyboard-response,360,985486,learnblock2,714.6000001430511,img/planet3_right.png,3,Community 2,NA,TRUE,j,j,NA,NA,NA,6,6,"14,10,4,13,6,15,11,3,5,8,2,7,1,9,12"
14478,commdev-image-keyboard-response,361,986739,learnblock2,689.5,img/planet5_right.png,5,Community 2,NA,TRUE,j,j,NA,NA,NA,6,6,"14,10,4,13,6,15,11,3,5,8,2,7,1,9,12"
14478,commdev-image-keyboard-response,362,987992,learnblock2,668.2000000476837,img/planet3_left.png,3,Community 2,NA,TRUE,f,f,NA,NA,NA,6,6,"14,10,4,13,6,15,11,3,5,8,2,7,1,9,12"
14478,commdev-image-keyboard-response,363,989244,learnblock2,652.3999998569489,img/planet5_right.png,5,Community 2,NA,TRUE,j,j,NA,NA,NA,6,6,"14,10,4,13,6,15,11,3,5,8,2,7,1,9,12"
14478,commdev-image-keyboard-response,364,990498,learnblock2,639.2999999523163,img/planet11_left.png,11,Community 2,NA,TRUE,f,f,NA,NA,NA,6,6,"14,10,4,13,6,15,11,3,5,8,2,7,1,9,12"
14478,commdev-image-keyboard-response,365,991752,learnblock2,598.2000000476837,img/planet5_right.png,5,Community 2,NA,TRUE,j,j,NA,NA,NA,6,6,"14,10,4,13,6,15,11,3,5,8,2,7,1,9,12"
14478,commdev-image-keyboard-response,366,993003,learnblock2,651.7999999523163,img/planet15_left.png,15,Community 2,NA,TRUE,f,f,NA,NA,NA,6,6,"14,10,4,13,6,15,11,3,5,8,2,7,1,9,12"
14478,commdev-image-keyboard-response,367,994256,learnblock2,576.2999999523163,img/planet5_right.png,5,Community 2,NA,TRUE,j,j,NA,NA,NA,6,6,"14,10,4,13,6,15,11,3,5,8,2,7,1,9,12"
14478,commdev-image-keyboard-response,368,995509,learnblock2,526.3999998569489,img/planet15_right.png,15,Community 2,NA,FALSE,f,j,NA,NA,NA,6,6,"14,10,4,13,6,15,11,3,5,8,2,7,1,9,12"
14478,commdev-image-keyboard-response,369,996762,learnblock2,681.9000000953674,img/planet11_right.png,11,Community 2,NA,TRUE,j,j,NA,NA,NA,6,6,"14,10,4,13,6,15,11,3,5,8,2,7,1,9,12"
14478,commdev-image-keyboard-response,370,998015,learnblock2,646.7000000476837,img/planet5_left.png,5,Community 2,NA,TRUE,f,f,NA,NA,NA,6,6,"14,10,4,13,6,15,11,3,5,8,2,7,1,9,12"
14478,commdev-image-keyboard-response,371,999268,learnblock2,724.4000000953674,img/planet11_left.png,11,Community 2,NA,TRUE,f,f,NA,NA,NA,6,6,"14,10,4,13,6,15,11,3,5,8,2,7,1,9,12"
14478,commdev-image-keyboard-response,372,1000521,learnblock2,684.2999999523163,img/planet3_right.png,3,Community 2,NA,TRUE,j,j,NA,NA,NA,6,6,"14,10,4,13,6,15,11,3,5,8,2,7,1,9,12"
14478,commdev-image-keyboard-response,373,1001773,learnblock2,790.2000000476837,img/planet5_right.png,5,Community 2,NA,TRUE,j,j,NA,NA,NA,6,6,"14,10,4,13,6,15,11,3,5,8,2,7,1,9,12"
14478,commdev-image-keyboard-response,374,1003027,learnblock2,899.5999999046326,img/planet15_right.png,15,Community 2,NA,TRUE,j,j,NA,NA,NA,6,6,"14,10,4,13,6,15,11,3,5,8,2,7,1,9,12"
14478,commdev-image-keyboard-response,375,1004280,learnblock2,878.7999999523163,img/planet11_right.png,11,Community 2,NA,TRUE,j,j,NA,NA,NA,6,6,"14,10,4,13,6,15,11,3,5,8,2,7,1,9,12"
14478,commdev-image-keyboard-response,376,1005533,learnblock2,801.5999999046326,img/planet15_right.png,15,Community 2,NA,TRUE,j,j,NA,NA,NA,6,6,"14,10,4,13,6,15,11,3,5,8,2,7,1,9,12"
14478,commdev-image-keyboard-response,377,1006786,learnblock2,707.5,img/planet11_left.png,11,Community 2,NA,TRUE,f,f,NA,NA,NA,6,6,"14,10,4,13,6,15,11,3,5,8,2,7,1,9,12"
14478,commdev-image-keyboard-response,378,1008039,learnblock2,710.7999999523163,img/planet5_left.png,5,Community 2,NA,TRUE,f,f,NA,NA,NA,6,6,"14,10,4,13,6,15,11,3,5,8,2,7,1,9,12"
14478,commdev-image-keyboard-response,379,1009292,learnblock2,776.5999999046326,img/planet11_left.png,11,Community 2,NA,TRUE,f,f,NA,NA,NA,6,6,"14,10,4,13,6,15,11,3,5,8,2,7,1,9,12"
14478,commdev-image-keyboard-response,380,1010545,learnblock2,697.3000001907349,img/planet15_right.png,15,Community 2,NA,TRUE,j,j,NA,NA,NA,6,6,"14,10,4,13,6,15,11,3,5,8,2,7,1,9,12"
14478,commdev-image-keyboard-response,381,1011798,learnblock2,656.5,img/planet8_right.png,8,Community 2,NA,TRUE,j,j,NA,NA,NA,6,6,"14,10,4,13,6,15,11,3,5,8,2,7,1,9,12"
14478,commdev-image-keyboard-response,382,1013052,learnblock2,607.2000000476837,img/planet11_right.png,11,Community 2,NA,TRUE,j,j,NA,NA,NA,6,6,"14,10,4,13,6,15,11,3,5,8,2,7,1,9,12"
14478,commdev-image-keyboard-response,383,1014304,learnblock2,722.5999999046326,img/planet5_left.png,5,Community 2,NA,TRUE,f,f,NA,NA,NA,6,6,"14,10,4,13,6,15,11,3,5,8,2,7,1,9,12"
14478,commdev-image-keyboard-response,384,1015557,learnblock2,598.2000000476837,img/planet3_right.png,3,Community 2,NA,TRUE,j,j,NA,NA,NA,6,6,"14,10,4,13,6,15,11,3,5,8,2,7,1,9,12"
14478,commdev-image-keyboard-response,385,1016810,learnblock2,629.2999999523163,img/planet5_left.png,5,Community 2,NA,TRUE,f,f,NA,NA,NA,6,6,"14,10,4,13,6,15,11,3,5,8,2,7,1,9,12"
14478,commdev-image-keyboard-response,386,1018064,learnblock2,494.5,img/planet11_right.png,11,Community 2,NA,TRUE,j,j,NA,NA,NA,6,6,"14,10,4,13,6,15,11,3,5,8,2,7,1,9,12"
14478,commdev-image-keyboard-response,387,1019316,learnblock2,615.8999998569489,img/planet5_right.png,5,Community 2,NA,TRUE,j,j,NA,NA,NA,6,6,"14,10,4,13,6,15,11,3,5,8,2,7,1,9,12"
14478,commdev-image-keyboard-response,388,1020570,learnblock2,578.1999998092651,img/planet8_left.png,8,Community 2,NA,TRUE,f,f,NA,NA,NA,6,6,"14,10,4,13,6,15,11,3,5,8,2,7,1,9,12"
14478,commdev-image-keyboard-response,389,1021823,learnblock2,654.3999998569489,img/planet3_left.png,3,Community 2,NA,TRUE,f,f,NA,NA,NA,6,6,"14,10,4,13,6,15,11,3,5,8,2,7,1,9,12"
14478,commdev-image-keyboard-response,390,1023076,learnblock2,762.6000001430511,img/planet8_left.png,8,Community 2,NA,TRUE,f,f,NA,NA,NA,6,6,"14,10,4,13,6,15,11,3,5,8,2,7,1,9,12"
14478,commdev-image-keyboard-response,391,1024329,learnblock2,710,img/planet5_right.png,5,Community 2,NA,TRUE,j,j,NA,NA,NA,6,6,"14,10,4,13,6,15,11,3,5,8,2,7,1,9,12"
14478,commdev-image-keyboard-response,392,1025582,learnblock2,682.0999999046326,img/planet11_left.png,11,Community 2,NA,TRUE,f,f,NA,NA,NA,6,6,"14,10,4,13,6,15,11,3,5,8,2,7,1,9,12"
14478,commdev-image-keyboard-response,393,1026834,learnblock2,590.2000000476837,img/planet5_right.png,5,Community 2,NA,TRUE,j,j,NA,NA,NA,6,6,"14,10,4,13,6,15,11,3,5,8,2,7,1,9,12"
14478,commdev-image-keyboard-response,394,1028087,learnblock2,633.4000000953674,img/planet8_right.png,8,Community 2,NA,TRUE,j,j,NA,NA,NA,6,6,"14,10,4,13,6,15,11,3,5,8,2,7,1,9,12"
14478,commdev-image-keyboard-response,395,1029340,learnblock2,686.7999999523163,img/planet11_right.png,11,Community 2,NA,TRUE,j,j,NA,NA,NA,6,6,"14,10,4,13,6,15,11,3,5,8,2,7,1,9,12"
14478,commdev-image-keyboard-response,396,1030593,learnblock2,670.5,img/planet8_right.png,8,Community 2,NA,TRUE,j,j,NA,NA,NA,6,6,"14,10,4,13,6,15,11,3,5,8,2,7,1,9,12"
14478,commdev-image-keyboard-response,397,1031846,learnblock2,690.9000000953674,img/planet3_left.png,3,Community 2,NA,TRUE,f,f,NA,NA,NA,6,6,"14,10,4,13,6,15,11,3,5,8,2,7,1,9,12"
14478,commdev-image-keyboard-response,398,1033099,learnblock2,645.2999999523163,img/planet5_left.png,5,Community 2,NA,TRUE,f,f,NA,NA,NA,6,6,"14,10,4,13,6,15,11,3,5,8,2,7,1,9,12"
14478,commdev-image-keyboard-response,399,1034352,learnblock2,733.6000001430511,img/planet11_left.png,11,Community 2,NA,TRUE,f,f,NA,NA,NA,6,6,"14,10,4,13,6,15,11,3,5,8,2,7,1,9,12"
14478,commdev-image-keyboard-response,400,1035606,learnblock2,562.1000001430511,img/planet3_right.png,3,Community 2,NA,TRUE,j,j,NA,NA,NA,6,6,"14,10,4,13,6,15,11,3,5,8,2,7,1,9,12"
14478,commdev-image-keyboard-response,401,1036859,learnblock2,624.2999999523163,img/planet5_right.png,5,Community 2,NA,TRUE,j,j,NA,NA,NA,6,6,"14,10,4,13,6,15,11,3,5,8,2,7,1,9,12"
14478,commdev-image-keyboard-response,402,1038113,learnblock2,592.5999999046326,img/planet3_left.png,3,Community 2,NA,TRUE,f,f,NA,NA,NA,6,6,"14,10,4,13,6,15,11,3,5,8,2,7,1,9,12"
14478,commdev-image-keyboard-response,403,1039365,learnblock2,600.5,img/planet5_left.png,5,Community 2,NA,TRUE,f,f,NA,NA,NA,6,6,"14,10,4,13,6,15,11,3,5,8,2,7,1,9,12"
14478,commdev-image-keyboard-response,404,1040618,learnblock2,531.9000000953674,img/planet3_right.png,3,Community 2,NA,TRUE,j,j,NA,NA,NA,6,6,"14,10,4,13,6,15,11,3,5,8,2,7,1,9,12"
14478,commdev-image-keyboard-response,405,1041871,learnblock2,544.4000000953674,img/planet5_right.png,5,Community 2,NA,TRUE,j,j,NA,NA,NA,6,6,"14,10,4,13,6,15,11,3,5,8,2,7,1,9,12"
14478,commdev-image-keyboard-response,406,1043124,learnblock2,564,img/planet3_right.png,3,Community 2,NA,TRUE,j,j,NA,NA,NA,6,6,"14,10,4,13,6,15,11,3,5,8,2,7,1,9,12"
14478,commdev-image-keyboard-response,407,1044377,learnblock2,603.3999998569489,img/planet7_right.png,7,Community 3,NA,FALSE,f,j,NA,NA,NA,6,6,"14,10,4,13,6,15,11,3,5,8,2,7,1,9,12"
14478,commdev-image-keyboard-response,408,1045630,learnblock2,716.0999999046326,img/planet1_right.png,1,Community 3,NA,TRUE,j,j,NA,NA,NA,6,6,"14,10,4,13,6,15,11,3,5,8,2,7,1,9,12"
14478,commdev-image-keyboard-response,409,1046883,learnblock2,607.9000000953674,img/planet12_right.png,12,Community 3,NA,TRUE,j,j,NA,NA,NA,6,6,"14,10,4,13,6,15,11,3,5,8,2,7,1,9,12"
14478,commdev-image-keyboard-response,410,1048138,learnblock2,639,img/planet1_left.png,1,Community 3,NA,FALSE,j,f,NA,NA,NA,6,6,"14,10,4,13,6,15,11,3,5,8,2,7,1,9,12"
14478,commdev-image-keyboard-response,411,1049391,learnblock2,702.8000001907349,img/planet12_right.png,12,Community 3,NA,TRUE,j,j,NA,NA,NA,6,6,"14,10,4,13,6,15,11,3,5,8,2,7,1,9,12"
14478,commdev-image-keyboard-response,412,1050644,learnblock2,718.2999999523163,img/planet2_right.png,2,Community 3,NA,TRUE,j,j,NA,NA,NA,6,6,"14,10,4,13,6,15,11,3,5,8,2,7,1,9,12"
14478,commdev-image-keyboard-response,413,1051897,learnblock2,646.5,img/planet9_right.png,9,Community 3,NA,TRUE,j,j,NA,NA,NA,6,6,"14,10,4,13,6,15,11,3,5,8,2,7,1,9,12"
14478,commdev-image-keyboard-response,414,1053150,learnblock2,605.6000001430511,img/planet2_right.png,2,Community 3,NA,TRUE,j,j,NA,NA,NA,6,6,"14,10,4,13,6,15,11,3,5,8,2,7,1,9,12"
14478,commdev-image-keyboard-response,415,1054403,learnblock2,638.3999998569489,img/planet6_left.png,6,Community 1,NA,TRUE,f,f,NA,NA,NA,6,6,"14,10,4,13,6,15,11,3,5,8,2,7,1,9,12"
14478,commdev-image-keyboard-response,416,1055656,learnblock2,676,img/planet10_left.png,10,Community 1,NA,TRUE,f,f,NA,NA,NA,6,6,"14,10,4,13,6,15,11,3,5,8,2,7,1,9,12"
14478,commdev-image-keyboard-response,417,1056909,learnblock2,614.2000000476837,img/planet14_left.png,14,Community 1,NA,TRUE,f,f,NA,NA,NA,6,6,"14,10,4,13,6,15,11,3,5,8,2,7,1,9,12"
14478,commdev-image-keyboard-response,418,1058163,learnblock2,869.2000000476837,img/planet4_left.png,4,Community 1,NA,TRUE,f,f,NA,NA,NA,6,6,"14,10,4,13,6,15,11,3,5,8,2,7,1,9,12"
14478,commdev-image-keyboard-response,419,1059416,learnblock2,646.3999998569489,img/planet10_right.png,10,Community 1,NA,TRUE,j,j,NA,NA,NA,6,6,"14,10,4,13,6,15,11,3,5,8,2,7,1,9,12"
14478,commdev-image-keyboard-response,420,1060669,learnblock2,655.2000000476837,img/planet4_left.png,4,Community 1,NA,TRUE,f,f,NA,NA,NA,6,6,"14,10,4,13,6,15,11,3,5,8,2,7,1,9,12"
14478,commdev-image-keyboard-response,421,1061922,learnblock2,684,img/planet14_right.png,14,Community 1,NA,TRUE,j,j,NA,NA,NA,6,6,"14,10,4,13,6,15,11,3,5,8,2,7,1,9,12"
14478,commdev-image-keyboard-response,422,1063175,learnblock2,750.0999999046326,img/planet4_left.png,4,Community 1,NA,TRUE,f,f,NA,NA,NA,6,6,"14,10,4,13,6,15,11,3,5,8,2,7,1,9,12"
14478,commdev-image-keyboard-response,423,1064427,learnblock2,762.2999999523163,img/planet10_left.png,10,Community 1,NA,TRUE,f,f,NA,NA,NA,6,6,"14,10,4,13,6,15,11,3,5,8,2,7,1,9,12"
14478,commdev-image-keyboard-response,424,1065680,learnblock2,621.7000000476837,img/planet6_right.png,6,Community 1,NA,TRUE,j,j,NA,NA,NA,6,6,"14,10,4,13,6,15,11,3,5,8,2,7,1,9,12"
14478,commdev-image-keyboard-response,425,1066934,learnblock2,610.8999998569489,img/planet2_right.png,2,Community 3,NA,TRUE,j,j,NA,NA,NA,6,6,"14,10,4,13,6,15,11,3,5,8,2,7,1,9,12"
14478,commdev-image-keyboard-response,426,1068188,learnblock2,533.8999998569489,img/planet9_left.png,9,Community 3,NA,TRUE,f,f,NA,NA,NA,6,6,"14,10,4,13,6,15,11,3,5,8,2,7,1,9,12"
14478,commdev-image-keyboard-response,427,1069441,learnblock2,486.69999980926514,img/planet2_left.png,2,Community 3,NA,TRUE,f,f,NA,NA,NA,6,6,"14,10,4,13,6,15,11,3,5,8,2,7,1,9,12"
14478,commdev-image-keyboard-response,428,1070694,learnblock2,549.7999999523163,img/planet12_right.png,12,Community 3,NA,TRUE,j,j,NA,NA,NA,6,6,"14,10,4,13,6,15,11,3,5,8,2,7,1,9,12"
14478,commdev-image-keyboard-response,429,1071948,learnblock2,581.7000000476837,img/planet2_left.png,2,Community 3,NA,TRUE,f,f,NA,NA,NA,6,6,"14,10,4,13,6,15,11,3,5,8,2,7,1,9,12"
14478,commdev-image-keyboard-response,430,1073201,learnblock2,781.7000000476837,img/planet9_left.png,9,Community 3,NA,TRUE,f,f,NA,NA,NA,6,6,"14,10,4,13,6,15,11,3,5,8,2,7,1,9,12"
14478,commdev-image-keyboard-response,431,1074454,learnblock2,723.9000000953674,img/planet12_right.png,12,Community 3,NA,TRUE,j,j,NA,NA,NA,6,6,"14,10,4,13,6,15,11,3,5,8,2,7,1,9,12"
14478,commdev-image-keyboard-response,432,1075706,learnblock2,783.7999999523163,img/planet7_right.png,7,Community 3,NA,TRUE,j,j,NA,NA,NA,6,6,"14,10,4,13,6,15,11,3,5,8,2,7,1,9,12"
14478,commdev-image-keyboard-response,433,1076960,learnblock2,545.3999998569489,img/planet12_right.png,12,Community 3,NA,FALSE,f,j,NA,NA,NA,6,6,"14,10,4,13,6,15,11,3,5,8,2,7,1,9,12"
14478,commdev-image-keyboard-response,434,1078213,learnblock2,544.4000000953674,img/planet7_right.png,7,Community 3,NA,TRUE,j,j,NA,NA,NA,6,6,"14,10,4,13,6,15,11,3,5,8,2,7,1,9,12"
14478,commdev-image-keyboard-response,435,1079465,learnblock2,627.2000000476837,img/planet3_left.png,3,Community 2,NA,TRUE,f,f,NA,NA,NA,6,6,"14,10,4,13,6,15,11,3,5,8,2,7,1,9,12"
14478,commdev-image-keyboard-response,436,1080719,learnblock2,667.1000001430511,img/planet5_right.png,5,Community 2,NA,TRUE,j,j,NA,NA,NA,6,6,"14,10,4,13,6,15,11,3,5,8,2,7,1,9,12"
14478,commdev-image-keyboard-response,437,1081972,learnblock2,624.7000000476837,img/planet8_left.png,8,Community 2,NA,TRUE,f,f,NA,NA,NA,6,6,"14,10,4,13,6,15,11,3,5,8,2,7,1,9,12"
14478,commdev-image-keyboard-response,438,1083226,learnblock2,668.5999999046326,img/planet5_right.png,5,Community 2,NA,TRUE,j,j,NA,NA,NA,6,6,"14,10,4,13,6,15,11,3,5,8,2,7,1,9,12"
14478,commdev-image-keyboard-response,439,1084479,learnblock2,621.4000000953674,img/planet11_left.png,11,Community 2,NA,TRUE,f,f,NA,NA,NA,6,6,"14,10,4,13,6,15,11,3,5,8,2,7,1,9,12"
14478,commdev-image-keyboard-response,440,1085733,learnblock2,732.3000001907349,img/planet8_left.png,8,Community 2,NA,TRUE,f,f,NA,NA,NA,6,6,"14,10,4,13,6,15,11,3,5,8,2,7,1,9,12"
14478,commdev-image-keyboard-response,441,1086986,learnblock2,779.3999998569489,img/planet11_left.png,11,Community 2,NA,TRUE,f,f,NA,NA,NA,6,6,"14,10,4,13,6,15,11,3,5,8,2,7,1,9,12"
14478,commdev-image-keyboard-response,442,1088239,learnblock2,623.5,img/planet3_right.png,3,Community 2,NA,TRUE,j,j,NA,NA,NA,6,6,"14,10,4,13,6,15,11,3,5,8,2,7,1,9,12"
14478,commdev-image-keyboard-response,443,1089492,learnblock2,642,img/planet5_left.png,5,Community 2,NA,TRUE,f,f,NA,NA,NA,6,6,"14,10,4,13,6,15,11,3,5,8,2,7,1,9,12"
14478,commdev-image-keyboard-response,444,1090744,learnblock2,805.6000001430511,img/planet3_right.png,3,Community 2,NA,TRUE,j,j,NA,NA,NA,6,6,"14,10,4,13,6,15,11,3,5,8,2,7,1,9,12"
14478,commdev-image-keyboard-response,445,1091997,learnblock2,671.2999999523163,img/planet5_left.png,5,Community 2,NA,TRUE,f,f,NA,NA,NA,6,6,"14,10,4,13,6,15,11,3,5,8,2,7,1,9,12"
14478,commdev-image-keyboard-response,446,1093249,learnblock2,994.2000000476837,img/planet8_left.png,8,Community 2,NA,TRUE,f,f,NA,NA,NA,6,6,"14,10,4,13,6,15,11,3,5,8,2,7,1,9,12"
14478,commdev-image-keyboard-response,447,1094503,learnblock2,915.4000000953674,img/planet3_left.png,3,Community 2,NA,TRUE,f,f,NA,NA,NA,6,6,"14,10,4,13,6,15,11,3,5,8,2,7,1,9,12"
14478,commdev-image-keyboard-response,448,1095757,learnblock2,725.5,img/planet11_right.png,11,Community 2,NA,TRUE,j,j,NA,NA,NA,6,6,"14,10,4,13,6,15,11,3,5,8,2,7,1,9,12"
14478,commdev-image-keyboard-response,449,1097010,learnblock2,597,img/planet5_right.png,5,Community 2,NA,TRUE,j,j,NA,NA,NA,6,6,"14,10,4,13,6,15,11,3,5,8,2,7,1,9,12"
14478,commdev-image-keyboard-response,450,1098264,learnblock2,596.7999999523163,img/planet15_right.png,15,Community 2,NA,FALSE,f,j,NA,NA,NA,6,6,"14,10,4,13,6,15,11,3,5,8,2,7,1,9,12"
14478,commdev-image-keyboard-response,451,1099517,learnblock2,689.7999999523163,img/planet8_right.png,8,Community 2,NA,TRUE,j,j,NA,NA,NA,6,6,"14,10,4,13,6,15,11,3,5,8,2,7,1,9,12"
14478,commdev-image-keyboard-response,452,1100769,learnblock2,825.7999999523163,img/planet3_right.png,3,Community 2,NA,TRUE,j,j,NA,NA,NA,6,6,"14,10,4,13,6,15,11,3,5,8,2,7,1,9,12"
14478,commdev-image-keyboard-response,453,1102022,learnblock2,680.1000001430511,img/planet5_right.png,5,Community 2,NA,TRUE,j,j,NA,NA,NA,6,6,"14,10,4,13,6,15,11,3,5,8,2,7,1,9,12"
14478,commdev-image-keyboard-response,454,1103276,learnblock2,715.6000001430511,img/planet8_right.png,8,Community 2,NA,TRUE,j,j,NA,NA,NA,6,6,"14,10,4,13,6,15,11,3,5,8,2,7,1,9,12"
14478,commdev-image-keyboard-response,455,1104529,learnblock2,660.7999999523163,img/planet3_left.png,3,Community 2,NA,TRUE,f,f,NA,NA,NA,6,6,"14,10,4,13,6,15,11,3,5,8,2,7,1,9,12"
14478,commdev-image-keyboard-response,456,1105781,learnblock2,495.7999999523163,img/planet5_right.png,5,Community 2,NA,FALSE,f,j,NA,NA,NA,6,6,"14,10,4,13,6,15,11,3,5,8,2,7,1,9,12"
14478,commdev-image-keyboard-response,457,1107033,learnblock2,727.5,img/planet8_left.png,8,Community 2,NA,TRUE,f,f,NA,NA,NA,6,6,"14,10,4,13,6,15,11,3,5,8,2,7,1,9,12"
14478,commdev-image-keyboard-response,458,1108287,learnblock2,757.9000000953674,img/planet3_right.png,3,Community 2,NA,TRUE,j,j,NA,NA,NA,6,6,"14,10,4,13,6,15,11,3,5,8,2,7,1,9,12"
14478,commdev-image-keyboard-response,459,1109540,learnblock2,657.7000000476837,img/planet11_left.png,11,Community 2,NA,TRUE,f,f,NA,NA,NA,6,6,"14,10,4,13,6,15,11,3,5,8,2,7,1,9,12"
14478,commdev-image-keyboard-response,460,1110792,learnblock2,813.4000000953674,img/planet8_left.png,8,Community 2,NA,TRUE,f,f,NA,NA,NA,6,6,"14,10,4,13,6,15,11,3,5,8,2,7,1,9,12"
14478,commdev-image-keyboard-response,461,1112045,learnblock2,612.8999998569489,img/planet5_right.png,5,Community 2,NA,TRUE,j,j,NA,NA,NA,6,6,"14,10,4,13,6,15,11,3,5,8,2,7,1,9,12"
14478,commdev-image-keyboard-response,462,1113298,learnblock2,708.5,img/planet8_right.png,8,Community 2,NA,TRUE,j,j,NA,NA,NA,6,6,"14,10,4,13,6,15,11,3,5,8,2,7,1,9,12"
14478,commdev-image-keyboard-response,463,1114552,learnblock2,584.5999999046326,img/planet3_right.png,3,Community 2,NA,TRUE,j,j,NA,NA,NA,6,6,"14,10,4,13,6,15,11,3,5,8,2,7,1,9,12"
14478,commdev-image-keyboard-response,464,1115804,learnblock2,671.1000001430511,img/planet8_left.png,8,Community 2,NA,TRUE,f,f,NA,NA,NA,6,6,"14,10,4,13,6,15,11,3,5,8,2,7,1,9,12"
14478,commdev-image-keyboard-response,465,1117057,learnblock2,669.0999999046326,img/planet5_right.png,5,Community 2,NA,TRUE,j,j,NA,NA,NA,6,6,"14,10,4,13,6,15,11,3,5,8,2,7,1,9,12"
14478,commdev-image-keyboard-response,466,1118310,learnblock2,603.2000000476837,img/planet11_left.png,11,Community 2,NA,TRUE,f,f,NA,NA,NA,6,6,"14,10,4,13,6,15,11,3,5,8,2,7,1,9,12"
14478,commdev-image-keyboard-response,467,1119564,learnblock2,707.2999999523163,img/planet5_left.png,5,Community 2,NA,TRUE,f,f,NA,NA,NA,6,6,"14,10,4,13,6,15,11,3,5,8,2,7,1,9,12"
14478,commdev-image-keyboard-response,468,1120816,learnblock2,761.0999999046326,img/planet8_left.png,8,Community 2,NA,TRUE,f,f,NA,NA,NA,6,6,"14,10,4,13,6,15,11,3,5,8,2,7,1,9,12"
14478,commdev-image-keyboard-response,469,1122069,learnblock2,604.5,img/planet15_right.png,15,Community 2,NA,TRUE,j,j,NA,NA,NA,6,6,"14,10,4,13,6,15,11,3,5,8,2,7,1,9,12"
14478,commdev-image-keyboard-response,470,1123323,learnblock2,657.3000001907349,img/planet13_left.png,13,Community 1,NA,TRUE,f,f,NA,NA,NA,6,6,"14,10,4,13,6,15,11,3,5,8,2,7,1,9,12"
14478,commdev-image-keyboard-response,471,1124576,learnblock2,623.2000000476837,img/planet15_right.png,15,Community 2,NA,TRUE,j,j,NA,NA,NA,6,6,"14,10,4,13,6,15,11,3,5,8,2,7,1,9,12"
14478,commdev-image-keyboard-response,472,1125828,learnblock2,555.3999998569489,img/planet13_right.png,13,Community 1,NA,TRUE,j,j,NA,NA,NA,6,6,"14,10,4,13,6,15,11,3,5,8,2,7,1,9,12"
14478,commdev-image-keyboard-response,473,1127081,learnblock2,632.7000000476837,img/planet4_left.png,4,Community 1,NA,FALSE,j,f,NA,NA,NA,6,6,"14,10,4,13,6,15,11,3,5,8,2,7,1,9,12"
14478,commdev-image-keyboard-response,474,1128334,learnblock2,762.2000000476837,img/planet13_left.png,13,Community 1,NA,TRUE,f,f,NA,NA,NA,6,6,"14,10,4,13,6,15,11,3,5,8,2,7,1,9,12"
14478,commdev-image-keyboard-response,475,1129587,learnblock2,631.2999999523163,img/planet4_left.png,4,Community 1,NA,TRUE,f,f,NA,NA,NA,6,6,"14,10,4,13,6,15,11,3,5,8,2,7,1,9,12"
14478,commdev-image-keyboard-response,476,1130840,learnblock2,719.9000000953674,img/planet6_right.png,6,Community 1,NA,TRUE,j,j,NA,NA,NA,6,6,"14,10,4,13,6,15,11,3,5,8,2,7,1,9,12"
14478,commdev-image-keyboard-response,477,1132093,learnblock2,671.1000001430511,img/planet10_left.png,10,Community 1,NA,TRUE,f,f,NA,NA,NA,6,6,"14,10,4,13,6,15,11,3,5,8,2,7,1,9,12"
14478,commdev-image-keyboard-response,478,1133346,learnblock2,701.7999999523163,img/planet13_right.png,13,Community 1,NA,TRUE,j,j,NA,NA,NA,6,6,"14,10,4,13,6,15,11,3,5,8,2,7,1,9,12"
14478,commdev-image-keyboard-response,479,1134599,learnblock2,578.4000000953674,img/planet10_left.png,10,Community 1,NA,TRUE,f,f,NA,NA,NA,6,6,"14,10,4,13,6,15,11,3,5,8,2,7,1,9,12"
14478,commdev-image-keyboard-response,480,1135852,learnblock2,596.5,img/planet13_right.png,13,Community 1,NA,TRUE,j,j,NA,NA,NA,6,6,"14,10,4,13,6,15,11,3,5,8,2,7,1,9,12"
14478,commdev-image-keyboard-response,481,1137105,learnblock2,644.5999999046326,img/planet10_right.png,10,Community 1,NA,TRUE,j,j,NA,NA,NA,6,6,"14,10,4,13,6,15,11,3,5,8,2,7,1,9,12"
14478,commdev-image-keyboard-response,482,1138357,learnblock2,676.2000000476837,img/planet4_left.png,4,Community 1,NA,TRUE,f,f,NA,NA,NA,6,6,"14,10,4,13,6,15,11,3,5,8,2,7,1,9,12"
14478,commdev-image-keyboard-response,483,1139610,learnblock2,548.9000000953674,img/planet6_right.png,6,Community 1,NA,TRUE,j,j,NA,NA,NA,6,6,"14,10,4,13,6,15,11,3,5,8,2,7,1,9,12"
14478,commdev-image-keyboard-response,484,1140863,learnblock2,595.5,img/planet14_left.png,14,Community 1,NA,TRUE,f,f,NA,NA,NA,6,6,"14,10,4,13,6,15,11,3,5,8,2,7,1,9,12"
14478,commdev-image-keyboard-response,485,1142116,learnblock2,570,img/planet4_right.png,4,Community 1,NA,TRUE,j,j,NA,NA,NA,6,6,"14,10,4,13,6,15,11,3,5,8,2,7,1,9,12"
14478,commdev-image-keyboard-response,486,1143369,learnblock2,664.4000000953674,img/planet13_right.png,13,Community 1,NA,TRUE,j,j,NA,NA,NA,6,6,"14,10,4,13,6,15,11,3,5,8,2,7,1,9,12"
14478,commdev-image-keyboard-response,487,1144622,learnblock2,709.3999998569489,img/planet14_right.png,14,Community 1,NA,TRUE,j,j,NA,NA,NA,6,6,"14,10,4,13,6,15,11,3,5,8,2,7,1,9,12"
14478,commdev-image-keyboard-response,488,1145876,learnblock2,610.8999998569489,img/planet6_left.png,6,Community 1,NA,TRUE,f,f,NA,NA,NA,6,6,"14,10,4,13,6,15,11,3,5,8,2,7,1,9,12"
14478,commdev-image-keyboard-response,489,1147130,learnblock2,638.8999998569489,img/planet4_right.png,4,Community 1,NA,TRUE,j,j,NA,NA,NA,6,6,"14,10,4,13,6,15,11,3,5,8,2,7,1,9,12"
14478,commdev-image-keyboard-response,490,1148383,learnblock2,558.2999999523163,img/planet10_left.png,10,Community 1,NA,FALSE,j,f,NA,NA,NA,6,6,"14,10,4,13,6,15,11,3,5,8,2,7,1,9,12"
14478,commdev-image-keyboard-response,491,1149635,learnblock2,828.3000001907349,img/planet14_right.png,14,Community 1,NA,TRUE,j,j,NA,NA,NA,6,6,"14,10,4,13,6,15,11,3,5,8,2,7,1,9,12"
14478,commdev-image-keyboard-response,492,1150888,learnblock2,674.7999999523163,img/planet13_right.png,13,Community 1,NA,TRUE,j,j,NA,NA,NA,6,6,"14,10,4,13,6,15,11,3,5,8,2,7,1,9,12"
14478,commdev-image-keyboard-response,493,1152142,learnblock2,755.9000000953674,img/planet14_right.png,14,Community 1,NA,TRUE,j,j,NA,NA,NA,6,6,"14,10,4,13,6,15,11,3,5,8,2,7,1,9,12"
14478,commdev-image-keyboard-response,494,1153394,learnblock2,1010.5999999046326,img/planet13_right.png,13,Community 1,NA,TRUE,j,j,NA,NA,NA,6,6,"14,10,4,13,6,15,11,3,5,8,2,7,1,9,12"
14478,commdev-image-keyboard-response,495,1154648,learnblock2,808.2999999523163,img/planet4_right.png,4,Community 1,NA,TRUE,j,j,NA,NA,NA,6,6,"14,10,4,13,6,15,11,3,5,8,2,7,1,9,12"
14478,commdev-image-keyboard-response,496,1155901,learnblock2,834.6000001430511,img/planet10_left.png,10,Community 1,NA,TRUE,f,f,NA,NA,NA,6,6,"14,10,4,13,6,15,11,3,5,8,2,7,1,9,12"
14478,commdev-image-keyboard-response,497,1157154,learnblock2,708.3999998569489,img/planet14_right.png,14,Community 1,NA,TRUE,j,j,NA,NA,NA,6,6,"14,10,4,13,6,15,11,3,5,8,2,7,1,9,12"
14478,commdev-image-keyboard-response,498,1158407,learnblock2,598.2999999523163,img/planet13_right.png,13,Community 1,NA,TRUE,j,j,NA,NA,NA,6,6,"14,10,4,13,6,15,11,3,5,8,2,7,1,9,12"
14478,commdev-image-keyboard-response,499,1159659,learnblock2,590.3000001907349,img/planet14_right.png,14,Community 1,NA,TRUE,j,j,NA,NA,NA,6,6,"14,10,4,13,6,15,11,3,5,8,2,7,1,9,12"
14478,commdev-image-keyboard-response,500,1160911,learnblock2,445.90000009536743,img/planet13_right.png,13,Community 1,NA,TRUE,j,j,NA,NA,NA,6,6,"14,10,4,13,6,15,11,3,5,8,2,7,1,9,12"
14478,commdev-image-keyboard-response,501,1162164,learnblock2,611.7000000476837,img/planet15_right.png,15,Community 2,NA,FALSE,f,j,NA,NA,NA,6,6,"14,10,4,13,6,15,11,3,5,8,2,7,1,9,12"
14478,commdev-image-keyboard-response,502,1163417,learnblock2,620.3999998569489,img/planet11_left.png,11,Community 2,NA,TRUE,f,f,NA,NA,NA,6,6,"14,10,4,13,6,15,11,3,5,8,2,7,1,9,12"
14478,commdev-image-keyboard-response,503,1164671,learnblock2,571.7000000476837,img/planet3_right.png,3,Community 2,NA,TRUE,j,j,NA,NA,NA,6,6,"14,10,4,13,6,15,11,3,5,8,2,7,1,9,12"
14478,commdev-image-keyboard-response,504,1165924,learnblock2,554.7999999523163,img/planet5_right.png,5,Community 2,NA,TRUE,j,j,NA,NA,NA,6,6,"14,10,4,13,6,15,11,3,5,8,2,7,1,9,12"
14478,commdev-image-keyboard-response,505,1167177,learnblock2,681.6000001430511,img/planet8_left.png,8,Community 2,NA,TRUE,f,f,NA,NA,NA,6,6,"14,10,4,13,6,15,11,3,5,8,2,7,1,9,12"
14478,commdev-image-keyboard-response,506,1168430,learnblock2,729.7000000476837,img/planet5_left.png,5,Community 2,NA,TRUE,f,f,NA,NA,NA,6,6,"14,10,4,13,6,15,11,3,5,8,2,7,1,9,12"
14478,commdev-image-keyboard-response,507,1169683,learnblock2,607.2999999523163,img/planet11_right.png,11,Community 2,NA,TRUE,j,j,NA,NA,NA,6,6,"14,10,4,13,6,15,11,3,5,8,2,7,1,9,12"
14478,commdev-image-keyboard-response,508,1170937,learnblock2,770.1999998092651,img/planet8_right.png,8,Community 2,NA,TRUE,j,j,NA,NA,NA,6,6,"14,10,4,13,6,15,11,3,5,8,2,7,1,9,12"
14478,commdev-image-keyboard-response,509,1172189,learnblock2,682.7000000476837,img/planet11_right.png,11,Community 2,NA,TRUE,j,j,NA,NA,NA,6,6,"14,10,4,13,6,15,11,3,5,8,2,7,1,9,12"
14478,commdev-image-keyboard-response,510,1173443,learnblock2,639.2999999523163,img/planet3_left.png,3,Community 2,NA,TRUE,f,f,NA,NA,NA,6,6,"14,10,4,13,6,15,11,3,5,8,2,7,1,9,12"
14478,commdev-image-keyboard-response,511,1174696,learnblock2,666.2000000476837,img/planet5_right.png,5,Community 2,NA,TRUE,j,j,NA,NA,NA,6,6,"14,10,4,13,6,15,11,3,5,8,2,7,1,9,12"
14478,commdev-image-keyboard-response,512,1175949,learnblock2,705.7999999523163,img/planet11_right.png,11,Community 2,NA,TRUE,j,j,NA,NA,NA,6,6,"14,10,4,13,6,15,11,3,5,8,2,7,1,9,12"
14478,commdev-image-keyboard-response,513,1177202,learnblock2,713.2000000476837,img/planet15_left.png,15,Community 2,NA,TRUE,f,f,NA,NA,NA,6,6,"14,10,4,13,6,15,11,3,5,8,2,7,1,9,12"
14478,commdev-image-keyboard-response,514,1178456,learnblock2,695.2999999523163,img/planet8_left.png,8,Community 2,NA,TRUE,f,f,NA,NA,NA,6,6,"14,10,4,13,6,15,11,3,5,8,2,7,1,9,12"
14478,commdev-image-keyboard-response,515,1179709,learnblock2,655.7000000476837,img/planet15_right.png,15,Community 2,NA,TRUE,j,j,NA,NA,NA,6,6,"14,10,4,13,6,15,11,3,5,8,2,7,1,9,12"
14478,commdev-image-keyboard-response,516,1180962,learnblock2,626.2000000476837,img/planet8_right.png,8,Community 2,NA,TRUE,j,j,NA,NA,NA,6,6,"14,10,4,13,6,15,11,3,5,8,2,7,1,9,12"
14478,commdev-image-keyboard-response,517,1182214,learnblock2,599.2999999523163,img/planet11_left.png,11,Community 2,NA,TRUE,f,f,NA,NA,NA,6,6,"14,10,4,13,6,15,11,3,5,8,2,7,1,9,12"
14478,commdev-image-keyboard-response,518,1183467,learnblock2,522.7000000476837,img/planet15_right.png,15,Community 2,NA,TRUE,j,j,NA,NA,NA,6,6,"14,10,4,13,6,15,11,3,5,8,2,7,1,9,12"
14478,commdev-image-keyboard-response,519,1184721,learnblock2,550,img/planet13_right.png,13,Community 1,NA,TRUE,j,j,NA,NA,NA,6,6,"14,10,4,13,6,15,11,3,5,8,2,7,1,9,12"
14478,commdev-image-keyboard-response,520,1185974,learnblock2,580.2000000476837,img/planet15_left.png,15,Community 2,NA,TRUE,f,f,NA,NA,NA,6,6,"14,10,4,13,6,15,11,3,5,8,2,7,1,9,12"
14478,commdev-image-keyboard-response,521,1187226,learnblock2,579.8999998569489,img/planet11_left.png,11,Community 2,NA,FALSE,j,f,NA,NA,NA,6,6,"14,10,4,13,6,15,11,3,5,8,2,7,1,9,12"
14478,commdev-image-keyboard-response,522,1188479,learnblock2,688.0999999046326,img/planet5_left.png,5,Community 2,NA,TRUE,f,f,NA,NA,NA,6,6,"14,10,4,13,6,15,11,3,5,8,2,7,1,9,12"
14478,commdev-image-keyboard-response,523,1189733,learnblock2,700.2999999523163,img/planet3_right.png,3,Community 2,NA,TRUE,j,j,NA,NA,NA,6,6,"14,10,4,13,6,15,11,3,5,8,2,7,1,9,12"
14478,commdev-image-keyboard-response,524,1190986,learnblock2,675.3999998569489,img/planet7_left.png,7,Community 3,NA,TRUE,f,f,NA,NA,NA,6,6,"14,10,4,13,6,15,11,3,5,8,2,7,1,9,12"
14478,commdev-image-keyboard-response,525,1192237,learnblock2,647.7000000476837,img/planet12_left.png,12,Community 3,NA,TRUE,f,f,NA,NA,NA,6,6,"14,10,4,13,6,15,11,3,5,8,2,7,1,9,12"
14478,commdev-image-keyboard-response,526,1193490,learnblock2,650.3999998569489,img/planet1_left.png,1,Community 3,NA,TRUE,f,f,NA,NA,NA,6,6,"14,10,4,13,6,15,11,3,5,8,2,7,1,9,12"
14478,commdev-image-keyboard-response,527,1194744,learnblock2,579.1000001430511,img/planet2_right.png,2,Community 3,NA,TRUE,j,j,NA,NA,NA,6,6,"14,10,4,13,6,15,11,3,5,8,2,7,1,9,12"
14478,commdev-image-keyboard-response,528,1195997,learnblock2,701.5,img/planet1_left.png,1,Community 3,NA,TRUE,f,f,NA,NA,NA,6,6,"14,10,4,13,6,15,11,3,5,8,2,7,1,9,12"
14478,commdev-image-keyboard-response,529,1197250,learnblock2,589,img/planet12_right.png,12,Community 3,NA,TRUE,j,j,NA,NA,NA,6,6,"14,10,4,13,6,15,11,3,5,8,2,7,1,9,12"
14478,commdev-image-keyboard-response,530,1198503,learnblock2,772,img/planet1_right.png,1,Community 3,NA,TRUE,j,j,NA,NA,NA,6,6,"14,10,4,13,6,15,11,3,5,8,2,7,1,9,12"
14478,commdev-image-keyboard-response,531,1199757,learnblock2,654.2999999523163,img/planet2_right.png,2,Community 3,NA,TRUE,j,j,NA,NA,NA,6,6,"14,10,4,13,6,15,11,3,5,8,2,7,1,9,12"
14478,commdev-image-keyboard-response,532,1201009,learnblock2,652.5999999046326,img/planet1_right.png,1,Community 3,NA,TRUE,j,j,NA,NA,NA,6,6,"14,10,4,13,6,15,11,3,5,8,2,7,1,9,12"
14478,commdev-image-keyboard-response,533,1202262,learnblock2,538.3000001907349,img/planet2_left.png,2,Community 3,NA,TRUE,f,f,NA,NA,NA,6,6,"14,10,4,13,6,15,11,3,5,8,2,7,1,9,12"
14478,commdev-image-keyboard-response,534,1203515,learnblock2,406.5,img/planet1_right.png,1,Community 3,NA,TRUE,j,j,NA,NA,NA,6,6,"14,10,4,13,6,15,11,3,5,8,2,7,1,9,12"
14478,commdev-image-keyboard-response,535,1204769,learnblock2,596.7000000476837,img/planet7_left.png,7,Community 3,NA,TRUE,f,f,NA,NA,NA,6,6,"14,10,4,13,6,15,11,3,5,8,2,7,1,9,12"
14478,commdev-image-keyboard-response,536,1206021,learnblock2,749.5,img/planet9_left.png,9,Community 3,NA,TRUE,f,f,NA,NA,NA,6,6,"14,10,4,13,6,15,11,3,5,8,2,7,1,9,12"
14478,commdev-image-keyboard-response,537,1207274,learnblock2,798.2999999523163,img/planet7_left.png,7,Community 3,NA,TRUE,f,f,NA,NA,NA,6,6,"14,10,4,13,6,15,11,3,5,8,2,7,1,9,12"
14478,commdev-image-keyboard-response,538,1208526,learnblock2,691.1999998092651,img/planet1_left.png,1,Community 3,NA,TRUE,f,f,NA,NA,NA,6,6,"14,10,4,13,6,15,11,3,5,8,2,7,1,9,12"
14478,commdev-image-keyboard-response,539,1209779,learnblock2,934.2000000476837,img/planet7_left.png,7,Community 3,NA,TRUE,f,f,NA,NA,NA,6,6,"14,10,4,13,6,15,11,3,5,8,2,7,1,9,12"
14478,commdev-image-keyboard-response,540,1211032,learnblock2,707.5,img/planet9_left.png,9,Community 3,NA,TRUE,f,f,NA,NA,NA,6,6,"14,10,4,13,6,15,11,3,5,8,2,7,1,9,12"
14478,commdev-image-keyboard-response,541,1212286,learnblock2,671.5999999046326,img/planet2_right.png,2,Community 3,NA,TRUE,j,j,NA,NA,NA,6,6,"14,10,4,13,6,15,11,3,5,8,2,7,1,9,12"
14478,commdev-image-keyboard-response,542,1213538,learnblock2,731.7000000476837,img/planet1_left.png,1,Community 3,NA,TRUE,f,f,NA,NA,NA,6,6,"14,10,4,13,6,15,11,3,5,8,2,7,1,9,12"
14478,commdev-image-keyboard-response,543,1214791,learnblock2,705.2000000476837,img/planet12_right.png,12,Community 3,NA,TRUE,j,j,NA,NA,NA,6,6,"14,10,4,13,6,15,11,3,5,8,2,7,1,9,12"
14478,commdev-image-keyboard-response,544,1216044,learnblock2,738.2000000476837,img/planet2_right.png,2,Community 3,NA,FALSE,f,j,NA,NA,NA,6,6,"14,10,4,13,6,15,11,3,5,8,2,7,1,9,12"
14478,commdev-image-keyboard-response,545,1217297,learnblock2,876.4000000953674,img/planet12_right.png,12,Community 3,NA,TRUE,j,j,NA,NA,NA,6,6,"14,10,4,13,6,15,11,3,5,8,2,7,1,9,12"
14478,commdev-image-keyboard-response,546,1218549,learnblock2,721.5999999046326,img/planet7_left.png,7,Community 3,NA,TRUE,f,f,NA,NA,NA,6,6,"14,10,4,13,6,15,11,3,5,8,2,7,1,9,12"
14478,commdev-image-keyboard-response,547,1219803,learnblock2,685.0999999046326,img/planet3_left.png,3,Community 2,NA,TRUE,f,f,NA,NA,NA,6,6,"14,10,4,13,6,15,11,3,5,8,2,7,1,9,12"
14478,commdev-image-keyboard-response,548,1221056,learnblock2,572.2999999523163,img/planet5_right.png,5,Community 2,NA,TRUE,j,j,NA,NA,NA,6,6,"14,10,4,13,6,15,11,3,5,8,2,7,1,9,12"
14478,commdev-image-keyboard-response,549,1222310,learnblock2,618.1000001430511,img/planet15_left.png,15,Community 2,NA,TRUE,f,f,NA,NA,NA,6,6,"14,10,4,13,6,15,11,3,5,8,2,7,1,9,12"
14478,commdev-image-keyboard-response,550,1223561,learnblock2,546.5,img/planet5_left.png,5,Community 2,NA,FALSE,j,f,NA,NA,NA,6,6,"14,10,4,13,6,15,11,3,5,8,2,7,1,9,12"
14478,commdev-image-keyboard-response,551,1224814,learnblock2,702.2999999523163,img/planet11_left.png,11,Community 2,NA,TRUE,f,f,NA,NA,NA,6,6,"14,10,4,13,6,15,11,3,5,8,2,7,1,9,12"
14478,commdev-image-keyboard-response,552,1226068,learnblock2,540,img/planet3_right.png,3,Community 2,NA,TRUE,j,j,NA,NA,NA,6,6,"14,10,4,13,6,15,11,3,5,8,2,7,1,9,12"
14478,commdev-image-keyboard-response,553,1227321,learnblock2,566.2999999523163,img/planet5_right.png,5,Community 2,NA,TRUE,j,j,NA,NA,NA,6,6,"14,10,4,13,6,15,11,3,5,8,2,7,1,9,12"
14478,commdev-image-keyboard-response,554,1228574,learnblock2,566.2999999523163,img/planet8_right.png,8,Community 2,NA,TRUE,j,j,NA,NA,NA,6,6,"14,10,4,13,6,15,11,3,5,8,2,7,1,9,12"
14478,commdev-image-keyboard-response,555,1229827,learnblock2,542.7999999523163,img/planet15_left.png,15,Community 2,NA,TRUE,f,f,NA,NA,NA,6,6,"14,10,4,13,6,15,11,3,5,8,2,7,1,9,12"
14478,commdev-image-keyboard-response,556,1231080,learnblock2,623.2000000476837,img/planet13_left.png,13,Community 1,NA,TRUE,f,f,NA,NA,NA,6,6,"14,10,4,13,6,15,11,3,5,8,2,7,1,9,12"
14478,commdev-image-keyboard-response,557,1232333,learnblock2,675,img/planet14_left.png,14,Community 1,NA,TRUE,f,f,NA,NA,NA,6,6,"14,10,4,13,6,15,11,3,5,8,2,7,1,9,12"
14478,commdev-image-keyboard-response,558,1233585,learnblock2,661.6999998092651,img/planet13_left.png,13,Community 1,NA,TRUE,f,f,NA,NA,NA,6,6,"14,10,4,13,6,15,11,3,5,8,2,7,1,9,12"
14478,commdev-image-keyboard-response,559,1234838,learnblock2,608.1000001430511,img/planet10_right.png,10,Community 1,NA,TRUE,j,j,NA,NA,NA,6,6,"14,10,4,13,6,15,11,3,5,8,2,7,1,9,12"
14478,commdev-image-keyboard-response,560,1236091,learnblock2,872.4000000953674,img/planet6_left.png,6,Community 1,NA,TRUE,f,f,NA,NA,NA,6,6,"14,10,4,13,6,15,11,3,5,8,2,7,1,9,12"
14478,commdev-image-keyboard-response,561,1237344,learnblock2,733.7000000476837,img/planet2_left.png,2,Community 3,NA,TRUE,f,f,NA,NA,NA,6,6,"14,10,4,13,6,15,11,3,5,8,2,7,1,9,12"
14478,commdev-image-keyboard-response,562,1238597,learnblock2,580.6000001430511,img/planet9_right.png,9,Community 3,NA,TRUE,j,j,NA,NA,NA,6,6,"14,10,4,13,6,15,11,3,5,8,2,7,1,9,12"
14478,commdev-image-keyboard-response,563,1239850,learnblock2,663,img/planet7_left.png,7,Community 3,NA,TRUE,f,f,NA,NA,NA,6,6,"14,10,4,13,6,15,11,3,5,8,2,7,1,9,12"
14478,commdev-image-keyboard-response,564,1241103,learnblock2,605.7000000476837,img/planet1_left.png,1,Community 3,NA,TRUE,f,f,NA,NA,NA,6,6,"14,10,4,13,6,15,11,3,5,8,2,7,1,9,12"
14478,commdev-image-keyboard-response,565,1242356,learnblock2,562,img/planet2_right.png,2,Community 3,NA,TRUE,j,j,NA,NA,NA,6,6,"14,10,4,13,6,15,11,3,5,8,2,7,1,9,12"
14478,commdev-image-keyboard-response,566,1243609,learnblock2,551.5999999046326,img/planet9_left.png,9,Community 3,NA,TRUE,f,f,NA,NA,NA,6,6,"14,10,4,13,6,15,11,3,5,8,2,7,1,9,12"
14478,commdev-image-keyboard-response,567,1244862,learnblock2,629.4000000953674,img/planet1_right.png,1,Community 3,NA,FALSE,f,j,NA,NA,NA,6,6,"14,10,4,13,6,15,11,3,5,8,2,7,1,9,12"
14478,commdev-image-keyboard-response,568,1246115,learnblock2,1059.7000000476837,img/planet12_left.png,12,Community 3,NA,TRUE,f,f,NA,NA,NA,6,6,"14,10,4,13,6,15,11,3,5,8,2,7,1,9,12"
14478,commdev-image-keyboard-response,569,1247367,learnblock2,727.0999999046326,img/planet2_left.png,2,Community 3,NA,TRUE,f,f,NA,NA,NA,6,6,"14,10,4,13,6,15,11,3,5,8,2,7,1,9,12"
14478,commdev-image-keyboard-response,570,1248620,learnblock2,675.2999999523163,img/planet9_left.png,9,Community 3,NA,TRUE,f,f,NA,NA,NA,6,6,"14,10,4,13,6,15,11,3,5,8,2,7,1,9,12"
14478,commdev-image-keyboard-response,571,1249873,learnblock2,654.7999999523163,img/planet12_left.png,12,Community 3,NA,TRUE,f,f,NA,NA,NA,6,6,"14,10,4,13,6,15,11,3,5,8,2,7,1,9,12"
14478,commdev-image-keyboard-response,572,1251127,learnblock2,null,img/planet7_right.png,7,Community 3,NA,FALSE,null,j,NA,NA,NA,6,6,"14,10,4,13,6,15,11,3,5,8,2,7,1,9,12"
14478,commdev-image-keyboard-response,573,1252380,learnblock2,793.7999999523163,img/planet12_right.png,12,Community 3,NA,FALSE,f,j,NA,NA,NA,6,6,"14,10,4,13,6,15,11,3,5,8,2,7,1,9,12"
14478,commdev-image-keyboard-response,574,1253633,learnblock2,744.0999999046326,img/planet9_right.png,9,Community 3,NA,TRUE,j,j,NA,NA,NA,6,6,"14,10,4,13,6,15,11,3,5,8,2,7,1,9,12"
14478,commdev-image-keyboard-response,575,1254887,learnblock2,506.7999999523163,img/planet2_right.png,2,Community 3,NA,TRUE,j,j,NA,NA,NA,6,6,"14,10,4,13,6,15,11,3,5,8,2,7,1,9,12"
14478,commdev-image-keyboard-response,576,1256140,learnblock2,626.1000001430511,img/planet6_right.png,6,Community 1,NA,TRUE,j,j,NA,NA,NA,6,6,"14,10,4,13,6,15,11,3,5,8,2,7,1,9,12"
14478,commdev-image-keyboard-response,577,1257393,learnblock2,783.5999999046326,img/planet14_left.png,14,Community 1,NA,FALSE,j,f,NA,NA,NA,6,6,"14,10,4,13,6,15,11,3,5,8,2,7,1,9,12"
14478,commdev-image-keyboard-response,578,1258647,learnblock2,824.5999999046326,img/planet6_left.png,6,Community 1,NA,TRUE,f,f,NA,NA,NA,6,6,"14,10,4,13,6,15,11,3,5,8,2,7,1,9,12"
14478,commdev-image-keyboard-response,579,1259899,learnblock2,677.3999998569489,img/planet10_left.png,10,Community 1,NA,TRUE,f,f,NA,NA,NA,6,6,"14,10,4,13,6,15,11,3,5,8,2,7,1,9,12"
14478,commdev-image-keyboard-response,580,1261152,learnblock2,632.2000000476837,img/planet6_right.png,6,Community 1,NA,TRUE,j,j,NA,NA,NA,6,6,"14,10,4,13,6,15,11,3,5,8,2,7,1,9,12"
14478,commdev-image-keyboard-response,581,1262405,learnblock2,527.5999999046326,img/planet14_right.png,14,Community 1,NA,TRUE,j,j,NA,NA,NA,6,6,"14,10,4,13,6,15,11,3,5,8,2,7,1,9,12"
14478,commdev-image-keyboard-response,582,1263657,learnblock2,655.3999998569489,img/planet4_left.png,4,Community 1,NA,TRUE,f,f,NA,NA,NA,6,6,"14,10,4,13,6,15,11,3,5,8,2,7,1,9,12"
14478,commdev-image-keyboard-response,583,1264910,learnblock2,602.1000001430511,img/planet6_right.png,6,Community 1,NA,TRUE,j,j,NA,NA,NA,6,6,"14,10,4,13,6,15,11,3,5,8,2,7,1,9,12"
14478,commdev-image-keyboard-response,584,1266163,learnblock2,508.2999999523163,img/planet10_left.png,10,Community 1,NA,TRUE,f,f,NA,NA,NA,6,6,"14,10,4,13,6,15,11,3,5,8,2,7,1,9,12"
