subject_id,trial_type,trial_index,time_elapsed,block,rt,stimulus,planet,community,response,correct,key_press,learning_correct_response,parse,init_locations,final_locations,browser_interactions,num_comp,planet_map
14613,commdev-instructions,7,114386,NA,2239.5,"<p>In this game, you are a scientist on board a space shuttle. </p><p> On each mission, you will visit planets all across the universe.</p><img src=""img/controlroom.jpg"" width=300vw>",NA,NA,NA,NA,NA,NA,NA,NA,NA,3,6,"12,8,3,11,2,10,6,5,14,1,15,9,13,4,7"
14613,commdev-instructions,8,119412,NA,2943.3000000002794,"<p>Here are a few planets you might see:</p><img src=""img/practice1.png"" width=200vw><img src=""img/practice2.png"" width=200vw><img src=""img/practice3.png"" width=200vw>",NA,NA,NA,NA,NA,NA,NA,NA,NA,3,6,"12,8,3,11,2,10,6,5,14,1,15,9,13,4,7"
14613,commdev-instructions,9,128559,NA,1746,"<p>Your job as a scientist is to record which direction the winds are moving on each planet.</p><p>There are two types of wind directions:</p><img src=""img/practice1_left.png"" width=200vw><img src=""img/practice1_right.png"" width=200vw>",NA,NA,NA,NA,NA,NA,NA,NA,NA,3,6,"12,8,3,11,2,10,6,5,14,1,15,9,13,4,7"
14613,commdev-instructions,10,135992,NA,2555.600000000093,"<p>If the winds are moving this way, press the letter <strong>F</strong> on the keyboard as fast as you can.</p><img src=""img/leftwind.png"" width=250vw>",NA,NA,NA,NA,NA,NA,NA,NA,NA,3,6,"12,8,3,11,2,10,6,5,14,1,15,9,13,4,7"
14613,commdev-instructions,11,143085,NA,2598.3000000002794,"<p>If the winds are moving this way, press the letter <strong>J</strong> on the keyboard as fast as you can.</p><img src=""img/rightwind.png"" width=350vw>",NA,NA,NA,NA,NA,NA,NA,NA,NA,3,6,"12,8,3,11,2,10,6,5,14,1,15,9,13,4,7"
14613,commdev-instructions,12,149372,NA,1867.3999999999069,<p>You will have 1 second to respond. Try to respond before the time runs out!,NA,NA,NA,NA,NA,NA,NA,NA,NA,3,6,"12,8,3,11,2,10,6,5,14,1,15,9,13,4,7"
14613,commdev-instructions,13,156411,NA,1608.5999999996275,<p>The planets you will visit will look different from each other.</p><p>You should respond <strong>only</strong> based on wind direction.,NA,NA,NA,NA,NA,NA,NA,NA,NA,3,6,"12,8,3,11,2,10,6,5,14,1,15,9,13,4,7"
14613,commdev-instructions,14,163789,NA,2214.2000000001863,"<p> Ready to start the practice round? </p><p> Remember, press <strong>F</strong> or <strong>J</strong> depending on the wind direction.<br><img src=""img/categorize_planet_example.png""",NA,NA,NA,NA,NA,NA,NA,NA,NA,3,6,"12,8,3,11,2,10,6,5,14,1,15,9,13,4,7"
14613,commdev-instructions,26,220255,NA,3562.100000000093,"<p>Great, now try a short practice mission. </p><p> This time, you will have 1 second to respond and you won't know whether you pressed the right or wrong key for each planet.</p>",NA,NA,NA,NA,NA,NA,NA,NA,NA,3,6,"12,8,3,11,2,10,6,5,14,1,15,9,13,4,7"
14613,commdev-image-keyboard-response,27,221611,practice,null,img/practice2_right.png,NA,Number not found in mappings,NA,FALSE,null,j,NA,NA,NA,3,6,"12,8,3,11,2,10,6,5,14,1,15,9,13,4,7"
14613,commdev-image-keyboard-response,28,222864,practice,726.2000000001863,img/practice3_left.png,NA,Number not found in mappings,NA,FALSE,j,f,NA,NA,NA,3,6,"12,8,3,11,2,10,6,5,14,1,15,9,13,4,7"
14613,commdev-image-keyboard-response,29,224116,practice,728.6000000000931,img/practice4_left.png,NA,Number not found in mappings,NA,TRUE,f,f,NA,NA,NA,3,6,"12,8,3,11,2,10,6,5,14,1,15,9,13,4,7"
14613,commdev-image-keyboard-response,30,225368,practice,964.1999999997206,img/practice2_left.png,NA,Number not found in mappings,NA,FALSE,j,f,NA,NA,NA,3,6,"12,8,3,11,2,10,6,5,14,1,15,9,13,4,7"
14613,commdev-image-keyboard-response,31,226621,practice,778.6000000000931,img/practice1_right.png,NA,Number not found in mappings,NA,TRUE,j,j,NA,NA,NA,3,6,"12,8,3,11,2,10,6,5,14,1,15,9,13,4,7"
14613,commdev-image-keyboard-response,32,227873,practice,725.7999999998137,img/practice4_right.png,NA,Number not found in mappings,NA,TRUE,j,j,NA,NA,NA,3,6,"12,8,3,11,2,10,6,5,14,1,15,9,13,4,7"
14613,commdev-image-keyboard-response,33,229126,practice,686,img/practice3_right.png,NA,Number not found in mappings,NA,FALSE,f,j,NA,NA,NA,3,6,"12,8,3,11,2,10,6,5,14,1,15,9,13,4,7"
14613,commdev-image-keyboard-response,34,230378,practice,691.9000000003725,img/practice4_right.png,NA,Number not found in mappings,NA,TRUE,j,j,NA,NA,NA,3,6,"12,8,3,11,2,10,6,5,14,1,15,9,13,4,7"
14613,commdev-instructions,35,242166,NA,2230.5,"<p>Great job with the practice round.</p><p>During real missions, you won't know whether you pressed the right or wrong key for each planet.</p><p>But between missions, we will tell you how you did overall.</p>",NA,NA,NA,NA,NA,NA,NA,NA,NA,3,6,"12,8,3,11,2,10,6,5,14,1,15,9,13,4,7"
14613,commdev-instructions,36,252017,NA,1607.1000000000931,<p>Try your best! You will be paid a bonus based on how many correct responses you make!</p><p>Responses that are too slow will not count toward your bonus.</p>,NA,NA,NA,NA,NA,NA,NA,NA,NA,3,6,"12,8,3,11,2,10,6,5,14,1,15,9,13,4,7"
14613,commdev-instructions,37,260187,NA,1969.5,"<p>You are almost ready to start the real game.</p><p> First, we are going to ask you some questions about how the game works.</p>",NA,NA,NA,NA,NA,NA,NA,NA,NA,3,6,"12,8,3,11,2,10,6,5,14,1,15,9,13,4,7"
14613,commdev-instructions,46,361387,NA,1931.3999999999069,"<p> Nice work! It is now time to start the real game.<p></p>You will go on two missions to record wind directions of different planets.<p></p>Each one will take about 5 minutes. You will get to take a break between missions.<p><p> Remember, press <strong>F</strong> or <strong>J</strong> depending on the wind direction. Good luck!<br><img src=""img/categorize_planet_example.png""",NA,NA,NA,NA,NA,NA,NA,NA,NA,3,6,"12,8,3,11,2,10,6,5,14,1,15,9,13,4,7"
14613,commdev-image-keyboard-response,48,365709,learnblock1,null,img/planet10_right.png,10,Community 2,NA,FALSE,null,j,NA,NA,NA,3,6,"12,8,3,11,2,10,6,5,14,1,15,9,13,4,7"
14613,commdev-image-keyboard-response,49,366961,learnblock1,119,img/planet11_right.png,11,Community 1,NA,TRUE,j,j,NA,NA,NA,3,6,"12,8,3,11,2,10,6,5,14,1,15,9,13,4,7"
14613,commdev-image-keyboard-response,50,368214,learnblock1,null,img/planet8_left.png,8,Community 1,NA,FALSE,null,f,NA,NA,NA,3,6,"12,8,3,11,2,10,6,5,14,1,15,9,13,4,7"
14613,commdev-image-keyboard-response,51,369465,learnblock1,39.299999999813735,img/planet2_right.png,2,Community 1,NA,FALSE,f,j,NA,NA,NA,3,6,"12,8,3,11,2,10,6,5,14,1,15,9,13,4,7"
14613,commdev-image-keyboard-response,52,370717,learnblock1,1224.2000000001863,img/planet3_left.png,3,Community 1,NA,TRUE,f,f,NA,NA,NA,3,6,"12,8,3,11,2,10,6,5,14,1,15,9,13,4,7"
14613,commdev-image-keyboard-response,53,371969,learnblock1,1201.1999999997206,img/planet12_left.png,12,Community 1,NA,TRUE,f,f,NA,NA,NA,3,6,"12,8,3,11,2,10,6,5,14,1,15,9,13,4,7"
14613,commdev-image-keyboard-response,54,373221,learnblock1,712.2000000001863,img/planet11_right.png,11,Community 1,NA,TRUE,j,j,NA,NA,NA,3,6,"12,8,3,11,2,10,6,5,14,1,15,9,13,4,7"
14613,commdev-image-keyboard-response,55,374473,learnblock1,872.2000000001863,img/planet3_left.png,3,Community 1,NA,TRUE,f,f,NA,NA,NA,3,6,"12,8,3,11,2,10,6,5,14,1,15,9,13,4,7"
14613,commdev-image-keyboard-response,56,375725,learnblock1,737.5,img/planet2_right.png,2,Community 1,NA,TRUE,j,j,NA,NA,NA,3,6,"12,8,3,11,2,10,6,5,14,1,15,9,13,4,7"
14613,commdev-image-keyboard-response,57,376978,learnblock1,null,img/planet8_right.png,8,Community 1,NA,FALSE,null,j,NA,NA,NA,3,6,"12,8,3,11,2,10,6,5,14,1,15,9,13,4,7"
14613,commdev-image-keyboard-response,58,378230,learnblock1,340.5,img/planet12_left.png,12,Community 1,NA,TRUE,f,f,NA,NA,NA,3,6,"12,8,3,11,2,10,6,5,14,1,15,9,13,4,7"
14613,commdev-image-keyboard-response,59,379482,learnblock1,744.1999999997206,img/planet11_left.png,11,Community 1,NA,TRUE,f,f,NA,NA,NA,3,6,"12,8,3,11,2,10,6,5,14,1,15,9,13,4,7"
14613,commdev-image-keyboard-response,60,380734,learnblock1,664.6000000000931,img/planet10_right.png,10,Community 2,NA,TRUE,j,j,NA,NA,NA,3,6,"12,8,3,11,2,10,6,5,14,1,15,9,13,4,7"
14613,commdev-image-keyboard-response,61,381987,learnblock1,692.7999999998137,img/planet1_right.png,1,Community 2,NA,TRUE,j,j,NA,NA,NA,3,6,"12,8,3,11,2,10,6,5,14,1,15,9,13,4,7"
14613,commdev-image-keyboard-response,62,383239,learnblock1,968.5,img/planet6_right.png,6,Community 2,NA,FALSE,f,j,NA,NA,NA,3,6,"12,8,3,11,2,10,6,5,14,1,15,9,13,4,7"
14613,commdev-image-keyboard-response,63,384491,learnblock1,1100.3999999999069,img/planet10_left.png,10,Community 2,NA,TRUE,f,f,NA,NA,NA,3,6,"12,8,3,11,2,10,6,5,14,1,15,9,13,4,7"
14613,commdev-image-keyboard-response,64,385743,learnblock1,923.6000000000931,img/planet14_left.png,14,Community 2,NA,TRUE,f,f,NA,NA,NA,3,6,"12,8,3,11,2,10,6,5,14,1,15,9,13,4,7"
14613,commdev-image-keyboard-response,65,386996,learnblock1,898.3999999999069,img/planet5_right.png,5,Community 2,NA,TRUE,j,j,NA,NA,NA,3,6,"12,8,3,11,2,10,6,5,14,1,15,9,13,4,7"
14613,commdev-image-keyboard-response,66,388249,learnblock1,728.2999999998137,img/planet14_left.png,14,Community 2,NA,TRUE,f,f,NA,NA,NA,3,6,"12,8,3,11,2,10,6,5,14,1,15,9,13,4,7"
14613,commdev-image-keyboard-response,67,389501,learnblock1,642.3999999999069,img/planet5_right.png,5,Community 2,NA,TRUE,j,j,NA,NA,NA,3,6,"12,8,3,11,2,10,6,5,14,1,15,9,13,4,7"
14613,commdev-image-keyboard-response,68,390754,learnblock1,731.2000000001863,img/planet6_left.png,6,Community 2,NA,TRUE,f,f,NA,NA,NA,3,6,"12,8,3,11,2,10,6,5,14,1,15,9,13,4,7"
14613,commdev-image-keyboard-response,69,392006,learnblock1,655.8999999999069,img/planet5_right.png,5,Community 2,NA,TRUE,j,j,NA,NA,NA,3,6,"12,8,3,11,2,10,6,5,14,1,15,9,13,4,7"
14613,commdev-image-keyboard-response,70,393258,learnblock1,534.0999999996275,img/planet1_right.png,1,Community 2,NA,TRUE,j,j,NA,NA,NA,3,6,"12,8,3,11,2,10,6,5,14,1,15,9,13,4,7"
14613,commdev-image-keyboard-response,71,394510,learnblock1,998.3999999999069,img/planet5_left.png,5,Community 2,NA,TRUE,f,f,NA,NA,NA,3,6,"12,8,3,11,2,10,6,5,14,1,15,9,13,4,7"
14613,commdev-image-keyboard-response,72,395762,learnblock1,865,img/planet1_right.png,1,Community 2,NA,TRUE,j,j,NA,NA,NA,3,6,"12,8,3,11,2,10,6,5,14,1,15,9,13,4,7"
14613,commdev-image-keyboard-response,73,397014,learnblock1,1207,img/planet5_right.png,5,Community 2,NA,TRUE,j,j,NA,NA,NA,3,6,"12,8,3,11,2,10,6,5,14,1,15,9,13,4,7"
14613,commdev-image-keyboard-response,74,398266,learnblock1,833.8000000002794,img/planet1_left.png,1,Community 2,NA,TRUE,f,f,NA,NA,NA,3,6,"12,8,3,11,2,10,6,5,14,1,15,9,13,4,7"
14613,commdev-image-keyboard-response,75,399519,learnblock1,null,img/planet5_left.png,5,Community 2,NA,FALSE,null,f,NA,NA,NA,3,6,"12,8,3,11,2,10,6,5,14,1,15,9,13,4,7"
14613,commdev-image-keyboard-response,76,400771,learnblock1,14.600000000093132,img/planet9_left.png,9,Community 3,NA,TRUE,f,f,NA,NA,NA,3,6,"12,8,3,11,2,10,6,5,14,1,15,9,13,4,7"
14613,commdev-image-keyboard-response,77,402023,learnblock1,1189,img/planet5_left.png,5,Community 2,NA,TRUE,f,f,NA,NA,NA,3,6,"12,8,3,11,2,10,6,5,14,1,15,9,13,4,7"
14613,commdev-image-keyboard-response,78,403275,learnblock1,1033.9000000003725,img/planet6_left.png,6,Community 2,NA,TRUE,f,f,NA,NA,NA,3,6,"12,8,3,11,2,10,6,5,14,1,15,9,13,4,7"
14613,commdev-image-keyboard-response,79,404527,learnblock1,null,img/planet5_left.png,5,Community 2,NA,FALSE,null,f,NA,NA,NA,3,6,"12,8,3,11,2,10,6,5,14,1,15,9,13,4,7"
14613,commdev-image-keyboard-response,80,405779,learnblock1,108.60000000009313,img/planet6_right.png,6,Community 2,NA,FALSE,f,j,NA,NA,NA,3,6,"12,8,3,11,2,10,6,5,14,1,15,9,13,4,7"
14613,commdev-image-keyboard-response,81,407031,learnblock1,707,img/planet5_left.png,5,Community 2,NA,TRUE,f,f,NA,NA,NA,3,6,"12,8,3,11,2,10,6,5,14,1,15,9,13,4,7"
14613,commdev-image-keyboard-response,82,408283,learnblock1,null,img/planet14_left.png,14,Community 2,NA,FALSE,null,f,NA,NA,NA,3,6,"12,8,3,11,2,10,6,5,14,1,15,9,13,4,7"
14613,commdev-image-keyboard-response,83,409535,learnblock1,999.1000000000931,img/planet10_left.png,10,Community 2,NA,TRUE,f,f,NA,NA,NA,3,6,"12,8,3,11,2,10,6,5,14,1,15,9,13,4,7"
14613,commdev-image-keyboard-response,84,410787,learnblock1,null,img/planet14_left.png,14,Community 2,NA,FALSE,null,f,NA,NA,NA,3,6,"12,8,3,11,2,10,6,5,14,1,15,9,13,4,7"
14613,commdev-image-keyboard-response,85,412040,learnblock1,37.39999999990687,img/planet10_right.png,10,Community 2,NA,FALSE,f,j,NA,NA,NA,3,6,"12,8,3,11,2,10,6,5,14,1,15,9,13,4,7"
14613,commdev-image-keyboard-response,86,413292,learnblock1,786,img/planet14_right.png,14,Community 2,NA,TRUE,j,j,NA,NA,NA,3,6,"12,8,3,11,2,10,6,5,14,1,15,9,13,4,7"
14613,commdev-image-keyboard-response,87,414544,learnblock1,650.3999999999069,img/planet10_left.png,10,Community 2,NA,TRUE,f,f,NA,NA,NA,3,6,"12,8,3,11,2,10,6,5,14,1,15,9,13,4,7"
14613,commdev-image-keyboard-response,88,415796,learnblock1,599.2000000001863,img/planet1_right.png,1,Community 2,NA,TRUE,j,j,NA,NA,NA,3,6,"12,8,3,11,2,10,6,5,14,1,15,9,13,4,7"
14613,commdev-image-keyboard-response,89,417048,learnblock1,1114.5999999996275,img/planet5_right.png,5,Community 2,NA,TRUE,j,j,NA,NA,NA,3,6,"12,8,3,11,2,10,6,5,14,1,15,9,13,4,7"
14613,commdev-image-keyboard-response,90,418301,learnblock1,1243.7999999998137,img/planet1_right.png,1,Community 2,NA,FALSE,f,j,NA,NA,NA,3,6,"12,8,3,11,2,10,6,5,14,1,15,9,13,4,7"
14613,commdev-image-keyboard-response,91,419554,learnblock1,52.09999999962747,img/planet6_left.png,6,Community 2,NA,FALSE,j,f,NA,NA,NA,3,6,"12,8,3,11,2,10,6,5,14,1,15,9,13,4,7"
14613,commdev-image-keyboard-response,92,420806,learnblock1,922.5,img/planet5_left.png,5,Community 2,NA,TRUE,f,f,NA,NA,NA,3,6,"12,8,3,11,2,10,6,5,14,1,15,9,13,4,7"
14613,commdev-image-keyboard-response,93,422058,learnblock1,888,img/planet14_left.png,14,Community 2,NA,TRUE,f,f,NA,NA,NA,3,6,"12,8,3,11,2,10,6,5,14,1,15,9,13,4,7"
14613,commdev-image-keyboard-response,94,423310,learnblock1,564.6000000000931,img/planet1_left.png,1,Community 2,NA,TRUE,f,f,NA,NA,NA,3,6,"12,8,3,11,2,10,6,5,14,1,15,9,13,4,7"
14613,commdev-image-keyboard-response,95,424562,learnblock1,647.5,img/planet10_left.png,10,Community 2,NA,TRUE,f,f,NA,NA,NA,3,6,"12,8,3,11,2,10,6,5,14,1,15,9,13,4,7"
14613,commdev-image-keyboard-response,96,425814,learnblock1,909.3999999999069,img/planet14_left.png,14,Community 2,NA,TRUE,f,f,NA,NA,NA,3,6,"12,8,3,11,2,10,6,5,14,1,15,9,13,4,7"
14613,commdev-image-keyboard-response,97,427067,learnblock1,1041.6000000000931,img/planet5_left.png,5,Community 2,NA,TRUE,f,f,NA,NA,NA,3,6,"12,8,3,11,2,10,6,5,14,1,15,9,13,4,7"
14613,commdev-image-keyboard-response,98,428319,learnblock1,619.7000000001863,img/planet14_right.png,14,Community 2,NA,TRUE,j,j,NA,NA,NA,3,6,"12,8,3,11,2,10,6,5,14,1,15,9,13,4,7"
14613,commdev-image-keyboard-response,99,429571,learnblock1,1017.7000000001863,img/planet6_right.png,6,Community 2,NA,TRUE,j,j,NA,NA,NA,3,6,"12,8,3,11,2,10,6,5,14,1,15,9,13,4,7"
14613,commdev-image-keyboard-response,100,430822,learnblock1,939,img/planet5_left.png,5,Community 2,NA,TRUE,f,f,NA,NA,NA,3,6,"12,8,3,11,2,10,6,5,14,1,15,9,13,4,7"
14613,commdev-image-keyboard-response,101,432074,learnblock1,847.9000000003725,img/planet9_left.png,9,Community 3,NA,TRUE,f,f,NA,NA,NA,3,6,"12,8,3,11,2,10,6,5,14,1,15,9,13,4,7"
14613,commdev-image-keyboard-response,102,433326,learnblock1,627.1999999997206,img/planet5_right.png,5,Community 2,NA,TRUE,j,j,NA,NA,NA,3,6,"12,8,3,11,2,10,6,5,14,1,15,9,13,4,7"
14613,commdev-image-keyboard-response,103,434578,learnblock1,1178.3000000002794,img/planet6_right.png,6,Community 2,NA,TRUE,j,j,NA,NA,NA,3,6,"12,8,3,11,2,10,6,5,14,1,15,9,13,4,7"
14613,commdev-image-keyboard-response,104,435829,learnblock1,800.1999999997206,img/planet5_left.png,5,Community 2,NA,TRUE,f,f,NA,NA,NA,3,6,"12,8,3,11,2,10,6,5,14,1,15,9,13,4,7"
14613,commdev-image-keyboard-response,105,437082,learnblock1,780.6000000000931,img/planet9_right.png,9,Community 3,NA,TRUE,j,j,NA,NA,NA,3,6,"12,8,3,11,2,10,6,5,14,1,15,9,13,4,7"
14613,commdev-image-keyboard-response,106,438334,learnblock1,708.2999999998137,img/planet7_left.png,7,Community 3,NA,TRUE,f,f,NA,NA,NA,3,6,"12,8,3,11,2,10,6,5,14,1,15,9,13,4,7"
14613,commdev-image-keyboard-response,107,439586,learnblock1,695,img/planet4_left.png,4,Community 3,NA,TRUE,f,f,NA,NA,NA,3,6,"12,8,3,11,2,10,6,5,14,1,15,9,13,4,7"
14613,commdev-image-keyboard-response,108,440838,learnblock1,680.2999999998137,img/planet13_right.png,13,Community 3,NA,TRUE,j,j,NA,NA,NA,3,6,"12,8,3,11,2,10,6,5,14,1,15,9,13,4,7"
14613,commdev-image-keyboard-response,109,442090,learnblock1,587.3999999999069,img/planet4_left.png,4,Community 3,NA,TRUE,f,f,NA,NA,NA,3,6,"12,8,3,11,2,10,6,5,14,1,15,9,13,4,7"
14613,commdev-image-keyboard-response,110,443342,learnblock1,535.5,img/planet15_right.png,15,Community 3,NA,TRUE,j,j,NA,NA,NA,3,6,"12,8,3,11,2,10,6,5,14,1,15,9,13,4,7"
14613,commdev-image-keyboard-response,111,444594,learnblock1,710.8999999999069,img/planet7_left.png,7,Community 3,NA,TRUE,f,f,NA,NA,NA,3,6,"12,8,3,11,2,10,6,5,14,1,15,9,13,4,7"
14613,commdev-image-keyboard-response,112,445846,learnblock1,708.1000000000931,img/planet13_left.png,13,Community 3,NA,TRUE,f,f,NA,NA,NA,3,6,"12,8,3,11,2,10,6,5,14,1,15,9,13,4,7"
14613,commdev-image-keyboard-response,113,447098,learnblock1,702.5,img/planet7_left.png,7,Community 3,NA,TRUE,f,f,NA,NA,NA,3,6,"12,8,3,11,2,10,6,5,14,1,15,9,13,4,7"
14613,commdev-image-keyboard-response,114,448350,learnblock1,599.5,img/planet15_right.png,15,Community 3,NA,TRUE,j,j,NA,NA,NA,3,6,"12,8,3,11,2,10,6,5,14,1,15,9,13,4,7"
14613,commdev-image-keyboard-response,115,449601,learnblock1,571.1999999997206,img/planet2_left.png,2,Community 1,NA,TRUE,f,f,NA,NA,NA,3,6,"12,8,3,11,2,10,6,5,14,1,15,9,13,4,7"
14613,commdev-image-keyboard-response,116,450854,learnblock1,783.3999999999069,img/planet12_left.png,12,Community 1,NA,TRUE,f,f,NA,NA,NA,3,6,"12,8,3,11,2,10,6,5,14,1,15,9,13,4,7"
14613,commdev-image-keyboard-response,117,452106,learnblock1,739.0999999996275,img/planet8_left.png,8,Community 1,NA,TRUE,f,f,NA,NA,NA,3,6,"12,8,3,11,2,10,6,5,14,1,15,9,13,4,7"
14613,commdev-image-keyboard-response,118,453358,learnblock1,576.1999999997206,img/planet12_left.png,12,Community 1,NA,TRUE,f,f,NA,NA,NA,3,6,"12,8,3,11,2,10,6,5,14,1,15,9,13,4,7"
14613,commdev-image-keyboard-response,119,454610,learnblock1,568.8000000002794,img/planet11_left.png,11,Community 1,NA,TRUE,f,f,NA,NA,NA,3,6,"12,8,3,11,2,10,6,5,14,1,15,9,13,4,7"
14613,commdev-image-keyboard-response,120,455862,learnblock1,472.5,img/planet10_right.png,10,Community 2,NA,TRUE,j,j,NA,NA,NA,3,6,"12,8,3,11,2,10,6,5,14,1,15,9,13,4,7"
14613,commdev-image-keyboard-response,121,457114,learnblock1,755.3000000002794,img/planet6_right.png,6,Community 2,NA,TRUE,j,j,NA,NA,NA,3,6,"12,8,3,11,2,10,6,5,14,1,15,9,13,4,7"
14613,commdev-image-keyboard-response,122,458366,learnblock1,667.8000000002794,img/planet5_right.png,5,Community 2,NA,TRUE,j,j,NA,NA,NA,3,6,"12,8,3,11,2,10,6,5,14,1,15,9,13,4,7"
14613,commdev-image-keyboard-response,123,459618,learnblock1,838.2999999998137,img/planet9_right.png,9,Community 3,NA,TRUE,j,j,NA,NA,NA,3,6,"12,8,3,11,2,10,6,5,14,1,15,9,13,4,7"
14613,commdev-image-keyboard-response,124,460871,learnblock1,571.5,img/planet5_right.png,5,Community 2,NA,TRUE,j,j,NA,NA,NA,3,6,"12,8,3,11,2,10,6,5,14,1,15,9,13,4,7"
14613,commdev-image-keyboard-response,125,462123,learnblock1,853.9000000003725,img/planet6_left.png,6,Community 2,NA,TRUE,f,f,NA,NA,NA,3,6,"12,8,3,11,2,10,6,5,14,1,15,9,13,4,7"
14613,commdev-image-keyboard-response,126,463375,learnblock1,689.1999999997206,img/planet14_left.png,14,Community 2,NA,TRUE,f,f,NA,NA,NA,3,6,"12,8,3,11,2,10,6,5,14,1,15,9,13,4,7"
14613,commdev-image-keyboard-response,127,464627,learnblock1,555.3000000002794,img/planet1_left.png,1,Community 2,NA,TRUE,f,f,NA,NA,NA,3,6,"12,8,3,11,2,10,6,5,14,1,15,9,13,4,7"
14613,commdev-image-keyboard-response,128,465879,learnblock1,604.6999999997206,img/planet5_right.png,5,Community 2,NA,TRUE,j,j,NA,NA,NA,3,6,"12,8,3,11,2,10,6,5,14,1,15,9,13,4,7"
14613,commdev-image-keyboard-response,129,467131,learnblock1,608.6000000000931,img/planet1_left.png,1,Community 2,NA,TRUE,f,f,NA,NA,NA,3,6,"12,8,3,11,2,10,6,5,14,1,15,9,13,4,7"
14613,commdev-image-keyboard-response,130,468383,learnblock1,508.6999999997206,img/planet10_left.png,10,Community 2,NA,TRUE,f,f,NA,NA,NA,3,6,"12,8,3,11,2,10,6,5,14,1,15,9,13,4,7"
14613,commdev-image-keyboard-response,131,469635,learnblock1,857.8000000002794,img/planet6_right.png,6,Community 2,NA,TRUE,j,j,NA,NA,NA,3,6,"12,8,3,11,2,10,6,5,14,1,15,9,13,4,7"
14613,commdev-image-keyboard-response,132,470887,learnblock1,652.2000000001863,img/planet10_right.png,10,Community 2,NA,TRUE,j,j,NA,NA,NA,3,6,"12,8,3,11,2,10,6,5,14,1,15,9,13,4,7"
14613,commdev-image-keyboard-response,133,472138,learnblock1,555.5999999996275,img/planet1_left.png,1,Community 2,NA,TRUE,f,f,NA,NA,NA,3,6,"12,8,3,11,2,10,6,5,14,1,15,9,13,4,7"
14613,commdev-image-keyboard-response,134,473391,learnblock1,886.7000000001863,img/planet6_left.png,6,Community 2,NA,TRUE,f,f,NA,NA,NA,3,6,"12,8,3,11,2,10,6,5,14,1,15,9,13,4,7"
14613,commdev-image-keyboard-response,135,474643,learnblock1,509.10000000009313,img/planet10_right.png,10,Community 2,NA,TRUE,j,j,NA,NA,NA,3,6,"12,8,3,11,2,10,6,5,14,1,15,9,13,4,7"
14613,commdev-image-keyboard-response,136,475895,learnblock1,1023.7000000001863,img/planet14_right.png,14,Community 2,NA,TRUE,j,j,NA,NA,NA,3,6,"12,8,3,11,2,10,6,5,14,1,15,9,13,4,7"
14613,commdev-image-keyboard-response,137,477146,learnblock1,925.8999999999069,img/planet6_right.png,6,Community 2,NA,TRUE,j,j,NA,NA,NA,3,6,"12,8,3,11,2,10,6,5,14,1,15,9,13,4,7"
14613,commdev-image-keyboard-response,138,478399,learnblock1,866.3999999999069,img/planet5_left.png,5,Community 2,NA,TRUE,f,f,NA,NA,NA,3,6,"12,8,3,11,2,10,6,5,14,1,15,9,13,4,7"
14613,commdev-image-keyboard-response,139,479651,learnblock1,751.2999999998137,img/planet9_right.png,9,Community 3,NA,TRUE,j,j,NA,NA,NA,3,6,"12,8,3,11,2,10,6,5,14,1,15,9,13,4,7"
14613,commdev-image-keyboard-response,140,480903,learnblock1,829.1000000000931,img/planet5_right.png,5,Community 2,NA,TRUE,j,j,NA,NA,NA,3,6,"12,8,3,11,2,10,6,5,14,1,15,9,13,4,7"
14613,commdev-image-keyboard-response,141,482155,learnblock1,896.1000000000931,img/planet14_right.png,14,Community 2,NA,TRUE,j,j,NA,NA,NA,3,6,"12,8,3,11,2,10,6,5,14,1,15,9,13,4,7"
14613,commdev-image-keyboard-response,142,483407,learnblock1,788.7999999998137,img/planet5_left.png,5,Community 2,NA,TRUE,f,f,NA,NA,NA,3,6,"12,8,3,11,2,10,6,5,14,1,15,9,13,4,7"
14613,commdev-image-keyboard-response,143,484659,learnblock1,858.7999999998137,img/planet14_left.png,14,Community 2,NA,TRUE,f,f,NA,NA,NA,3,6,"12,8,3,11,2,10,6,5,14,1,15,9,13,4,7"
14613,commdev-image-keyboard-response,144,485911,learnblock1,555.8999999999069,img/planet10_right.png,10,Community 2,NA,TRUE,j,j,NA,NA,NA,3,6,"12,8,3,11,2,10,6,5,14,1,15,9,13,4,7"
14613,commdev-image-keyboard-response,145,487163,learnblock1,612.4000000003725,img/planet1_right.png,1,Community 2,NA,TRUE,j,j,NA,NA,NA,3,6,"12,8,3,11,2,10,6,5,14,1,15,9,13,4,7"
14613,commdev-image-keyboard-response,146,488415,learnblock1,787.3000000002794,img/planet5_right.png,5,Community 2,NA,TRUE,j,j,NA,NA,NA,3,6,"12,8,3,11,2,10,6,5,14,1,15,9,13,4,7"
14613,commdev-image-keyboard-response,147,489668,learnblock1,750.7999999998137,img/planet9_right.png,9,Community 3,NA,TRUE,j,j,NA,NA,NA,3,6,"12,8,3,11,2,10,6,5,14,1,15,9,13,4,7"
14613,commdev-image-keyboard-response,148,490920,learnblock1,780,img/planet4_right.png,4,Community 3,NA,TRUE,j,j,NA,NA,NA,3,6,"12,8,3,11,2,10,6,5,14,1,15,9,13,4,7"
14613,commdev-image-keyboard-response,149,492172,learnblock1,614.5,img/planet13_right.png,13,Community 3,NA,TRUE,j,j,NA,NA,NA,3,6,"12,8,3,11,2,10,6,5,14,1,15,9,13,4,7"
14613,commdev-image-keyboard-response,150,493424,learnblock1,728.3999999999069,img/planet15_right.png,15,Community 3,NA,TRUE,j,j,NA,NA,NA,3,6,"12,8,3,11,2,10,6,5,14,1,15,9,13,4,7"
14613,commdev-image-keyboard-response,151,494676,learnblock1,666.4000000003725,img/planet13_left.png,13,Community 3,NA,TRUE,f,f,NA,NA,NA,3,6,"12,8,3,11,2,10,6,5,14,1,15,9,13,4,7"
14613,commdev-image-keyboard-response,152,495928,learnblock1,773.3999999999069,img/planet4_left.png,4,Community 3,NA,TRUE,f,f,NA,NA,NA,3,6,"12,8,3,11,2,10,6,5,14,1,15,9,13,4,7"
14613,commdev-image-keyboard-response,153,497180,learnblock1,529.1000000000931,img/planet13_left.png,13,Community 3,NA,TRUE,f,f,NA,NA,NA,3,6,"12,8,3,11,2,10,6,5,14,1,15,9,13,4,7"
14613,commdev-image-keyboard-response,154,498433,learnblock1,656.6999999997206,img/planet15_left.png,15,Community 3,NA,TRUE,f,f,NA,NA,NA,3,6,"12,8,3,11,2,10,6,5,14,1,15,9,13,4,7"
14613,commdev-image-keyboard-response,155,499684,learnblock1,558.6999999997206,img/planet2_left.png,2,Community 1,NA,TRUE,f,f,NA,NA,NA,3,6,"12,8,3,11,2,10,6,5,14,1,15,9,13,4,7"
14613,commdev-image-keyboard-response,156,500937,learnblock1,651,img/planet12_left.png,12,Community 1,NA,TRUE,f,f,NA,NA,NA,3,6,"12,8,3,11,2,10,6,5,14,1,15,9,13,4,7"
14613,commdev-image-keyboard-response,157,502189,learnblock1,630.7000000001863,img/planet8_left.png,8,Community 1,NA,TRUE,f,f,NA,NA,NA,3,6,"12,8,3,11,2,10,6,5,14,1,15,9,13,4,7"
14613,commdev-image-keyboard-response,158,503441,learnblock1,468.29999999981374,img/planet2_right.png,2,Community 1,NA,FALSE,f,j,NA,NA,NA,3,6,"12,8,3,11,2,10,6,5,14,1,15,9,13,4,7"
14613,commdev-image-keyboard-response,159,504693,learnblock1,950.7000000001863,img/planet8_right.png,8,Community 1,NA,TRUE,j,j,NA,NA,NA,3,6,"12,8,3,11,2,10,6,5,14,1,15,9,13,4,7"
14613,commdev-image-keyboard-response,160,505945,learnblock1,1060.1000000000931,img/planet12_right.png,12,Community 1,NA,TRUE,j,j,NA,NA,NA,3,6,"12,8,3,11,2,10,6,5,14,1,15,9,13,4,7"
14613,commdev-image-keyboard-response,161,507197,learnblock1,790.7999999998137,img/planet8_right.png,8,Community 1,NA,TRUE,j,j,NA,NA,NA,3,6,"12,8,3,11,2,10,6,5,14,1,15,9,13,4,7"
14613,commdev-image-keyboard-response,162,508449,learnblock1,658.2000000001863,img/planet11_right.png,11,Community 1,NA,TRUE,j,j,NA,NA,NA,3,6,"12,8,3,11,2,10,6,5,14,1,15,9,13,4,7"
14613,commdev-image-keyboard-response,163,509701,learnblock1,795.6999999997206,img/planet8_left.png,8,Community 1,NA,TRUE,f,f,NA,NA,NA,3,6,"12,8,3,11,2,10,6,5,14,1,15,9,13,4,7"
14613,commdev-image-keyboard-response,164,510953,learnblock1,596.3999999999069,img/planet3_right.png,3,Community 1,NA,TRUE,j,j,NA,NA,NA,3,6,"12,8,3,11,2,10,6,5,14,1,15,9,13,4,7"
14613,commdev-image-keyboard-response,165,512205,learnblock1,763.7999999998137,img/planet12_left.png,12,Community 1,NA,TRUE,f,f,NA,NA,NA,3,6,"12,8,3,11,2,10,6,5,14,1,15,9,13,4,7"
14613,commdev-image-keyboard-response,166,513458,learnblock1,549.2999999998137,img/planet8_right.png,8,Community 1,NA,TRUE,j,j,NA,NA,NA,3,6,"12,8,3,11,2,10,6,5,14,1,15,9,13,4,7"
14613,commdev-image-keyboard-response,167,514710,learnblock1,678.1999999997206,img/planet3_left.png,3,Community 1,NA,TRUE,f,f,NA,NA,NA,3,6,"12,8,3,11,2,10,6,5,14,1,15,9,13,4,7"
14613,commdev-image-keyboard-response,168,515962,learnblock1,465.60000000009313,img/planet12_right.png,12,Community 1,NA,TRUE,j,j,NA,NA,NA,3,6,"12,8,3,11,2,10,6,5,14,1,15,9,13,4,7"
14613,commdev-image-keyboard-response,169,517214,learnblock1,549.3999999999069,img/planet3_left.png,3,Community 1,NA,TRUE,f,f,NA,NA,NA,3,6,"12,8,3,11,2,10,6,5,14,1,15,9,13,4,7"
14613,commdev-image-keyboard-response,170,518466,learnblock1,649.6000000000931,img/planet8_left.png,8,Community 1,NA,TRUE,f,f,NA,NA,NA,3,6,"12,8,3,11,2,10,6,5,14,1,15,9,13,4,7"
14613,commdev-image-keyboard-response,171,519718,learnblock1,514.2999999998137,img/planet11_right.png,11,Community 1,NA,TRUE,j,j,NA,NA,NA,3,6,"12,8,3,11,2,10,6,5,14,1,15,9,13,4,7"
14613,commdev-image-keyboard-response,172,520970,learnblock1,563.8000000002794,img/planet10_left.png,10,Community 2,NA,TRUE,f,f,NA,NA,NA,3,6,"12,8,3,11,2,10,6,5,14,1,15,9,13,4,7"
14613,commdev-image-keyboard-response,173,522222,learnblock1,530.4000000003725,img/planet11_right.png,11,Community 1,NA,TRUE,j,j,NA,NA,NA,3,6,"12,8,3,11,2,10,6,5,14,1,15,9,13,4,7"
14613,commdev-image-keyboard-response,174,523475,learnblock1,605.2000000001863,img/planet12_right.png,12,Community 1,NA,TRUE,j,j,NA,NA,NA,3,6,"12,8,3,11,2,10,6,5,14,1,15,9,13,4,7"
14613,commdev-image-keyboard-response,175,524727,learnblock1,553.6000000000931,img/planet3_left.png,3,Community 1,NA,TRUE,f,f,NA,NA,NA,3,6,"12,8,3,11,2,10,6,5,14,1,15,9,13,4,7"
14613,commdev-image-keyboard-response,176,525979,learnblock1,649.3000000002794,img/planet8_left.png,8,Community 1,NA,TRUE,f,f,NA,NA,NA,3,6,"12,8,3,11,2,10,6,5,14,1,15,9,13,4,7"
14613,commdev-image-keyboard-response,177,527231,learnblock1,577.1000000000931,img/planet2_left.png,2,Community 1,NA,TRUE,f,f,NA,NA,NA,3,6,"12,8,3,11,2,10,6,5,14,1,15,9,13,4,7"
14613,commdev-image-keyboard-response,178,528483,learnblock1,606.7999999998137,img/planet8_right.png,8,Community 1,NA,TRUE,j,j,NA,NA,NA,3,6,"12,8,3,11,2,10,6,5,14,1,15,9,13,4,7"
14613,commdev-image-keyboard-response,179,529735,learnblock1,875.5,img/planet2_left.png,2,Community 1,NA,TRUE,f,f,NA,NA,NA,3,6,"12,8,3,11,2,10,6,5,14,1,15,9,13,4,7"
14613,commdev-image-keyboard-response,180,530987,learnblock1,721.5,img/planet8_right.png,8,Community 1,NA,TRUE,j,j,NA,NA,NA,3,6,"12,8,3,11,2,10,6,5,14,1,15,9,13,4,7"
14613,commdev-image-keyboard-response,181,532239,learnblock1,623,img/planet11_right.png,11,Community 1,NA,TRUE,j,j,NA,NA,NA,3,6,"12,8,3,11,2,10,6,5,14,1,15,9,13,4,7"
14613,commdev-image-keyboard-response,182,533491,learnblock1,564.1000000000931,img/planet10_left.png,10,Community 2,NA,TRUE,f,f,NA,NA,NA,3,6,"12,8,3,11,2,10,6,5,14,1,15,9,13,4,7"
14613,commdev-image-keyboard-response,183,534743,learnblock1,120.20000000018626,img/planet1_left.png,1,Community 2,NA,FALSE,j,f,NA,NA,NA,3,6,"12,8,3,11,2,10,6,5,14,1,15,9,13,4,7"
14613,commdev-image-keyboard-response,184,535996,learnblock1,691,img/planet14_right.png,14,Community 2,NA,TRUE,j,j,NA,NA,NA,3,6,"12,8,3,11,2,10,6,5,14,1,15,9,13,4,7"
14613,commdev-image-keyboard-response,185,537247,learnblock1,644.5,img/planet1_left.png,1,Community 2,NA,TRUE,f,f,NA,NA,NA,3,6,"12,8,3,11,2,10,6,5,14,1,15,9,13,4,7"
14613,commdev-image-keyboard-response,186,538499,learnblock1,534.3999999999069,img/planet10_left.png,10,Community 2,NA,TRUE,f,f,NA,NA,NA,3,6,"12,8,3,11,2,10,6,5,14,1,15,9,13,4,7"
14613,commdev-image-keyboard-response,187,539751,learnblock1,877.7000000001863,img/planet14_left.png,14,Community 2,NA,TRUE,f,f,NA,NA,NA,3,6,"12,8,3,11,2,10,6,5,14,1,15,9,13,4,7"
14613,commdev-image-keyboard-response,188,541003,learnblock1,934.7999999998137,img/planet5_left.png,5,Community 2,NA,TRUE,f,f,NA,NA,NA,3,6,"12,8,3,11,2,10,6,5,14,1,15,9,13,4,7"
14613,commdev-image-keyboard-response,189,542256,learnblock1,643.1000000000931,img/planet1_left.png,1,Community 2,NA,TRUE,f,f,NA,NA,NA,3,6,"12,8,3,11,2,10,6,5,14,1,15,9,13,4,7"
14613,commdev-image-keyboard-response,190,543508,learnblock1,686.8999999999069,img/planet5_right.png,5,Community 2,NA,TRUE,j,j,NA,NA,NA,3,6,"12,8,3,11,2,10,6,5,14,1,15,9,13,4,7"
14613,commdev-image-keyboard-response,191,544760,learnblock1,882.1999999997206,img/planet9_right.png,9,Community 3,NA,TRUE,j,j,NA,NA,NA,3,6,"12,8,3,11,2,10,6,5,14,1,15,9,13,4,7"
14613,commdev-image-keyboard-response,192,546012,learnblock1,796.3000000002794,img/planet13_right.png,13,Community 3,NA,TRUE,j,j,NA,NA,NA,3,6,"12,8,3,11,2,10,6,5,14,1,15,9,13,4,7"
14613,commdev-image-keyboard-response,193,547264,learnblock1,790.9000000003725,img/planet7_right.png,7,Community 3,NA,TRUE,j,j,NA,NA,NA,3,6,"12,8,3,11,2,10,6,5,14,1,15,9,13,4,7"
14613,commdev-image-keyboard-response,194,548516,learnblock1,653.5,img/planet9_left.png,9,Community 3,NA,TRUE,f,f,NA,NA,NA,3,6,"12,8,3,11,2,10,6,5,14,1,15,9,13,4,7"
14613,commdev-image-keyboard-response,195,549768,learnblock1,642.8999999999069,img/planet4_left.png,4,Community 3,NA,TRUE,f,f,NA,NA,NA,3,6,"12,8,3,11,2,10,6,5,14,1,15,9,13,4,7"
14613,commdev-image-keyboard-response,196,551019,learnblock1,679.1999999997206,img/planet15_right.png,15,Community 3,NA,TRUE,j,j,NA,NA,NA,3,6,"12,8,3,11,2,10,6,5,14,1,15,9,13,4,7"
14613,commdev-image-keyboard-response,197,552271,learnblock1,812.2000000001863,img/planet13_right.png,13,Community 3,NA,TRUE,j,j,NA,NA,NA,3,6,"12,8,3,11,2,10,6,5,14,1,15,9,13,4,7"
14613,commdev-image-keyboard-response,198,553524,learnblock1,647.7999999998137,img/planet9_left.png,9,Community 3,NA,TRUE,f,f,NA,NA,NA,3,6,"12,8,3,11,2,10,6,5,14,1,15,9,13,4,7"
14613,commdev-image-keyboard-response,199,554776,learnblock1,595.0999999996275,img/planet13_left.png,13,Community 3,NA,TRUE,f,f,NA,NA,NA,3,6,"12,8,3,11,2,10,6,5,14,1,15,9,13,4,7"
14613,commdev-image-keyboard-response,200,556028,learnblock1,543.4000000003725,img/planet4_right.png,4,Community 3,NA,TRUE,j,j,NA,NA,NA,3,6,"12,8,3,11,2,10,6,5,14,1,15,9,13,4,7"
14613,commdev-image-keyboard-response,201,557280,learnblock1,552.1000000000931,img/planet9_left.png,9,Community 3,NA,TRUE,f,f,NA,NA,NA,3,6,"12,8,3,11,2,10,6,5,14,1,15,9,13,4,7"
14613,commdev-image-keyboard-response,202,558533,learnblock1,782.1999999997206,img/planet5_left.png,5,Community 2,NA,TRUE,f,f,NA,NA,NA,3,6,"12,8,3,11,2,10,6,5,14,1,15,9,13,4,7"
14613,commdev-image-keyboard-response,203,559785,learnblock1,603.1999999997206,img/planet1_left.png,1,Community 2,NA,TRUE,f,f,NA,NA,NA,3,6,"12,8,3,11,2,10,6,5,14,1,15,9,13,4,7"
14613,commdev-image-keyboard-response,204,561037,learnblock1,569.8000000002794,img/planet10_left.png,10,Community 2,NA,TRUE,f,f,NA,NA,NA,3,6,"12,8,3,11,2,10,6,5,14,1,15,9,13,4,7"
14613,commdev-image-keyboard-response,205,562289,learnblock1,878.6000000000931,img/planet6_left.png,6,Community 2,NA,TRUE,f,f,NA,NA,NA,3,6,"12,8,3,11,2,10,6,5,14,1,15,9,13,4,7"
14613,commdev-image-keyboard-response,206,563541,learnblock1,667.5,img/planet10_right.png,10,Community 2,NA,TRUE,j,j,NA,NA,NA,3,6,"12,8,3,11,2,10,6,5,14,1,15,9,13,4,7"
14613,commdev-image-keyboard-response,207,564793,learnblock1,849.2999999998137,img/planet6_right.png,6,Community 2,NA,TRUE,j,j,NA,NA,NA,3,6,"12,8,3,11,2,10,6,5,14,1,15,9,13,4,7"
14613,commdev-image-keyboard-response,208,566045,learnblock1,627.3999999999069,img/planet1_right.png,1,Community 2,NA,TRUE,j,j,NA,NA,NA,3,6,"12,8,3,11,2,10,6,5,14,1,15,9,13,4,7"
14613,commdev-image-keyboard-response,209,567297,learnblock1,652.3999999999069,img/planet10_left.png,10,Community 2,NA,TRUE,f,f,NA,NA,NA,3,6,"12,8,3,11,2,10,6,5,14,1,15,9,13,4,7"
14613,commdev-image-keyboard-response,210,568549,learnblock1,588.8999999999069,img/planet11_right.png,11,Community 1,NA,TRUE,j,j,NA,NA,NA,3,6,"12,8,3,11,2,10,6,5,14,1,15,9,13,4,7"
14613,commdev-image-keyboard-response,211,569801,learnblock1,747.5999999996275,img/planet3_right.png,3,Community 1,NA,TRUE,j,j,NA,NA,NA,3,6,"12,8,3,11,2,10,6,5,14,1,15,9,13,4,7"
14613,commdev-image-keyboard-response,212,571053,learnblock1,543.1999999997206,img/planet2_left.png,2,Community 1,NA,TRUE,f,f,NA,NA,NA,3,6,"12,8,3,11,2,10,6,5,14,1,15,9,13,4,7"
14613,commdev-image-keyboard-response,213,572305,learnblock1,796.0999999996275,img/planet12_right.png,12,Community 1,NA,TRUE,j,j,NA,NA,NA,3,6,"12,8,3,11,2,10,6,5,14,1,15,9,13,4,7"
14613,commdev-image-keyboard-response,214,573557,learnblock1,665.5,img/planet11_left.png,11,Community 1,NA,TRUE,f,f,NA,NA,NA,3,6,"12,8,3,11,2,10,6,5,14,1,15,9,13,4,7"
14613,commdev-image-keyboard-response,215,574809,learnblock1,745.0999999996275,img/planet8_left.png,8,Community 1,NA,TRUE,f,f,NA,NA,NA,3,6,"12,8,3,11,2,10,6,5,14,1,15,9,13,4,7"
14613,commdev-image-keyboard-response,216,576061,learnblock1,536.8999999999069,img/planet2_left.png,2,Community 1,NA,TRUE,f,f,NA,NA,NA,3,6,"12,8,3,11,2,10,6,5,14,1,15,9,13,4,7"
14613,commdev-image-keyboard-response,217,577313,learnblock1,656,img/planet12_left.png,12,Community 1,NA,TRUE,f,f,NA,NA,NA,3,6,"12,8,3,11,2,10,6,5,14,1,15,9,13,4,7"
14613,commdev-image-keyboard-response,218,578565,learnblock1,736.2999999998137,img/planet8_right.png,8,Community 1,NA,TRUE,j,j,NA,NA,NA,3,6,"12,8,3,11,2,10,6,5,14,1,15,9,13,4,7"
14613,commdev-image-keyboard-response,219,579818,learnblock1,746.1000000000931,img/planet12_left.png,12,Community 1,NA,TRUE,f,f,NA,NA,NA,3,6,"12,8,3,11,2,10,6,5,14,1,15,9,13,4,7"
14613,commdev-image-keyboard-response,220,581070,learnblock1,573.6000000000931,img/planet2_left.png,2,Community 1,NA,TRUE,f,f,NA,NA,NA,3,6,"12,8,3,11,2,10,6,5,14,1,15,9,13,4,7"
14613,commdev-image-keyboard-response,221,582322,learnblock1,786.1000000000931,img/planet8_left.png,8,Community 1,NA,TRUE,f,f,NA,NA,NA,3,6,"12,8,3,11,2,10,6,5,14,1,15,9,13,4,7"
14613,commdev-image-keyboard-response,222,583574,learnblock1,759.6999999997206,img/planet12_right.png,12,Community 1,NA,TRUE,j,j,NA,NA,NA,3,6,"12,8,3,11,2,10,6,5,14,1,15,9,13,4,7"
14613,commdev-image-keyboard-response,223,584826,learnblock1,840.1000000000931,img/planet8_left.png,8,Community 1,NA,TRUE,f,f,NA,NA,NA,3,6,"12,8,3,11,2,10,6,5,14,1,15,9,13,4,7"
14613,commdev-image-keyboard-response,224,586078,learnblock1,712.2000000001863,img/planet12_right.png,12,Community 1,NA,TRUE,j,j,NA,NA,NA,3,6,"12,8,3,11,2,10,6,5,14,1,15,9,13,4,7"
14613,commdev-image-keyboard-response,225,587330,learnblock1,960.6000000000931,img/planet11_right.png,11,Community 1,NA,TRUE,j,j,NA,NA,NA,3,6,"12,8,3,11,2,10,6,5,14,1,15,9,13,4,7"
14613,commdev-image-keyboard-response,226,588582,learnblock1,722,img/planet8_left.png,8,Community 1,NA,TRUE,f,f,NA,NA,NA,3,6,"12,8,3,11,2,10,6,5,14,1,15,9,13,4,7"
14613,commdev-image-keyboard-response,227,589834,learnblock1,623.0999999996275,img/planet3_right.png,3,Community 1,NA,TRUE,j,j,NA,NA,NA,3,6,"12,8,3,11,2,10,6,5,14,1,15,9,13,4,7"
14613,commdev-image-keyboard-response,228,591086,learnblock1,771.2999999998137,img/planet12_right.png,12,Community 1,NA,TRUE,j,j,NA,NA,NA,3,6,"12,8,3,11,2,10,6,5,14,1,15,9,13,4,7"
14613,commdev-image-keyboard-response,229,592338,learnblock1,676.6000000000931,img/planet3_left.png,3,Community 1,NA,TRUE,f,f,NA,NA,NA,3,6,"12,8,3,11,2,10,6,5,14,1,15,9,13,4,7"
14613,commdev-image-keyboard-response,230,593590,learnblock1,616.5,img/planet8_right.png,8,Community 1,NA,TRUE,j,j,NA,NA,NA,3,6,"12,8,3,11,2,10,6,5,14,1,15,9,13,4,7"
14613,commdev-image-keyboard-response,231,594842,learnblock1,666.3999999999069,img/planet3_left.png,3,Community 1,NA,TRUE,f,f,NA,NA,NA,3,6,"12,8,3,11,2,10,6,5,14,1,15,9,13,4,7"
14613,commdev-image-keyboard-response,232,596094,learnblock1,667.3999999999069,img/planet8_left.png,8,Community 1,NA,TRUE,f,f,NA,NA,NA,3,6,"12,8,3,11,2,10,6,5,14,1,15,9,13,4,7"
14613,commdev-image-keyboard-response,233,597346,learnblock1,612.7000000001863,img/planet11_right.png,11,Community 1,NA,TRUE,j,j,NA,NA,NA,3,6,"12,8,3,11,2,10,6,5,14,1,15,9,13,4,7"
14613,commdev-image-keyboard-response,234,598598,learnblock1,616.5,img/planet8_left.png,8,Community 1,NA,TRUE,f,f,NA,NA,NA,3,6,"12,8,3,11,2,10,6,5,14,1,15,9,13,4,7"
14613,commdev-image-keyboard-response,235,599850,learnblock1,617.5,img/planet11_right.png,11,Community 1,NA,TRUE,j,j,NA,NA,NA,3,6,"12,8,3,11,2,10,6,5,14,1,15,9,13,4,7"
14613,commdev-image-keyboard-response,236,601102,learnblock1,536.5999999996275,img/planet10_right.png,10,Community 2,NA,TRUE,j,j,NA,NA,NA,3,6,"12,8,3,11,2,10,6,5,14,1,15,9,13,4,7"
14613,commdev-image-keyboard-response,237,602354,learnblock1,859.8000000002794,img/planet6_right.png,6,Community 2,NA,TRUE,j,j,NA,NA,NA,3,6,"12,8,3,11,2,10,6,5,14,1,15,9,13,4,7"
14613,commdev-image-keyboard-response,238,603606,learnblock1,792.2000000001863,img/planet5_right.png,5,Community 2,NA,TRUE,j,j,NA,NA,NA,3,6,"12,8,3,11,2,10,6,5,14,1,15,9,13,4,7"
14613,commdev-image-keyboard-response,239,604858,learnblock1,835.3000000002794,img/planet1_right.png,1,Community 2,NA,TRUE,j,j,NA,NA,NA,3,6,"12,8,3,11,2,10,6,5,14,1,15,9,13,4,7"
14613,commdev-image-keyboard-response,240,606110,learnblock1,636.5,img/planet14_left.png,14,Community 2,NA,TRUE,f,f,NA,NA,NA,3,6,"12,8,3,11,2,10,6,5,14,1,15,9,13,4,7"
14613,commdev-image-keyboard-response,241,607362,learnblock1,685.2000000001863,img/planet10_right.png,10,Community 2,NA,TRUE,j,j,NA,NA,NA,3,6,"12,8,3,11,2,10,6,5,14,1,15,9,13,4,7"
14613,commdev-image-keyboard-response,242,608615,learnblock1,735.6999999997206,img/planet6_right.png,6,Community 2,NA,TRUE,j,j,NA,NA,NA,3,6,"12,8,3,11,2,10,6,5,14,1,15,9,13,4,7"
14613,commdev-image-keyboard-response,243,609866,learnblock1,591,img/planet5_right.png,5,Community 2,NA,TRUE,j,j,NA,NA,NA,3,6,"12,8,3,11,2,10,6,5,14,1,15,9,13,4,7"
14613,commdev-image-keyboard-response,244,611118,learnblock1,760.3999999999069,img/planet9_left.png,9,Community 3,NA,TRUE,f,f,NA,NA,NA,3,6,"12,8,3,11,2,10,6,5,14,1,15,9,13,4,7"
14613,commdev-image-keyboard-response,245,612371,learnblock1,877.3999999999069,img/planet7_left.png,7,Community 3,NA,TRUE,f,f,NA,NA,NA,3,6,"12,8,3,11,2,10,6,5,14,1,15,9,13,4,7"
14613,commdev-image-keyboard-response,246,613623,learnblock1,639,img/planet9_right.png,9,Community 3,NA,TRUE,j,j,NA,NA,NA,3,6,"12,8,3,11,2,10,6,5,14,1,15,9,13,4,7"
14613,commdev-image-keyboard-response,247,614876,learnblock1,667.3999999999069,img/planet4_left.png,4,Community 3,NA,TRUE,f,f,NA,NA,NA,3,6,"12,8,3,11,2,10,6,5,14,1,15,9,13,4,7"
14613,commdev-image-keyboard-response,248,616128,learnblock1,719.8000000002794,img/planet15_right.png,15,Community 3,NA,TRUE,j,j,NA,NA,NA,3,6,"12,8,3,11,2,10,6,5,14,1,15,9,13,4,7"
14613,commdev-image-keyboard-response,249,617381,learnblock1,708.6000000000931,img/planet7_left.png,7,Community 3,NA,TRUE,f,f,NA,NA,NA,3,6,"12,8,3,11,2,10,6,5,14,1,15,9,13,4,7"
14613,commdev-image-keyboard-response,250,618633,learnblock1,805.5,img/planet4_right.png,4,Community 3,NA,TRUE,j,j,NA,NA,NA,3,6,"12,8,3,11,2,10,6,5,14,1,15,9,13,4,7"
14613,commdev-image-keyboard-response,251,619885,learnblock1,674.1000000000931,img/planet15_left.png,15,Community 3,NA,TRUE,f,f,NA,NA,NA,3,6,"12,8,3,11,2,10,6,5,14,1,15,9,13,4,7"
14613,commdev-image-keyboard-response,252,621137,learnblock1,652.7999999998137,img/planet2_left.png,2,Community 1,NA,TRUE,f,f,NA,NA,NA,3,6,"12,8,3,11,2,10,6,5,14,1,15,9,13,4,7"
14613,commdev-image-keyboard-response,253,622389,learnblock1,671.5,img/planet12_left.png,12,Community 1,NA,TRUE,f,f,NA,NA,NA,3,6,"12,8,3,11,2,10,6,5,14,1,15,9,13,4,7"
14613,commdev-image-keyboard-response,254,623641,learnblock1,750.2999999998137,img/planet3_left.png,3,Community 1,NA,TRUE,f,f,NA,NA,NA,3,6,"12,8,3,11,2,10,6,5,14,1,15,9,13,4,7"
14613,commdev-image-keyboard-response,255,624893,learnblock1,632.7000000001863,img/planet11_left.png,11,Community 1,NA,TRUE,f,f,NA,NA,NA,3,6,"12,8,3,11,2,10,6,5,14,1,15,9,13,4,7"
14613,commdev-image-keyboard-response,256,626145,learnblock1,530.3999999999069,img/planet12_left.png,12,Community 1,NA,TRUE,f,f,NA,NA,NA,3,6,"12,8,3,11,2,10,6,5,14,1,15,9,13,4,7"
14613,commdev-image-keyboard-response,257,627397,learnblock1,588,img/planet2_right.png,2,Community 1,NA,TRUE,j,j,NA,NA,NA,3,6,"12,8,3,11,2,10,6,5,14,1,15,9,13,4,7"
14613,commdev-image-keyboard-response,258,628650,learnblock1,647.7000000001863,img/planet3_right.png,3,Community 1,NA,TRUE,j,j,NA,NA,NA,3,6,"12,8,3,11,2,10,6,5,14,1,15,9,13,4,7"
14613,commdev-image-keyboard-response,259,629902,learnblock1,482.09999999962747,img/planet2_right.png,2,Community 1,NA,TRUE,j,j,NA,NA,NA,3,6,"12,8,3,11,2,10,6,5,14,1,15,9,13,4,7"
14613,commdev-image-keyboard-response,260,631154,learnblock1,662.5999999996275,img/planet8_left.png,8,Community 1,NA,TRUE,f,f,NA,NA,NA,3,6,"12,8,3,11,2,10,6,5,14,1,15,9,13,4,7"
14613,commdev-image-keyboard-response,261,632407,learnblock1,616.1000000000931,img/planet11_right.png,11,Community 1,NA,TRUE,j,j,NA,NA,NA,3,6,"12,8,3,11,2,10,6,5,14,1,15,9,13,4,7"
14613,commdev-image-keyboard-response,262,633660,learnblock1,664.1999999997206,img/planet8_right.png,8,Community 1,NA,TRUE,j,j,NA,NA,NA,3,6,"12,8,3,11,2,10,6,5,14,1,15,9,13,4,7"
14613,commdev-image-keyboard-response,263,634913,learnblock1,656.0999999996275,img/planet3_left.png,3,Community 1,NA,TRUE,f,f,NA,NA,NA,3,6,"12,8,3,11,2,10,6,5,14,1,15,9,13,4,7"
14613,commdev-image-keyboard-response,264,636165,learnblock1,669,img/planet2_right.png,2,Community 1,NA,TRUE,j,j,NA,NA,NA,3,6,"12,8,3,11,2,10,6,5,14,1,15,9,13,4,7"
14613,commdev-image-keyboard-response,265,637417,learnblock1,627.1000000000931,img/planet3_left.png,3,Community 1,NA,TRUE,f,f,NA,NA,NA,3,6,"12,8,3,11,2,10,6,5,14,1,15,9,13,4,7"
14613,commdev-image-keyboard-response,266,638669,learnblock1,539.3999999999069,img/planet8_right.png,8,Community 1,NA,TRUE,j,j,NA,NA,NA,3,6,"12,8,3,11,2,10,6,5,14,1,15,9,13,4,7"
14613,commdev-image-keyboard-response,267,639921,learnblock1,551.6999999997206,img/planet12_right.png,12,Community 1,NA,TRUE,j,j,NA,NA,NA,3,6,"12,8,3,11,2,10,6,5,14,1,15,9,13,4,7"
14613,commdev-image-keyboard-response,268,641173,learnblock1,1120.2000000001863,img/planet3_right.png,3,Community 1,NA,TRUE,j,j,NA,NA,NA,3,6,"12,8,3,11,2,10,6,5,14,1,15,9,13,4,7"
14613,commdev-image-keyboard-response,269,642425,learnblock1,731.3999999999069,img/planet2_right.png,2,Community 1,NA,TRUE,j,j,NA,NA,NA,3,6,"12,8,3,11,2,10,6,5,14,1,15,9,13,4,7"
14613,commdev-image-keyboard-response,270,643677,learnblock1,575.4000000003725,img/planet12_left.png,12,Community 1,NA,TRUE,f,f,NA,NA,NA,3,6,"12,8,3,11,2,10,6,5,14,1,15,9,13,4,7"
14613,commdev-image-keyboard-response,271,644929,learnblock1,618,img/planet11_right.png,11,Community 1,NA,TRUE,j,j,NA,NA,NA,3,6,"12,8,3,11,2,10,6,5,14,1,15,9,13,4,7"
14613,commdev-image-keyboard-response,272,646182,learnblock1,684.5,img/planet3_right.png,3,Community 1,NA,TRUE,j,j,NA,NA,NA,3,6,"12,8,3,11,2,10,6,5,14,1,15,9,13,4,7"
14613,commdev-image-keyboard-response,273,647434,learnblock1,663.2000000001863,img/planet11_right.png,11,Community 1,NA,TRUE,j,j,NA,NA,NA,3,6,"12,8,3,11,2,10,6,5,14,1,15,9,13,4,7"
14613,commdev-image-keyboard-response,274,648686,learnblock1,678.8000000002794,img/planet12_left.png,12,Community 1,NA,TRUE,f,f,NA,NA,NA,3,6,"12,8,3,11,2,10,6,5,14,1,15,9,13,4,7"
14613,commdev-image-keyboard-response,275,649939,learnblock1,576.6000000000931,img/planet2_right.png,2,Community 1,NA,TRUE,j,j,NA,NA,NA,3,6,"12,8,3,11,2,10,6,5,14,1,15,9,13,4,7"
14613,commdev-image-keyboard-response,276,651191,learnblock1,809.9000000003725,img/planet3_right.png,3,Community 1,NA,TRUE,j,j,NA,NA,NA,3,6,"12,8,3,11,2,10,6,5,14,1,15,9,13,4,7"
14613,commdev-image-keyboard-response,277,652443,learnblock1,728,img/planet8_right.png,8,Community 1,NA,TRUE,j,j,NA,NA,NA,3,6,"12,8,3,11,2,10,6,5,14,1,15,9,13,4,7"
14613,commdev-image-keyboard-response,278,653695,learnblock1,559.6000000000931,img/planet2_right.png,2,Community 1,NA,TRUE,j,j,NA,NA,NA,3,6,"12,8,3,11,2,10,6,5,14,1,15,9,13,4,7"
14613,commdev-image-keyboard-response,279,654948,learnblock1,879.5999999996275,img/planet8_right.png,8,Community 1,NA,TRUE,j,j,NA,NA,NA,3,6,"12,8,3,11,2,10,6,5,14,1,15,9,13,4,7"
14613,commdev-image-keyboard-response,280,656200,learnblock1,689.6000000000931,img/planet12_right.png,12,Community 1,NA,TRUE,j,j,NA,NA,NA,3,6,"12,8,3,11,2,10,6,5,14,1,15,9,13,4,7"
14613,commdev-image-keyboard-response,281,657452,learnblock1,954.3000000002794,img/planet3_right.png,3,Community 1,NA,TRUE,j,j,NA,NA,NA,3,6,"12,8,3,11,2,10,6,5,14,1,15,9,13,4,7"
14613,commdev-image-keyboard-response,282,658704,learnblock1,986.2999999998137,img/planet8_right.png,8,Community 1,NA,TRUE,j,j,NA,NA,NA,3,6,"12,8,3,11,2,10,6,5,14,1,15,9,13,4,7"
14613,commdev-image-keyboard-response,283,659956,learnblock1,650.3000000002794,img/planet2_left.png,2,Community 1,NA,TRUE,f,f,NA,NA,NA,3,6,"12,8,3,11,2,10,6,5,14,1,15,9,13,4,7"
14613,commdev-image-keyboard-response,284,661208,learnblock1,806.0999999996275,img/planet8_left.png,8,Community 1,NA,TRUE,f,f,NA,NA,NA,3,6,"12,8,3,11,2,10,6,5,14,1,15,9,13,4,7"
14613,commdev-image-keyboard-response,285,662462,learnblock1,859.5,img/planet12_left.png,12,Community 1,NA,TRUE,f,f,NA,NA,NA,3,6,"12,8,3,11,2,10,6,5,14,1,15,9,13,4,7"
14613,commdev-image-keyboard-response,286,663714,learnblock1,579.8000000002794,img/planet3_right.png,3,Community 1,NA,TRUE,j,j,NA,NA,NA,3,6,"12,8,3,11,2,10,6,5,14,1,15,9,13,4,7"
14613,commdev-image-keyboard-response,287,664966,learnblock1,669.6000000000931,img/planet2_left.png,2,Community 1,NA,TRUE,f,f,NA,NA,NA,3,6,"12,8,3,11,2,10,6,5,14,1,15,9,13,4,7"
14613,commdev-image-keyboard-response,288,666218,learnblock1,602.5,img/planet3_left.png,3,Community 1,NA,TRUE,f,f,NA,NA,NA,3,6,"12,8,3,11,2,10,6,5,14,1,15,9,13,4,7"
14613,commdev-image-keyboard-response,289,667470,learnblock1,548.1000000000931,img/planet11_left.png,11,Community 1,NA,TRUE,f,f,NA,NA,NA,3,6,"12,8,3,11,2,10,6,5,14,1,15,9,13,4,7"
14613,commdev-image-keyboard-response,290,668722,learnblock1,990.6999999997206,img/planet8_right.png,8,Community 1,NA,TRUE,j,j,NA,NA,NA,3,6,"12,8,3,11,2,10,6,5,14,1,15,9,13,4,7"
14613,commdev-image-keyboard-response,291,669974,learnblock1,685.1000000000931,img/planet12_left.png,12,Community 1,NA,TRUE,f,f,NA,NA,NA,3,6,"12,8,3,11,2,10,6,5,14,1,15,9,13,4,7"
14613,commdev-image-keyboard-response,292,671226,learnblock1,506.20000000018626,img/planet11_right.png,11,Community 1,NA,TRUE,j,j,NA,NA,NA,3,6,"12,8,3,11,2,10,6,5,14,1,15,9,13,4,7"
14613,commdev-image-keyboard-response,293,672478,learnblock1,642.2000000001863,img/planet8_left.png,8,Community 1,NA,TRUE,f,f,NA,NA,NA,3,6,"12,8,3,11,2,10,6,5,14,1,15,9,13,4,7"
14613,commdev-image-keyboard-response,294,673730,learnblock1,652.7999999998137,img/planet3_left.png,3,Community 1,NA,TRUE,f,f,NA,NA,NA,3,6,"12,8,3,11,2,10,6,5,14,1,15,9,13,4,7"
14613,commdev-image-keyboard-response,295,674982,learnblock1,552.1000000000931,img/planet8_right.png,8,Community 1,NA,TRUE,j,j,NA,NA,NA,3,6,"12,8,3,11,2,10,6,5,14,1,15,9,13,4,7"
14613,commdev-image-keyboard-response,296,676235,learnblock1,595.5999999996275,img/planet12_left.png,12,Community 1,NA,TRUE,f,f,NA,NA,NA,3,6,"12,8,3,11,2,10,6,5,14,1,15,9,13,4,7"
14613,commdev-image-keyboard-response,297,677488,learnblock1,669.3000000002794,img/planet8_left.png,8,Community 1,NA,TRUE,f,f,NA,NA,NA,3,6,"12,8,3,11,2,10,6,5,14,1,15,9,13,4,7"
14613,commdev-image-keyboard-response,298,678741,learnblock1,556,img/planet2_right.png,2,Community 1,NA,TRUE,j,j,NA,NA,NA,3,6,"12,8,3,11,2,10,6,5,14,1,15,9,13,4,7"
14613,commdev-image-keyboard-response,299,679993,learnblock1,627.5,img/planet15_left.png,15,Community 3,NA,TRUE,f,f,NA,NA,NA,3,6,"12,8,3,11,2,10,6,5,14,1,15,9,13,4,7"
14613,commdev-image-keyboard-response,300,681245,learnblock1,472.39999999990687,img/planet2_left.png,2,Community 1,NA,TRUE,f,f,NA,NA,NA,3,6,"12,8,3,11,2,10,6,5,14,1,15,9,13,4,7"
14613,commdev-image-keyboard-response,301,682497,learnblock1,522,img/planet12_right.png,12,Community 1,NA,TRUE,j,j,NA,NA,NA,3,6,"12,8,3,11,2,10,6,5,14,1,15,9,13,4,7"
14613,commdev-image-keyboard-response,302,683749,learnblock1,668,img/planet8_right.png,8,Community 1,NA,TRUE,j,j,NA,NA,NA,3,6,"12,8,3,11,2,10,6,5,14,1,15,9,13,4,7"
14613,commdev-image-keyboard-response,303,685001,learnblock1,617.6000000000931,img/planet11_left.png,11,Community 1,NA,TRUE,f,f,NA,NA,NA,3,6,"12,8,3,11,2,10,6,5,14,1,15,9,13,4,7"
14613,commdev-image-keyboard-response,304,686253,learnblock1,563.5,img/planet10_left.png,10,Community 2,NA,TRUE,f,f,NA,NA,NA,3,6,"12,8,3,11,2,10,6,5,14,1,15,9,13,4,7"
14613,commdev-image-keyboard-response,305,687506,learnblock1,582,img/planet11_right.png,11,Community 1,NA,TRUE,j,j,NA,NA,NA,3,6,"12,8,3,11,2,10,6,5,14,1,15,9,13,4,7"
14613,commdev-image-keyboard-response,306,688757,learnblock1,520.6000000000931,img/planet10_right.png,10,Community 2,NA,TRUE,j,j,NA,NA,NA,3,6,"12,8,3,11,2,10,6,5,14,1,15,9,13,4,7"
14613,commdev-image-keyboard-response,307,690010,learnblock1,447.70000000018626,img/planet1_left.png,1,Community 2,NA,TRUE,f,f,NA,NA,NA,3,6,"12,8,3,11,2,10,6,5,14,1,15,9,13,4,7"
14613,commdev-image-keyboard-response,308,691262,learnblock1,438.39999999990687,img/planet6_right.png,6,Community 2,NA,TRUE,j,j,NA,NA,NA,3,6,"12,8,3,11,2,10,6,5,14,1,15,9,13,4,7"
14613,commdev-image-keyboard-response,309,692514,learnblock1,781.7000000001863,img/planet5_left.png,5,Community 2,NA,TRUE,f,f,NA,NA,NA,3,6,"12,8,3,11,2,10,6,5,14,1,15,9,13,4,7"
14613,commdev-image-keyboard-response,310,693766,learnblock1,677.3000000002794,img/planet9_left.png,9,Community 3,NA,TRUE,f,f,NA,NA,NA,3,6,"12,8,3,11,2,10,6,5,14,1,15,9,13,4,7"
14613,commdev-image-keyboard-response,311,695018,learnblock1,810.7000000001863,img/planet5_left.png,5,Community 2,NA,TRUE,f,f,NA,NA,NA,3,6,"12,8,3,11,2,10,6,5,14,1,15,9,13,4,7"
14613,commdev-image-keyboard-response,312,696270,learnblock1,807.7000000001863,img/planet6_left.png,6,Community 2,NA,TRUE,f,f,NA,NA,NA,3,6,"12,8,3,11,2,10,6,5,14,1,15,9,13,4,7"
14613,commdev-image-keyboard-response,313,697522,learnblock1,575.5,img/planet5_right.png,5,Community 2,NA,TRUE,j,j,NA,NA,NA,3,6,"12,8,3,11,2,10,6,5,14,1,15,9,13,4,7"
14613,commdev-image-keyboard-response,314,698774,learnblock1,623.8999999999069,img/planet14_left.png,14,Community 2,NA,TRUE,f,f,NA,NA,NA,3,6,"12,8,3,11,2,10,6,5,14,1,15,9,13,4,7"
14613,commdev-image-keyboard-response,315,700026,learnblock1,528.2999999998137,img/planet1_right.png,1,Community 2,NA,TRUE,j,j,NA,NA,NA,3,6,"12,8,3,11,2,10,6,5,14,1,15,9,13,4,7"
14613,commdev-image-keyboard-response,316,701278,learnblock1,549.5,img/planet10_left.png,10,Community 2,NA,TRUE,f,f,NA,NA,NA,3,6,"12,8,3,11,2,10,6,5,14,1,15,9,13,4,7"
14613,commdev-image-keyboard-response,317,702530,learnblock1,541,img/planet1_left.png,1,Community 2,NA,TRUE,f,f,NA,NA,NA,3,6,"12,8,3,11,2,10,6,5,14,1,15,9,13,4,7"
14613,commdev-image-keyboard-response,318,703782,learnblock1,646.8999999999069,img/planet6_left.png,6,Community 2,NA,TRUE,f,f,NA,NA,NA,3,6,"12,8,3,11,2,10,6,5,14,1,15,9,13,4,7"
14613,commdev-image-keyboard-response,319,705034,learnblock1,496.20000000018626,img/planet5_left.png,5,Community 2,NA,TRUE,f,f,NA,NA,NA,3,6,"12,8,3,11,2,10,6,5,14,1,15,9,13,4,7"
14613,commdev-image-keyboard-response,320,706287,learnblock1,760.3000000002794,img/planet14_right.png,14,Community 2,NA,TRUE,j,j,NA,NA,NA,3,6,"12,8,3,11,2,10,6,5,14,1,15,9,13,4,7"
14613,commdev-image-keyboard-response,321,707539,learnblock1,779.8000000002794,img/planet6_left.png,6,Community 2,NA,TRUE,f,f,NA,NA,NA,3,6,"12,8,3,11,2,10,6,5,14,1,15,9,13,4,7"
14613,commdev-image-keyboard-response,322,708791,learnblock1,545.7000000001863,img/planet1_right.png,1,Community 2,NA,TRUE,j,j,NA,NA,NA,3,6,"12,8,3,11,2,10,6,5,14,1,15,9,13,4,7"
14613,commdev-image-keyboard-response,323,710043,learnblock1,454.20000000018626,img/planet14_left.png,14,Community 2,NA,TRUE,f,f,NA,NA,NA,3,6,"12,8,3,11,2,10,6,5,14,1,15,9,13,4,7"
14613,commdev-image-keyboard-response,324,711295,learnblock1,721.6000000000931,img/planet6_right.png,6,Community 2,NA,TRUE,j,j,NA,NA,NA,3,6,"12,8,3,11,2,10,6,5,14,1,15,9,13,4,7"
14613,commdev-image-keyboard-response,325,712548,learnblock1,601.6999999997206,img/planet10_right.png,10,Community 2,NA,TRUE,j,j,NA,NA,NA,3,6,"12,8,3,11,2,10,6,5,14,1,15,9,13,4,7"
14613,commdev-image-keyboard-response,326,713800,learnblock1,504.39999999990687,img/planet14_left.png,14,Community 2,NA,TRUE,f,f,NA,NA,NA,3,6,"12,8,3,11,2,10,6,5,14,1,15,9,13,4,7"
14613,commdev-image-keyboard-response,327,715052,learnblock1,745.4000000003725,img/planet5_left.png,5,Community 2,NA,TRUE,f,f,NA,NA,NA,3,6,"12,8,3,11,2,10,6,5,14,1,15,9,13,4,7"
14613,commdev-image-keyboard-response,328,716304,learnblock1,516,img/planet1_right.png,1,Community 2,NA,TRUE,j,j,NA,NA,NA,3,6,"12,8,3,11,2,10,6,5,14,1,15,9,13,4,7"
14613,commdev-image-keyboard-response,329,717556,learnblock1,562.6999999997206,img/planet5_left.png,5,Community 2,NA,TRUE,f,f,NA,NA,NA,3,6,"12,8,3,11,2,10,6,5,14,1,15,9,13,4,7"
14613,commdev-image-keyboard-response,330,718809,learnblock1,666.5999999996275,img/planet6_right.png,6,Community 2,NA,TRUE,j,j,NA,NA,NA,3,6,"12,8,3,11,2,10,6,5,14,1,15,9,13,4,7"
14613,commdev-image-keyboard-response,331,720062,learnblock1,559.8999999999069,img/planet5_left.png,5,Community 2,NA,TRUE,f,f,NA,NA,NA,3,6,"12,8,3,11,2,10,6,5,14,1,15,9,13,4,7"
14613,commdev-image-keyboard-response,332,721314,learnblock1,529.8000000002794,img/planet14_right.png,14,Community 2,NA,TRUE,j,j,NA,NA,NA,3,6,"12,8,3,11,2,10,6,5,14,1,15,9,13,4,7"
14613,commdev-image-keyboard-response,333,722565,learnblock1,540.5,img/planet6_left.png,6,Community 2,NA,TRUE,f,f,NA,NA,NA,3,6,"12,8,3,11,2,10,6,5,14,1,15,9,13,4,7"
14613,commdev-image-keyboard-response,334,723817,learnblock1,511.29999999981374,img/planet5_right.png,5,Community 2,NA,TRUE,j,j,NA,NA,NA,3,6,"12,8,3,11,2,10,6,5,14,1,15,9,13,4,7"
14613,commdev-image-keyboard-response,335,725069,learnblock1,458.60000000009313,img/planet1_left.png,1,Community 2,NA,TRUE,f,f,NA,NA,NA,3,6,"12,8,3,11,2,10,6,5,14,1,15,9,13,4,7"
14613,commdev-image-keyboard-response,336,726321,learnblock1,516.3999999999069,img/planet6_right.png,6,Community 2,NA,TRUE,j,j,NA,NA,NA,3,6,"12,8,3,11,2,10,6,5,14,1,15,9,13,4,7"
14613,commdev-image-keyboard-response,337,727573,learnblock1,417.1999999997206,img/planet1_left.png,1,Community 2,NA,TRUE,f,f,NA,NA,NA,3,6,"12,8,3,11,2,10,6,5,14,1,15,9,13,4,7"
14613,commdev-image-keyboard-response,338,728826,learnblock1,457.79999999981374,img/planet10_left.png,10,Community 2,NA,FALSE,j,f,NA,NA,NA,3,6,"12,8,3,11,2,10,6,5,14,1,15,9,13,4,7"
14613,commdev-image-keyboard-response,339,730077,learnblock1,145.89999999990687,img/planet11_right.png,11,Community 1,NA,FALSE,f,j,NA,NA,NA,3,6,"12,8,3,11,2,10,6,5,14,1,15,9,13,4,7"
14613,commdev-image-keyboard-response,340,731330,learnblock1,261.59999999962747,img/planet8_right.png,8,Community 1,NA,TRUE,j,j,NA,NA,NA,3,6,"12,8,3,11,2,10,6,5,14,1,15,9,13,4,7"
14613,commdev-image-keyboard-response,341,732582,learnblock1,770,img/planet11_right.png,11,Community 1,NA,TRUE,j,j,NA,NA,NA,3,6,"12,8,3,11,2,10,6,5,14,1,15,9,13,4,7"
14613,commdev-image-keyboard-response,342,733834,learnblock1,791.8999999994412,img/planet3_right.png,3,Community 1,NA,TRUE,j,j,NA,NA,NA,3,6,"12,8,3,11,2,10,6,5,14,1,15,9,13,4,7"
14613,commdev-image-keyboard-response,343,735086,learnblock1,826.6999999992549,img/planet8_right.png,8,Community 1,NA,TRUE,j,j,NA,NA,NA,3,6,"12,8,3,11,2,10,6,5,14,1,15,9,13,4,7"
14613,commdev-image-keyboard-response,344,736338,learnblock1,1003.5999999996275,img/planet12_right.png,12,Community 1,NA,TRUE,j,j,NA,NA,NA,3,6,"12,8,3,11,2,10,6,5,14,1,15,9,13,4,7"
14613,commdev-image-keyboard-response,345,737590,learnblock1,631.5999999996275,img/planet2_right.png,2,Community 1,NA,TRUE,j,j,NA,NA,NA,3,6,"12,8,3,11,2,10,6,5,14,1,15,9,13,4,7"
14613,commdev-image-keyboard-response,346,738842,learnblock1,976,img/planet12_right.png,12,Community 1,NA,TRUE,j,j,NA,NA,NA,3,6,"12,8,3,11,2,10,6,5,14,1,15,9,13,4,7"
14613,commdev-image-keyboard-response,347,740094,learnblock1,663.9000000003725,img/planet3_left.png,3,Community 1,NA,TRUE,f,f,NA,NA,NA,3,6,"12,8,3,11,2,10,6,5,14,1,15,9,13,4,7"
14613,commdev-image-keyboard-response,351,800569,learnblock2,1187.9000000003725,img/planet8_left.png,8,Community 1,NA,TRUE,f,f,NA,NA,NA,3,6,"12,8,3,11,2,10,6,5,14,1,15,9,13,4,7"
14613,commdev-image-keyboard-response,352,801821,learnblock2,724.5,img/planet3_right.png,3,Community 1,NA,TRUE,j,j,NA,NA,NA,3,6,"12,8,3,11,2,10,6,5,14,1,15,9,13,4,7"
14613,commdev-image-keyboard-response,353,803073,learnblock2,688.0999999996275,img/planet12_left.png,12,Community 1,NA,TRUE,f,f,NA,NA,NA,3,6,"12,8,3,11,2,10,6,5,14,1,15,9,13,4,7"
14613,commdev-image-keyboard-response,354,804325,learnblock2,656,img/planet11_left.png,11,Community 1,NA,TRUE,f,f,NA,NA,NA,3,6,"12,8,3,11,2,10,6,5,14,1,15,9,13,4,7"
14613,commdev-image-keyboard-response,355,805578,learnblock2,611,img/planet8_right.png,8,Community 1,NA,TRUE,j,j,NA,NA,NA,3,6,"12,8,3,11,2,10,6,5,14,1,15,9,13,4,7"
14613,commdev-image-keyboard-response,356,806830,learnblock2,566.5999999996275,img/planet11_left.png,11,Community 1,NA,TRUE,f,f,NA,NA,NA,3,6,"12,8,3,11,2,10,6,5,14,1,15,9,13,4,7"
14613,commdev-image-keyboard-response,357,808082,learnblock2,568.0999999996275,img/planet8_right.png,8,Community 1,NA,TRUE,j,j,NA,NA,NA,3,6,"12,8,3,11,2,10,6,5,14,1,15,9,13,4,7"
14613,commdev-image-keyboard-response,358,809334,learnblock2,732.0999999996275,img/planet11_right.png,11,Community 1,NA,TRUE,j,j,NA,NA,NA,3,6,"12,8,3,11,2,10,6,5,14,1,15,9,13,4,7"
14613,commdev-image-keyboard-response,359,810586,learnblock2,583.1000000005588,img/planet10_left.png,10,Community 2,NA,TRUE,f,f,NA,NA,NA,3,6,"12,8,3,11,2,10,6,5,14,1,15,9,13,4,7"
14613,commdev-image-keyboard-response,360,811838,learnblock2,614.7000000001863,img/planet14_right.png,14,Community 2,NA,TRUE,j,j,NA,NA,NA,3,6,"12,8,3,11,2,10,6,5,14,1,15,9,13,4,7"
14613,commdev-image-keyboard-response,361,813091,learnblock2,586.2999999998137,img/planet5_left.png,5,Community 2,NA,TRUE,f,f,NA,NA,NA,3,6,"12,8,3,11,2,10,6,5,14,1,15,9,13,4,7"
14613,commdev-image-keyboard-response,362,814343,learnblock2,567.3999999994412,img/planet1_left.png,1,Community 2,NA,TRUE,f,f,NA,NA,NA,3,6,"12,8,3,11,2,10,6,5,14,1,15,9,13,4,7"
14613,commdev-image-keyboard-response,363,815595,learnblock2,689.2000000001863,img/planet14_left.png,14,Community 2,NA,TRUE,f,f,NA,NA,NA,3,6,"12,8,3,11,2,10,6,5,14,1,15,9,13,4,7"
14613,commdev-image-keyboard-response,364,816847,learnblock2,797.2999999998137,img/planet5_left.png,5,Community 2,NA,TRUE,f,f,NA,NA,NA,3,6,"12,8,3,11,2,10,6,5,14,1,15,9,13,4,7"
14613,commdev-image-keyboard-response,365,818099,learnblock2,666.6999999992549,img/planet14_right.png,14,Community 2,NA,TRUE,j,j,NA,NA,NA,3,6,"12,8,3,11,2,10,6,5,14,1,15,9,13,4,7"
14613,commdev-image-keyboard-response,366,819351,learnblock2,1152.699999999255,img/planet10_right.png,10,Community 2,NA,TRUE,j,j,NA,NA,NA,3,6,"12,8,3,11,2,10,6,5,14,1,15,9,13,4,7"
14613,commdev-image-keyboard-response,367,820603,learnblock2,604.0999999996275,img/planet1_left.png,1,Community 2,NA,TRUE,f,f,NA,NA,NA,3,6,"12,8,3,11,2,10,6,5,14,1,15,9,13,4,7"
14613,commdev-image-keyboard-response,368,821855,learnblock2,607.0999999996275,img/planet5_right.png,5,Community 2,NA,TRUE,j,j,NA,NA,NA,3,6,"12,8,3,11,2,10,6,5,14,1,15,9,13,4,7"
14613,commdev-image-keyboard-response,369,823107,learnblock2,825.5,img/planet9_right.png,9,Community 3,NA,TRUE,j,j,NA,NA,NA,3,6,"12,8,3,11,2,10,6,5,14,1,15,9,13,4,7"
14613,commdev-image-keyboard-response,370,824359,learnblock2,731.0999999996275,img/planet7_left.png,7,Community 3,NA,TRUE,f,f,NA,NA,NA,3,6,"12,8,3,11,2,10,6,5,14,1,15,9,13,4,7"
14613,commdev-image-keyboard-response,371,825611,learnblock2,635.4000000003725,img/planet13_left.png,13,Community 3,NA,TRUE,f,f,NA,NA,NA,3,6,"12,8,3,11,2,10,6,5,14,1,15,9,13,4,7"
14613,commdev-image-keyboard-response,372,826864,learnblock2,603.7999999998137,img/planet4_left.png,4,Community 3,NA,TRUE,f,f,NA,NA,NA,3,6,"12,8,3,11,2,10,6,5,14,1,15,9,13,4,7"
14613,commdev-image-keyboard-response,373,828116,learnblock2,833.7000000001863,img/planet7_left.png,7,Community 3,NA,TRUE,f,f,NA,NA,NA,3,6,"12,8,3,11,2,10,6,5,14,1,15,9,13,4,7"
14613,commdev-image-keyboard-response,374,829368,learnblock2,700.0999999996275,img/planet13_left.png,13,Community 3,NA,TRUE,f,f,NA,NA,NA,3,6,"12,8,3,11,2,10,6,5,14,1,15,9,13,4,7"
14613,commdev-image-keyboard-response,375,830620,learnblock2,655.5,img/planet4_left.png,4,Community 3,NA,TRUE,f,f,NA,NA,NA,3,6,"12,8,3,11,2,10,6,5,14,1,15,9,13,4,7"
14613,commdev-image-keyboard-response,376,831872,learnblock2,726.2000000001863,img/planet7_left.png,7,Community 3,NA,TRUE,f,f,NA,NA,NA,3,6,"12,8,3,11,2,10,6,5,14,1,15,9,13,4,7"
14613,commdev-image-keyboard-response,377,833124,learnblock2,733.5,img/planet15_left.png,15,Community 3,NA,TRUE,f,f,NA,NA,NA,3,6,"12,8,3,11,2,10,6,5,14,1,15,9,13,4,7"
14613,commdev-image-keyboard-response,378,834377,learnblock2,616.9000000003725,img/planet13_right.png,13,Community 3,NA,TRUE,j,j,NA,NA,NA,3,6,"12,8,3,11,2,10,6,5,14,1,15,9,13,4,7"
14613,commdev-image-keyboard-response,379,835629,learnblock2,722.7000000001863,img/planet7_left.png,7,Community 3,NA,TRUE,f,f,NA,NA,NA,3,6,"12,8,3,11,2,10,6,5,14,1,15,9,13,4,7"
14613,commdev-image-keyboard-response,380,836881,learnblock2,621.9000000003725,img/planet15_left.png,15,Community 3,NA,TRUE,f,f,NA,NA,NA,3,6,"12,8,3,11,2,10,6,5,14,1,15,9,13,4,7"
14613,commdev-image-keyboard-response,381,838133,learnblock2,768.1000000005588,img/planet2_right.png,2,Community 1,NA,TRUE,j,j,NA,NA,NA,3,6,"12,8,3,11,2,10,6,5,14,1,15,9,13,4,7"
14613,commdev-image-keyboard-response,382,839385,learnblock2,759.5,img/planet8_left.png,8,Community 1,NA,TRUE,f,f,NA,NA,NA,3,6,"12,8,3,11,2,10,6,5,14,1,15,9,13,4,7"
14613,commdev-image-keyboard-response,383,840637,learnblock2,605.7999999998137,img/planet2_right.png,2,Community 1,NA,TRUE,j,j,NA,NA,NA,3,6,"12,8,3,11,2,10,6,5,14,1,15,9,13,4,7"
14613,commdev-image-keyboard-response,384,841889,learnblock2,706.5999999996275,img/planet3_right.png,3,Community 1,NA,TRUE,j,j,NA,NA,NA,3,6,"12,8,3,11,2,10,6,5,14,1,15,9,13,4,7"
14613,commdev-image-keyboard-response,385,843141,learnblock2,563.5,img/planet2_left.png,2,Community 1,NA,TRUE,f,f,NA,NA,NA,3,6,"12,8,3,11,2,10,6,5,14,1,15,9,13,4,7"
14613,commdev-image-keyboard-response,386,844393,learnblock2,689.7999999998137,img/planet12_left.png,12,Community 1,NA,TRUE,f,f,NA,NA,NA,3,6,"12,8,3,11,2,10,6,5,14,1,15,9,13,4,7"
14613,commdev-image-keyboard-response,387,845645,learnblock2,584.6999999992549,img/planet2_left.png,2,Community 1,NA,TRUE,f,f,NA,NA,NA,3,6,"12,8,3,11,2,10,6,5,14,1,15,9,13,4,7"
14613,commdev-image-keyboard-response,388,846897,learnblock2,816.0999999996275,img/planet3_left.png,3,Community 1,NA,TRUE,f,f,NA,NA,NA,3,6,"12,8,3,11,2,10,6,5,14,1,15,9,13,4,7"
14613,commdev-image-keyboard-response,389,848150,learnblock2,613.7999999998137,img/planet12_left.png,12,Community 1,NA,TRUE,f,f,NA,NA,NA,3,6,"12,8,3,11,2,10,6,5,14,1,15,9,13,4,7"
14613,commdev-image-keyboard-response,390,849401,learnblock2,605.6000000005588,img/planet2_left.png,2,Community 1,NA,TRUE,f,f,NA,NA,NA,3,6,"12,8,3,11,2,10,6,5,14,1,15,9,13,4,7"
14613,commdev-image-keyboard-response,391,850653,learnblock2,593.7000000001863,img/planet15_right.png,15,Community 3,NA,TRUE,j,j,NA,NA,NA,3,6,"12,8,3,11,2,10,6,5,14,1,15,9,13,4,7"
14613,commdev-image-keyboard-response,392,851905,learnblock2,523,img/planet2_left.png,2,Community 1,NA,FALSE,j,f,NA,NA,NA,3,6,"12,8,3,11,2,10,6,5,14,1,15,9,13,4,7"
14613,commdev-image-keyboard-response,393,853158,learnblock2,934.7000000001863,img/planet8_right.png,8,Community 1,NA,TRUE,j,j,NA,NA,NA,3,6,"12,8,3,11,2,10,6,5,14,1,15,9,13,4,7"
14613,commdev-image-keyboard-response,394,854410,learnblock2,824.2000000001863,img/planet11_left.png,11,Community 1,NA,TRUE,f,f,NA,NA,NA,3,6,"12,8,3,11,2,10,6,5,14,1,15,9,13,4,7"
14613,commdev-image-keyboard-response,395,855662,learnblock2,702.4000000003725,img/planet3_right.png,3,Community 1,NA,TRUE,j,j,NA,NA,NA,3,6,"12,8,3,11,2,10,6,5,14,1,15,9,13,4,7"
14613,commdev-image-keyboard-response,396,856914,learnblock2,619.5,img/planet8_left.png,8,Community 1,NA,TRUE,f,f,NA,NA,NA,3,6,"12,8,3,11,2,10,6,5,14,1,15,9,13,4,7"
14613,commdev-image-keyboard-response,397,858166,learnblock2,577.6999999992549,img/planet12_right.png,12,Community 1,NA,TRUE,j,j,NA,NA,NA,3,6,"12,8,3,11,2,10,6,5,14,1,15,9,13,4,7"
14613,commdev-image-keyboard-response,398,859419,learnblock2,717.7000000001863,img/planet8_right.png,8,Community 1,NA,TRUE,j,j,NA,NA,NA,3,6,"12,8,3,11,2,10,6,5,14,1,15,9,13,4,7"
14613,commdev-image-keyboard-response,399,860671,learnblock2,745,img/planet11_right.png,11,Community 1,NA,TRUE,j,j,NA,NA,NA,3,6,"12,8,3,11,2,10,6,5,14,1,15,9,13,4,7"
14613,commdev-image-keyboard-response,400,861923,learnblock2,551.3999999994412,img/planet10_left.png,10,Community 2,NA,TRUE,f,f,NA,NA,NA,3,6,"12,8,3,11,2,10,6,5,14,1,15,9,13,4,7"
14613,commdev-image-keyboard-response,401,863175,learnblock2,634.4000000003725,img/planet11_left.png,11,Community 1,NA,TRUE,f,f,NA,NA,NA,3,6,"12,8,3,11,2,10,6,5,14,1,15,9,13,4,7"
14613,commdev-image-keyboard-response,402,864427,learnblock2,568.1000000005588,img/planet12_left.png,12,Community 1,NA,TRUE,f,f,NA,NA,NA,3,6,"12,8,3,11,2,10,6,5,14,1,15,9,13,4,7"
14613,commdev-image-keyboard-response,403,865679,learnblock2,643.4000000003725,img/planet8_left.png,8,Community 1,NA,TRUE,f,f,NA,NA,NA,3,6,"12,8,3,11,2,10,6,5,14,1,15,9,13,4,7"
14613,commdev-image-keyboard-response,404,866932,learnblock2,645.5,img/planet12_right.png,12,Community 1,NA,TRUE,j,j,NA,NA,NA,3,6,"12,8,3,11,2,10,6,5,14,1,15,9,13,4,7"
14613,commdev-image-keyboard-response,405,868184,learnblock2,902.0999999996275,img/planet11_right.png,11,Community 1,NA,TRUE,j,j,NA,NA,NA,3,6,"12,8,3,11,2,10,6,5,14,1,15,9,13,4,7"
14613,commdev-image-keyboard-response,406,869436,learnblock2,958.9000000003725,img/planet12_right.png,12,Community 1,NA,TRUE,j,j,NA,NA,NA,3,6,"12,8,3,11,2,10,6,5,14,1,15,9,13,4,7"
14613,commdev-image-keyboard-response,407,870688,learnblock2,592,img/planet2_right.png,2,Community 1,NA,TRUE,j,j,NA,NA,NA,3,6,"12,8,3,11,2,10,6,5,14,1,15,9,13,4,7"
14613,commdev-image-keyboard-response,408,871940,learnblock2,672,img/planet12_right.png,12,Community 1,NA,TRUE,j,j,NA,NA,NA,3,6,"12,8,3,11,2,10,6,5,14,1,15,9,13,4,7"
14613,commdev-image-keyboard-response,409,873192,learnblock2,695.0999999996275,img/planet2_right.png,2,Community 1,NA,TRUE,j,j,NA,NA,NA,3,6,"12,8,3,11,2,10,6,5,14,1,15,9,13,4,7"
14613,commdev-image-keyboard-response,410,874444,learnblock2,652.0999999996275,img/planet12_left.png,12,Community 1,NA,TRUE,f,f,NA,NA,NA,3,6,"12,8,3,11,2,10,6,5,14,1,15,9,13,4,7"
14613,commdev-image-keyboard-response,411,875696,learnblock2,525.5,img/planet11_right.png,11,Community 1,NA,TRUE,j,j,NA,NA,NA,3,6,"12,8,3,11,2,10,6,5,14,1,15,9,13,4,7"
14613,commdev-image-keyboard-response,412,876948,learnblock2,638,img/planet12_right.png,12,Community 1,NA,TRUE,j,j,NA,NA,NA,3,6,"12,8,3,11,2,10,6,5,14,1,15,9,13,4,7"
14613,commdev-image-keyboard-response,413,878201,learnblock2,709.7000000001863,img/planet11_right.png,11,Community 1,NA,TRUE,j,j,NA,NA,NA,3,6,"12,8,3,11,2,10,6,5,14,1,15,9,13,4,7"
14613,commdev-image-keyboard-response,414,879454,learnblock2,598.7000000001863,img/planet3_right.png,3,Community 1,NA,TRUE,j,j,NA,NA,NA,3,6,"12,8,3,11,2,10,6,5,14,1,15,9,13,4,7"
14613,commdev-image-keyboard-response,415,880706,learnblock2,477,img/planet2_right.png,2,Community 1,NA,TRUE,j,j,NA,NA,NA,3,6,"12,8,3,11,2,10,6,5,14,1,15,9,13,4,7"
14613,commdev-image-keyboard-response,416,881958,learnblock2,553,img/planet3_left.png,3,Community 1,NA,TRUE,f,f,NA,NA,NA,3,6,"12,8,3,11,2,10,6,5,14,1,15,9,13,4,7"
14613,commdev-image-keyboard-response,417,883210,learnblock2,426,img/planet2_left.png,2,Community 1,NA,TRUE,f,f,NA,NA,NA,3,6,"12,8,3,11,2,10,6,5,14,1,15,9,13,4,7"
14613,commdev-image-keyboard-response,418,884463,learnblock2,580.7999999998137,img/planet12_left.png,12,Community 1,NA,TRUE,f,f,NA,NA,NA,3,6,"12,8,3,11,2,10,6,5,14,1,15,9,13,4,7"
14613,commdev-image-keyboard-response,419,885716,learnblock2,703.7000000001863,img/planet3_left.png,3,Community 1,NA,TRUE,f,f,NA,NA,NA,3,6,"12,8,3,11,2,10,6,5,14,1,15,9,13,4,7"
14613,commdev-image-keyboard-response,420,886967,learnblock2,567.2999999998137,img/planet12_right.png,12,Community 1,NA,TRUE,j,j,NA,NA,NA,3,6,"12,8,3,11,2,10,6,5,14,1,15,9,13,4,7"
14613,commdev-image-keyboard-response,421,888219,learnblock2,518.7000000001863,img/planet2_left.png,2,Community 1,NA,FALSE,j,f,NA,NA,NA,3,6,"12,8,3,11,2,10,6,5,14,1,15,9,13,4,7"
14613,commdev-image-keyboard-response,422,889471,learnblock2,731.8000000007451,img/planet3_right.png,3,Community 1,NA,TRUE,j,j,NA,NA,NA,3,6,"12,8,3,11,2,10,6,5,14,1,15,9,13,4,7"
14613,commdev-image-keyboard-response,423,890724,learnblock2,597,img/planet2_left.png,2,Community 1,NA,TRUE,f,f,NA,NA,NA,3,6,"12,8,3,11,2,10,6,5,14,1,15,9,13,4,7"
14613,commdev-image-keyboard-response,424,891976,learnblock2,531.9000000003725,img/planet3_right.png,3,Community 1,NA,TRUE,j,j,NA,NA,NA,3,6,"12,8,3,11,2,10,6,5,14,1,15,9,13,4,7"
14613,commdev-image-keyboard-response,425,893228,learnblock2,472.8999999994412,img/planet12_left.png,12,Community 1,NA,TRUE,f,f,NA,NA,NA,3,6,"12,8,3,11,2,10,6,5,14,1,15,9,13,4,7"
14613,commdev-image-keyboard-response,426,894480,learnblock2,579.8999999994412,img/planet8_right.png,8,Community 1,NA,TRUE,j,j,NA,NA,NA,3,6,"12,8,3,11,2,10,6,5,14,1,15,9,13,4,7"
14613,commdev-image-keyboard-response,427,895733,learnblock2,595.5,img/planet11_left.png,11,Community 1,NA,TRUE,f,f,NA,NA,NA,3,6,"12,8,3,11,2,10,6,5,14,1,15,9,13,4,7"
14613,commdev-image-keyboard-response,428,896985,learnblock2,597.2000000001863,img/planet10_right.png,10,Community 2,NA,TRUE,j,j,NA,NA,NA,3,6,"12,8,3,11,2,10,6,5,14,1,15,9,13,4,7"
14613,commdev-image-keyboard-response,429,898237,learnblock2,595.1000000005588,img/planet11_right.png,11,Community 1,NA,TRUE,j,j,NA,NA,NA,3,6,"12,8,3,11,2,10,6,5,14,1,15,9,13,4,7"
14613,commdev-image-keyboard-response,430,899490,learnblock2,558.4000000003725,img/planet8_right.png,8,Community 1,NA,TRUE,j,j,NA,NA,NA,3,6,"12,8,3,11,2,10,6,5,14,1,15,9,13,4,7"
14613,commdev-image-keyboard-response,431,900742,learnblock2,992.7000000001863,img/planet12_right.png,12,Community 1,NA,TRUE,j,j,NA,NA,NA,3,6,"12,8,3,11,2,10,6,5,14,1,15,9,13,4,7"
14613,commdev-image-keyboard-response,432,901994,learnblock2,693.6999999992549,img/planet8_right.png,8,Community 1,NA,TRUE,j,j,NA,NA,NA,3,6,"12,8,3,11,2,10,6,5,14,1,15,9,13,4,7"
14613,commdev-image-keyboard-response,433,903246,learnblock2,583.7000000001863,img/planet2_right.png,2,Community 1,NA,TRUE,j,j,NA,NA,NA,3,6,"12,8,3,11,2,10,6,5,14,1,15,9,13,4,7"
14613,commdev-image-keyboard-response,434,904498,learnblock2,587.3999999994412,img/planet12_left.png,12,Community 1,NA,TRUE,f,f,NA,NA,NA,3,6,"12,8,3,11,2,10,6,5,14,1,15,9,13,4,7"
14613,commdev-image-keyboard-response,435,905750,learnblock2,611,img/planet2_right.png,2,Community 1,NA,TRUE,j,j,NA,NA,NA,3,6,"12,8,3,11,2,10,6,5,14,1,15,9,13,4,7"
14613,commdev-image-keyboard-response,436,907002,learnblock2,815.5999999996275,img/planet8_left.png,8,Community 1,NA,TRUE,f,f,NA,NA,NA,3,6,"12,8,3,11,2,10,6,5,14,1,15,9,13,4,7"
14613,commdev-image-keyboard-response,437,908255,learnblock2,779.9000000003725,img/planet2_right.png,2,Community 1,NA,TRUE,j,j,NA,NA,NA,3,6,"12,8,3,11,2,10,6,5,14,1,15,9,13,4,7"
14613,commdev-image-keyboard-response,438,909507,learnblock2,621.4000000003725,img/planet3_left.png,3,Community 1,NA,TRUE,f,f,NA,NA,NA,3,6,"12,8,3,11,2,10,6,5,14,1,15,9,13,4,7"
14613,commdev-image-keyboard-response,439,910759,learnblock2,719.7000000001863,img/planet8_left.png,8,Community 1,NA,TRUE,f,f,NA,NA,NA,3,6,"12,8,3,11,2,10,6,5,14,1,15,9,13,4,7"
14613,commdev-image-keyboard-response,440,912011,learnblock2,775.0999999996275,img/planet11_left.png,11,Community 1,NA,TRUE,f,f,NA,NA,NA,3,6,"12,8,3,11,2,10,6,5,14,1,15,9,13,4,7"
14613,commdev-image-keyboard-response,441,913263,learnblock2,718.5,img/planet3_left.png,3,Community 1,NA,TRUE,f,f,NA,NA,NA,3,6,"12,8,3,11,2,10,6,5,14,1,15,9,13,4,7"
14613,commdev-image-keyboard-response,442,914515,learnblock2,613,img/planet8_left.png,8,Community 1,NA,TRUE,f,f,NA,NA,NA,3,6,"12,8,3,11,2,10,6,5,14,1,15,9,13,4,7"
14613,commdev-image-keyboard-response,443,915767,learnblock2,655.0999999996275,img/planet11_right.png,11,Community 1,NA,TRUE,j,j,NA,NA,NA,3,6,"12,8,3,11,2,10,6,5,14,1,15,9,13,4,7"
14613,commdev-image-keyboard-response,444,917019,learnblock2,648.7999999998137,img/planet10_left.png,10,Community 2,NA,TRUE,f,f,NA,NA,NA,3,6,"12,8,3,11,2,10,6,5,14,1,15,9,13,4,7"
14613,commdev-image-keyboard-response,445,918271,learnblock2,607.4000000003725,img/planet1_right.png,1,Community 2,NA,TRUE,j,j,NA,NA,NA,3,6,"12,8,3,11,2,10,6,5,14,1,15,9,13,4,7"
14613,commdev-image-keyboard-response,446,919523,learnblock2,524.7000000001863,img/planet10_left.png,10,Community 2,NA,TRUE,f,f,NA,NA,NA,3,6,"12,8,3,11,2,10,6,5,14,1,15,9,13,4,7"
14613,commdev-image-keyboard-response,447,920776,learnblock2,570.7999999998137,img/planet11_right.png,11,Community 1,NA,TRUE,j,j,NA,NA,NA,3,6,"12,8,3,11,2,10,6,5,14,1,15,9,13,4,7"
14613,commdev-image-keyboard-response,448,922028,learnblock2,820,img/planet3_right.png,3,Community 1,NA,TRUE,j,j,NA,NA,NA,3,6,"12,8,3,11,2,10,6,5,14,1,15,9,13,4,7"
14613,commdev-image-keyboard-response,449,923281,learnblock2,688.5,img/planet11_right.png,11,Community 1,NA,TRUE,j,j,NA,NA,NA,3,6,"12,8,3,11,2,10,6,5,14,1,15,9,13,4,7"
14613,commdev-image-keyboard-response,450,924532,learnblock2,637.2000000001863,img/planet8_right.png,8,Community 1,NA,TRUE,j,j,NA,NA,NA,3,6,"12,8,3,11,2,10,6,5,14,1,15,9,13,4,7"
14613,commdev-image-keyboard-response,451,925784,learnblock2,562.3000000007451,img/planet2_left.png,2,Community 1,NA,TRUE,f,f,NA,NA,NA,3,6,"12,8,3,11,2,10,6,5,14,1,15,9,13,4,7"
14613,commdev-image-keyboard-response,452,927037,learnblock2,593.0999999996275,img/planet8_right.png,8,Community 1,NA,TRUE,j,j,NA,NA,NA,3,6,"12,8,3,11,2,10,6,5,14,1,15,9,13,4,7"
14613,commdev-image-keyboard-response,453,928289,learnblock2,815,img/planet12_right.png,12,Community 1,NA,TRUE,j,j,NA,NA,NA,3,6,"12,8,3,11,2,10,6,5,14,1,15,9,13,4,7"
14613,commdev-image-keyboard-response,454,929541,learnblock2,507.3999999994412,img/planet2_left.png,2,Community 1,NA,TRUE,f,f,NA,NA,NA,3,6,"12,8,3,11,2,10,6,5,14,1,15,9,13,4,7"
14613,commdev-image-keyboard-response,455,930793,learnblock2,494.70000000018626,img/planet12_right.png,12,Community 1,NA,TRUE,j,j,NA,NA,NA,3,6,"12,8,3,11,2,10,6,5,14,1,15,9,13,4,7"
14613,commdev-image-keyboard-response,456,932046,learnblock2,535.5999999996275,img/planet8_left.png,8,Community 1,NA,TRUE,f,f,NA,NA,NA,3,6,"12,8,3,11,2,10,6,5,14,1,15,9,13,4,7"
14613,commdev-image-keyboard-response,457,933299,learnblock2,643.7999999998137,img/planet3_left.png,3,Community 1,NA,TRUE,f,f,NA,NA,NA,3,6,"12,8,3,11,2,10,6,5,14,1,15,9,13,4,7"
14613,commdev-image-keyboard-response,458,934551,learnblock2,555,img/planet8_left.png,8,Community 1,NA,TRUE,f,f,NA,NA,NA,3,6,"12,8,3,11,2,10,6,5,14,1,15,9,13,4,7"
14613,commdev-image-keyboard-response,459,935803,learnblock2,452.90000000037253,img/planet2_right.png,2,Community 1,NA,FALSE,f,j,NA,NA,NA,3,6,"12,8,3,11,2,10,6,5,14,1,15,9,13,4,7"
14613,commdev-image-keyboard-response,460,937055,learnblock2,722.5999999996275,img/planet15_left.png,15,Community 3,NA,TRUE,f,f,NA,NA,NA,3,6,"12,8,3,11,2,10,6,5,14,1,15,9,13,4,7"
14613,commdev-image-keyboard-response,461,938307,learnblock2,974.4000000003725,img/planet7_left.png,7,Community 3,NA,TRUE,f,f,NA,NA,NA,3,6,"12,8,3,11,2,10,6,5,14,1,15,9,13,4,7"
14613,commdev-image-keyboard-response,462,939559,learnblock2,614.6000000005588,img/planet9_right.png,9,Community 3,NA,TRUE,j,j,NA,NA,NA,3,6,"12,8,3,11,2,10,6,5,14,1,15,9,13,4,7"
14613,commdev-image-keyboard-response,463,940811,learnblock2,777.2000000001863,img/planet5_right.png,5,Community 2,NA,TRUE,j,j,NA,NA,NA,3,6,"12,8,3,11,2,10,6,5,14,1,15,9,13,4,7"
14613,commdev-image-keyboard-response,464,942063,learnblock2,902.2000000001863,img/planet6_right.png,6,Community 2,NA,TRUE,j,j,NA,NA,NA,3,6,"12,8,3,11,2,10,6,5,14,1,15,9,13,4,7"
14613,commdev-image-keyboard-response,465,943315,learnblock2,623.4000000003725,img/planet10_right.png,10,Community 2,NA,TRUE,j,j,NA,NA,NA,3,6,"12,8,3,11,2,10,6,5,14,1,15,9,13,4,7"
14613,commdev-image-keyboard-response,466,944568,learnblock2,673.5999999996275,img/planet6_right.png,6,Community 2,NA,TRUE,j,j,NA,NA,NA,3,6,"12,8,3,11,2,10,6,5,14,1,15,9,13,4,7"
14613,commdev-image-keyboard-response,467,945820,learnblock2,951.5999999996275,img/planet14_right.png,14,Community 2,NA,TRUE,j,j,NA,NA,NA,3,6,"12,8,3,11,2,10,6,5,14,1,15,9,13,4,7"
14613,commdev-image-keyboard-response,468,947072,learnblock2,814.9000000003725,img/planet6_left.png,6,Community 2,NA,TRUE,f,f,NA,NA,NA,3,6,"12,8,3,11,2,10,6,5,14,1,15,9,13,4,7"
14613,commdev-image-keyboard-response,469,948324,learnblock2,627.9000000003725,img/planet10_right.png,10,Community 2,NA,TRUE,j,j,NA,NA,NA,3,6,"12,8,3,11,2,10,6,5,14,1,15,9,13,4,7"
14613,commdev-image-keyboard-response,470,949577,learnblock2,829.2000000001863,img/planet6_right.png,6,Community 2,NA,TRUE,j,j,NA,NA,NA,3,6,"12,8,3,11,2,10,6,5,14,1,15,9,13,4,7"
14613,commdev-image-keyboard-response,471,950829,learnblock2,588.6999999992549,img/planet5_right.png,5,Community 2,NA,TRUE,j,j,NA,NA,NA,3,6,"12,8,3,11,2,10,6,5,14,1,15,9,13,4,7"
14613,commdev-image-keyboard-response,472,952081,learnblock2,681.6000000005588,img/planet14_left.png,14,Community 2,NA,TRUE,f,f,NA,NA,NA,3,6,"12,8,3,11,2,10,6,5,14,1,15,9,13,4,7"
14613,commdev-image-keyboard-response,473,953333,learnblock2,776.7999999998137,img/planet6_left.png,6,Community 2,NA,TRUE,f,f,NA,NA,NA,3,6,"12,8,3,11,2,10,6,5,14,1,15,9,13,4,7"
14613,commdev-image-keyboard-response,474,954585,learnblock2,749.2000000001863,img/planet14_right.png,14,Community 2,NA,TRUE,j,j,NA,NA,NA,3,6,"12,8,3,11,2,10,6,5,14,1,15,9,13,4,7"
14613,commdev-image-keyboard-response,475,955837,learnblock2,911.6000000005588,img/planet6_left.png,6,Community 2,NA,TRUE,f,f,NA,NA,NA,3,6,"12,8,3,11,2,10,6,5,14,1,15,9,13,4,7"
14613,commdev-image-keyboard-response,476,957089,learnblock2,591,img/planet10_left.png,10,Community 2,NA,TRUE,f,f,NA,NA,NA,3,6,"12,8,3,11,2,10,6,5,14,1,15,9,13,4,7"
14613,commdev-image-keyboard-response,477,958341,learnblock2,612.9000000003725,img/planet6_left.png,6,Community 2,NA,TRUE,f,f,NA,NA,NA,3,6,"12,8,3,11,2,10,6,5,14,1,15,9,13,4,7"
14613,commdev-image-keyboard-response,478,959593,learnblock2,668.2000000001863,img/planet1_left.png,1,Community 2,NA,TRUE,f,f,NA,NA,NA,3,6,"12,8,3,11,2,10,6,5,14,1,15,9,13,4,7"
14613,commdev-image-keyboard-response,479,960846,learnblock2,610.9000000003725,img/planet10_right.png,10,Community 2,NA,TRUE,j,j,NA,NA,NA,3,6,"12,8,3,11,2,10,6,5,14,1,15,9,13,4,7"
14613,commdev-image-keyboard-response,480,962098,learnblock2,592,img/planet14_right.png,14,Community 2,NA,TRUE,j,j,NA,NA,NA,3,6,"12,8,3,11,2,10,6,5,14,1,15,9,13,4,7"
14613,commdev-image-keyboard-response,481,963350,learnblock2,583.8999999994412,img/planet10_left.png,10,Community 2,NA,TRUE,f,f,NA,NA,NA,3,6,"12,8,3,11,2,10,6,5,14,1,15,9,13,4,7"
14613,commdev-image-keyboard-response,482,964602,learnblock2,787,img/planet6_left.png,6,Community 2,NA,TRUE,f,f,NA,NA,NA,3,6,"12,8,3,11,2,10,6,5,14,1,15,9,13,4,7"
14613,commdev-image-keyboard-response,483,965854,learnblock2,546.5,img/planet10_left.png,10,Community 2,NA,TRUE,f,f,NA,NA,NA,3,6,"12,8,3,11,2,10,6,5,14,1,15,9,13,4,7"
14613,commdev-image-keyboard-response,484,967106,learnblock2,774.0999999996275,img/planet14_left.png,14,Community 2,NA,TRUE,f,f,NA,NA,NA,3,6,"12,8,3,11,2,10,6,5,14,1,15,9,13,4,7"
14613,commdev-image-keyboard-response,485,968358,learnblock2,670.8999999994412,img/planet5_right.png,5,Community 2,NA,TRUE,j,j,NA,NA,NA,3,6,"12,8,3,11,2,10,6,5,14,1,15,9,13,4,7"
14613,commdev-image-keyboard-response,486,969611,learnblock2,492,img/planet9_right.png,9,Community 3,NA,TRUE,j,j,NA,NA,NA,3,6,"12,8,3,11,2,10,6,5,14,1,15,9,13,4,7"
14613,commdev-image-keyboard-response,487,970863,learnblock2,542.1999999992549,img/planet13_right.png,13,Community 3,NA,TRUE,j,j,NA,NA,NA,3,6,"12,8,3,11,2,10,6,5,14,1,15,9,13,4,7"
14613,commdev-image-keyboard-response,488,972115,learnblock2,644.4000000003725,img/planet4_left.png,4,Community 3,NA,TRUE,f,f,NA,NA,NA,3,6,"12,8,3,11,2,10,6,5,14,1,15,9,13,4,7"
14613,commdev-image-keyboard-response,489,973367,learnblock2,505.90000000037253,img/planet9_left.png,9,Community 3,NA,TRUE,f,f,NA,NA,NA,3,6,"12,8,3,11,2,10,6,5,14,1,15,9,13,4,7"
14613,commdev-image-keyboard-response,490,974620,learnblock2,581.2000000001863,img/planet4_right.png,4,Community 3,NA,TRUE,j,j,NA,NA,NA,3,6,"12,8,3,11,2,10,6,5,14,1,15,9,13,4,7"
14613,commdev-image-keyboard-response,491,975871,learnblock2,656.5,img/planet13_right.png,13,Community 3,NA,TRUE,j,j,NA,NA,NA,3,6,"12,8,3,11,2,10,6,5,14,1,15,9,13,4,7"
14613,commdev-image-keyboard-response,492,977124,learnblock2,520.8000000007451,img/planet15_right.png,15,Community 3,NA,TRUE,j,j,NA,NA,NA,3,6,"12,8,3,11,2,10,6,5,14,1,15,9,13,4,7"
14613,commdev-image-keyboard-response,493,978376,learnblock2,645.2999999998137,img/planet2_left.png,2,Community 1,NA,TRUE,f,f,NA,NA,NA,3,6,"12,8,3,11,2,10,6,5,14,1,15,9,13,4,7"
14613,commdev-image-keyboard-response,494,979628,learnblock2,803.0999999996275,img/planet3_left.png,3,Community 1,NA,TRUE,f,f,NA,NA,NA,3,6,"12,8,3,11,2,10,6,5,14,1,15,9,13,4,7"
14613,commdev-image-keyboard-response,495,980881,learnblock2,660.6000000005588,img/planet11_left.png,11,Community 1,NA,TRUE,f,f,NA,NA,NA,3,6,"12,8,3,11,2,10,6,5,14,1,15,9,13,4,7"
14613,commdev-image-keyboard-response,496,982133,learnblock2,790.7000000001863,img/planet3_left.png,3,Community 1,NA,TRUE,f,f,NA,NA,NA,3,6,"12,8,3,11,2,10,6,5,14,1,15,9,13,4,7"
14613,commdev-image-keyboard-response,497,983385,learnblock2,687.6999999992549,img/planet12_right.png,12,Community 1,NA,TRUE,j,j,NA,NA,NA,3,6,"12,8,3,11,2,10,6,5,14,1,15,9,13,4,7"
14613,commdev-image-keyboard-response,498,984637,learnblock2,676.7999999998137,img/planet11_left.png,11,Community 1,NA,TRUE,f,f,NA,NA,NA,3,6,"12,8,3,11,2,10,6,5,14,1,15,9,13,4,7"
14613,commdev-image-keyboard-response,499,985889,learnblock2,622.6000000005588,img/planet12_right.png,12,Community 1,NA,TRUE,j,j,NA,NA,NA,3,6,"12,8,3,11,2,10,6,5,14,1,15,9,13,4,7"
14613,commdev-image-keyboard-response,500,987142,learnblock2,699.7999999998137,img/planet2_right.png,2,Community 1,NA,TRUE,j,j,NA,NA,NA,3,6,"12,8,3,11,2,10,6,5,14,1,15,9,13,4,7"
14613,commdev-image-keyboard-response,501,988394,learnblock2,585.6000000005588,img/planet3_right.png,3,Community 1,NA,TRUE,j,j,NA,NA,NA,3,6,"12,8,3,11,2,10,6,5,14,1,15,9,13,4,7"
14613,commdev-image-keyboard-response,502,989646,learnblock2,506.70000000018626,img/planet12_right.png,12,Community 1,NA,TRUE,j,j,NA,NA,NA,3,6,"12,8,3,11,2,10,6,5,14,1,15,9,13,4,7"
14613,commdev-image-keyboard-response,503,990898,learnblock2,538.2000000001863,img/planet2_left.png,2,Community 1,NA,TRUE,f,f,NA,NA,NA,3,6,"12,8,3,11,2,10,6,5,14,1,15,9,13,4,7"
14613,commdev-image-keyboard-response,504,992150,learnblock2,730,img/planet12_right.png,12,Community 1,NA,TRUE,j,j,NA,NA,NA,3,6,"12,8,3,11,2,10,6,5,14,1,15,9,13,4,7"
14613,commdev-image-keyboard-response,505,993403,learnblock2,778,img/planet2_right.png,2,Community 1,NA,TRUE,j,j,NA,NA,NA,3,6,"12,8,3,11,2,10,6,5,14,1,15,9,13,4,7"
14613,commdev-image-keyboard-response,506,994655,learnblock2,603,img/planet15_left.png,15,Community 3,NA,TRUE,f,f,NA,NA,NA,3,6,"12,8,3,11,2,10,6,5,14,1,15,9,13,4,7"
14613,commdev-image-keyboard-response,507,995908,learnblock2,660.3999999994412,img/planet13_left.png,13,Community 3,NA,TRUE,f,f,NA,NA,NA,3,6,"12,8,3,11,2,10,6,5,14,1,15,9,13,4,7"
14613,commdev-image-keyboard-response,508,997160,learnblock2,544.7000000001863,img/planet4_right.png,4,Community 3,NA,TRUE,j,j,NA,NA,NA,3,6,"12,8,3,11,2,10,6,5,14,1,15,9,13,4,7"
14613,commdev-image-keyboard-response,509,998412,learnblock2,834.8999999994412,img/planet7_right.png,7,Community 3,NA,TRUE,j,j,NA,NA,NA,3,6,"12,8,3,11,2,10,6,5,14,1,15,9,13,4,7"
14613,commdev-image-keyboard-response,510,999665,learnblock2,652,img/planet15_right.png,15,Community 3,NA,TRUE,j,j,NA,NA,NA,3,6,"12,8,3,11,2,10,6,5,14,1,15,9,13,4,7"
14613,commdev-image-keyboard-response,511,1000917,learnblock2,539.5,img/planet4_right.png,4,Community 3,NA,TRUE,j,j,NA,NA,NA,3,6,"12,8,3,11,2,10,6,5,14,1,15,9,13,4,7"
14613,commdev-image-keyboard-response,512,1002169,learnblock2,547.5,img/planet15_left.png,15,Community 3,NA,TRUE,f,f,NA,NA,NA,3,6,"12,8,3,11,2,10,6,5,14,1,15,9,13,4,7"
14613,commdev-image-keyboard-response,513,1003421,learnblock2,737.5,img/planet2_left.png,2,Community 1,NA,TRUE,f,f,NA,NA,NA,3,6,"12,8,3,11,2,10,6,5,14,1,15,9,13,4,7"
14613,commdev-image-keyboard-response,514,1004673,learnblock2,641.2000000001863,img/planet3_right.png,3,Community 1,NA,TRUE,j,j,NA,NA,NA,3,6,"12,8,3,11,2,10,6,5,14,1,15,9,13,4,7"
14613,commdev-image-keyboard-response,515,1005926,learnblock2,677.5999999996275,img/planet11_left.png,11,Community 1,NA,TRUE,f,f,NA,NA,NA,3,6,"12,8,3,11,2,10,6,5,14,1,15,9,13,4,7"
14613,commdev-image-keyboard-response,516,1007178,learnblock2,639.2999999998137,img/planet12_left.png,12,Community 1,NA,TRUE,f,f,NA,NA,NA,3,6,"12,8,3,11,2,10,6,5,14,1,15,9,13,4,7"
14613,commdev-image-keyboard-response,517,1008430,learnblock2,684.5,img/planet2_right.png,2,Community 1,NA,TRUE,j,j,NA,NA,NA,3,6,"12,8,3,11,2,10,6,5,14,1,15,9,13,4,7"
14613,commdev-image-keyboard-response,518,1009682,learnblock2,768.5,img/planet12_right.png,12,Community 1,NA,TRUE,j,j,NA,NA,NA,3,6,"12,8,3,11,2,10,6,5,14,1,15,9,13,4,7"
14613,commdev-image-keyboard-response,519,1010934,learnblock2,661.0999999996275,img/planet3_right.png,3,Community 1,NA,TRUE,j,j,NA,NA,NA,3,6,"12,8,3,11,2,10,6,5,14,1,15,9,13,4,7"
14613,commdev-image-keyboard-response,520,1012186,learnblock2,659,img/planet8_right.png,8,Community 1,NA,TRUE,j,j,NA,NA,NA,3,6,"12,8,3,11,2,10,6,5,14,1,15,9,13,4,7"
14613,commdev-image-keyboard-response,521,1013438,learnblock2,579.4000000003725,img/planet12_left.png,12,Community 1,NA,TRUE,f,f,NA,NA,NA,3,6,"12,8,3,11,2,10,6,5,14,1,15,9,13,4,7"
14613,commdev-image-keyboard-response,522,1014690,learnblock2,586.8999999994412,img/planet2_right.png,2,Community 1,NA,TRUE,j,j,NA,NA,NA,3,6,"12,8,3,11,2,10,6,5,14,1,15,9,13,4,7"
14613,commdev-image-keyboard-response,523,1015942,learnblock2,760.2999999998137,img/planet12_right.png,12,Community 1,NA,TRUE,j,j,NA,NA,NA,3,6,"12,8,3,11,2,10,6,5,14,1,15,9,13,4,7"
14613,commdev-image-keyboard-response,524,1017195,learnblock2,545.9000000003725,img/planet2_left.png,2,Community 1,NA,TRUE,f,f,NA,NA,NA,3,6,"12,8,3,11,2,10,6,5,14,1,15,9,13,4,7"
14613,commdev-image-keyboard-response,525,1018446,learnblock2,608,img/planet8_left.png,8,Community 1,NA,TRUE,f,f,NA,NA,NA,3,6,"12,8,3,11,2,10,6,5,14,1,15,9,13,4,7"
14613,commdev-image-keyboard-response,526,1019699,learnblock2,570.1000000005588,img/planet11_left.png,11,Community 1,NA,TRUE,f,f,NA,NA,NA,3,6,"12,8,3,11,2,10,6,5,14,1,15,9,13,4,7"
14613,commdev-image-keyboard-response,527,1020950,learnblock2,523.2999999998137,img/planet12_left.png,12,Community 1,NA,TRUE,f,f,NA,NA,NA,3,6,"12,8,3,11,2,10,6,5,14,1,15,9,13,4,7"
14613,commdev-image-keyboard-response,528,1022203,learnblock2,549.8000000007451,img/planet8_left.png,8,Community 1,NA,TRUE,f,f,NA,NA,NA,3,6,"12,8,3,11,2,10,6,5,14,1,15,9,13,4,7"
14613,commdev-image-keyboard-response,529,1023455,learnblock2,528.5999999996275,img/planet12_right.png,12,Community 1,NA,TRUE,j,j,NA,NA,NA,3,6,"12,8,3,11,2,10,6,5,14,1,15,9,13,4,7"
14613,commdev-image-keyboard-response,530,1024708,learnblock2,892.7000000001863,img/planet8_right.png,8,Community 1,NA,TRUE,j,j,NA,NA,NA,3,6,"12,8,3,11,2,10,6,5,14,1,15,9,13,4,7"
14613,commdev-image-keyboard-response,531,1025960,learnblock2,745.2000000001863,img/planet3_left.png,3,Community 1,NA,TRUE,f,f,NA,NA,NA,3,6,"12,8,3,11,2,10,6,5,14,1,15,9,13,4,7"
14613,commdev-image-keyboard-response,532,1027212,learnblock2,898.1000000005588,img/planet8_right.png,8,Community 1,NA,TRUE,j,j,NA,NA,NA,3,6,"12,8,3,11,2,10,6,5,14,1,15,9,13,4,7"
14613,commdev-image-keyboard-response,533,1028464,learnblock2,592.6999999992549,img/planet12_left.png,12,Community 1,NA,TRUE,f,f,NA,NA,NA,3,6,"12,8,3,11,2,10,6,5,14,1,15,9,13,4,7"
14613,commdev-image-keyboard-response,534,1029717,learnblock2,640.5,img/planet8_right.png,8,Community 1,NA,TRUE,j,j,NA,NA,NA,3,6,"12,8,3,11,2,10,6,5,14,1,15,9,13,4,7"
14613,commdev-image-keyboard-response,535,1030969,learnblock2,504.90000000037253,img/planet2_right.png,2,Community 1,NA,TRUE,j,j,NA,NA,NA,3,6,"12,8,3,11,2,10,6,5,14,1,15,9,13,4,7"
14613,commdev-image-keyboard-response,536,1032221,learnblock2,612,img/planet3_left.png,3,Community 1,NA,TRUE,f,f,NA,NA,NA,3,6,"12,8,3,11,2,10,6,5,14,1,15,9,13,4,7"
14613,commdev-image-keyboard-response,537,1033473,learnblock2,591.3999999994412,img/planet8_left.png,8,Community 1,NA,TRUE,f,f,NA,NA,NA,3,6,"12,8,3,11,2,10,6,5,14,1,15,9,13,4,7"
14613,commdev-image-keyboard-response,538,1034725,learnblock2,589.3999999994412,img/planet12_right.png,12,Community 1,NA,TRUE,j,j,NA,NA,NA,3,6,"12,8,3,11,2,10,6,5,14,1,15,9,13,4,7"
14613,commdev-image-keyboard-response,539,1035978,learnblock2,562.2000000001863,img/planet2_right.png,2,Community 1,NA,TRUE,j,j,NA,NA,NA,3,6,"12,8,3,11,2,10,6,5,14,1,15,9,13,4,7"
14613,commdev-image-keyboard-response,540,1037230,learnblock2,817.2000000001863,img/planet3_right.png,3,Community 1,NA,TRUE,j,j,NA,NA,NA,3,6,"12,8,3,11,2,10,6,5,14,1,15,9,13,4,7"
14613,commdev-image-keyboard-response,541,1038482,learnblock2,643.0999999996275,img/planet11_left.png,11,Community 1,NA,TRUE,f,f,NA,NA,NA,3,6,"12,8,3,11,2,10,6,5,14,1,15,9,13,4,7"
14613,commdev-image-keyboard-response,542,1039734,learnblock2,640.5,img/planet12_left.png,12,Community 1,NA,TRUE,f,f,NA,NA,NA,3,6,"12,8,3,11,2,10,6,5,14,1,15,9,13,4,7"
14613,commdev-image-keyboard-response,543,1040987,learnblock2,460.5,img/planet2_right.png,2,Community 1,NA,TRUE,j,j,NA,NA,NA,3,6,"12,8,3,11,2,10,6,5,14,1,15,9,13,4,7"
14613,commdev-image-keyboard-response,544,1042239,learnblock2,922.7000000001863,img/planet15_left.png,15,Community 3,NA,TRUE,f,f,NA,NA,NA,3,6,"12,8,3,11,2,10,6,5,14,1,15,9,13,4,7"
14613,commdev-image-keyboard-response,545,1043491,learnblock2,586.5,img/planet2_left.png,2,Community 1,NA,TRUE,f,f,NA,NA,NA,3,6,"12,8,3,11,2,10,6,5,14,1,15,9,13,4,7"
14613,commdev-image-keyboard-response,546,1044743,learnblock2,619.7000000001863,img/planet12_left.png,12,Community 1,NA,TRUE,f,f,NA,NA,NA,3,6,"12,8,3,11,2,10,6,5,14,1,15,9,13,4,7"
14613,commdev-image-keyboard-response,547,1045995,learnblock2,643.7000000001863,img/planet3_right.png,3,Community 1,NA,TRUE,j,j,NA,NA,NA,3,6,"12,8,3,11,2,10,6,5,14,1,15,9,13,4,7"
14613,commdev-image-keyboard-response,548,1047247,learnblock2,641.3999999994412,img/planet2_left.png,2,Community 1,NA,TRUE,f,f,NA,NA,NA,3,6,"12,8,3,11,2,10,6,5,14,1,15,9,13,4,7"
14613,commdev-image-keyboard-response,549,1048499,learnblock2,570.3000000007451,img/planet15_right.png,15,Community 3,NA,TRUE,j,j,NA,NA,NA,3,6,"12,8,3,11,2,10,6,5,14,1,15,9,13,4,7"
14613,commdev-image-keyboard-response,550,1049751,learnblock2,787.7999999998137,img/planet7_right.png,7,Community 3,NA,TRUE,j,j,NA,NA,NA,3,6,"12,8,3,11,2,10,6,5,14,1,15,9,13,4,7"
14613,commdev-image-keyboard-response,551,1051003,learnblock2,688.7000000001863,img/planet13_right.png,13,Community 3,NA,TRUE,j,j,NA,NA,NA,3,6,"12,8,3,11,2,10,6,5,14,1,15,9,13,4,7"
14613,commdev-image-keyboard-response,552,1052255,learnblock2,643.8999999994412,img/planet15_right.png,15,Community 3,NA,TRUE,j,j,NA,NA,NA,3,6,"12,8,3,11,2,10,6,5,14,1,15,9,13,4,7"
14613,commdev-image-keyboard-response,553,1053508,learnblock2,672.9000000003725,img/planet4_right.png,4,Community 3,NA,TRUE,j,j,NA,NA,NA,3,6,"12,8,3,11,2,10,6,5,14,1,15,9,13,4,7"
14613,commdev-image-keyboard-response,554,1054760,learnblock2,675.1999999992549,img/planet9_left.png,9,Community 3,NA,TRUE,f,f,NA,NA,NA,3,6,"12,8,3,11,2,10,6,5,14,1,15,9,13,4,7"
14613,commdev-image-keyboard-response,555,1056013,learnblock2,677.6000000005588,img/planet7_right.png,7,Community 3,NA,TRUE,j,j,NA,NA,NA,3,6,"12,8,3,11,2,10,6,5,14,1,15,9,13,4,7"
14613,commdev-image-keyboard-response,556,1057265,learnblock2,695.3999999994412,img/planet15_right.png,15,Community 3,NA,TRUE,j,j,NA,NA,NA,3,6,"12,8,3,11,2,10,6,5,14,1,15,9,13,4,7"
14613,commdev-image-keyboard-response,557,1058517,learnblock2,591.6000000005588,img/planet2_right.png,2,Community 1,NA,TRUE,j,j,NA,NA,NA,3,6,"12,8,3,11,2,10,6,5,14,1,15,9,13,4,7"
14613,commdev-image-keyboard-response,558,1059769,learnblock2,674.5,img/planet15_left.png,15,Community 3,NA,TRUE,f,f,NA,NA,NA,3,6,"12,8,3,11,2,10,6,5,14,1,15,9,13,4,7"
14613,commdev-image-keyboard-response,559,1061021,learnblock2,631.2000000001863,img/planet13_left.png,13,Community 3,NA,TRUE,f,f,NA,NA,NA,3,6,"12,8,3,11,2,10,6,5,14,1,15,9,13,4,7"
14613,commdev-image-keyboard-response,560,1062274,learnblock2,581.7999999998137,img/planet9_left.png,9,Community 3,NA,TRUE,f,f,NA,NA,NA,3,6,"12,8,3,11,2,10,6,5,14,1,15,9,13,4,7"
14613,commdev-image-keyboard-response,561,1063525,learnblock2,821.5,img/planet5_left.png,5,Community 2,NA,TRUE,f,f,NA,NA,NA,3,6,"12,8,3,11,2,10,6,5,14,1,15,9,13,4,7"
14613,commdev-image-keyboard-response,562,1064777,learnblock2,536.2000000001863,img/planet14_left.png,14,Community 2,NA,TRUE,f,f,NA,NA,NA,3,6,"12,8,3,11,2,10,6,5,14,1,15,9,13,4,7"
14613,commdev-image-keyboard-response,563,1066029,learnblock2,523.4000000003725,img/planet5_right.png,5,Community 2,NA,TRUE,j,j,NA,NA,NA,3,6,"12,8,3,11,2,10,6,5,14,1,15,9,13,4,7"
14613,commdev-image-keyboard-response,564,1067281,learnblock2,515,img/planet9_left.png,9,Community 3,NA,TRUE,f,f,NA,NA,NA,3,6,"12,8,3,11,2,10,6,5,14,1,15,9,13,4,7"
14613,commdev-image-keyboard-response,565,1068534,learnblock2,531.7999999998137,img/planet4_right.png,4,Community 3,NA,TRUE,j,j,NA,NA,NA,3,6,"12,8,3,11,2,10,6,5,14,1,15,9,13,4,7"
14613,commdev-image-keyboard-response,566,1069786,learnblock2,509.79999999981374,img/planet7_left.png,7,Community 3,NA,TRUE,f,f,NA,NA,NA,3,6,"12,8,3,11,2,10,6,5,14,1,15,9,13,4,7"
14613,commdev-image-keyboard-response,567,1071038,learnblock2,702.7000000001863,img/planet9_left.png,9,Community 3,NA,TRUE,f,f,NA,NA,NA,3,6,"12,8,3,11,2,10,6,5,14,1,15,9,13,4,7"
14613,commdev-image-keyboard-response,568,1072290,learnblock2,646.4000000003725,img/planet5_right.png,5,Community 2,NA,TRUE,j,j,NA,NA,NA,3,6,"12,8,3,11,2,10,6,5,14,1,15,9,13,4,7"
14613,commdev-image-keyboard-response,569,1073542,learnblock2,798.9000000003725,img/planet6_right.png,6,Community 2,NA,TRUE,j,j,NA,NA,NA,3,6,"12,8,3,11,2,10,6,5,14,1,15,9,13,4,7"
14613,commdev-image-keyboard-response,570,1074794,learnblock2,555.2999999998137,img/planet1_right.png,1,Community 2,NA,TRUE,j,j,NA,NA,NA,3,6,"12,8,3,11,2,10,6,5,14,1,15,9,13,4,7"
14613,commdev-image-keyboard-response,571,1076046,learnblock2,660.5,img/planet6_right.png,6,Community 2,NA,TRUE,j,j,NA,NA,NA,3,6,"12,8,3,11,2,10,6,5,14,1,15,9,13,4,7"
14613,commdev-image-keyboard-response,572,1077298,learnblock2,480.3999999994412,img/planet1_left.png,1,Community 2,NA,TRUE,f,f,NA,NA,NA,3,6,"12,8,3,11,2,10,6,5,14,1,15,9,13,4,7"
14613,commdev-image-keyboard-response,573,1078550,learnblock2,836.9000000003725,img/planet5_left.png,5,Community 2,NA,TRUE,f,f,NA,NA,NA,3,6,"12,8,3,11,2,10,6,5,14,1,15,9,13,4,7"
14613,commdev-image-keyboard-response,574,1079802,learnblock2,781,img/planet6_right.png,6,Community 2,NA,TRUE,j,j,NA,NA,NA,3,6,"12,8,3,11,2,10,6,5,14,1,15,9,13,4,7"
14613,commdev-image-keyboard-response,575,1081054,learnblock2,485.40000000037253,img/planet1_right.png,1,Community 2,NA,TRUE,j,j,NA,NA,NA,3,6,"12,8,3,11,2,10,6,5,14,1,15,9,13,4,7"
14613,commdev-image-keyboard-response,576,1082306,learnblock2,565.5,img/planet14_right.png,14,Community 2,NA,TRUE,j,j,NA,NA,NA,3,6,"12,8,3,11,2,10,6,5,14,1,15,9,13,4,7"
14613,commdev-image-keyboard-response,577,1083559,learnblock2,616.5,img/planet5_right.png,5,Community 2,NA,TRUE,j,j,NA,NA,NA,3,6,"12,8,3,11,2,10,6,5,14,1,15,9,13,4,7"
14613,commdev-image-keyboard-response,578,1084811,learnblock2,547.5,img/planet14_right.png,14,Community 2,NA,TRUE,j,j,NA,NA,NA,3,6,"12,8,3,11,2,10,6,5,14,1,15,9,13,4,7"
14613,commdev-image-keyboard-response,579,1086063,learnblock2,561.7999999998137,img/planet6_left.png,6,Community 2,NA,TRUE,f,f,NA,NA,NA,3,6,"12,8,3,11,2,10,6,5,14,1,15,9,13,4,7"
14613,commdev-image-keyboard-response,580,1087315,learnblock2,604.4000000003725,img/planet1_right.png,1,Community 2,NA,TRUE,j,j,NA,NA,NA,3,6,"12,8,3,11,2,10,6,5,14,1,15,9,13,4,7"
14613,commdev-image-keyboard-response,581,1088567,learnblock2,779.6999999992549,img/planet6_right.png,6,Community 2,NA,TRUE,j,j,NA,NA,NA,3,6,"12,8,3,11,2,10,6,5,14,1,15,9,13,4,7"
14613,commdev-image-keyboard-response,582,1089819,learnblock2,698.5,img/planet14_right.png,14,Community 2,NA,TRUE,j,j,NA,NA,NA,3,6,"12,8,3,11,2,10,6,5,14,1,15,9,13,4,7"
14613,commdev-image-keyboard-response,583,1091071,learnblock2,559.5,img/planet10_left.png,10,Community 2,NA,TRUE,f,f,NA,NA,NA,3,6,"12,8,3,11,2,10,6,5,14,1,15,9,13,4,7"
14613,commdev-image-keyboard-response,584,1092323,learnblock2,860.9000000003725,img/planet6_right.png,6,Community 2,NA,TRUE,j,j,NA,NA,NA,3,6,"12,8,3,11,2,10,6,5,14,1,15,9,13,4,7"
14613,commdev-image-keyboard-response,585,1093575,learnblock2,1004.1000000005588,img/planet5_right.png,5,Community 2,NA,TRUE,j,j,NA,NA,NA,3,6,"12,8,3,11,2,10,6,5,14,1,15,9,13,4,7"
14613,commdev-image-keyboard-response,586,1094827,learnblock2,685,img/planet1_right.png,1,Community 2,NA,TRUE,j,j,NA,NA,NA,3,6,"12,8,3,11,2,10,6,5,14,1,15,9,13,4,7"
14613,commdev-image-keyboard-response,587,1096079,learnblock2,828.4000000003725,img/planet14_left.png,14,Community 2,NA,TRUE,f,f,NA,NA,NA,3,6,"12,8,3,11,2,10,6,5,14,1,15,9,13,4,7"
