subject_id,trial_type,trial_index,time_elapsed,block,rt,stimulus,planet,community,response,correct,key_press,learning_correct_response,parse,init_locations,final_locations,browser_interactions,num_comp,planet_map
15454,commdev-instructions,7,255931,NA,1499.5999999940395,"<p>In this game, you are a scientist on board a space shuttle. </p><p> On each mission, you will visit planets all across the universe.</p><img src=""img/controlroom.jpg"" width=300vw>",NA,NA,NA,NA,NA,NA,NA,NA,NA,21,6,"6,5,4,13,12,9,3,2,1,10,11,8,14,7,15"
15454,commdev-instructions,8,258546,NA,536.2000000029802,"<p>Here are a few planets you might see:</p><img src=""img/practice1.png"" width=200vw><img src=""img/practice2.png"" width=200vw><img src=""img/practice3.png"" width=200vw>",NA,NA,NA,NA,NA,NA,NA,NA,NA,21,6,"6,5,4,13,12,9,3,2,1,10,11,8,14,7,15"
15454,commdev-instructions,9,266719,NA,758.0999999940395,"<p>Your job as a scientist is to record which direction the winds are moving on each planet.</p><p>There are two types of wind directions:</p><img src=""img/practice1_left.png"" width=200vw><img src=""img/practice1_right.png"" width=200vw>",NA,NA,NA,NA,NA,NA,NA,NA,NA,21,6,"6,5,4,13,12,9,3,2,1,10,11,8,14,7,15"
15454,commdev-instructions,10,272064,NA,465,"<p>If the winds are moving this way, press the letter <strong>F</strong> on the keyboard as fast as you can.</p><img src=""img/leftwind.png"" width=250vw>",NA,NA,NA,NA,NA,NA,NA,NA,NA,21,6,"6,5,4,13,12,9,3,2,1,10,11,8,14,7,15"
15454,commdev-instructions,11,277279,NA,697.4000000059605,"<p>If the winds are moving this way, press the letter <strong>J</strong> on the keyboard as fast as you can.</p><img src=""img/rightwind.png"" width=350vw>",NA,NA,NA,NA,NA,NA,NA,NA,NA,21,6,"6,5,4,13,12,9,3,2,1,10,11,8,14,7,15"
15454,commdev-instructions,12,282384,NA,677,<p>You will have 1 second to respond. Try to respond before the time runs out!,NA,NA,NA,NA,NA,NA,NA,NA,NA,21,6,"6,5,4,13,12,9,3,2,1,10,11,8,14,7,15"
15454,commdev-instructions,13,288436,NA,610.1000000089407,<p>The planets you will visit will look different from each other.</p><p>You should respond <strong>only</strong> based on wind direction.,NA,NA,NA,NA,NA,NA,NA,NA,NA,21,6,"6,5,4,13,12,9,3,2,1,10,11,8,14,7,15"
15454,commdev-instructions,14,294252,NA,635.4000000059605,"<p> Ready to start the practice round? </p><p> Remember, press <strong>F</strong> or <strong>J</strong> depending on the wind direction.<br><img src=""img/categorize_planet_example.png""",NA,NA,NA,NA,NA,NA,NA,NA,NA,21,6,"6,5,4,13,12,9,3,2,1,10,11,8,14,7,15"
15454,commdev-instructions,26,351603,NA,8358.199999988079,"<p>Great, now try a short practice mission. </p><p> This time, you will have 1 second to respond and you won't know whether you pressed the right or wrong key for each planet.</p>",NA,NA,NA,NA,NA,NA,NA,NA,NA,21,6,"6,5,4,13,12,9,3,2,1,10,11,8,14,7,15"
15454,commdev-image-keyboard-response,27,352966,practice,825.9000000059605,img/practice3_left.png,NA,Number not found in mappings,NA,TRUE,f,f,NA,NA,NA,21,6,"6,5,4,13,12,9,3,2,1,10,11,8,14,7,15"
15454,commdev-image-keyboard-response,28,354227,practice,991.2999999970198,img/practice4_left.png,NA,Number not found in mappings,NA,TRUE,f,f,NA,NA,NA,21,6,"6,5,4,13,12,9,3,2,1,10,11,8,14,7,15"
15454,commdev-image-keyboard-response,29,355490,practice,731.8000000119209,img/practice3_right.png,NA,Number not found in mappings,NA,TRUE,j,j,NA,NA,NA,21,6,"6,5,4,13,12,9,3,2,1,10,11,8,14,7,15"
15454,commdev-image-keyboard-response,30,356753,practice,622.7000000029802,img/practice4_right.png,NA,Number not found in mappings,NA,TRUE,j,j,NA,NA,NA,21,6,"6,5,4,13,12,9,3,2,1,10,11,8,14,7,15"
15454,commdev-image-keyboard-response,31,358021,practice,714.7999999970198,img/practice2_right.png,NA,Number not found in mappings,NA,TRUE,j,j,NA,NA,NA,21,6,"6,5,4,13,12,9,3,2,1,10,11,8,14,7,15"
15454,commdev-image-keyboard-response,32,359280,practice,710.5,img/practice3_right.png,NA,Number not found in mappings,NA,TRUE,j,j,NA,NA,NA,21,6,"6,5,4,13,12,9,3,2,1,10,11,8,14,7,15"
15454,commdev-image-keyboard-response,33,360545,practice,729.4000000059605,img/practice1_left.png,NA,Number not found in mappings,NA,TRUE,f,f,NA,NA,NA,21,6,"6,5,4,13,12,9,3,2,1,10,11,8,14,7,15"
15454,commdev-image-keyboard-response,34,361803,practice,896.7000000029802,img/practice2_left.png,NA,Number not found in mappings,NA,TRUE,f,f,NA,NA,NA,21,6,"6,5,4,13,12,9,3,2,1,10,11,8,14,7,15"
15454,commdev-instructions,35,374366,NA,3001.5,"<p>Great job with the practice round.</p><p>During real missions, you won't know whether you pressed the right or wrong key for each planet.</p><p>But between missions, we will tell you how you did overall.</p>",NA,NA,NA,NA,NA,NA,NA,NA,NA,21,6,"6,5,4,13,12,9,3,2,1,10,11,8,14,7,15"
15454,commdev-instructions,36,383708,NA,1091.5999999940395,<p>Try your best! You will be paid a bonus based on how many correct responses you make!</p><p>Responses that are too slow will not count toward your bonus.</p>,NA,NA,NA,NA,NA,NA,NA,NA,NA,21,6,"6,5,4,13,12,9,3,2,1,10,11,8,14,7,15"
15454,commdev-instructions,37,390320,NA,414.70000000298023,"<p>You are almost ready to start the real game.</p><p> First, we are going to ask you some questions about how the game works.</p>",NA,NA,NA,NA,NA,NA,NA,NA,NA,21,6,"6,5,4,13,12,9,3,2,1,10,11,8,14,7,15"
15454,commdev-instructions,46,485719,NA,1153.5,"<p> Nice work! It is now time to start the real game.<p></p>You will go on two missions to record wind directions of different planets.<p></p>Each one will take about 5 minutes. You will get to take a break between missions.<p><p> Remember, press <strong>F</strong> or <strong>J</strong> depending on the wind direction. Good luck!<br><img src=""img/categorize_planet_example.png""",NA,NA,NA,NA,NA,NA,NA,NA,NA,21,6,"6,5,4,13,12,9,3,2,1,10,11,8,14,7,15"
15454,commdev-image-keyboard-response,48,489077,learnblock1,933.7999999970198,img/planet13_right.png,13,Community 1,NA,TRUE,j,j,NA,NA,NA,21,6,"6,5,4,13,12,9,3,2,1,10,11,8,14,7,15"
15454,commdev-image-keyboard-response,49,490336,learnblock1,756.9000000059605,img/planet4_right.png,4,Community 1,NA,TRUE,j,j,NA,NA,NA,21,6,"6,5,4,13,12,9,3,2,1,10,11,8,14,7,15"
15454,commdev-image-keyboard-response,50,491601,learnblock1,628.1000000089407,img/planet13_right.png,13,Community 1,NA,TRUE,j,j,NA,NA,NA,21,6,"6,5,4,13,12,9,3,2,1,10,11,8,14,7,15"
15454,commdev-image-keyboard-response,51,492855,learnblock1,758.2000000029802,img/planet6_left.png,6,Community 1,NA,TRUE,f,f,NA,NA,NA,21,6,"6,5,4,13,12,9,3,2,1,10,11,8,14,7,15"
15454,commdev-image-keyboard-response,52,494123,learnblock1,818.7000000029802,img/planet12_right.png,12,Community 1,NA,TRUE,j,j,NA,NA,NA,21,6,"6,5,4,13,12,9,3,2,1,10,11,8,14,7,15"
15454,commdev-image-keyboard-response,53,495379,learnblock1,835.6000000089407,img/planet4_right.png,4,Community 1,NA,TRUE,j,j,NA,NA,NA,21,6,"6,5,4,13,12,9,3,2,1,10,11,8,14,7,15"
15454,commdev-image-keyboard-response,54,496641,learnblock1,685.0999999940395,img/planet12_left.png,12,Community 1,NA,TRUE,f,f,NA,NA,NA,21,6,"6,5,4,13,12,9,3,2,1,10,11,8,14,7,15"
15454,commdev-image-keyboard-response,55,497909,learnblock1,736.7000000029802,img/planet4_right.png,4,Community 1,NA,TRUE,j,j,NA,NA,NA,21,6,"6,5,4,13,12,9,3,2,1,10,11,8,14,7,15"
15454,commdev-image-keyboard-response,56,499162,learnblock1,735.6000000089407,img/planet12_right.png,12,Community 1,NA,TRUE,j,j,NA,NA,NA,21,6,"6,5,4,13,12,9,3,2,1,10,11,8,14,7,15"
15454,commdev-image-keyboard-response,57,500429,learnblock1,646,img/planet5_left.png,5,Community 1,NA,TRUE,f,f,NA,NA,NA,21,6,"6,5,4,13,12,9,3,2,1,10,11,8,14,7,15"
15454,commdev-image-keyboard-response,58,501690,learnblock1,666.8999999910593,img/planet6_right.png,6,Community 1,NA,TRUE,j,j,NA,NA,NA,21,6,"6,5,4,13,12,9,3,2,1,10,11,8,14,7,15"
15454,commdev-image-keyboard-response,59,502946,learnblock1,905.7000000029802,img/planet12_right.png,12,Community 1,NA,TRUE,j,j,NA,NA,NA,21,6,"6,5,4,13,12,9,3,2,1,10,11,8,14,7,15"
15454,commdev-image-keyboard-response,60,504212,learnblock1,721.1999999880791,img/planet4_right.png,4,Community 1,NA,TRUE,j,j,NA,NA,NA,21,6,"6,5,4,13,12,9,3,2,1,10,11,8,14,7,15"
15454,commdev-image-keyboard-response,61,505471,learnblock1,620.5,img/planet12_right.png,12,Community 1,NA,TRUE,j,j,NA,NA,NA,21,6,"6,5,4,13,12,9,3,2,1,10,11,8,14,7,15"
15454,commdev-image-keyboard-response,62,506727,learnblock1,673,img/planet5_left.png,5,Community 1,NA,TRUE,f,f,NA,NA,NA,21,6,"6,5,4,13,12,9,3,2,1,10,11,8,14,7,15"
15454,commdev-image-keyboard-response,63,507992,learnblock1,683.4000000059605,img/planet4_left.png,4,Community 1,NA,TRUE,f,f,NA,NA,NA,21,6,"6,5,4,13,12,9,3,2,1,10,11,8,14,7,15"
15454,commdev-image-keyboard-response,64,509259,learnblock1,653,img/planet13_left.png,13,Community 1,NA,TRUE,f,f,NA,NA,NA,21,6,"6,5,4,13,12,9,3,2,1,10,11,8,14,7,15"
15454,commdev-image-keyboard-response,65,510516,learnblock1,694.5999999940395,img/planet5_right.png,5,Community 1,NA,TRUE,j,j,NA,NA,NA,21,6,"6,5,4,13,12,9,3,2,1,10,11,8,14,7,15"
15454,commdev-image-keyboard-response,66,511783,learnblock1,662.7000000029802,img/planet12_right.png,12,Community 1,NA,TRUE,j,j,NA,NA,NA,21,6,"6,5,4,13,12,9,3,2,1,10,11,8,14,7,15"
15454,commdev-image-keyboard-response,67,513049,learnblock1,668.6000000089407,img/planet5_left.png,5,Community 1,NA,TRUE,f,f,NA,NA,NA,21,6,"6,5,4,13,12,9,3,2,1,10,11,8,14,7,15"
15454,commdev-image-keyboard-response,68,514307,learnblock1,839.1000000089407,img/planet13_right.png,13,Community 1,NA,TRUE,j,j,NA,NA,NA,21,6,"6,5,4,13,12,9,3,2,1,10,11,8,14,7,15"
15454,commdev-image-keyboard-response,69,515559,learnblock1,727.1000000089407,img/planet5_right.png,5,Community 1,NA,TRUE,j,j,NA,NA,NA,21,6,"6,5,4,13,12,9,3,2,1,10,11,8,14,7,15"
15454,commdev-image-keyboard-response,70,516818,learnblock1,638.2999999970198,img/planet4_right.png,4,Community 1,NA,TRUE,j,j,NA,NA,NA,21,6,"6,5,4,13,12,9,3,2,1,10,11,8,14,7,15"
15454,commdev-image-keyboard-response,71,518076,learnblock1,500.59999999403954,img/planet13_right.png,13,Community 1,NA,TRUE,j,j,NA,NA,NA,21,6,"6,5,4,13,12,9,3,2,1,10,11,8,14,7,15"
15454,commdev-image-keyboard-response,72,519333,learnblock1,571.2999999970198,img/planet9_right.png,9,Community 2,NA,TRUE,j,j,NA,NA,NA,21,6,"6,5,4,13,12,9,3,2,1,10,11,8,14,7,15"
15454,commdev-image-keyboard-response,73,520589,learnblock1,534.5,img/planet13_right.png,13,Community 1,NA,TRUE,j,j,NA,NA,NA,21,6,"6,5,4,13,12,9,3,2,1,10,11,8,14,7,15"
15454,commdev-image-keyboard-response,74,521847,learnblock1,611.1999999880791,img/planet9_left.png,9,Community 2,NA,TRUE,f,f,NA,NA,NA,21,6,"6,5,4,13,12,9,3,2,1,10,11,8,14,7,15"
15454,commdev-image-keyboard-response,75,523103,learnblock1,555.3000000119209,img/planet10_left.png,10,Community 2,NA,TRUE,f,f,NA,NA,NA,21,6,"6,5,4,13,12,9,3,2,1,10,11,8,14,7,15"
15454,commdev-image-keyboard-response,76,524367,learnblock1,546.2999999970198,img/planet9_right.png,9,Community 2,NA,TRUE,j,j,NA,NA,NA,21,6,"6,5,4,13,12,9,3,2,1,10,11,8,14,7,15"
15454,commdev-image-keyboard-response,77,525624,learnblock1,607,img/planet3_left.png,3,Community 2,NA,TRUE,f,f,NA,NA,NA,21,6,"6,5,4,13,12,9,3,2,1,10,11,8,14,7,15"
15454,commdev-image-keyboard-response,78,526881,learnblock1,569.5,img/planet1_right.png,1,Community 2,NA,TRUE,j,j,NA,NA,NA,21,6,"6,5,4,13,12,9,3,2,1,10,11,8,14,7,15"
15454,commdev-image-keyboard-response,79,528148,learnblock1,560.5,img/planet9_right.png,9,Community 2,NA,TRUE,j,j,NA,NA,NA,21,6,"6,5,4,13,12,9,3,2,1,10,11,8,14,7,15"
15454,commdev-image-keyboard-response,80,529403,learnblock1,645.3999999910593,img/planet13_left.png,13,Community 1,NA,TRUE,f,f,NA,NA,NA,21,6,"6,5,4,13,12,9,3,2,1,10,11,8,14,7,15"
15454,commdev-image-keyboard-response,81,530660,learnblock1,665.9000000059605,img/planet9_left.png,9,Community 2,NA,TRUE,f,f,NA,NA,NA,21,6,"6,5,4,13,12,9,3,2,1,10,11,8,14,7,15"
15454,commdev-image-keyboard-response,82,531915,learnblock1,533.7999999970198,img/planet13_left.png,13,Community 1,NA,TRUE,f,f,NA,NA,NA,21,6,"6,5,4,13,12,9,3,2,1,10,11,8,14,7,15"
15454,commdev-image-keyboard-response,83,533173,learnblock1,626.7000000029802,img/planet9_right.png,9,Community 2,NA,TRUE,j,j,NA,NA,NA,21,6,"6,5,4,13,12,9,3,2,1,10,11,8,14,7,15"
15454,commdev-image-keyboard-response,84,534429,learnblock1,643.2000000029802,img/planet13_right.png,13,Community 1,NA,FALSE,f,j,NA,NA,NA,21,6,"6,5,4,13,12,9,3,2,1,10,11,8,14,7,15"
15454,commdev-image-keyboard-response,85,535684,learnblock1,683.5,img/planet6_right.png,6,Community 1,NA,TRUE,j,j,NA,NA,NA,21,6,"6,5,4,13,12,9,3,2,1,10,11,8,14,7,15"
15454,commdev-image-keyboard-response,86,536950,learnblock1,636.5,img/planet4_left.png,4,Community 1,NA,TRUE,f,f,NA,NA,NA,21,6,"6,5,4,13,12,9,3,2,1,10,11,8,14,7,15"
15454,commdev-image-keyboard-response,87,538205,learnblock1,615.7999999970198,img/planet6_right.png,6,Community 1,NA,TRUE,j,j,NA,NA,NA,21,6,"6,5,4,13,12,9,3,2,1,10,11,8,14,7,15"
15454,commdev-image-keyboard-response,88,539459,learnblock1,1161,img/planet5_right.png,5,Community 1,NA,TRUE,j,j,NA,NA,NA,21,6,"6,5,4,13,12,9,3,2,1,10,11,8,14,7,15"
15454,commdev-image-keyboard-response,89,540715,learnblock1,750.0999999940395,img/planet12_left.png,12,Community 1,NA,TRUE,f,f,NA,NA,NA,21,6,"6,5,4,13,12,9,3,2,1,10,11,8,14,7,15"
15454,commdev-image-keyboard-response,90,541978,learnblock1,725,img/planet4_left.png,4,Community 1,NA,TRUE,f,f,NA,NA,NA,21,6,"6,5,4,13,12,9,3,2,1,10,11,8,14,7,15"
15454,commdev-image-keyboard-response,91,543230,learnblock1,606.2000000029802,img/planet12_right.png,12,Community 1,NA,TRUE,j,j,NA,NA,NA,21,6,"6,5,4,13,12,9,3,2,1,10,11,8,14,7,15"
15454,commdev-image-keyboard-response,92,544489,learnblock1,655,img/planet11_right.png,11,Community 3,NA,TRUE,j,j,NA,NA,NA,21,6,"6,5,4,13,12,9,3,2,1,10,11,8,14,7,15"
15454,commdev-image-keyboard-response,93,545747,learnblock1,648.5999999940395,img/planet14_right.png,14,Community 3,NA,TRUE,j,j,NA,NA,NA,21,6,"6,5,4,13,12,9,3,2,1,10,11,8,14,7,15"
15454,commdev-image-keyboard-response,94,547002,learnblock1,875.0999999940395,img/planet8_right.png,8,Community 3,NA,TRUE,j,j,NA,NA,NA,21,6,"6,5,4,13,12,9,3,2,1,10,11,8,14,7,15"
15454,commdev-image-keyboard-response,95,548256,learnblock1,561.7000000029802,img/planet2_right.png,2,Community 2,NA,TRUE,j,j,NA,NA,NA,21,6,"6,5,4,13,12,9,3,2,1,10,11,8,14,7,15"
15454,commdev-image-keyboard-response,96,549512,learnblock1,615.8999999910593,img/planet10_left.png,10,Community 2,NA,TRUE,f,f,NA,NA,NA,21,6,"6,5,4,13,12,9,3,2,1,10,11,8,14,7,15"
15454,commdev-image-keyboard-response,97,550768,learnblock1,589.7999999970198,img/planet2_right.png,2,Community 2,NA,TRUE,j,j,NA,NA,NA,21,6,"6,5,4,13,12,9,3,2,1,10,11,8,14,7,15"
15454,commdev-image-keyboard-response,98,552033,learnblock1,623.7000000029802,img/planet3_left.png,3,Community 2,NA,TRUE,f,f,NA,NA,NA,21,6,"6,5,4,13,12,9,3,2,1,10,11,8,14,7,15"
15454,commdev-image-keyboard-response,99,553297,learnblock1,579.7000000029802,img/planet9_right.png,9,Community 2,NA,TRUE,j,j,NA,NA,NA,21,6,"6,5,4,13,12,9,3,2,1,10,11,8,14,7,15"
15454,commdev-image-keyboard-response,100,554554,learnblock1,655.2000000029802,img/planet10_right.png,10,Community 2,NA,TRUE,j,j,NA,NA,NA,21,6,"6,5,4,13,12,9,3,2,1,10,11,8,14,7,15"
15454,commdev-image-keyboard-response,101,555809,learnblock1,763.2000000029802,img/planet3_right.png,3,Community 2,NA,TRUE,j,j,NA,NA,NA,21,6,"6,5,4,13,12,9,3,2,1,10,11,8,14,7,15"
15454,commdev-image-keyboard-response,102,557068,learnblock1,555.2999999970198,img/planet9_left.png,9,Community 2,NA,TRUE,f,f,NA,NA,NA,21,6,"6,5,4,13,12,9,3,2,1,10,11,8,14,7,15"
15454,commdev-image-keyboard-response,103,558321,learnblock1,615.4000000059605,img/planet13_right.png,13,Community 1,NA,TRUE,j,j,NA,NA,NA,21,6,"6,5,4,13,12,9,3,2,1,10,11,8,14,7,15"
15454,commdev-image-keyboard-response,104,559581,learnblock1,526.6000000089407,img/planet5_right.png,5,Community 1,NA,TRUE,j,j,NA,NA,NA,21,6,"6,5,4,13,12,9,3,2,1,10,11,8,14,7,15"
15454,commdev-image-keyboard-response,105,560836,learnblock1,747,img/planet6_left.png,6,Community 1,NA,TRUE,f,f,NA,NA,NA,21,6,"6,5,4,13,12,9,3,2,1,10,11,8,14,7,15"
15454,commdev-image-keyboard-response,106,562093,learnblock1,713.2999999970198,img/planet13_left.png,13,Community 1,NA,TRUE,f,f,NA,NA,NA,21,6,"6,5,4,13,12,9,3,2,1,10,11,8,14,7,15"
15454,commdev-image-keyboard-response,107,563351,learnblock1,688.5,img/planet4_right.png,4,Community 1,NA,TRUE,j,j,NA,NA,NA,21,6,"6,5,4,13,12,9,3,2,1,10,11,8,14,7,15"
15454,commdev-image-keyboard-response,108,564607,learnblock1,665,img/planet13_left.png,13,Community 1,NA,TRUE,f,f,NA,NA,NA,21,6,"6,5,4,13,12,9,3,2,1,10,11,8,14,7,15"
15454,commdev-image-keyboard-response,109,565866,learnblock1,580.5,img/planet6_right.png,6,Community 1,NA,TRUE,j,j,NA,NA,NA,21,6,"6,5,4,13,12,9,3,2,1,10,11,8,14,7,15"
15454,commdev-image-keyboard-response,110,567121,learnblock1,693.9000000059605,img/planet13_right.png,13,Community 1,NA,TRUE,j,j,NA,NA,NA,21,6,"6,5,4,13,12,9,3,2,1,10,11,8,14,7,15"
15454,commdev-image-keyboard-response,111,568386,learnblock1,616,img/planet6_left.png,6,Community 1,NA,TRUE,f,f,NA,NA,NA,21,6,"6,5,4,13,12,9,3,2,1,10,11,8,14,7,15"
15454,commdev-image-keyboard-response,112,569642,learnblock1,990.2000000029802,img/planet5_right.png,5,Community 1,NA,TRUE,j,j,NA,NA,NA,21,6,"6,5,4,13,12,9,3,2,1,10,11,8,14,7,15"
15454,commdev-image-keyboard-response,113,570897,learnblock1,687.2999999970198,img/planet4_left.png,4,Community 1,NA,TRUE,f,f,NA,NA,NA,21,6,"6,5,4,13,12,9,3,2,1,10,11,8,14,7,15"
15454,commdev-image-keyboard-response,114,572155,learnblock1,632.5,img/planet13_right.png,13,Community 1,NA,TRUE,j,j,NA,NA,NA,21,6,"6,5,4,13,12,9,3,2,1,10,11,8,14,7,15"
15454,commdev-image-keyboard-response,115,573416,learnblock1,656.5999999940395,img/planet6_left.png,6,Community 1,NA,TRUE,f,f,NA,NA,NA,21,6,"6,5,4,13,12,9,3,2,1,10,11,8,14,7,15"
15454,commdev-image-keyboard-response,116,574670,learnblock1,695.3999999910593,img/planet5_right.png,5,Community 1,NA,TRUE,j,j,NA,NA,NA,21,6,"6,5,4,13,12,9,3,2,1,10,11,8,14,7,15"
15454,commdev-image-keyboard-response,117,575927,learnblock1,752.5,img/planet13_left.png,13,Community 1,NA,TRUE,f,f,NA,NA,NA,21,6,"6,5,4,13,12,9,3,2,1,10,11,8,14,7,15"
15454,commdev-image-keyboard-response,118,577179,learnblock1,626.1000000089407,img/planet4_right.png,4,Community 1,NA,TRUE,j,j,NA,NA,NA,21,6,"6,5,4,13,12,9,3,2,1,10,11,8,14,7,15"
15454,commdev-image-keyboard-response,119,578444,learnblock1,549.8999999910593,img/planet12_left.png,12,Community 1,NA,TRUE,f,f,NA,NA,NA,21,6,"6,5,4,13,12,9,3,2,1,10,11,8,14,7,15"
15454,commdev-image-keyboard-response,120,579701,learnblock1,573.3999999910593,img/planet5_right.png,5,Community 1,NA,TRUE,j,j,NA,NA,NA,21,6,"6,5,4,13,12,9,3,2,1,10,11,8,14,7,15"
15454,commdev-image-keyboard-response,121,580962,learnblock1,659.2999999970198,img/planet6_left.png,6,Community 1,NA,TRUE,f,f,NA,NA,NA,21,6,"6,5,4,13,12,9,3,2,1,10,11,8,14,7,15"
15454,commdev-image-keyboard-response,122,582228,learnblock1,703,img/planet12_left.png,12,Community 1,NA,TRUE,f,f,NA,NA,NA,21,6,"6,5,4,13,12,9,3,2,1,10,11,8,14,7,15"
15454,commdev-image-keyboard-response,123,583479,learnblock1,534.0999999940395,img/planet11_right.png,11,Community 3,NA,TRUE,j,j,NA,NA,NA,21,6,"6,5,4,13,12,9,3,2,1,10,11,8,14,7,15"
15454,commdev-image-keyboard-response,124,584734,learnblock1,591,img/planet15_left.png,15,Community 3,NA,TRUE,f,f,NA,NA,NA,21,6,"6,5,4,13,12,9,3,2,1,10,11,8,14,7,15"
15454,commdev-image-keyboard-response,125,585993,learnblock1,469.6000000089407,img/planet14_right.png,14,Community 3,NA,TRUE,j,j,NA,NA,NA,21,6,"6,5,4,13,12,9,3,2,1,10,11,8,14,7,15"
15454,commdev-image-keyboard-response,126,587248,learnblock1,668.6000000089407,img/planet7_left.png,7,Community 3,NA,TRUE,f,f,NA,NA,NA,21,6,"6,5,4,13,12,9,3,2,1,10,11,8,14,7,15"
15454,commdev-image-keyboard-response,127,588502,learnblock1,565.7000000029802,img/planet15_right.png,15,Community 3,NA,TRUE,j,j,NA,NA,NA,21,6,"6,5,4,13,12,9,3,2,1,10,11,8,14,7,15"
15454,commdev-image-keyboard-response,128,589756,learnblock1,638.2000000029802,img/planet14_left.png,14,Community 3,NA,TRUE,f,f,NA,NA,NA,21,6,"6,5,4,13,12,9,3,2,1,10,11,8,14,7,15"
15454,commdev-image-keyboard-response,129,591015,learnblock1,567.7999999970198,img/planet7_right.png,7,Community 3,NA,TRUE,j,j,NA,NA,NA,21,6,"6,5,4,13,12,9,3,2,1,10,11,8,14,7,15"
15454,commdev-image-keyboard-response,130,592268,learnblock1,606,img/planet11_right.png,11,Community 3,NA,TRUE,j,j,NA,NA,NA,21,6,"6,5,4,13,12,9,3,2,1,10,11,8,14,7,15"
15454,commdev-image-keyboard-response,131,593524,learnblock1,669,img/planet14_right.png,14,Community 3,NA,TRUE,j,j,NA,NA,NA,21,6,"6,5,4,13,12,9,3,2,1,10,11,8,14,7,15"
15454,commdev-image-keyboard-response,132,594785,learnblock1,610.2999999970198,img/planet15_left.png,15,Community 3,NA,TRUE,f,f,NA,NA,NA,21,6,"6,5,4,13,12,9,3,2,1,10,11,8,14,7,15"
15454,commdev-image-keyboard-response,133,596042,learnblock1,673.2999999970198,img/planet14_left.png,14,Community 3,NA,TRUE,f,f,NA,NA,NA,21,6,"6,5,4,13,12,9,3,2,1,10,11,8,14,7,15"
15454,commdev-image-keyboard-response,134,597310,learnblock1,986.7999999970198,img/planet15_right.png,15,Community 3,NA,TRUE,j,j,NA,NA,NA,21,6,"6,5,4,13,12,9,3,2,1,10,11,8,14,7,15"
15454,commdev-image-keyboard-response,135,598563,learnblock1,618.5,img/planet11_right.png,11,Community 3,NA,TRUE,j,j,NA,NA,NA,21,6,"6,5,4,13,12,9,3,2,1,10,11,8,14,7,15"
15454,commdev-image-keyboard-response,136,599820,learnblock1,617.0999999940395,img/planet15_left.png,15,Community 3,NA,TRUE,f,f,NA,NA,NA,21,6,"6,5,4,13,12,9,3,2,1,10,11,8,14,7,15"
15454,commdev-image-keyboard-response,137,601072,learnblock1,1051.7999999970198,img/planet8_right.png,8,Community 3,NA,TRUE,j,j,NA,NA,NA,21,6,"6,5,4,13,12,9,3,2,1,10,11,8,14,7,15"
15454,commdev-image-keyboard-response,138,602334,learnblock1,598.2000000029802,img/planet14_left.png,14,Community 3,NA,TRUE,f,f,NA,NA,NA,21,6,"6,5,4,13,12,9,3,2,1,10,11,8,14,7,15"
15454,commdev-image-keyboard-response,139,603591,learnblock1,585.9000000059605,img/planet15_right.png,15,Community 3,NA,TRUE,j,j,NA,NA,NA,21,6,"6,5,4,13,12,9,3,2,1,10,11,8,14,7,15"
15454,commdev-image-keyboard-response,140,604856,learnblock1,652.7999999970198,img/planet14_right.png,14,Community 3,NA,TRUE,j,j,NA,NA,NA,21,6,"6,5,4,13,12,9,3,2,1,10,11,8,14,7,15"
15454,commdev-image-keyboard-response,141,606115,learnblock1,755.7999999970198,img/planet8_left.png,8,Community 3,NA,TRUE,f,f,NA,NA,NA,21,6,"6,5,4,13,12,9,3,2,1,10,11,8,14,7,15"
15454,commdev-image-keyboard-response,142,607372,learnblock1,741.5999999940395,img/planet7_left.png,7,Community 3,NA,TRUE,f,f,NA,NA,NA,21,6,"6,5,4,13,12,9,3,2,1,10,11,8,14,7,15"
15454,commdev-image-keyboard-response,143,608630,learnblock1,682.5999999940395,img/planet14_right.png,14,Community 3,NA,TRUE,j,j,NA,NA,NA,21,6,"6,5,4,13,12,9,3,2,1,10,11,8,14,7,15"
15454,commdev-image-keyboard-response,144,609887,learnblock1,663.7000000029802,img/planet15_left.png,15,Community 3,NA,TRUE,f,f,NA,NA,NA,21,6,"6,5,4,13,12,9,3,2,1,10,11,8,14,7,15"
15454,commdev-image-keyboard-response,145,611140,learnblock1,603.8999999910593,img/planet8_right.png,8,Community 3,NA,TRUE,j,j,NA,NA,NA,21,6,"6,5,4,13,12,9,3,2,1,10,11,8,14,7,15"
15454,commdev-image-keyboard-response,146,612398,learnblock1,792,img/planet2_right.png,2,Community 2,NA,TRUE,j,j,NA,NA,NA,21,6,"6,5,4,13,12,9,3,2,1,10,11,8,14,7,15"
15454,commdev-image-keyboard-response,147,613652,learnblock1,575,img/planet8_left.png,8,Community 3,NA,TRUE,f,f,NA,NA,NA,21,6,"6,5,4,13,12,9,3,2,1,10,11,8,14,7,15"
15454,commdev-image-keyboard-response,148,614906,learnblock1,699.7000000029802,img/planet7_left.png,7,Community 3,NA,TRUE,f,f,NA,NA,NA,21,6,"6,5,4,13,12,9,3,2,1,10,11,8,14,7,15"
15454,commdev-image-keyboard-response,149,616167,learnblock1,618.2999999970198,img/planet15_right.png,15,Community 3,NA,TRUE,j,j,NA,NA,NA,21,6,"6,5,4,13,12,9,3,2,1,10,11,8,14,7,15"
15454,commdev-image-keyboard-response,150,617425,learnblock1,540.2999999970198,img/planet8_right.png,8,Community 3,NA,TRUE,j,j,NA,NA,NA,21,6,"6,5,4,13,12,9,3,2,1,10,11,8,14,7,15"
15454,commdev-image-keyboard-response,151,618691,learnblock1,598.8999999910593,img/planet14_right.png,14,Community 3,NA,TRUE,j,j,NA,NA,NA,21,6,"6,5,4,13,12,9,3,2,1,10,11,8,14,7,15"
15454,commdev-image-keyboard-response,152,619947,learnblock1,566.7000000029802,img/planet15_left.png,15,Community 3,NA,TRUE,f,f,NA,NA,NA,21,6,"6,5,4,13,12,9,3,2,1,10,11,8,14,7,15"
15454,commdev-image-keyboard-response,153,621212,learnblock1,854.5,img/planet11_left.png,11,Community 3,NA,TRUE,f,f,NA,NA,NA,21,6,"6,5,4,13,12,9,3,2,1,10,11,8,14,7,15"
15454,commdev-image-keyboard-response,154,622473,learnblock1,612.1000000089407,img/planet12_left.png,12,Community 1,NA,TRUE,f,f,NA,NA,NA,21,6,"6,5,4,13,12,9,3,2,1,10,11,8,14,7,15"
15454,commdev-image-keyboard-response,155,623730,learnblock1,542.5999999940395,img/planet5_right.png,5,Community 1,NA,TRUE,j,j,NA,NA,NA,21,6,"6,5,4,13,12,9,3,2,1,10,11,8,14,7,15"
15454,commdev-image-keyboard-response,156,624987,learnblock1,684,img/planet12_left.png,12,Community 1,NA,TRUE,f,f,NA,NA,NA,21,6,"6,5,4,13,12,9,3,2,1,10,11,8,14,7,15"
15454,commdev-image-keyboard-response,157,626246,learnblock1,696.2000000029802,img/planet5_right.png,5,Community 1,NA,TRUE,j,j,NA,NA,NA,21,6,"6,5,4,13,12,9,3,2,1,10,11,8,14,7,15"
15454,commdev-image-keyboard-response,158,627509,learnblock1,747.5999999940395,img/planet12_right.png,12,Community 1,NA,TRUE,j,j,NA,NA,NA,21,6,"6,5,4,13,12,9,3,2,1,10,11,8,14,7,15"
15454,commdev-image-keyboard-response,159,628769,learnblock1,776.4000000059605,img/planet6_right.png,6,Community 1,NA,TRUE,j,j,NA,NA,NA,21,6,"6,5,4,13,12,9,3,2,1,10,11,8,14,7,15"
15454,commdev-image-keyboard-response,160,630035,learnblock1,713.8999999910593,img/planet5_left.png,5,Community 1,NA,TRUE,f,f,NA,NA,NA,21,6,"6,5,4,13,12,9,3,2,1,10,11,8,14,7,15"
15454,commdev-image-keyboard-response,161,631295,learnblock1,731.3999999910593,img/planet13_right.png,13,Community 1,NA,TRUE,j,j,NA,NA,NA,21,6,"6,5,4,13,12,9,3,2,1,10,11,8,14,7,15"
15454,commdev-image-keyboard-response,162,632559,learnblock1,577.5,img/planet4_left.png,4,Community 1,NA,TRUE,f,f,NA,NA,NA,21,6,"6,5,4,13,12,9,3,2,1,10,11,8,14,7,15"
15454,commdev-image-keyboard-response,163,633811,learnblock1,606.2000000029802,img/planet5_left.png,5,Community 1,NA,TRUE,f,f,NA,NA,NA,21,6,"6,5,4,13,12,9,3,2,1,10,11,8,14,7,15"
15454,commdev-image-keyboard-response,164,635066,learnblock1,643.7999999970198,img/planet6_left.png,6,Community 1,NA,TRUE,f,f,NA,NA,NA,21,6,"6,5,4,13,12,9,3,2,1,10,11,8,14,7,15"
15454,commdev-image-keyboard-response,165,636330,learnblock1,563.6000000089407,img/planet12_right.png,12,Community 1,NA,TRUE,j,j,NA,NA,NA,21,6,"6,5,4,13,12,9,3,2,1,10,11,8,14,7,15"
15454,commdev-image-keyboard-response,166,637583,learnblock1,607.5,img/planet5_left.png,5,Community 1,NA,TRUE,f,f,NA,NA,NA,21,6,"6,5,4,13,12,9,3,2,1,10,11,8,14,7,15"
15454,commdev-image-keyboard-response,167,638838,learnblock1,714.8999999910593,img/planet6_right.png,6,Community 1,NA,TRUE,j,j,NA,NA,NA,21,6,"6,5,4,13,12,9,3,2,1,10,11,8,14,7,15"
15454,commdev-image-keyboard-response,168,640098,learnblock1,704,img/planet12_right.png,12,Community 1,NA,TRUE,j,j,NA,NA,NA,21,6,"6,5,4,13,12,9,3,2,1,10,11,8,14,7,15"
15454,commdev-image-keyboard-response,169,641357,learnblock1,745.1000000089407,img/planet5_right.png,5,Community 1,NA,TRUE,j,j,NA,NA,NA,21,6,"6,5,4,13,12,9,3,2,1,10,11,8,14,7,15"
15454,commdev-image-keyboard-response,170,642622,learnblock1,543.7999999970198,img/planet6_right.png,6,Community 1,NA,TRUE,j,j,NA,NA,NA,21,6,"6,5,4,13,12,9,3,2,1,10,11,8,14,7,15"
15454,commdev-image-keyboard-response,171,643882,learnblock1,552.1000000089407,img/planet12_left.png,12,Community 1,NA,TRUE,f,f,NA,NA,NA,21,6,"6,5,4,13,12,9,3,2,1,10,11,8,14,7,15"
15454,commdev-image-keyboard-response,172,645134,learnblock1,595.6000000089407,img/planet11_right.png,11,Community 3,NA,TRUE,j,j,NA,NA,NA,21,6,"6,5,4,13,12,9,3,2,1,10,11,8,14,7,15"
15454,commdev-image-keyboard-response,173,646394,learnblock1,640.5999999940395,img/planet7_left.png,7,Community 3,NA,TRUE,f,f,NA,NA,NA,21,6,"6,5,4,13,12,9,3,2,1,10,11,8,14,7,15"
15454,commdev-image-keyboard-response,174,647648,learnblock1,630.2000000029802,img/planet8_left.png,8,Community 3,NA,TRUE,f,f,NA,NA,NA,21,6,"6,5,4,13,12,9,3,2,1,10,11,8,14,7,15"
15454,commdev-image-keyboard-response,175,648902,learnblock1,540.5,img/planet15_left.png,15,Community 3,NA,TRUE,f,f,NA,NA,NA,21,6,"6,5,4,13,12,9,3,2,1,10,11,8,14,7,15"
15454,commdev-image-keyboard-response,176,650154,learnblock1,557.6000000089407,img/planet14_right.png,14,Community 3,NA,TRUE,j,j,NA,NA,NA,21,6,"6,5,4,13,12,9,3,2,1,10,11,8,14,7,15"
15454,commdev-image-keyboard-response,177,651410,learnblock1,635.5999999940395,img/planet11_left.png,11,Community 3,NA,FALSE,j,f,NA,NA,NA,21,6,"6,5,4,13,12,9,3,2,1,10,11,8,14,7,15"
15454,commdev-image-keyboard-response,178,652664,learnblock1,680.8000000119209,img/planet12_right.png,12,Community 1,NA,TRUE,j,j,NA,NA,NA,21,6,"6,5,4,13,12,9,3,2,1,10,11,8,14,7,15"
15454,commdev-image-keyboard-response,179,653923,learnblock1,479.20000000298023,img/planet5_left.png,5,Community 1,NA,TRUE,f,f,NA,NA,NA,21,6,"6,5,4,13,12,9,3,2,1,10,11,8,14,7,15"
15454,commdev-image-keyboard-response,180,655179,learnblock1,642.5,img/planet12_left.png,12,Community 1,NA,TRUE,f,f,NA,NA,NA,21,6,"6,5,4,13,12,9,3,2,1,10,11,8,14,7,15"
15454,commdev-image-keyboard-response,181,656432,learnblock1,584.3000000119209,img/planet5_right.png,5,Community 1,NA,TRUE,j,j,NA,NA,NA,21,6,"6,5,4,13,12,9,3,2,1,10,11,8,14,7,15"
15454,commdev-image-keyboard-response,182,657686,learnblock1,650.5999999940395,img/planet6_left.png,6,Community 1,NA,TRUE,f,f,NA,NA,NA,21,6,"6,5,4,13,12,9,3,2,1,10,11,8,14,7,15"
15454,commdev-image-keyboard-response,183,658940,learnblock1,627.5,img/planet12_left.png,12,Community 1,NA,TRUE,f,f,NA,NA,NA,21,6,"6,5,4,13,12,9,3,2,1,10,11,8,14,7,15"
15454,commdev-image-keyboard-response,184,660199,learnblock1,626.7000000029802,img/planet5_left.png,5,Community 1,NA,TRUE,f,f,NA,NA,NA,21,6,"6,5,4,13,12,9,3,2,1,10,11,8,14,7,15"
15454,commdev-image-keyboard-response,185,661451,learnblock1,580.8000000119209,img/planet6_right.png,6,Community 1,NA,TRUE,j,j,NA,NA,NA,21,6,"6,5,4,13,12,9,3,2,1,10,11,8,14,7,15"
15454,commdev-image-keyboard-response,186,662706,learnblock1,925,img/planet4_right.png,4,Community 1,NA,TRUE,j,j,NA,NA,NA,21,6,"6,5,4,13,12,9,3,2,1,10,11,8,14,7,15"
15454,commdev-image-keyboard-response,187,663968,learnblock1,794,img/planet5_right.png,5,Community 1,NA,TRUE,j,j,NA,NA,NA,21,6,"6,5,4,13,12,9,3,2,1,10,11,8,14,7,15"
15454,commdev-image-keyboard-response,188,665223,learnblock1,936.8000000119209,img/planet4_right.png,4,Community 1,NA,TRUE,j,j,NA,NA,NA,21,6,"6,5,4,13,12,9,3,2,1,10,11,8,14,7,15"
15454,commdev-image-keyboard-response,189,666478,learnblock1,830.0999999940395,img/planet5_right.png,5,Community 1,NA,FALSE,f,j,NA,NA,NA,21,6,"6,5,4,13,12,9,3,2,1,10,11,8,14,7,15"
15454,commdev-image-keyboard-response,190,667733,learnblock1,588.7000000029802,img/planet13_left.png,13,Community 1,NA,TRUE,f,f,NA,NA,NA,21,6,"6,5,4,13,12,9,3,2,1,10,11,8,14,7,15"
15454,commdev-image-keyboard-response,191,668987,learnblock1,601.8999999910593,img/planet9_right.png,9,Community 2,NA,TRUE,j,j,NA,NA,NA,21,6,"6,5,4,13,12,9,3,2,1,10,11,8,14,7,15"
15454,commdev-image-keyboard-response,192,670240,learnblock1,637.6000000089407,img/planet1_left.png,1,Community 2,NA,TRUE,f,f,NA,NA,NA,21,6,"6,5,4,13,12,9,3,2,1,10,11,8,14,7,15"
15454,commdev-image-keyboard-response,193,671495,learnblock1,667.1999999880791,img/planet2_left.png,2,Community 2,NA,TRUE,f,f,NA,NA,NA,21,6,"6,5,4,13,12,9,3,2,1,10,11,8,14,7,15"
15454,commdev-image-keyboard-response,194,672751,learnblock1,702.9000000059605,img/planet3_left.png,3,Community 2,NA,TRUE,f,f,NA,NA,NA,21,6,"6,5,4,13,12,9,3,2,1,10,11,8,14,7,15"
15454,commdev-image-keyboard-response,195,674011,learnblock1,653.6000000089407,img/planet10_right.png,10,Community 2,NA,TRUE,j,j,NA,NA,NA,21,6,"6,5,4,13,12,9,3,2,1,10,11,8,14,7,15"
15454,commdev-image-keyboard-response,196,675267,learnblock1,649.9000000059605,img/planet1_left.png,1,Community 2,NA,TRUE,f,f,NA,NA,NA,21,6,"6,5,4,13,12,9,3,2,1,10,11,8,14,7,15"
15454,commdev-image-keyboard-response,197,676529,learnblock1,504,img/planet10_left.png,10,Community 2,NA,TRUE,f,f,NA,NA,NA,21,6,"6,5,4,13,12,9,3,2,1,10,11,8,14,7,15"
15454,commdev-image-keyboard-response,198,677783,learnblock1,638.1000000089407,img/planet1_right.png,1,Community 2,NA,TRUE,j,j,NA,NA,NA,21,6,"6,5,4,13,12,9,3,2,1,10,11,8,14,7,15"
15454,commdev-image-keyboard-response,199,679038,learnblock1,857.9000000059605,img/planet3_right.png,3,Community 2,NA,TRUE,j,j,NA,NA,NA,21,6,"6,5,4,13,12,9,3,2,1,10,11,8,14,7,15"
15454,commdev-image-keyboard-response,200,680290,learnblock1,655.0999999940395,img/planet1_right.png,1,Community 2,NA,TRUE,j,j,NA,NA,NA,21,6,"6,5,4,13,12,9,3,2,1,10,11,8,14,7,15"
15454,commdev-image-keyboard-response,201,681548,learnblock1,805.7000000029802,img/planet3_right.png,3,Community 2,NA,TRUE,j,j,NA,NA,NA,21,6,"6,5,4,13,12,9,3,2,1,10,11,8,14,7,15"
15454,commdev-image-keyboard-response,202,682802,learnblock1,603.5999999940395,img/planet10_right.png,10,Community 2,NA,TRUE,j,j,NA,NA,NA,21,6,"6,5,4,13,12,9,3,2,1,10,11,8,14,7,15"
15454,commdev-image-keyboard-response,203,684062,learnblock1,677.6000000089407,img/planet3_left.png,3,Community 2,NA,TRUE,f,f,NA,NA,NA,21,6,"6,5,4,13,12,9,3,2,1,10,11,8,14,7,15"
15454,commdev-image-keyboard-response,204,685320,learnblock1,1066.7000000029802,img/planet9_left.png,9,Community 2,NA,TRUE,f,f,NA,NA,NA,21,6,"6,5,4,13,12,9,3,2,1,10,11,8,14,7,15"
15454,commdev-image-keyboard-response,205,686574,learnblock1,694.2000000029802,img/planet1_left.png,1,Community 2,NA,TRUE,f,f,NA,NA,NA,21,6,"6,5,4,13,12,9,3,2,1,10,11,8,14,7,15"
15454,commdev-image-keyboard-response,206,687830,learnblock1,614.0999999940395,img/planet10_right.png,10,Community 2,NA,TRUE,j,j,NA,NA,NA,21,6,"6,5,4,13,12,9,3,2,1,10,11,8,14,7,15"
15454,commdev-image-keyboard-response,207,689083,learnblock1,744.7000000029802,img/planet1_right.png,1,Community 2,NA,TRUE,j,j,NA,NA,NA,21,6,"6,5,4,13,12,9,3,2,1,10,11,8,14,7,15"
15454,commdev-image-keyboard-response,208,690334,learnblock1,617.9000000059605,img/planet2_left.png,2,Community 2,NA,TRUE,f,f,NA,NA,NA,21,6,"6,5,4,13,12,9,3,2,1,10,11,8,14,7,15"
15454,commdev-image-keyboard-response,209,691594,learnblock1,690.9000000059605,img/planet8_right.png,8,Community 3,NA,TRUE,j,j,NA,NA,NA,21,6,"6,5,4,13,12,9,3,2,1,10,11,8,14,7,15"
15454,commdev-image-keyboard-response,210,692860,learnblock1,543.2999999970198,img/planet2_right.png,2,Community 2,NA,TRUE,j,j,NA,NA,NA,21,6,"6,5,4,13,12,9,3,2,1,10,11,8,14,7,15"
15454,commdev-image-keyboard-response,211,694113,learnblock1,532.0999999940395,img/planet10_left.png,10,Community 2,NA,TRUE,f,f,NA,NA,NA,21,6,"6,5,4,13,12,9,3,2,1,10,11,8,14,7,15"
15454,commdev-image-keyboard-response,212,695364,learnblock1,743.5,img/planet2_right.png,2,Community 2,NA,TRUE,j,j,NA,NA,NA,21,6,"6,5,4,13,12,9,3,2,1,10,11,8,14,7,15"
15454,commdev-image-keyboard-response,213,696620,learnblock1,586.0999999940395,img/planet1_right.png,1,Community 2,NA,TRUE,j,j,NA,NA,NA,21,6,"6,5,4,13,12,9,3,2,1,10,11,8,14,7,15"
15454,commdev-image-keyboard-response,214,697877,learnblock1,640.2000000029802,img/planet3_left.png,3,Community 2,NA,TRUE,f,f,NA,NA,NA,21,6,"6,5,4,13,12,9,3,2,1,10,11,8,14,7,15"
15454,commdev-image-keyboard-response,215,699135,learnblock1,810.3999999910593,img/planet9_left.png,9,Community 2,NA,TRUE,f,f,NA,NA,NA,21,6,"6,5,4,13,12,9,3,2,1,10,11,8,14,7,15"
15454,commdev-image-keyboard-response,216,700391,learnblock1,650.7999999970198,img/planet1_right.png,1,Community 2,NA,TRUE,j,j,NA,NA,NA,21,6,"6,5,4,13,12,9,3,2,1,10,11,8,14,7,15"
15454,commdev-image-keyboard-response,217,701650,learnblock1,872.0999999940395,img/planet9_left.png,9,Community 2,NA,FALSE,j,f,NA,NA,NA,21,6,"6,5,4,13,12,9,3,2,1,10,11,8,14,7,15"
15454,commdev-image-keyboard-response,218,702906,learnblock1,557.9000000059605,img/planet13_right.png,13,Community 1,NA,TRUE,j,j,NA,NA,NA,21,6,"6,5,4,13,12,9,3,2,1,10,11,8,14,7,15"
15454,commdev-image-keyboard-response,219,704162,learnblock1,694.2000000029802,img/planet6_left.png,6,Community 1,NA,TRUE,f,f,NA,NA,NA,21,6,"6,5,4,13,12,9,3,2,1,10,11,8,14,7,15"
15454,commdev-image-keyboard-response,220,705425,learnblock1,632.5999999940395,img/planet5_left.png,5,Community 1,NA,TRUE,f,f,NA,NA,NA,21,6,"6,5,4,13,12,9,3,2,1,10,11,8,14,7,15"
15454,commdev-image-keyboard-response,221,706678,learnblock1,597,img/planet6_left.png,6,Community 1,NA,TRUE,f,f,NA,NA,NA,21,6,"6,5,4,13,12,9,3,2,1,10,11,8,14,7,15"
15454,commdev-image-keyboard-response,222,707934,learnblock1,1189.5,img/planet5_right.png,5,Community 1,NA,TRUE,j,j,NA,NA,NA,21,6,"6,5,4,13,12,9,3,2,1,10,11,8,14,7,15"
15454,commdev-image-keyboard-response,223,709198,learnblock1,852.6000000089407,img/planet4_right.png,4,Community 1,NA,TRUE,j,j,NA,NA,NA,21,6,"6,5,4,13,12,9,3,2,1,10,11,8,14,7,15"
15454,commdev-image-keyboard-response,224,710459,learnblock1,534.7000000029802,img/planet5_right.png,5,Community 1,NA,TRUE,j,j,NA,NA,NA,21,6,"6,5,4,13,12,9,3,2,1,10,11,8,14,7,15"
15454,commdev-image-keyboard-response,225,711712,learnblock1,557.7999999970198,img/planet12_left.png,12,Community 1,NA,TRUE,f,f,NA,NA,NA,21,6,"6,5,4,13,12,9,3,2,1,10,11,8,14,7,15"
15454,commdev-image-keyboard-response,226,712969,learnblock1,627.5,img/planet6_left.png,6,Community 1,NA,TRUE,f,f,NA,NA,NA,21,6,"6,5,4,13,12,9,3,2,1,10,11,8,14,7,15"
15454,commdev-image-keyboard-response,227,714222,learnblock1,631.8999999910593,img/planet13_left.png,13,Community 1,NA,TRUE,f,f,NA,NA,NA,21,6,"6,5,4,13,12,9,3,2,1,10,11,8,14,7,15"
15454,commdev-image-keyboard-response,228,715484,learnblock1,607.1000000089407,img/planet6_right.png,6,Community 1,NA,TRUE,j,j,NA,NA,NA,21,6,"6,5,4,13,12,9,3,2,1,10,11,8,14,7,15"
15454,commdev-image-keyboard-response,229,716739,learnblock1,708.2000000029802,img/planet12_left.png,12,Community 1,NA,TRUE,f,f,NA,NA,NA,21,6,"6,5,4,13,12,9,3,2,1,10,11,8,14,7,15"
15454,commdev-image-keyboard-response,230,718003,learnblock1,694.7999999970198,img/planet4_left.png,4,Community 1,NA,TRUE,f,f,NA,NA,NA,21,6,"6,5,4,13,12,9,3,2,1,10,11,8,14,7,15"
15454,commdev-image-keyboard-response,231,719268,learnblock1,699.6999999880791,img/planet5_left.png,5,Community 1,NA,TRUE,f,f,NA,NA,NA,21,6,"6,5,4,13,12,9,3,2,1,10,11,8,14,7,15"
15454,commdev-image-keyboard-response,232,720527,learnblock1,614.0999999940395,img/planet13_right.png,13,Community 1,NA,TRUE,j,j,NA,NA,NA,21,6,"6,5,4,13,12,9,3,2,1,10,11,8,14,7,15"
15454,commdev-image-keyboard-response,233,721781,learnblock1,597,img/planet6_left.png,6,Community 1,NA,FALSE,j,f,NA,NA,NA,21,6,"6,5,4,13,12,9,3,2,1,10,11,8,14,7,15"
15454,commdev-image-keyboard-response,234,723032,learnblock1,738.7000000029802,img/planet5_left.png,5,Community 1,NA,TRUE,f,f,NA,NA,NA,21,6,"6,5,4,13,12,9,3,2,1,10,11,8,14,7,15"
15454,commdev-image-keyboard-response,235,724286,learnblock1,1127.5,img/planet13_right.png,13,Community 1,NA,TRUE,j,j,NA,NA,NA,21,6,"6,5,4,13,12,9,3,2,1,10,11,8,14,7,15"
15454,commdev-image-keyboard-response,236,725547,learnblock1,501.29999999701977,img/planet9_right.png,9,Community 2,NA,TRUE,j,j,NA,NA,NA,21,6,"6,5,4,13,12,9,3,2,1,10,11,8,14,7,15"
15454,commdev-image-keyboard-response,237,726804,learnblock1,677.1000000089407,img/planet1_left.png,1,Community 2,NA,TRUE,f,f,NA,NA,NA,21,6,"6,5,4,13,12,9,3,2,1,10,11,8,14,7,15"
15454,commdev-image-keyboard-response,238,728058,learnblock1,481.40000000596046,img/planet3_right.png,3,Community 2,NA,FALSE,f,j,NA,NA,NA,21,6,"6,5,4,13,12,9,3,2,1,10,11,8,14,7,15"
15454,commdev-image-keyboard-response,239,729310,learnblock1,680,img/planet9_right.png,9,Community 2,NA,TRUE,j,j,NA,NA,NA,21,6,"6,5,4,13,12,9,3,2,1,10,11,8,14,7,15"
15454,commdev-image-keyboard-response,240,730568,learnblock1,558.5,img/planet1_left.png,1,Community 2,NA,TRUE,f,f,NA,NA,NA,21,6,"6,5,4,13,12,9,3,2,1,10,11,8,14,7,15"
15454,commdev-image-keyboard-response,241,731833,learnblock1,682.7999999970198,img/planet3_left.png,3,Community 2,NA,TRUE,f,f,NA,NA,NA,21,6,"6,5,4,13,12,9,3,2,1,10,11,8,14,7,15"
15454,commdev-image-keyboard-response,242,733085,learnblock1,654,img/planet1_right.png,1,Community 2,NA,TRUE,j,j,NA,NA,NA,21,6,"6,5,4,13,12,9,3,2,1,10,11,8,14,7,15"
15454,commdev-image-keyboard-response,243,734338,learnblock1,758.1000000089407,img/planet3_right.png,3,Community 2,NA,TRUE,j,j,NA,NA,NA,21,6,"6,5,4,13,12,9,3,2,1,10,11,8,14,7,15"
15454,commdev-image-keyboard-response,244,735593,learnblock1,709.5,img/planet2_right.png,2,Community 2,NA,TRUE,j,j,NA,NA,NA,21,6,"6,5,4,13,12,9,3,2,1,10,11,8,14,7,15"
15454,commdev-image-keyboard-response,245,736854,learnblock1,511.30000001192093,img/planet10_right.png,10,Community 2,NA,TRUE,j,j,NA,NA,NA,21,6,"6,5,4,13,12,9,3,2,1,10,11,8,14,7,15"
15454,commdev-image-keyboard-response,246,738112,learnblock1,476.40000000596046,img/planet1_left.png,1,Community 2,NA,TRUE,f,f,NA,NA,NA,21,6,"6,5,4,13,12,9,3,2,1,10,11,8,14,7,15"
15454,commdev-image-keyboard-response,247,739379,learnblock1,537.7999999970198,img/planet2_right.png,2,Community 2,NA,TRUE,j,j,NA,NA,NA,21,6,"6,5,4,13,12,9,3,2,1,10,11,8,14,7,15"
15454,commdev-image-keyboard-response,248,740637,learnblock1,767.5999999940395,img/planet3_left.png,3,Community 2,NA,TRUE,f,f,NA,NA,NA,21,6,"6,5,4,13,12,9,3,2,1,10,11,8,14,7,15"
15454,commdev-image-keyboard-response,249,741892,learnblock1,702,img/planet9_left.png,9,Community 2,NA,TRUE,f,f,NA,NA,NA,21,6,"6,5,4,13,12,9,3,2,1,10,11,8,14,7,15"
15454,commdev-image-keyboard-response,250,743151,learnblock1,653.8999999910593,img/planet3_left.png,3,Community 2,NA,TRUE,f,f,NA,NA,NA,21,6,"6,5,4,13,12,9,3,2,1,10,11,8,14,7,15"
15454,commdev-image-keyboard-response,251,744414,learnblock1,734.5999999940395,img/planet2_left.png,2,Community 2,NA,TRUE,f,f,NA,NA,NA,21,6,"6,5,4,13,12,9,3,2,1,10,11,8,14,7,15"
15454,commdev-image-keyboard-response,252,745671,learnblock1,934.2000000029802,img/planet8_left.png,8,Community 3,NA,TRUE,f,f,NA,NA,NA,21,6,"6,5,4,13,12,9,3,2,1,10,11,8,14,7,15"
15454,commdev-image-keyboard-response,253,746929,learnblock1,709.1000000089407,img/planet14_left.png,14,Community 3,NA,TRUE,f,f,NA,NA,NA,21,6,"6,5,4,13,12,9,3,2,1,10,11,8,14,7,15"
15454,commdev-image-keyboard-response,254,748181,learnblock1,626.5,img/planet8_right.png,8,Community 3,NA,TRUE,j,j,NA,NA,NA,21,6,"6,5,4,13,12,9,3,2,1,10,11,8,14,7,15"
15454,commdev-image-keyboard-response,255,749444,learnblock1,629.6000000089407,img/planet15_right.png,15,Community 3,NA,TRUE,j,j,NA,NA,NA,21,6,"6,5,4,13,12,9,3,2,1,10,11,8,14,7,15"
15454,commdev-image-keyboard-response,256,750709,learnblock1,505.90000000596046,img/planet11_left.png,11,Community 3,NA,TRUE,f,f,NA,NA,NA,21,6,"6,5,4,13,12,9,3,2,1,10,11,8,14,7,15"
15454,commdev-image-keyboard-response,257,751968,learnblock1,820.2999999970198,img/planet7_left.png,7,Community 3,NA,TRUE,f,f,NA,NA,NA,21,6,"6,5,4,13,12,9,3,2,1,10,11,8,14,7,15"
15454,commdev-image-keyboard-response,258,753221,learnblock1,705.5,img/planet15_right.png,15,Community 3,NA,TRUE,j,j,NA,NA,NA,21,6,"6,5,4,13,12,9,3,2,1,10,11,8,14,7,15"
15454,commdev-image-keyboard-response,259,754479,learnblock1,803.2999999970198,img/planet7_right.png,7,Community 3,NA,TRUE,j,j,NA,NA,NA,21,6,"6,5,4,13,12,9,3,2,1,10,11,8,14,7,15"
15454,commdev-image-keyboard-response,260,755744,learnblock1,610.9000000059605,img/planet11_left.png,11,Community 3,NA,TRUE,f,f,NA,NA,NA,21,6,"6,5,4,13,12,9,3,2,1,10,11,8,14,7,15"
15454,commdev-image-keyboard-response,261,756999,learnblock1,589.0999999940395,img/planet7_left.png,7,Community 3,NA,TRUE,f,f,NA,NA,NA,21,6,"6,5,4,13,12,9,3,2,1,10,11,8,14,7,15"
15454,commdev-image-keyboard-response,262,758256,learnblock1,733.7000000029802,img/planet14_left.png,14,Community 3,NA,TRUE,f,f,NA,NA,NA,21,6,"6,5,4,13,12,9,3,2,1,10,11,8,14,7,15"
15454,commdev-image-keyboard-response,263,759509,learnblock1,685.5,img/planet7_left.png,7,Community 3,NA,TRUE,f,f,NA,NA,NA,21,6,"6,5,4,13,12,9,3,2,1,10,11,8,14,7,15"
15454,commdev-image-keyboard-response,264,760766,learnblock1,686.2000000029802,img/planet15_left.png,15,Community 3,NA,TRUE,f,f,NA,NA,NA,21,6,"6,5,4,13,12,9,3,2,1,10,11,8,14,7,15"
15454,commdev-image-keyboard-response,265,762029,learnblock1,650.5999999940395,img/planet7_right.png,7,Community 3,NA,TRUE,j,j,NA,NA,NA,21,6,"6,5,4,13,12,9,3,2,1,10,11,8,14,7,15"
15454,commdev-image-keyboard-response,266,763283,learnblock1,687.5,img/planet11_right.png,11,Community 3,NA,FALSE,f,j,NA,NA,NA,21,6,"6,5,4,13,12,9,3,2,1,10,11,8,14,7,15"
15454,commdev-image-keyboard-response,267,764538,learnblock1,801.7000000029802,img/planet14_right.png,14,Community 3,NA,TRUE,j,j,NA,NA,NA,21,6,"6,5,4,13,12,9,3,2,1,10,11,8,14,7,15"
15454,commdev-image-keyboard-response,268,765792,learnblock1,654.7999999970198,img/planet8_left.png,8,Community 3,NA,TRUE,f,f,NA,NA,NA,21,6,"6,5,4,13,12,9,3,2,1,10,11,8,14,7,15"
15454,commdev-image-keyboard-response,269,767051,learnblock1,791.1999999880791,img/planet2_left.png,2,Community 2,NA,TRUE,f,f,NA,NA,NA,21,6,"6,5,4,13,12,9,3,2,1,10,11,8,14,7,15"
15454,commdev-image-keyboard-response,270,768312,learnblock1,642.3999999910593,img/planet3_left.png,3,Community 2,NA,TRUE,f,f,NA,NA,NA,21,6,"6,5,4,13,12,9,3,2,1,10,11,8,14,7,15"
15454,commdev-image-keyboard-response,271,769567,learnblock1,600.4000000059605,img/planet2_left.png,2,Community 2,NA,TRUE,f,f,NA,NA,NA,21,6,"6,5,4,13,12,9,3,2,1,10,11,8,14,7,15"
15454,commdev-image-keyboard-response,272,770824,learnblock1,677.5,img/planet10_left.png,10,Community 2,NA,TRUE,f,f,NA,NA,NA,21,6,"6,5,4,13,12,9,3,2,1,10,11,8,14,7,15"
15454,commdev-image-keyboard-response,273,772085,learnblock1,672.7000000029802,img/planet1_left.png,1,Community 2,NA,TRUE,f,f,NA,NA,NA,21,6,"6,5,4,13,12,9,3,2,1,10,11,8,14,7,15"
15454,commdev-image-keyboard-response,274,773346,learnblock1,584.4000000059605,img/planet2_left.png,2,Community 2,NA,TRUE,f,f,NA,NA,NA,21,6,"6,5,4,13,12,9,3,2,1,10,11,8,14,7,15"
15454,commdev-image-keyboard-response,275,774611,learnblock1,744.5,img/planet8_right.png,8,Community 3,NA,TRUE,j,j,NA,NA,NA,21,6,"6,5,4,13,12,9,3,2,1,10,11,8,14,7,15"
15454,commdev-image-keyboard-response,276,775867,learnblock1,null,img/planet14_left.png,14,Community 3,NA,FALSE,null,f,NA,NA,NA,21,6,"6,5,4,13,12,9,3,2,1,10,11,8,14,7,15"
15454,commdev-image-keyboard-response,277,777126,learnblock1,55.8999999910593,img/planet8_left.png,8,Community 3,NA,TRUE,f,f,NA,NA,NA,21,6,"6,5,4,13,12,9,3,2,1,10,11,8,14,7,15"
15454,commdev-image-keyboard-response,278,778379,learnblock1,685.0999999940395,img/planet2_right.png,2,Community 2,NA,TRUE,j,j,NA,NA,NA,21,6,"6,5,4,13,12,9,3,2,1,10,11,8,14,7,15"
15454,commdev-image-keyboard-response,279,779634,learnblock1,905.2999999970198,img/planet3_right.png,3,Community 2,NA,TRUE,j,j,NA,NA,NA,21,6,"6,5,4,13,12,9,3,2,1,10,11,8,14,7,15"
15454,commdev-image-keyboard-response,280,780889,learnblock1,721.3999999910593,img/planet10_right.png,10,Community 2,NA,TRUE,j,j,NA,NA,NA,21,6,"6,5,4,13,12,9,3,2,1,10,11,8,14,7,15"
15454,commdev-image-keyboard-response,281,782150,learnblock1,705.7000000029802,img/planet1_right.png,1,Community 2,NA,TRUE,j,j,NA,NA,NA,21,6,"6,5,4,13,12,9,3,2,1,10,11,8,14,7,15"
15454,commdev-image-keyboard-response,282,783410,learnblock1,729,img/planet2_right.png,2,Community 2,NA,TRUE,j,j,NA,NA,NA,21,6,"6,5,4,13,12,9,3,2,1,10,11,8,14,7,15"
15454,commdev-image-keyboard-response,283,784668,learnblock1,608.5,img/planet10_right.png,10,Community 2,NA,TRUE,j,j,NA,NA,NA,21,6,"6,5,4,13,12,9,3,2,1,10,11,8,14,7,15"
15454,commdev-image-keyboard-response,284,785933,learnblock1,661.2999999970198,img/planet1_left.png,1,Community 2,NA,TRUE,f,f,NA,NA,NA,21,6,"6,5,4,13,12,9,3,2,1,10,11,8,14,7,15"
15454,commdev-image-keyboard-response,285,787187,learnblock1,512.2999999970198,img/planet2_left.png,2,Community 2,NA,TRUE,f,f,NA,NA,NA,21,6,"6,5,4,13,12,9,3,2,1,10,11,8,14,7,15"
15454,commdev-image-keyboard-response,286,788441,learnblock1,606.7000000029802,img/planet3_right.png,3,Community 2,NA,TRUE,j,j,NA,NA,NA,21,6,"6,5,4,13,12,9,3,2,1,10,11,8,14,7,15"
15454,commdev-image-keyboard-response,287,789706,learnblock1,515.1999999880791,img/planet2_right.png,2,Community 2,NA,TRUE,j,j,NA,NA,NA,21,6,"6,5,4,13,12,9,3,2,1,10,11,8,14,7,15"
15454,commdev-image-keyboard-response,288,790966,learnblock1,610.9000000059605,img/planet3_left.png,3,Community 2,NA,TRUE,f,f,NA,NA,NA,21,6,"6,5,4,13,12,9,3,2,1,10,11,8,14,7,15"
15454,commdev-image-keyboard-response,289,792225,learnblock1,1125.7000000029802,img/planet9_left.png,9,Community 2,NA,TRUE,f,f,NA,NA,NA,21,6,"6,5,4,13,12,9,3,2,1,10,11,8,14,7,15"
15454,commdev-image-keyboard-response,290,793492,learnblock1,627.5999999940395,img/planet13_right.png,13,Community 1,NA,TRUE,j,j,NA,NA,NA,21,6,"6,5,4,13,12,9,3,2,1,10,11,8,14,7,15"
15454,commdev-image-keyboard-response,291,794745,learnblock1,490.5,img/planet9_right.png,9,Community 2,NA,TRUE,j,j,NA,NA,NA,21,6,"6,5,4,13,12,9,3,2,1,10,11,8,14,7,15"
15454,commdev-image-keyboard-response,292,796009,learnblock1,530.2999999970198,img/planet13_right.png,13,Community 1,NA,TRUE,j,j,NA,NA,NA,21,6,"6,5,4,13,12,9,3,2,1,10,11,8,14,7,15"
15454,commdev-image-keyboard-response,293,797267,learnblock1,590.9000000059605,img/planet5_right.png,5,Community 1,NA,TRUE,j,j,NA,NA,NA,21,6,"6,5,4,13,12,9,3,2,1,10,11,8,14,7,15"
15454,commdev-image-keyboard-response,294,798523,learnblock1,519.7000000029802,img/planet13_left.png,13,Community 1,NA,TRUE,f,f,NA,NA,NA,21,6,"6,5,4,13,12,9,3,2,1,10,11,8,14,7,15"
15454,commdev-image-keyboard-response,295,799779,learnblock1,710.0999999940395,img/planet6_right.png,6,Community 1,NA,TRUE,j,j,NA,NA,NA,21,6,"6,5,4,13,12,9,3,2,1,10,11,8,14,7,15"
15454,commdev-image-keyboard-response,296,801034,learnblock1,582.7000000029802,img/planet13_right.png,13,Community 1,NA,TRUE,j,j,NA,NA,NA,21,6,"6,5,4,13,12,9,3,2,1,10,11,8,14,7,15"
15454,commdev-image-keyboard-response,297,802293,learnblock1,504.5,img/planet5_right.png,5,Community 1,NA,TRUE,j,j,NA,NA,NA,21,6,"6,5,4,13,12,9,3,2,1,10,11,8,14,7,15"
15454,commdev-image-keyboard-response,298,803563,learnblock1,634.4000000059605,img/planet12_right.png,12,Community 1,NA,TRUE,j,j,NA,NA,NA,21,6,"6,5,4,13,12,9,3,2,1,10,11,8,14,7,15"
15454,commdev-image-keyboard-response,299,804821,learnblock1,662.5999999940395,img/planet6_left.png,6,Community 1,NA,TRUE,f,f,NA,NA,NA,21,6,"6,5,4,13,12,9,3,2,1,10,11,8,14,7,15"
15454,commdev-image-keyboard-response,300,806082,learnblock1,490.6000000089407,img/planet5_right.png,5,Community 1,NA,FALSE,f,j,NA,NA,NA,21,6,"6,5,4,13,12,9,3,2,1,10,11,8,14,7,15"
15454,commdev-image-keyboard-response,301,807340,learnblock1,648.9000000059605,img/planet12_right.png,12,Community 1,NA,TRUE,j,j,NA,NA,NA,21,6,"6,5,4,13,12,9,3,2,1,10,11,8,14,7,15"
15454,commdev-image-keyboard-response,302,808607,learnblock1,575.8999999910593,img/planet6_left.png,6,Community 1,NA,TRUE,f,f,NA,NA,NA,21,6,"6,5,4,13,12,9,3,2,1,10,11,8,14,7,15"
15454,commdev-image-keyboard-response,303,809871,learnblock1,611.7000000029802,img/planet5_right.png,5,Community 1,NA,TRUE,j,j,NA,NA,NA,21,6,"6,5,4,13,12,9,3,2,1,10,11,8,14,7,15"
15454,commdev-image-keyboard-response,304,811132,learnblock1,605,img/planet6_left.png,6,Community 1,NA,TRUE,f,f,NA,NA,NA,21,6,"6,5,4,13,12,9,3,2,1,10,11,8,14,7,15"
15454,commdev-image-keyboard-response,305,812396,learnblock1,644.6000000089407,img/planet13_right.png,13,Community 1,NA,TRUE,j,j,NA,NA,NA,21,6,"6,5,4,13,12,9,3,2,1,10,11,8,14,7,15"
15454,commdev-image-keyboard-response,306,813655,learnblock1,587.2000000029802,img/planet6_left.png,6,Community 1,NA,FALSE,j,f,NA,NA,NA,21,6,"6,5,4,13,12,9,3,2,1,10,11,8,14,7,15"
15454,commdev-image-keyboard-response,307,814912,learnblock1,560.7000000029802,img/planet13_right.png,13,Community 1,NA,TRUE,j,j,NA,NA,NA,21,6,"6,5,4,13,12,9,3,2,1,10,11,8,14,7,15"
15454,commdev-image-keyboard-response,308,816170,learnblock1,528.5999999940395,img/planet6_left.png,6,Community 1,NA,TRUE,f,f,NA,NA,NA,21,6,"6,5,4,13,12,9,3,2,1,10,11,8,14,7,15"
15454,commdev-image-keyboard-response,309,817426,learnblock1,545.1000000089407,img/planet5_right.png,5,Community 1,NA,TRUE,j,j,NA,NA,NA,21,6,"6,5,4,13,12,9,3,2,1,10,11,8,14,7,15"
15454,commdev-image-keyboard-response,310,818680,learnblock1,612.3999999910593,img/planet4_right.png,4,Community 1,NA,TRUE,j,j,NA,NA,NA,21,6,"6,5,4,13,12,9,3,2,1,10,11,8,14,7,15"
15454,commdev-image-keyboard-response,311,819938,learnblock1,577.8999999910593,img/planet5_left.png,5,Community 1,NA,TRUE,f,f,NA,NA,NA,21,6,"6,5,4,13,12,9,3,2,1,10,11,8,14,7,15"
15454,commdev-image-keyboard-response,312,821197,learnblock1,938.3000000119209,img/planet4_right.png,4,Community 1,NA,TRUE,j,j,NA,NA,NA,21,6,"6,5,4,13,12,9,3,2,1,10,11,8,14,7,15"
15454,commdev-image-keyboard-response,313,822455,learnblock1,615.1999999880791,img/planet5_right.png,5,Community 1,NA,TRUE,j,j,NA,NA,NA,21,6,"6,5,4,13,12,9,3,2,1,10,11,8,14,7,15"
15454,commdev-image-keyboard-response,314,823720,learnblock1,560.5999999940395,img/planet6_right.png,6,Community 1,NA,TRUE,j,j,NA,NA,NA,21,6,"6,5,4,13,12,9,3,2,1,10,11,8,14,7,15"
15454,commdev-image-keyboard-response,315,824979,learnblock1,712.1000000089407,img/planet5_left.png,5,Community 1,NA,TRUE,f,f,NA,NA,NA,21,6,"6,5,4,13,12,9,3,2,1,10,11,8,14,7,15"
15454,commdev-image-keyboard-response,316,826237,learnblock1,672.8999999910593,img/planet4_left.png,4,Community 1,NA,TRUE,f,f,NA,NA,NA,21,6,"6,5,4,13,12,9,3,2,1,10,11,8,14,7,15"
15454,commdev-image-keyboard-response,317,827493,learnblock1,710.7000000029802,img/planet13_left.png,13,Community 1,NA,TRUE,f,f,NA,NA,NA,21,6,"6,5,4,13,12,9,3,2,1,10,11,8,14,7,15"
15454,commdev-image-keyboard-response,318,828759,learnblock1,642.7999999970198,img/planet4_left.png,4,Community 1,NA,TRUE,f,f,NA,NA,NA,21,6,"6,5,4,13,12,9,3,2,1,10,11,8,14,7,15"
15454,commdev-image-keyboard-response,319,830016,learnblock1,521.5,img/planet5_right.png,5,Community 1,NA,TRUE,j,j,NA,NA,NA,21,6,"6,5,4,13,12,9,3,2,1,10,11,8,14,7,15"
15454,commdev-image-keyboard-response,320,831272,learnblock1,1055.4000000059605,img/planet12_left.png,12,Community 1,NA,TRUE,f,f,NA,NA,NA,21,6,"6,5,4,13,12,9,3,2,1,10,11,8,14,7,15"
15454,commdev-image-keyboard-response,321,832525,learnblock1,603.5,img/planet11_right.png,11,Community 3,NA,TRUE,j,j,NA,NA,NA,21,6,"6,5,4,13,12,9,3,2,1,10,11,8,14,7,15"
15454,commdev-image-keyboard-response,322,833781,learnblock1,703.3999999910593,img/planet12_left.png,12,Community 1,NA,TRUE,f,f,NA,NA,NA,21,6,"6,5,4,13,12,9,3,2,1,10,11,8,14,7,15"
15454,commdev-image-keyboard-response,323,835036,learnblock1,620.7000000029802,img/planet4_left.png,4,Community 1,NA,TRUE,f,f,NA,NA,NA,21,6,"6,5,4,13,12,9,3,2,1,10,11,8,14,7,15"
15454,commdev-image-keyboard-response,324,836290,learnblock1,538.5,img/planet13_right.png,13,Community 1,NA,TRUE,j,j,NA,NA,NA,21,6,"6,5,4,13,12,9,3,2,1,10,11,8,14,7,15"
15454,commdev-image-keyboard-response,325,837548,learnblock1,656.8000000119209,img/planet6_left.png,6,Community 1,NA,TRUE,f,f,NA,NA,NA,21,6,"6,5,4,13,12,9,3,2,1,10,11,8,14,7,15"
15454,commdev-image-keyboard-response,326,838811,learnblock1,697.1000000089407,img/planet5_left.png,5,Community 1,NA,TRUE,f,f,NA,NA,NA,21,6,"6,5,4,13,12,9,3,2,1,10,11,8,14,7,15"
15454,commdev-image-keyboard-response,327,840067,learnblock1,645.9000000059605,img/planet12_left.png,12,Community 1,NA,TRUE,f,f,NA,NA,NA,21,6,"6,5,4,13,12,9,3,2,1,10,11,8,14,7,15"
15454,commdev-image-keyboard-response,328,841320,learnblock1,519,img/planet4_right.png,4,Community 1,NA,TRUE,j,j,NA,NA,NA,21,6,"6,5,4,13,12,9,3,2,1,10,11,8,14,7,15"
15454,commdev-image-keyboard-response,329,842576,learnblock1,786.7000000029802,img/planet5_left.png,5,Community 1,NA,TRUE,f,f,NA,NA,NA,21,6,"6,5,4,13,12,9,3,2,1,10,11,8,14,7,15"
15454,commdev-image-keyboard-response,330,843832,learnblock1,570.2000000029802,img/planet13_right.png,13,Community 1,NA,TRUE,j,j,NA,NA,NA,21,6,"6,5,4,13,12,9,3,2,1,10,11,8,14,7,15"
15454,commdev-image-keyboard-response,331,845090,learnblock1,638.7000000029802,img/planet4_left.png,4,Community 1,NA,TRUE,f,f,NA,NA,NA,21,6,"6,5,4,13,12,9,3,2,1,10,11,8,14,7,15"
15454,commdev-image-keyboard-response,332,846344,learnblock1,557.3000000119209,img/planet6_right.png,6,Community 1,NA,TRUE,j,j,NA,NA,NA,21,6,"6,5,4,13,12,9,3,2,1,10,11,8,14,7,15"
15454,commdev-image-keyboard-response,333,847608,learnblock1,604.2000000029802,img/planet4_right.png,4,Community 1,NA,TRUE,j,j,NA,NA,NA,21,6,"6,5,4,13,12,9,3,2,1,10,11,8,14,7,15"
15454,commdev-image-keyboard-response,334,848862,learnblock1,566.5999999940395,img/planet5_left.png,5,Community 1,NA,TRUE,f,f,NA,NA,NA,21,6,"6,5,4,13,12,9,3,2,1,10,11,8,14,7,15"
15454,commdev-image-keyboard-response,335,850121,learnblock1,659.7999999970198,img/planet12_left.png,12,Community 1,NA,TRUE,f,f,NA,NA,NA,21,6,"6,5,4,13,12,9,3,2,1,10,11,8,14,7,15"
15454,commdev-image-keyboard-response,336,851381,learnblock1,646.1999999880791,img/planet6_left.png,6,Community 1,NA,TRUE,f,f,NA,NA,NA,21,6,"6,5,4,13,12,9,3,2,1,10,11,8,14,7,15"
15454,commdev-image-keyboard-response,337,852635,learnblock1,512.9000000059605,img/planet5_right.png,5,Community 1,NA,TRUE,j,j,NA,NA,NA,21,6,"6,5,4,13,12,9,3,2,1,10,11,8,14,7,15"
15454,commdev-image-keyboard-response,338,853889,learnblock1,552.8999999910593,img/planet4_right.png,4,Community 1,NA,TRUE,j,j,NA,NA,NA,21,6,"6,5,4,13,12,9,3,2,1,10,11,8,14,7,15"
15454,commdev-image-keyboard-response,339,855146,learnblock1,586.7999999970198,img/planet6_left.png,6,Community 1,NA,TRUE,f,f,NA,NA,NA,21,6,"6,5,4,13,12,9,3,2,1,10,11,8,14,7,15"
15454,commdev-image-keyboard-response,340,856405,learnblock1,629.4000000059605,img/planet12_right.png,12,Community 1,NA,TRUE,j,j,NA,NA,NA,21,6,"6,5,4,13,12,9,3,2,1,10,11,8,14,7,15"
15454,commdev-image-keyboard-response,341,857661,learnblock1,747.7000000029802,img/planet11_right.png,11,Community 3,NA,TRUE,j,j,NA,NA,NA,21,6,"6,5,4,13,12,9,3,2,1,10,11,8,14,7,15"
15454,commdev-image-keyboard-response,342,858923,learnblock1,608.6000000089407,img/planet12_right.png,12,Community 1,NA,TRUE,j,j,NA,NA,NA,21,6,"6,5,4,13,12,9,3,2,1,10,11,8,14,7,15"
15454,commdev-image-keyboard-response,343,860174,learnblock1,543.5,img/planet5_right.png,5,Community 1,NA,TRUE,j,j,NA,NA,NA,21,6,"6,5,4,13,12,9,3,2,1,10,11,8,14,7,15"
15454,commdev-image-keyboard-response,344,861431,learnblock1,749.3999999910593,img/planet13_right.png,13,Community 1,NA,TRUE,j,j,NA,NA,NA,21,6,"6,5,4,13,12,9,3,2,1,10,11,8,14,7,15"
15454,commdev-image-keyboard-response,345,862689,learnblock1,936.1999999880791,img/planet5_left.png,5,Community 1,NA,TRUE,f,f,NA,NA,NA,21,6,"6,5,4,13,12,9,3,2,1,10,11,8,14,7,15"
15454,commdev-image-keyboard-response,346,863942,learnblock1,630.7000000029802,img/planet13_right.png,13,Community 1,NA,FALSE,f,j,NA,NA,NA,21,6,"6,5,4,13,12,9,3,2,1,10,11,8,14,7,15"
15454,commdev-image-keyboard-response,347,865201,learnblock1,727,img/planet4_left.png,4,Community 1,NA,TRUE,f,f,NA,NA,NA,21,6,"6,5,4,13,12,9,3,2,1,10,11,8,14,7,15"
15454,commdev-image-keyboard-response,351,1443181,learnblock2,972.0999999940395,img/planet7_right.png,7,Community 3,NA,TRUE,j,j,NA,NA,NA,21,6,"6,5,4,13,12,9,3,2,1,10,11,8,14,7,15"
15454,commdev-image-keyboard-response,352,1444435,learnblock2,604.5999999940395,img/planet8_right.png,8,Community 3,NA,TRUE,j,j,NA,NA,NA,21,6,"6,5,4,13,12,9,3,2,1,10,11,8,14,7,15"
15454,commdev-image-keyboard-response,353,1445693,learnblock2,564.7000000029802,img/planet15_right.png,15,Community 3,NA,TRUE,j,j,NA,NA,NA,21,6,"6,5,4,13,12,9,3,2,1,10,11,8,14,7,15"
15454,commdev-image-keyboard-response,354,1446949,learnblock2,578.7999999970198,img/planet8_right.png,8,Community 3,NA,TRUE,j,j,NA,NA,NA,21,6,"6,5,4,13,12,9,3,2,1,10,11,8,14,7,15"
15454,commdev-image-keyboard-response,355,1448207,learnblock2,515.2000000029802,img/planet7_right.png,7,Community 3,NA,TRUE,j,j,NA,NA,NA,21,6,"6,5,4,13,12,9,3,2,1,10,11,8,14,7,15"
15454,commdev-image-keyboard-response,356,1449471,learnblock2,580.0999999940395,img/planet11_left.png,11,Community 3,NA,TRUE,f,f,NA,NA,NA,21,6,"6,5,4,13,12,9,3,2,1,10,11,8,14,7,15"
15454,commdev-image-keyboard-response,357,1450737,learnblock2,566.5999999940395,img/planet7_left.png,7,Community 3,NA,TRUE,f,f,NA,NA,NA,21,6,"6,5,4,13,12,9,3,2,1,10,11,8,14,7,15"
15454,commdev-image-keyboard-response,358,1451990,learnblock2,642.4000000059605,img/planet14_right.png,14,Community 3,NA,TRUE,j,j,NA,NA,NA,21,6,"6,5,4,13,12,9,3,2,1,10,11,8,14,7,15"
15454,commdev-image-keyboard-response,359,1453248,learnblock2,610,img/planet7_left.png,7,Community 3,NA,TRUE,f,f,NA,NA,NA,21,6,"6,5,4,13,12,9,3,2,1,10,11,8,14,7,15"
15454,commdev-image-keyboard-response,360,1454504,learnblock2,727.2000000029802,img/planet15_left.png,15,Community 3,NA,TRUE,f,f,NA,NA,NA,21,6,"6,5,4,13,12,9,3,2,1,10,11,8,14,7,15"
15454,commdev-image-keyboard-response,361,1455763,learnblock2,619.6000000089407,img/planet7_left.png,7,Community 3,NA,TRUE,f,f,NA,NA,NA,21,6,"6,5,4,13,12,9,3,2,1,10,11,8,14,7,15"
15454,commdev-image-keyboard-response,362,1457031,learnblock2,511.20000000298023,img/planet11_right.png,11,Community 3,NA,TRUE,j,j,NA,NA,NA,21,6,"6,5,4,13,12,9,3,2,1,10,11,8,14,7,15"
15454,commdev-image-keyboard-response,363,1458289,learnblock2,534.8999999910593,img/planet7_right.png,7,Community 3,NA,TRUE,j,j,NA,NA,NA,21,6,"6,5,4,13,12,9,3,2,1,10,11,8,14,7,15"
15454,commdev-image-keyboard-response,364,1459547,learnblock2,595.9000000059605,img/planet8_left.png,8,Community 3,NA,TRUE,f,f,NA,NA,NA,21,6,"6,5,4,13,12,9,3,2,1,10,11,8,14,7,15"
15454,commdev-image-keyboard-response,365,1460802,learnblock2,593.3999999910593,img/planet14_left.png,14,Community 3,NA,TRUE,f,f,NA,NA,NA,21,6,"6,5,4,13,12,9,3,2,1,10,11,8,14,7,15"
15454,commdev-image-keyboard-response,366,1462059,learnblock2,693.4000000059605,img/planet7_left.png,7,Community 3,NA,TRUE,f,f,NA,NA,NA,21,6,"6,5,4,13,12,9,3,2,1,10,11,8,14,7,15"
15454,commdev-image-keyboard-response,367,1463312,learnblock2,577.2999999970198,img/planet8_left.png,8,Community 3,NA,TRUE,f,f,NA,NA,NA,21,6,"6,5,4,13,12,9,3,2,1,10,11,8,14,7,15"
15454,commdev-image-keyboard-response,368,1464569,learnblock2,567.8999999910593,img/planet14_left.png,14,Community 3,NA,TRUE,f,f,NA,NA,NA,21,6,"6,5,4,13,12,9,3,2,1,10,11,8,14,7,15"
15454,commdev-image-keyboard-response,369,1465824,learnblock2,500.09999999403954,img/planet7_right.png,7,Community 3,NA,TRUE,j,j,NA,NA,NA,21,6,"6,5,4,13,12,9,3,2,1,10,11,8,14,7,15"
15454,commdev-image-keyboard-response,370,1467084,learnblock2,628.7000000029802,img/planet8_left.png,8,Community 3,NA,TRUE,f,f,NA,NA,NA,21,6,"6,5,4,13,12,9,3,2,1,10,11,8,14,7,15"
15454,commdev-image-keyboard-response,371,1468342,learnblock2,998.6000000089407,img/planet14_right.png,14,Community 3,NA,TRUE,j,j,NA,NA,NA,21,6,"6,5,4,13,12,9,3,2,1,10,11,8,14,7,15"
15454,commdev-image-keyboard-response,372,1469595,learnblock2,818.1000000089407,img/planet8_right.png,8,Community 3,NA,TRUE,j,j,NA,NA,NA,21,6,"6,5,4,13,12,9,3,2,1,10,11,8,14,7,15"
15454,commdev-image-keyboard-response,373,1470849,learnblock2,671.2999999970198,img/planet2_left.png,2,Community 2,NA,TRUE,f,f,NA,NA,NA,21,6,"6,5,4,13,12,9,3,2,1,10,11,8,14,7,15"
15454,commdev-image-keyboard-response,374,1472103,learnblock2,619.2000000029802,img/planet1_right.png,1,Community 2,NA,TRUE,j,j,NA,NA,NA,21,6,"6,5,4,13,12,9,3,2,1,10,11,8,14,7,15"
15454,commdev-image-keyboard-response,375,1473358,learnblock2,525.7999999970198,img/planet9_left.png,9,Community 2,NA,TRUE,f,f,NA,NA,NA,21,6,"6,5,4,13,12,9,3,2,1,10,11,8,14,7,15"
15454,commdev-image-keyboard-response,376,1474611,learnblock2,622.5,img/planet13_right.png,13,Community 1,NA,TRUE,j,j,NA,NA,NA,21,6,"6,5,4,13,12,9,3,2,1,10,11,8,14,7,15"
15454,commdev-image-keyboard-response,377,1475868,learnblock2,542.3999999910593,img/planet5_right.png,5,Community 1,NA,TRUE,j,j,NA,NA,NA,21,6,"6,5,4,13,12,9,3,2,1,10,11,8,14,7,15"
15454,commdev-image-keyboard-response,378,1477122,learnblock2,711.6000000089407,img/planet4_right.png,4,Community 1,NA,TRUE,j,j,NA,NA,NA,21,6,"6,5,4,13,12,9,3,2,1,10,11,8,14,7,15"
15454,commdev-image-keyboard-response,379,1478387,learnblock2,580,img/planet5_right.png,5,Community 1,NA,TRUE,j,j,NA,NA,NA,21,6,"6,5,4,13,12,9,3,2,1,10,11,8,14,7,15"
15454,commdev-image-keyboard-response,380,1479646,learnblock2,769.2000000029802,img/planet13_right.png,13,Community 1,NA,TRUE,j,j,NA,NA,NA,21,6,"6,5,4,13,12,9,3,2,1,10,11,8,14,7,15"
15454,commdev-image-keyboard-response,381,1480909,learnblock2,570.5999999940395,img/planet4_left.png,4,Community 1,NA,TRUE,f,f,NA,NA,NA,21,6,"6,5,4,13,12,9,3,2,1,10,11,8,14,7,15"
15454,commdev-image-keyboard-response,382,1482165,learnblock2,781.8999999910593,img/planet13_left.png,13,Community 1,NA,TRUE,f,f,NA,NA,NA,21,6,"6,5,4,13,12,9,3,2,1,10,11,8,14,7,15"
15454,commdev-image-keyboard-response,383,1483425,learnblock2,820.2999999970198,img/planet5_left.png,5,Community 1,NA,TRUE,f,f,NA,NA,NA,21,6,"6,5,4,13,12,9,3,2,1,10,11,8,14,7,15"
15454,commdev-image-keyboard-response,384,1484679,learnblock2,639.4000000059605,img/planet4_left.png,4,Community 1,NA,TRUE,f,f,NA,NA,NA,21,6,"6,5,4,13,12,9,3,2,1,10,11,8,14,7,15"
15454,commdev-image-keyboard-response,385,1485937,learnblock2,702.2000000029802,img/planet13_left.png,13,Community 1,NA,TRUE,f,f,NA,NA,NA,21,6,"6,5,4,13,12,9,3,2,1,10,11,8,14,7,15"
15454,commdev-image-keyboard-response,386,1487199,learnblock2,648.7999999970198,img/planet9_left.png,9,Community 2,NA,TRUE,f,f,NA,NA,NA,21,6,"6,5,4,13,12,9,3,2,1,10,11,8,14,7,15"
15454,commdev-image-keyboard-response,387,1488458,learnblock2,767.7999999970198,img/planet1_right.png,1,Community 2,NA,TRUE,j,j,NA,NA,NA,21,6,"6,5,4,13,12,9,3,2,1,10,11,8,14,7,15"
15454,commdev-image-keyboard-response,388,1489719,learnblock2,1107.7999999970198,img/planet2_right.png,2,Community 2,NA,TRUE,j,j,NA,NA,NA,21,6,"6,5,4,13,12,9,3,2,1,10,11,8,14,7,15"
15454,commdev-image-keyboard-response,389,1490971,learnblock2,651.3999999910593,img/planet1_left.png,1,Community 2,NA,TRUE,f,f,NA,NA,NA,21,6,"6,5,4,13,12,9,3,2,1,10,11,8,14,7,15"
15454,commdev-image-keyboard-response,390,1492231,learnblock2,687.3999999910593,img/planet9_left.png,9,Community 2,NA,TRUE,f,f,NA,NA,NA,21,6,"6,5,4,13,12,9,3,2,1,10,11,8,14,7,15"
15454,commdev-image-keyboard-response,391,1493488,learnblock2,591.3000000119209,img/planet10_left.png,10,Community 2,NA,TRUE,f,f,NA,NA,NA,21,6,"6,5,4,13,12,9,3,2,1,10,11,8,14,7,15"
15454,commdev-image-keyboard-response,392,1494750,learnblock2,668.5,img/planet9_left.png,9,Community 2,NA,TRUE,f,f,NA,NA,NA,21,6,"6,5,4,13,12,9,3,2,1,10,11,8,14,7,15"
15454,commdev-image-keyboard-response,393,1496005,learnblock2,732.6000000089407,img/planet10_left.png,10,Community 2,NA,TRUE,f,f,NA,NA,NA,21,6,"6,5,4,13,12,9,3,2,1,10,11,8,14,7,15"
15454,commdev-image-keyboard-response,394,1497267,learnblock2,976.9000000059605,img/planet9_right.png,9,Community 2,NA,TRUE,j,j,NA,NA,NA,21,6,"6,5,4,13,12,9,3,2,1,10,11,8,14,7,15"
15454,commdev-image-keyboard-response,395,1498534,learnblock2,null,img/planet10_left.png,10,Community 2,NA,FALSE,null,f,NA,NA,NA,21,6,"6,5,4,13,12,9,3,2,1,10,11,8,14,7,15"
15454,commdev-image-keyboard-response,396,1499791,learnblock2,601.2999999970198,img/planet9_left.png,9,Community 2,NA,TRUE,f,f,NA,NA,NA,21,6,"6,5,4,13,12,9,3,2,1,10,11,8,14,7,15"
15454,commdev-image-keyboard-response,397,1501045,learnblock2,561.4000000059605,img/planet10_right.png,10,Community 2,NA,TRUE,j,j,NA,NA,NA,21,6,"6,5,4,13,12,9,3,2,1,10,11,8,14,7,15"
15454,commdev-image-keyboard-response,398,1502311,learnblock2,637.2000000029802,img/planet1_left.png,1,Community 2,NA,TRUE,f,f,NA,NA,NA,21,6,"6,5,4,13,12,9,3,2,1,10,11,8,14,7,15"
15454,commdev-image-keyboard-response,399,1503564,learnblock2,578.6000000089407,img/planet10_right.png,10,Community 2,NA,TRUE,j,j,NA,NA,NA,21,6,"6,5,4,13,12,9,3,2,1,10,11,8,14,7,15"
15454,commdev-image-keyboard-response,400,1504847,learnblock2,615.1000000089407,img/planet1_right.png,1,Community 2,NA,TRUE,j,j,NA,NA,NA,21,6,"6,5,4,13,12,9,3,2,1,10,11,8,14,7,15"
15454,commdev-image-keyboard-response,401,1506102,learnblock2,587.2999999970198,img/planet10_right.png,10,Community 2,NA,TRUE,j,j,NA,NA,NA,21,6,"6,5,4,13,12,9,3,2,1,10,11,8,14,7,15"
15454,commdev-image-keyboard-response,402,1507360,learnblock2,555.4000000059605,img/planet9_left.png,9,Community 2,NA,TRUE,f,f,NA,NA,NA,21,6,"6,5,4,13,12,9,3,2,1,10,11,8,14,7,15"
15454,commdev-image-keyboard-response,403,1508614,learnblock2,608.7999999970198,img/planet3_left.png,3,Community 2,NA,TRUE,f,f,NA,NA,NA,21,6,"6,5,4,13,12,9,3,2,1,10,11,8,14,7,15"
15454,commdev-image-keyboard-response,404,1509866,learnblock2,651.5,img/planet1_right.png,1,Community 2,NA,TRUE,j,j,NA,NA,NA,21,6,"6,5,4,13,12,9,3,2,1,10,11,8,14,7,15"
15454,commdev-image-keyboard-response,405,1511123,learnblock2,586.7999999970198,img/planet9_left.png,9,Community 2,NA,TRUE,f,f,NA,NA,NA,21,6,"6,5,4,13,12,9,3,2,1,10,11,8,14,7,15"
15454,commdev-image-keyboard-response,406,1512381,learnblock2,611.5999999940395,img/planet3_left.png,3,Community 2,NA,TRUE,f,f,NA,NA,NA,21,6,"6,5,4,13,12,9,3,2,1,10,11,8,14,7,15"
15454,commdev-image-keyboard-response,407,1513637,learnblock2,683.6000000089407,img/planet2_left.png,2,Community 2,NA,TRUE,f,f,NA,NA,NA,21,6,"6,5,4,13,12,9,3,2,1,10,11,8,14,7,15"
15454,commdev-image-keyboard-response,408,1514897,learnblock2,593.3000000119209,img/planet8_left.png,8,Community 3,NA,TRUE,f,f,NA,NA,NA,21,6,"6,5,4,13,12,9,3,2,1,10,11,8,14,7,15"
15454,commdev-image-keyboard-response,409,1516152,learnblock2,510.6000000089407,img/planet15_left.png,15,Community 3,NA,TRUE,f,f,NA,NA,NA,21,6,"6,5,4,13,12,9,3,2,1,10,11,8,14,7,15"
15454,commdev-image-keyboard-response,410,1517410,learnblock2,525.1000000089407,img/planet7_right.png,7,Community 3,NA,TRUE,j,j,NA,NA,NA,21,6,"6,5,4,13,12,9,3,2,1,10,11,8,14,7,15"
15454,commdev-image-keyboard-response,411,1518670,learnblock2,519.2999999970198,img/planet8_right.png,8,Community 3,NA,TRUE,j,j,NA,NA,NA,21,6,"6,5,4,13,12,9,3,2,1,10,11,8,14,7,15"
15454,commdev-image-keyboard-response,412,1519926,learnblock2,582.5999999940395,img/planet7_left.png,7,Community 3,NA,TRUE,f,f,NA,NA,NA,21,6,"6,5,4,13,12,9,3,2,1,10,11,8,14,7,15"
15454,commdev-image-keyboard-response,413,1521185,learnblock2,628.5999999940395,img/planet14_left.png,14,Community 3,NA,TRUE,f,f,NA,NA,NA,21,6,"6,5,4,13,12,9,3,2,1,10,11,8,14,7,15"
15454,commdev-image-keyboard-response,414,1522450,learnblock2,804.4000000059605,img/planet8_right.png,8,Community 3,NA,TRUE,j,j,NA,NA,NA,21,6,"6,5,4,13,12,9,3,2,1,10,11,8,14,7,15"
15454,commdev-image-keyboard-response,415,1523709,learnblock2,667.7000000029802,img/planet7_right.png,7,Community 3,NA,TRUE,j,j,NA,NA,NA,21,6,"6,5,4,13,12,9,3,2,1,10,11,8,14,7,15"
15454,commdev-image-keyboard-response,416,1524970,learnblock2,607.9000000059605,img/planet8_left.png,8,Community 3,NA,TRUE,f,f,NA,NA,NA,21,6,"6,5,4,13,12,9,3,2,1,10,11,8,14,7,15"
15454,commdev-image-keyboard-response,417,1526232,learnblock2,595.5,img/planet7_right.png,7,Community 3,NA,TRUE,j,j,NA,NA,NA,21,6,"6,5,4,13,12,9,3,2,1,10,11,8,14,7,15"
15454,commdev-image-keyboard-response,418,1527498,learnblock2,624,img/planet11_left.png,11,Community 3,NA,TRUE,f,f,NA,NA,NA,21,6,"6,5,4,13,12,9,3,2,1,10,11,8,14,7,15"
15454,commdev-image-keyboard-response,419,1528754,learnblock2,565.5,img/planet14_left.png,14,Community 3,NA,TRUE,f,f,NA,NA,NA,21,6,"6,5,4,13,12,9,3,2,1,10,11,8,14,7,15"
15454,commdev-image-keyboard-response,420,1530013,learnblock2,707.8000000119209,img/planet7_right.png,7,Community 3,NA,TRUE,j,j,NA,NA,NA,21,6,"6,5,4,13,12,9,3,2,1,10,11,8,14,7,15"
15454,commdev-image-keyboard-response,421,1531273,learnblock2,657.1000000089407,img/planet15_left.png,15,Community 3,NA,TRUE,f,f,NA,NA,NA,21,6,"6,5,4,13,12,9,3,2,1,10,11,8,14,7,15"
15454,commdev-image-keyboard-response,422,1532527,learnblock2,616.7999999970198,img/planet11_left.png,11,Community 3,NA,TRUE,f,f,NA,NA,NA,21,6,"6,5,4,13,12,9,3,2,1,10,11,8,14,7,15"
15454,commdev-image-keyboard-response,423,1533779,learnblock2,938.2999999970198,img/planet7_right.png,7,Community 3,NA,TRUE,j,j,NA,NA,NA,21,6,"6,5,4,13,12,9,3,2,1,10,11,8,14,7,15"
15454,commdev-image-keyboard-response,424,1535080,learnblock2,700.5999999940395,img/planet11_left.png,11,Community 3,NA,TRUE,f,f,NA,NA,NA,21,6,"6,5,4,13,12,9,3,2,1,10,11,8,14,7,15"
15454,commdev-image-keyboard-response,425,1536345,learnblock2,522.2999999970198,img/planet14_right.png,14,Community 3,NA,TRUE,j,j,NA,NA,NA,21,6,"6,5,4,13,12,9,3,2,1,10,11,8,14,7,15"
15454,commdev-image-keyboard-response,426,1537604,learnblock2,531.6000000089407,img/planet7_left.png,7,Community 3,NA,TRUE,f,f,NA,NA,NA,21,6,"6,5,4,13,12,9,3,2,1,10,11,8,14,7,15"
15454,commdev-image-keyboard-response,427,1538869,learnblock2,563.6000000089407,img/planet14_left.png,14,Community 3,NA,TRUE,f,f,NA,NA,NA,21,6,"6,5,4,13,12,9,3,2,1,10,11,8,14,7,15"
15454,commdev-image-keyboard-response,428,1540129,learnblock2,571.5,img/planet11_right.png,11,Community 3,NA,TRUE,j,j,NA,NA,NA,21,6,"6,5,4,13,12,9,3,2,1,10,11,8,14,7,15"
15454,commdev-image-keyboard-response,429,1541386,learnblock2,442,img/planet15_right.png,15,Community 3,NA,TRUE,j,j,NA,NA,NA,21,6,"6,5,4,13,12,9,3,2,1,10,11,8,14,7,15"
15454,commdev-image-keyboard-response,430,1542653,learnblock2,680.9000000059605,img/planet8_left.png,8,Community 3,NA,TRUE,f,f,NA,NA,NA,21,6,"6,5,4,13,12,9,3,2,1,10,11,8,14,7,15"
15454,commdev-image-keyboard-response,431,1543918,learnblock2,538.2000000029802,img/planet7_right.png,7,Community 3,NA,TRUE,j,j,NA,NA,NA,21,6,"6,5,4,13,12,9,3,2,1,10,11,8,14,7,15"
15454,commdev-image-keyboard-response,432,1545173,learnblock2,549.7000000029802,img/planet14_right.png,14,Community 3,NA,TRUE,j,j,NA,NA,NA,21,6,"6,5,4,13,12,9,3,2,1,10,11,8,14,7,15"
15454,commdev-image-keyboard-response,433,1546428,learnblock2,508,img/planet7_left.png,7,Community 3,NA,TRUE,f,f,NA,NA,NA,21,6,"6,5,4,13,12,9,3,2,1,10,11,8,14,7,15"
15454,commdev-image-keyboard-response,434,1547690,learnblock2,585.2999999970198,img/planet11_right.png,11,Community 3,NA,TRUE,j,j,NA,NA,NA,21,6,"6,5,4,13,12,9,3,2,1,10,11,8,14,7,15"
15454,commdev-image-keyboard-response,435,1548950,learnblock2,664.7999999970198,img/planet7_left.png,7,Community 3,NA,TRUE,f,f,NA,NA,NA,21,6,"6,5,4,13,12,9,3,2,1,10,11,8,14,7,15"
15454,commdev-image-keyboard-response,436,1550203,learnblock2,611.7999999970198,img/planet14_right.png,14,Community 3,NA,TRUE,j,j,NA,NA,NA,21,6,"6,5,4,13,12,9,3,2,1,10,11,8,14,7,15"
15454,commdev-image-keyboard-response,437,1551455,learnblock2,491.09999999403954,img/planet7_right.png,7,Community 3,NA,TRUE,j,j,NA,NA,NA,21,6,"6,5,4,13,12,9,3,2,1,10,11,8,14,7,15"
15454,commdev-image-keyboard-response,438,1552713,learnblock2,510.6000000089407,img/planet14_left.png,14,Community 3,NA,TRUE,f,f,NA,NA,NA,21,6,"6,5,4,13,12,9,3,2,1,10,11,8,14,7,15"
15454,commdev-image-keyboard-response,439,1553969,learnblock2,507.5,img/planet15_left.png,15,Community 3,NA,TRUE,f,f,NA,NA,NA,21,6,"6,5,4,13,12,9,3,2,1,10,11,8,14,7,15"
15454,commdev-image-keyboard-response,440,1555228,learnblock2,631.3000000119209,img/planet7_right.png,7,Community 3,NA,TRUE,j,j,NA,NA,NA,21,6,"6,5,4,13,12,9,3,2,1,10,11,8,14,7,15"
15454,commdev-image-keyboard-response,441,1556483,learnblock2,621.0999999940395,img/planet11_left.png,11,Community 3,NA,TRUE,f,f,NA,NA,NA,21,6,"6,5,4,13,12,9,3,2,1,10,11,8,14,7,15"
15454,commdev-image-keyboard-response,442,1557740,learnblock2,528.5,img/planet15_right.png,15,Community 3,NA,TRUE,j,j,NA,NA,NA,21,6,"6,5,4,13,12,9,3,2,1,10,11,8,14,7,15"
15454,commdev-image-keyboard-response,443,1559009,learnblock2,581.9000000059605,img/planet8_right.png,8,Community 3,NA,TRUE,j,j,NA,NA,NA,21,6,"6,5,4,13,12,9,3,2,1,10,11,8,14,7,15"
15454,commdev-image-keyboard-response,444,1560263,learnblock2,502,img/planet15_left.png,15,Community 3,NA,TRUE,f,f,NA,NA,NA,21,6,"6,5,4,13,12,9,3,2,1,10,11,8,14,7,15"
15454,commdev-image-keyboard-response,445,1561514,learnblock2,662.1000000089407,img/planet14_left.png,14,Community 3,NA,TRUE,f,f,NA,NA,NA,21,6,"6,5,4,13,12,9,3,2,1,10,11,8,14,7,15"
15454,commdev-image-keyboard-response,446,1562766,learnblock2,705.5,img/planet15_left.png,15,Community 3,NA,TRUE,f,f,NA,NA,NA,21,6,"6,5,4,13,12,9,3,2,1,10,11,8,14,7,15"
15454,commdev-image-keyboard-response,447,1564026,learnblock2,592.8999999910593,img/planet11_left.png,11,Community 3,NA,TRUE,f,f,NA,NA,NA,21,6,"6,5,4,13,12,9,3,2,1,10,11,8,14,7,15"
15454,commdev-image-keyboard-response,448,1565290,learnblock2,703.4000000059605,img/planet15_right.png,15,Community 3,NA,TRUE,j,j,NA,NA,NA,21,6,"6,5,4,13,12,9,3,2,1,10,11,8,14,7,15"
15454,commdev-image-keyboard-response,449,1566542,learnblock2,623.5999999940395,img/planet8_left.png,8,Community 3,NA,TRUE,f,f,NA,NA,NA,21,6,"6,5,4,13,12,9,3,2,1,10,11,8,14,7,15"
15454,commdev-image-keyboard-response,450,1567796,learnblock2,753.5999999940395,img/planet14_right.png,14,Community 3,NA,TRUE,j,j,NA,NA,NA,21,6,"6,5,4,13,12,9,3,2,1,10,11,8,14,7,15"
15454,commdev-image-keyboard-response,451,1569054,learnblock2,666.4000000059605,img/planet15_left.png,15,Community 3,NA,TRUE,f,f,NA,NA,NA,21,6,"6,5,4,13,12,9,3,2,1,10,11,8,14,7,15"
15454,commdev-image-keyboard-response,452,1570309,learnblock2,553.2000000029802,img/planet11_right.png,11,Community 3,NA,TRUE,j,j,NA,NA,NA,21,6,"6,5,4,13,12,9,3,2,1,10,11,8,14,7,15"
15454,commdev-image-keyboard-response,453,1571569,learnblock2,704.8999999910593,img/planet15_left.png,15,Community 3,NA,TRUE,f,f,NA,NA,NA,21,6,"6,5,4,13,12,9,3,2,1,10,11,8,14,7,15"
15454,commdev-image-keyboard-response,454,1572821,learnblock2,588.6999999880791,img/planet11_right.png,11,Community 3,NA,TRUE,j,j,NA,NA,NA,21,6,"6,5,4,13,12,9,3,2,1,10,11,8,14,7,15"
15454,commdev-image-keyboard-response,455,1574088,learnblock2,679.2999999970198,img/planet14_left.png,14,Community 3,NA,TRUE,f,f,NA,NA,NA,21,6,"6,5,4,13,12,9,3,2,1,10,11,8,14,7,15"
15454,commdev-image-keyboard-response,456,1575354,learnblock2,667.1000000089407,img/planet15_right.png,15,Community 3,NA,TRUE,j,j,NA,NA,NA,21,6,"6,5,4,13,12,9,3,2,1,10,11,8,14,7,15"
15454,commdev-image-keyboard-response,457,1576612,learnblock2,610.5,img/planet14_right.png,14,Community 3,NA,TRUE,j,j,NA,NA,NA,21,6,"6,5,4,13,12,9,3,2,1,10,11,8,14,7,15"
15454,commdev-image-keyboard-response,458,1577866,learnblock2,735.7000000029802,img/planet11_right.png,11,Community 3,NA,TRUE,j,j,NA,NA,NA,21,6,"6,5,4,13,12,9,3,2,1,10,11,8,14,7,15"
15454,commdev-image-keyboard-response,459,1579119,learnblock2,578.2000000029802,img/planet12_left.png,12,Community 1,NA,TRUE,f,f,NA,NA,NA,21,6,"6,5,4,13,12,9,3,2,1,10,11,8,14,7,15"
15454,commdev-image-keyboard-response,460,1580379,learnblock2,586.5,img/planet4_right.png,4,Community 1,NA,TRUE,j,j,NA,NA,NA,21,6,"6,5,4,13,12,9,3,2,1,10,11,8,14,7,15"
15454,commdev-image-keyboard-response,461,1581632,learnblock2,582.6000000089407,img/planet5_left.png,5,Community 1,NA,TRUE,f,f,NA,NA,NA,21,6,"6,5,4,13,12,9,3,2,1,10,11,8,14,7,15"
15454,commdev-image-keyboard-response,462,1582886,learnblock2,636.7000000029802,img/planet12_left.png,12,Community 1,NA,TRUE,f,f,NA,NA,NA,21,6,"6,5,4,13,12,9,3,2,1,10,11,8,14,7,15"
15454,commdev-image-keyboard-response,463,1584140,learnblock2,633,img/planet5_left.png,5,Community 1,NA,TRUE,f,f,NA,NA,NA,21,6,"6,5,4,13,12,9,3,2,1,10,11,8,14,7,15"
15454,commdev-image-keyboard-response,464,1585394,learnblock2,505.09999999403954,img/planet13_left.png,13,Community 1,NA,TRUE,f,f,NA,NA,NA,21,6,"6,5,4,13,12,9,3,2,1,10,11,8,14,7,15"
15454,commdev-image-keyboard-response,465,1586648,learnblock2,572.7000000029802,img/planet4_right.png,4,Community 1,NA,TRUE,j,j,NA,NA,NA,21,6,"6,5,4,13,12,9,3,2,1,10,11,8,14,7,15"
15454,commdev-image-keyboard-response,466,1587901,learnblock2,596.0999999940395,img/planet12_left.png,12,Community 1,NA,TRUE,f,f,NA,NA,NA,21,6,"6,5,4,13,12,9,3,2,1,10,11,8,14,7,15"
15454,commdev-image-keyboard-response,467,1589156,learnblock2,577,img/planet6_left.png,6,Community 1,NA,TRUE,f,f,NA,NA,NA,21,6,"6,5,4,13,12,9,3,2,1,10,11,8,14,7,15"
15454,commdev-image-keyboard-response,468,1590420,learnblock2,572,img/planet12_left.png,12,Community 1,NA,TRUE,f,f,NA,NA,NA,21,6,"6,5,4,13,12,9,3,2,1,10,11,8,14,7,15"
15454,commdev-image-keyboard-response,469,1591676,learnblock2,549.2000000029802,img/planet11_right.png,11,Community 3,NA,TRUE,j,j,NA,NA,NA,21,6,"6,5,4,13,12,9,3,2,1,10,11,8,14,7,15"
15454,commdev-image-keyboard-response,470,1592935,learnblock2,627.7000000029802,img/planet14_left.png,14,Community 3,NA,TRUE,f,f,NA,NA,NA,21,6,"6,5,4,13,12,9,3,2,1,10,11,8,14,7,15"
15454,commdev-image-keyboard-response,471,1594189,learnblock2,738.5,img/planet8_right.png,8,Community 3,NA,TRUE,j,j,NA,NA,NA,21,6,"6,5,4,13,12,9,3,2,1,10,11,8,14,7,15"
15454,commdev-image-keyboard-response,472,1595444,learnblock2,517,img/planet2_right.png,2,Community 2,NA,TRUE,j,j,NA,NA,NA,21,6,"6,5,4,13,12,9,3,2,1,10,11,8,14,7,15"
15454,commdev-image-keyboard-response,473,1596699,learnblock2,656.1999999880791,img/planet3_right.png,3,Community 2,NA,TRUE,j,j,NA,NA,NA,21,6,"6,5,4,13,12,9,3,2,1,10,11,8,14,7,15"
15454,commdev-image-keyboard-response,474,1597955,learnblock2,644.2999999970198,img/planet2_right.png,2,Community 2,NA,TRUE,j,j,NA,NA,NA,21,6,"6,5,4,13,12,9,3,2,1,10,11,8,14,7,15"
15454,commdev-image-keyboard-response,475,1599218,learnblock2,695.4000000059605,img/planet3_right.png,3,Community 2,NA,TRUE,j,j,NA,NA,NA,21,6,"6,5,4,13,12,9,3,2,1,10,11,8,14,7,15"
15454,commdev-image-keyboard-response,476,1600476,learnblock2,676,img/planet1_left.png,1,Community 2,NA,TRUE,f,f,NA,NA,NA,21,6,"6,5,4,13,12,9,3,2,1,10,11,8,14,7,15"
15454,commdev-image-keyboard-response,477,1601730,learnblock2,560.7999999970198,img/planet3_right.png,3,Community 2,NA,TRUE,j,j,NA,NA,NA,21,6,"6,5,4,13,12,9,3,2,1,10,11,8,14,7,15"
15454,commdev-image-keyboard-response,478,1602986,learnblock2,584,img/planet9_left.png,9,Community 2,NA,TRUE,f,f,NA,NA,NA,21,6,"6,5,4,13,12,9,3,2,1,10,11,8,14,7,15"
15454,commdev-image-keyboard-response,479,1604249,learnblock2,508.29999999701977,img/planet10_left.png,10,Community 2,NA,TRUE,f,f,NA,NA,NA,21,6,"6,5,4,13,12,9,3,2,1,10,11,8,14,7,15"
15454,commdev-image-keyboard-response,480,1605507,learnblock2,623.7000000029802,img/planet1_right.png,1,Community 2,NA,TRUE,j,j,NA,NA,NA,21,6,"6,5,4,13,12,9,3,2,1,10,11,8,14,7,15"
15454,commdev-image-keyboard-response,481,1606762,learnblock2,537.5999999940395,img/planet3_right.png,3,Community 2,NA,TRUE,j,j,NA,NA,NA,21,6,"6,5,4,13,12,9,3,2,1,10,11,8,14,7,15"
15454,commdev-image-keyboard-response,482,1608018,learnblock2,579,img/planet2_left.png,2,Community 2,NA,TRUE,f,f,NA,NA,NA,21,6,"6,5,4,13,12,9,3,2,1,10,11,8,14,7,15"
15454,commdev-image-keyboard-response,483,1609284,learnblock2,573.2000000029802,img/planet1_left.png,1,Community 2,NA,TRUE,f,f,NA,NA,NA,21,6,"6,5,4,13,12,9,3,2,1,10,11,8,14,7,15"
15454,commdev-image-keyboard-response,484,1610544,learnblock2,593.5,img/planet9_right.png,9,Community 2,NA,TRUE,j,j,NA,NA,NA,21,6,"6,5,4,13,12,9,3,2,1,10,11,8,14,7,15"
15454,commdev-image-keyboard-response,485,1611799,learnblock2,538.1000000089407,img/planet3_right.png,3,Community 2,NA,TRUE,j,j,NA,NA,NA,21,6,"6,5,4,13,12,9,3,2,1,10,11,8,14,7,15"
15454,commdev-image-keyboard-response,486,1613054,learnblock2,510.59999999403954,img/planet1_right.png,1,Community 2,NA,TRUE,j,j,NA,NA,NA,21,6,"6,5,4,13,12,9,3,2,1,10,11,8,14,7,15"
15454,commdev-image-keyboard-response,487,1614321,learnblock2,559.7999999970198,img/planet3_right.png,3,Community 2,NA,TRUE,j,j,NA,NA,NA,21,6,"6,5,4,13,12,9,3,2,1,10,11,8,14,7,15"
15454,commdev-image-keyboard-response,488,1615580,learnblock2,555.1000000089407,img/planet1_left.png,1,Community 2,NA,TRUE,f,f,NA,NA,NA,21,6,"6,5,4,13,12,9,3,2,1,10,11,8,14,7,15"
15454,commdev-image-keyboard-response,489,1616834,learnblock2,665.2000000029802,img/planet10_right.png,10,Community 2,NA,TRUE,j,j,NA,NA,NA,21,6,"6,5,4,13,12,9,3,2,1,10,11,8,14,7,15"
15454,commdev-image-keyboard-response,490,1618097,learnblock2,532.2000000029802,img/planet2_right.png,2,Community 2,NA,TRUE,j,j,NA,NA,NA,21,6,"6,5,4,13,12,9,3,2,1,10,11,8,14,7,15"
15454,commdev-image-keyboard-response,491,1619353,learnblock2,480.70000000298023,img/planet1_left.png,1,Community 2,NA,TRUE,f,f,NA,NA,NA,21,6,"6,5,4,13,12,9,3,2,1,10,11,8,14,7,15"
15454,commdev-image-keyboard-response,492,1620616,learnblock2,515.2999999970198,img/planet2_left.png,2,Community 2,NA,TRUE,f,f,NA,NA,NA,21,6,"6,5,4,13,12,9,3,2,1,10,11,8,14,7,15"
15454,commdev-image-keyboard-response,493,1621871,learnblock2,617.7000000029802,img/planet3_right.png,3,Community 2,NA,TRUE,j,j,NA,NA,NA,21,6,"6,5,4,13,12,9,3,2,1,10,11,8,14,7,15"
15454,commdev-image-keyboard-response,494,1623126,learnblock2,578.5,img/planet2_left.png,2,Community 2,NA,TRUE,f,f,NA,NA,NA,21,6,"6,5,4,13,12,9,3,2,1,10,11,8,14,7,15"
15454,commdev-image-keyboard-response,495,1624381,learnblock2,585.0999999940395,img/planet3_right.png,3,Community 2,NA,TRUE,j,j,NA,NA,NA,21,6,"6,5,4,13,12,9,3,2,1,10,11,8,14,7,15"
15454,commdev-image-keyboard-response,496,1625647,learnblock2,620.7000000029802,img/planet10_right.png,10,Community 2,NA,TRUE,j,j,NA,NA,NA,21,6,"6,5,4,13,12,9,3,2,1,10,11,8,14,7,15"
15454,commdev-image-keyboard-response,497,1626905,learnblock2,504.3999999910593,img/planet2_right.png,2,Community 2,NA,TRUE,j,j,NA,NA,NA,21,6,"6,5,4,13,12,9,3,2,1,10,11,8,14,7,15"
15454,commdev-image-keyboard-response,498,1628164,learnblock2,549.2999999970198,img/planet3_left.png,3,Community 2,NA,TRUE,f,f,NA,NA,NA,21,6,"6,5,4,13,12,9,3,2,1,10,11,8,14,7,15"
15454,commdev-image-keyboard-response,499,1629420,learnblock2,1017.7999999970198,img/planet9_right.png,9,Community 2,NA,TRUE,j,j,NA,NA,NA,21,6,"6,5,4,13,12,9,3,2,1,10,11,8,14,7,15"
15454,commdev-image-keyboard-response,500,1630677,learnblock2,625.1000000089407,img/planet3_right.png,3,Community 2,NA,TRUE,j,j,NA,NA,NA,21,6,"6,5,4,13,12,9,3,2,1,10,11,8,14,7,15"
15454,commdev-image-keyboard-response,501,1631939,learnblock2,543.6000000089407,img/planet9_left.png,9,Community 2,NA,TRUE,f,f,NA,NA,NA,21,6,"6,5,4,13,12,9,3,2,1,10,11,8,14,7,15"
15454,commdev-image-keyboard-response,502,1633194,learnblock2,667,img/planet3_left.png,3,Community 2,NA,TRUE,f,f,NA,NA,NA,21,6,"6,5,4,13,12,9,3,2,1,10,11,8,14,7,15"
15454,commdev-image-keyboard-response,503,1634452,learnblock2,563.7999999970198,img/planet10_right.png,10,Community 2,NA,TRUE,j,j,NA,NA,NA,21,6,"6,5,4,13,12,9,3,2,1,10,11,8,14,7,15"
15454,commdev-image-keyboard-response,504,1635708,learnblock2,591,img/planet1_left.png,1,Community 2,NA,TRUE,f,f,NA,NA,NA,21,6,"6,5,4,13,12,9,3,2,1,10,11,8,14,7,15"
15454,commdev-image-keyboard-response,505,1636960,learnblock2,654.3999999910593,img/planet3_right.png,3,Community 2,NA,TRUE,j,j,NA,NA,NA,21,6,"6,5,4,13,12,9,3,2,1,10,11,8,14,7,15"
15454,commdev-image-keyboard-response,506,1638216,learnblock2,963.2999999970198,img/planet9_left.png,9,Community 2,NA,TRUE,f,f,NA,NA,NA,21,6,"6,5,4,13,12,9,3,2,1,10,11,8,14,7,15"
15454,commdev-image-keyboard-response,507,1639475,learnblock2,619.2999999970198,img/planet10_right.png,10,Community 2,NA,TRUE,j,j,NA,NA,NA,21,6,"6,5,4,13,12,9,3,2,1,10,11,8,14,7,15"
15454,commdev-image-keyboard-response,508,1640729,learnblock2,607.8999999910593,img/planet9_left.png,9,Community 2,NA,TRUE,f,f,NA,NA,NA,21,6,"6,5,4,13,12,9,3,2,1,10,11,8,14,7,15"
15454,commdev-image-keyboard-response,509,1641983,learnblock2,584.7999999970198,img/planet3_left.png,3,Community 2,NA,TRUE,f,f,NA,NA,NA,21,6,"6,5,4,13,12,9,3,2,1,10,11,8,14,7,15"
15454,commdev-image-keyboard-response,510,1643235,learnblock2,661,img/planet1_left.png,1,Community 2,NA,TRUE,f,f,NA,NA,NA,21,6,"6,5,4,13,12,9,3,2,1,10,11,8,14,7,15"
15454,commdev-image-keyboard-response,511,1644487,learnblock2,629.2999999970198,img/planet10_left.png,10,Community 2,NA,TRUE,f,f,NA,NA,NA,21,6,"6,5,4,13,12,9,3,2,1,10,11,8,14,7,15"
15454,commdev-image-keyboard-response,512,1645742,learnblock2,696.8999999910593,img/planet3_right.png,3,Community 2,NA,TRUE,j,j,NA,NA,NA,21,6,"6,5,4,13,12,9,3,2,1,10,11,8,14,7,15"
15454,commdev-image-keyboard-response,513,1646998,learnblock2,526.9000000059605,img/planet9_left.png,9,Community 2,NA,TRUE,f,f,NA,NA,NA,21,6,"6,5,4,13,12,9,3,2,1,10,11,8,14,7,15"
15454,commdev-image-keyboard-response,514,1648257,learnblock2,721.5,img/planet3_left.png,3,Community 2,NA,TRUE,f,f,NA,NA,NA,21,6,"6,5,4,13,12,9,3,2,1,10,11,8,14,7,15"
15454,commdev-image-keyboard-response,515,1649515,learnblock2,518.2999999970198,img/planet10_right.png,10,Community 2,NA,TRUE,j,j,NA,NA,NA,21,6,"6,5,4,13,12,9,3,2,1,10,11,8,14,7,15"
15454,commdev-image-keyboard-response,516,1650767,learnblock2,572.2000000029802,img/planet1_left.png,1,Community 2,NA,TRUE,f,f,NA,NA,NA,21,6,"6,5,4,13,12,9,3,2,1,10,11,8,14,7,15"
15454,commdev-image-keyboard-response,517,1652027,learnblock2,592.5,img/planet10_right.png,10,Community 2,NA,TRUE,j,j,NA,NA,NA,21,6,"6,5,4,13,12,9,3,2,1,10,11,8,14,7,15"
15454,commdev-image-keyboard-response,518,1653287,learnblock2,484.1000000089407,img/planet9_left.png,9,Community 2,NA,TRUE,f,f,NA,NA,NA,21,6,"6,5,4,13,12,9,3,2,1,10,11,8,14,7,15"
15454,commdev-image-keyboard-response,519,1654554,learnblock2,553.5999999940395,img/planet3_right.png,3,Community 2,NA,TRUE,j,j,NA,NA,NA,21,6,"6,5,4,13,12,9,3,2,1,10,11,8,14,7,15"
15454,commdev-image-keyboard-response,520,1655807,learnblock2,473.09999999403954,img/planet2_right.png,2,Community 2,NA,TRUE,j,j,NA,NA,NA,21,6,"6,5,4,13,12,9,3,2,1,10,11,8,14,7,15"
15454,commdev-image-keyboard-response,521,1657061,learnblock2,564.2999999970198,img/planet1_right.png,1,Community 2,NA,TRUE,j,j,NA,NA,NA,21,6,"6,5,4,13,12,9,3,2,1,10,11,8,14,7,15"
15454,commdev-image-keyboard-response,522,1658316,learnblock2,620.3000000119209,img/planet10_left.png,10,Community 2,NA,TRUE,f,f,NA,NA,NA,21,6,"6,5,4,13,12,9,3,2,1,10,11,8,14,7,15"
15454,commdev-image-keyboard-response,523,1659576,learnblock2,800.8999999910593,img/planet1_right.png,1,Community 2,NA,TRUE,j,j,NA,NA,NA,21,6,"6,5,4,13,12,9,3,2,1,10,11,8,14,7,15"
15454,commdev-image-keyboard-response,524,1660832,learnblock2,594.7999999970198,img/planet2_right.png,2,Community 2,NA,TRUE,j,j,NA,NA,NA,21,6,"6,5,4,13,12,9,3,2,1,10,11,8,14,7,15"
15454,commdev-image-keyboard-response,525,1662086,learnblock2,458.09999999403954,img/planet3_right.png,3,Community 2,NA,TRUE,j,j,NA,NA,NA,21,6,"6,5,4,13,12,9,3,2,1,10,11,8,14,7,15"
15454,commdev-image-keyboard-response,526,1663345,learnblock2,552.7000000029802,img/planet2_left.png,2,Community 2,NA,TRUE,f,f,NA,NA,NA,21,6,"6,5,4,13,12,9,3,2,1,10,11,8,14,7,15"
15454,commdev-image-keyboard-response,527,1664598,learnblock2,666.3000000119209,img/planet1_left.png,1,Community 2,NA,TRUE,f,f,NA,NA,NA,21,6,"6,5,4,13,12,9,3,2,1,10,11,8,14,7,15"
15454,commdev-image-keyboard-response,528,1665851,learnblock2,517.5,img/planet10_right.png,10,Community 2,NA,TRUE,j,j,NA,NA,NA,21,6,"6,5,4,13,12,9,3,2,1,10,11,8,14,7,15"
15454,commdev-image-keyboard-response,529,1667112,learnblock2,511.90000000596046,img/planet9_left.png,9,Community 2,NA,TRUE,f,f,NA,NA,NA,21,6,"6,5,4,13,12,9,3,2,1,10,11,8,14,7,15"
15454,commdev-image-keyboard-response,530,1668369,learnblock2,526.2000000029802,img/planet1_left.png,1,Community 2,NA,TRUE,f,f,NA,NA,NA,21,6,"6,5,4,13,12,9,3,2,1,10,11,8,14,7,15"
15454,commdev-image-keyboard-response,531,1669624,learnblock2,635.5,img/planet3_left.png,3,Community 2,NA,FALSE,j,f,NA,NA,NA,21,6,"6,5,4,13,12,9,3,2,1,10,11,8,14,7,15"
15454,commdev-image-keyboard-response,532,1670887,learnblock2,715,img/planet1_left.png,1,Community 2,NA,TRUE,f,f,NA,NA,NA,21,6,"6,5,4,13,12,9,3,2,1,10,11,8,14,7,15"
15454,commdev-image-keyboard-response,533,1672144,learnblock2,534.8000000119209,img/planet2_left.png,2,Community 2,NA,TRUE,f,f,NA,NA,NA,21,6,"6,5,4,13,12,9,3,2,1,10,11,8,14,7,15"
15454,commdev-image-keyboard-response,534,1673407,learnblock2,553.4000000059605,img/planet1_left.png,1,Community 2,NA,TRUE,f,f,NA,NA,NA,21,6,"6,5,4,13,12,9,3,2,1,10,11,8,14,7,15"
15454,commdev-image-keyboard-response,535,1674662,learnblock2,775,img/planet3_left.png,3,Community 2,NA,TRUE,f,f,NA,NA,NA,21,6,"6,5,4,13,12,9,3,2,1,10,11,8,14,7,15"
15454,commdev-image-keyboard-response,536,1675917,learnblock2,563.1999999880791,img/planet10_right.png,10,Community 2,NA,TRUE,j,j,NA,NA,NA,21,6,"6,5,4,13,12,9,3,2,1,10,11,8,14,7,15"
15454,commdev-image-keyboard-response,537,1677177,learnblock2,524.6999999880791,img/planet3_right.png,3,Community 2,NA,TRUE,j,j,NA,NA,NA,21,6,"6,5,4,13,12,9,3,2,1,10,11,8,14,7,15"
15454,commdev-image-keyboard-response,538,1678433,learnblock2,419.59999999403954,img/planet1_right.png,1,Community 2,NA,TRUE,j,j,NA,NA,NA,21,6,"6,5,4,13,12,9,3,2,1,10,11,8,14,7,15"
15454,commdev-image-keyboard-response,539,1679691,learnblock2,509.59999999403954,img/planet9_right.png,9,Community 2,NA,TRUE,j,j,NA,NA,NA,21,6,"6,5,4,13,12,9,3,2,1,10,11,8,14,7,15"
15454,commdev-image-keyboard-response,540,1680949,learnblock2,499.70000000298023,img/planet1_right.png,1,Community 2,NA,TRUE,j,j,NA,NA,NA,21,6,"6,5,4,13,12,9,3,2,1,10,11,8,14,7,15"
15454,commdev-image-keyboard-response,541,1682206,learnblock2,637.4000000059605,img/planet3_right.png,3,Community 2,NA,TRUE,j,j,NA,NA,NA,21,6,"6,5,4,13,12,9,3,2,1,10,11,8,14,7,15"
15454,commdev-image-keyboard-response,542,1683462,learnblock2,440.40000000596046,img/planet10_left.png,10,Community 2,NA,FALSE,j,f,NA,NA,NA,21,6,"6,5,4,13,12,9,3,2,1,10,11,8,14,7,15"
15454,commdev-image-keyboard-response,543,1684716,learnblock2,639.2999999970198,img/planet1_left.png,1,Community 2,NA,TRUE,f,f,NA,NA,NA,21,6,"6,5,4,13,12,9,3,2,1,10,11,8,14,7,15"
15454,commdev-image-keyboard-response,544,1685972,learnblock2,523.2000000029802,img/planet10_right.png,10,Community 2,NA,TRUE,j,j,NA,NA,NA,21,6,"6,5,4,13,12,9,3,2,1,10,11,8,14,7,15"
15454,commdev-image-keyboard-response,545,1687229,learnblock2,491.5,img/planet2_right.png,2,Community 2,NA,TRUE,j,j,NA,NA,NA,21,6,"6,5,4,13,12,9,3,2,1,10,11,8,14,7,15"
15454,commdev-image-keyboard-response,546,1688482,learnblock2,617.7000000029802,img/planet8_right.png,8,Community 3,NA,TRUE,j,j,NA,NA,NA,21,6,"6,5,4,13,12,9,3,2,1,10,11,8,14,7,15"
15454,commdev-image-keyboard-response,547,1689738,learnblock2,498.5,img/planet2_right.png,2,Community 2,NA,TRUE,j,j,NA,NA,NA,21,6,"6,5,4,13,12,9,3,2,1,10,11,8,14,7,15"
15454,commdev-image-keyboard-response,548,1691003,learnblock2,564.4000000059605,img/planet10_right.png,10,Community 2,NA,TRUE,j,j,NA,NA,NA,21,6,"6,5,4,13,12,9,3,2,1,10,11,8,14,7,15"
15454,commdev-image-keyboard-response,549,1692256,learnblock2,622.8999999910593,img/planet9_left.png,9,Community 2,NA,TRUE,f,f,NA,NA,NA,21,6,"6,5,4,13,12,9,3,2,1,10,11,8,14,7,15"
15454,commdev-image-keyboard-response,550,1693509,learnblock2,596.2000000029802,img/planet13_right.png,13,Community 1,NA,TRUE,j,j,NA,NA,NA,21,6,"6,5,4,13,12,9,3,2,1,10,11,8,14,7,15"
15454,commdev-image-keyboard-response,551,1694768,learnblock2,490.09999999403954,img/planet9_right.png,9,Community 2,NA,TRUE,j,j,NA,NA,NA,21,6,"6,5,4,13,12,9,3,2,1,10,11,8,14,7,15"
15454,commdev-image-keyboard-response,552,1696023,learnblock2,533.5,img/planet13_left.png,13,Community 1,NA,TRUE,f,f,NA,NA,NA,21,6,"6,5,4,13,12,9,3,2,1,10,11,8,14,7,15"
15454,commdev-image-keyboard-response,553,1697282,learnblock2,589.2999999970198,img/planet6_right.png,6,Community 1,NA,TRUE,j,j,NA,NA,NA,21,6,"6,5,4,13,12,9,3,2,1,10,11,8,14,7,15"
15454,commdev-image-keyboard-response,554,1698541,learnblock2,557.7999999970198,img/planet12_left.png,12,Community 1,NA,TRUE,f,f,NA,NA,NA,21,6,"6,5,4,13,12,9,3,2,1,10,11,8,14,7,15"
15454,commdev-image-keyboard-response,555,1699796,learnblock2,596.9000000059605,img/planet11_left.png,11,Community 3,NA,TRUE,f,f,NA,NA,NA,21,6,"6,5,4,13,12,9,3,2,1,10,11,8,14,7,15"
15454,commdev-image-keyboard-response,556,1701054,learnblock2,597.2000000029802,img/planet14_left.png,14,Community 3,NA,TRUE,f,f,NA,NA,NA,21,6,"6,5,4,13,12,9,3,2,1,10,11,8,14,7,15"
15454,commdev-image-keyboard-response,557,1702310,learnblock2,530.2999999970198,img/planet7_right.png,7,Community 3,NA,TRUE,j,j,NA,NA,NA,21,6,"6,5,4,13,12,9,3,2,1,10,11,8,14,7,15"
15454,commdev-image-keyboard-response,558,1703569,learnblock2,526.9000000059605,img/planet8_right.png,8,Community 3,NA,TRUE,j,j,NA,NA,NA,21,6,"6,5,4,13,12,9,3,2,1,10,11,8,14,7,15"
15454,commdev-image-keyboard-response,559,1704832,learnblock2,534.2000000029802,img/planet7_right.png,7,Community 3,NA,TRUE,j,j,NA,NA,NA,21,6,"6,5,4,13,12,9,3,2,1,10,11,8,14,7,15"
15454,commdev-image-keyboard-response,560,1706094,learnblock2,530.2000000029802,img/planet11_right.png,11,Community 3,NA,TRUE,j,j,NA,NA,NA,21,6,"6,5,4,13,12,9,3,2,1,10,11,8,14,7,15"
15454,commdev-image-keyboard-response,561,1707351,learnblock2,664.8999999910593,img/planet7_left.png,7,Community 3,NA,TRUE,f,f,NA,NA,NA,21,6,"6,5,4,13,12,9,3,2,1,10,11,8,14,7,15"
15454,commdev-image-keyboard-response,562,1708607,learnblock2,657.7999999970198,img/planet11_right.png,11,Community 3,NA,TRUE,j,j,NA,NA,NA,21,6,"6,5,4,13,12,9,3,2,1,10,11,8,14,7,15"
15454,commdev-image-keyboard-response,563,1709861,learnblock2,617.2000000029802,img/planet12_right.png,12,Community 1,NA,TRUE,j,j,NA,NA,NA,21,6,"6,5,4,13,12,9,3,2,1,10,11,8,14,7,15"
15454,commdev-image-keyboard-response,564,1711117,learnblock2,662.4000000059605,img/planet4_right.png,4,Community 1,NA,TRUE,j,j,NA,NA,NA,21,6,"6,5,4,13,12,9,3,2,1,10,11,8,14,7,15"
15454,commdev-image-keyboard-response,565,1712370,learnblock2,610.0999999940395,img/planet6_right.png,6,Community 1,NA,TRUE,j,j,NA,NA,NA,21,6,"6,5,4,13,12,9,3,2,1,10,11,8,14,7,15"
15454,commdev-image-keyboard-response,566,1713637,learnblock2,611.1000000089407,img/planet12_left.png,12,Community 1,NA,TRUE,f,f,NA,NA,NA,21,6,"6,5,4,13,12,9,3,2,1,10,11,8,14,7,15"
15454,commdev-image-keyboard-response,567,1714890,learnblock2,694.7999999970198,img/planet6_left.png,6,Community 1,NA,TRUE,f,f,NA,NA,NA,21,6,"6,5,4,13,12,9,3,2,1,10,11,8,14,7,15"
15454,commdev-image-keyboard-response,568,1716149,learnblock2,592.5999999940395,img/planet12_right.png,12,Community 1,NA,TRUE,j,j,NA,NA,NA,21,6,"6,5,4,13,12,9,3,2,1,10,11,8,14,7,15"
15454,commdev-image-keyboard-response,569,1717407,learnblock2,564.7999999970198,img/planet5_left.png,5,Community 1,NA,TRUE,f,f,NA,NA,NA,21,6,"6,5,4,13,12,9,3,2,1,10,11,8,14,7,15"
15454,commdev-image-keyboard-response,570,1718664,learnblock2,600.5999999940395,img/planet12_right.png,12,Community 1,NA,TRUE,j,j,NA,NA,NA,21,6,"6,5,4,13,12,9,3,2,1,10,11,8,14,7,15"
15454,commdev-image-keyboard-response,571,1719922,learnblock2,512.5999999940395,img/planet5_right.png,5,Community 1,NA,TRUE,j,j,NA,NA,NA,21,6,"6,5,4,13,12,9,3,2,1,10,11,8,14,7,15"
15454,commdev-image-keyboard-response,572,1721180,learnblock2,528.7999999970198,img/planet4_left.png,4,Community 1,NA,TRUE,f,f,NA,NA,NA,21,6,"6,5,4,13,12,9,3,2,1,10,11,8,14,7,15"
15454,commdev-image-keyboard-response,573,1722446,learnblock2,592,img/planet6_left.png,6,Community 1,NA,TRUE,f,f,NA,NA,NA,21,6,"6,5,4,13,12,9,3,2,1,10,11,8,14,7,15"
15454,commdev-image-keyboard-response,574,1723705,learnblock2,715.2000000029802,img/planet4_right.png,4,Community 1,NA,TRUE,j,j,NA,NA,NA,21,6,"6,5,4,13,12,9,3,2,1,10,11,8,14,7,15"
15454,commdev-image-keyboard-response,575,1724967,learnblock2,523.9000000059605,img/planet5_right.png,5,Community 1,NA,TRUE,j,j,NA,NA,NA,21,6,"6,5,4,13,12,9,3,2,1,10,11,8,14,7,15"
15454,commdev-image-keyboard-response,576,1726228,learnblock2,474.6000000089407,img/planet12_left.png,12,Community 1,NA,TRUE,f,f,NA,NA,NA,21,6,"6,5,4,13,12,9,3,2,1,10,11,8,14,7,15"
15454,commdev-image-keyboard-response,577,1727484,learnblock2,594.0999999940395,img/planet5_right.png,5,Community 1,NA,TRUE,j,j,NA,NA,NA,21,6,"6,5,4,13,12,9,3,2,1,10,11,8,14,7,15"
15454,commdev-image-keyboard-response,578,1728743,learnblock2,582.1999999880791,img/planet13_right.png,13,Community 1,NA,TRUE,j,j,NA,NA,NA,21,6,"6,5,4,13,12,9,3,2,1,10,11,8,14,7,15"
15454,commdev-image-keyboard-response,579,1730002,learnblock2,598.0999999940395,img/planet6_right.png,6,Community 1,NA,TRUE,j,j,NA,NA,NA,21,6,"6,5,4,13,12,9,3,2,1,10,11,8,14,7,15"
15454,commdev-image-keyboard-response,580,1731261,learnblock2,640.0999999940395,img/planet13_right.png,13,Community 1,NA,TRUE,j,j,NA,NA,NA,21,6,"6,5,4,13,12,9,3,2,1,10,11,8,14,7,15"
15454,commdev-image-keyboard-response,581,1732524,learnblock2,586.5,img/planet9_left.png,9,Community 2,NA,TRUE,f,f,NA,NA,NA,21,6,"6,5,4,13,12,9,3,2,1,10,11,8,14,7,15"
15454,commdev-image-keyboard-response,582,1733783,learnblock2,863.3999999910593,img/planet1_right.png,1,Community 2,NA,TRUE,j,j,NA,NA,NA,21,6,"6,5,4,13,12,9,3,2,1,10,11,8,14,7,15"
