subject_id,trial_type,trial_index,time_elapsed,block,rt,stimulus,planet,community,response,correct,key_press,learning_correct_response,parse,init_locations,final_locations,browser_interactions,num_comp,planet_map
14265,commdev-instructions,7,58651,NA,4554.89999999851,"<p>In this game, you will be shown a 3x3 grid of patterns.</p> <p>The last one in the bottom right-hand corner, <strong>will be missing:</strong></p> <div style='width: 700px;'><div style='float: top;'><img style='width: 200px;' src='practice/p1_M1.png'></img><p class='small'>You need to select<strong> which of the four possible patterns </strong>along the bottom<strong> fits into the gap:</strong></p></div><div style='float: top;'><img style='width: 300px;' src='practice/p1_T1.png'></img></div><br>",NA,NA,NA,NA,NA,NA,NA,NA,NA,4,6,"7,6,1,11,8,4,13,15,3,2,9,5,14,10,12"
14265,commdev-instructions,8,89105,NA,2319.39999999851,"<p>Try to be as fast and as accurate as you can be.</p> <p>If you cannot solve the puzzle then you should guess - you will not be penalised for an incorrect answer.</p> <p>The task contains a shuffled mix of easy, medium and hard puzzles.</p> <p>You will have <strong>30 seconds</strong> to complete each puzzle.</p><br>",NA,NA,NA,NA,NA,NA,NA,NA,NA,4,6,"7,6,1,11,8,4,13,15,3,2,9,5,14,10,12"
14265,commdev-instructions,15,122607,NA,1112.5,<p><strong>Success!</strong></p> <p>You seem to be getting the hang of this...</p> <p>Let's move on to the real trials.</p><br>,NA,NA,NA,NA,NA,NA,NA,NA,NA,4,6,"7,6,1,11,8,4,13,15,3,2,9,5,14,10,12"
14265,commdev-instructions,178,567759,NA,1582.1000000014901,"<p>In this game, you are a scientist on board a space shuttle. </p><p> On each mission, you will visit planets all across the universe.</p><img src=""img/controlroom.jpg"" width=300vw>",NA,NA,NA,NA,NA,NA,NA,NA,NA,4,6,"7,6,1,11,8,4,13,15,3,2,9,5,14,10,12"
14265,commdev-instructions,179,571537,NA,1690.2000000029802,"<p>Here are a few planets you might see:</p><img src=""img/practice1.png"" width=200vw><img src=""img/practice2.png"" width=200vw><img src=""img/practice3.png"" width=200vw>",NA,NA,NA,NA,NA,NA,NA,NA,NA,4,6,"7,6,1,11,8,4,13,15,3,2,9,5,14,10,12"
14265,commdev-instructions,180,580926,NA,1978.6000000014901,"<p>Your job as a scientist is to record which direction the winds are moving on each planet.</p><p>There are two types of wind directions:</p><img src=""img/practice1_left.png"" width=200vw><img src=""img/practice1_right.png"" width=200vw>",NA,NA,NA,NA,NA,NA,NA,NA,NA,4,6,"7,6,1,11,8,4,13,15,3,2,9,5,14,10,12"
14265,commdev-instructions,181,588135,NA,2308.0999999940395,"<p>If the winds are moving this way, press the letter <strong>F</strong> on the keyboard as fast as you can.</p><img src=""img/leftwind.png"" width=250vw>",NA,NA,NA,NA,NA,NA,NA,NA,NA,4,6,"7,6,1,11,8,4,13,15,3,2,9,5,14,10,12"
14265,commdev-instructions,182,595758,NA,3111.10000000149,"<p>If the winds are moving this way, press the letter <strong>J</strong> on the keyboard as fast as you can.</p><img src=""img/rightwind.png"" width=350vw>",NA,NA,NA,NA,NA,NA,NA,NA,NA,4,6,"7,6,1,11,8,4,13,15,3,2,9,5,14,10,12"
14265,commdev-instructions,183,601553,NA,1376.3000000044703,<p>You will have 1 second to respond. Try to respond before the time runs out!,NA,NA,NA,NA,NA,NA,NA,NA,NA,4,6,"7,6,1,11,8,4,13,15,3,2,9,5,14,10,12"
14265,commdev-instructions,184,602714,NA,NA,NA,NA,NA,NA,NA,NA,NA,NA,NA,NA,4,6,"7,6,1,11,8,4,13,15,3,2,9,5,14,10,12"
14265,commdev-instructions,196,666952,NA,1602.4000000059605,"<p>Great, now try a short practice mission. </p><p> This time, you will have 1 second to respond and you won't know whether you pressed the right or wrong key for each planet.</p>",NA,NA,NA,NA,NA,NA,NA,NA,NA,4,6,"7,6,1,11,8,4,13,15,3,2,9,5,14,10,12"
14265,commdev-image-keyboard-response,197,668319,practice,851.6000000014901,img/practice4_left.png,NA,Number not found in mappings,NA,TRUE,f,f,NA,NA,NA,4,6,"7,6,1,11,8,4,13,15,3,2,9,5,14,10,12"
14265,commdev-image-keyboard-response,198,669589,practice,856.2999999970198,img/practice2_left.png,NA,Number not found in mappings,NA,TRUE,f,f,NA,NA,NA,4,6,"7,6,1,11,8,4,13,15,3,2,9,5,14,10,12"
14265,commdev-image-keyboard-response,199,670859,practice,604.7000000029802,img/practice1_right.png,NA,Number not found in mappings,NA,TRUE,j,j,NA,NA,NA,4,6,"7,6,1,11,8,4,13,15,3,2,9,5,14,10,12"
14265,commdev-image-keyboard-response,200,672128,practice,712.3999999985099,img/practice4_left.png,NA,Number not found in mappings,NA,TRUE,f,f,NA,NA,NA,4,6,"7,6,1,11,8,4,13,15,3,2,9,5,14,10,12"
14265,commdev-image-keyboard-response,201,673398,practice,476.6000000014901,img/practice3_right.png,NA,Number not found in mappings,NA,TRUE,j,j,NA,NA,NA,4,6,"7,6,1,11,8,4,13,15,3,2,9,5,14,10,12"
14265,commdev-image-keyboard-response,202,674658,practice,307.6000000014901,img/practice2_right.png,NA,Number not found in mappings,NA,FALSE,f,j,NA,NA,NA,4,6,"7,6,1,11,8,4,13,15,3,2,9,5,14,10,12"
14265,commdev-image-keyboard-response,203,675919,practice,880.7000000029802,img/practice1_right.png,NA,Number not found in mappings,NA,TRUE,j,j,NA,NA,NA,4,6,"7,6,1,11,8,4,13,15,3,2,9,5,14,10,12"
14265,commdev-image-keyboard-response,204,677188,practice,554.6000000014901,img/practice2_right.png,NA,Number not found in mappings,NA,TRUE,j,j,NA,NA,NA,4,6,"7,6,1,11,8,4,13,15,3,2,9,5,14,10,12"
14265,commdev-instructions,205,689756,NA,3026.1999999955297,"<p>Great job with the practice round.</p><p>During real missions, you won't know whether you pressed the right or wrong key for each planet.</p><p>But between missions, we will tell you how you did overall.</p>",NA,NA,NA,NA,NA,NA,NA,NA,NA,4,6,"7,6,1,11,8,4,13,15,3,2,9,5,14,10,12"
14265,commdev-instructions,206,699286,NA,1276.3999999985099,<p>Try your best! You will be paid a bonus based on how many correct responses you make!</p><p>Responses that are too slow will not count toward your bonus.</p>,NA,NA,NA,NA,NA,NA,NA,NA,NA,4,6,"7,6,1,11,8,4,13,15,3,2,9,5,14,10,12"
14265,commdev-instructions,207,705876,NA,386.29999999701977,"<p>You are almost ready to start the real game.</p><p> First, we are going to ask you some questions about how the game works.</p>",NA,NA,NA,NA,NA,NA,NA,NA,NA,4,6,"7,6,1,11,8,4,13,15,3,2,9,5,14,10,12"
14265,commdev-instructions,216,784378,NA,1279.0999999940395,"<p> Nice work! It is now time to start the real game.<p></p>You will go on two missions to record wind directions of different planets.<p></p>Each one will take about 5 minutes. You will get to take a break between missions.<p><p> Remember, press <strong>F</strong> or <strong>J</strong> depending on the wind direction. Good luck!<br><img src=""img/categorize_planet_example.png""",NA,NA,NA,NA,NA,NA,NA,NA,NA,4,6,"7,6,1,11,8,4,13,15,3,2,9,5,14,10,12"
14265,commdev-image-keyboard-response,218,791887,learnblock1,1032.7000000029802,img/planet5_left.png,5,Community 3,NA,TRUE,f,f,NA,NA,NA,4,6,"7,6,1,11,8,4,13,15,3,2,9,5,14,10,12"
14265,commdev-image-keyboard-response,219,793157,learnblock1,637.7000000029802,img/planet10_left.png,10,Community 3,NA,TRUE,f,f,NA,NA,NA,4,6,"7,6,1,11,8,4,13,15,3,2,9,5,14,10,12"
14265,commdev-image-keyboard-response,220,794417,learnblock1,553.6000000014901,img/planet9_left.png,9,Community 3,NA,TRUE,f,f,NA,NA,NA,4,6,"7,6,1,11,8,4,13,15,3,2,9,5,14,10,12"
14265,commdev-image-keyboard-response,221,795687,learnblock1,850,img/planet12_left.png,12,Community 3,NA,TRUE,f,f,NA,NA,NA,4,6,"7,6,1,11,8,4,13,15,3,2,9,5,14,10,12"
14265,commdev-image-keyboard-response,222,796957,learnblock1,764.6000000014901,img/planet5_right.png,5,Community 3,NA,TRUE,j,j,NA,NA,NA,4,6,"7,6,1,11,8,4,13,15,3,2,9,5,14,10,12"
14265,commdev-image-keyboard-response,223,798217,learnblock1,571.7000000029802,img/planet15_left.png,15,Community 2,NA,FALSE,j,f,NA,NA,NA,4,6,"7,6,1,11,8,4,13,15,3,2,9,5,14,10,12"
14265,commdev-image-keyboard-response,224,799474,learnblock1,1017.6000000014901,img/planet2_left.png,2,Community 2,NA,TRUE,f,f,NA,NA,NA,4,6,"7,6,1,11,8,4,13,15,3,2,9,5,14,10,12"
14265,commdev-image-keyboard-response,225,800737,learnblock1,696.2000000029802,img/planet13_left.png,13,Community 2,NA,TRUE,f,f,NA,NA,NA,4,6,"7,6,1,11,8,4,13,15,3,2,9,5,14,10,12"
14265,commdev-image-keyboard-response,226,802007,learnblock1,591.7999999970198,img/planet2_right.png,2,Community 2,NA,TRUE,j,j,NA,NA,NA,4,6,"7,6,1,11,8,4,13,15,3,2,9,5,14,10,12"
14265,commdev-image-keyboard-response,227,803274,learnblock1,549.7999999970198,img/planet3_left.png,3,Community 2,NA,TRUE,f,f,NA,NA,NA,4,6,"7,6,1,11,8,4,13,15,3,2,9,5,14,10,12"
14265,commdev-image-keyboard-response,228,804537,learnblock1,299.70000000298023,img/planet2_right.png,2,Community 2,NA,TRUE,j,j,NA,NA,NA,4,6,"7,6,1,11,8,4,13,15,3,2,9,5,14,10,12"
14265,commdev-image-keyboard-response,229,805798,learnblock1,634.5,img/planet15_right.png,15,Community 2,NA,TRUE,j,j,NA,NA,NA,4,6,"7,6,1,11,8,4,13,15,3,2,9,5,14,10,12"
14265,commdev-image-keyboard-response,230,807067,learnblock1,619.7000000029802,img/planet13_right.png,13,Community 2,NA,TRUE,j,j,NA,NA,NA,4,6,"7,6,1,11,8,4,13,15,3,2,9,5,14,10,12"
14265,commdev-image-keyboard-response,231,808337,learnblock1,745.7000000029802,img/planet4_left.png,4,Community 2,NA,TRUE,f,f,NA,NA,NA,4,6,"7,6,1,11,8,4,13,15,3,2,9,5,14,10,12"
14265,commdev-image-keyboard-response,232,809607,learnblock1,610.5,img/planet13_right.png,13,Community 2,NA,FALSE,f,j,NA,NA,NA,4,6,"7,6,1,11,8,4,13,15,3,2,9,5,14,10,12"
14265,commdev-image-keyboard-response,233,810867,learnblock1,753.7000000029802,img/planet4_right.png,4,Community 2,NA,TRUE,j,j,NA,NA,NA,4,6,"7,6,1,11,8,4,13,15,3,2,9,5,14,10,12"
14265,commdev-image-keyboard-response,234,812127,learnblock1,713.7999999970198,img/planet13_right.png,13,Community 2,NA,TRUE,j,j,NA,NA,NA,4,6,"7,6,1,11,8,4,13,15,3,2,9,5,14,10,12"
14265,commdev-image-keyboard-response,235,813379,learnblock1,603.6999999955297,img/planet3_right.png,3,Community 2,NA,TRUE,j,j,NA,NA,NA,4,6,"7,6,1,11,8,4,13,15,3,2,9,5,14,10,12"
14265,commdev-image-keyboard-response,236,814631,learnblock1,604.7999999970198,img/planet15_right.png,15,Community 2,NA,TRUE,j,j,NA,NA,NA,4,6,"7,6,1,11,8,4,13,15,3,2,9,5,14,10,12"
14265,commdev-image-keyboard-response,237,815894,learnblock1,706.8999999985099,img/planet5_left.png,5,Community 3,NA,TRUE,f,f,NA,NA,NA,4,6,"7,6,1,11,8,4,13,15,3,2,9,5,14,10,12"
14265,commdev-image-keyboard-response,238,817145,learnblock1,588.2000000029802,img/planet12_right.png,12,Community 3,NA,TRUE,j,j,NA,NA,NA,4,6,"7,6,1,11,8,4,13,15,3,2,9,5,14,10,12"
14265,commdev-image-keyboard-response,239,818396,learnblock1,497.20000000298023,img/planet10_left.png,10,Community 3,NA,TRUE,f,f,NA,NA,NA,4,6,"7,6,1,11,8,4,13,15,3,2,9,5,14,10,12"
14265,commdev-image-keyboard-response,240,819647,learnblock1,491.29999999701977,img/planet9_left.png,9,Community 3,NA,TRUE,f,f,NA,NA,NA,4,6,"7,6,1,11,8,4,13,15,3,2,9,5,14,10,12"
14265,commdev-image-keyboard-response,241,820898,learnblock1,653.2999999970198,img/planet14_right.png,14,Community 3,NA,TRUE,j,j,NA,NA,NA,4,6,"7,6,1,11,8,4,13,15,3,2,9,5,14,10,12"
14265,commdev-image-keyboard-response,242,822150,learnblock1,579.7999999970198,img/planet10_right.png,10,Community 3,NA,TRUE,j,j,NA,NA,NA,4,6,"7,6,1,11,8,4,13,15,3,2,9,5,14,10,12"
14265,commdev-image-keyboard-response,243,823401,learnblock1,975.5,img/planet9_right.png,9,Community 3,NA,TRUE,j,j,NA,NA,NA,4,6,"7,6,1,11,8,4,13,15,3,2,9,5,14,10,12"
14265,commdev-image-keyboard-response,244,824653,learnblock1,716.3999999985099,img/planet14_left.png,14,Community 3,NA,TRUE,f,f,NA,NA,NA,4,6,"7,6,1,11,8,4,13,15,3,2,9,5,14,10,12"
14265,commdev-image-keyboard-response,245,825904,learnblock1,675.7999999970198,img/planet12_left.png,12,Community 3,NA,TRUE,f,f,NA,NA,NA,4,6,"7,6,1,11,8,4,13,15,3,2,9,5,14,10,12"
14265,commdev-image-keyboard-response,246,827156,learnblock1,669.7000000029802,img/planet5_right.png,5,Community 3,NA,TRUE,j,j,NA,NA,NA,4,6,"7,6,1,11,8,4,13,15,3,2,9,5,14,10,12"
14265,commdev-image-keyboard-response,247,828406,learnblock1,663.1999999955297,img/planet15_right.png,15,Community 2,NA,TRUE,j,j,NA,NA,NA,4,6,"7,6,1,11,8,4,13,15,3,2,9,5,14,10,12"
14265,commdev-image-keyboard-response,248,829658,learnblock1,574.3999999985099,img/planet2_right.png,2,Community 2,NA,TRUE,j,j,NA,NA,NA,4,6,"7,6,1,11,8,4,13,15,3,2,9,5,14,10,12"
14265,commdev-image-keyboard-response,249,830910,learnblock1,533.8999999985099,img/planet13_right.png,13,Community 2,NA,TRUE,j,j,NA,NA,NA,4,6,"7,6,1,11,8,4,13,15,3,2,9,5,14,10,12"
14265,commdev-image-keyboard-response,250,832161,learnblock1,585.1000000014901,img/planet3_right.png,3,Community 2,NA,TRUE,j,j,NA,NA,NA,4,6,"7,6,1,11,8,4,13,15,3,2,9,5,14,10,12"
14265,commdev-image-keyboard-response,251,833412,learnblock1,663.7999999970198,img/planet15_left.png,15,Community 2,NA,TRUE,f,f,NA,NA,NA,4,6,"7,6,1,11,8,4,13,15,3,2,9,5,14,10,12"
14265,commdev-image-keyboard-response,252,834664,learnblock1,614.5,img/planet5_left.png,5,Community 3,NA,TRUE,f,f,NA,NA,NA,4,6,"7,6,1,11,8,4,13,15,3,2,9,5,14,10,12"
14265,commdev-image-keyboard-response,253,835915,learnblock1,506.8999999985099,img/planet14_right.png,14,Community 3,NA,FALSE,f,j,NA,NA,NA,4,6,"7,6,1,11,8,4,13,15,3,2,9,5,14,10,12"
14265,commdev-image-keyboard-response,254,837166,learnblock1,743.8999999985099,img/planet12_left.png,12,Community 3,NA,TRUE,f,f,NA,NA,NA,4,6,"7,6,1,11,8,4,13,15,3,2,9,5,14,10,12"
14265,commdev-image-keyboard-response,255,838418,learnblock1,679.7999999970198,img/planet10_left.png,10,Community 3,NA,TRUE,f,f,NA,NA,NA,4,6,"7,6,1,11,8,4,13,15,3,2,9,5,14,10,12"
14265,commdev-image-keyboard-response,256,839669,learnblock1,512,img/planet14_right.png,14,Community 3,NA,TRUE,j,j,NA,NA,NA,4,6,"7,6,1,11,8,4,13,15,3,2,9,5,14,10,12"
14265,commdev-image-keyboard-response,257,840920,learnblock1,925.7000000029802,img/planet10_left.png,10,Community 3,NA,TRUE,f,f,NA,NA,NA,4,6,"7,6,1,11,8,4,13,15,3,2,9,5,14,10,12"
14265,commdev-image-keyboard-response,258,842171,learnblock1,986.4000000059605,img/planet12_left.png,12,Community 3,NA,TRUE,f,f,NA,NA,NA,4,6,"7,6,1,11,8,4,13,15,3,2,9,5,14,10,12"
14265,commdev-image-keyboard-response,259,843423,learnblock1,1029.5,img/planet10_right.png,10,Community 3,NA,TRUE,j,j,NA,NA,NA,4,6,"7,6,1,11,8,4,13,15,3,2,9,5,14,10,12"
14265,commdev-image-keyboard-response,260,844673,learnblock1,712.1999999955297,img/planet12_left.png,12,Community 3,NA,TRUE,f,f,NA,NA,NA,4,6,"7,6,1,11,8,4,13,15,3,2,9,5,14,10,12"
14265,commdev-image-keyboard-response,261,845925,learnblock1,679.2000000029802,img/planet9_left.png,9,Community 3,NA,FALSE,j,f,NA,NA,NA,4,6,"7,6,1,11,8,4,13,15,3,2,9,5,14,10,12"
14265,commdev-image-keyboard-response,262,847176,learnblock1,1019.1999999955297,img/planet12_right.png,12,Community 3,NA,TRUE,j,j,NA,NA,NA,4,6,"7,6,1,11,8,4,13,15,3,2,9,5,14,10,12"
14265,commdev-image-keyboard-response,263,848427,learnblock1,599.1000000014901,img/planet5_left.png,5,Community 3,NA,TRUE,f,f,NA,NA,NA,4,6,"7,6,1,11,8,4,13,15,3,2,9,5,14,10,12"
14265,commdev-image-keyboard-response,264,849678,learnblock1,710.6000000014901,img/planet10_left.png,10,Community 3,NA,TRUE,f,f,NA,NA,NA,4,6,"7,6,1,11,8,4,13,15,3,2,9,5,14,10,12"
14265,commdev-image-keyboard-response,265,850930,learnblock1,577.5,img/planet5_right.png,5,Community 3,NA,TRUE,j,j,NA,NA,NA,4,6,"7,6,1,11,8,4,13,15,3,2,9,5,14,10,12"
14265,commdev-image-keyboard-response,266,852181,learnblock1,336.70000000298023,img/planet14_left.png,14,Community 3,NA,TRUE,f,f,NA,NA,NA,4,6,"7,6,1,11,8,4,13,15,3,2,9,5,14,10,12"
14265,commdev-image-keyboard-response,267,853433,learnblock1,555.4000000059605,img/planet9_right.png,9,Community 3,NA,TRUE,j,j,NA,NA,NA,4,6,"7,6,1,11,8,4,13,15,3,2,9,5,14,10,12"
14265,commdev-image-keyboard-response,268,854684,learnblock1,387.80000000447035,img/planet12_left.png,12,Community 3,NA,TRUE,f,f,NA,NA,NA,4,6,"7,6,1,11,8,4,13,15,3,2,9,5,14,10,12"
14265,commdev-image-keyboard-response,269,855935,learnblock1,658.8000000044703,img/planet14_left.png,14,Community 3,NA,TRUE,f,f,NA,NA,NA,4,6,"7,6,1,11,8,4,13,15,3,2,9,5,14,10,12"
14265,commdev-image-keyboard-response,270,857186,learnblock1,677.3000000044703,img/planet12_left.png,12,Community 3,NA,TRUE,f,f,NA,NA,NA,4,6,"7,6,1,11,8,4,13,15,3,2,9,5,14,10,12"
14265,commdev-image-keyboard-response,271,858438,learnblock1,586.4000000059605,img/planet10_left.png,10,Community 3,NA,TRUE,f,f,NA,NA,NA,4,6,"7,6,1,11,8,4,13,15,3,2,9,5,14,10,12"
14265,commdev-image-keyboard-response,272,859690,learnblock1,503.79999999701977,img/planet5_right.png,5,Community 3,NA,TRUE,j,j,NA,NA,NA,4,6,"7,6,1,11,8,4,13,15,3,2,9,5,14,10,12"
14265,commdev-image-keyboard-response,273,860941,learnblock1,386.8999999985099,img/planet10_left.png,10,Community 3,NA,TRUE,f,f,NA,NA,NA,4,6,"7,6,1,11,8,4,13,15,3,2,9,5,14,10,12"
14265,commdev-image-keyboard-response,274,862192,learnblock1,530.2999999970198,img/planet14_left.png,14,Community 3,NA,TRUE,f,f,NA,NA,NA,4,6,"7,6,1,11,8,4,13,15,3,2,9,5,14,10,12"
14265,commdev-image-keyboard-response,275,863445,learnblock1,624.3999999985099,img/planet12_left.png,12,Community 3,NA,TRUE,f,f,NA,NA,NA,4,6,"7,6,1,11,8,4,13,15,3,2,9,5,14,10,12"
14265,commdev-image-keyboard-response,276,864696,learnblock1,691.8999999985099,img/planet5_right.png,5,Community 3,NA,TRUE,j,j,NA,NA,NA,4,6,"7,6,1,11,8,4,13,15,3,2,9,5,14,10,12"
14265,commdev-image-keyboard-response,277,865947,learnblock1,685.8999999985099,img/planet10_right.png,10,Community 3,NA,TRUE,j,j,NA,NA,NA,4,6,"7,6,1,11,8,4,13,15,3,2,9,5,14,10,12"
14265,commdev-image-keyboard-response,278,867198,learnblock1,536,img/planet12_right.png,12,Community 3,NA,TRUE,j,j,NA,NA,NA,4,6,"7,6,1,11,8,4,13,15,3,2,9,5,14,10,12"
14265,commdev-image-keyboard-response,279,868450,learnblock1,513.3999999985099,img/planet5_right.png,5,Community 3,NA,TRUE,j,j,NA,NA,NA,4,6,"7,6,1,11,8,4,13,15,3,2,9,5,14,10,12"
14265,commdev-image-keyboard-response,280,869701,learnblock1,548,img/planet14_right.png,14,Community 3,NA,TRUE,j,j,NA,NA,NA,4,6,"7,6,1,11,8,4,13,15,3,2,9,5,14,10,12"
14265,commdev-image-keyboard-response,281,870952,learnblock1,626,img/planet5_right.png,5,Community 3,NA,TRUE,j,j,NA,NA,NA,4,6,"7,6,1,11,8,4,13,15,3,2,9,5,14,10,12"
14265,commdev-image-keyboard-response,282,872204,learnblock1,617.2000000029802,img/planet14_right.png,14,Community 3,NA,TRUE,j,j,NA,NA,NA,4,6,"7,6,1,11,8,4,13,15,3,2,9,5,14,10,12"
14265,commdev-image-keyboard-response,283,873455,learnblock1,635.6000000014901,img/planet12_right.png,12,Community 3,NA,TRUE,j,j,NA,NA,NA,4,6,"7,6,1,11,8,4,13,15,3,2,9,5,14,10,12"
14265,commdev-image-keyboard-response,284,874707,learnblock1,697.8999999985099,img/planet5_right.png,5,Community 3,NA,TRUE,j,j,NA,NA,NA,4,6,"7,6,1,11,8,4,13,15,3,2,9,5,14,10,12"
14265,commdev-image-keyboard-response,285,875959,learnblock1,572.1000000014901,img/planet14_left.png,14,Community 3,NA,TRUE,f,f,NA,NA,NA,4,6,"7,6,1,11,8,4,13,15,3,2,9,5,14,10,12"
14265,commdev-image-keyboard-response,286,877211,learnblock1,557.2999999970198,img/planet9_right.png,9,Community 3,NA,FALSE,f,j,NA,NA,NA,4,6,"7,6,1,11,8,4,13,15,3,2,9,5,14,10,12"
14265,commdev-image-keyboard-response,287,878462,learnblock1,1155.8000000044703,img/planet12_left.png,12,Community 3,NA,TRUE,f,f,NA,NA,NA,4,6,"7,6,1,11,8,4,13,15,3,2,9,5,14,10,12"
14265,commdev-image-keyboard-response,288,879713,learnblock1,1181.6999999955297,img/planet9_left.png,9,Community 3,NA,TRUE,f,f,NA,NA,NA,4,6,"7,6,1,11,8,4,13,15,3,2,9,5,14,10,12"
14265,commdev-image-keyboard-response,289,880964,learnblock1,730.1000000014901,img/planet8_right.png,8,Community 1,NA,TRUE,j,j,NA,NA,NA,4,6,"7,6,1,11,8,4,13,15,3,2,9,5,14,10,12"
14265,commdev-image-keyboard-response,290,882215,learnblock1,697.1999999955297,img/planet1_left.png,1,Community 1,NA,TRUE,f,f,NA,NA,NA,4,6,"7,6,1,11,8,4,13,15,3,2,9,5,14,10,12"
14265,commdev-image-keyboard-response,291,883466,learnblock1,489.19999999552965,img/planet8_right.png,8,Community 1,NA,TRUE,j,j,NA,NA,NA,4,6,"7,6,1,11,8,4,13,15,3,2,9,5,14,10,12"
14265,commdev-image-keyboard-response,292,884718,learnblock1,348.19999999552965,img/planet9_left.png,9,Community 3,NA,TRUE,f,f,NA,NA,NA,4,6,"7,6,1,11,8,4,13,15,3,2,9,5,14,10,12"
14265,commdev-image-keyboard-response,293,885969,learnblock1,466.79999999701977,img/planet8_right.png,8,Community 1,NA,TRUE,j,j,NA,NA,NA,4,6,"7,6,1,11,8,4,13,15,3,2,9,5,14,10,12"
14265,commdev-image-keyboard-response,294,887220,learnblock1,535.7999999970198,img/planet1_right.png,1,Community 1,NA,TRUE,j,j,NA,NA,NA,4,6,"7,6,1,11,8,4,13,15,3,2,9,5,14,10,12"
14265,commdev-image-keyboard-response,295,888471,learnblock1,579,img/planet7_right.png,7,Community 1,NA,TRUE,j,j,NA,NA,NA,4,6,"7,6,1,11,8,4,13,15,3,2,9,5,14,10,12"
14265,commdev-image-keyboard-response,296,889723,learnblock1,573.2000000029802,img/planet11_right.png,11,Community 1,NA,TRUE,j,j,NA,NA,NA,4,6,"7,6,1,11,8,4,13,15,3,2,9,5,14,10,12"
14265,commdev-image-keyboard-response,297,890974,learnblock1,337.29999999701977,img/planet1_right.png,1,Community 1,NA,FALSE,f,j,NA,NA,NA,4,6,"7,6,1,11,8,4,13,15,3,2,9,5,14,10,12"
14265,commdev-image-keyboard-response,298,892225,learnblock1,465.6000000014901,img/planet11_right.png,11,Community 1,NA,TRUE,j,j,NA,NA,NA,4,6,"7,6,1,11,8,4,13,15,3,2,9,5,14,10,12"
14265,commdev-image-keyboard-response,299,893476,learnblock1,441.20000000298023,img/planet1_left.png,1,Community 1,NA,FALSE,j,f,NA,NA,NA,4,6,"7,6,1,11,8,4,13,15,3,2,9,5,14,10,12"
14265,commdev-image-keyboard-response,300,894727,learnblock1,948.1000000014901,img/planet6_right.png,6,Community 1,NA,TRUE,j,j,NA,NA,NA,4,6,"7,6,1,11,8,4,13,15,3,2,9,5,14,10,12"
14265,commdev-image-keyboard-response,301,895978,learnblock1,672.1999999955297,img/planet1_left.png,1,Community 1,NA,TRUE,f,f,NA,NA,NA,4,6,"7,6,1,11,8,4,13,15,3,2,9,5,14,10,12"
14265,commdev-image-keyboard-response,302,897230,learnblock1,801,img/planet7_right.png,7,Community 1,NA,TRUE,j,j,NA,NA,NA,4,6,"7,6,1,11,8,4,13,15,3,2,9,5,14,10,12"
14265,commdev-image-keyboard-response,303,898482,learnblock1,776.2999999970198,img/planet8_left.png,8,Community 1,NA,TRUE,f,f,NA,NA,NA,4,6,"7,6,1,11,8,4,13,15,3,2,9,5,14,10,12"
14265,commdev-image-keyboard-response,304,899733,learnblock1,610.7999999970198,img/planet7_right.png,7,Community 1,NA,TRUE,j,j,NA,NA,NA,4,6,"7,6,1,11,8,4,13,15,3,2,9,5,14,10,12"
14265,commdev-image-keyboard-response,305,900984,learnblock1,275.29999999701977,img/planet11_left.png,11,Community 1,NA,TRUE,f,f,NA,NA,NA,4,6,"7,6,1,11,8,4,13,15,3,2,9,5,14,10,12"
14265,commdev-image-keyboard-response,306,902236,learnblock1,621,img/planet1_left.png,1,Community 1,NA,TRUE,f,f,NA,NA,NA,4,6,"7,6,1,11,8,4,13,15,3,2,9,5,14,10,12"
14265,commdev-image-keyboard-response,307,903487,learnblock1,513.4000000059605,img/planet7_right.png,7,Community 1,NA,TRUE,j,j,NA,NA,NA,4,6,"7,6,1,11,8,4,13,15,3,2,9,5,14,10,12"
14265,commdev-image-keyboard-response,308,904738,learnblock1,464,img/planet8_right.png,8,Community 1,NA,FALSE,f,j,NA,NA,NA,4,6,"7,6,1,11,8,4,13,15,3,2,9,5,14,10,12"
14265,commdev-image-keyboard-response,309,905990,learnblock1,28.899999998509884,img/planet7_right.png,7,Community 1,NA,FALSE,f,j,NA,NA,NA,4,6,"7,6,1,11,8,4,13,15,3,2,9,5,14,10,12"
14265,commdev-image-keyboard-response,310,907241,learnblock1,1023.4000000059605,img/planet8_right.png,8,Community 1,NA,TRUE,j,j,NA,NA,NA,4,6,"7,6,1,11,8,4,13,15,3,2,9,5,14,10,12"
14265,commdev-image-keyboard-response,311,908493,learnblock1,521.5,img/planet9_right.png,9,Community 3,NA,TRUE,j,j,NA,NA,NA,4,6,"7,6,1,11,8,4,13,15,3,2,9,5,14,10,12"
14265,commdev-image-keyboard-response,312,909744,learnblock1,1043.8999999985099,img/planet14_left.png,14,Community 3,NA,TRUE,f,f,NA,NA,NA,4,6,"7,6,1,11,8,4,13,15,3,2,9,5,14,10,12"
14265,commdev-image-keyboard-response,313,910996,learnblock1,1112.3000000044703,img/planet5_right.png,5,Community 3,NA,TRUE,j,j,NA,NA,NA,4,6,"7,6,1,11,8,4,13,15,3,2,9,5,14,10,12"
14265,commdev-image-keyboard-response,314,912247,learnblock1,734,img/planet14_left.png,14,Community 3,NA,TRUE,f,f,NA,NA,NA,4,6,"7,6,1,11,8,4,13,15,3,2,9,5,14,10,12"
14265,commdev-image-keyboard-response,315,913498,learnblock1,425.09999999403954,img/planet9_left.png,9,Community 3,NA,FALSE,j,f,NA,NA,NA,4,6,"7,6,1,11,8,4,13,15,3,2,9,5,14,10,12"
14265,commdev-image-keyboard-response,316,914750,learnblock1,401.8999999985099,img/planet10_right.png,10,Community 3,NA,FALSE,f,j,NA,NA,NA,4,6,"7,6,1,11,8,4,13,15,3,2,9,5,14,10,12"
14265,commdev-image-keyboard-response,317,916001,learnblock1,790.2000000029802,img/planet12_left.png,12,Community 3,NA,TRUE,f,f,NA,NA,NA,4,6,"7,6,1,11,8,4,13,15,3,2,9,5,14,10,12"
14265,commdev-image-keyboard-response,318,917252,learnblock1,631,img/planet5_left.png,5,Community 3,NA,TRUE,f,f,NA,NA,NA,4,6,"7,6,1,11,8,4,13,15,3,2,9,5,14,10,12"
14265,commdev-image-keyboard-response,319,918503,learnblock1,573.9000000059605,img/planet10_right.png,10,Community 3,NA,TRUE,j,j,NA,NA,NA,4,6,"7,6,1,11,8,4,13,15,3,2,9,5,14,10,12"
14265,commdev-image-keyboard-response,320,919756,learnblock1,524.8000000044703,img/planet14_left.png,14,Community 3,NA,TRUE,f,f,NA,NA,NA,4,6,"7,6,1,11,8,4,13,15,3,2,9,5,14,10,12"
14265,commdev-image-keyboard-response,321,921007,learnblock1,760.0999999940395,img/planet12_right.png,12,Community 3,NA,TRUE,j,j,NA,NA,NA,4,6,"7,6,1,11,8,4,13,15,3,2,9,5,14,10,12"
14265,commdev-image-keyboard-response,322,922260,learnblock1,718.7000000029802,img/planet9_right.png,9,Community 3,NA,TRUE,j,j,NA,NA,NA,4,6,"7,6,1,11,8,4,13,15,3,2,9,5,14,10,12"
14265,commdev-image-keyboard-response,323,923511,learnblock1,542.5,img/planet14_left.png,14,Community 3,NA,TRUE,f,f,NA,NA,NA,4,6,"7,6,1,11,8,4,13,15,3,2,9,5,14,10,12"
14265,commdev-image-keyboard-response,324,924763,learnblock1,593.7000000029802,img/planet10_left.png,10,Community 3,NA,TRUE,f,f,NA,NA,NA,4,6,"7,6,1,11,8,4,13,15,3,2,9,5,14,10,12"
14265,commdev-image-keyboard-response,325,926014,learnblock1,534.8999999985099,img/planet5_right.png,5,Community 3,NA,FALSE,f,j,NA,NA,NA,4,6,"7,6,1,11,8,4,13,15,3,2,9,5,14,10,12"
14265,commdev-image-keyboard-response,326,927266,learnblock1,798,img/planet12_left.png,12,Community 3,NA,FALSE,j,f,NA,NA,NA,4,6,"7,6,1,11,8,4,13,15,3,2,9,5,14,10,12"
14265,commdev-image-keyboard-response,327,928517,learnblock1,203.19999999552965,img/planet9_right.png,9,Community 3,NA,FALSE,f,j,NA,NA,NA,4,6,"7,6,1,11,8,4,13,15,3,2,9,5,14,10,12"
14265,commdev-image-keyboard-response,328,929768,learnblock1,126.89999999850988,img/planet8_right.png,8,Community 1,NA,TRUE,j,j,NA,NA,NA,4,6,"7,6,1,11,8,4,13,15,3,2,9,5,14,10,12"
14265,commdev-image-keyboard-response,329,931020,learnblock1,608.1000000014901,img/planet9_left.png,9,Community 3,NA,TRUE,f,f,NA,NA,NA,4,6,"7,6,1,11,8,4,13,15,3,2,9,5,14,10,12"
14265,commdev-image-keyboard-response,330,932271,learnblock1,836.1000000014901,img/planet14_right.png,14,Community 3,NA,TRUE,j,j,NA,NA,NA,4,6,"7,6,1,11,8,4,13,15,3,2,9,5,14,10,12"
14265,commdev-image-keyboard-response,331,933522,learnblock1,552,img/planet12_left.png,12,Community 3,NA,TRUE,f,f,NA,NA,NA,4,6,"7,6,1,11,8,4,13,15,3,2,9,5,14,10,12"
14265,commdev-image-keyboard-response,332,934774,learnblock1,621,img/planet10_left.png,10,Community 3,NA,TRUE,f,f,NA,NA,NA,4,6,"7,6,1,11,8,4,13,15,3,2,9,5,14,10,12"
14265,commdev-image-keyboard-response,333,936025,learnblock1,369.20000000298023,img/planet5_left.png,5,Community 3,NA,TRUE,f,f,NA,NA,NA,4,6,"7,6,1,11,8,4,13,15,3,2,9,5,14,10,12"
14265,commdev-image-keyboard-response,334,937276,learnblock1,682.8999999985099,img/planet12_right.png,12,Community 3,NA,TRUE,j,j,NA,NA,NA,4,6,"7,6,1,11,8,4,13,15,3,2,9,5,14,10,12"
14265,commdev-image-keyboard-response,335,938528,learnblock1,525.8999999985099,img/planet10_right.png,10,Community 3,NA,TRUE,j,j,NA,NA,NA,4,6,"7,6,1,11,8,4,13,15,3,2,9,5,14,10,12"
14265,commdev-image-keyboard-response,336,939779,learnblock1,467.6000000014901,img/planet12_left.png,12,Community 3,NA,TRUE,f,f,NA,NA,NA,4,6,"7,6,1,11,8,4,13,15,3,2,9,5,14,10,12"
14265,commdev-image-keyboard-response,337,941030,learnblock1,1125.8999999985099,img/planet14_left.png,14,Community 3,NA,TRUE,f,f,NA,NA,NA,4,6,"7,6,1,11,8,4,13,15,3,2,9,5,14,10,12"
14265,commdev-image-keyboard-response,338,942281,learnblock1,817.1000000014901,img/planet9_right.png,9,Community 3,NA,TRUE,j,j,NA,NA,NA,4,6,"7,6,1,11,8,4,13,15,3,2,9,5,14,10,12"
14265,commdev-image-keyboard-response,339,943532,learnblock1,1112.6000000014901,img/planet12_left.png,12,Community 3,NA,TRUE,f,f,NA,NA,NA,4,6,"7,6,1,11,8,4,13,15,3,2,9,5,14,10,12"
14265,commdev-image-keyboard-response,340,944783,learnblock1,1223.2999999970198,img/planet9_left.png,9,Community 3,NA,TRUE,f,f,NA,NA,NA,4,6,"7,6,1,11,8,4,13,15,3,2,9,5,14,10,12"
14265,commdev-image-keyboard-response,341,946034,learnblock1,1032,img/planet8_left.png,8,Community 1,NA,TRUE,f,f,NA,NA,NA,4,6,"7,6,1,11,8,4,13,15,3,2,9,5,14,10,12"
14265,commdev-image-keyboard-response,342,947285,learnblock1,487,img/planet9_left.png,9,Community 3,NA,TRUE,f,f,NA,NA,NA,4,6,"7,6,1,11,8,4,13,15,3,2,9,5,14,10,12"
14265,commdev-image-keyboard-response,343,948536,learnblock1,649,img/planet8_right.png,8,Community 1,NA,TRUE,j,j,NA,NA,NA,4,6,"7,6,1,11,8,4,13,15,3,2,9,5,14,10,12"
14265,commdev-image-keyboard-response,344,949788,learnblock1,666.6000000014901,img/planet6_left.png,6,Community 1,NA,TRUE,f,f,NA,NA,NA,4,6,"7,6,1,11,8,4,13,15,3,2,9,5,14,10,12"
14265,commdev-image-keyboard-response,345,951040,learnblock1,616.6000000014901,img/planet1_left.png,1,Community 1,NA,TRUE,f,f,NA,NA,NA,4,6,"7,6,1,11,8,4,13,15,3,2,9,5,14,10,12"
14265,commdev-image-keyboard-response,346,952292,learnblock1,761.7000000029802,img/planet7_left.png,7,Community 1,NA,TRUE,f,f,NA,NA,NA,4,6,"7,6,1,11,8,4,13,15,3,2,9,5,14,10,12"
14265,commdev-image-keyboard-response,347,953543,learnblock1,754,img/planet6_left.png,6,Community 1,NA,TRUE,f,f,NA,NA,NA,4,6,"7,6,1,11,8,4,13,15,3,2,9,5,14,10,12"
14265,commdev-image-keyboard-response,348,954795,learnblock1,578.7000000029802,img/planet8_right.png,8,Community 1,NA,TRUE,j,j,NA,NA,NA,4,6,"7,6,1,11,8,4,13,15,3,2,9,5,14,10,12"
14265,commdev-image-keyboard-response,349,956047,learnblock1,596.1000000014901,img/planet1_right.png,1,Community 1,NA,TRUE,j,j,NA,NA,NA,4,6,"7,6,1,11,8,4,13,15,3,2,9,5,14,10,12"
14265,commdev-image-keyboard-response,350,957298,learnblock1,622.1999999955297,img/planet7_left.png,7,Community 1,NA,TRUE,f,f,NA,NA,NA,4,6,"7,6,1,11,8,4,13,15,3,2,9,5,14,10,12"
14265,commdev-image-keyboard-response,351,958549,learnblock1,691.5,img/planet6_right.png,6,Community 1,NA,TRUE,j,j,NA,NA,NA,4,6,"7,6,1,11,8,4,13,15,3,2,9,5,14,10,12"
14265,commdev-image-keyboard-response,352,959800,learnblock1,481.8999999985099,img/planet1_left.png,1,Community 1,NA,TRUE,f,f,NA,NA,NA,4,6,"7,6,1,11,8,4,13,15,3,2,9,5,14,10,12"
14265,commdev-image-keyboard-response,353,961051,learnblock1,659.6999999955297,img/planet8_right.png,8,Community 1,NA,TRUE,j,j,NA,NA,NA,4,6,"7,6,1,11,8,4,13,15,3,2,9,5,14,10,12"
14265,commdev-image-keyboard-response,354,962302,learnblock1,459.8999999985099,img/planet6_left.png,6,Community 1,NA,TRUE,f,f,NA,NA,NA,4,6,"7,6,1,11,8,4,13,15,3,2,9,5,14,10,12"
14265,commdev-image-keyboard-response,355,963553,learnblock1,587.7999999970198,img/planet8_right.png,8,Community 1,NA,TRUE,j,j,NA,NA,NA,4,6,"7,6,1,11,8,4,13,15,3,2,9,5,14,10,12"
14265,commdev-image-keyboard-response,356,964805,learnblock1,638.7000000029802,img/planet7_right.png,7,Community 1,NA,TRUE,j,j,NA,NA,NA,4,6,"7,6,1,11,8,4,13,15,3,2,9,5,14,10,12"
14265,commdev-image-keyboard-response,357,966056,learnblock1,691.1999999955297,img/planet11_left.png,11,Community 1,NA,TRUE,f,f,NA,NA,NA,4,6,"7,6,1,11,8,4,13,15,3,2,9,5,14,10,12"
14265,commdev-image-keyboard-response,358,967306,learnblock1,313.20000000298023,img/planet1_left.png,1,Community 1,NA,FALSE,j,f,NA,NA,NA,4,6,"7,6,1,11,8,4,13,15,3,2,9,5,14,10,12"
14265,commdev-image-keyboard-response,359,968557,learnblock1,542.2999999970198,img/planet6_left.png,6,Community 1,NA,TRUE,f,f,NA,NA,NA,4,6,"7,6,1,11,8,4,13,15,3,2,9,5,14,10,12"
14265,commdev-image-keyboard-response,360,969809,learnblock1,392.3999999985099,img/planet1_left.png,1,Community 1,NA,TRUE,f,f,NA,NA,NA,4,6,"7,6,1,11,8,4,13,15,3,2,9,5,14,10,12"
14265,commdev-image-keyboard-response,361,971061,learnblock1,73.20000000298023,img/planet6_left.png,6,Community 1,NA,TRUE,f,f,NA,NA,NA,4,6,"7,6,1,11,8,4,13,15,3,2,9,5,14,10,12"
14265,commdev-image-keyboard-response,362,972312,learnblock1,578.7000000029802,img/planet7_right.png,7,Community 1,NA,TRUE,j,j,NA,NA,NA,4,6,"7,6,1,11,8,4,13,15,3,2,9,5,14,10,12"
14265,commdev-image-keyboard-response,363,973569,learnblock1,345.59999999403954,img/planet1_right.png,1,Community 1,NA,FALSE,f,j,NA,NA,NA,4,6,"7,6,1,11,8,4,13,15,3,2,9,5,14,10,12"
14265,commdev-image-keyboard-response,364,974820,learnblock1,679.2999999970198,img/planet7_left.png,7,Community 1,NA,TRUE,f,f,NA,NA,NA,4,6,"7,6,1,11,8,4,13,15,3,2,9,5,14,10,12"
14265,commdev-image-keyboard-response,365,976072,learnblock1,520.5,img/planet8_right.png,8,Community 1,NA,TRUE,j,j,NA,NA,NA,4,6,"7,6,1,11,8,4,13,15,3,2,9,5,14,10,12"
14265,commdev-image-keyboard-response,366,977323,learnblock1,689.9000000059605,img/planet1_left.png,1,Community 1,NA,TRUE,f,f,NA,NA,NA,4,6,"7,6,1,11,8,4,13,15,3,2,9,5,14,10,12"
14265,commdev-image-keyboard-response,367,978575,learnblock1,867.6000000014901,img/planet11_left.png,11,Community 1,NA,TRUE,f,f,NA,NA,NA,4,6,"7,6,1,11,8,4,13,15,3,2,9,5,14,10,12"
14265,commdev-image-keyboard-response,368,979826,learnblock1,777,img/planet4_left.png,4,Community 2,NA,TRUE,f,f,NA,NA,NA,4,6,"7,6,1,11,8,4,13,15,3,2,9,5,14,10,12"
14265,commdev-image-keyboard-response,369,981076,learnblock1,493,img/planet13_right.png,13,Community 2,NA,TRUE,j,j,NA,NA,NA,4,6,"7,6,1,11,8,4,13,15,3,2,9,5,14,10,12"
14265,commdev-image-keyboard-response,370,982328,learnblock1,679.2000000029802,img/planet3_left.png,3,Community 2,NA,TRUE,f,f,NA,NA,NA,4,6,"7,6,1,11,8,4,13,15,3,2,9,5,14,10,12"
14265,commdev-image-keyboard-response,371,983579,learnblock1,799.0999999940395,img/planet4_left.png,4,Community 2,NA,TRUE,f,f,NA,NA,NA,4,6,"7,6,1,11,8,4,13,15,3,2,9,5,14,10,12"
14265,commdev-image-keyboard-response,372,984831,learnblock1,750.2999999970198,img/planet13_left.png,13,Community 2,NA,TRUE,f,f,NA,NA,NA,4,6,"7,6,1,11,8,4,13,15,3,2,9,5,14,10,12"
14265,commdev-image-keyboard-response,373,986082,learnblock1,759.1000000014901,img/planet3_left.png,3,Community 2,NA,FALSE,j,f,NA,NA,NA,4,6,"7,6,1,11,8,4,13,15,3,2,9,5,14,10,12"
14265,commdev-image-keyboard-response,374,987334,learnblock1,1106.5,img/planet4_left.png,4,Community 2,NA,TRUE,f,f,NA,NA,NA,4,6,"7,6,1,11,8,4,13,15,3,2,9,5,14,10,12"
14265,commdev-image-keyboard-response,375,988585,learnblock1,730,img/planet13_right.png,13,Community 2,NA,TRUE,j,j,NA,NA,NA,4,6,"7,6,1,11,8,4,13,15,3,2,9,5,14,10,12"
14265,commdev-image-keyboard-response,376,989836,learnblock1,689.7000000029802,img/planet15_right.png,15,Community 2,NA,TRUE,j,j,NA,NA,NA,4,6,"7,6,1,11,8,4,13,15,3,2,9,5,14,10,12"
14265,commdev-image-keyboard-response,377,991087,learnblock1,707.5,img/planet5_left.png,5,Community 3,NA,TRUE,f,f,NA,NA,NA,4,6,"7,6,1,11,8,4,13,15,3,2,9,5,14,10,12"
14265,commdev-image-keyboard-response,378,992344,learnblock1,709.3000000044703,img/planet15_left.png,15,Community 2,NA,TRUE,f,f,NA,NA,NA,4,6,"7,6,1,11,8,4,13,15,3,2,9,5,14,10,12"
14265,commdev-image-keyboard-response,379,993595,learnblock1,572,img/planet5_right.png,5,Community 3,NA,TRUE,j,j,NA,NA,NA,4,6,"7,6,1,11,8,4,13,15,3,2,9,5,14,10,12"
14265,commdev-image-keyboard-response,380,994847,learnblock1,438.20000000298023,img/planet12_left.png,12,Community 3,NA,FALSE,j,f,NA,NA,NA,4,6,"7,6,1,11,8,4,13,15,3,2,9,5,14,10,12"
14265,commdev-image-keyboard-response,381,996099,learnblock1,null,img/planet5_left.png,5,Community 3,NA,FALSE,null,f,NA,NA,NA,4,6,"7,6,1,11,8,4,13,15,3,2,9,5,14,10,12"
14265,commdev-image-keyboard-response,382,997350,learnblock1,45,img/planet15_left.png,15,Community 2,NA,TRUE,f,f,NA,NA,NA,4,6,"7,6,1,11,8,4,13,15,3,2,9,5,14,10,12"
14265,commdev-image-keyboard-response,383,998601,learnblock1,702.7000000029802,img/planet2_right.png,2,Community 2,NA,TRUE,j,j,NA,NA,NA,4,6,"7,6,1,11,8,4,13,15,3,2,9,5,14,10,12"
14265,commdev-image-keyboard-response,384,999852,learnblock1,570.2000000029802,img/planet15_right.png,15,Community 2,NA,TRUE,j,j,NA,NA,NA,4,6,"7,6,1,11,8,4,13,15,3,2,9,5,14,10,12"
14265,commdev-image-keyboard-response,385,1001103,learnblock1,647.2000000029802,img/planet13_left.png,13,Community 2,NA,TRUE,f,f,NA,NA,NA,4,6,"7,6,1,11,8,4,13,15,3,2,9,5,14,10,12"
14265,commdev-image-keyboard-response,386,1002355,learnblock1,725.2999999970198,img/planet4_left.png,4,Community 2,NA,TRUE,f,f,NA,NA,NA,4,6,"7,6,1,11,8,4,13,15,3,2,9,5,14,10,12"
14265,commdev-image-keyboard-response,387,1003606,learnblock1,684.6000000014901,img/planet3_left.png,3,Community 2,NA,TRUE,f,f,NA,NA,NA,4,6,"7,6,1,11,8,4,13,15,3,2,9,5,14,10,12"
14265,commdev-image-keyboard-response,388,1004858,learnblock1,475.29999999701977,img/planet2_left.png,2,Community 2,NA,TRUE,f,f,NA,NA,NA,4,6,"7,6,1,11,8,4,13,15,3,2,9,5,14,10,12"
14265,commdev-image-keyboard-response,389,1006110,learnblock1,653.8999999985099,img/planet4_left.png,4,Community 2,NA,TRUE,f,f,NA,NA,NA,4,6,"7,6,1,11,8,4,13,15,3,2,9,5,14,10,12"
14265,commdev-image-keyboard-response,390,1007366,learnblock1,688.2999999970198,img/planet2_left.png,2,Community 2,NA,TRUE,f,f,NA,NA,NA,4,6,"7,6,1,11,8,4,13,15,3,2,9,5,14,10,12"
14265,commdev-image-keyboard-response,391,1008617,learnblock1,508.19999999552965,img/planet15_right.png,15,Community 2,NA,FALSE,f,j,NA,NA,NA,4,6,"7,6,1,11,8,4,13,15,3,2,9,5,14,10,12"
14265,commdev-image-keyboard-response,392,1009868,learnblock1,805.2000000029802,img/planet5_right.png,5,Community 3,NA,TRUE,j,j,NA,NA,NA,4,6,"7,6,1,11,8,4,13,15,3,2,9,5,14,10,12"
14265,commdev-image-keyboard-response,393,1011120,learnblock1,547,img/planet12_left.png,12,Community 3,NA,TRUE,f,f,NA,NA,NA,4,6,"7,6,1,11,8,4,13,15,3,2,9,5,14,10,12"
14265,commdev-image-keyboard-response,394,1012372,learnblock1,null,img/planet14_left.png,14,Community 3,NA,FALSE,null,f,NA,NA,NA,4,6,"7,6,1,11,8,4,13,15,3,2,9,5,14,10,12"
14265,commdev-image-keyboard-response,395,1013623,learnblock1,137.60000000149012,img/planet10_left.png,10,Community 3,NA,TRUE,f,f,NA,NA,NA,4,6,"7,6,1,11,8,4,13,15,3,2,9,5,14,10,12"
14265,commdev-image-keyboard-response,396,1014874,learnblock1,384,img/planet14_right.png,14,Community 3,NA,TRUE,j,j,NA,NA,NA,4,6,"7,6,1,11,8,4,13,15,3,2,9,5,14,10,12"
14265,commdev-image-keyboard-response,397,1016125,learnblock1,605,img/planet12_right.png,12,Community 3,NA,TRUE,j,j,NA,NA,NA,4,6,"7,6,1,11,8,4,13,15,3,2,9,5,14,10,12"
14265,commdev-image-keyboard-response,398,1017377,learnblock1,699.3000000044703,img/planet5_right.png,5,Community 3,NA,TRUE,j,j,NA,NA,NA,4,6,"7,6,1,11,8,4,13,15,3,2,9,5,14,10,12"
14265,commdev-image-keyboard-response,399,1018628,learnblock1,693.6999999955297,img/planet14_left.png,14,Community 3,NA,TRUE,f,f,NA,NA,NA,4,6,"7,6,1,11,8,4,13,15,3,2,9,5,14,10,12"
14265,commdev-image-keyboard-response,400,1019880,learnblock1,493.5,img/planet9_right.png,9,Community 3,NA,TRUE,j,j,NA,NA,NA,4,6,"7,6,1,11,8,4,13,15,3,2,9,5,14,10,12"
14265,commdev-image-keyboard-response,401,1021131,learnblock1,385.8999999985099,img/planet14_right.png,14,Community 3,NA,FALSE,f,j,NA,NA,NA,4,6,"7,6,1,11,8,4,13,15,3,2,9,5,14,10,12"
14265,commdev-image-keyboard-response,402,1022382,learnblock1,807.9000000059605,img/planet5_right.png,5,Community 3,NA,TRUE,j,j,NA,NA,NA,4,6,"7,6,1,11,8,4,13,15,3,2,9,5,14,10,12"
14265,commdev-image-keyboard-response,403,1023633,learnblock1,525.1999999955297,img/planet10_right.png,10,Community 3,NA,FALSE,f,j,NA,NA,NA,4,6,"7,6,1,11,8,4,13,15,3,2,9,5,14,10,12"
14265,commdev-image-keyboard-response,404,1024884,learnblock1,1159.1999999955297,img/planet5_right.png,5,Community 3,NA,TRUE,j,j,NA,NA,NA,4,6,"7,6,1,11,8,4,13,15,3,2,9,5,14,10,12"
14265,commdev-image-keyboard-response,405,1026136,learnblock1,580.1999999955297,img/planet14_left.png,14,Community 3,NA,TRUE,f,f,NA,NA,NA,4,6,"7,6,1,11,8,4,13,15,3,2,9,5,14,10,12"
14265,commdev-image-keyboard-response,406,1027387,learnblock1,649.2999999970198,img/planet12_left.png,12,Community 3,NA,TRUE,f,f,NA,NA,NA,4,6,"7,6,1,11,8,4,13,15,3,2,9,5,14,10,12"
14265,commdev-image-keyboard-response,407,1028640,learnblock1,718,img/planet14_left.png,14,Community 3,NA,TRUE,f,f,NA,NA,NA,4,6,"7,6,1,11,8,4,13,15,3,2,9,5,14,10,12"
14265,commdev-image-keyboard-response,408,1029891,learnblock1,618.7999999970198,img/planet12_right.png,12,Community 3,NA,TRUE,j,j,NA,NA,NA,4,6,"7,6,1,11,8,4,13,15,3,2,9,5,14,10,12"
14265,commdev-image-keyboard-response,409,1031143,learnblock1,849.1000000014901,img/planet10_left.png,10,Community 3,NA,TRUE,f,f,NA,NA,NA,4,6,"7,6,1,11,8,4,13,15,3,2,9,5,14,10,12"
14265,commdev-image-keyboard-response,410,1032401,learnblock1,605.4000000059605,img/planet12_right.png,12,Community 3,NA,TRUE,j,j,NA,NA,NA,4,6,"7,6,1,11,8,4,13,15,3,2,9,5,14,10,12"
14265,commdev-image-keyboard-response,411,1033653,learnblock1,465.3999999985099,img/planet9_left.png,9,Community 3,NA,TRUE,f,f,NA,NA,NA,4,6,"7,6,1,11,8,4,13,15,3,2,9,5,14,10,12"
14265,commdev-image-keyboard-response,412,1034904,learnblock1,786.0999999940395,img/planet12_right.png,12,Community 3,NA,TRUE,j,j,NA,NA,NA,4,6,"7,6,1,11,8,4,13,15,3,2,9,5,14,10,12"
14265,commdev-image-keyboard-response,413,1036155,learnblock1,435.09999999403954,img/planet9_left.png,9,Community 3,NA,TRUE,f,f,NA,NA,NA,4,6,"7,6,1,11,8,4,13,15,3,2,9,5,14,10,12"
14265,commdev-image-keyboard-response,414,1037406,learnblock1,891.0999999940395,img/planet12_left.png,12,Community 3,NA,TRUE,f,f,NA,NA,NA,4,6,"7,6,1,11,8,4,13,15,3,2,9,5,14,10,12"
14265,commdev-image-keyboard-response,415,1038657,learnblock1,833.1000000014901,img/planet5_left.png,5,Community 3,NA,TRUE,f,f,NA,NA,NA,4,6,"7,6,1,11,8,4,13,15,3,2,9,5,14,10,12"
14265,commdev-image-keyboard-response,416,1039908,learnblock1,599,img/planet15_left.png,15,Community 2,NA,TRUE,f,f,NA,NA,NA,4,6,"7,6,1,11,8,4,13,15,3,2,9,5,14,10,12"
14265,commdev-image-keyboard-response,417,1041160,learnblock1,508.1000000014901,img/planet13_right.png,13,Community 2,NA,TRUE,j,j,NA,NA,NA,4,6,"7,6,1,11,8,4,13,15,3,2,9,5,14,10,12"
14265,commdev-image-keyboard-response,418,1042411,learnblock1,543.3000000044703,img/planet15_left.png,15,Community 2,NA,TRUE,f,f,NA,NA,NA,4,6,"7,6,1,11,8,4,13,15,3,2,9,5,14,10,12"
14265,commdev-image-keyboard-response,419,1043662,learnblock1,518.7000000029802,img/planet2_left.png,2,Community 2,NA,TRUE,f,f,NA,NA,NA,4,6,"7,6,1,11,8,4,13,15,3,2,9,5,14,10,12"
14265,commdev-image-keyboard-response,420,1044914,learnblock1,528.8000000044703,img/planet3_right.png,3,Community 2,NA,TRUE,j,j,NA,NA,NA,4,6,"7,6,1,11,8,4,13,15,3,2,9,5,14,10,12"
14265,commdev-image-keyboard-response,421,1046165,learnblock1,414.1000000014901,img/planet2_right.png,2,Community 2,NA,FALSE,f,j,NA,NA,NA,4,6,"7,6,1,11,8,4,13,15,3,2,9,5,14,10,12"
14265,commdev-image-keyboard-response,422,1047416,learnblock1,810.2000000029802,img/planet15_left.png,15,Community 2,NA,TRUE,f,f,NA,NA,NA,4,6,"7,6,1,11,8,4,13,15,3,2,9,5,14,10,12"
14265,commdev-image-keyboard-response,423,1048668,learnblock1,872.3999999985099,img/planet5_left.png,5,Community 3,NA,TRUE,f,f,NA,NA,NA,4,6,"7,6,1,11,8,4,13,15,3,2,9,5,14,10,12"
14265,commdev-image-keyboard-response,424,1049919,learnblock1,687.3000000044703,img/planet14_left.png,14,Community 3,NA,TRUE,f,f,NA,NA,NA,4,6,"7,6,1,11,8,4,13,15,3,2,9,5,14,10,12"
14265,commdev-image-keyboard-response,425,1051171,learnblock1,1024.8000000044703,img/planet12_left.png,12,Community 3,NA,TRUE,f,f,NA,NA,NA,4,6,"7,6,1,11,8,4,13,15,3,2,9,5,14,10,12"
14265,commdev-image-keyboard-response,426,1052422,learnblock1,622.5,img/planet10_right.png,10,Community 3,NA,TRUE,j,j,NA,NA,NA,4,6,"7,6,1,11,8,4,13,15,3,2,9,5,14,10,12"
14265,commdev-image-keyboard-response,427,1053673,learnblock1,600.6000000014901,img/planet12_right.png,12,Community 3,NA,FALSE,f,j,NA,NA,NA,4,6,"7,6,1,11,8,4,13,15,3,2,9,5,14,10,12"
14265,commdev-image-keyboard-response,428,1054924,learnblock1,903.8999999985099,img/planet9_left.png,9,Community 3,NA,TRUE,f,f,NA,NA,NA,4,6,"7,6,1,11,8,4,13,15,3,2,9,5,14,10,12"
14265,commdev-image-keyboard-response,429,1056176,learnblock1,712.8999999985099,img/planet14_left.png,14,Community 3,NA,TRUE,f,f,NA,NA,NA,4,6,"7,6,1,11,8,4,13,15,3,2,9,5,14,10,12"
14265,commdev-image-keyboard-response,430,1057428,learnblock1,503.29999999701977,img/planet5_right.png,5,Community 3,NA,FALSE,f,j,NA,NA,NA,4,6,"7,6,1,11,8,4,13,15,3,2,9,5,14,10,12"
14265,commdev-image-keyboard-response,431,1058680,learnblock1,773.1000000014901,img/planet15_left.png,15,Community 2,NA,TRUE,f,f,NA,NA,NA,4,6,"7,6,1,11,8,4,13,15,3,2,9,5,14,10,12"
14265,commdev-image-keyboard-response,432,1059931,learnblock1,665.4000000059605,img/planet5_left.png,5,Community 3,NA,TRUE,f,f,NA,NA,NA,4,6,"7,6,1,11,8,4,13,15,3,2,9,5,14,10,12"
14265,commdev-image-keyboard-response,433,1061182,learnblock1,902.1000000014901,img/planet10_right.png,10,Community 3,NA,TRUE,j,j,NA,NA,NA,4,6,"7,6,1,11,8,4,13,15,3,2,9,5,14,10,12"
14265,commdev-image-keyboard-response,434,1062433,learnblock1,921,img/planet5_right.png,5,Community 3,NA,TRUE,j,j,NA,NA,NA,4,6,"7,6,1,11,8,4,13,15,3,2,9,5,14,10,12"
14265,commdev-image-keyboard-response,435,1063684,learnblock1,796.8999999985099,img/planet15_left.png,15,Community 2,NA,TRUE,f,f,NA,NA,NA,4,6,"7,6,1,11,8,4,13,15,3,2,9,5,14,10,12"
14265,commdev-image-keyboard-response,436,1064936,learnblock1,639.8999999985099,img/planet5_left.png,5,Community 3,NA,TRUE,f,f,NA,NA,NA,4,6,"7,6,1,11,8,4,13,15,3,2,9,5,14,10,12"
14265,commdev-image-keyboard-response,437,1066187,learnblock1,631.3999999985099,img/planet10_right.png,10,Community 3,NA,TRUE,j,j,NA,NA,NA,4,6,"7,6,1,11,8,4,13,15,3,2,9,5,14,10,12"
14265,commdev-image-keyboard-response,438,1067438,learnblock1,608,img/planet9_right.png,9,Community 3,NA,TRUE,j,j,NA,NA,NA,4,6,"7,6,1,11,8,4,13,15,3,2,9,5,14,10,12"
14265,commdev-image-keyboard-response,439,1068689,learnblock1,577.2000000029802,img/planet8_right.png,8,Community 1,NA,TRUE,j,j,NA,NA,NA,4,6,"7,6,1,11,8,4,13,15,3,2,9,5,14,10,12"
14265,commdev-image-keyboard-response,440,1069940,learnblock1,1024.3999999985099,img/planet6_right.png,6,Community 1,NA,TRUE,j,j,NA,NA,NA,4,6,"7,6,1,11,8,4,13,15,3,2,9,5,14,10,12"
14265,commdev-image-keyboard-response,441,1071191,learnblock1,858.1999999955297,img/planet1_left.png,1,Community 1,NA,TRUE,f,f,NA,NA,NA,4,6,"7,6,1,11,8,4,13,15,3,2,9,5,14,10,12"
14265,commdev-image-keyboard-response,442,1072442,learnblock1,642.2999999970198,img/planet6_right.png,6,Community 1,NA,TRUE,j,j,NA,NA,NA,4,6,"7,6,1,11,8,4,13,15,3,2,9,5,14,10,12"
14265,commdev-image-keyboard-response,443,1073693,learnblock1,652.1000000014901,img/planet8_left.png,8,Community 1,NA,FALSE,j,f,NA,NA,NA,4,6,"7,6,1,11,8,4,13,15,3,2,9,5,14,10,12"
14265,commdev-image-keyboard-response,444,1074944,learnblock1,90.29999999701977,img/planet1_left.png,1,Community 1,NA,TRUE,f,f,NA,NA,NA,4,6,"7,6,1,11,8,4,13,15,3,2,9,5,14,10,12"
14265,commdev-image-keyboard-response,445,1076201,learnblock1,41.69999999552965,img/planet8_right.png,8,Community 1,NA,FALSE,f,j,NA,NA,NA,4,6,"7,6,1,11,8,4,13,15,3,2,9,5,14,10,12"
14265,commdev-image-keyboard-response,446,1077452,learnblock1,903.7999999970198,img/planet7_left.png,7,Community 1,NA,TRUE,f,f,NA,NA,NA,4,6,"7,6,1,11,8,4,13,15,3,2,9,5,14,10,12"
14265,commdev-image-keyboard-response,447,1078703,learnblock1,627.7999999970198,img/planet8_right.png,8,Community 1,NA,TRUE,j,j,NA,NA,NA,4,6,"7,6,1,11,8,4,13,15,3,2,9,5,14,10,12"
14265,commdev-image-keyboard-response,448,1079955,learnblock1,857.7999999970198,img/planet7_left.png,7,Community 1,NA,TRUE,f,f,NA,NA,NA,4,6,"7,6,1,11,8,4,13,15,3,2,9,5,14,10,12"
14265,commdev-image-keyboard-response,449,1081206,learnblock1,875.3999999985099,img/planet11_right.png,11,Community 1,NA,FALSE,f,j,NA,NA,NA,4,6,"7,6,1,11,8,4,13,15,3,2,9,5,14,10,12"
14265,commdev-image-keyboard-response,450,1082457,learnblock1,743.1999999955297,img/planet7_left.png,7,Community 1,NA,TRUE,f,f,NA,NA,NA,4,6,"7,6,1,11,8,4,13,15,3,2,9,5,14,10,12"
14265,commdev-image-keyboard-response,451,1083708,learnblock1,938.2999999970198,img/planet6_right.png,6,Community 1,NA,TRUE,j,j,NA,NA,NA,4,6,"7,6,1,11,8,4,13,15,3,2,9,5,14,10,12"
14265,commdev-image-keyboard-response,452,1084960,learnblock1,770.8999999985099,img/planet11_right.png,11,Community 1,NA,TRUE,j,j,NA,NA,NA,4,6,"7,6,1,11,8,4,13,15,3,2,9,5,14,10,12"
14265,commdev-image-keyboard-response,453,1086214,learnblock1,747.3999999985099,img/planet6_left.png,6,Community 1,NA,TRUE,f,f,NA,NA,NA,4,6,"7,6,1,11,8,4,13,15,3,2,9,5,14,10,12"
14265,commdev-image-keyboard-response,454,1087466,learnblock1,519.5,img/planet8_right.png,8,Community 1,NA,TRUE,j,j,NA,NA,NA,4,6,"7,6,1,11,8,4,13,15,3,2,9,5,14,10,12"
14265,commdev-image-keyboard-response,455,1088717,learnblock1,505.29999999701977,img/planet9_left.png,9,Community 3,NA,TRUE,f,f,NA,NA,NA,4,6,"7,6,1,11,8,4,13,15,3,2,9,5,14,10,12"
14265,commdev-image-keyboard-response,456,1089969,learnblock1,691.6999999955297,img/planet12_left.png,12,Community 3,NA,TRUE,f,f,NA,NA,NA,4,6,"7,6,1,11,8,4,13,15,3,2,9,5,14,10,12"
14265,commdev-image-keyboard-response,457,1091220,learnblock1,600.2999999970198,img/planet5_left.png,5,Community 3,NA,TRUE,f,f,NA,NA,NA,4,6,"7,6,1,11,8,4,13,15,3,2,9,5,14,10,12"
14265,commdev-image-keyboard-response,458,1092471,learnblock1,694.3999999985099,img/planet15_left.png,15,Community 2,NA,TRUE,f,f,NA,NA,NA,4,6,"7,6,1,11,8,4,13,15,3,2,9,5,14,10,12"
14265,commdev-image-keyboard-response,459,1093722,learnblock1,814.3999999985099,img/planet3_left.png,3,Community 2,NA,TRUE,f,f,NA,NA,NA,4,6,"7,6,1,11,8,4,13,15,3,2,9,5,14,10,12"
14265,commdev-image-keyboard-response,460,1094973,learnblock1,529.6999999955297,img/planet2_left.png,2,Community 2,NA,TRUE,f,f,NA,NA,NA,4,6,"7,6,1,11,8,4,13,15,3,2,9,5,14,10,12"
14265,commdev-image-keyboard-response,461,1096224,learnblock1,505.6000000014901,img/planet13_right.png,13,Community 2,NA,TRUE,j,j,NA,NA,NA,4,6,"7,6,1,11,8,4,13,15,3,2,9,5,14,10,12"
14265,commdev-image-keyboard-response,462,1097476,learnblock1,835.2999999970198,img/planet4_left.png,4,Community 2,NA,TRUE,f,f,NA,NA,NA,4,6,"7,6,1,11,8,4,13,15,3,2,9,5,14,10,12"
14265,commdev-image-keyboard-response,463,1098727,learnblock1,null,img/planet11_left.png,11,Community 1,NA,FALSE,null,f,NA,NA,NA,4,6,"7,6,1,11,8,4,13,15,3,2,9,5,14,10,12"
14265,commdev-image-keyboard-response,464,1099978,learnblock1,98.60000000149012,img/planet7_left.png,7,Community 1,NA,TRUE,f,f,NA,NA,NA,4,6,"7,6,1,11,8,4,13,15,3,2,9,5,14,10,12"
14265,commdev-image-keyboard-response,465,1101230,learnblock1,815.8999999985099,img/planet6_left.png,6,Community 1,NA,TRUE,f,f,NA,NA,NA,4,6,"7,6,1,11,8,4,13,15,3,2,9,5,14,10,12"
14265,commdev-image-keyboard-response,466,1102481,learnblock1,723.8999999985099,img/planet11_right.png,11,Community 1,NA,TRUE,j,j,NA,NA,NA,4,6,"7,6,1,11,8,4,13,15,3,2,9,5,14,10,12"
14265,commdev-image-keyboard-response,467,1103733,learnblock1,497.30000000447035,img/planet6_left.png,6,Community 1,NA,TRUE,f,f,NA,NA,NA,4,6,"7,6,1,11,8,4,13,15,3,2,9,5,14,10,12"
14265,commdev-image-keyboard-response,468,1104985,learnblock1,658.2999999970198,img/planet7_left.png,7,Community 1,NA,TRUE,f,f,NA,NA,NA,4,6,"7,6,1,11,8,4,13,15,3,2,9,5,14,10,12"
14265,commdev-image-keyboard-response,469,1106236,learnblock1,305.90000000596046,img/planet8_right.png,8,Community 1,NA,TRUE,j,j,NA,NA,NA,4,6,"7,6,1,11,8,4,13,15,3,2,9,5,14,10,12"
14265,commdev-image-keyboard-response,470,1107487,learnblock1,365.90000000596046,img/planet6_left.png,6,Community 1,NA,TRUE,f,f,NA,NA,NA,4,6,"7,6,1,11,8,4,13,15,3,2,9,5,14,10,12"
14265,commdev-image-keyboard-response,471,1108739,learnblock1,426.3999999985099,img/planet11_left.png,11,Community 1,NA,FALSE,j,f,NA,NA,NA,4,6,"7,6,1,11,8,4,13,15,3,2,9,5,14,10,12"
14265,commdev-image-keyboard-response,472,1109991,learnblock1,653.9000000059605,img/planet6_right.png,6,Community 1,NA,TRUE,j,j,NA,NA,NA,4,6,"7,6,1,11,8,4,13,15,3,2,9,5,14,10,12"
14265,commdev-image-keyboard-response,473,1111243,learnblock1,495.6000000014901,img/planet11_left.png,11,Community 1,NA,TRUE,f,f,NA,NA,NA,4,6,"7,6,1,11,8,4,13,15,3,2,9,5,14,10,12"
14265,commdev-image-keyboard-response,474,1112494,learnblock1,614.2999999970198,img/planet1_right.png,1,Community 1,NA,TRUE,j,j,NA,NA,NA,4,6,"7,6,1,11,8,4,13,15,3,2,9,5,14,10,12"
14265,commdev-image-keyboard-response,475,1113747,learnblock1,456.20000000298023,img/planet11_left.png,11,Community 1,NA,TRUE,f,f,NA,NA,NA,4,6,"7,6,1,11,8,4,13,15,3,2,9,5,14,10,12"
14265,commdev-image-keyboard-response,476,1114999,learnblock1,666.8999999985099,img/planet6_left.png,6,Community 1,NA,TRUE,f,f,NA,NA,NA,4,6,"7,6,1,11,8,4,13,15,3,2,9,5,14,10,12"
14265,commdev-image-keyboard-response,477,1116251,learnblock1,885.8999999985099,img/planet11_right.png,11,Community 1,NA,TRUE,j,j,NA,NA,NA,4,6,"7,6,1,11,8,4,13,15,3,2,9,5,14,10,12"
14265,commdev-image-keyboard-response,478,1117503,learnblock1,744.6000000014901,img/planet6_left.png,6,Community 1,NA,TRUE,f,f,NA,NA,NA,4,6,"7,6,1,11,8,4,13,15,3,2,9,5,14,10,12"
14265,commdev-image-keyboard-response,479,1118754,learnblock1,779.1000000014901,img/planet8_right.png,8,Community 1,NA,TRUE,j,j,NA,NA,NA,4,6,"7,6,1,11,8,4,13,15,3,2,9,5,14,10,12"
14265,commdev-image-keyboard-response,480,1120006,learnblock1,569.2999999970198,img/planet6_right.png,6,Community 1,NA,TRUE,j,j,NA,NA,NA,4,6,"7,6,1,11,8,4,13,15,3,2,9,5,14,10,12"
14265,commdev-image-keyboard-response,481,1121258,learnblock1,899.8000000044703,img/planet7_left.png,7,Community 1,NA,TRUE,f,f,NA,NA,NA,4,6,"7,6,1,11,8,4,13,15,3,2,9,5,14,10,12"
14265,commdev-image-keyboard-response,482,1122508,learnblock1,1052.8999999985099,img/planet8_left.png,8,Community 1,NA,TRUE,f,f,NA,NA,NA,4,6,"7,6,1,11,8,4,13,15,3,2,9,5,14,10,12"
14265,commdev-image-keyboard-response,483,1123759,learnblock1,920.1000000014901,img/planet9_left.png,9,Community 3,NA,TRUE,f,f,NA,NA,NA,4,6,"7,6,1,11,8,4,13,15,3,2,9,5,14,10,12"
14265,commdev-image-keyboard-response,484,1125010,learnblock1,720.1000000014901,img/planet14_right.png,14,Community 3,NA,FALSE,f,j,NA,NA,NA,4,6,"7,6,1,11,8,4,13,15,3,2,9,5,14,10,12"
14265,commdev-image-keyboard-response,485,1126261,learnblock1,1118.3999999985099,img/planet5_right.png,5,Community 3,NA,FALSE,f,j,NA,NA,NA,4,6,"7,6,1,11,8,4,13,15,3,2,9,5,14,10,12"
14265,commdev-image-keyboard-response,486,1127512,learnblock1,35.19999999552965,img/planet14_right.png,14,Community 3,NA,TRUE,j,j,NA,NA,NA,4,6,"7,6,1,11,8,4,13,15,3,2,9,5,14,10,12"
14265,commdev-image-keyboard-response,487,1128763,learnblock1,626.3999999985099,img/planet10_right.png,10,Community 3,NA,TRUE,j,j,NA,NA,NA,4,6,"7,6,1,11,8,4,13,15,3,2,9,5,14,10,12"
14265,commdev-image-keyboard-response,488,1130014,learnblock1,426.29999999701977,img/planet14_left.png,14,Community 3,NA,FALSE,j,f,NA,NA,NA,4,6,"7,6,1,11,8,4,13,15,3,2,9,5,14,10,12"
14265,commdev-image-keyboard-response,489,1131266,learnblock1,941,img/planet12_left.png,12,Community 3,NA,TRUE,f,f,NA,NA,NA,4,6,"7,6,1,11,8,4,13,15,3,2,9,5,14,10,12"
14265,commdev-image-keyboard-response,490,1132518,learnblock1,589.5,img/planet10_right.png,10,Community 3,NA,TRUE,j,j,NA,NA,NA,4,6,"7,6,1,11,8,4,13,15,3,2,9,5,14,10,12"
14265,commdev-image-keyboard-response,491,1133769,learnblock1,1037.7000000029802,img/planet5_left.png,5,Community 3,NA,FALSE,j,f,NA,NA,NA,4,6,"7,6,1,11,8,4,13,15,3,2,9,5,14,10,12"
14265,commdev-image-keyboard-response,492,1135021,learnblock1,null,img/planet12_left.png,12,Community 3,NA,FALSE,null,f,NA,NA,NA,4,6,"7,6,1,11,8,4,13,15,3,2,9,5,14,10,12"
14265,commdev-image-keyboard-response,493,1136272,learnblock1,206.79999999701977,img/planet14_left.png,14,Community 3,NA,TRUE,f,f,NA,NA,NA,4,6,"7,6,1,11,8,4,13,15,3,2,9,5,14,10,12"
14265,commdev-image-keyboard-response,494,1137522,learnblock1,537,img/planet9_left.png,9,Community 3,NA,TRUE,f,f,NA,NA,NA,4,6,"7,6,1,11,8,4,13,15,3,2,9,5,14,10,12"
14265,commdev-image-keyboard-response,495,1138773,learnblock1,739.8999999985099,img/planet8_right.png,8,Community 1,NA,TRUE,j,j,NA,NA,NA,4,6,"7,6,1,11,8,4,13,15,3,2,9,5,14,10,12"
14265,commdev-image-keyboard-response,496,1140024,learnblock1,590,img/planet9_left.png,9,Community 3,NA,TRUE,f,f,NA,NA,NA,4,6,"7,6,1,11,8,4,13,15,3,2,9,5,14,10,12"
14265,commdev-image-keyboard-response,497,1141275,learnblock1,700.8999999985099,img/planet10_left.png,10,Community 3,NA,TRUE,f,f,NA,NA,NA,4,6,"7,6,1,11,8,4,13,15,3,2,9,5,14,10,12"
14265,commdev-image-keyboard-response,498,1142526,learnblock1,753,img/planet14_left.png,14,Community 3,NA,TRUE,f,f,NA,NA,NA,4,6,"7,6,1,11,8,4,13,15,3,2,9,5,14,10,12"
14265,commdev-image-keyboard-response,499,1143777,learnblock1,653.8999999985099,img/planet9_right.png,9,Community 3,NA,TRUE,j,j,NA,NA,NA,4,6,"7,6,1,11,8,4,13,15,3,2,9,5,14,10,12"
14265,commdev-image-keyboard-response,500,1145030,learnblock1,866.2000000029802,img/planet8_right.png,8,Community 1,NA,TRUE,j,j,NA,NA,NA,4,6,"7,6,1,11,8,4,13,15,3,2,9,5,14,10,12"
14265,commdev-image-keyboard-response,501,1146281,learnblock1,null,img/planet9_right.png,9,Community 3,NA,FALSE,null,j,NA,NA,NA,4,6,"7,6,1,11,8,4,13,15,3,2,9,5,14,10,12"
14265,commdev-image-keyboard-response,502,1147531,learnblock1,850.8999999985099,img/planet10_left.png,10,Community 3,NA,TRUE,f,f,NA,NA,NA,4,6,"7,6,1,11,8,4,13,15,3,2,9,5,14,10,12"
14265,commdev-image-keyboard-response,503,1148783,learnblock1,692.8999999985099,img/planet9_right.png,9,Community 3,NA,TRUE,j,j,NA,NA,NA,4,6,"7,6,1,11,8,4,13,15,3,2,9,5,14,10,12"
14265,commdev-image-keyboard-response,504,1150034,learnblock1,542.2999999970198,img/planet14_left.png,14,Community 3,NA,TRUE,f,f,NA,NA,NA,4,6,"7,6,1,11,8,4,13,15,3,2,9,5,14,10,12"
14265,commdev-image-keyboard-response,505,1151285,learnblock1,679.1999999955297,img/planet12_left.png,12,Community 3,NA,TRUE,f,f,NA,NA,NA,4,6,"7,6,1,11,8,4,13,15,3,2,9,5,14,10,12"
14265,commdev-image-keyboard-response,506,1152536,learnblock1,403.19999999552965,img/planet9_left.png,9,Community 3,NA,FALSE,j,f,NA,NA,NA,4,6,"7,6,1,11,8,4,13,15,3,2,9,5,14,10,12"
14265,commdev-image-keyboard-response,507,1153787,learnblock1,673.2999999970198,img/planet8_right.png,8,Community 1,NA,TRUE,j,j,NA,NA,NA,4,6,"7,6,1,11,8,4,13,15,3,2,9,5,14,10,12"
14265,commdev-image-keyboard-response,508,1155039,learnblock1,575.1000000014901,img/planet9_left.png,9,Community 3,NA,TRUE,f,f,NA,NA,NA,4,6,"7,6,1,11,8,4,13,15,3,2,9,5,14,10,12"
14265,commdev-image-keyboard-response,509,1156291,learnblock1,1020.8999999985099,img/planet12_right.png,12,Community 3,NA,TRUE,j,j,NA,NA,NA,4,6,"7,6,1,11,8,4,13,15,3,2,9,5,14,10,12"
14265,commdev-image-keyboard-response,510,1157542,learnblock1,803.2999999970198,img/planet5_right.png,5,Community 3,NA,TRUE,j,j,NA,NA,NA,4,6,"7,6,1,11,8,4,13,15,3,2,9,5,14,10,12"
14265,commdev-image-keyboard-response,511,1158794,learnblock1,745.8999999985099,img/planet15_right.png,15,Community 2,NA,TRUE,j,j,NA,NA,NA,4,6,"7,6,1,11,8,4,13,15,3,2,9,5,14,10,12"
14265,commdev-image-keyboard-response,512,1160045,learnblock1,605.2000000029802,img/planet5_left.png,5,Community 3,NA,FALSE,j,f,NA,NA,NA,4,6,"7,6,1,11,8,4,13,15,3,2,9,5,14,10,12"
14265,commdev-image-keyboard-response,513,1161296,learnblock1,1025.1000000014901,img/planet10_left.png,10,Community 3,NA,TRUE,f,f,NA,NA,NA,4,6,"7,6,1,11,8,4,13,15,3,2,9,5,14,10,12"
14265,commdev-image-keyboard-response,514,1162548,learnblock1,631.3999999985099,img/planet12_right.png,12,Community 3,NA,TRUE,j,j,NA,NA,NA,4,6,"7,6,1,11,8,4,13,15,3,2,9,5,14,10,12"
14265,commdev-image-keyboard-response,515,1163799,learnblock1,809.7999999970198,img/planet5_right.png,5,Community 3,NA,TRUE,j,j,NA,NA,NA,4,6,"7,6,1,11,8,4,13,15,3,2,9,5,14,10,12"
14265,commdev-image-keyboard-response,516,1165050,learnblock1,null,img/planet15_right.png,15,Community 2,NA,FALSE,null,j,NA,NA,NA,4,6,"7,6,1,11,8,4,13,15,3,2,9,5,14,10,12"
14265,commdev-image-keyboard-response,517,1166301,learnblock1,13.5,img/planet2_left.png,2,Community 2,NA,FALSE,j,f,NA,NA,NA,4,6,"7,6,1,11,8,4,13,15,3,2,9,5,14,10,12"
14265,commdev-image-keyboard-response,521,1205628,learnblock2,603.8999999985099,img/planet8_left.png,8,Community 1,NA,TRUE,f,f,NA,NA,NA,4,6,"7,6,1,11,8,4,13,15,3,2,9,5,14,10,12"
14265,commdev-image-keyboard-response,522,1206881,learnblock2,null,img/planet6_right.png,6,Community 1,NA,FALSE,null,j,NA,NA,NA,4,6,"7,6,1,11,8,4,13,15,3,2,9,5,14,10,12"
14265,commdev-image-keyboard-response,523,1208132,learnblock2,null,img/planet11_left.png,11,Community 1,NA,FALSE,null,f,NA,NA,NA,4,6,"7,6,1,11,8,4,13,15,3,2,9,5,14,10,12"
14265,commdev-image-keyboard-response,524,1209383,learnblock2,null,img/planet7_right.png,7,Community 1,NA,FALSE,null,j,NA,NA,NA,4,6,"7,6,1,11,8,4,13,15,3,2,9,5,14,10,12"
14265,commdev-image-keyboard-response,525,1210635,learnblock2,783.5,img/planet6_left.png,6,Community 1,NA,TRUE,f,f,NA,NA,NA,4,6,"7,6,1,11,8,4,13,15,3,2,9,5,14,10,12"
14265,commdev-image-keyboard-response,526,1211887,learnblock2,758,img/planet7_right.png,7,Community 1,NA,TRUE,j,j,NA,NA,NA,4,6,"7,6,1,11,8,4,13,15,3,2,9,5,14,10,12"
14265,commdev-image-keyboard-response,527,1213138,learnblock2,532.3000000044703,img/planet6_left.png,6,Community 1,NA,TRUE,f,f,NA,NA,NA,4,6,"7,6,1,11,8,4,13,15,3,2,9,5,14,10,12"
14265,commdev-image-keyboard-response,528,1214390,learnblock2,583.1999999955297,img/planet8_left.png,8,Community 1,NA,TRUE,f,f,NA,NA,NA,4,6,"7,6,1,11,8,4,13,15,3,2,9,5,14,10,12"
14265,commdev-image-keyboard-response,529,1215642,learnblock2,466.70000000298023,img/planet9_right.png,9,Community 3,NA,TRUE,j,j,NA,NA,NA,4,6,"7,6,1,11,8,4,13,15,3,2,9,5,14,10,12"
14265,commdev-image-keyboard-response,530,1216894,learnblock2,485,img/planet8_left.png,8,Community 1,NA,TRUE,f,f,NA,NA,NA,4,6,"7,6,1,11,8,4,13,15,3,2,9,5,14,10,12"
14265,commdev-image-keyboard-response,531,1218146,learnblock2,603.5999999940395,img/planet7_right.png,7,Community 1,NA,TRUE,j,j,NA,NA,NA,4,6,"7,6,1,11,8,4,13,15,3,2,9,5,14,10,12"
14265,commdev-image-keyboard-response,532,1219396,learnblock2,621,img/planet6_left.png,6,Community 1,NA,TRUE,f,f,NA,NA,NA,4,6,"7,6,1,11,8,4,13,15,3,2,9,5,14,10,12"
14265,commdev-image-keyboard-response,533,1220647,learnblock2,807.0999999940395,img/planet8_right.png,8,Community 1,NA,TRUE,j,j,NA,NA,NA,4,6,"7,6,1,11,8,4,13,15,3,2,9,5,14,10,12"
14265,commdev-image-keyboard-response,534,1221898,learnblock2,531.2000000029802,img/planet6_right.png,6,Community 1,NA,TRUE,j,j,NA,NA,NA,4,6,"7,6,1,11,8,4,13,15,3,2,9,5,14,10,12"
14265,commdev-image-keyboard-response,535,1223150,learnblock2,516.3999999985099,img/planet1_left.png,1,Community 1,NA,TRUE,f,f,NA,NA,NA,4,6,"7,6,1,11,8,4,13,15,3,2,9,5,14,10,12"
14265,commdev-image-keyboard-response,536,1224401,learnblock2,501.69999999552965,img/planet8_right.png,8,Community 1,NA,TRUE,j,j,NA,NA,NA,4,6,"7,6,1,11,8,4,13,15,3,2,9,5,14,10,12"
14265,commdev-image-keyboard-response,537,1225652,learnblock2,486.5,img/planet1_left.png,1,Community 1,NA,TRUE,f,f,NA,NA,NA,4,6,"7,6,1,11,8,4,13,15,3,2,9,5,14,10,12"
14265,commdev-image-keyboard-response,538,1226904,learnblock2,479.09999999403954,img/planet7_right.png,7,Community 1,NA,TRUE,j,j,NA,NA,NA,4,6,"7,6,1,11,8,4,13,15,3,2,9,5,14,10,12"
14265,commdev-image-keyboard-response,539,1228155,learnblock2,631.8999999985099,img/planet6_right.png,6,Community 1,NA,TRUE,j,j,NA,NA,NA,4,6,"7,6,1,11,8,4,13,15,3,2,9,5,14,10,12"
14265,commdev-image-keyboard-response,540,1229406,learnblock2,465.8999999985099,img/planet11_left.png,11,Community 1,NA,TRUE,f,f,NA,NA,NA,4,6,"7,6,1,11,8,4,13,15,3,2,9,5,14,10,12"
14265,commdev-image-keyboard-response,541,1230656,learnblock2,525.9000000059605,img/planet7_left.png,7,Community 1,NA,FALSE,j,f,NA,NA,NA,4,6,"7,6,1,11,8,4,13,15,3,2,9,5,14,10,12"
14265,commdev-image-keyboard-response,542,1231908,learnblock2,653.9000000059605,img/planet8_right.png,8,Community 1,NA,TRUE,j,j,NA,NA,NA,4,6,"7,6,1,11,8,4,13,15,3,2,9,5,14,10,12"
14265,commdev-image-keyboard-response,543,1233160,learnblock2,486.30000000447035,img/planet7_right.png,7,Community 1,NA,TRUE,j,j,NA,NA,NA,4,6,"7,6,1,11,8,4,13,15,3,2,9,5,14,10,12"
14265,commdev-image-keyboard-response,544,1234411,learnblock2,572,img/planet1_right.png,1,Community 1,NA,TRUE,j,j,NA,NA,NA,4,6,"7,6,1,11,8,4,13,15,3,2,9,5,14,10,12"
14265,commdev-image-keyboard-response,545,1235663,learnblock2,598.3000000044703,img/planet7_right.png,7,Community 1,NA,TRUE,j,j,NA,NA,NA,4,6,"7,6,1,11,8,4,13,15,3,2,9,5,14,10,12"
14265,commdev-image-keyboard-response,546,1236914,learnblock2,617.1000000014901,img/planet8_right.png,8,Community 1,NA,TRUE,j,j,NA,NA,NA,4,6,"7,6,1,11,8,4,13,15,3,2,9,5,14,10,12"
14265,commdev-image-keyboard-response,547,1238165,learnblock2,853.5999999940395,img/planet7_left.png,7,Community 1,NA,TRUE,f,f,NA,NA,NA,4,6,"7,6,1,11,8,4,13,15,3,2,9,5,14,10,12"
14265,commdev-image-keyboard-response,548,1239417,learnblock2,561.3999999985099,img/planet8_right.png,8,Community 1,NA,TRUE,j,j,NA,NA,NA,4,6,"7,6,1,11,8,4,13,15,3,2,9,5,14,10,12"
14265,commdev-image-keyboard-response,549,1240668,learnblock2,511.80000000447035,img/planet7_left.png,7,Community 1,NA,TRUE,f,f,NA,NA,NA,4,6,"7,6,1,11,8,4,13,15,3,2,9,5,14,10,12"
14265,commdev-image-keyboard-response,550,1241920,learnblock2,615.4000000059605,img/planet1_right.png,1,Community 1,NA,TRUE,j,j,NA,NA,NA,4,6,"7,6,1,11,8,4,13,15,3,2,9,5,14,10,12"
14265,commdev-image-keyboard-response,551,1243171,learnblock2,523.8000000044703,img/planet7_left.png,7,Community 1,NA,TRUE,f,f,NA,NA,NA,4,6,"7,6,1,11,8,4,13,15,3,2,9,5,14,10,12"
14265,commdev-image-keyboard-response,552,1244422,learnblock2,542.9000000059605,img/planet8_right.png,8,Community 1,NA,TRUE,j,j,NA,NA,NA,4,6,"7,6,1,11,8,4,13,15,3,2,9,5,14,10,12"
14265,commdev-image-keyboard-response,553,1245673,learnblock2,326.29999999701977,img/planet9_left.png,9,Community 3,NA,TRUE,f,f,NA,NA,NA,4,6,"7,6,1,11,8,4,13,15,3,2,9,5,14,10,12"
14265,commdev-image-keyboard-response,554,1246926,learnblock2,437.30000000447035,img/planet8_right.png,8,Community 1,NA,TRUE,j,j,NA,NA,NA,4,6,"7,6,1,11,8,4,13,15,3,2,9,5,14,10,12"
14265,commdev-image-keyboard-response,555,1248177,learnblock2,437.80000000447035,img/planet1_left.png,1,Community 1,NA,TRUE,f,f,NA,NA,NA,4,6,"7,6,1,11,8,4,13,15,3,2,9,5,14,10,12"
14265,commdev-image-keyboard-response,556,1249430,learnblock2,337.1000000014901,img/planet6_right.png,6,Community 1,NA,TRUE,j,j,NA,NA,NA,4,6,"7,6,1,11,8,4,13,15,3,2,9,5,14,10,12"
14265,commdev-image-keyboard-response,557,1250681,learnblock2,514.8000000044703,img/planet8_left.png,8,Community 1,NA,TRUE,f,f,NA,NA,NA,4,6,"7,6,1,11,8,4,13,15,3,2,9,5,14,10,12"
14265,commdev-image-keyboard-response,558,1251943,learnblock2,507.6000000014901,img/planet9_left.png,9,Community 3,NA,TRUE,f,f,NA,NA,NA,4,6,"7,6,1,11,8,4,13,15,3,2,9,5,14,10,12"
14265,commdev-image-keyboard-response,559,1253194,learnblock2,616.8999999985099,img/planet12_right.png,12,Community 3,NA,TRUE,j,j,NA,NA,NA,4,6,"7,6,1,11,8,4,13,15,3,2,9,5,14,10,12"
14265,commdev-image-keyboard-response,560,1254446,learnblock2,744.6000000014901,img/planet10_right.png,10,Community 3,NA,TRUE,j,j,NA,NA,NA,4,6,"7,6,1,11,8,4,13,15,3,2,9,5,14,10,12"
14265,commdev-image-keyboard-response,561,1255697,learnblock2,671.1999999955297,img/planet14_right.png,14,Community 3,NA,TRUE,j,j,NA,NA,NA,4,6,"7,6,1,11,8,4,13,15,3,2,9,5,14,10,12"
14265,commdev-image-keyboard-response,562,1256949,learnblock2,671.7000000029802,img/planet10_right.png,10,Community 3,NA,TRUE,j,j,NA,NA,NA,4,6,"7,6,1,11,8,4,13,15,3,2,9,5,14,10,12"
14265,commdev-image-keyboard-response,563,1258201,learnblock2,512.3999999985099,img/planet9_right.png,9,Community 3,NA,TRUE,j,j,NA,NA,NA,4,6,"7,6,1,11,8,4,13,15,3,2,9,5,14,10,12"
14265,commdev-image-keyboard-response,564,1259452,learnblock2,497.8999999985099,img/planet10_right.png,10,Community 3,NA,TRUE,j,j,NA,NA,NA,4,6,"7,6,1,11,8,4,13,15,3,2,9,5,14,10,12"
14265,commdev-image-keyboard-response,565,1260703,learnblock2,456.6000000014901,img/planet9_right.png,9,Community 3,NA,TRUE,j,j,NA,NA,NA,4,6,"7,6,1,11,8,4,13,15,3,2,9,5,14,10,12"
14265,commdev-image-keyboard-response,566,1261955,learnblock2,585.1999999955297,img/planet10_left.png,10,Community 3,NA,TRUE,f,f,NA,NA,NA,4,6,"7,6,1,11,8,4,13,15,3,2,9,5,14,10,12"
14265,commdev-image-keyboard-response,567,1263207,learnblock2,670.7000000029802,img/planet14_right.png,14,Community 3,NA,TRUE,j,j,NA,NA,NA,4,6,"7,6,1,11,8,4,13,15,3,2,9,5,14,10,12"
14265,commdev-image-keyboard-response,568,1264458,learnblock2,570.7999999970198,img/planet10_right.png,10,Community 3,NA,TRUE,j,j,NA,NA,NA,4,6,"7,6,1,11,8,4,13,15,3,2,9,5,14,10,12"
14265,commdev-image-keyboard-response,569,1265709,learnblock2,639.7000000029802,img/planet5_right.png,5,Community 3,NA,TRUE,j,j,NA,NA,NA,4,6,"7,6,1,11,8,4,13,15,3,2,9,5,14,10,12"
14265,commdev-image-keyboard-response,570,1266960,learnblock2,600,img/planet15_right.png,15,Community 2,NA,TRUE,j,j,NA,NA,NA,4,6,"7,6,1,11,8,4,13,15,3,2,9,5,14,10,12"
14265,commdev-image-keyboard-response,571,1268212,learnblock2,618.2999999970198,img/planet3_right.png,3,Community 2,NA,TRUE,j,j,NA,NA,NA,4,6,"7,6,1,11,8,4,13,15,3,2,9,5,14,10,12"
14265,commdev-image-keyboard-response,572,1269463,learnblock2,536.1000000014901,img/planet4_right.png,4,Community 2,NA,TRUE,j,j,NA,NA,NA,4,6,"7,6,1,11,8,4,13,15,3,2,9,5,14,10,12"
14265,commdev-image-keyboard-response,573,1270715,learnblock2,580.1999999955297,img/planet11_right.png,11,Community 1,NA,TRUE,j,j,NA,NA,NA,4,6,"7,6,1,11,8,4,13,15,3,2,9,5,14,10,12"
14265,commdev-image-keyboard-response,574,1271967,learnblock2,580.8999999985099,img/planet7_left.png,7,Community 1,NA,TRUE,f,f,NA,NA,NA,4,6,"7,6,1,11,8,4,13,15,3,2,9,5,14,10,12"
14265,commdev-image-keyboard-response,575,1273218,learnblock2,649.6000000014901,img/planet8_left.png,8,Community 1,NA,TRUE,f,f,NA,NA,NA,4,6,"7,6,1,11,8,4,13,15,3,2,9,5,14,10,12"
14265,commdev-image-keyboard-response,576,1274470,learnblock2,634.1000000014901,img/planet7_right.png,7,Community 1,NA,TRUE,j,j,NA,NA,NA,4,6,"7,6,1,11,8,4,13,15,3,2,9,5,14,10,12"
14265,commdev-image-keyboard-response,577,1275721,learnblock2,551.8999999985099,img/planet6_left.png,6,Community 1,NA,TRUE,f,f,NA,NA,NA,4,6,"7,6,1,11,8,4,13,15,3,2,9,5,14,10,12"
14265,commdev-image-keyboard-response,578,1276972,learnblock2,697.3000000044703,img/planet8_right.png,8,Community 1,NA,TRUE,j,j,NA,NA,NA,4,6,"7,6,1,11,8,4,13,15,3,2,9,5,14,10,12"
14265,commdev-image-keyboard-response,579,1278223,learnblock2,563.5,img/planet1_left.png,1,Community 1,NA,FALSE,j,f,NA,NA,NA,4,6,"7,6,1,11,8,4,13,15,3,2,9,5,14,10,12"
14265,commdev-image-keyboard-response,580,1279475,learnblock2,1187.8999999985099,img/planet8_right.png,8,Community 1,NA,TRUE,j,j,NA,NA,NA,4,6,"7,6,1,11,8,4,13,15,3,2,9,5,14,10,12"
14265,commdev-image-keyboard-response,581,1280726,learnblock2,1096.6000000014901,img/planet1_left.png,1,Community 1,NA,TRUE,f,f,NA,NA,NA,4,6,"7,6,1,11,8,4,13,15,3,2,9,5,14,10,12"
14265,commdev-image-keyboard-response,582,1281977,learnblock2,720.5,img/planet8_left.png,8,Community 1,NA,TRUE,f,f,NA,NA,NA,4,6,"7,6,1,11,8,4,13,15,3,2,9,5,14,10,12"
14265,commdev-image-keyboard-response,583,1283228,learnblock2,638.3999999985099,img/planet7_left.png,7,Community 1,NA,TRUE,f,f,NA,NA,NA,4,6,"7,6,1,11,8,4,13,15,3,2,9,5,14,10,12"
14265,commdev-image-keyboard-response,584,1284479,learnblock2,640.5,img/planet1_right.png,1,Community 1,NA,TRUE,j,j,NA,NA,NA,4,6,"7,6,1,11,8,4,13,15,3,2,9,5,14,10,12"
14265,commdev-image-keyboard-response,585,1285730,learnblock2,785.2999999970198,img/planet11_right.png,11,Community 1,NA,TRUE,j,j,NA,NA,NA,4,6,"7,6,1,11,8,4,13,15,3,2,9,5,14,10,12"
14265,commdev-image-keyboard-response,586,1286981,learnblock2,711.3999999985099,img/planet6_left.png,6,Community 1,NA,TRUE,f,f,NA,NA,NA,4,6,"7,6,1,11,8,4,13,15,3,2,9,5,14,10,12"
14265,commdev-image-keyboard-response,587,1288233,learnblock2,1049.0999999940395,img/planet8_left.png,8,Community 1,NA,FALSE,j,f,NA,NA,NA,4,6,"7,6,1,11,8,4,13,15,3,2,9,5,14,10,12"
14265,commdev-image-keyboard-response,588,1289484,learnblock2,714.5,img/planet1_left.png,1,Community 1,NA,TRUE,f,f,NA,NA,NA,4,6,"7,6,1,11,8,4,13,15,3,2,9,5,14,10,12"
14265,commdev-image-keyboard-response,589,1290736,learnblock2,321,img/planet11_left.png,11,Community 1,NA,TRUE,f,f,NA,NA,NA,4,6,"7,6,1,11,8,4,13,15,3,2,9,5,14,10,12"
14265,commdev-image-keyboard-response,590,1291989,learnblock2,599.4000000059605,img/planet4_left.png,4,Community 2,NA,TRUE,f,f,NA,NA,NA,4,6,"7,6,1,11,8,4,13,15,3,2,9,5,14,10,12"
14265,commdev-image-keyboard-response,591,1293240,learnblock2,600,img/planet3_left.png,3,Community 2,NA,TRUE,f,f,NA,NA,NA,4,6,"7,6,1,11,8,4,13,15,3,2,9,5,14,10,12"
14265,commdev-image-keyboard-response,592,1294491,learnblock2,693.7000000029802,img/planet4_right.png,4,Community 2,NA,TRUE,j,j,NA,NA,NA,4,6,"7,6,1,11,8,4,13,15,3,2,9,5,14,10,12"
14265,commdev-image-keyboard-response,593,1295742,learnblock2,544.9000000059605,img/planet3_left.png,3,Community 2,NA,TRUE,f,f,NA,NA,NA,4,6,"7,6,1,11,8,4,13,15,3,2,9,5,14,10,12"
14265,commdev-image-keyboard-response,594,1296993,learnblock2,538.9000000059605,img/planet15_left.png,15,Community 2,NA,TRUE,f,f,NA,NA,NA,4,6,"7,6,1,11,8,4,13,15,3,2,9,5,14,10,12"
14265,commdev-image-keyboard-response,595,1298244,learnblock2,608,img/planet5_left.png,5,Community 3,NA,TRUE,f,f,NA,NA,NA,4,6,"7,6,1,11,8,4,13,15,3,2,9,5,14,10,12"
14265,commdev-image-keyboard-response,596,1299495,learnblock2,677.8000000044703,img/planet12_left.png,12,Community 3,NA,TRUE,f,f,NA,NA,NA,4,6,"7,6,1,11,8,4,13,15,3,2,9,5,14,10,12"
14265,commdev-image-keyboard-response,597,1300746,learnblock2,553.7000000029802,img/planet5_right.png,5,Community 3,NA,TRUE,j,j,NA,NA,NA,4,6,"7,6,1,11,8,4,13,15,3,2,9,5,14,10,12"
14265,commdev-image-keyboard-response,598,1301998,learnblock2,717,img/planet10_right.png,10,Community 3,NA,TRUE,j,j,NA,NA,NA,4,6,"7,6,1,11,8,4,13,15,3,2,9,5,14,10,12"
14265,commdev-image-keyboard-response,599,1303250,learnblock2,676.3000000044703,img/planet12_right.png,12,Community 3,NA,TRUE,j,j,NA,NA,NA,4,6,"7,6,1,11,8,4,13,15,3,2,9,5,14,10,12"
14265,commdev-image-keyboard-response,600,1304501,learnblock2,776.4000000059605,img/planet5_right.png,5,Community 3,NA,TRUE,j,j,NA,NA,NA,4,6,"7,6,1,11,8,4,13,15,3,2,9,5,14,10,12"
14265,commdev-image-keyboard-response,601,1305752,learnblock2,593.6000000014901,img/planet14_right.png,14,Community 3,NA,TRUE,j,j,NA,NA,NA,4,6,"7,6,1,11,8,4,13,15,3,2,9,5,14,10,12"
14265,commdev-image-keyboard-response,602,1307004,learnblock2,570.5,img/planet12_left.png,12,Community 3,NA,TRUE,f,f,NA,NA,NA,4,6,"7,6,1,11,8,4,13,15,3,2,9,5,14,10,12"
14265,commdev-image-keyboard-response,603,1308262,learnblock2,604.4000000059605,img/planet10_right.png,10,Community 3,NA,TRUE,j,j,NA,NA,NA,4,6,"7,6,1,11,8,4,13,15,3,2,9,5,14,10,12"
14265,commdev-image-keyboard-response,604,1309513,learnblock2,447,img/planet14_left.png,14,Community 3,NA,TRUE,f,f,NA,NA,NA,4,6,"7,6,1,11,8,4,13,15,3,2,9,5,14,10,12"
14265,commdev-image-keyboard-response,605,1310765,learnblock2,895.7000000029802,img/planet9_right.png,9,Community 3,NA,TRUE,j,j,NA,NA,NA,4,6,"7,6,1,11,8,4,13,15,3,2,9,5,14,10,12"
14265,commdev-image-keyboard-response,606,1312016,learnblock2,709.9000000059605,img/planet12_right.png,12,Community 3,NA,TRUE,j,j,NA,NA,NA,4,6,"7,6,1,11,8,4,13,15,3,2,9,5,14,10,12"
14265,commdev-image-keyboard-response,607,1313268,learnblock2,694.6000000014901,img/planet9_right.png,9,Community 3,NA,TRUE,j,j,NA,NA,NA,4,6,"7,6,1,11,8,4,13,15,3,2,9,5,14,10,12"
14265,commdev-image-keyboard-response,608,1314520,learnblock2,603.8999999985099,img/planet12_right.png,12,Community 3,NA,TRUE,j,j,NA,NA,NA,4,6,"7,6,1,11,8,4,13,15,3,2,9,5,14,10,12"
14265,commdev-image-keyboard-response,609,1315771,learnblock2,781,img/planet5_right.png,5,Community 3,NA,TRUE,j,j,NA,NA,NA,4,6,"7,6,1,11,8,4,13,15,3,2,9,5,14,10,12"
14265,commdev-image-keyboard-response,610,1317022,learnblock2,732.8999999985099,img/planet10_right.png,10,Community 3,NA,TRUE,j,j,NA,NA,NA,4,6,"7,6,1,11,8,4,13,15,3,2,9,5,14,10,12"
14265,commdev-image-keyboard-response,611,1318273,learnblock2,541.8999999985099,img/planet9_left.png,9,Community 3,NA,FALSE,j,f,NA,NA,NA,4,6,"7,6,1,11,8,4,13,15,3,2,9,5,14,10,12"
14265,commdev-image-keyboard-response,612,1319524,learnblock2,643,img/planet12_left.png,12,Community 3,NA,TRUE,f,f,NA,NA,NA,4,6,"7,6,1,11,8,4,13,15,3,2,9,5,14,10,12"
14265,commdev-image-keyboard-response,613,1320776,learnblock2,602.7000000029802,img/planet9_right.png,9,Community 3,NA,TRUE,j,j,NA,NA,NA,4,6,"7,6,1,11,8,4,13,15,3,2,9,5,14,10,12"
14265,commdev-image-keyboard-response,614,1322027,learnblock2,561.3999999985099,img/planet8_right.png,8,Community 1,NA,TRUE,j,j,NA,NA,NA,4,6,"7,6,1,11,8,4,13,15,3,2,9,5,14,10,12"
14265,commdev-image-keyboard-response,615,1323278,learnblock2,570.7000000029802,img/planet1_left.png,1,Community 1,NA,TRUE,f,f,NA,NA,NA,4,6,"7,6,1,11,8,4,13,15,3,2,9,5,14,10,12"
14265,commdev-image-keyboard-response,616,1324529,learnblock2,672.7999999970198,img/planet7_right.png,7,Community 1,NA,TRUE,j,j,NA,NA,NA,4,6,"7,6,1,11,8,4,13,15,3,2,9,5,14,10,12"
14265,commdev-image-keyboard-response,617,1325781,learnblock2,726.8999999985099,img/planet11_right.png,11,Community 1,NA,TRUE,j,j,NA,NA,NA,4,6,"7,6,1,11,8,4,13,15,3,2,9,5,14,10,12"
14265,commdev-image-keyboard-response,618,1327033,learnblock2,634.2000000029802,img/planet1_left.png,1,Community 1,NA,TRUE,f,f,NA,NA,NA,4,6,"7,6,1,11,8,4,13,15,3,2,9,5,14,10,12"
14265,commdev-image-keyboard-response,619,1328285,learnblock2,659.7999999970198,img/planet11_left.png,11,Community 1,NA,TRUE,f,f,NA,NA,NA,4,6,"7,6,1,11,8,4,13,15,3,2,9,5,14,10,12"
14265,commdev-image-keyboard-response,620,1329536,learnblock2,602.5,img/planet4_left.png,4,Community 2,NA,TRUE,f,f,NA,NA,NA,4,6,"7,6,1,11,8,4,13,15,3,2,9,5,14,10,12"
14265,commdev-image-keyboard-response,621,1330787,learnblock2,680,img/planet2_left.png,2,Community 2,NA,TRUE,f,f,NA,NA,NA,4,6,"7,6,1,11,8,4,13,15,3,2,9,5,14,10,12"
14265,commdev-image-keyboard-response,622,1332039,learnblock2,605.6000000014901,img/planet3_left.png,3,Community 2,NA,TRUE,f,f,NA,NA,NA,4,6,"7,6,1,11,8,4,13,15,3,2,9,5,14,10,12"
14265,commdev-image-keyboard-response,623,1333291,learnblock2,531,img/planet4_right.png,4,Community 2,NA,FALSE,f,j,NA,NA,NA,4,6,"7,6,1,11,8,4,13,15,3,2,9,5,14,10,12"
14265,commdev-image-keyboard-response,624,1334543,learnblock2,616,img/planet11_left.png,11,Community 1,NA,TRUE,f,f,NA,NA,NA,4,6,"7,6,1,11,8,4,13,15,3,2,9,5,14,10,12"
14265,commdev-image-keyboard-response,625,1335794,learnblock2,726.2999999970198,img/planet4_left.png,4,Community 2,NA,TRUE,f,f,NA,NA,NA,4,6,"7,6,1,11,8,4,13,15,3,2,9,5,14,10,12"
14265,commdev-image-keyboard-response,626,1337045,learnblock2,449.69999999552965,img/planet2_left.png,2,Community 2,NA,FALSE,j,f,NA,NA,NA,4,6,"7,6,1,11,8,4,13,15,3,2,9,5,14,10,12"
14265,commdev-image-keyboard-response,627,1338297,learnblock2,611.8999999985099,img/planet3_left.png,3,Community 2,NA,TRUE,f,f,NA,NA,NA,4,6,"7,6,1,11,8,4,13,15,3,2,9,5,14,10,12"
14265,commdev-image-keyboard-response,628,1339548,learnblock2,588.5,img/planet15_left.png,15,Community 2,NA,TRUE,f,f,NA,NA,NA,4,6,"7,6,1,11,8,4,13,15,3,2,9,5,14,10,12"
14265,commdev-image-keyboard-response,629,1340800,learnblock2,766.3999999985099,img/planet3_right.png,3,Community 2,NA,TRUE,j,j,NA,NA,NA,4,6,"7,6,1,11,8,4,13,15,3,2,9,5,14,10,12"
14265,commdev-image-keyboard-response,630,1342052,learnblock2,716.5,img/planet4_right.png,4,Community 2,NA,TRUE,j,j,NA,NA,NA,4,6,"7,6,1,11,8,4,13,15,3,2,9,5,14,10,12"
14265,commdev-image-keyboard-response,631,1343304,learnblock2,516,img/planet11_left.png,11,Community 1,NA,TRUE,f,f,NA,NA,NA,4,6,"7,6,1,11,8,4,13,15,3,2,9,5,14,10,12"
14265,commdev-image-keyboard-response,632,1344555,learnblock2,591.8999999985099,img/planet6_right.png,6,Community 1,NA,TRUE,j,j,NA,NA,NA,4,6,"7,6,1,11,8,4,13,15,3,2,9,5,14,10,12"
14265,commdev-image-keyboard-response,633,1345806,learnblock2,323.8999999985099,img/planet7_left.png,7,Community 1,NA,TRUE,f,f,NA,NA,NA,4,6,"7,6,1,11,8,4,13,15,3,2,9,5,14,10,12"
14265,commdev-image-keyboard-response,634,1347068,learnblock2,442.3999999985099,img/planet11_left.png,11,Community 1,NA,TRUE,f,f,NA,NA,NA,4,6,"7,6,1,11,8,4,13,15,3,2,9,5,14,10,12"
14265,commdev-image-keyboard-response,635,1348320,learnblock2,307.79999999701977,img/planet7_right.png,7,Community 1,NA,FALSE,f,j,NA,NA,NA,4,6,"7,6,1,11,8,4,13,15,3,2,9,5,14,10,12"
14265,commdev-image-keyboard-response,636,1349571,learnblock2,475.79999999701977,img/planet1_left.png,1,Community 1,NA,TRUE,f,f,NA,NA,NA,4,6,"7,6,1,11,8,4,13,15,3,2,9,5,14,10,12"
14265,commdev-image-keyboard-response,637,1350822,learnblock2,513,img/planet8_right.png,8,Community 1,NA,TRUE,j,j,NA,NA,NA,4,6,"7,6,1,11,8,4,13,15,3,2,9,5,14,10,12"
14265,commdev-image-keyboard-response,638,1352074,learnblock2,269.6000000014901,img/planet1_right.png,1,Community 1,NA,FALSE,f,j,NA,NA,NA,4,6,"7,6,1,11,8,4,13,15,3,2,9,5,14,10,12"
14265,commdev-image-keyboard-response,639,1353325,learnblock2,321.70000000298023,img/planet8_right.png,8,Community 1,NA,TRUE,j,j,NA,NA,NA,4,6,"7,6,1,11,8,4,13,15,3,2,9,5,14,10,12"
14265,commdev-image-keyboard-response,640,1354577,learnblock2,767.7999999970198,img/planet1_left.png,1,Community 1,NA,TRUE,f,f,NA,NA,NA,4,6,"7,6,1,11,8,4,13,15,3,2,9,5,14,10,12"
14265,commdev-image-keyboard-response,641,1355828,learnblock2,583.9000000059605,img/planet7_left.png,7,Community 1,NA,TRUE,f,f,NA,NA,NA,4,6,"7,6,1,11,8,4,13,15,3,2,9,5,14,10,12"
14265,commdev-image-keyboard-response,642,1357080,learnblock2,652.2000000029802,img/planet8_right.png,8,Community 1,NA,FALSE,f,j,NA,NA,NA,4,6,"7,6,1,11,8,4,13,15,3,2,9,5,14,10,12"
14265,commdev-image-keyboard-response,643,1358331,learnblock2,937.6000000014901,img/planet7_right.png,7,Community 1,NA,TRUE,j,j,NA,NA,NA,4,6,"7,6,1,11,8,4,13,15,3,2,9,5,14,10,12"
14265,commdev-image-keyboard-response,644,1359582,learnblock2,669.5,img/planet6_left.png,6,Community 1,NA,TRUE,f,f,NA,NA,NA,4,6,"7,6,1,11,8,4,13,15,3,2,9,5,14,10,12"
14265,commdev-image-keyboard-response,645,1360834,learnblock2,570.5999999940395,img/planet7_left.png,7,Community 1,NA,TRUE,f,f,NA,NA,NA,4,6,"7,6,1,11,8,4,13,15,3,2,9,5,14,10,12"
14265,commdev-image-keyboard-response,646,1362085,learnblock2,580.1999999955297,img/planet8_left.png,8,Community 1,NA,TRUE,f,f,NA,NA,NA,4,6,"7,6,1,11,8,4,13,15,3,2,9,5,14,10,12"
14265,commdev-image-keyboard-response,647,1363336,learnblock2,531.8000000044703,img/planet1_right.png,1,Community 1,NA,TRUE,j,j,NA,NA,NA,4,6,"7,6,1,11,8,4,13,15,3,2,9,5,14,10,12"
14265,commdev-image-keyboard-response,648,1364587,learnblock2,464.80000000447035,img/planet6_right.png,6,Community 1,NA,TRUE,j,j,NA,NA,NA,4,6,"7,6,1,11,8,4,13,15,3,2,9,5,14,10,12"
14265,commdev-image-keyboard-response,649,1365846,learnblock2,348.90000000596046,img/planet1_left.png,1,Community 1,NA,FALSE,j,f,NA,NA,NA,4,6,"7,6,1,11,8,4,13,15,3,2,9,5,14,10,12"
14265,commdev-image-keyboard-response,650,1367098,learnblock2,1006.7000000029802,img/planet6_right.png,6,Community 1,NA,TRUE,j,j,NA,NA,NA,4,6,"7,6,1,11,8,4,13,15,3,2,9,5,14,10,12"
14265,commdev-image-keyboard-response,651,1368349,learnblock2,628,img/planet1_right.png,1,Community 1,NA,FALSE,f,j,NA,NA,NA,4,6,"7,6,1,11,8,4,13,15,3,2,9,5,14,10,12"
14265,commdev-image-keyboard-response,652,1369600,learnblock2,763.9000000059605,img/planet11_left.png,11,Community 1,NA,TRUE,f,f,NA,NA,NA,4,6,"7,6,1,11,8,4,13,15,3,2,9,5,14,10,12"
14265,commdev-image-keyboard-response,653,1370852,learnblock2,437.6000000014901,img/planet4_right.png,4,Community 2,NA,TRUE,j,j,NA,NA,NA,4,6,"7,6,1,11,8,4,13,15,3,2,9,5,14,10,12"
14265,commdev-image-keyboard-response,654,1372103,learnblock2,538.9000000059605,img/planet11_right.png,11,Community 1,NA,TRUE,j,j,NA,NA,NA,4,6,"7,6,1,11,8,4,13,15,3,2,9,5,14,10,12"
14265,commdev-image-keyboard-response,655,1373354,learnblock2,623.2000000029802,img/planet7_right.png,7,Community 1,NA,FALSE,f,j,NA,NA,NA,4,6,"7,6,1,11,8,4,13,15,3,2,9,5,14,10,12"
14265,commdev-image-keyboard-response,656,1374606,learnblock2,591.5,img/planet6_right.png,6,Community 1,NA,TRUE,j,j,NA,NA,NA,4,6,"7,6,1,11,8,4,13,15,3,2,9,5,14,10,12"
14265,commdev-image-keyboard-response,657,1375857,learnblock2,718.9000000059605,img/planet8_right.png,8,Community 1,NA,FALSE,f,j,NA,NA,NA,4,6,"7,6,1,11,8,4,13,15,3,2,9,5,14,10,12"
14265,commdev-image-keyboard-response,658,1377109,learnblock2,643.3999999985099,img/planet6_right.png,6,Community 1,NA,TRUE,j,j,NA,NA,NA,4,6,"7,6,1,11,8,4,13,15,3,2,9,5,14,10,12"
14265,commdev-image-keyboard-response,659,1378360,learnblock2,890,img/planet8_left.png,8,Community 1,NA,TRUE,f,f,NA,NA,NA,4,6,"7,6,1,11,8,4,13,15,3,2,9,5,14,10,12"
14265,commdev-image-keyboard-response,660,1379611,learnblock2,646.7000000029802,img/planet7_left.png,7,Community 1,NA,TRUE,f,f,NA,NA,NA,4,6,"7,6,1,11,8,4,13,15,3,2,9,5,14,10,12"
14265,commdev-image-keyboard-response,661,1380862,learnblock2,665.2000000029802,img/planet6_right.png,6,Community 1,NA,TRUE,j,j,NA,NA,NA,4,6,"7,6,1,11,8,4,13,15,3,2,9,5,14,10,12"
14265,commdev-image-keyboard-response,662,1382114,learnblock2,473.20000000298023,img/planet7_left.png,7,Community 1,NA,TRUE,f,f,NA,NA,NA,4,6,"7,6,1,11,8,4,13,15,3,2,9,5,14,10,12"
14265,commdev-image-keyboard-response,663,1383366,learnblock2,457.70000000298023,img/planet11_right.png,11,Community 1,NA,TRUE,j,j,NA,NA,NA,4,6,"7,6,1,11,8,4,13,15,3,2,9,5,14,10,12"
14265,commdev-image-keyboard-response,664,1384617,learnblock2,711,img/planet6_right.png,6,Community 1,NA,TRUE,j,j,NA,NA,NA,4,6,"7,6,1,11,8,4,13,15,3,2,9,5,14,10,12"
14265,commdev-image-keyboard-response,665,1385868,learnblock2,536.8000000044703,img/planet11_left.png,11,Community 1,NA,FALSE,j,f,NA,NA,NA,4,6,"7,6,1,11,8,4,13,15,3,2,9,5,14,10,12"
14265,commdev-image-keyboard-response,666,1387119,learnblock2,857.2000000029802,img/planet4_left.png,4,Community 2,NA,TRUE,f,f,NA,NA,NA,4,6,"7,6,1,11,8,4,13,15,3,2,9,5,14,10,12"
14265,commdev-image-keyboard-response,667,1388371,learnblock2,691.1000000014901,img/planet13_left.png,13,Community 2,NA,TRUE,f,f,NA,NA,NA,4,6,"7,6,1,11,8,4,13,15,3,2,9,5,14,10,12"
14265,commdev-image-keyboard-response,668,1389622,learnblock2,625.8999999985099,img/planet3_right.png,3,Community 2,NA,TRUE,j,j,NA,NA,NA,4,6,"7,6,1,11,8,4,13,15,3,2,9,5,14,10,12"
14265,commdev-image-keyboard-response,669,1390873,learnblock2,617.6999999955297,img/planet4_right.png,4,Community 2,NA,FALSE,f,j,NA,NA,NA,4,6,"7,6,1,11,8,4,13,15,3,2,9,5,14,10,12"
14265,commdev-image-keyboard-response,670,1392124,learnblock2,1132.3999999985099,img/planet2_left.png,2,Community 2,NA,TRUE,f,f,NA,NA,NA,4,6,"7,6,1,11,8,4,13,15,3,2,9,5,14,10,12"
14265,commdev-image-keyboard-response,671,1393375,learnblock2,789,img/planet15_left.png,15,Community 2,NA,TRUE,f,f,NA,NA,NA,4,6,"7,6,1,11,8,4,13,15,3,2,9,5,14,10,12"
14265,commdev-image-keyboard-response,672,1394627,learnblock2,774.1000000014901,img/planet3_left.png,3,Community 2,NA,TRUE,f,f,NA,NA,NA,4,6,"7,6,1,11,8,4,13,15,3,2,9,5,14,10,12"
14265,commdev-image-keyboard-response,673,1395878,learnblock2,673.6000000014901,img/planet2_right.png,2,Community 2,NA,TRUE,j,j,NA,NA,NA,4,6,"7,6,1,11,8,4,13,15,3,2,9,5,14,10,12"
14265,commdev-image-keyboard-response,674,1397129,learnblock2,406.1000000014901,img/planet13_left.png,13,Community 2,NA,TRUE,f,f,NA,NA,NA,4,6,"7,6,1,11,8,4,13,15,3,2,9,5,14,10,12"
14265,commdev-image-keyboard-response,675,1398381,learnblock2,592.1999999955297,img/planet2_right.png,2,Community 2,NA,TRUE,j,j,NA,NA,NA,4,6,"7,6,1,11,8,4,13,15,3,2,9,5,14,10,12"
14265,commdev-image-keyboard-response,676,1399632,learnblock2,307.70000000298023,img/planet3_left.png,3,Community 2,NA,TRUE,f,f,NA,NA,NA,4,6,"7,6,1,11,8,4,13,15,3,2,9,5,14,10,12"
14265,commdev-image-keyboard-response,677,1400883,learnblock2,637.6000000014901,img/planet4_left.png,4,Community 2,NA,TRUE,f,f,NA,NA,NA,4,6,"7,6,1,11,8,4,13,15,3,2,9,5,14,10,12"
14265,commdev-image-keyboard-response,678,1402135,learnblock2,622.2999999970198,img/planet3_left.png,3,Community 2,NA,TRUE,f,f,NA,NA,NA,4,6,"7,6,1,11,8,4,13,15,3,2,9,5,14,10,12"
14265,commdev-image-keyboard-response,679,1403386,learnblock2,639.8999999985099,img/planet13_left.png,13,Community 2,NA,TRUE,f,f,NA,NA,NA,4,6,"7,6,1,11,8,4,13,15,3,2,9,5,14,10,12"
14265,commdev-image-keyboard-response,680,1404637,learnblock2,414.69999999552965,img/planet2_left.png,2,Community 2,NA,TRUE,f,f,NA,NA,NA,4,6,"7,6,1,11,8,4,13,15,3,2,9,5,14,10,12"
14265,commdev-image-keyboard-response,681,1405888,learnblock2,449.6000000014901,img/planet3_left.png,3,Community 2,NA,TRUE,f,f,NA,NA,NA,4,6,"7,6,1,11,8,4,13,15,3,2,9,5,14,10,12"
14265,commdev-image-keyboard-response,682,1407140,learnblock2,509.1000000014901,img/planet4_right.png,4,Community 2,NA,TRUE,j,j,NA,NA,NA,4,6,"7,6,1,11,8,4,13,15,3,2,9,5,14,10,12"
14265,commdev-image-keyboard-response,683,1408392,learnblock2,451.29999999701977,img/planet2_left.png,2,Community 2,NA,TRUE,f,f,NA,NA,NA,4,6,"7,6,1,11,8,4,13,15,3,2,9,5,14,10,12"
14265,commdev-image-keyboard-response,684,1409643,learnblock2,577.6999999955297,img/planet4_left.png,4,Community 2,NA,TRUE,f,f,NA,NA,NA,4,6,"7,6,1,11,8,4,13,15,3,2,9,5,14,10,12"
14265,commdev-image-keyboard-response,685,1410894,learnblock2,562.2999999970198,img/planet11_right.png,11,Community 1,NA,FALSE,f,j,NA,NA,NA,4,6,"7,6,1,11,8,4,13,15,3,2,9,5,14,10,12"
14265,commdev-image-keyboard-response,686,1412145,learnblock2,1160,img/planet4_right.png,4,Community 2,NA,TRUE,j,j,NA,NA,NA,4,6,"7,6,1,11,8,4,13,15,3,2,9,5,14,10,12"
14265,commdev-image-keyboard-response,687,1413397,learnblock2,590,img/planet3_left.png,3,Community 2,NA,TRUE,f,f,NA,NA,NA,4,6,"7,6,1,11,8,4,13,15,3,2,9,5,14,10,12"
14265,commdev-image-keyboard-response,688,1414648,learnblock2,481.5,img/planet2_right.png,2,Community 2,NA,TRUE,j,j,NA,NA,NA,4,6,"7,6,1,11,8,4,13,15,3,2,9,5,14,10,12"
14265,commdev-image-keyboard-response,689,1415900,learnblock2,693.1000000014901,img/planet3_right.png,3,Community 2,NA,TRUE,j,j,NA,NA,NA,4,6,"7,6,1,11,8,4,13,15,3,2,9,5,14,10,12"
14265,commdev-image-keyboard-response,690,1417152,learnblock2,451.19999999552965,img/planet2_left.png,2,Community 2,NA,TRUE,f,f,NA,NA,NA,4,6,"7,6,1,11,8,4,13,15,3,2,9,5,14,10,12"
14265,commdev-image-keyboard-response,691,1418403,learnblock2,443.70000000298023,img/planet4_right.png,4,Community 2,NA,TRUE,j,j,NA,NA,NA,4,6,"7,6,1,11,8,4,13,15,3,2,9,5,14,10,12"
14265,commdev-image-keyboard-response,692,1419655,learnblock2,360.29999999701977,img/planet3_right.png,3,Community 2,NA,FALSE,f,j,NA,NA,NA,4,6,"7,6,1,11,8,4,13,15,3,2,9,5,14,10,12"
14265,commdev-image-keyboard-response,693,1420906,learnblock2,664.6999999955297,img/planet4_right.png,4,Community 2,NA,FALSE,f,j,NA,NA,NA,4,6,"7,6,1,11,8,4,13,15,3,2,9,5,14,10,12"
14265,commdev-image-keyboard-response,694,1422157,learnblock2,482.59999999403954,img/planet13_right.png,13,Community 2,NA,TRUE,j,j,NA,NA,NA,4,6,"7,6,1,11,8,4,13,15,3,2,9,5,14,10,12"
14265,commdev-image-keyboard-response,695,1423408,learnblock2,490.30000000447035,img/planet3_right.png,3,Community 2,NA,TRUE,j,j,NA,NA,NA,4,6,"7,6,1,11,8,4,13,15,3,2,9,5,14,10,12"
14265,commdev-image-keyboard-response,696,1424660,learnblock2,609.6000000014901,img/planet15_left.png,15,Community 2,NA,TRUE,f,f,NA,NA,NA,4,6,"7,6,1,11,8,4,13,15,3,2,9,5,14,10,12"
14265,commdev-image-keyboard-response,697,1425911,learnblock2,601.6999999955297,img/planet13_left.png,13,Community 2,NA,TRUE,f,f,NA,NA,NA,4,6,"7,6,1,11,8,4,13,15,3,2,9,5,14,10,12"
14265,commdev-image-keyboard-response,698,1427162,learnblock2,527.7000000029802,img/planet2_left.png,2,Community 2,NA,TRUE,f,f,NA,NA,NA,4,6,"7,6,1,11,8,4,13,15,3,2,9,5,14,10,12"
14265,commdev-image-keyboard-response,699,1428413,learnblock2,670.9000000059605,img/planet13_right.png,13,Community 2,NA,TRUE,j,j,NA,NA,NA,4,6,"7,6,1,11,8,4,13,15,3,2,9,5,14,10,12"
14265,commdev-image-keyboard-response,700,1429664,learnblock2,603.7999999970198,img/planet2_right.png,2,Community 2,NA,TRUE,j,j,NA,NA,NA,4,6,"7,6,1,11,8,4,13,15,3,2,9,5,14,10,12"
14265,commdev-image-keyboard-response,701,1430916,learnblock2,603.7000000029802,img/planet4_left.png,4,Community 2,NA,TRUE,f,f,NA,NA,NA,4,6,"7,6,1,11,8,4,13,15,3,2,9,5,14,10,12"
14265,commdev-image-keyboard-response,702,1432167,learnblock2,562.5,img/planet2_left.png,2,Community 2,NA,TRUE,f,f,NA,NA,NA,4,6,"7,6,1,11,8,4,13,15,3,2,9,5,14,10,12"
14265,commdev-image-keyboard-response,703,1433420,learnblock2,570.7000000029802,img/planet4_right.png,4,Community 2,NA,TRUE,j,j,NA,NA,NA,4,6,"7,6,1,11,8,4,13,15,3,2,9,5,14,10,12"
14265,commdev-image-keyboard-response,704,1434681,learnblock2,813.5,img/planet13_left.png,13,Community 2,NA,TRUE,f,f,NA,NA,NA,4,6,"7,6,1,11,8,4,13,15,3,2,9,5,14,10,12"
14265,commdev-image-keyboard-response,705,1435932,learnblock2,1005.8000000044703,img/planet3_right.png,3,Community 2,NA,TRUE,j,j,NA,NA,NA,4,6,"7,6,1,11,8,4,13,15,3,2,9,5,14,10,12"
14265,commdev-image-keyboard-response,706,1437183,learnblock2,738.0999999940395,img/planet2_right.png,2,Community 2,NA,TRUE,j,j,NA,NA,NA,4,6,"7,6,1,11,8,4,13,15,3,2,9,5,14,10,12"
14265,commdev-image-keyboard-response,707,1438435,learnblock2,638.8999999985099,img/planet13_right.png,13,Community 2,NA,TRUE,j,j,NA,NA,NA,4,6,"7,6,1,11,8,4,13,15,3,2,9,5,14,10,12"
14265,commdev-image-keyboard-response,708,1439686,learnblock2,588.3999999985099,img/planet4_right.png,4,Community 2,NA,TRUE,j,j,NA,NA,NA,4,6,"7,6,1,11,8,4,13,15,3,2,9,5,14,10,12"
14265,commdev-image-keyboard-response,709,1440937,learnblock2,673.3000000044703,img/planet11_right.png,11,Community 1,NA,TRUE,j,j,NA,NA,NA,4,6,"7,6,1,11,8,4,13,15,3,2,9,5,14,10,12"
14265,commdev-image-keyboard-response,710,1442188,learnblock2,598.6000000014901,img/planet6_left.png,6,Community 1,NA,FALSE,j,f,NA,NA,NA,4,6,"7,6,1,11,8,4,13,15,3,2,9,5,14,10,12"
14265,commdev-image-keyboard-response,711,1443440,learnblock2,690.8999999985099,img/planet1_right.png,1,Community 1,NA,TRUE,j,j,NA,NA,NA,4,6,"7,6,1,11,8,4,13,15,3,2,9,5,14,10,12"
14265,commdev-image-keyboard-response,712,1444692,learnblock2,656.7999999970198,img/planet11_left.png,11,Community 1,NA,TRUE,f,f,NA,NA,NA,4,6,"7,6,1,11,8,4,13,15,3,2,9,5,14,10,12"
14265,commdev-image-keyboard-response,713,1445943,learnblock2,539.3000000044703,img/planet1_right.png,1,Community 1,NA,TRUE,j,j,NA,NA,NA,4,6,"7,6,1,11,8,4,13,15,3,2,9,5,14,10,12"
14265,commdev-image-keyboard-response,714,1447202,learnblock2,573.8999999985099,img/planet8_left.png,8,Community 1,NA,TRUE,f,f,NA,NA,NA,4,6,"7,6,1,11,8,4,13,15,3,2,9,5,14,10,12"
14265,commdev-image-keyboard-response,715,1448454,learnblock2,735.9000000059605,img/planet1_left.png,1,Community 1,NA,TRUE,f,f,NA,NA,NA,4,6,"7,6,1,11,8,4,13,15,3,2,9,5,14,10,12"
14265,commdev-image-keyboard-response,716,1449705,learnblock2,693.2000000029802,img/planet6_left.png,6,Community 1,NA,TRUE,f,f,NA,NA,NA,4,6,"7,6,1,11,8,4,13,15,3,2,9,5,14,10,12"
14265,commdev-image-keyboard-response,717,1450957,learnblock2,609.6000000014901,img/planet7_right.png,7,Community 1,NA,FALSE,f,j,NA,NA,NA,4,6,"7,6,1,11,8,4,13,15,3,2,9,5,14,10,12"
14265,commdev-image-keyboard-response,718,1452208,learnblock2,821.6000000014901,img/planet6_left.png,6,Community 1,NA,TRUE,f,f,NA,NA,NA,4,6,"7,6,1,11,8,4,13,15,3,2,9,5,14,10,12"
14265,commdev-image-keyboard-response,719,1453460,learnblock2,603,img/planet1_left.png,1,Community 1,NA,TRUE,f,f,NA,NA,NA,4,6,"7,6,1,11,8,4,13,15,3,2,9,5,14,10,12"
14265,commdev-image-keyboard-response,720,1454712,learnblock2,502.6000000014901,img/planet11_left.png,11,Community 1,NA,TRUE,f,f,NA,NA,NA,4,6,"7,6,1,11,8,4,13,15,3,2,9,5,14,10,12"
14265,commdev-image-keyboard-response,721,1455963,learnblock2,554.1000000014901,img/planet7_left.png,7,Community 1,NA,TRUE,f,f,NA,NA,NA,4,6,"7,6,1,11,8,4,13,15,3,2,9,5,14,10,12"
14265,commdev-image-keyboard-response,722,1457215,learnblock2,487.79999999701977,img/planet1_right.png,1,Community 1,NA,FALSE,f,j,NA,NA,NA,4,6,"7,6,1,11,8,4,13,15,3,2,9,5,14,10,12"
14265,commdev-image-keyboard-response,723,1458466,learnblock2,732.6999999955297,img/planet6_right.png,6,Community 1,NA,TRUE,j,j,NA,NA,NA,4,6,"7,6,1,11,8,4,13,15,3,2,9,5,14,10,12"
14265,commdev-image-keyboard-response,724,1459717,learnblock2,691.1000000014901,img/planet7_left.png,7,Community 1,NA,TRUE,f,f,NA,NA,NA,4,6,"7,6,1,11,8,4,13,15,3,2,9,5,14,10,12"
14265,commdev-image-keyboard-response,725,1460968,learnblock2,516.1999999955297,img/planet8_left.png,8,Community 1,NA,FALSE,j,f,NA,NA,NA,4,6,"7,6,1,11,8,4,13,15,3,2,9,5,14,10,12"
14265,commdev-image-keyboard-response,726,1462220,learnblock2,635.2000000029802,img/planet9_right.png,9,Community 3,NA,TRUE,j,j,NA,NA,NA,4,6,"7,6,1,11,8,4,13,15,3,2,9,5,14,10,12"
14265,commdev-image-keyboard-response,727,1463471,learnblock2,812,img/planet14_left.png,14,Community 3,NA,TRUE,f,f,NA,NA,NA,4,6,"7,6,1,11,8,4,13,15,3,2,9,5,14,10,12"
14265,commdev-image-keyboard-response,728,1464722,learnblock2,764,img/planet10_right.png,10,Community 3,NA,TRUE,j,j,NA,NA,NA,4,6,"7,6,1,11,8,4,13,15,3,2,9,5,14,10,12"
14265,commdev-image-keyboard-response,729,1465973,learnblock2,655,img/planet9_right.png,9,Community 3,NA,TRUE,j,j,NA,NA,NA,4,6,"7,6,1,11,8,4,13,15,3,2,9,5,14,10,12"
14265,commdev-image-keyboard-response,730,1467224,learnblock2,825.1999999955297,img/planet14_right.png,14,Community 3,NA,TRUE,j,j,NA,NA,NA,4,6,"7,6,1,11,8,4,13,15,3,2,9,5,14,10,12"
14265,commdev-image-keyboard-response,731,1468475,learnblock2,548.8999999985099,img/planet10_left.png,10,Community 3,NA,TRUE,f,f,NA,NA,NA,4,6,"7,6,1,11,8,4,13,15,3,2,9,5,14,10,12"
14265,commdev-image-keyboard-response,732,1469727,learnblock2,566.5,img/planet5_left.png,5,Community 3,NA,TRUE,f,f,NA,NA,NA,4,6,"7,6,1,11,8,4,13,15,3,2,9,5,14,10,12"
14265,commdev-image-keyboard-response,733,1470978,learnblock2,574.8999999985099,img/planet15_left.png,15,Community 2,NA,TRUE,f,f,NA,NA,NA,4,6,"7,6,1,11,8,4,13,15,3,2,9,5,14,10,12"
14265,commdev-image-keyboard-response,734,1472230,learnblock2,508.6000000014901,img/planet13_left.png,13,Community 2,NA,TRUE,f,f,NA,NA,NA,4,6,"7,6,1,11,8,4,13,15,3,2,9,5,14,10,12"
14265,commdev-image-keyboard-response,735,1473481,learnblock2,509.8999999985099,img/planet3_left.png,3,Community 2,NA,TRUE,f,f,NA,NA,NA,4,6,"7,6,1,11,8,4,13,15,3,2,9,5,14,10,12"
14265,commdev-image-keyboard-response,736,1474733,learnblock2,619.3999999985099,img/planet2_right.png,2,Community 2,NA,TRUE,j,j,NA,NA,NA,4,6,"7,6,1,11,8,4,13,15,3,2,9,5,14,10,12"
14265,commdev-image-keyboard-response,737,1475984,learnblock2,612.0999999940395,img/planet4_left.png,4,Community 2,NA,TRUE,f,f,NA,NA,NA,4,6,"7,6,1,11,8,4,13,15,3,2,9,5,14,10,12"
14265,commdev-image-keyboard-response,738,1477235,learnblock2,712.7999999970198,img/planet13_left.png,13,Community 2,NA,TRUE,f,f,NA,NA,NA,4,6,"7,6,1,11,8,4,13,15,3,2,9,5,14,10,12"
14265,commdev-image-keyboard-response,739,1478486,learnblock2,402.8999999985099,img/planet15_right.png,15,Community 2,NA,TRUE,j,j,NA,NA,NA,4,6,"7,6,1,11,8,4,13,15,3,2,9,5,14,10,12"
14265,commdev-image-keyboard-response,740,1479737,learnblock2,658.2000000029802,img/planet3_right.png,3,Community 2,NA,TRUE,j,j,NA,NA,NA,4,6,"7,6,1,11,8,4,13,15,3,2,9,5,14,10,12"
14265,commdev-image-keyboard-response,741,1480988,learnblock2,623.7999999970198,img/planet2_left.png,2,Community 2,NA,TRUE,f,f,NA,NA,NA,4,6,"7,6,1,11,8,4,13,15,3,2,9,5,14,10,12"
14265,commdev-image-keyboard-response,742,1482240,learnblock2,473.79999999701977,img/planet15_right.png,15,Community 2,NA,TRUE,j,j,NA,NA,NA,4,6,"7,6,1,11,8,4,13,15,3,2,9,5,14,10,12"
14265,commdev-image-keyboard-response,743,1483491,learnblock2,633.2000000029802,img/planet3_right.png,3,Community 2,NA,TRUE,j,j,NA,NA,NA,4,6,"7,6,1,11,8,4,13,15,3,2,9,5,14,10,12"
14265,commdev-image-keyboard-response,744,1484742,learnblock2,508.69999999552965,img/planet13_right.png,13,Community 2,NA,TRUE,j,j,NA,NA,NA,4,6,"7,6,1,11,8,4,13,15,3,2,9,5,14,10,12"
14265,commdev-image-keyboard-response,745,1485994,learnblock2,568.2999999970198,img/planet4_right.png,4,Community 2,NA,TRUE,j,j,NA,NA,NA,4,6,"7,6,1,11,8,4,13,15,3,2,9,5,14,10,12"
14265,commdev-image-keyboard-response,746,1487245,learnblock2,652.9000000059605,img/planet3_left.png,3,Community 2,NA,TRUE,f,f,NA,NA,NA,4,6,"7,6,1,11,8,4,13,15,3,2,9,5,14,10,12"
14265,commdev-image-keyboard-response,747,1488497,learnblock2,510.3999999985099,img/planet2_right.png,2,Community 2,NA,TRUE,j,j,NA,NA,NA,4,6,"7,6,1,11,8,4,13,15,3,2,9,5,14,10,12"
14265,commdev-image-keyboard-response,748,1489750,learnblock2,503.70000000298023,img/planet4_left.png,4,Community 2,NA,TRUE,f,f,NA,NA,NA,4,6,"7,6,1,11,8,4,13,15,3,2,9,5,14,10,12"
