subject_id,trial_type,trial_index,time_elapsed,block,rt,stimulus,planet,community,response,correct,key_press,learning_correct_response,parse,init_locations,final_locations,browser_interactions,num_comp,planet_map
14614,commdev-instructions,7,68748,NA,1672,"<p>In this game, you will be shown a 3x3 grid of patterns.</p> <p>The last one in the bottom right-hand corner, <strong>will be missing:</strong></p> <div style='width: 700px;'><div style='float: top;'><img style='width: 200px;' src='practice/p1_M1.png'></img><p class='small'>You need to select<strong> which of the four possible patterns </strong>along the bottom<strong> fits into the gap:</strong></p></div><div style='float: top;'><img style='width: 300px;' src='practice/p1_T1.png'></img></div><br>",NA,NA,NA,NA,NA,NA,NA,NA,NA,3,6,"12,6,4,13,15,10,1,8,3,2,14,5,11,7,9"
14614,commdev-instructions,8,89176,NA,2023.199999988079,"<p>Try to be as fast and as accurate as you can be.</p> <p>If you cannot solve the puzzle then you should guess - you will not be penalised for an incorrect answer.</p> <p>The task contains a shuffled mix of easy, medium and hard puzzles.</p> <p>You will have <strong>30 seconds</strong> to complete each puzzle.</p><br>",NA,NA,NA,NA,NA,NA,NA,NA,NA,3,6,"12,6,4,13,15,10,1,8,3,2,14,5,11,7,9"
14614,commdev-instructions,15,119963,NA,1513.0999999940395,<p><strong>Success!</strong></p> <p>You seem to be getting the hang of this...</p> <p>Let's move on to the real trials.</p><br>,NA,NA,NA,NA,NA,NA,NA,NA,NA,3,6,"12,6,4,13,15,10,1,8,3,2,14,5,11,7,9"
14614,commdev-instructions,73,615617,NA,3429.300000011921,"<p>In this game, you are a scientist on board a space shuttle. </p><p> On each mission, you will visit planets all across the universe.</p><img src=""img/controlroom.jpg"" width=300vw>",NA,NA,NA,NA,NA,NA,NA,NA,NA,3,6,"12,6,4,13,15,10,1,8,3,2,14,5,11,7,9"
14614,commdev-instructions,74,619918,NA,2231.0999999940395,"<p>Here are a few planets you might see:</p><img src=""img/practice1.png"" width=200vw><img src=""img/practice2.png"" width=200vw><img src=""img/practice3.png"" width=200vw>",NA,NA,NA,NA,NA,NA,NA,NA,NA,3,6,"12,6,4,13,15,10,1,8,3,2,14,5,11,7,9"
14614,commdev-instructions,75,629500,NA,2172.5,"<p>Your job as a scientist is to record which direction the winds are moving on each planet.</p><p>There are two types of wind directions:</p><img src=""img/practice1_left.png"" width=200vw><img src=""img/practice1_right.png"" width=200vw>",NA,NA,NA,NA,NA,NA,NA,NA,NA,3,6,"12,6,4,13,15,10,1,8,3,2,14,5,11,7,9"
14614,commdev-instructions,76,636112,NA,1724.5,"<p>If the winds are moving this way, press the letter <strong>F</strong> on the keyboard as fast as you can.</p><img src=""img/leftwind.png"" width=250vw>",NA,NA,NA,NA,NA,NA,NA,NA,NA,3,6,"12,6,4,13,15,10,1,8,3,2,14,5,11,7,9"
14614,commdev-instructions,77,642199,NA,1572.199999988079,"<p>If the winds are moving this way, press the letter <strong>J</strong> on the keyboard as fast as you can.</p><img src=""img/rightwind.png"" width=350vw>",NA,NA,NA,NA,NA,NA,NA,NA,NA,3,6,"12,6,4,13,15,10,1,8,3,2,14,5,11,7,9"
14614,commdev-instructions,78,648579,NA,1952.699999988079,<p>You will have 1 second to respond. Try to respond before the time runs out!,NA,NA,NA,NA,NA,NA,NA,NA,NA,3,6,"12,6,4,13,15,10,1,8,3,2,14,5,11,7,9"
14614,commdev-instructions,79,654829,NA,811.7000000178814,<p>The planets you will visit will look different from each other.</p><p>You should respond <strong>only</strong> based on wind direction.,NA,NA,NA,NA,NA,NA,NA,NA,NA,3,6,"12,6,4,13,15,10,1,8,3,2,14,5,11,7,9"
14614,commdev-instructions,80,662547,NA,2538.899999976158,"<p> Ready to start the practice round? </p><p> Remember, press <strong>F</strong> or <strong>J</strong> depending on the wind direction.<br><img src=""img/categorize_planet_example.png""",NA,NA,NA,NA,NA,NA,NA,NA,NA,3,6,"12,6,4,13,15,10,1,8,3,2,14,5,11,7,9"
14614,commdev-instructions,92,717450,NA,1020.0999999940395,"<p>Great, now try a short practice mission. </p><p> This time, you will have 1 second to respond and you won't know whether you pressed the right or wrong key for each planet.</p>",NA,NA,NA,NA,NA,NA,NA,NA,NA,3,6,"12,6,4,13,15,10,1,8,3,2,14,5,11,7,9"
14614,commdev-image-keyboard-response,93,718818,practice,774.3000000119209,img/practice1_right.png,NA,Number not found in mappings,NA,TRUE,j,j,NA,NA,NA,3,6,"12,6,4,13,15,10,1,8,3,2,14,5,11,7,9"
14614,commdev-image-keyboard-response,94,720076,practice,766.5,img/practice4_left.png,NA,Number not found in mappings,NA,TRUE,f,f,NA,NA,NA,3,6,"12,6,4,13,15,10,1,8,3,2,14,5,11,7,9"
14614,commdev-image-keyboard-response,95,721332,practice,654.5,img/practice2_right.png,NA,Number not found in mappings,NA,TRUE,j,j,NA,NA,NA,3,6,"12,6,4,13,15,10,1,8,3,2,14,5,11,7,9"
14614,commdev-image-keyboard-response,96,722599,practice,709,img/practice3_left.png,NA,Number not found in mappings,NA,TRUE,f,f,NA,NA,NA,3,6,"12,6,4,13,15,10,1,8,3,2,14,5,11,7,9"
14614,commdev-image-keyboard-response,97,723854,practice,709.9000000059605,img/practice2_left.png,NA,Number not found in mappings,NA,TRUE,f,f,NA,NA,NA,3,6,"12,6,4,13,15,10,1,8,3,2,14,5,11,7,9"
14614,commdev-image-keyboard-response,98,725116,practice,644.4000000059605,img/practice3_left.png,NA,Number not found in mappings,NA,TRUE,f,f,NA,NA,NA,3,6,"12,6,4,13,15,10,1,8,3,2,14,5,11,7,9"
14614,commdev-image-keyboard-response,99,726378,practice,582,img/practice1_left.png,NA,Number not found in mappings,NA,TRUE,f,f,NA,NA,NA,3,6,"12,6,4,13,15,10,1,8,3,2,14,5,11,7,9"
14614,commdev-image-keyboard-response,100,727645,practice,585,img/practice3_right.png,NA,Number not found in mappings,NA,TRUE,j,j,NA,NA,NA,3,6,"12,6,4,13,15,10,1,8,3,2,14,5,11,7,9"
14614,commdev-instructions,101,738770,NA,1570.0999999940395,"<p>Great job with the practice round.</p><p>During real missions, you won't know whether you pressed the right or wrong key for each planet.</p><p>But between missions, we will tell you how you did overall.</p>",NA,NA,NA,NA,NA,NA,NA,NA,NA,3,6,"12,6,4,13,15,10,1,8,3,2,14,5,11,7,9"
14614,commdev-instructions,102,748204,NA,1184.300000011921,<p>Try your best! You will be paid a bonus based on how many correct responses you make!</p><p>Responses that are too slow will not count toward your bonus.</p>,NA,NA,NA,NA,NA,NA,NA,NA,NA,3,6,"12,6,4,13,15,10,1,8,3,2,14,5,11,7,9"
14614,commdev-instructions,103,755140,NA,730,"<p>You are almost ready to start the real game.</p><p> First, we are going to ask you some questions about how the game works.</p>",NA,NA,NA,NA,NA,NA,NA,NA,NA,3,6,"12,6,4,13,15,10,1,8,3,2,14,5,11,7,9"
14614,commdev-instructions,112,838840,NA,2012.5,"<p> Nice work! It is now time to start the real game.<p></p>You will go on two missions to record wind directions of different planets.<p></p>Each one will take about 5 minutes. You will get to take a break between missions.<p><p> Remember, press <strong>F</strong> or <strong>J</strong> depending on the wind direction. Good luck!<br><img src=""img/categorize_planet_example.png""",NA,NA,NA,NA,NA,NA,NA,NA,NA,3,6,"12,6,4,13,15,10,1,8,3,2,14,5,11,7,9"
14614,commdev-image-keyboard-response,114,842955,learnblock1,1030.0999999940395,img/planet15_left.png,15,Community 1,NA,TRUE,f,f,NA,NA,NA,3,6,"12,6,4,13,15,10,1,8,3,2,14,5,11,7,9"
14614,commdev-image-keyboard-response,115,844212,learnblock1,703.3000000119209,img/planet4_left.png,4,Community 1,NA,TRUE,f,f,NA,NA,NA,3,6,"12,6,4,13,15,10,1,8,3,2,14,5,11,7,9"
14614,commdev-image-keyboard-response,116,845479,learnblock1,675.1000000238419,img/planet13_left.png,13,Community 1,NA,TRUE,f,f,NA,NA,NA,3,6,"12,6,4,13,15,10,1,8,3,2,14,5,11,7,9"
14614,commdev-image-keyboard-response,117,846741,learnblock1,693.4000000059605,img/planet12_left.png,12,Community 1,NA,TRUE,f,f,NA,NA,NA,3,6,"12,6,4,13,15,10,1,8,3,2,14,5,11,7,9"
14614,commdev-image-keyboard-response,118,848008,learnblock1,777.2999999821186,img/planet4_left.png,4,Community 1,NA,TRUE,f,f,NA,NA,NA,3,6,"12,6,4,13,15,10,1,8,3,2,14,5,11,7,9"
14614,commdev-image-keyboard-response,119,849264,learnblock1,673.5999999940395,img/planet6_left.png,6,Community 1,NA,TRUE,f,f,NA,NA,NA,3,6,"12,6,4,13,15,10,1,8,3,2,14,5,11,7,9"
14614,commdev-image-keyboard-response,120,850518,learnblock1,674.7999999821186,img/planet4_left.png,4,Community 1,NA,TRUE,f,f,NA,NA,NA,3,6,"12,6,4,13,15,10,1,8,3,2,14,5,11,7,9"
14614,commdev-image-keyboard-response,121,851777,learnblock1,836.1999999880791,img/planet6_right.png,6,Community 1,NA,TRUE,j,j,NA,NA,NA,3,6,"12,6,4,13,15,10,1,8,3,2,14,5,11,7,9"
14614,commdev-image-keyboard-response,122,853043,learnblock1,1187.300000011921,img/planet13_left.png,13,Community 1,NA,TRUE,f,f,NA,NA,NA,3,6,"12,6,4,13,15,10,1,8,3,2,14,5,11,7,9"
14614,commdev-image-keyboard-response,123,854304,learnblock1,787.3999999761581,img/planet12_left.png,12,Community 1,NA,TRUE,f,f,NA,NA,NA,3,6,"12,6,4,13,15,10,1,8,3,2,14,5,11,7,9"
14614,commdev-image-keyboard-response,124,855563,learnblock1,713.4000000059605,img/planet13_right.png,13,Community 1,NA,TRUE,j,j,NA,NA,NA,3,6,"12,6,4,13,15,10,1,8,3,2,14,5,11,7,9"
14614,commdev-image-keyboard-response,125,856827,learnblock1,591.8000000119209,img/planet4_right.png,4,Community 1,NA,TRUE,j,j,NA,NA,NA,3,6,"12,6,4,13,15,10,1,8,3,2,14,5,11,7,9"
14614,commdev-image-keyboard-response,126,858081,learnblock1,684,img/planet15_left.png,15,Community 1,NA,TRUE,f,f,NA,NA,NA,3,6,"12,6,4,13,15,10,1,8,3,2,14,5,11,7,9"
14614,commdev-image-keyboard-response,127,859346,learnblock1,608.0999999940395,img/planet12_right.png,12,Community 1,NA,TRUE,j,j,NA,NA,NA,3,6,"12,6,4,13,15,10,1,8,3,2,14,5,11,7,9"
14614,commdev-image-keyboard-response,128,860605,learnblock1,645.6999999880791,img/planet13_right.png,13,Community 1,NA,TRUE,j,j,NA,NA,NA,3,6,"12,6,4,13,15,10,1,8,3,2,14,5,11,7,9"
14614,commdev-image-keyboard-response,129,861863,learnblock1,673,img/planet6_right.png,6,Community 1,NA,TRUE,j,j,NA,NA,NA,3,6,"12,6,4,13,15,10,1,8,3,2,14,5,11,7,9"
14614,commdev-image-keyboard-response,130,863116,learnblock1,715.4000000059605,img/planet15_left.png,15,Community 1,NA,TRUE,f,f,NA,NA,NA,3,6,"12,6,4,13,15,10,1,8,3,2,14,5,11,7,9"
14614,commdev-image-keyboard-response,131,864378,learnblock1,654.2000000178814,img/planet12_left.png,12,Community 1,NA,TRUE,f,f,NA,NA,NA,3,6,"12,6,4,13,15,10,1,8,3,2,14,5,11,7,9"
14614,commdev-image-keyboard-response,132,865646,learnblock1,573.5999999940395,img/planet6_right.png,6,Community 1,NA,TRUE,j,j,NA,NA,NA,3,6,"12,6,4,13,15,10,1,8,3,2,14,5,11,7,9"
14614,commdev-image-keyboard-response,133,866901,learnblock1,633.5,img/planet13_left.png,13,Community 1,NA,TRUE,f,f,NA,NA,NA,3,6,"12,6,4,13,15,10,1,8,3,2,14,5,11,7,9"
14614,commdev-image-keyboard-response,134,868161,learnblock1,556.1999999880791,img/planet12_right.png,12,Community 1,NA,TRUE,j,j,NA,NA,NA,3,6,"12,6,4,13,15,10,1,8,3,2,14,5,11,7,9"
14614,commdev-image-keyboard-response,135,869427,learnblock1,705.9000000059605,img/planet15_right.png,15,Community 1,NA,TRUE,j,j,NA,NA,NA,3,6,"12,6,4,13,15,10,1,8,3,2,14,5,11,7,9"
14614,commdev-image-keyboard-response,136,870683,learnblock1,784.7999999821186,img/planet14_right.png,14,Community 3,NA,TRUE,j,j,NA,NA,NA,3,6,"12,6,4,13,15,10,1,8,3,2,14,5,11,7,9"
14614,commdev-image-keyboard-response,137,871941,learnblock1,746.2999999821186,img/planet7_right.png,7,Community 3,NA,TRUE,j,j,NA,NA,NA,3,6,"12,6,4,13,15,10,1,8,3,2,14,5,11,7,9"
14614,commdev-image-keyboard-response,138,873201,learnblock1,573.3000000119209,img/planet9_left.png,9,Community 3,NA,TRUE,f,f,NA,NA,NA,3,6,"12,6,4,13,15,10,1,8,3,2,14,5,11,7,9"
14614,commdev-image-keyboard-response,139,874457,learnblock1,595.9000000059605,img/planet5_left.png,5,Community 3,NA,TRUE,f,f,NA,NA,NA,3,6,"12,6,4,13,15,10,1,8,3,2,14,5,11,7,9"
14614,commdev-image-keyboard-response,140,875721,learnblock1,619.1000000238419,img/planet7_right.png,7,Community 3,NA,TRUE,j,j,NA,NA,NA,3,6,"12,6,4,13,15,10,1,8,3,2,14,5,11,7,9"
14614,commdev-image-keyboard-response,141,876986,learnblock1,533.4000000059605,img/planet5_right.png,5,Community 3,NA,TRUE,j,j,NA,NA,NA,3,6,"12,6,4,13,15,10,1,8,3,2,14,5,11,7,9"
14614,commdev-image-keyboard-response,142,878249,learnblock1,911.9000000059605,img/planet11_right.png,11,Community 3,NA,TRUE,j,j,NA,NA,NA,3,6,"12,6,4,13,15,10,1,8,3,2,14,5,11,7,9"
14614,commdev-image-keyboard-response,143,879505,learnblock1,637.4000000059605,img/planet9_left.png,9,Community 3,NA,TRUE,f,f,NA,NA,NA,3,6,"12,6,4,13,15,10,1,8,3,2,14,5,11,7,9"
14614,commdev-image-keyboard-response,144,880772,learnblock1,967.8000000119209,img/planet11_right.png,11,Community 3,NA,TRUE,j,j,NA,NA,NA,3,6,"12,6,4,13,15,10,1,8,3,2,14,5,11,7,9"
14614,commdev-image-keyboard-response,145,882028,learnblock1,599.1999999880791,img/planet5_left.png,5,Community 3,NA,TRUE,f,f,NA,NA,NA,3,6,"12,6,4,13,15,10,1,8,3,2,14,5,11,7,9"
14614,commdev-image-keyboard-response,146,883284,learnblock1,733.4000000059605,img/planet8_right.png,8,Community 2,NA,TRUE,j,j,NA,NA,NA,3,6,"12,6,4,13,15,10,1,8,3,2,14,5,11,7,9"
14614,commdev-image-keyboard-response,147,884537,learnblock1,542.0999999940395,img/planet5_left.png,5,Community 3,NA,TRUE,f,f,NA,NA,NA,3,6,"12,6,4,13,15,10,1,8,3,2,14,5,11,7,9"
14614,commdev-image-keyboard-response,148,885796,learnblock1,648.6999999880791,img/planet8_right.png,8,Community 2,NA,TRUE,j,j,NA,NA,NA,3,6,"12,6,4,13,15,10,1,8,3,2,14,5,11,7,9"
14614,commdev-image-keyboard-response,149,887054,learnblock1,620.5,img/planet1_right.png,1,Community 2,NA,FALSE,f,j,NA,NA,NA,3,6,"12,6,4,13,15,10,1,8,3,2,14,5,11,7,9"
14614,commdev-image-keyboard-response,150,888313,learnblock1,779.0999999940395,img/planet10_left.png,10,Community 2,NA,TRUE,f,f,NA,NA,NA,3,6,"12,6,4,13,15,10,1,8,3,2,14,5,11,7,9"
14614,commdev-image-keyboard-response,151,889575,learnblock1,729.4000000059605,img/planet2_left.png,2,Community 2,NA,TRUE,f,f,NA,NA,NA,3,6,"12,6,4,13,15,10,1,8,3,2,14,5,11,7,9"
14614,commdev-image-keyboard-response,152,890829,learnblock1,584.3999999761581,img/planet8_right.png,8,Community 2,NA,TRUE,j,j,NA,NA,NA,3,6,"12,6,4,13,15,10,1,8,3,2,14,5,11,7,9"
14614,commdev-image-keyboard-response,153,892084,learnblock1,632.5,img/planet3_left.png,3,Community 2,NA,TRUE,f,f,NA,NA,NA,3,6,"12,6,4,13,15,10,1,8,3,2,14,5,11,7,9"
14614,commdev-image-keyboard-response,154,893344,learnblock1,624.5999999940395,img/planet10_right.png,10,Community 2,NA,TRUE,j,j,NA,NA,NA,3,6,"12,6,4,13,15,10,1,8,3,2,14,5,11,7,9"
14614,commdev-image-keyboard-response,155,894603,learnblock1,556.8000000119209,img/planet2_left.png,2,Community 2,NA,TRUE,f,f,NA,NA,NA,3,6,"12,6,4,13,15,10,1,8,3,2,14,5,11,7,9"
14614,commdev-image-keyboard-response,156,895860,learnblock1,742.6999999880791,img/planet3_left.png,3,Community 2,NA,TRUE,f,f,NA,NA,NA,3,6,"12,6,4,13,15,10,1,8,3,2,14,5,11,7,9"
14614,commdev-image-keyboard-response,157,897121,learnblock1,640.0999999940395,img/planet1_left.png,1,Community 2,NA,TRUE,f,f,NA,NA,NA,3,6,"12,6,4,13,15,10,1,8,3,2,14,5,11,7,9"
14614,commdev-image-keyboard-response,158,898382,learnblock1,579.8000000119209,img/planet2_left.png,2,Community 2,NA,TRUE,f,f,NA,NA,NA,3,6,"12,6,4,13,15,10,1,8,3,2,14,5,11,7,9"
14614,commdev-image-keyboard-response,159,899640,learnblock1,518.6999999880791,img/planet1_right.png,1,Community 2,NA,TRUE,j,j,NA,NA,NA,3,6,"12,6,4,13,15,10,1,8,3,2,14,5,11,7,9"
14614,commdev-image-keyboard-response,160,900899,learnblock1,559.4000000059605,img/planet10_left.png,10,Community 2,NA,TRUE,f,f,NA,NA,NA,3,6,"12,6,4,13,15,10,1,8,3,2,14,5,11,7,9"
14614,commdev-image-keyboard-response,161,902153,learnblock1,755.1999999880791,img/planet3_left.png,3,Community 2,NA,TRUE,f,f,NA,NA,NA,3,6,"12,6,4,13,15,10,1,8,3,2,14,5,11,7,9"
14614,commdev-image-keyboard-response,162,903413,learnblock1,588.3999999761581,img/planet1_left.png,1,Community 2,NA,TRUE,f,f,NA,NA,NA,3,6,"12,6,4,13,15,10,1,8,3,2,14,5,11,7,9"
14614,commdev-image-keyboard-response,163,904667,learnblock1,532.5999999940395,img/planet10_left.png,10,Community 2,NA,TRUE,f,f,NA,NA,NA,3,6,"12,6,4,13,15,10,1,8,3,2,14,5,11,7,9"
14614,commdev-image-keyboard-response,164,905932,learnblock1,496.09999999403954,img/planet1_right.png,1,Community 2,NA,TRUE,j,j,NA,NA,NA,3,6,"12,6,4,13,15,10,1,8,3,2,14,5,11,7,9"
14614,commdev-image-keyboard-response,165,907190,learnblock1,474.80000001192093,img/planet10_right.png,10,Community 2,NA,TRUE,j,j,NA,NA,NA,3,6,"12,6,4,13,15,10,1,8,3,2,14,5,11,7,9"
14614,commdev-image-keyboard-response,166,908447,learnblock1,626,img/planet3_left.png,3,Community 2,NA,TRUE,f,f,NA,NA,NA,3,6,"12,6,4,13,15,10,1,8,3,2,14,5,11,7,9"
14614,commdev-image-keyboard-response,167,909705,learnblock1,487.90000000596046,img/planet10_right.png,10,Community 2,NA,TRUE,j,j,NA,NA,NA,3,6,"12,6,4,13,15,10,1,8,3,2,14,5,11,7,9"
14614,commdev-image-keyboard-response,168,910960,learnblock1,604.9000000059605,img/planet13_right.png,13,Community 1,NA,TRUE,j,j,NA,NA,NA,3,6,"12,6,4,13,15,10,1,8,3,2,14,5,11,7,9"
14614,commdev-image-keyboard-response,169,912216,learnblock1,571.3000000119209,img/planet10_right.png,10,Community 2,NA,TRUE,j,j,NA,NA,NA,3,6,"12,6,4,13,15,10,1,8,3,2,14,5,11,7,9"
14614,commdev-image-keyboard-response,170,913482,learnblock1,514.2000000178814,img/planet1_left.png,1,Community 2,NA,TRUE,f,f,NA,NA,NA,3,6,"12,6,4,13,15,10,1,8,3,2,14,5,11,7,9"
14614,commdev-image-keyboard-response,171,914739,learnblock1,692.4000000059605,img/planet3_right.png,3,Community 2,NA,TRUE,j,j,NA,NA,NA,3,6,"12,6,4,13,15,10,1,8,3,2,14,5,11,7,9"
14614,commdev-image-keyboard-response,172,915998,learnblock1,652.1999999880791,img/planet1_right.png,1,Community 2,NA,TRUE,j,j,NA,NA,NA,3,6,"12,6,4,13,15,10,1,8,3,2,14,5,11,7,9"
14614,commdev-image-keyboard-response,173,917253,learnblock1,841.0999999940395,img/planet3_right.png,3,Community 2,NA,TRUE,j,j,NA,NA,NA,3,6,"12,6,4,13,15,10,1,8,3,2,14,5,11,7,9"
14614,commdev-image-keyboard-response,174,918507,learnblock1,889.5,img/planet8_right.png,8,Community 2,NA,TRUE,j,j,NA,NA,NA,3,6,"12,6,4,13,15,10,1,8,3,2,14,5,11,7,9"
14614,commdev-image-keyboard-response,175,919760,learnblock1,668.2000000178814,img/planet3_right.png,3,Community 2,NA,TRUE,j,j,NA,NA,NA,3,6,"12,6,4,13,15,10,1,8,3,2,14,5,11,7,9"
14614,commdev-image-keyboard-response,176,921016,learnblock1,618.0999999940395,img/planet10_left.png,10,Community 2,NA,TRUE,f,f,NA,NA,NA,3,6,"12,6,4,13,15,10,1,8,3,2,14,5,11,7,9"
14614,commdev-image-keyboard-response,177,922275,learnblock1,796.3000000119209,img/planet13_right.png,13,Community 1,NA,TRUE,j,j,NA,NA,NA,3,6,"12,6,4,13,15,10,1,8,3,2,14,5,11,7,9"
14614,commdev-image-keyboard-response,178,923536,learnblock1,755.4000000059605,img/planet10_right.png,10,Community 2,NA,TRUE,j,j,NA,NA,NA,3,6,"12,6,4,13,15,10,1,8,3,2,14,5,11,7,9"
14614,commdev-image-keyboard-response,179,924789,learnblock1,584.8000000119209,img/planet3_left.png,3,Community 2,NA,TRUE,f,f,NA,NA,NA,3,6,"12,6,4,13,15,10,1,8,3,2,14,5,11,7,9"
14614,commdev-image-keyboard-response,180,926043,learnblock1,602.5,img/planet10_left.png,10,Community 2,NA,TRUE,f,f,NA,NA,NA,3,6,"12,6,4,13,15,10,1,8,3,2,14,5,11,7,9"
14614,commdev-image-keyboard-response,181,927302,learnblock1,583.5,img/planet1_left.png,1,Community 2,NA,TRUE,f,f,NA,NA,NA,3,6,"12,6,4,13,15,10,1,8,3,2,14,5,11,7,9"
14614,commdev-image-keyboard-response,182,928564,learnblock1,644.3000000119209,img/planet3_right.png,3,Community 2,NA,TRUE,j,j,NA,NA,NA,3,6,"12,6,4,13,15,10,1,8,3,2,14,5,11,7,9"
14614,commdev-image-keyboard-response,183,929817,learnblock1,751.1999999880791,img/planet8_right.png,8,Community 2,NA,TRUE,j,j,NA,NA,NA,3,6,"12,6,4,13,15,10,1,8,3,2,14,5,11,7,9"
14614,commdev-image-keyboard-response,184,931072,learnblock1,609.1000000238419,img/planet2_left.png,2,Community 2,NA,TRUE,f,f,NA,NA,NA,3,6,"12,6,4,13,15,10,1,8,3,2,14,5,11,7,9"
14614,commdev-image-keyboard-response,185,932329,learnblock1,558.0999999940395,img/planet10_left.png,10,Community 2,NA,TRUE,f,f,NA,NA,NA,3,6,"12,6,4,13,15,10,1,8,3,2,14,5,11,7,9"
14614,commdev-image-keyboard-response,186,933590,learnblock1,627.2000000178814,img/planet13_right.png,13,Community 1,NA,TRUE,j,j,NA,NA,NA,3,6,"12,6,4,13,15,10,1,8,3,2,14,5,11,7,9"
14614,commdev-image-keyboard-response,187,934856,learnblock1,631.5999999940395,img/planet4_left.png,4,Community 1,NA,TRUE,f,f,NA,NA,NA,3,6,"12,6,4,13,15,10,1,8,3,2,14,5,11,7,9"
14614,commdev-image-keyboard-response,188,936112,learnblock1,686.2999999821186,img/planet13_left.png,13,Community 1,NA,TRUE,f,f,NA,NA,NA,3,6,"12,6,4,13,15,10,1,8,3,2,14,5,11,7,9"
14614,commdev-image-keyboard-response,189,937367,learnblock1,583.0999999940395,img/planet10_right.png,10,Community 2,NA,TRUE,j,j,NA,NA,NA,3,6,"12,6,4,13,15,10,1,8,3,2,14,5,11,7,9"
14614,commdev-image-keyboard-response,190,938627,learnblock1,849.4000000059605,img/planet3_left.png,3,Community 2,NA,TRUE,f,f,NA,NA,NA,3,6,"12,6,4,13,15,10,1,8,3,2,14,5,11,7,9"
14614,commdev-image-keyboard-response,191,939884,learnblock1,584.0999999940395,img/planet2_right.png,2,Community 2,NA,TRUE,j,j,NA,NA,NA,3,6,"12,6,4,13,15,10,1,8,3,2,14,5,11,7,9"
14614,commdev-image-keyboard-response,192,941142,learnblock1,622.9000000059605,img/planet1_right.png,1,Community 2,NA,TRUE,j,j,NA,NA,NA,3,6,"12,6,4,13,15,10,1,8,3,2,14,5,11,7,9"
14614,commdev-image-keyboard-response,193,942398,learnblock1,515.2000000178814,img/planet10_right.png,10,Community 2,NA,TRUE,j,j,NA,NA,NA,3,6,"12,6,4,13,15,10,1,8,3,2,14,5,11,7,9"
14614,commdev-image-keyboard-response,194,943659,learnblock1,623.4000000059605,img/planet13_left.png,13,Community 1,NA,TRUE,f,f,NA,NA,NA,3,6,"12,6,4,13,15,10,1,8,3,2,14,5,11,7,9"
14614,commdev-image-keyboard-response,195,944916,learnblock1,1068.4000000059605,img/planet10_right.png,10,Community 2,NA,TRUE,j,j,NA,NA,NA,3,6,"12,6,4,13,15,10,1,8,3,2,14,5,11,7,9"
14614,commdev-image-keyboard-response,196,946178,learnblock1,622.7000000178814,img/planet3_left.png,3,Community 2,NA,TRUE,f,f,NA,NA,NA,3,6,"12,6,4,13,15,10,1,8,3,2,14,5,11,7,9"
14614,commdev-image-keyboard-response,197,947438,learnblock1,701.6999999880791,img/planet10_left.png,10,Community 2,NA,TRUE,f,f,NA,NA,NA,3,6,"12,6,4,13,15,10,1,8,3,2,14,5,11,7,9"
14614,commdev-image-keyboard-response,198,948692,learnblock1,636.1999999880791,img/planet1_right.png,1,Community 2,NA,TRUE,j,j,NA,NA,NA,3,6,"12,6,4,13,15,10,1,8,3,2,14,5,11,7,9"
14614,commdev-image-keyboard-response,199,949949,learnblock1,549.5999999940395,img/planet2_left.png,2,Community 2,NA,TRUE,f,f,NA,NA,NA,3,6,"12,6,4,13,15,10,1,8,3,2,14,5,11,7,9"
14614,commdev-image-keyboard-response,200,951210,learnblock1,510.30000001192093,img/planet10_left.png,10,Community 2,NA,TRUE,f,f,NA,NA,NA,3,6,"12,6,4,13,15,10,1,8,3,2,14,5,11,7,9"
14614,commdev-image-keyboard-response,201,952466,learnblock1,582.6000000238419,img/planet2_right.png,2,Community 2,NA,TRUE,j,j,NA,NA,NA,3,6,"12,6,4,13,15,10,1,8,3,2,14,5,11,7,9"
14614,commdev-image-keyboard-response,202,953726,learnblock1,545.2999999821186,img/planet8_left.png,8,Community 2,NA,TRUE,f,f,NA,NA,NA,3,6,"12,6,4,13,15,10,1,8,3,2,14,5,11,7,9"
14614,commdev-image-keyboard-response,203,954980,learnblock1,550.5,img/planet2_right.png,2,Community 2,NA,TRUE,j,j,NA,NA,NA,3,6,"12,6,4,13,15,10,1,8,3,2,14,5,11,7,9"
14614,commdev-image-keyboard-response,204,956238,learnblock1,748.0999999940395,img/planet3_right.png,3,Community 2,NA,TRUE,j,j,NA,NA,NA,3,6,"12,6,4,13,15,10,1,8,3,2,14,5,11,7,9"
14614,commdev-image-keyboard-response,205,957491,learnblock1,565.6000000238419,img/planet2_left.png,2,Community 2,NA,TRUE,f,f,NA,NA,NA,3,6,"12,6,4,13,15,10,1,8,3,2,14,5,11,7,9"
14614,commdev-image-keyboard-response,206,958746,learnblock1,919.0999999940395,img/planet3_left.png,3,Community 2,NA,TRUE,f,f,NA,NA,NA,3,6,"12,6,4,13,15,10,1,8,3,2,14,5,11,7,9"
14614,commdev-image-keyboard-response,207,960003,learnblock1,681.5999999940395,img/planet2_right.png,2,Community 2,NA,TRUE,j,j,NA,NA,NA,3,6,"12,6,4,13,15,10,1,8,3,2,14,5,11,7,9"
14614,commdev-image-keyboard-response,208,961262,learnblock1,null,img/planet8_right.png,8,Community 2,NA,FALSE,null,j,NA,NA,NA,3,6,"12,6,4,13,15,10,1,8,3,2,14,5,11,7,9"
14614,commdev-image-keyboard-response,209,962520,learnblock1,40.20000001788139,img/planet5_right.png,5,Community 3,NA,TRUE,j,j,NA,NA,NA,3,6,"12,6,4,13,15,10,1,8,3,2,14,5,11,7,9"
14614,commdev-image-keyboard-response,210,963779,learnblock1,845.1999999880791,img/planet8_right.png,8,Community 2,NA,TRUE,j,j,NA,NA,NA,3,6,"12,6,4,13,15,10,1,8,3,2,14,5,11,7,9"
14614,commdev-image-keyboard-response,211,965036,learnblock1,652.7999999821186,img/planet5_right.png,5,Community 3,NA,TRUE,j,j,NA,NA,NA,3,6,"12,6,4,13,15,10,1,8,3,2,14,5,11,7,9"
14614,commdev-image-keyboard-response,212,966296,learnblock1,594.5,img/planet9_right.png,9,Community 3,NA,TRUE,j,j,NA,NA,NA,3,6,"12,6,4,13,15,10,1,8,3,2,14,5,11,7,9"
14614,commdev-image-keyboard-response,213,967555,learnblock1,723.4000000059605,img/planet14_right.png,14,Community 3,NA,TRUE,j,j,NA,NA,NA,3,6,"12,6,4,13,15,10,1,8,3,2,14,5,11,7,9"
14614,commdev-image-keyboard-response,214,968812,learnblock1,702,img/planet7_right.png,7,Community 3,NA,TRUE,j,j,NA,NA,NA,3,6,"12,6,4,13,15,10,1,8,3,2,14,5,11,7,9"
14614,commdev-image-keyboard-response,215,970065,learnblock1,934.1999999880791,img/planet11_right.png,11,Community 3,NA,TRUE,j,j,NA,NA,NA,3,6,"12,6,4,13,15,10,1,8,3,2,14,5,11,7,9"
14614,commdev-image-keyboard-response,216,971325,learnblock1,739.7000000178814,img/planet5_left.png,5,Community 3,NA,TRUE,f,f,NA,NA,NA,3,6,"12,6,4,13,15,10,1,8,3,2,14,5,11,7,9"
14614,commdev-image-keyboard-response,217,972580,learnblock1,607,img/planet7_right.png,7,Community 3,NA,TRUE,j,j,NA,NA,NA,3,6,"12,6,4,13,15,10,1,8,3,2,14,5,11,7,9"
14614,commdev-image-keyboard-response,218,973839,learnblock1,660.8000000119209,img/planet5_right.png,5,Community 3,NA,TRUE,j,j,NA,NA,NA,3,6,"12,6,4,13,15,10,1,8,3,2,14,5,11,7,9"
14614,commdev-image-keyboard-response,219,975092,learnblock1,869.9000000059605,img/planet11_right.png,11,Community 3,NA,TRUE,j,j,NA,NA,NA,3,6,"12,6,4,13,15,10,1,8,3,2,14,5,11,7,9"
14614,commdev-image-keyboard-response,220,976344,learnblock1,728.6999999880791,img/planet7_left.png,7,Community 3,NA,TRUE,f,f,NA,NA,NA,3,6,"12,6,4,13,15,10,1,8,3,2,14,5,11,7,9"
14614,commdev-image-keyboard-response,221,977597,learnblock1,949.5999999940395,img/planet14_left.png,14,Community 3,NA,TRUE,f,f,NA,NA,NA,3,6,"12,6,4,13,15,10,1,8,3,2,14,5,11,7,9"
14614,commdev-image-keyboard-response,222,978866,learnblock1,710.6000000238419,img/planet9_right.png,9,Community 3,NA,TRUE,j,j,NA,NA,NA,3,6,"12,6,4,13,15,10,1,8,3,2,14,5,11,7,9"
14614,commdev-image-keyboard-response,223,980133,learnblock1,1137.4000000059605,img/planet14_right.png,14,Community 3,NA,TRUE,j,j,NA,NA,NA,3,6,"12,6,4,13,15,10,1,8,3,2,14,5,11,7,9"
14614,commdev-image-keyboard-response,224,981390,learnblock1,954,img/planet15_right.png,15,Community 1,NA,TRUE,j,j,NA,NA,NA,3,6,"12,6,4,13,15,10,1,8,3,2,14,5,11,7,9"
14614,commdev-image-keyboard-response,225,982646,learnblock1,641.1999999880791,img/planet6_right.png,6,Community 1,NA,TRUE,j,j,NA,NA,NA,3,6,"12,6,4,13,15,10,1,8,3,2,14,5,11,7,9"
14614,commdev-image-keyboard-response,226,983899,learnblock1,696.7000000178814,img/planet15_left.png,15,Community 1,NA,TRUE,f,f,NA,NA,NA,3,6,"12,6,4,13,15,10,1,8,3,2,14,5,11,7,9"
14614,commdev-image-keyboard-response,227,985162,learnblock1,617.8000000119209,img/planet14_right.png,14,Community 3,NA,TRUE,j,j,NA,NA,NA,3,6,"12,6,4,13,15,10,1,8,3,2,14,5,11,7,9"
14614,commdev-image-keyboard-response,228,986414,learnblock1,690.5999999940395,img/planet11_left.png,11,Community 3,NA,TRUE,f,f,NA,NA,NA,3,6,"12,6,4,13,15,10,1,8,3,2,14,5,11,7,9"
14614,commdev-image-keyboard-response,229,987670,learnblock1,656.1000000238419,img/planet14_right.png,14,Community 3,NA,TRUE,j,j,NA,NA,NA,3,6,"12,6,4,13,15,10,1,8,3,2,14,5,11,7,9"
14614,commdev-image-keyboard-response,230,988924,learnblock1,617.4000000059605,img/planet7_left.png,7,Community 3,NA,TRUE,f,f,NA,NA,NA,3,6,"12,6,4,13,15,10,1,8,3,2,14,5,11,7,9"
14614,commdev-image-keyboard-response,231,990181,learnblock1,670.1999999880791,img/planet5_left.png,5,Community 3,NA,TRUE,f,f,NA,NA,NA,3,6,"12,6,4,13,15,10,1,8,3,2,14,5,11,7,9"
14614,commdev-image-keyboard-response,232,991439,learnblock1,657.8000000119209,img/planet9_left.png,9,Community 3,NA,TRUE,f,f,NA,NA,NA,3,6,"12,6,4,13,15,10,1,8,3,2,14,5,11,7,9"
14614,commdev-image-keyboard-response,233,992703,learnblock1,776.6999999880791,img/planet14_left.png,14,Community 3,NA,TRUE,f,f,NA,NA,NA,3,6,"12,6,4,13,15,10,1,8,3,2,14,5,11,7,9"
14614,commdev-image-keyboard-response,234,993957,learnblock1,631.9000000059605,img/planet9_left.png,9,Community 3,NA,TRUE,f,f,NA,NA,NA,3,6,"12,6,4,13,15,10,1,8,3,2,14,5,11,7,9"
14614,commdev-image-keyboard-response,235,995219,learnblock1,680.2999999821186,img/planet14_right.png,14,Community 3,NA,TRUE,j,j,NA,NA,NA,3,6,"12,6,4,13,15,10,1,8,3,2,14,5,11,7,9"
14614,commdev-image-keyboard-response,236,996478,learnblock1,756.4000000059605,img/planet11_left.png,11,Community 3,NA,TRUE,f,f,NA,NA,NA,3,6,"12,6,4,13,15,10,1,8,3,2,14,5,11,7,9"
14614,commdev-image-keyboard-response,237,997731,learnblock1,582.8000000119209,img/planet14_left.png,14,Community 3,NA,TRUE,f,f,NA,NA,NA,3,6,"12,6,4,13,15,10,1,8,3,2,14,5,11,7,9"
14614,commdev-image-keyboard-response,238,998985,learnblock1,599.4000000059605,img/planet9_right.png,9,Community 3,NA,TRUE,j,j,NA,NA,NA,3,6,"12,6,4,13,15,10,1,8,3,2,14,5,11,7,9"
14614,commdev-image-keyboard-response,239,1000245,learnblock1,767,img/planet11_left.png,11,Community 3,NA,TRUE,f,f,NA,NA,NA,3,6,"12,6,4,13,15,10,1,8,3,2,14,5,11,7,9"
14614,commdev-image-keyboard-response,240,1001504,learnblock1,586.1999999880791,img/planet5_left.png,5,Community 3,NA,TRUE,f,f,NA,NA,NA,3,6,"12,6,4,13,15,10,1,8,3,2,14,5,11,7,9"
14614,commdev-image-keyboard-response,241,1002759,learnblock1,654.5999999940395,img/planet7_left.png,7,Community 3,NA,TRUE,f,f,NA,NA,NA,3,6,"12,6,4,13,15,10,1,8,3,2,14,5,11,7,9"
14614,commdev-image-keyboard-response,242,1004017,learnblock1,611.5,img/planet11_left.png,11,Community 3,NA,TRUE,f,f,NA,NA,NA,3,6,"12,6,4,13,15,10,1,8,3,2,14,5,11,7,9"
14614,commdev-image-keyboard-response,243,1005272,learnblock1,572.9000000059605,img/planet9_left.png,9,Community 3,NA,TRUE,f,f,NA,NA,NA,3,6,"12,6,4,13,15,10,1,8,3,2,14,5,11,7,9"
14614,commdev-image-keyboard-response,244,1006529,learnblock1,546.5999999940395,img/planet5_right.png,5,Community 3,NA,TRUE,j,j,NA,NA,NA,3,6,"12,6,4,13,15,10,1,8,3,2,14,5,11,7,9"
14614,commdev-image-keyboard-response,245,1007783,learnblock1,609.8000000119209,img/planet9_right.png,9,Community 3,NA,TRUE,j,j,NA,NA,NA,3,6,"12,6,4,13,15,10,1,8,3,2,14,5,11,7,9"
14614,commdev-image-keyboard-response,246,1009036,learnblock1,708.2999999821186,img/planet14_right.png,14,Community 3,NA,TRUE,j,j,NA,NA,NA,3,6,"12,6,4,13,15,10,1,8,3,2,14,5,11,7,9"
14614,commdev-image-keyboard-response,247,1010295,learnblock1,598.4000000059605,img/planet7_right.png,7,Community 3,NA,TRUE,j,j,NA,NA,NA,3,6,"12,6,4,13,15,10,1,8,3,2,14,5,11,7,9"
14614,commdev-image-keyboard-response,248,1011553,learnblock1,534.0999999940395,img/planet14_left.png,14,Community 3,NA,TRUE,f,f,NA,NA,NA,3,6,"12,6,4,13,15,10,1,8,3,2,14,5,11,7,9"
14614,commdev-image-keyboard-response,249,1012814,learnblock1,589.4000000059605,img/planet7_left.png,7,Community 3,NA,TRUE,f,f,NA,NA,NA,3,6,"12,6,4,13,15,10,1,8,3,2,14,5,11,7,9"
14614,commdev-image-keyboard-response,250,1014068,learnblock1,479,img/planet9_right.png,9,Community 3,NA,TRUE,j,j,NA,NA,NA,3,6,"12,6,4,13,15,10,1,8,3,2,14,5,11,7,9"
14614,commdev-image-keyboard-response,251,1015331,learnblock1,612,img/planet14_right.png,14,Community 3,NA,TRUE,j,j,NA,NA,NA,3,6,"12,6,4,13,15,10,1,8,3,2,14,5,11,7,9"
14614,commdev-image-keyboard-response,252,1016589,learnblock1,557.2999999821186,img/planet9_left.png,9,Community 3,NA,TRUE,f,f,NA,NA,NA,3,6,"12,6,4,13,15,10,1,8,3,2,14,5,11,7,9"
14614,commdev-image-keyboard-response,253,1017844,learnblock1,644.8000000119209,img/planet11_left.png,11,Community 3,NA,TRUE,f,f,NA,NA,NA,3,6,"12,6,4,13,15,10,1,8,3,2,14,5,11,7,9"
14614,commdev-image-keyboard-response,254,1019099,learnblock1,490.59999999403954,img/planet5_right.png,5,Community 3,NA,TRUE,j,j,NA,NA,NA,3,6,"12,6,4,13,15,10,1,8,3,2,14,5,11,7,9"
14614,commdev-image-keyboard-response,255,1020356,learnblock1,562.2000000178814,img/planet8_right.png,8,Community 2,NA,TRUE,j,j,NA,NA,NA,3,6,"12,6,4,13,15,10,1,8,3,2,14,5,11,7,9"
14614,commdev-image-keyboard-response,256,1021614,learnblock1,546.7000000178814,img/planet1_left.png,1,Community 2,NA,TRUE,f,f,NA,NA,NA,3,6,"12,6,4,13,15,10,1,8,3,2,14,5,11,7,9"
14614,commdev-image-keyboard-response,257,1022876,learnblock1,437.10000002384186,img/planet8_right.png,8,Community 2,NA,TRUE,j,j,NA,NA,NA,3,6,"12,6,4,13,15,10,1,8,3,2,14,5,11,7,9"
14614,commdev-image-keyboard-response,258,1024136,learnblock1,449.90000000596046,img/planet2_right.png,2,Community 2,NA,FALSE,f,j,NA,NA,NA,3,6,"12,6,4,13,15,10,1,8,3,2,14,5,11,7,9"
14614,commdev-image-keyboard-response,259,1025394,learnblock1,627.2000000178814,img/planet3_left.png,3,Community 2,NA,TRUE,f,f,NA,NA,NA,3,6,"12,6,4,13,15,10,1,8,3,2,14,5,11,7,9"
14614,commdev-image-keyboard-response,260,1026651,learnblock1,521.4000000059605,img/planet8_right.png,8,Community 2,NA,TRUE,j,j,NA,NA,NA,3,6,"12,6,4,13,15,10,1,8,3,2,14,5,11,7,9"
14614,commdev-image-keyboard-response,261,1027903,learnblock1,549.5999999940395,img/planet1_left.png,1,Community 2,NA,TRUE,f,f,NA,NA,NA,3,6,"12,6,4,13,15,10,1,8,3,2,14,5,11,7,9"
14614,commdev-image-keyboard-response,262,1029171,learnblock1,575.4000000059605,img/planet10_left.png,10,Community 2,NA,TRUE,f,f,NA,NA,NA,3,6,"12,6,4,13,15,10,1,8,3,2,14,5,11,7,9"
14614,commdev-image-keyboard-response,263,1030431,learnblock1,974.5999999940395,img/planet1_left.png,1,Community 2,NA,TRUE,f,f,NA,NA,NA,3,6,"12,6,4,13,15,10,1,8,3,2,14,5,11,7,9"
14614,commdev-image-keyboard-response,264,1031683,learnblock1,618.0999999940395,img/planet8_left.png,8,Community 2,NA,TRUE,f,f,NA,NA,NA,3,6,"12,6,4,13,15,10,1,8,3,2,14,5,11,7,9"
14614,commdev-image-keyboard-response,265,1032938,learnblock1,625.2999999821186,img/planet5_right.png,5,Community 3,NA,TRUE,j,j,NA,NA,NA,3,6,"12,6,4,13,15,10,1,8,3,2,14,5,11,7,9"
14614,commdev-image-keyboard-response,266,1034201,learnblock1,750.2000000178814,img/planet8_left.png,8,Community 2,NA,TRUE,f,f,NA,NA,NA,3,6,"12,6,4,13,15,10,1,8,3,2,14,5,11,7,9"
14614,commdev-image-keyboard-response,267,1035460,learnblock1,645.5,img/planet1_left.png,1,Community 2,NA,TRUE,f,f,NA,NA,NA,3,6,"12,6,4,13,15,10,1,8,3,2,14,5,11,7,9"
14614,commdev-image-keyboard-response,268,1036715,learnblock1,767.5,img/planet3_left.png,3,Community 2,NA,TRUE,f,f,NA,NA,NA,3,6,"12,6,4,13,15,10,1,8,3,2,14,5,11,7,9"
14614,commdev-image-keyboard-response,269,1037970,learnblock1,503.19999998807907,img/planet2_left.png,2,Community 2,NA,TRUE,f,f,NA,NA,NA,3,6,"12,6,4,13,15,10,1,8,3,2,14,5,11,7,9"
14614,commdev-image-keyboard-response,270,1039222,learnblock1,644.9000000059605,img/planet3_right.png,3,Community 2,NA,TRUE,j,j,NA,NA,NA,3,6,"12,6,4,13,15,10,1,8,3,2,14,5,11,7,9"
14614,commdev-image-keyboard-response,271,1040487,learnblock1,613.5,img/planet8_right.png,8,Community 2,NA,TRUE,j,j,NA,NA,NA,3,6,"12,6,4,13,15,10,1,8,3,2,14,5,11,7,9"
14614,commdev-image-keyboard-response,272,1041741,learnblock1,540.7000000178814,img/planet5_right.png,5,Community 3,NA,TRUE,j,j,NA,NA,NA,3,6,"12,6,4,13,15,10,1,8,3,2,14,5,11,7,9"
14614,commdev-image-keyboard-response,273,1042996,learnblock1,601.2000000178814,img/planet8_right.png,8,Community 2,NA,TRUE,j,j,NA,NA,NA,3,6,"12,6,4,13,15,10,1,8,3,2,14,5,11,7,9"
14614,commdev-image-keyboard-response,274,1044253,learnblock1,569.5999999940395,img/planet3_right.png,3,Community 2,NA,TRUE,j,j,NA,NA,NA,3,6,"12,6,4,13,15,10,1,8,3,2,14,5,11,7,9"
14614,commdev-image-keyboard-response,275,1045506,learnblock1,536.8000000119209,img/planet1_right.png,1,Community 2,NA,TRUE,j,j,NA,NA,NA,3,6,"12,6,4,13,15,10,1,8,3,2,14,5,11,7,9"
14614,commdev-image-keyboard-response,276,1046759,learnblock1,521.4000000059605,img/planet2_left.png,2,Community 2,NA,FALSE,j,f,NA,NA,NA,3,6,"12,6,4,13,15,10,1,8,3,2,14,5,11,7,9"
14614,commdev-image-keyboard-response,277,1048015,learnblock1,null,img/planet8_right.png,8,Community 2,NA,FALSE,null,j,NA,NA,NA,3,6,"12,6,4,13,15,10,1,8,3,2,14,5,11,7,9"
14614,commdev-image-keyboard-response,278,1049271,learnblock1,6.699999988079071,img/planet2_left.png,2,Community 2,NA,FALSE,j,f,NA,NA,NA,3,6,"12,6,4,13,15,10,1,8,3,2,14,5,11,7,9"
14614,commdev-image-keyboard-response,279,1050526,learnblock1,628.3000000119209,img/planet1_right.png,1,Community 2,NA,TRUE,j,j,NA,NA,NA,3,6,"12,6,4,13,15,10,1,8,3,2,14,5,11,7,9"
14614,commdev-image-keyboard-response,280,1051780,learnblock1,639.5,img/planet2_right.png,2,Community 2,NA,TRUE,j,j,NA,NA,NA,3,6,"12,6,4,13,15,10,1,8,3,2,14,5,11,7,9"
14614,commdev-image-keyboard-response,281,1053036,learnblock1,669.9000000059605,img/planet8_right.png,8,Community 2,NA,TRUE,j,j,NA,NA,NA,3,6,"12,6,4,13,15,10,1,8,3,2,14,5,11,7,9"
14614,commdev-image-keyboard-response,282,1054291,learnblock1,761.1999999880791,img/planet3_right.png,3,Community 2,NA,TRUE,j,j,NA,NA,NA,3,6,"12,6,4,13,15,10,1,8,3,2,14,5,11,7,9"
14614,commdev-image-keyboard-response,283,1055548,learnblock1,576.0999999940395,img/planet10_right.png,10,Community 2,NA,TRUE,j,j,NA,NA,NA,3,6,"12,6,4,13,15,10,1,8,3,2,14,5,11,7,9"
14614,commdev-image-keyboard-response,284,1056803,learnblock1,687.5,img/planet3_left.png,3,Community 2,NA,TRUE,f,f,NA,NA,NA,3,6,"12,6,4,13,15,10,1,8,3,2,14,5,11,7,9"
14614,commdev-image-keyboard-response,285,1058055,learnblock1,687.3000000119209,img/planet10_right.png,10,Community 2,NA,TRUE,j,j,NA,NA,NA,3,6,"12,6,4,13,15,10,1,8,3,2,14,5,11,7,9"
14614,commdev-image-keyboard-response,286,1059313,learnblock1,532.7000000178814,img/planet2_left.png,2,Community 2,NA,FALSE,j,f,NA,NA,NA,3,6,"12,6,4,13,15,10,1,8,3,2,14,5,11,7,9"
14614,commdev-image-keyboard-response,287,1060573,learnblock1,784.1999999880791,img/planet1_left.png,1,Community 2,NA,TRUE,f,f,NA,NA,NA,3,6,"12,6,4,13,15,10,1,8,3,2,14,5,11,7,9"
14614,commdev-image-keyboard-response,288,1061829,learnblock1,556.7000000178814,img/planet2_left.png,2,Community 2,NA,TRUE,f,f,NA,NA,NA,3,6,"12,6,4,13,15,10,1,8,3,2,14,5,11,7,9"
14614,commdev-image-keyboard-response,289,1063097,learnblock1,665.7999999821186,img/planet8_left.png,8,Community 2,NA,TRUE,f,f,NA,NA,NA,3,6,"12,6,4,13,15,10,1,8,3,2,14,5,11,7,9"
14614,commdev-image-keyboard-response,290,1064351,learnblock1,582.5999999940395,img/planet5_right.png,5,Community 3,NA,TRUE,j,j,NA,NA,NA,3,6,"12,6,4,13,15,10,1,8,3,2,14,5,11,7,9"
14614,commdev-image-keyboard-response,291,1065617,learnblock1,677.3000000119209,img/planet8_right.png,8,Community 2,NA,TRUE,j,j,NA,NA,NA,3,6,"12,6,4,13,15,10,1,8,3,2,14,5,11,7,9"
14614,commdev-image-keyboard-response,292,1066872,learnblock1,532.3000000119209,img/planet2_right.png,2,Community 2,NA,TRUE,j,j,NA,NA,NA,3,6,"12,6,4,13,15,10,1,8,3,2,14,5,11,7,9"
14614,commdev-image-keyboard-response,293,1068137,learnblock1,541.2000000178814,img/planet10_left.png,10,Community 2,NA,TRUE,f,f,NA,NA,NA,3,6,"12,6,4,13,15,10,1,8,3,2,14,5,11,7,9"
14614,commdev-image-keyboard-response,294,1069397,learnblock1,573.3000000119209,img/planet1_left.png,1,Community 2,NA,TRUE,f,f,NA,NA,NA,3,6,"12,6,4,13,15,10,1,8,3,2,14,5,11,7,9"
14614,commdev-image-keyboard-response,295,1070658,learnblock1,530.0999999940395,img/planet2_right.png,2,Community 2,NA,TRUE,j,j,NA,NA,NA,3,6,"12,6,4,13,15,10,1,8,3,2,14,5,11,7,9"
14614,commdev-image-keyboard-response,296,1071910,learnblock1,592.7000000178814,img/planet3_left.png,3,Community 2,NA,TRUE,f,f,NA,NA,NA,3,6,"12,6,4,13,15,10,1,8,3,2,14,5,11,7,9"
14614,commdev-image-keyboard-response,297,1073167,learnblock1,628.3999999761581,img/planet1_left.png,1,Community 2,NA,TRUE,f,f,NA,NA,NA,3,6,"12,6,4,13,15,10,1,8,3,2,14,5,11,7,9"
14614,commdev-image-keyboard-response,298,1074419,learnblock1,682.4000000059605,img/planet3_left.png,3,Community 2,NA,TRUE,f,f,NA,NA,NA,3,6,"12,6,4,13,15,10,1,8,3,2,14,5,11,7,9"
14614,commdev-image-keyboard-response,299,1075681,learnblock1,677.7000000178814,img/planet8_left.png,8,Community 2,NA,TRUE,f,f,NA,NA,NA,3,6,"12,6,4,13,15,10,1,8,3,2,14,5,11,7,9"
14614,commdev-image-keyboard-response,300,1076935,learnblock1,611,img/planet2_right.png,2,Community 2,NA,TRUE,j,j,NA,NA,NA,3,6,"12,6,4,13,15,10,1,8,3,2,14,5,11,7,9"
14614,commdev-image-keyboard-response,301,1078187,learnblock1,534.9000000059605,img/planet8_left.png,8,Community 2,NA,TRUE,f,f,NA,NA,NA,3,6,"12,6,4,13,15,10,1,8,3,2,14,5,11,7,9"
14614,commdev-image-keyboard-response,302,1079452,learnblock1,531,img/planet3_right.png,3,Community 2,NA,TRUE,j,j,NA,NA,NA,3,6,"12,6,4,13,15,10,1,8,3,2,14,5,11,7,9"
14614,commdev-image-keyboard-response,303,1080705,learnblock1,557.5,img/planet1_left.png,1,Community 2,NA,TRUE,f,f,NA,NA,NA,3,6,"12,6,4,13,15,10,1,8,3,2,14,5,11,7,9"
14614,commdev-image-keyboard-response,304,1081969,learnblock1,662,img/planet8_left.png,8,Community 2,NA,TRUE,f,f,NA,NA,NA,3,6,"12,6,4,13,15,10,1,8,3,2,14,5,11,7,9"
14614,commdev-image-keyboard-response,305,1083223,learnblock1,747.9000000059605,img/planet3_left.png,3,Community 2,NA,TRUE,f,f,NA,NA,NA,3,6,"12,6,4,13,15,10,1,8,3,2,14,5,11,7,9"
14614,commdev-image-keyboard-response,306,1084483,learnblock1,591.5,img/planet10_right.png,10,Community 2,NA,TRUE,j,j,NA,NA,NA,3,6,"12,6,4,13,15,10,1,8,3,2,14,5,11,7,9"
14614,commdev-image-keyboard-response,307,1085748,learnblock1,440.09999999403954,img/planet2_right.png,2,Community 2,NA,TRUE,j,j,NA,NA,NA,3,6,"12,6,4,13,15,10,1,8,3,2,14,5,11,7,9"
14614,commdev-image-keyboard-response,308,1087004,learnblock1,535,img/planet1_right.png,1,Community 2,NA,TRUE,j,j,NA,NA,NA,3,6,"12,6,4,13,15,10,1,8,3,2,14,5,11,7,9"
14614,commdev-image-keyboard-response,309,1088262,learnblock1,689,img/planet10_left.png,10,Community 2,NA,TRUE,f,f,NA,NA,NA,3,6,"12,6,4,13,15,10,1,8,3,2,14,5,11,7,9"
14614,commdev-image-keyboard-response,310,1089522,learnblock1,583.0999999940395,img/planet2_left.png,2,Community 2,NA,TRUE,f,f,NA,NA,NA,3,6,"12,6,4,13,15,10,1,8,3,2,14,5,11,7,9"
14614,commdev-image-keyboard-response,311,1090780,learnblock1,793.1999999880791,img/planet8_right.png,8,Community 2,NA,TRUE,j,j,NA,NA,NA,3,6,"12,6,4,13,15,10,1,8,3,2,14,5,11,7,9"
14614,commdev-image-keyboard-response,312,1092037,learnblock1,547.3000000119209,img/planet2_right.png,2,Community 2,NA,TRUE,j,j,NA,NA,NA,3,6,"12,6,4,13,15,10,1,8,3,2,14,5,11,7,9"
14614,commdev-image-keyboard-response,313,1093292,learnblock1,604.5,img/planet1_left.png,1,Community 2,NA,TRUE,f,f,NA,NA,NA,3,6,"12,6,4,13,15,10,1,8,3,2,14,5,11,7,9"
14614,commdev-image-keyboard-response,314,1094571,learnblock1,657.9000000059605,img/planet2_right.png,2,Community 2,NA,TRUE,j,j,NA,NA,NA,3,6,"12,6,4,13,15,10,1,8,3,2,14,5,11,7,9"
14614,commdev-image-keyboard-response,315,1095830,learnblock1,606.5,img/planet10_right.png,10,Community 2,NA,TRUE,j,j,NA,NA,NA,3,6,"12,6,4,13,15,10,1,8,3,2,14,5,11,7,9"
14614,commdev-image-keyboard-response,316,1097086,learnblock1,597.9000000059605,img/planet2_right.png,2,Community 2,NA,TRUE,j,j,NA,NA,NA,3,6,"12,6,4,13,15,10,1,8,3,2,14,5,11,7,9"
14614,commdev-image-keyboard-response,317,1098343,learnblock1,629.8999999761581,img/planet1_left.png,1,Community 2,NA,FALSE,j,f,NA,NA,NA,3,6,"12,6,4,13,15,10,1,8,3,2,14,5,11,7,9"
14614,commdev-image-keyboard-response,318,1099603,learnblock1,762.9000000059605,img/planet10_left.png,10,Community 2,NA,TRUE,f,f,NA,NA,NA,3,6,"12,6,4,13,15,10,1,8,3,2,14,5,11,7,9"
14614,commdev-image-keyboard-response,319,1100864,learnblock1,632.7000000178814,img/planet3_left.png,3,Community 2,NA,TRUE,f,f,NA,NA,NA,3,6,"12,6,4,13,15,10,1,8,3,2,14,5,11,7,9"
14614,commdev-image-keyboard-response,320,1102120,learnblock1,702,img/planet2_left.png,2,Community 2,NA,TRUE,f,f,NA,NA,NA,3,6,"12,6,4,13,15,10,1,8,3,2,14,5,11,7,9"
14614,commdev-image-keyboard-response,321,1103376,learnblock1,525.6999999880791,img/planet1_left.png,1,Community 2,NA,TRUE,f,f,NA,NA,NA,3,6,"12,6,4,13,15,10,1,8,3,2,14,5,11,7,9"
14614,commdev-image-keyboard-response,322,1104631,learnblock1,648.6999999880791,img/planet8_left.png,8,Community 2,NA,TRUE,f,f,NA,NA,NA,3,6,"12,6,4,13,15,10,1,8,3,2,14,5,11,7,9"
14614,commdev-image-keyboard-response,323,1105890,learnblock1,620.4000000059605,img/planet2_right.png,2,Community 2,NA,TRUE,j,j,NA,NA,NA,3,6,"12,6,4,13,15,10,1,8,3,2,14,5,11,7,9"
14614,commdev-image-keyboard-response,324,1107148,learnblock1,643.1000000238419,img/planet3_right.png,3,Community 2,NA,TRUE,j,j,NA,NA,NA,3,6,"12,6,4,13,15,10,1,8,3,2,14,5,11,7,9"
14614,commdev-image-keyboard-response,325,1108406,learnblock1,505.90000000596046,img/planet2_left.png,2,Community 2,NA,TRUE,f,f,NA,NA,NA,3,6,"12,6,4,13,15,10,1,8,3,2,14,5,11,7,9"
14614,commdev-image-keyboard-response,326,1109663,learnblock1,764.5999999940395,img/planet3_left.png,3,Community 2,NA,TRUE,f,f,NA,NA,NA,3,6,"12,6,4,13,15,10,1,8,3,2,14,5,11,7,9"
14614,commdev-image-keyboard-response,327,1110925,learnblock1,604.9000000059605,img/planet1_left.png,1,Community 2,NA,TRUE,f,f,NA,NA,NA,3,6,"12,6,4,13,15,10,1,8,3,2,14,5,11,7,9"
14614,commdev-image-keyboard-response,328,1112185,learnblock1,613,img/planet3_right.png,3,Community 2,NA,TRUE,j,j,NA,NA,NA,3,6,"12,6,4,13,15,10,1,8,3,2,14,5,11,7,9"
14614,commdev-image-keyboard-response,329,1113438,learnblock1,521.6999999880791,img/planet10_left.png,10,Community 2,NA,TRUE,f,f,NA,NA,NA,3,6,"12,6,4,13,15,10,1,8,3,2,14,5,11,7,9"
14614,commdev-image-keyboard-response,330,1114690,learnblock1,566.8000000119209,img/planet1_right.png,1,Community 2,NA,TRUE,j,j,NA,NA,NA,3,6,"12,6,4,13,15,10,1,8,3,2,14,5,11,7,9"
14614,commdev-image-keyboard-response,331,1115950,learnblock1,718.9000000059605,img/planet8_left.png,8,Community 2,NA,TRUE,f,f,NA,NA,NA,3,6,"12,6,4,13,15,10,1,8,3,2,14,5,11,7,9"
14614,commdev-image-keyboard-response,332,1117210,learnblock1,570.5,img/planet2_left.png,2,Community 2,NA,TRUE,f,f,NA,NA,NA,3,6,"12,6,4,13,15,10,1,8,3,2,14,5,11,7,9"
14614,commdev-image-keyboard-response,333,1118464,learnblock1,688,img/planet1_right.png,1,Community 2,NA,TRUE,j,j,NA,NA,NA,3,6,"12,6,4,13,15,10,1,8,3,2,14,5,11,7,9"
14614,commdev-image-keyboard-response,334,1119724,learnblock1,556.5,img/planet8_left.png,8,Community 2,NA,FALSE,j,f,NA,NA,NA,3,6,"12,6,4,13,15,10,1,8,3,2,14,5,11,7,9"
14614,commdev-image-keyboard-response,335,1120977,learnblock1,1074.5999999940395,img/planet1_right.png,1,Community 2,NA,TRUE,j,j,NA,NA,NA,3,6,"12,6,4,13,15,10,1,8,3,2,14,5,11,7,9"
14614,commdev-image-keyboard-response,336,1122236,learnblock1,715.5999999940395,img/planet3_right.png,3,Community 2,NA,TRUE,j,j,NA,NA,NA,3,6,"12,6,4,13,15,10,1,8,3,2,14,5,11,7,9"
14614,commdev-image-keyboard-response,337,1123493,learnblock1,550.0999999940395,img/planet8_right.png,8,Community 2,NA,TRUE,j,j,NA,NA,NA,3,6,"12,6,4,13,15,10,1,8,3,2,14,5,11,7,9"
14614,commdev-image-keyboard-response,338,1124758,learnblock1,535.5999999940395,img/planet1_right.png,1,Community 2,NA,TRUE,j,j,NA,NA,NA,3,6,"12,6,4,13,15,10,1,8,3,2,14,5,11,7,9"
14614,commdev-image-keyboard-response,339,1126016,learnblock1,695.0999999940395,img/planet8_left.png,8,Community 2,NA,TRUE,f,f,NA,NA,NA,3,6,"12,6,4,13,15,10,1,8,3,2,14,5,11,7,9"
14614,commdev-image-keyboard-response,340,1127274,learnblock1,677.5,img/planet1_right.png,1,Community 2,NA,TRUE,j,j,NA,NA,NA,3,6,"12,6,4,13,15,10,1,8,3,2,14,5,11,7,9"
14614,commdev-image-keyboard-response,341,1128538,learnblock1,608.8000000119209,img/planet10_left.png,10,Community 2,NA,TRUE,f,f,NA,NA,NA,3,6,"12,6,4,13,15,10,1,8,3,2,14,5,11,7,9"
14614,commdev-image-keyboard-response,342,1129791,learnblock1,539.9000000059605,img/planet2_right.png,2,Community 2,NA,TRUE,j,j,NA,NA,NA,3,6,"12,6,4,13,15,10,1,8,3,2,14,5,11,7,9"
14614,commdev-image-keyboard-response,343,1131048,learnblock1,606.6999999880791,img/planet1_right.png,1,Community 2,NA,TRUE,j,j,NA,NA,NA,3,6,"12,6,4,13,15,10,1,8,3,2,14,5,11,7,9"
14614,commdev-image-keyboard-response,344,1132309,learnblock1,542.1000000238419,img/planet10_right.png,10,Community 2,NA,TRUE,j,j,NA,NA,NA,3,6,"12,6,4,13,15,10,1,8,3,2,14,5,11,7,9"
14614,commdev-image-keyboard-response,345,1133569,learnblock1,432.7999999821186,img/planet2_left.png,2,Community 2,NA,FALSE,j,f,NA,NA,NA,3,6,"12,6,4,13,15,10,1,8,3,2,14,5,11,7,9"
14614,commdev-image-keyboard-response,346,1134830,learnblock1,673.3000000119209,img/planet10_left.png,10,Community 2,NA,TRUE,f,f,NA,NA,NA,3,6,"12,6,4,13,15,10,1,8,3,2,14,5,11,7,9"
14614,commdev-image-keyboard-response,347,1136091,learnblock1,650.8000000119209,img/planet2_left.png,2,Community 2,NA,TRUE,f,f,NA,NA,NA,3,6,"12,6,4,13,15,10,1,8,3,2,14,5,11,7,9"
14614,commdev-image-keyboard-response,348,1137348,learnblock1,1137.0999999940395,img/planet1_right.png,1,Community 2,NA,TRUE,j,j,NA,NA,NA,3,6,"12,6,4,13,15,10,1,8,3,2,14,5,11,7,9"
14614,commdev-image-keyboard-response,349,1138605,learnblock1,1052.699999988079,img/planet8_right.png,8,Community 2,NA,TRUE,j,j,NA,NA,NA,3,6,"12,6,4,13,15,10,1,8,3,2,14,5,11,7,9"
14614,commdev-image-keyboard-response,350,1139857,learnblock1,560.1999999880791,img/planet1_left.png,1,Community 2,NA,TRUE,f,f,NA,NA,NA,3,6,"12,6,4,13,15,10,1,8,3,2,14,5,11,7,9"
14614,commdev-image-keyboard-response,351,1141117,learnblock1,586.7999999821186,img/planet10_left.png,10,Community 2,NA,TRUE,f,f,NA,NA,NA,3,6,"12,6,4,13,15,10,1,8,3,2,14,5,11,7,9"
14614,commdev-image-keyboard-response,352,1142379,learnblock1,796.5999999940395,img/planet13_left.png,13,Community 1,NA,TRUE,f,f,NA,NA,NA,3,6,"12,6,4,13,15,10,1,8,3,2,14,5,11,7,9"
14614,commdev-image-keyboard-response,353,1143642,learnblock1,560.8000000119209,img/planet10_left.png,10,Community 2,NA,TRUE,f,f,NA,NA,NA,3,6,"12,6,4,13,15,10,1,8,3,2,14,5,11,7,9"
14614,commdev-image-keyboard-response,354,1144906,learnblock1,495.39999997615814,img/planet1_left.png,1,Community 2,NA,TRUE,f,f,NA,NA,NA,3,6,"12,6,4,13,15,10,1,8,3,2,14,5,11,7,9"
14614,commdev-image-keyboard-response,355,1146173,learnblock1,605.8000000119209,img/planet8_right.png,8,Community 2,NA,TRUE,j,j,NA,NA,NA,3,6,"12,6,4,13,15,10,1,8,3,2,14,5,11,7,9"
14614,commdev-image-keyboard-response,356,1147426,learnblock1,634.7000000178814,img/planet5_left.png,5,Community 3,NA,TRUE,f,f,NA,NA,NA,3,6,"12,6,4,13,15,10,1,8,3,2,14,5,11,7,9"
14614,commdev-image-keyboard-response,357,1148684,learnblock1,626,img/planet7_right.png,7,Community 3,NA,TRUE,j,j,NA,NA,NA,3,6,"12,6,4,13,15,10,1,8,3,2,14,5,11,7,9"
14614,commdev-image-keyboard-response,358,1149937,learnblock1,684.8000000119209,img/planet9_left.png,9,Community 3,NA,TRUE,f,f,NA,NA,NA,3,6,"12,6,4,13,15,10,1,8,3,2,14,5,11,7,9"
14614,commdev-image-keyboard-response,359,1151191,learnblock1,720.3000000119209,img/planet7_right.png,7,Community 3,NA,TRUE,j,j,NA,NA,NA,3,6,"12,6,4,13,15,10,1,8,3,2,14,5,11,7,9"
14614,commdev-image-keyboard-response,360,1152449,learnblock1,981.6999999880791,img/planet14_left.png,14,Community 3,NA,TRUE,f,f,NA,NA,NA,3,6,"12,6,4,13,15,10,1,8,3,2,14,5,11,7,9"
14614,commdev-image-keyboard-response,361,1153702,learnblock1,919.2999999821186,img/planet11_left.png,11,Community 3,NA,TRUE,f,f,NA,NA,NA,3,6,"12,6,4,13,15,10,1,8,3,2,14,5,11,7,9"
14614,commdev-image-keyboard-response,362,1154962,learnblock1,655.8000000119209,img/planet9_left.png,9,Community 3,NA,TRUE,f,f,NA,NA,NA,3,6,"12,6,4,13,15,10,1,8,3,2,14,5,11,7,9"
14614,commdev-image-keyboard-response,363,1156222,learnblock1,689.5,img/planet11_right.png,11,Community 3,NA,TRUE,j,j,NA,NA,NA,3,6,"12,6,4,13,15,10,1,8,3,2,14,5,11,7,9"
14614,commdev-image-keyboard-response,364,1157477,learnblock1,534.2000000178814,img/planet7_left.png,7,Community 3,NA,TRUE,f,f,NA,NA,NA,3,6,"12,6,4,13,15,10,1,8,3,2,14,5,11,7,9"
14614,commdev-image-keyboard-response,365,1158729,learnblock1,750.2000000178814,img/planet11_right.png,11,Community 3,NA,TRUE,j,j,NA,NA,NA,3,6,"12,6,4,13,15,10,1,8,3,2,14,5,11,7,9"
14614,commdev-image-keyboard-response,366,1159989,learnblock1,711.4000000059605,img/planet9_left.png,9,Community 3,NA,TRUE,f,f,NA,NA,NA,3,6,"12,6,4,13,15,10,1,8,3,2,14,5,11,7,9"
14614,commdev-image-keyboard-response,367,1161248,learnblock1,606,img/planet5_left.png,5,Community 3,NA,TRUE,f,f,NA,NA,NA,3,6,"12,6,4,13,15,10,1,8,3,2,14,5,11,7,9"
14614,commdev-image-keyboard-response,368,1162503,learnblock1,632.6999999880791,img/planet9_right.png,9,Community 3,NA,TRUE,j,j,NA,NA,NA,3,6,"12,6,4,13,15,10,1,8,3,2,14,5,11,7,9"
14614,commdev-image-keyboard-response,369,1163755,learnblock1,514,img/planet7_left.png,7,Community 3,NA,TRUE,f,f,NA,NA,NA,3,6,"12,6,4,13,15,10,1,8,3,2,14,5,11,7,9"
14614,commdev-image-keyboard-response,370,1165008,learnblock1,694,img/planet14_right.png,14,Community 3,NA,TRUE,j,j,NA,NA,NA,3,6,"12,6,4,13,15,10,1,8,3,2,14,5,11,7,9"
14614,commdev-image-keyboard-response,371,1166264,learnblock1,745.0999999940395,img/planet7_right.png,7,Community 3,NA,TRUE,j,j,NA,NA,NA,3,6,"12,6,4,13,15,10,1,8,3,2,14,5,11,7,9"
14614,commdev-image-keyboard-response,372,1167525,learnblock1,581.0999999940395,img/planet14_left.png,14,Community 3,NA,TRUE,f,f,NA,NA,NA,3,6,"12,6,4,13,15,10,1,8,3,2,14,5,11,7,9"
14614,commdev-image-keyboard-response,373,1168784,learnblock1,764.8999999761581,img/planet9_right.png,9,Community 3,NA,TRUE,j,j,NA,NA,NA,3,6,"12,6,4,13,15,10,1,8,3,2,14,5,11,7,9"
14614,commdev-image-keyboard-response,374,1170037,learnblock1,665.3000000119209,img/planet11_right.png,11,Community 3,NA,TRUE,j,j,NA,NA,NA,3,6,"12,6,4,13,15,10,1,8,3,2,14,5,11,7,9"
14614,commdev-image-keyboard-response,375,1171295,learnblock1,495.89999997615814,img/planet9_right.png,9,Community 3,NA,TRUE,j,j,NA,NA,NA,3,6,"12,6,4,13,15,10,1,8,3,2,14,5,11,7,9"
14614,commdev-image-keyboard-response,376,1172550,learnblock1,882.4000000059605,img/planet11_left.png,11,Community 3,NA,TRUE,f,f,NA,NA,NA,3,6,"12,6,4,13,15,10,1,8,3,2,14,5,11,7,9"
14614,commdev-image-keyboard-response,377,1173803,learnblock1,838.7000000178814,img/planet14_right.png,14,Community 3,NA,TRUE,j,j,NA,NA,NA,3,6,"12,6,4,13,15,10,1,8,3,2,14,5,11,7,9"
14614,commdev-image-keyboard-response,378,1175070,learnblock1,939.6999999880791,img/planet15_right.png,15,Community 1,NA,TRUE,j,j,NA,NA,NA,3,6,"12,6,4,13,15,10,1,8,3,2,14,5,11,7,9"
14614,commdev-image-keyboard-response,379,1176331,learnblock1,756.9000000059605,img/planet6_right.png,6,Community 1,NA,TRUE,j,j,NA,NA,NA,3,6,"12,6,4,13,15,10,1,8,3,2,14,5,11,7,9"
14614,commdev-image-keyboard-response,380,1177589,learnblock1,664.8999999761581,img/planet13_left.png,13,Community 1,NA,TRUE,f,f,NA,NA,NA,3,6,"12,6,4,13,15,10,1,8,3,2,14,5,11,7,9"
14614,commdev-image-keyboard-response,381,1178843,learnblock1,772.8999999761581,img/planet10_left.png,10,Community 2,NA,TRUE,f,f,NA,NA,NA,3,6,"12,6,4,13,15,10,1,8,3,2,14,5,11,7,9"
14614,commdev-image-keyboard-response,382,1180103,learnblock1,649.6999999880791,img/planet2_right.png,2,Community 2,NA,TRUE,j,j,NA,NA,NA,3,6,"12,6,4,13,15,10,1,8,3,2,14,5,11,7,9"
14614,commdev-image-keyboard-response,383,1181361,learnblock1,683.8000000119209,img/planet1_right.png,1,Community 2,NA,TRUE,j,j,NA,NA,NA,3,6,"12,6,4,13,15,10,1,8,3,2,14,5,11,7,9"
14614,commdev-image-keyboard-response,384,1182616,learnblock1,715.2999999821186,img/planet3_left.png,3,Community 2,NA,TRUE,f,f,NA,NA,NA,3,6,"12,6,4,13,15,10,1,8,3,2,14,5,11,7,9"
14614,commdev-image-keyboard-response,385,1183869,learnblock1,743.5,img/planet8_right.png,8,Community 2,NA,TRUE,j,j,NA,NA,NA,3,6,"12,6,4,13,15,10,1,8,3,2,14,5,11,7,9"
14614,commdev-image-keyboard-response,386,1185124,learnblock1,603.1999999880791,img/planet1_right.png,1,Community 2,NA,TRUE,j,j,NA,NA,NA,3,6,"12,6,4,13,15,10,1,8,3,2,14,5,11,7,9"
14614,commdev-image-keyboard-response,387,1186390,learnblock1,634.5999999940395,img/planet3_right.png,3,Community 2,NA,TRUE,j,j,NA,NA,NA,3,6,"12,6,4,13,15,10,1,8,3,2,14,5,11,7,9"
14614,commdev-image-keyboard-response,388,1187646,learnblock1,590.7999999821186,img/planet2_right.png,2,Community 2,NA,TRUE,j,j,NA,NA,NA,3,6,"12,6,4,13,15,10,1,8,3,2,14,5,11,7,9"
14614,commdev-image-keyboard-response,389,1188905,learnblock1,502.5,img/planet10_right.png,10,Community 2,NA,TRUE,j,j,NA,NA,NA,3,6,"12,6,4,13,15,10,1,8,3,2,14,5,11,7,9"
14614,commdev-image-keyboard-response,390,1190162,learnblock1,617.7999999821186,img/planet13_left.png,13,Community 1,NA,TRUE,f,f,NA,NA,NA,3,6,"12,6,4,13,15,10,1,8,3,2,14,5,11,7,9"
14614,commdev-image-keyboard-response,391,1191416,learnblock1,743.3999999761581,img/planet12_right.png,12,Community 1,NA,TRUE,j,j,NA,NA,NA,3,6,"12,6,4,13,15,10,1,8,3,2,14,5,11,7,9"
14614,commdev-image-keyboard-response,392,1192673,learnblock1,772.5999999940395,img/planet6_left.png,6,Community 1,NA,TRUE,f,f,NA,NA,NA,3,6,"12,6,4,13,15,10,1,8,3,2,14,5,11,7,9"
14614,commdev-image-keyboard-response,393,1193932,learnblock1,726.4000000059605,img/planet12_right.png,12,Community 1,NA,TRUE,j,j,NA,NA,NA,3,6,"12,6,4,13,15,10,1,8,3,2,14,5,11,7,9"
14614,commdev-image-keyboard-response,394,1195186,learnblock1,744.5999999940395,img/planet15_left.png,15,Community 1,NA,TRUE,f,f,NA,NA,NA,3,6,"12,6,4,13,15,10,1,8,3,2,14,5,11,7,9"
14614,commdev-image-keyboard-response,395,1196442,learnblock1,742.5999999940395,img/planet6_left.png,6,Community 1,NA,TRUE,f,f,NA,NA,NA,3,6,"12,6,4,13,15,10,1,8,3,2,14,5,11,7,9"
14614,commdev-image-keyboard-response,396,1197704,learnblock1,688.7000000178814,img/planet4_right.png,4,Community 1,NA,TRUE,j,j,NA,NA,NA,3,6,"12,6,4,13,15,10,1,8,3,2,14,5,11,7,9"
14614,commdev-image-keyboard-response,397,1198959,learnblock1,681.9000000059605,img/planet13_right.png,13,Community 1,NA,TRUE,j,j,NA,NA,NA,3,6,"12,6,4,13,15,10,1,8,3,2,14,5,11,7,9"
14614,commdev-image-keyboard-response,398,1200218,learnblock1,601.5,img/planet4_right.png,4,Community 1,NA,TRUE,j,j,NA,NA,NA,3,6,"12,6,4,13,15,10,1,8,3,2,14,5,11,7,9"
14614,commdev-image-keyboard-response,399,1201473,learnblock1,866.1999999880791,img/planet15_right.png,15,Community 1,NA,TRUE,j,j,NA,NA,NA,3,6,"12,6,4,13,15,10,1,8,3,2,14,5,11,7,9"
14614,commdev-image-keyboard-response,400,1202727,learnblock1,723.5,img/planet12_left.png,12,Community 1,NA,TRUE,f,f,NA,NA,NA,3,6,"12,6,4,13,15,10,1,8,3,2,14,5,11,7,9"
14614,commdev-image-keyboard-response,401,1203981,learnblock1,null,img/planet15_left.png,15,Community 1,NA,FALSE,null,f,NA,NA,NA,3,6,"12,6,4,13,15,10,1,8,3,2,14,5,11,7,9"
14614,commdev-image-keyboard-response,402,1205237,learnblock1,69,img/planet4_right.png,4,Community 1,NA,FALSE,f,j,NA,NA,NA,3,6,"12,6,4,13,15,10,1,8,3,2,14,5,11,7,9"
14614,commdev-image-keyboard-response,403,1206494,learnblock1,702,img/planet15_right.png,15,Community 1,NA,TRUE,j,j,NA,NA,NA,3,6,"12,6,4,13,15,10,1,8,3,2,14,5,11,7,9"
14614,commdev-image-keyboard-response,404,1207750,learnblock1,618,img/planet4_left.png,4,Community 1,NA,TRUE,f,f,NA,NA,NA,3,6,"12,6,4,13,15,10,1,8,3,2,14,5,11,7,9"
14614,commdev-image-keyboard-response,405,1209009,learnblock1,675.8000000119209,img/planet12_left.png,12,Community 1,NA,TRUE,f,f,NA,NA,NA,3,6,"12,6,4,13,15,10,1,8,3,2,14,5,11,7,9"
14614,commdev-image-keyboard-response,406,1210268,learnblock1,569.1999999880791,img/planet15_right.png,15,Community 1,NA,TRUE,j,j,NA,NA,NA,3,6,"12,6,4,13,15,10,1,8,3,2,14,5,11,7,9"
14614,commdev-image-keyboard-response,407,1211528,learnblock1,722.5,img/planet12_right.png,12,Community 1,NA,TRUE,j,j,NA,NA,NA,3,6,"12,6,4,13,15,10,1,8,3,2,14,5,11,7,9"
14614,commdev-image-keyboard-response,408,1212790,learnblock1,678.3000000119209,img/planet13_left.png,13,Community 1,NA,TRUE,f,f,NA,NA,NA,3,6,"12,6,4,13,15,10,1,8,3,2,14,5,11,7,9"
14614,commdev-image-keyboard-response,409,1214042,learnblock1,637.9000000059605,img/planet10_left.png,10,Community 2,NA,TRUE,f,f,NA,NA,NA,3,6,"12,6,4,13,15,10,1,8,3,2,14,5,11,7,9"
14614,commdev-image-keyboard-response,410,1215301,learnblock1,543.2999999821186,img/planet1_right.png,1,Community 2,NA,TRUE,j,j,NA,NA,NA,3,6,"12,6,4,13,15,10,1,8,3,2,14,5,11,7,9"
14614,commdev-image-keyboard-response,411,1216563,learnblock1,656.6999999880791,img/planet2_left.png,2,Community 2,NA,TRUE,f,f,NA,NA,NA,3,6,"12,6,4,13,15,10,1,8,3,2,14,5,11,7,9"
14614,commdev-image-keyboard-response,412,1217818,learnblock1,619.9000000059605,img/planet1_left.png,1,Community 2,NA,TRUE,f,f,NA,NA,NA,3,6,"12,6,4,13,15,10,1,8,3,2,14,5,11,7,9"
14614,commdev-image-keyboard-response,413,1219074,learnblock1,592,img/planet10_left.png,10,Community 2,NA,TRUE,f,f,NA,NA,NA,3,6,"12,6,4,13,15,10,1,8,3,2,14,5,11,7,9"
14614,commdev-image-keyboard-response,417,1279440,learnblock2,972.6999999880791,img/planet13_left.png,13,Community 1,NA,TRUE,f,f,NA,NA,NA,3,6,"12,6,4,13,15,10,1,8,3,2,14,5,11,7,9"
14614,commdev-image-keyboard-response,418,1280701,learnblock2,533.0999999940395,img/planet10_left.png,10,Community 2,NA,TRUE,f,f,NA,NA,NA,3,6,"12,6,4,13,15,10,1,8,3,2,14,5,11,7,9"
14614,commdev-image-keyboard-response,419,1281957,learnblock2,552.5999999940395,img/planet3_left.png,3,Community 2,NA,TRUE,f,f,NA,NA,NA,3,6,"12,6,4,13,15,10,1,8,3,2,14,5,11,7,9"
14614,commdev-image-keyboard-response,420,1283213,learnblock2,567.2999999821186,img/planet1_right.png,1,Community 2,NA,TRUE,j,j,NA,NA,NA,3,6,"12,6,4,13,15,10,1,8,3,2,14,5,11,7,9"
14614,commdev-image-keyboard-response,421,1284471,learnblock2,553.8000000119209,img/planet10_right.png,10,Community 2,NA,TRUE,j,j,NA,NA,NA,3,6,"12,6,4,13,15,10,1,8,3,2,14,5,11,7,9"
14614,commdev-image-keyboard-response,422,1285730,learnblock2,508.19999998807907,img/planet2_left.png,2,Community 2,NA,FALSE,j,f,NA,NA,NA,3,6,"12,6,4,13,15,10,1,8,3,2,14,5,11,7,9"
14614,commdev-image-keyboard-response,423,1286987,learnblock2,456.5,img/planet10_left.png,10,Community 2,NA,TRUE,f,f,NA,NA,NA,3,6,"12,6,4,13,15,10,1,8,3,2,14,5,11,7,9"
14614,commdev-image-keyboard-response,424,1288243,learnblock2,499.7000000178814,img/planet2_left.png,2,Community 2,NA,TRUE,f,f,NA,NA,NA,3,6,"12,6,4,13,15,10,1,8,3,2,14,5,11,7,9"
14614,commdev-image-keyboard-response,425,1289498,learnblock2,647.0999999940395,img/planet10_left.png,10,Community 2,NA,TRUE,f,f,NA,NA,NA,3,6,"12,6,4,13,15,10,1,8,3,2,14,5,11,7,9"
14614,commdev-image-keyboard-response,426,1290762,learnblock2,534.5999999940395,img/planet2_left.png,2,Community 2,NA,TRUE,f,f,NA,NA,NA,3,6,"12,6,4,13,15,10,1,8,3,2,14,5,11,7,9"
14614,commdev-image-keyboard-response,427,1292016,learnblock2,559.1999999880791,img/planet10_left.png,10,Community 2,NA,TRUE,f,f,NA,NA,NA,3,6,"12,6,4,13,15,10,1,8,3,2,14,5,11,7,9"
14614,commdev-image-keyboard-response,428,1293272,learnblock2,979.2999999821186,img/planet1_right.png,1,Community 2,NA,TRUE,j,j,NA,NA,NA,3,6,"12,6,4,13,15,10,1,8,3,2,14,5,11,7,9"
14614,commdev-image-keyboard-response,429,1294529,learnblock2,995.3000000119209,img/planet8_left.png,8,Community 2,NA,TRUE,f,f,NA,NA,NA,3,6,"12,6,4,13,15,10,1,8,3,2,14,5,11,7,9"
14614,commdev-image-keyboard-response,430,1295791,learnblock2,622.7999999821186,img/planet3_left.png,3,Community 2,NA,TRUE,f,f,NA,NA,NA,3,6,"12,6,4,13,15,10,1,8,3,2,14,5,11,7,9"
14614,commdev-image-keyboard-response,431,1297051,learnblock2,625.3000000119209,img/planet8_left.png,8,Community 2,NA,TRUE,f,f,NA,NA,NA,3,6,"12,6,4,13,15,10,1,8,3,2,14,5,11,7,9"
14614,commdev-image-keyboard-response,432,1298310,learnblock2,527.6000000238419,img/planet2_right.png,2,Community 2,NA,TRUE,j,j,NA,NA,NA,3,6,"12,6,4,13,15,10,1,8,3,2,14,5,11,7,9"
14614,commdev-image-keyboard-response,433,1299564,learnblock2,715.1999999880791,img/planet8_right.png,8,Community 2,NA,TRUE,j,j,NA,NA,NA,3,6,"12,6,4,13,15,10,1,8,3,2,14,5,11,7,9"
14614,commdev-image-keyboard-response,434,1300824,learnblock2,527.8000000119209,img/planet1_right.png,1,Community 2,NA,TRUE,j,j,NA,NA,NA,3,6,"12,6,4,13,15,10,1,8,3,2,14,5,11,7,9"
14614,commdev-image-keyboard-response,435,1302085,learnblock2,719.3000000119209,img/planet8_right.png,8,Community 2,NA,TRUE,j,j,NA,NA,NA,3,6,"12,6,4,13,15,10,1,8,3,2,14,5,11,7,9"
14614,commdev-image-keyboard-response,436,1303345,learnblock2,517.5999999940395,img/planet2_right.png,2,Community 2,NA,TRUE,j,j,NA,NA,NA,3,6,"12,6,4,13,15,10,1,8,3,2,14,5,11,7,9"
14614,commdev-image-keyboard-response,437,1304601,learnblock2,564,img/planet8_left.png,8,Community 2,NA,TRUE,f,f,NA,NA,NA,3,6,"12,6,4,13,15,10,1,8,3,2,14,5,11,7,9"
14614,commdev-image-keyboard-response,438,1305857,learnblock2,478.2000000178814,img/planet2_left.png,2,Community 2,NA,TRUE,f,f,NA,NA,NA,3,6,"12,6,4,13,15,10,1,8,3,2,14,5,11,7,9"
14614,commdev-image-keyboard-response,439,1307113,learnblock2,621,img/planet3_right.png,3,Community 2,NA,TRUE,j,j,NA,NA,NA,3,6,"12,6,4,13,15,10,1,8,3,2,14,5,11,7,9"
14614,commdev-image-keyboard-response,440,1308373,learnblock2,532.2999999821186,img/planet2_left.png,2,Community 2,NA,TRUE,f,f,NA,NA,NA,3,6,"12,6,4,13,15,10,1,8,3,2,14,5,11,7,9"
14614,commdev-image-keyboard-response,441,1309632,learnblock2,565,img/planet1_left.png,1,Community 2,NA,TRUE,f,f,NA,NA,NA,3,6,"12,6,4,13,15,10,1,8,3,2,14,5,11,7,9"
14614,commdev-image-keyboard-response,442,1310887,learnblock2,671.0999999940395,img/planet3_right.png,3,Community 2,NA,TRUE,j,j,NA,NA,NA,3,6,"12,6,4,13,15,10,1,8,3,2,14,5,11,7,9"
14614,commdev-image-keyboard-response,443,1312141,learnblock2,567.9000000059605,img/planet8_right.png,8,Community 2,NA,TRUE,j,j,NA,NA,NA,3,6,"12,6,4,13,15,10,1,8,3,2,14,5,11,7,9"
14614,commdev-image-keyboard-response,444,1313395,learnblock2,681.0999999940395,img/planet3_left.png,3,Community 2,NA,TRUE,f,f,NA,NA,NA,3,6,"12,6,4,13,15,10,1,8,3,2,14,5,11,7,9"
14614,commdev-image-keyboard-response,445,1314652,learnblock2,499.7000000178814,img/planet10_left.png,10,Community 2,NA,TRUE,f,f,NA,NA,NA,3,6,"12,6,4,13,15,10,1,8,3,2,14,5,11,7,9"
14614,commdev-image-keyboard-response,446,1315904,learnblock2,507.30000001192093,img/planet2_right.png,2,Community 2,NA,TRUE,j,j,NA,NA,NA,3,6,"12,6,4,13,15,10,1,8,3,2,14,5,11,7,9"
14614,commdev-image-keyboard-response,447,1317166,learnblock2,612.2000000178814,img/planet1_right.png,1,Community 2,NA,TRUE,j,j,NA,NA,NA,3,6,"12,6,4,13,15,10,1,8,3,2,14,5,11,7,9"
14614,commdev-image-keyboard-response,448,1318420,learnblock2,803,img/planet2_right.png,2,Community 2,NA,TRUE,j,j,NA,NA,NA,3,6,"12,6,4,13,15,10,1,8,3,2,14,5,11,7,9"
14614,commdev-image-keyboard-response,449,1319691,learnblock2,560.2000000178814,img/planet10_left.png,10,Community 2,NA,TRUE,f,f,NA,NA,NA,3,6,"12,6,4,13,15,10,1,8,3,2,14,5,11,7,9"
14614,commdev-image-keyboard-response,450,1320946,learnblock2,548.8000000119209,img/planet2_right.png,2,Community 2,NA,TRUE,j,j,NA,NA,NA,3,6,"12,6,4,13,15,10,1,8,3,2,14,5,11,7,9"
14614,commdev-image-keyboard-response,451,1322207,learnblock2,711.5999999940395,img/planet3_right.png,3,Community 2,NA,TRUE,j,j,NA,NA,NA,3,6,"12,6,4,13,15,10,1,8,3,2,14,5,11,7,9"
14614,commdev-image-keyboard-response,452,1323467,learnblock2,487.2999999821186,img/planet2_right.png,2,Community 2,NA,TRUE,j,j,NA,NA,NA,3,6,"12,6,4,13,15,10,1,8,3,2,14,5,11,7,9"
14614,commdev-image-keyboard-response,453,1324722,learnblock2,563.0999999940395,img/planet10_right.png,10,Community 2,NA,TRUE,j,j,NA,NA,NA,3,6,"12,6,4,13,15,10,1,8,3,2,14,5,11,7,9"
14614,commdev-image-keyboard-response,454,1325979,learnblock2,764.4000000059605,img/planet13_right.png,13,Community 1,NA,TRUE,j,j,NA,NA,NA,3,6,"12,6,4,13,15,10,1,8,3,2,14,5,11,7,9"
14614,commdev-image-keyboard-response,455,1327241,learnblock2,599.4000000059605,img/planet4_right.png,4,Community 1,NA,TRUE,j,j,NA,NA,NA,3,6,"12,6,4,13,15,10,1,8,3,2,14,5,11,7,9"
14614,commdev-image-keyboard-response,456,1328498,learnblock2,626.8000000119209,img/planet13_right.png,13,Community 1,NA,TRUE,j,j,NA,NA,NA,3,6,"12,6,4,13,15,10,1,8,3,2,14,5,11,7,9"
14614,commdev-image-keyboard-response,457,1329756,learnblock2,579.6000000238419,img/planet4_left.png,4,Community 1,NA,TRUE,f,f,NA,NA,NA,3,6,"12,6,4,13,15,10,1,8,3,2,14,5,11,7,9"
14614,commdev-image-keyboard-response,458,1331011,learnblock2,739,img/planet13_right.png,13,Community 1,NA,TRUE,j,j,NA,NA,NA,3,6,"12,6,4,13,15,10,1,8,3,2,14,5,11,7,9"
14614,commdev-image-keyboard-response,459,1332271,learnblock2,687.2999999821186,img/planet12_right.png,12,Community 1,NA,TRUE,j,j,NA,NA,NA,3,6,"12,6,4,13,15,10,1,8,3,2,14,5,11,7,9"
14614,commdev-image-keyboard-response,460,1333537,learnblock2,764.6999999880791,img/planet15_right.png,15,Community 1,NA,TRUE,j,j,NA,NA,NA,3,6,"12,6,4,13,15,10,1,8,3,2,14,5,11,7,9"
14614,commdev-image-keyboard-response,461,1334793,learnblock2,668,img/planet12_right.png,12,Community 1,NA,TRUE,j,j,NA,NA,NA,3,6,"12,6,4,13,15,10,1,8,3,2,14,5,11,7,9"
14614,commdev-image-keyboard-response,462,1336044,learnblock2,827.7999999821186,img/planet13_right.png,13,Community 1,NA,TRUE,j,j,NA,NA,NA,3,6,"12,6,4,13,15,10,1,8,3,2,14,5,11,7,9"
14614,commdev-image-keyboard-response,463,1337300,learnblock2,561.5,img/planet10_left.png,10,Community 2,NA,TRUE,f,f,NA,NA,NA,3,6,"12,6,4,13,15,10,1,8,3,2,14,5,11,7,9"
14614,commdev-image-keyboard-response,464,1338561,learnblock2,864.5,img/planet3_left.png,3,Community 2,NA,TRUE,f,f,NA,NA,NA,3,6,"12,6,4,13,15,10,1,8,3,2,14,5,11,7,9"
14614,commdev-image-keyboard-response,465,1339817,learnblock2,706.9000000059605,img/planet8_right.png,8,Community 2,NA,TRUE,j,j,NA,NA,NA,3,6,"12,6,4,13,15,10,1,8,3,2,14,5,11,7,9"
14614,commdev-image-keyboard-response,466,1341078,learnblock2,628.1999999880791,img/planet5_left.png,5,Community 3,NA,TRUE,f,f,NA,NA,NA,3,6,"12,6,4,13,15,10,1,8,3,2,14,5,11,7,9"
14614,commdev-image-keyboard-response,467,1342334,learnblock2,622.5,img/planet7_left.png,7,Community 3,NA,TRUE,f,f,NA,NA,NA,3,6,"12,6,4,13,15,10,1,8,3,2,14,5,11,7,9"
14614,commdev-image-keyboard-response,468,1343592,learnblock2,831.8000000119209,img/planet9_left.png,9,Community 3,NA,TRUE,f,f,NA,NA,NA,3,6,"12,6,4,13,15,10,1,8,3,2,14,5,11,7,9"
14614,commdev-image-keyboard-response,469,1344848,learnblock2,null,img/planet7_left.png,7,Community 3,NA,FALSE,null,f,NA,NA,NA,3,6,"12,6,4,13,15,10,1,8,3,2,14,5,11,7,9"
14614,commdev-image-keyboard-response,470,1346113,learnblock2,42.30000001192093,img/planet11_right.png,11,Community 3,NA,FALSE,f,j,NA,NA,NA,3,6,"12,6,4,13,15,10,1,8,3,2,14,5,11,7,9"
14614,commdev-image-keyboard-response,471,1347374,learnblock2,649.6999999880791,img/planet5_left.png,5,Community 3,NA,TRUE,f,f,NA,NA,NA,3,6,"12,6,4,13,15,10,1,8,3,2,14,5,11,7,9"
14614,commdev-image-keyboard-response,472,1348635,learnblock2,681.8000000119209,img/planet11_left.png,11,Community 3,NA,TRUE,f,f,NA,NA,NA,3,6,"12,6,4,13,15,10,1,8,3,2,14,5,11,7,9"
14614,commdev-image-keyboard-response,473,1349892,learnblock2,810.7000000178814,img/planet7_right.png,7,Community 3,NA,TRUE,j,j,NA,NA,NA,3,6,"12,6,4,13,15,10,1,8,3,2,14,5,11,7,9"
14614,commdev-image-keyboard-response,474,1351158,learnblock2,825.7999999821186,img/planet11_left.png,11,Community 3,NA,TRUE,f,f,NA,NA,NA,3,6,"12,6,4,13,15,10,1,8,3,2,14,5,11,7,9"
14614,commdev-image-keyboard-response,475,1352416,learnblock2,589.8000000119209,img/planet5_right.png,5,Community 3,NA,TRUE,j,j,NA,NA,NA,3,6,"12,6,4,13,15,10,1,8,3,2,14,5,11,7,9"
14614,commdev-image-keyboard-response,476,1353681,learnblock2,635.7000000178814,img/planet7_right.png,7,Community 3,NA,TRUE,j,j,NA,NA,NA,3,6,"12,6,4,13,15,10,1,8,3,2,14,5,11,7,9"
14614,commdev-image-keyboard-response,477,1354940,learnblock2,515.9000000059605,img/planet5_left.png,5,Community 3,NA,TRUE,f,f,NA,NA,NA,3,6,"12,6,4,13,15,10,1,8,3,2,14,5,11,7,9"
14614,commdev-image-keyboard-response,478,1356200,learnblock2,542.4000000059605,img/planet7_right.png,7,Community 3,NA,TRUE,j,j,NA,NA,NA,3,6,"12,6,4,13,15,10,1,8,3,2,14,5,11,7,9"
14614,commdev-image-keyboard-response,479,1357452,learnblock2,641.3000000119209,img/planet14_left.png,14,Community 3,NA,FALSE,j,f,NA,NA,NA,3,6,"12,6,4,13,15,10,1,8,3,2,14,5,11,7,9"
14614,commdev-image-keyboard-response,480,1358710,learnblock2,979.1000000238419,img/planet9_right.png,9,Community 3,NA,TRUE,j,j,NA,NA,NA,3,6,"12,6,4,13,15,10,1,8,3,2,14,5,11,7,9"
14614,commdev-image-keyboard-response,481,1359974,learnblock2,556.2999999821186,img/planet5_right.png,5,Community 3,NA,TRUE,j,j,NA,NA,NA,3,6,"12,6,4,13,15,10,1,8,3,2,14,5,11,7,9"
14614,commdev-image-keyboard-response,482,1361233,learnblock2,532.2999999821186,img/planet7_right.png,7,Community 3,NA,TRUE,j,j,NA,NA,NA,3,6,"12,6,4,13,15,10,1,8,3,2,14,5,11,7,9"
14614,commdev-image-keyboard-response,483,1362490,learnblock2,566.9000000059605,img/planet9_left.png,9,Community 3,NA,TRUE,f,f,NA,NA,NA,3,6,"12,6,4,13,15,10,1,8,3,2,14,5,11,7,9"
14614,commdev-image-keyboard-response,484,1363747,learnblock2,824.9000000059605,img/planet5_left.png,5,Community 3,NA,TRUE,f,f,NA,NA,NA,3,6,"12,6,4,13,15,10,1,8,3,2,14,5,11,7,9"
14614,commdev-image-keyboard-response,485,1365002,learnblock2,756.5999999940395,img/planet7_right.png,7,Community 3,NA,TRUE,j,j,NA,NA,NA,3,6,"12,6,4,13,15,10,1,8,3,2,14,5,11,7,9"
14614,commdev-image-keyboard-response,486,1366259,learnblock2,659.2000000178814,img/planet11_right.png,11,Community 3,NA,TRUE,j,j,NA,NA,NA,3,6,"12,6,4,13,15,10,1,8,3,2,14,5,11,7,9"
14614,commdev-image-keyboard-response,487,1367527,learnblock2,630.0999999940395,img/planet9_left.png,9,Community 3,NA,TRUE,f,f,NA,NA,NA,3,6,"12,6,4,13,15,10,1,8,3,2,14,5,11,7,9"
14614,commdev-image-keyboard-response,488,1368780,learnblock2,588.5,img/planet11_right.png,11,Community 3,NA,TRUE,j,j,NA,NA,NA,3,6,"12,6,4,13,15,10,1,8,3,2,14,5,11,7,9"
14614,commdev-image-keyboard-response,489,1370032,learnblock2,630.7000000178814,img/planet5_right.png,5,Community 3,NA,TRUE,j,j,NA,NA,NA,3,6,"12,6,4,13,15,10,1,8,3,2,14,5,11,7,9"
14614,commdev-image-keyboard-response,490,1371289,learnblock2,553.3000000119209,img/planet11_left.png,11,Community 3,NA,TRUE,f,f,NA,NA,NA,3,6,"12,6,4,13,15,10,1,8,3,2,14,5,11,7,9"
14614,commdev-image-keyboard-response,491,1372543,learnblock2,543.4000000059605,img/planet7_left.png,7,Community 3,NA,TRUE,f,f,NA,NA,NA,3,6,"12,6,4,13,15,10,1,8,3,2,14,5,11,7,9"
14614,commdev-image-keyboard-response,492,1373797,learnblock2,924.4000000059605,img/planet14_left.png,14,Community 3,NA,TRUE,f,f,NA,NA,NA,3,6,"12,6,4,13,15,10,1,8,3,2,14,5,11,7,9"
14614,commdev-image-keyboard-response,493,1375051,learnblock2,945.9000000059605,img/planet7_left.png,7,Community 3,NA,TRUE,f,f,NA,NA,NA,3,6,"12,6,4,13,15,10,1,8,3,2,14,5,11,7,9"
14614,commdev-image-keyboard-response,494,1376305,learnblock2,553.6999999880791,img/planet11_right.png,11,Community 3,NA,TRUE,j,j,NA,NA,NA,3,6,"12,6,4,13,15,10,1,8,3,2,14,5,11,7,9"
14614,commdev-image-keyboard-response,495,1377561,learnblock2,676,img/planet5_left.png,5,Community 3,NA,TRUE,f,f,NA,NA,NA,3,6,"12,6,4,13,15,10,1,8,3,2,14,5,11,7,9"
14614,commdev-image-keyboard-response,496,1378816,learnblock2,697.5,img/planet8_right.png,8,Community 2,NA,TRUE,j,j,NA,NA,NA,3,6,"12,6,4,13,15,10,1,8,3,2,14,5,11,7,9"
14614,commdev-image-keyboard-response,497,1380077,learnblock2,522.5999999940395,img/planet2_left.png,2,Community 2,NA,TRUE,f,f,NA,NA,NA,3,6,"12,6,4,13,15,10,1,8,3,2,14,5,11,7,9"
14614,commdev-image-keyboard-response,498,1381333,learnblock2,704.8999999761581,img/planet3_left.png,3,Community 2,NA,TRUE,f,f,NA,NA,NA,3,6,"12,6,4,13,15,10,1,8,3,2,14,5,11,7,9"
14614,commdev-image-keyboard-response,499,1382593,learnblock2,876.3000000119209,img/planet8_left.png,8,Community 2,NA,TRUE,f,f,NA,NA,NA,3,6,"12,6,4,13,15,10,1,8,3,2,14,5,11,7,9"
14614,commdev-image-keyboard-response,500,1383847,learnblock2,583.9000000059605,img/planet5_left.png,5,Community 3,NA,TRUE,f,f,NA,NA,NA,3,6,"12,6,4,13,15,10,1,8,3,2,14,5,11,7,9"
14614,commdev-image-keyboard-response,501,1385101,learnblock2,538.3999999761581,img/planet11_right.png,11,Community 3,NA,TRUE,j,j,NA,NA,NA,3,6,"12,6,4,13,15,10,1,8,3,2,14,5,11,7,9"
14614,commdev-image-keyboard-response,502,1386354,learnblock2,547.5,img/planet5_left.png,5,Community 3,NA,TRUE,f,f,NA,NA,NA,3,6,"12,6,4,13,15,10,1,8,3,2,14,5,11,7,9"
14614,commdev-image-keyboard-response,503,1387613,learnblock2,679.8000000119209,img/planet8_left.png,8,Community 2,NA,TRUE,f,f,NA,NA,NA,3,6,"12,6,4,13,15,10,1,8,3,2,14,5,11,7,9"
14614,commdev-image-keyboard-response,504,1388868,learnblock2,557.8999999761581,img/planet1_right.png,1,Community 2,NA,TRUE,j,j,NA,NA,NA,3,6,"12,6,4,13,15,10,1,8,3,2,14,5,11,7,9"
14614,commdev-image-keyboard-response,505,1390126,learnblock2,562.1999999880791,img/planet3_left.png,3,Community 2,NA,TRUE,f,f,NA,NA,NA,3,6,"12,6,4,13,15,10,1,8,3,2,14,5,11,7,9"
14614,commdev-image-keyboard-response,506,1391384,learnblock2,619.0999999940395,img/planet1_right.png,1,Community 2,NA,TRUE,j,j,NA,NA,NA,3,6,"12,6,4,13,15,10,1,8,3,2,14,5,11,7,9"
14614,commdev-image-keyboard-response,507,1392642,learnblock2,552.6999999880791,img/planet3_left.png,3,Community 2,NA,TRUE,f,f,NA,NA,NA,3,6,"12,6,4,13,15,10,1,8,3,2,14,5,11,7,9"
14614,commdev-image-keyboard-response,508,1393897,learnblock2,540.8999999761581,img/planet8_left.png,8,Community 2,NA,TRUE,f,f,NA,NA,NA,3,6,"12,6,4,13,15,10,1,8,3,2,14,5,11,7,9"
14614,commdev-image-keyboard-response,509,1395157,learnblock2,609.6999999880791,img/planet3_right.png,3,Community 2,NA,TRUE,j,j,NA,NA,NA,3,6,"12,6,4,13,15,10,1,8,3,2,14,5,11,7,9"
14614,commdev-image-keyboard-response,510,1396411,learnblock2,520.5999999940395,img/planet2_left.png,2,Community 2,NA,TRUE,f,f,NA,NA,NA,3,6,"12,6,4,13,15,10,1,8,3,2,14,5,11,7,9"
14614,commdev-image-keyboard-response,511,1397669,learnblock2,534.5999999940395,img/planet1_left.png,1,Community 2,NA,TRUE,f,f,NA,NA,NA,3,6,"12,6,4,13,15,10,1,8,3,2,14,5,11,7,9"
14614,commdev-image-keyboard-response,512,1398927,learnblock2,481.69999998807907,img/planet2_left.png,2,Community 2,NA,TRUE,f,f,NA,NA,NA,3,6,"12,6,4,13,15,10,1,8,3,2,14,5,11,7,9"
14614,commdev-image-keyboard-response,513,1400182,learnblock2,538.2000000178814,img/planet10_right.png,10,Community 2,NA,TRUE,j,j,NA,NA,NA,3,6,"12,6,4,13,15,10,1,8,3,2,14,5,11,7,9"
14614,commdev-image-keyboard-response,514,1401438,learnblock2,585.6000000238419,img/planet3_right.png,3,Community 2,NA,TRUE,j,j,NA,NA,NA,3,6,"12,6,4,13,15,10,1,8,3,2,14,5,11,7,9"
14614,commdev-image-keyboard-response,515,1402701,learnblock2,531.8000000119209,img/planet10_right.png,10,Community 2,NA,TRUE,j,j,NA,NA,NA,3,6,"12,6,4,13,15,10,1,8,3,2,14,5,11,7,9"
14614,commdev-image-keyboard-response,516,1403959,learnblock2,541,img/planet1_right.png,1,Community 2,NA,TRUE,j,j,NA,NA,NA,3,6,"12,6,4,13,15,10,1,8,3,2,14,5,11,7,9"
14614,commdev-image-keyboard-response,517,1405217,learnblock2,446.59999999403954,img/planet2_right.png,2,Community 2,NA,TRUE,j,j,NA,NA,NA,3,6,"12,6,4,13,15,10,1,8,3,2,14,5,11,7,9"
14614,commdev-image-keyboard-response,518,1406477,learnblock2,630.0999999940395,img/planet10_right.png,10,Community 2,NA,TRUE,j,j,NA,NA,NA,3,6,"12,6,4,13,15,10,1,8,3,2,14,5,11,7,9"
14614,commdev-image-keyboard-response,519,1407737,learnblock2,711.4000000059605,img/planet13_right.png,13,Community 1,NA,TRUE,j,j,NA,NA,NA,3,6,"12,6,4,13,15,10,1,8,3,2,14,5,11,7,9"
14614,commdev-image-keyboard-response,520,1408990,learnblock2,601.5,img/planet12_left.png,12,Community 1,NA,TRUE,f,f,NA,NA,NA,3,6,"12,6,4,13,15,10,1,8,3,2,14,5,11,7,9"
14614,commdev-image-keyboard-response,521,1410245,learnblock2,631.7000000178814,img/planet13_left.png,13,Community 1,NA,TRUE,f,f,NA,NA,NA,3,6,"12,6,4,13,15,10,1,8,3,2,14,5,11,7,9"
14614,commdev-image-keyboard-response,522,1411512,learnblock2,649.4000000059605,img/planet12_left.png,12,Community 1,NA,TRUE,f,f,NA,NA,NA,3,6,"12,6,4,13,15,10,1,8,3,2,14,5,11,7,9"
14614,commdev-image-keyboard-response,523,1412766,learnblock2,713.1999999880791,img/planet6_right.png,6,Community 1,NA,TRUE,j,j,NA,NA,NA,3,6,"12,6,4,13,15,10,1,8,3,2,14,5,11,7,9"
14614,commdev-image-keyboard-response,524,1414027,learnblock2,604,img/planet15_left.png,15,Community 1,NA,TRUE,f,f,NA,NA,NA,3,6,"12,6,4,13,15,10,1,8,3,2,14,5,11,7,9"
14614,commdev-image-keyboard-response,525,1415280,learnblock2,543.0999999940395,img/planet14_right.png,14,Community 3,NA,TRUE,j,j,NA,NA,NA,3,6,"12,6,4,13,15,10,1,8,3,2,14,5,11,7,9"
14614,commdev-image-keyboard-response,526,1416538,learnblock2,535.6999999880791,img/planet11_left.png,11,Community 3,NA,TRUE,f,f,NA,NA,NA,3,6,"12,6,4,13,15,10,1,8,3,2,14,5,11,7,9"
14614,commdev-image-keyboard-response,527,1417802,learnblock2,703.7000000178814,img/planet14_left.png,14,Community 3,NA,TRUE,f,f,NA,NA,NA,3,6,"12,6,4,13,15,10,1,8,3,2,14,5,11,7,9"
14614,commdev-image-keyboard-response,528,1419060,learnblock2,564.2000000178814,img/planet9_right.png,9,Community 3,NA,TRUE,j,j,NA,NA,NA,3,6,"12,6,4,13,15,10,1,8,3,2,14,5,11,7,9"
14614,commdev-image-keyboard-response,529,1420327,learnblock2,773.3000000119209,img/planet7_right.png,7,Community 3,NA,TRUE,j,j,NA,NA,NA,3,6,"12,6,4,13,15,10,1,8,3,2,14,5,11,7,9"
14614,commdev-image-keyboard-response,530,1421580,learnblock2,690.0999999940395,img/planet14_right.png,14,Community 3,NA,TRUE,j,j,NA,NA,NA,3,6,"12,6,4,13,15,10,1,8,3,2,14,5,11,7,9"
14614,commdev-image-keyboard-response,531,1422849,learnblock2,714.3000000119209,img/planet9_left.png,9,Community 3,NA,TRUE,f,f,NA,NA,NA,3,6,"12,6,4,13,15,10,1,8,3,2,14,5,11,7,9"
14614,commdev-image-keyboard-response,532,1424105,learnblock2,689.5,img/planet11_left.png,11,Community 3,NA,TRUE,f,f,NA,NA,NA,3,6,"12,6,4,13,15,10,1,8,3,2,14,5,11,7,9"
14614,commdev-image-keyboard-response,533,1425358,learnblock2,660,img/planet7_left.png,7,Community 3,NA,TRUE,f,f,NA,NA,NA,3,6,"12,6,4,13,15,10,1,8,3,2,14,5,11,7,9"
14614,commdev-image-keyboard-response,534,1426615,learnblock2,676.4000000059605,img/planet5_right.png,5,Community 3,NA,TRUE,j,j,NA,NA,NA,3,6,"12,6,4,13,15,10,1,8,3,2,14,5,11,7,9"
14614,commdev-image-keyboard-response,535,1427869,learnblock2,594.8999999761581,img/planet8_right.png,8,Community 2,NA,TRUE,j,j,NA,NA,NA,3,6,"12,6,4,13,15,10,1,8,3,2,14,5,11,7,9"
14614,commdev-image-keyboard-response,536,1429143,learnblock2,499.40000000596046,img/planet2_right.png,2,Community 2,NA,TRUE,j,j,NA,NA,NA,3,6,"12,6,4,13,15,10,1,8,3,2,14,5,11,7,9"
14614,commdev-image-keyboard-response,537,1430411,learnblock2,633,img/planet3_left.png,3,Community 2,NA,TRUE,f,f,NA,NA,NA,3,6,"12,6,4,13,15,10,1,8,3,2,14,5,11,7,9"
14614,commdev-image-keyboard-response,538,1431664,learnblock2,510.80000001192093,img/planet2_left.png,2,Community 2,NA,TRUE,f,f,NA,NA,NA,3,6,"12,6,4,13,15,10,1,8,3,2,14,5,11,7,9"
14614,commdev-image-keyboard-response,539,1432925,learnblock2,545.6999999880791,img/planet10_right.png,10,Community 2,NA,TRUE,j,j,NA,NA,NA,3,6,"12,6,4,13,15,10,1,8,3,2,14,5,11,7,9"
14614,commdev-image-keyboard-response,540,1434179,learnblock2,584.4000000059605,img/planet13_right.png,13,Community 1,NA,TRUE,j,j,NA,NA,NA,3,6,"12,6,4,13,15,10,1,8,3,2,14,5,11,7,9"
14614,commdev-image-keyboard-response,541,1435436,learnblock2,587.8000000119209,img/planet10_right.png,10,Community 2,NA,TRUE,j,j,NA,NA,NA,3,6,"12,6,4,13,15,10,1,8,3,2,14,5,11,7,9"
14614,commdev-image-keyboard-response,542,1436692,learnblock2,651.0999999940395,img/planet3_left.png,3,Community 2,NA,TRUE,f,f,NA,NA,NA,3,6,"12,6,4,13,15,10,1,8,3,2,14,5,11,7,9"
14614,commdev-image-keyboard-response,543,1437949,learnblock2,668.5,img/planet2_right.png,2,Community 2,NA,TRUE,j,j,NA,NA,NA,3,6,"12,6,4,13,15,10,1,8,3,2,14,5,11,7,9"
14614,commdev-image-keyboard-response,544,1439213,learnblock2,505.80000001192093,img/planet10_right.png,10,Community 2,NA,TRUE,j,j,NA,NA,NA,3,6,"12,6,4,13,15,10,1,8,3,2,14,5,11,7,9"
14614,commdev-image-keyboard-response,545,1440465,learnblock2,438.90000000596046,img/planet2_right.png,2,Community 2,NA,TRUE,j,j,NA,NA,NA,3,6,"12,6,4,13,15,10,1,8,3,2,14,5,11,7,9"
14614,commdev-image-keyboard-response,546,1441721,learnblock2,657.9000000059605,img/planet3_right.png,3,Community 2,NA,TRUE,j,j,NA,NA,NA,3,6,"12,6,4,13,15,10,1,8,3,2,14,5,11,7,9"
14614,commdev-image-keyboard-response,547,1442979,learnblock2,481.2000000178814,img/planet2_left.png,2,Community 2,NA,FALSE,j,f,NA,NA,NA,3,6,"12,6,4,13,15,10,1,8,3,2,14,5,11,7,9"
14614,commdev-image-keyboard-response,548,1444238,learnblock2,674.5999999940395,img/planet10_left.png,10,Community 2,NA,TRUE,f,f,NA,NA,NA,3,6,"12,6,4,13,15,10,1,8,3,2,14,5,11,7,9"
14614,commdev-image-keyboard-response,549,1445494,learnblock2,643.8999999761581,img/planet2_right.png,2,Community 2,NA,TRUE,j,j,NA,NA,NA,3,6,"12,6,4,13,15,10,1,8,3,2,14,5,11,7,9"
14614,commdev-image-keyboard-response,550,1446751,learnblock2,532.3000000119209,img/planet10_left.png,10,Community 2,NA,FALSE,j,f,NA,NA,NA,3,6,"12,6,4,13,15,10,1,8,3,2,14,5,11,7,9"
14614,commdev-image-keyboard-response,551,1448008,learnblock2,919.9000000059605,img/planet3_right.png,3,Community 2,NA,TRUE,j,j,NA,NA,NA,3,6,"12,6,4,13,15,10,1,8,3,2,14,5,11,7,9"
14614,commdev-image-keyboard-response,552,1449266,learnblock2,533.5,img/planet10_left.png,10,Community 2,NA,TRUE,f,f,NA,NA,NA,3,6,"12,6,4,13,15,10,1,8,3,2,14,5,11,7,9"
14614,commdev-image-keyboard-response,553,1450523,learnblock2,779.2000000178814,img/planet3_left.png,3,Community 2,NA,TRUE,f,f,NA,NA,NA,3,6,"12,6,4,13,15,10,1,8,3,2,14,5,11,7,9"
14614,commdev-image-keyboard-response,554,1451792,learnblock2,586.7000000178814,img/planet10_left.png,10,Community 2,NA,TRUE,f,f,NA,NA,NA,3,6,"12,6,4,13,15,10,1,8,3,2,14,5,11,7,9"
14614,commdev-image-keyboard-response,555,1453051,learnblock2,815.1999999880791,img/planet3_left.png,3,Community 2,NA,TRUE,f,f,NA,NA,NA,3,6,"12,6,4,13,15,10,1,8,3,2,14,5,11,7,9"
14614,commdev-image-keyboard-response,556,1454308,learnblock2,577.6999999880791,img/planet10_right.png,10,Community 2,NA,TRUE,j,j,NA,NA,NA,3,6,"12,6,4,13,15,10,1,8,3,2,14,5,11,7,9"
14614,commdev-image-keyboard-response,557,1455562,learnblock2,660.7000000178814,img/planet2_left.png,2,Community 2,NA,TRUE,f,f,NA,NA,NA,3,6,"12,6,4,13,15,10,1,8,3,2,14,5,11,7,9"
14614,commdev-image-keyboard-response,558,1456820,learnblock2,709,img/planet1_right.png,1,Community 2,NA,TRUE,j,j,NA,NA,NA,3,6,"12,6,4,13,15,10,1,8,3,2,14,5,11,7,9"
14614,commdev-image-keyboard-response,559,1458086,learnblock2,1014.4000000059605,img/planet3_right.png,3,Community 2,NA,TRUE,j,j,NA,NA,NA,3,6,"12,6,4,13,15,10,1,8,3,2,14,5,11,7,9"
14614,commdev-image-keyboard-response,560,1459338,learnblock2,843.4000000059605,img/planet10_right.png,10,Community 2,NA,TRUE,j,j,NA,NA,NA,3,6,"12,6,4,13,15,10,1,8,3,2,14,5,11,7,9"
14614,commdev-image-keyboard-response,561,1460592,learnblock2,847.7999999821186,img/planet13_right.png,13,Community 1,NA,TRUE,j,j,NA,NA,NA,3,6,"12,6,4,13,15,10,1,8,3,2,14,5,11,7,9"
14614,commdev-image-keyboard-response,562,1461849,learnblock2,773.8999999761581,img/planet6_right.png,6,Community 1,NA,TRUE,j,j,NA,NA,NA,3,6,"12,6,4,13,15,10,1,8,3,2,14,5,11,7,9"
14614,commdev-image-keyboard-response,563,1463105,learnblock2,930.5,img/planet15_left.png,15,Community 1,NA,TRUE,f,f,NA,NA,NA,3,6,"12,6,4,13,15,10,1,8,3,2,14,5,11,7,9"
14614,commdev-image-keyboard-response,564,1464373,learnblock2,1110.9000000059605,img/planet4_left.png,4,Community 1,NA,TRUE,f,f,NA,NA,NA,3,6,"12,6,4,13,15,10,1,8,3,2,14,5,11,7,9"
14614,commdev-image-keyboard-response,565,1465629,learnblock2,808.6000000238419,img/planet13_right.png,13,Community 1,NA,TRUE,j,j,NA,NA,NA,3,6,"12,6,4,13,15,10,1,8,3,2,14,5,11,7,9"
14614,commdev-image-keyboard-response,566,1466882,learnblock2,789.5,img/planet6_right.png,6,Community 1,NA,TRUE,j,j,NA,NA,NA,3,6,"12,6,4,13,15,10,1,8,3,2,14,5,11,7,9"
14614,commdev-image-keyboard-response,567,1468135,learnblock2,705.2000000178814,img/planet15_right.png,15,Community 1,NA,TRUE,j,j,NA,NA,NA,3,6,"12,6,4,13,15,10,1,8,3,2,14,5,11,7,9"
14614,commdev-image-keyboard-response,568,1469390,learnblock2,677.9000000059605,img/planet14_left.png,14,Community 3,NA,TRUE,f,f,NA,NA,NA,3,6,"12,6,4,13,15,10,1,8,3,2,14,5,11,7,9"
14614,commdev-image-keyboard-response,569,1470644,learnblock2,920.8000000119209,img/planet11_right.png,11,Community 3,NA,TRUE,j,j,NA,NA,NA,3,6,"12,6,4,13,15,10,1,8,3,2,14,5,11,7,9"
14614,commdev-image-keyboard-response,570,1471904,learnblock2,674,img/planet14_left.png,14,Community 3,NA,TRUE,f,f,NA,NA,NA,3,6,"12,6,4,13,15,10,1,8,3,2,14,5,11,7,9"
14614,commdev-image-keyboard-response,571,1473160,learnblock2,623.7999999821186,img/planet9_right.png,9,Community 3,NA,TRUE,j,j,NA,NA,NA,3,6,"12,6,4,13,15,10,1,8,3,2,14,5,11,7,9"
14614,commdev-image-keyboard-response,572,1474415,learnblock2,680.5,img/planet7_left.png,7,Community 3,NA,TRUE,f,f,NA,NA,NA,3,6,"12,6,4,13,15,10,1,8,3,2,14,5,11,7,9"
14614,commdev-image-keyboard-response,573,1475673,learnblock2,645.0999999940395,img/planet9_left.png,9,Community 3,NA,TRUE,f,f,NA,NA,NA,3,6,"12,6,4,13,15,10,1,8,3,2,14,5,11,7,9"
14614,commdev-image-keyboard-response,574,1476951,learnblock2,616.2999999821186,img/planet7_right.png,7,Community 3,NA,TRUE,j,j,NA,NA,NA,3,6,"12,6,4,13,15,10,1,8,3,2,14,5,11,7,9"
14614,commdev-image-keyboard-response,575,1478207,learnblock2,1110.7999999821186,img/planet11_right.png,11,Community 3,NA,TRUE,j,j,NA,NA,NA,3,6,"12,6,4,13,15,10,1,8,3,2,14,5,11,7,9"
14614,commdev-image-keyboard-response,576,1479468,learnblock2,893.2000000178814,img/planet14_left.png,14,Community 3,NA,TRUE,f,f,NA,NA,NA,3,6,"12,6,4,13,15,10,1,8,3,2,14,5,11,7,9"
14614,commdev-image-keyboard-response,577,1480722,learnblock2,650.5,img/planet7_right.png,7,Community 3,NA,TRUE,j,j,NA,NA,NA,3,6,"12,6,4,13,15,10,1,8,3,2,14,5,11,7,9"
14614,commdev-image-keyboard-response,578,1481982,learnblock2,670,img/planet5_right.png,5,Community 3,NA,TRUE,j,j,NA,NA,NA,3,6,"12,6,4,13,15,10,1,8,3,2,14,5,11,7,9"
14614,commdev-image-keyboard-response,579,1483234,learnblock2,767.3000000119209,img/planet11_left.png,11,Community 3,NA,TRUE,f,f,NA,NA,NA,3,6,"12,6,4,13,15,10,1,8,3,2,14,5,11,7,9"
14614,commdev-image-keyboard-response,580,1484494,learnblock2,563.5,img/planet7_right.png,7,Community 3,NA,TRUE,j,j,NA,NA,NA,3,6,"12,6,4,13,15,10,1,8,3,2,14,5,11,7,9"
14614,commdev-image-keyboard-response,581,1485752,learnblock2,612.0999999940395,img/planet5_right.png,5,Community 3,NA,TRUE,j,j,NA,NA,NA,3,6,"12,6,4,13,15,10,1,8,3,2,14,5,11,7,9"
14614,commdev-image-keyboard-response,582,1487014,learnblock2,520.9000000059605,img/planet7_right.png,7,Community 3,NA,TRUE,j,j,NA,NA,NA,3,6,"12,6,4,13,15,10,1,8,3,2,14,5,11,7,9"
14614,commdev-image-keyboard-response,583,1488267,learnblock2,594.5,img/planet9_left.png,9,Community 3,NA,TRUE,f,f,NA,NA,NA,3,6,"12,6,4,13,15,10,1,8,3,2,14,5,11,7,9"
14614,commdev-image-keyboard-response,584,1489520,learnblock2,734.9000000059605,img/planet11_right.png,11,Community 3,NA,TRUE,j,j,NA,NA,NA,3,6,"12,6,4,13,15,10,1,8,3,2,14,5,11,7,9"
14614,commdev-image-keyboard-response,585,1490772,learnblock2,578.5,img/planet7_left.png,7,Community 3,NA,TRUE,f,f,NA,NA,NA,3,6,"12,6,4,13,15,10,1,8,3,2,14,5,11,7,9"
14614,commdev-image-keyboard-response,586,1492025,learnblock2,600.6999999880791,img/planet9_right.png,9,Community 3,NA,TRUE,j,j,NA,NA,NA,3,6,"12,6,4,13,15,10,1,8,3,2,14,5,11,7,9"
14614,commdev-image-keyboard-response,587,1493283,learnblock2,600,img/planet5_left.png,5,Community 3,NA,TRUE,f,f,NA,NA,NA,3,6,"12,6,4,13,15,10,1,8,3,2,14,5,11,7,9"
14614,commdev-image-keyboard-response,588,1494537,learnblock2,627,img/planet8_right.png,8,Community 2,NA,TRUE,j,j,NA,NA,NA,3,6,"12,6,4,13,15,10,1,8,3,2,14,5,11,7,9"
14614,commdev-image-keyboard-response,589,1495803,learnblock2,600.5,img/planet1_left.png,1,Community 2,NA,TRUE,f,f,NA,NA,NA,3,6,"12,6,4,13,15,10,1,8,3,2,14,5,11,7,9"
14614,commdev-image-keyboard-response,590,1497058,learnblock2,532.2999999821186,img/planet2_right.png,2,Community 2,NA,TRUE,j,j,NA,NA,NA,3,6,"12,6,4,13,15,10,1,8,3,2,14,5,11,7,9"
14614,commdev-image-keyboard-response,591,1498324,learnblock2,582.2999999821186,img/planet10_right.png,10,Community 2,NA,TRUE,j,j,NA,NA,NA,3,6,"12,6,4,13,15,10,1,8,3,2,14,5,11,7,9"
14614,commdev-image-keyboard-response,592,1499583,learnblock2,585,img/planet13_right.png,13,Community 1,NA,TRUE,j,j,NA,NA,NA,3,6,"12,6,4,13,15,10,1,8,3,2,14,5,11,7,9"
14614,commdev-image-keyboard-response,593,1500837,learnblock2,644.1999999880791,img/planet12_right.png,12,Community 1,NA,TRUE,j,j,NA,NA,NA,3,6,"12,6,4,13,15,10,1,8,3,2,14,5,11,7,9"
14614,commdev-image-keyboard-response,594,1502091,learnblock2,597.7000000178814,img/planet15_left.png,15,Community 1,NA,TRUE,f,f,NA,NA,NA,3,6,"12,6,4,13,15,10,1,8,3,2,14,5,11,7,9"
14614,commdev-image-keyboard-response,595,1503347,learnblock2,684,img/planet14_right.png,14,Community 3,NA,TRUE,j,j,NA,NA,NA,3,6,"12,6,4,13,15,10,1,8,3,2,14,5,11,7,9"
14614,commdev-image-keyboard-response,596,1504600,learnblock2,745.9000000059605,img/planet11_left.png,11,Community 3,NA,TRUE,f,f,NA,NA,NA,3,6,"12,6,4,13,15,10,1,8,3,2,14,5,11,7,9"
14614,commdev-image-keyboard-response,597,1505853,learnblock2,663.1000000238419,img/planet7_left.png,7,Community 3,NA,TRUE,f,f,NA,NA,NA,3,6,"12,6,4,13,15,10,1,8,3,2,14,5,11,7,9"
14614,commdev-image-keyboard-response,598,1507111,learnblock2,525.5999999940395,img/planet9_right.png,9,Community 3,NA,TRUE,j,j,NA,NA,NA,3,6,"12,6,4,13,15,10,1,8,3,2,14,5,11,7,9"
14614,commdev-image-keyboard-response,599,1508386,learnblock2,583.5999999940395,img/planet5_right.png,5,Community 3,NA,TRUE,j,j,NA,NA,NA,3,6,"12,6,4,13,15,10,1,8,3,2,14,5,11,7,9"
14614,commdev-image-keyboard-response,600,1509646,learnblock2,687,img/planet11_left.png,11,Community 3,NA,TRUE,f,f,NA,NA,NA,3,6,"12,6,4,13,15,10,1,8,3,2,14,5,11,7,9"
14614,commdev-image-keyboard-response,601,1510904,learnblock2,678.5999999940395,img/planet5_left.png,5,Community 3,NA,TRUE,f,f,NA,NA,NA,3,6,"12,6,4,13,15,10,1,8,3,2,14,5,11,7,9"
14614,commdev-image-keyboard-response,602,1512164,learnblock2,592.5,img/planet7_right.png,7,Community 3,NA,TRUE,j,j,NA,NA,NA,3,6,"12,6,4,13,15,10,1,8,3,2,14,5,11,7,9"
14614,commdev-image-keyboard-response,603,1513418,learnblock2,1106.2999999821186,img/planet11_right.png,11,Community 3,NA,TRUE,j,j,NA,NA,NA,3,6,"12,6,4,13,15,10,1,8,3,2,14,5,11,7,9"
14614,commdev-image-keyboard-response,604,1514678,learnblock2,588.5,img/planet9_left.png,9,Community 3,NA,TRUE,f,f,NA,NA,NA,3,6,"12,6,4,13,15,10,1,8,3,2,14,5,11,7,9"
14614,commdev-image-keyboard-response,605,1515940,learnblock2,619.7999999821186,img/planet11_left.png,11,Community 3,NA,TRUE,f,f,NA,NA,NA,3,6,"12,6,4,13,15,10,1,8,3,2,14,5,11,7,9"
14614,commdev-image-keyboard-response,606,1517200,learnblock2,641.9000000059605,img/planet9_right.png,9,Community 3,NA,TRUE,j,j,NA,NA,NA,3,6,"12,6,4,13,15,10,1,8,3,2,14,5,11,7,9"
14614,commdev-image-keyboard-response,607,1518459,learnblock2,616,img/planet11_right.png,11,Community 3,NA,TRUE,j,j,NA,NA,NA,3,6,"12,6,4,13,15,10,1,8,3,2,14,5,11,7,9"
14614,commdev-image-keyboard-response,608,1519718,learnblock2,555.6999999880791,img/planet14_left.png,14,Community 3,NA,TRUE,f,f,NA,NA,NA,3,6,"12,6,4,13,15,10,1,8,3,2,14,5,11,7,9"
14614,commdev-image-keyboard-response,609,1520974,learnblock2,623.5,img/planet9_left.png,9,Community 3,NA,TRUE,f,f,NA,NA,NA,3,6,"12,6,4,13,15,10,1,8,3,2,14,5,11,7,9"
14614,commdev-image-keyboard-response,610,1522230,learnblock2,733.3000000119209,img/planet14_right.png,14,Community 3,NA,TRUE,j,j,NA,NA,NA,3,6,"12,6,4,13,15,10,1,8,3,2,14,5,11,7,9"
14614,commdev-image-keyboard-response,611,1523487,learnblock2,618,img/planet11_right.png,11,Community 3,NA,TRUE,j,j,NA,NA,NA,3,6,"12,6,4,13,15,10,1,8,3,2,14,5,11,7,9"
14614,commdev-image-keyboard-response,612,1524742,learnblock2,903.0999999940395,img/planet7_right.png,7,Community 3,NA,TRUE,j,j,NA,NA,NA,3,6,"12,6,4,13,15,10,1,8,3,2,14,5,11,7,9"
14614,commdev-image-keyboard-response,613,1525997,learnblock2,707.5999999940395,img/planet14_left.png,14,Community 3,NA,TRUE,f,f,NA,NA,NA,3,6,"12,6,4,13,15,10,1,8,3,2,14,5,11,7,9"
14614,commdev-image-keyboard-response,614,1527259,learnblock2,527.4000000059605,img/planet9_left.png,9,Community 3,NA,TRUE,f,f,NA,NA,NA,3,6,"12,6,4,13,15,10,1,8,3,2,14,5,11,7,9"
14614,commdev-image-keyboard-response,615,1528513,learnblock2,795.5999999940395,img/planet5_right.png,5,Community 3,NA,TRUE,j,j,NA,NA,NA,3,6,"12,6,4,13,15,10,1,8,3,2,14,5,11,7,9"
14614,commdev-image-keyboard-response,616,1529766,learnblock2,644.5,img/planet9_right.png,9,Community 3,NA,FALSE,f,j,NA,NA,NA,3,6,"12,6,4,13,15,10,1,8,3,2,14,5,11,7,9"
14614,commdev-image-keyboard-response,617,1531024,learnblock2,787.2999999821186,img/planet11_left.png,11,Community 3,NA,TRUE,f,f,NA,NA,NA,3,6,"12,6,4,13,15,10,1,8,3,2,14,5,11,7,9"
14614,commdev-image-keyboard-response,618,1532282,learnblock2,1094.7999999821186,img/planet9_right.png,9,Community 3,NA,FALSE,f,j,NA,NA,NA,3,6,"12,6,4,13,15,10,1,8,3,2,14,5,11,7,9"
14614,commdev-image-keyboard-response,619,1533538,learnblock2,899.8999999761581,img/planet7_left.png,7,Community 3,NA,TRUE,f,f,NA,NA,NA,3,6,"12,6,4,13,15,10,1,8,3,2,14,5,11,7,9"
14614,commdev-image-keyboard-response,620,1534795,learnblock2,695.5,img/planet9_left.png,9,Community 3,NA,TRUE,f,f,NA,NA,NA,3,6,"12,6,4,13,15,10,1,8,3,2,14,5,11,7,9"
14614,commdev-image-keyboard-response,621,1536051,learnblock2,685.9000000059605,img/planet11_left.png,11,Community 3,NA,TRUE,f,f,NA,NA,NA,3,6,"12,6,4,13,15,10,1,8,3,2,14,5,11,7,9"
14614,commdev-image-keyboard-response,622,1537314,learnblock2,628.4000000059605,img/planet5_left.png,5,Community 3,NA,TRUE,f,f,NA,NA,NA,3,6,"12,6,4,13,15,10,1,8,3,2,14,5,11,7,9"
14614,commdev-image-keyboard-response,623,1538569,learnblock2,709.7999999821186,img/planet8_left.png,8,Community 2,NA,TRUE,f,f,NA,NA,NA,3,6,"12,6,4,13,15,10,1,8,3,2,14,5,11,7,9"
14614,commdev-image-keyboard-response,624,1539843,learnblock2,603,img/planet2_right.png,2,Community 2,NA,TRUE,j,j,NA,NA,NA,3,6,"12,6,4,13,15,10,1,8,3,2,14,5,11,7,9"
14614,commdev-image-keyboard-response,625,1541099,learnblock2,565.3000000119209,img/planet10_right.png,10,Community 2,NA,TRUE,j,j,NA,NA,NA,3,6,"12,6,4,13,15,10,1,8,3,2,14,5,11,7,9"
14614,commdev-image-keyboard-response,626,1542361,learnblock2,506.69999998807907,img/planet13_left.png,13,Community 1,NA,FALSE,j,f,NA,NA,NA,3,6,"12,6,4,13,15,10,1,8,3,2,14,5,11,7,9"
14614,commdev-image-keyboard-response,627,1543619,learnblock2,891.9000000059605,img/planet4_right.png,4,Community 1,NA,TRUE,j,j,NA,NA,NA,3,6,"12,6,4,13,15,10,1,8,3,2,14,5,11,7,9"
14614,commdev-image-keyboard-response,628,1544885,learnblock2,631.5,img/planet13_left.png,13,Community 1,NA,TRUE,f,f,NA,NA,NA,3,6,"12,6,4,13,15,10,1,8,3,2,14,5,11,7,9"
14614,commdev-image-keyboard-response,629,1546143,learnblock2,760.5999999940395,img/planet10_left.png,10,Community 2,NA,TRUE,f,f,NA,NA,NA,3,6,"12,6,4,13,15,10,1,8,3,2,14,5,11,7,9"
14614,commdev-image-keyboard-response,630,1547413,learnblock2,622.5,img/planet3_right.png,3,Community 2,NA,TRUE,j,j,NA,NA,NA,3,6,"12,6,4,13,15,10,1,8,3,2,14,5,11,7,9"
14614,commdev-image-keyboard-response,631,1548672,learnblock2,619.5999999940395,img/planet8_left.png,8,Community 2,NA,TRUE,f,f,NA,NA,NA,3,6,"12,6,4,13,15,10,1,8,3,2,14,5,11,7,9"
14614,commdev-image-keyboard-response,632,1549940,learnblock2,672.2999999821186,img/planet3_right.png,3,Community 2,NA,TRUE,j,j,NA,NA,NA,3,6,"12,6,4,13,15,10,1,8,3,2,14,5,11,7,9"
14614,commdev-image-keyboard-response,633,1551193,learnblock2,665.1000000238419,img/planet10_right.png,10,Community 2,NA,TRUE,j,j,NA,NA,NA,3,6,"12,6,4,13,15,10,1,8,3,2,14,5,11,7,9"
14614,commdev-image-keyboard-response,634,1552451,learnblock2,824.8999999761581,img/planet2_right.png,2,Community 2,NA,TRUE,j,j,NA,NA,NA,3,6,"12,6,4,13,15,10,1,8,3,2,14,5,11,7,9"
14614,commdev-image-keyboard-response,635,1553719,learnblock2,683.1999999880791,img/planet3_left.png,3,Community 2,NA,TRUE,f,f,NA,NA,NA,3,6,"12,6,4,13,15,10,1,8,3,2,14,5,11,7,9"
14614,commdev-image-keyboard-response,636,1554984,learnblock2,624.4000000059605,img/planet1_right.png,1,Community 2,NA,TRUE,j,j,NA,NA,NA,3,6,"12,6,4,13,15,10,1,8,3,2,14,5,11,7,9"
14614,commdev-image-keyboard-response,637,1556238,learnblock2,677.3000000119209,img/planet8_left.png,8,Community 2,NA,TRUE,f,f,NA,NA,NA,3,6,"12,6,4,13,15,10,1,8,3,2,14,5,11,7,9"
14614,commdev-image-keyboard-response,638,1557494,learnblock2,628.9000000059605,img/planet3_right.png,3,Community 2,NA,TRUE,j,j,NA,NA,NA,3,6,"12,6,4,13,15,10,1,8,3,2,14,5,11,7,9"
14614,commdev-image-keyboard-response,639,1558752,learnblock2,588.4000000059605,img/planet1_left.png,1,Community 2,NA,TRUE,f,f,NA,NA,NA,3,6,"12,6,4,13,15,10,1,8,3,2,14,5,11,7,9"
14614,commdev-image-keyboard-response,640,1560005,learnblock2,644.4000000059605,img/planet10_right.png,10,Community 2,NA,TRUE,j,j,NA,NA,NA,3,6,"12,6,4,13,15,10,1,8,3,2,14,5,11,7,9"
14614,commdev-image-keyboard-response,641,1561263,learnblock2,856.1000000238419,img/planet13_right.png,13,Community 1,NA,TRUE,j,j,NA,NA,NA,3,6,"12,6,4,13,15,10,1,8,3,2,14,5,11,7,9"
14614,commdev-image-keyboard-response,642,1562520,learnblock2,553,img/planet4_right.png,4,Community 1,NA,TRUE,j,j,NA,NA,NA,3,6,"12,6,4,13,15,10,1,8,3,2,14,5,11,7,9"
