subject_id,trial_type,trial_index,time_elapsed,block,rt,stimulus,planet,community,response,correct,key_press,learning_correct_response,parse,init_locations,final_locations,browser_interactions,num_comp,planet_map
15205,commdev-instructions,7,29524,NA,3088.20000000007,"<p>In this game, you are a scientist on board a space shuttle. </p><p> On each mission, you will visit planets all across the universe.</p><img src=""img/controlroom.jpg"" width=300vw>",NA,NA,NA,NA,NA,NA,NA,NA,NA,9,6,"15,1,13,2,11,12,4,5,6,8,7,10,14,3,9"
15205,commdev-instructions,8,32694,NA,1098.9000000000233,"<p>Here are a few planets you might see:</p><img src=""img/practice1.png"" width=200vw><img src=""img/practice2.png"" width=200vw><img src=""img/practice3.png"" width=200vw>",NA,NA,NA,NA,NA,NA,NA,NA,NA,9,6,"15,1,13,2,11,12,4,5,6,8,7,10,14,3,9"
15205,commdev-instructions,9,42036,NA,1940.0999999999767,"<p>Your job as a scientist is to record which direction the winds are moving on each planet.</p><p>There are two types of wind directions:</p><img src=""img/practice1_left.png"" width=200vw><img src=""img/practice1_right.png"" width=200vw>",NA,NA,NA,NA,NA,NA,NA,NA,NA,9,6,"15,1,13,2,11,12,4,5,6,8,7,10,14,3,9"
15205,commdev-instructions,10,48832,NA,1904.0999999999767,"<p>If the winds are moving this way, press the letter <strong>F</strong> on the keyboard as fast as you can.</p><img src=""img/leftwind.png"" width=250vw>",NA,NA,NA,NA,NA,NA,NA,NA,NA,9,6,"15,1,13,2,11,12,4,5,6,8,7,10,14,3,9"
15205,commdev-instructions,11,54738,NA,1409.6000000000931,"<p>If the winds are moving this way, press the letter <strong>J</strong> on the keyboard as fast as you can.</p><img src=""img/rightwind.png"" width=350vw>",NA,NA,NA,NA,NA,NA,NA,NA,NA,9,6,"15,1,13,2,11,12,4,5,6,8,7,10,14,3,9"
15205,commdev-instructions,12,60986,NA,1827.3000000000466,<p>You will have 1 second to respond. Try to respond before the time runs out!,NA,NA,NA,NA,NA,NA,NA,NA,NA,9,6,"15,1,13,2,11,12,4,5,6,8,7,10,14,3,9"
15205,commdev-instructions,13,68270,NA,1843.1999999999534,<p>The planets you will visit will look different from each other.</p><p>You should respond <strong>only</strong> based on wind direction.,NA,NA,NA,NA,NA,NA,NA,NA,NA,9,6,"15,1,13,2,11,12,4,5,6,8,7,10,14,3,9"
15205,commdev-instructions,14,74677,NA,1227.5,"<p> Ready to start the practice round? </p><p> Remember, press <strong>F</strong> or <strong>J</strong> depending on the wind direction.<br><img src=""img/categorize_planet_example.png""",NA,NA,NA,NA,NA,NA,NA,NA,NA,9,6,"15,1,13,2,11,12,4,5,6,8,7,10,14,3,9"
15205,commdev-instructions,26,128451,NA,1257.5,"<p>Great, now try a short practice mission. </p><p> This time, you will have 1 second to respond and you won't know whether you pressed the right or wrong key for each planet.</p>",NA,NA,NA,NA,NA,NA,NA,NA,NA,9,6,"15,1,13,2,11,12,4,5,6,8,7,10,14,3,9"
15205,commdev-image-keyboard-response,27,129819,practice,null,img/practice1_right.png,NA,Number not found in mappings,NA,FALSE,null,j,NA,NA,NA,9,6,"15,1,13,2,11,12,4,5,6,8,7,10,14,3,9"
15205,commdev-image-keyboard-response,28,131074,practice,1041.1000000000931,img/practice3_right.png,NA,Number not found in mappings,NA,FALSE,f,j,NA,NA,NA,9,6,"15,1,13,2,11,12,4,5,6,8,7,10,14,3,9"
15205,commdev-image-keyboard-response,29,132334,practice,656.3000000000466,img/practice2_left.png,NA,Number not found in mappings,NA,FALSE,j,f,NA,NA,NA,9,6,"15,1,13,2,11,12,4,5,6,8,7,10,14,3,9"
15205,commdev-image-keyboard-response,30,133597,practice,528.5999999999767,img/practice4_left.png,NA,Number not found in mappings,NA,FALSE,j,f,NA,NA,NA,9,6,"15,1,13,2,11,12,4,5,6,8,7,10,14,3,9"
15205,commdev-image-keyboard-response,31,134859,practice,402.69999999995343,img/practice1_left.png,NA,Number not found in mappings,NA,FALSE,j,f,NA,NA,NA,9,6,"15,1,13,2,11,12,4,5,6,8,7,10,14,3,9"
15205,commdev-image-keyboard-response,32,136119,practice,443.0999999999767,img/practice4_left.png,NA,Number not found in mappings,NA,FALSE,j,f,NA,NA,NA,9,6,"15,1,13,2,11,12,4,5,6,8,7,10,14,3,9"
15205,commdev-image-keyboard-response,33,137372,practice,691.2999999999302,img/practice2_left.png,NA,Number not found in mappings,NA,FALSE,j,f,NA,NA,NA,9,6,"15,1,13,2,11,12,4,5,6,8,7,10,14,3,9"
15205,commdev-image-keyboard-response,34,138630,practice,655.5,img/practice1_left.png,NA,Number not found in mappings,NA,FALSE,j,f,NA,NA,NA,9,6,"15,1,13,2,11,12,4,5,6,8,7,10,14,3,9"
15205,commdev-instructions,35,149969,NA,1795.6000000000931,"<p>Great job with the practice round.</p><p>During real missions, you won't know whether you pressed the right or wrong key for each planet.</p><p>But between missions, we will tell you how you did overall.</p>",NA,NA,NA,NA,NA,NA,NA,NA,NA,9,6,"15,1,13,2,11,12,4,5,6,8,7,10,14,3,9"
15205,commdev-instructions,36,159257,NA,1032.7999999999302,<p>Try your best! You will be paid a bonus based on how many correct responses you make!</p><p>Responses that are too slow will not count toward your bonus.</p>,NA,NA,NA,NA,NA,NA,NA,NA,NA,9,6,"15,1,13,2,11,12,4,5,6,8,7,10,14,3,9"
15205,commdev-instructions,37,166056,NA,590.5,"<p>You are almost ready to start the real game.</p><p> First, we are going to ask you some questions about how the game works.</p>",NA,NA,NA,NA,NA,NA,NA,NA,NA,9,6,"15,1,13,2,11,12,4,5,6,8,7,10,14,3,9"
15205,commdev-instructions,46,251092,NA,5910.5,"<p> Nice work! It is now time to start the real game.<p></p>You will go on two missions to record wind directions of different planets.<p></p>Each one will take about 5 minutes. You will get to take a break between missions.<p><p> Remember, press <strong>F</strong> or <strong>J</strong> depending on the wind direction. Good luck!<br><img src=""img/categorize_planet_example.png""",NA,NA,NA,NA,NA,NA,NA,NA,NA,9,6,"15,1,13,2,11,12,4,5,6,8,7,10,14,3,9"
15205,commdev-image-keyboard-response,48,256982,learnblock1,909.5,img/planet9_left.png,9,Community 3,NA,TRUE,f,f,NA,NA,NA,9,6,"15,1,13,2,11,12,4,5,6,8,7,10,14,3,9"
15205,commdev-image-keyboard-response,49,258236,learnblock1,null,img/planet10_right.png,10,Community 3,NA,FALSE,null,j,NA,NA,NA,9,6,"15,1,13,2,11,12,4,5,6,8,7,10,14,3,9"
15205,commdev-image-keyboard-response,50,259504,learnblock1,519.1999999999534,img/planet14_left.png,14,Community 3,NA,FALSE,j,f,NA,NA,NA,9,6,"15,1,13,2,11,12,4,5,6,8,7,10,14,3,9"
15205,commdev-image-keyboard-response,51,260760,learnblock1,922.3000000000466,img/planet10_right.png,10,Community 3,NA,FALSE,f,j,NA,NA,NA,9,6,"15,1,13,2,11,12,4,5,6,8,7,10,14,3,9"
15205,commdev-image-keyboard-response,52,262018,learnblock1,823.1999999999534,img/planet9_right.png,9,Community 3,NA,TRUE,j,j,NA,NA,NA,9,6,"15,1,13,2,11,12,4,5,6,8,7,10,14,3,9"
15205,commdev-image-keyboard-response,53,263276,learnblock1,631.8000000000466,img/planet10_left.png,10,Community 3,NA,TRUE,f,f,NA,NA,NA,9,6,"15,1,13,2,11,12,4,5,6,8,7,10,14,3,9"
15205,commdev-image-keyboard-response,54,264536,learnblock1,492.0999999998603,img/planet14_right.png,14,Community 3,NA,TRUE,j,j,NA,NA,NA,9,6,"15,1,13,2,11,12,4,5,6,8,7,10,14,3,9"
15205,commdev-image-keyboard-response,55,265790,learnblock1,740.1000000000931,img/planet9_left.png,9,Community 3,NA,TRUE,f,f,NA,NA,NA,9,6,"15,1,13,2,11,12,4,5,6,8,7,10,14,3,9"
15205,commdev-image-keyboard-response,56,267052,learnblock1,535.0999999998603,img/planet3_right.png,3,Community 3,NA,TRUE,j,j,NA,NA,NA,9,6,"15,1,13,2,11,12,4,5,6,8,7,10,14,3,9"
15205,commdev-image-keyboard-response,57,268306,learnblock1,897.3000000000466,img/planet14_left.png,14,Community 3,NA,FALSE,j,f,NA,NA,NA,9,6,"15,1,13,2,11,12,4,5,6,8,7,10,14,3,9"
15205,commdev-image-keyboard-response,58,269559,learnblock1,null,img/planet3_right.png,3,Community 3,NA,FALSE,null,j,NA,NA,NA,9,6,"15,1,13,2,11,12,4,5,6,8,7,10,14,3,9"
15205,commdev-image-keyboard-response,59,270813,learnblock1,103.69999999995343,img/planet9_left.png,9,Community 3,NA,TRUE,f,f,NA,NA,NA,9,6,"15,1,13,2,11,12,4,5,6,8,7,10,14,3,9"
15205,commdev-image-keyboard-response,60,272078,learnblock1,1155.3000000000466,img/planet3_right.png,3,Community 3,NA,FALSE,f,j,NA,NA,NA,9,6,"15,1,13,2,11,12,4,5,6,8,7,10,14,3,9"
15205,commdev-image-keyboard-response,61,273343,learnblock1,995.9000000001397,img/planet9_left.png,9,Community 3,NA,FALSE,j,f,NA,NA,NA,9,6,"15,1,13,2,11,12,4,5,6,8,7,10,14,3,9"
15205,commdev-image-keyboard-response,62,274604,learnblock1,756.3999999999069,img/planet10_right.png,10,Community 3,NA,TRUE,j,j,NA,NA,NA,9,6,"15,1,13,2,11,12,4,5,6,8,7,10,14,3,9"
15205,commdev-image-keyboard-response,63,275863,learnblock1,null,img/planet5_left.png,5,Community 2,NA,FALSE,null,f,NA,NA,NA,9,6,"15,1,13,2,11,12,4,5,6,8,7,10,14,3,9"
15205,commdev-image-keyboard-response,64,277120,learnblock1,728.6000000000931,img/planet6_right.png,6,Community 2,NA,TRUE,j,j,NA,NA,NA,9,6,"15,1,13,2,11,12,4,5,6,8,7,10,14,3,9"
15205,commdev-image-keyboard-response,65,278377,learnblock1,764.3000000000466,img/planet4_right.png,4,Community 2,NA,TRUE,j,j,NA,NA,NA,9,6,"15,1,13,2,11,12,4,5,6,8,7,10,14,3,9"
15205,commdev-image-keyboard-response,66,279648,learnblock1,775.3000000000466,img/planet12_left.png,12,Community 2,NA,TRUE,f,f,NA,NA,NA,9,6,"15,1,13,2,11,12,4,5,6,8,7,10,14,3,9"
15205,commdev-image-keyboard-response,67,280909,learnblock1,666.1000000000931,img/planet4_right.png,4,Community 2,NA,TRUE,j,j,NA,NA,NA,9,6,"15,1,13,2,11,12,4,5,6,8,7,10,14,3,9"
15205,commdev-image-keyboard-response,68,282162,learnblock1,750.3999999999069,img/planet12_left.png,12,Community 2,NA,TRUE,f,f,NA,NA,NA,9,6,"15,1,13,2,11,12,4,5,6,8,7,10,14,3,9"
15205,commdev-image-keyboard-response,69,283418,learnblock1,836.6000000000931,img/planet4_left.png,4,Community 2,NA,TRUE,f,f,NA,NA,NA,9,6,"15,1,13,2,11,12,4,5,6,8,7,10,14,3,9"
15205,commdev-image-keyboard-response,70,284672,learnblock1,797,img/planet6_left.png,6,Community 2,NA,TRUE,f,f,NA,NA,NA,9,6,"15,1,13,2,11,12,4,5,6,8,7,10,14,3,9"
15205,commdev-image-keyboard-response,71,285935,learnblock1,653.5,img/planet12_left.png,12,Community 2,NA,TRUE,f,f,NA,NA,NA,9,6,"15,1,13,2,11,12,4,5,6,8,7,10,14,3,9"
15205,commdev-image-keyboard-response,72,287193,learnblock1,678.5999999998603,img/planet8_left.png,8,Community 2,NA,TRUE,f,f,NA,NA,NA,9,6,"15,1,13,2,11,12,4,5,6,8,7,10,14,3,9"
15205,commdev-image-keyboard-response,73,288459,learnblock1,689.0999999998603,img/planet4_right.png,4,Community 2,NA,TRUE,j,j,NA,NA,NA,9,6,"15,1,13,2,11,12,4,5,6,8,7,10,14,3,9"
15205,commdev-image-keyboard-response,74,289724,learnblock1,725.6000000000931,img/planet5_left.png,5,Community 2,NA,TRUE,f,f,NA,NA,NA,9,6,"15,1,13,2,11,12,4,5,6,8,7,10,14,3,9"
15205,commdev-image-keyboard-response,75,290976,learnblock1,669.2000000001863,img/planet4_right.png,4,Community 2,NA,TRUE,j,j,NA,NA,NA,9,6,"15,1,13,2,11,12,4,5,6,8,7,10,14,3,9"
15205,commdev-image-keyboard-response,76,292244,learnblock1,747.1000000000931,img/planet5_right.png,5,Community 2,NA,TRUE,j,j,NA,NA,NA,9,6,"15,1,13,2,11,12,4,5,6,8,7,10,14,3,9"
15205,commdev-image-keyboard-response,77,293511,learnblock1,650.8000000000466,img/planet10_right.png,10,Community 3,NA,TRUE,j,j,NA,NA,NA,9,6,"15,1,13,2,11,12,4,5,6,8,7,10,14,3,9"
15205,commdev-image-keyboard-response,78,294765,learnblock1,707.9000000001397,img/planet3_left.png,3,Community 3,NA,TRUE,f,f,NA,NA,NA,9,6,"15,1,13,2,11,12,4,5,6,8,7,10,14,3,9"
15205,commdev-image-keyboard-response,79,296020,learnblock1,750.6999999999534,img/planet10_right.png,10,Community 3,NA,TRUE,j,j,NA,NA,NA,9,6,"15,1,13,2,11,12,4,5,6,8,7,10,14,3,9"
15205,commdev-image-keyboard-response,80,297284,learnblock1,576.5999999998603,img/planet9_right.png,9,Community 3,NA,TRUE,j,j,NA,NA,NA,9,6,"15,1,13,2,11,12,4,5,6,8,7,10,14,3,9"
15205,commdev-image-keyboard-response,81,298544,learnblock1,832.7000000001863,img/planet7_left.png,7,Community 3,NA,TRUE,f,f,NA,NA,NA,9,6,"15,1,13,2,11,12,4,5,6,8,7,10,14,3,9"
15205,commdev-image-keyboard-response,82,299806,learnblock1,1107.6000000000931,img/planet14_left.png,14,Community 3,NA,TRUE,f,f,NA,NA,NA,9,6,"15,1,13,2,11,12,4,5,6,8,7,10,14,3,9"
15205,commdev-image-keyboard-response,83,301066,learnblock1,967.5,img/planet9_left.png,9,Community 3,NA,TRUE,f,f,NA,NA,NA,9,6,"15,1,13,2,11,12,4,5,6,8,7,10,14,3,9"
15205,commdev-image-keyboard-response,84,302333,learnblock1,744.3000000000466,img/planet3_right.png,3,Community 3,NA,TRUE,j,j,NA,NA,NA,9,6,"15,1,13,2,11,12,4,5,6,8,7,10,14,3,9"
15205,commdev-image-keyboard-response,85,303593,learnblock1,803.5,img/planet10_left.png,10,Community 3,NA,TRUE,f,f,NA,NA,NA,9,6,"15,1,13,2,11,12,4,5,6,8,7,10,14,3,9"
15205,commdev-image-keyboard-response,86,304853,learnblock1,661.3000000000466,img/planet14_right.png,14,Community 3,NA,TRUE,j,j,NA,NA,NA,9,6,"15,1,13,2,11,12,4,5,6,8,7,10,14,3,9"
15205,commdev-image-keyboard-response,87,306112,learnblock1,621.5,img/planet3_left.png,3,Community 3,NA,FALSE,j,f,NA,NA,NA,9,6,"15,1,13,2,11,12,4,5,6,8,7,10,14,3,9"
15205,commdev-image-keyboard-response,88,307367,learnblock1,null,img/planet14_left.png,14,Community 3,NA,FALSE,null,f,NA,NA,NA,9,6,"15,1,13,2,11,12,4,5,6,8,7,10,14,3,9"
15205,commdev-image-keyboard-response,89,308623,learnblock1,83,img/planet9_right.png,9,Community 3,NA,FALSE,f,j,NA,NA,NA,9,6,"15,1,13,2,11,12,4,5,6,8,7,10,14,3,9"
15205,commdev-image-keyboard-response,90,309880,learnblock1,863.3999999999069,img/planet10_left.png,10,Community 3,NA,TRUE,f,f,NA,NA,NA,9,6,"15,1,13,2,11,12,4,5,6,8,7,10,14,3,9"
15205,commdev-image-keyboard-response,91,311140,learnblock1,921.6000000000931,img/planet14_left.png,14,Community 3,NA,TRUE,f,f,NA,NA,NA,9,6,"15,1,13,2,11,12,4,5,6,8,7,10,14,3,9"
15205,commdev-image-keyboard-response,92,312397,learnblock1,772.8999999999069,img/planet3_left.png,3,Community 3,NA,TRUE,f,f,NA,NA,NA,9,6,"15,1,13,2,11,12,4,5,6,8,7,10,14,3,9"
15205,commdev-image-keyboard-response,93,313665,learnblock1,629.5,img/planet9_right.png,9,Community 3,NA,TRUE,j,j,NA,NA,NA,9,6,"15,1,13,2,11,12,4,5,6,8,7,10,14,3,9"
15205,commdev-image-keyboard-response,94,314931,learnblock1,991.4000000001397,img/planet10_right.png,10,Community 3,NA,TRUE,j,j,NA,NA,NA,9,6,"15,1,13,2,11,12,4,5,6,8,7,10,14,3,9"
15205,commdev-image-keyboard-response,95,316191,learnblock1,768.5999999998603,img/planet5_right.png,5,Community 2,NA,TRUE,j,j,NA,NA,NA,9,6,"15,1,13,2,11,12,4,5,6,8,7,10,14,3,9"
15205,commdev-image-keyboard-response,96,317451,learnblock1,871.7999999998137,img/planet4_right.png,4,Community 2,NA,TRUE,j,j,NA,NA,NA,9,6,"15,1,13,2,11,12,4,5,6,8,7,10,14,3,9"
15205,commdev-image-keyboard-response,97,318710,learnblock1,914.5999999998603,img/planet8_left.png,8,Community 2,NA,TRUE,f,f,NA,NA,NA,9,6,"15,1,13,2,11,12,4,5,6,8,7,10,14,3,9"
15205,commdev-image-keyboard-response,98,319967,learnblock1,626.3000000000466,img/planet12_right.png,12,Community 2,NA,FALSE,f,j,NA,NA,NA,9,6,"15,1,13,2,11,12,4,5,6,8,7,10,14,3,9"
15205,commdev-image-keyboard-response,99,321232,learnblock1,634.5,img/planet6_right.png,6,Community 2,NA,FALSE,f,j,NA,NA,NA,9,6,"15,1,13,2,11,12,4,5,6,8,7,10,14,3,9"
15205,commdev-image-keyboard-response,100,322495,learnblock1,null,img/planet4_left.png,4,Community 2,NA,FALSE,null,f,NA,NA,NA,9,6,"15,1,13,2,11,12,4,5,6,8,7,10,14,3,9"
15205,commdev-image-keyboard-response,101,323762,learnblock1,687.5,img/planet6_left.png,6,Community 2,NA,TRUE,f,f,NA,NA,NA,9,6,"15,1,13,2,11,12,4,5,6,8,7,10,14,3,9"
15205,commdev-image-keyboard-response,102,325023,learnblock1,532.3000000000466,img/planet12_right.png,12,Community 2,NA,TRUE,j,j,NA,NA,NA,9,6,"15,1,13,2,11,12,4,5,6,8,7,10,14,3,9"
15205,commdev-image-keyboard-response,103,326278,learnblock1,694.3000000000466,img/planet8_left.png,8,Community 2,NA,TRUE,f,f,NA,NA,NA,9,6,"15,1,13,2,11,12,4,5,6,8,7,10,14,3,9"
15205,commdev-image-keyboard-response,104,327546,learnblock1,639.8999999999069,img/planet4_left.png,4,Community 2,NA,TRUE,f,f,NA,NA,NA,9,6,"15,1,13,2,11,12,4,5,6,8,7,10,14,3,9"
15205,commdev-image-keyboard-response,105,328799,learnblock1,731.1000000000931,img/planet5_right.png,5,Community 2,NA,TRUE,j,j,NA,NA,NA,9,6,"15,1,13,2,11,12,4,5,6,8,7,10,14,3,9"
15205,commdev-image-keyboard-response,106,330060,learnblock1,801.2000000001863,img/planet4_right.png,4,Community 2,NA,TRUE,j,j,NA,NA,NA,9,6,"15,1,13,2,11,12,4,5,6,8,7,10,14,3,9"
15205,commdev-image-keyboard-response,107,331319,learnblock1,856.8000000000466,img/planet8_left.png,8,Community 2,NA,TRUE,f,f,NA,NA,NA,9,6,"15,1,13,2,11,12,4,5,6,8,7,10,14,3,9"
15205,commdev-image-keyboard-response,108,332578,learnblock1,857.5,img/planet12_right.png,12,Community 2,NA,TRUE,j,j,NA,NA,NA,9,6,"15,1,13,2,11,12,4,5,6,8,7,10,14,3,9"
15205,commdev-image-keyboard-response,109,333833,learnblock1,636,img/planet2_left.png,2,Community 1,NA,TRUE,f,f,NA,NA,NA,9,6,"15,1,13,2,11,12,4,5,6,8,7,10,14,3,9"
15205,commdev-image-keyboard-response,110,335091,learnblock1,473.80000000004657,img/planet12_right.png,12,Community 2,NA,TRUE,j,j,NA,NA,NA,9,6,"15,1,13,2,11,12,4,5,6,8,7,10,14,3,9"
15205,commdev-image-keyboard-response,111,336346,learnblock1,902.3000000000466,img/planet6_left.png,6,Community 2,NA,TRUE,f,f,NA,NA,NA,9,6,"15,1,13,2,11,12,4,5,6,8,7,10,14,3,9"
15205,commdev-image-keyboard-response,112,337612,learnblock1,630.1999999999534,img/planet4_left.png,4,Community 2,NA,TRUE,f,f,NA,NA,NA,9,6,"15,1,13,2,11,12,4,5,6,8,7,10,14,3,9"
15205,commdev-image-keyboard-response,113,338876,learnblock1,766,img/planet12_right.png,12,Community 2,NA,TRUE,j,j,NA,NA,NA,9,6,"15,1,13,2,11,12,4,5,6,8,7,10,14,3,9"
15205,commdev-image-keyboard-response,114,340137,learnblock1,846.8000000000466,img/planet6_left.png,6,Community 2,NA,TRUE,f,f,NA,NA,NA,9,6,"15,1,13,2,11,12,4,5,6,8,7,10,14,3,9"
15205,commdev-image-keyboard-response,115,341401,learnblock1,666.8999999999069,img/planet5_right.png,5,Community 2,NA,TRUE,j,j,NA,NA,NA,9,6,"15,1,13,2,11,12,4,5,6,8,7,10,14,3,9"
15205,commdev-image-keyboard-response,116,342663,learnblock1,755.1999999999534,img/planet6_right.png,6,Community 2,NA,TRUE,j,j,NA,NA,NA,9,6,"15,1,13,2,11,12,4,5,6,8,7,10,14,3,9"
15205,commdev-image-keyboard-response,117,343929,learnblock1,633.0999999998603,img/planet5_right.png,5,Community 2,NA,TRUE,j,j,NA,NA,NA,9,6,"15,1,13,2,11,12,4,5,6,8,7,10,14,3,9"
15205,commdev-image-keyboard-response,118,345183,learnblock1,827.5999999998603,img/planet4_left.png,4,Community 2,NA,TRUE,f,f,NA,NA,NA,9,6,"15,1,13,2,11,12,4,5,6,8,7,10,14,3,9"
15205,commdev-image-keyboard-response,119,346449,learnblock1,927.5,img/planet8_right.png,8,Community 2,NA,TRUE,j,j,NA,NA,NA,9,6,"15,1,13,2,11,12,4,5,6,8,7,10,14,3,9"
15205,commdev-image-keyboard-response,120,347702,learnblock1,724.5,img/planet5_left.png,5,Community 2,NA,TRUE,f,f,NA,NA,NA,9,6,"15,1,13,2,11,12,4,5,6,8,7,10,14,3,9"
15205,commdev-image-keyboard-response,121,348960,learnblock1,765.0999999998603,img/planet6_left.png,6,Community 2,NA,TRUE,f,f,NA,NA,NA,9,6,"15,1,13,2,11,12,4,5,6,8,7,10,14,3,9"
15205,commdev-image-keyboard-response,122,350220,learnblock1,820.4000000001397,img/planet5_right.png,5,Community 2,NA,TRUE,j,j,NA,NA,NA,9,6,"15,1,13,2,11,12,4,5,6,8,7,10,14,3,9"
15205,commdev-image-keyboard-response,123,351474,learnblock1,1155.8999999999069,img/planet10_left.png,10,Community 3,NA,TRUE,f,f,NA,NA,NA,9,6,"15,1,13,2,11,12,4,5,6,8,7,10,14,3,9"
15205,commdev-image-keyboard-response,124,352732,learnblock1,748.6999999999534,img/planet5_right.png,5,Community 2,NA,TRUE,j,j,NA,NA,NA,9,6,"15,1,13,2,11,12,4,5,6,8,7,10,14,3,9"
15205,commdev-image-keyboard-response,125,353993,learnblock1,1072.3000000000466,img/planet6_right.png,6,Community 2,NA,TRUE,j,j,NA,NA,NA,9,6,"15,1,13,2,11,12,4,5,6,8,7,10,14,3,9"
15205,commdev-image-keyboard-response,126,355251,learnblock1,867,img/planet8_left.png,8,Community 2,NA,TRUE,f,f,NA,NA,NA,9,6,"15,1,13,2,11,12,4,5,6,8,7,10,14,3,9"
15205,commdev-image-keyboard-response,127,356508,learnblock1,1052.5999999998603,img/planet6_right.png,6,Community 2,NA,TRUE,j,j,NA,NA,NA,9,6,"15,1,13,2,11,12,4,5,6,8,7,10,14,3,9"
15205,commdev-image-keyboard-response,128,357763,learnblock1,840.2000000001863,img/planet5_left.png,5,Community 2,NA,TRUE,f,f,NA,NA,NA,9,6,"15,1,13,2,11,12,4,5,6,8,7,10,14,3,9"
15205,commdev-image-keyboard-response,129,359017,learnblock1,1164.7999999998137,img/planet8_left.png,8,Community 2,NA,TRUE,f,f,NA,NA,NA,9,6,"15,1,13,2,11,12,4,5,6,8,7,10,14,3,9"
15205,commdev-image-keyboard-response,130,360275,learnblock1,901.8999999999069,img/planet5_left.png,5,Community 2,NA,TRUE,f,f,NA,NA,NA,9,6,"15,1,13,2,11,12,4,5,6,8,7,10,14,3,9"
15205,commdev-image-keyboard-response,131,361531,learnblock1,633.5999999998603,img/planet4_left.png,4,Community 2,NA,TRUE,f,f,NA,NA,NA,9,6,"15,1,13,2,11,12,4,5,6,8,7,10,14,3,9"
15205,commdev-image-keyboard-response,132,362796,learnblock1,590.6999999999534,img/planet12_right.png,12,Community 2,NA,TRUE,j,j,NA,NA,NA,9,6,"15,1,13,2,11,12,4,5,6,8,7,10,14,3,9"
15205,commdev-image-keyboard-response,133,364061,learnblock1,882.1000000000931,img/planet2_left.png,2,Community 1,NA,TRUE,f,f,NA,NA,NA,9,6,"15,1,13,2,11,12,4,5,6,8,7,10,14,3,9"
15205,commdev-image-keyboard-response,134,365314,learnblock1,1122.3999999999069,img/planet13_right.png,13,Community 1,NA,TRUE,j,j,NA,NA,NA,9,6,"15,1,13,2,11,12,4,5,6,8,7,10,14,3,9"
15205,commdev-image-keyboard-response,135,366570,learnblock1,726.0999999998603,img/planet11_left.png,11,Community 1,NA,TRUE,f,f,NA,NA,NA,9,6,"15,1,13,2,11,12,4,5,6,8,7,10,14,3,9"
15205,commdev-image-keyboard-response,136,367835,learnblock1,932.7999999998137,img/planet15_left.png,15,Community 1,NA,TRUE,f,f,NA,NA,NA,9,6,"15,1,13,2,11,12,4,5,6,8,7,10,14,3,9"
15205,commdev-image-keyboard-response,137,369100,learnblock1,808.1999999999534,img/planet2_left.png,2,Community 1,NA,TRUE,f,f,NA,NA,NA,9,6,"15,1,13,2,11,12,4,5,6,8,7,10,14,3,9"
15205,commdev-image-keyboard-response,138,370364,learnblock1,580.8999999999069,img/planet15_right.png,15,Community 1,NA,TRUE,j,j,NA,NA,NA,9,6,"15,1,13,2,11,12,4,5,6,8,7,10,14,3,9"
15205,commdev-image-keyboard-response,139,371620,learnblock1,1146.8999999999069,img/planet11_left.png,11,Community 1,NA,FALSE,j,f,NA,NA,NA,9,6,"15,1,13,2,11,12,4,5,6,8,7,10,14,3,9"
15205,commdev-image-keyboard-response,140,372878,learnblock1,1116.5,img/planet7_left.png,7,Community 3,NA,TRUE,f,f,NA,NA,NA,9,6,"15,1,13,2,11,12,4,5,6,8,7,10,14,3,9"
15205,commdev-image-keyboard-response,141,374146,learnblock1,831.3000000000466,img/planet14_right.png,14,Community 3,NA,TRUE,j,j,NA,NA,NA,9,6,"15,1,13,2,11,12,4,5,6,8,7,10,14,3,9"
15205,commdev-image-keyboard-response,142,375399,learnblock1,null,img/planet7_right.png,7,Community 3,NA,FALSE,null,j,NA,NA,NA,9,6,"15,1,13,2,11,12,4,5,6,8,7,10,14,3,9"
15205,commdev-image-keyboard-response,143,376663,learnblock1,133,img/planet9_right.png,9,Community 3,NA,TRUE,j,j,NA,NA,NA,9,6,"15,1,13,2,11,12,4,5,6,8,7,10,14,3,9"
15205,commdev-image-keyboard-response,144,377929,learnblock1,698.0999999998603,img/planet10_right.png,10,Community 3,NA,TRUE,j,j,NA,NA,NA,9,6,"15,1,13,2,11,12,4,5,6,8,7,10,14,3,9"
15205,commdev-image-keyboard-response,145,379184,learnblock1,641.8999999999069,img/planet3_left.png,3,Community 3,NA,TRUE,f,f,NA,NA,NA,9,6,"15,1,13,2,11,12,4,5,6,8,7,10,14,3,9"
15205,commdev-image-keyboard-response,146,380440,learnblock1,822.9000000001397,img/planet7_right.png,7,Community 3,NA,TRUE,j,j,NA,NA,NA,9,6,"15,1,13,2,11,12,4,5,6,8,7,10,14,3,9"
15205,commdev-image-keyboard-response,147,381709,learnblock1,650.1999999999534,img/planet3_left.png,3,Community 3,NA,TRUE,f,f,NA,NA,NA,9,6,"15,1,13,2,11,12,4,5,6,8,7,10,14,3,9"
15205,commdev-image-keyboard-response,148,382967,learnblock1,561.6000000000931,img/planet9_right.png,9,Community 3,NA,TRUE,j,j,NA,NA,NA,9,6,"15,1,13,2,11,12,4,5,6,8,7,10,14,3,9"
15205,commdev-image-keyboard-response,149,384225,learnblock1,1059.3000000000466,img/planet3_right.png,3,Community 3,NA,TRUE,j,j,NA,NA,NA,9,6,"15,1,13,2,11,12,4,5,6,8,7,10,14,3,9"
15205,commdev-image-keyboard-response,150,385478,learnblock1,1118.1000000000931,img/planet14_right.png,14,Community 3,NA,TRUE,j,j,NA,NA,NA,9,6,"15,1,13,2,11,12,4,5,6,8,7,10,14,3,9"
15205,commdev-image-keyboard-response,151,386736,learnblock1,1048.2999999998137,img/planet10_left.png,10,Community 3,NA,TRUE,f,f,NA,NA,NA,9,6,"15,1,13,2,11,12,4,5,6,8,7,10,14,3,9"
15205,commdev-image-keyboard-response,152,387996,learnblock1,833.8999999999069,img/planet9_right.png,9,Community 3,NA,TRUE,j,j,NA,NA,NA,9,6,"15,1,13,2,11,12,4,5,6,8,7,10,14,3,9"
15205,commdev-image-keyboard-response,153,389252,learnblock1,838.1000000000931,img/planet14_right.png,14,Community 3,NA,TRUE,j,j,NA,NA,NA,9,6,"15,1,13,2,11,12,4,5,6,8,7,10,14,3,9"
15205,commdev-image-keyboard-response,154,390506,learnblock1,729.1999999999534,img/planet3_right.png,3,Community 3,NA,TRUE,j,j,NA,NA,NA,9,6,"15,1,13,2,11,12,4,5,6,8,7,10,14,3,9"
15205,commdev-image-keyboard-response,155,391762,learnblock1,826.3999999999069,img/planet14_left.png,14,Community 3,NA,TRUE,f,f,NA,NA,NA,9,6,"15,1,13,2,11,12,4,5,6,8,7,10,14,3,9"
15205,commdev-image-keyboard-response,156,393021,learnblock1,864.8999999999069,img/planet9_left.png,9,Community 3,NA,TRUE,f,f,NA,NA,NA,9,6,"15,1,13,2,11,12,4,5,6,8,7,10,14,3,9"
15205,commdev-image-keyboard-response,157,394273,learnblock1,768.8999999999069,img/planet7_left.png,7,Community 3,NA,TRUE,f,f,NA,NA,NA,9,6,"15,1,13,2,11,12,4,5,6,8,7,10,14,3,9"
15205,commdev-image-keyboard-response,158,395528,learnblock1,714,img/planet9_left.png,9,Community 3,NA,TRUE,f,f,NA,NA,NA,9,6,"15,1,13,2,11,12,4,5,6,8,7,10,14,3,9"
15205,commdev-image-keyboard-response,159,396783,learnblock1,865.3000000000466,img/planet14_left.png,14,Community 3,NA,TRUE,f,f,NA,NA,NA,9,6,"15,1,13,2,11,12,4,5,6,8,7,10,14,3,9"
15205,commdev-image-keyboard-response,160,398041,learnblock1,780.3000000000466,img/planet3_right.png,3,Community 3,NA,TRUE,j,j,NA,NA,NA,9,6,"15,1,13,2,11,12,4,5,6,8,7,10,14,3,9"
15205,commdev-image-keyboard-response,161,399296,learnblock1,1205.3000000000466,img/planet7_left.png,7,Community 3,NA,TRUE,f,f,NA,NA,NA,9,6,"15,1,13,2,11,12,4,5,6,8,7,10,14,3,9"
15205,commdev-image-keyboard-response,162,400549,learnblock1,895,img/planet11_right.png,11,Community 1,NA,TRUE,j,j,NA,NA,NA,9,6,"15,1,13,2,11,12,4,5,6,8,7,10,14,3,9"
15205,commdev-image-keyboard-response,163,401813,learnblock1,773.4000000001397,img/planet15_left.png,15,Community 1,NA,TRUE,f,f,NA,NA,NA,9,6,"15,1,13,2,11,12,4,5,6,8,7,10,14,3,9"
15205,commdev-image-keyboard-response,164,403069,learnblock1,731.5,img/planet2_left.png,2,Community 1,NA,TRUE,f,f,NA,NA,NA,9,6,"15,1,13,2,11,12,4,5,6,8,7,10,14,3,9"
15205,commdev-image-keyboard-response,165,404329,learnblock1,611,img/planet13_right.png,13,Community 1,NA,TRUE,j,j,NA,NA,NA,9,6,"15,1,13,2,11,12,4,5,6,8,7,10,14,3,9"
15205,commdev-image-keyboard-response,166,405598,learnblock1,1033.6999999999534,img/planet1_left.png,1,Community 1,NA,FALSE,j,f,NA,NA,NA,9,6,"15,1,13,2,11,12,4,5,6,8,7,10,14,3,9"
15205,commdev-image-keyboard-response,167,406856,learnblock1,1181.5,img/planet2_left.png,2,Community 1,NA,TRUE,f,f,NA,NA,NA,9,6,"15,1,13,2,11,12,4,5,6,8,7,10,14,3,9"
15205,commdev-image-keyboard-response,168,408116,learnblock1,null,img/planet13_left.png,13,Community 1,NA,FALSE,null,f,NA,NA,NA,9,6,"15,1,13,2,11,12,4,5,6,8,7,10,14,3,9"
15205,commdev-image-keyboard-response,169,409376,learnblock1,350.89999999990687,img/planet11_left.png,11,Community 1,NA,TRUE,f,f,NA,NA,NA,9,6,"15,1,13,2,11,12,4,5,6,8,7,10,14,3,9"
15205,commdev-image-keyboard-response,170,410632,learnblock1,715.2999999998137,img/planet13_left.png,13,Community 1,NA,TRUE,f,f,NA,NA,NA,9,6,"15,1,13,2,11,12,4,5,6,8,7,10,14,3,9"
15205,commdev-image-keyboard-response,171,411889,learnblock1,725.4000000001397,img/planet1_right.png,1,Community 1,NA,TRUE,j,j,NA,NA,NA,9,6,"15,1,13,2,11,12,4,5,6,8,7,10,14,3,9"
15205,commdev-image-keyboard-response,172,413148,learnblock1,646.1000000000931,img/planet13_left.png,13,Community 1,NA,TRUE,f,f,NA,NA,NA,9,6,"15,1,13,2,11,12,4,5,6,8,7,10,14,3,9"
15205,commdev-image-keyboard-response,173,414408,learnblock1,832.6000000000931,img/planet15_right.png,15,Community 1,NA,FALSE,f,j,NA,NA,NA,9,6,"15,1,13,2,11,12,4,5,6,8,7,10,14,3,9"
15205,commdev-image-keyboard-response,174,415671,learnblock1,906,img/planet11_right.png,11,Community 1,NA,TRUE,j,j,NA,NA,NA,9,6,"15,1,13,2,11,12,4,5,6,8,7,10,14,3,9"
15205,commdev-image-keyboard-response,175,416934,learnblock1,884.6000000000931,img/planet1_right.png,1,Community 1,NA,TRUE,j,j,NA,NA,NA,9,6,"15,1,13,2,11,12,4,5,6,8,7,10,14,3,9"
15205,commdev-image-keyboard-response,176,418198,learnblock1,872.6999999999534,img/planet13_right.png,13,Community 1,NA,TRUE,j,j,NA,NA,NA,9,6,"15,1,13,2,11,12,4,5,6,8,7,10,14,3,9"
15205,commdev-image-keyboard-response,177,419464,learnblock1,734.5999999998603,img/planet1_right.png,1,Community 1,NA,TRUE,j,j,NA,NA,NA,9,6,"15,1,13,2,11,12,4,5,6,8,7,10,14,3,9"
15205,commdev-image-keyboard-response,178,420720,learnblock1,718,img/planet2_left.png,2,Community 1,NA,TRUE,f,f,NA,NA,NA,9,6,"15,1,13,2,11,12,4,5,6,8,7,10,14,3,9"
15205,commdev-image-keyboard-response,179,421987,learnblock1,610.3000000000466,img/planet12_right.png,12,Community 2,NA,TRUE,j,j,NA,NA,NA,9,6,"15,1,13,2,11,12,4,5,6,8,7,10,14,3,9"
15205,commdev-image-keyboard-response,180,423244,learnblock1,null,img/planet8_right.png,8,Community 2,NA,FALSE,null,j,NA,NA,NA,9,6,"15,1,13,2,11,12,4,5,6,8,7,10,14,3,9"
15205,commdev-image-keyboard-response,181,424505,learnblock1,140.0999999998603,img/planet6_left.png,6,Community 2,NA,FALSE,j,f,NA,NA,NA,9,6,"15,1,13,2,11,12,4,5,6,8,7,10,14,3,9"
15205,commdev-image-keyboard-response,182,425766,learnblock1,1064.5,img/planet8_left.png,8,Community 2,NA,TRUE,f,f,NA,NA,NA,9,6,"15,1,13,2,11,12,4,5,6,8,7,10,14,3,9"
15205,commdev-image-keyboard-response,183,427016,learnblock1,1054.8999999999069,img/planet4_left.png,4,Community 2,NA,TRUE,f,f,NA,NA,NA,9,6,"15,1,13,2,11,12,4,5,6,8,7,10,14,3,9"
15205,commdev-image-keyboard-response,184,428268,learnblock1,1127.9000000001397,img/planet8_right.png,8,Community 2,NA,TRUE,j,j,NA,NA,NA,9,6,"15,1,13,2,11,12,4,5,6,8,7,10,14,3,9"
15205,commdev-image-keyboard-response,185,429528,learnblock1,995.5999999998603,img/planet4_left.png,4,Community 2,NA,TRUE,f,f,NA,NA,NA,9,6,"15,1,13,2,11,12,4,5,6,8,7,10,14,3,9"
15205,commdev-image-keyboard-response,186,430782,learnblock1,537.7999999998137,img/planet12_right.png,12,Community 2,NA,TRUE,j,j,NA,NA,NA,9,6,"15,1,13,2,11,12,4,5,6,8,7,10,14,3,9"
15205,commdev-image-keyboard-response,187,432046,learnblock1,682.3999999999069,img/planet4_left.png,4,Community 2,NA,TRUE,f,f,NA,NA,NA,9,6,"15,1,13,2,11,12,4,5,6,8,7,10,14,3,9"
15205,commdev-image-keyboard-response,188,433302,learnblock1,521.1000000000931,img/planet12_left.png,12,Community 2,NA,FALSE,j,f,NA,NA,NA,9,6,"15,1,13,2,11,12,4,5,6,8,7,10,14,3,9"
15205,commdev-image-keyboard-response,189,434557,learnblock1,null,img/planet8_right.png,8,Community 2,NA,FALSE,null,j,NA,NA,NA,9,6,"15,1,13,2,11,12,4,5,6,8,7,10,14,3,9"
15205,commdev-image-keyboard-response,190,435812,learnblock1,77.69999999995343,img/planet4_right.png,4,Community 2,NA,TRUE,j,j,NA,NA,NA,9,6,"15,1,13,2,11,12,4,5,6,8,7,10,14,3,9"
15205,commdev-image-keyboard-response,191,437078,learnblock1,647.6999999999534,img/planet5_right.png,5,Community 2,NA,TRUE,j,j,NA,NA,NA,9,6,"15,1,13,2,11,12,4,5,6,8,7,10,14,3,9"
15205,commdev-image-keyboard-response,192,438331,learnblock1,624.7999999998137,img/planet10_right.png,10,Community 3,NA,TRUE,j,j,NA,NA,NA,9,6,"15,1,13,2,11,12,4,5,6,8,7,10,14,3,9"
15205,commdev-image-keyboard-response,193,439585,learnblock1,485,img/planet5_right.png,5,Community 2,NA,TRUE,j,j,NA,NA,NA,9,6,"15,1,13,2,11,12,4,5,6,8,7,10,14,3,9"
15205,commdev-image-keyboard-response,194,440846,learnblock1,739.5,img/planet10_left.png,10,Community 3,NA,TRUE,f,f,NA,NA,NA,9,6,"15,1,13,2,11,12,4,5,6,8,7,10,14,3,9"
15205,commdev-image-keyboard-response,195,442106,learnblock1,514.8000000000466,img/planet9_left.png,9,Community 3,NA,TRUE,f,f,NA,NA,NA,9,6,"15,1,13,2,11,12,4,5,6,8,7,10,14,3,9"
15205,commdev-image-keyboard-response,196,443362,learnblock1,780.8000000000466,img/planet3_left.png,3,Community 3,NA,TRUE,f,f,NA,NA,NA,9,6,"15,1,13,2,11,12,4,5,6,8,7,10,14,3,9"
15205,commdev-image-keyboard-response,197,444628,learnblock1,518,img/planet7_right.png,7,Community 3,NA,FALSE,f,j,NA,NA,NA,9,6,"15,1,13,2,11,12,4,5,6,8,7,10,14,3,9"
15205,commdev-image-keyboard-response,198,445888,learnblock1,84,img/planet3_right.png,3,Community 3,NA,TRUE,j,j,NA,NA,NA,9,6,"15,1,13,2,11,12,4,5,6,8,7,10,14,3,9"
15205,commdev-image-keyboard-response,199,447148,learnblock1,785.1000000000931,img/planet14_left.png,14,Community 3,NA,TRUE,f,f,NA,NA,NA,9,6,"15,1,13,2,11,12,4,5,6,8,7,10,14,3,9"
15205,commdev-image-keyboard-response,200,448403,learnblock1,535.2000000001863,img/planet10_right.png,10,Community 3,NA,TRUE,j,j,NA,NA,NA,9,6,"15,1,13,2,11,12,4,5,6,8,7,10,14,3,9"
15205,commdev-image-keyboard-response,201,449657,learnblock1,774.1000000000931,img/planet5_left.png,5,Community 2,NA,TRUE,f,f,NA,NA,NA,9,6,"15,1,13,2,11,12,4,5,6,8,7,10,14,3,9"
15205,commdev-image-keyboard-response,202,450911,learnblock1,855.5,img/planet4_left.png,4,Community 2,NA,TRUE,f,f,NA,NA,NA,9,6,"15,1,13,2,11,12,4,5,6,8,7,10,14,3,9"
15205,commdev-image-keyboard-response,203,452166,learnblock1,655.9000000001397,img/planet6_right.png,6,Community 2,NA,TRUE,j,j,NA,NA,NA,9,6,"15,1,13,2,11,12,4,5,6,8,7,10,14,3,9"
15205,commdev-image-keyboard-response,204,453433,learnblock1,797.7000000001863,img/planet4_left.png,4,Community 2,NA,TRUE,f,f,NA,NA,NA,9,6,"15,1,13,2,11,12,4,5,6,8,7,10,14,3,9"
15205,commdev-image-keyboard-response,205,454694,learnblock1,697.6999999999534,img/planet12_left.png,12,Community 2,NA,TRUE,f,f,NA,NA,NA,9,6,"15,1,13,2,11,12,4,5,6,8,7,10,14,3,9"
15205,commdev-image-keyboard-response,206,455955,learnblock1,674.6999999999534,img/planet2_left.png,2,Community 1,NA,TRUE,f,f,NA,NA,NA,9,6,"15,1,13,2,11,12,4,5,6,8,7,10,14,3,9"
15205,commdev-image-keyboard-response,207,457213,learnblock1,703.2999999998137,img/planet13_right.png,13,Community 1,NA,TRUE,j,j,NA,NA,NA,9,6,"15,1,13,2,11,12,4,5,6,8,7,10,14,3,9"
15205,commdev-image-keyboard-response,208,458468,learnblock1,875.5,img/planet15_right.png,15,Community 1,NA,TRUE,j,j,NA,NA,NA,9,6,"15,1,13,2,11,12,4,5,6,8,7,10,14,3,9"
15205,commdev-image-keyboard-response,209,459731,learnblock1,759.7000000001863,img/planet13_left.png,13,Community 1,NA,TRUE,f,f,NA,NA,NA,9,6,"15,1,13,2,11,12,4,5,6,8,7,10,14,3,9"
15205,commdev-image-keyboard-response,210,460989,learnblock1,928.5999999998603,img/planet1_left.png,1,Community 1,NA,TRUE,f,f,NA,NA,NA,9,6,"15,1,13,2,11,12,4,5,6,8,7,10,14,3,9"
15205,commdev-image-keyboard-response,211,462249,learnblock1,1066.6999999999534,img/planet15_right.png,15,Community 1,NA,TRUE,j,j,NA,NA,NA,9,6,"15,1,13,2,11,12,4,5,6,8,7,10,14,3,9"
15205,commdev-image-keyboard-response,212,463506,learnblock1,941.8000000000466,img/planet2_left.png,2,Community 1,NA,TRUE,f,f,NA,NA,NA,9,6,"15,1,13,2,11,12,4,5,6,8,7,10,14,3,9"
15205,commdev-image-keyboard-response,213,464761,learnblock1,767.5999999998603,img/planet1_right.png,1,Community 1,NA,TRUE,j,j,NA,NA,NA,9,6,"15,1,13,2,11,12,4,5,6,8,7,10,14,3,9"
15205,commdev-image-keyboard-response,214,466015,learnblock1,1158,img/planet11_left.png,11,Community 1,NA,TRUE,f,f,NA,NA,NA,9,6,"15,1,13,2,11,12,4,5,6,8,7,10,14,3,9"
15205,commdev-image-keyboard-response,215,467271,learnblock1,1027.1999999999534,img/planet1_left.png,1,Community 1,NA,TRUE,f,f,NA,NA,NA,9,6,"15,1,13,2,11,12,4,5,6,8,7,10,14,3,9"
15205,commdev-image-keyboard-response,216,468535,learnblock1,779.0999999998603,img/planet2_right.png,2,Community 1,NA,TRUE,j,j,NA,NA,NA,9,6,"15,1,13,2,11,12,4,5,6,8,7,10,14,3,9"
15205,commdev-image-keyboard-response,217,469800,learnblock1,848.8999999999069,img/planet12_right.png,12,Community 2,NA,TRUE,j,j,NA,NA,NA,9,6,"15,1,13,2,11,12,4,5,6,8,7,10,14,3,9"
15205,commdev-image-keyboard-response,218,471061,learnblock1,690.4000000001397,img/planet4_right.png,4,Community 2,NA,TRUE,j,j,NA,NA,NA,9,6,"15,1,13,2,11,12,4,5,6,8,7,10,14,3,9"
15205,commdev-image-keyboard-response,219,472314,learnblock1,697.9000000001397,img/planet12_right.png,12,Community 2,NA,TRUE,j,j,NA,NA,NA,9,6,"15,1,13,2,11,12,4,5,6,8,7,10,14,3,9"
15205,commdev-image-keyboard-response,220,473574,learnblock1,848.1000000000931,img/planet8_right.png,8,Community 2,NA,FALSE,f,j,NA,NA,NA,9,6,"15,1,13,2,11,12,4,5,6,8,7,10,14,3,9"
15205,commdev-image-keyboard-response,221,474840,learnblock1,1016.1999999999534,img/planet5_right.png,5,Community 2,NA,TRUE,j,j,NA,NA,NA,9,6,"15,1,13,2,11,12,4,5,6,8,7,10,14,3,9"
15205,commdev-image-keyboard-response,222,476101,learnblock1,923.1000000000931,img/planet4_right.png,4,Community 2,NA,TRUE,j,j,NA,NA,NA,9,6,"15,1,13,2,11,12,4,5,6,8,7,10,14,3,9"
15205,commdev-image-keyboard-response,223,477353,learnblock1,774.1999999999534,img/planet12_right.png,12,Community 2,NA,TRUE,j,j,NA,NA,NA,9,6,"15,1,13,2,11,12,4,5,6,8,7,10,14,3,9"
15205,commdev-image-keyboard-response,224,478606,learnblock1,862.3999999999069,img/planet6_left.png,6,Community 2,NA,TRUE,f,f,NA,NA,NA,9,6,"15,1,13,2,11,12,4,5,6,8,7,10,14,3,9"
15205,commdev-image-keyboard-response,225,479862,learnblock1,870.8000000000466,img/planet5_left.png,5,Community 2,NA,TRUE,f,f,NA,NA,NA,9,6,"15,1,13,2,11,12,4,5,6,8,7,10,14,3,9"
15205,commdev-image-keyboard-response,226,481116,learnblock1,570.0999999998603,img/planet6_left.png,6,Community 2,NA,TRUE,f,f,NA,NA,NA,9,6,"15,1,13,2,11,12,4,5,6,8,7,10,14,3,9"
15205,commdev-image-keyboard-response,227,482367,learnblock1,532.5999999998603,img/planet12_left.png,12,Community 2,NA,TRUE,f,f,NA,NA,NA,9,6,"15,1,13,2,11,12,4,5,6,8,7,10,14,3,9"
15205,commdev-image-keyboard-response,228,483623,learnblock1,648.5999999998603,img/planet4_left.png,4,Community 2,NA,TRUE,f,f,NA,NA,NA,9,6,"15,1,13,2,11,12,4,5,6,8,7,10,14,3,9"
15205,commdev-image-keyboard-response,229,484887,learnblock1,521,img/planet5_right.png,5,Community 2,NA,FALSE,f,j,NA,NA,NA,9,6,"15,1,13,2,11,12,4,5,6,8,7,10,14,3,9"
15205,commdev-image-keyboard-response,230,486141,learnblock1,989.1999999999534,img/planet8_left.png,8,Community 2,NA,TRUE,f,f,NA,NA,NA,9,6,"15,1,13,2,11,12,4,5,6,8,7,10,14,3,9"
15205,commdev-image-keyboard-response,231,487412,learnblock1,1084.5,img/planet5_left.png,5,Community 2,NA,TRUE,f,f,NA,NA,NA,9,6,"15,1,13,2,11,12,4,5,6,8,7,10,14,3,9"
15205,commdev-image-keyboard-response,232,488666,learnblock1,825.8000000000466,img/planet6_left.png,6,Community 2,NA,TRUE,f,f,NA,NA,NA,9,6,"15,1,13,2,11,12,4,5,6,8,7,10,14,3,9"
15205,commdev-image-keyboard-response,233,489920,learnblock1,778.6000000000931,img/planet8_right.png,8,Community 2,NA,TRUE,j,j,NA,NA,NA,9,6,"15,1,13,2,11,12,4,5,6,8,7,10,14,3,9"
15205,commdev-image-keyboard-response,234,491176,learnblock1,810.8000000000466,img/planet4_left.png,4,Community 2,NA,TRUE,f,f,NA,NA,NA,9,6,"15,1,13,2,11,12,4,5,6,8,7,10,14,3,9"
15205,commdev-image-keyboard-response,235,492428,learnblock1,1037.8000000000466,img/planet8_right.png,8,Community 2,NA,TRUE,j,j,NA,NA,NA,9,6,"15,1,13,2,11,12,4,5,6,8,7,10,14,3,9"
15205,commdev-image-keyboard-response,236,493681,learnblock1,1213.1000000000931,img/planet5_left.png,5,Community 2,NA,TRUE,f,f,NA,NA,NA,9,6,"15,1,13,2,11,12,4,5,6,8,7,10,14,3,9"
15205,commdev-image-keyboard-response,237,494938,learnblock1,977.1999999999534,img/planet8_right.png,8,Community 2,NA,TRUE,j,j,NA,NA,NA,9,6,"15,1,13,2,11,12,4,5,6,8,7,10,14,3,9"
15205,commdev-image-keyboard-response,238,496200,learnblock1,900.5,img/planet4_left.png,4,Community 2,NA,TRUE,f,f,NA,NA,NA,9,6,"15,1,13,2,11,12,4,5,6,8,7,10,14,3,9"
15205,commdev-image-keyboard-response,239,497457,learnblock1,601.7999999998137,img/planet6_right.png,6,Community 2,NA,TRUE,j,j,NA,NA,NA,9,6,"15,1,13,2,11,12,4,5,6,8,7,10,14,3,9"
15205,commdev-image-keyboard-response,240,498718,learnblock1,519.6999999999534,img/planet5_left.png,5,Community 2,NA,TRUE,f,f,NA,NA,NA,9,6,"15,1,13,2,11,12,4,5,6,8,7,10,14,3,9"
15205,commdev-image-keyboard-response,241,499974,learnblock1,415.79999999981374,img/planet4_left.png,4,Community 2,NA,FALSE,j,f,NA,NA,NA,9,6,"15,1,13,2,11,12,4,5,6,8,7,10,14,3,9"
15205,commdev-image-keyboard-response,242,501232,learnblock1,794.3999999999069,img/planet5_left.png,5,Community 2,NA,TRUE,f,f,NA,NA,NA,9,6,"15,1,13,2,11,12,4,5,6,8,7,10,14,3,9"
15205,commdev-image-keyboard-response,243,502490,learnblock1,683.3000000000466,img/planet4_right.png,4,Community 2,NA,TRUE,j,j,NA,NA,NA,9,6,"15,1,13,2,11,12,4,5,6,8,7,10,14,3,9"
15205,commdev-image-keyboard-response,244,503745,learnblock1,750.0999999998603,img/planet5_left.png,5,Community 2,NA,TRUE,f,f,NA,NA,NA,9,6,"15,1,13,2,11,12,4,5,6,8,7,10,14,3,9"
15205,commdev-image-keyboard-response,245,505002,learnblock1,730.8999999999069,img/planet6_left.png,6,Community 2,NA,TRUE,f,f,NA,NA,NA,9,6,"15,1,13,2,11,12,4,5,6,8,7,10,14,3,9"
15205,commdev-image-keyboard-response,246,506255,learnblock1,656.8999999999069,img/planet12_left.png,12,Community 2,NA,TRUE,f,f,NA,NA,NA,9,6,"15,1,13,2,11,12,4,5,6,8,7,10,14,3,9"
15205,commdev-image-keyboard-response,247,507522,learnblock1,511.60000000009313,img/planet2_right.png,2,Community 1,NA,FALSE,f,j,NA,NA,NA,9,6,"15,1,13,2,11,12,4,5,6,8,7,10,14,3,9"
15205,commdev-image-keyboard-response,248,508778,learnblock1,122.39999999990687,img/planet12_left.png,12,Community 2,NA,FALSE,j,f,NA,NA,NA,9,6,"15,1,13,2,11,12,4,5,6,8,7,10,14,3,9"
15205,commdev-image-keyboard-response,249,510046,learnblock1,null,img/planet2_left.png,2,Community 1,NA,FALSE,null,f,NA,NA,NA,9,6,"15,1,13,2,11,12,4,5,6,8,7,10,14,3,9"
15205,commdev-image-keyboard-response,250,511308,learnblock1,0.30000000004656613,img/planet15_left.png,15,Community 1,NA,TRUE,f,f,NA,NA,NA,9,6,"15,1,13,2,11,12,4,5,6,8,7,10,14,3,9"
15205,commdev-image-keyboard-response,251,512572,learnblock1,717.9000000001397,img/planet13_left.png,13,Community 1,NA,TRUE,f,f,NA,NA,NA,9,6,"15,1,13,2,11,12,4,5,6,8,7,10,14,3,9"
15205,commdev-image-keyboard-response,252,513831,learnblock1,680.0999999998603,img/planet15_left.png,15,Community 1,NA,TRUE,f,f,NA,NA,NA,9,6,"15,1,13,2,11,12,4,5,6,8,7,10,14,3,9"
15205,commdev-image-keyboard-response,253,515090,learnblock1,591.8000000000466,img/planet13_left.png,13,Community 1,NA,TRUE,f,f,NA,NA,NA,9,6,"15,1,13,2,11,12,4,5,6,8,7,10,14,3,9"
15205,commdev-image-keyboard-response,254,516341,learnblock1,438.80000000004657,img/planet2_right.png,2,Community 1,NA,FALSE,f,j,NA,NA,NA,9,6,"15,1,13,2,11,12,4,5,6,8,7,10,14,3,9"
15205,commdev-image-keyboard-response,255,517596,learnblock1,911.8000000000466,img/planet15_right.png,15,Community 1,NA,TRUE,j,j,NA,NA,NA,9,6,"15,1,13,2,11,12,4,5,6,8,7,10,14,3,9"
15205,commdev-image-keyboard-response,256,518854,learnblock1,1002.8000000000466,img/planet2_left.png,2,Community 1,NA,TRUE,f,f,NA,NA,NA,9,6,"15,1,13,2,11,12,4,5,6,8,7,10,14,3,9"
15205,commdev-image-keyboard-response,257,520121,learnblock1,641.5,img/planet1_right.png,1,Community 1,NA,TRUE,j,j,NA,NA,NA,9,6,"15,1,13,2,11,12,4,5,6,8,7,10,14,3,9"
15205,commdev-image-keyboard-response,258,521375,learnblock1,595.2000000001863,img/planet2_right.png,2,Community 1,NA,FALSE,f,j,NA,NA,NA,9,6,"15,1,13,2,11,12,4,5,6,8,7,10,14,3,9"
15205,commdev-image-keyboard-response,259,522628,learnblock1,809.9000000001397,img/planet13_left.png,13,Community 1,NA,TRUE,f,f,NA,NA,NA,9,6,"15,1,13,2,11,12,4,5,6,8,7,10,14,3,9"
15205,commdev-image-keyboard-response,260,523885,learnblock1,775.8999999999069,img/planet1_right.png,1,Community 1,NA,TRUE,j,j,NA,NA,NA,9,6,"15,1,13,2,11,12,4,5,6,8,7,10,14,3,9"
15205,commdev-image-keyboard-response,261,525147,learnblock1,840.6000000000931,img/planet11_left.png,11,Community 1,NA,TRUE,f,f,NA,NA,NA,9,6,"15,1,13,2,11,12,4,5,6,8,7,10,14,3,9"
15205,commdev-image-keyboard-response,262,526404,learnblock1,727.8000000000466,img/planet7_right.png,7,Community 3,NA,FALSE,f,j,NA,NA,NA,9,6,"15,1,13,2,11,12,4,5,6,8,7,10,14,3,9"
15205,commdev-image-keyboard-response,263,527664,learnblock1,769.0999999998603,img/planet3_right.png,3,Community 3,NA,FALSE,f,j,NA,NA,NA,9,6,"15,1,13,2,11,12,4,5,6,8,7,10,14,3,9"
15205,commdev-image-keyboard-response,264,528922,learnblock1,882.6999999999534,img/planet14_right.png,14,Community 3,NA,FALSE,f,j,NA,NA,NA,9,6,"15,1,13,2,11,12,4,5,6,8,7,10,14,3,9"
15205,commdev-image-keyboard-response,265,530183,learnblock1,null,img/planet7_right.png,7,Community 3,NA,FALSE,null,j,NA,NA,NA,9,6,"15,1,13,2,11,12,4,5,6,8,7,10,14,3,9"
15205,commdev-image-keyboard-response,266,531436,learnblock1,314.80000000004657,img/planet3_right.png,3,Community 3,NA,TRUE,j,j,NA,NA,NA,9,6,"15,1,13,2,11,12,4,5,6,8,7,10,14,3,9"
15205,commdev-image-keyboard-response,267,532691,learnblock1,626.9000000001397,img/planet9_left.png,9,Community 3,NA,TRUE,f,f,NA,NA,NA,9,6,"15,1,13,2,11,12,4,5,6,8,7,10,14,3,9"
15205,commdev-image-keyboard-response,268,533954,learnblock1,769,img/planet7_right.png,7,Community 3,NA,TRUE,j,j,NA,NA,NA,9,6,"15,1,13,2,11,12,4,5,6,8,7,10,14,3,9"
15205,commdev-image-keyboard-response,269,535206,learnblock1,792.1000000000931,img/planet9_right.png,9,Community 3,NA,TRUE,j,j,NA,NA,NA,9,6,"15,1,13,2,11,12,4,5,6,8,7,10,14,3,9"
15205,commdev-image-keyboard-response,270,536471,learnblock1,843.5,img/planet3_left.png,3,Community 3,NA,TRUE,f,f,NA,NA,NA,9,6,"15,1,13,2,11,12,4,5,6,8,7,10,14,3,9"
15205,commdev-image-keyboard-response,271,537737,learnblock1,null,img/planet14_left.png,14,Community 3,NA,FALSE,null,f,NA,NA,NA,9,6,"15,1,13,2,11,12,4,5,6,8,7,10,14,3,9"
15205,commdev-image-keyboard-response,272,538989,learnblock1,243.29999999981374,img/planet10_right.png,10,Community 3,NA,FALSE,f,j,NA,NA,NA,9,6,"15,1,13,2,11,12,4,5,6,8,7,10,14,3,9"
15205,commdev-image-keyboard-response,273,540249,learnblock1,764.8999999999069,img/planet9_left.png,9,Community 3,NA,TRUE,f,f,NA,NA,NA,9,6,"15,1,13,2,11,12,4,5,6,8,7,10,14,3,9"
15205,commdev-image-keyboard-response,274,541508,learnblock1,736.7999999998137,img/planet7_left.png,7,Community 3,NA,TRUE,f,f,NA,NA,NA,9,6,"15,1,13,2,11,12,4,5,6,8,7,10,14,3,9"
15205,commdev-image-keyboard-response,275,542768,learnblock1,922.5999999998603,img/planet9_left.png,9,Community 3,NA,TRUE,f,f,NA,NA,NA,9,6,"15,1,13,2,11,12,4,5,6,8,7,10,14,3,9"
15205,commdev-image-keyboard-response,276,544034,learnblock1,811.3000000000466,img/planet7_left.png,7,Community 3,NA,TRUE,f,f,NA,NA,NA,9,6,"15,1,13,2,11,12,4,5,6,8,7,10,14,3,9"
15205,commdev-image-keyboard-response,277,545299,learnblock1,786.2999999998137,img/planet14_left.png,14,Community 3,NA,TRUE,f,f,NA,NA,NA,9,6,"15,1,13,2,11,12,4,5,6,8,7,10,14,3,9"
15205,commdev-image-keyboard-response,278,546553,learnblock1,650.3000000000466,img/planet3_left.png,3,Community 3,NA,FALSE,j,f,NA,NA,NA,9,6,"15,1,13,2,11,12,4,5,6,8,7,10,14,3,9"
15205,commdev-image-keyboard-response,279,547807,learnblock1,70.4000000001397,img/planet10_right.png,10,Community 3,NA,FALSE,f,j,NA,NA,NA,9,6,"15,1,13,2,11,12,4,5,6,8,7,10,14,3,9"
15205,commdev-image-keyboard-response,280,549061,learnblock1,721,img/planet3_left.png,3,Community 3,NA,TRUE,f,f,NA,NA,NA,9,6,"15,1,13,2,11,12,4,5,6,8,7,10,14,3,9"
15205,commdev-image-keyboard-response,281,550315,learnblock1,849.6999999999534,img/planet14_right.png,14,Community 3,NA,TRUE,j,j,NA,NA,NA,9,6,"15,1,13,2,11,12,4,5,6,8,7,10,14,3,9"
15205,commdev-image-keyboard-response,282,551582,learnblock1,818.8000000000466,img/planet9_right.png,9,Community 3,NA,TRUE,j,j,NA,NA,NA,9,6,"15,1,13,2,11,12,4,5,6,8,7,10,14,3,9"
15205,commdev-image-keyboard-response,283,552848,learnblock1,821,img/planet7_left.png,7,Community 3,NA,TRUE,f,f,NA,NA,NA,9,6,"15,1,13,2,11,12,4,5,6,8,7,10,14,3,9"
15205,commdev-image-keyboard-response,284,554107,learnblock1,1166.1999999999534,img/planet14_left.png,14,Community 3,NA,TRUE,f,f,NA,NA,NA,9,6,"15,1,13,2,11,12,4,5,6,8,7,10,14,3,9"
15205,commdev-image-keyboard-response,285,555373,learnblock1,974.0999999998603,img/planet10_left.png,10,Community 3,NA,TRUE,f,f,NA,NA,NA,9,6,"15,1,13,2,11,12,4,5,6,8,7,10,14,3,9"
15205,commdev-image-keyboard-response,286,556635,learnblock1,646.3999999999069,img/planet14_right.png,14,Community 3,NA,TRUE,j,j,NA,NA,NA,9,6,"15,1,13,2,11,12,4,5,6,8,7,10,14,3,9"
15205,commdev-image-keyboard-response,287,557888,learnblock1,639.1999999999534,img/planet10_right.png,10,Community 3,NA,FALSE,f,j,NA,NA,NA,9,6,"15,1,13,2,11,12,4,5,6,8,7,10,14,3,9"
15205,commdev-image-keyboard-response,288,559146,learnblock1,null,img/planet3_right.png,3,Community 3,NA,FALSE,null,j,NA,NA,NA,9,6,"15,1,13,2,11,12,4,5,6,8,7,10,14,3,9"
15205,commdev-image-keyboard-response,289,560408,learnblock1,151.19999999995343,img/planet9_left.png,9,Community 3,NA,FALSE,j,f,NA,NA,NA,9,6,"15,1,13,2,11,12,4,5,6,8,7,10,14,3,9"
15205,commdev-image-keyboard-response,290,561661,learnblock1,130.80000000004657,img/planet14_right.png,14,Community 3,NA,FALSE,f,j,NA,NA,NA,9,6,"15,1,13,2,11,12,4,5,6,8,7,10,14,3,9"
15205,commdev-image-keyboard-response,291,562917,learnblock1,684.8000000000466,img/planet10_left.png,10,Community 3,NA,FALSE,j,f,NA,NA,NA,9,6,"15,1,13,2,11,12,4,5,6,8,7,10,14,3,9"
15205,commdev-image-keyboard-response,292,564172,learnblock1,824.3000000000466,img/planet14_left.png,14,Community 3,NA,TRUE,f,f,NA,NA,NA,9,6,"15,1,13,2,11,12,4,5,6,8,7,10,14,3,9"
15205,commdev-image-keyboard-response,293,565439,learnblock1,788.8000000000466,img/planet3_left.png,3,Community 3,NA,TRUE,f,f,NA,NA,NA,9,6,"15,1,13,2,11,12,4,5,6,8,7,10,14,3,9"
15205,commdev-image-keyboard-response,294,566692,learnblock1,518.1000000000931,img/planet10_left.png,10,Community 3,NA,TRUE,f,f,NA,NA,NA,9,6,"15,1,13,2,11,12,4,5,6,8,7,10,14,3,9"
15205,commdev-image-keyboard-response,295,567959,learnblock1,538.8999999999069,img/planet9_right.png,9,Community 3,NA,FALSE,f,j,NA,NA,NA,9,6,"15,1,13,2,11,12,4,5,6,8,7,10,14,3,9"
15205,commdev-image-keyboard-response,296,569211,learnblock1,640.5,img/planet10_left.png,10,Community 3,NA,TRUE,f,f,NA,NA,NA,9,6,"15,1,13,2,11,12,4,5,6,8,7,10,14,3,9"
15205,commdev-image-keyboard-response,297,570467,learnblock1,738.4000000001397,img/planet9_right.png,9,Community 3,NA,TRUE,j,j,NA,NA,NA,9,6,"15,1,13,2,11,12,4,5,6,8,7,10,14,3,9"
15205,commdev-image-keyboard-response,298,571734,learnblock1,793.9000000001397,img/planet14_right.png,14,Community 3,NA,TRUE,j,j,NA,NA,NA,9,6,"15,1,13,2,11,12,4,5,6,8,7,10,14,3,9"
15205,commdev-image-keyboard-response,299,572992,learnblock1,687.6000000000931,img/planet3_left.png,3,Community 3,NA,FALSE,j,f,NA,NA,NA,9,6,"15,1,13,2,11,12,4,5,6,8,7,10,14,3,9"
15205,commdev-image-keyboard-response,300,574250,learnblock1,711.3000000000466,img/planet14_right.png,14,Community 3,NA,TRUE,j,j,NA,NA,NA,9,6,"15,1,13,2,11,12,4,5,6,8,7,10,14,3,9"
15205,commdev-image-keyboard-response,301,575515,learnblock1,808.5999999998603,img/planet7_right.png,7,Community 3,NA,TRUE,j,j,NA,NA,NA,9,6,"15,1,13,2,11,12,4,5,6,8,7,10,14,3,9"
15205,commdev-image-keyboard-response,302,576783,learnblock1,981,img/planet14_right.png,14,Community 3,NA,TRUE,j,j,NA,NA,NA,9,6,"15,1,13,2,11,12,4,5,6,8,7,10,14,3,9"
15205,commdev-image-keyboard-response,303,578037,learnblock1,831.6000000000931,img/planet7_right.png,7,Community 3,NA,TRUE,j,j,NA,NA,NA,9,6,"15,1,13,2,11,12,4,5,6,8,7,10,14,3,9"
15205,commdev-image-keyboard-response,304,579290,learnblock1,688.4000000001397,img/planet9_left.png,9,Community 3,NA,TRUE,f,f,NA,NA,NA,9,6,"15,1,13,2,11,12,4,5,6,8,7,10,14,3,9"
15205,commdev-image-keyboard-response,305,580543,learnblock1,610.1000000000931,img/planet3_right.png,3,Community 3,NA,TRUE,j,j,NA,NA,NA,9,6,"15,1,13,2,11,12,4,5,6,8,7,10,14,3,9"
15205,commdev-image-keyboard-response,306,581803,learnblock1,681.5,img/planet9_left.png,9,Community 3,NA,TRUE,f,f,NA,NA,NA,9,6,"15,1,13,2,11,12,4,5,6,8,7,10,14,3,9"
15205,commdev-image-keyboard-response,307,583059,learnblock1,692,img/planet3_right.png,3,Community 3,NA,TRUE,j,j,NA,NA,NA,9,6,"15,1,13,2,11,12,4,5,6,8,7,10,14,3,9"
15205,commdev-image-keyboard-response,308,584317,learnblock1,1009.0999999998603,img/planet7_left.png,7,Community 3,NA,TRUE,f,f,NA,NA,NA,9,6,"15,1,13,2,11,12,4,5,6,8,7,10,14,3,9"
15205,commdev-image-keyboard-response,309,585572,learnblock1,1073.2000000001863,img/planet14_left.png,14,Community 3,NA,TRUE,f,f,NA,NA,NA,9,6,"15,1,13,2,11,12,4,5,6,8,7,10,14,3,9"
15205,commdev-image-keyboard-response,310,586832,learnblock1,931,img/planet9_right.png,9,Community 3,NA,TRUE,j,j,NA,NA,NA,9,6,"15,1,13,2,11,12,4,5,6,8,7,10,14,3,9"
15205,commdev-image-keyboard-response,311,588096,learnblock1,1229.3000000000466,img/planet14_left.png,14,Community 3,NA,FALSE,j,f,NA,NA,NA,9,6,"15,1,13,2,11,12,4,5,6,8,7,10,14,3,9"
15205,commdev-image-keyboard-response,312,589348,learnblock1,1118.0999999998603,img/planet7_left.png,7,Community 3,NA,TRUE,f,f,NA,NA,NA,9,6,"15,1,13,2,11,12,4,5,6,8,7,10,14,3,9"
15205,commdev-image-keyboard-response,313,590605,learnblock1,617.5,img/planet14_right.png,14,Community 3,NA,TRUE,j,j,NA,NA,NA,9,6,"15,1,13,2,11,12,4,5,6,8,7,10,14,3,9"
15205,commdev-image-keyboard-response,314,591863,learnblock1,649.6999999999534,img/planet7_left.png,7,Community 3,NA,TRUE,f,f,NA,NA,NA,9,6,"15,1,13,2,11,12,4,5,6,8,7,10,14,3,9"
15205,commdev-image-keyboard-response,315,593124,learnblock1,882.3000000000466,img/planet11_right.png,11,Community 1,NA,TRUE,j,j,NA,NA,NA,9,6,"15,1,13,2,11,12,4,5,6,8,7,10,14,3,9"
15205,commdev-image-keyboard-response,316,594376,learnblock1,821.5,img/planet13_right.png,13,Community 1,NA,TRUE,j,j,NA,NA,NA,9,6,"15,1,13,2,11,12,4,5,6,8,7,10,14,3,9"
15205,commdev-image-keyboard-response,317,595636,learnblock1,null,img/planet2_left.png,2,Community 1,NA,FALSE,null,f,NA,NA,NA,9,6,"15,1,13,2,11,12,4,5,6,8,7,10,14,3,9"
15205,commdev-image-keyboard-response,318,596890,learnblock1,null,img/planet12_left.png,12,Community 2,NA,FALSE,null,f,NA,NA,NA,9,6,"15,1,13,2,11,12,4,5,6,8,7,10,14,3,9"
15205,commdev-image-keyboard-response,319,598155,learnblock1,944.6999999999534,img/planet4_right.png,4,Community 2,NA,TRUE,j,j,NA,NA,NA,9,6,"15,1,13,2,11,12,4,5,6,8,7,10,14,3,9"
15205,commdev-image-keyboard-response,320,599418,learnblock1,1134.5,img/planet5_right.png,5,Community 2,NA,TRUE,j,j,NA,NA,NA,9,6,"15,1,13,2,11,12,4,5,6,8,7,10,14,3,9"
15205,commdev-image-keyboard-response,321,600671,learnblock1,null,img/planet6_left.png,6,Community 2,NA,FALSE,null,f,NA,NA,NA,9,6,"15,1,13,2,11,12,4,5,6,8,7,10,14,3,9"
15205,commdev-image-keyboard-response,322,601925,learnblock1,748.6000000000931,img/planet5_right.png,5,Community 2,NA,TRUE,j,j,NA,NA,NA,9,6,"15,1,13,2,11,12,4,5,6,8,7,10,14,3,9"
15205,commdev-image-keyboard-response,323,603180,learnblock1,1214.8000000000466,img/planet6_right.png,6,Community 2,NA,TRUE,j,j,NA,NA,NA,9,6,"15,1,13,2,11,12,4,5,6,8,7,10,14,3,9"
15205,commdev-image-keyboard-response,324,604446,learnblock1,null,img/planet4_left.png,4,Community 2,NA,FALSE,null,f,NA,NA,NA,9,6,"15,1,13,2,11,12,4,5,6,8,7,10,14,3,9"
15205,commdev-image-keyboard-response,325,605700,learnblock1,null,img/planet6_left.png,6,Community 2,NA,FALSE,null,f,NA,NA,NA,9,6,"15,1,13,2,11,12,4,5,6,8,7,10,14,3,9"
15205,commdev-image-keyboard-response,326,606966,learnblock1,704.3000000000466,img/planet8_right.png,8,Community 2,NA,TRUE,j,j,NA,NA,NA,9,6,"15,1,13,2,11,12,4,5,6,8,7,10,14,3,9"
15205,commdev-image-keyboard-response,327,608222,learnblock1,null,img/planet12_left.png,12,Community 2,NA,FALSE,null,f,NA,NA,NA,9,6,"15,1,13,2,11,12,4,5,6,8,7,10,14,3,9"
15205,commdev-image-keyboard-response,328,609485,learnblock1,null,img/planet6_left.png,6,Community 2,NA,FALSE,null,f,NA,NA,NA,9,6,"15,1,13,2,11,12,4,5,6,8,7,10,14,3,9"
15205,commdev-image-keyboard-response,329,610740,learnblock1,903.6999999999534,img/planet12_right.png,12,Community 2,NA,TRUE,j,j,NA,NA,NA,9,6,"15,1,13,2,11,12,4,5,6,8,7,10,14,3,9"
15205,commdev-image-keyboard-response,330,611993,learnblock1,1095.1999999999534,img/planet6_right.png,6,Community 2,NA,TRUE,j,j,NA,NA,NA,9,6,"15,1,13,2,11,12,4,5,6,8,7,10,14,3,9"
15205,commdev-image-keyboard-response,331,613247,learnblock1,null,img/planet5_left.png,5,Community 2,NA,FALSE,null,f,NA,NA,NA,9,6,"15,1,13,2,11,12,4,5,6,8,7,10,14,3,9"
15205,commdev-image-keyboard-response,332,614511,learnblock1,null,img/planet8_left.png,8,Community 2,NA,FALSE,null,f,NA,NA,NA,9,6,"15,1,13,2,11,12,4,5,6,8,7,10,14,3,9"
15205,commdev-image-keyboard-response,333,615766,learnblock1,1101.8000000000466,img/planet6_right.png,6,Community 2,NA,TRUE,j,j,NA,NA,NA,9,6,"15,1,13,2,11,12,4,5,6,8,7,10,14,3,9"
15205,commdev-image-keyboard-response,334,617023,learnblock1,null,img/planet4_left.png,4,Community 2,NA,FALSE,null,f,NA,NA,NA,9,6,"15,1,13,2,11,12,4,5,6,8,7,10,14,3,9"
15205,commdev-image-keyboard-response,335,618280,learnblock1,944.1999999999534,img/planet6_right.png,6,Community 2,NA,TRUE,j,j,NA,NA,NA,9,6,"15,1,13,2,11,12,4,5,6,8,7,10,14,3,9"
15205,commdev-image-keyboard-response,336,619534,learnblock1,951,img/planet5_right.png,5,Community 2,NA,TRUE,j,j,NA,NA,NA,9,6,"15,1,13,2,11,12,4,5,6,8,7,10,14,3,9"
15205,commdev-image-keyboard-response,337,620786,learnblock1,null,img/planet10_left.png,10,Community 3,NA,FALSE,null,f,NA,NA,NA,9,6,"15,1,13,2,11,12,4,5,6,8,7,10,14,3,9"
15205,commdev-image-keyboard-response,338,622041,learnblock1,764.7000000001863,img/planet9_right.png,9,Community 3,NA,TRUE,j,j,NA,NA,NA,9,6,"15,1,13,2,11,12,4,5,6,8,7,10,14,3,9"
15205,commdev-image-keyboard-response,339,623304,learnblock1,null,img/planet7_left.png,7,Community 3,NA,FALSE,null,f,NA,NA,NA,9,6,"15,1,13,2,11,12,4,5,6,8,7,10,14,3,9"
15205,commdev-image-keyboard-response,340,624560,learnblock1,null,img/planet11_left.png,11,Community 1,NA,FALSE,null,f,NA,NA,NA,9,6,"15,1,13,2,11,12,4,5,6,8,7,10,14,3,9"
15205,commdev-image-keyboard-response,341,625819,learnblock1,1029.3000000000466,img/planet1_right.png,1,Community 1,NA,TRUE,j,j,NA,NA,NA,9,6,"15,1,13,2,11,12,4,5,6,8,7,10,14,3,9"
15205,commdev-image-keyboard-response,342,627084,learnblock1,null,img/planet13_left.png,13,Community 1,NA,FALSE,null,f,NA,NA,NA,9,6,"15,1,13,2,11,12,4,5,6,8,7,10,14,3,9"
15205,commdev-image-keyboard-response,343,628339,learnblock1,810.4000000001397,img/planet15_right.png,15,Community 1,NA,TRUE,j,j,NA,NA,NA,9,6,"15,1,13,2,11,12,4,5,6,8,7,10,14,3,9"
15205,commdev-image-keyboard-response,344,629608,learnblock1,null,img/planet11_left.png,11,Community 1,NA,FALSE,null,f,NA,NA,NA,9,6,"15,1,13,2,11,12,4,5,6,8,7,10,14,3,9"
15205,commdev-image-keyboard-response,345,630864,learnblock1,677.3000000000466,img/planet1_right.png,1,Community 1,NA,TRUE,j,j,NA,NA,NA,9,6,"15,1,13,2,11,12,4,5,6,8,7,10,14,3,9"
15205,commdev-image-keyboard-response,346,632124,learnblock1,656.5999999998603,img/planet15_right.png,15,Community 1,NA,TRUE,j,j,NA,NA,NA,9,6,"15,1,13,2,11,12,4,5,6,8,7,10,14,3,9"
15205,commdev-image-keyboard-response,347,633381,learnblock1,664,img/planet1_right.png,1,Community 1,NA,TRUE,j,j,NA,NA,NA,9,6,"15,1,13,2,11,12,4,5,6,8,7,10,14,3,9"
15205,commdev-image-keyboard-response,351,695079,learnblock2,null,img/planet13_left.png,13,Community 1,NA,FALSE,null,f,NA,NA,NA,9,6,"15,1,13,2,11,12,4,5,6,8,7,10,14,3,9"
15205,commdev-image-keyboard-response,352,696333,learnblock2,53,img/planet11_left.png,11,Community 1,NA,TRUE,f,f,NA,NA,NA,9,6,"15,1,13,2,11,12,4,5,6,8,7,10,14,3,9"
15205,commdev-image-keyboard-response,353,697599,learnblock2,630.5,img/planet1_left.png,1,Community 1,NA,TRUE,f,f,NA,NA,NA,9,6,"15,1,13,2,11,12,4,5,6,8,7,10,14,3,9"
15205,commdev-image-keyboard-response,354,698868,learnblock2,556,img/planet15_right.png,15,Community 1,NA,FALSE,f,j,NA,NA,NA,9,6,"15,1,13,2,11,12,4,5,6,8,7,10,14,3,9"
15205,commdev-image-keyboard-response,355,700134,learnblock2,789,img/planet2_right.png,2,Community 1,NA,TRUE,j,j,NA,NA,NA,9,6,"15,1,13,2,11,12,4,5,6,8,7,10,14,3,9"
15205,commdev-image-keyboard-response,356,701389,learnblock2,676.6000000000931,img/planet15_right.png,15,Community 1,NA,TRUE,j,j,NA,NA,NA,9,6,"15,1,13,2,11,12,4,5,6,8,7,10,14,3,9"
15205,commdev-image-keyboard-response,357,702648,learnblock2,664.5999999998603,img/planet2_left.png,2,Community 1,NA,TRUE,f,f,NA,NA,NA,9,6,"15,1,13,2,11,12,4,5,6,8,7,10,14,3,9"
15205,commdev-image-keyboard-response,358,703904,learnblock2,1075.0999999998603,img/planet13_left.png,13,Community 1,NA,FALSE,j,f,NA,NA,NA,9,6,"15,1,13,2,11,12,4,5,6,8,7,10,14,3,9"
15205,commdev-image-keyboard-response,359,705162,learnblock2,null,img/planet15_left.png,15,Community 1,NA,FALSE,null,f,NA,NA,NA,9,6,"15,1,13,2,11,12,4,5,6,8,7,10,14,3,9"
15205,commdev-image-keyboard-response,360,706416,learnblock2,131.10000000009313,img/planet13_left.png,13,Community 1,NA,TRUE,f,f,NA,NA,NA,9,6,"15,1,13,2,11,12,4,5,6,8,7,10,14,3,9"
15205,commdev-image-keyboard-response,361,707669,learnblock2,616.1000000000931,img/planet11_right.png,11,Community 1,NA,TRUE,j,j,NA,NA,NA,9,6,"15,1,13,2,11,12,4,5,6,8,7,10,14,3,9"
15205,commdev-image-keyboard-response,362,708932,learnblock2,699.1000000000931,img/planet1_left.png,1,Community 1,NA,TRUE,f,f,NA,NA,NA,9,6,"15,1,13,2,11,12,4,5,6,8,7,10,14,3,9"
15205,commdev-image-keyboard-response,363,710184,learnblock2,552.3000000000466,img/planet15_right.png,15,Community 1,NA,TRUE,j,j,NA,NA,NA,9,6,"15,1,13,2,11,12,4,5,6,8,7,10,14,3,9"
15205,commdev-image-keyboard-response,364,711438,learnblock2,589.3999999999069,img/planet13_right.png,13,Community 1,NA,FALSE,f,j,NA,NA,NA,9,6,"15,1,13,2,11,12,4,5,6,8,7,10,14,3,9"
15205,commdev-image-keyboard-response,365,712695,learnblock2,868.4000000001397,img/planet11_left.png,11,Community 1,NA,TRUE,f,f,NA,NA,NA,9,6,"15,1,13,2,11,12,4,5,6,8,7,10,14,3,9"
15205,commdev-image-keyboard-response,366,713951,learnblock2,1004.6000000000931,img/planet1_left.png,1,Community 1,NA,TRUE,f,f,NA,NA,NA,9,6,"15,1,13,2,11,12,4,5,6,8,7,10,14,3,9"
15205,commdev-image-keyboard-response,367,715208,learnblock2,668.6999999999534,img/planet11_right.png,11,Community 1,NA,TRUE,j,j,NA,NA,NA,9,6,"15,1,13,2,11,12,4,5,6,8,7,10,14,3,9"
15205,commdev-image-keyboard-response,368,716472,learnblock2,923.1999999999534,img/planet13_right.png,13,Community 1,NA,TRUE,j,j,NA,NA,NA,9,6,"15,1,13,2,11,12,4,5,6,8,7,10,14,3,9"
15205,commdev-image-keyboard-response,369,717730,learnblock2,755.6999999999534,img/planet15_left.png,15,Community 1,NA,TRUE,f,f,NA,NA,NA,9,6,"15,1,13,2,11,12,4,5,6,8,7,10,14,3,9"
15205,commdev-image-keyboard-response,370,718995,learnblock2,522.1999999999534,img/planet13_right.png,13,Community 1,NA,TRUE,j,j,NA,NA,NA,9,6,"15,1,13,2,11,12,4,5,6,8,7,10,14,3,9"
15205,commdev-image-keyboard-response,371,720253,learnblock2,594.7000000001863,img/planet2_right.png,2,Community 1,NA,TRUE,j,j,NA,NA,NA,9,6,"15,1,13,2,11,12,4,5,6,8,7,10,14,3,9"
15205,commdev-image-keyboard-response,372,721507,learnblock2,638.6999999999534,img/planet1_left.png,1,Community 1,NA,TRUE,f,f,NA,NA,NA,9,6,"15,1,13,2,11,12,4,5,6,8,7,10,14,3,9"
15205,commdev-image-keyboard-response,373,722771,learnblock2,570.0999999998603,img/planet15_right.png,15,Community 1,NA,TRUE,j,j,NA,NA,NA,9,6,"15,1,13,2,11,12,4,5,6,8,7,10,14,3,9"
15205,commdev-image-keyboard-response,374,724027,learnblock2,639.3000000000466,img/planet2_left.png,2,Community 1,NA,TRUE,f,f,NA,NA,NA,9,6,"15,1,13,2,11,12,4,5,6,8,7,10,14,3,9"
15205,commdev-image-keyboard-response,375,725291,learnblock2,748.4000000001397,img/planet15_left.png,15,Community 1,NA,TRUE,f,f,NA,NA,NA,9,6,"15,1,13,2,11,12,4,5,6,8,7,10,14,3,9"
15205,commdev-image-keyboard-response,376,726544,learnblock2,688.5,img/planet2_right.png,2,Community 1,NA,TRUE,j,j,NA,NA,NA,9,6,"15,1,13,2,11,12,4,5,6,8,7,10,14,3,9"
15205,commdev-image-keyboard-response,377,727800,learnblock2,728.5,img/planet15_left.png,15,Community 1,NA,TRUE,f,f,NA,NA,NA,9,6,"15,1,13,2,11,12,4,5,6,8,7,10,14,3,9"
15205,commdev-image-keyboard-response,378,729056,learnblock2,992.6999999999534,img/planet1_right.png,1,Community 1,NA,TRUE,j,j,NA,NA,NA,9,6,"15,1,13,2,11,12,4,5,6,8,7,10,14,3,9"
15205,commdev-image-keyboard-response,379,730312,learnblock2,822.8999999999069,img/planet15_left.png,15,Community 1,NA,TRUE,f,f,NA,NA,NA,9,6,"15,1,13,2,11,12,4,5,6,8,7,10,14,3,9"
15205,commdev-image-keyboard-response,380,731567,learnblock2,765.6000000000931,img/planet1_left.png,1,Community 1,NA,TRUE,f,f,NA,NA,NA,9,6,"15,1,13,2,11,12,4,5,6,8,7,10,14,3,9"
15205,commdev-image-keyboard-response,381,732823,learnblock2,776.1000000000931,img/planet11_left.png,11,Community 1,NA,TRUE,f,f,NA,NA,NA,9,6,"15,1,13,2,11,12,4,5,6,8,7,10,14,3,9"
15205,commdev-image-keyboard-response,382,734076,learnblock2,969.7999999998137,img/planet13_right.png,13,Community 1,NA,TRUE,j,j,NA,NA,NA,9,6,"15,1,13,2,11,12,4,5,6,8,7,10,14,3,9"
15205,commdev-image-keyboard-response,383,735341,learnblock2,null,img/planet11_left.png,11,Community 1,NA,FALSE,null,f,NA,NA,NA,9,6,"15,1,13,2,11,12,4,5,6,8,7,10,14,3,9"
15205,commdev-image-keyboard-response,384,736606,learnblock2,170.10000000009313,img/planet15_right.png,15,Community 1,NA,FALSE,f,j,NA,NA,NA,9,6,"15,1,13,2,11,12,4,5,6,8,7,10,14,3,9"
15205,commdev-image-keyboard-response,385,737866,learnblock2,806,img/planet13_right.png,13,Community 1,NA,TRUE,j,j,NA,NA,NA,9,6,"15,1,13,2,11,12,4,5,6,8,7,10,14,3,9"
15205,commdev-image-keyboard-response,386,739120,learnblock2,689.3000000000466,img/planet11_left.png,11,Community 1,NA,TRUE,f,f,NA,NA,NA,9,6,"15,1,13,2,11,12,4,5,6,8,7,10,14,3,9"
15205,commdev-image-keyboard-response,387,740373,learnblock2,732.7999999998137,img/planet13_right.png,13,Community 1,NA,TRUE,j,j,NA,NA,NA,9,6,"15,1,13,2,11,12,4,5,6,8,7,10,14,3,9"
15205,commdev-image-keyboard-response,388,741640,learnblock2,706,img/planet15_right.png,15,Community 1,NA,TRUE,j,j,NA,NA,NA,9,6,"15,1,13,2,11,12,4,5,6,8,7,10,14,3,9"
15205,commdev-image-keyboard-response,389,742895,learnblock2,621.5,img/planet1_right.png,1,Community 1,NA,TRUE,j,j,NA,NA,NA,9,6,"15,1,13,2,11,12,4,5,6,8,7,10,14,3,9"
15205,commdev-image-keyboard-response,390,744150,learnblock2,655.8000000000466,img/planet13_right.png,13,Community 1,NA,TRUE,j,j,NA,NA,NA,9,6,"15,1,13,2,11,12,4,5,6,8,7,10,14,3,9"
15205,commdev-image-keyboard-response,391,745420,learnblock2,701,img/planet15_left.png,15,Community 1,NA,TRUE,f,f,NA,NA,NA,9,6,"15,1,13,2,11,12,4,5,6,8,7,10,14,3,9"
15205,commdev-image-keyboard-response,392,746677,learnblock2,718.8999999999069,img/planet2_right.png,2,Community 1,NA,TRUE,j,j,NA,NA,NA,9,6,"15,1,13,2,11,12,4,5,6,8,7,10,14,3,9"
15205,commdev-image-keyboard-response,393,747931,learnblock2,656,img/planet12_left.png,12,Community 2,NA,TRUE,f,f,NA,NA,NA,9,6,"15,1,13,2,11,12,4,5,6,8,7,10,14,3,9"
15205,commdev-image-keyboard-response,394,749193,learnblock2,488.30000000004657,img/planet2_right.png,2,Community 1,NA,TRUE,j,j,NA,NA,NA,9,6,"15,1,13,2,11,12,4,5,6,8,7,10,14,3,9"
15205,commdev-image-keyboard-response,395,750451,learnblock2,557.5,img/planet12_right.png,12,Community 2,NA,TRUE,j,j,NA,NA,NA,9,6,"15,1,13,2,11,12,4,5,6,8,7,10,14,3,9"
15205,commdev-image-keyboard-response,396,751709,learnblock2,659.4000000001397,img/planet6_right.png,6,Community 2,NA,TRUE,j,j,NA,NA,NA,9,6,"15,1,13,2,11,12,4,5,6,8,7,10,14,3,9"
15205,commdev-image-keyboard-response,397,752963,learnblock2,814.7999999998137,img/planet8_left.png,8,Community 2,NA,TRUE,f,f,NA,NA,NA,9,6,"15,1,13,2,11,12,4,5,6,8,7,10,14,3,9"
15205,commdev-image-keyboard-response,398,754221,learnblock2,820.5,img/planet6_left.png,6,Community 2,NA,TRUE,f,f,NA,NA,NA,9,6,"15,1,13,2,11,12,4,5,6,8,7,10,14,3,9"
15205,commdev-image-keyboard-response,399,755485,learnblock2,689.1999999999534,img/planet12_right.png,12,Community 2,NA,TRUE,j,j,NA,NA,NA,9,6,"15,1,13,2,11,12,4,5,6,8,7,10,14,3,9"
15205,commdev-image-keyboard-response,400,756745,learnblock2,733.3000000000466,img/planet4_left.png,4,Community 2,NA,FALSE,j,f,NA,NA,NA,9,6,"15,1,13,2,11,12,4,5,6,8,7,10,14,3,9"
15205,commdev-image-keyboard-response,401,758000,learnblock2,914.3999999999069,img/planet5_left.png,5,Community 2,NA,TRUE,f,f,NA,NA,NA,9,6,"15,1,13,2,11,12,4,5,6,8,7,10,14,3,9"
15205,commdev-image-keyboard-response,402,759260,learnblock2,164,img/planet10_right.png,10,Community 3,NA,FALSE,f,j,NA,NA,NA,9,6,"15,1,13,2,11,12,4,5,6,8,7,10,14,3,9"
15205,commdev-image-keyboard-response,403,760516,learnblock2,770.1999999999534,img/planet3_left.png,3,Community 3,NA,TRUE,f,f,NA,NA,NA,9,6,"15,1,13,2,11,12,4,5,6,8,7,10,14,3,9"
15205,commdev-image-keyboard-response,404,761777,learnblock2,636.1999999999534,img/planet10_left.png,10,Community 3,NA,TRUE,f,f,NA,NA,NA,9,6,"15,1,13,2,11,12,4,5,6,8,7,10,14,3,9"
15205,commdev-image-keyboard-response,405,763037,learnblock2,788,img/planet3_left.png,3,Community 3,NA,TRUE,f,f,NA,NA,NA,9,6,"15,1,13,2,11,12,4,5,6,8,7,10,14,3,9"
15205,commdev-image-keyboard-response,406,764299,learnblock2,673.6000000000931,img/planet9_right.png,9,Community 3,NA,TRUE,j,j,NA,NA,NA,9,6,"15,1,13,2,11,12,4,5,6,8,7,10,14,3,9"
15205,commdev-image-keyboard-response,407,765559,learnblock2,703.1000000000931,img/planet7_left.png,7,Community 3,NA,TRUE,f,f,NA,NA,NA,9,6,"15,1,13,2,11,12,4,5,6,8,7,10,14,3,9"
15205,commdev-image-keyboard-response,408,766821,learnblock2,985.6000000000931,img/planet11_left.png,11,Community 1,NA,TRUE,f,f,NA,NA,NA,9,6,"15,1,13,2,11,12,4,5,6,8,7,10,14,3,9"
15205,commdev-image-keyboard-response,409,768089,learnblock2,842.1999999999534,img/planet13_left.png,13,Community 1,NA,TRUE,f,f,NA,NA,NA,9,6,"15,1,13,2,11,12,4,5,6,8,7,10,14,3,9"
15205,commdev-image-keyboard-response,410,769351,learnblock2,644.5,img/planet15_left.png,15,Community 1,NA,TRUE,f,f,NA,NA,NA,9,6,"15,1,13,2,11,12,4,5,6,8,7,10,14,3,9"
15205,commdev-image-keyboard-response,411,770603,learnblock2,648,img/planet13_right.png,13,Community 1,NA,TRUE,j,j,NA,NA,NA,9,6,"15,1,13,2,11,12,4,5,6,8,7,10,14,3,9"
15205,commdev-image-keyboard-response,412,771867,learnblock2,782.3000000000466,img/planet1_right.png,1,Community 1,NA,FALSE,f,j,NA,NA,NA,9,6,"15,1,13,2,11,12,4,5,6,8,7,10,14,3,9"
15205,commdev-image-keyboard-response,413,773123,learnblock2,null,img/planet2_left.png,2,Community 1,NA,FALSE,null,f,NA,NA,NA,9,6,"15,1,13,2,11,12,4,5,6,8,7,10,14,3,9"
15205,commdev-image-keyboard-response,414,774383,learnblock2,395.0999999998603,img/planet12_left.png,12,Community 2,NA,TRUE,f,f,NA,NA,NA,9,6,"15,1,13,2,11,12,4,5,6,8,7,10,14,3,9"
15205,commdev-image-keyboard-response,415,775635,learnblock2,520.4000000001397,img/planet4_right.png,4,Community 2,NA,TRUE,j,j,NA,NA,NA,9,6,"15,1,13,2,11,12,4,5,6,8,7,10,14,3,9"
15205,commdev-image-keyboard-response,416,776895,learnblock2,null,img/planet6_right.png,6,Community 2,NA,FALSE,null,j,NA,NA,NA,9,6,"15,1,13,2,11,12,4,5,6,8,7,10,14,3,9"
15205,commdev-image-keyboard-response,417,778149,learnblock2,0.4000000001396984,img/planet8_left.png,8,Community 2,NA,FALSE,j,f,NA,NA,NA,9,6,"15,1,13,2,11,12,4,5,6,8,7,10,14,3,9"
15205,commdev-image-keyboard-response,418,779414,learnblock2,834.5,img/planet4_right.png,4,Community 2,NA,TRUE,j,j,NA,NA,NA,9,6,"15,1,13,2,11,12,4,5,6,8,7,10,14,3,9"
15205,commdev-image-keyboard-response,419,780675,learnblock2,985.6000000000931,img/planet8_right.png,8,Community 2,NA,FALSE,f,j,NA,NA,NA,9,6,"15,1,13,2,11,12,4,5,6,8,7,10,14,3,9"
15205,commdev-image-keyboard-response,420,781936,learnblock2,null,img/planet4_right.png,4,Community 2,NA,FALSE,null,j,NA,NA,NA,9,6,"15,1,13,2,11,12,4,5,6,8,7,10,14,3,9"
15205,commdev-image-keyboard-response,421,783193,learnblock2,0.19999999995343387,img/planet5_right.png,5,Community 2,NA,TRUE,j,j,NA,NA,NA,9,6,"15,1,13,2,11,12,4,5,6,8,7,10,14,3,9"
15205,commdev-image-keyboard-response,422,784452,learnblock2,679.3000000000466,img/planet4_left.png,4,Community 2,NA,TRUE,f,f,NA,NA,NA,9,6,"15,1,13,2,11,12,4,5,6,8,7,10,14,3,9"
15205,commdev-image-keyboard-response,423,785710,learnblock2,649.3999999999069,img/planet5_right.png,5,Community 2,NA,TRUE,j,j,NA,NA,NA,9,6,"15,1,13,2,11,12,4,5,6,8,7,10,14,3,9"
15205,commdev-image-keyboard-response,424,786970,learnblock2,1170.7999999998137,img/planet4_left.png,4,Community 2,NA,TRUE,f,f,NA,NA,NA,9,6,"15,1,13,2,11,12,4,5,6,8,7,10,14,3,9"
15205,commdev-image-keyboard-response,425,788230,learnblock2,730.8999999999069,img/planet6_right.png,6,Community 2,NA,TRUE,j,j,NA,NA,NA,9,6,"15,1,13,2,11,12,4,5,6,8,7,10,14,3,9"
15205,commdev-image-keyboard-response,426,789488,learnblock2,912,img/planet4_right.png,4,Community 2,NA,TRUE,j,j,NA,NA,NA,9,6,"15,1,13,2,11,12,4,5,6,8,7,10,14,3,9"
15205,commdev-image-keyboard-response,427,790751,learnblock2,890.7000000001863,img/planet8_left.png,8,Community 2,NA,TRUE,f,f,NA,NA,NA,9,6,"15,1,13,2,11,12,4,5,6,8,7,10,14,3,9"
15205,commdev-image-keyboard-response,428,792004,learnblock2,676.5,img/planet6_left.png,6,Community 2,NA,FALSE,j,f,NA,NA,NA,9,6,"15,1,13,2,11,12,4,5,6,8,7,10,14,3,9"
15205,commdev-image-keyboard-response,429,793261,learnblock2,1168,img/planet8_right.png,8,Community 2,NA,TRUE,j,j,NA,NA,NA,9,6,"15,1,13,2,11,12,4,5,6,8,7,10,14,3,9"
15205,commdev-image-keyboard-response,430,794529,learnblock2,831.4000000001397,img/planet6_right.png,6,Community 2,NA,TRUE,j,j,NA,NA,NA,9,6,"15,1,13,2,11,12,4,5,6,8,7,10,14,3,9"
15205,commdev-image-keyboard-response,431,795786,learnblock2,629.8999999999069,img/planet5_right.png,5,Community 2,NA,TRUE,j,j,NA,NA,NA,9,6,"15,1,13,2,11,12,4,5,6,8,7,10,14,3,9"
15205,commdev-image-keyboard-response,432,797051,learnblock2,415.10000000009313,img/planet4_right.png,4,Community 2,NA,TRUE,j,j,NA,NA,NA,9,6,"15,1,13,2,11,12,4,5,6,8,7,10,14,3,9"
15205,commdev-image-keyboard-response,433,798305,learnblock2,476.30000000004657,img/planet12_left.png,12,Community 2,NA,FALSE,j,f,NA,NA,NA,9,6,"15,1,13,2,11,12,4,5,6,8,7,10,14,3,9"
15205,commdev-image-keyboard-response,434,799565,learnblock2,924.8000000000466,img/planet8_right.png,8,Community 2,NA,TRUE,j,j,NA,NA,NA,9,6,"15,1,13,2,11,12,4,5,6,8,7,10,14,3,9"
15205,commdev-image-keyboard-response,435,800824,learnblock2,711.3000000000466,img/planet5_left.png,5,Community 2,NA,TRUE,f,f,NA,NA,NA,9,6,"15,1,13,2,11,12,4,5,6,8,7,10,14,3,9"
15205,commdev-image-keyboard-response,436,802082,learnblock2,638.2000000001863,img/planet8_right.png,8,Community 2,NA,TRUE,j,j,NA,NA,NA,9,6,"15,1,13,2,11,12,4,5,6,8,7,10,14,3,9"
15205,commdev-image-keyboard-response,437,803334,learnblock2,671.8000000000466,img/planet5_left.png,5,Community 2,NA,TRUE,f,f,NA,NA,NA,9,6,"15,1,13,2,11,12,4,5,6,8,7,10,14,3,9"
15205,commdev-image-keyboard-response,438,804589,learnblock2,447.5,img/planet8_right.png,8,Community 2,NA,TRUE,j,j,NA,NA,NA,9,6,"15,1,13,2,11,12,4,5,6,8,7,10,14,3,9"
15205,commdev-image-keyboard-response,439,805845,learnblock2,698.8000000000466,img/planet5_left.png,5,Community 2,NA,TRUE,f,f,NA,NA,NA,9,6,"15,1,13,2,11,12,4,5,6,8,7,10,14,3,9"
15205,commdev-image-keyboard-response,440,807098,learnblock2,1215.3000000000466,img/planet8_left.png,8,Community 2,NA,TRUE,f,f,NA,NA,NA,9,6,"15,1,13,2,11,12,4,5,6,8,7,10,14,3,9"
15205,commdev-image-keyboard-response,441,808366,learnblock2,775.5,img/planet5_right.png,5,Community 2,NA,TRUE,j,j,NA,NA,NA,9,6,"15,1,13,2,11,12,4,5,6,8,7,10,14,3,9"
15205,commdev-image-keyboard-response,442,809622,learnblock2,921,img/planet6_right.png,6,Community 2,NA,TRUE,j,j,NA,NA,NA,9,6,"15,1,13,2,11,12,4,5,6,8,7,10,14,3,9"
15205,commdev-image-keyboard-response,443,810877,learnblock2,831.6999999999534,img/planet5_left.png,5,Community 2,NA,TRUE,f,f,NA,NA,NA,9,6,"15,1,13,2,11,12,4,5,6,8,7,10,14,3,9"
15205,commdev-image-keyboard-response,444,812134,learnblock2,799.6999999999534,img/planet8_right.png,8,Community 2,NA,TRUE,j,j,NA,NA,NA,9,6,"15,1,13,2,11,12,4,5,6,8,7,10,14,3,9"
15205,commdev-image-keyboard-response,445,813401,learnblock2,794.3000000000466,img/planet6_left.png,6,Community 2,NA,TRUE,f,f,NA,NA,NA,9,6,"15,1,13,2,11,12,4,5,6,8,7,10,14,3,9"
15205,commdev-image-keyboard-response,446,814669,learnblock2,666.8999999999069,img/planet12_left.png,12,Community 2,NA,TRUE,f,f,NA,NA,NA,9,6,"15,1,13,2,11,12,4,5,6,8,7,10,14,3,9"
15205,commdev-image-keyboard-response,447,815935,learnblock2,749.5,img/planet4_left.png,4,Community 2,NA,TRUE,f,f,NA,NA,NA,9,6,"15,1,13,2,11,12,4,5,6,8,7,10,14,3,9"
15205,commdev-image-keyboard-response,448,817187,learnblock2,935.6000000000931,img/planet6_right.png,6,Community 2,NA,TRUE,j,j,NA,NA,NA,9,6,"15,1,13,2,11,12,4,5,6,8,7,10,14,3,9"
15205,commdev-image-keyboard-response,449,818446,learnblock2,831.3000000000466,img/planet8_left.png,8,Community 2,NA,TRUE,f,f,NA,NA,NA,9,6,"15,1,13,2,11,12,4,5,6,8,7,10,14,3,9"
15205,commdev-image-keyboard-response,450,819702,learnblock2,836.0999999998603,img/planet4_left.png,4,Community 2,NA,TRUE,f,f,NA,NA,NA,9,6,"15,1,13,2,11,12,4,5,6,8,7,10,14,3,9"
15205,commdev-image-keyboard-response,451,820959,learnblock2,555.6000000000931,img/planet8_right.png,8,Community 2,NA,TRUE,j,j,NA,NA,NA,9,6,"15,1,13,2,11,12,4,5,6,8,7,10,14,3,9"
15205,commdev-image-keyboard-response,452,822211,learnblock2,998.5,img/planet4_left.png,4,Community 2,NA,TRUE,f,f,NA,NA,NA,9,6,"15,1,13,2,11,12,4,5,6,8,7,10,14,3,9"
15205,commdev-image-keyboard-response,453,823467,learnblock2,887.1000000000931,img/planet6_left.png,6,Community 2,NA,TRUE,f,f,NA,NA,NA,9,6,"15,1,13,2,11,12,4,5,6,8,7,10,14,3,9"
15205,commdev-image-keyboard-response,454,824723,learnblock2,892.3000000000466,img/planet12_left.png,12,Community 2,NA,FALSE,j,f,NA,NA,NA,9,6,"15,1,13,2,11,12,4,5,6,8,7,10,14,3,9"
15205,commdev-image-keyboard-response,455,825985,learnblock2,null,img/planet6_left.png,6,Community 2,NA,FALSE,null,f,NA,NA,NA,9,6,"15,1,13,2,11,12,4,5,6,8,7,10,14,3,9"
15205,commdev-image-keyboard-response,456,827243,learnblock2,143.10000000009313,img/planet4_right.png,4,Community 2,NA,FALSE,f,j,NA,NA,NA,9,6,"15,1,13,2,11,12,4,5,6,8,7,10,14,3,9"
15205,commdev-image-keyboard-response,457,828503,learnblock2,608.8000000000466,img/planet6_left.png,6,Community 2,NA,TRUE,f,f,NA,NA,NA,9,6,"15,1,13,2,11,12,4,5,6,8,7,10,14,3,9"
15205,commdev-image-keyboard-response,458,829757,learnblock2,568.3000000000466,img/planet4_right.png,4,Community 2,NA,TRUE,j,j,NA,NA,NA,9,6,"15,1,13,2,11,12,4,5,6,8,7,10,14,3,9"
15205,commdev-image-keyboard-response,459,831016,learnblock2,824.1999999999534,img/planet8_right.png,8,Community 2,NA,TRUE,j,j,NA,NA,NA,9,6,"15,1,13,2,11,12,4,5,6,8,7,10,14,3,9"
15205,commdev-image-keyboard-response,460,832272,learnblock2,742.8000000000466,img/planet12_right.png,12,Community 2,NA,TRUE,j,j,NA,NA,NA,9,6,"15,1,13,2,11,12,4,5,6,8,7,10,14,3,9"
15205,commdev-image-keyboard-response,461,833532,learnblock2,654.1999999999534,img/planet2_left.png,2,Community 1,NA,TRUE,f,f,NA,NA,NA,9,6,"15,1,13,2,11,12,4,5,6,8,7,10,14,3,9"
15205,commdev-image-keyboard-response,462,834786,learnblock2,845.1999999999534,img/planet15_left.png,15,Community 1,NA,TRUE,f,f,NA,NA,NA,9,6,"15,1,13,2,11,12,4,5,6,8,7,10,14,3,9"
15205,commdev-image-keyboard-response,463,836049,learnblock2,700.1999999999534,img/planet2_right.png,2,Community 1,NA,TRUE,j,j,NA,NA,NA,9,6,"15,1,13,2,11,12,4,5,6,8,7,10,14,3,9"
15205,commdev-image-keyboard-response,464,837311,learnblock2,698.1999999999534,img/planet13_left.png,13,Community 1,NA,TRUE,f,f,NA,NA,NA,9,6,"15,1,13,2,11,12,4,5,6,8,7,10,14,3,9"
15205,commdev-image-keyboard-response,465,838564,learnblock2,771.5,img/planet11_left.png,11,Community 1,NA,TRUE,f,f,NA,NA,NA,9,6,"15,1,13,2,11,12,4,5,6,8,7,10,14,3,9"
15205,commdev-image-keyboard-response,466,839829,learnblock2,805.6000000000931,img/planet1_right.png,1,Community 1,NA,TRUE,j,j,NA,NA,NA,9,6,"15,1,13,2,11,12,4,5,6,8,7,10,14,3,9"
15205,commdev-image-keyboard-response,467,841089,learnblock2,797,img/planet11_right.png,11,Community 1,NA,TRUE,j,j,NA,NA,NA,9,6,"15,1,13,2,11,12,4,5,6,8,7,10,14,3,9"
15205,commdev-image-keyboard-response,468,842342,learnblock2,922.5,img/planet15_left.png,15,Community 1,NA,TRUE,f,f,NA,NA,NA,9,6,"15,1,13,2,11,12,4,5,6,8,7,10,14,3,9"
15205,commdev-image-keyboard-response,469,843608,learnblock2,941.8000000000466,img/planet11_right.png,11,Community 1,NA,TRUE,j,j,NA,NA,NA,9,6,"15,1,13,2,11,12,4,5,6,8,7,10,14,3,9"
15205,commdev-image-keyboard-response,470,844865,learnblock2,870.5999999998603,img/planet13_left.png,13,Community 1,NA,FALSE,j,f,NA,NA,NA,9,6,"15,1,13,2,11,12,4,5,6,8,7,10,14,3,9"
15205,commdev-image-keyboard-response,471,846118,learnblock2,1055.5,img/planet2_left.png,2,Community 1,NA,TRUE,f,f,NA,NA,NA,9,6,"15,1,13,2,11,12,4,5,6,8,7,10,14,3,9"
15205,commdev-image-keyboard-response,472,847375,learnblock2,1136.0999999998603,img/planet1_right.png,1,Community 1,NA,TRUE,j,j,NA,NA,NA,9,6,"15,1,13,2,11,12,4,5,6,8,7,10,14,3,9"
15205,commdev-image-keyboard-response,473,848631,learnblock2,619.3999999999069,img/planet13_left.png,13,Community 1,NA,TRUE,f,f,NA,NA,NA,9,6,"15,1,13,2,11,12,4,5,6,8,7,10,14,3,9"
15205,commdev-image-keyboard-response,474,849884,learnblock2,1227.8000000000466,img/planet11_left.png,11,Community 1,NA,TRUE,f,f,NA,NA,NA,9,6,"15,1,13,2,11,12,4,5,6,8,7,10,14,3,9"
15205,commdev-image-keyboard-response,475,851149,learnblock2,958.1000000000931,img/planet15_left.png,15,Community 1,NA,TRUE,f,f,NA,NA,NA,9,6,"15,1,13,2,11,12,4,5,6,8,7,10,14,3,9"
15205,commdev-image-keyboard-response,476,852408,learnblock2,783,img/planet1_left.png,1,Community 1,NA,TRUE,f,f,NA,NA,NA,9,6,"15,1,13,2,11,12,4,5,6,8,7,10,14,3,9"
15205,commdev-image-keyboard-response,477,853660,learnblock2,606.8000000000466,img/planet13_right.png,13,Community 1,NA,TRUE,j,j,NA,NA,NA,9,6,"15,1,13,2,11,12,4,5,6,8,7,10,14,3,9"
15205,commdev-image-keyboard-response,478,854917,learnblock2,652.3000000000466,img/planet11_left.png,11,Community 1,NA,TRUE,f,f,NA,NA,NA,9,6,"15,1,13,2,11,12,4,5,6,8,7,10,14,3,9"
15205,commdev-image-keyboard-response,479,856185,learnblock2,611.1000000000931,img/planet1_right.png,1,Community 1,NA,TRUE,j,j,NA,NA,NA,9,6,"15,1,13,2,11,12,4,5,6,8,7,10,14,3,9"
15205,commdev-image-keyboard-response,480,857440,learnblock2,692.1999999999534,img/planet11_left.png,11,Community 1,NA,FALSE,j,f,NA,NA,NA,9,6,"15,1,13,2,11,12,4,5,6,8,7,10,14,3,9"
15205,commdev-image-keyboard-response,481,858698,learnblock2,58.300000000046566,img/planet15_right.png,15,Community 1,NA,FALSE,f,j,NA,NA,NA,9,6,"15,1,13,2,11,12,4,5,6,8,7,10,14,3,9"
15205,commdev-image-keyboard-response,482,859955,learnblock2,608.5,img/planet13_left.png,13,Community 1,NA,TRUE,f,f,NA,NA,NA,9,6,"15,1,13,2,11,12,4,5,6,8,7,10,14,3,9"
15205,commdev-image-keyboard-response,483,861211,learnblock2,388.9000000001397,img/planet1_right.png,1,Community 1,NA,TRUE,j,j,NA,NA,NA,9,6,"15,1,13,2,11,12,4,5,6,8,7,10,14,3,9"
15205,commdev-image-keyboard-response,484,862476,learnblock2,532,img/planet2_left.png,2,Community 1,NA,TRUE,f,f,NA,NA,NA,9,6,"15,1,13,2,11,12,4,5,6,8,7,10,14,3,9"
15205,commdev-image-keyboard-response,485,863733,learnblock2,482.79999999981374,img/planet1_right.png,1,Community 1,NA,TRUE,j,j,NA,NA,NA,9,6,"15,1,13,2,11,12,4,5,6,8,7,10,14,3,9"
15205,commdev-image-keyboard-response,486,864992,learnblock2,904.3000000000466,img/planet15_right.png,15,Community 1,NA,TRUE,j,j,NA,NA,NA,9,6,"15,1,13,2,11,12,4,5,6,8,7,10,14,3,9"
15205,commdev-image-keyboard-response,487,866250,learnblock2,811.7999999998137,img/planet11_right.png,11,Community 1,NA,TRUE,j,j,NA,NA,NA,9,6,"15,1,13,2,11,12,4,5,6,8,7,10,14,3,9"
15205,commdev-image-keyboard-response,488,867504,learnblock2,657.6000000000931,img/planet13_right.png,13,Community 1,NA,TRUE,j,j,NA,NA,NA,9,6,"15,1,13,2,11,12,4,5,6,8,7,10,14,3,9"
15205,commdev-image-keyboard-response,489,868762,learnblock2,535.9000000001397,img/planet2_left.png,2,Community 1,NA,FALSE,j,f,NA,NA,NA,9,6,"15,1,13,2,11,12,4,5,6,8,7,10,14,3,9"
15205,commdev-image-keyboard-response,490,870016,learnblock2,766.8000000000466,img/planet12_right.png,12,Community 2,NA,TRUE,j,j,NA,NA,NA,9,6,"15,1,13,2,11,12,4,5,6,8,7,10,14,3,9"
15205,commdev-image-keyboard-response,491,871272,learnblock2,681.8000000000466,img/planet6_right.png,6,Community 2,NA,TRUE,j,j,NA,NA,NA,9,6,"15,1,13,2,11,12,4,5,6,8,7,10,14,3,9"
15205,commdev-image-keyboard-response,492,872528,learnblock2,744.5,img/planet4_right.png,4,Community 2,NA,TRUE,j,j,NA,NA,NA,9,6,"15,1,13,2,11,12,4,5,6,8,7,10,14,3,9"
15205,commdev-image-keyboard-response,493,873795,learnblock2,690.4000000001397,img/planet6_right.png,6,Community 2,NA,TRUE,j,j,NA,NA,NA,9,6,"15,1,13,2,11,12,4,5,6,8,7,10,14,3,9"
15205,commdev-image-keyboard-response,494,875049,learnblock2,906.6999999999534,img/planet12_left.png,12,Community 2,NA,TRUE,f,f,NA,NA,NA,9,6,"15,1,13,2,11,12,4,5,6,8,7,10,14,3,9"
15205,commdev-image-keyboard-response,495,876304,learnblock2,668.3000000000466,img/planet6_left.png,6,Community 2,NA,FALSE,j,f,NA,NA,NA,9,6,"15,1,13,2,11,12,4,5,6,8,7,10,14,3,9"
15205,commdev-image-keyboard-response,496,877570,learnblock2,629.5999999998603,img/planet4_right.png,4,Community 2,NA,FALSE,f,j,NA,NA,NA,9,6,"15,1,13,2,11,12,4,5,6,8,7,10,14,3,9"
15205,commdev-image-keyboard-response,497,878829,learnblock2,null,img/planet12_left.png,12,Community 2,NA,FALSE,null,f,NA,NA,NA,9,6,"15,1,13,2,11,12,4,5,6,8,7,10,14,3,9"
15205,commdev-image-keyboard-response,498,880094,learnblock2,806.2000000001863,img/planet6_left.png,6,Community 2,NA,FALSE,j,f,NA,NA,NA,9,6,"15,1,13,2,11,12,4,5,6,8,7,10,14,3,9"
15205,commdev-image-keyboard-response,499,881349,learnblock2,615.1999999999534,img/planet12_left.png,12,Community 2,NA,TRUE,f,f,NA,NA,NA,9,6,"15,1,13,2,11,12,4,5,6,8,7,10,14,3,9"
15205,commdev-image-keyboard-response,500,882612,learnblock2,515,img/planet6_right.png,6,Community 2,NA,TRUE,j,j,NA,NA,NA,9,6,"15,1,13,2,11,12,4,5,6,8,7,10,14,3,9"
15205,commdev-image-keyboard-response,501,883873,learnblock2,863.8999999999069,img/planet8_right.png,8,Community 2,NA,TRUE,j,j,NA,NA,NA,9,6,"15,1,13,2,11,12,4,5,6,8,7,10,14,3,9"
15205,commdev-image-keyboard-response,502,885141,learnblock2,975.1999999999534,img/planet5_left.png,5,Community 2,NA,TRUE,f,f,NA,NA,NA,9,6,"15,1,13,2,11,12,4,5,6,8,7,10,14,3,9"
15205,commdev-image-keyboard-response,503,886400,learnblock2,770,img/planet10_left.png,10,Community 3,NA,TRUE,f,f,NA,NA,NA,9,6,"15,1,13,2,11,12,4,5,6,8,7,10,14,3,9"
15205,commdev-image-keyboard-response,504,887661,learnblock2,677.5,img/planet9_left.png,9,Community 3,NA,TRUE,f,f,NA,NA,NA,9,6,"15,1,13,2,11,12,4,5,6,8,7,10,14,3,9"
15205,commdev-image-keyboard-response,505,888918,learnblock2,821.8999999999069,img/planet14_right.png,14,Community 3,NA,FALSE,f,j,NA,NA,NA,9,6,"15,1,13,2,11,12,4,5,6,8,7,10,14,3,9"
15205,commdev-image-keyboard-response,506,890179,learnblock2,853.4000000001397,img/planet9_right.png,9,Community 3,NA,TRUE,j,j,NA,NA,NA,9,6,"15,1,13,2,11,12,4,5,6,8,7,10,14,3,9"
15205,commdev-image-keyboard-response,507,891435,learnblock2,719.8999999999069,img/planet3_right.png,3,Community 3,NA,TRUE,j,j,NA,NA,NA,9,6,"15,1,13,2,11,12,4,5,6,8,7,10,14,3,9"
15205,commdev-image-keyboard-response,508,892691,learnblock2,519.6999999999534,img/planet10_left.png,10,Community 3,NA,FALSE,j,f,NA,NA,NA,9,6,"15,1,13,2,11,12,4,5,6,8,7,10,14,3,9"
15205,commdev-image-keyboard-response,509,893944,learnblock2,813.7000000001863,img/planet5_right.png,5,Community 2,NA,TRUE,j,j,NA,NA,NA,9,6,"15,1,13,2,11,12,4,5,6,8,7,10,14,3,9"
15205,commdev-image-keyboard-response,510,895199,learnblock2,733.6000000000931,img/planet6_right.png,6,Community 2,NA,TRUE,j,j,NA,NA,NA,9,6,"15,1,13,2,11,12,4,5,6,8,7,10,14,3,9"
15205,commdev-image-keyboard-response,511,896458,learnblock2,615,img/planet12_right.png,12,Community 2,NA,TRUE,j,j,NA,NA,NA,9,6,"15,1,13,2,11,12,4,5,6,8,7,10,14,3,9"
15205,commdev-image-keyboard-response,512,897714,learnblock2,655.7000000001863,img/planet2_right.png,2,Community 1,NA,TRUE,j,j,NA,NA,NA,9,6,"15,1,13,2,11,12,4,5,6,8,7,10,14,3,9"
15205,commdev-image-keyboard-response,513,898971,learnblock2,762.3999999999069,img/planet13_right.png,13,Community 1,NA,TRUE,j,j,NA,NA,NA,9,6,"15,1,13,2,11,12,4,5,6,8,7,10,14,3,9"
15205,commdev-image-keyboard-response,514,900230,learnblock2,527.8000000000466,img/planet2_right.png,2,Community 1,NA,TRUE,j,j,NA,NA,NA,9,6,"15,1,13,2,11,12,4,5,6,8,7,10,14,3,9"
15205,commdev-image-keyboard-response,515,901486,learnblock2,701.1999999999534,img/planet1_right.png,1,Community 1,NA,TRUE,j,j,NA,NA,NA,9,6,"15,1,13,2,11,12,4,5,6,8,7,10,14,3,9"
15205,commdev-image-keyboard-response,516,902741,learnblock2,678.0999999998603,img/planet11_right.png,11,Community 1,NA,TRUE,j,j,NA,NA,NA,9,6,"15,1,13,2,11,12,4,5,6,8,7,10,14,3,9"
15205,commdev-image-keyboard-response,517,904002,learnblock2,678.5,img/planet7_left.png,7,Community 3,NA,TRUE,f,f,NA,NA,NA,9,6,"15,1,13,2,11,12,4,5,6,8,7,10,14,3,9"
15205,commdev-image-keyboard-response,518,905263,learnblock2,681.1000000000931,img/planet14_right.png,14,Community 3,NA,TRUE,j,j,NA,NA,NA,9,6,"15,1,13,2,11,12,4,5,6,8,7,10,14,3,9"
15205,commdev-image-keyboard-response,519,906523,learnblock2,736.6999999999534,img/planet9_right.png,9,Community 3,NA,TRUE,j,j,NA,NA,NA,9,6,"15,1,13,2,11,12,4,5,6,8,7,10,14,3,9"
15205,commdev-image-keyboard-response,520,907778,learnblock2,800,img/planet7_right.png,7,Community 3,NA,TRUE,j,j,NA,NA,NA,9,6,"15,1,13,2,11,12,4,5,6,8,7,10,14,3,9"
15205,commdev-image-keyboard-response,521,909033,learnblock2,731.5999999998603,img/planet3_right.png,3,Community 3,NA,TRUE,j,j,NA,NA,NA,9,6,"15,1,13,2,11,12,4,5,6,8,7,10,14,3,9"
15205,commdev-image-keyboard-response,522,910288,learnblock2,719.2000000001863,img/planet14_left.png,14,Community 3,NA,TRUE,f,f,NA,NA,NA,9,6,"15,1,13,2,11,12,4,5,6,8,7,10,14,3,9"
15205,commdev-image-keyboard-response,523,911542,learnblock2,605.7000000001863,img/planet7_right.png,7,Community 3,NA,TRUE,j,j,NA,NA,NA,9,6,"15,1,13,2,11,12,4,5,6,8,7,10,14,3,9"
15205,commdev-image-keyboard-response,524,912810,learnblock2,367.19999999995343,img/planet9_right.png,9,Community 3,NA,TRUE,j,j,NA,NA,NA,9,6,"15,1,13,2,11,12,4,5,6,8,7,10,14,3,9"
15205,commdev-image-keyboard-response,525,914072,learnblock2,934.1999999999534,img/planet14_left.png,14,Community 3,NA,TRUE,f,f,NA,NA,NA,9,6,"15,1,13,2,11,12,4,5,6,8,7,10,14,3,9"
15205,commdev-image-keyboard-response,526,915330,learnblock2,1119.9000000001397,img/planet3_right.png,3,Community 3,NA,TRUE,j,j,NA,NA,NA,9,6,"15,1,13,2,11,12,4,5,6,8,7,10,14,3,9"
15205,commdev-image-keyboard-response,527,916595,learnblock2,926.5999999998603,img/planet9_left.png,9,Community 3,NA,TRUE,f,f,NA,NA,NA,9,6,"15,1,13,2,11,12,4,5,6,8,7,10,14,3,9"
15205,commdev-image-keyboard-response,528,917861,learnblock2,834.1000000000931,img/planet3_left.png,3,Community 3,NA,FALSE,j,f,NA,NA,NA,9,6,"15,1,13,2,11,12,4,5,6,8,7,10,14,3,9"
15205,commdev-image-keyboard-response,529,919116,learnblock2,1057.2000000001863,img/planet7_right.png,7,Community 3,NA,TRUE,j,j,NA,NA,NA,9,6,"15,1,13,2,11,12,4,5,6,8,7,10,14,3,9"
15205,commdev-image-keyboard-response,530,920372,learnblock2,924.1000000000931,img/planet9_right.png,9,Community 3,NA,TRUE,j,j,NA,NA,NA,9,6,"15,1,13,2,11,12,4,5,6,8,7,10,14,3,9"
15205,commdev-image-keyboard-response,531,921635,learnblock2,778.0999999998603,img/planet3_right.png,3,Community 3,NA,TRUE,j,j,NA,NA,NA,9,6,"15,1,13,2,11,12,4,5,6,8,7,10,14,3,9"
15205,commdev-image-keyboard-response,532,922900,learnblock2,584.6999999999534,img/planet9_right.png,9,Community 3,NA,TRUE,j,j,NA,NA,NA,9,6,"15,1,13,2,11,12,4,5,6,8,7,10,14,3,9"
15205,commdev-image-keyboard-response,533,924163,learnblock2,841.4000000001397,img/planet3_right.png,3,Community 3,NA,TRUE,j,j,NA,NA,NA,9,6,"15,1,13,2,11,12,4,5,6,8,7,10,14,3,9"
15205,commdev-image-keyboard-response,534,925421,learnblock2,840.0999999998603,img/planet7_right.png,7,Community 3,NA,TRUE,j,j,NA,NA,NA,9,6,"15,1,13,2,11,12,4,5,6,8,7,10,14,3,9"
15205,commdev-image-keyboard-response,535,926678,learnblock2,645.6000000000931,img/planet3_right.png,3,Community 3,NA,TRUE,j,j,NA,NA,NA,9,6,"15,1,13,2,11,12,4,5,6,8,7,10,14,3,9"
15205,commdev-image-keyboard-response,536,927937,learnblock2,513.8000000000466,img/planet10_left.png,10,Community 3,NA,FALSE,j,f,NA,NA,NA,9,6,"15,1,13,2,11,12,4,5,6,8,7,10,14,3,9"
15205,commdev-image-keyboard-response,537,929192,learnblock2,null,img/planet14_right.png,14,Community 3,NA,FALSE,null,j,NA,NA,NA,9,6,"15,1,13,2,11,12,4,5,6,8,7,10,14,3,9"
15205,commdev-image-keyboard-response,538,930456,learnblock2,857.5,img/planet9_left.png,9,Community 3,NA,TRUE,f,f,NA,NA,NA,9,6,"15,1,13,2,11,12,4,5,6,8,7,10,14,3,9"
15205,commdev-image-keyboard-response,539,931711,learnblock2,966.5999999998603,img/planet7_left.png,7,Community 3,NA,TRUE,f,f,NA,NA,NA,9,6,"15,1,13,2,11,12,4,5,6,8,7,10,14,3,9"
15205,commdev-image-keyboard-response,540,932965,learnblock2,651.4000000001397,img/planet3_right.png,3,Community 3,NA,TRUE,j,j,NA,NA,NA,9,6,"15,1,13,2,11,12,4,5,6,8,7,10,14,3,9"
15205,commdev-image-keyboard-response,541,934229,learnblock2,749.0999999998603,img/planet10_left.png,10,Community 3,NA,TRUE,f,f,NA,NA,NA,9,6,"15,1,13,2,11,12,4,5,6,8,7,10,14,3,9"
15205,commdev-image-keyboard-response,542,935483,learnblock2,515.6000000000931,img/planet3_right.png,3,Community 3,NA,TRUE,j,j,NA,NA,NA,9,6,"15,1,13,2,11,12,4,5,6,8,7,10,14,3,9"
15205,commdev-image-keyboard-response,543,936738,learnblock2,543.3999999999069,img/planet7_left.png,7,Community 3,NA,TRUE,f,f,NA,NA,NA,9,6,"15,1,13,2,11,12,4,5,6,8,7,10,14,3,9"
15205,commdev-image-keyboard-response,544,937995,learnblock2,1024.1999999999534,img/planet11_right.png,11,Community 1,NA,TRUE,j,j,NA,NA,NA,9,6,"15,1,13,2,11,12,4,5,6,8,7,10,14,3,9"
15205,commdev-image-keyboard-response,545,939253,learnblock2,806.1999999999534,img/planet7_left.png,7,Community 3,NA,TRUE,f,f,NA,NA,NA,9,6,"15,1,13,2,11,12,4,5,6,8,7,10,14,3,9"
15205,commdev-image-keyboard-response,546,940512,learnblock2,944.8000000000466,img/planet9_left.png,9,Community 3,NA,TRUE,f,f,NA,NA,NA,9,6,"15,1,13,2,11,12,4,5,6,8,7,10,14,3,9"
15205,commdev-image-keyboard-response,547,941767,learnblock2,704.6000000000931,img/planet3_right.png,3,Community 3,NA,TRUE,j,j,NA,NA,NA,9,6,"15,1,13,2,11,12,4,5,6,8,7,10,14,3,9"
15205,commdev-image-keyboard-response,548,943024,learnblock2,1091.1999999999534,img/planet10_right.png,10,Community 3,NA,TRUE,j,j,NA,NA,NA,9,6,"15,1,13,2,11,12,4,5,6,8,7,10,14,3,9"
15205,commdev-image-keyboard-response,549,944281,learnblock2,925.1999999999534,img/planet14_right.png,14,Community 3,NA,TRUE,j,j,NA,NA,NA,9,6,"15,1,13,2,11,12,4,5,6,8,7,10,14,3,9"
15205,commdev-image-keyboard-response,550,945541,learnblock2,729.5,img/planet10_left.png,10,Community 3,NA,TRUE,f,f,NA,NA,NA,9,6,"15,1,13,2,11,12,4,5,6,8,7,10,14,3,9"
15205,commdev-image-keyboard-response,551,946806,learnblock2,610.1999999999534,img/planet5_right.png,5,Community 2,NA,TRUE,j,j,NA,NA,NA,9,6,"15,1,13,2,11,12,4,5,6,8,7,10,14,3,9"
15205,commdev-image-keyboard-response,552,948068,learnblock2,787,img/planet8_left.png,8,Community 2,NA,TRUE,f,f,NA,NA,NA,9,6,"15,1,13,2,11,12,4,5,6,8,7,10,14,3,9"
15205,commdev-image-keyboard-response,553,949324,learnblock2,826.0999999998603,img/planet4_right.png,4,Community 2,NA,TRUE,j,j,NA,NA,NA,9,6,"15,1,13,2,11,12,4,5,6,8,7,10,14,3,9"
15205,commdev-image-keyboard-response,554,950583,learnblock2,626.9000000001397,img/planet12_right.png,12,Community 2,NA,TRUE,j,j,NA,NA,NA,9,6,"15,1,13,2,11,12,4,5,6,8,7,10,14,3,9"
15205,commdev-image-keyboard-response,555,951840,learnblock2,713.9000000001397,img/planet6_right.png,6,Community 2,NA,TRUE,j,j,NA,NA,NA,9,6,"15,1,13,2,11,12,4,5,6,8,7,10,14,3,9"
15205,commdev-image-keyboard-response,556,953098,learnblock2,738.3999999999069,img/planet4_left.png,4,Community 2,NA,FALSE,j,f,NA,NA,NA,9,6,"15,1,13,2,11,12,4,5,6,8,7,10,14,3,9"
15205,commdev-image-keyboard-response,557,954357,learnblock2,1063.7000000001863,img/planet5_left.png,5,Community 2,NA,TRUE,f,f,NA,NA,NA,9,6,"15,1,13,2,11,12,4,5,6,8,7,10,14,3,9"
15205,commdev-image-keyboard-response,558,955621,learnblock2,837.1000000000931,img/planet6_right.png,6,Community 2,NA,TRUE,j,j,NA,NA,NA,9,6,"15,1,13,2,11,12,4,5,6,8,7,10,14,3,9"
15205,commdev-image-keyboard-response,559,956877,learnblock2,1024.8000000000466,img/planet8_right.png,8,Community 2,NA,TRUE,j,j,NA,NA,NA,9,6,"15,1,13,2,11,12,4,5,6,8,7,10,14,3,9"
15205,commdev-image-keyboard-response,560,958134,learnblock2,694.6999999999534,img/planet12_right.png,12,Community 2,NA,TRUE,j,j,NA,NA,NA,9,6,"15,1,13,2,11,12,4,5,6,8,7,10,14,3,9"
15205,commdev-image-keyboard-response,561,959390,learnblock2,741.6000000000931,img/planet4_left.png,4,Community 2,NA,TRUE,f,f,NA,NA,NA,9,6,"15,1,13,2,11,12,4,5,6,8,7,10,14,3,9"
15205,commdev-image-keyboard-response,562,960643,learnblock2,894.8000000000466,img/planet6_left.png,6,Community 2,NA,TRUE,f,f,NA,NA,NA,9,6,"15,1,13,2,11,12,4,5,6,8,7,10,14,3,9"
15205,commdev-image-keyboard-response,563,961908,learnblock2,799.8999999999069,img/planet4_left.png,4,Community 2,NA,TRUE,f,f,NA,NA,NA,9,6,"15,1,13,2,11,12,4,5,6,8,7,10,14,3,9"
15205,commdev-image-keyboard-response,564,963161,learnblock2,968.6999999999534,img/planet8_right.png,8,Community 2,NA,TRUE,j,j,NA,NA,NA,9,6,"15,1,13,2,11,12,4,5,6,8,7,10,14,3,9"
15205,commdev-image-keyboard-response,565,964417,learnblock2,964.2999999998137,img/planet4_left.png,4,Community 2,NA,TRUE,f,f,NA,NA,NA,9,6,"15,1,13,2,11,12,4,5,6,8,7,10,14,3,9"
15205,commdev-image-keyboard-response,566,965669,learnblock2,1064.2999999998137,img/planet12_left.png,12,Community 2,NA,TRUE,f,f,NA,NA,NA,9,6,"15,1,13,2,11,12,4,5,6,8,7,10,14,3,9"
15205,commdev-image-keyboard-response,567,966932,learnblock2,1023.8000000000466,img/planet8_left.png,8,Community 2,NA,TRUE,f,f,NA,NA,NA,9,6,"15,1,13,2,11,12,4,5,6,8,7,10,14,3,9"
15205,commdev-image-keyboard-response,568,968184,learnblock2,767.5999999998603,img/planet6_right.png,6,Community 2,NA,TRUE,j,j,NA,NA,NA,9,6,"15,1,13,2,11,12,4,5,6,8,7,10,14,3,9"
15205,commdev-image-keyboard-response,569,969439,learnblock2,1020.0999999998603,img/planet5_right.png,5,Community 2,NA,TRUE,j,j,NA,NA,NA,9,6,"15,1,13,2,11,12,4,5,6,8,7,10,14,3,9"
15205,commdev-image-keyboard-response,570,970703,learnblock2,795,img/planet6_right.png,6,Community 2,NA,TRUE,j,j,NA,NA,NA,9,6,"15,1,13,2,11,12,4,5,6,8,7,10,14,3,9"
15205,commdev-image-keyboard-response,571,971960,learnblock2,655.1000000000931,img/planet4_left.png,4,Community 2,NA,TRUE,f,f,NA,NA,NA,9,6,"15,1,13,2,11,12,4,5,6,8,7,10,14,3,9"
15205,commdev-image-keyboard-response,572,973220,learnblock2,699.7000000001863,img/planet6_right.png,6,Community 2,NA,FALSE,f,j,NA,NA,NA,9,6,"15,1,13,2,11,12,4,5,6,8,7,10,14,3,9"
15205,commdev-image-keyboard-response,573,974478,learnblock2,1124.5999999998603,img/planet12_left.png,12,Community 2,NA,TRUE,f,f,NA,NA,NA,9,6,"15,1,13,2,11,12,4,5,6,8,7,10,14,3,9"
15205,commdev-image-keyboard-response,574,975731,learnblock2,1104.7000000001863,img/planet4_left.png,4,Community 2,NA,TRUE,f,f,NA,NA,NA,9,6,"15,1,13,2,11,12,4,5,6,8,7,10,14,3,9"
15205,commdev-image-keyboard-response,575,976995,learnblock2,826.6999999999534,img/planet6_left.png,6,Community 2,NA,TRUE,f,f,NA,NA,NA,9,6,"15,1,13,2,11,12,4,5,6,8,7,10,14,3,9"
15205,commdev-image-keyboard-response,576,978255,learnblock2,944.6000000000931,img/planet8_right.png,8,Community 2,NA,TRUE,j,j,NA,NA,NA,9,6,"15,1,13,2,11,12,4,5,6,8,7,10,14,3,9"
15205,commdev-image-keyboard-response,577,979507,learnblock2,957.6000000000931,img/planet6_left.png,6,Community 2,NA,TRUE,f,f,NA,NA,NA,9,6,"15,1,13,2,11,12,4,5,6,8,7,10,14,3,9"
15205,commdev-image-keyboard-response,578,980765,learnblock2,667.4000000001397,img/planet5_right.png,5,Community 2,NA,TRUE,j,j,NA,NA,NA,9,6,"15,1,13,2,11,12,4,5,6,8,7,10,14,3,9"
15205,commdev-image-keyboard-response,579,982018,learnblock2,920.2000000001863,img/planet4_left.png,4,Community 2,NA,TRUE,f,f,NA,NA,NA,9,6,"15,1,13,2,11,12,4,5,6,8,7,10,14,3,9"
15205,commdev-image-keyboard-response,580,983274,learnblock2,1001.3000000000466,img/planet8_left.png,8,Community 2,NA,TRUE,f,f,NA,NA,NA,9,6,"15,1,13,2,11,12,4,5,6,8,7,10,14,3,9"
15205,commdev-image-keyboard-response,581,984532,learnblock2,728.6000000000931,img/planet6_right.png,6,Community 2,NA,TRUE,j,j,NA,NA,NA,9,6,"15,1,13,2,11,12,4,5,6,8,7,10,14,3,9"
15205,commdev-image-keyboard-response,582,985792,learnblock2,1149.3000000000466,img/planet8_right.png,8,Community 2,NA,TRUE,j,j,NA,NA,NA,9,6,"15,1,13,2,11,12,4,5,6,8,7,10,14,3,9"
15205,commdev-image-keyboard-response,583,987052,learnblock2,837.6000000000931,img/planet6_left.png,6,Community 2,NA,TRUE,f,f,NA,NA,NA,9,6,"15,1,13,2,11,12,4,5,6,8,7,10,14,3,9"
15205,commdev-image-keyboard-response,584,988307,learnblock2,824,img/planet8_left.png,8,Community 2,NA,TRUE,f,f,NA,NA,NA,9,6,"15,1,13,2,11,12,4,5,6,8,7,10,14,3,9"
15205,commdev-image-keyboard-response,585,989562,learnblock2,889.5999999998603,img/planet4_left.png,4,Community 2,NA,TRUE,f,f,NA,NA,NA,9,6,"15,1,13,2,11,12,4,5,6,8,7,10,14,3,9"
15205,commdev-image-keyboard-response,586,990815,learnblock2,647.5,img/planet12_left.png,12,Community 2,NA,TRUE,f,f,NA,NA,NA,9,6,"15,1,13,2,11,12,4,5,6,8,7,10,14,3,9"
15205,commdev-image-keyboard-response,587,992067,learnblock2,701.5,img/planet4_right.png,4,Community 2,NA,TRUE,j,j,NA,NA,NA,9,6,"15,1,13,2,11,12,4,5,6,8,7,10,14,3,9"
