subject_id,trial_type,trial_index,time_elapsed,block,rt,stimulus,planet,community,response,correct,key_press,learning_correct_response,parse,init_locations,final_locations,browser_interactions,num_comp,planet_map
15036,commdev-instructions,7,104098,NA,3383.4000000003725,"<p>In this game, you are a scientist on board a space shuttle. </p><p> On each mission, you will visit planets all across the universe.</p><img src=""img/controlroom.jpg"" width=300vw>",NA,NA,NA,NA,NA,NA,NA,NA,NA,5,7,"9,8,2,13,7,4,10,12,3,14,1,6,11,15,5"
15036,commdev-instructions,8,109479,NA,3303.9000000003725,"<p>Here are a few planets you might see:</p><img src=""img/practice1.png"" width=200vw><img src=""img/practice2.png"" width=200vw><img src=""img/practice3.png"" width=200vw>",NA,NA,NA,NA,NA,NA,NA,NA,NA,5,7,"9,8,2,13,7,4,10,12,3,14,1,6,11,15,5"
15036,commdev-instructions,9,117765,NA,888.8000000007451,"<p>Your job as a scientist is to record which direction the winds are moving on each planet.</p><p>There are two types of wind directions:</p><img src=""img/practice1_left.png"" width=200vw><img src=""img/practice1_right.png"" width=200vw>",NA,NA,NA,NA,NA,NA,NA,NA,NA,5,7,"9,8,2,13,7,4,10,12,3,14,1,6,11,15,5"
15036,commdev-instructions,10,124834,NA,2188.800000000745,"<p>If the winds are moving this way, press the letter <strong>F</strong> on the keyboard as fast as you can.</p><img src=""img/leftwind.png"" width=250vw>",NA,NA,NA,NA,NA,NA,NA,NA,NA,5,7,"9,8,2,13,7,4,10,12,3,14,1,6,11,15,5"
15036,commdev-instructions,11,131011,NA,1687.0999999996275,"<p>If the winds are moving this way, press the letter <strong>J</strong> on the keyboard as fast as you can.</p><img src=""img/rightwind.png"" width=350vw>",NA,NA,NA,NA,NA,NA,NA,NA,NA,5,7,"9,8,2,13,7,4,10,12,3,14,1,6,11,15,5"
15036,commdev-instructions,12,151885,NA,16460.400000000373,<p>You will have 1 second to respond. Try to respond before the time runs out!,NA,NA,NA,NA,NA,NA,NA,NA,NA,5,7,"9,8,2,13,7,4,10,12,3,14,1,6,11,15,5"
15036,commdev-instructions,13,157901,NA,589,<p>The planets you will visit will look different from each other.</p><p>You should respond <strong>only</strong> based on wind direction.,NA,NA,NA,NA,NA,NA,NA,NA,NA,5,7,"9,8,2,13,7,4,10,12,3,14,1,6,11,15,5"
15036,commdev-instructions,14,164653,NA,1590.2000000011176,"<p> Ready to start the practice round? </p><p> Remember, press <strong>F</strong> or <strong>J</strong> depending on the wind direction.<br><img src=""img/categorize_planet_example.png""",NA,NA,NA,NA,NA,NA,NA,NA,NA,5,7,"9,8,2,13,7,4,10,12,3,14,1,6,11,15,5"
15036,commdev-instructions,26,216416,NA,2223.4000000003725,"<p>Great, now try a short practice mission. </p><p> This time, you will have 1 second to respond and you won't know whether you pressed the right or wrong key for each planet.</p>",NA,NA,NA,NA,NA,NA,NA,NA,NA,5,7,"9,8,2,13,7,4,10,12,3,14,1,6,11,15,5"
15036,commdev-image-keyboard-response,27,217779,practice,null,img/practice2_left.png,NA,Number not found in mappings,NA,FALSE,null,f,NA,NA,NA,5,7,"9,8,2,13,7,4,10,12,3,14,1,6,11,15,5"
15036,commdev-image-keyboard-response,28,219031,practice,715.2999999988824,img/practice3_right.png,NA,Number not found in mappings,NA,TRUE,j,j,NA,NA,NA,5,7,"9,8,2,13,7,4,10,12,3,14,1,6,11,15,5"
15036,commdev-image-keyboard-response,29,220282,practice,556.5,img/practice4_left.png,NA,Number not found in mappings,NA,TRUE,f,f,NA,NA,NA,5,7,"9,8,2,13,7,4,10,12,3,14,1,6,11,15,5"
15036,commdev-image-keyboard-response,30,221534,practice,741.7000000011176,img/practice3_left.png,NA,Number not found in mappings,NA,FALSE,j,f,NA,NA,NA,5,7,"9,8,2,13,7,4,10,12,3,14,1,6,11,15,5"
15036,commdev-image-keyboard-response,31,222786,practice,563.4000000003725,img/practice2_right.png,NA,Number not found in mappings,NA,TRUE,j,j,NA,NA,NA,5,7,"9,8,2,13,7,4,10,12,3,14,1,6,11,15,5"
15036,commdev-image-keyboard-response,32,224037,practice,457.2999999988824,img/practice3_left.png,NA,Number not found in mappings,NA,TRUE,f,f,NA,NA,NA,5,7,"9,8,2,13,7,4,10,12,3,14,1,6,11,15,5"
15036,commdev-image-keyboard-response,33,225289,practice,449.19999999925494,img/practice4_right.png,NA,Number not found in mappings,NA,TRUE,j,j,NA,NA,NA,5,7,"9,8,2,13,7,4,10,12,3,14,1,6,11,15,5"
15036,commdev-image-keyboard-response,34,226540,practice,578.2000000011176,img/practice1_right.png,NA,Number not found in mappings,NA,TRUE,j,j,NA,NA,NA,5,7,"9,8,2,13,7,4,10,12,3,14,1,6,11,15,5"
15036,commdev-instructions,35,264421,NA,28320.099999999627,"<p>Great job with the practice round.</p><p>During real missions, you won't know whether you pressed the right or wrong key for each planet.</p><p>But between missions, we will tell you how you did overall.</p>",NA,NA,NA,NA,NA,NA,NA,NA,NA,5,7,"9,8,2,13,7,4,10,12,3,14,1,6,11,15,5"
15036,commdev-instructions,36,274477,NA,1822.9000000003725,<p>Try your best! You will be paid a bonus based on how many correct responses you make!</p><p>Responses that are too slow will not count toward your bonus.</p>,NA,NA,NA,NA,NA,NA,NA,NA,NA,5,7,"9,8,2,13,7,4,10,12,3,14,1,6,11,15,5"
15036,commdev-instructions,37,281442,NA,766.6000000014901,"<p>You are almost ready to start the real game.</p><p> First, we are going to ask you some questions about how the game works.</p>",NA,NA,NA,NA,NA,NA,NA,NA,NA,5,7,"9,8,2,13,7,4,10,12,3,14,1,6,11,15,5"
15036,commdev-instructions,46,374803,NA,2282.7999999988824,"<p> Nice work! It is now time to start the real game.<p></p>You will go on two missions to record wind directions of different planets.<p></p>Each one will take about 5 minutes. You will get to take a break between missions.<p><p> Remember, press <strong>F</strong> or <strong>J</strong> depending on the wind direction. Good luck!<br><img src=""img/categorize_planet_example.png""",NA,NA,NA,NA,NA,NA,NA,NA,NA,5,7,"9,8,2,13,7,4,10,12,3,14,1,6,11,15,5"
15036,commdev-image-keyboard-response,48,379016,learnblock1,915.5999999996275,img/planet1_right.png,1,Community 3,NA,TRUE,j,j,NA,NA,NA,5,7,"9,8,2,13,7,4,10,12,3,14,1,6,11,15,5"
15036,commdev-image-keyboard-response,49,380267,learnblock1,821.3000000007451,img/planet15_right.png,15,Community 3,NA,TRUE,j,j,NA,NA,NA,5,7,"9,8,2,13,7,4,10,12,3,14,1,6,11,15,5"
15036,commdev-image-keyboard-response,50,381518,learnblock1,686.9000000003725,img/planet6_left.png,6,Community 3,NA,TRUE,f,f,NA,NA,NA,5,7,"9,8,2,13,7,4,10,12,3,14,1,6,11,15,5"
15036,commdev-image-keyboard-response,51,382770,learnblock1,628.0999999996275,img/planet15_right.png,15,Community 3,NA,FALSE,f,j,NA,NA,NA,5,7,"9,8,2,13,7,4,10,12,3,14,1,6,11,15,5"
15036,commdev-image-keyboard-response,52,384022,learnblock1,670.6999999992549,img/planet6_left.png,6,Community 3,NA,TRUE,f,f,NA,NA,NA,5,7,"9,8,2,13,7,4,10,12,3,14,1,6,11,15,5"
15036,commdev-image-keyboard-response,53,385273,learnblock1,690.6999999992549,img/planet11_left.png,11,Community 3,NA,TRUE,f,f,NA,NA,NA,5,7,"9,8,2,13,7,4,10,12,3,14,1,6,11,15,5"
15036,commdev-image-keyboard-response,54,386528,learnblock1,576.5999999996275,img/planet15_left.png,15,Community 3,NA,TRUE,f,f,NA,NA,NA,5,7,"9,8,2,13,7,4,10,12,3,14,1,6,11,15,5"
15036,commdev-image-keyboard-response,55,387779,learnblock1,583.6999999992549,img/planet5_left.png,5,Community 3,NA,TRUE,f,f,NA,NA,NA,5,7,"9,8,2,13,7,4,10,12,3,14,1,6,11,15,5"
15036,commdev-image-keyboard-response,56,389030,learnblock1,710,img/planet15_right.png,15,Community 3,NA,TRUE,j,j,NA,NA,NA,5,7,"9,8,2,13,7,4,10,12,3,14,1,6,11,15,5"
15036,commdev-image-keyboard-response,57,390282,learnblock1,803.6000000014901,img/planet6_left.png,6,Community 3,NA,TRUE,f,f,NA,NA,NA,5,7,"9,8,2,13,7,4,10,12,3,14,1,6,11,15,5"
15036,commdev-image-keyboard-response,58,391533,learnblock1,713,img/planet11_right.png,11,Community 3,NA,TRUE,j,j,NA,NA,NA,5,7,"9,8,2,13,7,4,10,12,3,14,1,6,11,15,5"
15036,commdev-image-keyboard-response,59,392785,learnblock1,622.4000000003725,img/planet15_right.png,15,Community 3,NA,TRUE,j,j,NA,NA,NA,5,7,"9,8,2,13,7,4,10,12,3,14,1,6,11,15,5"
15036,commdev-image-keyboard-response,60,394037,learnblock1,660.2999999988824,img/planet11_right.png,11,Community 3,NA,TRUE,j,j,NA,NA,NA,5,7,"9,8,2,13,7,4,10,12,3,14,1,6,11,15,5"
15036,commdev-image-keyboard-response,61,395288,learnblock1,647.1999999992549,img/planet15_right.png,15,Community 3,NA,TRUE,j,j,NA,NA,NA,5,7,"9,8,2,13,7,4,10,12,3,14,1,6,11,15,5"
15036,commdev-image-keyboard-response,62,396540,learnblock1,820.5,img/planet5_left.png,5,Community 3,NA,TRUE,f,f,NA,NA,NA,5,7,"9,8,2,13,7,4,10,12,3,14,1,6,11,15,5"
15036,commdev-image-keyboard-response,63,397792,learnblock1,596.1000000014901,img/planet15_left.png,15,Community 3,NA,TRUE,f,f,NA,NA,NA,5,7,"9,8,2,13,7,4,10,12,3,14,1,6,11,15,5"
15036,commdev-image-keyboard-response,64,399043,learnblock1,509.3999999985099,img/planet1_left.png,1,Community 3,NA,TRUE,f,f,NA,NA,NA,5,7,"9,8,2,13,7,4,10,12,3,14,1,6,11,15,5"
15036,commdev-image-keyboard-response,65,400295,learnblock1,517.5,img/planet5_left.png,5,Community 3,NA,TRUE,f,f,NA,NA,NA,5,7,"9,8,2,13,7,4,10,12,3,14,1,6,11,15,5"
15036,commdev-image-keyboard-response,66,401547,learnblock1,566.5999999996275,img/planet11_left.png,11,Community 3,NA,TRUE,f,f,NA,NA,NA,5,7,"9,8,2,13,7,4,10,12,3,14,1,6,11,15,5"
15036,commdev-image-keyboard-response,67,402799,learnblock1,660.0999999996275,img/planet5_left.png,5,Community 3,NA,TRUE,f,f,NA,NA,NA,5,7,"9,8,2,13,7,4,10,12,3,14,1,6,11,15,5"
15036,commdev-image-keyboard-response,68,404051,learnblock1,547.7000000011176,img/planet15_left.png,15,Community 3,NA,TRUE,f,f,NA,NA,NA,5,7,"9,8,2,13,7,4,10,12,3,14,1,6,11,15,5"
15036,commdev-image-keyboard-response,69,405303,learnblock1,493.69999999925494,img/planet6_right.png,6,Community 3,NA,TRUE,j,j,NA,NA,NA,5,7,"9,8,2,13,7,4,10,12,3,14,1,6,11,15,5"
15036,commdev-image-keyboard-response,70,406556,learnblock1,536.9000000003725,img/planet5_right.png,5,Community 3,NA,TRUE,j,j,NA,NA,NA,5,7,"9,8,2,13,7,4,10,12,3,14,1,6,11,15,5"
15036,commdev-image-keyboard-response,71,407809,learnblock1,484.5,img/planet6_left.png,6,Community 3,NA,TRUE,f,f,NA,NA,NA,5,7,"9,8,2,13,7,4,10,12,3,14,1,6,11,15,5"
15036,commdev-image-keyboard-response,72,409062,learnblock1,577.7000000011176,img/planet11_right.png,11,Community 3,NA,TRUE,j,j,NA,NA,NA,5,7,"9,8,2,13,7,4,10,12,3,14,1,6,11,15,5"
15036,commdev-image-keyboard-response,73,410313,learnblock1,581.2000000011176,img/planet5_right.png,5,Community 3,NA,TRUE,j,j,NA,NA,NA,5,7,"9,8,2,13,7,4,10,12,3,14,1,6,11,15,5"
15036,commdev-image-keyboard-response,74,411566,learnblock1,506.2000000011176,img/planet11_right.png,11,Community 3,NA,TRUE,j,j,NA,NA,NA,5,7,"9,8,2,13,7,4,10,12,3,14,1,6,11,15,5"
15036,commdev-image-keyboard-response,75,412819,learnblock1,509.40000000037253,img/planet15_left.png,15,Community 3,NA,TRUE,f,f,NA,NA,NA,5,7,"9,8,2,13,7,4,10,12,3,14,1,6,11,15,5"
15036,commdev-image-keyboard-response,76,414072,learnblock1,825.9000000003725,img/planet6_left.png,6,Community 3,NA,TRUE,f,f,NA,NA,NA,5,7,"9,8,2,13,7,4,10,12,3,14,1,6,11,15,5"
15036,commdev-image-keyboard-response,77,415324,learnblock1,514.5,img/planet12_right.png,12,Community 2,NA,TRUE,j,j,NA,NA,NA,5,7,"9,8,2,13,7,4,10,12,3,14,1,6,11,15,5"
15036,commdev-image-keyboard-response,78,416576,learnblock1,548.9000000003725,img/planet3_right.png,3,Community 2,NA,TRUE,j,j,NA,NA,NA,5,7,"9,8,2,13,7,4,10,12,3,14,1,6,11,15,5"
15036,commdev-image-keyboard-response,79,417828,learnblock1,480.30000000074506,img/planet12_left.png,12,Community 2,NA,TRUE,f,f,NA,NA,NA,5,7,"9,8,2,13,7,4,10,12,3,14,1,6,11,15,5"
15036,commdev-image-keyboard-response,80,419081,learnblock1,398.59999999962747,img/planet6_right.png,6,Community 3,NA,TRUE,j,j,NA,NA,NA,5,7,"9,8,2,13,7,4,10,12,3,14,1,6,11,15,5"
15036,commdev-image-keyboard-response,81,420334,learnblock1,487.09999999962747,img/planet11_left.png,11,Community 3,NA,TRUE,f,f,NA,NA,NA,5,7,"9,8,2,13,7,4,10,12,3,14,1,6,11,15,5"
15036,commdev-image-keyboard-response,82,421587,learnblock1,614.5999999996275,img/planet1_left.png,1,Community 3,NA,TRUE,f,f,NA,NA,NA,5,7,"9,8,2,13,7,4,10,12,3,14,1,6,11,15,5"
15036,commdev-image-keyboard-response,83,422839,learnblock1,690.5999999996275,img/planet5_right.png,5,Community 3,NA,TRUE,j,j,NA,NA,NA,5,7,"9,8,2,13,7,4,10,12,3,14,1,6,11,15,5"
15036,commdev-image-keyboard-response,84,424092,learnblock1,705.3000000007451,img/planet6_left.png,6,Community 3,NA,FALSE,j,f,NA,NA,NA,5,7,"9,8,2,13,7,4,10,12,3,14,1,6,11,15,5"
15036,commdev-image-keyboard-response,85,425344,learnblock1,1176.5,img/planet11_left.png,11,Community 3,NA,TRUE,f,f,NA,NA,NA,5,7,"9,8,2,13,7,4,10,12,3,14,1,6,11,15,5"
15036,commdev-image-keyboard-response,86,426597,learnblock1,671.3000000007451,img/planet6_left.png,6,Community 3,NA,TRUE,f,f,NA,NA,NA,5,7,"9,8,2,13,7,4,10,12,3,14,1,6,11,15,5"
15036,commdev-image-keyboard-response,87,427850,learnblock1,599.2999999988824,img/planet5_left.png,5,Community 3,NA,TRUE,f,f,NA,NA,NA,5,7,"9,8,2,13,7,4,10,12,3,14,1,6,11,15,5"
15036,commdev-image-keyboard-response,88,429102,learnblock1,614.6000000014901,img/planet15_right.png,15,Community 3,NA,TRUE,j,j,NA,NA,NA,5,7,"9,8,2,13,7,4,10,12,3,14,1,6,11,15,5"
15036,commdev-image-keyboard-response,89,430354,learnblock1,606.0999999996275,img/planet1_right.png,1,Community 3,NA,TRUE,j,j,NA,NA,NA,5,7,"9,8,2,13,7,4,10,12,3,14,1,6,11,15,5"
15036,commdev-image-keyboard-response,90,431607,learnblock1,498.90000000037253,img/planet11_left.png,11,Community 3,NA,TRUE,f,f,NA,NA,NA,5,7,"9,8,2,13,7,4,10,12,3,14,1,6,11,15,5"
15036,commdev-image-keyboard-response,91,432859,learnblock1,471,img/planet15_right.png,15,Community 3,NA,TRUE,j,j,NA,NA,NA,5,7,"9,8,2,13,7,4,10,12,3,14,1,6,11,15,5"
15036,commdev-image-keyboard-response,92,434111,learnblock1,642.7000000011176,img/planet1_right.png,1,Community 3,NA,TRUE,j,j,NA,NA,NA,5,7,"9,8,2,13,7,4,10,12,3,14,1,6,11,15,5"
15036,commdev-image-keyboard-response,93,435363,learnblock1,730.0999999996275,img/planet7_right.png,7,Community 1,NA,TRUE,j,j,NA,NA,NA,5,7,"9,8,2,13,7,4,10,12,3,14,1,6,11,15,5"
15036,commdev-image-keyboard-response,94,436615,learnblock1,534.0999999996275,img/planet2_right.png,2,Community 1,NA,TRUE,j,j,NA,NA,NA,5,7,"9,8,2,13,7,4,10,12,3,14,1,6,11,15,5"
15036,commdev-image-keyboard-response,95,437867,learnblock1,562.8000000007451,img/planet13_right.png,13,Community 1,NA,TRUE,j,j,NA,NA,NA,5,7,"9,8,2,13,7,4,10,12,3,14,1,6,11,15,5"
15036,commdev-image-keyboard-response,96,439119,learnblock1,622.0999999996275,img/planet2_left.png,2,Community 1,NA,TRUE,f,f,NA,NA,NA,5,7,"9,8,2,13,7,4,10,12,3,14,1,6,11,15,5"
15036,commdev-image-keyboard-response,97,440371,learnblock1,597.3000000007451,img/planet8_right.png,8,Community 1,NA,TRUE,j,j,NA,NA,NA,5,7,"9,8,2,13,7,4,10,12,3,14,1,6,11,15,5"
15036,commdev-image-keyboard-response,98,441623,learnblock1,585.8000000007451,img/planet13_left.png,13,Community 1,NA,TRUE,f,f,NA,NA,NA,5,7,"9,8,2,13,7,4,10,12,3,14,1,6,11,15,5"
15036,commdev-image-keyboard-response,99,442876,learnblock1,890.4000000003725,img/planet2_left.png,2,Community 1,NA,FALSE,j,f,NA,NA,NA,5,7,"9,8,2,13,7,4,10,12,3,14,1,6,11,15,5"
15036,commdev-image-keyboard-response,100,444128,learnblock1,43.09999999962747,img/planet7_left.png,7,Community 1,NA,TRUE,f,f,NA,NA,NA,5,7,"9,8,2,13,7,4,10,12,3,14,1,6,11,15,5"
15036,commdev-image-keyboard-response,101,445380,learnblock1,726.4000000003725,img/planet2_right.png,2,Community 1,NA,TRUE,j,j,NA,NA,NA,5,7,"9,8,2,13,7,4,10,12,3,14,1,6,11,15,5"
15036,commdev-image-keyboard-response,102,446633,learnblock1,768.3000000007451,img/planet7_left.png,7,Community 1,NA,TRUE,f,f,NA,NA,NA,5,7,"9,8,2,13,7,4,10,12,3,14,1,6,11,15,5"
15036,commdev-image-keyboard-response,103,447885,learnblock1,556.2000000011176,img/planet1_left.png,1,Community 3,NA,TRUE,f,f,NA,NA,NA,5,7,"9,8,2,13,7,4,10,12,3,14,1,6,11,15,5"
15036,commdev-image-keyboard-response,104,449137,learnblock1,615.0999999996275,img/planet5_left.png,5,Community 3,NA,TRUE,f,f,NA,NA,NA,5,7,"9,8,2,13,7,4,10,12,3,14,1,6,11,15,5"
15036,commdev-image-keyboard-response,105,450390,learnblock1,723.0999999996275,img/planet11_right.png,11,Community 3,NA,TRUE,j,j,NA,NA,NA,5,7,"9,8,2,13,7,4,10,12,3,14,1,6,11,15,5"
15036,commdev-image-keyboard-response,106,451642,learnblock1,697.5999999996275,img/planet5_left.png,5,Community 3,NA,TRUE,f,f,NA,NA,NA,5,7,"9,8,2,13,7,4,10,12,3,14,1,6,11,15,5"
15036,commdev-image-keyboard-response,107,452895,learnblock1,616.9000000003725,img/planet6_right.png,6,Community 3,NA,TRUE,j,j,NA,NA,NA,5,7,"9,8,2,13,7,4,10,12,3,14,1,6,11,15,5"
15036,commdev-image-keyboard-response,108,454147,learnblock1,639.0999999996275,img/planet5_right.png,5,Community 3,NA,TRUE,j,j,NA,NA,NA,5,7,"9,8,2,13,7,4,10,12,3,14,1,6,11,15,5"
15036,commdev-image-keyboard-response,109,455400,learnblock1,630.1999999992549,img/planet1_left.png,1,Community 3,NA,TRUE,f,f,NA,NA,NA,5,7,"9,8,2,13,7,4,10,12,3,14,1,6,11,15,5"
15036,commdev-image-keyboard-response,110,456652,learnblock1,518,img/planet5_right.png,5,Community 3,NA,TRUE,j,j,NA,NA,NA,5,7,"9,8,2,13,7,4,10,12,3,14,1,6,11,15,5"
15036,commdev-image-keyboard-response,111,457904,learnblock1,678.5,img/planet1_left.png,1,Community 3,NA,TRUE,f,f,NA,NA,NA,5,7,"9,8,2,13,7,4,10,12,3,14,1,6,11,15,5"
15036,commdev-image-keyboard-response,112,459155,learnblock1,586.8000000007451,img/planet11_right.png,11,Community 3,NA,TRUE,j,j,NA,NA,NA,5,7,"9,8,2,13,7,4,10,12,3,14,1,6,11,15,5"
15036,commdev-image-keyboard-response,113,460407,learnblock1,504.09999999962747,img/planet15_right.png,15,Community 3,NA,FALSE,f,j,NA,NA,NA,5,7,"9,8,2,13,7,4,10,12,3,14,1,6,11,15,5"
15036,commdev-image-keyboard-response,114,461658,learnblock1,582.5,img/planet6_left.png,6,Community 3,NA,TRUE,f,f,NA,NA,NA,5,7,"9,8,2,13,7,4,10,12,3,14,1,6,11,15,5"
15036,commdev-image-keyboard-response,115,462910,learnblock1,499.59999999962747,img/planet5_right.png,5,Community 3,NA,TRUE,j,j,NA,NA,NA,5,7,"9,8,2,13,7,4,10,12,3,14,1,6,11,15,5"
15036,commdev-image-keyboard-response,116,464161,learnblock1,640.3000000007451,img/planet1_right.png,1,Community 3,NA,TRUE,j,j,NA,NA,NA,5,7,"9,8,2,13,7,4,10,12,3,14,1,6,11,15,5"
15036,commdev-image-keyboard-response,117,465413,learnblock1,751.9000000003725,img/planet15_left.png,15,Community 3,NA,TRUE,f,f,NA,NA,NA,5,7,"9,8,2,13,7,4,10,12,3,14,1,6,11,15,5"
15036,commdev-image-keyboard-response,118,466664,learnblock1,566.5,img/planet11_left.png,11,Community 3,NA,TRUE,f,f,NA,NA,NA,5,7,"9,8,2,13,7,4,10,12,3,14,1,6,11,15,5"
15036,commdev-image-keyboard-response,119,467915,learnblock1,454.09999999962747,img/planet5_right.png,5,Community 3,NA,TRUE,j,j,NA,NA,NA,5,7,"9,8,2,13,7,4,10,12,3,14,1,6,11,15,5"
15036,commdev-image-keyboard-response,120,469166,learnblock1,580.7000000011176,img/planet6_right.png,6,Community 3,NA,TRUE,j,j,NA,NA,NA,5,7,"9,8,2,13,7,4,10,12,3,14,1,6,11,15,5"
15036,commdev-image-keyboard-response,121,470418,learnblock1,468.40000000037253,img/planet11_right.png,11,Community 3,NA,FALSE,f,j,NA,NA,NA,5,7,"9,8,2,13,7,4,10,12,3,14,1,6,11,15,5"
15036,commdev-image-keyboard-response,122,471669,learnblock1,683.0999999996275,img/planet6_right.png,6,Community 3,NA,TRUE,j,j,NA,NA,NA,5,7,"9,8,2,13,7,4,10,12,3,14,1,6,11,15,5"
15036,commdev-image-keyboard-response,123,472921,learnblock1,607,img/planet11_left.png,11,Community 3,NA,TRUE,f,f,NA,NA,NA,5,7,"9,8,2,13,7,4,10,12,3,14,1,6,11,15,5"
15036,commdev-image-keyboard-response,124,474173,learnblock1,441.40000000037253,img/planet6_left.png,6,Community 3,NA,FALSE,j,f,NA,NA,NA,5,7,"9,8,2,13,7,4,10,12,3,14,1,6,11,15,5"
15036,commdev-image-keyboard-response,125,475424,learnblock1,771.1000000014901,img/planet12_left.png,12,Community 2,NA,FALSE,j,f,NA,NA,NA,5,7,"9,8,2,13,7,4,10,12,3,14,1,6,11,15,5"
15036,commdev-image-keyboard-response,126,476675,learnblock1,625.0999999996275,img/planet3_right.png,3,Community 2,NA,TRUE,j,j,NA,NA,NA,5,7,"9,8,2,13,7,4,10,12,3,14,1,6,11,15,5"
15036,commdev-image-keyboard-response,127,477927,learnblock1,653,img/planet12_left.png,12,Community 2,NA,TRUE,f,f,NA,NA,NA,5,7,"9,8,2,13,7,4,10,12,3,14,1,6,11,15,5"
15036,commdev-image-keyboard-response,128,479178,learnblock1,723.5,img/planet6_left.png,6,Community 3,NA,TRUE,f,f,NA,NA,NA,5,7,"9,8,2,13,7,4,10,12,3,14,1,6,11,15,5"
15036,commdev-image-keyboard-response,129,480430,learnblock1,512.3999999985099,img/planet11_left.png,11,Community 3,NA,TRUE,f,f,NA,NA,NA,5,7,"9,8,2,13,7,4,10,12,3,14,1,6,11,15,5"
15036,commdev-image-keyboard-response,130,481681,learnblock1,537.0999999996275,img/planet5_right.png,5,Community 3,NA,TRUE,j,j,NA,NA,NA,5,7,"9,8,2,13,7,4,10,12,3,14,1,6,11,15,5"
15036,commdev-image-keyboard-response,131,482933,learnblock1,459,img/planet15_right.png,15,Community 3,NA,FALSE,f,j,NA,NA,NA,5,7,"9,8,2,13,7,4,10,12,3,14,1,6,11,15,5"
15036,commdev-image-keyboard-response,132,484184,learnblock1,544,img/planet1_left.png,1,Community 3,NA,TRUE,f,f,NA,NA,NA,5,7,"9,8,2,13,7,4,10,12,3,14,1,6,11,15,5"
15036,commdev-image-keyboard-response,133,485436,learnblock1,578.8999999985099,img/planet15_left.png,15,Community 3,NA,TRUE,f,f,NA,NA,NA,5,7,"9,8,2,13,7,4,10,12,3,14,1,6,11,15,5"
15036,commdev-image-keyboard-response,134,486687,learnblock1,583.9000000003725,img/planet5_left.png,5,Community 3,NA,TRUE,f,f,NA,NA,NA,5,7,"9,8,2,13,7,4,10,12,3,14,1,6,11,15,5"
15036,commdev-image-keyboard-response,135,487939,learnblock1,579.3000000007451,img/planet6_right.png,6,Community 3,NA,TRUE,j,j,NA,NA,NA,5,7,"9,8,2,13,7,4,10,12,3,14,1,6,11,15,5"
15036,commdev-image-keyboard-response,136,489190,learnblock1,411.30000000074506,img/planet11_left.png,11,Community 3,NA,TRUE,f,f,NA,NA,NA,5,7,"9,8,2,13,7,4,10,12,3,14,1,6,11,15,5"
15036,commdev-image-keyboard-response,137,490442,learnblock1,465.69999999925494,img/planet1_left.png,1,Community 3,NA,TRUE,f,f,NA,NA,NA,5,7,"9,8,2,13,7,4,10,12,3,14,1,6,11,15,5"
15036,commdev-image-keyboard-response,138,491693,learnblock1,531,img/planet5_left.png,5,Community 3,NA,TRUE,f,f,NA,NA,NA,5,7,"9,8,2,13,7,4,10,12,3,14,1,6,11,15,5"
15036,commdev-image-keyboard-response,139,492944,learnblock1,530.7999999988824,img/planet15_right.png,15,Community 3,NA,TRUE,j,j,NA,NA,NA,5,7,"9,8,2,13,7,4,10,12,3,14,1,6,11,15,5"
15036,commdev-image-keyboard-response,140,494196,learnblock1,557.8000000007451,img/planet5_right.png,5,Community 3,NA,TRUE,j,j,NA,NA,NA,5,7,"9,8,2,13,7,4,10,12,3,14,1,6,11,15,5"
15036,commdev-image-keyboard-response,141,495447,learnblock1,516.3000000007451,img/planet6_left.png,6,Community 3,NA,TRUE,f,f,NA,NA,NA,5,7,"9,8,2,13,7,4,10,12,3,14,1,6,11,15,5"
15036,commdev-image-keyboard-response,142,496699,learnblock1,651.6999999992549,img/planet12_left.png,12,Community 2,NA,TRUE,f,f,NA,NA,NA,5,7,"9,8,2,13,7,4,10,12,3,14,1,6,11,15,5"
15036,commdev-image-keyboard-response,143,497950,learnblock1,722,img/planet3_left.png,3,Community 2,NA,TRUE,f,f,NA,NA,NA,5,7,"9,8,2,13,7,4,10,12,3,14,1,6,11,15,5"
15036,commdev-image-keyboard-response,144,499201,learnblock1,662,img/planet14_left.png,14,Community 2,NA,TRUE,f,f,NA,NA,NA,5,7,"9,8,2,13,7,4,10,12,3,14,1,6,11,15,5"
15036,commdev-image-keyboard-response,145,500453,learnblock1,531.4000000003725,img/planet10_left.png,10,Community 2,NA,TRUE,f,f,NA,NA,NA,5,7,"9,8,2,13,7,4,10,12,3,14,1,6,11,15,5"
15036,commdev-image-keyboard-response,146,501704,learnblock1,430.40000000037253,img/planet4_right.png,4,Community 2,NA,TRUE,j,j,NA,NA,NA,5,7,"9,8,2,13,7,4,10,12,3,14,1,6,11,15,5"
15036,commdev-image-keyboard-response,147,502956,learnblock1,719.9000000003725,img/planet14_right.png,14,Community 2,NA,TRUE,j,j,NA,NA,NA,5,7,"9,8,2,13,7,4,10,12,3,14,1,6,11,15,5"
15036,commdev-image-keyboard-response,148,504208,learnblock1,786.4000000003725,img/planet3_right.png,3,Community 2,NA,TRUE,j,j,NA,NA,NA,5,7,"9,8,2,13,7,4,10,12,3,14,1,6,11,15,5"
15036,commdev-image-keyboard-response,149,505460,learnblock1,643.4000000003725,img/planet4_right.png,4,Community 2,NA,TRUE,j,j,NA,NA,NA,5,7,"9,8,2,13,7,4,10,12,3,14,1,6,11,15,5"
15036,commdev-image-keyboard-response,150,506711,learnblock1,729.0999999996275,img/planet13_right.png,13,Community 1,NA,TRUE,j,j,NA,NA,NA,5,7,"9,8,2,13,7,4,10,12,3,14,1,6,11,15,5"
15036,commdev-image-keyboard-response,151,507962,learnblock1,684.4000000003725,img/planet8_left.png,8,Community 1,NA,TRUE,f,f,NA,NA,NA,5,7,"9,8,2,13,7,4,10,12,3,14,1,6,11,15,5"
15036,commdev-image-keyboard-response,152,509214,learnblock1,896.5999999996275,img/planet7_left.png,7,Community 1,NA,TRUE,f,f,NA,NA,NA,5,7,"9,8,2,13,7,4,10,12,3,14,1,6,11,15,5"
15036,commdev-image-keyboard-response,153,510465,learnblock1,666.1000000014901,img/planet9_right.png,9,Community 1,NA,TRUE,j,j,NA,NA,NA,5,7,"9,8,2,13,7,4,10,12,3,14,1,6,11,15,5"
15036,commdev-image-keyboard-response,154,511718,learnblock1,722.5999999996275,img/planet7_right.png,7,Community 1,NA,TRUE,j,j,NA,NA,NA,5,7,"9,8,2,13,7,4,10,12,3,14,1,6,11,15,5"
15036,commdev-image-keyboard-response,155,512969,learnblock1,710.0999999996275,img/planet1_left.png,1,Community 3,NA,TRUE,f,f,NA,NA,NA,5,7,"9,8,2,13,7,4,10,12,3,14,1,6,11,15,5"
15036,commdev-image-keyboard-response,156,514221,learnblock1,543.9000000003725,img/planet5_left.png,5,Community 3,NA,TRUE,f,f,NA,NA,NA,5,7,"9,8,2,13,7,4,10,12,3,14,1,6,11,15,5"
15036,commdev-image-keyboard-response,157,515473,learnblock1,639.9000000003725,img/planet1_right.png,1,Community 3,NA,TRUE,j,j,NA,NA,NA,5,7,"9,8,2,13,7,4,10,12,3,14,1,6,11,15,5"
15036,commdev-image-keyboard-response,158,516724,learnblock1,540.3999999985099,img/planet7_right.png,7,Community 1,NA,TRUE,j,j,NA,NA,NA,5,7,"9,8,2,13,7,4,10,12,3,14,1,6,11,15,5"
15036,commdev-image-keyboard-response,159,517976,learnblock1,884.2000000011176,img/planet9_left.png,9,Community 1,NA,TRUE,f,f,NA,NA,NA,5,7,"9,8,2,13,7,4,10,12,3,14,1,6,11,15,5"
15036,commdev-image-keyboard-response,160,519227,learnblock1,811.0999999996275,img/planet13_left.png,13,Community 1,NA,TRUE,f,f,NA,NA,NA,5,7,"9,8,2,13,7,4,10,12,3,14,1,6,11,15,5"
15036,commdev-image-keyboard-response,161,520479,learnblock1,838.7000000011176,img/planet8_left.png,8,Community 1,NA,TRUE,f,f,NA,NA,NA,5,7,"9,8,2,13,7,4,10,12,3,14,1,6,11,15,5"
15036,commdev-image-keyboard-response,162,521730,learnblock1,630.7999999988824,img/planet13_left.png,13,Community 1,NA,TRUE,f,f,NA,NA,NA,5,7,"9,8,2,13,7,4,10,12,3,14,1,6,11,15,5"
15036,commdev-image-keyboard-response,163,522982,learnblock1,621.5999999996275,img/planet4_left.png,4,Community 2,NA,TRUE,f,f,NA,NA,NA,5,7,"9,8,2,13,7,4,10,12,3,14,1,6,11,15,5"
15036,commdev-image-keyboard-response,164,524234,learnblock1,443.40000000037253,img/planet10_left.png,10,Community 2,NA,TRUE,f,f,NA,NA,NA,5,7,"9,8,2,13,7,4,10,12,3,14,1,6,11,15,5"
15036,commdev-image-keyboard-response,165,525485,learnblock1,479.5,img/planet4_left.png,4,Community 2,NA,TRUE,f,f,NA,NA,NA,5,7,"9,8,2,13,7,4,10,12,3,14,1,6,11,15,5"
15036,commdev-image-keyboard-response,166,526736,learnblock1,572.7000000011176,img/planet10_right.png,10,Community 2,NA,TRUE,j,j,NA,NA,NA,5,7,"9,8,2,13,7,4,10,12,3,14,1,6,11,15,5"
15036,commdev-image-keyboard-response,167,527988,learnblock1,882.9000000003725,img/planet14_left.png,14,Community 2,NA,FALSE,j,f,NA,NA,NA,5,7,"9,8,2,13,7,4,10,12,3,14,1,6,11,15,5"
15036,commdev-image-keyboard-response,168,529240,learnblock1,null,img/planet3_left.png,3,Community 2,NA,FALSE,null,f,NA,NA,NA,5,7,"9,8,2,13,7,4,10,12,3,14,1,6,11,15,5"
15036,commdev-image-keyboard-response,169,530491,learnblock1,241.09999999962747,img/planet12_right.png,12,Community 2,NA,FALSE,f,j,NA,NA,NA,5,7,"9,8,2,13,7,4,10,12,3,14,1,6,11,15,5"
15036,commdev-image-keyboard-response,170,531744,learnblock1,950.0999999996275,img/planet3_left.png,3,Community 2,NA,FALSE,j,f,NA,NA,NA,5,7,"9,8,2,13,7,4,10,12,3,14,1,6,11,15,5"
15036,commdev-image-keyboard-response,171,532997,learnblock1,601.8000000007451,img/planet12_right.png,12,Community 2,NA,FALSE,f,j,NA,NA,NA,5,7,"9,8,2,13,7,4,10,12,3,14,1,6,11,15,5"
15036,commdev-image-keyboard-response,172,534249,learnblock1,673.1999999992549,img/planet14_left.png,14,Community 2,NA,FALSE,j,f,NA,NA,NA,5,7,"9,8,2,13,7,4,10,12,3,14,1,6,11,15,5"
15036,commdev-image-keyboard-response,173,535502,learnblock1,574.5,img/planet10_right.png,10,Community 2,NA,TRUE,j,j,NA,NA,NA,5,7,"9,8,2,13,7,4,10,12,3,14,1,6,11,15,5"
15036,commdev-image-keyboard-response,174,536754,learnblock1,729.0999999996275,img/planet14_right.png,14,Community 2,NA,TRUE,j,j,NA,NA,NA,5,7,"9,8,2,13,7,4,10,12,3,14,1,6,11,15,5"
15036,commdev-image-keyboard-response,175,538007,learnblock1,663.6000000014901,img/planet3_right.png,3,Community 2,NA,TRUE,j,j,NA,NA,NA,5,7,"9,8,2,13,7,4,10,12,3,14,1,6,11,15,5"
15036,commdev-image-keyboard-response,176,539260,learnblock1,516.0999999996275,img/planet10_right.png,10,Community 2,NA,TRUE,j,j,NA,NA,NA,5,7,"9,8,2,13,7,4,10,12,3,14,1,6,11,15,5"
15036,commdev-image-keyboard-response,177,540512,learnblock1,489,img/planet4_right.png,4,Community 2,NA,TRUE,j,j,NA,NA,NA,5,7,"9,8,2,13,7,4,10,12,3,14,1,6,11,15,5"
15036,commdev-image-keyboard-response,178,541764,learnblock1,612.9000000003725,img/planet10_left.png,10,Community 2,NA,TRUE,f,f,NA,NA,NA,5,7,"9,8,2,13,7,4,10,12,3,14,1,6,11,15,5"
15036,commdev-image-keyboard-response,179,543016,learnblock1,824.8000000007451,img/planet4_left.png,4,Community 2,NA,TRUE,f,f,NA,NA,NA,5,7,"9,8,2,13,7,4,10,12,3,14,1,6,11,15,5"
15036,commdev-image-keyboard-response,180,544268,learnblock1,687.5,img/planet13_left.png,13,Community 1,NA,TRUE,f,f,NA,NA,NA,5,7,"9,8,2,13,7,4,10,12,3,14,1,6,11,15,5"
15036,commdev-image-keyboard-response,181,545520,learnblock1,480.40000000037253,img/planet2_left.png,2,Community 1,NA,TRUE,f,f,NA,NA,NA,5,7,"9,8,2,13,7,4,10,12,3,14,1,6,11,15,5"
15036,commdev-image-keyboard-response,182,546773,learnblock1,667,img/planet8_left.png,8,Community 1,NA,TRUE,f,f,NA,NA,NA,5,7,"9,8,2,13,7,4,10,12,3,14,1,6,11,15,5"
15036,commdev-image-keyboard-response,183,548025,learnblock1,1151.5,img/planet7_left.png,7,Community 1,NA,TRUE,f,f,NA,NA,NA,5,7,"9,8,2,13,7,4,10,12,3,14,1,6,11,15,5"
15036,commdev-image-keyboard-response,184,549277,learnblock1,961,img/planet1_right.png,1,Community 3,NA,TRUE,j,j,NA,NA,NA,5,7,"9,8,2,13,7,4,10,12,3,14,1,6,11,15,5"
15036,commdev-image-keyboard-response,185,550530,learnblock1,880.7999999988824,img/planet15_left.png,15,Community 3,NA,TRUE,f,f,NA,NA,NA,5,7,"9,8,2,13,7,4,10,12,3,14,1,6,11,15,5"
15036,commdev-image-keyboard-response,186,551782,learnblock1,1208.5999999996275,img/planet6_right.png,6,Community 3,NA,FALSE,f,j,NA,NA,NA,5,7,"9,8,2,13,7,4,10,12,3,14,1,6,11,15,5"
15036,commdev-image-keyboard-response,187,553034,learnblock1,918.3000000007451,img/planet15_left.png,15,Community 3,NA,TRUE,f,f,NA,NA,NA,5,7,"9,8,2,13,7,4,10,12,3,14,1,6,11,15,5"
15036,commdev-image-keyboard-response,188,554286,learnblock1,1025.800000000745,img/planet1_right.png,1,Community 3,NA,TRUE,j,j,NA,NA,NA,5,7,"9,8,2,13,7,4,10,12,3,14,1,6,11,15,5"
15036,commdev-image-keyboard-response,189,555538,learnblock1,1146.4000000003725,img/planet15_right.png,15,Community 3,NA,TRUE,j,j,NA,NA,NA,5,7,"9,8,2,13,7,4,10,12,3,14,1,6,11,15,5"
15036,commdev-image-keyboard-response,190,556790,learnblock1,804.5,img/planet1_left.png,1,Community 3,NA,TRUE,f,f,NA,NA,NA,5,7,"9,8,2,13,7,4,10,12,3,14,1,6,11,15,5"
15036,commdev-image-keyboard-response,191,558041,learnblock1,717.0999999996275,img/planet11_left.png,11,Community 3,NA,TRUE,f,f,NA,NA,NA,5,7,"9,8,2,13,7,4,10,12,3,14,1,6,11,15,5"
15036,commdev-image-keyboard-response,192,559293,learnblock1,1062.5999999996275,img/planet1_left.png,1,Community 3,NA,TRUE,f,f,NA,NA,NA,5,7,"9,8,2,13,7,4,10,12,3,14,1,6,11,15,5"
15036,commdev-image-keyboard-response,193,560544,learnblock1,1044.5,img/planet11_left.png,11,Community 3,NA,TRUE,f,f,NA,NA,NA,5,7,"9,8,2,13,7,4,10,12,3,14,1,6,11,15,5"
15036,commdev-image-keyboard-response,194,561796,learnblock1,693.5,img/planet5_left.png,5,Community 3,NA,TRUE,f,f,NA,NA,NA,5,7,"9,8,2,13,7,4,10,12,3,14,1,6,11,15,5"
15036,commdev-image-keyboard-response,195,563048,learnblock1,655.1999999992549,img/planet15_left.png,15,Community 3,NA,TRUE,f,f,NA,NA,NA,5,7,"9,8,2,13,7,4,10,12,3,14,1,6,11,15,5"
15036,commdev-image-keyboard-response,196,564300,learnblock1,959.4000000003725,img/planet5_left.png,5,Community 3,NA,TRUE,f,f,NA,NA,NA,5,7,"9,8,2,13,7,4,10,12,3,14,1,6,11,15,5"
15036,commdev-image-keyboard-response,197,565553,learnblock1,585.5999999996275,img/planet15_left.png,15,Community 3,NA,TRUE,f,f,NA,NA,NA,5,7,"9,8,2,13,7,4,10,12,3,14,1,6,11,15,5"
15036,commdev-image-keyboard-response,198,566806,learnblock1,624.5,img/planet11_left.png,11,Community 3,NA,TRUE,f,f,NA,NA,NA,5,7,"9,8,2,13,7,4,10,12,3,14,1,6,11,15,5"
15036,commdev-image-keyboard-response,199,568058,learnblock1,null,img/planet1_right.png,1,Community 3,NA,FALSE,null,j,NA,NA,NA,5,7,"9,8,2,13,7,4,10,12,3,14,1,6,11,15,5"
15036,commdev-image-keyboard-response,200,569311,learnblock1,702.9000000003725,img/planet7_left.png,7,Community 1,NA,TRUE,f,f,NA,NA,NA,5,7,"9,8,2,13,7,4,10,12,3,14,1,6,11,15,5"
15036,commdev-image-keyboard-response,201,570563,learnblock1,794,img/planet2_right.png,2,Community 1,NA,TRUE,j,j,NA,NA,NA,5,7,"9,8,2,13,7,4,10,12,3,14,1,6,11,15,5"
15036,commdev-image-keyboard-response,202,571816,learnblock1,888.4000000003725,img/planet7_left.png,7,Community 1,NA,TRUE,f,f,NA,NA,NA,5,7,"9,8,2,13,7,4,10,12,3,14,1,6,11,15,5"
15036,commdev-image-keyboard-response,203,573069,learnblock1,767.6000000014901,img/planet1_left.png,1,Community 3,NA,TRUE,f,f,NA,NA,NA,5,7,"9,8,2,13,7,4,10,12,3,14,1,6,11,15,5"
15036,commdev-image-keyboard-response,204,574322,learnblock1,608.8000000007451,img/planet5_left.png,5,Community 3,NA,TRUE,f,f,NA,NA,NA,5,7,"9,8,2,13,7,4,10,12,3,14,1,6,11,15,5"
15036,commdev-image-keyboard-response,205,575574,learnblock1,598.2000000011176,img/planet15_left.png,15,Community 3,NA,TRUE,f,f,NA,NA,NA,5,7,"9,8,2,13,7,4,10,12,3,14,1,6,11,15,5"
15036,commdev-image-keyboard-response,206,576827,learnblock1,537.7999999988824,img/planet1_right.png,1,Community 3,NA,TRUE,j,j,NA,NA,NA,5,7,"9,8,2,13,7,4,10,12,3,14,1,6,11,15,5"
15036,commdev-image-keyboard-response,207,578080,learnblock1,810.0999999996275,img/planet15_right.png,15,Community 3,NA,TRUE,j,j,NA,NA,NA,5,7,"9,8,2,13,7,4,10,12,3,14,1,6,11,15,5"
15036,commdev-image-keyboard-response,208,579332,learnblock1,784.5,img/planet6_left.png,6,Community 3,NA,TRUE,f,f,NA,NA,NA,5,7,"9,8,2,13,7,4,10,12,3,14,1,6,11,15,5"
15036,commdev-image-keyboard-response,209,580584,learnblock1,720.7999999988824,img/planet5_right.png,5,Community 3,NA,TRUE,j,j,NA,NA,NA,5,7,"9,8,2,13,7,4,10,12,3,14,1,6,11,15,5"
15036,commdev-image-keyboard-response,210,581836,learnblock1,502,img/planet15_right.png,15,Community 3,NA,FALSE,f,j,NA,NA,NA,5,7,"9,8,2,13,7,4,10,12,3,14,1,6,11,15,5"
15036,commdev-image-keyboard-response,211,583089,learnblock1,773,img/planet5_right.png,5,Community 3,NA,TRUE,j,j,NA,NA,NA,5,7,"9,8,2,13,7,4,10,12,3,14,1,6,11,15,5"
15036,commdev-image-keyboard-response,212,584341,learnblock1,574.8999999985099,img/planet1_left.png,1,Community 3,NA,TRUE,f,f,NA,NA,NA,5,7,"9,8,2,13,7,4,10,12,3,14,1,6,11,15,5"
15036,commdev-image-keyboard-response,213,585594,learnblock1,900.9000000003725,img/planet7_right.png,7,Community 1,NA,TRUE,j,j,NA,NA,NA,5,7,"9,8,2,13,7,4,10,12,3,14,1,6,11,15,5"
15036,commdev-image-keyboard-response,214,586845,learnblock1,600.0999999996275,img/planet2_left.png,2,Community 1,NA,TRUE,f,f,NA,NA,NA,5,7,"9,8,2,13,7,4,10,12,3,14,1,6,11,15,5"
15036,commdev-image-keyboard-response,215,588097,learnblock1,532.6999999992549,img/planet7_right.png,7,Community 1,NA,TRUE,j,j,NA,NA,NA,5,7,"9,8,2,13,7,4,10,12,3,14,1,6,11,15,5"
15036,commdev-image-keyboard-response,216,589348,learnblock1,743,img/planet8_right.png,8,Community 1,NA,TRUE,j,j,NA,NA,NA,5,7,"9,8,2,13,7,4,10,12,3,14,1,6,11,15,5"
15036,commdev-image-keyboard-response,217,590600,learnblock1,628.5999999996275,img/planet7_right.png,7,Community 1,NA,TRUE,j,j,NA,NA,NA,5,7,"9,8,2,13,7,4,10,12,3,14,1,6,11,15,5"
15036,commdev-image-keyboard-response,218,591851,learnblock1,530.6999999992549,img/planet2_left.png,2,Community 1,NA,TRUE,f,f,NA,NA,NA,5,7,"9,8,2,13,7,4,10,12,3,14,1,6,11,15,5"
15036,commdev-image-keyboard-response,219,593103,learnblock1,694.2999999988824,img/planet8_left.png,8,Community 1,NA,TRUE,f,f,NA,NA,NA,5,7,"9,8,2,13,7,4,10,12,3,14,1,6,11,15,5"
15036,commdev-image-keyboard-response,220,594354,learnblock1,648.3000000007451,img/planet13_right.png,13,Community 1,NA,TRUE,j,j,NA,NA,NA,5,7,"9,8,2,13,7,4,10,12,3,14,1,6,11,15,5"
15036,commdev-image-keyboard-response,221,595606,learnblock1,null,img/planet4_left.png,4,Community 2,NA,FALSE,null,f,NA,NA,NA,5,7,"9,8,2,13,7,4,10,12,3,14,1,6,11,15,5"
15036,commdev-image-keyboard-response,222,596857,learnblock1,947,img/planet14_left.png,14,Community 2,NA,TRUE,f,f,NA,NA,NA,5,7,"9,8,2,13,7,4,10,12,3,14,1,6,11,15,5"
15036,commdev-image-keyboard-response,223,598109,learnblock1,723.1999999992549,img/planet3_left.png,3,Community 2,NA,TRUE,f,f,NA,NA,NA,5,7,"9,8,2,13,7,4,10,12,3,14,1,6,11,15,5"
15036,commdev-image-keyboard-response,224,599360,learnblock1,612.5,img/planet14_right.png,14,Community 2,NA,TRUE,j,j,NA,NA,NA,5,7,"9,8,2,13,7,4,10,12,3,14,1,6,11,15,5"
15036,commdev-image-keyboard-response,225,600611,learnblock1,651.5,img/planet10_right.png,10,Community 2,NA,TRUE,j,j,NA,NA,NA,5,7,"9,8,2,13,7,4,10,12,3,14,1,6,11,15,5"
15036,commdev-image-keyboard-response,226,601863,learnblock1,798.0999999996275,img/planet4_left.png,4,Community 2,NA,TRUE,f,f,NA,NA,NA,5,7,"9,8,2,13,7,4,10,12,3,14,1,6,11,15,5"
15036,commdev-image-keyboard-response,227,603114,learnblock1,555.5999999996275,img/planet13_right.png,13,Community 1,NA,TRUE,j,j,NA,NA,NA,5,7,"9,8,2,13,7,4,10,12,3,14,1,6,11,15,5"
15036,commdev-image-keyboard-response,228,604366,learnblock1,564.5,img/planet4_left.png,4,Community 2,NA,TRUE,f,f,NA,NA,NA,5,7,"9,8,2,13,7,4,10,12,3,14,1,6,11,15,5"
15036,commdev-image-keyboard-response,229,605618,learnblock1,630.9000000003725,img/planet13_left.png,13,Community 1,NA,TRUE,f,f,NA,NA,NA,5,7,"9,8,2,13,7,4,10,12,3,14,1,6,11,15,5"
15036,commdev-image-keyboard-response,230,606869,learnblock1,514.1999999992549,img/planet2_left.png,2,Community 1,NA,TRUE,f,f,NA,NA,NA,5,7,"9,8,2,13,7,4,10,12,3,14,1,6,11,15,5"
15036,commdev-image-keyboard-response,231,608121,learnblock1,635.7000000011176,img/planet9_right.png,9,Community 1,NA,TRUE,j,j,NA,NA,NA,5,7,"9,8,2,13,7,4,10,12,3,14,1,6,11,15,5"
15036,commdev-image-keyboard-response,232,609372,learnblock1,1083.0999999996275,img/planet7_right.png,7,Community 1,NA,TRUE,j,j,NA,NA,NA,5,7,"9,8,2,13,7,4,10,12,3,14,1,6,11,15,5"
15036,commdev-image-keyboard-response,233,610624,learnblock1,627.8999999985099,img/planet1_right.png,1,Community 3,NA,TRUE,j,j,NA,NA,NA,5,7,"9,8,2,13,7,4,10,12,3,14,1,6,11,15,5"
15036,commdev-image-keyboard-response,234,611875,learnblock1,625.3000000007451,img/planet5_left.png,5,Community 3,NA,TRUE,f,f,NA,NA,NA,5,7,"9,8,2,13,7,4,10,12,3,14,1,6,11,15,5"
15036,commdev-image-keyboard-response,235,613127,learnblock1,920.5,img/planet15_right.png,15,Community 3,NA,TRUE,j,j,NA,NA,NA,5,7,"9,8,2,13,7,4,10,12,3,14,1,6,11,15,5"
15036,commdev-image-keyboard-response,236,614378,learnblock1,675,img/planet5_right.png,5,Community 3,NA,TRUE,j,j,NA,NA,NA,5,7,"9,8,2,13,7,4,10,12,3,14,1,6,11,15,5"
15036,commdev-image-keyboard-response,237,615630,learnblock1,574.4000000003725,img/planet1_left.png,1,Community 3,NA,TRUE,f,f,NA,NA,NA,5,7,"9,8,2,13,7,4,10,12,3,14,1,6,11,15,5"
15036,commdev-image-keyboard-response,238,616881,learnblock1,null,img/planet7_left.png,7,Community 1,NA,FALSE,null,f,NA,NA,NA,5,7,"9,8,2,13,7,4,10,12,3,14,1,6,11,15,5"
15036,commdev-image-keyboard-response,239,618134,learnblock1,1242.5999999996275,img/planet9_left.png,9,Community 1,NA,TRUE,f,f,NA,NA,NA,5,7,"9,8,2,13,7,4,10,12,3,14,1,6,11,15,5"
15036,commdev-image-keyboard-response,240,619385,learnblock1,779,img/planet2_left.png,2,Community 1,NA,TRUE,f,f,NA,NA,NA,5,7,"9,8,2,13,7,4,10,12,3,14,1,6,11,15,5"
15036,commdev-image-keyboard-response,241,620636,learnblock1,713.2000000011176,img/planet7_right.png,7,Community 1,NA,TRUE,j,j,NA,NA,NA,5,7,"9,8,2,13,7,4,10,12,3,14,1,6,11,15,5"
15036,commdev-image-keyboard-response,242,621888,learnblock1,734.2999999988824,img/planet9_left.png,9,Community 1,NA,TRUE,f,f,NA,NA,NA,5,7,"9,8,2,13,7,4,10,12,3,14,1,6,11,15,5"
15036,commdev-image-keyboard-response,243,623139,learnblock1,653.5,img/planet13_right.png,13,Community 1,NA,TRUE,j,j,NA,NA,NA,5,7,"9,8,2,13,7,4,10,12,3,14,1,6,11,15,5"
15036,commdev-image-keyboard-response,244,624390,learnblock1,770.7999999988824,img/planet4_right.png,4,Community 2,NA,TRUE,j,j,NA,NA,NA,5,7,"9,8,2,13,7,4,10,12,3,14,1,6,11,15,5"
15036,commdev-image-keyboard-response,245,625642,learnblock1,1000.5999999996275,img/planet14_right.png,14,Community 2,NA,TRUE,j,j,NA,NA,NA,5,7,"9,8,2,13,7,4,10,12,3,14,1,6,11,15,5"
15036,commdev-image-keyboard-response,246,626893,learnblock1,906.9000000003725,img/planet3_right.png,3,Community 2,NA,TRUE,j,j,NA,NA,NA,5,7,"9,8,2,13,7,4,10,12,3,14,1,6,11,15,5"
15036,commdev-image-keyboard-response,247,628145,learnblock1,876.5,img/planet12_right.png,12,Community 2,NA,TRUE,j,j,NA,NA,NA,5,7,"9,8,2,13,7,4,10,12,3,14,1,6,11,15,5"
15036,commdev-image-keyboard-response,248,629396,learnblock1,749.7999999988824,img/planet10_left.png,10,Community 2,NA,TRUE,f,f,NA,NA,NA,5,7,"9,8,2,13,7,4,10,12,3,14,1,6,11,15,5"
15036,commdev-image-keyboard-response,249,630648,learnblock1,907.3000000007451,img/planet4_left.png,4,Community 2,NA,TRUE,f,f,NA,NA,NA,5,7,"9,8,2,13,7,4,10,12,3,14,1,6,11,15,5"
15036,commdev-image-keyboard-response,250,631899,learnblock1,1156.699999999255,img/planet14_right.png,14,Community 2,NA,FALSE,f,j,NA,NA,NA,5,7,"9,8,2,13,7,4,10,12,3,14,1,6,11,15,5"
15036,commdev-image-keyboard-response,251,633151,learnblock1,753,img/planet3_right.png,3,Community 2,NA,TRUE,j,j,NA,NA,NA,5,7,"9,8,2,13,7,4,10,12,3,14,1,6,11,15,5"
15036,commdev-image-keyboard-response,252,634402,learnblock1,710.1999999992549,img/planet12_left.png,12,Community 2,NA,TRUE,f,f,NA,NA,NA,5,7,"9,8,2,13,7,4,10,12,3,14,1,6,11,15,5"
15036,commdev-image-keyboard-response,253,635654,learnblock1,907.9000000003725,img/planet3_left.png,3,Community 2,NA,TRUE,f,f,NA,NA,NA,5,7,"9,8,2,13,7,4,10,12,3,14,1,6,11,15,5"
15036,commdev-image-keyboard-response,254,636905,learnblock1,542.8999999985099,img/planet12_left.png,12,Community 2,NA,FALSE,j,f,NA,NA,NA,5,7,"9,8,2,13,7,4,10,12,3,14,1,6,11,15,5"
15036,commdev-image-keyboard-response,255,638157,learnblock1,801.2000000011176,img/planet14_right.png,14,Community 2,NA,TRUE,j,j,NA,NA,NA,5,7,"9,8,2,13,7,4,10,12,3,14,1,6,11,15,5"
15036,commdev-image-keyboard-response,256,639409,learnblock1,613.2000000011176,img/planet10_left.png,10,Community 2,NA,TRUE,f,f,NA,NA,NA,5,7,"9,8,2,13,7,4,10,12,3,14,1,6,11,15,5"
15036,commdev-image-keyboard-response,257,640660,learnblock1,751.0999999996275,img/planet12_left.png,12,Community 2,NA,FALSE,j,f,NA,NA,NA,5,7,"9,8,2,13,7,4,10,12,3,14,1,6,11,15,5"
15036,commdev-image-keyboard-response,258,641913,learnblock1,689.3999999985099,img/planet3_right.png,3,Community 2,NA,TRUE,j,j,NA,NA,NA,5,7,"9,8,2,13,7,4,10,12,3,14,1,6,11,15,5"
15036,commdev-image-keyboard-response,259,643164,learnblock1,620.5999999996275,img/planet10_left.png,10,Community 2,NA,TRUE,f,f,NA,NA,NA,5,7,"9,8,2,13,7,4,10,12,3,14,1,6,11,15,5"
15036,commdev-image-keyboard-response,260,644417,learnblock1,1052.3999999985099,img/planet14_left.png,14,Community 2,NA,FALSE,j,f,NA,NA,NA,5,7,"9,8,2,13,7,4,10,12,3,14,1,6,11,15,5"
15036,commdev-image-keyboard-response,261,645668,learnblock1,803.5,img/planet10_right.png,10,Community 2,NA,TRUE,j,j,NA,NA,NA,5,7,"9,8,2,13,7,4,10,12,3,14,1,6,11,15,5"
15036,commdev-image-keyboard-response,262,646920,learnblock1,740.1999999992549,img/planet4_right.png,4,Community 2,NA,TRUE,j,j,NA,NA,NA,5,7,"9,8,2,13,7,4,10,12,3,14,1,6,11,15,5"
15036,commdev-image-keyboard-response,263,648173,learnblock1,537.8999999985099,img/planet13_left.png,13,Community 1,NA,TRUE,f,f,NA,NA,NA,5,7,"9,8,2,13,7,4,10,12,3,14,1,6,11,15,5"
15036,commdev-image-keyboard-response,264,649424,learnblock1,560.2999999988824,img/planet8_right.png,8,Community 1,NA,TRUE,j,j,NA,NA,NA,5,7,"9,8,2,13,7,4,10,12,3,14,1,6,11,15,5"
15036,commdev-image-keyboard-response,265,650676,learnblock1,579.2999999988824,img/planet13_right.png,13,Community 1,NA,TRUE,j,j,NA,NA,NA,5,7,"9,8,2,13,7,4,10,12,3,14,1,6,11,15,5"
15036,commdev-image-keyboard-response,266,651928,learnblock1,475.2999999988824,img/planet4_right.png,4,Community 2,NA,TRUE,j,j,NA,NA,NA,5,7,"9,8,2,13,7,4,10,12,3,14,1,6,11,15,5"
15036,commdev-image-keyboard-response,267,653179,learnblock1,708.6999999992549,img/planet13_left.png,13,Community 1,NA,TRUE,f,f,NA,NA,NA,5,7,"9,8,2,13,7,4,10,12,3,14,1,6,11,15,5"
15036,commdev-image-keyboard-response,268,654432,learnblock1,690.4000000003725,img/planet8_left.png,8,Community 1,NA,FALSE,j,f,NA,NA,NA,5,7,"9,8,2,13,7,4,10,12,3,14,1,6,11,15,5"
15036,commdev-image-keyboard-response,269,655684,learnblock1,722.4000000003725,img/planet9_right.png,9,Community 1,NA,TRUE,j,j,NA,NA,NA,5,7,"9,8,2,13,7,4,10,12,3,14,1,6,11,15,5"
15036,commdev-image-keyboard-response,270,656936,learnblock1,752.5,img/planet2_right.png,2,Community 1,NA,TRUE,j,j,NA,NA,NA,5,7,"9,8,2,13,7,4,10,12,3,14,1,6,11,15,5"
15036,commdev-image-keyboard-response,271,658188,learnblock1,582.9000000003725,img/planet13_right.png,13,Community 1,NA,TRUE,j,j,NA,NA,NA,5,7,"9,8,2,13,7,4,10,12,3,14,1,6,11,15,5"
15036,commdev-image-keyboard-response,272,659439,learnblock1,611.1000000014901,img/planet4_left.png,4,Community 2,NA,TRUE,f,f,NA,NA,NA,5,7,"9,8,2,13,7,4,10,12,3,14,1,6,11,15,5"
15036,commdev-image-keyboard-response,273,660691,learnblock1,667.1999999992549,img/planet10_right.png,10,Community 2,NA,TRUE,j,j,NA,NA,NA,5,7,"9,8,2,13,7,4,10,12,3,14,1,6,11,15,5"
15036,commdev-image-keyboard-response,274,661943,learnblock1,898.7000000011176,img/planet4_left.png,4,Community 2,NA,TRUE,f,f,NA,NA,NA,5,7,"9,8,2,13,7,4,10,12,3,14,1,6,11,15,5"
15036,commdev-image-keyboard-response,275,663195,learnblock1,850.6999999992549,img/planet3_left.png,3,Community 2,NA,TRUE,f,f,NA,NA,NA,5,7,"9,8,2,13,7,4,10,12,3,14,1,6,11,15,5"
15036,commdev-image-keyboard-response,276,664446,learnblock1,551.1000000014901,img/planet12_right.png,12,Community 2,NA,TRUE,j,j,NA,NA,NA,5,7,"9,8,2,13,7,4,10,12,3,14,1,6,11,15,5"
15036,commdev-image-keyboard-response,277,665698,learnblock1,739.1000000014901,img/planet14_left.png,14,Community 2,NA,FALSE,j,f,NA,NA,NA,5,7,"9,8,2,13,7,4,10,12,3,14,1,6,11,15,5"
15036,commdev-image-keyboard-response,278,666949,learnblock1,596.4000000003725,img/planet10_left.png,10,Community 2,NA,TRUE,f,f,NA,NA,NA,5,7,"9,8,2,13,7,4,10,12,3,14,1,6,11,15,5"
15036,commdev-image-keyboard-response,279,668201,learnblock1,521,img/planet3_right.png,3,Community 2,NA,TRUE,j,j,NA,NA,NA,5,7,"9,8,2,13,7,4,10,12,3,14,1,6,11,15,5"
15036,commdev-image-keyboard-response,280,669452,learnblock1,544,img/planet10_left.png,10,Community 2,NA,TRUE,f,f,NA,NA,NA,5,7,"9,8,2,13,7,4,10,12,3,14,1,6,11,15,5"
15036,commdev-image-keyboard-response,281,670703,learnblock1,398.80000000074506,img/planet4_right.png,4,Community 2,NA,TRUE,j,j,NA,NA,NA,5,7,"9,8,2,13,7,4,10,12,3,14,1,6,11,15,5"
15036,commdev-image-keyboard-response,282,671954,learnblock1,567.9000000003725,img/planet3_left.png,3,Community 2,NA,TRUE,f,f,NA,NA,NA,5,7,"9,8,2,13,7,4,10,12,3,14,1,6,11,15,5"
15036,commdev-image-keyboard-response,283,673206,learnblock1,508.7000000011176,img/planet12_right.png,12,Community 2,NA,TRUE,j,j,NA,NA,NA,5,7,"9,8,2,13,7,4,10,12,3,14,1,6,11,15,5"
15036,commdev-image-keyboard-response,284,674457,learnblock1,963.0999999996275,img/planet14_left.png,14,Community 2,NA,FALSE,j,f,NA,NA,NA,5,7,"9,8,2,13,7,4,10,12,3,14,1,6,11,15,5"
15036,commdev-image-keyboard-response,285,675709,learnblock1,576.7999999988824,img/planet4_left.png,4,Community 2,NA,TRUE,f,f,NA,NA,NA,5,7,"9,8,2,13,7,4,10,12,3,14,1,6,11,15,5"
15036,commdev-image-keyboard-response,286,676960,learnblock1,532.4000000003725,img/planet13_right.png,13,Community 1,NA,TRUE,j,j,NA,NA,NA,5,7,"9,8,2,13,7,4,10,12,3,14,1,6,11,15,5"
15036,commdev-image-keyboard-response,287,678212,learnblock1,561.2999999988824,img/planet4_left.png,4,Community 2,NA,TRUE,f,f,NA,NA,NA,5,7,"9,8,2,13,7,4,10,12,3,14,1,6,11,15,5"
15036,commdev-image-keyboard-response,288,679463,learnblock1,571.9000000003725,img/planet13_right.png,13,Community 1,NA,TRUE,j,j,NA,NA,NA,5,7,"9,8,2,13,7,4,10,12,3,14,1,6,11,15,5"
15036,commdev-image-keyboard-response,289,680714,learnblock1,559.2000000011176,img/planet2_right.png,2,Community 1,NA,TRUE,j,j,NA,NA,NA,5,7,"9,8,2,13,7,4,10,12,3,14,1,6,11,15,5"
15036,commdev-image-keyboard-response,290,681966,learnblock1,685.4000000003725,img/planet9_right.png,9,Community 1,NA,TRUE,j,j,NA,NA,NA,5,7,"9,8,2,13,7,4,10,12,3,14,1,6,11,15,5"
15036,commdev-image-keyboard-response,291,683218,learnblock1,645.8000000007451,img/planet13_left.png,13,Community 1,NA,TRUE,f,f,NA,NA,NA,5,7,"9,8,2,13,7,4,10,12,3,14,1,6,11,15,5"
15036,commdev-image-keyboard-response,292,684469,learnblock1,428.1000000014901,img/planet4_right.png,4,Community 2,NA,TRUE,j,j,NA,NA,NA,5,7,"9,8,2,13,7,4,10,12,3,14,1,6,11,15,5"
15036,commdev-image-keyboard-response,293,685721,learnblock1,782.5,img/planet14_right.png,14,Community 2,NA,TRUE,j,j,NA,NA,NA,5,7,"9,8,2,13,7,4,10,12,3,14,1,6,11,15,5"
15036,commdev-image-keyboard-response,294,686973,learnblock1,1036.1000000014901,img/planet3_left.png,3,Community 2,NA,TRUE,f,f,NA,NA,NA,5,7,"9,8,2,13,7,4,10,12,3,14,1,6,11,15,5"
15036,commdev-image-keyboard-response,295,688225,learnblock1,564.1999999992549,img/planet10_right.png,10,Community 2,NA,TRUE,j,j,NA,NA,NA,5,7,"9,8,2,13,7,4,10,12,3,14,1,6,11,15,5"
15036,commdev-image-keyboard-response,296,689477,learnblock1,456.09999999962747,img/planet4_left.png,4,Community 2,NA,TRUE,f,f,NA,NA,NA,5,7,"9,8,2,13,7,4,10,12,3,14,1,6,11,15,5"
15036,commdev-image-keyboard-response,297,690729,learnblock1,596.1999999992549,img/planet3_right.png,3,Community 2,NA,TRUE,j,j,NA,NA,NA,5,7,"9,8,2,13,7,4,10,12,3,14,1,6,11,15,5"
15036,commdev-image-keyboard-response,298,691980,learnblock1,906.6999999992549,img/planet14_left.png,14,Community 2,NA,TRUE,f,f,NA,NA,NA,5,7,"9,8,2,13,7,4,10,12,3,14,1,6,11,15,5"
15036,commdev-image-keyboard-response,299,693232,learnblock1,614.5999999996275,img/planet4_right.png,4,Community 2,NA,TRUE,j,j,NA,NA,NA,5,7,"9,8,2,13,7,4,10,12,3,14,1,6,11,15,5"
15036,commdev-image-keyboard-response,300,694484,learnblock1,901.7999999988824,img/planet3_right.png,3,Community 2,NA,TRUE,j,j,NA,NA,NA,5,7,"9,8,2,13,7,4,10,12,3,14,1,6,11,15,5"
15036,commdev-image-keyboard-response,301,695735,learnblock1,621.6999999992549,img/planet10_left.png,10,Community 2,NA,TRUE,f,f,NA,NA,NA,5,7,"9,8,2,13,7,4,10,12,3,14,1,6,11,15,5"
15036,commdev-image-keyboard-response,302,696987,learnblock1,789.7000000011176,img/planet12_right.png,12,Community 2,NA,TRUE,j,j,NA,NA,NA,5,7,"9,8,2,13,7,4,10,12,3,14,1,6,11,15,5"
15036,commdev-image-keyboard-response,303,698239,learnblock1,941.7999999988824,img/planet6_right.png,6,Community 3,NA,TRUE,j,j,NA,NA,NA,5,7,"9,8,2,13,7,4,10,12,3,14,1,6,11,15,5"
15036,commdev-image-keyboard-response,304,699491,learnblock1,577.0999999996275,img/planet12_right.png,12,Community 2,NA,TRUE,j,j,NA,NA,NA,5,7,"9,8,2,13,7,4,10,12,3,14,1,6,11,15,5"
15036,commdev-image-keyboard-response,305,700744,learnblock1,681.0999999996275,img/planet6_right.png,6,Community 3,NA,TRUE,j,j,NA,NA,NA,5,7,"9,8,2,13,7,4,10,12,3,14,1,6,11,15,5"
15036,commdev-image-keyboard-response,306,701996,learnblock1,742.5999999996275,img/planet12_left.png,12,Community 2,NA,FALSE,j,f,NA,NA,NA,5,7,"9,8,2,13,7,4,10,12,3,14,1,6,11,15,5"
15036,commdev-image-keyboard-response,307,703247,learnblock1,156.40000000037253,img/planet6_left.png,6,Community 3,NA,TRUE,f,f,NA,NA,NA,5,7,"9,8,2,13,7,4,10,12,3,14,1,6,11,15,5"
15036,commdev-image-keyboard-response,308,704499,learnblock1,677.2999999988824,img/planet15_right.png,15,Community 3,NA,FALSE,f,j,NA,NA,NA,5,7,"9,8,2,13,7,4,10,12,3,14,1,6,11,15,5"
15036,commdev-image-keyboard-response,309,705750,learnblock1,91.09999999962747,img/planet5_right.png,5,Community 3,NA,TRUE,j,j,NA,NA,NA,5,7,"9,8,2,13,7,4,10,12,3,14,1,6,11,15,5"
15036,commdev-image-keyboard-response,310,707001,learnblock1,627,img/planet1_right.png,1,Community 3,NA,TRUE,j,j,NA,NA,NA,5,7,"9,8,2,13,7,4,10,12,3,14,1,6,11,15,5"
15036,commdev-image-keyboard-response,311,708253,learnblock1,635.3000000007451,img/planet5_left.png,5,Community 3,NA,FALSE,j,f,NA,NA,NA,5,7,"9,8,2,13,7,4,10,12,3,14,1,6,11,15,5"
15036,commdev-image-keyboard-response,312,709505,learnblock1,579.4000000003725,img/planet1_right.png,1,Community 3,NA,TRUE,j,j,NA,NA,NA,5,7,"9,8,2,13,7,4,10,12,3,14,1,6,11,15,5"
15036,commdev-image-keyboard-response,313,710757,learnblock1,1019.5,img/planet15_right.png,15,Community 3,NA,TRUE,j,j,NA,NA,NA,5,7,"9,8,2,13,7,4,10,12,3,14,1,6,11,15,5"
15036,commdev-image-keyboard-response,314,712010,learnblock1,700.9000000003725,img/planet1_left.png,1,Community 3,NA,TRUE,f,f,NA,NA,NA,5,7,"9,8,2,13,7,4,10,12,3,14,1,6,11,15,5"
15036,commdev-image-keyboard-response,315,713261,learnblock1,null,img/planet7_left.png,7,Community 1,NA,FALSE,null,f,NA,NA,NA,5,7,"9,8,2,13,7,4,10,12,3,14,1,6,11,15,5"
15036,commdev-image-keyboard-response,316,714513,learnblock1,159.40000000037253,img/planet9_right.png,9,Community 1,NA,TRUE,j,j,NA,NA,NA,5,7,"9,8,2,13,7,4,10,12,3,14,1,6,11,15,5"
15036,commdev-image-keyboard-response,317,715764,learnblock1,642.5999999996275,img/planet13_left.png,13,Community 1,NA,TRUE,f,f,NA,NA,NA,5,7,"9,8,2,13,7,4,10,12,3,14,1,6,11,15,5"
15036,commdev-image-keyboard-response,318,717015,learnblock1,590.2000000011176,img/planet4_right.png,4,Community 2,NA,TRUE,j,j,NA,NA,NA,5,7,"9,8,2,13,7,4,10,12,3,14,1,6,11,15,5"
15036,commdev-image-keyboard-response,319,718267,learnblock1,678.0999999996275,img/planet3_left.png,3,Community 2,NA,FALSE,j,f,NA,NA,NA,5,7,"9,8,2,13,7,4,10,12,3,14,1,6,11,15,5"
15036,commdev-image-keyboard-response,320,719518,learnblock1,29.699999999254942,img/planet14_left.png,14,Community 2,NA,TRUE,f,f,NA,NA,NA,5,7,"9,8,2,13,7,4,10,12,3,14,1,6,11,15,5"
15036,commdev-image-keyboard-response,321,720770,learnblock1,1029.699999999255,img/planet4_left.png,4,Community 2,NA,TRUE,f,f,NA,NA,NA,5,7,"9,8,2,13,7,4,10,12,3,14,1,6,11,15,5"
15036,commdev-image-keyboard-response,322,722022,learnblock1,951.6999999992549,img/planet14_right.png,14,Community 2,NA,FALSE,f,j,NA,NA,NA,5,7,"9,8,2,13,7,4,10,12,3,14,1,6,11,15,5"
15036,commdev-image-keyboard-response,323,723274,learnblock1,746,img/planet3_right.png,3,Community 2,NA,TRUE,j,j,NA,NA,NA,5,7,"9,8,2,13,7,4,10,12,3,14,1,6,11,15,5"
15036,commdev-image-keyboard-response,324,724525,learnblock1,645.1999999992549,img/planet10_left.png,10,Community 2,NA,TRUE,f,f,NA,NA,NA,5,7,"9,8,2,13,7,4,10,12,3,14,1,6,11,15,5"
15036,commdev-image-keyboard-response,325,725777,learnblock1,null,img/planet12_right.png,12,Community 2,NA,FALSE,null,j,NA,NA,NA,5,7,"9,8,2,13,7,4,10,12,3,14,1,6,11,15,5"
15036,commdev-image-keyboard-response,326,727028,learnblock1,796.3999999985099,img/planet10_left.png,10,Community 2,NA,TRUE,f,f,NA,NA,NA,5,7,"9,8,2,13,7,4,10,12,3,14,1,6,11,15,5"
15036,commdev-image-keyboard-response,327,728280,learnblock1,873.3999999985099,img/planet3_left.png,3,Community 2,NA,TRUE,f,f,NA,NA,NA,5,7,"9,8,2,13,7,4,10,12,3,14,1,6,11,15,5"
15036,commdev-image-keyboard-response,328,729531,learnblock1,1003.4000000003725,img/planet10_right.png,10,Community 2,NA,TRUE,j,j,NA,NA,NA,5,7,"9,8,2,13,7,4,10,12,3,14,1,6,11,15,5"
15036,commdev-image-keyboard-response,329,730783,learnblock1,null,img/planet4_right.png,4,Community 2,NA,FALSE,null,j,NA,NA,NA,5,7,"9,8,2,13,7,4,10,12,3,14,1,6,11,15,5"
15036,commdev-image-keyboard-response,330,732035,learnblock1,null,img/planet13_left.png,13,Community 1,NA,FALSE,null,f,NA,NA,NA,5,7,"9,8,2,13,7,4,10,12,3,14,1,6,11,15,5"
15036,commdev-image-keyboard-response,331,733287,learnblock1,386,img/planet8_left.png,8,Community 1,NA,TRUE,f,f,NA,NA,NA,5,7,"9,8,2,13,7,4,10,12,3,14,1,6,11,15,5"
15036,commdev-image-keyboard-response,332,734539,learnblock1,null,img/planet7_left.png,7,Community 1,NA,FALSE,null,f,NA,NA,NA,5,7,"9,8,2,13,7,4,10,12,3,14,1,6,11,15,5"
15036,commdev-image-keyboard-response,333,735790,learnblock1,82.69999999925494,img/planet2_right.png,2,Community 1,NA,FALSE,f,j,NA,NA,NA,5,7,"9,8,2,13,7,4,10,12,3,14,1,6,11,15,5"
15036,commdev-image-keyboard-response,334,737042,learnblock1,600.3999999985099,img/planet13_right.png,13,Community 1,NA,TRUE,j,j,NA,NA,NA,5,7,"9,8,2,13,7,4,10,12,3,14,1,6,11,15,5"
15036,commdev-image-keyboard-response,335,738293,learnblock1,649,img/planet8_left.png,8,Community 1,NA,TRUE,f,f,NA,NA,NA,5,7,"9,8,2,13,7,4,10,12,3,14,1,6,11,15,5"
15036,commdev-image-keyboard-response,336,739544,learnblock1,1087.5,img/planet7_right.png,7,Community 1,NA,FALSE,f,j,NA,NA,NA,5,7,"9,8,2,13,7,4,10,12,3,14,1,6,11,15,5"
15036,commdev-image-keyboard-response,337,740796,learnblock1,214.09999999962747,img/planet9_left.png,9,Community 1,NA,FALSE,j,f,NA,NA,NA,5,7,"9,8,2,13,7,4,10,12,3,14,1,6,11,15,5"
15036,commdev-image-keyboard-response,338,742048,learnblock1,696.5999999996275,img/planet8_left.png,8,Community 1,NA,TRUE,f,f,NA,NA,NA,5,7,"9,8,2,13,7,4,10,12,3,14,1,6,11,15,5"
15036,commdev-image-keyboard-response,339,743300,learnblock1,481.30000000074506,img/planet2_left.png,2,Community 1,NA,TRUE,f,f,NA,NA,NA,5,7,"9,8,2,13,7,4,10,12,3,14,1,6,11,15,5"
15036,commdev-image-keyboard-response,340,744551,learnblock1,661.6000000014901,img/planet7_right.png,7,Community 1,NA,FALSE,f,j,NA,NA,NA,5,7,"9,8,2,13,7,4,10,12,3,14,1,6,11,15,5"
15036,commdev-image-keyboard-response,341,745803,learnblock1,619.4000000003725,img/planet2_right.png,2,Community 1,NA,FALSE,f,j,NA,NA,NA,5,7,"9,8,2,13,7,4,10,12,3,14,1,6,11,15,5"
15036,commdev-image-keyboard-response,342,747055,learnblock1,1070.199999999255,img/planet9_right.png,9,Community 1,NA,TRUE,j,j,NA,NA,NA,5,7,"9,8,2,13,7,4,10,12,3,14,1,6,11,15,5"
15036,commdev-image-keyboard-response,343,748306,learnblock1,507.69999999925494,img/planet13_right.png,13,Community 1,NA,TRUE,j,j,NA,NA,NA,5,7,"9,8,2,13,7,4,10,12,3,14,1,6,11,15,5"
15036,commdev-image-keyboard-response,344,749557,learnblock1,525.5,img/planet2_left.png,2,Community 1,NA,TRUE,f,f,NA,NA,NA,5,7,"9,8,2,13,7,4,10,12,3,14,1,6,11,15,5"
15036,commdev-image-keyboard-response,345,750809,learnblock1,626.7000000011176,img/planet8_left.png,8,Community 1,NA,FALSE,j,f,NA,NA,NA,5,7,"9,8,2,13,7,4,10,12,3,14,1,6,11,15,5"
15036,commdev-image-keyboard-response,346,752061,learnblock1,746.2000000011176,img/planet9_right.png,9,Community 1,NA,TRUE,j,j,NA,NA,NA,5,7,"9,8,2,13,7,4,10,12,3,14,1,6,11,15,5"
15036,commdev-image-keyboard-response,347,753312,learnblock1,610,img/planet2_right.png,2,Community 1,NA,TRUE,j,j,NA,NA,NA,5,7,"9,8,2,13,7,4,10,12,3,14,1,6,11,15,5"
15036,commdev-image-keyboard-response,351,1611798,learnblock2,826.1000000014901,img/planet9_right.png,9,Community 1,NA,TRUE,j,j,NA,NA,NA,5,7,"9,8,2,13,7,4,10,12,3,14,1,6,11,15,5"
15036,commdev-image-keyboard-response,352,1613051,learnblock2,477,img/planet2_right.png,2,Community 1,NA,TRUE,j,j,NA,NA,NA,5,7,"9,8,2,13,7,4,10,12,3,14,1,6,11,15,5"
15036,commdev-image-keyboard-response,353,1614304,learnblock2,452,img/planet7_left.png,7,Community 1,NA,TRUE,f,f,NA,NA,NA,5,7,"9,8,2,13,7,4,10,12,3,14,1,6,11,15,5"
15036,commdev-image-keyboard-response,354,1615556,learnblock2,484.2000000011176,img/planet1_right.png,1,Community 3,NA,TRUE,j,j,NA,NA,NA,5,7,"9,8,2,13,7,4,10,12,3,14,1,6,11,15,5"
15036,commdev-image-keyboard-response,355,1616809,learnblock2,580.6999999992549,img/planet5_right.png,5,Community 3,NA,TRUE,j,j,NA,NA,NA,5,7,"9,8,2,13,7,4,10,12,3,14,1,6,11,15,5"
15036,commdev-image-keyboard-response,356,1618062,learnblock2,614.8000000007451,img/planet6_right.png,6,Community 3,NA,TRUE,j,j,NA,NA,NA,5,7,"9,8,2,13,7,4,10,12,3,14,1,6,11,15,5"
15036,commdev-image-keyboard-response,357,1619314,learnblock2,613.2999999988824,img/planet15_right.png,15,Community 3,NA,TRUE,j,j,NA,NA,NA,5,7,"9,8,2,13,7,4,10,12,3,14,1,6,11,15,5"
15036,commdev-image-keyboard-response,358,1620567,learnblock2,548.7000000011176,img/planet6_left.png,6,Community 3,NA,TRUE,f,f,NA,NA,NA,5,7,"9,8,2,13,7,4,10,12,3,14,1,6,11,15,5"
15036,commdev-image-keyboard-response,359,1621820,learnblock2,673.5,img/planet15_right.png,15,Community 3,NA,TRUE,j,j,NA,NA,NA,5,7,"9,8,2,13,7,4,10,12,3,14,1,6,11,15,5"
15036,commdev-image-keyboard-response,360,1623074,learnblock2,477.09999999962747,img/planet11_left.png,11,Community 3,NA,TRUE,f,f,NA,NA,NA,5,7,"9,8,2,13,7,4,10,12,3,14,1,6,11,15,5"
15036,commdev-image-keyboard-response,361,1624326,learnblock2,626.7999999988824,img/planet6_left.png,6,Community 3,NA,TRUE,f,f,NA,NA,NA,5,7,"9,8,2,13,7,4,10,12,3,14,1,6,11,15,5"
15036,commdev-image-keyboard-response,362,1625579,learnblock2,500.80000000074506,img/planet15_right.png,15,Community 3,NA,TRUE,j,j,NA,NA,NA,5,7,"9,8,2,13,7,4,10,12,3,14,1,6,11,15,5"
15036,commdev-image-keyboard-response,363,1626832,learnblock2,577.7000000011176,img/planet6_left.png,6,Community 3,NA,TRUE,f,f,NA,NA,NA,5,7,"9,8,2,13,7,4,10,12,3,14,1,6,11,15,5"
15036,commdev-image-keyboard-response,364,1628085,learnblock2,608,img/planet5_right.png,5,Community 3,NA,TRUE,j,j,NA,NA,NA,5,7,"9,8,2,13,7,4,10,12,3,14,1,6,11,15,5"
15036,commdev-image-keyboard-response,365,1629337,learnblock2,552.3999999985099,img/planet11_right.png,11,Community 3,NA,TRUE,j,j,NA,NA,NA,5,7,"9,8,2,13,7,4,10,12,3,14,1,6,11,15,5"
15036,commdev-image-keyboard-response,366,1630590,learnblock2,527.7999999988824,img/planet6_right.png,6,Community 3,NA,TRUE,j,j,NA,NA,NA,5,7,"9,8,2,13,7,4,10,12,3,14,1,6,11,15,5"
15036,commdev-image-keyboard-response,367,1631843,learnblock2,584.3000000007451,img/planet15_left.png,15,Community 3,NA,TRUE,f,f,NA,NA,NA,5,7,"9,8,2,13,7,4,10,12,3,14,1,6,11,15,5"
15036,commdev-image-keyboard-response,368,1633096,learnblock2,633.4000000003725,img/planet5_right.png,5,Community 3,NA,TRUE,j,j,NA,NA,NA,5,7,"9,8,2,13,7,4,10,12,3,14,1,6,11,15,5"
15036,commdev-image-keyboard-response,369,1634348,learnblock2,623.7999999988824,img/planet15_left.png,15,Community 3,NA,TRUE,f,f,NA,NA,NA,5,7,"9,8,2,13,7,4,10,12,3,14,1,6,11,15,5"
15036,commdev-image-keyboard-response,370,1635601,learnblock2,557.0999999996275,img/planet5_left.png,5,Community 3,NA,TRUE,f,f,NA,NA,NA,5,7,"9,8,2,13,7,4,10,12,3,14,1,6,11,15,5"
15036,commdev-image-keyboard-response,371,1636854,learnblock2,607.9000000003725,img/planet11_left.png,11,Community 3,NA,TRUE,f,f,NA,NA,NA,5,7,"9,8,2,13,7,4,10,12,3,14,1,6,11,15,5"
15036,commdev-image-keyboard-response,372,1638107,learnblock2,577.5,img/planet1_left.png,1,Community 3,NA,TRUE,f,f,NA,NA,NA,5,7,"9,8,2,13,7,4,10,12,3,14,1,6,11,15,5"
15036,commdev-image-keyboard-response,373,1639360,learnblock2,542.9000000003725,img/planet11_left.png,11,Community 3,NA,TRUE,f,f,NA,NA,NA,5,7,"9,8,2,13,7,4,10,12,3,14,1,6,11,15,5"
15036,commdev-image-keyboard-response,374,1640612,learnblock2,527.0999999996275,img/planet6_right.png,6,Community 3,NA,TRUE,j,j,NA,NA,NA,5,7,"9,8,2,13,7,4,10,12,3,14,1,6,11,15,5"
15036,commdev-image-keyboard-response,375,1641865,learnblock2,695.8000000007451,img/planet15_right.png,15,Community 3,NA,TRUE,j,j,NA,NA,NA,5,7,"9,8,2,13,7,4,10,12,3,14,1,6,11,15,5"
15036,commdev-image-keyboard-response,376,1643118,learnblock2,669.4000000003725,img/planet1_left.png,1,Community 3,NA,TRUE,f,f,NA,NA,NA,5,7,"9,8,2,13,7,4,10,12,3,14,1,6,11,15,5"
15036,commdev-image-keyboard-response,377,1644370,learnblock2,565.6999999992549,img/planet5_right.png,5,Community 3,NA,TRUE,j,j,NA,NA,NA,5,7,"9,8,2,13,7,4,10,12,3,14,1,6,11,15,5"
15036,commdev-image-keyboard-response,378,1645623,learnblock2,674.0999999996275,img/planet15_left.png,15,Community 3,NA,TRUE,f,f,NA,NA,NA,5,7,"9,8,2,13,7,4,10,12,3,14,1,6,11,15,5"
15036,commdev-image-keyboard-response,379,1646876,learnblock2,609,img/planet5_right.png,5,Community 3,NA,TRUE,j,j,NA,NA,NA,5,7,"9,8,2,13,7,4,10,12,3,14,1,6,11,15,5"
15036,commdev-image-keyboard-response,380,1648129,learnblock2,601,img/planet6_right.png,6,Community 3,NA,TRUE,j,j,NA,NA,NA,5,7,"9,8,2,13,7,4,10,12,3,14,1,6,11,15,5"
15036,commdev-image-keyboard-response,381,1649381,learnblock2,505.30000000074506,img/planet11_left.png,11,Community 3,NA,TRUE,f,f,NA,NA,NA,5,7,"9,8,2,13,7,4,10,12,3,14,1,6,11,15,5"
15036,commdev-image-keyboard-response,382,1650634,learnblock2,596.2999999988824,img/planet1_right.png,1,Community 3,NA,TRUE,j,j,NA,NA,NA,5,7,"9,8,2,13,7,4,10,12,3,14,1,6,11,15,5"
15036,commdev-image-keyboard-response,383,1651887,learnblock2,485.5,img/planet11_left.png,11,Community 3,NA,TRUE,f,f,NA,NA,NA,5,7,"9,8,2,13,7,4,10,12,3,14,1,6,11,15,5"
15036,commdev-image-keyboard-response,384,1653140,learnblock2,558.0999999996275,img/planet1_left.png,1,Community 3,NA,TRUE,f,f,NA,NA,NA,5,7,"9,8,2,13,7,4,10,12,3,14,1,6,11,15,5"
15036,commdev-image-keyboard-response,385,1654392,learnblock2,547.8999999985099,img/planet5_left.png,5,Community 3,NA,TRUE,f,f,NA,NA,NA,5,7,"9,8,2,13,7,4,10,12,3,14,1,6,11,15,5"
15036,commdev-image-keyboard-response,386,1655645,learnblock2,571.6999999992549,img/planet6_right.png,6,Community 3,NA,TRUE,j,j,NA,NA,NA,5,7,"9,8,2,13,7,4,10,12,3,14,1,6,11,15,5"
15036,commdev-image-keyboard-response,387,1656898,learnblock2,560.5999999996275,img/planet11_left.png,11,Community 3,NA,TRUE,f,f,NA,NA,NA,5,7,"9,8,2,13,7,4,10,12,3,14,1,6,11,15,5"
15036,commdev-image-keyboard-response,388,1658151,learnblock2,470.7000000011176,img/planet1_left.png,1,Community 3,NA,TRUE,f,f,NA,NA,NA,5,7,"9,8,2,13,7,4,10,12,3,14,1,6,11,15,5"
15036,commdev-image-keyboard-response,389,1659410,learnblock2,532.4000000003725,img/planet15_right.png,15,Community 3,NA,TRUE,j,j,NA,NA,NA,5,7,"9,8,2,13,7,4,10,12,3,14,1,6,11,15,5"
15036,commdev-image-keyboard-response,390,1660663,learnblock2,704.3000000007451,img/planet1_left.png,1,Community 3,NA,TRUE,f,f,NA,NA,NA,5,7,"9,8,2,13,7,4,10,12,3,14,1,6,11,15,5"
15036,commdev-image-keyboard-response,391,1661915,learnblock2,803.7999999988824,img/planet7_left.png,7,Community 1,NA,TRUE,f,f,NA,NA,NA,5,7,"9,8,2,13,7,4,10,12,3,14,1,6,11,15,5"
15036,commdev-image-keyboard-response,392,1663168,learnblock2,674.6000000014901,img/planet8_left.png,8,Community 1,NA,TRUE,f,f,NA,NA,NA,5,7,"9,8,2,13,7,4,10,12,3,14,1,6,11,15,5"
15036,commdev-image-keyboard-response,393,1664421,learnblock2,624.2999999988824,img/planet2_left.png,2,Community 1,NA,TRUE,f,f,NA,NA,NA,5,7,"9,8,2,13,7,4,10,12,3,14,1,6,11,15,5"
15036,commdev-image-keyboard-response,394,1665674,learnblock2,567.6000000014901,img/planet13_left.png,13,Community 1,NA,TRUE,f,f,NA,NA,NA,5,7,"9,8,2,13,7,4,10,12,3,14,1,6,11,15,5"
15036,commdev-image-keyboard-response,395,1666927,learnblock2,561.4000000003725,img/planet4_right.png,4,Community 2,NA,TRUE,j,j,NA,NA,NA,5,7,"9,8,2,13,7,4,10,12,3,14,1,6,11,15,5"
15036,commdev-image-keyboard-response,396,1668180,learnblock2,1089.4000000003725,img/planet14_right.png,14,Community 2,NA,TRUE,j,j,NA,NA,NA,5,7,"9,8,2,13,7,4,10,12,3,14,1,6,11,15,5"
15036,commdev-image-keyboard-response,397,1669432,learnblock2,687.2999999988824,img/planet4_right.png,4,Community 2,NA,TRUE,j,j,NA,NA,NA,5,7,"9,8,2,13,7,4,10,12,3,14,1,6,11,15,5"
15036,commdev-image-keyboard-response,398,1670691,learnblock2,571.7000000011176,img/planet10_left.png,10,Community 2,NA,TRUE,f,f,NA,NA,NA,5,7,"9,8,2,13,7,4,10,12,3,14,1,6,11,15,5"
15036,commdev-image-keyboard-response,399,1671944,learnblock2,489.40000000037253,img/planet4_left.png,4,Community 2,NA,TRUE,f,f,NA,NA,NA,5,7,"9,8,2,13,7,4,10,12,3,14,1,6,11,15,5"
15036,commdev-image-keyboard-response,400,1673197,learnblock2,557.3000000007451,img/planet3_right.png,3,Community 2,NA,TRUE,j,j,NA,NA,NA,5,7,"9,8,2,13,7,4,10,12,3,14,1,6,11,15,5"
15036,commdev-image-keyboard-response,401,1674449,learnblock2,527.1000000014901,img/planet12_right.png,12,Community 2,NA,TRUE,j,j,NA,NA,NA,5,7,"9,8,2,13,7,4,10,12,3,14,1,6,11,15,5"
15036,commdev-image-keyboard-response,402,1675702,learnblock2,645.7999999988824,img/planet14_right.png,14,Community 2,NA,TRUE,j,j,NA,NA,NA,5,7,"9,8,2,13,7,4,10,12,3,14,1,6,11,15,5"
15036,commdev-image-keyboard-response,403,1676955,learnblock2,576.7000000011176,img/planet12_right.png,12,Community 2,NA,TRUE,j,j,NA,NA,NA,5,7,"9,8,2,13,7,4,10,12,3,14,1,6,11,15,5"
15036,commdev-image-keyboard-response,404,1678208,learnblock2,610.5,img/planet6_right.png,6,Community 3,NA,TRUE,j,j,NA,NA,NA,5,7,"9,8,2,13,7,4,10,12,3,14,1,6,11,15,5"
15036,commdev-image-keyboard-response,405,1679460,learnblock2,565.1999999992549,img/planet15_left.png,15,Community 3,NA,TRUE,f,f,NA,NA,NA,5,7,"9,8,2,13,7,4,10,12,3,14,1,6,11,15,5"
15036,commdev-image-keyboard-response,406,1680713,learnblock2,588,img/planet11_right.png,11,Community 3,NA,TRUE,j,j,NA,NA,NA,5,7,"9,8,2,13,7,4,10,12,3,14,1,6,11,15,5"
15036,commdev-image-keyboard-response,407,1681966,learnblock2,605.2000000011176,img/planet5_right.png,5,Community 3,NA,TRUE,j,j,NA,NA,NA,5,7,"9,8,2,13,7,4,10,12,3,14,1,6,11,15,5"
15036,commdev-image-keyboard-response,408,1683219,learnblock2,536,img/planet6_right.png,6,Community 3,NA,TRUE,j,j,NA,NA,NA,5,7,"9,8,2,13,7,4,10,12,3,14,1,6,11,15,5"
15036,commdev-image-keyboard-response,409,1684471,learnblock2,724.7999999988824,img/planet5_right.png,5,Community 3,NA,TRUE,j,j,NA,NA,NA,5,7,"9,8,2,13,7,4,10,12,3,14,1,6,11,15,5"
15036,commdev-image-keyboard-response,410,1685723,learnblock2,611.0999999996275,img/planet1_right.png,1,Community 3,NA,TRUE,j,j,NA,NA,NA,5,7,"9,8,2,13,7,4,10,12,3,14,1,6,11,15,5"
15036,commdev-image-keyboard-response,411,1686976,learnblock2,704.2000000011176,img/planet7_right.png,7,Community 1,NA,TRUE,j,j,NA,NA,NA,5,7,"9,8,2,13,7,4,10,12,3,14,1,6,11,15,5"
15036,commdev-image-keyboard-response,412,1688228,learnblock2,582.7999999988824,img/planet1_left.png,1,Community 3,NA,TRUE,f,f,NA,NA,NA,5,7,"9,8,2,13,7,4,10,12,3,14,1,6,11,15,5"
15036,commdev-image-keyboard-response,413,1689481,learnblock2,487.5,img/planet15_left.png,15,Community 3,NA,TRUE,f,f,NA,NA,NA,5,7,"9,8,2,13,7,4,10,12,3,14,1,6,11,15,5"
15036,commdev-image-keyboard-response,414,1690732,learnblock2,545.2000000011176,img/planet6_left.png,6,Community 3,NA,TRUE,f,f,NA,NA,NA,5,7,"9,8,2,13,7,4,10,12,3,14,1,6,11,15,5"
15036,commdev-image-keyboard-response,415,1691984,learnblock2,529.6000000014901,img/planet5_left.png,5,Community 3,NA,TRUE,f,f,NA,NA,NA,5,7,"9,8,2,13,7,4,10,12,3,14,1,6,11,15,5"
15036,commdev-image-keyboard-response,416,1693237,learnblock2,557.7999999988824,img/planet6_right.png,6,Community 3,NA,TRUE,j,j,NA,NA,NA,5,7,"9,8,2,13,7,4,10,12,3,14,1,6,11,15,5"
15036,commdev-image-keyboard-response,417,1694490,learnblock2,646.7999999988824,img/planet5_left.png,5,Community 3,NA,TRUE,f,f,NA,NA,NA,5,7,"9,8,2,13,7,4,10,12,3,14,1,6,11,15,5"
15036,commdev-image-keyboard-response,418,1695742,learnblock2,494.09999999962747,img/planet1_left.png,1,Community 3,NA,TRUE,f,f,NA,NA,NA,5,7,"9,8,2,13,7,4,10,12,3,14,1,6,11,15,5"
15036,commdev-image-keyboard-response,419,1696995,learnblock2,798.5,img/planet7_left.png,7,Community 1,NA,TRUE,f,f,NA,NA,NA,5,7,"9,8,2,13,7,4,10,12,3,14,1,6,11,15,5"
15036,commdev-image-keyboard-response,420,1698248,learnblock2,707.3999999985099,img/planet9_left.png,9,Community 1,NA,TRUE,f,f,NA,NA,NA,5,7,"9,8,2,13,7,4,10,12,3,14,1,6,11,15,5"
15036,commdev-image-keyboard-response,421,1699500,learnblock2,582.9000000003725,img/planet2_left.png,2,Community 1,NA,TRUE,f,f,NA,NA,NA,5,7,"9,8,2,13,7,4,10,12,3,14,1,6,11,15,5"
15036,commdev-image-keyboard-response,422,1700751,learnblock2,611.5999999996275,img/planet9_left.png,9,Community 1,NA,TRUE,f,f,NA,NA,NA,5,7,"9,8,2,13,7,4,10,12,3,14,1,6,11,15,5"
15036,commdev-image-keyboard-response,423,1702003,learnblock2,652.7999999988824,img/planet7_left.png,7,Community 1,NA,TRUE,f,f,NA,NA,NA,5,7,"9,8,2,13,7,4,10,12,3,14,1,6,11,15,5"
15036,commdev-image-keyboard-response,424,1703256,learnblock2,791.5,img/planet9_left.png,9,Community 1,NA,TRUE,f,f,NA,NA,NA,5,7,"9,8,2,13,7,4,10,12,3,14,1,6,11,15,5"
15036,commdev-image-keyboard-response,425,1704507,learnblock2,636.1999999992549,img/planet7_right.png,7,Community 1,NA,TRUE,j,j,NA,NA,NA,5,7,"9,8,2,13,7,4,10,12,3,14,1,6,11,15,5"
15036,commdev-image-keyboard-response,426,1705760,learnblock2,594.8000000007451,img/planet1_left.png,1,Community 3,NA,TRUE,f,f,NA,NA,NA,5,7,"9,8,2,13,7,4,10,12,3,14,1,6,11,15,5"
15036,commdev-image-keyboard-response,427,1707013,learnblock2,587.2999999988824,img/planet11_right.png,11,Community 3,NA,TRUE,j,j,NA,NA,NA,5,7,"9,8,2,13,7,4,10,12,3,14,1,6,11,15,5"
15036,commdev-image-keyboard-response,428,1708266,learnblock2,572.4000000003725,img/planet6_right.png,6,Community 3,NA,TRUE,j,j,NA,NA,NA,5,7,"9,8,2,13,7,4,10,12,3,14,1,6,11,15,5"
15036,commdev-image-keyboard-response,429,1709518,learnblock2,511.19999999925494,img/planet15_left.png,15,Community 3,NA,TRUE,f,f,NA,NA,NA,5,7,"9,8,2,13,7,4,10,12,3,14,1,6,11,15,5"
15036,commdev-image-keyboard-response,430,1710770,learnblock2,676.8000000007451,img/planet6_right.png,6,Community 3,NA,TRUE,j,j,NA,NA,NA,5,7,"9,8,2,13,7,4,10,12,3,14,1,6,11,15,5"
15036,commdev-image-keyboard-response,431,1712021,learnblock2,656,img/planet11_right.png,11,Community 3,NA,TRUE,j,j,NA,NA,NA,5,7,"9,8,2,13,7,4,10,12,3,14,1,6,11,15,5"
15036,commdev-image-keyboard-response,432,1713274,learnblock2,528.6999999992549,img/planet5_left.png,5,Community 3,NA,TRUE,f,f,NA,NA,NA,5,7,"9,8,2,13,7,4,10,12,3,14,1,6,11,15,5"
15036,commdev-image-keyboard-response,433,1714527,learnblock2,726,img/planet1_left.png,1,Community 3,NA,TRUE,f,f,NA,NA,NA,5,7,"9,8,2,13,7,4,10,12,3,14,1,6,11,15,5"
15036,commdev-image-keyboard-response,434,1715780,learnblock2,790.8000000007451,img/planet15_left.png,15,Community 3,NA,TRUE,f,f,NA,NA,NA,5,7,"9,8,2,13,7,4,10,12,3,14,1,6,11,15,5"
15036,commdev-image-keyboard-response,435,1717032,learnblock2,635.0999999996275,img/planet5_right.png,5,Community 3,NA,TRUE,j,j,NA,NA,NA,5,7,"9,8,2,13,7,4,10,12,3,14,1,6,11,15,5"
15036,commdev-image-keyboard-response,436,1718284,learnblock2,700.9000000003725,img/planet11_left.png,11,Community 3,NA,TRUE,f,f,NA,NA,NA,5,7,"9,8,2,13,7,4,10,12,3,14,1,6,11,15,5"
15036,commdev-image-keyboard-response,437,1719536,learnblock2,739.5,img/planet6_left.png,6,Community 3,NA,TRUE,f,f,NA,NA,NA,5,7,"9,8,2,13,7,4,10,12,3,14,1,6,11,15,5"
15036,commdev-image-keyboard-response,438,1720788,learnblock2,575.0999999996275,img/planet15_right.png,15,Community 3,NA,TRUE,j,j,NA,NA,NA,5,7,"9,8,2,13,7,4,10,12,3,14,1,6,11,15,5"
15036,commdev-image-keyboard-response,439,1722040,learnblock2,1020.2000000011176,img/planet6_right.png,6,Community 3,NA,TRUE,j,j,NA,NA,NA,5,7,"9,8,2,13,7,4,10,12,3,14,1,6,11,15,5"
15036,commdev-image-keyboard-response,440,1723293,learnblock2,803.6000000014901,img/planet12_right.png,12,Community 2,NA,TRUE,j,j,NA,NA,NA,5,7,"9,8,2,13,7,4,10,12,3,14,1,6,11,15,5"
15036,commdev-image-keyboard-response,441,1724546,learnblock2,899,img/planet14_right.png,14,Community 2,NA,TRUE,j,j,NA,NA,NA,5,7,"9,8,2,13,7,4,10,12,3,14,1,6,11,15,5"
15036,commdev-image-keyboard-response,442,1725799,learnblock2,759.8000000007451,img/planet3_right.png,3,Community 2,NA,TRUE,j,j,NA,NA,NA,5,7,"9,8,2,13,7,4,10,12,3,14,1,6,11,15,5"
15036,commdev-image-keyboard-response,443,1727051,learnblock2,873.7999999988824,img/planet4_right.png,4,Community 2,NA,TRUE,j,j,NA,NA,NA,5,7,"9,8,2,13,7,4,10,12,3,14,1,6,11,15,5"
15036,commdev-image-keyboard-response,444,1728304,learnblock2,667.5,img/planet13_left.png,13,Community 1,NA,TRUE,f,f,NA,NA,NA,5,7,"9,8,2,13,7,4,10,12,3,14,1,6,11,15,5"
15036,commdev-image-keyboard-response,445,1729557,learnblock2,645.1000000014901,img/planet2_right.png,2,Community 1,NA,TRUE,j,j,NA,NA,NA,5,7,"9,8,2,13,7,4,10,12,3,14,1,6,11,15,5"
15036,commdev-image-keyboard-response,446,1730810,learnblock2,590,img/planet7_right.png,7,Community 1,NA,TRUE,j,j,NA,NA,NA,5,7,"9,8,2,13,7,4,10,12,3,14,1,6,11,15,5"
15036,commdev-image-keyboard-response,447,1732063,learnblock2,596.3000000007451,img/planet8_right.png,8,Community 1,NA,TRUE,j,j,NA,NA,NA,5,7,"9,8,2,13,7,4,10,12,3,14,1,6,11,15,5"
15036,commdev-image-keyboard-response,448,1733316,learnblock2,523.3000000007451,img/planet9_left.png,9,Community 1,NA,TRUE,f,f,NA,NA,NA,5,7,"9,8,2,13,7,4,10,12,3,14,1,6,11,15,5"
15036,commdev-image-keyboard-response,449,1734568,learnblock2,524.6999999992549,img/planet7_left.png,7,Community 1,NA,TRUE,f,f,NA,NA,NA,5,7,"9,8,2,13,7,4,10,12,3,14,1,6,11,15,5"
15036,commdev-image-keyboard-response,450,1735820,learnblock2,540.1999999992549,img/planet9_left.png,9,Community 1,NA,TRUE,f,f,NA,NA,NA,5,7,"9,8,2,13,7,4,10,12,3,14,1,6,11,15,5"
15036,commdev-image-keyboard-response,451,1737073,learnblock2,749.3999999985099,img/planet7_left.png,7,Community 1,NA,TRUE,f,f,NA,NA,NA,5,7,"9,8,2,13,7,4,10,12,3,14,1,6,11,15,5"
15036,commdev-image-keyboard-response,452,1738326,learnblock2,666.8000000007451,img/planet2_left.png,2,Community 1,NA,TRUE,f,f,NA,NA,NA,5,7,"9,8,2,13,7,4,10,12,3,14,1,6,11,15,5"
15036,commdev-image-keyboard-response,453,1739579,learnblock2,681.9000000003725,img/planet9_left.png,9,Community 1,NA,TRUE,f,f,NA,NA,NA,5,7,"9,8,2,13,7,4,10,12,3,14,1,6,11,15,5"
15036,commdev-image-keyboard-response,454,1740832,learnblock2,484,img/planet7_right.png,7,Community 1,NA,TRUE,j,j,NA,NA,NA,5,7,"9,8,2,13,7,4,10,12,3,14,1,6,11,15,5"
15036,commdev-image-keyboard-response,455,1742084,learnblock2,547.8999999985099,img/planet8_right.png,8,Community 1,NA,TRUE,j,j,NA,NA,NA,5,7,"9,8,2,13,7,4,10,12,3,14,1,6,11,15,5"
15036,commdev-image-keyboard-response,456,1743337,learnblock2,626.5,img/planet13_left.png,13,Community 1,NA,TRUE,f,f,NA,NA,NA,5,7,"9,8,2,13,7,4,10,12,3,14,1,6,11,15,5"
15036,commdev-image-keyboard-response,457,1744590,learnblock2,431.5,img/planet4_right.png,4,Community 2,NA,TRUE,j,j,NA,NA,NA,5,7,"9,8,2,13,7,4,10,12,3,14,1,6,11,15,5"
15036,commdev-image-keyboard-response,458,1745843,learnblock2,569.6999999992549,img/planet14_left.png,14,Community 2,NA,TRUE,f,f,NA,NA,NA,5,7,"9,8,2,13,7,4,10,12,3,14,1,6,11,15,5"
15036,commdev-image-keyboard-response,459,1747095,learnblock2,674.0999999996275,img/planet12_right.png,12,Community 2,NA,TRUE,j,j,NA,NA,NA,5,7,"9,8,2,13,7,4,10,12,3,14,1,6,11,15,5"
15036,commdev-image-keyboard-response,460,1748347,learnblock2,595.0999999996275,img/planet3_left.png,3,Community 2,NA,TRUE,f,f,NA,NA,NA,5,7,"9,8,2,13,7,4,10,12,3,14,1,6,11,15,5"
15036,commdev-image-keyboard-response,461,1749599,learnblock2,610,img/planet10_left.png,10,Community 2,NA,TRUE,f,f,NA,NA,NA,5,7,"9,8,2,13,7,4,10,12,3,14,1,6,11,15,5"
15036,commdev-image-keyboard-response,462,1750851,learnblock2,611.1999999992549,img/planet3_right.png,3,Community 2,NA,TRUE,j,j,NA,NA,NA,5,7,"9,8,2,13,7,4,10,12,3,14,1,6,11,15,5"
15036,commdev-image-keyboard-response,463,1752103,learnblock2,625.3000000007451,img/planet12_right.png,12,Community 2,NA,TRUE,j,j,NA,NA,NA,5,7,"9,8,2,13,7,4,10,12,3,14,1,6,11,15,5"
15036,commdev-image-keyboard-response,464,1753356,learnblock2,596,img/planet3_left.png,3,Community 2,NA,TRUE,f,f,NA,NA,NA,5,7,"9,8,2,13,7,4,10,12,3,14,1,6,11,15,5"
15036,commdev-image-keyboard-response,465,1754608,learnblock2,511.7000000011176,img/planet10_left.png,10,Community 2,NA,TRUE,f,f,NA,NA,NA,5,7,"9,8,2,13,7,4,10,12,3,14,1,6,11,15,5"
15036,commdev-image-keyboard-response,466,1755860,learnblock2,478.6000000014901,img/planet14_right.png,14,Community 2,NA,TRUE,j,j,NA,NA,NA,5,7,"9,8,2,13,7,4,10,12,3,14,1,6,11,15,5"
15036,commdev-image-keyboard-response,467,1757113,learnblock2,620.4000000003725,img/planet3_left.png,3,Community 2,NA,TRUE,f,f,NA,NA,NA,5,7,"9,8,2,13,7,4,10,12,3,14,1,6,11,15,5"
15036,commdev-image-keyboard-response,468,1758364,learnblock2,524.5999999996275,img/planet14_right.png,14,Community 2,NA,TRUE,j,j,NA,NA,NA,5,7,"9,8,2,13,7,4,10,12,3,14,1,6,11,15,5"
15036,commdev-image-keyboard-response,469,1759616,learnblock2,638.2000000011176,img/planet4_left.png,4,Community 2,NA,TRUE,f,f,NA,NA,NA,5,7,"9,8,2,13,7,4,10,12,3,14,1,6,11,15,5"
15036,commdev-image-keyboard-response,470,1760867,learnblock2,517.4000000003725,img/planet10_right.png,10,Community 2,NA,TRUE,j,j,NA,NA,NA,5,7,"9,8,2,13,7,4,10,12,3,14,1,6,11,15,5"
15036,commdev-image-keyboard-response,471,1762119,learnblock2,588.5999999996275,img/planet4_left.png,4,Community 2,NA,TRUE,f,f,NA,NA,NA,5,7,"9,8,2,13,7,4,10,12,3,14,1,6,11,15,5"
15036,commdev-image-keyboard-response,472,1763371,learnblock2,528.2000000011176,img/planet13_left.png,13,Community 1,NA,TRUE,f,f,NA,NA,NA,5,7,"9,8,2,13,7,4,10,12,3,14,1,6,11,15,5"
15036,commdev-image-keyboard-response,473,1764622,learnblock2,458.5,img/planet9_left.png,9,Community 1,NA,TRUE,f,f,NA,NA,NA,5,7,"9,8,2,13,7,4,10,12,3,14,1,6,11,15,5"
15036,commdev-image-keyboard-response,474,1765874,learnblock2,524.3999999985099,img/planet13_right.png,13,Community 1,NA,TRUE,j,j,NA,NA,NA,5,7,"9,8,2,13,7,4,10,12,3,14,1,6,11,15,5"
15036,commdev-image-keyboard-response,475,1767127,learnblock2,559.7000000011176,img/planet9_right.png,9,Community 1,NA,TRUE,j,j,NA,NA,NA,5,7,"9,8,2,13,7,4,10,12,3,14,1,6,11,15,5"
15036,commdev-image-keyboard-response,476,1768379,learnblock2,519.3000000007451,img/planet7_left.png,7,Community 1,NA,TRUE,f,f,NA,NA,NA,5,7,"9,8,2,13,7,4,10,12,3,14,1,6,11,15,5"
15036,commdev-image-keyboard-response,477,1769632,learnblock2,663.0999999996275,img/planet9_right.png,9,Community 1,NA,TRUE,j,j,NA,NA,NA,5,7,"9,8,2,13,7,4,10,12,3,14,1,6,11,15,5"
15036,commdev-image-keyboard-response,478,1770884,learnblock2,989,img/planet8_left.png,8,Community 1,NA,TRUE,f,f,NA,NA,NA,5,7,"9,8,2,13,7,4,10,12,3,14,1,6,11,15,5"
15036,commdev-image-keyboard-response,479,1772137,learnblock2,756,img/planet13_right.png,13,Community 1,NA,TRUE,j,j,NA,NA,NA,5,7,"9,8,2,13,7,4,10,12,3,14,1,6,11,15,5"
15036,commdev-image-keyboard-response,480,1773390,learnblock2,701.3999999985099,img/planet4_right.png,4,Community 2,NA,TRUE,j,j,NA,NA,NA,5,7,"9,8,2,13,7,4,10,12,3,14,1,6,11,15,5"
15036,commdev-image-keyboard-response,481,1774643,learnblock2,593.5999999996275,img/planet10_left.png,10,Community 2,NA,TRUE,f,f,NA,NA,NA,5,7,"9,8,2,13,7,4,10,12,3,14,1,6,11,15,5"
15036,commdev-image-keyboard-response,482,1775895,learnblock2,660.0999999996275,img/planet3_left.png,3,Community 2,NA,TRUE,f,f,NA,NA,NA,5,7,"9,8,2,13,7,4,10,12,3,14,1,6,11,15,5"
15036,commdev-image-keyboard-response,483,1777147,learnblock2,512.5999999996275,img/planet10_right.png,10,Community 2,NA,TRUE,j,j,NA,NA,NA,5,7,"9,8,2,13,7,4,10,12,3,14,1,6,11,15,5"
15036,commdev-image-keyboard-response,484,1778399,learnblock2,588.7999999988824,img/planet3_left.png,3,Community 2,NA,TRUE,f,f,NA,NA,NA,5,7,"9,8,2,13,7,4,10,12,3,14,1,6,11,15,5"
15036,commdev-image-keyboard-response,485,1779651,learnblock2,604.5999999996275,img/planet4_right.png,4,Community 2,NA,TRUE,j,j,NA,NA,NA,5,7,"9,8,2,13,7,4,10,12,3,14,1,6,11,15,5"
15036,commdev-image-keyboard-response,486,1780904,learnblock2,564.7999999988824,img/planet10_right.png,10,Community 2,NA,TRUE,j,j,NA,NA,NA,5,7,"9,8,2,13,7,4,10,12,3,14,1,6,11,15,5"
15036,commdev-image-keyboard-response,487,1782156,learnblock2,477.5,img/planet12_right.png,12,Community 2,NA,TRUE,j,j,NA,NA,NA,5,7,"9,8,2,13,7,4,10,12,3,14,1,6,11,15,5"
15036,commdev-image-keyboard-response,488,1783407,learnblock2,586.8000000007451,img/planet3_right.png,3,Community 2,NA,TRUE,j,j,NA,NA,NA,5,7,"9,8,2,13,7,4,10,12,3,14,1,6,11,15,5"
15036,commdev-image-keyboard-response,489,1784659,learnblock2,548.7999999988824,img/planet10_right.png,10,Community 2,NA,TRUE,j,j,NA,NA,NA,5,7,"9,8,2,13,7,4,10,12,3,14,1,6,11,15,5"
15036,commdev-image-keyboard-response,490,1785912,learnblock2,484.40000000037253,img/planet3_right.png,3,Community 2,NA,TRUE,j,j,NA,NA,NA,5,7,"9,8,2,13,7,4,10,12,3,14,1,6,11,15,5"
15036,commdev-image-keyboard-response,491,1787165,learnblock2,680.5,img/planet14_left.png,14,Community 2,NA,TRUE,f,f,NA,NA,NA,5,7,"9,8,2,13,7,4,10,12,3,14,1,6,11,15,5"
15036,commdev-image-keyboard-response,492,1788417,learnblock2,920.6999999992549,img/planet12_left.png,12,Community 2,NA,FALSE,j,f,NA,NA,NA,5,7,"9,8,2,13,7,4,10,12,3,14,1,6,11,15,5"
15036,commdev-image-keyboard-response,493,1789670,learnblock2,950.1999999992549,img/planet3_right.png,3,Community 2,NA,TRUE,j,j,NA,NA,NA,5,7,"9,8,2,13,7,4,10,12,3,14,1,6,11,15,5"
15036,commdev-image-keyboard-response,494,1790923,learnblock2,851.3000000007451,img/planet14_right.png,14,Community 2,NA,TRUE,j,j,NA,NA,NA,5,7,"9,8,2,13,7,4,10,12,3,14,1,6,11,15,5"
15036,commdev-image-keyboard-response,495,1792175,learnblock2,830.7999999988824,img/planet10_right.png,10,Community 2,NA,TRUE,j,j,NA,NA,NA,5,7,"9,8,2,13,7,4,10,12,3,14,1,6,11,15,5"
15036,commdev-image-keyboard-response,496,1793428,learnblock2,648.6000000014901,img/planet3_left.png,3,Community 2,NA,TRUE,f,f,NA,NA,NA,5,7,"9,8,2,13,7,4,10,12,3,14,1,6,11,15,5"
15036,commdev-image-keyboard-response,497,1794680,learnblock2,618.9000000003725,img/planet12_right.png,12,Community 2,NA,TRUE,j,j,NA,NA,NA,5,7,"9,8,2,13,7,4,10,12,3,14,1,6,11,15,5"
15036,commdev-image-keyboard-response,498,1795932,learnblock2,620.8000000007451,img/planet10_right.png,10,Community 2,NA,TRUE,j,j,NA,NA,NA,5,7,"9,8,2,13,7,4,10,12,3,14,1,6,11,15,5"
15036,commdev-image-keyboard-response,499,1797183,learnblock2,586.9000000003725,img/planet4_right.png,4,Community 2,NA,TRUE,j,j,NA,NA,NA,5,7,"9,8,2,13,7,4,10,12,3,14,1,6,11,15,5"
15036,commdev-image-keyboard-response,500,1798435,learnblock2,598,img/planet14_left.png,14,Community 2,NA,TRUE,f,f,NA,NA,NA,5,7,"9,8,2,13,7,4,10,12,3,14,1,6,11,15,5"
15036,commdev-image-keyboard-response,501,1799687,learnblock2,748.6000000014901,img/planet3_left.png,3,Community 2,NA,FALSE,j,f,NA,NA,NA,5,7,"9,8,2,13,7,4,10,12,3,14,1,6,11,15,5"
15036,commdev-image-keyboard-response,502,1800940,learnblock2,740.4000000003725,img/planet12_right.png,12,Community 2,NA,TRUE,j,j,NA,NA,NA,5,7,"9,8,2,13,7,4,10,12,3,14,1,6,11,15,5"
15036,commdev-image-keyboard-response,503,1802193,learnblock2,738.6999999992549,img/planet3_left.png,3,Community 2,NA,TRUE,f,f,NA,NA,NA,5,7,"9,8,2,13,7,4,10,12,3,14,1,6,11,15,5"
15036,commdev-image-keyboard-response,504,1803446,learnblock2,571.9000000003725,img/planet12_left.png,12,Community 2,NA,TRUE,f,f,NA,NA,NA,5,7,"9,8,2,13,7,4,10,12,3,14,1,6,11,15,5"
15036,commdev-image-keyboard-response,505,1804699,learnblock2,703.5999999996275,img/planet14_left.png,14,Community 2,NA,TRUE,f,f,NA,NA,NA,5,7,"9,8,2,13,7,4,10,12,3,14,1,6,11,15,5"
15036,commdev-image-keyboard-response,506,1805952,learnblock2,517.8000000007451,img/planet10_right.png,10,Community 2,NA,TRUE,j,j,NA,NA,NA,5,7,"9,8,2,13,7,4,10,12,3,14,1,6,11,15,5"
15036,commdev-image-keyboard-response,507,1807205,learnblock2,525.9000000003725,img/planet12_right.png,12,Community 2,NA,TRUE,j,j,NA,NA,NA,5,7,"9,8,2,13,7,4,10,12,3,14,1,6,11,15,5"
15036,commdev-image-keyboard-response,508,1808457,learnblock2,519.2999999988824,img/planet3_left.png,3,Community 2,NA,TRUE,f,f,NA,NA,NA,5,7,"9,8,2,13,7,4,10,12,3,14,1,6,11,15,5"
15036,commdev-image-keyboard-response,509,1809710,learnblock2,495.59999999962747,img/planet10_left.png,10,Community 2,NA,TRUE,f,f,NA,NA,NA,5,7,"9,8,2,13,7,4,10,12,3,14,1,6,11,15,5"
15036,commdev-image-keyboard-response,510,1810962,learnblock2,439.59999999962747,img/planet4_right.png,4,Community 2,NA,TRUE,j,j,NA,NA,NA,5,7,"9,8,2,13,7,4,10,12,3,14,1,6,11,15,5"
15036,commdev-image-keyboard-response,511,1812215,learnblock2,382.3999999985099,img/planet14_left.png,14,Community 2,NA,TRUE,f,f,NA,NA,NA,5,7,"9,8,2,13,7,4,10,12,3,14,1,6,11,15,5"
15036,commdev-image-keyboard-response,512,1813468,learnblock2,584.3999999985099,img/planet12_right.png,12,Community 2,NA,FALSE,f,j,NA,NA,NA,5,7,"9,8,2,13,7,4,10,12,3,14,1,6,11,15,5"
15036,commdev-image-keyboard-response,513,1814721,learnblock2,null,img/planet3_right.png,3,Community 2,NA,FALSE,null,j,NA,NA,NA,5,7,"9,8,2,13,7,4,10,12,3,14,1,6,11,15,5"
15036,commdev-image-keyboard-response,514,1815974,learnblock2,1.300000000745058,img/planet12_left.png,12,Community 2,NA,TRUE,f,f,NA,NA,NA,5,7,"9,8,2,13,7,4,10,12,3,14,1,6,11,15,5"
15036,commdev-image-keyboard-response,515,1817227,learnblock2,1068.0999999996275,img/planet14_left.png,14,Community 2,NA,TRUE,f,f,NA,NA,NA,5,7,"9,8,2,13,7,4,10,12,3,14,1,6,11,15,5"
15036,commdev-image-keyboard-response,516,1818479,learnblock2,602.9000000003725,img/planet3_right.png,3,Community 2,NA,TRUE,j,j,NA,NA,NA,5,7,"9,8,2,13,7,4,10,12,3,14,1,6,11,15,5"
15036,commdev-image-keyboard-response,517,1819732,learnblock2,517.3999999985099,img/planet10_left.png,10,Community 2,NA,TRUE,f,f,NA,NA,NA,5,7,"9,8,2,13,7,4,10,12,3,14,1,6,11,15,5"
15036,commdev-image-keyboard-response,518,1820986,learnblock2,592.9000000003725,img/planet12_right.png,12,Community 2,NA,TRUE,j,j,NA,NA,NA,5,7,"9,8,2,13,7,4,10,12,3,14,1,6,11,15,5"
15036,commdev-image-keyboard-response,519,1822239,learnblock2,718.7000000011176,img/planet6_left.png,6,Community 3,NA,TRUE,f,f,NA,NA,NA,5,7,"9,8,2,13,7,4,10,12,3,14,1,6,11,15,5"
15036,commdev-image-keyboard-response,520,1823490,learnblock2,604.9000000003725,img/planet12_left.png,12,Community 2,NA,TRUE,f,f,NA,NA,NA,5,7,"9,8,2,13,7,4,10,12,3,14,1,6,11,15,5"
15036,commdev-image-keyboard-response,521,1824742,learnblock2,706.3999999985099,img/planet3_right.png,3,Community 2,NA,TRUE,j,j,NA,NA,NA,5,7,"9,8,2,13,7,4,10,12,3,14,1,6,11,15,5"
15036,commdev-image-keyboard-response,522,1825994,learnblock2,572,img/planet14_left.png,14,Community 2,NA,TRUE,f,f,NA,NA,NA,5,7,"9,8,2,13,7,4,10,12,3,14,1,6,11,15,5"
15036,commdev-image-keyboard-response,523,1827247,learnblock2,755,img/planet4_right.png,4,Community 2,NA,TRUE,j,j,NA,NA,NA,5,7,"9,8,2,13,7,4,10,12,3,14,1,6,11,15,5"
15036,commdev-image-keyboard-response,524,1828500,learnblock2,555.6999999992549,img/planet13_left.png,13,Community 1,NA,TRUE,f,f,NA,NA,NA,5,7,"9,8,2,13,7,4,10,12,3,14,1,6,11,15,5"
15036,commdev-image-keyboard-response,525,1829752,learnblock2,673.4000000003725,img/planet4_right.png,4,Community 2,NA,TRUE,j,j,NA,NA,NA,5,7,"9,8,2,13,7,4,10,12,3,14,1,6,11,15,5"
15036,commdev-image-keyboard-response,526,1831005,learnblock2,644.4000000003725,img/planet3_right.png,3,Community 2,NA,TRUE,j,j,NA,NA,NA,5,7,"9,8,2,13,7,4,10,12,3,14,1,6,11,15,5"
15036,commdev-image-keyboard-response,527,1832258,learnblock2,547.1000000014901,img/planet12_left.png,12,Community 2,NA,TRUE,f,f,NA,NA,NA,5,7,"9,8,2,13,7,4,10,12,3,14,1,6,11,15,5"
15036,commdev-image-keyboard-response,528,1833511,learnblock2,553,img/planet14_right.png,14,Community 2,NA,TRUE,j,j,NA,NA,NA,5,7,"9,8,2,13,7,4,10,12,3,14,1,6,11,15,5"
15036,commdev-image-keyboard-response,529,1834764,learnblock2,595.3000000007451,img/planet4_right.png,4,Community 2,NA,TRUE,j,j,NA,NA,NA,5,7,"9,8,2,13,7,4,10,12,3,14,1,6,11,15,5"
15036,commdev-image-keyboard-response,530,1836016,learnblock2,500.09999999962747,img/planet13_left.png,13,Community 1,NA,TRUE,f,f,NA,NA,NA,5,7,"9,8,2,13,7,4,10,12,3,14,1,6,11,15,5"
15036,commdev-image-keyboard-response,531,1837269,learnblock2,518.8000000007451,img/planet2_left.png,2,Community 1,NA,TRUE,f,f,NA,NA,NA,5,7,"9,8,2,13,7,4,10,12,3,14,1,6,11,15,5"
15036,commdev-image-keyboard-response,532,1838522,learnblock2,508.7000000011176,img/planet9_right.png,9,Community 1,NA,TRUE,j,j,NA,NA,NA,5,7,"9,8,2,13,7,4,10,12,3,14,1,6,11,15,5"
15036,commdev-image-keyboard-response,533,1839775,learnblock2,582.5,img/planet8_left.png,8,Community 1,NA,TRUE,f,f,NA,NA,NA,5,7,"9,8,2,13,7,4,10,12,3,14,1,6,11,15,5"
15036,commdev-image-keyboard-response,534,1841026,learnblock2,621.3000000007451,img/planet2_right.png,2,Community 1,NA,TRUE,j,j,NA,NA,NA,5,7,"9,8,2,13,7,4,10,12,3,14,1,6,11,15,5"
15036,commdev-image-keyboard-response,535,1842279,learnblock2,568.3999999985099,img/planet8_right.png,8,Community 1,NA,TRUE,j,j,NA,NA,NA,5,7,"9,8,2,13,7,4,10,12,3,14,1,6,11,15,5"
15036,commdev-image-keyboard-response,536,1843532,learnblock2,554.9000000003725,img/planet9_right.png,9,Community 1,NA,TRUE,j,j,NA,NA,NA,5,7,"9,8,2,13,7,4,10,12,3,14,1,6,11,15,5"
15036,commdev-image-keyboard-response,537,1844784,learnblock2,538.0999999996275,img/planet13_right.png,13,Community 1,NA,TRUE,j,j,NA,NA,NA,5,7,"9,8,2,13,7,4,10,12,3,14,1,6,11,15,5"
15036,commdev-image-keyboard-response,538,1846037,learnblock2,539.3000000007451,img/planet8_right.png,8,Community 1,NA,TRUE,j,j,NA,NA,NA,5,7,"9,8,2,13,7,4,10,12,3,14,1,6,11,15,5"
15036,commdev-image-keyboard-response,539,1847290,learnblock2,558.6999999992549,img/planet9_left.png,9,Community 1,NA,TRUE,f,f,NA,NA,NA,5,7,"9,8,2,13,7,4,10,12,3,14,1,6,11,15,5"
15036,commdev-image-keyboard-response,540,1848543,learnblock2,579.6999999992549,img/planet8_right.png,8,Community 1,NA,TRUE,j,j,NA,NA,NA,5,7,"9,8,2,13,7,4,10,12,3,14,1,6,11,15,5"
15036,commdev-image-keyboard-response,541,1849796,learnblock2,611.1999999992549,img/planet2_left.png,2,Community 1,NA,TRUE,f,f,NA,NA,NA,5,7,"9,8,2,13,7,4,10,12,3,14,1,6,11,15,5"
15036,commdev-image-keyboard-response,542,1851049,learnblock2,652,img/planet13_left.png,13,Community 1,NA,TRUE,f,f,NA,NA,NA,5,7,"9,8,2,13,7,4,10,12,3,14,1,6,11,15,5"
15036,commdev-image-keyboard-response,543,1852301,learnblock2,458.69999999925494,img/planet9_right.png,9,Community 1,NA,TRUE,j,j,NA,NA,NA,5,7,"9,8,2,13,7,4,10,12,3,14,1,6,11,15,5"
15036,commdev-image-keyboard-response,544,1853553,learnblock2,587.1999999992549,img/planet7_left.png,7,Community 1,NA,TRUE,f,f,NA,NA,NA,5,7,"9,8,2,13,7,4,10,12,3,14,1,6,11,15,5"
15036,commdev-image-keyboard-response,545,1854806,learnblock2,862.6999999992549,img/planet9_left.png,9,Community 1,NA,TRUE,f,f,NA,NA,NA,5,7,"9,8,2,13,7,4,10,12,3,14,1,6,11,15,5"
15036,commdev-image-keyboard-response,546,1856057,learnblock2,593.1999999992549,img/planet7_left.png,7,Community 1,NA,TRUE,f,f,NA,NA,NA,5,7,"9,8,2,13,7,4,10,12,3,14,1,6,11,15,5"
15036,commdev-image-keyboard-response,547,1857311,learnblock2,618.7000000011176,img/planet1_right.png,1,Community 3,NA,TRUE,j,j,NA,NA,NA,5,7,"9,8,2,13,7,4,10,12,3,14,1,6,11,15,5"
15036,commdev-image-keyboard-response,548,1858564,learnblock2,715.9000000003725,img/planet15_right.png,15,Community 3,NA,FALSE,f,j,NA,NA,NA,5,7,"9,8,2,13,7,4,10,12,3,14,1,6,11,15,5"
15036,commdev-image-keyboard-response,549,1859817,learnblock2,633.5,img/planet11_right.png,11,Community 3,NA,TRUE,j,j,NA,NA,NA,5,7,"9,8,2,13,7,4,10,12,3,14,1,6,11,15,5"
15036,commdev-image-keyboard-response,550,1861069,learnblock2,496.2999999988824,img/planet1_left.png,1,Community 3,NA,TRUE,f,f,NA,NA,NA,5,7,"9,8,2,13,7,4,10,12,3,14,1,6,11,15,5"
15036,commdev-image-keyboard-response,551,1862321,learnblock2,502.2000000011176,img/planet5_right.png,5,Community 3,NA,TRUE,j,j,NA,NA,NA,5,7,"9,8,2,13,7,4,10,12,3,14,1,6,11,15,5"
15036,commdev-image-keyboard-response,552,1863574,learnblock2,497.6000000014901,img/planet11_right.png,11,Community 3,NA,TRUE,j,j,NA,NA,NA,5,7,"9,8,2,13,7,4,10,12,3,14,1,6,11,15,5"
15036,commdev-image-keyboard-response,553,1864827,learnblock2,523.9000000003725,img/planet6_right.png,6,Community 3,NA,TRUE,j,j,NA,NA,NA,5,7,"9,8,2,13,7,4,10,12,3,14,1,6,11,15,5"
15036,commdev-image-keyboard-response,554,1866080,learnblock2,572.5,img/planet15_left.png,15,Community 3,NA,TRUE,f,f,NA,NA,NA,5,7,"9,8,2,13,7,4,10,12,3,14,1,6,11,15,5"
15036,commdev-image-keyboard-response,555,1867333,learnblock2,395.59999999962747,img/planet1_right.png,1,Community 3,NA,TRUE,j,j,NA,NA,NA,5,7,"9,8,2,13,7,4,10,12,3,14,1,6,11,15,5"
15036,commdev-image-keyboard-response,556,1868586,learnblock2,380.5,img/planet15_left.png,15,Community 3,NA,TRUE,f,f,NA,NA,NA,5,7,"9,8,2,13,7,4,10,12,3,14,1,6,11,15,5"
15036,commdev-image-keyboard-response,557,1869837,learnblock2,426.8999999985099,img/planet6_left.png,6,Community 3,NA,FALSE,j,f,NA,NA,NA,5,7,"9,8,2,13,7,4,10,12,3,14,1,6,11,15,5"
15036,commdev-image-keyboard-response,558,1871090,learnblock2,619.2999999988824,img/planet11_right.png,11,Community 3,NA,TRUE,j,j,NA,NA,NA,5,7,"9,8,2,13,7,4,10,12,3,14,1,6,11,15,5"
15036,commdev-image-keyboard-response,559,1872343,learnblock2,574.5999999996275,img/planet6_right.png,6,Community 3,NA,TRUE,j,j,NA,NA,NA,5,7,"9,8,2,13,7,4,10,12,3,14,1,6,11,15,5"
15036,commdev-image-keyboard-response,560,1873596,learnblock2,755,img/planet12_right.png,12,Community 2,NA,TRUE,j,j,NA,NA,NA,5,7,"9,8,2,13,7,4,10,12,3,14,1,6,11,15,5"
15036,commdev-image-keyboard-response,561,1874849,learnblock2,565.3000000007451,img/planet6_left.png,6,Community 3,NA,TRUE,f,f,NA,NA,NA,5,7,"9,8,2,13,7,4,10,12,3,14,1,6,11,15,5"
15036,commdev-image-keyboard-response,562,1876106,learnblock2,523.0999999996275,img/planet15_right.png,15,Community 3,NA,TRUE,j,j,NA,NA,NA,5,7,"9,8,2,13,7,4,10,12,3,14,1,6,11,15,5"
15036,commdev-image-keyboard-response,563,1877357,learnblock2,501.90000000037253,img/planet11_right.png,11,Community 3,NA,FALSE,f,j,NA,NA,NA,5,7,"9,8,2,13,7,4,10,12,3,14,1,6,11,15,5"
15036,commdev-image-keyboard-response,564,1878610,learnblock2,690.2000000011176,img/planet6_left.png,6,Community 3,NA,TRUE,f,f,NA,NA,NA,5,7,"9,8,2,13,7,4,10,12,3,14,1,6,11,15,5"
15036,commdev-image-keyboard-response,565,1879863,learnblock2,778.9000000003725,img/planet12_right.png,12,Community 2,NA,TRUE,j,j,NA,NA,NA,5,7,"9,8,2,13,7,4,10,12,3,14,1,6,11,15,5"
15036,commdev-image-keyboard-response,566,1881116,learnblock2,659.7999999988824,img/planet3_right.png,3,Community 2,NA,TRUE,j,j,NA,NA,NA,5,7,"9,8,2,13,7,4,10,12,3,14,1,6,11,15,5"
15036,commdev-image-keyboard-response,567,1882368,learnblock2,587,img/planet12_right.png,12,Community 2,NA,TRUE,j,j,NA,NA,NA,5,7,"9,8,2,13,7,4,10,12,3,14,1,6,11,15,5"
15036,commdev-image-keyboard-response,568,1883620,learnblock2,603.9000000003725,img/planet3_left.png,3,Community 2,NA,TRUE,f,f,NA,NA,NA,5,7,"9,8,2,13,7,4,10,12,3,14,1,6,11,15,5"
15036,commdev-image-keyboard-response,569,1884873,learnblock2,501,img/planet10_left.png,10,Community 2,NA,TRUE,f,f,NA,NA,NA,5,7,"9,8,2,13,7,4,10,12,3,14,1,6,11,15,5"
15036,commdev-image-keyboard-response,570,1886126,learnblock2,485.5,img/planet4_left.png,4,Community 2,NA,TRUE,f,f,NA,NA,NA,5,7,"9,8,2,13,7,4,10,12,3,14,1,6,11,15,5"
15036,commdev-image-keyboard-response,571,1887377,learnblock2,509.69999999925494,img/planet14_right.png,14,Community 2,NA,TRUE,j,j,NA,NA,NA,5,7,"9,8,2,13,7,4,10,12,3,14,1,6,11,15,5"
15036,commdev-image-keyboard-response,572,1888630,learnblock2,725.5,img/planet10_right.png,10,Community 2,NA,TRUE,j,j,NA,NA,NA,5,7,"9,8,2,13,7,4,10,12,3,14,1,6,11,15,5"
15036,commdev-image-keyboard-response,573,1889883,learnblock2,551.2999999988824,img/planet12_left.png,12,Community 2,NA,TRUE,f,f,NA,NA,NA,5,7,"9,8,2,13,7,4,10,12,3,14,1,6,11,15,5"
15036,commdev-image-keyboard-response,574,1891136,learnblock2,672.5999999996275,img/planet14_left.png,14,Community 2,NA,TRUE,f,f,NA,NA,NA,5,7,"9,8,2,13,7,4,10,12,3,14,1,6,11,15,5"
15036,commdev-image-keyboard-response,575,1892389,learnblock2,528.8000000007451,img/planet3_left.png,3,Community 2,NA,FALSE,j,f,NA,NA,NA,5,7,"9,8,2,13,7,4,10,12,3,14,1,6,11,15,5"
15036,commdev-image-keyboard-response,576,1893642,learnblock2,535.8000000007451,img/planet4_right.png,4,Community 2,NA,TRUE,j,j,NA,NA,NA,5,7,"9,8,2,13,7,4,10,12,3,14,1,6,11,15,5"
15036,commdev-image-keyboard-response,577,1894894,learnblock2,782.2999999988824,img/planet14_left.png,14,Community 2,NA,TRUE,f,f,NA,NA,NA,5,7,"9,8,2,13,7,4,10,12,3,14,1,6,11,15,5"
15036,commdev-image-keyboard-response,578,1896147,learnblock2,947.5,img/planet4_right.png,4,Community 2,NA,TRUE,j,j,NA,NA,NA,5,7,"9,8,2,13,7,4,10,12,3,14,1,6,11,15,5"
15036,commdev-image-keyboard-response,579,1897399,learnblock2,577.9000000003725,img/planet14_left.png,14,Community 2,NA,TRUE,f,f,NA,NA,NA,5,7,"9,8,2,13,7,4,10,12,3,14,1,6,11,15,5"
15036,commdev-image-keyboard-response,580,1898651,learnblock2,537.6999999992549,img/planet3_right.png,3,Community 2,NA,TRUE,j,j,NA,NA,NA,5,7,"9,8,2,13,7,4,10,12,3,14,1,6,11,15,5"
15036,commdev-image-keyboard-response,581,1899904,learnblock2,539.1999999992549,img/planet12_right.png,12,Community 2,NA,TRUE,j,j,NA,NA,NA,5,7,"9,8,2,13,7,4,10,12,3,14,1,6,11,15,5"
15036,commdev-image-keyboard-response,582,1901156,learnblock2,572.9000000003725,img/planet3_right.png,3,Community 2,NA,TRUE,j,j,NA,NA,NA,5,7,"9,8,2,13,7,4,10,12,3,14,1,6,11,15,5"
15036,commdev-image-keyboard-response,583,1902409,learnblock2,570.1999999992549,img/planet10_left.png,10,Community 2,NA,TRUE,f,f,NA,NA,NA,5,7,"9,8,2,13,7,4,10,12,3,14,1,6,11,15,5"
15036,commdev-image-keyboard-response,584,1903662,learnblock2,610.2999999988824,img/planet14_left.png,14,Community 2,NA,TRUE,f,f,NA,NA,NA,5,7,"9,8,2,13,7,4,10,12,3,14,1,6,11,15,5"
