subject_id,trial_type,trial_index,time_elapsed,block,rt,stimulus,planet,community,response,correct,key_press,learning_correct_response,parse,init_locations,final_locations,browser_interactions,num_comp,planet_map
14394,commdev-instructions,7,37638,NA,3003.5999999046326,"<p>In this game, you will be shown a 3x3 grid of patterns.</p> <p>The last one in the bottom right-hand corner, <strong>will be missing:</strong></p> <div style='width: 700px;'><div style='float: top;'><img style='width: 200px;' src='practice/p1_M1.png'></img><p class='small'>You need to select<strong> which of the four possible patterns </strong>along the bottom<strong> fits into the gap:</strong></p></div><div style='float: top;'><img style='width: 300px;' src='practice/p1_T1.png'></img></div><br>",NA,NA,NA,NA,NA,NA,NA,NA,NA,1,8,"2,8,11,15,3,7,4,6,10,12,14,1,13,5,9"
14394,commdev-instructions,8,58144,NA,3199.7000000476837,"<p>Try to be as fast and as accurate as you can be.</p> <p>If you cannot solve the puzzle then you should guess - you will not be penalised for an incorrect answer.</p> <p>The task contains a shuffled mix of easy, medium and hard puzzles.</p> <p>You will have <strong>30 seconds</strong> to complete each puzzle.</p><br>",NA,NA,NA,NA,NA,NA,NA,NA,NA,1,8,"2,8,11,15,3,7,4,6,10,12,14,1,13,5,9"
14394,commdev-instructions,15,89834,NA,4559.799999952316,<p><strong>Success!</strong></p> <p>You seem to be getting the hang of this...</p> <p>Let's move on to the real trials.</p><br>,NA,NA,NA,NA,NA,NA,NA,NA,NA,1,8,"2,8,11,15,3,7,4,6,10,12,14,1,13,5,9"
14394,commdev-instructions,161,619713,NA,37659.300000190735,"<p>In this game, you are a scientist on board a space shuttle. </p><p> On each mission, you will visit planets all across the universe.</p><img src=""img/controlroom.jpg"" width=300vw>",NA,NA,NA,NA,NA,NA,NA,NA,NA,1,8,"2,8,11,15,3,7,4,6,10,12,14,1,13,5,9"
14394,commdev-instructions,162,623217,NA,1268.0999999046326,"<p>Here are a few planets you might see:</p><img src=""img/practice1.png"" width=200vw><img src=""img/practice2.png"" width=200vw><img src=""img/practice3.png"" width=200vw>",NA,NA,NA,NA,NA,NA,NA,NA,NA,1,8,"2,8,11,15,3,7,4,6,10,12,14,1,13,5,9"
14394,commdev-instructions,163,653725,NA,23087.200000047684,"<p>Your job as a scientist is to record which direction the winds are moving on each planet.</p><p>There are two types of wind directions:</p><img src=""img/practice1_left.png"" width=200vw><img src=""img/practice1_right.png"" width=200vw>",NA,NA,NA,NA,NA,NA,NA,NA,NA,1,8,"2,8,11,15,3,7,4,6,10,12,14,1,13,5,9"
14394,commdev-instructions,164,662434,NA,3816.399999856949,"<p>If the winds are moving this way, press the letter <strong>F</strong> on the keyboard as fast as you can.</p><img src=""img/leftwind.png"" width=250vw>",NA,NA,NA,NA,NA,NA,NA,NA,NA,1,8,"2,8,11,15,3,7,4,6,10,12,14,1,13,5,9"
14394,commdev-instructions,165,670973,NA,4025.0999999046326,"<p>If the winds are moving this way, press the letter <strong>J</strong> on the keyboard as fast as you can.</p><img src=""img/rightwind.png"" width=350vw>",NA,NA,NA,NA,NA,NA,NA,NA,NA,1,8,"2,8,11,15,3,7,4,6,10,12,14,1,13,5,9"
14394,commdev-instructions,166,681389,NA,5980.700000047684,<p>You will have 1 second to respond. Try to respond before the time runs out!,NA,NA,NA,NA,NA,NA,NA,NA,NA,1,8,"2,8,11,15,3,7,4,6,10,12,14,1,13,5,9"
14394,commdev-instructions,167,690468,NA,3640.300000190735,<p>The planets you will visit will look different from each other.</p><p>You should respond <strong>only</strong> based on wind direction.,NA,NA,NA,NA,NA,NA,NA,NA,NA,1,8,"2,8,11,15,3,7,4,6,10,12,14,1,13,5,9"
14394,commdev-instructions,168,701349,NA,5690.200000047684,"<p> Ready to start the practice round? </p><p> Remember, press <strong>F</strong> or <strong>J</strong> depending on the wind direction.<br><img src=""img/categorize_planet_example.png""",NA,NA,NA,NA,NA,NA,NA,NA,NA,1,8,"2,8,11,15,3,7,4,6,10,12,14,1,13,5,9"
14394,commdev-instructions,180,782157,NA,5034.199999809265,"<p>Great, now try a short practice mission. </p><p> This time, you will have 1 second to respond and you won't know whether you pressed the right or wrong key for each planet.</p>",NA,NA,NA,NA,NA,NA,NA,NA,NA,1,8,"2,8,11,15,3,7,4,6,10,12,14,1,13,5,9"
14394,commdev-image-keyboard-response,181,783523,practice,null,img/practice3_left.png,NA,Number not found in mappings,NA,FALSE,null,f,NA,NA,NA,1,8,"2,8,11,15,3,7,4,6,10,12,14,1,13,5,9"
14394,commdev-image-keyboard-response,182,784791,practice,368.09999990463257,img/practice2_left.png,NA,Number not found in mappings,NA,TRUE,f,f,NA,NA,NA,1,8,"2,8,11,15,3,7,4,6,10,12,14,1,13,5,9"
14394,commdev-image-keyboard-response,183,786052,practice,755.1000001430511,img/practice4_right.png,NA,Number not found in mappings,NA,FALSE,f,j,NA,NA,NA,1,8,"2,8,11,15,3,7,4,6,10,12,14,1,13,5,9"
14394,commdev-image-keyboard-response,184,787322,practice,186.30000019073486,img/practice2_left.png,NA,Number not found in mappings,NA,TRUE,f,f,NA,NA,NA,1,8,"2,8,11,15,3,7,4,6,10,12,14,1,13,5,9"
14394,commdev-image-keyboard-response,185,788592,practice,null,img/practice3_left.png,NA,Number not found in mappings,NA,FALSE,null,f,NA,NA,NA,1,8,"2,8,11,15,3,7,4,6,10,12,14,1,13,5,9"
14394,commdev-image-keyboard-response,186,789852,practice,560.7999999523163,img/practice2_left.png,NA,Number not found in mappings,NA,TRUE,f,f,NA,NA,NA,1,8,"2,8,11,15,3,7,4,6,10,12,14,1,13,5,9"
14394,commdev-image-keyboard-response,187,791121,practice,104.39999985694885,img/practice4_left.png,NA,Number not found in mappings,NA,TRUE,f,f,NA,NA,NA,1,8,"2,8,11,15,3,7,4,6,10,12,14,1,13,5,9"
14394,commdev-image-keyboard-response,188,792373,practice,116.60000014305115,img/practice1_right.png,NA,Number not found in mappings,NA,FALSE,f,j,NA,NA,NA,1,8,"2,8,11,15,3,7,4,6,10,12,14,1,13,5,9"
14394,commdev-instructions,189,804104,NA,2171,"<p>Great job with the practice round.</p><p>During real missions, you won't know whether you pressed the right or wrong key for each planet.</p><p>But between missions, we will tell you how you did overall.</p>",NA,NA,NA,NA,NA,NA,NA,NA,NA,1,8,"2,8,11,15,3,7,4,6,10,12,14,1,13,5,9"
14394,commdev-instructions,190,815304,NA,2941.5,<p>Try your best! You will be paid a bonus based on how many correct responses you make!</p><p>Responses that are too slow will not count toward your bonus.</p>,NA,NA,NA,NA,NA,NA,NA,NA,NA,1,8,"2,8,11,15,3,7,4,6,10,12,14,1,13,5,9"
14394,commdev-instructions,191,825557,NA,4043.7999999523163,"<p>You are almost ready to start the real game.</p><p> First, we are going to ask you some questions about how the game works.</p>",NA,NA,NA,NA,NA,NA,NA,NA,NA,1,8,"2,8,11,15,3,7,4,6,10,12,14,1,13,5,9"
14394,commdev-instructions,200,934200,NA,2016.7000000476837,"<p> Nice work! It is now time to start the real game.<p></p>You will go on two missions to record wind directions of different planets.<p></p>Each one will take about 5 minutes. You will get to take a break between missions.<p><p> Remember, press <strong>F</strong> or <strong>J</strong> depending on the wind direction. Good luck!<br><img src=""img/categorize_planet_example.png""",NA,NA,NA,NA,NA,NA,NA,NA,NA,1,8,"2,8,11,15,3,7,4,6,10,12,14,1,13,5,9"
14394,commdev-image-keyboard-response,202,954672,learnblock1,null,img/planet5_left.png,5,Community 3,NA,FALSE,null,f,NA,NA,NA,1,8,"2,8,11,15,3,7,4,6,10,12,14,1,13,5,9"
14394,commdev-image-keyboard-response,203,955941,learnblock1,null,img/planet13_right.png,13,Community 3,NA,FALSE,null,j,NA,NA,NA,1,8,"2,8,11,15,3,7,4,6,10,12,14,1,13,5,9"
14394,commdev-image-keyboard-response,204,957202,learnblock1,null,img/planet14_left.png,14,Community 3,NA,FALSE,null,f,NA,NA,NA,1,8,"2,8,11,15,3,7,4,6,10,12,14,1,13,5,9"
14394,commdev-image-keyboard-response,205,958472,learnblock1,null,img/planet3_right.png,3,Community 1,NA,FALSE,null,j,NA,NA,NA,1,8,"2,8,11,15,3,7,4,6,10,12,14,1,13,5,9"
14394,commdev-image-keyboard-response,206,959742,learnblock1,107.70000004768372,img/planet11_left.png,11,Community 1,NA,FALSE,j,f,NA,NA,NA,1,8,"2,8,11,15,3,7,4,6,10,12,14,1,13,5,9"
14394,commdev-image-keyboard-response,207,961011,learnblock1,655.2000000476837,img/planet2_right.png,2,Community 1,NA,TRUE,j,j,NA,NA,NA,1,8,"2,8,11,15,3,7,4,6,10,12,14,1,13,5,9"
14394,commdev-image-keyboard-response,208,962271,learnblock1,1249.7000000476837,img/planet8_right.png,8,Community 1,NA,TRUE,j,j,NA,NA,NA,1,8,"2,8,11,15,3,7,4,6,10,12,14,1,13,5,9"
14394,commdev-image-keyboard-response,209,963532,learnblock1,834.6000001430511,img/planet3_left.png,3,Community 1,NA,TRUE,f,f,NA,NA,NA,1,8,"2,8,11,15,3,7,4,6,10,12,14,1,13,5,9"
14394,commdev-image-keyboard-response,210,964790,learnblock1,805.2999999523163,img/planet2_left.png,2,Community 1,NA,FALSE,j,f,NA,NA,NA,1,8,"2,8,11,15,3,7,4,6,10,12,14,1,13,5,9"
14394,commdev-image-keyboard-response,211,966051,learnblock1,879.7999999523163,img/planet3_left.png,3,Community 1,NA,FALSE,j,f,NA,NA,NA,1,8,"2,8,11,15,3,7,4,6,10,12,14,1,13,5,9"
14394,commdev-image-keyboard-response,212,967310,learnblock1,89.20000004768372,img/planet8_left.png,8,Community 1,NA,TRUE,f,f,NA,NA,NA,1,8,"2,8,11,15,3,7,4,6,10,12,14,1,13,5,9"
14394,commdev-image-keyboard-response,213,968567,learnblock1,228.5,img/planet11_right.png,11,Community 1,NA,FALSE,f,j,NA,NA,NA,1,8,"2,8,11,15,3,7,4,6,10,12,14,1,13,5,9"
14394,commdev-image-keyboard-response,214,969825,learnblock1,28.09999990463257,img/planet15_left.png,15,Community 1,NA,TRUE,f,f,NA,NA,NA,1,8,"2,8,11,15,3,7,4,6,10,12,14,1,13,5,9"
14394,commdev-image-keyboard-response,215,971078,learnblock1,1026.5,img/planet7_left.png,7,Community 2,NA,FALSE,j,f,NA,NA,NA,1,8,"2,8,11,15,3,7,4,6,10,12,14,1,13,5,9"
14394,commdev-image-keyboard-response,216,972340,learnblock1,178.29999995231628,img/planet10_left.png,10,Community 2,NA,TRUE,f,f,NA,NA,NA,1,8,"2,8,11,15,3,7,4,6,10,12,14,1,13,5,9"
14394,commdev-image-keyboard-response,217,973607,learnblock1,74.70000004768372,img/planet4_left.png,4,Community 2,NA,TRUE,f,f,NA,NA,NA,1,8,"2,8,11,15,3,7,4,6,10,12,14,1,13,5,9"
14394,commdev-image-keyboard-response,218,974861,learnblock1,1055.7999999523163,img/planet7_right.png,7,Community 2,NA,TRUE,j,j,NA,NA,NA,1,8,"2,8,11,15,3,7,4,6,10,12,14,1,13,5,9"
14394,commdev-image-keyboard-response,219,976115,learnblock1,898.0999999046326,img/planet4_left.png,4,Community 2,NA,TRUE,f,f,NA,NA,NA,1,8,"2,8,11,15,3,7,4,6,10,12,14,1,13,5,9"
14394,commdev-image-keyboard-response,220,977370,learnblock1,994.2999999523163,img/planet6_right.png,6,Community 2,NA,TRUE,j,j,NA,NA,NA,1,8,"2,8,11,15,3,7,4,6,10,12,14,1,13,5,9"
14394,commdev-image-keyboard-response,221,978630,learnblock1,943.6000001430511,img/planet4_right.png,4,Community 2,NA,FALSE,f,j,NA,NA,NA,1,8,"2,8,11,15,3,7,4,6,10,12,14,1,13,5,9"
14394,commdev-image-keyboard-response,222,979889,learnblock1,null,img/planet10_left.png,10,Community 2,NA,FALSE,null,f,NA,NA,NA,1,8,"2,8,11,15,3,7,4,6,10,12,14,1,13,5,9"
14394,commdev-image-keyboard-response,223,981150,learnblock1,52.5,img/planet4_left.png,4,Community 2,NA,FALSE,j,f,NA,NA,NA,1,8,"2,8,11,15,3,7,4,6,10,12,14,1,13,5,9"
14394,commdev-image-keyboard-response,224,982410,learnblock1,458.09999990463257,img/planet6_right.png,6,Community 2,NA,FALSE,f,j,NA,NA,NA,1,8,"2,8,11,15,3,7,4,6,10,12,14,1,13,5,9"
14394,commdev-image-keyboard-response,225,983681,learnblock1,428.59999990463257,img/planet12_right.png,12,Community 2,NA,TRUE,j,j,NA,NA,NA,1,8,"2,8,11,15,3,7,4,6,10,12,14,1,13,5,9"
14394,commdev-image-keyboard-response,226,984936,learnblock1,958.2999999523163,img/planet7_left.png,7,Community 2,NA,FALSE,j,f,NA,NA,NA,1,8,"2,8,11,15,3,7,4,6,10,12,14,1,13,5,9"
14394,commdev-image-keyboard-response,227,986194,learnblock1,16,img/planet15_left.png,15,Community 1,NA,TRUE,f,f,NA,NA,NA,1,8,"2,8,11,15,3,7,4,6,10,12,14,1,13,5,9"
14394,commdev-image-keyboard-response,228,987456,learnblock1,1197.7000000476837,img/planet2_right.png,2,Community 1,NA,FALSE,f,j,NA,NA,NA,1,8,"2,8,11,15,3,7,4,6,10,12,14,1,13,5,9"
14394,commdev-image-keyboard-response,229,988715,learnblock1,0.5999999046325684,img/planet3_left.png,3,Community 1,NA,FALSE,j,f,NA,NA,NA,1,8,"2,8,11,15,3,7,4,6,10,12,14,1,13,5,9"
14394,commdev-image-keyboard-response,230,989973,learnblock1,874.6000001430511,img/planet8_left.png,8,Community 1,NA,TRUE,f,f,NA,NA,NA,1,8,"2,8,11,15,3,7,4,6,10,12,14,1,13,5,9"
14394,commdev-image-keyboard-response,231,991230,learnblock1,966.4000000953674,img/planet3_right.png,3,Community 1,NA,FALSE,f,j,NA,NA,NA,1,8,"2,8,11,15,3,7,4,6,10,12,14,1,13,5,9"
14394,commdev-image-keyboard-response,232,992490,learnblock1,90.70000004768372,img/planet8_right.png,8,Community 1,NA,TRUE,j,j,NA,NA,NA,1,8,"2,8,11,15,3,7,4,6,10,12,14,1,13,5,9"
14394,commdev-image-keyboard-response,233,993749,learnblock1,116.59999990463257,img/planet3_right.png,3,Community 1,NA,TRUE,j,j,NA,NA,NA,1,8,"2,8,11,15,3,7,4,6,10,12,14,1,13,5,9"
14394,commdev-image-keyboard-response,234,995010,learnblock1,null,img/planet14_right.png,14,Community 3,NA,FALSE,null,j,NA,NA,NA,1,8,"2,8,11,15,3,7,4,6,10,12,14,1,13,5,9"
14394,commdev-image-keyboard-response,235,996266,learnblock1,942.5999999046326,img/planet9_right.png,9,Community 3,NA,TRUE,j,j,NA,NA,NA,1,8,"2,8,11,15,3,7,4,6,10,12,14,1,13,5,9"
14394,commdev-image-keyboard-response,236,997520,learnblock1,1125.9000000953674,img/planet1_left.png,1,Community 3,NA,TRUE,f,f,NA,NA,NA,1,8,"2,8,11,15,3,7,4,6,10,12,14,1,13,5,9"
14394,commdev-image-keyboard-response,237,998780,learnblock1,1075,img/planet6_right.png,6,Community 2,NA,TRUE,j,j,NA,NA,NA,1,8,"2,8,11,15,3,7,4,6,10,12,14,1,13,5,9"
14394,commdev-image-keyboard-response,238,1000042,learnblock1,904.5999999046326,img/planet10_right.png,10,Community 2,NA,FALSE,f,j,NA,NA,NA,1,8,"2,8,11,15,3,7,4,6,10,12,14,1,13,5,9"
14394,commdev-image-keyboard-response,239,1001299,learnblock1,15.5,img/planet12_left.png,12,Community 2,NA,FALSE,j,f,NA,NA,NA,1,8,"2,8,11,15,3,7,4,6,10,12,14,1,13,5,9"
14394,commdev-image-keyboard-response,240,1002558,learnblock1,null,img/planet4_left.png,4,Community 2,NA,FALSE,null,f,NA,NA,NA,1,8,"2,8,11,15,3,7,4,6,10,12,14,1,13,5,9"
14394,commdev-image-keyboard-response,241,1003818,learnblock1,207.70000004768372,img/planet12_left.png,12,Community 2,NA,TRUE,f,f,NA,NA,NA,1,8,"2,8,11,15,3,7,4,6,10,12,14,1,13,5,9"
14394,commdev-image-keyboard-response,242,1005079,learnblock1,1227.9000000953674,img/planet4_right.png,4,Community 2,NA,FALSE,f,j,NA,NA,NA,1,8,"2,8,11,15,3,7,4,6,10,12,14,1,13,5,9"
14394,commdev-image-keyboard-response,243,1006330,learnblock1,172.5,img/planet6_left.png,6,Community 2,NA,FALSE,j,f,NA,NA,NA,1,8,"2,8,11,15,3,7,4,6,10,12,14,1,13,5,9"
14394,commdev-image-keyboard-response,244,1007588,learnblock1,209.79999995231628,img/planet10_left.png,10,Community 2,NA,FALSE,j,f,NA,NA,NA,1,8,"2,8,11,15,3,7,4,6,10,12,14,1,13,5,9"
14394,commdev-image-keyboard-response,245,1008845,learnblock1,58.200000047683716,img/planet12_right.png,12,Community 2,NA,TRUE,j,j,NA,NA,NA,1,8,"2,8,11,15,3,7,4,6,10,12,14,1,13,5,9"
14394,commdev-image-keyboard-response,246,1010100,learnblock1,220.40000009536743,img/planet6_right.png,6,Community 2,NA,FALSE,f,j,NA,NA,NA,1,8,"2,8,11,15,3,7,4,6,10,12,14,1,13,5,9"
14394,commdev-image-keyboard-response,247,1011357,learnblock1,354.7000000476837,img/planet12_left.png,12,Community 2,NA,FALSE,j,f,NA,NA,NA,1,8,"2,8,11,15,3,7,4,6,10,12,14,1,13,5,9"
14394,commdev-image-keyboard-response,248,1012611,learnblock1,743.0999999046326,img/planet6_right.png,6,Community 2,NA,FALSE,f,j,NA,NA,NA,1,8,"2,8,11,15,3,7,4,6,10,12,14,1,13,5,9"
14394,commdev-image-keyboard-response,249,1013870,learnblock1,null,img/planet1_right.png,1,Community 3,NA,FALSE,null,j,NA,NA,NA,1,8,"2,8,11,15,3,7,4,6,10,12,14,1,13,5,9"
14394,commdev-image-keyboard-response,250,1015123,learnblock1,null,img/planet6_left.png,6,Community 2,NA,FALSE,null,f,NA,NA,NA,1,8,"2,8,11,15,3,7,4,6,10,12,14,1,13,5,9"
14394,commdev-image-keyboard-response,251,1016389,learnblock1,null,img/planet1_left.png,1,Community 3,NA,FALSE,null,f,NA,NA,NA,1,8,"2,8,11,15,3,7,4,6,10,12,14,1,13,5,9"
14394,commdev-image-keyboard-response,252,1017642,learnblock1,null,img/planet9_right.png,9,Community 3,NA,FALSE,null,j,NA,NA,NA,1,8,"2,8,11,15,3,7,4,6,10,12,14,1,13,5,9"
14394,commdev-image-keyboard-response,253,1018903,learnblock1,null,img/planet13_right.png,13,Community 3,NA,FALSE,null,j,NA,NA,NA,1,8,"2,8,11,15,3,7,4,6,10,12,14,1,13,5,9"
14394,commdev-image-keyboard-response,254,1020165,learnblock1,null,img/planet1_left.png,1,Community 3,NA,FALSE,null,f,NA,NA,NA,1,8,"2,8,11,15,3,7,4,6,10,12,14,1,13,5,9"
14394,commdev-image-keyboard-response,255,1021432,learnblock1,null,img/planet13_left.png,13,Community 3,NA,FALSE,null,f,NA,NA,NA,1,8,"2,8,11,15,3,7,4,6,10,12,14,1,13,5,9"
14394,commdev-image-keyboard-response,256,1022700,learnblock1,null,img/planet14_left.png,14,Community 3,NA,FALSE,null,f,NA,NA,NA,1,8,"2,8,11,15,3,7,4,6,10,12,14,1,13,5,9"
14394,commdev-image-keyboard-response,257,1023961,learnblock1,49.5,img/planet5_left.png,5,Community 3,NA,TRUE,f,f,NA,NA,NA,1,8,"2,8,11,15,3,7,4,6,10,12,14,1,13,5,9"
14394,commdev-image-keyboard-response,258,1025221,learnblock1,null,img/planet1_left.png,1,Community 3,NA,FALSE,null,f,NA,NA,NA,1,8,"2,8,11,15,3,7,4,6,10,12,14,1,13,5,9"
14394,commdev-image-keyboard-response,259,1026481,learnblock1,1102.2000000476837,img/planet13_right.png,13,Community 3,NA,TRUE,j,j,NA,NA,NA,1,8,"2,8,11,15,3,7,4,6,10,12,14,1,13,5,9"
14394,commdev-image-keyboard-response,260,1027741,learnblock1,841.5,img/planet14_right.png,14,Community 3,NA,TRUE,j,j,NA,NA,NA,1,8,"2,8,11,15,3,7,4,6,10,12,14,1,13,5,9"
14394,commdev-image-keyboard-response,261,1028994,learnblock1,668.6000001430511,img/planet5_right.png,5,Community 3,NA,TRUE,j,j,NA,NA,NA,1,8,"2,8,11,15,3,7,4,6,10,12,14,1,13,5,9"
14394,commdev-image-keyboard-response,262,1030258,learnblock1,663.7000000476837,img/planet9_left.png,9,Community 3,NA,TRUE,f,f,NA,NA,NA,1,8,"2,8,11,15,3,7,4,6,10,12,14,1,13,5,9"
14394,commdev-image-keyboard-response,263,1031518,learnblock1,637.5999999046326,img/planet13_left.png,13,Community 3,NA,TRUE,f,f,NA,NA,NA,1,8,"2,8,11,15,3,7,4,6,10,12,14,1,13,5,9"
14394,commdev-image-keyboard-response,264,1032776,learnblock1,587.5,img/planet9_left.png,9,Community 3,NA,TRUE,f,f,NA,NA,NA,1,8,"2,8,11,15,3,7,4,6,10,12,14,1,13,5,9"
14394,commdev-image-keyboard-response,265,1034030,learnblock1,714.3999998569489,img/planet14_left.png,14,Community 3,NA,TRUE,f,f,NA,NA,NA,1,8,"2,8,11,15,3,7,4,6,10,12,14,1,13,5,9"
14394,commdev-image-keyboard-response,266,1035298,learnblock1,635.8999998569489,img/planet5_right.png,5,Community 3,NA,TRUE,j,j,NA,NA,NA,1,8,"2,8,11,15,3,7,4,6,10,12,14,1,13,5,9"
14394,commdev-image-keyboard-response,267,1036567,learnblock1,639.2999999523163,img/planet13_left.png,13,Community 3,NA,TRUE,f,f,NA,NA,NA,1,8,"2,8,11,15,3,7,4,6,10,12,14,1,13,5,9"
14394,commdev-image-keyboard-response,268,1037824,learnblock1,733.5,img/planet9_left.png,9,Community 3,NA,TRUE,f,f,NA,NA,NA,1,8,"2,8,11,15,3,7,4,6,10,12,14,1,13,5,9"
14394,commdev-image-keyboard-response,269,1039089,learnblock1,694.8999998569489,img/planet14_left.png,14,Community 3,NA,TRUE,f,f,NA,NA,NA,1,8,"2,8,11,15,3,7,4,6,10,12,14,1,13,5,9"
14394,commdev-image-keyboard-response,270,1040357,learnblock1,600.9000000953674,img/planet5_left.png,5,Community 3,NA,TRUE,f,f,NA,NA,NA,1,8,"2,8,11,15,3,7,4,6,10,12,14,1,13,5,9"
14394,commdev-image-keyboard-response,271,1041615,learnblock1,589,img/planet14_right.png,14,Community 3,NA,TRUE,j,j,NA,NA,NA,1,8,"2,8,11,15,3,7,4,6,10,12,14,1,13,5,9"
14394,commdev-image-keyboard-response,272,1042876,learnblock1,750.0999999046326,img/planet13_right.png,13,Community 3,NA,TRUE,j,j,NA,NA,NA,1,8,"2,8,11,15,3,7,4,6,10,12,14,1,13,5,9"
14394,commdev-image-keyboard-response,273,1044129,learnblock1,826.5,img/planet1_right.png,1,Community 3,NA,TRUE,j,j,NA,NA,NA,1,8,"2,8,11,15,3,7,4,6,10,12,14,1,13,5,9"
14394,commdev-image-keyboard-response,274,1045390,learnblock1,882.7999999523163,img/planet6_right.png,6,Community 2,NA,TRUE,j,j,NA,NA,NA,1,8,"2,8,11,15,3,7,4,6,10,12,14,1,13,5,9"
14394,commdev-image-keyboard-response,275,1046652,learnblock1,734.3999998569489,img/planet1_right.png,1,Community 3,NA,TRUE,j,j,NA,NA,NA,1,8,"2,8,11,15,3,7,4,6,10,12,14,1,13,5,9"
14394,commdev-image-keyboard-response,276,1047915,learnblock1,892.2999999523163,img/planet9_right.png,9,Community 3,NA,TRUE,j,j,NA,NA,NA,1,8,"2,8,11,15,3,7,4,6,10,12,14,1,13,5,9"
14394,commdev-image-keyboard-response,277,1049177,learnblock1,646.9000000953674,img/planet1_left.png,1,Community 3,NA,TRUE,f,f,NA,NA,NA,1,8,"2,8,11,15,3,7,4,6,10,12,14,1,13,5,9"
14394,commdev-image-keyboard-response,278,1050436,learnblock1,563.0999999046326,img/planet9_right.png,9,Community 3,NA,TRUE,j,j,NA,NA,NA,1,8,"2,8,11,15,3,7,4,6,10,12,14,1,13,5,9"
14394,commdev-image-keyboard-response,279,1051697,learnblock1,592,img/planet5_right.png,5,Community 3,NA,TRUE,j,j,NA,NA,NA,1,8,"2,8,11,15,3,7,4,6,10,12,14,1,13,5,9"
14394,commdev-image-keyboard-response,280,1052960,learnblock1,673,img/planet1_left.png,1,Community 3,NA,TRUE,f,f,NA,NA,NA,1,8,"2,8,11,15,3,7,4,6,10,12,14,1,13,5,9"
14394,commdev-image-keyboard-response,281,1054220,learnblock1,769.8000001907349,img/planet13_right.png,13,Community 3,NA,TRUE,j,j,NA,NA,NA,1,8,"2,8,11,15,3,7,4,6,10,12,14,1,13,5,9"
14394,commdev-image-keyboard-response,282,1055490,learnblock1,678.7999999523163,img/planet14_left.png,14,Community 3,NA,TRUE,f,f,NA,NA,NA,1,8,"2,8,11,15,3,7,4,6,10,12,14,1,13,5,9"
14394,commdev-image-keyboard-response,283,1056745,learnblock1,792.9000000953674,img/planet3_left.png,3,Community 1,NA,TRUE,f,f,NA,NA,NA,1,8,"2,8,11,15,3,7,4,6,10,12,14,1,13,5,9"
14394,commdev-image-keyboard-response,284,1058004,learnblock1,605.2999999523163,img/planet2_right.png,2,Community 1,NA,TRUE,j,j,NA,NA,NA,1,8,"2,8,11,15,3,7,4,6,10,12,14,1,13,5,9"
14394,commdev-image-keyboard-response,285,1059259,learnblock1,845.2000000476837,img/planet11_left.png,11,Community 1,NA,TRUE,f,f,NA,NA,NA,1,8,"2,8,11,15,3,7,4,6,10,12,14,1,13,5,9"
14394,commdev-image-keyboard-response,286,1060512,learnblock1,766.8000001907349,img/planet3_left.png,3,Community 1,NA,TRUE,f,f,NA,NA,NA,1,8,"2,8,11,15,3,7,4,6,10,12,14,1,13,5,9"
14394,commdev-image-keyboard-response,287,1061778,learnblock1,592.9000000953674,img/planet14_left.png,14,Community 3,NA,TRUE,f,f,NA,NA,NA,1,8,"2,8,11,15,3,7,4,6,10,12,14,1,13,5,9"
14394,commdev-image-keyboard-response,288,1063040,learnblock1,715.2000000476837,img/planet3_left.png,3,Community 1,NA,TRUE,f,f,NA,NA,NA,1,8,"2,8,11,15,3,7,4,6,10,12,14,1,13,5,9"
14394,commdev-image-keyboard-response,289,1064304,learnblock1,600.6999998092651,img/planet11_right.png,11,Community 1,NA,TRUE,j,j,NA,NA,NA,1,8,"2,8,11,15,3,7,4,6,10,12,14,1,13,5,9"
14394,commdev-image-keyboard-response,290,1065565,learnblock1,844.5999999046326,img/planet8_right.png,8,Community 1,NA,TRUE,j,j,NA,NA,NA,1,8,"2,8,11,15,3,7,4,6,10,12,14,1,13,5,9"
14394,commdev-image-keyboard-response,291,1066819,learnblock1,758.2999999523163,img/planet2_right.png,2,Community 1,NA,TRUE,j,j,NA,NA,NA,1,8,"2,8,11,15,3,7,4,6,10,12,14,1,13,5,9"
14394,commdev-image-keyboard-response,292,1068087,learnblock1,615.7999999523163,img/planet8_left.png,8,Community 1,NA,TRUE,f,f,NA,NA,NA,1,8,"2,8,11,15,3,7,4,6,10,12,14,1,13,5,9"
14394,commdev-image-keyboard-response,293,1069341,learnblock1,657.0999999046326,img/planet15_left.png,15,Community 1,NA,TRUE,f,f,NA,NA,NA,1,8,"2,8,11,15,3,7,4,6,10,12,14,1,13,5,9"
14394,commdev-image-keyboard-response,294,1070599,learnblock1,531.2999999523163,img/planet11_right.png,11,Community 1,NA,TRUE,j,j,NA,NA,NA,1,8,"2,8,11,15,3,7,4,6,10,12,14,1,13,5,9"
14394,commdev-image-keyboard-response,295,1071852,learnblock1,818.2000000476837,img/planet3_left.png,3,Community 1,NA,TRUE,f,f,NA,NA,NA,1,8,"2,8,11,15,3,7,4,6,10,12,14,1,13,5,9"
14394,commdev-image-keyboard-response,296,1073104,learnblock1,816.5,img/planet14_left.png,14,Community 3,NA,TRUE,f,f,NA,NA,NA,1,8,"2,8,11,15,3,7,4,6,10,12,14,1,13,5,9"
14394,commdev-image-keyboard-response,297,1074367,learnblock1,565.3999998569489,img/planet13_right.png,13,Community 3,NA,TRUE,j,j,NA,NA,NA,1,8,"2,8,11,15,3,7,4,6,10,12,14,1,13,5,9"
14394,commdev-image-keyboard-response,298,1075630,learnblock1,629.3999998569489,img/planet5_right.png,5,Community 3,NA,TRUE,j,j,NA,NA,NA,1,8,"2,8,11,15,3,7,4,6,10,12,14,1,13,5,9"
14394,commdev-image-keyboard-response,299,1076890,learnblock1,797.6999998092651,img/planet9_right.png,9,Community 3,NA,TRUE,j,j,NA,NA,NA,1,8,"2,8,11,15,3,7,4,6,10,12,14,1,13,5,9"
14394,commdev-image-keyboard-response,300,1078152,learnblock1,620.4000000953674,img/planet5_left.png,5,Community 3,NA,TRUE,f,f,NA,NA,NA,1,8,"2,8,11,15,3,7,4,6,10,12,14,1,13,5,9"
14394,commdev-image-keyboard-response,301,1079415,learnblock1,721.9000000953674,img/planet13_left.png,13,Community 3,NA,FALSE,j,f,NA,NA,NA,1,8,"2,8,11,15,3,7,4,6,10,12,14,1,13,5,9"
14394,commdev-image-keyboard-response,302,1080678,learnblock1,1190,img/planet5_right.png,5,Community 3,NA,TRUE,j,j,NA,NA,NA,1,8,"2,8,11,15,3,7,4,6,10,12,14,1,13,5,9"
14394,commdev-image-keyboard-response,303,1081933,learnblock1,877.1000001430511,img/planet1_right.png,1,Community 3,NA,TRUE,j,j,NA,NA,NA,1,8,"2,8,11,15,3,7,4,6,10,12,14,1,13,5,9"
14394,commdev-image-keyboard-response,304,1083185,learnblock1,550.8000001907349,img/planet5_right.png,5,Community 3,NA,FALSE,f,j,NA,NA,NA,1,8,"2,8,11,15,3,7,4,6,10,12,14,1,13,5,9"
14394,commdev-image-keyboard-response,305,1084440,learnblock1,1071.2999999523163,img/planet13_right.png,13,Community 3,NA,TRUE,j,j,NA,NA,NA,1,8,"2,8,11,15,3,7,4,6,10,12,14,1,13,5,9"
14394,commdev-image-keyboard-response,306,1085702,learnblock1,585.6000001430511,img/planet14_right.png,14,Community 3,NA,TRUE,j,j,NA,NA,NA,1,8,"2,8,11,15,3,7,4,6,10,12,14,1,13,5,9"
14394,commdev-image-keyboard-response,307,1086954,learnblock1,681.3999998569489,img/planet5_left.png,5,Community 3,NA,TRUE,f,f,NA,NA,NA,1,8,"2,8,11,15,3,7,4,6,10,12,14,1,13,5,9"
14394,commdev-image-keyboard-response,308,1088221,learnblock1,653.9000000953674,img/planet9_right.png,9,Community 3,NA,TRUE,j,j,NA,NA,NA,1,8,"2,8,11,15,3,7,4,6,10,12,14,1,13,5,9"
14394,commdev-image-keyboard-response,309,1089474,learnblock1,756.3000001907349,img/planet14_right.png,14,Community 3,NA,TRUE,j,j,NA,NA,NA,1,8,"2,8,11,15,3,7,4,6,10,12,14,1,13,5,9"
14394,commdev-image-keyboard-response,310,1090727,learnblock1,835.5,img/planet3_left.png,3,Community 1,NA,TRUE,f,f,NA,NA,NA,1,8,"2,8,11,15,3,7,4,6,10,12,14,1,13,5,9"
14394,commdev-image-keyboard-response,311,1091987,learnblock1,946.2000000476837,img/planet14_right.png,14,Community 3,NA,TRUE,j,j,NA,NA,NA,1,8,"2,8,11,15,3,7,4,6,10,12,14,1,13,5,9"
14394,commdev-image-keyboard-response,312,1093242,learnblock1,981.4000000953674,img/planet9_left.png,9,Community 3,NA,TRUE,f,f,NA,NA,NA,1,8,"2,8,11,15,3,7,4,6,10,12,14,1,13,5,9"
14394,commdev-image-keyboard-response,313,1094504,learnblock1,972.8999998569489,img/planet1_left.png,1,Community 3,NA,TRUE,f,f,NA,NA,NA,1,8,"2,8,11,15,3,7,4,6,10,12,14,1,13,5,9"
14394,commdev-image-keyboard-response,314,1095770,learnblock1,632.5999999046326,img/planet9_right.png,9,Community 3,NA,TRUE,j,j,NA,NA,NA,1,8,"2,8,11,15,3,7,4,6,10,12,14,1,13,5,9"
14394,commdev-image-keyboard-response,315,1097027,learnblock1,null,img/planet14_right.png,14,Community 3,NA,FALSE,null,j,NA,NA,NA,1,8,"2,8,11,15,3,7,4,6,10,12,14,1,13,5,9"
14394,commdev-image-keyboard-response,316,1098289,learnblock1,251.39999985694885,img/planet3_right.png,3,Community 1,NA,TRUE,j,j,NA,NA,NA,1,8,"2,8,11,15,3,7,4,6,10,12,14,1,13,5,9"
14394,commdev-image-keyboard-response,317,1099550,learnblock1,null,img/planet11_left.png,11,Community 1,NA,FALSE,null,f,NA,NA,NA,1,8,"2,8,11,15,3,7,4,6,10,12,14,1,13,5,9"
14394,commdev-image-keyboard-response,318,1100814,learnblock1,578.8999998569489,img/planet3_right.png,3,Community 1,NA,FALSE,f,j,NA,NA,NA,1,8,"2,8,11,15,3,7,4,6,10,12,14,1,13,5,9"
14394,commdev-image-keyboard-response,319,1102066,learnblock1,null,img/planet14_right.png,14,Community 3,NA,FALSE,null,j,NA,NA,NA,1,8,"2,8,11,15,3,7,4,6,10,12,14,1,13,5,9"
14394,commdev-image-keyboard-response,320,1103327,learnblock1,null,img/planet13_left.png,13,Community 3,NA,FALSE,null,f,NA,NA,NA,1,8,"2,8,11,15,3,7,4,6,10,12,14,1,13,5,9"
14394,commdev-image-keyboard-response,321,1104587,learnblock1,859.9000000953674,img/planet5_left.png,5,Community 3,NA,TRUE,f,f,NA,NA,NA,1,8,"2,8,11,15,3,7,4,6,10,12,14,1,13,5,9"
14394,commdev-image-keyboard-response,322,1105848,learnblock1,372.7999999523163,img/planet1_left.png,1,Community 3,NA,FALSE,j,f,NA,NA,NA,1,8,"2,8,11,15,3,7,4,6,10,12,14,1,13,5,9"
14394,commdev-image-keyboard-response,323,1107107,learnblock1,564.5999999046326,img/planet9_right.png,9,Community 3,NA,TRUE,j,j,NA,NA,NA,1,8,"2,8,11,15,3,7,4,6,10,12,14,1,13,5,9"
14394,commdev-image-keyboard-response,324,1108369,learnblock1,1104.4000000953674,img/planet1_left.png,1,Community 3,NA,FALSE,j,f,NA,NA,NA,1,8,"2,8,11,15,3,7,4,6,10,12,14,1,13,5,9"
14394,commdev-image-keyboard-response,325,1109622,learnblock1,818.5999999046326,img/planet13_right.png,13,Community 3,NA,TRUE,j,j,NA,NA,NA,1,8,"2,8,11,15,3,7,4,6,10,12,14,1,13,5,9"
14394,commdev-image-keyboard-response,326,1110882,learnblock1,718,img/planet14_right.png,14,Community 3,NA,TRUE,j,j,NA,NA,NA,1,8,"2,8,11,15,3,7,4,6,10,12,14,1,13,5,9"
14394,commdev-image-keyboard-response,327,1112135,learnblock1,845.1999998092651,img/planet5_left.png,5,Community 3,NA,TRUE,f,f,NA,NA,NA,1,8,"2,8,11,15,3,7,4,6,10,12,14,1,13,5,9"
14394,commdev-image-keyboard-response,328,1113395,learnblock1,1011.5,img/planet13_left.png,13,Community 3,NA,TRUE,f,f,NA,NA,NA,1,8,"2,8,11,15,3,7,4,6,10,12,14,1,13,5,9"
14394,commdev-image-keyboard-response,329,1114651,learnblock1,878.1000001430511,img/planet5_right.png,5,Community 3,NA,FALSE,f,j,NA,NA,NA,1,8,"2,8,11,15,3,7,4,6,10,12,14,1,13,5,9"
14394,commdev-image-keyboard-response,330,1115904,learnblock1,771.7000000476837,img/planet13_right.png,13,Community 3,NA,TRUE,j,j,NA,NA,NA,1,8,"2,8,11,15,3,7,4,6,10,12,14,1,13,5,9"
14394,commdev-image-keyboard-response,331,1117156,learnblock1,906.5,img/planet14_left.png,14,Community 3,NA,TRUE,f,f,NA,NA,NA,1,8,"2,8,11,15,3,7,4,6,10,12,14,1,13,5,9"
14394,commdev-image-keyboard-response,332,1118418,learnblock1,665.4000000953674,img/planet13_left.png,13,Community 3,NA,TRUE,f,f,NA,NA,NA,1,8,"2,8,11,15,3,7,4,6,10,12,14,1,13,5,9"
14394,commdev-image-keyboard-response,333,1119673,learnblock1,1171,img/planet14_left.png,14,Community 3,NA,TRUE,f,f,NA,NA,NA,1,8,"2,8,11,15,3,7,4,6,10,12,14,1,13,5,9"
14394,commdev-image-keyboard-response,334,1120926,learnblock1,749.2999999523163,img/planet9_right.png,9,Community 3,NA,TRUE,j,j,NA,NA,NA,1,8,"2,8,11,15,3,7,4,6,10,12,14,1,13,5,9"
14394,commdev-image-keyboard-response,335,1122193,learnblock1,890,img/planet5_left.png,5,Community 3,NA,TRUE,f,f,NA,NA,NA,1,8,"2,8,11,15,3,7,4,6,10,12,14,1,13,5,9"
14394,commdev-image-keyboard-response,336,1123454,learnblock1,682.9000000953674,img/planet1_right.png,1,Community 3,NA,TRUE,j,j,NA,NA,NA,1,8,"2,8,11,15,3,7,4,6,10,12,14,1,13,5,9"
14394,commdev-image-keyboard-response,337,1124720,learnblock1,557.1000001430511,img/planet13_right.png,13,Community 3,NA,TRUE,j,j,NA,NA,NA,1,8,"2,8,11,15,3,7,4,6,10,12,14,1,13,5,9"
14394,commdev-image-keyboard-response,338,1125981,learnblock1,672.8999998569489,img/planet14_right.png,14,Community 3,NA,TRUE,j,j,NA,NA,NA,1,8,"2,8,11,15,3,7,4,6,10,12,14,1,13,5,9"
14394,commdev-image-keyboard-response,339,1127243,learnblock1,639.6999998092651,img/planet3_left.png,3,Community 1,NA,TRUE,f,f,NA,NA,NA,1,8,"2,8,11,15,3,7,4,6,10,12,14,1,13,5,9"
14394,commdev-image-keyboard-response,340,1128510,learnblock1,664.0999999046326,img/planet8_left.png,8,Community 1,NA,TRUE,f,f,NA,NA,NA,1,8,"2,8,11,15,3,7,4,6,10,12,14,1,13,5,9"
14394,commdev-image-keyboard-response,341,1129769,learnblock1,548.7000000476837,img/planet3_left.png,3,Community 1,NA,TRUE,f,f,NA,NA,NA,1,8,"2,8,11,15,3,7,4,6,10,12,14,1,13,5,9"
14394,commdev-image-keyboard-response,342,1131032,learnblock1,789.7999999523163,img/planet11_left.png,11,Community 1,NA,TRUE,f,f,NA,NA,NA,1,8,"2,8,11,15,3,7,4,6,10,12,14,1,13,5,9"
14394,commdev-image-keyboard-response,343,1132302,learnblock1,586.7999999523163,img/planet2_left.png,2,Community 1,NA,TRUE,f,f,NA,NA,NA,1,8,"2,8,11,15,3,7,4,6,10,12,14,1,13,5,9"
14394,commdev-image-keyboard-response,344,1133565,learnblock1,516.5999999046326,img/planet3_right.png,3,Community 1,NA,TRUE,j,j,NA,NA,NA,1,8,"2,8,11,15,3,7,4,6,10,12,14,1,13,5,9"
14394,commdev-image-keyboard-response,345,1134822,learnblock1,690.1000001430511,img/planet8_left.png,8,Community 1,NA,TRUE,f,f,NA,NA,NA,1,8,"2,8,11,15,3,7,4,6,10,12,14,1,13,5,9"
14394,commdev-image-keyboard-response,346,1136075,learnblock1,878.7000000476837,img/planet2_right.png,2,Community 1,NA,TRUE,j,j,NA,NA,NA,1,8,"2,8,11,15,3,7,4,6,10,12,14,1,13,5,9"
14394,commdev-image-keyboard-response,347,1137336,learnblock1,691.7999999523163,img/planet3_left.png,3,Community 1,NA,TRUE,f,f,NA,NA,NA,1,8,"2,8,11,15,3,7,4,6,10,12,14,1,13,5,9"
14394,commdev-image-keyboard-response,348,1138592,learnblock1,696.3999998569489,img/planet8_left.png,8,Community 1,NA,FALSE,j,f,NA,NA,NA,1,8,"2,8,11,15,3,7,4,6,10,12,14,1,13,5,9"
14394,commdev-image-keyboard-response,349,1139853,learnblock1,722.1000001430511,img/planet15_right.png,15,Community 1,NA,TRUE,j,j,NA,NA,NA,1,8,"2,8,11,15,3,7,4,6,10,12,14,1,13,5,9"
14394,commdev-image-keyboard-response,350,1141109,learnblock1,631.9000000953674,img/planet2_left.png,2,Community 1,NA,TRUE,f,f,NA,NA,NA,1,8,"2,8,11,15,3,7,4,6,10,12,14,1,13,5,9"
14394,commdev-image-keyboard-response,351,1142366,learnblock1,820.9000000953674,img/planet15_left.png,15,Community 1,NA,TRUE,f,f,NA,NA,NA,1,8,"2,8,11,15,3,7,4,6,10,12,14,1,13,5,9"
14394,commdev-image-keyboard-response,352,1143624,learnblock1,595.2999999523163,img/planet8_left.png,8,Community 1,NA,TRUE,f,f,NA,NA,NA,1,8,"2,8,11,15,3,7,4,6,10,12,14,1,13,5,9"
14394,commdev-image-keyboard-response,353,1144882,learnblock1,562.9000000953674,img/planet15_left.png,15,Community 1,NA,TRUE,f,f,NA,NA,NA,1,8,"2,8,11,15,3,7,4,6,10,12,14,1,13,5,9"
14394,commdev-image-keyboard-response,354,1146136,learnblock1,1147.5,img/planet8_right.png,8,Community 1,NA,FALSE,f,j,NA,NA,NA,1,8,"2,8,11,15,3,7,4,6,10,12,14,1,13,5,9"
14394,commdev-image-keyboard-response,355,1147391,learnblock1,null,img/planet11_left.png,11,Community 1,NA,FALSE,null,f,NA,NA,NA,1,8,"2,8,11,15,3,7,4,6,10,12,14,1,13,5,9"
14394,commdev-image-keyboard-response,356,1148651,learnblock1,null,img/planet2_left.png,2,Community 1,NA,FALSE,null,f,NA,NA,NA,1,8,"2,8,11,15,3,7,4,6,10,12,14,1,13,5,9"
14394,commdev-image-keyboard-response,357,1149909,learnblock1,null,img/planet11_left.png,11,Community 1,NA,FALSE,null,f,NA,NA,NA,1,8,"2,8,11,15,3,7,4,6,10,12,14,1,13,5,9"
14394,commdev-image-keyboard-response,358,1151162,learnblock1,513.5999999046326,img/planet3_left.png,3,Community 1,NA,TRUE,f,f,NA,NA,NA,1,8,"2,8,11,15,3,7,4,6,10,12,14,1,13,5,9"
14394,commdev-image-keyboard-response,359,1152419,learnblock1,729.7999999523163,img/planet11_left.png,11,Community 1,NA,TRUE,f,f,NA,NA,NA,1,8,"2,8,11,15,3,7,4,6,10,12,14,1,13,5,9"
14394,commdev-image-keyboard-response,360,1153673,learnblock1,null,img/planet3_left.png,3,Community 1,NA,FALSE,null,f,NA,NA,NA,1,8,"2,8,11,15,3,7,4,6,10,12,14,1,13,5,9"
14394,commdev-image-keyboard-response,361,1154934,learnblock1,833.7000000476837,img/planet11_left.png,11,Community 1,NA,TRUE,f,f,NA,NA,NA,1,8,"2,8,11,15,3,7,4,6,10,12,14,1,13,5,9"
14394,commdev-image-keyboard-response,362,1156192,learnblock1,715.4000000953674,img/planet3_left.png,3,Community 1,NA,TRUE,f,f,NA,NA,NA,1,8,"2,8,11,15,3,7,4,6,10,12,14,1,13,5,9"
14394,commdev-image-keyboard-response,363,1157458,learnblock1,null,img/planet11_right.png,11,Community 1,NA,FALSE,null,j,NA,NA,NA,1,8,"2,8,11,15,3,7,4,6,10,12,14,1,13,5,9"
14394,commdev-image-keyboard-response,364,1158711,learnblock1,707.2999999523163,img/planet15_right.png,15,Community 1,NA,TRUE,j,j,NA,NA,NA,1,8,"2,8,11,15,3,7,4,6,10,12,14,1,13,5,9"
14394,commdev-image-keyboard-response,365,1159976,learnblock1,712.7999999523163,img/planet2_right.png,2,Community 1,NA,TRUE,j,j,NA,NA,NA,1,8,"2,8,11,15,3,7,4,6,10,12,14,1,13,5,9"
14394,commdev-image-keyboard-response,366,1161235,learnblock1,913.6999998092651,img/planet8_right.png,8,Community 1,NA,TRUE,j,j,NA,NA,NA,1,8,"2,8,11,15,3,7,4,6,10,12,14,1,13,5,9"
14394,commdev-image-keyboard-response,367,1162498,learnblock1,671.1999998092651,img/planet3_right.png,3,Community 1,NA,TRUE,j,j,NA,NA,NA,1,8,"2,8,11,15,3,7,4,6,10,12,14,1,13,5,9"
14394,commdev-image-keyboard-response,368,1163750,learnblock1,601.2000000476837,img/planet8_right.png,8,Community 1,NA,TRUE,j,j,NA,NA,NA,1,8,"2,8,11,15,3,7,4,6,10,12,14,1,13,5,9"
14394,commdev-image-keyboard-response,369,1165003,learnblock1,918.2999999523163,img/planet11_right.png,11,Community 1,NA,TRUE,j,j,NA,NA,NA,1,8,"2,8,11,15,3,7,4,6,10,12,14,1,13,5,9"
14394,commdev-image-keyboard-response,370,1166269,learnblock1,672,img/planet3_left.png,3,Community 1,NA,FALSE,j,f,NA,NA,NA,1,8,"2,8,11,15,3,7,4,6,10,12,14,1,13,5,9"
14394,commdev-image-keyboard-response,371,1167522,learnblock1,726.8000001907349,img/planet2_right.png,2,Community 1,NA,TRUE,j,j,NA,NA,NA,1,8,"2,8,11,15,3,7,4,6,10,12,14,1,13,5,9"
14394,commdev-image-keyboard-response,372,1168789,learnblock1,766.9000000953674,img/planet11_right.png,11,Community 1,NA,TRUE,j,j,NA,NA,NA,1,8,"2,8,11,15,3,7,4,6,10,12,14,1,13,5,9"
14394,commdev-image-keyboard-response,373,1170056,learnblock1,503.5,img/planet3_right.png,3,Community 1,NA,TRUE,j,j,NA,NA,NA,1,8,"2,8,11,15,3,7,4,6,10,12,14,1,13,5,9"
14394,commdev-image-keyboard-response,374,1171326,learnblock1,622.2999999523163,img/planet11_right.png,11,Community 1,NA,TRUE,j,j,NA,NA,NA,1,8,"2,8,11,15,3,7,4,6,10,12,14,1,13,5,9"
14394,commdev-image-keyboard-response,375,1172578,learnblock1,518,img/planet8_right.png,8,Community 1,NA,TRUE,j,j,NA,NA,NA,1,8,"2,8,11,15,3,7,4,6,10,12,14,1,13,5,9"
14394,commdev-image-keyboard-response,376,1173834,learnblock1,null,img/planet11_left.png,11,Community 1,NA,FALSE,null,f,NA,NA,NA,1,8,"2,8,11,15,3,7,4,6,10,12,14,1,13,5,9"
14394,commdev-image-keyboard-response,377,1175091,learnblock1,740.7999999523163,img/planet2_left.png,2,Community 1,NA,FALSE,j,f,NA,NA,NA,1,8,"2,8,11,15,3,7,4,6,10,12,14,1,13,5,9"
14394,commdev-image-keyboard-response,378,1176354,learnblock1,null,img/planet3_left.png,3,Community 1,NA,FALSE,null,f,NA,NA,NA,1,8,"2,8,11,15,3,7,4,6,10,12,14,1,13,5,9"
14394,commdev-image-keyboard-response,379,1177610,learnblock1,null,img/planet8_left.png,8,Community 1,NA,FALSE,null,f,NA,NA,NA,1,8,"2,8,11,15,3,7,4,6,10,12,14,1,13,5,9"
14394,commdev-image-keyboard-response,380,1178876,learnblock1,852.2000000476837,img/planet3_left.png,3,Community 1,NA,TRUE,f,f,NA,NA,NA,1,8,"2,8,11,15,3,7,4,6,10,12,14,1,13,5,9"
14394,commdev-image-keyboard-response,381,1180134,learnblock1,null,img/planet8_right.png,8,Community 1,NA,FALSE,null,j,NA,NA,NA,1,8,"2,8,11,15,3,7,4,6,10,12,14,1,13,5,9"
14394,commdev-image-keyboard-response,382,1181398,learnblock1,677.1000001430511,img/planet15_left.png,15,Community 1,NA,TRUE,f,f,NA,NA,NA,1,8,"2,8,11,15,3,7,4,6,10,12,14,1,13,5,9"
14394,commdev-image-keyboard-response,383,1182660,learnblock1,null,img/planet7_left.png,7,Community 2,NA,FALSE,null,f,NA,NA,NA,1,8,"2,8,11,15,3,7,4,6,10,12,14,1,13,5,9"
14394,commdev-image-keyboard-response,384,1183918,learnblock1,692.2000000476837,img/planet12_right.png,12,Community 2,NA,TRUE,j,j,NA,NA,NA,1,8,"2,8,11,15,3,7,4,6,10,12,14,1,13,5,9"
14394,commdev-image-keyboard-response,385,1185176,learnblock1,635.0999999046326,img/planet10_left.png,10,Community 2,NA,TRUE,f,f,NA,NA,NA,1,8,"2,8,11,15,3,7,4,6,10,12,14,1,13,5,9"
14394,commdev-image-keyboard-response,386,1186436,learnblock1,901.2000000476837,img/planet6_right.png,6,Community 2,NA,TRUE,j,j,NA,NA,NA,1,8,"2,8,11,15,3,7,4,6,10,12,14,1,13,5,9"
14394,commdev-image-keyboard-response,387,1187694,learnblock1,701.6000001430511,img/planet4_right.png,4,Community 2,NA,TRUE,j,j,NA,NA,NA,1,8,"2,8,11,15,3,7,4,6,10,12,14,1,13,5,9"
14394,commdev-image-keyboard-response,388,1188954,learnblock1,916.7000000476837,img/planet6_right.png,6,Community 2,NA,TRUE,j,j,NA,NA,NA,1,8,"2,8,11,15,3,7,4,6,10,12,14,1,13,5,9"
14394,commdev-image-keyboard-response,389,1190219,learnblock1,747.5,img/planet4_left.png,4,Community 2,NA,FALSE,j,f,NA,NA,NA,1,8,"2,8,11,15,3,7,4,6,10,12,14,1,13,5,9"
14394,commdev-image-keyboard-response,390,1191475,learnblock1,703.0999999046326,img/planet10_left.png,10,Community 2,NA,TRUE,f,f,NA,NA,NA,1,8,"2,8,11,15,3,7,4,6,10,12,14,1,13,5,9"
14394,commdev-image-keyboard-response,391,1192729,learnblock1,1015.3999998569489,img/planet12_right.png,12,Community 2,NA,FALSE,f,j,NA,NA,NA,1,8,"2,8,11,15,3,7,4,6,10,12,14,1,13,5,9"
14394,commdev-image-keyboard-response,392,1193991,learnblock1,719.7000000476837,img/planet4_right.png,4,Community 2,NA,FALSE,f,j,NA,NA,NA,1,8,"2,8,11,15,3,7,4,6,10,12,14,1,13,5,9"
14394,commdev-image-keyboard-response,393,1195248,learnblock1,605,img/planet10_left.png,10,Community 2,NA,TRUE,f,f,NA,NA,NA,1,8,"2,8,11,15,3,7,4,6,10,12,14,1,13,5,9"
14394,commdev-image-keyboard-response,394,1196502,learnblock1,null,img/planet6_left.png,6,Community 2,NA,FALSE,null,f,NA,NA,NA,1,8,"2,8,11,15,3,7,4,6,10,12,14,1,13,5,9"
14394,commdev-image-keyboard-response,395,1197757,learnblock1,86.29999995231628,img/planet12_left.png,12,Community 2,NA,TRUE,f,f,NA,NA,NA,1,8,"2,8,11,15,3,7,4,6,10,12,14,1,13,5,9"
14394,commdev-image-keyboard-response,396,1199012,learnblock1,547,img/planet10_left.png,10,Community 2,NA,TRUE,f,f,NA,NA,NA,1,8,"2,8,11,15,3,7,4,6,10,12,14,1,13,5,9"
14394,commdev-image-keyboard-response,397,1200272,learnblock1,710.2000000476837,img/planet12_right.png,12,Community 2,NA,TRUE,j,j,NA,NA,NA,1,8,"2,8,11,15,3,7,4,6,10,12,14,1,13,5,9"
14394,commdev-image-keyboard-response,398,1201526,learnblock1,700.1000001430511,img/planet4_left.png,4,Community 2,NA,TRUE,f,f,NA,NA,NA,1,8,"2,8,11,15,3,7,4,6,10,12,14,1,13,5,9"
14394,commdev-image-keyboard-response,399,1202779,learnblock1,739.7999999523163,img/planet10_left.png,10,Community 2,NA,TRUE,f,f,NA,NA,NA,1,8,"2,8,11,15,3,7,4,6,10,12,14,1,13,5,9"
14394,commdev-image-keyboard-response,400,1204050,learnblock1,658.1999998092651,img/planet4_right.png,4,Community 2,NA,TRUE,j,j,NA,NA,NA,1,8,"2,8,11,15,3,7,4,6,10,12,14,1,13,5,9"
14394,commdev-image-keyboard-response,401,1205317,learnblock1,712.9000000953674,img/planet6_right.png,6,Community 2,NA,TRUE,j,j,NA,NA,NA,1,8,"2,8,11,15,3,7,4,6,10,12,14,1,13,5,9"
14394,commdev-image-keyboard-response,402,1206569,learnblock1,721.5,img/planet12_left.png,12,Community 2,NA,TRUE,f,f,NA,NA,NA,1,8,"2,8,11,15,3,7,4,6,10,12,14,1,13,5,9"
14394,commdev-image-keyboard-response,403,1207826,learnblock1,745.1000001430511,img/planet7_right.png,7,Community 2,NA,TRUE,j,j,NA,NA,NA,1,8,"2,8,11,15,3,7,4,6,10,12,14,1,13,5,9"
14394,commdev-image-keyboard-response,404,1209081,learnblock1,725.2999999523163,img/planet15_right.png,15,Community 1,NA,TRUE,j,j,NA,NA,NA,1,8,"2,8,11,15,3,7,4,6,10,12,14,1,13,5,9"
14394,commdev-image-keyboard-response,405,1210351,learnblock1,610.5999999046326,img/planet8_right.png,8,Community 1,NA,TRUE,j,j,NA,NA,NA,1,8,"2,8,11,15,3,7,4,6,10,12,14,1,13,5,9"
14394,commdev-image-keyboard-response,406,1211605,learnblock1,647.3999998569489,img/planet2_left.png,2,Community 1,NA,FALSE,j,f,NA,NA,NA,1,8,"2,8,11,15,3,7,4,6,10,12,14,1,13,5,9"
14394,commdev-image-keyboard-response,407,1212861,learnblock1,986.4000000953674,img/planet11_left.png,11,Community 1,NA,TRUE,f,f,NA,NA,NA,1,8,"2,8,11,15,3,7,4,6,10,12,14,1,13,5,9"
14394,commdev-image-keyboard-response,408,1214116,learnblock1,null,img/planet2_left.png,2,Community 1,NA,FALSE,null,f,NA,NA,NA,1,8,"2,8,11,15,3,7,4,6,10,12,14,1,13,5,9"
14394,commdev-image-keyboard-response,409,1215378,learnblock1,29.799999952316284,img/planet8_left.png,8,Community 1,NA,TRUE,f,f,NA,NA,NA,1,8,"2,8,11,15,3,7,4,6,10,12,14,1,13,5,9"
14394,commdev-image-keyboard-response,410,1216642,learnblock1,538.6999998092651,img/planet15_left.png,15,Community 1,NA,TRUE,f,f,NA,NA,NA,1,8,"2,8,11,15,3,7,4,6,10,12,14,1,13,5,9"
14394,commdev-image-keyboard-response,411,1217905,learnblock1,649,img/planet11_right.png,11,Community 1,NA,TRUE,j,j,NA,NA,NA,1,8,"2,8,11,15,3,7,4,6,10,12,14,1,13,5,9"
14394,commdev-image-keyboard-response,412,1219165,learnblock1,1006.5,img/planet15_left.png,15,Community 1,NA,TRUE,f,f,NA,NA,NA,1,8,"2,8,11,15,3,7,4,6,10,12,14,1,13,5,9"
14394,commdev-image-keyboard-response,413,1220419,learnblock1,1068.9000000953674,img/planet7_left.png,7,Community 2,NA,TRUE,f,f,NA,NA,NA,1,8,"2,8,11,15,3,7,4,6,10,12,14,1,13,5,9"
14394,commdev-image-keyboard-response,414,1221678,learnblock1,880.7999999523163,img/planet12_left.png,12,Community 2,NA,TRUE,f,f,NA,NA,NA,1,8,"2,8,11,15,3,7,4,6,10,12,14,1,13,5,9"
14394,commdev-image-keyboard-response,415,1222939,learnblock1,755.5999999046326,img/planet6_left.png,6,Community 2,NA,TRUE,f,f,NA,NA,NA,1,8,"2,8,11,15,3,7,4,6,10,12,14,1,13,5,9"
14394,commdev-image-keyboard-response,416,1224201,learnblock1,578.7000000476837,img/planet1_left.png,1,Community 3,NA,TRUE,f,f,NA,NA,NA,1,8,"2,8,11,15,3,7,4,6,10,12,14,1,13,5,9"
14394,commdev-image-keyboard-response,417,1225460,learnblock1,818.0999999046326,img/planet6_left.png,6,Community 2,NA,TRUE,f,f,NA,NA,NA,1,8,"2,8,11,15,3,7,4,6,10,12,14,1,13,5,9"
14394,commdev-image-keyboard-response,418,1226713,learnblock1,630.6999998092651,img/planet12_right.png,12,Community 2,NA,TRUE,j,j,NA,NA,NA,1,8,"2,8,11,15,3,7,4,6,10,12,14,1,13,5,9"
14394,commdev-image-keyboard-response,419,1227981,learnblock1,null,img/planet6_right.png,6,Community 2,NA,FALSE,null,j,NA,NA,NA,1,8,"2,8,11,15,3,7,4,6,10,12,14,1,13,5,9"
14394,commdev-image-keyboard-response,420,1229241,learnblock1,770.8000001907349,img/planet4_left.png,4,Community 2,NA,TRUE,f,f,NA,NA,NA,1,8,"2,8,11,15,3,7,4,6,10,12,14,1,13,5,9"
14394,commdev-image-keyboard-response,421,1230494,learnblock1,754.3999998569489,img/planet10_right.png,10,Community 2,NA,FALSE,f,j,NA,NA,NA,1,8,"2,8,11,15,3,7,4,6,10,12,14,1,13,5,9"
14394,commdev-image-keyboard-response,422,1231751,learnblock1,null,img/planet4_left.png,4,Community 2,NA,FALSE,null,f,NA,NA,NA,1,8,"2,8,11,15,3,7,4,6,10,12,14,1,13,5,9"
14394,commdev-image-keyboard-response,423,1233007,learnblock1,1061.2000000476837,img/planet6_left.png,6,Community 2,NA,TRUE,f,f,NA,NA,NA,1,8,"2,8,11,15,3,7,4,6,10,12,14,1,13,5,9"
14394,commdev-image-keyboard-response,424,1234260,learnblock1,761.7000000476837,img/planet12_right.png,12,Community 2,NA,TRUE,j,j,NA,NA,NA,1,8,"2,8,11,15,3,7,4,6,10,12,14,1,13,5,9"
14394,commdev-image-keyboard-response,425,1235517,learnblock1,905.4000000953674,img/planet10_right.png,10,Community 2,NA,TRUE,j,j,NA,NA,NA,1,8,"2,8,11,15,3,7,4,6,10,12,14,1,13,5,9"
14394,commdev-image-keyboard-response,426,1236772,learnblock1,642.2000000476837,img/planet6_left.png,6,Community 2,NA,TRUE,f,f,NA,NA,NA,1,8,"2,8,11,15,3,7,4,6,10,12,14,1,13,5,9"
14394,commdev-image-keyboard-response,427,1238031,learnblock1,578,img/planet10_left.png,10,Community 2,NA,TRUE,f,f,NA,NA,NA,1,8,"2,8,11,15,3,7,4,6,10,12,14,1,13,5,9"
14394,commdev-image-keyboard-response,428,1239291,learnblock1,123.09999990463257,img/planet4_left.png,4,Community 2,NA,TRUE,f,f,NA,NA,NA,1,8,"2,8,11,15,3,7,4,6,10,12,14,1,13,5,9"
14394,commdev-image-keyboard-response,429,1240547,learnblock1,931.7000000476837,img/planet7_right.png,7,Community 2,NA,TRUE,j,j,NA,NA,NA,1,8,"2,8,11,15,3,7,4,6,10,12,14,1,13,5,9"
14394,commdev-image-keyboard-response,430,1241801,learnblock1,935,img/planet12_right.png,12,Community 2,NA,TRUE,j,j,NA,NA,NA,1,8,"2,8,11,15,3,7,4,6,10,12,14,1,13,5,9"
14394,commdev-image-keyboard-response,431,1243061,learnblock1,null,img/planet6_right.png,6,Community 2,NA,FALSE,null,j,NA,NA,NA,1,8,"2,8,11,15,3,7,4,6,10,12,14,1,13,5,9"
14394,commdev-image-keyboard-response,432,1244321,learnblock1,980.7999999523163,img/planet12_right.png,12,Community 2,NA,TRUE,j,j,NA,NA,NA,1,8,"2,8,11,15,3,7,4,6,10,12,14,1,13,5,9"
14394,commdev-image-keyboard-response,433,1245579,learnblock1,null,img/planet10_right.png,10,Community 2,NA,FALSE,null,j,NA,NA,NA,1,8,"2,8,11,15,3,7,4,6,10,12,14,1,13,5,9"
14394,commdev-image-keyboard-response,434,1246840,learnblock1,231.59999990463257,img/planet7_left.png,7,Community 2,NA,FALSE,j,f,NA,NA,NA,1,8,"2,8,11,15,3,7,4,6,10,12,14,1,13,5,9"
14394,commdev-image-keyboard-response,435,1248099,learnblock1,746.8999998569489,img/planet15_right.png,15,Community 1,NA,FALSE,f,j,NA,NA,NA,1,8,"2,8,11,15,3,7,4,6,10,12,14,1,13,5,9"
14394,commdev-image-keyboard-response,436,1249354,learnblock1,1090.2000000476837,img/planet8_left.png,8,Community 1,NA,TRUE,f,f,NA,NA,NA,1,8,"2,8,11,15,3,7,4,6,10,12,14,1,13,5,9"
14394,commdev-image-keyboard-response,437,1250606,learnblock1,714.7000000476837,img/planet11_left.png,11,Community 1,NA,TRUE,f,f,NA,NA,NA,1,8,"2,8,11,15,3,7,4,6,10,12,14,1,13,5,9"
14394,commdev-image-keyboard-response,438,1251868,learnblock1,667.1000001430511,img/planet15_right.png,15,Community 1,NA,TRUE,j,j,NA,NA,NA,1,8,"2,8,11,15,3,7,4,6,10,12,14,1,13,5,9"
14394,commdev-image-keyboard-response,439,1253122,learnblock1,1210.0999999046326,img/planet11_right.png,11,Community 1,NA,TRUE,j,j,NA,NA,NA,1,8,"2,8,11,15,3,7,4,6,10,12,14,1,13,5,9"
14394,commdev-image-keyboard-response,440,1254383,learnblock1,687.2000000476837,img/planet2_left.png,2,Community 1,NA,TRUE,f,f,NA,NA,NA,1,8,"2,8,11,15,3,7,4,6,10,12,14,1,13,5,9"
14394,commdev-image-keyboard-response,441,1255636,learnblock1,787,img/planet15_right.png,15,Community 1,NA,TRUE,j,j,NA,NA,NA,1,8,"2,8,11,15,3,7,4,6,10,12,14,1,13,5,9"
14394,commdev-image-keyboard-response,442,1256899,learnblock1,614.5999999046326,img/planet2_right.png,2,Community 1,NA,TRUE,j,j,NA,NA,NA,1,8,"2,8,11,15,3,7,4,6,10,12,14,1,13,5,9"
14394,commdev-image-keyboard-response,443,1258162,learnblock1,636.6000001430511,img/planet3_right.png,3,Community 1,NA,TRUE,j,j,NA,NA,NA,1,8,"2,8,11,15,3,7,4,6,10,12,14,1,13,5,9"
14394,commdev-image-keyboard-response,444,1259426,learnblock1,546.8999998569489,img/planet14_left.png,14,Community 3,NA,FALSE,j,f,NA,NA,NA,1,8,"2,8,11,15,3,7,4,6,10,12,14,1,13,5,9"
14394,commdev-image-keyboard-response,445,1260681,learnblock1,619.5999999046326,img/planet5_right.png,5,Community 3,NA,TRUE,j,j,NA,NA,NA,1,8,"2,8,11,15,3,7,4,6,10,12,14,1,13,5,9"
14394,commdev-image-keyboard-response,446,1261938,learnblock1,756.7000000476837,img/planet14_right.png,14,Community 3,NA,TRUE,j,j,NA,NA,NA,1,8,"2,8,11,15,3,7,4,6,10,12,14,1,13,5,9"
14394,commdev-image-keyboard-response,447,1263197,learnblock1,835.5,img/planet3_right.png,3,Community 1,NA,TRUE,j,j,NA,NA,NA,1,8,"2,8,11,15,3,7,4,6,10,12,14,1,13,5,9"
14394,commdev-image-keyboard-response,448,1264457,learnblock1,624.9000000953674,img/planet11_left.png,11,Community 1,NA,TRUE,f,f,NA,NA,NA,1,8,"2,8,11,15,3,7,4,6,10,12,14,1,13,5,9"
14394,commdev-image-keyboard-response,449,1265719,learnblock1,770.5999999046326,img/planet8_left.png,8,Community 1,NA,TRUE,f,f,NA,NA,NA,1,8,"2,8,11,15,3,7,4,6,10,12,14,1,13,5,9"
14394,commdev-image-keyboard-response,450,1266989,learnblock1,712.6000001430511,img/planet3_left.png,3,Community 1,NA,TRUE,f,f,NA,NA,NA,1,8,"2,8,11,15,3,7,4,6,10,12,14,1,13,5,9"
14394,commdev-image-keyboard-response,451,1268254,learnblock1,743,img/planet8_right.png,8,Community 1,NA,TRUE,j,j,NA,NA,NA,1,8,"2,8,11,15,3,7,4,6,10,12,14,1,13,5,9"
14394,commdev-image-keyboard-response,452,1269509,learnblock1,701.2000000476837,img/planet3_right.png,3,Community 1,NA,TRUE,j,j,NA,NA,NA,1,8,"2,8,11,15,3,7,4,6,10,12,14,1,13,5,9"
14394,commdev-image-keyboard-response,453,1270771,learnblock1,764.5,img/planet8_left.png,8,Community 1,NA,TRUE,f,f,NA,NA,NA,1,8,"2,8,11,15,3,7,4,6,10,12,14,1,13,5,9"
14394,commdev-image-keyboard-response,454,1272025,learnblock1,633.1999998092651,img/planet2_right.png,2,Community 1,NA,TRUE,j,j,NA,NA,NA,1,8,"2,8,11,15,3,7,4,6,10,12,14,1,13,5,9"
14394,commdev-image-keyboard-response,455,1273293,learnblock1,691.7000000476837,img/planet11_right.png,11,Community 1,NA,TRUE,j,j,NA,NA,NA,1,8,"2,8,11,15,3,7,4,6,10,12,14,1,13,5,9"
14394,commdev-image-keyboard-response,456,1274554,learnblock1,628.9000000953674,img/planet15_left.png,15,Community 1,NA,TRUE,f,f,NA,NA,NA,1,8,"2,8,11,15,3,7,4,6,10,12,14,1,13,5,9"
14394,commdev-image-keyboard-response,457,1275815,learnblock1,902.7000000476837,img/planet11_left.png,11,Community 1,NA,FALSE,j,f,NA,NA,NA,1,8,"2,8,11,15,3,7,4,6,10,12,14,1,13,5,9"
14394,commdev-image-keyboard-response,458,1277074,learnblock1,670.2000000476837,img/planet3_right.png,3,Community 1,NA,TRUE,j,j,NA,NA,NA,1,8,"2,8,11,15,3,7,4,6,10,12,14,1,13,5,9"
14394,commdev-image-keyboard-response,459,1278344,learnblock1,575.5,img/planet11_left.png,11,Community 1,NA,TRUE,f,f,NA,NA,NA,1,8,"2,8,11,15,3,7,4,6,10,12,14,1,13,5,9"
14394,commdev-image-keyboard-response,460,1279598,learnblock1,633.2000000476837,img/planet15_left.png,15,Community 1,NA,TRUE,f,f,NA,NA,NA,1,8,"2,8,11,15,3,7,4,6,10,12,14,1,13,5,9"
14394,commdev-image-keyboard-response,461,1280854,learnblock1,631.2000000476837,img/planet2_left.png,2,Community 1,NA,TRUE,f,f,NA,NA,NA,1,8,"2,8,11,15,3,7,4,6,10,12,14,1,13,5,9"
14394,commdev-image-keyboard-response,462,1282122,learnblock1,670.2999999523163,img/planet8_left.png,8,Community 1,NA,TRUE,f,f,NA,NA,NA,1,8,"2,8,11,15,3,7,4,6,10,12,14,1,13,5,9"
14394,commdev-image-keyboard-response,463,1283382,learnblock1,557.5,img/planet2_right.png,2,Community 1,NA,TRUE,j,j,NA,NA,NA,1,8,"2,8,11,15,3,7,4,6,10,12,14,1,13,5,9"
14394,commdev-image-keyboard-response,464,1284650,learnblock1,null,img/planet8_right.png,8,Community 1,NA,FALSE,null,j,NA,NA,NA,1,8,"2,8,11,15,3,7,4,6,10,12,14,1,13,5,9"
14394,commdev-image-keyboard-response,465,1285907,learnblock1,null,img/planet2_right.png,2,Community 1,NA,FALSE,null,j,NA,NA,NA,1,8,"2,8,11,15,3,7,4,6,10,12,14,1,13,5,9"
14394,commdev-image-keyboard-response,466,1287170,learnblock1,null,img/planet11_right.png,11,Community 1,NA,FALSE,null,j,NA,NA,NA,1,8,"2,8,11,15,3,7,4,6,10,12,14,1,13,5,9"
14394,commdev-image-keyboard-response,467,1288429,learnblock1,null,img/planet8_right.png,8,Community 1,NA,FALSE,null,j,NA,NA,NA,1,8,"2,8,11,15,3,7,4,6,10,12,14,1,13,5,9"
14394,commdev-image-keyboard-response,468,1289690,learnblock1,1194.0999999046326,img/planet3_left.png,3,Community 1,NA,TRUE,f,f,NA,NA,NA,1,8,"2,8,11,15,3,7,4,6,10,12,14,1,13,5,9"
14394,commdev-image-keyboard-response,469,1290952,learnblock1,643.7999999523163,img/planet8_left.png,8,Community 1,NA,TRUE,f,f,NA,NA,NA,1,8,"2,8,11,15,3,7,4,6,10,12,14,1,13,5,9"
14394,commdev-image-keyboard-response,470,1292220,learnblock1,null,img/planet2_right.png,2,Community 1,NA,FALSE,null,j,NA,NA,NA,1,8,"2,8,11,15,3,7,4,6,10,12,14,1,13,5,9"
14394,commdev-image-keyboard-response,471,1293476,learnblock1,0.20000004768371582,img/planet15_right.png,15,Community 1,NA,TRUE,j,j,NA,NA,NA,1,8,"2,8,11,15,3,7,4,6,10,12,14,1,13,5,9"
14394,commdev-image-keyboard-response,472,1294735,learnblock1,600.6000001430511,img/planet11_right.png,11,Community 1,NA,TRUE,j,j,NA,NA,NA,1,8,"2,8,11,15,3,7,4,6,10,12,14,1,13,5,9"
14394,commdev-image-keyboard-response,473,1295987,learnblock1,603.4000000953674,img/planet2_left.png,2,Community 1,NA,TRUE,f,f,NA,NA,NA,1,8,"2,8,11,15,3,7,4,6,10,12,14,1,13,5,9"
14394,commdev-image-keyboard-response,474,1297243,learnblock1,557.7999999523163,img/planet8_left.png,8,Community 1,NA,TRUE,f,f,NA,NA,NA,1,8,"2,8,11,15,3,7,4,6,10,12,14,1,13,5,9"
14394,commdev-image-keyboard-response,475,1298502,learnblock1,787.5999999046326,img/planet2_left.png,2,Community 1,NA,TRUE,f,f,NA,NA,NA,1,8,"2,8,11,15,3,7,4,6,10,12,14,1,13,5,9"
14394,commdev-image-keyboard-response,476,1299767,learnblock1,670.5,img/planet11_right.png,11,Community 1,NA,TRUE,j,j,NA,NA,NA,1,8,"2,8,11,15,3,7,4,6,10,12,14,1,13,5,9"
14394,commdev-image-keyboard-response,477,1301030,learnblock1,647.5,img/planet8_left.png,8,Community 1,NA,TRUE,f,f,NA,NA,NA,1,8,"2,8,11,15,3,7,4,6,10,12,14,1,13,5,9"
14394,commdev-image-keyboard-response,478,1302284,learnblock1,927.2000000476837,img/planet11_right.png,11,Community 1,NA,TRUE,j,j,NA,NA,NA,1,8,"2,8,11,15,3,7,4,6,10,12,14,1,13,5,9"
14394,commdev-image-keyboard-response,479,1303544,learnblock1,637.4000000953674,img/planet8_left.png,8,Community 1,NA,TRUE,f,f,NA,NA,NA,1,8,"2,8,11,15,3,7,4,6,10,12,14,1,13,5,9"
14394,commdev-image-keyboard-response,480,1304799,learnblock1,581.5999999046326,img/planet15_left.png,15,Community 1,NA,TRUE,f,f,NA,NA,NA,1,8,"2,8,11,15,3,7,4,6,10,12,14,1,13,5,9"
14394,commdev-image-keyboard-response,481,1306055,learnblock1,771.7999999523163,img/planet7_left.png,7,Community 2,NA,FALSE,j,f,NA,NA,NA,1,8,"2,8,11,15,3,7,4,6,10,12,14,1,13,5,9"
14394,commdev-image-keyboard-response,482,1307314,learnblock1,764.6000001430511,img/planet4_left.png,4,Community 2,NA,TRUE,f,f,NA,NA,NA,1,8,"2,8,11,15,3,7,4,6,10,12,14,1,13,5,9"
14394,commdev-image-keyboard-response,483,1308584,learnblock1,652.7999999523163,img/planet12_right.png,12,Community 2,NA,TRUE,j,j,NA,NA,NA,1,8,"2,8,11,15,3,7,4,6,10,12,14,1,13,5,9"
14394,commdev-image-keyboard-response,484,1309846,learnblock1,976.5,img/planet10_right.png,10,Community 2,NA,TRUE,j,j,NA,NA,NA,1,8,"2,8,11,15,3,7,4,6,10,12,14,1,13,5,9"
14394,commdev-image-keyboard-response,485,1311104,learnblock1,607.2000000476837,img/planet4_left.png,4,Community 2,NA,TRUE,f,f,NA,NA,NA,1,8,"2,8,11,15,3,7,4,6,10,12,14,1,13,5,9"
14394,commdev-image-keyboard-response,486,1312363,learnblock1,810.6000001430511,img/planet12_right.png,12,Community 2,NA,FALSE,f,j,NA,NA,NA,1,8,"2,8,11,15,3,7,4,6,10,12,14,1,13,5,9"
14394,commdev-image-keyboard-response,487,1313616,learnblock1,581.5,img/planet10_right.png,10,Community 2,NA,TRUE,j,j,NA,NA,NA,1,8,"2,8,11,15,3,7,4,6,10,12,14,1,13,5,9"
14394,commdev-image-keyboard-response,488,1314872,learnblock1,547.2999999523163,img/planet4_left.png,4,Community 2,NA,TRUE,f,f,NA,NA,NA,1,8,"2,8,11,15,3,7,4,6,10,12,14,1,13,5,9"
14394,commdev-image-keyboard-response,489,1316125,learnblock1,null,img/planet6_right.png,6,Community 2,NA,FALSE,null,j,NA,NA,NA,1,8,"2,8,11,15,3,7,4,6,10,12,14,1,13,5,9"
14394,commdev-image-keyboard-response,490,1317387,learnblock1,null,img/planet12_right.png,12,Community 2,NA,FALSE,null,j,NA,NA,NA,1,8,"2,8,11,15,3,7,4,6,10,12,14,1,13,5,9"
14394,commdev-image-keyboard-response,491,1318649,learnblock1,571.7999999523163,img/planet7_left.png,7,Community 2,NA,TRUE,f,f,NA,NA,NA,1,8,"2,8,11,15,3,7,4,6,10,12,14,1,13,5,9"
14394,commdev-image-keyboard-response,492,1319911,learnblock1,527.4000000953674,img/planet10_left.png,10,Community 2,NA,TRUE,f,f,NA,NA,NA,1,8,"2,8,11,15,3,7,4,6,10,12,14,1,13,5,9"
14394,commdev-image-keyboard-response,493,1321174,learnblock1,1016.5999999046326,img/planet12_left.png,12,Community 2,NA,TRUE,f,f,NA,NA,NA,1,8,"2,8,11,15,3,7,4,6,10,12,14,1,13,5,9"
14394,commdev-image-keyboard-response,494,1322426,learnblock1,744.7999999523163,img/planet6_right.png,6,Community 2,NA,TRUE,j,j,NA,NA,NA,1,8,"2,8,11,15,3,7,4,6,10,12,14,1,13,5,9"
14394,commdev-image-keyboard-response,495,1323683,learnblock1,768.8999998569489,img/planet4_right.png,4,Community 2,NA,TRUE,j,j,NA,NA,NA,1,8,"2,8,11,15,3,7,4,6,10,12,14,1,13,5,9"
14394,commdev-image-keyboard-response,496,1324938,learnblock1,836.4000000953674,img/planet7_left.png,7,Community 2,NA,TRUE,f,f,NA,NA,NA,1,8,"2,8,11,15,3,7,4,6,10,12,14,1,13,5,9"
14394,commdev-image-keyboard-response,497,1326208,learnblock1,630.6999998092651,img/planet12_right.png,12,Community 2,NA,TRUE,j,j,NA,NA,NA,1,8,"2,8,11,15,3,7,4,6,10,12,14,1,13,5,9"
14394,commdev-image-keyboard-response,498,1327470,learnblock1,750.6000001430511,img/planet4_right.png,4,Community 2,NA,TRUE,j,j,NA,NA,NA,1,8,"2,8,11,15,3,7,4,6,10,12,14,1,13,5,9"
14394,commdev-image-keyboard-response,499,1328724,learnblock1,693.5,img/planet10_left.png,10,Community 2,NA,TRUE,f,f,NA,NA,NA,1,8,"2,8,11,15,3,7,4,6,10,12,14,1,13,5,9"
14394,commdev-image-keyboard-response,500,1329982,learnblock1,840.1999998092651,img/planet4_right.png,4,Community 2,NA,FALSE,f,j,NA,NA,NA,1,8,"2,8,11,15,3,7,4,6,10,12,14,1,13,5,9"
14394,commdev-image-keyboard-response,501,1331245,learnblock1,587.6999998092651,img/planet10_left.png,10,Community 2,NA,TRUE,f,f,NA,NA,NA,1,8,"2,8,11,15,3,7,4,6,10,12,14,1,13,5,9"
14394,commdev-image-keyboard-response,505,1392274,learnblock2,1082,img/planet10_right.png,10,Community 2,NA,TRUE,j,j,NA,NA,NA,1,8,"2,8,11,15,3,7,4,6,10,12,14,1,13,5,9"
14394,commdev-image-keyboard-response,506,1393535,learnblock2,630.7000000476837,img/planet6_right.png,6,Community 2,NA,TRUE,j,j,NA,NA,NA,1,8,"2,8,11,15,3,7,4,6,10,12,14,1,13,5,9"
14394,commdev-image-keyboard-response,507,1394796,learnblock2,627.1000001430511,img/planet1_left.png,1,Community 3,NA,TRUE,f,f,NA,NA,NA,1,8,"2,8,11,15,3,7,4,6,10,12,14,1,13,5,9"
14394,commdev-image-keyboard-response,508,1396053,learnblock2,595.4000000953674,img/planet13_right.png,13,Community 3,NA,TRUE,j,j,NA,NA,NA,1,8,"2,8,11,15,3,7,4,6,10,12,14,1,13,5,9"
14394,commdev-image-keyboard-response,509,1397312,learnblock2,584.4000000953674,img/planet9_left.png,9,Community 3,NA,TRUE,f,f,NA,NA,NA,1,8,"2,8,11,15,3,7,4,6,10,12,14,1,13,5,9"
14394,commdev-image-keyboard-response,510,1398576,learnblock2,529,img/planet13_right.png,13,Community 3,NA,TRUE,j,j,NA,NA,NA,1,8,"2,8,11,15,3,7,4,6,10,12,14,1,13,5,9"
14394,commdev-image-keyboard-response,511,1399837,learnblock2,856.7000000476837,img/planet1_left.png,1,Community 3,NA,TRUE,f,f,NA,NA,NA,1,8,"2,8,11,15,3,7,4,6,10,12,14,1,13,5,9"
14394,commdev-image-keyboard-response,512,1401099,learnblock2,665.6000001430511,img/planet5_left.png,5,Community 3,NA,TRUE,f,f,NA,NA,NA,1,8,"2,8,11,15,3,7,4,6,10,12,14,1,13,5,9"
14394,commdev-image-keyboard-response,513,1402352,learnblock2,513.9000000953674,img/planet9_right.png,9,Community 3,NA,TRUE,j,j,NA,NA,NA,1,8,"2,8,11,15,3,7,4,6,10,12,14,1,13,5,9"
14394,commdev-image-keyboard-response,514,1403610,learnblock2,482.30000019073486,img/planet13_left.png,13,Community 3,NA,TRUE,f,f,NA,NA,NA,1,8,"2,8,11,15,3,7,4,6,10,12,14,1,13,5,9"
14394,commdev-image-keyboard-response,515,1404865,learnblock2,496.89999985694885,img/planet5_right.png,5,Community 3,NA,TRUE,j,j,NA,NA,NA,1,8,"2,8,11,15,3,7,4,6,10,12,14,1,13,5,9"
14394,commdev-image-keyboard-response,516,1406118,learnblock2,491.89999985694885,img/planet9_left.png,9,Community 3,NA,TRUE,f,f,NA,NA,NA,1,8,"2,8,11,15,3,7,4,6,10,12,14,1,13,5,9"
14394,commdev-image-keyboard-response,517,1407374,learnblock2,500.59999990463257,img/planet14_right.png,14,Community 3,NA,TRUE,j,j,NA,NA,NA,1,8,"2,8,11,15,3,7,4,6,10,12,14,1,13,5,9"
14394,commdev-image-keyboard-response,518,1408644,learnblock2,602.7999999523163,img/planet9_right.png,9,Community 3,NA,TRUE,j,j,NA,NA,NA,1,8,"2,8,11,15,3,7,4,6,10,12,14,1,13,5,9"
14394,commdev-image-keyboard-response,519,1409897,learnblock2,865.2000000476837,img/planet1_left.png,1,Community 3,NA,TRUE,f,f,NA,NA,NA,1,8,"2,8,11,15,3,7,4,6,10,12,14,1,13,5,9"
14394,commdev-image-keyboard-response,520,1411152,learnblock2,735.4000000953674,img/planet5_left.png,5,Community 3,NA,TRUE,f,f,NA,NA,NA,1,8,"2,8,11,15,3,7,4,6,10,12,14,1,13,5,9"
14394,commdev-image-keyboard-response,521,1412404,learnblock2,552.1000001430511,img/planet14_right.png,14,Community 3,NA,TRUE,j,j,NA,NA,NA,1,8,"2,8,11,15,3,7,4,6,10,12,14,1,13,5,9"
14394,commdev-image-keyboard-response,522,1413660,learnblock2,680.3999998569489,img/planet5_right.png,5,Community 3,NA,TRUE,j,j,NA,NA,NA,1,8,"2,8,11,15,3,7,4,6,10,12,14,1,13,5,9"
14394,commdev-image-keyboard-response,523,1414917,learnblock2,549,img/planet9_right.png,9,Community 3,NA,TRUE,j,j,NA,NA,NA,1,8,"2,8,11,15,3,7,4,6,10,12,14,1,13,5,9"
14394,commdev-image-keyboard-response,524,1416180,learnblock2,553.7000000476837,img/planet1_right.png,1,Community 3,NA,TRUE,j,j,NA,NA,NA,1,8,"2,8,11,15,3,7,4,6,10,12,14,1,13,5,9"
14394,commdev-image-keyboard-response,525,1417439,learnblock2,671.5,img/planet6_right.png,6,Community 2,NA,TRUE,j,j,NA,NA,NA,1,8,"2,8,11,15,3,7,4,6,10,12,14,1,13,5,9"
14394,commdev-image-keyboard-response,526,1418699,learnblock2,470.09999990463257,img/planet10_left.png,10,Community 2,NA,TRUE,f,f,NA,NA,NA,1,8,"2,8,11,15,3,7,4,6,10,12,14,1,13,5,9"
14394,commdev-image-keyboard-response,527,1419957,learnblock2,702,img/planet12_right.png,12,Community 2,NA,TRUE,j,j,NA,NA,NA,1,8,"2,8,11,15,3,7,4,6,10,12,14,1,13,5,9"
14394,commdev-image-keyboard-response,528,1421217,learnblock2,666.7999999523163,img/planet6_right.png,6,Community 2,NA,TRUE,j,j,NA,NA,NA,1,8,"2,8,11,15,3,7,4,6,10,12,14,1,13,5,9"
14394,commdev-image-keyboard-response,529,1422470,learnblock2,524,img/planet1_right.png,1,Community 3,NA,TRUE,j,j,NA,NA,NA,1,8,"2,8,11,15,3,7,4,6,10,12,14,1,13,5,9"
14394,commdev-image-keyboard-response,530,1423738,learnblock2,532,img/planet5_right.png,5,Community 3,NA,TRUE,j,j,NA,NA,NA,1,8,"2,8,11,15,3,7,4,6,10,12,14,1,13,5,9"
14394,commdev-image-keyboard-response,531,1424994,learnblock2,638.6000001430511,img/planet13_right.png,13,Community 3,NA,TRUE,j,j,NA,NA,NA,1,8,"2,8,11,15,3,7,4,6,10,12,14,1,13,5,9"
14394,commdev-image-keyboard-response,532,1426254,learnblock2,653,img/planet9_left.png,9,Community 3,NA,TRUE,f,f,NA,NA,NA,1,8,"2,8,11,15,3,7,4,6,10,12,14,1,13,5,9"
14394,commdev-image-keyboard-response,533,1427524,learnblock2,540,img/planet1_right.png,1,Community 3,NA,TRUE,j,j,NA,NA,NA,1,8,"2,8,11,15,3,7,4,6,10,12,14,1,13,5,9"
14394,commdev-image-keyboard-response,534,1428790,learnblock2,670.5999999046326,img/planet9_right.png,9,Community 3,NA,TRUE,j,j,NA,NA,NA,1,8,"2,8,11,15,3,7,4,6,10,12,14,1,13,5,9"
14394,commdev-image-keyboard-response,535,1430051,learnblock2,491.5,img/planet1_left.png,1,Community 3,NA,FALSE,j,f,NA,NA,NA,1,8,"2,8,11,15,3,7,4,6,10,12,14,1,13,5,9"
14394,commdev-image-keyboard-response,536,1431307,learnblock2,690.2000000476837,img/planet6_right.png,6,Community 2,NA,TRUE,j,j,NA,NA,NA,1,8,"2,8,11,15,3,7,4,6,10,12,14,1,13,5,9"
14394,commdev-image-keyboard-response,537,1432567,learnblock2,737.5,img/planet10_right.png,10,Community 2,NA,TRUE,j,j,NA,NA,NA,1,8,"2,8,11,15,3,7,4,6,10,12,14,1,13,5,9"
14394,commdev-image-keyboard-response,538,1433829,learnblock2,711.5,img/planet4_right.png,4,Community 2,NA,TRUE,j,j,NA,NA,NA,1,8,"2,8,11,15,3,7,4,6,10,12,14,1,13,5,9"
14394,commdev-image-keyboard-response,539,1435091,learnblock2,624.3999998569489,img/planet6_right.png,6,Community 2,NA,TRUE,j,j,NA,NA,NA,1,8,"2,8,11,15,3,7,4,6,10,12,14,1,13,5,9"
14394,commdev-image-keyboard-response,540,1436355,learnblock2,657,img/planet12_left.png,12,Community 2,NA,TRUE,f,f,NA,NA,NA,1,8,"2,8,11,15,3,7,4,6,10,12,14,1,13,5,9"
14394,commdev-image-keyboard-response,541,1437610,learnblock2,849.4000000953674,img/planet7_left.png,7,Community 2,NA,TRUE,f,f,NA,NA,NA,1,8,"2,8,11,15,3,7,4,6,10,12,14,1,13,5,9"
14394,commdev-image-keyboard-response,542,1438869,learnblock2,770.5999999046326,img/planet12_right.png,12,Community 2,NA,TRUE,j,j,NA,NA,NA,1,8,"2,8,11,15,3,7,4,6,10,12,14,1,13,5,9"
14394,commdev-image-keyboard-response,543,1440129,learnblock2,625.1999998092651,img/planet7_left.png,7,Community 2,NA,TRUE,f,f,NA,NA,NA,1,8,"2,8,11,15,3,7,4,6,10,12,14,1,13,5,9"
14394,commdev-image-keyboard-response,544,1441395,learnblock2,881.8999998569489,img/planet12_left.png,12,Community 2,NA,TRUE,f,f,NA,NA,NA,1,8,"2,8,11,15,3,7,4,6,10,12,14,1,13,5,9"
14394,commdev-image-keyboard-response,545,1442651,learnblock2,885.7999999523163,img/planet6_left.png,6,Community 2,NA,TRUE,f,f,NA,NA,NA,1,8,"2,8,11,15,3,7,4,6,10,12,14,1,13,5,9"
14394,commdev-image-keyboard-response,546,1443907,learnblock2,754.2000000476837,img/planet12_left.png,12,Community 2,NA,TRUE,f,f,NA,NA,NA,1,8,"2,8,11,15,3,7,4,6,10,12,14,1,13,5,9"
14394,commdev-image-keyboard-response,547,1445167,learnblock2,672.3000001907349,img/planet7_right.png,7,Community 2,NA,TRUE,j,j,NA,NA,NA,1,8,"2,8,11,15,3,7,4,6,10,12,14,1,13,5,9"
14394,commdev-image-keyboard-response,548,1446420,learnblock2,585.2999999523163,img/planet10_right.png,10,Community 2,NA,TRUE,j,j,NA,NA,NA,1,8,"2,8,11,15,3,7,4,6,10,12,14,1,13,5,9"
14394,commdev-image-keyboard-response,549,1447681,learnblock2,593.7999999523163,img/planet4_left.png,4,Community 2,NA,TRUE,f,f,NA,NA,NA,1,8,"2,8,11,15,3,7,4,6,10,12,14,1,13,5,9"
14394,commdev-image-keyboard-response,550,1448938,learnblock2,510,img/planet12_right.png,12,Community 2,NA,TRUE,j,j,NA,NA,NA,1,8,"2,8,11,15,3,7,4,6,10,12,14,1,13,5,9"
14394,commdev-image-keyboard-response,551,1450196,learnblock2,595.5,img/planet7_left.png,7,Community 2,NA,TRUE,f,f,NA,NA,NA,1,8,"2,8,11,15,3,7,4,6,10,12,14,1,13,5,9"
14394,commdev-image-keyboard-response,552,1451453,learnblock2,582.2000000476837,img/planet10_left.png,10,Community 2,NA,TRUE,f,f,NA,NA,NA,1,8,"2,8,11,15,3,7,4,6,10,12,14,1,13,5,9"
14394,commdev-image-keyboard-response,553,1452718,learnblock2,521.9000000953674,img/planet6_right.png,6,Community 2,NA,TRUE,j,j,NA,NA,NA,1,8,"2,8,11,15,3,7,4,6,10,12,14,1,13,5,9"
14394,commdev-image-keyboard-response,554,1453970,learnblock2,630.5999999046326,img/planet1_right.png,1,Community 3,NA,TRUE,j,j,NA,NA,NA,1,8,"2,8,11,15,3,7,4,6,10,12,14,1,13,5,9"
14394,commdev-image-keyboard-response,555,1455227,learnblock2,894,img/planet5_left.png,5,Community 3,NA,TRUE,f,f,NA,NA,NA,1,8,"2,8,11,15,3,7,4,6,10,12,14,1,13,5,9"
14394,commdev-image-keyboard-response,556,1456490,learnblock2,574.9000000953674,img/planet13_right.png,13,Community 3,NA,TRUE,j,j,NA,NA,NA,1,8,"2,8,11,15,3,7,4,6,10,12,14,1,13,5,9"
14394,commdev-image-keyboard-response,557,1457751,learnblock2,703.9000000953674,img/planet9_right.png,9,Community 3,NA,TRUE,j,j,NA,NA,NA,1,8,"2,8,11,15,3,7,4,6,10,12,14,1,13,5,9"
14394,commdev-image-keyboard-response,558,1459013,learnblock2,753.5,img/planet1_left.png,1,Community 3,NA,TRUE,f,f,NA,NA,NA,1,8,"2,8,11,15,3,7,4,6,10,12,14,1,13,5,9"
14394,commdev-image-keyboard-response,559,1460283,learnblock2,719.2000000476837,img/planet6_left.png,6,Community 2,NA,TRUE,f,f,NA,NA,NA,1,8,"2,8,11,15,3,7,4,6,10,12,14,1,13,5,9"
14394,commdev-image-keyboard-response,560,1461541,learnblock2,673.9000000953674,img/planet4_left.png,4,Community 2,NA,TRUE,f,f,NA,NA,NA,1,8,"2,8,11,15,3,7,4,6,10,12,14,1,13,5,9"
14394,commdev-image-keyboard-response,561,1462803,learnblock2,568.4000000953674,img/planet10_left.png,10,Community 2,NA,TRUE,f,f,NA,NA,NA,1,8,"2,8,11,15,3,7,4,6,10,12,14,1,13,5,9"
14394,commdev-image-keyboard-response,562,1464060,learnblock2,581.0999999046326,img/planet6_right.png,6,Community 2,NA,TRUE,j,j,NA,NA,NA,1,8,"2,8,11,15,3,7,4,6,10,12,14,1,13,5,9"
14394,commdev-image-keyboard-response,563,1465316,learnblock2,664.2000000476837,img/planet10_right.png,10,Community 2,NA,TRUE,j,j,NA,NA,NA,1,8,"2,8,11,15,3,7,4,6,10,12,14,1,13,5,9"
14394,commdev-image-keyboard-response,564,1466574,learnblock2,637.1000001430511,img/planet4_right.png,4,Community 2,NA,TRUE,j,j,NA,NA,NA,1,8,"2,8,11,15,3,7,4,6,10,12,14,1,13,5,9"
14394,commdev-image-keyboard-response,565,1467831,learnblock2,607.6000001430511,img/planet10_left.png,10,Community 2,NA,TRUE,f,f,NA,NA,NA,1,8,"2,8,11,15,3,7,4,6,10,12,14,1,13,5,9"
14394,commdev-image-keyboard-response,566,1469094,learnblock2,625.6000001430511,img/planet7_right.png,7,Community 2,NA,TRUE,j,j,NA,NA,NA,1,8,"2,8,11,15,3,7,4,6,10,12,14,1,13,5,9"
14394,commdev-image-keyboard-response,567,1470356,learnblock2,547.5999999046326,img/planet12_right.png,12,Community 2,NA,TRUE,j,j,NA,NA,NA,1,8,"2,8,11,15,3,7,4,6,10,12,14,1,13,5,9"
14394,commdev-image-keyboard-response,568,1471615,learnblock2,553.5,img/planet6_left.png,6,Community 2,NA,TRUE,f,f,NA,NA,NA,1,8,"2,8,11,15,3,7,4,6,10,12,14,1,13,5,9"
14394,commdev-image-keyboard-response,569,1472869,learnblock2,501.2000000476837,img/planet10_right.png,10,Community 2,NA,TRUE,j,j,NA,NA,NA,1,8,"2,8,11,15,3,7,4,6,10,12,14,1,13,5,9"
14394,commdev-image-keyboard-response,570,1474139,learnblock2,473.2999999523163,img/planet4_left.png,4,Community 2,NA,TRUE,f,f,NA,NA,NA,1,8,"2,8,11,15,3,7,4,6,10,12,14,1,13,5,9"
14394,commdev-image-keyboard-response,571,1475405,learnblock2,637.5999999046326,img/planet7_left.png,7,Community 2,NA,TRUE,f,f,NA,NA,NA,1,8,"2,8,11,15,3,7,4,6,10,12,14,1,13,5,9"
14394,commdev-image-keyboard-response,572,1476665,learnblock2,520.2999999523163,img/planet10_left.png,10,Community 2,NA,TRUE,f,f,NA,NA,NA,1,8,"2,8,11,15,3,7,4,6,10,12,14,1,13,5,9"
14394,commdev-image-keyboard-response,573,1477919,learnblock2,563,img/planet6_left.png,6,Community 2,NA,TRUE,f,f,NA,NA,NA,1,8,"2,8,11,15,3,7,4,6,10,12,14,1,13,5,9"
14394,commdev-image-keyboard-response,574,1479178,learnblock2,554.9000000953674,img/planet1_left.png,1,Community 3,NA,TRUE,f,f,NA,NA,NA,1,8,"2,8,11,15,3,7,4,6,10,12,14,1,13,5,9"
14394,commdev-image-keyboard-response,575,1480437,learnblock2,564.7999999523163,img/planet5_right.png,5,Community 3,NA,TRUE,j,j,NA,NA,NA,1,8,"2,8,11,15,3,7,4,6,10,12,14,1,13,5,9"
14394,commdev-image-keyboard-response,576,1481697,learnblock2,481,img/planet1_left.png,1,Community 3,NA,TRUE,f,f,NA,NA,NA,1,8,"2,8,11,15,3,7,4,6,10,12,14,1,13,5,9"
14394,commdev-image-keyboard-response,577,1482951,learnblock2,907.6000001430511,img/planet6_left.png,6,Community 2,NA,TRUE,f,f,NA,NA,NA,1,8,"2,8,11,15,3,7,4,6,10,12,14,1,13,5,9"
14394,commdev-image-keyboard-response,578,1484210,learnblock2,833.3999998569489,img/planet4_right.png,4,Community 2,NA,TRUE,j,j,NA,NA,NA,1,8,"2,8,11,15,3,7,4,6,10,12,14,1,13,5,9"
14394,commdev-image-keyboard-response,579,1485472,learnblock2,675.5,img/planet6_right.png,6,Community 2,NA,TRUE,j,j,NA,NA,NA,1,8,"2,8,11,15,3,7,4,6,10,12,14,1,13,5,9"
14394,commdev-image-keyboard-response,580,1486726,learnblock2,600.4000000953674,img/planet12_left.png,12,Community 2,NA,TRUE,f,f,NA,NA,NA,1,8,"2,8,11,15,3,7,4,6,10,12,14,1,13,5,9"
14394,commdev-image-keyboard-response,581,1487983,learnblock2,599.5999999046326,img/planet6_left.png,6,Community 2,NA,TRUE,f,f,NA,NA,NA,1,8,"2,8,11,15,3,7,4,6,10,12,14,1,13,5,9"
14394,commdev-image-keyboard-response,582,1489243,learnblock2,520.4000000953674,img/planet1_left.png,1,Community 3,NA,TRUE,f,f,NA,NA,NA,1,8,"2,8,11,15,3,7,4,6,10,12,14,1,13,5,9"
14394,commdev-image-keyboard-response,583,1490504,learnblock2,657.7000000476837,img/planet5_right.png,5,Community 3,NA,TRUE,j,j,NA,NA,NA,1,8,"2,8,11,15,3,7,4,6,10,12,14,1,13,5,9"
14394,commdev-image-keyboard-response,584,1491759,learnblock2,715.5,img/planet9_left.png,9,Community 3,NA,TRUE,f,f,NA,NA,NA,1,8,"2,8,11,15,3,7,4,6,10,12,14,1,13,5,9"
14394,commdev-image-keyboard-response,585,1493017,learnblock2,686.2999999523163,img/planet13_right.png,13,Community 3,NA,TRUE,j,j,NA,NA,NA,1,8,"2,8,11,15,3,7,4,6,10,12,14,1,13,5,9"
14394,commdev-image-keyboard-response,586,1494269,learnblock2,1120,img/planet5_right.png,5,Community 3,NA,TRUE,j,j,NA,NA,NA,1,8,"2,8,11,15,3,7,4,6,10,12,14,1,13,5,9"
14394,commdev-image-keyboard-response,587,1495530,learnblock2,null,img/planet9_left.png,9,Community 3,NA,FALSE,null,f,NA,NA,NA,1,8,"2,8,11,15,3,7,4,6,10,12,14,1,13,5,9"
14394,commdev-image-keyboard-response,588,1496796,learnblock2,null,img/planet5_left.png,5,Community 3,NA,FALSE,null,f,NA,NA,NA,1,8,"2,8,11,15,3,7,4,6,10,12,14,1,13,5,9"
14394,commdev-image-keyboard-response,589,1498054,learnblock2,1106.7999999523163,img/planet14_left.png,14,Community 3,NA,TRUE,f,f,NA,NA,NA,1,8,"2,8,11,15,3,7,4,6,10,12,14,1,13,5,9"
14394,commdev-image-keyboard-response,590,1499307,learnblock2,1186.5999999046326,img/planet3_left.png,3,Community 1,NA,TRUE,f,f,NA,NA,NA,1,8,"2,8,11,15,3,7,4,6,10,12,14,1,13,5,9"
14394,commdev-image-keyboard-response,591,1500563,learnblock2,903.6000001430511,img/planet14_left.png,14,Community 3,NA,TRUE,f,f,NA,NA,NA,1,8,"2,8,11,15,3,7,4,6,10,12,14,1,13,5,9"
14394,commdev-image-keyboard-response,592,1501821,learnblock2,881,img/planet5_left.png,5,Community 3,NA,TRUE,f,f,NA,NA,NA,1,8,"2,8,11,15,3,7,4,6,10,12,14,1,13,5,9"
14394,commdev-image-keyboard-response,593,1503080,learnblock2,1125.2000000476837,img/planet1_right.png,1,Community 3,NA,TRUE,j,j,NA,NA,NA,1,8,"2,8,11,15,3,7,4,6,10,12,14,1,13,5,9"
14394,commdev-image-keyboard-response,594,1504337,learnblock2,984,img/planet6_left.png,6,Community 2,NA,TRUE,f,f,NA,NA,NA,1,8,"2,8,11,15,3,7,4,6,10,12,14,1,13,5,9"
14394,commdev-image-keyboard-response,595,1505605,learnblock2,550.2999999523163,img/planet4_left.png,4,Community 2,NA,TRUE,f,f,NA,NA,NA,1,8,"2,8,11,15,3,7,4,6,10,12,14,1,13,5,9"
14394,commdev-image-keyboard-response,596,1506860,learnblock2,541.0999999046326,img/planet6_left.png,6,Community 2,NA,TRUE,f,f,NA,NA,NA,1,8,"2,8,11,15,3,7,4,6,10,12,14,1,13,5,9"
14394,commdev-image-keyboard-response,597,1508119,learnblock2,546.2999999523163,img/planet1_right.png,1,Community 3,NA,TRUE,j,j,NA,NA,NA,1,8,"2,8,11,15,3,7,4,6,10,12,14,1,13,5,9"
14394,commdev-image-keyboard-response,598,1509386,learnblock2,620.8999998569489,img/planet5_left.png,5,Community 3,NA,TRUE,f,f,NA,NA,NA,1,8,"2,8,11,15,3,7,4,6,10,12,14,1,13,5,9"
14394,commdev-image-keyboard-response,599,1510640,learnblock2,519.7000000476837,img/planet1_right.png,1,Community 3,NA,TRUE,j,j,NA,NA,NA,1,8,"2,8,11,15,3,7,4,6,10,12,14,1,13,5,9"
14394,commdev-image-keyboard-response,600,1511895,learnblock2,545.9000000953674,img/planet5_left.png,5,Community 3,NA,TRUE,f,f,NA,NA,NA,1,8,"2,8,11,15,3,7,4,6,10,12,14,1,13,5,9"
14394,commdev-image-keyboard-response,601,1513159,learnblock2,602.5,img/planet13_left.png,13,Community 3,NA,TRUE,f,f,NA,NA,NA,1,8,"2,8,11,15,3,7,4,6,10,12,14,1,13,5,9"
14394,commdev-image-keyboard-response,602,1514420,learnblock2,600.8999998569489,img/planet1_right.png,1,Community 3,NA,TRUE,j,j,NA,NA,NA,1,8,"2,8,11,15,3,7,4,6,10,12,14,1,13,5,9"
14394,commdev-image-keyboard-response,603,1515682,learnblock2,548.8999998569489,img/planet9_left.png,9,Community 3,NA,TRUE,f,f,NA,NA,NA,1,8,"2,8,11,15,3,7,4,6,10,12,14,1,13,5,9"
14394,commdev-image-keyboard-response,604,1516950,learnblock2,622.5,img/planet13_right.png,13,Community 3,NA,TRUE,j,j,NA,NA,NA,1,8,"2,8,11,15,3,7,4,6,10,12,14,1,13,5,9"
14394,commdev-image-keyboard-response,605,1518202,learnblock2,836.5,img/planet14_left.png,14,Community 3,NA,TRUE,f,f,NA,NA,NA,1,8,"2,8,11,15,3,7,4,6,10,12,14,1,13,5,9"
14394,commdev-image-keyboard-response,606,1519461,learnblock2,646,img/planet3_right.png,3,Community 1,NA,TRUE,j,j,NA,NA,NA,1,8,"2,8,11,15,3,7,4,6,10,12,14,1,13,5,9"
14394,commdev-image-keyboard-response,607,1520722,learnblock2,913.5,img/planet11_right.png,11,Community 1,NA,TRUE,j,j,NA,NA,NA,1,8,"2,8,11,15,3,7,4,6,10,12,14,1,13,5,9"
14394,commdev-image-keyboard-response,608,1521982,learnblock2,583.1999998092651,img/planet15_left.png,15,Community 1,NA,TRUE,f,f,NA,NA,NA,1,8,"2,8,11,15,3,7,4,6,10,12,14,1,13,5,9"
14394,commdev-image-keyboard-response,609,1523252,learnblock2,652,img/planet11_right.png,11,Community 1,NA,TRUE,j,j,NA,NA,NA,1,8,"2,8,11,15,3,7,4,6,10,12,14,1,13,5,9"
14394,commdev-image-keyboard-response,610,1524520,learnblock2,595.0999999046326,img/planet15_left.png,15,Community 1,NA,TRUE,f,f,NA,NA,NA,1,8,"2,8,11,15,3,7,4,6,10,12,14,1,13,5,9"
14394,commdev-image-keyboard-response,611,1525783,learnblock2,549.7000000476837,img/planet2_right.png,2,Community 1,NA,TRUE,j,j,NA,NA,NA,1,8,"2,8,11,15,3,7,4,6,10,12,14,1,13,5,9"
14394,commdev-image-keyboard-response,612,1527041,learnblock2,686.3000001907349,img/planet8_left.png,8,Community 1,NA,TRUE,f,f,NA,NA,NA,1,8,"2,8,11,15,3,7,4,6,10,12,14,1,13,5,9"
14394,commdev-image-keyboard-response,613,1528307,learnblock2,519.9000000953674,img/planet3_right.png,3,Community 1,NA,TRUE,j,j,NA,NA,NA,1,8,"2,8,11,15,3,7,4,6,10,12,14,1,13,5,9"
14394,commdev-image-keyboard-response,614,1529559,learnblock2,561.4000000953674,img/planet2_right.png,2,Community 1,NA,TRUE,j,j,NA,NA,NA,1,8,"2,8,11,15,3,7,4,6,10,12,14,1,13,5,9"
14394,commdev-image-keyboard-response,615,1530818,learnblock2,562.5,img/planet8_left.png,8,Community 1,NA,TRUE,f,f,NA,NA,NA,1,8,"2,8,11,15,3,7,4,6,10,12,14,1,13,5,9"
14394,commdev-image-keyboard-response,616,1532079,learnblock2,666.7999999523163,img/planet11_left.png,11,Community 1,NA,TRUE,f,f,NA,NA,NA,1,8,"2,8,11,15,3,7,4,6,10,12,14,1,13,5,9"
14394,commdev-image-keyboard-response,617,1533335,learnblock2,670.0999999046326,img/planet3_left.png,3,Community 1,NA,TRUE,f,f,NA,NA,NA,1,8,"2,8,11,15,3,7,4,6,10,12,14,1,13,5,9"
14394,commdev-image-keyboard-response,618,1534588,learnblock2,608.5,img/planet8_right.png,8,Community 1,NA,TRUE,j,j,NA,NA,NA,1,8,"2,8,11,15,3,7,4,6,10,12,14,1,13,5,9"
14394,commdev-image-keyboard-response,619,1535840,learnblock2,579,img/planet15_right.png,15,Community 1,NA,TRUE,j,j,NA,NA,NA,1,8,"2,8,11,15,3,7,4,6,10,12,14,1,13,5,9"
14394,commdev-image-keyboard-response,620,1537095,learnblock2,676.8999998569489,img/planet11_right.png,11,Community 1,NA,TRUE,j,j,NA,NA,NA,1,8,"2,8,11,15,3,7,4,6,10,12,14,1,13,5,9"
14394,commdev-image-keyboard-response,621,1538357,learnblock2,703.7000000476837,img/planet15_right.png,15,Community 1,NA,TRUE,j,j,NA,NA,NA,1,8,"2,8,11,15,3,7,4,6,10,12,14,1,13,5,9"
14394,commdev-image-keyboard-response,622,1539609,learnblock2,576.5999999046326,img/planet2_left.png,2,Community 1,NA,TRUE,f,f,NA,NA,NA,1,8,"2,8,11,15,3,7,4,6,10,12,14,1,13,5,9"
14394,commdev-image-keyboard-response,623,1540866,learnblock2,985.0999999046326,img/planet15_right.png,15,Community 1,NA,TRUE,j,j,NA,NA,NA,1,8,"2,8,11,15,3,7,4,6,10,12,14,1,13,5,9"
14394,commdev-image-keyboard-response,624,1542119,learnblock2,791.5999999046326,img/planet7_right.png,7,Community 2,NA,TRUE,j,j,NA,NA,NA,1,8,"2,8,11,15,3,7,4,6,10,12,14,1,13,5,9"
14394,commdev-image-keyboard-response,625,1543382,learnblock2,624.1000001430511,img/planet10_right.png,10,Community 2,NA,TRUE,j,j,NA,NA,NA,1,8,"2,8,11,15,3,7,4,6,10,12,14,1,13,5,9"
14394,commdev-image-keyboard-response,626,1544637,learnblock2,712.5,img/planet4_right.png,4,Community 2,NA,TRUE,j,j,NA,NA,NA,1,8,"2,8,11,15,3,7,4,6,10,12,14,1,13,5,9"
14394,commdev-image-keyboard-response,627,1545896,learnblock2,533.4000000953674,img/planet10_right.png,10,Community 2,NA,TRUE,j,j,NA,NA,NA,1,8,"2,8,11,15,3,7,4,6,10,12,14,1,13,5,9"
14394,commdev-image-keyboard-response,628,1547155,learnblock2,584.7999999523163,img/planet7_left.png,7,Community 2,NA,TRUE,f,f,NA,NA,NA,1,8,"2,8,11,15,3,7,4,6,10,12,14,1,13,5,9"
14394,commdev-image-keyboard-response,629,1548410,learnblock2,548,img/planet10_left.png,10,Community 2,NA,TRUE,f,f,NA,NA,NA,1,8,"2,8,11,15,3,7,4,6,10,12,14,1,13,5,9"
14394,commdev-image-keyboard-response,630,1549677,learnblock2,666.7999999523163,img/planet6_left.png,6,Community 2,NA,TRUE,f,f,NA,NA,NA,1,8,"2,8,11,15,3,7,4,6,10,12,14,1,13,5,9"
14394,commdev-image-keyboard-response,631,1550939,learnblock2,747.1000001430511,img/planet1_left.png,1,Community 3,NA,TRUE,f,f,NA,NA,NA,1,8,"2,8,11,15,3,7,4,6,10,12,14,1,13,5,9"
14394,commdev-image-keyboard-response,632,1552200,learnblock2,607.4000000953674,img/planet13_right.png,13,Community 3,NA,TRUE,j,j,NA,NA,NA,1,8,"2,8,11,15,3,7,4,6,10,12,14,1,13,5,9"
14394,commdev-image-keyboard-response,633,1553461,learnblock2,573.0999999046326,img/planet9_right.png,9,Community 3,NA,TRUE,j,j,NA,NA,NA,1,8,"2,8,11,15,3,7,4,6,10,12,14,1,13,5,9"
14394,commdev-image-keyboard-response,634,1554724,learnblock2,736.2999999523163,img/planet1_right.png,1,Community 3,NA,TRUE,j,j,NA,NA,NA,1,8,"2,8,11,15,3,7,4,6,10,12,14,1,13,5,9"
14394,commdev-image-keyboard-response,635,1555990,learnblock2,719.2999999523163,img/planet5_left.png,5,Community 3,NA,TRUE,f,f,NA,NA,NA,1,8,"2,8,11,15,3,7,4,6,10,12,14,1,13,5,9"
14394,commdev-image-keyboard-response,636,1557250,learnblock2,656.5999999046326,img/planet14_left.png,14,Community 3,NA,TRUE,f,f,NA,NA,NA,1,8,"2,8,11,15,3,7,4,6,10,12,14,1,13,5,9"
14394,commdev-image-keyboard-response,637,1558522,learnblock2,556.5999999046326,img/planet5_right.png,5,Community 3,NA,TRUE,j,j,NA,NA,NA,1,8,"2,8,11,15,3,7,4,6,10,12,14,1,13,5,9"
14394,commdev-image-keyboard-response,638,1559776,learnblock2,755.5,img/planet14_right.png,14,Community 3,NA,TRUE,j,j,NA,NA,NA,1,8,"2,8,11,15,3,7,4,6,10,12,14,1,13,5,9"
14394,commdev-image-keyboard-response,639,1561041,learnblock2,657,img/planet9_left.png,9,Community 3,NA,TRUE,f,f,NA,NA,NA,1,8,"2,8,11,15,3,7,4,6,10,12,14,1,13,5,9"
14394,commdev-image-keyboard-response,640,1562298,learnblock2,714,img/planet14_right.png,14,Community 3,NA,TRUE,j,j,NA,NA,NA,1,8,"2,8,11,15,3,7,4,6,10,12,14,1,13,5,9"
14394,commdev-image-keyboard-response,641,1563560,learnblock2,575.8999998569489,img/planet13_left.png,13,Community 3,NA,TRUE,f,f,NA,NA,NA,1,8,"2,8,11,15,3,7,4,6,10,12,14,1,13,5,9"
14394,commdev-image-keyboard-response,642,1564822,learnblock2,null,img/planet14_left.png,14,Community 3,NA,FALSE,null,f,NA,NA,NA,1,8,"2,8,11,15,3,7,4,6,10,12,14,1,13,5,9"
14394,commdev-image-keyboard-response,643,1566076,learnblock2,580,img/planet13_right.png,13,Community 3,NA,TRUE,j,j,NA,NA,NA,1,8,"2,8,11,15,3,7,4,6,10,12,14,1,13,5,9"
14394,commdev-image-keyboard-response,644,1567346,learnblock2,544.5,img/planet14_left.png,14,Community 3,NA,TRUE,f,f,NA,NA,NA,1,8,"2,8,11,15,3,7,4,6,10,12,14,1,13,5,9"
14394,commdev-image-keyboard-response,645,1568612,learnblock2,490.89999985694885,img/planet5_right.png,5,Community 3,NA,TRUE,j,j,NA,NA,NA,1,8,"2,8,11,15,3,7,4,6,10,12,14,1,13,5,9"
14394,commdev-image-keyboard-response,646,1569865,learnblock2,720.7000000476837,img/planet1_right.png,1,Community 3,NA,TRUE,j,j,NA,NA,NA,1,8,"2,8,11,15,3,7,4,6,10,12,14,1,13,5,9"
14394,commdev-image-keyboard-response,647,1571125,learnblock2,565.9000000953674,img/planet13_right.png,13,Community 3,NA,TRUE,j,j,NA,NA,NA,1,8,"2,8,11,15,3,7,4,6,10,12,14,1,13,5,9"
14394,commdev-image-keyboard-response,648,1572384,learnblock2,465.7000000476837,img/planet5_left.png,5,Community 3,NA,TRUE,f,f,NA,NA,NA,1,8,"2,8,11,15,3,7,4,6,10,12,14,1,13,5,9"
14394,commdev-image-keyboard-response,649,1573649,learnblock2,465.90000009536743,img/planet9_right.png,9,Community 3,NA,TRUE,j,j,NA,NA,NA,1,8,"2,8,11,15,3,7,4,6,10,12,14,1,13,5,9"
14394,commdev-image-keyboard-response,650,1574917,learnblock2,690.4000000953674,img/planet13_right.png,13,Community 3,NA,FALSE,f,j,NA,NA,NA,1,8,"2,8,11,15,3,7,4,6,10,12,14,1,13,5,9"
14394,commdev-image-keyboard-response,651,1576177,learnblock2,1226.4000000953674,img/planet9_right.png,9,Community 3,NA,TRUE,j,j,NA,NA,NA,1,8,"2,8,11,15,3,7,4,6,10,12,14,1,13,5,9"
14394,commdev-image-keyboard-response,652,1577432,learnblock2,585.6000001430511,img/planet5_left.png,5,Community 3,NA,TRUE,f,f,NA,NA,NA,1,8,"2,8,11,15,3,7,4,6,10,12,14,1,13,5,9"
14394,commdev-image-keyboard-response,653,1578694,learnblock2,586.2000000476837,img/planet13_left.png,13,Community 3,NA,TRUE,f,f,NA,NA,NA,1,8,"2,8,11,15,3,7,4,6,10,12,14,1,13,5,9"
14394,commdev-image-keyboard-response,654,1579961,learnblock2,540.2999999523163,img/planet5_left.png,5,Community 3,NA,TRUE,f,f,NA,NA,NA,1,8,"2,8,11,15,3,7,4,6,10,12,14,1,13,5,9"
14394,commdev-image-keyboard-response,655,1581230,learnblock2,553.8000001907349,img/planet9_left.png,9,Community 3,NA,TRUE,f,f,NA,NA,NA,1,8,"2,8,11,15,3,7,4,6,10,12,14,1,13,5,9"
14394,commdev-image-keyboard-response,656,1582489,learnblock2,585.8999998569489,img/planet1_right.png,1,Community 3,NA,TRUE,j,j,NA,NA,NA,1,8,"2,8,11,15,3,7,4,6,10,12,14,1,13,5,9"
14394,commdev-image-keyboard-response,657,1583755,learnblock2,588.5,img/planet5_right.png,5,Community 3,NA,TRUE,j,j,NA,NA,NA,1,8,"2,8,11,15,3,7,4,6,10,12,14,1,13,5,9"
14394,commdev-image-keyboard-response,658,1585016,learnblock2,497.10000014305115,img/planet14_left.png,14,Community 3,NA,TRUE,f,f,NA,NA,NA,1,8,"2,8,11,15,3,7,4,6,10,12,14,1,13,5,9"
14394,commdev-image-keyboard-response,659,1586281,learnblock2,507.7999999523163,img/planet5_left.png,5,Community 3,NA,TRUE,f,f,NA,NA,NA,1,8,"2,8,11,15,3,7,4,6,10,12,14,1,13,5,9"
14394,commdev-image-keyboard-response,660,1587539,learnblock2,602,img/planet13_left.png,13,Community 3,NA,TRUE,f,f,NA,NA,NA,1,8,"2,8,11,15,3,7,4,6,10,12,14,1,13,5,9"
14394,commdev-image-keyboard-response,661,1588797,learnblock2,683,img/planet14_left.png,14,Community 3,NA,TRUE,f,f,NA,NA,NA,1,8,"2,8,11,15,3,7,4,6,10,12,14,1,13,5,9"
14394,commdev-image-keyboard-response,662,1590056,learnblock2,574.7000000476837,img/planet9_right.png,9,Community 3,NA,TRUE,j,j,NA,NA,NA,1,8,"2,8,11,15,3,7,4,6,10,12,14,1,13,5,9"
14394,commdev-image-keyboard-response,663,1591319,learnblock2,496.5,img/planet1_left.png,1,Community 3,NA,TRUE,f,f,NA,NA,NA,1,8,"2,8,11,15,3,7,4,6,10,12,14,1,13,5,9"
14394,commdev-image-keyboard-response,664,1592574,learnblock2,732.2999999523163,img/planet5_left.png,5,Community 3,NA,TRUE,f,f,NA,NA,NA,1,8,"2,8,11,15,3,7,4,6,10,12,14,1,13,5,9"
14394,commdev-image-keyboard-response,665,1593840,learnblock2,619.7000000476837,img/planet14_left.png,14,Community 3,NA,TRUE,f,f,NA,NA,NA,1,8,"2,8,11,15,3,7,4,6,10,12,14,1,13,5,9"
14394,commdev-image-keyboard-response,666,1595104,learnblock2,715.0999999046326,img/planet9_right.png,9,Community 3,NA,TRUE,j,j,NA,NA,NA,1,8,"2,8,11,15,3,7,4,6,10,12,14,1,13,5,9"
14394,commdev-image-keyboard-response,667,1596371,learnblock2,708.7999999523163,img/planet1_left.png,1,Community 3,NA,TRUE,f,f,NA,NA,NA,1,8,"2,8,11,15,3,7,4,6,10,12,14,1,13,5,9"
14394,commdev-image-keyboard-response,668,1597632,learnblock2,771.7000000476837,img/planet9_left.png,9,Community 3,NA,TRUE,f,f,NA,NA,NA,1,8,"2,8,11,15,3,7,4,6,10,12,14,1,13,5,9"
14394,commdev-image-keyboard-response,669,1598892,learnblock2,585.7999999523163,img/planet13_left.png,13,Community 3,NA,TRUE,f,f,NA,NA,NA,1,8,"2,8,11,15,3,7,4,6,10,12,14,1,13,5,9"
14394,commdev-image-keyboard-response,670,1600151,learnblock2,641.3999998569489,img/planet1_right.png,1,Community 3,NA,TRUE,j,j,NA,NA,NA,1,8,"2,8,11,15,3,7,4,6,10,12,14,1,13,5,9"
14394,commdev-image-keyboard-response,671,1601409,learnblock2,1078.7999999523163,img/planet9_right.png,9,Community 3,NA,TRUE,j,j,NA,NA,NA,1,8,"2,8,11,15,3,7,4,6,10,12,14,1,13,5,9"
14394,commdev-image-keyboard-response,672,1602676,learnblock2,783.2000000476837,img/planet1_right.png,1,Community 3,NA,TRUE,j,j,NA,NA,NA,1,8,"2,8,11,15,3,7,4,6,10,12,14,1,13,5,9"
14394,commdev-image-keyboard-response,673,1603936,learnblock2,863,img/planet6_left.png,6,Community 2,NA,TRUE,f,f,NA,NA,NA,1,8,"2,8,11,15,3,7,4,6,10,12,14,1,13,5,9"
14394,commdev-image-keyboard-response,674,1605198,learnblock2,882.7999999523163,img/planet4_right.png,4,Community 2,NA,FALSE,f,j,NA,NA,NA,1,8,"2,8,11,15,3,7,4,6,10,12,14,1,13,5,9"
14394,commdev-image-keyboard-response,675,1606455,learnblock2,733.9000000953674,img/planet7_left.png,7,Community 2,NA,TRUE,f,f,NA,NA,NA,1,8,"2,8,11,15,3,7,4,6,10,12,14,1,13,5,9"
14394,commdev-image-keyboard-response,676,1607719,learnblock2,544.7999999523163,img/planet10_right.png,10,Community 2,NA,TRUE,j,j,NA,NA,NA,1,8,"2,8,11,15,3,7,4,6,10,12,14,1,13,5,9"
14394,commdev-image-keyboard-response,677,1608979,learnblock2,765.2000000476837,img/planet6_left.png,6,Community 2,NA,TRUE,f,f,NA,NA,NA,1,8,"2,8,11,15,3,7,4,6,10,12,14,1,13,5,9"
14394,commdev-image-keyboard-response,678,1610233,learnblock2,622.7000000476837,img/planet12_right.png,12,Community 2,NA,TRUE,j,j,NA,NA,NA,1,8,"2,8,11,15,3,7,4,6,10,12,14,1,13,5,9"
14394,commdev-image-keyboard-response,679,1611495,learnblock2,715.2999999523163,img/planet10_right.png,10,Community 2,NA,TRUE,j,j,NA,NA,NA,1,8,"2,8,11,15,3,7,4,6,10,12,14,1,13,5,9"
14394,commdev-image-keyboard-response,680,1612749,learnblock2,698.4000000953674,img/planet6_right.png,6,Community 2,NA,TRUE,j,j,NA,NA,NA,1,8,"2,8,11,15,3,7,4,6,10,12,14,1,13,5,9"
14394,commdev-image-keyboard-response,681,1614010,learnblock2,629.4000000953674,img/planet4_right.png,4,Community 2,NA,TRUE,j,j,NA,NA,NA,1,8,"2,8,11,15,3,7,4,6,10,12,14,1,13,5,9"
14394,commdev-image-keyboard-response,682,1615272,learnblock2,779.2999999523163,img/planet10_right.png,10,Community 2,NA,TRUE,j,j,NA,NA,NA,1,8,"2,8,11,15,3,7,4,6,10,12,14,1,13,5,9"
14394,commdev-image-keyboard-response,683,1616531,learnblock2,633,img/planet12_left.png,12,Community 2,NA,TRUE,f,f,NA,NA,NA,1,8,"2,8,11,15,3,7,4,6,10,12,14,1,13,5,9"
14394,commdev-image-keyboard-response,684,1617784,learnblock2,519.8999998569489,img/planet10_right.png,10,Community 2,NA,TRUE,j,j,NA,NA,NA,1,8,"2,8,11,15,3,7,4,6,10,12,14,1,13,5,9"
14394,commdev-image-keyboard-response,685,1619046,learnblock2,666.5999999046326,img/planet6_left.png,6,Community 2,NA,TRUE,f,f,NA,NA,NA,1,8,"2,8,11,15,3,7,4,6,10,12,14,1,13,5,9"
14394,commdev-image-keyboard-response,686,1620302,learnblock2,948.4000000953674,img/planet1_left.png,1,Community 3,NA,TRUE,f,f,NA,NA,NA,1,8,"2,8,11,15,3,7,4,6,10,12,14,1,13,5,9"
14394,commdev-image-keyboard-response,687,1621555,learnblock2,856.2999999523163,img/planet6_left.png,6,Community 2,NA,TRUE,f,f,NA,NA,NA,1,8,"2,8,11,15,3,7,4,6,10,12,14,1,13,5,9"
14394,commdev-image-keyboard-response,688,1622810,learnblock2,615.6000001430511,img/planet12_right.png,12,Community 2,NA,TRUE,j,j,NA,NA,NA,1,8,"2,8,11,15,3,7,4,6,10,12,14,1,13,5,9"
14394,commdev-image-keyboard-response,689,1624064,learnblock2,631,img/planet10_right.png,10,Community 2,NA,TRUE,j,j,NA,NA,NA,1,8,"2,8,11,15,3,7,4,6,10,12,14,1,13,5,9"
14394,commdev-image-keyboard-response,690,1625316,learnblock2,1020.5,img/planet12_left.png,12,Community 2,NA,TRUE,f,f,NA,NA,NA,1,8,"2,8,11,15,3,7,4,6,10,12,14,1,13,5,9"
14394,commdev-image-keyboard-response,691,1626575,learnblock2,800.6000001430511,img/planet4_right.png,4,Community 2,NA,TRUE,j,j,NA,NA,NA,1,8,"2,8,11,15,3,7,4,6,10,12,14,1,13,5,9"
14394,commdev-image-keyboard-response,692,1627841,learnblock2,603.8999998569489,img/planet10_left.png,10,Community 2,NA,TRUE,f,f,NA,NA,NA,1,8,"2,8,11,15,3,7,4,6,10,12,14,1,13,5,9"
14394,commdev-image-keyboard-response,693,1629099,learnblock2,1245.3000001907349,img/planet6_left.png,6,Community 2,NA,TRUE,f,f,NA,NA,NA,1,8,"2,8,11,15,3,7,4,6,10,12,14,1,13,5,9"
14394,commdev-image-keyboard-response,694,1630357,learnblock2,722.7999999523163,img/planet12_left.png,12,Community 2,NA,TRUE,f,f,NA,NA,NA,1,8,"2,8,11,15,3,7,4,6,10,12,14,1,13,5,9"
14394,commdev-image-keyboard-response,695,1631626,learnblock2,693,img/planet7_right.png,7,Community 2,NA,TRUE,j,j,NA,NA,NA,1,8,"2,8,11,15,3,7,4,6,10,12,14,1,13,5,9"
14394,commdev-image-keyboard-response,696,1632886,learnblock2,644.0999999046326,img/planet10_left.png,10,Community 2,NA,TRUE,f,f,NA,NA,NA,1,8,"2,8,11,15,3,7,4,6,10,12,14,1,13,5,9"
14394,commdev-image-keyboard-response,697,1634145,learnblock2,576.6000001430511,img/planet7_right.png,7,Community 2,NA,TRUE,j,j,NA,NA,NA,1,8,"2,8,11,15,3,7,4,6,10,12,14,1,13,5,9"
14394,commdev-image-keyboard-response,698,1635406,learnblock2,null,img/planet12_right.png,12,Community 2,NA,FALSE,null,j,NA,NA,NA,1,8,"2,8,11,15,3,7,4,6,10,12,14,1,13,5,9"
14394,commdev-image-keyboard-response,699,1636665,learnblock2,132,img/planet6_right.png,6,Community 2,NA,TRUE,j,j,NA,NA,NA,1,8,"2,8,11,15,3,7,4,6,10,12,14,1,13,5,9"
14394,commdev-image-keyboard-response,700,1637919,learnblock2,594.4000000953674,img/planet4_left.png,4,Community 2,NA,TRUE,f,f,NA,NA,NA,1,8,"2,8,11,15,3,7,4,6,10,12,14,1,13,5,9"
14394,commdev-image-keyboard-response,701,1639182,learnblock2,625.4000000953674,img/planet10_right.png,10,Community 2,NA,TRUE,j,j,NA,NA,NA,1,8,"2,8,11,15,3,7,4,6,10,12,14,1,13,5,9"
14394,commdev-image-keyboard-response,702,1640437,learnblock2,657.5,img/planet7_right.png,7,Community 2,NA,TRUE,j,j,NA,NA,NA,1,8,"2,8,11,15,3,7,4,6,10,12,14,1,13,5,9"
14394,commdev-image-keyboard-response,703,1641698,learnblock2,605,img/planet12_left.png,12,Community 2,NA,TRUE,f,f,NA,NA,NA,1,8,"2,8,11,15,3,7,4,6,10,12,14,1,13,5,9"
14394,commdev-image-keyboard-response,704,1642955,learnblock2,591.1000001430511,img/planet7_right.png,7,Community 2,NA,TRUE,j,j,NA,NA,NA,1,8,"2,8,11,15,3,7,4,6,10,12,14,1,13,5,9"
14394,commdev-image-keyboard-response,705,1644216,learnblock2,537.7999999523163,img/planet12_left.png,12,Community 2,NA,TRUE,f,f,NA,NA,NA,1,8,"2,8,11,15,3,7,4,6,10,12,14,1,13,5,9"
14394,commdev-image-keyboard-response,706,1645482,learnblock2,679.2000000476837,img/planet7_right.png,7,Community 2,NA,TRUE,j,j,NA,NA,NA,1,8,"2,8,11,15,3,7,4,6,10,12,14,1,13,5,9"
14394,commdev-image-keyboard-response,707,1646734,learnblock2,580.1000001430511,img/planet15_right.png,15,Community 1,NA,TRUE,j,j,NA,NA,NA,1,8,"2,8,11,15,3,7,4,6,10,12,14,1,13,5,9"
14394,commdev-image-keyboard-response,708,1647994,learnblock2,527.5,img/planet2_right.png,2,Community 1,NA,TRUE,j,j,NA,NA,NA,1,8,"2,8,11,15,3,7,4,6,10,12,14,1,13,5,9"
14394,commdev-image-keyboard-response,709,1649249,learnblock2,753.9000000953674,img/planet3_right.png,3,Community 1,NA,TRUE,j,j,NA,NA,NA,1,8,"2,8,11,15,3,7,4,6,10,12,14,1,13,5,9"
14394,commdev-image-keyboard-response,710,1650519,learnblock2,476.89999985694885,img/planet2_right.png,2,Community 1,NA,TRUE,j,j,NA,NA,NA,1,8,"2,8,11,15,3,7,4,6,10,12,14,1,13,5,9"
14394,commdev-image-keyboard-response,711,1651778,learnblock2,791.7999999523163,img/planet11_right.png,11,Community 1,NA,TRUE,j,j,NA,NA,NA,1,8,"2,8,11,15,3,7,4,6,10,12,14,1,13,5,9"
14394,commdev-image-keyboard-response,712,1653033,learnblock2,null,img/planet8_right.png,8,Community 1,NA,FALSE,null,j,NA,NA,NA,1,8,"2,8,11,15,3,7,4,6,10,12,14,1,13,5,9"
14394,commdev-image-keyboard-response,713,1654288,learnblock2,575.3000001907349,img/planet11_right.png,11,Community 1,NA,TRUE,j,j,NA,NA,NA,1,8,"2,8,11,15,3,7,4,6,10,12,14,1,13,5,9"
14394,commdev-image-keyboard-response,714,1655541,learnblock2,null,img/planet15_left.png,15,Community 1,NA,FALSE,null,f,NA,NA,NA,1,8,"2,8,11,15,3,7,4,6,10,12,14,1,13,5,9"
14394,commdev-image-keyboard-response,715,1656801,learnblock2,670,img/planet8_right.png,8,Community 1,NA,TRUE,j,j,NA,NA,NA,1,8,"2,8,11,15,3,7,4,6,10,12,14,1,13,5,9"
14394,commdev-image-keyboard-response,716,1658070,learnblock2,718.4000000953674,img/planet3_left.png,3,Community 1,NA,TRUE,f,f,NA,NA,NA,1,8,"2,8,11,15,3,7,4,6,10,12,14,1,13,5,9"
14394,commdev-image-keyboard-response,717,1659330,learnblock2,612.9000000953674,img/planet2_left.png,2,Community 1,NA,TRUE,f,f,NA,NA,NA,1,8,"2,8,11,15,3,7,4,6,10,12,14,1,13,5,9"
14394,commdev-image-keyboard-response,718,1660588,learnblock2,581.6000001430511,img/planet3_right.png,3,Community 1,NA,TRUE,j,j,NA,NA,NA,1,8,"2,8,11,15,3,7,4,6,10,12,14,1,13,5,9"
14394,commdev-image-keyboard-response,719,1661843,learnblock2,645.7000000476837,img/planet11_right.png,11,Community 1,NA,TRUE,j,j,NA,NA,NA,1,8,"2,8,11,15,3,7,4,6,10,12,14,1,13,5,9"
14394,commdev-image-keyboard-response,720,1663105,learnblock2,731.7999999523163,img/planet3_right.png,3,Community 1,NA,TRUE,j,j,NA,NA,NA,1,8,"2,8,11,15,3,7,4,6,10,12,14,1,13,5,9"
14394,commdev-image-keyboard-response,721,1664375,learnblock2,null,img/planet11_left.png,11,Community 1,NA,FALSE,null,f,NA,NA,NA,1,8,"2,8,11,15,3,7,4,6,10,12,14,1,13,5,9"
14394,commdev-image-keyboard-response,722,1665629,learnblock2,null,img/planet8_right.png,8,Community 1,NA,FALSE,null,j,NA,NA,NA,1,8,"2,8,11,15,3,7,4,6,10,12,14,1,13,5,9"
14394,commdev-image-keyboard-response,723,1666888,learnblock2,280.7000000476837,img/planet2_right.png,2,Community 1,NA,TRUE,j,j,NA,NA,NA,1,8,"2,8,11,15,3,7,4,6,10,12,14,1,13,5,9"
14394,commdev-image-keyboard-response,724,1668156,learnblock2,714.7000000476837,img/planet8_right.png,8,Community 1,NA,TRUE,j,j,NA,NA,NA,1,8,"2,8,11,15,3,7,4,6,10,12,14,1,13,5,9"
14394,commdev-image-keyboard-response,725,1669412,learnblock2,714.6000001430511,img/planet15_left.png,15,Community 1,NA,TRUE,f,f,NA,NA,NA,1,8,"2,8,11,15,3,7,4,6,10,12,14,1,13,5,9"
14394,commdev-image-keyboard-response,726,1670680,learnblock2,593.2000000476837,img/planet11_right.png,11,Community 1,NA,TRUE,j,j,NA,NA,NA,1,8,"2,8,11,15,3,7,4,6,10,12,14,1,13,5,9"
14394,commdev-image-keyboard-response,727,1671940,learnblock2,970.1000001430511,img/planet8_left.png,8,Community 1,NA,TRUE,f,f,NA,NA,NA,1,8,"2,8,11,15,3,7,4,6,10,12,14,1,13,5,9"
14394,commdev-image-keyboard-response,728,1673202,learnblock2,771.7000000476837,img/planet3_right.png,3,Community 1,NA,TRUE,j,j,NA,NA,NA,1,8,"2,8,11,15,3,7,4,6,10,12,14,1,13,5,9"
14394,commdev-image-keyboard-response,729,1674456,learnblock2,881.1000001430511,img/planet14_right.png,14,Community 3,NA,TRUE,j,j,NA,NA,NA,1,8,"2,8,11,15,3,7,4,6,10,12,14,1,13,5,9"
14394,commdev-image-keyboard-response,730,1675712,learnblock2,null,img/planet13_right.png,13,Community 3,NA,FALSE,null,j,NA,NA,NA,1,8,"2,8,11,15,3,7,4,6,10,12,14,1,13,5,9"
14394,commdev-image-keyboard-response,731,1676964,learnblock2,420.5,img/planet9_right.png,9,Community 3,NA,TRUE,j,j,NA,NA,NA,1,8,"2,8,11,15,3,7,4,6,10,12,14,1,13,5,9"
