subject_id,trial_type,trial_index,time_elapsed,block,rt,stimulus,planet,community,response,correct,key_press,learning_correct_response,parse,init_locations,final_locations,browser_interactions,num_comp,planet_map
14090,commdev-instructions,7,48417,NA,1740.8999998569489,"<p>In this game, you will be shown a 3x3 grid of patterns.</p> <p>The last one in the bottom right-hand corner, <strong>will be missing:</strong></p> <div style='width: 700px;'><div style='float: top;'><img style='width: 200px;' src='practice/p1_M1.png'></img><p class='small'>You need to select<strong> which of the four possible patterns </strong>along the bottom<strong> fits into the gap:</strong></p></div><div style='float: top;'><img style='width: 300px;' src='practice/p1_T1.png'></img></div><br>",NA,NA,NA,NA,NA,NA,NA,NA,NA,NA,6,"15,11,4,3,10,14,2,9,6,8,5,12,13,7,1"
14090,commdev-instructions,8,68656,NA,1840.0999999046326,"<p>Try to be as fast and as accurate as you can be.</p> <p>If you cannot solve the puzzle then you should guess - you will not be penalised for an incorrect answer.</p> <p>The task contains a shuffled mix of easy, medium and hard puzzles.</p> <p>You will have <strong>30 seconds</strong> to complete each puzzle.</p><br>",NA,NA,NA,NA,NA,NA,NA,NA,NA,NA,6,"15,11,4,3,10,14,2,9,6,8,5,12,13,7,1"
14090,commdev-instructions,15,95258,NA,1432.3000001907349,<p><strong>Success!</strong></p> <p>You seem to be getting the hang of this...</p> <p>Let's move on to the real trials.</p><br>,NA,NA,NA,NA,NA,NA,NA,NA,NA,NA,6,"15,11,4,3,10,14,2,9,6,8,5,12,13,7,1"
14090,commdev-instructions,161,590493,NA,1151.5,"<p>In this game, you are a scientist on board a space shuttle. </p><p> On each mission, you will visit planets all across the universe.</p><img src=""img/controlroom.jpg"" width=300vw>",NA,NA,NA,NA,NA,NA,NA,NA,NA,NA,6,"15,11,4,3,10,14,2,9,6,8,5,12,13,7,1"
14090,commdev-instructions,162,593420,NA,858.0999999046326,"<p>Here are a few planets you might see:</p><img src=""img/practice1.png"" width=200vw><img src=""img/practice2.png"" width=200vw><img src=""img/practice3.png"" width=200vw>",NA,NA,NA,NA,NA,NA,NA,NA,NA,NA,6,"15,11,4,3,10,14,2,9,6,8,5,12,13,7,1"
14090,commdev-instructions,163,603305,NA,2481,"<p>Your job as a scientist is to record which direction the winds are moving on each planet.</p><p>There are two types of wind directions:</p><img src=""img/practice1_left.png"" width=200vw><img src=""img/practice1_right.png"" width=200vw>",NA,NA,NA,NA,NA,NA,NA,NA,NA,NA,6,"15,11,4,3,10,14,2,9,6,8,5,12,13,7,1"
14090,commdev-instructions,164,609576,NA,1371.4000000953674,"<p>If the winds are moving this way, press the letter <strong>F</strong> on the keyboard as fast as you can.</p><img src=""img/leftwind.png"" width=250vw>",NA,NA,NA,NA,NA,NA,NA,NA,NA,NA,6,"15,11,4,3,10,14,2,9,6,8,5,12,13,7,1"
14090,commdev-instructions,165,615082,NA,997.2000000476837,"<p>If the winds are moving this way, press the letter <strong>J</strong> on the keyboard as fast as you can.</p><img src=""img/rightwind.png"" width=350vw>",NA,NA,NA,NA,NA,NA,NA,NA,NA,NA,6,"15,11,4,3,10,14,2,9,6,8,5,12,13,7,1"
14090,commdev-instructions,166,621415,NA,1900.7000000476837,<p>You will have 1 second to respond. Try to respond before the time runs out!,NA,NA,NA,NA,NA,NA,NA,NA,NA,NA,6,"15,11,4,3,10,14,2,9,6,8,5,12,13,7,1"
14090,commdev-instructions,167,627706,NA,852.0999999046326,<p>The planets you will visit will look different from each other.</p><p>You should respond <strong>only</strong> based on wind direction.,NA,NA,NA,NA,NA,NA,NA,NA,NA,NA,6,"15,11,4,3,10,14,2,9,6,8,5,12,13,7,1"
14090,commdev-instructions,168,635453,NA,2579.5,"<p> Ready to start the practice round? </p><p> Remember, press <strong>F</strong> or <strong>J</strong> depending on the wind direction.<br><img src=""img/categorize_planet_example.png""",NA,NA,NA,NA,NA,NA,NA,NA,NA,NA,6,"15,11,4,3,10,14,2,9,6,8,5,12,13,7,1"
14090,commdev-instructions,180,688616,NA,2107.9000000953674,"<p>Great, now try a short practice mission. </p><p> This time, you will have 1 second to respond and you won't know whether you pressed the right or wrong key for each planet.</p>",NA,NA,NA,NA,NA,NA,NA,NA,NA,NA,6,"15,11,4,3,10,14,2,9,6,8,5,12,13,7,1"
14090,commdev-image-keyboard-response,181,689997,practice,672.0999999046326,img/practice1_left.png,NA,Number not found in mappings,NA,TRUE,f,f,NA,NA,NA,NA,6,"15,11,4,3,10,14,2,9,6,8,5,12,13,7,1"
14090,commdev-image-keyboard-response,182,691255,practice,null,img/practice3_right.png,NA,Number not found in mappings,NA,FALSE,null,j,NA,NA,NA,NA,6,"15,11,4,3,10,14,2,9,6,8,5,12,13,7,1"
14090,commdev-image-keyboard-response,183,692526,practice,null,img/practice2_right.png,NA,Number not found in mappings,NA,FALSE,null,j,NA,NA,NA,NA,6,"15,11,4,3,10,14,2,9,6,8,5,12,13,7,1"
14090,commdev-image-keyboard-response,184,693786,practice,null,img/practice4_right.png,NA,Number not found in mappings,NA,FALSE,null,j,NA,NA,NA,NA,6,"15,11,4,3,10,14,2,9,6,8,5,12,13,7,1"
14090,commdev-image-keyboard-response,185,695046,practice,516,img/practice3_left.png,NA,Number not found in mappings,NA,TRUE,f,f,NA,NA,NA,NA,6,"15,11,4,3,10,14,2,9,6,8,5,12,13,7,1"
14090,commdev-image-keyboard-response,186,696306,practice,null,img/practice4_right.png,NA,Number not found in mappings,NA,FALSE,null,j,NA,NA,NA,NA,6,"15,11,4,3,10,14,2,9,6,8,5,12,13,7,1"
14090,commdev-image-keyboard-response,187,697566,practice,624.4000000953674,img/practice3_left.png,NA,Number not found in mappings,NA,TRUE,f,f,NA,NA,NA,NA,6,"15,11,4,3,10,14,2,9,6,8,5,12,13,7,1"
14090,commdev-image-keyboard-response,188,698837,practice,null,img/practice1_right.png,NA,Number not found in mappings,NA,FALSE,null,j,NA,NA,NA,NA,6,"15,11,4,3,10,14,2,9,6,8,5,12,13,7,1"
14090,commdev-instructions,189,711319,NA,2930.0999999046326,"<p>Great job with the practice round.</p><p>During real missions, you won't know whether you pressed the right or wrong key for each planet.</p><p>But between missions, we will tell you how you did overall.</p>",NA,NA,NA,NA,NA,NA,NA,NA,NA,NA,6,"15,11,4,3,10,14,2,9,6,8,5,12,13,7,1"
14090,commdev-instructions,190,720948,NA,1370,<p>Try your best! You will be paid a bonus based on how many correct responses you make!</p><p>Responses that are too slow will not count toward your bonus.</p>,NA,NA,NA,NA,NA,NA,NA,NA,NA,NA,6,"15,11,4,3,10,14,2,9,6,8,5,12,13,7,1"
14090,commdev-instructions,191,728012,NA,860.6999998092651,"<p>You are almost ready to start the real game.</p><p> First, we are going to ask you some questions about how the game works.</p>",NA,NA,NA,NA,NA,NA,NA,NA,NA,NA,6,"15,11,4,3,10,14,2,9,6,8,5,12,13,7,1"
14090,commdev-instructions,200,811733,NA,2623.2000000476837,"<p> Nice work! It is now time to start the real game.<p></p>You will go on two missions to record wind directions of different planets.<p></p>Each one will take about 5 minutes. You will get to take a break between missions.<p><p> Remember, press <strong>F</strong> or <strong>J</strong> depending on the wind direction. Good luck!<br><img src=""img/categorize_planet_example.png""",NA,NA,NA,NA,NA,NA,NA,NA,NA,NA,6,"15,11,4,3,10,14,2,9,6,8,5,12,13,7,1"
14090,commdev-image-keyboard-response,202,817289,learnblock1,null,img/planet11_left.png,11,Community 1,NA,FALSE,null,f,NA,NA,NA,NA,6,"15,11,4,3,10,14,2,9,6,8,5,12,13,7,1"
14090,commdev-image-keyboard-response,203,818559,learnblock1,1.3000001907348633,img/planet10_right.png,10,Community 1,NA,TRUE,j,j,NA,NA,NA,NA,6,"15,11,4,3,10,14,2,9,6,8,5,12,13,7,1"
14090,commdev-image-keyboard-response,204,819815,learnblock1,919.6000001430511,img/planet4_right.png,4,Community 1,NA,FALSE,f,j,NA,NA,NA,NA,6,"15,11,4,3,10,14,2,9,6,8,5,12,13,7,1"
14090,commdev-image-keyboard-response,205,821069,learnblock1,968.7999999523163,img/planet15_right.png,15,Community 1,NA,TRUE,j,j,NA,NA,NA,NA,6,"15,11,4,3,10,14,2,9,6,8,5,12,13,7,1"
14090,commdev-image-keyboard-response,206,822339,learnblock1,747.9000000953674,img/planet11_right.png,11,Community 1,NA,TRUE,j,j,NA,NA,NA,NA,6,"15,11,4,3,10,14,2,9,6,8,5,12,13,7,1"
14090,commdev-image-keyboard-response,207,823609,learnblock1,635.8000001907349,img/planet4_left.png,4,Community 1,NA,TRUE,f,f,NA,NA,NA,NA,6,"15,11,4,3,10,14,2,9,6,8,5,12,13,7,1"
14090,commdev-image-keyboard-response,208,824878,learnblock1,567.3999998569489,img/planet15_left.png,15,Community 1,NA,FALSE,j,f,NA,NA,NA,NA,6,"15,11,4,3,10,14,2,9,6,8,5,12,13,7,1"
14090,commdev-image-keyboard-response,209,826138,learnblock1,719.8999998569489,img/planet10_right.png,10,Community 1,NA,TRUE,j,j,NA,NA,NA,NA,6,"15,11,4,3,10,14,2,9,6,8,5,12,13,7,1"
14090,commdev-image-keyboard-response,210,827394,learnblock1,665.7000000476837,img/planet11_left.png,11,Community 1,NA,TRUE,f,f,NA,NA,NA,NA,6,"15,11,4,3,10,14,2,9,6,8,5,12,13,7,1"
14090,commdev-image-keyboard-response,211,828648,learnblock1,553.7000000476837,img/planet4_left.png,4,Community 1,NA,FALSE,j,f,NA,NA,NA,NA,6,"15,11,4,3,10,14,2,9,6,8,5,12,13,7,1"
14090,commdev-image-keyboard-response,212,829918,learnblock1,622.9000000953674,img/planet10_left.png,10,Community 1,NA,TRUE,f,f,NA,NA,NA,NA,6,"15,11,4,3,10,14,2,9,6,8,5,12,13,7,1"
14090,commdev-image-keyboard-response,213,831184,learnblock1,612.2999999523163,img/planet15_left.png,15,Community 1,NA,FALSE,j,f,NA,NA,NA,NA,6,"15,11,4,3,10,14,2,9,6,8,5,12,13,7,1"
14090,commdev-image-keyboard-response,214,832438,learnblock1,664.1000001430511,img/planet10_right.png,10,Community 1,NA,TRUE,j,j,NA,NA,NA,NA,6,"15,11,4,3,10,14,2,9,6,8,5,12,13,7,1"
14090,commdev-image-keyboard-response,215,833709,learnblock1,729.7000000476837,img/planet5_left.png,5,Community 3,NA,TRUE,f,f,NA,NA,NA,NA,6,"15,11,4,3,10,14,2,9,6,8,5,12,13,7,1"
14090,commdev-image-keyboard-response,216,834968,learnblock1,762.7000000476837,img/planet7_left.png,7,Community 3,NA,TRUE,f,f,NA,NA,NA,NA,6,"15,11,4,3,10,14,2,9,6,8,5,12,13,7,1"
14090,commdev-image-keyboard-response,217,836228,learnblock1,739.7999999523163,img/planet1_right.png,1,Community 3,NA,FALSE,f,j,NA,NA,NA,NA,6,"15,11,4,3,10,14,2,9,6,8,5,12,13,7,1"
14090,commdev-image-keyboard-response,218,837488,learnblock1,968.2000000476837,img/planet12_right.png,12,Community 3,NA,TRUE,j,j,NA,NA,NA,NA,6,"15,11,4,3,10,14,2,9,6,8,5,12,13,7,1"
14090,commdev-image-keyboard-response,219,838748,learnblock1,1079.7000000476837,img/planet13_right.png,13,Community 3,NA,TRUE,j,j,NA,NA,NA,NA,6,"15,11,4,3,10,14,2,9,6,8,5,12,13,7,1"
14090,commdev-image-keyboard-response,220,840001,learnblock1,777.2999999523163,img/planet7_left.png,7,Community 3,NA,TRUE,f,f,NA,NA,NA,NA,6,"15,11,4,3,10,14,2,9,6,8,5,12,13,7,1"
14090,commdev-image-keyboard-response,221,841252,learnblock1,624.3000001907349,img/planet5_right.png,5,Community 3,NA,TRUE,j,j,NA,NA,NA,NA,6,"15,11,4,3,10,14,2,9,6,8,5,12,13,7,1"
14090,commdev-image-keyboard-response,222,842508,learnblock1,538.0999999046326,img/planet13_left.png,13,Community 3,NA,TRUE,f,f,NA,NA,NA,NA,6,"15,11,4,3,10,14,2,9,6,8,5,12,13,7,1"
14090,commdev-image-keyboard-response,223,843762,learnblock1,722.5999999046326,img/planet7_right.png,7,Community 3,NA,TRUE,j,j,NA,NA,NA,NA,6,"15,11,4,3,10,14,2,9,6,8,5,12,13,7,1"
14090,commdev-image-keyboard-response,224,845014,learnblock1,568.7999999523163,img/planet1_left.png,1,Community 3,NA,TRUE,f,f,NA,NA,NA,NA,6,"15,11,4,3,10,14,2,9,6,8,5,12,13,7,1"
14090,commdev-image-keyboard-response,225,846273,learnblock1,508.80000019073486,img/planet5_left.png,5,Community 3,NA,FALSE,j,f,NA,NA,NA,NA,6,"15,11,4,3,10,14,2,9,6,8,5,12,13,7,1"
14090,commdev-image-keyboard-response,226,847527,learnblock1,542.5999999046326,img/planet10_right.png,10,Community 1,NA,FALSE,f,j,NA,NA,NA,NA,6,"15,11,4,3,10,14,2,9,6,8,5,12,13,7,1"
14090,commdev-image-keyboard-response,227,848787,learnblock1,1091.7000000476837,img/planet15_right.png,15,Community 1,NA,FALSE,f,j,NA,NA,NA,NA,6,"15,11,4,3,10,14,2,9,6,8,5,12,13,7,1"
14090,commdev-image-keyboard-response,228,850046,learnblock1,761.3999998569489,img/planet11_left.png,11,Community 1,NA,FALSE,j,f,NA,NA,NA,NA,6,"15,11,4,3,10,14,2,9,6,8,5,12,13,7,1"
14090,commdev-image-keyboard-response,229,851302,learnblock1,826.2999999523163,img/planet15_left.png,15,Community 1,NA,TRUE,f,f,NA,NA,NA,NA,6,"15,11,4,3,10,14,2,9,6,8,5,12,13,7,1"
14090,commdev-image-keyboard-response,230,852563,learnblock1,516.9000000953674,img/planet10_left.png,10,Community 1,NA,TRUE,f,f,NA,NA,NA,NA,6,"15,11,4,3,10,14,2,9,6,8,5,12,13,7,1"
14090,commdev-image-keyboard-response,231,853816,learnblock1,561,img/planet4_left.png,4,Community 1,NA,TRUE,f,f,NA,NA,NA,NA,6,"15,11,4,3,10,14,2,9,6,8,5,12,13,7,1"
14090,commdev-image-keyboard-response,232,855071,learnblock1,467.40000009536743,img/planet15_right.png,15,Community 1,NA,TRUE,j,j,NA,NA,NA,NA,6,"15,11,4,3,10,14,2,9,6,8,5,12,13,7,1"
14090,commdev-image-keyboard-response,233,856333,learnblock1,619.8999998569489,img/planet10_left.png,10,Community 1,NA,TRUE,f,f,NA,NA,NA,NA,6,"15,11,4,3,10,14,2,9,6,8,5,12,13,7,1"
14090,commdev-image-keyboard-response,234,857586,learnblock1,493.2999999523163,img/planet4_left.png,4,Community 1,NA,FALSE,j,f,NA,NA,NA,NA,6,"15,11,4,3,10,14,2,9,6,8,5,12,13,7,1"
14090,commdev-image-keyboard-response,235,858843,learnblock1,478.09999990463257,img/planet11_right.png,11,Community 1,NA,FALSE,f,j,NA,NA,NA,NA,6,"15,11,4,3,10,14,2,9,6,8,5,12,13,7,1"
14090,commdev-image-keyboard-response,236,860102,learnblock1,943.8000001907349,img/planet3_left.png,3,Community 1,NA,TRUE,f,f,NA,NA,NA,NA,6,"15,11,4,3,10,14,2,9,6,8,5,12,13,7,1"
14090,commdev-image-keyboard-response,237,861359,learnblock1,741.9000000953674,img/planet15_right.png,15,Community 1,NA,TRUE,j,j,NA,NA,NA,NA,6,"15,11,4,3,10,14,2,9,6,8,5,12,13,7,1"
14090,commdev-image-keyboard-response,238,862618,learnblock1,649.7999999523163,img/planet11_right.png,11,Community 1,NA,FALSE,f,j,NA,NA,NA,NA,6,"15,11,4,3,10,14,2,9,6,8,5,12,13,7,1"
14090,commdev-image-keyboard-response,239,863872,learnblock1,409.59999990463257,img/planet4_right.png,4,Community 1,NA,TRUE,j,j,NA,NA,NA,NA,6,"15,11,4,3,10,14,2,9,6,8,5,12,13,7,1"
14090,commdev-image-keyboard-response,240,865125,learnblock1,688,img/planet3_left.png,3,Community 1,NA,TRUE,f,f,NA,NA,NA,NA,6,"15,11,4,3,10,14,2,9,6,8,5,12,13,7,1"
14090,commdev-image-keyboard-response,241,866387,learnblock1,712.7999999523163,img/planet15_left.png,15,Community 1,NA,TRUE,f,f,NA,NA,NA,NA,6,"15,11,4,3,10,14,2,9,6,8,5,12,13,7,1"
14090,commdev-image-keyboard-response,242,867640,learnblock1,616.3999998569489,img/planet4_right.png,4,Community 1,NA,TRUE,j,j,NA,NA,NA,NA,6,"15,11,4,3,10,14,2,9,6,8,5,12,13,7,1"
14090,commdev-image-keyboard-response,243,868898,learnblock1,764.7000000476837,img/planet11_right.png,11,Community 1,NA,TRUE,j,j,NA,NA,NA,NA,6,"15,11,4,3,10,14,2,9,6,8,5,12,13,7,1"
14090,commdev-image-keyboard-response,244,870154,learnblock1,779,img/planet10_left.png,10,Community 1,NA,TRUE,f,f,NA,NA,NA,NA,6,"15,11,4,3,10,14,2,9,6,8,5,12,13,7,1"
14090,commdev-image-keyboard-response,245,871406,learnblock1,727.7000000476837,img/planet5_left.png,5,Community 3,NA,TRUE,f,f,NA,NA,NA,NA,6,"15,11,4,3,10,14,2,9,6,8,5,12,13,7,1"
14090,commdev-image-keyboard-response,246,872665,learnblock1,720.7000000476837,img/planet7_right.png,7,Community 3,NA,TRUE,j,j,NA,NA,NA,NA,6,"15,11,4,3,10,14,2,9,6,8,5,12,13,7,1"
14090,commdev-image-keyboard-response,247,873919,learnblock1,766.0999999046326,img/planet5_right.png,5,Community 3,NA,FALSE,f,j,NA,NA,NA,NA,6,"15,11,4,3,10,14,2,9,6,8,5,12,13,7,1"
14090,commdev-image-keyboard-response,248,875182,learnblock1,963.4000000953674,img/planet1_right.png,1,Community 3,NA,TRUE,j,j,NA,NA,NA,NA,6,"15,11,4,3,10,14,2,9,6,8,5,12,13,7,1"
14090,commdev-image-keyboard-response,249,876440,learnblock1,849.5,img/planet12_left.png,12,Community 3,NA,TRUE,f,f,NA,NA,NA,NA,6,"15,11,4,3,10,14,2,9,6,8,5,12,13,7,1"
14090,commdev-image-keyboard-response,250,877695,learnblock1,833.8999998569489,img/planet7_right.png,7,Community 3,NA,TRUE,j,j,NA,NA,NA,NA,6,"15,11,4,3,10,14,2,9,6,8,5,12,13,7,1"
14090,commdev-image-keyboard-response,251,878955,learnblock1,773.2000000476837,img/planet5_left.png,5,Community 3,NA,TRUE,f,f,NA,NA,NA,NA,6,"15,11,4,3,10,14,2,9,6,8,5,12,13,7,1"
14090,commdev-image-keyboard-response,252,880213,learnblock1,842.3000001907349,img/planet7_left.png,7,Community 3,NA,TRUE,f,f,NA,NA,NA,NA,6,"15,11,4,3,10,14,2,9,6,8,5,12,13,7,1"
14090,commdev-image-keyboard-response,253,881466,learnblock1,727.0999999046326,img/planet1_left.png,1,Community 3,NA,TRUE,f,f,NA,NA,NA,NA,6,"15,11,4,3,10,14,2,9,6,8,5,12,13,7,1"
14090,commdev-image-keyboard-response,254,882727,learnblock1,719.2999999523163,img/planet5_left.png,5,Community 3,NA,TRUE,f,f,NA,NA,NA,NA,6,"15,11,4,3,10,14,2,9,6,8,5,12,13,7,1"
14090,commdev-image-keyboard-response,255,883995,learnblock1,724.0999999046326,img/planet1_left.png,1,Community 3,NA,TRUE,f,f,NA,NA,NA,NA,6,"15,11,4,3,10,14,2,9,6,8,5,12,13,7,1"
14090,commdev-image-keyboard-response,256,885251,learnblock1,579,img/planet12_left.png,12,Community 3,NA,TRUE,f,f,NA,NA,NA,NA,6,"15,11,4,3,10,14,2,9,6,8,5,12,13,7,1"
14090,commdev-image-keyboard-response,257,886508,learnblock1,524.7999999523163,img/planet13_right.png,13,Community 3,NA,TRUE,j,j,NA,NA,NA,NA,6,"15,11,4,3,10,14,2,9,6,8,5,12,13,7,1"
14090,commdev-image-keyboard-response,258,887762,learnblock1,908.6000001430511,img/planet5_left.png,5,Community 3,NA,TRUE,f,f,NA,NA,NA,NA,6,"15,11,4,3,10,14,2,9,6,8,5,12,13,7,1"
14090,commdev-image-keyboard-response,259,889019,learnblock1,927.9000000953674,img/planet7_left.png,7,Community 3,NA,TRUE,f,f,NA,NA,NA,NA,6,"15,11,4,3,10,14,2,9,6,8,5,12,13,7,1"
14090,commdev-image-keyboard-response,260,890283,learnblock1,682.2000000476837,img/planet1_left.png,1,Community 3,NA,TRUE,f,f,NA,NA,NA,NA,6,"15,11,4,3,10,14,2,9,6,8,5,12,13,7,1"
14090,commdev-image-keyboard-response,261,891543,learnblock1,578.4000000953674,img/planet5_left.png,5,Community 3,NA,TRUE,f,f,NA,NA,NA,NA,6,"15,11,4,3,10,14,2,9,6,8,5,12,13,7,1"
14090,commdev-image-keyboard-response,262,892798,learnblock1,691.8999998569489,img/planet1_right.png,1,Community 3,NA,TRUE,j,j,NA,NA,NA,NA,6,"15,11,4,3,10,14,2,9,6,8,5,12,13,7,1"
14090,commdev-image-keyboard-response,263,894067,learnblock1,818.2000000476837,img/planet12_left.png,12,Community 3,NA,TRUE,f,f,NA,NA,NA,NA,6,"15,11,4,3,10,14,2,9,6,8,5,12,13,7,1"
14090,commdev-image-keyboard-response,264,895324,learnblock1,795.2999999523163,img/planet7_left.png,7,Community 3,NA,TRUE,f,f,NA,NA,NA,NA,6,"15,11,4,3,10,14,2,9,6,8,5,12,13,7,1"
14090,commdev-image-keyboard-response,265,896580,learnblock1,684.7000000476837,img/planet5_right.png,5,Community 3,NA,TRUE,j,j,NA,NA,NA,NA,6,"15,11,4,3,10,14,2,9,6,8,5,12,13,7,1"
14090,commdev-image-keyboard-response,266,897850,learnblock1,590.7999999523163,img/planet1_left.png,1,Community 3,NA,TRUE,f,f,NA,NA,NA,NA,6,"15,11,4,3,10,14,2,9,6,8,5,12,13,7,1"
14090,commdev-image-keyboard-response,267,899101,learnblock1,757.4000000953674,img/planet12_left.png,12,Community 3,NA,TRUE,f,f,NA,NA,NA,NA,6,"15,11,4,3,10,14,2,9,6,8,5,12,13,7,1"
14090,commdev-image-keyboard-response,268,900361,learnblock1,636.0999999046326,img/planet1_right.png,1,Community 3,NA,TRUE,j,j,NA,NA,NA,NA,6,"15,11,4,3,10,14,2,9,6,8,5,12,13,7,1"
14090,commdev-image-keyboard-response,269,901619,learnblock1,927.3000001907349,img/planet7_right.png,7,Community 3,NA,TRUE,j,j,NA,NA,NA,NA,6,"15,11,4,3,10,14,2,9,6,8,5,12,13,7,1"
14090,commdev-image-keyboard-response,270,902875,learnblock1,884.7000000476837,img/planet12_left.png,12,Community 3,NA,TRUE,f,f,NA,NA,NA,NA,6,"15,11,4,3,10,14,2,9,6,8,5,12,13,7,1"
14090,commdev-image-keyboard-response,271,904136,learnblock1,680.1999998092651,img/planet1_right.png,1,Community 3,NA,FALSE,f,j,NA,NA,NA,NA,6,"15,11,4,3,10,14,2,9,6,8,5,12,13,7,1"
14090,commdev-image-keyboard-response,272,905394,learnblock1,1041.2999999523163,img/planet7_left.png,7,Community 3,NA,TRUE,f,f,NA,NA,NA,NA,6,"15,11,4,3,10,14,2,9,6,8,5,12,13,7,1"
14090,commdev-image-keyboard-response,273,906647,learnblock1,740,img/planet1_left.png,1,Community 3,NA,TRUE,f,f,NA,NA,NA,NA,6,"15,11,4,3,10,14,2,9,6,8,5,12,13,7,1"
14090,commdev-image-keyboard-response,274,907903,learnblock1,809.8999998569489,img/planet12_right.png,12,Community 3,NA,TRUE,j,j,NA,NA,NA,NA,6,"15,11,4,3,10,14,2,9,6,8,5,12,13,7,1"
14090,commdev-image-keyboard-response,275,909163,learnblock1,430.30000019073486,img/planet1_left.png,1,Community 3,NA,TRUE,f,f,NA,NA,NA,NA,6,"15,11,4,3,10,14,2,9,6,8,5,12,13,7,1"
14090,commdev-image-keyboard-response,276,910421,learnblock1,625.7000000476837,img/planet5_right.png,5,Community 3,NA,TRUE,j,j,NA,NA,NA,NA,6,"15,11,4,3,10,14,2,9,6,8,5,12,13,7,1"
14090,commdev-image-keyboard-response,277,911675,learnblock1,328.5,img/planet7_left.png,7,Community 3,NA,TRUE,f,f,NA,NA,NA,NA,6,"15,11,4,3,10,14,2,9,6,8,5,12,13,7,1"
14090,commdev-image-keyboard-response,278,912943,learnblock1,513,img/planet13_left.png,13,Community 3,NA,FALSE,j,f,NA,NA,NA,NA,6,"15,11,4,3,10,14,2,9,6,8,5,12,13,7,1"
14090,commdev-image-keyboard-response,279,914200,learnblock1,783.3000001907349,img/planet7_left.png,7,Community 3,NA,TRUE,f,f,NA,NA,NA,NA,6,"15,11,4,3,10,14,2,9,6,8,5,12,13,7,1"
14090,commdev-image-keyboard-response,280,915459,learnblock1,655.3999998569489,img/planet5_right.png,5,Community 3,NA,TRUE,j,j,NA,NA,NA,NA,6,"15,11,4,3,10,14,2,9,6,8,5,12,13,7,1"
14090,commdev-image-keyboard-response,281,916717,learnblock1,1197.7000000476837,img/planet13_right.png,13,Community 3,NA,TRUE,j,j,NA,NA,NA,NA,6,"15,11,4,3,10,14,2,9,6,8,5,12,13,7,1"
14090,commdev-image-keyboard-response,282,917980,learnblock1,811.4000000953674,img/planet1_left.png,1,Community 3,NA,TRUE,f,f,NA,NA,NA,NA,6,"15,11,4,3,10,14,2,9,6,8,5,12,13,7,1"
14090,commdev-image-keyboard-response,283,919236,learnblock1,913.3000001907349,img/planet5_right.png,5,Community 3,NA,TRUE,j,j,NA,NA,NA,NA,6,"15,11,4,3,10,14,2,9,6,8,5,12,13,7,1"
14090,commdev-image-keyboard-response,284,920496,learnblock1,828.5999999046326,img/planet7_left.png,7,Community 3,NA,TRUE,f,f,NA,NA,NA,NA,6,"15,11,4,3,10,14,2,9,6,8,5,12,13,7,1"
14090,commdev-image-keyboard-response,285,921751,learnblock1,763.8000001907349,img/planet13_right.png,13,Community 3,NA,TRUE,j,j,NA,NA,NA,NA,6,"15,11,4,3,10,14,2,9,6,8,5,12,13,7,1"
14090,commdev-image-keyboard-response,286,923005,learnblock1,885.7999999523163,img/planet5_right.png,5,Community 3,NA,TRUE,j,j,NA,NA,NA,NA,6,"15,11,4,3,10,14,2,9,6,8,5,12,13,7,1"
14090,commdev-image-keyboard-response,287,924263,learnblock1,893.2000000476837,img/planet7_right.png,7,Community 3,NA,TRUE,j,j,NA,NA,NA,NA,6,"15,11,4,3,10,14,2,9,6,8,5,12,13,7,1"
14090,commdev-image-keyboard-response,288,925516,learnblock1,768.0999999046326,img/planet1_right.png,1,Community 3,NA,TRUE,j,j,NA,NA,NA,NA,6,"15,11,4,3,10,14,2,9,6,8,5,12,13,7,1"
14090,commdev-image-keyboard-response,289,926779,learnblock1,607.5999999046326,img/planet13_left.png,13,Community 3,NA,TRUE,f,f,NA,NA,NA,NA,6,"15,11,4,3,10,14,2,9,6,8,5,12,13,7,1"
14090,commdev-image-keyboard-response,290,928039,learnblock1,null,img/planet12_left.png,12,Community 3,NA,FALSE,null,f,NA,NA,NA,NA,6,"15,11,4,3,10,14,2,9,6,8,5,12,13,7,1"
14090,commdev-image-keyboard-response,291,929296,learnblock1,61,img/planet7_left.png,7,Community 3,NA,TRUE,f,f,NA,NA,NA,NA,6,"15,11,4,3,10,14,2,9,6,8,5,12,13,7,1"
14090,commdev-image-keyboard-response,292,930556,learnblock1,767.7000000476837,img/planet1_right.png,1,Community 3,NA,TRUE,j,j,NA,NA,NA,NA,6,"15,11,4,3,10,14,2,9,6,8,5,12,13,7,1"
14090,commdev-image-keyboard-response,293,931810,learnblock1,848.0999999046326,img/planet13_right.png,13,Community 3,NA,FALSE,f,j,NA,NA,NA,NA,6,"15,11,4,3,10,14,2,9,6,8,5,12,13,7,1"
14090,commdev-image-keyboard-response,294,933068,learnblock1,831.6000001430511,img/planet5_right.png,5,Community 3,NA,TRUE,j,j,NA,NA,NA,NA,6,"15,11,4,3,10,14,2,9,6,8,5,12,13,7,1"
14090,commdev-image-keyboard-response,295,934336,learnblock1,1015.7999999523163,img/planet10_left.png,10,Community 1,NA,TRUE,f,f,NA,NA,NA,NA,6,"15,11,4,3,10,14,2,9,6,8,5,12,13,7,1"
14090,commdev-image-keyboard-response,296,935588,learnblock1,1051.5999999046326,img/planet5_left.png,5,Community 3,NA,TRUE,f,f,NA,NA,NA,NA,6,"15,11,4,3,10,14,2,9,6,8,5,12,13,7,1"
14090,commdev-image-keyboard-response,297,936845,learnblock1,638.4000000953674,img/planet10_left.png,10,Community 1,NA,TRUE,f,f,NA,NA,NA,NA,6,"15,11,4,3,10,14,2,9,6,8,5,12,13,7,1"
14090,commdev-image-keyboard-response,298,938104,learnblock1,718.7999999523163,img/planet4_left.png,4,Community 1,NA,TRUE,f,f,NA,NA,NA,NA,6,"15,11,4,3,10,14,2,9,6,8,5,12,13,7,1"
14090,commdev-image-keyboard-response,299,939361,learnblock1,646.4000000953674,img/planet11_right.png,11,Community 1,NA,FALSE,f,j,NA,NA,NA,NA,6,"15,11,4,3,10,14,2,9,6,8,5,12,13,7,1"
14090,commdev-image-keyboard-response,300,940617,learnblock1,960.8999998569489,img/planet10_left.png,10,Community 1,NA,TRUE,f,f,NA,NA,NA,NA,6,"15,11,4,3,10,14,2,9,6,8,5,12,13,7,1"
14090,commdev-image-keyboard-response,301,941872,learnblock1,807,img/planet11_right.png,11,Community 1,NA,TRUE,j,j,NA,NA,NA,NA,6,"15,11,4,3,10,14,2,9,6,8,5,12,13,7,1"
14090,commdev-image-keyboard-response,302,943126,learnblock1,1043.7000000476837,img/planet4_left.png,4,Community 1,NA,TRUE,f,f,NA,NA,NA,NA,6,"15,11,4,3,10,14,2,9,6,8,5,12,13,7,1"
14090,commdev-image-keyboard-response,303,944383,learnblock1,960.4000000953674,img/planet11_right.png,11,Community 1,NA,FALSE,f,j,NA,NA,NA,NA,6,"15,11,4,3,10,14,2,9,6,8,5,12,13,7,1"
14090,commdev-image-keyboard-response,304,945636,learnblock1,814.3000001907349,img/planet10_right.png,10,Community 1,NA,TRUE,j,j,NA,NA,NA,NA,6,"15,11,4,3,10,14,2,9,6,8,5,12,13,7,1"
14090,commdev-image-keyboard-response,305,946890,learnblock1,1002.8999998569489,img/planet11_left.png,11,Community 1,NA,TRUE,f,f,NA,NA,NA,NA,6,"15,11,4,3,10,14,2,9,6,8,5,12,13,7,1"
14090,commdev-image-keyboard-response,306,948144,learnblock1,1124.7000000476837,img/planet15_left.png,15,Community 1,NA,TRUE,f,f,NA,NA,NA,NA,6,"15,11,4,3,10,14,2,9,6,8,5,12,13,7,1"
14090,commdev-image-keyboard-response,307,949404,learnblock1,705.7999999523163,img/planet10_right.png,10,Community 1,NA,TRUE,j,j,NA,NA,NA,NA,6,"15,11,4,3,10,14,2,9,6,8,5,12,13,7,1"
14090,commdev-image-keyboard-response,308,950664,learnblock1,896.6000001430511,img/planet4_left.png,4,Community 1,NA,TRUE,f,f,NA,NA,NA,NA,6,"15,11,4,3,10,14,2,9,6,8,5,12,13,7,1"
14090,commdev-image-keyboard-response,309,951926,learnblock1,815,img/planet11_left.png,11,Community 1,NA,TRUE,f,f,NA,NA,NA,NA,6,"15,11,4,3,10,14,2,9,6,8,5,12,13,7,1"
14090,commdev-image-keyboard-response,310,953184,learnblock1,764.4000000953674,img/planet4_left.png,4,Community 1,NA,TRUE,f,f,NA,NA,NA,NA,6,"15,11,4,3,10,14,2,9,6,8,5,12,13,7,1"
14090,commdev-image-keyboard-response,311,954438,learnblock1,626.7999999523163,img/planet15_left.png,15,Community 1,NA,TRUE,f,f,NA,NA,NA,NA,6,"15,11,4,3,10,14,2,9,6,8,5,12,13,7,1"
14090,commdev-image-keyboard-response,312,955694,learnblock1,500.69999980926514,img/planet10_left.png,10,Community 1,NA,TRUE,f,f,NA,NA,NA,NA,6,"15,11,4,3,10,14,2,9,6,8,5,12,13,7,1"
14090,commdev-image-keyboard-response,313,956949,learnblock1,500.5,img/planet11_left.png,11,Community 1,NA,TRUE,f,f,NA,NA,NA,NA,6,"15,11,4,3,10,14,2,9,6,8,5,12,13,7,1"
14090,commdev-image-keyboard-response,314,958207,learnblock1,735.0999999046326,img/planet3_left.png,3,Community 1,NA,TRUE,f,f,NA,NA,NA,NA,6,"15,11,4,3,10,14,2,9,6,8,5,12,13,7,1"
14090,commdev-image-keyboard-response,315,959468,learnblock1,819.5,img/planet11_right.png,11,Community 1,NA,TRUE,j,j,NA,NA,NA,NA,6,"15,11,4,3,10,14,2,9,6,8,5,12,13,7,1"
14090,commdev-image-keyboard-response,316,960727,learnblock1,998.2000000476837,img/planet3_right.png,3,Community 1,NA,TRUE,j,j,NA,NA,NA,NA,6,"15,11,4,3,10,14,2,9,6,8,5,12,13,7,1"
14090,commdev-image-keyboard-response,317,961989,learnblock1,761.5999999046326,img/planet15_right.png,15,Community 1,NA,TRUE,j,j,NA,NA,NA,NA,6,"15,11,4,3,10,14,2,9,6,8,5,12,13,7,1"
14090,commdev-image-keyboard-response,318,963245,learnblock1,588.1000001430511,img/planet3_right.png,3,Community 1,NA,TRUE,j,j,NA,NA,NA,NA,6,"15,11,4,3,10,14,2,9,6,8,5,12,13,7,1"
14090,commdev-image-keyboard-response,319,964505,learnblock1,313.7000000476837,img/planet14_right.png,14,Community 2,NA,TRUE,j,j,NA,NA,NA,NA,6,"15,11,4,3,10,14,2,9,6,8,5,12,13,7,1"
14090,commdev-image-keyboard-response,320,965764,learnblock1,863.2999999523163,img/planet8_right.png,8,Community 2,NA,TRUE,j,j,NA,NA,NA,NA,6,"15,11,4,3,10,14,2,9,6,8,5,12,13,7,1"
14090,commdev-image-keyboard-response,321,967019,learnblock1,627.6000001430511,img/planet6_left.png,6,Community 2,NA,FALSE,j,f,NA,NA,NA,NA,6,"15,11,4,3,10,14,2,9,6,8,5,12,13,7,1"
14090,commdev-image-keyboard-response,322,968271,learnblock1,null,img/planet14_right.png,14,Community 2,NA,FALSE,null,j,NA,NA,NA,NA,6,"15,11,4,3,10,14,2,9,6,8,5,12,13,7,1"
14090,commdev-image-keyboard-response,323,969527,learnblock1,336.7999999523163,img/planet3_right.png,3,Community 1,NA,TRUE,j,j,NA,NA,NA,NA,6,"15,11,4,3,10,14,2,9,6,8,5,12,13,7,1"
14090,commdev-image-keyboard-response,324,970787,learnblock1,740.2000000476837,img/planet15_left.png,15,Community 1,NA,TRUE,f,f,NA,NA,NA,NA,6,"15,11,4,3,10,14,2,9,6,8,5,12,13,7,1"
14090,commdev-image-keyboard-response,325,972046,learnblock1,833.2000000476837,img/planet11_left.png,11,Community 1,NA,TRUE,f,f,NA,NA,NA,NA,6,"15,11,4,3,10,14,2,9,6,8,5,12,13,7,1"
14090,commdev-image-keyboard-response,326,973313,learnblock1,1031.5,img/planet15_right.png,15,Community 1,NA,TRUE,j,j,NA,NA,NA,NA,6,"15,11,4,3,10,14,2,9,6,8,5,12,13,7,1"
14090,commdev-image-keyboard-response,327,974566,learnblock1,743.2000000476837,img/planet4_left.png,4,Community 1,NA,FALSE,j,f,NA,NA,NA,NA,6,"15,11,4,3,10,14,2,9,6,8,5,12,13,7,1"
14090,commdev-image-keyboard-response,328,975825,learnblock1,666.9000000953674,img/planet15_left.png,15,Community 1,NA,TRUE,f,f,NA,NA,NA,NA,6,"15,11,4,3,10,14,2,9,6,8,5,12,13,7,1"
14090,commdev-image-keyboard-response,329,977086,learnblock1,826.4000000953674,img/planet11_right.png,11,Community 1,NA,TRUE,j,j,NA,NA,NA,NA,6,"15,11,4,3,10,14,2,9,6,8,5,12,13,7,1"
14090,commdev-image-keyboard-response,330,978348,learnblock1,605.2000000476837,img/planet4_right.png,4,Community 1,NA,FALSE,f,j,NA,NA,NA,NA,6,"15,11,4,3,10,14,2,9,6,8,5,12,13,7,1"
14090,commdev-image-keyboard-response,331,979601,learnblock1,842.1000001430511,img/planet10_right.png,10,Community 1,NA,TRUE,j,j,NA,NA,NA,NA,6,"15,11,4,3,10,14,2,9,6,8,5,12,13,7,1"
14090,commdev-image-keyboard-response,332,980857,learnblock1,627.7000000476837,img/planet4_right.png,4,Community 1,NA,TRUE,j,j,NA,NA,NA,NA,6,"15,11,4,3,10,14,2,9,6,8,5,12,13,7,1"
14090,commdev-image-keyboard-response,333,982115,learnblock1,714.7999999523163,img/planet15_right.png,15,Community 1,NA,TRUE,j,j,NA,NA,NA,NA,6,"15,11,4,3,10,14,2,9,6,8,5,12,13,7,1"
14090,commdev-image-keyboard-response,334,983376,learnblock1,729.8000001907349,img/planet11_left.png,11,Community 1,NA,TRUE,f,f,NA,NA,NA,NA,6,"15,11,4,3,10,14,2,9,6,8,5,12,13,7,1"
14090,commdev-image-keyboard-response,335,984632,learnblock1,870.8999998569489,img/planet15_left.png,15,Community 1,NA,TRUE,f,f,NA,NA,NA,NA,6,"15,11,4,3,10,14,2,9,6,8,5,12,13,7,1"
14090,commdev-image-keyboard-response,336,985888,learnblock1,817.2999999523163,img/planet11_right.png,11,Community 1,NA,TRUE,j,j,NA,NA,NA,NA,6,"15,11,4,3,10,14,2,9,6,8,5,12,13,7,1"
14090,commdev-image-keyboard-response,337,987146,learnblock1,661.3999998569489,img/planet15_left.png,15,Community 1,NA,TRUE,f,f,NA,NA,NA,NA,6,"15,11,4,3,10,14,2,9,6,8,5,12,13,7,1"
14090,commdev-image-keyboard-response,338,988408,learnblock1,593.1000001430511,img/planet11_right.png,11,Community 1,NA,TRUE,j,j,NA,NA,NA,NA,6,"15,11,4,3,10,14,2,9,6,8,5,12,13,7,1"
14090,commdev-image-keyboard-response,339,989662,learnblock1,247.20000004768372,img/planet3_left.png,3,Community 1,NA,TRUE,f,f,NA,NA,NA,NA,6,"15,11,4,3,10,14,2,9,6,8,5,12,13,7,1"
14090,commdev-image-keyboard-response,340,990919,learnblock1,526.0999999046326,img/planet4_left.png,4,Community 1,NA,FALSE,j,f,NA,NA,NA,NA,6,"15,11,4,3,10,14,2,9,6,8,5,12,13,7,1"
14090,commdev-image-keyboard-response,341,992176,learnblock1,1045.5,img/planet15_right.png,15,Community 1,NA,TRUE,j,j,NA,NA,NA,NA,6,"15,11,4,3,10,14,2,9,6,8,5,12,13,7,1"
14090,commdev-image-keyboard-response,342,993432,learnblock1,814.5999999046326,img/planet11_right.png,11,Community 1,NA,TRUE,j,j,NA,NA,NA,NA,6,"15,11,4,3,10,14,2,9,6,8,5,12,13,7,1"
14090,commdev-image-keyboard-response,343,994696,learnblock1,1014.5999999046326,img/planet15_right.png,15,Community 1,NA,TRUE,j,j,NA,NA,NA,NA,6,"15,11,4,3,10,14,2,9,6,8,5,12,13,7,1"
14090,commdev-image-keyboard-response,344,995952,learnblock1,798.7000000476837,img/planet10_right.png,10,Community 1,NA,FALSE,f,j,NA,NA,NA,NA,6,"15,11,4,3,10,14,2,9,6,8,5,12,13,7,1"
14090,commdev-image-keyboard-response,345,997205,learnblock1,1173.5,img/planet15_right.png,15,Community 1,NA,TRUE,j,j,NA,NA,NA,NA,6,"15,11,4,3,10,14,2,9,6,8,5,12,13,7,1"
14090,commdev-image-keyboard-response,346,998464,learnblock1,948.2999999523163,img/planet11_left.png,11,Community 1,NA,TRUE,f,f,NA,NA,NA,NA,6,"15,11,4,3,10,14,2,9,6,8,5,12,13,7,1"
14090,commdev-image-keyboard-response,347,999725,learnblock1,913.2999999523163,img/planet3_right.png,3,Community 1,NA,TRUE,j,j,NA,NA,NA,NA,6,"15,11,4,3,10,14,2,9,6,8,5,12,13,7,1"
14090,commdev-image-keyboard-response,348,1000983,learnblock1,678.4000000953674,img/planet11_left.png,11,Community 1,NA,FALSE,j,f,NA,NA,NA,NA,6,"15,11,4,3,10,14,2,9,6,8,5,12,13,7,1"
14090,commdev-image-keyboard-response,349,1002238,learnblock1,1044.5999999046326,img/planet15_left.png,15,Community 1,NA,TRUE,f,f,NA,NA,NA,NA,6,"15,11,4,3,10,14,2,9,6,8,5,12,13,7,1"
14090,commdev-image-keyboard-response,350,1003493,learnblock1,599.7000000476837,img/planet10_left.png,10,Community 1,NA,TRUE,f,f,NA,NA,NA,NA,6,"15,11,4,3,10,14,2,9,6,8,5,12,13,7,1"
14090,commdev-image-keyboard-response,351,1004748,learnblock1,826,img/planet15_right.png,15,Community 1,NA,TRUE,j,j,NA,NA,NA,NA,6,"15,11,4,3,10,14,2,9,6,8,5,12,13,7,1"
14090,commdev-image-keyboard-response,352,1006011,learnblock1,692.5999999046326,img/planet10_left.png,10,Community 1,NA,TRUE,f,f,NA,NA,NA,NA,6,"15,11,4,3,10,14,2,9,6,8,5,12,13,7,1"
14090,commdev-image-keyboard-response,353,1007268,learnblock1,673.5,img/planet11_right.png,11,Community 1,NA,TRUE,j,j,NA,NA,NA,NA,6,"15,11,4,3,10,14,2,9,6,8,5,12,13,7,1"
14090,commdev-image-keyboard-response,354,1008525,learnblock1,572.8000001907349,img/planet4_left.png,4,Community 1,NA,TRUE,f,f,NA,NA,NA,NA,6,"15,11,4,3,10,14,2,9,6,8,5,12,13,7,1"
14090,commdev-image-keyboard-response,355,1009777,learnblock1,737.5999999046326,img/planet3_right.png,3,Community 1,NA,TRUE,j,j,NA,NA,NA,NA,6,"15,11,4,3,10,14,2,9,6,8,5,12,13,7,1"
14090,commdev-image-keyboard-response,356,1011030,learnblock1,null,img/planet14_right.png,14,Community 2,NA,FALSE,null,j,NA,NA,NA,NA,6,"15,11,4,3,10,14,2,9,6,8,5,12,13,7,1"
14090,commdev-image-keyboard-response,357,1012292,learnblock1,972.2000000476837,img/planet3_right.png,3,Community 1,NA,TRUE,j,j,NA,NA,NA,NA,6,"15,11,4,3,10,14,2,9,6,8,5,12,13,7,1"
14090,commdev-image-keyboard-response,358,1013550,learnblock1,534.4000000953674,img/planet14_left.png,14,Community 2,NA,FALSE,j,f,NA,NA,NA,NA,6,"15,11,4,3,10,14,2,9,6,8,5,12,13,7,1"
14090,commdev-image-keyboard-response,359,1014806,learnblock1,754.2999999523163,img/planet3_right.png,3,Community 1,NA,TRUE,j,j,NA,NA,NA,NA,6,"15,11,4,3,10,14,2,9,6,8,5,12,13,7,1"
14090,commdev-image-keyboard-response,360,1016058,learnblock1,763.5,img/planet14_right.png,14,Community 2,NA,FALSE,f,j,NA,NA,NA,NA,6,"15,11,4,3,10,14,2,9,6,8,5,12,13,7,1"
14090,commdev-image-keyboard-response,361,1017310,learnblock1,861.8999998569489,img/planet8_left.png,8,Community 2,NA,FALSE,j,f,NA,NA,NA,NA,6,"15,11,4,3,10,14,2,9,6,8,5,12,13,7,1"
14090,commdev-image-keyboard-response,362,1018563,learnblock1,1091.7000000476837,img/planet6_right.png,6,Community 2,NA,FALSE,f,j,NA,NA,NA,NA,6,"15,11,4,3,10,14,2,9,6,8,5,12,13,7,1"
14090,commdev-image-keyboard-response,363,1019816,learnblock1,1086,img/planet14_right.png,14,Community 2,NA,TRUE,j,j,NA,NA,NA,NA,6,"15,11,4,3,10,14,2,9,6,8,5,12,13,7,1"
14090,commdev-image-keyboard-response,364,1021083,learnblock1,null,img/planet2_right.png,2,Community 2,NA,FALSE,null,j,NA,NA,NA,NA,6,"15,11,4,3,10,14,2,9,6,8,5,12,13,7,1"
14090,commdev-image-keyboard-response,365,1022349,learnblock1,155.70000004768372,img/planet8_left.png,8,Community 2,NA,TRUE,f,f,NA,NA,NA,NA,6,"15,11,4,3,10,14,2,9,6,8,5,12,13,7,1"
14090,commdev-image-keyboard-response,366,1023602,learnblock1,77.79999995231628,img/planet6_left.png,6,Community 2,NA,TRUE,f,f,NA,NA,NA,NA,6,"15,11,4,3,10,14,2,9,6,8,5,12,13,7,1"
14090,commdev-image-keyboard-response,367,1024858,learnblock1,813.3999998569489,img/planet8_right.png,8,Community 2,NA,TRUE,j,j,NA,NA,NA,NA,6,"15,11,4,3,10,14,2,9,6,8,5,12,13,7,1"
14090,commdev-image-keyboard-response,368,1026117,learnblock1,864.9000000953674,img/planet14_right.png,14,Community 2,NA,FALSE,f,j,NA,NA,NA,NA,6,"15,11,4,3,10,14,2,9,6,8,5,12,13,7,1"
14090,commdev-image-keyboard-response,369,1027372,learnblock1,953.2999999523163,img/planet3_left.png,3,Community 1,NA,TRUE,f,f,NA,NA,NA,NA,6,"15,11,4,3,10,14,2,9,6,8,5,12,13,7,1"
14090,commdev-image-keyboard-response,370,1028625,learnblock1,786.6000001430511,img/planet4_left.png,4,Community 1,NA,TRUE,f,f,NA,NA,NA,NA,6,"15,11,4,3,10,14,2,9,6,8,5,12,13,7,1"
14090,commdev-image-keyboard-response,371,1029878,learnblock1,739.5999999046326,img/planet3_right.png,3,Community 1,NA,FALSE,f,j,NA,NA,NA,NA,6,"15,11,4,3,10,14,2,9,6,8,5,12,13,7,1"
14090,commdev-image-keyboard-response,372,1031138,learnblock1,976.5,img/planet15_right.png,15,Community 1,NA,TRUE,j,j,NA,NA,NA,NA,6,"15,11,4,3,10,14,2,9,6,8,5,12,13,7,1"
14090,commdev-image-keyboard-response,373,1032396,learnblock1,1026.6000001430511,img/planet10_right.png,10,Community 1,NA,TRUE,j,j,NA,NA,NA,NA,6,"15,11,4,3,10,14,2,9,6,8,5,12,13,7,1"
14090,commdev-image-keyboard-response,374,1033653,learnblock1,853,img/planet11_left.png,11,Community 1,NA,TRUE,f,f,NA,NA,NA,NA,6,"15,11,4,3,10,14,2,9,6,8,5,12,13,7,1"
14090,commdev-image-keyboard-response,375,1034913,learnblock1,791.1999998092651,img/planet10_right.png,10,Community 1,NA,FALSE,f,j,NA,NA,NA,NA,6,"15,11,4,3,10,14,2,9,6,8,5,12,13,7,1"
14090,commdev-image-keyboard-response,376,1036174,learnblock1,767.4000000953674,img/planet11_right.png,11,Community 1,NA,TRUE,j,j,NA,NA,NA,NA,6,"15,11,4,3,10,14,2,9,6,8,5,12,13,7,1"
14090,commdev-image-keyboard-response,377,1037430,learnblock1,679.4000000953674,img/planet3_left.png,3,Community 1,NA,FALSE,j,f,NA,NA,NA,NA,6,"15,11,4,3,10,14,2,9,6,8,5,12,13,7,1"
14090,commdev-image-keyboard-response,378,1038683,learnblock1,812.2000000476837,img/planet15_right.png,15,Community 1,NA,TRUE,j,j,NA,NA,NA,NA,6,"15,11,4,3,10,14,2,9,6,8,5,12,13,7,1"
14090,commdev-image-keyboard-response,379,1039938,learnblock1,707.2000000476837,img/planet10_left.png,10,Community 1,NA,TRUE,f,f,NA,NA,NA,NA,6,"15,11,4,3,10,14,2,9,6,8,5,12,13,7,1"
14090,commdev-image-keyboard-response,380,1041196,learnblock1,868.3000001907349,img/planet5_left.png,5,Community 3,NA,TRUE,f,f,NA,NA,NA,NA,6,"15,11,4,3,10,14,2,9,6,8,5,12,13,7,1"
14090,commdev-image-keyboard-response,381,1042454,learnblock1,833.5999999046326,img/planet13_right.png,13,Community 3,NA,TRUE,j,j,NA,NA,NA,NA,6,"15,11,4,3,10,14,2,9,6,8,5,12,13,7,1"
14090,commdev-image-keyboard-response,382,1043713,learnblock1,870.5,img/planet7_right.png,7,Community 3,NA,FALSE,f,j,NA,NA,NA,NA,6,"15,11,4,3,10,14,2,9,6,8,5,12,13,7,1"
14090,commdev-image-keyboard-response,383,1044966,learnblock1,908.5999999046326,img/planet1_right.png,1,Community 3,NA,TRUE,j,j,NA,NA,NA,NA,6,"15,11,4,3,10,14,2,9,6,8,5,12,13,7,1"
14090,commdev-image-keyboard-response,384,1046225,learnblock1,808.5999999046326,img/planet12_left.png,12,Community 3,NA,TRUE,f,f,NA,NA,NA,NA,6,"15,11,4,3,10,14,2,9,6,8,5,12,13,7,1"
14090,commdev-image-keyboard-response,385,1047488,learnblock1,975,img/planet9_right.png,9,Community 2,NA,FALSE,f,j,NA,NA,NA,NA,6,"15,11,4,3,10,14,2,9,6,8,5,12,13,7,1"
14090,commdev-image-keyboard-response,386,1048744,learnblock1,1080.6000001430511,img/planet2_left.png,2,Community 2,NA,TRUE,f,f,NA,NA,NA,NA,6,"15,11,4,3,10,14,2,9,6,8,5,12,13,7,1"
14090,commdev-image-keyboard-response,387,1050000,learnblock1,937.4000000953674,img/planet8_right.png,8,Community 2,NA,TRUE,j,j,NA,NA,NA,NA,6,"15,11,4,3,10,14,2,9,6,8,5,12,13,7,1"
14090,commdev-image-keyboard-response,388,1051255,learnblock1,1037.7999999523163,img/planet2_left.png,2,Community 2,NA,TRUE,f,f,NA,NA,NA,NA,6,"15,11,4,3,10,14,2,9,6,8,5,12,13,7,1"
14090,commdev-image-keyboard-response,389,1052514,learnblock1,930.8999998569489,img/planet8_right.png,8,Community 2,NA,FALSE,f,j,NA,NA,NA,NA,6,"15,11,4,3,10,14,2,9,6,8,5,12,13,7,1"
14090,commdev-image-keyboard-response,390,1053771,learnblock1,1032,img/planet14_left.png,14,Community 2,NA,TRUE,f,f,NA,NA,NA,NA,6,"15,11,4,3,10,14,2,9,6,8,5,12,13,7,1"
14090,commdev-image-keyboard-response,391,1055038,learnblock1,956.3999998569489,img/planet8_right.png,8,Community 2,NA,TRUE,j,j,NA,NA,NA,NA,6,"15,11,4,3,10,14,2,9,6,8,5,12,13,7,1"
14090,commdev-image-keyboard-response,392,1056292,learnblock1,null,img/planet6_right.png,6,Community 2,NA,FALSE,null,j,NA,NA,NA,NA,6,"15,11,4,3,10,14,2,9,6,8,5,12,13,7,1"
14090,commdev-image-keyboard-response,393,1057548,learnblock1,40.39999985694885,img/planet14_right.png,14,Community 2,NA,TRUE,j,j,NA,NA,NA,NA,6,"15,11,4,3,10,14,2,9,6,8,5,12,13,7,1"
14090,commdev-image-keyboard-response,394,1058802,learnblock1,949.7999999523163,img/planet3_right.png,3,Community 1,NA,TRUE,j,j,NA,NA,NA,NA,6,"15,11,4,3,10,14,2,9,6,8,5,12,13,7,1"
14090,commdev-image-keyboard-response,395,1060058,learnblock1,600.1999998092651,img/planet15_right.png,15,Community 1,NA,TRUE,j,j,NA,NA,NA,NA,6,"15,11,4,3,10,14,2,9,6,8,5,12,13,7,1"
14090,commdev-image-keyboard-response,396,1061316,learnblock1,513.8999998569489,img/planet4_left.png,4,Community 1,NA,TRUE,f,f,NA,NA,NA,NA,6,"15,11,4,3,10,14,2,9,6,8,5,12,13,7,1"
14090,commdev-image-keyboard-response,397,1062585,learnblock1,772.4000000953674,img/planet10_right.png,10,Community 1,NA,TRUE,j,j,NA,NA,NA,NA,6,"15,11,4,3,10,14,2,9,6,8,5,12,13,7,1"
14090,commdev-image-keyboard-response,398,1063841,learnblock1,620.6999998092651,img/planet4_left.png,4,Community 1,NA,TRUE,f,f,NA,NA,NA,NA,6,"15,11,4,3,10,14,2,9,6,8,5,12,13,7,1"
14090,commdev-image-keyboard-response,399,1065098,learnblock1,684.5,img/planet15_left.png,15,Community 1,NA,TRUE,f,f,NA,NA,NA,NA,6,"15,11,4,3,10,14,2,9,6,8,5,12,13,7,1"
14090,commdev-image-keyboard-response,400,1066356,learnblock1,768.5,img/planet11_right.png,11,Community 1,NA,TRUE,j,j,NA,NA,NA,NA,6,"15,11,4,3,10,14,2,9,6,8,5,12,13,7,1"
14090,commdev-image-keyboard-response,401,1067610,learnblock1,559.5,img/planet4_left.png,4,Community 1,NA,TRUE,f,f,NA,NA,NA,NA,6,"15,11,4,3,10,14,2,9,6,8,5,12,13,7,1"
14090,commdev-image-keyboard-response,402,1068868,learnblock1,604.9000000953674,img/planet15_right.png,15,Community 1,NA,TRUE,j,j,NA,NA,NA,NA,6,"15,11,4,3,10,14,2,9,6,8,5,12,13,7,1"
14090,commdev-image-keyboard-response,403,1070122,learnblock1,808.2999999523163,img/planet3_left.png,3,Community 1,NA,TRUE,f,f,NA,NA,NA,NA,6,"15,11,4,3,10,14,2,9,6,8,5,12,13,7,1"
14090,commdev-image-keyboard-response,404,1071381,learnblock1,464,img/planet14_left.png,14,Community 2,NA,FALSE,j,f,NA,NA,NA,NA,6,"15,11,4,3,10,14,2,9,6,8,5,12,13,7,1"
14090,commdev-image-keyboard-response,405,1072635,learnblock1,736.2999999523163,img/planet3_left.png,3,Community 1,NA,TRUE,f,f,NA,NA,NA,NA,6,"15,11,4,3,10,14,2,9,6,8,5,12,13,7,1"
14090,commdev-image-keyboard-response,406,1073889,learnblock1,615.2999999523163,img/planet15_right.png,15,Community 1,NA,TRUE,j,j,NA,NA,NA,NA,6,"15,11,4,3,10,14,2,9,6,8,5,12,13,7,1"
14090,commdev-image-keyboard-response,407,1075146,learnblock1,919,img/planet4_right.png,4,Community 1,NA,FALSE,f,j,NA,NA,NA,NA,6,"15,11,4,3,10,14,2,9,6,8,5,12,13,7,1"
14090,commdev-image-keyboard-response,408,1076398,learnblock1,1246.9000000953674,img/planet3_right.png,3,Community 1,NA,TRUE,j,j,NA,NA,NA,NA,6,"15,11,4,3,10,14,2,9,6,8,5,12,13,7,1"
14090,commdev-image-keyboard-response,409,1077655,learnblock1,909.2000000476837,img/planet14_left.png,14,Community 2,NA,TRUE,f,f,NA,NA,NA,NA,6,"15,11,4,3,10,14,2,9,6,8,5,12,13,7,1"
14090,commdev-image-keyboard-response,410,1078917,learnblock1,1040.7999999523163,img/planet3_left.png,3,Community 1,NA,TRUE,f,f,NA,NA,NA,NA,6,"15,11,4,3,10,14,2,9,6,8,5,12,13,7,1"
14090,commdev-image-keyboard-response,411,1080171,learnblock1,705.2000000476837,img/planet15_left.png,15,Community 1,NA,TRUE,f,f,NA,NA,NA,NA,6,"15,11,4,3,10,14,2,9,6,8,5,12,13,7,1"
14090,commdev-image-keyboard-response,412,1081427,learnblock1,693.7000000476837,img/planet4_right.png,4,Community 1,NA,TRUE,j,j,NA,NA,NA,NA,6,"15,11,4,3,10,14,2,9,6,8,5,12,13,7,1"
14090,commdev-image-keyboard-response,413,1082682,learnblock1,983.6000001430511,img/planet15_right.png,15,Community 1,NA,TRUE,j,j,NA,NA,NA,NA,6,"15,11,4,3,10,14,2,9,6,8,5,12,13,7,1"
14090,commdev-image-keyboard-response,414,1083948,learnblock1,917.5,img/planet10_right.png,10,Community 1,NA,TRUE,j,j,NA,NA,NA,NA,6,"15,11,4,3,10,14,2,9,6,8,5,12,13,7,1"
14090,commdev-image-keyboard-response,415,1085201,learnblock1,706.3000001907349,img/planet15_left.png,15,Community 1,NA,FALSE,j,f,NA,NA,NA,NA,6,"15,11,4,3,10,14,2,9,6,8,5,12,13,7,1"
14090,commdev-image-keyboard-response,416,1086455,learnblock1,896.5,img/planet10_right.png,10,Community 1,NA,TRUE,j,j,NA,NA,NA,NA,6,"15,11,4,3,10,14,2,9,6,8,5,12,13,7,1"
14090,commdev-image-keyboard-response,417,1087712,learnblock1,751.7999999523163,img/planet11_left.png,11,Community 1,NA,TRUE,f,f,NA,NA,NA,NA,6,"15,11,4,3,10,14,2,9,6,8,5,12,13,7,1"
14090,commdev-image-keyboard-response,418,1088967,learnblock1,683.6000001430511,img/planet4_right.png,4,Community 1,NA,FALSE,f,j,NA,NA,NA,NA,6,"15,11,4,3,10,14,2,9,6,8,5,12,13,7,1"
14090,commdev-image-keyboard-response,419,1090225,learnblock1,592.4000000953674,img/planet10_left.png,10,Community 1,NA,FALSE,j,f,NA,NA,NA,NA,6,"15,11,4,3,10,14,2,9,6,8,5,12,13,7,1"
14090,commdev-image-keyboard-response,420,1091480,learnblock1,857.7999999523163,img/planet5_right.png,5,Community 3,NA,FALSE,f,j,NA,NA,NA,NA,6,"15,11,4,3,10,14,2,9,6,8,5,12,13,7,1"
14090,commdev-image-keyboard-response,421,1092732,learnblock1,1128.5,img/planet1_left.png,1,Community 3,NA,FALSE,j,f,NA,NA,NA,NA,6,"15,11,4,3,10,14,2,9,6,8,5,12,13,7,1"
14090,commdev-image-keyboard-response,422,1093998,learnblock1,924.0999999046326,img/planet5_left.png,5,Community 3,NA,TRUE,f,f,NA,NA,NA,NA,6,"15,11,4,3,10,14,2,9,6,8,5,12,13,7,1"
14090,commdev-image-keyboard-response,423,1095261,learnblock1,563.9000000953674,img/planet10_left.png,10,Community 1,NA,TRUE,f,f,NA,NA,NA,NA,6,"15,11,4,3,10,14,2,9,6,8,5,12,13,7,1"
14090,commdev-image-keyboard-response,424,1096518,learnblock1,496.90000009536743,img/planet4_left.png,4,Community 1,NA,TRUE,f,f,NA,NA,NA,NA,6,"15,11,4,3,10,14,2,9,6,8,5,12,13,7,1"
14090,commdev-image-keyboard-response,425,1097773,learnblock1,594.6000001430511,img/planet10_left.png,10,Community 1,NA,TRUE,f,f,NA,NA,NA,NA,6,"15,11,4,3,10,14,2,9,6,8,5,12,13,7,1"
14090,commdev-image-keyboard-response,426,1099028,learnblock1,681.6000001430511,img/planet5_left.png,5,Community 3,NA,TRUE,f,f,NA,NA,NA,NA,6,"15,11,4,3,10,14,2,9,6,8,5,12,13,7,1"
14090,commdev-image-keyboard-response,427,1100287,learnblock1,1011.5999999046326,img/planet7_left.png,7,Community 3,NA,TRUE,f,f,NA,NA,NA,NA,6,"15,11,4,3,10,14,2,9,6,8,5,12,13,7,1"
14090,commdev-image-keyboard-response,428,1101542,learnblock1,784.4000000953674,img/planet5_right.png,5,Community 3,NA,TRUE,j,j,NA,NA,NA,NA,6,"15,11,4,3,10,14,2,9,6,8,5,12,13,7,1"
14090,commdev-image-keyboard-response,429,1102796,learnblock1,1036.9000000953674,img/planet10_right.png,10,Community 1,NA,FALSE,f,j,NA,NA,NA,NA,6,"15,11,4,3,10,14,2,9,6,8,5,12,13,7,1"
14090,commdev-image-keyboard-response,430,1104052,learnblock1,1109.7999999523163,img/planet5_left.png,5,Community 3,NA,TRUE,f,f,NA,NA,NA,NA,6,"15,11,4,3,10,14,2,9,6,8,5,12,13,7,1"
14090,commdev-image-keyboard-response,431,1105312,learnblock1,993.1000001430511,img/planet1_right.png,1,Community 3,NA,TRUE,j,j,NA,NA,NA,NA,6,"15,11,4,3,10,14,2,9,6,8,5,12,13,7,1"
14090,commdev-image-keyboard-response,432,1106568,learnblock1,1046.1999998092651,img/planet13_left.png,13,Community 3,NA,TRUE,f,f,NA,NA,NA,NA,6,"15,11,4,3,10,14,2,9,6,8,5,12,13,7,1"
14090,commdev-image-keyboard-response,433,1107823,learnblock1,834.2999999523163,img/planet5_left.png,5,Community 3,NA,TRUE,f,f,NA,NA,NA,NA,6,"15,11,4,3,10,14,2,9,6,8,5,12,13,7,1"
14090,commdev-image-keyboard-response,434,1109087,learnblock1,705,img/planet13_left.png,13,Community 3,NA,TRUE,f,f,NA,NA,NA,NA,6,"15,11,4,3,10,14,2,9,6,8,5,12,13,7,1"
14090,commdev-image-keyboard-response,435,1110344,learnblock1,631.8999998569489,img/planet5_left.png,5,Community 3,NA,TRUE,f,f,NA,NA,NA,NA,6,"15,11,4,3,10,14,2,9,6,8,5,12,13,7,1"
14090,commdev-image-keyboard-response,436,1111609,learnblock1,519.5999999046326,img/planet7_left.png,7,Community 3,NA,TRUE,f,f,NA,NA,NA,NA,6,"15,11,4,3,10,14,2,9,6,8,5,12,13,7,1"
14090,commdev-image-keyboard-response,437,1112869,learnblock1,565.2999999523163,img/planet5_left.png,5,Community 3,NA,TRUE,f,f,NA,NA,NA,NA,6,"15,11,4,3,10,14,2,9,6,8,5,12,13,7,1"
14090,commdev-image-keyboard-response,438,1114126,learnblock1,577.0999999046326,img/planet10_left.png,10,Community 1,NA,TRUE,f,f,NA,NA,NA,NA,6,"15,11,4,3,10,14,2,9,6,8,5,12,13,7,1"
14090,commdev-image-keyboard-response,439,1115380,learnblock1,603.4000000953674,img/planet15_right.png,15,Community 1,NA,TRUE,j,j,NA,NA,NA,NA,6,"15,11,4,3,10,14,2,9,6,8,5,12,13,7,1"
14090,commdev-image-keyboard-response,440,1116634,learnblock1,902.9000000953674,img/planet10_right.png,10,Community 1,NA,FALSE,f,j,NA,NA,NA,NA,6,"15,11,4,3,10,14,2,9,6,8,5,12,13,7,1"
14090,commdev-image-keyboard-response,441,1117891,learnblock1,null,img/planet15_right.png,15,Community 1,NA,FALSE,null,j,NA,NA,NA,NA,6,"15,11,4,3,10,14,2,9,6,8,5,12,13,7,1"
14090,commdev-image-keyboard-response,442,1119147,learnblock1,104.70000004768372,img/planet11_left.png,11,Community 1,NA,FALSE,j,f,NA,NA,NA,NA,6,"15,11,4,3,10,14,2,9,6,8,5,12,13,7,1"
14090,commdev-image-keyboard-response,443,1120403,learnblock1,605.2000000476837,img/planet10_left.png,10,Community 1,NA,TRUE,f,f,NA,NA,NA,NA,6,"15,11,4,3,10,14,2,9,6,8,5,12,13,7,1"
14090,commdev-image-keyboard-response,444,1121657,learnblock1,845.7000000476837,img/planet15_right.png,15,Community 1,NA,TRUE,j,j,NA,NA,NA,NA,6,"15,11,4,3,10,14,2,9,6,8,5,12,13,7,1"
14090,commdev-image-keyboard-response,445,1122918,learnblock1,811.5999999046326,img/planet10_right.png,10,Community 1,NA,FALSE,f,j,NA,NA,NA,NA,6,"15,11,4,3,10,14,2,9,6,8,5,12,13,7,1"
14090,commdev-image-keyboard-response,446,1124171,learnblock1,null,img/planet15_right.png,15,Community 1,NA,FALSE,null,j,NA,NA,NA,NA,6,"15,11,4,3,10,14,2,9,6,8,5,12,13,7,1"
14090,commdev-image-keyboard-response,447,1125429,learnblock1,782.9000000953674,img/planet3_left.png,3,Community 1,NA,FALSE,j,f,NA,NA,NA,NA,6,"15,11,4,3,10,14,2,9,6,8,5,12,13,7,1"
14090,commdev-image-keyboard-response,448,1126684,learnblock1,675,img/planet14_left.png,14,Community 2,NA,TRUE,f,f,NA,NA,NA,NA,6,"15,11,4,3,10,14,2,9,6,8,5,12,13,7,1"
14090,commdev-image-keyboard-response,449,1127938,learnblock1,630.5,img/planet6_left.png,6,Community 2,NA,FALSE,j,f,NA,NA,NA,NA,6,"15,11,4,3,10,14,2,9,6,8,5,12,13,7,1"
14090,commdev-image-keyboard-response,450,1129193,learnblock1,768.1000001430511,img/planet8_right.png,8,Community 2,NA,TRUE,j,j,NA,NA,NA,NA,6,"15,11,4,3,10,14,2,9,6,8,5,12,13,7,1"
14090,commdev-image-keyboard-response,451,1130459,learnblock1,801.3999998569489,img/planet14_right.png,14,Community 2,NA,TRUE,j,j,NA,NA,NA,NA,6,"15,11,4,3,10,14,2,9,6,8,5,12,13,7,1"
14090,commdev-image-keyboard-response,452,1131712,learnblock1,1065.3999998569489,img/planet3_left.png,3,Community 1,NA,TRUE,f,f,NA,NA,NA,NA,6,"15,11,4,3,10,14,2,9,6,8,5,12,13,7,1"
14090,commdev-image-keyboard-response,453,1132964,learnblock1,1010.9000000953674,img/planet4_right.png,4,Community 1,NA,TRUE,j,j,NA,NA,NA,NA,6,"15,11,4,3,10,14,2,9,6,8,5,12,13,7,1"
14090,commdev-image-keyboard-response,454,1134216,learnblock1,989.7000000476837,img/planet15_right.png,15,Community 1,NA,FALSE,f,j,NA,NA,NA,NA,6,"15,11,4,3,10,14,2,9,6,8,5,12,13,7,1"
14090,commdev-image-keyboard-response,455,1135470,learnblock1,968.7000000476837,img/planet4_right.png,4,Community 1,NA,TRUE,j,j,NA,NA,NA,NA,6,"15,11,4,3,10,14,2,9,6,8,5,12,13,7,1"
14090,commdev-image-keyboard-response,456,1136722,learnblock1,863.7000000476837,img/planet15_left.png,15,Community 1,NA,TRUE,f,f,NA,NA,NA,NA,6,"15,11,4,3,10,14,2,9,6,8,5,12,13,7,1"
14090,commdev-image-keyboard-response,457,1137978,learnblock1,967.2999999523163,img/planet10_right.png,10,Community 1,NA,TRUE,j,j,NA,NA,NA,NA,6,"15,11,4,3,10,14,2,9,6,8,5,12,13,7,1"
14090,commdev-image-keyboard-response,458,1139232,learnblock1,843.2999999523163,img/planet11_right.png,11,Community 1,NA,TRUE,j,j,NA,NA,NA,NA,6,"15,11,4,3,10,14,2,9,6,8,5,12,13,7,1"
14090,commdev-image-keyboard-response,459,1140485,learnblock1,1029.7999999523163,img/planet4_right.png,4,Community 1,NA,TRUE,j,j,NA,NA,NA,NA,6,"15,11,4,3,10,14,2,9,6,8,5,12,13,7,1"
14090,commdev-image-keyboard-response,460,1141739,learnblock1,771.9000000953674,img/planet11_right.png,11,Community 1,NA,TRUE,j,j,NA,NA,NA,NA,6,"15,11,4,3,10,14,2,9,6,8,5,12,13,7,1"
14090,commdev-image-keyboard-response,461,1143003,learnblock1,644.4000000953674,img/planet3_left.png,3,Community 1,NA,FALSE,j,f,NA,NA,NA,NA,6,"15,11,4,3,10,14,2,9,6,8,5,12,13,7,1"
14090,commdev-image-keyboard-response,462,1144266,learnblock1,857.5999999046326,img/planet15_right.png,15,Community 1,NA,TRUE,j,j,NA,NA,NA,NA,6,"15,11,4,3,10,14,2,9,6,8,5,12,13,7,1"
14090,commdev-image-keyboard-response,463,1145519,learnblock1,885.2999999523163,img/planet4_right.png,4,Community 1,NA,TRUE,j,j,NA,NA,NA,NA,6,"15,11,4,3,10,14,2,9,6,8,5,12,13,7,1"
14090,commdev-image-keyboard-response,464,1146773,learnblock1,1021.7000000476837,img/planet3_right.png,3,Community 1,NA,FALSE,f,j,NA,NA,NA,NA,6,"15,11,4,3,10,14,2,9,6,8,5,12,13,7,1"
14090,commdev-image-keyboard-response,465,1148029,learnblock1,913.7000000476837,img/planet4_left.png,4,Community 1,NA,TRUE,f,f,NA,NA,NA,NA,6,"15,11,4,3,10,14,2,9,6,8,5,12,13,7,1"
14090,commdev-image-keyboard-response,466,1149284,learnblock1,827.5,img/planet15_right.png,15,Community 1,NA,TRUE,j,j,NA,NA,NA,NA,6,"15,11,4,3,10,14,2,9,6,8,5,12,13,7,1"
14090,commdev-image-keyboard-response,467,1150545,learnblock1,733.0999999046326,img/planet10_left.png,10,Community 1,NA,TRUE,f,f,NA,NA,NA,NA,6,"15,11,4,3,10,14,2,9,6,8,5,12,13,7,1"
14090,commdev-image-keyboard-response,468,1151803,learnblock1,888.3000001907349,img/planet11_left.png,11,Community 1,NA,TRUE,f,f,NA,NA,NA,NA,6,"15,11,4,3,10,14,2,9,6,8,5,12,13,7,1"
14090,commdev-image-keyboard-response,469,1153062,learnblock1,null,img/planet3_right.png,3,Community 1,NA,FALSE,null,j,NA,NA,NA,NA,6,"15,11,4,3,10,14,2,9,6,8,5,12,13,7,1"
14090,commdev-image-keyboard-response,470,1154313,learnblock1,132.90000009536743,img/planet15_right.png,15,Community 1,NA,TRUE,j,j,NA,NA,NA,NA,6,"15,11,4,3,10,14,2,9,6,8,5,12,13,7,1"
14090,commdev-image-keyboard-response,471,1155566,learnblock1,593.7999999523163,img/planet10_left.png,10,Community 1,NA,TRUE,f,f,NA,NA,NA,NA,6,"15,11,4,3,10,14,2,9,6,8,5,12,13,7,1"
14090,commdev-image-keyboard-response,472,1156824,learnblock1,402.90000009536743,img/planet4_left.png,4,Community 1,NA,FALSE,j,f,NA,NA,NA,NA,6,"15,11,4,3,10,14,2,9,6,8,5,12,13,7,1"
14090,commdev-image-keyboard-response,473,1158080,learnblock1,545.8999998569489,img/planet10_left.png,10,Community 1,NA,TRUE,f,f,NA,NA,NA,NA,6,"15,11,4,3,10,14,2,9,6,8,5,12,13,7,1"
14090,commdev-image-keyboard-response,474,1159333,learnblock1,737.2000000476837,img/planet5_right.png,5,Community 3,NA,TRUE,j,j,NA,NA,NA,NA,6,"15,11,4,3,10,14,2,9,6,8,5,12,13,7,1"
14090,commdev-image-keyboard-response,475,1160593,learnblock1,null,img/planet1_left.png,1,Community 3,NA,FALSE,null,f,NA,NA,NA,NA,6,"15,11,4,3,10,14,2,9,6,8,5,12,13,7,1"
14090,commdev-image-keyboard-response,476,1161851,learnblock1,360.69999980926514,img/planet7_left.png,7,Community 3,NA,TRUE,f,f,NA,NA,NA,NA,6,"15,11,4,3,10,14,2,9,6,8,5,12,13,7,1"
14090,commdev-image-keyboard-response,477,1163107,learnblock1,736.7000000476837,img/planet5_left.png,5,Community 3,NA,TRUE,f,f,NA,NA,NA,NA,6,"15,11,4,3,10,14,2,9,6,8,5,12,13,7,1"
14090,commdev-image-keyboard-response,478,1164365,learnblock1,551.3000001907349,img/planet10_left.png,10,Community 1,NA,TRUE,f,f,NA,NA,NA,NA,6,"15,11,4,3,10,14,2,9,6,8,5,12,13,7,1"
14090,commdev-image-keyboard-response,479,1165619,learnblock1,579.2999999523163,img/planet11_left.png,11,Community 1,NA,TRUE,f,f,NA,NA,NA,NA,6,"15,11,4,3,10,14,2,9,6,8,5,12,13,7,1"
14090,commdev-image-keyboard-response,480,1166875,learnblock1,821.7000000476837,img/planet3_left.png,3,Community 1,NA,TRUE,f,f,NA,NA,NA,NA,6,"15,11,4,3,10,14,2,9,6,8,5,12,13,7,1"
14090,commdev-image-keyboard-response,481,1168140,learnblock1,894.4000000953674,img/planet15_left.png,15,Community 1,NA,FALSE,j,f,NA,NA,NA,NA,6,"15,11,4,3,10,14,2,9,6,8,5,12,13,7,1"
14090,commdev-image-keyboard-response,482,1169400,learnblock1,935.5999999046326,img/planet4_left.png,4,Community 1,NA,TRUE,f,f,NA,NA,NA,NA,6,"15,11,4,3,10,14,2,9,6,8,5,12,13,7,1"
14090,commdev-image-keyboard-response,483,1170661,learnblock1,572.8999998569489,img/planet11_left.png,11,Community 1,NA,TRUE,f,f,NA,NA,NA,NA,6,"15,11,4,3,10,14,2,9,6,8,5,12,13,7,1"
14090,commdev-image-keyboard-response,484,1171915,learnblock1,603.7999999523163,img/planet15_right.png,15,Community 1,NA,TRUE,j,j,NA,NA,NA,NA,6,"15,11,4,3,10,14,2,9,6,8,5,12,13,7,1"
14090,commdev-image-keyboard-response,485,1173173,learnblock1,776,img/planet11_left.png,11,Community 1,NA,TRUE,f,f,NA,NA,NA,NA,6,"15,11,4,3,10,14,2,9,6,8,5,12,13,7,1"
14090,commdev-image-keyboard-response,486,1174431,learnblock1,650,img/planet3_left.png,3,Community 1,NA,TRUE,f,f,NA,NA,NA,NA,6,"15,11,4,3,10,14,2,9,6,8,5,12,13,7,1"
14090,commdev-image-keyboard-response,487,1175686,learnblock1,549.6999998092651,img/planet15_left.png,15,Community 1,NA,TRUE,f,f,NA,NA,NA,NA,6,"15,11,4,3,10,14,2,9,6,8,5,12,13,7,1"
14090,commdev-image-keyboard-response,488,1176941,learnblock1,473.89999985694885,img/planet4_left.png,4,Community 1,NA,TRUE,f,f,NA,NA,NA,NA,6,"15,11,4,3,10,14,2,9,6,8,5,12,13,7,1"
14090,commdev-image-keyboard-response,489,1178197,learnblock1,617.5,img/planet15_left.png,15,Community 1,NA,TRUE,f,f,NA,NA,NA,NA,6,"15,11,4,3,10,14,2,9,6,8,5,12,13,7,1"
14090,commdev-image-keyboard-response,490,1179452,learnblock1,630.8999998569489,img/planet10_left.png,10,Community 1,NA,TRUE,f,f,NA,NA,NA,NA,6,"15,11,4,3,10,14,2,9,6,8,5,12,13,7,1"
14090,commdev-image-keyboard-response,491,1180708,learnblock1,736.4000000953674,img/planet11_left.png,11,Community 1,NA,TRUE,f,f,NA,NA,NA,NA,6,"15,11,4,3,10,14,2,9,6,8,5,12,13,7,1"
14090,commdev-image-keyboard-response,492,1181966,learnblock1,716.3999998569489,img/planet4_left.png,4,Community 1,NA,TRUE,f,f,NA,NA,NA,NA,6,"15,11,4,3,10,14,2,9,6,8,5,12,13,7,1"
14090,commdev-image-keyboard-response,493,1183219,learnblock1,633.2999999523163,img/planet11_left.png,11,Community 1,NA,TRUE,f,f,NA,NA,NA,NA,6,"15,11,4,3,10,14,2,9,6,8,5,12,13,7,1"
14090,commdev-image-keyboard-response,494,1184479,learnblock1,746.5999999046326,img/planet4_right.png,4,Community 1,NA,TRUE,j,j,NA,NA,NA,NA,6,"15,11,4,3,10,14,2,9,6,8,5,12,13,7,1"
14090,commdev-image-keyboard-response,495,1185734,learnblock1,725.7999999523163,img/planet15_left.png,15,Community 1,NA,TRUE,f,f,NA,NA,NA,NA,6,"15,11,4,3,10,14,2,9,6,8,5,12,13,7,1"
14090,commdev-image-keyboard-response,496,1186996,learnblock1,476.60000014305115,img/planet4_left.png,4,Community 1,NA,TRUE,f,f,NA,NA,NA,NA,6,"15,11,4,3,10,14,2,9,6,8,5,12,13,7,1"
14090,commdev-image-keyboard-response,497,1188255,learnblock1,468.09999990463257,img/planet11_right.png,11,Community 1,NA,FALSE,f,j,NA,NA,NA,NA,6,"15,11,4,3,10,14,2,9,6,8,5,12,13,7,1"
14090,commdev-image-keyboard-response,498,1189510,learnblock1,845.3000001907349,img/planet10_right.png,10,Community 1,NA,FALSE,f,j,NA,NA,NA,NA,6,"15,11,4,3,10,14,2,9,6,8,5,12,13,7,1"
14090,commdev-image-keyboard-response,499,1190770,learnblock1,563.3999998569489,img/planet4_left.png,4,Community 1,NA,FALSE,j,f,NA,NA,NA,NA,6,"15,11,4,3,10,14,2,9,6,8,5,12,13,7,1"
14090,commdev-image-keyboard-response,500,1192022,learnblock1,854.8999998569489,img/planet10_left.png,10,Community 1,NA,TRUE,f,f,NA,NA,NA,NA,6,"15,11,4,3,10,14,2,9,6,8,5,12,13,7,1"
14090,commdev-image-keyboard-response,501,1193280,learnblock1,826.7999999523163,img/planet4_right.png,4,Community 1,NA,TRUE,j,j,NA,NA,NA,NA,6,"15,11,4,3,10,14,2,9,6,8,5,12,13,7,1"
14090,commdev-image-keyboard-response,505,1215589,learnblock2,932.6000001430511,img/planet5_right.png,5,Community 3,NA,FALSE,f,j,NA,NA,NA,NA,6,"15,11,4,3,10,14,2,9,6,8,5,12,13,7,1"
14090,commdev-image-keyboard-response,506,1216843,learnblock2,877,img/planet7_left.png,7,Community 3,NA,TRUE,f,f,NA,NA,NA,NA,6,"15,11,4,3,10,14,2,9,6,8,5,12,13,7,1"
14090,commdev-image-keyboard-response,507,1218098,learnblock2,611.2000000476837,img/planet5_left.png,5,Community 3,NA,TRUE,f,f,NA,NA,NA,NA,6,"15,11,4,3,10,14,2,9,6,8,5,12,13,7,1"
14090,commdev-image-keyboard-response,508,1219351,learnblock2,595.4000000953674,img/planet10_left.png,10,Community 1,NA,FALSE,j,f,NA,NA,NA,NA,6,"15,11,4,3,10,14,2,9,6,8,5,12,13,7,1"
14090,commdev-image-keyboard-response,509,1220611,learnblock2,638.2000000476837,img/planet15_left.png,15,Community 1,NA,TRUE,f,f,NA,NA,NA,NA,6,"15,11,4,3,10,14,2,9,6,8,5,12,13,7,1"
14090,commdev-image-keyboard-response,510,1221868,learnblock2,515.5999999046326,img/planet10_left.png,10,Community 1,NA,TRUE,f,f,NA,NA,NA,NA,6,"15,11,4,3,10,14,2,9,6,8,5,12,13,7,1"
14090,commdev-image-keyboard-response,511,1223121,learnblock2,458.5,img/planet11_left.png,11,Community 1,NA,TRUE,f,f,NA,NA,NA,NA,6,"15,11,4,3,10,14,2,9,6,8,5,12,13,7,1"
14090,commdev-image-keyboard-response,512,1224374,learnblock2,484.7000000476837,img/planet4_right.png,4,Community 1,NA,FALSE,f,j,NA,NA,NA,NA,6,"15,11,4,3,10,14,2,9,6,8,5,12,13,7,1"
14090,commdev-image-keyboard-response,513,1225631,learnblock2,817.8999998569489,img/planet3_right.png,3,Community 1,NA,TRUE,j,j,NA,NA,NA,NA,6,"15,11,4,3,10,14,2,9,6,8,5,12,13,7,1"
14090,commdev-image-keyboard-response,514,1226887,learnblock2,722.9000000953674,img/planet4_left.png,4,Community 1,NA,TRUE,f,f,NA,NA,NA,NA,6,"15,11,4,3,10,14,2,9,6,8,5,12,13,7,1"
14090,commdev-image-keyboard-response,515,1228140,learnblock2,679.1000001430511,img/planet11_left.png,11,Community 1,NA,TRUE,f,f,NA,NA,NA,NA,6,"15,11,4,3,10,14,2,9,6,8,5,12,13,7,1"
14090,commdev-image-keyboard-response,516,1229398,learnblock2,803.1000001430511,img/planet15_right.png,15,Community 1,NA,TRUE,j,j,NA,NA,NA,NA,6,"15,11,4,3,10,14,2,9,6,8,5,12,13,7,1"
14090,commdev-image-keyboard-response,517,1230650,learnblock2,633.9000000953674,img/planet10_left.png,10,Community 1,NA,TRUE,f,f,NA,NA,NA,NA,6,"15,11,4,3,10,14,2,9,6,8,5,12,13,7,1"
14090,commdev-image-keyboard-response,518,1231904,learnblock2,663.5,img/planet4_left.png,4,Community 1,NA,TRUE,f,f,NA,NA,NA,NA,6,"15,11,4,3,10,14,2,9,6,8,5,12,13,7,1"
14090,commdev-image-keyboard-response,519,1233165,learnblock2,632.7999999523163,img/planet10_left.png,10,Community 1,NA,TRUE,f,f,NA,NA,NA,NA,6,"15,11,4,3,10,14,2,9,6,8,5,12,13,7,1"
14090,commdev-image-keyboard-response,520,1234417,learnblock2,836.7000000476837,img/planet5_right.png,5,Community 3,NA,TRUE,j,j,NA,NA,NA,NA,6,"15,11,4,3,10,14,2,9,6,8,5,12,13,7,1"
14090,commdev-image-keyboard-response,521,1235669,learnblock2,852.7999999523163,img/planet1_right.png,1,Community 3,NA,TRUE,j,j,NA,NA,NA,NA,6,"15,11,4,3,10,14,2,9,6,8,5,12,13,7,1"
14090,commdev-image-keyboard-response,522,1236936,learnblock2,1005.4000000953674,img/planet13_left.png,13,Community 3,NA,TRUE,f,f,NA,NA,NA,NA,6,"15,11,4,3,10,14,2,9,6,8,5,12,13,7,1"
14090,commdev-image-keyboard-response,523,1238193,learnblock2,846.4000000953674,img/planet1_left.png,1,Community 3,NA,TRUE,f,f,NA,NA,NA,NA,6,"15,11,4,3,10,14,2,9,6,8,5,12,13,7,1"
14090,commdev-image-keyboard-response,524,1239448,learnblock2,767.4000000953674,img/planet13_right.png,13,Community 3,NA,TRUE,j,j,NA,NA,NA,NA,6,"15,11,4,3,10,14,2,9,6,8,5,12,13,7,1"
14090,commdev-image-keyboard-response,525,1240705,learnblock2,496.7999999523163,img/planet5_right.png,5,Community 3,NA,TRUE,j,j,NA,NA,NA,NA,6,"15,11,4,3,10,14,2,9,6,8,5,12,13,7,1"
14090,commdev-image-keyboard-response,526,1241971,learnblock2,570.2999999523163,img/planet10_right.png,10,Community 1,NA,TRUE,j,j,NA,NA,NA,NA,6,"15,11,4,3,10,14,2,9,6,8,5,12,13,7,1"
14090,commdev-image-keyboard-response,527,1243230,learnblock2,658.2000000476837,img/planet11_left.png,11,Community 1,NA,TRUE,f,f,NA,NA,NA,NA,6,"15,11,4,3,10,14,2,9,6,8,5,12,13,7,1"
14090,commdev-image-keyboard-response,528,1244488,learnblock2,759.3000001907349,img/planet15_right.png,15,Community 1,NA,TRUE,j,j,NA,NA,NA,NA,6,"15,11,4,3,10,14,2,9,6,8,5,12,13,7,1"
14090,commdev-image-keyboard-response,529,1245752,learnblock2,633.9000000953674,img/planet11_left.png,11,Community 1,NA,TRUE,f,f,NA,NA,NA,NA,6,"15,11,4,3,10,14,2,9,6,8,5,12,13,7,1"
14090,commdev-image-keyboard-response,530,1247009,learnblock2,635.5999999046326,img/planet15_left.png,15,Community 1,NA,TRUE,f,f,NA,NA,NA,NA,6,"15,11,4,3,10,14,2,9,6,8,5,12,13,7,1"
14090,commdev-image-keyboard-response,531,1248265,learnblock2,636.5,img/planet3_left.png,3,Community 1,NA,TRUE,f,f,NA,NA,NA,NA,6,"15,11,4,3,10,14,2,9,6,8,5,12,13,7,1"
14090,commdev-image-keyboard-response,532,1249517,learnblock2,608.1000001430511,img/planet4_right.png,4,Community 1,NA,TRUE,j,j,NA,NA,NA,NA,6,"15,11,4,3,10,14,2,9,6,8,5,12,13,7,1"
14090,commdev-image-keyboard-response,533,1250783,learnblock2,759.5,img/planet11_right.png,11,Community 1,NA,FALSE,f,j,NA,NA,NA,NA,6,"15,11,4,3,10,14,2,9,6,8,5,12,13,7,1"
14090,commdev-image-keyboard-response,534,1252035,learnblock2,831.1000001430511,img/planet10_left.png,10,Community 1,NA,TRUE,f,f,NA,NA,NA,NA,6,"15,11,4,3,10,14,2,9,6,8,5,12,13,7,1"
14090,commdev-image-keyboard-response,535,1253292,learnblock2,776.4000000953674,img/planet15_right.png,15,Community 1,NA,TRUE,j,j,NA,NA,NA,NA,6,"15,11,4,3,10,14,2,9,6,8,5,12,13,7,1"
14090,commdev-image-keyboard-response,536,1254553,learnblock2,1011.2000000476837,img/planet10_right.png,10,Community 1,NA,TRUE,j,j,NA,NA,NA,NA,6,"15,11,4,3,10,14,2,9,6,8,5,12,13,7,1"
14090,commdev-image-keyboard-response,537,1255816,learnblock2,714.7000000476837,img/planet11_left.png,11,Community 1,NA,FALSE,j,f,NA,NA,NA,NA,6,"15,11,4,3,10,14,2,9,6,8,5,12,13,7,1"
14090,commdev-image-keyboard-response,538,1257076,learnblock2,861.5,img/planet15_right.png,15,Community 1,NA,TRUE,j,j,NA,NA,NA,NA,6,"15,11,4,3,10,14,2,9,6,8,5,12,13,7,1"
14090,commdev-image-keyboard-response,539,1258333,learnblock2,787.5,img/planet3_right.png,3,Community 1,NA,TRUE,j,j,NA,NA,NA,NA,6,"15,11,4,3,10,14,2,9,6,8,5,12,13,7,1"
14090,commdev-image-keyboard-response,540,1259593,learnblock2,649.8000001907349,img/planet14_left.png,14,Community 2,NA,TRUE,f,f,NA,NA,NA,NA,6,"15,11,4,3,10,14,2,9,6,8,5,12,13,7,1"
14090,commdev-image-keyboard-response,541,1260849,learnblock2,867.6999998092651,img/planet3_right.png,3,Community 1,NA,TRUE,j,j,NA,NA,NA,NA,6,"15,11,4,3,10,14,2,9,6,8,5,12,13,7,1"
14090,commdev-image-keyboard-response,542,1262104,learnblock2,1111.4000000953674,img/planet11_right.png,11,Community 1,NA,TRUE,j,j,NA,NA,NA,NA,6,"15,11,4,3,10,14,2,9,6,8,5,12,13,7,1"
14090,commdev-image-keyboard-response,543,1263361,learnblock2,971,img/planet4_left.png,4,Community 1,NA,TRUE,f,f,NA,NA,NA,NA,6,"15,11,4,3,10,14,2,9,6,8,5,12,13,7,1"
14090,commdev-image-keyboard-response,544,1264617,learnblock2,624.9000000953674,img/planet15_right.png,15,Community 1,NA,TRUE,j,j,NA,NA,NA,NA,6,"15,11,4,3,10,14,2,9,6,8,5,12,13,7,1"
14090,commdev-image-keyboard-response,545,1265880,learnblock2,826.7999999523163,img/planet3_right.png,3,Community 1,NA,FALSE,f,j,NA,NA,NA,NA,6,"15,11,4,3,10,14,2,9,6,8,5,12,13,7,1"
14090,commdev-image-keyboard-response,546,1267139,learnblock2,1035.7999999523163,img/planet14_right.png,14,Community 2,NA,TRUE,j,j,NA,NA,NA,NA,6,"15,11,4,3,10,14,2,9,6,8,5,12,13,7,1"
14090,commdev-image-keyboard-response,547,1268396,learnblock2,818.2000000476837,img/planet6_right.png,6,Community 2,NA,TRUE,j,j,NA,NA,NA,NA,6,"15,11,4,3,10,14,2,9,6,8,5,12,13,7,1"
14090,commdev-image-keyboard-response,548,1269653,learnblock2,894.7999999523163,img/planet8_right.png,8,Community 2,NA,FALSE,f,j,NA,NA,NA,NA,6,"15,11,4,3,10,14,2,9,6,8,5,12,13,7,1"
14090,commdev-image-keyboard-response,549,1270907,learnblock2,786.2999999523163,img/planet9_left.png,9,Community 2,NA,TRUE,f,f,NA,NA,NA,NA,6,"15,11,4,3,10,14,2,9,6,8,5,12,13,7,1"
14090,commdev-image-keyboard-response,550,1272159,learnblock2,1090.6000001430511,img/planet2_right.png,2,Community 2,NA,TRUE,j,j,NA,NA,NA,NA,6,"15,11,4,3,10,14,2,9,6,8,5,12,13,7,1"
14090,commdev-image-keyboard-response,551,1273416,learnblock2,null,img/planet9_left.png,9,Community 2,NA,FALSE,null,f,NA,NA,NA,NA,6,"15,11,4,3,10,14,2,9,6,8,5,12,13,7,1"
14090,commdev-image-keyboard-response,552,1274686,learnblock2,220.80000019073486,img/planet2_left.png,2,Community 2,NA,TRUE,f,f,NA,NA,NA,NA,6,"15,11,4,3,10,14,2,9,6,8,5,12,13,7,1"
14090,commdev-image-keyboard-response,553,1275946,learnblock2,43.700000047683716,img/planet6_left.png,6,Community 2,NA,TRUE,f,f,NA,NA,NA,NA,6,"15,11,4,3,10,14,2,9,6,8,5,12,13,7,1"
14090,commdev-image-keyboard-response,554,1277208,learnblock2,730.4000000953674,img/planet9_right.png,9,Community 2,NA,FALSE,f,j,NA,NA,NA,NA,6,"15,11,4,3,10,14,2,9,6,8,5,12,13,7,1"
14090,commdev-image-keyboard-response,555,1278463,learnblock2,1113.7999999523163,img/planet6_right.png,6,Community 2,NA,FALSE,f,j,NA,NA,NA,NA,6,"15,11,4,3,10,14,2,9,6,8,5,12,13,7,1"
14090,commdev-image-keyboard-response,556,1279719,learnblock2,1059.7999999523163,img/planet8_right.png,8,Community 2,NA,TRUE,j,j,NA,NA,NA,NA,6,"15,11,4,3,10,14,2,9,6,8,5,12,13,7,1"
14090,commdev-image-keyboard-response,557,1280970,learnblock2,957.5999999046326,img/planet2_right.png,2,Community 2,NA,TRUE,j,j,NA,NA,NA,NA,6,"15,11,4,3,10,14,2,9,6,8,5,12,13,7,1"
14090,commdev-image-keyboard-response,558,1282228,learnblock2,1009.7000000476837,img/planet9_right.png,9,Community 2,NA,TRUE,j,j,NA,NA,NA,NA,6,"15,11,4,3,10,14,2,9,6,8,5,12,13,7,1"
14090,commdev-image-keyboard-response,559,1283488,learnblock2,853.5,img/planet12_right.png,12,Community 3,NA,TRUE,j,j,NA,NA,NA,NA,6,"15,11,4,3,10,14,2,9,6,8,5,12,13,7,1"
14090,commdev-image-keyboard-response,560,1284740,learnblock2,633.7999999523163,img/planet9_right.png,9,Community 2,NA,TRUE,j,j,NA,NA,NA,NA,6,"15,11,4,3,10,14,2,9,6,8,5,12,13,7,1"
14090,commdev-image-keyboard-response,561,1285996,learnblock2,708.6000001430511,img/planet12_left.png,12,Community 3,NA,TRUE,f,f,NA,NA,NA,NA,6,"15,11,4,3,10,14,2,9,6,8,5,12,13,7,1"
14090,commdev-image-keyboard-response,562,1287257,learnblock2,708.2000000476837,img/planet1_left.png,1,Community 3,NA,TRUE,f,f,NA,NA,NA,NA,6,"15,11,4,3,10,14,2,9,6,8,5,12,13,7,1"
14090,commdev-image-keyboard-response,563,1288511,learnblock2,482.2000000476837,img/planet5_left.png,5,Community 3,NA,TRUE,f,f,NA,NA,NA,NA,6,"15,11,4,3,10,14,2,9,6,8,5,12,13,7,1"
14090,commdev-image-keyboard-response,564,1289768,learnblock2,969.3999998569489,img/planet7_left.png,7,Community 3,NA,TRUE,f,f,NA,NA,NA,NA,6,"15,11,4,3,10,14,2,9,6,8,5,12,13,7,1"
14090,commdev-image-keyboard-response,565,1291022,learnblock2,848.1000001430511,img/planet13_left.png,13,Community 3,NA,TRUE,f,f,NA,NA,NA,NA,6,"15,11,4,3,10,14,2,9,6,8,5,12,13,7,1"
14090,commdev-image-keyboard-response,566,1292281,learnblock2,645.1999998092651,img/planet5_right.png,5,Community 3,NA,FALSE,f,j,NA,NA,NA,NA,6,"15,11,4,3,10,14,2,9,6,8,5,12,13,7,1"
14090,commdev-image-keyboard-response,567,1293535,learnblock2,840.0999999046326,img/planet10_left.png,10,Community 1,NA,TRUE,f,f,NA,NA,NA,NA,6,"15,11,4,3,10,14,2,9,6,8,5,12,13,7,1"
14090,commdev-image-keyboard-response,568,1294787,learnblock2,869.5,img/planet11_left.png,11,Community 1,NA,TRUE,f,f,NA,NA,NA,NA,6,"15,11,4,3,10,14,2,9,6,8,5,12,13,7,1"
14090,commdev-image-keyboard-response,569,1296043,learnblock2,800.4000000953674,img/planet10_right.png,10,Community 1,NA,TRUE,j,j,NA,NA,NA,NA,6,"15,11,4,3,10,14,2,9,6,8,5,12,13,7,1"
14090,commdev-image-keyboard-response,570,1297299,learnblock2,892.5999999046326,img/planet5_right.png,5,Community 3,NA,TRUE,j,j,NA,NA,NA,NA,6,"15,11,4,3,10,14,2,9,6,8,5,12,13,7,1"
14090,commdev-image-keyboard-response,571,1298562,learnblock2,822.9000000953674,img/planet7_left.png,7,Community 3,NA,TRUE,f,f,NA,NA,NA,NA,6,"15,11,4,3,10,14,2,9,6,8,5,12,13,7,1"
14090,commdev-image-keyboard-response,572,1299816,learnblock2,706.4000000953674,img/planet5_left.png,5,Community 3,NA,TRUE,f,f,NA,NA,NA,NA,6,"15,11,4,3,10,14,2,9,6,8,5,12,13,7,1"
14090,commdev-image-keyboard-response,573,1301085,learnblock2,643.8999998569489,img/planet13_right.png,13,Community 3,NA,TRUE,j,j,NA,NA,NA,NA,6,"15,11,4,3,10,14,2,9,6,8,5,12,13,7,1"
14090,commdev-image-keyboard-response,574,1302342,learnblock2,505.7999999523163,img/planet5_right.png,5,Community 3,NA,FALSE,f,j,NA,NA,NA,NA,6,"15,11,4,3,10,14,2,9,6,8,5,12,13,7,1"
14090,commdev-image-keyboard-response,575,1303600,learnblock2,744.7999999523163,img/planet13_right.png,13,Community 3,NA,TRUE,j,j,NA,NA,NA,NA,6,"15,11,4,3,10,14,2,9,6,8,5,12,13,7,1"
14090,commdev-image-keyboard-response,576,1304853,learnblock2,786.1000001430511,img/planet7_right.png,7,Community 3,NA,TRUE,j,j,NA,NA,NA,NA,6,"15,11,4,3,10,14,2,9,6,8,5,12,13,7,1"
14090,commdev-image-keyboard-response,577,1306114,learnblock2,749.5999999046326,img/planet13_right.png,13,Community 3,NA,TRUE,j,j,NA,NA,NA,NA,6,"15,11,4,3,10,14,2,9,6,8,5,12,13,7,1"
14090,commdev-image-keyboard-response,578,1307383,learnblock2,733.5,img/planet12_right.png,12,Community 3,NA,TRUE,j,j,NA,NA,NA,NA,6,"15,11,4,3,10,14,2,9,6,8,5,12,13,7,1"
14090,commdev-image-keyboard-response,579,1308641,learnblock2,869,img/planet1_right.png,1,Community 3,NA,TRUE,j,j,NA,NA,NA,NA,6,"15,11,4,3,10,14,2,9,6,8,5,12,13,7,1"
14090,commdev-image-keyboard-response,580,1309893,learnblock2,859.7999999523163,img/planet12_right.png,12,Community 3,NA,TRUE,j,j,NA,NA,NA,NA,6,"15,11,4,3,10,14,2,9,6,8,5,12,13,7,1"
14090,commdev-image-keyboard-response,581,1311147,learnblock2,784.7000000476837,img/planet9_right.png,9,Community 2,NA,TRUE,j,j,NA,NA,NA,NA,6,"15,11,4,3,10,14,2,9,6,8,5,12,13,7,1"
14090,commdev-image-keyboard-response,582,1312407,learnblock2,583.0999999046326,img/planet2_left.png,2,Community 2,NA,TRUE,f,f,NA,NA,NA,NA,6,"15,11,4,3,10,14,2,9,6,8,5,12,13,7,1"
14090,commdev-image-keyboard-response,583,1313662,learnblock2,365.5,img/planet9_right.png,9,Community 2,NA,TRUE,j,j,NA,NA,NA,NA,6,"15,11,4,3,10,14,2,9,6,8,5,12,13,7,1"
14090,commdev-image-keyboard-response,584,1314917,learnblock2,605.4000000953674,img/planet8_right.png,8,Community 2,NA,FALSE,f,j,NA,NA,NA,NA,6,"15,11,4,3,10,14,2,9,6,8,5,12,13,7,1"
14090,commdev-image-keyboard-response,585,1316173,learnblock2,768.2000000476837,img/planet2_left.png,2,Community 2,NA,TRUE,f,f,NA,NA,NA,NA,6,"15,11,4,3,10,14,2,9,6,8,5,12,13,7,1"
14090,commdev-image-keyboard-response,586,1317435,learnblock2,826.0999999046326,img/planet6_right.png,6,Community 2,NA,FALSE,f,j,NA,NA,NA,NA,6,"15,11,4,3,10,14,2,9,6,8,5,12,13,7,1"
14090,commdev-image-keyboard-response,587,1318695,learnblock2,885.7999999523163,img/planet8_left.png,8,Community 2,NA,TRUE,f,f,NA,NA,NA,NA,6,"15,11,4,3,10,14,2,9,6,8,5,12,13,7,1"
14090,commdev-image-keyboard-response,588,1319946,learnblock2,720.8999998569489,img/planet9_right.png,9,Community 2,NA,TRUE,j,j,NA,NA,NA,NA,6,"15,11,4,3,10,14,2,9,6,8,5,12,13,7,1"
14090,commdev-image-keyboard-response,589,1321204,learnblock2,862.7000000476837,img/planet8_left.png,8,Community 2,NA,TRUE,f,f,NA,NA,NA,NA,6,"15,11,4,3,10,14,2,9,6,8,5,12,13,7,1"
14090,commdev-image-keyboard-response,590,1322466,learnblock2,847,img/planet9_left.png,9,Community 2,NA,FALSE,j,f,NA,NA,NA,NA,6,"15,11,4,3,10,14,2,9,6,8,5,12,13,7,1"
14090,commdev-image-keyboard-response,591,1323720,learnblock2,974.5,img/planet12_right.png,12,Community 3,NA,FALSE,f,j,NA,NA,NA,NA,6,"15,11,4,3,10,14,2,9,6,8,5,12,13,7,1"
14090,commdev-image-keyboard-response,592,1324988,learnblock2,640.5,img/planet9_right.png,9,Community 2,NA,TRUE,j,j,NA,NA,NA,NA,6,"15,11,4,3,10,14,2,9,6,8,5,12,13,7,1"
14090,commdev-image-keyboard-response,593,1326247,learnblock2,245.59999990463257,img/planet6_left.png,6,Community 2,NA,TRUE,f,f,NA,NA,NA,NA,6,"15,11,4,3,10,14,2,9,6,8,5,12,13,7,1"
14090,commdev-image-keyboard-response,594,1327505,learnblock2,347.90000009536743,img/planet14_left.png,14,Community 2,NA,FALSE,j,f,NA,NA,NA,NA,6,"15,11,4,3,10,14,2,9,6,8,5,12,13,7,1"
14090,commdev-image-keyboard-response,595,1328760,learnblock2,414.7000000476837,img/planet6_right.png,6,Community 2,NA,FALSE,f,j,NA,NA,NA,NA,6,"15,11,4,3,10,14,2,9,6,8,5,12,13,7,1"
14090,commdev-image-keyboard-response,596,1330025,learnblock2,714.7000000476837,img/planet9_left.png,9,Community 2,NA,FALSE,j,f,NA,NA,NA,NA,6,"15,11,4,3,10,14,2,9,6,8,5,12,13,7,1"
14090,commdev-image-keyboard-response,597,1331284,learnblock2,971.5999999046326,img/planet8_right.png,8,Community 2,NA,TRUE,j,j,NA,NA,NA,NA,6,"15,11,4,3,10,14,2,9,6,8,5,12,13,7,1"
14090,commdev-image-keyboard-response,598,1332552,learnblock2,738.7999999523163,img/planet9_left.png,9,Community 2,NA,TRUE,f,f,NA,NA,NA,NA,6,"15,11,4,3,10,14,2,9,6,8,5,12,13,7,1"
14090,commdev-image-keyboard-response,599,1333815,learnblock2,882.2999999523163,img/planet2_left.png,2,Community 2,NA,TRUE,f,f,NA,NA,NA,NA,6,"15,11,4,3,10,14,2,9,6,8,5,12,13,7,1"
14090,commdev-image-keyboard-response,600,1335072,learnblock2,849.0999999046326,img/planet14_left.png,14,Community 2,NA,TRUE,f,f,NA,NA,NA,NA,6,"15,11,4,3,10,14,2,9,6,8,5,12,13,7,1"
14090,commdev-image-keyboard-response,601,1336326,learnblock2,989.7999999523163,img/planet6_right.png,6,Community 2,NA,TRUE,j,j,NA,NA,NA,NA,6,"15,11,4,3,10,14,2,9,6,8,5,12,13,7,1"
14090,commdev-image-keyboard-response,602,1337590,learnblock2,945.2000000476837,img/planet14_left.png,14,Community 2,NA,TRUE,f,f,NA,NA,NA,NA,6,"15,11,4,3,10,14,2,9,6,8,5,12,13,7,1"
14090,commdev-image-keyboard-response,603,1338844,learnblock2,908.9000000953674,img/planet2_right.png,2,Community 2,NA,FALSE,f,j,NA,NA,NA,NA,6,"15,11,4,3,10,14,2,9,6,8,5,12,13,7,1"
14090,commdev-image-keyboard-response,604,1340098,learnblock2,885.9000000953674,img/planet6_left.png,6,Community 2,NA,TRUE,f,f,NA,NA,NA,NA,6,"15,11,4,3,10,14,2,9,6,8,5,12,13,7,1"
14090,commdev-image-keyboard-response,605,1341354,learnblock2,899.3999998569489,img/planet2_left.png,2,Community 2,NA,TRUE,f,f,NA,NA,NA,NA,6,"15,11,4,3,10,14,2,9,6,8,5,12,13,7,1"
14090,commdev-image-keyboard-response,606,1342609,learnblock2,824.7000000476837,img/planet6_right.png,6,Community 2,NA,TRUE,j,j,NA,NA,NA,NA,6,"15,11,4,3,10,14,2,9,6,8,5,12,13,7,1"
14090,commdev-image-keyboard-response,607,1343875,learnblock2,779.0999999046326,img/planet8_left.png,8,Community 2,NA,TRUE,f,f,NA,NA,NA,NA,6,"15,11,4,3,10,14,2,9,6,8,5,12,13,7,1"
14090,commdev-image-keyboard-response,608,1345139,learnblock2,839.2000000476837,img/planet9_right.png,9,Community 2,NA,TRUE,j,j,NA,NA,NA,NA,6,"15,11,4,3,10,14,2,9,6,8,5,12,13,7,1"
14090,commdev-image-keyboard-response,609,1346402,learnblock2,957,img/planet2_right.png,2,Community 2,NA,FALSE,f,j,NA,NA,NA,NA,6,"15,11,4,3,10,14,2,9,6,8,5,12,13,7,1"
14090,commdev-image-keyboard-response,610,1347661,learnblock2,1083,img/planet6_right.png,6,Community 2,NA,TRUE,j,j,NA,NA,NA,NA,6,"15,11,4,3,10,14,2,9,6,8,5,12,13,7,1"
14090,commdev-image-keyboard-response,611,1348921,learnblock2,843.2999999523163,img/planet14_left.png,14,Community 2,NA,TRUE,f,f,NA,NA,NA,NA,6,"15,11,4,3,10,14,2,9,6,8,5,12,13,7,1"
14090,commdev-image-keyboard-response,612,1350175,learnblock2,804.7000000476837,img/planet3_right.png,3,Community 1,NA,TRUE,j,j,NA,NA,NA,NA,6,"15,11,4,3,10,14,2,9,6,8,5,12,13,7,1"
14090,commdev-image-keyboard-response,613,1351440,learnblock2,486.2999999523163,img/planet4_right.png,4,Community 1,NA,TRUE,j,j,NA,NA,NA,NA,6,"15,11,4,3,10,14,2,9,6,8,5,12,13,7,1"
14090,commdev-image-keyboard-response,614,1352701,learnblock2,911.2999999523163,img/planet10_right.png,10,Community 1,NA,TRUE,j,j,NA,NA,NA,NA,6,"15,11,4,3,10,14,2,9,6,8,5,12,13,7,1"
14090,commdev-image-keyboard-response,615,1353957,learnblock2,919.4000000953674,img/planet5_left.png,5,Community 3,NA,TRUE,f,f,NA,NA,NA,NA,6,"15,11,4,3,10,14,2,9,6,8,5,12,13,7,1"
14090,commdev-image-keyboard-response,616,1355215,learnblock2,1073.6000001430511,img/planet1_right.png,1,Community 3,NA,TRUE,j,j,NA,NA,NA,NA,6,"15,11,4,3,10,14,2,9,6,8,5,12,13,7,1"
14090,commdev-image-keyboard-response,617,1356470,learnblock2,855.6000001430511,img/planet5_right.png,5,Community 3,NA,FALSE,f,j,NA,NA,NA,NA,6,"15,11,4,3,10,14,2,9,6,8,5,12,13,7,1"
14090,commdev-image-keyboard-response,618,1357731,learnblock2,841.9000000953674,img/planet1_left.png,1,Community 3,NA,TRUE,f,f,NA,NA,NA,NA,6,"15,11,4,3,10,14,2,9,6,8,5,12,13,7,1"
14090,commdev-image-keyboard-response,619,1358990,learnblock2,767.4000000953674,img/planet7_left.png,7,Community 3,NA,TRUE,f,f,NA,NA,NA,NA,6,"15,11,4,3,10,14,2,9,6,8,5,12,13,7,1"
14090,commdev-image-keyboard-response,620,1360248,learnblock2,627.7000000476837,img/planet5_left.png,5,Community 3,NA,TRUE,f,f,NA,NA,NA,NA,6,"15,11,4,3,10,14,2,9,6,8,5,12,13,7,1"
14090,commdev-image-keyboard-response,621,1361504,learnblock2,528,img/planet10_left.png,10,Community 1,NA,TRUE,f,f,NA,NA,NA,NA,6,"15,11,4,3,10,14,2,9,6,8,5,12,13,7,1"
14090,commdev-image-keyboard-response,622,1362757,learnblock2,null,img/planet11_right.png,11,Community 1,NA,FALSE,null,j,NA,NA,NA,NA,6,"15,11,4,3,10,14,2,9,6,8,5,12,13,7,1"
14090,commdev-image-keyboard-response,623,1364019,learnblock2,99.80000019073486,img/planet4_left.png,4,Community 1,NA,FALSE,j,f,NA,NA,NA,NA,6,"15,11,4,3,10,14,2,9,6,8,5,12,13,7,1"
14090,commdev-image-keyboard-response,624,1365274,learnblock2,761.7999999523163,img/planet10_right.png,10,Community 1,NA,TRUE,j,j,NA,NA,NA,NA,6,"15,11,4,3,10,14,2,9,6,8,5,12,13,7,1"
14090,commdev-image-keyboard-response,625,1366531,learnblock2,839.5999999046326,img/planet11_right.png,11,Community 1,NA,TRUE,j,j,NA,NA,NA,NA,6,"15,11,4,3,10,14,2,9,6,8,5,12,13,7,1"
14090,commdev-image-keyboard-response,626,1367797,learnblock2,754.7000000476837,img/planet3_right.png,3,Community 1,NA,TRUE,j,j,NA,NA,NA,NA,6,"15,11,4,3,10,14,2,9,6,8,5,12,13,7,1"
14090,commdev-image-keyboard-response,627,1369050,learnblock2,645.5,img/planet4_left.png,4,Community 1,NA,TRUE,f,f,NA,NA,NA,NA,6,"15,11,4,3,10,14,2,9,6,8,5,12,13,7,1"
14090,commdev-image-keyboard-response,628,1370305,learnblock2,602.5,img/planet10_left.png,10,Community 1,NA,FALSE,j,f,NA,NA,NA,NA,6,"15,11,4,3,10,14,2,9,6,8,5,12,13,7,1"
14090,commdev-image-keyboard-response,629,1371563,learnblock2,683.3999998569489,img/planet5_left.png,5,Community 3,NA,TRUE,f,f,NA,NA,NA,NA,6,"15,11,4,3,10,14,2,9,6,8,5,12,13,7,1"
14090,commdev-image-keyboard-response,630,1372817,learnblock2,633.7999999523163,img/planet1_left.png,1,Community 3,NA,TRUE,f,f,NA,NA,NA,NA,6,"15,11,4,3,10,14,2,9,6,8,5,12,13,7,1"
14090,commdev-image-keyboard-response,631,1374074,learnblock2,789.5999999046326,img/planet13_right.png,13,Community 3,NA,TRUE,j,j,NA,NA,NA,NA,6,"15,11,4,3,10,14,2,9,6,8,5,12,13,7,1"
14090,commdev-image-keyboard-response,632,1375330,learnblock2,990.5999999046326,img/planet5_left.png,5,Community 3,NA,TRUE,f,f,NA,NA,NA,NA,6,"15,11,4,3,10,14,2,9,6,8,5,12,13,7,1"
14090,commdev-image-keyboard-response,633,1376592,learnblock2,907.3000001907349,img/planet13_left.png,13,Community 3,NA,TRUE,f,f,NA,NA,NA,NA,6,"15,11,4,3,10,14,2,9,6,8,5,12,13,7,1"
14090,commdev-image-keyboard-response,634,1377850,learnblock2,811.1000001430511,img/planet7_right.png,7,Community 3,NA,TRUE,j,j,NA,NA,NA,NA,6,"15,11,4,3,10,14,2,9,6,8,5,12,13,7,1"
14090,commdev-image-keyboard-response,635,1379116,learnblock2,771.2000000476837,img/planet13_right.png,13,Community 3,NA,FALSE,f,j,NA,NA,NA,NA,6,"15,11,4,3,10,14,2,9,6,8,5,12,13,7,1"
14090,commdev-image-keyboard-response,636,1380369,learnblock2,924.5999999046326,img/planet5_right.png,5,Community 3,NA,TRUE,j,j,NA,NA,NA,NA,6,"15,11,4,3,10,14,2,9,6,8,5,12,13,7,1"
14090,commdev-image-keyboard-response,637,1381625,learnblock2,817.7000000476837,img/planet7_left.png,7,Community 3,NA,TRUE,f,f,NA,NA,NA,NA,6,"15,11,4,3,10,14,2,9,6,8,5,12,13,7,1"
14090,commdev-image-keyboard-response,638,1382884,learnblock2,880.6000001430511,img/planet12_left.png,12,Community 3,NA,TRUE,f,f,NA,NA,NA,NA,6,"15,11,4,3,10,14,2,9,6,8,5,12,13,7,1"
14090,commdev-image-keyboard-response,639,1384145,learnblock2,753.4000000953674,img/planet9_left.png,9,Community 2,NA,TRUE,f,f,NA,NA,NA,NA,6,"15,11,4,3,10,14,2,9,6,8,5,12,13,7,1"
14090,commdev-image-keyboard-response,640,1385413,learnblock2,785.2000000476837,img/planet8_right.png,8,Community 2,NA,TRUE,j,j,NA,NA,NA,NA,6,"15,11,4,3,10,14,2,9,6,8,5,12,13,7,1"
14090,commdev-image-keyboard-response,641,1386668,learnblock2,840.5,img/planet9_left.png,9,Community 2,NA,TRUE,f,f,NA,NA,NA,NA,6,"15,11,4,3,10,14,2,9,6,8,5,12,13,7,1"
14090,commdev-image-keyboard-response,642,1387925,learnblock2,928.4000000953674,img/planet8_left.png,8,Community 2,NA,FALSE,j,f,NA,NA,NA,NA,6,"15,11,4,3,10,14,2,9,6,8,5,12,13,7,1"
14090,commdev-image-keyboard-response,643,1389184,learnblock2,745.2999999523163,img/planet2_left.png,2,Community 2,NA,TRUE,f,f,NA,NA,NA,NA,6,"15,11,4,3,10,14,2,9,6,8,5,12,13,7,1"
14090,commdev-image-keyboard-response,644,1390444,learnblock2,714.7000000476837,img/planet9_right.png,9,Community 2,NA,TRUE,j,j,NA,NA,NA,NA,6,"15,11,4,3,10,14,2,9,6,8,5,12,13,7,1"
14090,commdev-image-keyboard-response,645,1391713,learnblock2,476.2999999523163,img/planet2_left.png,2,Community 2,NA,TRUE,f,f,NA,NA,NA,NA,6,"15,11,4,3,10,14,2,9,6,8,5,12,13,7,1"
14090,commdev-image-keyboard-response,646,1392968,learnblock2,709.2000000476837,img/planet6_right.png,6,Community 2,NA,FALSE,f,j,NA,NA,NA,NA,6,"15,11,4,3,10,14,2,9,6,8,5,12,13,7,1"
14090,commdev-image-keyboard-response,647,1394221,learnblock2,701.5,img/planet9_right.png,9,Community 2,NA,TRUE,j,j,NA,NA,NA,NA,6,"15,11,4,3,10,14,2,9,6,8,5,12,13,7,1"
14090,commdev-image-keyboard-response,648,1395474,learnblock2,647.9000000953674,img/planet2_left.png,2,Community 2,NA,FALSE,j,f,NA,NA,NA,NA,6,"15,11,4,3,10,14,2,9,6,8,5,12,13,7,1"
14090,commdev-image-keyboard-response,649,1396740,learnblock2,679.2000000476837,img/planet14_left.png,14,Community 2,NA,TRUE,f,f,NA,NA,NA,NA,6,"15,11,4,3,10,14,2,9,6,8,5,12,13,7,1"
14090,commdev-image-keyboard-response,650,1397993,learnblock2,657.5,img/planet6_left.png,6,Community 2,NA,TRUE,f,f,NA,NA,NA,NA,6,"15,11,4,3,10,14,2,9,6,8,5,12,13,7,1"
14090,commdev-image-keyboard-response,651,1399244,learnblock2,609.2000000476837,img/planet14_left.png,14,Community 2,NA,FALSE,j,f,NA,NA,NA,NA,6,"15,11,4,3,10,14,2,9,6,8,5,12,13,7,1"
14090,commdev-image-keyboard-response,652,1400497,learnblock2,728.7000000476837,img/planet6_left.png,6,Community 2,NA,TRUE,f,f,NA,NA,NA,NA,6,"15,11,4,3,10,14,2,9,6,8,5,12,13,7,1"
14090,commdev-image-keyboard-response,653,1401753,learnblock2,897.2000000476837,img/planet8_right.png,8,Community 2,NA,TRUE,j,j,NA,NA,NA,NA,6,"15,11,4,3,10,14,2,9,6,8,5,12,13,7,1"
14090,commdev-image-keyboard-response,654,1403011,learnblock2,798.2999999523163,img/planet9_right.png,9,Community 2,NA,TRUE,j,j,NA,NA,NA,NA,6,"15,11,4,3,10,14,2,9,6,8,5,12,13,7,1"
14090,commdev-image-keyboard-response,655,1404275,learnblock2,693.6999998092651,img/planet6_right.png,6,Community 2,NA,TRUE,j,j,NA,NA,NA,NA,6,"15,11,4,3,10,14,2,9,6,8,5,12,13,7,1"
14090,commdev-image-keyboard-response,656,1405533,learnblock2,644.0999999046326,img/planet2_right.png,2,Community 2,NA,TRUE,j,j,NA,NA,NA,NA,6,"15,11,4,3,10,14,2,9,6,8,5,12,13,7,1"
14090,commdev-image-keyboard-response,657,1406792,learnblock2,525.7000000476837,img/planet9_right.png,9,Community 2,NA,TRUE,j,j,NA,NA,NA,NA,6,"15,11,4,3,10,14,2,9,6,8,5,12,13,7,1"
14090,commdev-image-keyboard-response,658,1408045,learnblock2,926.5,img/planet8_right.png,8,Community 2,NA,FALSE,f,j,NA,NA,NA,NA,6,"15,11,4,3,10,14,2,9,6,8,5,12,13,7,1"
14090,commdev-image-keyboard-response,659,1409305,learnblock2,806.1000001430511,img/planet6_left.png,6,Community 2,NA,TRUE,f,f,NA,NA,NA,NA,6,"15,11,4,3,10,14,2,9,6,8,5,12,13,7,1"
14090,commdev-image-keyboard-response,660,1410562,learnblock2,645.2999999523163,img/planet8_right.png,8,Community 2,NA,TRUE,j,j,NA,NA,NA,NA,6,"15,11,4,3,10,14,2,9,6,8,5,12,13,7,1"
14090,commdev-image-keyboard-response,661,1411823,learnblock2,713.6000001430511,img/planet6_right.png,6,Community 2,NA,TRUE,j,j,NA,NA,NA,NA,6,"15,11,4,3,10,14,2,9,6,8,5,12,13,7,1"
14090,commdev-image-keyboard-response,662,1413089,learnblock2,714,img/planet8_left.png,8,Community 2,NA,TRUE,f,f,NA,NA,NA,NA,6,"15,11,4,3,10,14,2,9,6,8,5,12,13,7,1"
14090,commdev-image-keyboard-response,663,1414340,learnblock2,744.6000001430511,img/planet2_left.png,2,Community 2,NA,TRUE,f,f,NA,NA,NA,NA,6,"15,11,4,3,10,14,2,9,6,8,5,12,13,7,1"
14090,commdev-image-keyboard-response,664,1415593,learnblock2,864.2000000476837,img/planet6_left.png,6,Community 2,NA,TRUE,f,f,NA,NA,NA,NA,6,"15,11,4,3,10,14,2,9,6,8,5,12,13,7,1"
14090,commdev-image-keyboard-response,665,1416852,learnblock2,624.5999999046326,img/planet2_right.png,2,Community 2,NA,TRUE,j,j,NA,NA,NA,NA,6,"15,11,4,3,10,14,2,9,6,8,5,12,13,7,1"
14090,commdev-image-keyboard-response,666,1418104,learnblock2,500.10000014305115,img/planet14_left.png,14,Community 2,NA,TRUE,f,f,NA,NA,NA,NA,6,"15,11,4,3,10,14,2,9,6,8,5,12,13,7,1"
14090,commdev-image-keyboard-response,667,1419373,learnblock2,608.7999999523163,img/planet6_left.png,6,Community 2,NA,TRUE,f,f,NA,NA,NA,NA,6,"15,11,4,3,10,14,2,9,6,8,5,12,13,7,1"
14090,commdev-image-keyboard-response,668,1420627,learnblock2,447.40000009536743,img/planet14_right.png,14,Community 2,NA,TRUE,j,j,NA,NA,NA,NA,6,"15,11,4,3,10,14,2,9,6,8,5,12,13,7,1"
14090,commdev-image-keyboard-response,669,1421880,learnblock2,465,img/planet8_right.png,8,Community 2,NA,FALSE,f,j,NA,NA,NA,NA,6,"15,11,4,3,10,14,2,9,6,8,5,12,13,7,1"
14090,commdev-image-keyboard-response,670,1423137,learnblock2,993.7999999523163,img/planet14_left.png,14,Community 2,NA,TRUE,f,f,NA,NA,NA,NA,6,"15,11,4,3,10,14,2,9,6,8,5,12,13,7,1"
14090,commdev-image-keyboard-response,671,1424392,learnblock2,922,img/planet3_right.png,3,Community 1,NA,TRUE,j,j,NA,NA,NA,NA,6,"15,11,4,3,10,14,2,9,6,8,5,12,13,7,1"
14090,commdev-image-keyboard-response,672,1425644,learnblock2,943.1999998092651,img/planet15_left.png,15,Community 1,NA,TRUE,f,f,NA,NA,NA,NA,6,"15,11,4,3,10,14,2,9,6,8,5,12,13,7,1"
14090,commdev-image-keyboard-response,673,1426903,learnblock2,838.5,img/planet10_right.png,10,Community 1,NA,TRUE,j,j,NA,NA,NA,NA,6,"15,11,4,3,10,14,2,9,6,8,5,12,13,7,1"
14090,commdev-image-keyboard-response,674,1428155,learnblock2,824.2000000476837,img/planet15_right.png,15,Community 1,NA,FALSE,f,j,NA,NA,NA,NA,6,"15,11,4,3,10,14,2,9,6,8,5,12,13,7,1"
14090,commdev-image-keyboard-response,675,1429415,learnblock2,905.7000000476837,img/planet11_left.png,11,Community 1,NA,TRUE,f,f,NA,NA,NA,NA,6,"15,11,4,3,10,14,2,9,6,8,5,12,13,7,1"
14090,commdev-image-keyboard-response,676,1430674,learnblock2,815.7999999523163,img/planet4_right.png,4,Community 1,NA,TRUE,j,j,NA,NA,NA,NA,6,"15,11,4,3,10,14,2,9,6,8,5,12,13,7,1"
14090,commdev-image-keyboard-response,677,1431929,learnblock2,645.6000001430511,img/planet3_right.png,3,Community 1,NA,TRUE,j,j,NA,NA,NA,NA,6,"15,11,4,3,10,14,2,9,6,8,5,12,13,7,1"
14090,commdev-image-keyboard-response,678,1433195,learnblock2,747.2000000476837,img/planet14_left.png,14,Community 2,NA,TRUE,f,f,NA,NA,NA,NA,6,"15,11,4,3,10,14,2,9,6,8,5,12,13,7,1"
14090,commdev-image-keyboard-response,679,1434449,learnblock2,888.2000000476837,img/planet8_right.png,8,Community 2,NA,TRUE,j,j,NA,NA,NA,NA,6,"15,11,4,3,10,14,2,9,6,8,5,12,13,7,1"
14090,commdev-image-keyboard-response,680,1435709,learnblock2,1055.3999998569489,img/planet14_right.png,14,Community 2,NA,TRUE,j,j,NA,NA,NA,NA,6,"15,11,4,3,10,14,2,9,6,8,5,12,13,7,1"
14090,commdev-image-keyboard-response,681,1436966,learnblock2,null,img/planet2_left.png,2,Community 2,NA,FALSE,null,f,NA,NA,NA,NA,6,"15,11,4,3,10,14,2,9,6,8,5,12,13,7,1"
14090,commdev-image-keyboard-response,682,1438227,learnblock2,125.90000009536743,img/planet14_left.png,14,Community 2,NA,FALSE,j,f,NA,NA,NA,NA,6,"15,11,4,3,10,14,2,9,6,8,5,12,13,7,1"
14090,commdev-image-keyboard-response,683,1439490,learnblock2,172.5,img/planet6_right.png,6,Community 2,NA,FALSE,f,j,NA,NA,NA,NA,6,"15,11,4,3,10,14,2,9,6,8,5,12,13,7,1"
14090,commdev-image-keyboard-response,684,1440744,learnblock2,648.5,img/planet14_left.png,14,Community 2,NA,FALSE,j,f,NA,NA,NA,NA,6,"15,11,4,3,10,14,2,9,6,8,5,12,13,7,1"
14090,commdev-image-keyboard-response,685,1441996,learnblock2,668.2999999523163,img/planet6_left.png,6,Community 2,NA,TRUE,f,f,NA,NA,NA,NA,6,"15,11,4,3,10,14,2,9,6,8,5,12,13,7,1"
14090,commdev-image-keyboard-response,686,1443255,learnblock2,750.0999999046326,img/planet9_right.png,9,Community 2,NA,TRUE,j,j,NA,NA,NA,NA,6,"15,11,4,3,10,14,2,9,6,8,5,12,13,7,1"
14090,commdev-image-keyboard-response,687,1444510,learnblock2,714.5,img/planet12_right.png,12,Community 3,NA,TRUE,j,j,NA,NA,NA,NA,6,"15,11,4,3,10,14,2,9,6,8,5,12,13,7,1"
14090,commdev-image-keyboard-response,688,1445771,learnblock2,847.9000000953674,img/planet9_left.png,9,Community 2,NA,TRUE,f,f,NA,NA,NA,NA,6,"15,11,4,3,10,14,2,9,6,8,5,12,13,7,1"
14090,commdev-image-keyboard-response,689,1447026,learnblock2,1015.0999999046326,img/planet8_left.png,8,Community 2,NA,TRUE,f,f,NA,NA,NA,NA,6,"15,11,4,3,10,14,2,9,6,8,5,12,13,7,1"
14090,commdev-image-keyboard-response,690,1448283,learnblock2,720.0999999046326,img/planet2_left.png,2,Community 2,NA,TRUE,f,f,NA,NA,NA,NA,6,"15,11,4,3,10,14,2,9,6,8,5,12,13,7,1"
14090,commdev-image-keyboard-response,691,1449539,learnblock2,711.0999999046326,img/planet14_left.png,14,Community 2,NA,TRUE,f,f,NA,NA,NA,NA,6,"15,11,4,3,10,14,2,9,6,8,5,12,13,7,1"
14090,commdev-image-keyboard-response,692,1450791,learnblock2,831.5,img/planet6_left.png,6,Community 2,NA,TRUE,f,f,NA,NA,NA,NA,6,"15,11,4,3,10,14,2,9,6,8,5,12,13,7,1"
14090,commdev-image-keyboard-response,693,1452045,learnblock2,722,img/planet8_left.png,8,Community 2,NA,FALSE,j,f,NA,NA,NA,NA,6,"15,11,4,3,10,14,2,9,6,8,5,12,13,7,1"
14090,commdev-image-keyboard-response,694,1453302,learnblock2,938.7999999523163,img/planet6_right.png,6,Community 2,NA,TRUE,j,j,NA,NA,NA,NA,6,"15,11,4,3,10,14,2,9,6,8,5,12,13,7,1"
14090,commdev-image-keyboard-response,695,1454565,learnblock2,727.1000001430511,img/planet14_left.png,14,Community 2,NA,TRUE,f,f,NA,NA,NA,NA,6,"15,11,4,3,10,14,2,9,6,8,5,12,13,7,1"
14090,commdev-image-keyboard-response,696,1455833,learnblock2,924.2000000476837,img/planet8_right.png,8,Community 2,NA,FALSE,f,j,NA,NA,NA,NA,6,"15,11,4,3,10,14,2,9,6,8,5,12,13,7,1"
14090,commdev-image-keyboard-response,697,1457087,learnblock2,920.9000000953674,img/planet9_left.png,9,Community 2,NA,TRUE,f,f,NA,NA,NA,NA,6,"15,11,4,3,10,14,2,9,6,8,5,12,13,7,1"
14090,commdev-image-keyboard-response,698,1458347,learnblock2,819.2000000476837,img/planet12_left.png,12,Community 3,NA,FALSE,j,f,NA,NA,NA,NA,6,"15,11,4,3,10,14,2,9,6,8,5,12,13,7,1"
14090,commdev-image-keyboard-response,699,1459602,learnblock2,1019.5,img/planet1_right.png,1,Community 3,NA,TRUE,j,j,NA,NA,NA,NA,6,"15,11,4,3,10,14,2,9,6,8,5,12,13,7,1"
14090,commdev-image-keyboard-response,700,1460854,learnblock2,923.7999999523163,img/planet12_left.png,12,Community 3,NA,TRUE,f,f,NA,NA,NA,NA,6,"15,11,4,3,10,14,2,9,6,8,5,12,13,7,1"
14090,commdev-image-keyboard-response,701,1462112,learnblock2,1040.2000000476837,img/planet9_left.png,9,Community 2,NA,TRUE,f,f,NA,NA,NA,NA,6,"15,11,4,3,10,14,2,9,6,8,5,12,13,7,1"
14090,commdev-image-keyboard-response,702,1463371,learnblock2,899.5,img/planet8_right.png,8,Community 2,NA,TRUE,j,j,NA,NA,NA,NA,6,"15,11,4,3,10,14,2,9,6,8,5,12,13,7,1"
14090,commdev-image-keyboard-response,703,1464631,learnblock2,823.8999998569489,img/planet6_left.png,6,Community 2,NA,TRUE,f,f,NA,NA,NA,NA,6,"15,11,4,3,10,14,2,9,6,8,5,12,13,7,1"
14090,commdev-image-keyboard-response,704,1465887,learnblock2,887,img/planet8_right.png,8,Community 2,NA,TRUE,j,j,NA,NA,NA,NA,6,"15,11,4,3,10,14,2,9,6,8,5,12,13,7,1"
14090,commdev-image-keyboard-response,705,1467141,learnblock2,662.5,img/planet9_left.png,9,Community 2,NA,TRUE,f,f,NA,NA,NA,NA,6,"15,11,4,3,10,14,2,9,6,8,5,12,13,7,1"
14090,commdev-image-keyboard-response,706,1468398,learnblock2,458.69999980926514,img/planet2_left.png,2,Community 2,NA,FALSE,j,f,NA,NA,NA,NA,6,"15,11,4,3,10,14,2,9,6,8,5,12,13,7,1"
14090,commdev-image-keyboard-response,707,1469657,learnblock2,742.2000000476837,img/planet14_right.png,14,Community 2,NA,TRUE,j,j,NA,NA,NA,NA,6,"15,11,4,3,10,14,2,9,6,8,5,12,13,7,1"
14090,commdev-image-keyboard-response,708,1470915,learnblock2,717.7000000476837,img/planet8_right.png,8,Community 2,NA,TRUE,j,j,NA,NA,NA,NA,6,"15,11,4,3,10,14,2,9,6,8,5,12,13,7,1"
14090,commdev-image-keyboard-response,709,1472171,learnblock2,638.2999999523163,img/planet9_left.png,9,Community 2,NA,TRUE,f,f,NA,NA,NA,NA,6,"15,11,4,3,10,14,2,9,6,8,5,12,13,7,1"
14090,commdev-image-keyboard-response,710,1473426,learnblock2,802.6999998092651,img/planet2_left.png,2,Community 2,NA,TRUE,f,f,NA,NA,NA,NA,6,"15,11,4,3,10,14,2,9,6,8,5,12,13,7,1"
14090,commdev-image-keyboard-response,711,1474688,learnblock2,776.2999999523163,img/planet6_left.png,6,Community 2,NA,TRUE,f,f,NA,NA,NA,NA,6,"15,11,4,3,10,14,2,9,6,8,5,12,13,7,1"
14090,commdev-image-keyboard-response,712,1475946,learnblock2,863.0999999046326,img/planet2_right.png,2,Community 2,NA,TRUE,j,j,NA,NA,NA,NA,6,"15,11,4,3,10,14,2,9,6,8,5,12,13,7,1"
14090,commdev-image-keyboard-response,713,1477201,learnblock2,744.7999999523163,img/planet6_left.png,6,Community 2,NA,TRUE,f,f,NA,NA,NA,NA,6,"15,11,4,3,10,14,2,9,6,8,5,12,13,7,1"
14090,commdev-image-keyboard-response,714,1478466,learnblock2,730.2999999523163,img/planet14_right.png,14,Community 2,NA,TRUE,j,j,NA,NA,NA,NA,6,"15,11,4,3,10,14,2,9,6,8,5,12,13,7,1"
14090,commdev-image-keyboard-response,715,1479726,learnblock2,540.5999999046326,img/planet2_left.png,2,Community 2,NA,TRUE,f,f,NA,NA,NA,NA,6,"15,11,4,3,10,14,2,9,6,8,5,12,13,7,1"
14090,commdev-image-keyboard-response,716,1480994,learnblock2,796,img/planet9_right.png,9,Community 2,NA,TRUE,j,j,NA,NA,NA,NA,6,"15,11,4,3,10,14,2,9,6,8,5,12,13,7,1"
14090,commdev-image-keyboard-response,717,1482248,learnblock2,710.4000000953674,img/planet2_right.png,2,Community 2,NA,FALSE,f,j,NA,NA,NA,NA,6,"15,11,4,3,10,14,2,9,6,8,5,12,13,7,1"
14090,commdev-image-keyboard-response,718,1483514,learnblock2,596.7999999523163,img/planet9_left.png,9,Community 2,NA,FALSE,j,f,NA,NA,NA,NA,6,"15,11,4,3,10,14,2,9,6,8,5,12,13,7,1"
14090,commdev-image-keyboard-response,719,1484777,learnblock2,681.4000000953674,img/planet12_left.png,12,Community 3,NA,TRUE,f,f,NA,NA,NA,NA,6,"15,11,4,3,10,14,2,9,6,8,5,12,13,7,1"
14090,commdev-image-keyboard-response,720,1486034,learnblock2,1188.6000001430511,img/planet7_right.png,7,Community 3,NA,FALSE,f,j,NA,NA,NA,NA,6,"15,11,4,3,10,14,2,9,6,8,5,12,13,7,1"
14090,commdev-image-keyboard-response,721,1487297,learnblock2,771.3999998569489,img/planet1_left.png,1,Community 3,NA,TRUE,f,f,NA,NA,NA,NA,6,"15,11,4,3,10,14,2,9,6,8,5,12,13,7,1"
14090,commdev-image-keyboard-response,722,1488563,learnblock2,731.8000001907349,img/planet12_left.png,12,Community 3,NA,TRUE,f,f,NA,NA,NA,NA,6,"15,11,4,3,10,14,2,9,6,8,5,12,13,7,1"
14090,commdev-image-keyboard-response,723,1489816,learnblock2,546.4000000953674,img/planet9_left.png,9,Community 2,NA,TRUE,f,f,NA,NA,NA,NA,6,"15,11,4,3,10,14,2,9,6,8,5,12,13,7,1"
14090,commdev-image-keyboard-response,724,1491069,learnblock2,938.6000001430511,img/planet8_left.png,8,Community 2,NA,TRUE,f,f,NA,NA,NA,NA,6,"15,11,4,3,10,14,2,9,6,8,5,12,13,7,1"
14090,commdev-image-keyboard-response,725,1492332,learnblock2,695.9000000953674,img/planet14_left.png,14,Community 2,NA,TRUE,f,f,NA,NA,NA,NA,6,"15,11,4,3,10,14,2,9,6,8,5,12,13,7,1"
