subject_id,trial_type,trial_index,time_elapsed,block,rt,stimulus,planet,community,response,correct,key_press,learning_correct_response,parse,init_locations,final_locations,browser_interactions,num_comp,planet_map
15364,commdev-instructions,7,51677,NA,6975.200000047684,"<p>In this game, you are a scientist on board a space shuttle. </p><p> On each mission, you will visit planets all across the universe.</p><img src=""img/controlroom.jpg"" width=300vw>",NA,NA,NA,NA,NA,NA,NA,NA,NA,1,6,"13,2,6,14,8,3,12,1,5,7,10,11,4,15,9"
15364,commdev-instructions,8,58402,NA,4635,"<p>Here are a few planets you might see:</p><img src=""img/practice1.png"" width=200vw><img src=""img/practice2.png"" width=200vw><img src=""img/practice3.png"" width=200vw>",NA,NA,NA,NA,NA,NA,NA,NA,NA,1,6,"13,2,6,14,8,3,12,1,5,7,10,11,4,15,9"
15364,commdev-instructions,9,67250,NA,1450.5,"<p>Your job as a scientist is to record which direction the winds are moving on each planet.</p><p>There are two types of wind directions:</p><img src=""img/practice1_left.png"" width=200vw><img src=""img/practice1_right.png"" width=200vw>",NA,NA,NA,NA,NA,NA,NA,NA,NA,1,6,"13,2,6,14,8,3,12,1,5,7,10,11,4,15,9"
15364,commdev-instructions,10,74631,NA,2496.100000023842,"<p>If the winds are moving this way, press the letter <strong>F</strong> on the keyboard as fast as you can.</p><img src=""img/leftwind.png"" width=250vw>",NA,NA,NA,NA,NA,NA,NA,NA,NA,1,6,"13,2,6,14,8,3,12,1,5,7,10,11,4,15,9"
15364,commdev-instructions,11,80929,NA,1797,"<p>If the winds are moving this way, press the letter <strong>J</strong> on the keyboard as fast as you can.</p><img src=""img/rightwind.png"" width=350vw>",NA,NA,NA,NA,NA,NA,NA,NA,NA,1,6,"13,2,6,14,8,3,12,1,5,7,10,11,4,15,9"
15364,commdev-instructions,12,86962,NA,1600.1000000238419,<p>You will have 1 second to respond. Try to respond before the time runs out!,NA,NA,NA,NA,NA,NA,NA,NA,NA,1,6,"13,2,6,14,8,3,12,1,5,7,10,11,4,15,9"
15364,commdev-instructions,13,94168,NA,1765.7999999523163,<p>The planets you will visit will look different from each other.</p><p>You should respond <strong>only</strong> based on wind direction.,NA,NA,NA,NA,NA,NA,NA,NA,NA,1,6,"13,2,6,14,8,3,12,1,5,7,10,11,4,15,9"
15364,commdev-instructions,14,101924,NA,2587.600000023842,"<p> Ready to start the practice round? </p><p> Remember, press <strong>F</strong> or <strong>J</strong> depending on the wind direction.<br><img src=""img/categorize_planet_example.png""",NA,NA,NA,NA,NA,NA,NA,NA,NA,1,6,"13,2,6,14,8,3,12,1,5,7,10,11,4,15,9"
15364,commdev-instructions,26,159644,NA,2752.8000000715256,"<p>Great, now try a short practice mission. </p><p> This time, you will have 1 second to respond and you won't know whether you pressed the right or wrong key for each planet.</p>",NA,NA,NA,NA,NA,NA,NA,NA,NA,1,6,"13,2,6,14,8,3,12,1,5,7,10,11,4,15,9"
15364,commdev-image-keyboard-response,27,161014,practice,null,img/practice2_left.png,NA,Number not found in mappings,NA,FALSE,null,f,NA,NA,NA,1,6,"13,2,6,14,8,3,12,1,5,7,10,11,4,15,9"
15364,commdev-image-keyboard-response,28,162278,practice,128.70000004768372,img/practice1_left.png,NA,Number not found in mappings,NA,TRUE,f,f,NA,NA,NA,1,6,"13,2,6,14,8,3,12,1,5,7,10,11,4,15,9"
15364,commdev-image-keyboard-response,29,163531,practice,null,img/practice2_left.png,NA,Number not found in mappings,NA,FALSE,null,f,NA,NA,NA,1,6,"13,2,6,14,8,3,12,1,5,7,10,11,4,15,9"
15364,commdev-image-keyboard-response,30,164789,practice,42,img/practice4_right.png,NA,Number not found in mappings,NA,FALSE,f,j,NA,NA,NA,1,6,"13,2,6,14,8,3,12,1,5,7,10,11,4,15,9"
15364,commdev-image-keyboard-response,31,166053,practice,603.1000000238419,img/practice1_right.png,NA,Number not found in mappings,NA,TRUE,j,j,NA,NA,NA,1,6,"13,2,6,14,8,3,12,1,5,7,10,11,4,15,9"
15364,commdev-image-keyboard-response,32,167317,practice,450.59999990463257,img/practice4_right.png,NA,Number not found in mappings,NA,TRUE,j,j,NA,NA,NA,1,6,"13,2,6,14,8,3,12,1,5,7,10,11,4,15,9"
15364,commdev-image-keyboard-response,33,168575,practice,693.2999999523163,img/practice3_left.png,NA,Number not found in mappings,NA,TRUE,f,f,NA,NA,NA,1,6,"13,2,6,14,8,3,12,1,5,7,10,11,4,15,9"
15364,commdev-image-keyboard-response,34,169829,practice,738.5,img/practice4_left.png,NA,Number not found in mappings,NA,TRUE,f,f,NA,NA,NA,1,6,"13,2,6,14,8,3,12,1,5,7,10,11,4,15,9"
15364,commdev-instructions,35,181280,NA,1893.6000000238419,"<p>Great job with the practice round.</p><p>During real missions, you won't know whether you pressed the right or wrong key for each planet.</p><p>But between missions, we will tell you how you did overall.</p>",NA,NA,NA,NA,NA,NA,NA,NA,NA,1,6,"13,2,6,14,8,3,12,1,5,7,10,11,4,15,9"
15364,commdev-instructions,36,191309,NA,1789,<p>Try your best! You will be paid a bonus based on how many correct responses you make!</p><p>Responses that are too slow will not count toward your bonus.</p>,NA,NA,NA,NA,NA,NA,NA,NA,NA,1,6,"13,2,6,14,8,3,12,1,5,7,10,11,4,15,9"
15364,commdev-instructions,37,198743,NA,1222.6999999284744,"<p>You are almost ready to start the real game.</p><p> First, we are going to ask you some questions about how the game works.</p>",NA,NA,NA,NA,NA,NA,NA,NA,NA,1,6,"13,2,6,14,8,3,12,1,5,7,10,11,4,15,9"
15364,commdev-instructions,46,296648,NA,2307.5,"<p> Nice work! It is now time to start the real game.<p></p>You will go on two missions to record wind directions of different planets.<p></p>Each one will take about 5 minutes. You will get to take a break between missions.<p><p> Remember, press <strong>F</strong> or <strong>J</strong> depending on the wind direction. Good luck!<br><img src=""img/categorize_planet_example.png""",NA,NA,NA,NA,NA,NA,NA,NA,NA,1,6,"13,2,6,14,8,3,12,1,5,7,10,11,4,15,9"
15364,commdev-image-keyboard-response,48,300729,learnblock1,1150.1000000238419,img/planet14_right.png,14,Community 1,NA,TRUE,j,j,NA,NA,NA,1,6,"13,2,6,14,8,3,12,1,5,7,10,11,4,15,9"
15364,commdev-image-keyboard-response,49,301993,learnblock1,936.6999999284744,img/planet3_left.png,3,Community 2,NA,TRUE,f,f,NA,NA,NA,1,6,"13,2,6,14,8,3,12,1,5,7,10,11,4,15,9"
15364,commdev-image-keyboard-response,50,303255,learnblock1,1145.7000000476837,img/planet7_left.png,7,Community 2,NA,FALSE,j,f,NA,NA,NA,1,6,"13,2,6,14,8,3,12,1,5,7,10,11,4,15,9"
15364,commdev-image-keyboard-response,51,304507,learnblock1,1215.2999999523163,img/planet5_left.png,5,Community 2,NA,TRUE,f,f,NA,NA,NA,1,6,"13,2,6,14,8,3,12,1,5,7,10,11,4,15,9"
15364,commdev-image-keyboard-response,52,305773,learnblock1,887.8000000715256,img/planet7_right.png,7,Community 2,NA,TRUE,j,j,NA,NA,NA,1,6,"13,2,6,14,8,3,12,1,5,7,10,11,4,15,9"
15364,commdev-image-keyboard-response,53,307027,learnblock1,1040.5999999046326,img/planet5_right.png,5,Community 2,NA,TRUE,j,j,NA,NA,NA,1,6,"13,2,6,14,8,3,12,1,5,7,10,11,4,15,9"
15364,commdev-image-keyboard-response,54,308286,learnblock1,null,img/planet12_right.png,12,Community 2,NA,FALSE,null,j,NA,NA,NA,1,6,"13,2,6,14,8,3,12,1,5,7,10,11,4,15,9"
15364,commdev-image-keyboard-response,55,309551,learnblock1,29.899999976158142,img/planet1_right.png,1,Community 2,NA,TRUE,j,j,NA,NA,NA,1,6,"13,2,6,14,8,3,12,1,5,7,10,11,4,15,9"
15364,commdev-image-keyboard-response,56,310808,learnblock1,405.2999999523163,img/planet7_right.png,7,Community 2,NA,FALSE,f,j,NA,NA,NA,1,6,"13,2,6,14,8,3,12,1,5,7,10,11,4,15,9"
15364,commdev-image-keyboard-response,57,312068,learnblock1,458.60000002384186,img/planet3_right.png,3,Community 2,NA,TRUE,j,j,NA,NA,NA,1,6,"13,2,6,14,8,3,12,1,5,7,10,11,4,15,9"
15364,commdev-image-keyboard-response,58,313331,learnblock1,459.2999999523163,img/planet12_right.png,12,Community 2,NA,TRUE,j,j,NA,NA,NA,1,6,"13,2,6,14,8,3,12,1,5,7,10,11,4,15,9"
15364,commdev-image-keyboard-response,59,314586,learnblock1,535.6000000238419,img/planet3_left.png,3,Community 2,NA,FALSE,j,f,NA,NA,NA,1,6,"13,2,6,14,8,3,12,1,5,7,10,11,4,15,9"
15364,commdev-image-keyboard-response,60,315840,learnblock1,95.60000002384186,img/planet12_right.png,12,Community 2,NA,FALSE,f,j,NA,NA,NA,1,6,"13,2,6,14,8,3,12,1,5,7,10,11,4,15,9"
15364,commdev-image-keyboard-response,61,317097,learnblock1,705.2000000476837,img/planet5_right.png,5,Community 2,NA,TRUE,j,j,NA,NA,NA,1,6,"13,2,6,14,8,3,12,1,5,7,10,11,4,15,9"
15364,commdev-image-keyboard-response,62,318361,learnblock1,402.39999997615814,img/planet7_right.png,7,Community 2,NA,TRUE,j,j,NA,NA,NA,1,6,"13,2,6,14,8,3,12,1,5,7,10,11,4,15,9"
15364,commdev-image-keyboard-response,63,319613,learnblock1,617.9000000953674,img/planet1_left.png,1,Community 2,NA,FALSE,j,f,NA,NA,NA,1,6,"13,2,6,14,8,3,12,1,5,7,10,11,4,15,9"
15364,commdev-image-keyboard-response,64,320872,learnblock1,511.40000009536743,img/planet11_right.png,11,Community 3,NA,TRUE,j,j,NA,NA,NA,1,6,"13,2,6,14,8,3,12,1,5,7,10,11,4,15,9"
15364,commdev-image-keyboard-response,65,322138,learnblock1,408.8000000715256,img/planet15_right.png,15,Community 3,NA,FALSE,f,j,NA,NA,NA,1,6,"13,2,6,14,8,3,12,1,5,7,10,11,4,15,9"
15364,commdev-image-keyboard-response,66,323400,learnblock1,750,img/planet10_left.png,10,Community 3,NA,FALSE,j,f,NA,NA,NA,1,6,"13,2,6,14,8,3,12,1,5,7,10,11,4,15,9"
15364,commdev-image-keyboard-response,67,324654,learnblock1,1115.2999999523163,img/planet9_right.png,9,Community 3,NA,TRUE,j,j,NA,NA,NA,1,6,"13,2,6,14,8,3,12,1,5,7,10,11,4,15,9"
15364,commdev-image-keyboard-response,68,325922,learnblock1,null,img/planet11_left.png,11,Community 3,NA,FALSE,null,f,NA,NA,NA,1,6,"13,2,6,14,8,3,12,1,5,7,10,11,4,15,9"
15364,commdev-image-keyboard-response,69,327176,learnblock1,1234.2000000476837,img/planet15_right.png,15,Community 3,NA,TRUE,j,j,NA,NA,NA,1,6,"13,2,6,14,8,3,12,1,5,7,10,11,4,15,9"
15364,commdev-image-keyboard-response,70,328432,learnblock1,null,img/planet4_left.png,4,Community 3,NA,FALSE,null,f,NA,NA,NA,1,6,"13,2,6,14,8,3,12,1,5,7,10,11,4,15,9"
15364,commdev-image-keyboard-response,71,329689,learnblock1,679,img/planet10_left.png,10,Community 3,NA,TRUE,f,f,NA,NA,NA,1,6,"13,2,6,14,8,3,12,1,5,7,10,11,4,15,9"
15364,commdev-image-keyboard-response,72,330954,learnblock1,790,img/planet8_left.png,8,Community 1,NA,TRUE,f,f,NA,NA,NA,1,6,"13,2,6,14,8,3,12,1,5,7,10,11,4,15,9"
15364,commdev-image-keyboard-response,73,332208,learnblock1,893.3000000715256,img/planet13_right.png,13,Community 1,NA,FALSE,f,j,NA,NA,NA,1,6,"13,2,6,14,8,3,12,1,5,7,10,11,4,15,9"
15364,commdev-image-keyboard-response,74,333468,learnblock1,525.1000000238419,img/planet8_left.png,8,Community 1,NA,TRUE,f,f,NA,NA,NA,1,6,"13,2,6,14,8,3,12,1,5,7,10,11,4,15,9"
15364,commdev-image-keyboard-response,75,334726,learnblock1,270.7999999523163,img/planet2_right.png,2,Community 1,NA,FALSE,f,j,NA,NA,NA,1,6,"13,2,6,14,8,3,12,1,5,7,10,11,4,15,9"
15364,commdev-image-keyboard-response,76,335992,learnblock1,1092,img/planet14_left.png,14,Community 1,NA,FALSE,j,f,NA,NA,NA,1,6,"13,2,6,14,8,3,12,1,5,7,10,11,4,15,9"
15364,commdev-image-keyboard-response,77,337245,learnblock1,586.1000000238419,img/planet13_right.png,13,Community 1,NA,FALSE,f,j,NA,NA,NA,1,6,"13,2,6,14,8,3,12,1,5,7,10,11,4,15,9"
15364,commdev-image-keyboard-response,78,338501,learnblock1,366.3000000715256,img/planet8_right.png,8,Community 1,NA,FALSE,f,j,NA,NA,NA,1,6,"13,2,6,14,8,3,12,1,5,7,10,11,4,15,9"
15364,commdev-image-keyboard-response,79,339758,learnblock1,117.10000002384186,img/planet10_left.png,10,Community 3,NA,FALSE,j,f,NA,NA,NA,1,6,"13,2,6,14,8,3,12,1,5,7,10,11,4,15,9"
15364,commdev-image-keyboard-response,80,341022,learnblock1,890.7000000476837,img/planet15_right.png,15,Community 3,NA,TRUE,j,j,NA,NA,NA,1,6,"13,2,6,14,8,3,12,1,5,7,10,11,4,15,9"
15364,commdev-image-keyboard-response,81,342274,learnblock1,676,img/planet10_left.png,10,Community 3,NA,TRUE,f,f,NA,NA,NA,1,6,"13,2,6,14,8,3,12,1,5,7,10,11,4,15,9"
15364,commdev-image-keyboard-response,82,343532,learnblock1,800.8999999761581,img/planet4_right.png,4,Community 3,NA,TRUE,j,j,NA,NA,NA,1,6,"13,2,6,14,8,3,12,1,5,7,10,11,4,15,9"
15364,commdev-image-keyboard-response,83,344791,learnblock1,644.2999999523163,img/planet11_left.png,11,Community 3,NA,TRUE,f,f,NA,NA,NA,1,6,"13,2,6,14,8,3,12,1,5,7,10,11,4,15,9"
15364,commdev-image-keyboard-response,84,346051,learnblock1,662.8999999761581,img/planet4_left.png,4,Community 3,NA,TRUE,f,f,NA,NA,NA,1,6,"13,2,6,14,8,3,12,1,5,7,10,11,4,15,9"
15364,commdev-image-keyboard-response,85,347304,learnblock1,778,img/planet9_right.png,9,Community 3,NA,TRUE,j,j,NA,NA,NA,1,6,"13,2,6,14,8,3,12,1,5,7,10,11,4,15,9"
15364,commdev-image-keyboard-response,86,348566,learnblock1,756.3999999761581,img/planet15_right.png,15,Community 3,NA,TRUE,j,j,NA,NA,NA,1,6,"13,2,6,14,8,3,12,1,5,7,10,11,4,15,9"
15364,commdev-image-keyboard-response,87,349830,learnblock1,719.2000000476837,img/planet4_right.png,4,Community 3,NA,TRUE,j,j,NA,NA,NA,1,6,"13,2,6,14,8,3,12,1,5,7,10,11,4,15,9"
15364,commdev-image-keyboard-response,88,351092,learnblock1,550.2999999523163,img/planet9_right.png,9,Community 3,NA,TRUE,j,j,NA,NA,NA,1,6,"13,2,6,14,8,3,12,1,5,7,10,11,4,15,9"
15364,commdev-image-keyboard-response,89,352348,learnblock1,451,img/planet10_right.png,10,Community 3,NA,TRUE,j,j,NA,NA,NA,1,6,"13,2,6,14,8,3,12,1,5,7,10,11,4,15,9"
15364,commdev-image-keyboard-response,90,353602,learnblock1,598,img/planet9_right.png,9,Community 3,NA,TRUE,j,j,NA,NA,NA,1,6,"13,2,6,14,8,3,12,1,5,7,10,11,4,15,9"
15364,commdev-image-keyboard-response,91,354863,learnblock1,555.1000000238419,img/planet15_left.png,15,Community 3,NA,TRUE,f,f,NA,NA,NA,1,6,"13,2,6,14,8,3,12,1,5,7,10,11,4,15,9"
15364,commdev-image-keyboard-response,92,356118,learnblock1,967.3999999761581,img/planet11_right.png,11,Community 3,NA,TRUE,j,j,NA,NA,NA,1,6,"13,2,6,14,8,3,12,1,5,7,10,11,4,15,9"
15364,commdev-image-keyboard-response,93,357372,learnblock1,694.5,img/planet1_left.png,1,Community 2,NA,TRUE,f,f,NA,NA,NA,1,6,"13,2,6,14,8,3,12,1,5,7,10,11,4,15,9"
15364,commdev-image-keyboard-response,94,358637,learnblock1,738.5,img/planet7_left.png,7,Community 2,NA,FALSE,j,f,NA,NA,NA,1,6,"13,2,6,14,8,3,12,1,5,7,10,11,4,15,9"
15364,commdev-image-keyboard-response,95,359895,learnblock1,659.2000000476837,img/planet12_right.png,12,Community 2,NA,TRUE,j,j,NA,NA,NA,1,6,"13,2,6,14,8,3,12,1,5,7,10,11,4,15,9"
15364,commdev-image-keyboard-response,96,361152,learnblock1,440.2999999523163,img/planet7_right.png,7,Community 2,NA,TRUE,j,j,NA,NA,NA,1,6,"13,2,6,14,8,3,12,1,5,7,10,11,4,15,9"
15364,commdev-image-keyboard-response,97,362410,learnblock1,267.5,img/planet3_right.png,3,Community 2,NA,TRUE,j,j,NA,NA,NA,1,6,"13,2,6,14,8,3,12,1,5,7,10,11,4,15,9"
15364,commdev-image-keyboard-response,98,363670,learnblock1,367.40000009536743,img/planet12_right.png,12,Community 2,NA,TRUE,j,j,NA,NA,NA,1,6,"13,2,6,14,8,3,12,1,5,7,10,11,4,15,9"
15364,commdev-image-keyboard-response,99,364931,learnblock1,248.80000007152557,img/planet5_right.png,5,Community 2,NA,TRUE,j,j,NA,NA,NA,1,6,"13,2,6,14,8,3,12,1,5,7,10,11,4,15,9"
15364,commdev-image-keyboard-response,100,366192,learnblock1,221.30000007152557,img/planet3_left.png,3,Community 2,NA,FALSE,j,f,NA,NA,NA,1,6,"13,2,6,14,8,3,12,1,5,7,10,11,4,15,9"
15364,commdev-image-keyboard-response,101,367457,learnblock1,654.1999999284744,img/planet7_left.png,7,Community 2,NA,FALSE,j,f,NA,NA,NA,1,6,"13,2,6,14,8,3,12,1,5,7,10,11,4,15,9"
15364,commdev-image-keyboard-response,102,368716,learnblock1,583.6000000238419,img/planet1_right.png,1,Community 2,NA,FALSE,f,j,NA,NA,NA,1,6,"13,2,6,14,8,3,12,1,5,7,10,11,4,15,9"
15364,commdev-image-keyboard-response,103,369975,learnblock1,737.8999999761581,img/planet5_left.png,5,Community 2,NA,FALSE,j,f,NA,NA,NA,1,6,"13,2,6,14,8,3,12,1,5,7,10,11,4,15,9"
15364,commdev-image-keyboard-response,104,371232,learnblock1,1220.1000000238419,img/planet7_right.png,7,Community 2,NA,TRUE,j,j,NA,NA,NA,1,6,"13,2,6,14,8,3,12,1,5,7,10,11,4,15,9"
15364,commdev-image-keyboard-response,105,372491,learnblock1,787.7000000476837,img/planet1_left.png,1,Community 2,NA,TRUE,f,f,NA,NA,NA,1,6,"13,2,6,14,8,3,12,1,5,7,10,11,4,15,9"
15364,commdev-image-keyboard-response,106,373749,learnblock1,580.9000000953674,img/planet11_right.png,11,Community 3,NA,TRUE,j,j,NA,NA,NA,1,6,"13,2,6,14,8,3,12,1,5,7,10,11,4,15,9"
15364,commdev-image-keyboard-response,107,375011,learnblock1,723.8999999761581,img/planet4_left.png,4,Community 3,NA,TRUE,f,f,NA,NA,NA,1,6,"13,2,6,14,8,3,12,1,5,7,10,11,4,15,9"
15364,commdev-image-keyboard-response,108,376264,learnblock1,662,img/planet15_right.png,15,Community 3,NA,TRUE,j,j,NA,NA,NA,1,6,"13,2,6,14,8,3,12,1,5,7,10,11,4,15,9"
15364,commdev-image-keyboard-response,109,377523,learnblock1,692.8999999761581,img/planet11_right.png,11,Community 3,NA,TRUE,j,j,NA,NA,NA,1,6,"13,2,6,14,8,3,12,1,5,7,10,11,4,15,9"
15364,commdev-image-keyboard-response,110,378777,learnblock1,494.5,img/planet4_left.png,4,Community 3,NA,TRUE,f,f,NA,NA,NA,1,6,"13,2,6,14,8,3,12,1,5,7,10,11,4,15,9"
15364,commdev-image-keyboard-response,111,380030,learnblock1,531.5,img/planet9_right.png,9,Community 3,NA,TRUE,j,j,NA,NA,NA,1,6,"13,2,6,14,8,3,12,1,5,7,10,11,4,15,9"
15364,commdev-image-keyboard-response,112,381291,learnblock1,726.8999999761581,img/planet11_right.png,11,Community 3,NA,TRUE,j,j,NA,NA,NA,1,6,"13,2,6,14,8,3,12,1,5,7,10,11,4,15,9"
15364,commdev-image-keyboard-response,113,382553,learnblock1,769.2999999523163,img/planet4_right.png,4,Community 3,NA,TRUE,j,j,NA,NA,NA,1,6,"13,2,6,14,8,3,12,1,5,7,10,11,4,15,9"
15364,commdev-image-keyboard-response,114,383809,learnblock1,615.3999999761581,img/planet10_left.png,10,Community 3,NA,FALSE,j,f,NA,NA,NA,1,6,"13,2,6,14,8,3,12,1,5,7,10,11,4,15,9"
15364,commdev-image-keyboard-response,115,385070,learnblock1,null,img/planet8_right.png,8,Community 1,NA,FALSE,null,j,NA,NA,NA,1,6,"13,2,6,14,8,3,12,1,5,7,10,11,4,15,9"
15364,commdev-image-keyboard-response,116,386332,learnblock1,201.89999997615814,img/planet13_right.png,13,Community 1,NA,TRUE,j,j,NA,NA,NA,1,6,"13,2,6,14,8,3,12,1,5,7,10,11,4,15,9"
15364,commdev-image-keyboard-response,117,387590,learnblock1,20.5,img/planet8_left.png,8,Community 1,NA,FALSE,j,f,NA,NA,NA,1,6,"13,2,6,14,8,3,12,1,5,7,10,11,4,15,9"
15364,commdev-image-keyboard-response,118,388845,learnblock1,328.8000000715256,img/planet10_right.png,10,Community 3,NA,FALSE,f,j,NA,NA,NA,1,6,"13,2,6,14,8,3,12,1,5,7,10,11,4,15,9"
15364,commdev-image-keyboard-response,119,390102,learnblock1,151,img/planet9_right.png,9,Community 3,NA,FALSE,f,j,NA,NA,NA,1,6,"13,2,6,14,8,3,12,1,5,7,10,11,4,15,9"
15364,commdev-image-keyboard-response,120,391357,learnblock1,715.5,img/planet11_left.png,11,Community 3,NA,TRUE,f,f,NA,NA,NA,1,6,"13,2,6,14,8,3,12,1,5,7,10,11,4,15,9"
15364,commdev-image-keyboard-response,121,392612,learnblock1,555.2999999523163,img/planet15_left.png,15,Community 3,NA,TRUE,f,f,NA,NA,NA,1,6,"13,2,6,14,8,3,12,1,5,7,10,11,4,15,9"
15364,commdev-image-keyboard-response,122,393877,learnblock1,740.3999999761581,img/planet10_right.png,10,Community 3,NA,FALSE,f,j,NA,NA,NA,1,6,"13,2,6,14,8,3,12,1,5,7,10,11,4,15,9"
15364,commdev-image-keyboard-response,123,395140,learnblock1,640.6999999284744,img/planet8_left.png,8,Community 1,NA,TRUE,f,f,NA,NA,NA,1,6,"13,2,6,14,8,3,12,1,5,7,10,11,4,15,9"
15364,commdev-image-keyboard-response,124,396401,learnblock1,515,img/planet10_left.png,10,Community 3,NA,TRUE,f,f,NA,NA,NA,1,6,"13,2,6,14,8,3,12,1,5,7,10,11,4,15,9"
15364,commdev-image-keyboard-response,125,397662,learnblock1,434,img/planet8_left.png,8,Community 1,NA,FALSE,j,f,NA,NA,NA,1,6,"13,2,6,14,8,3,12,1,5,7,10,11,4,15,9"
15364,commdev-image-keyboard-response,126,398921,learnblock1,152.79999995231628,img/planet2_right.png,2,Community 1,NA,FALSE,f,j,NA,NA,NA,1,6,"13,2,6,14,8,3,12,1,5,7,10,11,4,15,9"
15364,commdev-image-keyboard-response,127,400175,learnblock1,38.39999997615814,img/planet6_right.png,6,Community 1,NA,FALSE,f,j,NA,NA,NA,1,6,"13,2,6,14,8,3,12,1,5,7,10,11,4,15,9"
15364,commdev-image-keyboard-response,128,401428,learnblock1,674.7999999523163,img/planet8_right.png,8,Community 1,NA,FALSE,f,j,NA,NA,NA,1,6,"13,2,6,14,8,3,12,1,5,7,10,11,4,15,9"
15364,commdev-image-keyboard-response,129,402688,learnblock1,368.5,img/planet10_right.png,10,Community 3,NA,FALSE,f,j,NA,NA,NA,1,6,"13,2,6,14,8,3,12,1,5,7,10,11,4,15,9"
15364,commdev-image-keyboard-response,130,403940,learnblock1,138,img/planet4_left.png,4,Community 3,NA,FALSE,j,f,NA,NA,NA,1,6,"13,2,6,14,8,3,12,1,5,7,10,11,4,15,9"
15364,commdev-image-keyboard-response,131,405199,learnblock1,431.39999997615814,img/planet9_right.png,9,Community 3,NA,TRUE,j,j,NA,NA,NA,1,6,"13,2,6,14,8,3,12,1,5,7,10,11,4,15,9"
15364,commdev-image-keyboard-response,132,406458,learnblock1,65.30000007152557,img/planet15_left.png,15,Community 3,NA,FALSE,j,f,NA,NA,NA,1,6,"13,2,6,14,8,3,12,1,5,7,10,11,4,15,9"
15364,commdev-image-keyboard-response,133,407712,learnblock1,289.7999999523163,img/planet10_left.png,10,Community 3,NA,FALSE,j,f,NA,NA,NA,1,6,"13,2,6,14,8,3,12,1,5,7,10,11,4,15,9"
15364,commdev-image-keyboard-response,134,408969,learnblock1,155.70000004768372,img/planet9_left.png,9,Community 3,NA,FALSE,j,f,NA,NA,NA,1,6,"13,2,6,14,8,3,12,1,5,7,10,11,4,15,9"
15364,commdev-image-keyboard-response,135,410221,learnblock1,140.40000009536743,img/planet4_left.png,4,Community 3,NA,FALSE,j,f,NA,NA,NA,1,6,"13,2,6,14,8,3,12,1,5,7,10,11,4,15,9"
15364,commdev-image-keyboard-response,136,411477,learnblock1,816.1000000238419,img/planet15_right.png,15,Community 3,NA,TRUE,j,j,NA,NA,NA,1,6,"13,2,6,14,8,3,12,1,5,7,10,11,4,15,9"
15364,commdev-image-keyboard-response,137,412732,learnblock1,284.39999997615814,img/planet11_right.png,11,Community 3,NA,TRUE,j,j,NA,NA,NA,1,6,"13,2,6,14,8,3,12,1,5,7,10,11,4,15,9"
15364,commdev-image-keyboard-response,138,413984,learnblock1,214.79999995231628,img/planet4_right.png,4,Community 3,NA,TRUE,j,j,NA,NA,NA,1,6,"13,2,6,14,8,3,12,1,5,7,10,11,4,15,9"
15364,commdev-image-keyboard-response,139,415242,learnblock1,246.10000002384186,img/planet11_left.png,11,Community 3,NA,FALSE,j,f,NA,NA,NA,1,6,"13,2,6,14,8,3,12,1,5,7,10,11,4,15,9"
15364,commdev-image-keyboard-response,140,416494,learnblock1,573.1999999284744,img/planet15_left.png,15,Community 3,NA,TRUE,f,f,NA,NA,NA,1,6,"13,2,6,14,8,3,12,1,5,7,10,11,4,15,9"
15364,commdev-image-keyboard-response,141,417754,learnblock1,754.6000000238419,img/planet4_right.png,4,Community 3,NA,TRUE,j,j,NA,NA,NA,1,6,"13,2,6,14,8,3,12,1,5,7,10,11,4,15,9"
15364,commdev-image-keyboard-response,142,419013,learnblock1,403,img/planet9_right.png,9,Community 3,NA,TRUE,j,j,NA,NA,NA,1,6,"13,2,6,14,8,3,12,1,5,7,10,11,4,15,9"
15364,commdev-image-keyboard-response,143,420273,learnblock1,735.8000000715256,img/planet11_right.png,11,Community 3,NA,TRUE,j,j,NA,NA,NA,1,6,"13,2,6,14,8,3,12,1,5,7,10,11,4,15,9"
15364,commdev-image-keyboard-response,144,421531,learnblock1,602.0999999046326,img/planet9_left.png,9,Community 3,NA,TRUE,f,f,NA,NA,NA,1,6,"13,2,6,14,8,3,12,1,5,7,10,11,4,15,9"
15364,commdev-image-keyboard-response,145,422786,learnblock1,799.5999999046326,img/planet10_left.png,10,Community 3,NA,TRUE,f,f,NA,NA,NA,1,6,"13,2,6,14,8,3,12,1,5,7,10,11,4,15,9"
15364,commdev-image-keyboard-response,146,424048,learnblock1,595.3000000715256,img/planet4_left.png,4,Community 3,NA,TRUE,f,f,NA,NA,NA,1,6,"13,2,6,14,8,3,12,1,5,7,10,11,4,15,9"
15364,commdev-image-keyboard-response,147,425308,learnblock1,367.2999999523163,img/planet10_right.png,10,Community 3,NA,FALSE,f,j,NA,NA,NA,1,6,"13,2,6,14,8,3,12,1,5,7,10,11,4,15,9"
15364,commdev-image-keyboard-response,148,426576,learnblock1,900.8000000715256,img/planet15_left.png,15,Community 3,NA,FALSE,j,f,NA,NA,NA,1,6,"13,2,6,14,8,3,12,1,5,7,10,11,4,15,9"
15364,commdev-image-keyboard-response,149,427835,learnblock1,1053.6999999284744,img/planet10_right.png,10,Community 3,NA,TRUE,j,j,NA,NA,NA,1,6,"13,2,6,14,8,3,12,1,5,7,10,11,4,15,9"
15364,commdev-image-keyboard-response,150,429093,learnblock1,499.3000000715256,img/planet4_left.png,4,Community 3,NA,FALSE,j,f,NA,NA,NA,1,6,"13,2,6,14,8,3,12,1,5,7,10,11,4,15,9"
15364,commdev-image-keyboard-response,151,430345,learnblock1,134.5,img/planet9_right.png,9,Community 3,NA,TRUE,j,j,NA,NA,NA,1,6,"13,2,6,14,8,3,12,1,5,7,10,11,4,15,9"
15364,commdev-image-keyboard-response,152,431599,learnblock1,667.9000000953674,img/planet4_left.png,4,Community 3,NA,TRUE,f,f,NA,NA,NA,1,6,"13,2,6,14,8,3,12,1,5,7,10,11,4,15,9"
15364,commdev-image-keyboard-response,153,432851,learnblock1,242.79999995231628,img/planet11_left.png,11,Community 3,NA,TRUE,f,f,NA,NA,NA,1,6,"13,2,6,14,8,3,12,1,5,7,10,11,4,15,9"
15364,commdev-image-keyboard-response,154,434103,learnblock1,196.10000002384186,img/planet1_right.png,1,Community 2,NA,FALSE,f,j,NA,NA,NA,1,6,"13,2,6,14,8,3,12,1,5,7,10,11,4,15,9"
15364,commdev-image-keyboard-response,155,435356,learnblock1,512.3000000715256,img/planet7_right.png,7,Community 2,NA,FALSE,f,j,NA,NA,NA,1,6,"13,2,6,14,8,3,12,1,5,7,10,11,4,15,9"
15364,commdev-image-keyboard-response,156,436613,learnblock1,10.699999928474426,img/planet1_left.png,1,Community 2,NA,FALSE,j,f,NA,NA,NA,1,6,"13,2,6,14,8,3,12,1,5,7,10,11,4,15,9"
15364,commdev-image-keyboard-response,157,437871,learnblock1,543.6999999284744,img/planet5_left.png,5,Community 2,NA,FALSE,j,f,NA,NA,NA,1,6,"13,2,6,14,8,3,12,1,5,7,10,11,4,15,9"
15364,commdev-image-keyboard-response,158,439125,learnblock1,357.89999997615814,img/planet7_right.png,7,Community 2,NA,TRUE,j,j,NA,NA,NA,1,6,"13,2,6,14,8,3,12,1,5,7,10,11,4,15,9"
15364,commdev-image-keyboard-response,159,440377,learnblock1,79.60000002384186,img/planet3_left.png,3,Community 2,NA,FALSE,j,f,NA,NA,NA,1,6,"13,2,6,14,8,3,12,1,5,7,10,11,4,15,9"
15364,commdev-image-keyboard-response,160,441630,learnblock1,239.89999997615814,img/planet7_right.png,7,Community 2,NA,TRUE,j,j,NA,NA,NA,1,6,"13,2,6,14,8,3,12,1,5,7,10,11,4,15,9"
15364,commdev-image-keyboard-response,161,442883,learnblock1,424.1999999284744,img/planet5_right.png,5,Community 2,NA,TRUE,j,j,NA,NA,NA,1,6,"13,2,6,14,8,3,12,1,5,7,10,11,4,15,9"
15364,commdev-image-keyboard-response,162,444136,learnblock1,433.40000009536743,img/planet3_left.png,3,Community 2,NA,FALSE,j,f,NA,NA,NA,1,6,"13,2,6,14,8,3,12,1,5,7,10,11,4,15,9"
15364,commdev-image-keyboard-response,163,445394,learnblock1,492.5,img/planet7_left.png,7,Community 2,NA,TRUE,f,f,NA,NA,NA,1,6,"13,2,6,14,8,3,12,1,5,7,10,11,4,15,9"
15364,commdev-image-keyboard-response,164,446653,learnblock1,1231.1000000238419,img/planet1_left.png,1,Community 2,NA,TRUE,f,f,NA,NA,NA,1,6,"13,2,6,14,8,3,12,1,5,7,10,11,4,15,9"
15364,commdev-image-keyboard-response,165,447913,learnblock1,608.7999999523163,img/planet11_left.png,11,Community 3,NA,TRUE,f,f,NA,NA,NA,1,6,"13,2,6,14,8,3,12,1,5,7,10,11,4,15,9"
15364,commdev-image-keyboard-response,166,449167,learnblock1,957.7000000476837,img/planet4_left.png,4,Community 3,NA,TRUE,f,f,NA,NA,NA,1,6,"13,2,6,14,8,3,12,1,5,7,10,11,4,15,9"
15364,commdev-image-keyboard-response,167,450425,learnblock1,1172.8000000715256,img/planet11_right.png,11,Community 3,NA,FALSE,f,j,NA,NA,NA,1,6,"13,2,6,14,8,3,12,1,5,7,10,11,4,15,9"
15364,commdev-image-keyboard-response,168,451682,learnblock1,620.6999999284744,img/planet15_left.png,15,Community 3,NA,TRUE,f,f,NA,NA,NA,1,6,"13,2,6,14,8,3,12,1,5,7,10,11,4,15,9"
15364,commdev-image-keyboard-response,169,452947,learnblock1,1109.7999999523163,img/planet4_left.png,4,Community 3,NA,TRUE,f,f,NA,NA,NA,1,6,"13,2,6,14,8,3,12,1,5,7,10,11,4,15,9"
15364,commdev-image-keyboard-response,170,454210,learnblock1,1030.8999999761581,img/planet15_left.png,15,Community 3,NA,TRUE,f,f,NA,NA,NA,1,6,"13,2,6,14,8,3,12,1,5,7,10,11,4,15,9"
15364,commdev-image-keyboard-response,171,455470,learnblock1,804.3999999761581,img/planet10_right.png,10,Community 3,NA,FALSE,f,j,NA,NA,NA,1,6,"13,2,6,14,8,3,12,1,5,7,10,11,4,15,9"
15364,commdev-image-keyboard-response,172,456738,learnblock1,506.2999999523163,img/planet8_right.png,8,Community 1,NA,TRUE,j,j,NA,NA,NA,1,6,"13,2,6,14,8,3,12,1,5,7,10,11,4,15,9"
15364,commdev-image-keyboard-response,173,457990,learnblock1,288.39999997615814,img/planet6_left.png,6,Community 1,NA,FALSE,j,f,NA,NA,NA,1,6,"13,2,6,14,8,3,12,1,5,7,10,11,4,15,9"
15364,commdev-image-keyboard-response,174,459258,learnblock1,704.5,img/planet13_left.png,13,Community 1,NA,TRUE,f,f,NA,NA,NA,1,6,"13,2,6,14,8,3,12,1,5,7,10,11,4,15,9"
15364,commdev-image-keyboard-response,175,460513,learnblock1,308.10000002384186,img/planet8_right.png,8,Community 1,NA,FALSE,f,j,NA,NA,NA,1,6,"13,2,6,14,8,3,12,1,5,7,10,11,4,15,9"
15364,commdev-image-keyboard-response,176,461775,learnblock1,638,img/planet6_right.png,6,Community 1,NA,TRUE,j,j,NA,NA,NA,1,6,"13,2,6,14,8,3,12,1,5,7,10,11,4,15,9"
15364,commdev-image-keyboard-response,177,463037,learnblock1,149.60000002384186,img/planet14_left.png,14,Community 1,NA,FALSE,j,f,NA,NA,NA,1,6,"13,2,6,14,8,3,12,1,5,7,10,11,4,15,9"
15364,commdev-image-keyboard-response,178,464297,learnblock1,327,img/planet6_left.png,6,Community 1,NA,FALSE,j,f,NA,NA,NA,1,6,"13,2,6,14,8,3,12,1,5,7,10,11,4,15,9"
15364,commdev-image-keyboard-response,179,465554,learnblock1,701.6000000238419,img/planet14_right.png,14,Community 1,NA,FALSE,f,j,NA,NA,NA,1,6,"13,2,6,14,8,3,12,1,5,7,10,11,4,15,9"
15364,commdev-image-keyboard-response,180,466811,learnblock1,310.59999990463257,img/planet6_left.png,6,Community 1,NA,TRUE,f,f,NA,NA,NA,1,6,"13,2,6,14,8,3,12,1,5,7,10,11,4,15,9"
15364,commdev-image-keyboard-response,181,468070,learnblock1,581.0999999046326,img/planet2_right.png,2,Community 1,NA,FALSE,f,j,NA,NA,NA,1,6,"13,2,6,14,8,3,12,1,5,7,10,11,4,15,9"
15364,commdev-image-keyboard-response,182,469326,learnblock1,551.6999999284744,img/planet8_right.png,8,Community 1,NA,TRUE,j,j,NA,NA,NA,1,6,"13,2,6,14,8,3,12,1,5,7,10,11,4,15,9"
15364,commdev-image-keyboard-response,183,470584,learnblock1,1000.8999999761581,img/planet6_right.png,6,Community 1,NA,TRUE,j,j,NA,NA,NA,1,6,"13,2,6,14,8,3,12,1,5,7,10,11,4,15,9"
15364,commdev-image-keyboard-response,184,471849,learnblock1,827,img/planet8_left.png,8,Community 1,NA,FALSE,j,f,NA,NA,NA,1,6,"13,2,6,14,8,3,12,1,5,7,10,11,4,15,9"
15364,commdev-image-keyboard-response,185,473115,learnblock1,106.79999995231628,img/planet13_right.png,13,Community 1,NA,FALSE,f,j,NA,NA,NA,1,6,"13,2,6,14,8,3,12,1,5,7,10,11,4,15,9"
15364,commdev-image-keyboard-response,186,474369,learnblock1,800.1999999284744,img/planet6_left.png,6,Community 1,NA,TRUE,f,f,NA,NA,NA,1,6,"13,2,6,14,8,3,12,1,5,7,10,11,4,15,9"
15364,commdev-image-keyboard-response,187,475629,learnblock1,817.3999999761581,img/planet13_right.png,13,Community 1,NA,TRUE,j,j,NA,NA,NA,1,6,"13,2,6,14,8,3,12,1,5,7,10,11,4,15,9"
15364,commdev-image-keyboard-response,188,476894,learnblock1,489.6999999284744,img/planet2_left.png,2,Community 1,NA,TRUE,f,f,NA,NA,NA,1,6,"13,2,6,14,8,3,12,1,5,7,10,11,4,15,9"
15364,commdev-image-keyboard-response,189,478146,learnblock1,599,img/planet13_right.png,13,Community 1,NA,TRUE,j,j,NA,NA,NA,1,6,"13,2,6,14,8,3,12,1,5,7,10,11,4,15,9"
15364,commdev-image-keyboard-response,190,479400,learnblock1,683.8000000715256,img/planet6_left.png,6,Community 1,NA,TRUE,f,f,NA,NA,NA,1,6,"13,2,6,14,8,3,12,1,5,7,10,11,4,15,9"
15364,commdev-image-keyboard-response,191,480656,learnblock1,586.6999999284744,img/planet8_right.png,8,Community 1,NA,TRUE,j,j,NA,NA,NA,1,6,"13,2,6,14,8,3,12,1,5,7,10,11,4,15,9"
15364,commdev-image-keyboard-response,192,481912,learnblock1,839.3000000715256,img/planet2_left.png,2,Community 1,NA,TRUE,f,f,NA,NA,NA,1,6,"13,2,6,14,8,3,12,1,5,7,10,11,4,15,9"
15364,commdev-image-keyboard-response,193,483172,learnblock1,828.5,img/planet6_left.png,6,Community 1,NA,TRUE,f,f,NA,NA,NA,1,6,"13,2,6,14,8,3,12,1,5,7,10,11,4,15,9"
15364,commdev-image-keyboard-response,194,484426,learnblock1,601.8999999761581,img/planet8_left.png,8,Community 1,NA,TRUE,f,f,NA,NA,NA,1,6,"13,2,6,14,8,3,12,1,5,7,10,11,4,15,9"
15364,commdev-image-keyboard-response,195,485685,learnblock1,637.5,img/planet10_left.png,10,Community 3,NA,TRUE,f,f,NA,NA,NA,1,6,"13,2,6,14,8,3,12,1,5,7,10,11,4,15,9"
15364,commdev-image-keyboard-response,196,486949,learnblock1,660.7999999523163,img/planet8_right.png,8,Community 1,NA,TRUE,j,j,NA,NA,NA,1,6,"13,2,6,14,8,3,12,1,5,7,10,11,4,15,9"
15364,commdev-image-keyboard-response,197,488206,learnblock1,378.60000002384186,img/planet10_right.png,10,Community 3,NA,FALSE,f,j,NA,NA,NA,1,6,"13,2,6,14,8,3,12,1,5,7,10,11,4,15,9"
15364,commdev-image-keyboard-response,198,489464,learnblock1,661.8999999761581,img/planet8_left.png,8,Community 1,NA,TRUE,f,f,NA,NA,NA,1,6,"13,2,6,14,8,3,12,1,5,7,10,11,4,15,9"
15364,commdev-image-keyboard-response,199,490720,learnblock1,542.6000000238419,img/planet13_left.png,13,Community 1,NA,TRUE,f,f,NA,NA,NA,1,6,"13,2,6,14,8,3,12,1,5,7,10,11,4,15,9"
15364,commdev-image-keyboard-response,200,491972,learnblock1,700.5,img/planet14_left.png,14,Community 1,NA,TRUE,f,f,NA,NA,NA,1,6,"13,2,6,14,8,3,12,1,5,7,10,11,4,15,9"
15364,commdev-image-keyboard-response,201,493225,learnblock1,521.1000000238419,img/planet2_left.png,2,Community 1,NA,TRUE,f,f,NA,NA,NA,1,6,"13,2,6,14,8,3,12,1,5,7,10,11,4,15,9"
15364,commdev-image-keyboard-response,202,494479,learnblock1,534.3999999761581,img/planet6_left.png,6,Community 1,NA,TRUE,f,f,NA,NA,NA,1,6,"13,2,6,14,8,3,12,1,5,7,10,11,4,15,9"
15364,commdev-image-keyboard-response,203,495733,learnblock1,529.8999999761581,img/planet2_right.png,2,Community 1,NA,TRUE,j,j,NA,NA,NA,1,6,"13,2,6,14,8,3,12,1,5,7,10,11,4,15,9"
15364,commdev-image-keyboard-response,204,496992,learnblock1,658.5999999046326,img/planet8_right.png,8,Community 1,NA,TRUE,j,j,NA,NA,NA,1,6,"13,2,6,14,8,3,12,1,5,7,10,11,4,15,9"
15364,commdev-image-keyboard-response,205,498248,learnblock1,710.1000000238419,img/planet13_left.png,13,Community 1,NA,TRUE,f,f,NA,NA,NA,1,6,"13,2,6,14,8,3,12,1,5,7,10,11,4,15,9"
15364,commdev-image-keyboard-response,206,499507,learnblock1,519.7999999523163,img/planet2_left.png,2,Community 1,NA,TRUE,f,f,NA,NA,NA,1,6,"13,2,6,14,8,3,12,1,5,7,10,11,4,15,9"
15364,commdev-image-keyboard-response,207,500774,learnblock1,611,img/planet8_left.png,8,Community 1,NA,TRUE,f,f,NA,NA,NA,1,6,"13,2,6,14,8,3,12,1,5,7,10,11,4,15,9"
15364,commdev-image-keyboard-response,208,502031,learnblock1,765.1999999284744,img/planet6_right.png,6,Community 1,NA,FALSE,f,j,NA,NA,NA,1,6,"13,2,6,14,8,3,12,1,5,7,10,11,4,15,9"
15364,commdev-image-keyboard-response,209,503291,learnblock1,770.0999999046326,img/planet8_right.png,8,Community 1,NA,TRUE,j,j,NA,NA,NA,1,6,"13,2,6,14,8,3,12,1,5,7,10,11,4,15,9"
15364,commdev-image-keyboard-response,210,504549,learnblock1,516,img/planet13_left.png,13,Community 1,NA,TRUE,f,f,NA,NA,NA,1,6,"13,2,6,14,8,3,12,1,5,7,10,11,4,15,9"
15364,commdev-image-keyboard-response,211,505803,learnblock1,591.2000000476837,img/planet2_right.png,2,Community 1,NA,TRUE,j,j,NA,NA,NA,1,6,"13,2,6,14,8,3,12,1,5,7,10,11,4,15,9"
15364,commdev-image-keyboard-response,212,507059,learnblock1,594.5,img/planet13_left.png,13,Community 1,NA,TRUE,f,f,NA,NA,NA,1,6,"13,2,6,14,8,3,12,1,5,7,10,11,4,15,9"
15364,commdev-image-keyboard-response,213,508311,learnblock1,439.6999999284744,img/planet8_right.png,8,Community 1,NA,TRUE,j,j,NA,NA,NA,1,6,"13,2,6,14,8,3,12,1,5,7,10,11,4,15,9"
15364,commdev-image-keyboard-response,214,509573,learnblock1,632.2000000476837,img/planet13_right.png,13,Community 1,NA,TRUE,j,j,NA,NA,NA,1,6,"13,2,6,14,8,3,12,1,5,7,10,11,4,15,9"
15364,commdev-image-keyboard-response,215,510832,learnblock1,417.89999997615814,img/planet8_right.png,8,Community 1,NA,TRUE,j,j,NA,NA,NA,1,6,"13,2,6,14,8,3,12,1,5,7,10,11,4,15,9"
15364,commdev-image-keyboard-response,216,512100,learnblock1,604.5,img/planet6_left.png,6,Community 1,NA,TRUE,f,f,NA,NA,NA,1,6,"13,2,6,14,8,3,12,1,5,7,10,11,4,15,9"
15364,commdev-image-keyboard-response,217,513359,learnblock1,767.6000000238419,img/planet13_right.png,13,Community 1,NA,TRUE,j,j,NA,NA,NA,1,6,"13,2,6,14,8,3,12,1,5,7,10,11,4,15,9"
15364,commdev-image-keyboard-response,218,514626,learnblock1,961.1000000238419,img/planet14_right.png,14,Community 1,NA,FALSE,f,j,NA,NA,NA,1,6,"13,2,6,14,8,3,12,1,5,7,10,11,4,15,9"
15364,commdev-image-keyboard-response,219,515887,learnblock1,721.1000000238419,img/planet6_left.png,6,Community 1,NA,TRUE,f,f,NA,NA,NA,1,6,"13,2,6,14,8,3,12,1,5,7,10,11,4,15,9"
15364,commdev-image-keyboard-response,220,517141,learnblock1,660.8000000715256,img/planet2_right.png,2,Community 1,NA,TRUE,j,j,NA,NA,NA,1,6,"13,2,6,14,8,3,12,1,5,7,10,11,4,15,9"
15364,commdev-image-keyboard-response,221,518397,learnblock1,582.7000000476837,img/planet6_left.png,6,Community 1,NA,FALSE,j,f,NA,NA,NA,1,6,"13,2,6,14,8,3,12,1,5,7,10,11,4,15,9"
15364,commdev-image-keyboard-response,222,519650,learnblock1,null,img/planet13_left.png,13,Community 1,NA,FALSE,null,f,NA,NA,NA,1,6,"13,2,6,14,8,3,12,1,5,7,10,11,4,15,9"
15364,commdev-image-keyboard-response,223,520905,learnblock1,593.2000000476837,img/planet6_right.png,6,Community 1,NA,TRUE,j,j,NA,NA,NA,1,6,"13,2,6,14,8,3,12,1,5,7,10,11,4,15,9"
15364,commdev-image-keyboard-response,224,522162,learnblock1,763.8999999761581,img/planet13_right.png,13,Community 1,NA,TRUE,j,j,NA,NA,NA,1,6,"13,2,6,14,8,3,12,1,5,7,10,11,4,15,9"
15364,commdev-image-keyboard-response,225,523426,learnblock1,453.5,img/planet8_right.png,8,Community 1,NA,TRUE,j,j,NA,NA,NA,1,6,"13,2,6,14,8,3,12,1,5,7,10,11,4,15,9"
15364,commdev-image-keyboard-response,226,524686,learnblock1,575.2999999523163,img/planet10_left.png,10,Community 3,NA,TRUE,f,f,NA,NA,NA,1,6,"13,2,6,14,8,3,12,1,5,7,10,11,4,15,9"
15364,commdev-image-keyboard-response,227,525948,learnblock1,715.5,img/planet9_left.png,9,Community 3,NA,TRUE,f,f,NA,NA,NA,1,6,"13,2,6,14,8,3,12,1,5,7,10,11,4,15,9"
15364,commdev-image-keyboard-response,228,527215,learnblock1,670.1000000238419,img/planet11_right.png,11,Community 3,NA,TRUE,j,j,NA,NA,NA,1,6,"13,2,6,14,8,3,12,1,5,7,10,11,4,15,9"
15364,commdev-image-keyboard-response,229,528468,learnblock1,937.4000000953674,img/planet1_left.png,1,Community 2,NA,FALSE,j,f,NA,NA,NA,1,6,"13,2,6,14,8,3,12,1,5,7,10,11,4,15,9"
15364,commdev-image-keyboard-response,230,529726,learnblock1,745.8999999761581,img/planet11_left.png,11,Community 3,NA,FALSE,j,f,NA,NA,NA,1,6,"13,2,6,14,8,3,12,1,5,7,10,11,4,15,9"
15364,commdev-image-keyboard-response,231,530990,learnblock1,696.8000000715256,img/planet15_left.png,15,Community 3,NA,TRUE,f,f,NA,NA,NA,1,6,"13,2,6,14,8,3,12,1,5,7,10,11,4,15,9"
15364,commdev-image-keyboard-response,232,532254,learnblock1,650.7000000476837,img/planet4_right.png,4,Community 3,NA,TRUE,j,j,NA,NA,NA,1,6,"13,2,6,14,8,3,12,1,5,7,10,11,4,15,9"
15364,commdev-image-keyboard-response,233,533508,learnblock1,461.1999999284744,img/planet10_left.png,10,Community 3,NA,FALSE,j,f,NA,NA,NA,1,6,"13,2,6,14,8,3,12,1,5,7,10,11,4,15,9"
15364,commdev-image-keyboard-response,234,534775,learnblock1,734.2000000476837,img/planet15_right.png,15,Community 3,NA,TRUE,j,j,NA,NA,NA,1,6,"13,2,6,14,8,3,12,1,5,7,10,11,4,15,9"
15364,commdev-image-keyboard-response,235,536029,learnblock1,767.6999999284744,img/planet11_right.png,11,Community 3,NA,TRUE,j,j,NA,NA,NA,1,6,"13,2,6,14,8,3,12,1,5,7,10,11,4,15,9"
15364,commdev-image-keyboard-response,236,537281,learnblock1,660.7999999523163,img/planet9_left.png,9,Community 3,NA,TRUE,f,f,NA,NA,NA,1,6,"13,2,6,14,8,3,12,1,5,7,10,11,4,15,9"
15364,commdev-image-keyboard-response,237,538535,learnblock1,1017.8999999761581,img/planet11_left.png,11,Community 3,NA,TRUE,f,f,NA,NA,NA,1,6,"13,2,6,14,8,3,12,1,5,7,10,11,4,15,9"
15364,commdev-image-keyboard-response,238,539788,learnblock1,639,img/planet15_left.png,15,Community 3,NA,TRUE,f,f,NA,NA,NA,1,6,"13,2,6,14,8,3,12,1,5,7,10,11,4,15,9"
15364,commdev-image-keyboard-response,239,541048,learnblock1,593.5,img/planet4_right.png,4,Community 3,NA,TRUE,j,j,NA,NA,NA,1,6,"13,2,6,14,8,3,12,1,5,7,10,11,4,15,9"
15364,commdev-image-keyboard-response,240,542306,learnblock1,null,img/planet11_right.png,11,Community 3,NA,FALSE,null,j,NA,NA,NA,1,6,"13,2,6,14,8,3,12,1,5,7,10,11,4,15,9"
15364,commdev-image-keyboard-response,241,543566,learnblock1,1013.5999999046326,img/planet9_left.png,9,Community 3,NA,FALSE,j,f,NA,NA,NA,1,6,"13,2,6,14,8,3,12,1,5,7,10,11,4,15,9"
15364,commdev-image-keyboard-response,242,544823,learnblock1,710.6000000238419,img/planet4_left.png,4,Community 3,NA,TRUE,f,f,NA,NA,NA,1,6,"13,2,6,14,8,3,12,1,5,7,10,11,4,15,9"
15364,commdev-image-keyboard-response,243,546076,learnblock1,876.9000000953674,img/planet11_left.png,11,Community 3,NA,FALSE,j,f,NA,NA,NA,1,6,"13,2,6,14,8,3,12,1,5,7,10,11,4,15,9"
15364,commdev-image-keyboard-response,244,547330,learnblock1,null,img/planet15_right.png,15,Community 3,NA,FALSE,null,j,NA,NA,NA,1,6,"13,2,6,14,8,3,12,1,5,7,10,11,4,15,9"
15364,commdev-image-keyboard-response,245,548591,learnblock1,546.3999999761581,img/planet10_right.png,10,Community 3,NA,TRUE,j,j,NA,NA,NA,1,6,"13,2,6,14,8,3,12,1,5,7,10,11,4,15,9"
15364,commdev-image-keyboard-response,246,549849,learnblock1,797.0999999046326,img/planet15_right.png,15,Community 3,NA,TRUE,j,j,NA,NA,NA,1,6,"13,2,6,14,8,3,12,1,5,7,10,11,4,15,9"
15364,commdev-image-keyboard-response,247,551106,learnblock1,382.39999997615814,img/planet4_left.png,4,Community 3,NA,FALSE,j,f,NA,NA,NA,1,6,"13,2,6,14,8,3,12,1,5,7,10,11,4,15,9"
15364,commdev-image-keyboard-response,248,552363,learnblock1,null,img/planet15_left.png,15,Community 3,NA,FALSE,null,f,NA,NA,NA,1,6,"13,2,6,14,8,3,12,1,5,7,10,11,4,15,9"
15364,commdev-image-keyboard-response,249,553622,learnblock1,19.5,img/planet11_left.png,11,Community 3,NA,TRUE,f,f,NA,NA,NA,1,6,"13,2,6,14,8,3,12,1,5,7,10,11,4,15,9"
15364,commdev-image-keyboard-response,250,554874,learnblock1,256,img/planet4_right.png,4,Community 3,NA,FALSE,f,j,NA,NA,NA,1,6,"13,2,6,14,8,3,12,1,5,7,10,11,4,15,9"
15364,commdev-image-keyboard-response,251,556139,learnblock1,1073,img/planet10_left.png,10,Community 3,NA,TRUE,f,f,NA,NA,NA,1,6,"13,2,6,14,8,3,12,1,5,7,10,11,4,15,9"
15364,commdev-image-keyboard-response,252,557400,learnblock1,null,img/planet15_right.png,15,Community 3,NA,FALSE,null,j,NA,NA,NA,1,6,"13,2,6,14,8,3,12,1,5,7,10,11,4,15,9"
15364,commdev-image-keyboard-response,253,558657,learnblock1,670.8999999761581,img/planet4_right.png,4,Community 3,NA,FALSE,f,j,NA,NA,NA,1,6,"13,2,6,14,8,3,12,1,5,7,10,11,4,15,9"
15364,commdev-image-keyboard-response,254,559912,learnblock1,null,img/planet9_right.png,9,Community 3,NA,FALSE,null,j,NA,NA,NA,1,6,"13,2,6,14,8,3,12,1,5,7,10,11,4,15,9"
15364,commdev-image-keyboard-response,255,561170,learnblock1,572.3999999761581,img/planet10_right.png,10,Community 3,NA,TRUE,j,j,NA,NA,NA,1,6,"13,2,6,14,8,3,12,1,5,7,10,11,4,15,9"
15364,commdev-image-keyboard-response,256,562429,learnblock1,163,img/planet15_right.png,15,Community 3,NA,TRUE,j,j,NA,NA,NA,1,6,"13,2,6,14,8,3,12,1,5,7,10,11,4,15,9"
15364,commdev-image-keyboard-response,257,563682,learnblock1,121.69999992847443,img/planet10_right.png,10,Community 3,NA,TRUE,j,j,NA,NA,NA,1,6,"13,2,6,14,8,3,12,1,5,7,10,11,4,15,9"
15364,commdev-image-keyboard-response,258,564940,learnblock1,125.80000007152557,img/planet15_right.png,15,Community 3,NA,TRUE,j,j,NA,NA,NA,1,6,"13,2,6,14,8,3,12,1,5,7,10,11,4,15,9"
15364,commdev-image-keyboard-response,259,566199,learnblock1,341.1999999284744,img/planet11_right.png,11,Community 3,NA,TRUE,j,j,NA,NA,NA,1,6,"13,2,6,14,8,3,12,1,5,7,10,11,4,15,9"
15364,commdev-image-keyboard-response,260,567455,learnblock1,465.3000000715256,img/planet9_left.png,9,Community 3,NA,TRUE,f,f,NA,NA,NA,1,6,"13,2,6,14,8,3,12,1,5,7,10,11,4,15,9"
15364,commdev-image-keyboard-response,261,568708,learnblock1,120.10000002384186,img/planet10_right.png,10,Community 3,NA,TRUE,j,j,NA,NA,NA,1,6,"13,2,6,14,8,3,12,1,5,7,10,11,4,15,9"
15364,commdev-image-keyboard-response,262,569961,learnblock1,null,img/planet8_right.png,8,Community 1,NA,FALSE,null,j,NA,NA,NA,1,6,"13,2,6,14,8,3,12,1,5,7,10,11,4,15,9"
15364,commdev-image-keyboard-response,263,571222,learnblock1,1125.3999999761581,img/planet10_left.png,10,Community 3,NA,FALSE,j,f,NA,NA,NA,1,6,"13,2,6,14,8,3,12,1,5,7,10,11,4,15,9"
15364,commdev-image-keyboard-response,264,572481,learnblock1,704.6999999284744,img/planet9_right.png,9,Community 3,NA,TRUE,j,j,NA,NA,NA,1,6,"13,2,6,14,8,3,12,1,5,7,10,11,4,15,9"
15364,commdev-image-keyboard-response,265,573740,learnblock1,null,img/planet4_left.png,4,Community 3,NA,FALSE,null,f,NA,NA,NA,1,6,"13,2,6,14,8,3,12,1,5,7,10,11,4,15,9"
15364,commdev-image-keyboard-response,266,574997,learnblock1,874.3999999761581,img/planet15_left.png,15,Community 3,NA,TRUE,f,f,NA,NA,NA,1,6,"13,2,6,14,8,3,12,1,5,7,10,11,4,15,9"
15364,commdev-image-keyboard-response,267,576253,learnblock1,null,img/planet10_left.png,10,Community 3,NA,FALSE,null,f,NA,NA,NA,1,6,"13,2,6,14,8,3,12,1,5,7,10,11,4,15,9"
15364,commdev-image-keyboard-response,268,577512,learnblock1,147.5,img/planet8_right.png,8,Community 1,NA,TRUE,j,j,NA,NA,NA,1,6,"13,2,6,14,8,3,12,1,5,7,10,11,4,15,9"
15364,commdev-image-keyboard-response,269,578768,learnblock1,149.59999990463257,img/planet13_left.png,13,Community 1,NA,FALSE,j,f,NA,NA,NA,1,6,"13,2,6,14,8,3,12,1,5,7,10,11,4,15,9"
15364,commdev-image-keyboard-response,270,580021,learnblock1,478.1999999284744,img/planet2_right.png,2,Community 1,NA,FALSE,f,j,NA,NA,NA,1,6,"13,2,6,14,8,3,12,1,5,7,10,11,4,15,9"
15364,commdev-image-keyboard-response,271,581279,learnblock1,555.6000000238419,img/planet8_left.png,8,Community 1,NA,FALSE,j,f,NA,NA,NA,1,6,"13,2,6,14,8,3,12,1,5,7,10,11,4,15,9"
15364,commdev-image-keyboard-response,272,582543,learnblock1,null,img/planet10_right.png,10,Community 3,NA,FALSE,null,j,NA,NA,NA,1,6,"13,2,6,14,8,3,12,1,5,7,10,11,4,15,9"
15364,commdev-image-keyboard-response,273,583796,learnblock1,109.60000002384186,img/planet4_left.png,4,Community 3,NA,FALSE,j,f,NA,NA,NA,1,6,"13,2,6,14,8,3,12,1,5,7,10,11,4,15,9"
15364,commdev-image-keyboard-response,274,585051,learnblock1,425.2000000476837,img/planet11_right.png,11,Community 3,NA,FALSE,f,j,NA,NA,NA,1,6,"13,2,6,14,8,3,12,1,5,7,10,11,4,15,9"
15364,commdev-image-keyboard-response,275,586312,learnblock1,785.2999999523163,img/planet15_left.png,15,Community 3,NA,FALSE,j,f,NA,NA,NA,1,6,"13,2,6,14,8,3,12,1,5,7,10,11,4,15,9"
15364,commdev-image-keyboard-response,276,587576,learnblock1,71.60000002384186,img/planet10_right.png,10,Community 3,NA,FALSE,f,j,NA,NA,NA,1,6,"13,2,6,14,8,3,12,1,5,7,10,11,4,15,9"
15364,commdev-image-keyboard-response,277,588827,learnblock1,34.699999928474426,img/planet15_left.png,15,Community 3,NA,FALSE,j,f,NA,NA,NA,1,6,"13,2,6,14,8,3,12,1,5,7,10,11,4,15,9"
15364,commdev-image-keyboard-response,278,590084,learnblock1,585.8999999761581,img/planet10_left.png,10,Community 3,NA,TRUE,f,f,NA,NA,NA,1,6,"13,2,6,14,8,3,12,1,5,7,10,11,4,15,9"
15364,commdev-image-keyboard-response,279,591337,learnblock1,630.7999999523163,img/planet8_right.png,8,Community 1,NA,TRUE,j,j,NA,NA,NA,1,6,"13,2,6,14,8,3,12,1,5,7,10,11,4,15,9"
15364,commdev-image-keyboard-response,280,592594,learnblock1,754.8000000715256,img/planet13_right.png,13,Community 1,NA,TRUE,j,j,NA,NA,NA,1,6,"13,2,6,14,8,3,12,1,5,7,10,11,4,15,9"
15364,commdev-image-keyboard-response,281,593851,learnblock1,827.8000000715256,img/planet2_right.png,2,Community 1,NA,TRUE,j,j,NA,NA,NA,1,6,"13,2,6,14,8,3,12,1,5,7,10,11,4,15,9"
15364,commdev-image-keyboard-response,282,595107,learnblock1,476.2000000476837,img/planet13_right.png,13,Community 1,NA,TRUE,j,j,NA,NA,NA,1,6,"13,2,6,14,8,3,12,1,5,7,10,11,4,15,9"
15364,commdev-image-keyboard-response,283,596374,learnblock1,390.60000002384186,img/planet8_right.png,8,Community 1,NA,TRUE,j,j,NA,NA,NA,1,6,"13,2,6,14,8,3,12,1,5,7,10,11,4,15,9"
15364,commdev-image-keyboard-response,284,597626,learnblock1,1213.1000000238419,img/planet10_right.png,10,Community 3,NA,TRUE,j,j,NA,NA,NA,1,6,"13,2,6,14,8,3,12,1,5,7,10,11,4,15,9"
15364,commdev-image-keyboard-response,285,598882,learnblock1,743.5,img/planet8_left.png,8,Community 1,NA,TRUE,f,f,NA,NA,NA,1,6,"13,2,6,14,8,3,12,1,5,7,10,11,4,15,9"
15364,commdev-image-keyboard-response,286,600141,learnblock1,664.1000000238419,img/planet13_right.png,13,Community 1,NA,TRUE,j,j,NA,NA,NA,1,6,"13,2,6,14,8,3,12,1,5,7,10,11,4,15,9"
15364,commdev-image-keyboard-response,287,601402,learnblock1,null,img/planet6_left.png,6,Community 1,NA,FALSE,null,f,NA,NA,NA,1,6,"13,2,6,14,8,3,12,1,5,7,10,11,4,15,9"
15364,commdev-image-keyboard-response,288,602656,learnblock1,7.799999952316284,img/planet2_right.png,2,Community 1,NA,FALSE,f,j,NA,NA,NA,1,6,"13,2,6,14,8,3,12,1,5,7,10,11,4,15,9"
15364,commdev-image-keyboard-response,289,603912,learnblock1,585.2000000476837,img/planet8_right.png,8,Community 1,NA,TRUE,j,j,NA,NA,NA,1,6,"13,2,6,14,8,3,12,1,5,7,10,11,4,15,9"
15364,commdev-image-keyboard-response,290,605165,learnblock1,415.59999990463257,img/planet10_left.png,10,Community 3,NA,FALSE,j,f,NA,NA,NA,1,6,"13,2,6,14,8,3,12,1,5,7,10,11,4,15,9"
15364,commdev-image-keyboard-response,291,606421,learnblock1,892.1999999284744,img/planet15_right.png,15,Community 3,NA,TRUE,j,j,NA,NA,NA,1,6,"13,2,6,14,8,3,12,1,5,7,10,11,4,15,9"
15364,commdev-image-keyboard-response,292,607680,learnblock1,756.2000000476837,img/planet4_right.png,4,Community 3,NA,FALSE,f,j,NA,NA,NA,1,6,"13,2,6,14,8,3,12,1,5,7,10,11,4,15,9"
15364,commdev-image-keyboard-response,293,608931,learnblock1,null,img/planet11_left.png,11,Community 3,NA,FALSE,null,f,NA,NA,NA,1,6,"13,2,6,14,8,3,12,1,5,7,10,11,4,15,9"
15364,commdev-image-keyboard-response,294,610186,learnblock1,863.4000000953674,img/planet15_left.png,15,Community 3,NA,FALSE,j,f,NA,NA,NA,1,6,"13,2,6,14,8,3,12,1,5,7,10,11,4,15,9"
15364,commdev-image-keyboard-response,295,611443,learnblock1,null,img/planet9_left.png,9,Community 3,NA,FALSE,null,f,NA,NA,NA,1,6,"13,2,6,14,8,3,12,1,5,7,10,11,4,15,9"
15364,commdev-image-keyboard-response,296,612699,learnblock1,null,img/planet10_right.png,10,Community 3,NA,FALSE,null,j,NA,NA,NA,1,6,"13,2,6,14,8,3,12,1,5,7,10,11,4,15,9"
15364,commdev-image-keyboard-response,297,613958,learnblock1,107.20000004768372,img/planet15_left.png,15,Community 3,NA,FALSE,j,f,NA,NA,NA,1,6,"13,2,6,14,8,3,12,1,5,7,10,11,4,15,9"
15364,commdev-image-keyboard-response,298,615213,learnblock1,null,img/planet10_left.png,10,Community 3,NA,FALSE,null,f,NA,NA,NA,1,6,"13,2,6,14,8,3,12,1,5,7,10,11,4,15,9"
15364,commdev-image-keyboard-response,299,616475,learnblock1,null,img/planet8_left.png,8,Community 1,NA,FALSE,null,f,NA,NA,NA,1,6,"13,2,6,14,8,3,12,1,5,7,10,11,4,15,9"
15364,commdev-image-keyboard-response,300,617733,learnblock1,212.19999992847443,img/planet13_left.png,13,Community 1,NA,FALSE,j,f,NA,NA,NA,1,6,"13,2,6,14,8,3,12,1,5,7,10,11,4,15,9"
15364,commdev-image-keyboard-response,301,618988,learnblock1,null,img/planet14_right.png,14,Community 1,NA,FALSE,null,j,NA,NA,NA,1,6,"13,2,6,14,8,3,12,1,5,7,10,11,4,15,9"
15364,commdev-image-keyboard-response,302,620242,learnblock1,1121.9000000953674,img/planet6_right.png,6,Community 1,NA,TRUE,j,j,NA,NA,NA,1,6,"13,2,6,14,8,3,12,1,5,7,10,11,4,15,9"
15364,commdev-image-keyboard-response,303,621506,learnblock1,670.5,img/planet13_left.png,13,Community 1,NA,TRUE,f,f,NA,NA,NA,1,6,"13,2,6,14,8,3,12,1,5,7,10,11,4,15,9"
15364,commdev-image-keyboard-response,304,622759,learnblock1,1031.3999999761581,img/planet8_left.png,8,Community 1,NA,TRUE,f,f,NA,NA,NA,1,6,"13,2,6,14,8,3,12,1,5,7,10,11,4,15,9"
15364,commdev-image-keyboard-response,305,624019,learnblock1,622.2000000476837,img/planet2_left.png,2,Community 1,NA,TRUE,f,f,NA,NA,NA,1,6,"13,2,6,14,8,3,12,1,5,7,10,11,4,15,9"
15364,commdev-image-keyboard-response,306,625278,learnblock1,910.1999999284744,img/planet6_left.png,6,Community 1,NA,TRUE,f,f,NA,NA,NA,1,6,"13,2,6,14,8,3,12,1,5,7,10,11,4,15,9"
15364,commdev-image-keyboard-response,307,626543,learnblock1,891.7999999523163,img/planet14_right.png,14,Community 1,NA,TRUE,j,j,NA,NA,NA,1,6,"13,2,6,14,8,3,12,1,5,7,10,11,4,15,9"
15364,commdev-image-keyboard-response,308,627797,learnblock1,567.5999999046326,img/planet13_right.png,13,Community 1,NA,TRUE,j,j,NA,NA,NA,1,6,"13,2,6,14,8,3,12,1,5,7,10,11,4,15,9"
15364,commdev-image-keyboard-response,309,629052,learnblock1,783.6000000238419,img/planet2_left.png,2,Community 1,NA,TRUE,f,f,NA,NA,NA,1,6,"13,2,6,14,8,3,12,1,5,7,10,11,4,15,9"
15364,commdev-image-keyboard-response,310,630304,learnblock1,790.6999999284744,img/planet6_right.png,6,Community 1,NA,TRUE,j,j,NA,NA,NA,1,6,"13,2,6,14,8,3,12,1,5,7,10,11,4,15,9"
15364,commdev-image-keyboard-response,311,631572,learnblock1,683.8000000715256,img/planet13_left.png,13,Community 1,NA,TRUE,f,f,NA,NA,NA,1,6,"13,2,6,14,8,3,12,1,5,7,10,11,4,15,9"
15364,commdev-image-keyboard-response,312,632826,learnblock1,631.0999999046326,img/planet14_left.png,14,Community 1,NA,FALSE,j,f,NA,NA,NA,1,6,"13,2,6,14,8,3,12,1,5,7,10,11,4,15,9"
15364,commdev-image-keyboard-response,313,634082,learnblock1,649.5,img/planet2_right.png,2,Community 1,NA,TRUE,j,j,NA,NA,NA,1,6,"13,2,6,14,8,3,12,1,5,7,10,11,4,15,9"
15364,commdev-image-keyboard-response,314,635342,learnblock1,661.6000000238419,img/planet8_right.png,8,Community 1,NA,TRUE,j,j,NA,NA,NA,1,6,"13,2,6,14,8,3,12,1,5,7,10,11,4,15,9"
15364,commdev-image-keyboard-response,315,636596,learnblock1,678.2999999523163,img/planet13_right.png,13,Community 1,NA,TRUE,j,j,NA,NA,NA,1,6,"13,2,6,14,8,3,12,1,5,7,10,11,4,15,9"
15364,commdev-image-keyboard-response,316,637864,learnblock1,554.7000000476837,img/planet2_right.png,2,Community 1,NA,TRUE,j,j,NA,NA,NA,1,6,"13,2,6,14,8,3,12,1,5,7,10,11,4,15,9"
15364,commdev-image-keyboard-response,317,639118,learnblock1,580.2999999523163,img/planet8_left.png,8,Community 1,NA,FALSE,j,f,NA,NA,NA,1,6,"13,2,6,14,8,3,12,1,5,7,10,11,4,15,9"
15364,commdev-image-keyboard-response,318,640377,learnblock1,63.39999997615814,img/planet6_left.png,6,Community 1,NA,TRUE,f,f,NA,NA,NA,1,6,"13,2,6,14,8,3,12,1,5,7,10,11,4,15,9"
15364,commdev-image-keyboard-response,319,641636,learnblock1,620.3000000715256,img/planet8_right.png,8,Community 1,NA,TRUE,j,j,NA,NA,NA,1,6,"13,2,6,14,8,3,12,1,5,7,10,11,4,15,9"
15364,commdev-image-keyboard-response,320,642899,learnblock1,576.6999999284744,img/planet6_left.png,6,Community 1,NA,TRUE,f,f,NA,NA,NA,1,6,"13,2,6,14,8,3,12,1,5,7,10,11,4,15,9"
15364,commdev-image-keyboard-response,321,644163,learnblock1,640.2999999523163,img/planet13_right.png,13,Community 1,NA,TRUE,j,j,NA,NA,NA,1,6,"13,2,6,14,8,3,12,1,5,7,10,11,4,15,9"
15364,commdev-image-keyboard-response,322,645423,learnblock1,615.2000000476837,img/planet6_left.png,6,Community 1,NA,TRUE,f,f,NA,NA,NA,1,6,"13,2,6,14,8,3,12,1,5,7,10,11,4,15,9"
15364,commdev-image-keyboard-response,323,646677,learnblock1,483.7999999523163,img/planet2_right.png,2,Community 1,NA,FALSE,f,j,NA,NA,NA,1,6,"13,2,6,14,8,3,12,1,5,7,10,11,4,15,9"
15364,commdev-image-keyboard-response,324,647934,learnblock1,700.7999999523163,img/planet13_right.png,13,Community 1,NA,TRUE,j,j,NA,NA,NA,1,6,"13,2,6,14,8,3,12,1,5,7,10,11,4,15,9"
15364,commdev-image-keyboard-response,325,649193,learnblock1,618.6000000238419,img/planet8_left.png,8,Community 1,NA,TRUE,f,f,NA,NA,NA,1,6,"13,2,6,14,8,3,12,1,5,7,10,11,4,15,9"
15364,commdev-image-keyboard-response,326,650455,learnblock1,1117.1999999284744,img/planet6_left.png,6,Community 1,NA,FALSE,j,f,NA,NA,NA,1,6,"13,2,6,14,8,3,12,1,5,7,10,11,4,15,9"
15364,commdev-image-keyboard-response,327,651713,learnblock1,null,img/planet14_left.png,14,Community 1,NA,FALSE,null,f,NA,NA,NA,1,6,"13,2,6,14,8,3,12,1,5,7,10,11,4,15,9"
15364,commdev-image-keyboard-response,328,652970,learnblock1,321.2999999523163,img/planet3_right.png,3,Community 2,NA,FALSE,f,j,NA,NA,NA,1,6,"13,2,6,14,8,3,12,1,5,7,10,11,4,15,9"
15364,commdev-image-keyboard-response,329,654230,learnblock1,653.1000000238419,img/planet5_right.png,5,Community 2,NA,TRUE,j,j,NA,NA,NA,1,6,"13,2,6,14,8,3,12,1,5,7,10,11,4,15,9"
15364,commdev-image-keyboard-response,330,655492,learnblock1,886.2000000476837,img/planet3_right.png,3,Community 2,NA,TRUE,j,j,NA,NA,NA,1,6,"13,2,6,14,8,3,12,1,5,7,10,11,4,15,9"
15364,commdev-image-keyboard-response,331,656758,learnblock1,654,img/planet7_left.png,7,Community 2,NA,FALSE,j,f,NA,NA,NA,1,6,"13,2,6,14,8,3,12,1,5,7,10,11,4,15,9"
15364,commdev-image-keyboard-response,332,658015,learnblock1,996.3999999761581,img/planet3_left.png,3,Community 2,NA,FALSE,j,f,NA,NA,NA,1,6,"13,2,6,14,8,3,12,1,5,7,10,11,4,15,9"
15364,commdev-image-keyboard-response,333,659281,learnblock1,938.5,img/planet14_right.png,14,Community 1,NA,TRUE,j,j,NA,NA,NA,1,6,"13,2,6,14,8,3,12,1,5,7,10,11,4,15,9"
15364,commdev-image-keyboard-response,334,660547,learnblock1,null,img/planet3_right.png,3,Community 2,NA,FALSE,null,j,NA,NA,NA,1,6,"13,2,6,14,8,3,12,1,5,7,10,11,4,15,9"
15364,commdev-image-keyboard-response,335,661802,learnblock1,null,img/planet12_left.png,12,Community 2,NA,FALSE,null,f,NA,NA,NA,1,6,"13,2,6,14,8,3,12,1,5,7,10,11,4,15,9"
15364,commdev-image-keyboard-response,336,663067,learnblock1,730,img/planet5_right.png,5,Community 2,NA,FALSE,f,j,NA,NA,NA,1,6,"13,2,6,14,8,3,12,1,5,7,10,11,4,15,9"
15364,commdev-image-keyboard-response,337,664321,learnblock1,1131.6999999284744,img/planet3_right.png,3,Community 2,NA,FALSE,f,j,NA,NA,NA,1,6,"13,2,6,14,8,3,12,1,5,7,10,11,4,15,9"
15364,commdev-image-keyboard-response,338,665583,learnblock1,762.8999999761581,img/planet12_right.png,12,Community 2,NA,FALSE,f,j,NA,NA,NA,1,6,"13,2,6,14,8,3,12,1,5,7,10,11,4,15,9"
15364,commdev-image-keyboard-response,339,666844,learnblock1,null,img/planet1_left.png,1,Community 2,NA,FALSE,null,f,NA,NA,NA,1,6,"13,2,6,14,8,3,12,1,5,7,10,11,4,15,9"
15364,commdev-image-keyboard-response,340,668100,learnblock1,null,img/planet11_left.png,11,Community 3,NA,FALSE,null,f,NA,NA,NA,1,6,"13,2,6,14,8,3,12,1,5,7,10,11,4,15,9"
15364,commdev-image-keyboard-response,341,669361,learnblock1,677.5,img/planet4_right.png,4,Community 3,NA,TRUE,j,j,NA,NA,NA,1,6,"13,2,6,14,8,3,12,1,5,7,10,11,4,15,9"
15364,commdev-image-keyboard-response,342,670619,learnblock1,null,img/planet9_right.png,9,Community 3,NA,FALSE,null,j,NA,NA,NA,1,6,"13,2,6,14,8,3,12,1,5,7,10,11,4,15,9"
15364,commdev-image-keyboard-response,343,671878,learnblock1,55,img/planet15_left.png,15,Community 3,NA,FALSE,j,f,NA,NA,NA,1,6,"13,2,6,14,8,3,12,1,5,7,10,11,4,15,9"
15364,commdev-image-keyboard-response,344,673131,learnblock1,754.1999999284744,img/planet4_left.png,4,Community 3,NA,TRUE,f,f,NA,NA,NA,1,6,"13,2,6,14,8,3,12,1,5,7,10,11,4,15,9"
15364,commdev-image-keyboard-response,345,674383,learnblock1,409,img/planet9_right.png,9,Community 3,NA,FALSE,f,j,NA,NA,NA,1,6,"13,2,6,14,8,3,12,1,5,7,10,11,4,15,9"
15364,commdev-image-keyboard-response,346,675645,learnblock1,369.60000002384186,img/planet11_right.png,11,Community 3,NA,TRUE,j,j,NA,NA,NA,1,6,"13,2,6,14,8,3,12,1,5,7,10,11,4,15,9"
15364,commdev-image-keyboard-response,347,676901,learnblock1,null,img/planet9_right.png,9,Community 3,NA,FALSE,null,j,NA,NA,NA,1,6,"13,2,6,14,8,3,12,1,5,7,10,11,4,15,9"
15364,commdev-image-keyboard-response,351,691930,learnblock2,null,img/planet12_right.png,12,Community 2,NA,FALSE,null,j,NA,NA,NA,1,6,"13,2,6,14,8,3,12,1,5,7,10,11,4,15,9"
15364,commdev-image-keyboard-response,352,693184,learnblock2,null,img/planet1_right.png,1,Community 2,NA,FALSE,null,j,NA,NA,NA,1,6,"13,2,6,14,8,3,12,1,5,7,10,11,4,15,9"
15364,commdev-image-keyboard-response,353,694436,learnblock2,576,img/planet11_right.png,11,Community 3,NA,TRUE,j,j,NA,NA,NA,1,6,"13,2,6,14,8,3,12,1,5,7,10,11,4,15,9"
15364,commdev-image-keyboard-response,354,695692,learnblock2,587.7999999523163,img/planet15_left.png,15,Community 3,NA,TRUE,f,f,NA,NA,NA,1,6,"13,2,6,14,8,3,12,1,5,7,10,11,4,15,9"
15364,commdev-image-keyboard-response,355,696959,learnblock2,531.4000000953674,img/planet11_left.png,11,Community 3,NA,TRUE,f,f,NA,NA,NA,1,6,"13,2,6,14,8,3,12,1,5,7,10,11,4,15,9"
15364,commdev-image-keyboard-response,356,698227,learnblock2,671.5,img/planet9_right.png,9,Community 3,NA,TRUE,j,j,NA,NA,NA,1,6,"13,2,6,14,8,3,12,1,5,7,10,11,4,15,9"
15364,commdev-image-keyboard-response,357,699484,learnblock2,595.6000000238419,img/planet11_right.png,11,Community 3,NA,TRUE,j,j,NA,NA,NA,1,6,"13,2,6,14,8,3,12,1,5,7,10,11,4,15,9"
15364,commdev-image-keyboard-response,358,700744,learnblock2,474.5,img/planet4_left.png,4,Community 3,NA,TRUE,f,f,NA,NA,NA,1,6,"13,2,6,14,8,3,12,1,5,7,10,11,4,15,9"
15364,commdev-image-keyboard-response,359,702000,learnblock2,597.3999999761581,img/planet11_left.png,11,Community 3,NA,TRUE,f,f,NA,NA,NA,1,6,"13,2,6,14,8,3,12,1,5,7,10,11,4,15,9"
15364,commdev-image-keyboard-response,360,703252,learnblock2,726.4000000953674,img/planet4_right.png,4,Community 3,NA,TRUE,j,j,NA,NA,NA,1,6,"13,2,6,14,8,3,12,1,5,7,10,11,4,15,9"
15364,commdev-image-keyboard-response,361,704509,learnblock2,502.7000000476837,img/planet9_right.png,9,Community 3,NA,FALSE,f,j,NA,NA,NA,1,6,"13,2,6,14,8,3,12,1,5,7,10,11,4,15,9"
15364,commdev-image-keyboard-response,362,705763,learnblock2,842.7000000476837,img/planet10_right.png,10,Community 3,NA,TRUE,j,j,NA,NA,NA,1,6,"13,2,6,14,8,3,12,1,5,7,10,11,4,15,9"
15364,commdev-image-keyboard-response,363,707020,learnblock2,684.1999999284744,img/planet9_left.png,9,Community 3,NA,TRUE,f,f,NA,NA,NA,1,6,"13,2,6,14,8,3,12,1,5,7,10,11,4,15,9"
15364,commdev-image-keyboard-response,364,708274,learnblock2,652.8999999761581,img/planet15_left.png,15,Community 3,NA,TRUE,f,f,NA,NA,NA,1,6,"13,2,6,14,8,3,12,1,5,7,10,11,4,15,9"
15364,commdev-image-keyboard-response,365,709533,learnblock2,762.8000000715256,img/planet9_left.png,9,Community 3,NA,TRUE,f,f,NA,NA,NA,1,6,"13,2,6,14,8,3,12,1,5,7,10,11,4,15,9"
15364,commdev-image-keyboard-response,366,710797,learnblock2,956.2999999523163,img/planet15_left.png,15,Community 3,NA,TRUE,f,f,NA,NA,NA,1,6,"13,2,6,14,8,3,12,1,5,7,10,11,4,15,9"
15364,commdev-image-keyboard-response,367,712057,learnblock2,null,img/planet11_left.png,11,Community 3,NA,FALSE,null,f,NA,NA,NA,1,6,"13,2,6,14,8,3,12,1,5,7,10,11,4,15,9"
15364,commdev-image-keyboard-response,368,713313,learnblock2,600.7000000476837,img/planet4_left.png,4,Community 3,NA,TRUE,f,f,NA,NA,NA,1,6,"13,2,6,14,8,3,12,1,5,7,10,11,4,15,9"
15364,commdev-image-keyboard-response,369,714564,learnblock2,473.39999997615814,img/planet11_left.png,11,Community 3,NA,TRUE,f,f,NA,NA,NA,1,6,"13,2,6,14,8,3,12,1,5,7,10,11,4,15,9"
15364,commdev-image-keyboard-response,370,715828,learnblock2,358.2999999523163,img/planet15_right.png,15,Community 3,NA,FALSE,f,j,NA,NA,NA,1,6,"13,2,6,14,8,3,12,1,5,7,10,11,4,15,9"
15364,commdev-image-keyboard-response,371,717081,learnblock2,806.1999999284744,img/planet10_left.png,10,Community 3,NA,TRUE,f,f,NA,NA,NA,1,6,"13,2,6,14,8,3,12,1,5,7,10,11,4,15,9"
15364,commdev-image-keyboard-response,372,718339,learnblock2,553.8000000715256,img/planet15_left.png,15,Community 3,NA,TRUE,f,f,NA,NA,NA,1,6,"13,2,6,14,8,3,12,1,5,7,10,11,4,15,9"
15364,commdev-image-keyboard-response,373,719596,learnblock2,null,img/planet10_right.png,10,Community 3,NA,FALSE,null,j,NA,NA,NA,1,6,"13,2,6,14,8,3,12,1,5,7,10,11,4,15,9"
15364,commdev-image-keyboard-response,374,720854,learnblock2,441.7999999523163,img/planet9_right.png,9,Community 3,NA,TRUE,j,j,NA,NA,NA,1,6,"13,2,6,14,8,3,12,1,5,7,10,11,4,15,9"
15364,commdev-image-keyboard-response,375,722115,learnblock2,null,img/planet4_left.png,4,Community 3,NA,FALSE,null,f,NA,NA,NA,1,6,"13,2,6,14,8,3,12,1,5,7,10,11,4,15,9"
15364,commdev-image-keyboard-response,376,723372,learnblock2,450.89999997615814,img/planet15_right.png,15,Community 3,NA,TRUE,j,j,NA,NA,NA,1,6,"13,2,6,14,8,3,12,1,5,7,10,11,4,15,9"
15364,commdev-image-keyboard-response,377,724628,learnblock2,523,img/planet9_left.png,9,Community 3,NA,TRUE,f,f,NA,NA,NA,1,6,"13,2,6,14,8,3,12,1,5,7,10,11,4,15,9"
15364,commdev-image-keyboard-response,378,725883,learnblock2,574.2000000476837,img/planet4_right.png,4,Community 3,NA,FALSE,f,j,NA,NA,NA,1,6,"13,2,6,14,8,3,12,1,5,7,10,11,4,15,9"
15364,commdev-image-keyboard-response,379,727135,learnblock2,392.10000002384186,img/planet15_left.png,15,Community 3,NA,FALSE,j,f,NA,NA,NA,1,6,"13,2,6,14,8,3,12,1,5,7,10,11,4,15,9"
15364,commdev-image-keyboard-response,380,728393,learnblock2,null,img/planet4_right.png,4,Community 3,NA,FALSE,null,j,NA,NA,NA,1,6,"13,2,6,14,8,3,12,1,5,7,10,11,4,15,9"
15364,commdev-image-keyboard-response,381,729656,learnblock2,663.3000000715256,img/planet10_right.png,10,Community 3,NA,TRUE,j,j,NA,NA,NA,1,6,"13,2,6,14,8,3,12,1,5,7,10,11,4,15,9"
15364,commdev-image-keyboard-response,382,730914,learnblock2,833.5,img/planet15_left.png,15,Community 3,NA,FALSE,j,f,NA,NA,NA,1,6,"13,2,6,14,8,3,12,1,5,7,10,11,4,15,9"
15364,commdev-image-keyboard-response,383,732173,learnblock2,396.2000000476837,img/planet10_right.png,10,Community 3,NA,TRUE,j,j,NA,NA,NA,1,6,"13,2,6,14,8,3,12,1,5,7,10,11,4,15,9"
15364,commdev-image-keyboard-response,384,733429,learnblock2,null,img/planet8_left.png,8,Community 1,NA,FALSE,null,f,NA,NA,NA,1,6,"13,2,6,14,8,3,12,1,5,7,10,11,4,15,9"
15364,commdev-image-keyboard-response,385,734687,learnblock2,93.20000004768372,img/planet2_left.png,2,Community 1,NA,TRUE,f,f,NA,NA,NA,1,6,"13,2,6,14,8,3,12,1,5,7,10,11,4,15,9"
15364,commdev-image-keyboard-response,386,735942,learnblock2,null,img/planet14_left.png,14,Community 1,NA,FALSE,null,f,NA,NA,NA,1,6,"13,2,6,14,8,3,12,1,5,7,10,11,4,15,9"
15364,commdev-image-keyboard-response,387,737198,learnblock2,327.2999999523163,img/planet2_left.png,2,Community 1,NA,TRUE,f,f,NA,NA,NA,1,6,"13,2,6,14,8,3,12,1,5,7,10,11,4,15,9"
15364,commdev-image-keyboard-response,388,738458,learnblock2,459.2000000476837,img/planet6_right.png,6,Community 1,NA,FALSE,f,j,NA,NA,NA,1,6,"13,2,6,14,8,3,12,1,5,7,10,11,4,15,9"
15364,commdev-image-keyboard-response,389,739715,learnblock2,261.09999990463257,img/planet13_right.png,13,Community 1,NA,FALSE,f,j,NA,NA,NA,1,6,"13,2,6,14,8,3,12,1,5,7,10,11,4,15,9"
15364,commdev-image-keyboard-response,390,740972,learnblock2,494,img/planet8_left.png,8,Community 1,NA,TRUE,f,f,NA,NA,NA,1,6,"13,2,6,14,8,3,12,1,5,7,10,11,4,15,9"
15364,commdev-image-keyboard-response,391,742223,learnblock2,null,img/planet2_right.png,2,Community 1,NA,FALSE,null,j,NA,NA,NA,1,6,"13,2,6,14,8,3,12,1,5,7,10,11,4,15,9"
15364,commdev-image-keyboard-response,392,743482,learnblock2,749,img/planet14_right.png,14,Community 1,NA,TRUE,j,j,NA,NA,NA,1,6,"13,2,6,14,8,3,12,1,5,7,10,11,4,15,9"
15364,commdev-image-keyboard-response,393,744735,learnblock2,367.89999997615814,img/planet3_right.png,3,Community 2,NA,TRUE,j,j,NA,NA,NA,1,6,"13,2,6,14,8,3,12,1,5,7,10,11,4,15,9"
15364,commdev-image-keyboard-response,394,745994,learnblock2,null,img/planet7_right.png,7,Community 2,NA,FALSE,null,j,NA,NA,NA,1,6,"13,2,6,14,8,3,12,1,5,7,10,11,4,15,9"
15364,commdev-image-keyboard-response,395,747248,learnblock2,811.0999999046326,img/planet3_left.png,3,Community 2,NA,TRUE,f,f,NA,NA,NA,1,6,"13,2,6,14,8,3,12,1,5,7,10,11,4,15,9"
15364,commdev-image-keyboard-response,396,748502,learnblock2,546.3999999761581,img/planet14_right.png,14,Community 1,NA,TRUE,j,j,NA,NA,NA,1,6,"13,2,6,14,8,3,12,1,5,7,10,11,4,15,9"
15364,commdev-image-keyboard-response,397,749754,learnblock2,null,img/planet3_left.png,3,Community 2,NA,FALSE,null,f,NA,NA,NA,1,6,"13,2,6,14,8,3,12,1,5,7,10,11,4,15,9"
15364,commdev-image-keyboard-response,398,751014,learnblock2,298.7000000476837,img/planet5_right.png,5,Community 2,NA,FALSE,f,j,NA,NA,NA,1,6,"13,2,6,14,8,3,12,1,5,7,10,11,4,15,9"
15364,commdev-image-keyboard-response,399,752270,learnblock2,113.70000004768372,img/planet12_right.png,12,Community 2,NA,TRUE,j,j,NA,NA,NA,1,6,"13,2,6,14,8,3,12,1,5,7,10,11,4,15,9"
15364,commdev-image-keyboard-response,400,753536,learnblock2,838.1999999284744,img/planet1_right.png,1,Community 2,NA,TRUE,j,j,NA,NA,NA,1,6,"13,2,6,14,8,3,12,1,5,7,10,11,4,15,9"
15364,commdev-image-keyboard-response,401,754794,learnblock2,516.1999999284744,img/planet7_left.png,7,Community 2,NA,TRUE,f,f,NA,NA,NA,1,6,"13,2,6,14,8,3,12,1,5,7,10,11,4,15,9"
15364,commdev-image-keyboard-response,402,756047,learnblock2,363.8000000715256,img/planet3_left.png,3,Community 2,NA,FALSE,j,f,NA,NA,NA,1,6,"13,2,6,14,8,3,12,1,5,7,10,11,4,15,9"
15364,commdev-image-keyboard-response,403,757307,learnblock2,66.20000004768372,img/planet12_right.png,12,Community 2,NA,FALSE,f,j,NA,NA,NA,1,6,"13,2,6,14,8,3,12,1,5,7,10,11,4,15,9"
15364,commdev-image-keyboard-response,404,758562,learnblock2,595.2000000476837,img/planet3_left.png,3,Community 2,NA,TRUE,f,f,NA,NA,NA,1,6,"13,2,6,14,8,3,12,1,5,7,10,11,4,15,9"
15364,commdev-image-keyboard-response,405,759819,learnblock2,817.2000000476837,img/planet14_left.png,14,Community 1,NA,FALSE,j,f,NA,NA,NA,1,6,"13,2,6,14,8,3,12,1,5,7,10,11,4,15,9"
15364,commdev-image-keyboard-response,406,761079,learnblock2,977,img/planet2_left.png,2,Community 1,NA,FALSE,j,f,NA,NA,NA,1,6,"13,2,6,14,8,3,12,1,5,7,10,11,4,15,9"
15364,commdev-image-keyboard-response,407,762339,learnblock2,686,img/planet8_left.png,8,Community 1,NA,FALSE,j,f,NA,NA,NA,1,6,"13,2,6,14,8,3,12,1,5,7,10,11,4,15,9"
15364,commdev-image-keyboard-response,408,763593,learnblock2,712.0999999046326,img/planet10_right.png,10,Community 3,NA,FALSE,f,j,NA,NA,NA,1,6,"13,2,6,14,8,3,12,1,5,7,10,11,4,15,9"
15364,commdev-image-keyboard-response,409,764852,learnblock2,743.5,img/planet15_right.png,15,Community 3,NA,TRUE,j,j,NA,NA,NA,1,6,"13,2,6,14,8,3,12,1,5,7,10,11,4,15,9"
15364,commdev-image-keyboard-response,410,766112,learnblock2,770,img/planet10_left.png,10,Community 3,NA,TRUE,f,f,NA,NA,NA,1,6,"13,2,6,14,8,3,12,1,5,7,10,11,4,15,9"
15364,commdev-image-keyboard-response,411,767365,learnblock2,523.1999999284744,img/planet8_right.png,8,Community 1,NA,TRUE,j,j,NA,NA,NA,1,6,"13,2,6,14,8,3,12,1,5,7,10,11,4,15,9"
15364,commdev-image-keyboard-response,412,768624,learnblock2,463.39999997615814,img/planet10_left.png,10,Community 3,NA,TRUE,f,f,NA,NA,NA,1,6,"13,2,6,14,8,3,12,1,5,7,10,11,4,15,9"
15364,commdev-image-keyboard-response,413,769894,learnblock2,633.1000000238419,img/planet15_right.png,15,Community 3,NA,TRUE,j,j,NA,NA,NA,1,6,"13,2,6,14,8,3,12,1,5,7,10,11,4,15,9"
15364,commdev-image-keyboard-response,414,771151,learnblock2,1042.7999999523163,img/planet10_right.png,10,Community 3,NA,TRUE,j,j,NA,NA,NA,1,6,"13,2,6,14,8,3,12,1,5,7,10,11,4,15,9"
15364,commdev-image-keyboard-response,415,772408,learnblock2,665.2000000476837,img/planet8_left.png,8,Community 1,NA,TRUE,f,f,NA,NA,NA,1,6,"13,2,6,14,8,3,12,1,5,7,10,11,4,15,9"
15364,commdev-image-keyboard-response,416,773666,learnblock2,797,img/planet2_left.png,2,Community 1,NA,FALSE,j,f,NA,NA,NA,1,6,"13,2,6,14,8,3,12,1,5,7,10,11,4,15,9"
15364,commdev-image-keyboard-response,417,774920,learnblock2,158.5,img/planet8_right.png,8,Community 1,NA,FALSE,f,j,NA,NA,NA,1,6,"13,2,6,14,8,3,12,1,5,7,10,11,4,15,9"
15364,commdev-image-keyboard-response,418,776180,learnblock2,118.79999995231628,img/planet2_right.png,2,Community 1,NA,TRUE,j,j,NA,NA,NA,1,6,"13,2,6,14,8,3,12,1,5,7,10,11,4,15,9"
15364,commdev-image-keyboard-response,419,777438,learnblock2,593.7999999523163,img/planet14_left.png,14,Community 1,NA,TRUE,f,f,NA,NA,NA,1,6,"13,2,6,14,8,3,12,1,5,7,10,11,4,15,9"
15364,commdev-image-keyboard-response,420,778693,learnblock2,967.3999999761581,img/planet6_right.png,6,Community 1,NA,TRUE,j,j,NA,NA,NA,1,6,"13,2,6,14,8,3,12,1,5,7,10,11,4,15,9"
15364,commdev-image-keyboard-response,421,779951,learnblock2,null,img/planet13_right.png,13,Community 1,NA,FALSE,null,j,NA,NA,NA,1,6,"13,2,6,14,8,3,12,1,5,7,10,11,4,15,9"
15364,commdev-image-keyboard-response,422,781210,learnblock2,808.0999999046326,img/planet14_right.png,14,Community 1,NA,TRUE,j,j,NA,NA,NA,1,6,"13,2,6,14,8,3,12,1,5,7,10,11,4,15,9"
15364,commdev-image-keyboard-response,423,782465,learnblock2,612,img/planet2_left.png,2,Community 1,NA,TRUE,f,f,NA,NA,NA,1,6,"13,2,6,14,8,3,12,1,5,7,10,11,4,15,9"
15364,commdev-image-keyboard-response,424,783722,learnblock2,null,img/planet6_left.png,6,Community 1,NA,FALSE,null,f,NA,NA,NA,1,6,"13,2,6,14,8,3,12,1,5,7,10,11,4,15,9"
15364,commdev-image-keyboard-response,425,784979,learnblock2,493.60000002384186,img/planet14_left.png,14,Community 1,NA,FALSE,j,f,NA,NA,NA,1,6,"13,2,6,14,8,3,12,1,5,7,10,11,4,15,9"
15364,commdev-image-keyboard-response,426,786238,learnblock2,663.2000000476837,img/planet13_left.png,13,Community 1,NA,FALSE,j,f,NA,NA,NA,1,6,"13,2,6,14,8,3,12,1,5,7,10,11,4,15,9"
15364,commdev-image-keyboard-response,427,787494,learnblock2,109,img/planet2_right.png,2,Community 1,NA,FALSE,f,j,NA,NA,NA,1,6,"13,2,6,14,8,3,12,1,5,7,10,11,4,15,9"
15364,commdev-image-keyboard-response,428,788758,learnblock2,1245.3999999761581,img/planet8_right.png,8,Community 1,NA,TRUE,j,j,NA,NA,NA,1,6,"13,2,6,14,8,3,12,1,5,7,10,11,4,15,9"
15364,commdev-image-keyboard-response,429,790010,learnblock2,964.5,img/planet2_left.png,2,Community 1,NA,TRUE,f,f,NA,NA,NA,1,6,"13,2,6,14,8,3,12,1,5,7,10,11,4,15,9"
15364,commdev-image-keyboard-response,430,791268,learnblock2,590,img/planet6_right.png,6,Community 1,NA,TRUE,j,j,NA,NA,NA,1,6,"13,2,6,14,8,3,12,1,5,7,10,11,4,15,9"
15364,commdev-image-keyboard-response,431,792532,learnblock2,542.6000000238419,img/planet14_left.png,14,Community 1,NA,TRUE,f,f,NA,NA,NA,1,6,"13,2,6,14,8,3,12,1,5,7,10,11,4,15,9"
15364,commdev-image-keyboard-response,432,793788,learnblock2,675.7000000476837,img/planet3_left.png,3,Community 2,NA,TRUE,f,f,NA,NA,NA,1,6,"13,2,6,14,8,3,12,1,5,7,10,11,4,15,9"
15364,commdev-image-keyboard-response,433,795048,learnblock2,1008.6000000238419,img/planet7_right.png,7,Community 2,NA,FALSE,f,j,NA,NA,NA,1,6,"13,2,6,14,8,3,12,1,5,7,10,11,4,15,9"
15364,commdev-image-keyboard-response,434,796302,learnblock2,884.1999999284744,img/planet3_left.png,3,Community 2,NA,TRUE,f,f,NA,NA,NA,1,6,"13,2,6,14,8,3,12,1,5,7,10,11,4,15,9"
15364,commdev-image-keyboard-response,435,797560,learnblock2,575.1000000238419,img/planet12_right.png,12,Community 2,NA,TRUE,j,j,NA,NA,NA,1,6,"13,2,6,14,8,3,12,1,5,7,10,11,4,15,9"
15364,commdev-image-keyboard-response,436,798813,learnblock2,1045,img/planet5_left.png,5,Community 2,NA,TRUE,f,f,NA,NA,NA,1,6,"13,2,6,14,8,3,12,1,5,7,10,11,4,15,9"
15364,commdev-image-keyboard-response,437,800067,learnblock2,901.2999999523163,img/planet3_left.png,3,Community 2,NA,TRUE,f,f,NA,NA,NA,1,6,"13,2,6,14,8,3,12,1,5,7,10,11,4,15,9"
15364,commdev-image-keyboard-response,438,801323,learnblock2,773.9000000953674,img/planet7_right.png,7,Community 2,NA,FALSE,f,j,NA,NA,NA,1,6,"13,2,6,14,8,3,12,1,5,7,10,11,4,15,9"
15364,commdev-image-keyboard-response,439,802580,learnblock2,1006.0999999046326,img/planet12_left.png,12,Community 2,NA,TRUE,f,f,NA,NA,NA,1,6,"13,2,6,14,8,3,12,1,5,7,10,11,4,15,9"
15364,commdev-image-keyboard-response,440,803832,learnblock2,614.5,img/planet5_right.png,5,Community 2,NA,TRUE,j,j,NA,NA,NA,1,6,"13,2,6,14,8,3,12,1,5,7,10,11,4,15,9"
15364,commdev-image-keyboard-response,441,805092,learnblock2,1155.1999999284744,img/planet7_right.png,7,Community 2,NA,TRUE,j,j,NA,NA,NA,1,6,"13,2,6,14,8,3,12,1,5,7,10,11,4,15,9"
15364,commdev-image-keyboard-response,442,806360,learnblock2,728.1000000238419,img/planet1_right.png,1,Community 2,NA,TRUE,j,j,NA,NA,NA,1,6,"13,2,6,14,8,3,12,1,5,7,10,11,4,15,9"
15364,commdev-image-keyboard-response,443,807619,learnblock2,534.4000000953674,img/planet5_right.png,5,Community 2,NA,TRUE,j,j,NA,NA,NA,1,6,"13,2,6,14,8,3,12,1,5,7,10,11,4,15,9"
15364,commdev-image-keyboard-response,444,808887,learnblock2,633.8999999761581,img/planet7_right.png,7,Community 2,NA,TRUE,j,j,NA,NA,NA,1,6,"13,2,6,14,8,3,12,1,5,7,10,11,4,15,9"
15364,commdev-image-keyboard-response,445,810152,learnblock2,null,img/planet1_left.png,1,Community 2,NA,FALSE,null,f,NA,NA,NA,1,6,"13,2,6,14,8,3,12,1,5,7,10,11,4,15,9"
15364,commdev-image-keyboard-response,446,811411,learnblock2,22,img/planet5_left.png,5,Community 2,NA,FALSE,j,f,NA,NA,NA,1,6,"13,2,6,14,8,3,12,1,5,7,10,11,4,15,9"
15364,commdev-image-keyboard-response,447,812664,learnblock2,992.8999999761581,img/planet12_left.png,12,Community 2,NA,TRUE,f,f,NA,NA,NA,1,6,"13,2,6,14,8,3,12,1,5,7,10,11,4,15,9"
15364,commdev-image-keyboard-response,448,813917,learnblock2,null,img/planet1_right.png,1,Community 2,NA,FALSE,null,j,NA,NA,NA,1,6,"13,2,6,14,8,3,12,1,5,7,10,11,4,15,9"
15364,commdev-image-keyboard-response,449,815170,learnblock2,642.2000000476837,img/planet11_left.png,11,Community 3,NA,TRUE,f,f,NA,NA,NA,1,6,"13,2,6,14,8,3,12,1,5,7,10,11,4,15,9"
15364,commdev-image-keyboard-response,450,816429,learnblock2,653.3999999761581,img/planet4_left.png,4,Community 3,NA,TRUE,f,f,NA,NA,NA,1,6,"13,2,6,14,8,3,12,1,5,7,10,11,4,15,9"
15364,commdev-image-keyboard-response,451,817690,learnblock2,null,img/planet9_left.png,9,Community 3,NA,FALSE,null,f,NA,NA,NA,1,6,"13,2,6,14,8,3,12,1,5,7,10,11,4,15,9"
15364,commdev-image-keyboard-response,452,818948,learnblock2,null,img/planet4_left.png,4,Community 3,NA,FALSE,null,f,NA,NA,NA,1,6,"13,2,6,14,8,3,12,1,5,7,10,11,4,15,9"
15364,commdev-image-keyboard-response,453,820210,learnblock2,188.5,img/planet9_left.png,9,Community 3,NA,TRUE,f,f,NA,NA,NA,1,6,"13,2,6,14,8,3,12,1,5,7,10,11,4,15,9"
15364,commdev-image-keyboard-response,454,821469,learnblock2,null,img/planet4_left.png,4,Community 3,NA,FALSE,null,f,NA,NA,NA,1,6,"13,2,6,14,8,3,12,1,5,7,10,11,4,15,9"
15364,commdev-image-keyboard-response,455,822722,learnblock2,265.2999999523163,img/planet15_left.png,15,Community 3,NA,TRUE,f,f,NA,NA,NA,1,6,"13,2,6,14,8,3,12,1,5,7,10,11,4,15,9"
15364,commdev-image-keyboard-response,456,823975,learnblock2,141.09999990463257,img/planet9_right.png,9,Community 3,NA,FALSE,f,j,NA,NA,NA,1,6,"13,2,6,14,8,3,12,1,5,7,10,11,4,15,9"
15364,commdev-image-keyboard-response,457,825235,learnblock2,613.6000000238419,img/planet11_left.png,11,Community 3,NA,TRUE,f,f,NA,NA,NA,1,6,"13,2,6,14,8,3,12,1,5,7,10,11,4,15,9"
15364,commdev-image-keyboard-response,458,826495,learnblock2,232.89999997615814,img/planet1_left.png,1,Community 2,NA,FALSE,j,f,NA,NA,NA,1,6,"13,2,6,14,8,3,12,1,5,7,10,11,4,15,9"
15364,commdev-image-keyboard-response,459,827753,learnblock2,395.90000009536743,img/planet7_right.png,7,Community 2,NA,FALSE,f,j,NA,NA,NA,1,6,"13,2,6,14,8,3,12,1,5,7,10,11,4,15,9"
15364,commdev-image-keyboard-response,460,829008,learnblock2,742.3999999761581,img/planet3_right.png,3,Community 2,NA,FALSE,f,j,NA,NA,NA,1,6,"13,2,6,14,8,3,12,1,5,7,10,11,4,15,9"
15364,commdev-image-keyboard-response,461,830264,learnblock2,336,img/planet7_left.png,7,Community 2,NA,TRUE,f,f,NA,NA,NA,1,6,"13,2,6,14,8,3,12,1,5,7,10,11,4,15,9"
15364,commdev-image-keyboard-response,462,831520,learnblock2,361,img/planet5_left.png,5,Community 2,NA,TRUE,f,f,NA,NA,NA,1,6,"13,2,6,14,8,3,12,1,5,7,10,11,4,15,9"
15364,commdev-image-keyboard-response,463,832775,learnblock2,613.5,img/planet12_left.png,12,Community 2,NA,TRUE,f,f,NA,NA,NA,1,6,"13,2,6,14,8,3,12,1,5,7,10,11,4,15,9"
15364,commdev-image-keyboard-response,464,834040,learnblock2,792.3000000715256,img/planet5_left.png,5,Community 2,NA,TRUE,f,f,NA,NA,NA,1,6,"13,2,6,14,8,3,12,1,5,7,10,11,4,15,9"
15364,commdev-image-keyboard-response,465,835297,learnblock2,null,img/planet7_left.png,7,Community 2,NA,FALSE,null,f,NA,NA,NA,1,6,"13,2,6,14,8,3,12,1,5,7,10,11,4,15,9"
15364,commdev-image-keyboard-response,466,836558,learnblock2,null,img/planet12_right.png,12,Community 2,NA,FALSE,null,j,NA,NA,NA,1,6,"13,2,6,14,8,3,12,1,5,7,10,11,4,15,9"
15364,commdev-image-keyboard-response,467,837817,learnblock2,425.60000002384186,img/planet5_right.png,5,Community 2,NA,FALSE,f,j,NA,NA,NA,1,6,"13,2,6,14,8,3,12,1,5,7,10,11,4,15,9"
15364,commdev-image-keyboard-response,468,839072,learnblock2,755.2000000476837,img/planet3_left.png,3,Community 2,NA,TRUE,f,f,NA,NA,NA,1,6,"13,2,6,14,8,3,12,1,5,7,10,11,4,15,9"
15364,commdev-image-keyboard-response,469,840331,learnblock2,268.7999999523163,img/planet7_right.png,7,Community 2,NA,FALSE,f,j,NA,NA,NA,1,6,"13,2,6,14,8,3,12,1,5,7,10,11,4,15,9"
15364,commdev-image-keyboard-response,470,841584,learnblock2,651.3999999761581,img/planet1_left.png,1,Community 2,NA,TRUE,f,f,NA,NA,NA,1,6,"13,2,6,14,8,3,12,1,5,7,10,11,4,15,9"
15364,commdev-image-keyboard-response,471,842840,learnblock2,236.30000007152557,img/planet7_left.png,7,Community 2,NA,TRUE,f,f,NA,NA,NA,1,6,"13,2,6,14,8,3,12,1,5,7,10,11,4,15,9"
15364,commdev-image-keyboard-response,472,844101,learnblock2,26.200000047683716,img/planet3_right.png,3,Community 2,NA,FALSE,f,j,NA,NA,NA,1,6,"13,2,6,14,8,3,12,1,5,7,10,11,4,15,9"
15364,commdev-image-keyboard-response,473,845358,learnblock2,558.3999999761581,img/planet7_left.png,7,Community 2,NA,TRUE,f,f,NA,NA,NA,1,6,"13,2,6,14,8,3,12,1,5,7,10,11,4,15,9"
15364,commdev-image-keyboard-response,474,846615,learnblock2,796.8999999761581,img/planet1_right.png,1,Community 2,NA,TRUE,j,j,NA,NA,NA,1,6,"13,2,6,14,8,3,12,1,5,7,10,11,4,15,9"
15364,commdev-image-keyboard-response,475,847875,learnblock2,690.5,img/planet5_left.png,5,Community 2,NA,TRUE,f,f,NA,NA,NA,1,6,"13,2,6,14,8,3,12,1,5,7,10,11,4,15,9"
15364,commdev-image-keyboard-response,476,849138,learnblock2,490.2999999523163,img/planet3_right.png,3,Community 2,NA,FALSE,f,j,NA,NA,NA,1,6,"13,2,6,14,8,3,12,1,5,7,10,11,4,15,9"
15364,commdev-image-keyboard-response,477,850392,learnblock2,79.90000009536743,img/planet12_right.png,12,Community 2,NA,FALSE,f,j,NA,NA,NA,1,6,"13,2,6,14,8,3,12,1,5,7,10,11,4,15,9"
15364,commdev-image-keyboard-response,478,851657,learnblock2,891,img/planet5_right.png,5,Community 2,NA,TRUE,j,j,NA,NA,NA,1,6,"13,2,6,14,8,3,12,1,5,7,10,11,4,15,9"
15364,commdev-image-keyboard-response,479,852914,learnblock2,616.5,img/planet3_left.png,3,Community 2,NA,FALSE,j,f,NA,NA,NA,1,6,"13,2,6,14,8,3,12,1,5,7,10,11,4,15,9"
15364,commdev-image-keyboard-response,480,854174,learnblock2,310.90000009536743,img/planet7_right.png,7,Community 2,NA,FALSE,f,j,NA,NA,NA,1,6,"13,2,6,14,8,3,12,1,5,7,10,11,4,15,9"
15364,commdev-image-keyboard-response,481,855429,learnblock2,585.5,img/planet3_left.png,3,Community 2,NA,TRUE,f,f,NA,NA,NA,1,6,"13,2,6,14,8,3,12,1,5,7,10,11,4,15,9"
15364,commdev-image-keyboard-response,482,856688,learnblock2,679.1000000238419,img/planet5_left.png,5,Community 2,NA,TRUE,f,f,NA,NA,NA,1,6,"13,2,6,14,8,3,12,1,5,7,10,11,4,15,9"
15364,commdev-image-keyboard-response,483,857946,learnblock2,394.1999999284744,img/planet3_right.png,3,Community 2,NA,FALSE,f,j,NA,NA,NA,1,6,"13,2,6,14,8,3,12,1,5,7,10,11,4,15,9"
15364,commdev-image-keyboard-response,484,859209,learnblock2,null,img/planet12_left.png,12,Community 2,NA,FALSE,null,f,NA,NA,NA,1,6,"13,2,6,14,8,3,12,1,5,7,10,11,4,15,9"
15364,commdev-image-keyboard-response,485,860461,learnblock2,null,img/planet3_right.png,3,Community 2,NA,FALSE,null,j,NA,NA,NA,1,6,"13,2,6,14,8,3,12,1,5,7,10,11,4,15,9"
15364,commdev-image-keyboard-response,486,861720,learnblock2,386.89999997615814,img/planet7_right.png,7,Community 2,NA,TRUE,j,j,NA,NA,NA,1,6,"13,2,6,14,8,3,12,1,5,7,10,11,4,15,9"
15364,commdev-image-keyboard-response,487,862974,learnblock2,869.4000000953674,img/planet3_right.png,3,Community 2,NA,TRUE,j,j,NA,NA,NA,1,6,"13,2,6,14,8,3,12,1,5,7,10,11,4,15,9"
15364,commdev-image-keyboard-response,488,864229,learnblock2,681.3999999761581,img/planet14_left.png,14,Community 1,NA,TRUE,f,f,NA,NA,NA,1,6,"13,2,6,14,8,3,12,1,5,7,10,11,4,15,9"
15364,commdev-image-keyboard-response,489,865480,learnblock2,571,img/planet6_right.png,6,Community 1,NA,TRUE,j,j,NA,NA,NA,1,6,"13,2,6,14,8,3,12,1,5,7,10,11,4,15,9"
15364,commdev-image-keyboard-response,490,866746,learnblock2,524,img/planet8_right.png,8,Community 1,NA,TRUE,j,j,NA,NA,NA,1,6,"13,2,6,14,8,3,12,1,5,7,10,11,4,15,9"
15364,commdev-image-keyboard-response,491,868004,learnblock2,592.7000000476837,img/planet13_right.png,13,Community 1,NA,TRUE,j,j,NA,NA,NA,1,6,"13,2,6,14,8,3,12,1,5,7,10,11,4,15,9"
15364,commdev-image-keyboard-response,492,869262,learnblock2,678.7999999523163,img/planet6_left.png,6,Community 1,NA,TRUE,f,f,NA,NA,NA,1,6,"13,2,6,14,8,3,12,1,5,7,10,11,4,15,9"
15364,commdev-image-keyboard-response,493,870521,learnblock2,526.6000000238419,img/planet8_right.png,8,Community 1,NA,TRUE,j,j,NA,NA,NA,1,6,"13,2,6,14,8,3,12,1,5,7,10,11,4,15,9"
15364,commdev-image-keyboard-response,494,871775,learnblock2,462.1999999284744,img/planet10_right.png,10,Community 3,NA,FALSE,f,j,NA,NA,NA,1,6,"13,2,6,14,8,3,12,1,5,7,10,11,4,15,9"
15364,commdev-image-keyboard-response,495,873038,learnblock2,753.2000000476837,img/planet4_left.png,4,Community 3,NA,FALSE,j,f,NA,NA,NA,1,6,"13,2,6,14,8,3,12,1,5,7,10,11,4,15,9"
15364,commdev-image-keyboard-response,496,874294,learnblock2,632,img/planet9_right.png,9,Community 3,NA,TRUE,j,j,NA,NA,NA,1,6,"13,2,6,14,8,3,12,1,5,7,10,11,4,15,9"
15364,commdev-image-keyboard-response,497,875550,learnblock2,840.7999999523163,img/planet11_right.png,11,Community 3,NA,TRUE,j,j,NA,NA,NA,1,6,"13,2,6,14,8,3,12,1,5,7,10,11,4,15,9"
15364,commdev-image-keyboard-response,498,876809,learnblock2,616.2999999523163,img/planet4_left.png,4,Community 3,NA,TRUE,f,f,NA,NA,NA,1,6,"13,2,6,14,8,3,12,1,5,7,10,11,4,15,9"
15364,commdev-image-keyboard-response,499,878070,learnblock2,995.3999999761581,img/planet9_left.png,9,Community 3,NA,TRUE,f,f,NA,NA,NA,1,6,"13,2,6,14,8,3,12,1,5,7,10,11,4,15,9"
15364,commdev-image-keyboard-response,500,879326,learnblock2,633.2000000476837,img/planet10_left.png,10,Community 3,NA,TRUE,f,f,NA,NA,NA,1,6,"13,2,6,14,8,3,12,1,5,7,10,11,4,15,9"
15364,commdev-image-keyboard-response,501,880595,learnblock2,530.6000000238419,img/planet15_left.png,15,Community 3,NA,TRUE,f,f,NA,NA,NA,1,6,"13,2,6,14,8,3,12,1,5,7,10,11,4,15,9"
15364,commdev-image-keyboard-response,502,881861,learnblock2,744.9000000953674,img/planet9_left.png,9,Community 3,NA,TRUE,f,f,NA,NA,NA,1,6,"13,2,6,14,8,3,12,1,5,7,10,11,4,15,9"
15364,commdev-image-keyboard-response,503,883118,learnblock2,736,img/planet11_right.png,11,Community 3,NA,TRUE,j,j,NA,NA,NA,1,6,"13,2,6,14,8,3,12,1,5,7,10,11,4,15,9"
15364,commdev-image-keyboard-response,504,884376,learnblock2,680.1000000238419,img/planet15_left.png,15,Community 3,NA,FALSE,j,f,NA,NA,NA,1,6,"13,2,6,14,8,3,12,1,5,7,10,11,4,15,9"
15364,commdev-image-keyboard-response,505,885632,learnblock2,1041.5,img/planet11_right.png,11,Community 3,NA,FALSE,f,j,NA,NA,NA,1,6,"13,2,6,14,8,3,12,1,5,7,10,11,4,15,9"
15364,commdev-image-keyboard-response,506,886898,learnblock2,618.5,img/planet4_right.png,4,Community 3,NA,TRUE,j,j,NA,NA,NA,1,6,"13,2,6,14,8,3,12,1,5,7,10,11,4,15,9"
15364,commdev-image-keyboard-response,507,888154,learnblock2,591.8999999761581,img/planet15_left.png,15,Community 3,NA,TRUE,f,f,NA,NA,NA,1,6,"13,2,6,14,8,3,12,1,5,7,10,11,4,15,9"
15364,commdev-image-keyboard-response,508,889421,learnblock2,775.6000000238419,img/planet9_left.png,9,Community 3,NA,TRUE,f,f,NA,NA,NA,1,6,"13,2,6,14,8,3,12,1,5,7,10,11,4,15,9"
15364,commdev-image-keyboard-response,509,890676,learnblock2,734.7000000476837,img/planet4_left.png,4,Community 3,NA,TRUE,f,f,NA,NA,NA,1,6,"13,2,6,14,8,3,12,1,5,7,10,11,4,15,9"
15364,commdev-image-keyboard-response,510,891939,learnblock2,693.6000000238419,img/planet9_right.png,9,Community 3,NA,TRUE,j,j,NA,NA,NA,1,6,"13,2,6,14,8,3,12,1,5,7,10,11,4,15,9"
15364,commdev-image-keyboard-response,511,893192,learnblock2,955.1999999284744,img/planet11_right.png,11,Community 3,NA,FALSE,f,j,NA,NA,NA,1,6,"13,2,6,14,8,3,12,1,5,7,10,11,4,15,9"
15364,commdev-image-keyboard-response,512,894448,learnblock2,660,img/planet4_left.png,4,Community 3,NA,TRUE,f,f,NA,NA,NA,1,6,"13,2,6,14,8,3,12,1,5,7,10,11,4,15,9"
15364,commdev-image-keyboard-response,513,895701,learnblock2,557.7000000476837,img/planet9_right.png,9,Community 3,NA,TRUE,j,j,NA,NA,NA,1,6,"13,2,6,14,8,3,12,1,5,7,10,11,4,15,9"
15364,commdev-image-keyboard-response,514,896954,learnblock2,702.6000000238419,img/planet11_left.png,11,Community 3,NA,TRUE,f,f,NA,NA,NA,1,6,"13,2,6,14,8,3,12,1,5,7,10,11,4,15,9"
15364,commdev-image-keyboard-response,515,898214,learnblock2,500.5,img/planet9_right.png,9,Community 3,NA,TRUE,j,j,NA,NA,NA,1,6,"13,2,6,14,8,3,12,1,5,7,10,11,4,15,9"
15364,commdev-image-keyboard-response,516,899467,learnblock2,655.5999999046326,img/planet15_left.png,15,Community 3,NA,TRUE,f,f,NA,NA,NA,1,6,"13,2,6,14,8,3,12,1,5,7,10,11,4,15,9"
15364,commdev-image-keyboard-response,517,900730,learnblock2,600.3000000715256,img/planet10_left.png,10,Community 3,NA,TRUE,f,f,NA,NA,NA,1,6,"13,2,6,14,8,3,12,1,5,7,10,11,4,15,9"
15364,commdev-image-keyboard-response,518,901984,learnblock2,655.8999999761581,img/planet9_left.png,9,Community 3,NA,TRUE,f,f,NA,NA,NA,1,6,"13,2,6,14,8,3,12,1,5,7,10,11,4,15,9"
15364,commdev-image-keyboard-response,519,903241,learnblock2,994.7999999523163,img/planet11_right.png,11,Community 3,NA,FALSE,f,j,NA,NA,NA,1,6,"13,2,6,14,8,3,12,1,5,7,10,11,4,15,9"
15364,commdev-image-keyboard-response,520,904497,learnblock2,751.3999999761581,img/planet9_left.png,9,Community 3,NA,TRUE,f,f,NA,NA,NA,1,6,"13,2,6,14,8,3,12,1,5,7,10,11,4,15,9"
15364,commdev-image-keyboard-response,521,905753,learnblock2,506.10000002384186,img/planet10_right.png,10,Community 3,NA,FALSE,f,j,NA,NA,NA,1,6,"13,2,6,14,8,3,12,1,5,7,10,11,4,15,9"
15364,commdev-image-keyboard-response,522,907017,learnblock2,692.3999999761581,img/planet8_left.png,8,Community 1,NA,FALSE,j,f,NA,NA,NA,1,6,"13,2,6,14,8,3,12,1,5,7,10,11,4,15,9"
15364,commdev-image-keyboard-response,523,908270,learnblock2,27.5,img/planet2_right.png,2,Community 1,NA,FALSE,f,j,NA,NA,NA,1,6,"13,2,6,14,8,3,12,1,5,7,10,11,4,15,9"
15364,commdev-image-keyboard-response,524,909523,learnblock2,932.5,img/planet14_right.png,14,Community 1,NA,TRUE,j,j,NA,NA,NA,1,6,"13,2,6,14,8,3,12,1,5,7,10,11,4,15,9"
15364,commdev-image-keyboard-response,525,910776,learnblock2,706.1000000238419,img/planet2_left.png,2,Community 1,NA,TRUE,f,f,NA,NA,NA,1,6,"13,2,6,14,8,3,12,1,5,7,10,11,4,15,9"
15364,commdev-image-keyboard-response,526,912035,learnblock2,867.7000000476837,img/planet8_left.png,8,Community 1,NA,FALSE,j,f,NA,NA,NA,1,6,"13,2,6,14,8,3,12,1,5,7,10,11,4,15,9"
15364,commdev-image-keyboard-response,527,913294,learnblock2,658.3999999761581,img/planet10_right.png,10,Community 3,NA,TRUE,j,j,NA,NA,NA,1,6,"13,2,6,14,8,3,12,1,5,7,10,11,4,15,9"
15364,commdev-image-keyboard-response,528,914553,learnblock2,653.5,img/planet8_right.png,8,Community 1,NA,TRUE,j,j,NA,NA,NA,1,6,"13,2,6,14,8,3,12,1,5,7,10,11,4,15,9"
15364,commdev-image-keyboard-response,529,915811,learnblock2,680.6999999284744,img/planet2_left.png,2,Community 1,NA,TRUE,f,f,NA,NA,NA,1,6,"13,2,6,14,8,3,12,1,5,7,10,11,4,15,9"
15364,commdev-image-keyboard-response,530,917073,learnblock2,916.1000000238419,img/planet13_left.png,13,Community 1,NA,FALSE,j,f,NA,NA,NA,1,6,"13,2,6,14,8,3,12,1,5,7,10,11,4,15,9"
15364,commdev-image-keyboard-response,531,918326,learnblock2,803.2999999523163,img/planet8_right.png,8,Community 1,NA,FALSE,f,j,NA,NA,NA,1,6,"13,2,6,14,8,3,12,1,5,7,10,11,4,15,9"
15364,commdev-image-keyboard-response,532,919594,learnblock2,589.2000000476837,img/planet6_left.png,6,Community 1,NA,FALSE,j,f,NA,NA,NA,1,6,"13,2,6,14,8,3,12,1,5,7,10,11,4,15,9"
15364,commdev-image-keyboard-response,533,920846,learnblock2,676.7000000476837,img/planet13_right.png,13,Community 1,NA,TRUE,j,j,NA,NA,NA,1,6,"13,2,6,14,8,3,12,1,5,7,10,11,4,15,9"
15364,commdev-image-keyboard-response,534,922100,learnblock2,540.3000000715256,img/planet8_left.png,8,Community 1,NA,TRUE,f,f,NA,NA,NA,1,6,"13,2,6,14,8,3,12,1,5,7,10,11,4,15,9"
15364,commdev-image-keyboard-response,535,923353,learnblock2,1113.3000000715256,img/planet10_right.png,10,Community 3,NA,FALSE,f,j,NA,NA,NA,1,6,"13,2,6,14,8,3,12,1,5,7,10,11,4,15,9"
15364,commdev-image-keyboard-response,536,924609,learnblock2,830.5999999046326,img/planet4_left.png,4,Community 3,NA,TRUE,f,f,NA,NA,NA,1,6,"13,2,6,14,8,3,12,1,5,7,10,11,4,15,9"
15364,commdev-image-keyboard-response,537,925865,learnblock2,791.8000000715256,img/planet15_right.png,15,Community 3,NA,TRUE,j,j,NA,NA,NA,1,6,"13,2,6,14,8,3,12,1,5,7,10,11,4,15,9"
15364,commdev-image-keyboard-response,538,927123,learnblock2,725.7000000476837,img/planet11_right.png,11,Community 3,NA,TRUE,j,j,NA,NA,NA,1,6,"13,2,6,14,8,3,12,1,5,7,10,11,4,15,9"
15364,commdev-image-keyboard-response,539,928374,learnblock2,1142.2999999523163,img/planet9_left.png,9,Community 3,NA,TRUE,f,f,NA,NA,NA,1,6,"13,2,6,14,8,3,12,1,5,7,10,11,4,15,9"
15364,commdev-image-keyboard-response,540,929632,learnblock2,908,img/planet11_left.png,11,Community 3,NA,TRUE,f,f,NA,NA,NA,1,6,"13,2,6,14,8,3,12,1,5,7,10,11,4,15,9"
15364,commdev-image-keyboard-response,541,930884,learnblock2,622,img/planet9_right.png,9,Community 3,NA,TRUE,j,j,NA,NA,NA,1,6,"13,2,6,14,8,3,12,1,5,7,10,11,4,15,9"
15364,commdev-image-keyboard-response,542,932143,learnblock2,555.5,img/planet11_left.png,11,Community 3,NA,TRUE,f,f,NA,NA,NA,1,6,"13,2,6,14,8,3,12,1,5,7,10,11,4,15,9"
15364,commdev-image-keyboard-response,543,933398,learnblock2,789,img/planet9_left.png,9,Community 3,NA,TRUE,f,f,NA,NA,NA,1,6,"13,2,6,14,8,3,12,1,5,7,10,11,4,15,9"
15364,commdev-image-keyboard-response,544,934664,learnblock2,633.2999999523163,img/planet4_right.png,4,Community 3,NA,FALSE,f,j,NA,NA,NA,1,6,"13,2,6,14,8,3,12,1,5,7,10,11,4,15,9"
15364,commdev-image-keyboard-response,545,935925,learnblock2,753.1000000238419,img/planet11_left.png,11,Community 3,NA,TRUE,f,f,NA,NA,NA,1,6,"13,2,6,14,8,3,12,1,5,7,10,11,4,15,9"
15364,commdev-image-keyboard-response,546,937178,learnblock2,717.6000000238419,img/planet1_left.png,1,Community 2,NA,TRUE,f,f,NA,NA,NA,1,6,"13,2,6,14,8,3,12,1,5,7,10,11,4,15,9"
15364,commdev-image-keyboard-response,547,938435,learnblock2,574.5,img/planet11_left.png,11,Community 3,NA,TRUE,f,f,NA,NA,NA,1,6,"13,2,6,14,8,3,12,1,5,7,10,11,4,15,9"
15364,commdev-image-keyboard-response,548,939693,learnblock2,553.9000000953674,img/planet1_right.png,1,Community 2,NA,TRUE,j,j,NA,NA,NA,1,6,"13,2,6,14,8,3,12,1,5,7,10,11,4,15,9"
15364,commdev-image-keyboard-response,549,940950,learnblock2,1101.5,img/planet5_left.png,5,Community 2,NA,TRUE,f,f,NA,NA,NA,1,6,"13,2,6,14,8,3,12,1,5,7,10,11,4,15,9"
15364,commdev-image-keyboard-response,550,942212,learnblock2,null,img/planet12_left.png,12,Community 2,NA,FALSE,null,f,NA,NA,NA,1,6,"13,2,6,14,8,3,12,1,5,7,10,11,4,15,9"
15364,commdev-image-keyboard-response,551,943482,learnblock2,24.299999952316284,img/planet7_left.png,7,Community 2,NA,TRUE,f,f,NA,NA,NA,1,6,"13,2,6,14,8,3,12,1,5,7,10,11,4,15,9"
15364,commdev-image-keyboard-response,552,944738,learnblock2,624.7000000476837,img/planet5_left.png,5,Community 2,NA,TRUE,f,f,NA,NA,NA,1,6,"13,2,6,14,8,3,12,1,5,7,10,11,4,15,9"
15364,commdev-image-keyboard-response,553,945998,learnblock2,941.5999999046326,img/planet12_left.png,12,Community 2,NA,TRUE,f,f,NA,NA,NA,1,6,"13,2,6,14,8,3,12,1,5,7,10,11,4,15,9"
15364,commdev-image-keyboard-response,554,947258,learnblock2,847.2999999523163,img/planet1_left.png,1,Community 2,NA,TRUE,f,f,NA,NA,NA,1,6,"13,2,6,14,8,3,12,1,5,7,10,11,4,15,9"
15364,commdev-image-keyboard-response,555,948510,learnblock2,606.1000000238419,img/planet5_right.png,5,Community 2,NA,FALSE,f,j,NA,NA,NA,1,6,"13,2,6,14,8,3,12,1,5,7,10,11,4,15,9"
15364,commdev-image-keyboard-response,556,949765,learnblock2,897.3000000715256,img/planet12_left.png,12,Community 2,NA,TRUE,f,f,NA,NA,NA,1,6,"13,2,6,14,8,3,12,1,5,7,10,11,4,15,9"
15364,commdev-image-keyboard-response,557,951020,learnblock2,794.2999999523163,img/planet7_left.png,7,Community 2,NA,TRUE,f,f,NA,NA,NA,1,6,"13,2,6,14,8,3,12,1,5,7,10,11,4,15,9"
15364,commdev-image-keyboard-response,558,952279,learnblock2,736.7999999523163,img/planet3_right.png,3,Community 2,NA,TRUE,j,j,NA,NA,NA,1,6,"13,2,6,14,8,3,12,1,5,7,10,11,4,15,9"
15364,commdev-image-keyboard-response,559,953546,learnblock2,855.1999999284744,img/planet12_right.png,12,Community 2,NA,TRUE,j,j,NA,NA,NA,1,6,"13,2,6,14,8,3,12,1,5,7,10,11,4,15,9"
15364,commdev-image-keyboard-response,560,954806,learnblock2,775.2999999523163,img/planet5_left.png,5,Community 2,NA,TRUE,f,f,NA,NA,NA,1,6,"13,2,6,14,8,3,12,1,5,7,10,11,4,15,9"
15364,commdev-image-keyboard-response,561,956062,learnblock2,1064.3999999761581,img/planet7_left.png,7,Community 2,NA,TRUE,f,f,NA,NA,NA,1,6,"13,2,6,14,8,3,12,1,5,7,10,11,4,15,9"
15364,commdev-image-keyboard-response,562,957327,learnblock2,753.5,img/planet12_left.png,12,Community 2,NA,TRUE,f,f,NA,NA,NA,1,6,"13,2,6,14,8,3,12,1,5,7,10,11,4,15,9"
15364,commdev-image-keyboard-response,563,958583,learnblock2,634.3999999761581,img/planet1_left.png,1,Community 2,NA,TRUE,f,f,NA,NA,NA,1,6,"13,2,6,14,8,3,12,1,5,7,10,11,4,15,9"
15364,commdev-image-keyboard-response,564,959848,learnblock2,518.8000000715256,img/planet5_right.png,5,Community 2,NA,FALSE,f,j,NA,NA,NA,1,6,"13,2,6,14,8,3,12,1,5,7,10,11,4,15,9"
15364,commdev-image-keyboard-response,565,961104,learnblock2,813.6000000238419,img/planet3_left.png,3,Community 2,NA,TRUE,f,f,NA,NA,NA,1,6,"13,2,6,14,8,3,12,1,5,7,10,11,4,15,9"
15364,commdev-image-keyboard-response,566,962372,learnblock2,684.8999999761581,img/planet14_right.png,14,Community 1,NA,TRUE,j,j,NA,NA,NA,1,6,"13,2,6,14,8,3,12,1,5,7,10,11,4,15,9"
15364,commdev-image-keyboard-response,567,963628,learnblock2,606.3000000715256,img/planet2_left.png,2,Community 1,NA,TRUE,f,f,NA,NA,NA,1,6,"13,2,6,14,8,3,12,1,5,7,10,11,4,15,9"
15364,commdev-image-keyboard-response,568,964894,learnblock2,611.5,img/planet14_right.png,14,Community 1,NA,TRUE,j,j,NA,NA,NA,1,6,"13,2,6,14,8,3,12,1,5,7,10,11,4,15,9"
15364,commdev-image-keyboard-response,569,966149,learnblock2,618.3000000715256,img/planet2_left.png,2,Community 1,NA,TRUE,f,f,NA,NA,NA,1,6,"13,2,6,14,8,3,12,1,5,7,10,11,4,15,9"
15364,commdev-image-keyboard-response,570,967403,learnblock2,587.2000000476837,img/planet8_left.png,8,Community 1,NA,TRUE,f,f,NA,NA,NA,1,6,"13,2,6,14,8,3,12,1,5,7,10,11,4,15,9"
15364,commdev-image-keyboard-response,571,968664,learnblock2,604.1999999284744,img/planet2_right.png,2,Community 1,NA,FALSE,f,j,NA,NA,NA,1,6,"13,2,6,14,8,3,12,1,5,7,10,11,4,15,9"
15364,commdev-image-keyboard-response,572,969933,learnblock2,721.1000000238419,img/planet13_left.png,13,Community 1,NA,TRUE,f,f,NA,NA,NA,1,6,"13,2,6,14,8,3,12,1,5,7,10,11,4,15,9"
15364,commdev-image-keyboard-response,573,971197,learnblock2,null,img/planet6_left.png,6,Community 1,NA,FALSE,null,f,NA,NA,NA,1,6,"13,2,6,14,8,3,12,1,5,7,10,11,4,15,9"
15364,commdev-image-keyboard-response,574,972454,learnblock2,82.60000002384186,img/planet14_left.png,14,Community 1,NA,TRUE,f,f,NA,NA,NA,1,6,"13,2,6,14,8,3,12,1,5,7,10,11,4,15,9"
15364,commdev-image-keyboard-response,575,973708,learnblock2,643.2000000476837,img/planet6_right.png,6,Community 1,NA,TRUE,j,j,NA,NA,NA,1,6,"13,2,6,14,8,3,12,1,5,7,10,11,4,15,9"
15364,commdev-image-keyboard-response,576,974973,learnblock2,577.8000000715256,img/planet13_right.png,13,Community 1,NA,TRUE,j,j,NA,NA,NA,1,6,"13,2,6,14,8,3,12,1,5,7,10,11,4,15,9"
15364,commdev-image-keyboard-response,577,976230,learnblock2,858.7999999523163,img/planet14_left.png,14,Community 1,NA,TRUE,f,f,NA,NA,NA,1,6,"13,2,6,14,8,3,12,1,5,7,10,11,4,15,9"
15364,commdev-image-keyboard-response,578,977489,learnblock2,931.7000000476837,img/planet3_left.png,3,Community 2,NA,TRUE,f,f,NA,NA,NA,1,6,"13,2,6,14,8,3,12,1,5,7,10,11,4,15,9"
15364,commdev-image-keyboard-response,579,978751,learnblock2,667.6999999284744,img/planet12_left.png,12,Community 2,NA,TRUE,f,f,NA,NA,NA,1,6,"13,2,6,14,8,3,12,1,5,7,10,11,4,15,9"
15364,commdev-image-keyboard-response,580,980010,learnblock2,792.6000000238419,img/planet7_right.png,7,Community 2,NA,TRUE,j,j,NA,NA,NA,1,6,"13,2,6,14,8,3,12,1,5,7,10,11,4,15,9"
15364,commdev-image-keyboard-response,581,981271,learnblock2,711.8999999761581,img/planet1_right.png,1,Community 2,NA,TRUE,j,j,NA,NA,NA,1,6,"13,2,6,14,8,3,12,1,5,7,10,11,4,15,9"
15364,commdev-image-keyboard-response,582,982529,learnblock2,710.8000000715256,img/planet12_right.png,12,Community 2,NA,TRUE,j,j,NA,NA,NA,1,6,"13,2,6,14,8,3,12,1,5,7,10,11,4,15,9"
15364,commdev-image-keyboard-response,583,983784,learnblock2,814.5999999046326,img/planet1_left.png,1,Community 2,NA,TRUE,f,f,NA,NA,NA,1,6,"13,2,6,14,8,3,12,1,5,7,10,11,4,15,9"
15364,commdev-image-keyboard-response,584,985041,learnblock2,1012.8999999761581,img/planet12_right.png,12,Community 2,NA,FALSE,f,j,NA,NA,NA,1,6,"13,2,6,14,8,3,12,1,5,7,10,11,4,15,9"
15364,commdev-image-keyboard-response,585,986298,learnblock2,709.2999999523163,img/planet5_left.png,5,Community 2,NA,TRUE,f,f,NA,NA,NA,1,6,"13,2,6,14,8,3,12,1,5,7,10,11,4,15,9"
15364,commdev-image-keyboard-response,586,987555,learnblock2,612.5,img/planet1_left.png,1,Community 2,NA,TRUE,f,f,NA,NA,NA,1,6,"13,2,6,14,8,3,12,1,5,7,10,11,4,15,9"
15364,commdev-image-keyboard-response,587,988814,learnblock2,585,img/planet12_right.png,12,Community 2,NA,TRUE,j,j,NA,NA,NA,1,6,"13,2,6,14,8,3,12,1,5,7,10,11,4,15,9"
15364,commdev-image-keyboard-response,588,990078,learnblock2,655,img/planet1_left.png,1,Community 2,NA,TRUE,f,f,NA,NA,NA,1,6,"13,2,6,14,8,3,12,1,5,7,10,11,4,15,9"
