subject_id,trial_type,trial_index,time_elapsed,block,rt,stimulus,planet,community,response,correct,key_press,learning_correct_response,parse,init_locations,final_locations,browser_interactions,num_comp,planet_map
14414,commdev-instructions,7,102246,NA,2268.2000007629395,"<p>In this game, you will be shown a 3x3 grid of patterns.</p> <p>The last one in the bottom right-hand corner, <strong>will be missing:</strong></p> <div style='width: 700px;'><div style='float: top;'><img style='width: 200px;' src='practice/p1_M1.png'></img><p class='small'>You need to select<strong> which of the four possible patterns </strong>along the bottom<strong> fits into the gap:</strong></p></div><div style='float: top;'><img style='width: 300px;' src='practice/p1_T1.png'></img></div><br>",NA,NA,NA,NA,NA,NA,NA,NA,NA,1,6,"11,7,3,6,2,5,4,1,14,15,10,12,8,13,9"
14414,commdev-instructions,8,131633,NA,2688.5,"<p>Try to be as fast and as accurate as you can be.</p> <p>If you cannot solve the puzzle then you should guess - you will not be penalised for an incorrect answer.</p> <p>The task contains a shuffled mix of easy, medium and hard puzzles.</p> <p>You will have <strong>30 seconds</strong> to complete each puzzle.</p><br>",NA,NA,NA,NA,NA,NA,NA,NA,NA,1,6,"11,7,3,6,2,5,4,1,14,15,10,12,8,13,9"
14414,commdev-instructions,15,168565,NA,1841.6000003814697,<p><strong>Success!</strong></p> <p>You seem to be getting the hang of this...</p> <p>Let's move on to the real trials.</p><br>,NA,NA,NA,NA,NA,NA,NA,NA,NA,1,6,"11,7,3,6,2,5,4,1,14,15,10,12,8,13,9"
14414,commdev-instructions,87,662478,NA,1122.3000011444092,"<p>In this game, you are a scientist on board a space shuttle. </p><p> On each mission, you will visit planets all across the universe.</p><img src=""img/controlroom.jpg"" width=300vw>",NA,NA,NA,NA,NA,NA,NA,NA,NA,1,6,"11,7,3,6,2,5,4,1,14,15,10,12,8,13,9"
14414,commdev-instructions,88,665842,NA,1277.1999988555908,"<p>Here are a few planets you might see:</p><img src=""img/practice1.png"" width=200vw><img src=""img/practice2.png"" width=200vw><img src=""img/practice3.png"" width=200vw>",NA,NA,NA,NA,NA,NA,NA,NA,NA,1,6,"11,7,3,6,2,5,4,1,14,15,10,12,8,13,9"
14414,commdev-instructions,89,674608,NA,1350.7999992370605,"<p>Your job as a scientist is to record which direction the winds are moving on each planet.</p><p>There are two types of wind directions:</p><img src=""img/practice1_left.png"" width=200vw><img src=""img/practice1_right.png"" width=200vw>",NA,NA,NA,NA,NA,NA,NA,NA,NA,1,6,"11,7,3,6,2,5,4,1,14,15,10,12,8,13,9"
14414,commdev-instructions,90,680879,NA,1362.5,"<p>If the winds are moving this way, press the letter <strong>F</strong> on the keyboard as fast as you can.</p><img src=""img/leftwind.png"" width=250vw>",NA,NA,NA,NA,NA,NA,NA,NA,NA,1,6,"11,7,3,6,2,5,4,1,14,15,10,12,8,13,9"
14414,commdev-instructions,91,686576,NA,1189.8999996185303,"<p>If the winds are moving this way, press the letter <strong>J</strong> on the keyboard as fast as you can.</p><img src=""img/rightwind.png"" width=350vw>",NA,NA,NA,NA,NA,NA,NA,NA,NA,1,6,"11,7,3,6,2,5,4,1,14,15,10,12,8,13,9"
14414,commdev-instructions,92,698222,NA,7216.39999961853,<p>You will have 1 second to respond. Try to respond before the time runs out!,NA,NA,NA,NA,NA,NA,NA,NA,NA,1,6,"11,7,3,6,2,5,4,1,14,15,10,12,8,13,9"
14414,commdev-instructions,93,704559,NA,890.3999996185303,<p>The planets you will visit will look different from each other.</p><p>You should respond <strong>only</strong> based on wind direction.,NA,NA,NA,NA,NA,NA,NA,NA,NA,1,6,"11,7,3,6,2,5,4,1,14,15,10,12,8,13,9"
14414,commdev-instructions,94,711343,NA,1605.3000011444092,"<p> Ready to start the practice round? </p><p> Remember, press <strong>F</strong> or <strong>J</strong> depending on the wind direction.<br><img src=""img/categorize_planet_example.png""",NA,NA,NA,NA,NA,NA,NA,NA,NA,1,6,"11,7,3,6,2,5,4,1,14,15,10,12,8,13,9"
14414,commdev-instructions,106,768068,NA,1355,"<p>Great, now try a short practice mission. </p><p> This time, you will have 1 second to respond and you won't know whether you pressed the right or wrong key for each planet.</p>",NA,NA,NA,NA,NA,NA,NA,NA,NA,1,6,"11,7,3,6,2,5,4,1,14,15,10,12,8,13,9"
14414,commdev-image-keyboard-response,107,769426,practice,1055.400001525879,img/practice4_left.png,NA,Number not found in mappings,NA,TRUE,f,f,NA,NA,NA,1,6,"11,7,3,6,2,5,4,1,14,15,10,12,8,13,9"
14414,commdev-image-keyboard-response,108,770691,practice,1077.7000007629395,img/practice1_right.png,NA,Number not found in mappings,NA,TRUE,j,j,NA,NA,NA,1,6,"11,7,3,6,2,5,4,1,14,15,10,12,8,13,9"
14414,commdev-image-keyboard-response,109,771957,practice,740.8999996185303,img/practice4_left.png,NA,Number not found in mappings,NA,TRUE,f,f,NA,NA,NA,1,6,"11,7,3,6,2,5,4,1,14,15,10,12,8,13,9"
14414,commdev-image-keyboard-response,110,773225,practice,567.7000007629395,img/practice1_right.png,NA,Number not found in mappings,NA,TRUE,j,j,NA,NA,NA,1,6,"11,7,3,6,2,5,4,1,14,15,10,12,8,13,9"
14414,commdev-image-keyboard-response,111,774488,practice,936.5,img/practice3_left.png,NA,Number not found in mappings,NA,TRUE,f,f,NA,NA,NA,1,6,"11,7,3,6,2,5,4,1,14,15,10,12,8,13,9"
14414,commdev-image-keyboard-response,112,775742,practice,699,img/practice1_left.png,NA,Number not found in mappings,NA,TRUE,f,f,NA,NA,NA,1,6,"11,7,3,6,2,5,4,1,14,15,10,12,8,13,9"
14414,commdev-image-keyboard-response,113,777005,practice,589.8999996185303,img/practice4_left.png,NA,Number not found in mappings,NA,TRUE,f,f,NA,NA,NA,1,6,"11,7,3,6,2,5,4,1,14,15,10,12,8,13,9"
14414,commdev-image-keyboard-response,114,778273,practice,547.8999996185303,img/practice3_right.png,NA,Number not found in mappings,NA,TRUE,j,j,NA,NA,NA,1,6,"11,7,3,6,2,5,4,1,14,15,10,12,8,13,9"
14414,commdev-instructions,115,789126,NA,1290.900001525879,"<p>Great job with the practice round.</p><p>During real missions, you won't know whether you pressed the right or wrong key for each planet.</p><p>But between missions, we will tell you how you did overall.</p>",NA,NA,NA,NA,NA,NA,NA,NA,NA,1,6,"11,7,3,6,2,5,4,1,14,15,10,12,8,13,9"
14414,commdev-instructions,116,798708,NA,1325,<p>Try your best! You will be paid a bonus based on how many correct responses you make!</p><p>Responses that are too slow will not count toward your bonus.</p>,NA,NA,NA,NA,NA,NA,NA,NA,NA,1,6,"11,7,3,6,2,5,4,1,14,15,10,12,8,13,9"
14414,commdev-instructions,117,805968,NA,1055.099998474121,"<p>You are almost ready to start the real game.</p><p> First, we are going to ask you some questions about how the game works.</p>",NA,NA,NA,NA,NA,NA,NA,NA,NA,1,6,"11,7,3,6,2,5,4,1,14,15,10,12,8,13,9"
14414,commdev-instructions,126,887635,NA,2268.5,"<p> Nice work! It is now time to start the real game.<p></p>You will go on two missions to record wind directions of different planets.<p></p>Each one will take about 5 minutes. You will get to take a break between missions.<p><p> Remember, press <strong>F</strong> or <strong>J</strong> depending on the wind direction. Good luck!<br><img src=""img/categorize_planet_example.png""",NA,NA,NA,NA,NA,NA,NA,NA,NA,1,6,"11,7,3,6,2,5,4,1,14,15,10,12,8,13,9"
14414,commdev-image-keyboard-response,128,891110,learnblock1,1145.1000003814697,img/planet15_right.png,15,Community 2,NA,TRUE,j,j,NA,NA,NA,1,6,"11,7,3,6,2,5,4,1,14,15,10,12,8,13,9"
14414,commdev-image-keyboard-response,129,892366,learnblock1,807.6999988555908,img/planet5_left.png,5,Community 2,NA,TRUE,f,f,NA,NA,NA,1,6,"11,7,3,6,2,5,4,1,14,15,10,12,8,13,9"
14414,commdev-image-keyboard-response,130,893626,learnblock1,751.6999988555908,img/planet15_right.png,15,Community 2,NA,TRUE,j,j,NA,NA,NA,1,6,"11,7,3,6,2,5,4,1,14,15,10,12,8,13,9"
14414,commdev-image-keyboard-response,131,894882,learnblock1,845.3000011444092,img/planet1_left.png,1,Community 2,NA,TRUE,f,f,NA,NA,NA,1,6,"11,7,3,6,2,5,4,1,14,15,10,12,8,13,9"
14414,commdev-image-keyboard-response,132,896142,learnblock1,908.2000007629395,img/planet15_right.png,15,Community 2,NA,TRUE,j,j,NA,NA,NA,1,6,"11,7,3,6,2,5,4,1,14,15,10,12,8,13,9"
14414,commdev-image-keyboard-response,133,897399,learnblock1,768.8999996185303,img/planet1_right.png,1,Community 2,NA,TRUE,j,j,NA,NA,NA,1,6,"11,7,3,6,2,5,4,1,14,15,10,12,8,13,9"
14414,commdev-image-keyboard-response,134,898656,learnblock1,850.8999996185303,img/planet12_right.png,12,Community 3,NA,TRUE,j,j,NA,NA,NA,1,6,"11,7,3,6,2,5,4,1,14,15,10,12,8,13,9"
14414,commdev-image-keyboard-response,135,899923,learnblock1,738.1999988555908,img/planet9_left.png,9,Community 3,NA,TRUE,f,f,NA,NA,NA,1,6,"11,7,3,6,2,5,4,1,14,15,10,12,8,13,9"
14414,commdev-image-keyboard-response,136,901188,learnblock1,949.1999988555908,img/planet10_left.png,10,Community 3,NA,TRUE,f,f,NA,NA,NA,1,6,"11,7,3,6,2,5,4,1,14,15,10,12,8,13,9"
14414,commdev-image-keyboard-response,137,902456,learnblock1,803.1999988555908,img/planet2_right.png,2,Community 1,NA,TRUE,j,j,NA,NA,NA,1,6,"11,7,3,6,2,5,4,1,14,15,10,12,8,13,9"
14414,commdev-image-keyboard-response,138,903721,learnblock1,712.2999992370605,img/planet10_left.png,10,Community 3,NA,TRUE,f,f,NA,NA,NA,1,6,"11,7,3,6,2,5,4,1,14,15,10,12,8,13,9"
14414,commdev-image-keyboard-response,139,904977,learnblock1,971.2999992370605,img/planet9_left.png,9,Community 3,NA,FALSE,j,f,NA,NA,NA,1,6,"11,7,3,6,2,5,4,1,14,15,10,12,8,13,9"
14414,commdev-image-keyboard-response,140,906236,learnblock1,1113.8000011444092,img/planet8_right.png,8,Community 3,NA,TRUE,j,j,NA,NA,NA,1,6,"11,7,3,6,2,5,4,1,14,15,10,12,8,13,9"
14414,commdev-image-keyboard-response,141,907498,learnblock1,804.2000007629395,img/planet12_left.png,12,Community 3,NA,TRUE,f,f,NA,NA,NA,1,6,"11,7,3,6,2,5,4,1,14,15,10,12,8,13,9"
14414,commdev-image-keyboard-response,142,908754,learnblock1,615.7999992370605,img/planet13_right.png,13,Community 3,NA,TRUE,j,j,NA,NA,NA,1,6,"11,7,3,6,2,5,4,1,14,15,10,12,8,13,9"
14414,commdev-image-keyboard-response,143,910018,learnblock1,968.3000011444092,img/planet8_right.png,8,Community 3,NA,TRUE,j,j,NA,NA,NA,1,6,"11,7,3,6,2,5,4,1,14,15,10,12,8,13,9"
14414,commdev-image-keyboard-response,144,911282,learnblock1,930.7999992370605,img/planet12_right.png,12,Community 3,NA,TRUE,j,j,NA,NA,NA,1,6,"11,7,3,6,2,5,4,1,14,15,10,12,8,13,9"
14414,commdev-image-keyboard-response,145,912547,learnblock1,812.6000003814697,img/planet13_left.png,13,Community 3,NA,TRUE,f,f,NA,NA,NA,1,6,"11,7,3,6,2,5,4,1,14,15,10,12,8,13,9"
14414,commdev-image-keyboard-response,146,913806,learnblock1,762.3999996185303,img/planet8_right.png,8,Community 3,NA,TRUE,j,j,NA,NA,NA,1,6,"11,7,3,6,2,5,4,1,14,15,10,12,8,13,9"
14414,commdev-image-keyboard-response,147,915059,learnblock1,692.7999992370605,img/planet13_right.png,13,Community 3,NA,TRUE,j,j,NA,NA,NA,1,6,"11,7,3,6,2,5,4,1,14,15,10,12,8,13,9"
14414,commdev-image-keyboard-response,148,916317,learnblock1,789.0999984741211,img/planet8_right.png,8,Community 3,NA,TRUE,j,j,NA,NA,NA,1,6,"11,7,3,6,2,5,4,1,14,15,10,12,8,13,9"
14414,commdev-image-keyboard-response,149,917576,learnblock1,555.3999996185303,img/planet10_left.png,10,Community 3,NA,TRUE,f,f,NA,NA,NA,1,6,"11,7,3,6,2,5,4,1,14,15,10,12,8,13,9"
14414,commdev-image-keyboard-response,150,918832,learnblock1,808.5999984741211,img/planet9_left.png,9,Community 3,NA,TRUE,f,f,NA,NA,NA,1,6,"11,7,3,6,2,5,4,1,14,15,10,12,8,13,9"
14414,commdev-image-keyboard-response,151,920097,learnblock1,839,img/planet8_left.png,8,Community 3,NA,TRUE,f,f,NA,NA,NA,1,6,"11,7,3,6,2,5,4,1,14,15,10,12,8,13,9"
14414,commdev-image-keyboard-response,152,921351,learnblock1,629.7999992370605,img/planet10_left.png,10,Community 3,NA,TRUE,f,f,NA,NA,NA,1,6,"11,7,3,6,2,5,4,1,14,15,10,12,8,13,9"
14414,commdev-image-keyboard-response,153,922618,learnblock1,618.5999984741211,img/planet2_right.png,2,Community 1,NA,TRUE,j,j,NA,NA,NA,1,6,"11,7,3,6,2,5,4,1,14,15,10,12,8,13,9"
14414,commdev-image-keyboard-response,154,923888,learnblock1,745.8000011444092,img/planet3_right.png,3,Community 1,NA,TRUE,j,j,NA,NA,NA,1,6,"11,7,3,6,2,5,4,1,14,15,10,12,8,13,9"
14414,commdev-image-keyboard-response,155,925149,learnblock1,796.7000007629395,img/planet11_right.png,11,Community 1,NA,TRUE,j,j,NA,NA,NA,1,6,"11,7,3,6,2,5,4,1,14,15,10,12,8,13,9"
14414,commdev-image-keyboard-response,156,926402,learnblock1,1251.1999988555908,img/planet3_right.png,3,Community 1,NA,TRUE,j,j,NA,NA,NA,1,6,"11,7,3,6,2,5,4,1,14,15,10,12,8,13,9"
14414,commdev-image-keyboard-response,157,927657,learnblock1,753.6999988555908,img/planet11_left.png,11,Community 1,NA,TRUE,f,f,NA,NA,NA,1,6,"11,7,3,6,2,5,4,1,14,15,10,12,8,13,9"
14414,commdev-image-keyboard-response,158,928914,learnblock1,828.8999996185303,img/planet3_left.png,3,Community 1,NA,TRUE,f,f,NA,NA,NA,1,6,"11,7,3,6,2,5,4,1,14,15,10,12,8,13,9"
14414,commdev-image-keyboard-response,159,930169,learnblock1,731.8000011444092,img/planet2_right.png,2,Community 1,NA,TRUE,j,j,NA,NA,NA,1,6,"11,7,3,6,2,5,4,1,14,15,10,12,8,13,9"
14414,commdev-image-keyboard-response,160,931428,learnblock1,805.1000003814697,img/planet3_left.png,3,Community 1,NA,TRUE,f,f,NA,NA,NA,1,6,"11,7,3,6,2,5,4,1,14,15,10,12,8,13,9"
14414,commdev-image-keyboard-response,161,932696,learnblock1,829.1000003814697,img/planet7_left.png,7,Community 1,NA,TRUE,f,f,NA,NA,NA,1,6,"11,7,3,6,2,5,4,1,14,15,10,12,8,13,9"
14414,commdev-image-keyboard-response,162,933951,learnblock1,749.6000003814697,img/planet3_left.png,3,Community 1,NA,TRUE,f,f,NA,NA,NA,1,6,"11,7,3,6,2,5,4,1,14,15,10,12,8,13,9"
14414,commdev-image-keyboard-response,163,935211,learnblock1,881.7999992370605,img/planet6_left.png,6,Community 1,NA,TRUE,f,f,NA,NA,NA,1,6,"11,7,3,6,2,5,4,1,14,15,10,12,8,13,9"
14414,commdev-image-keyboard-response,164,936478,learnblock1,724.0999984741211,img/planet11_right.png,11,Community 1,NA,TRUE,j,j,NA,NA,NA,1,6,"11,7,3,6,2,5,4,1,14,15,10,12,8,13,9"
14414,commdev-image-keyboard-response,165,937747,learnblock1,724.7000007629395,img/planet3_right.png,3,Community 1,NA,TRUE,j,j,NA,NA,NA,1,6,"11,7,3,6,2,5,4,1,14,15,10,12,8,13,9"
14414,commdev-image-keyboard-response,166,939006,learnblock1,633.7999992370605,img/planet2_right.png,2,Community 1,NA,TRUE,j,j,NA,NA,NA,1,6,"11,7,3,6,2,5,4,1,14,15,10,12,8,13,9"
14414,commdev-image-keyboard-response,167,940260,learnblock1,637.5,img/planet10_right.png,10,Community 3,NA,TRUE,j,j,NA,NA,NA,1,6,"11,7,3,6,2,5,4,1,14,15,10,12,8,13,9"
14414,commdev-image-keyboard-response,168,941517,learnblock1,601.8999996185303,img/planet8_left.png,8,Community 3,NA,TRUE,f,f,NA,NA,NA,1,6,"11,7,3,6,2,5,4,1,14,15,10,12,8,13,9"
14414,commdev-image-keyboard-response,169,942776,learnblock1,1035.2000007629395,img/planet9_right.png,9,Community 3,NA,TRUE,j,j,NA,NA,NA,1,6,"11,7,3,6,2,5,4,1,14,15,10,12,8,13,9"
14414,commdev-image-keyboard-response,170,944037,learnblock1,889.8000011444092,img/planet13_left.png,13,Community 3,NA,TRUE,f,f,NA,NA,NA,1,6,"11,7,3,6,2,5,4,1,14,15,10,12,8,13,9"
14414,commdev-image-keyboard-response,171,945295,learnblock1,637.1000003814697,img/planet12_right.png,12,Community 3,NA,TRUE,j,j,NA,NA,NA,1,6,"11,7,3,6,2,5,4,1,14,15,10,12,8,13,9"
14414,commdev-image-keyboard-response,172,946548,learnblock1,804.2000007629395,img/planet1_left.png,1,Community 2,NA,TRUE,f,f,NA,NA,NA,1,6,"11,7,3,6,2,5,4,1,14,15,10,12,8,13,9"
14414,commdev-image-keyboard-response,173,947802,learnblock1,989.2000007629395,img/planet12_left.png,12,Community 3,NA,TRUE,f,f,NA,NA,NA,1,6,"11,7,3,6,2,5,4,1,14,15,10,12,8,13,9"
14414,commdev-image-keyboard-response,174,949057,learnblock1,586.2999992370605,img/planet13_right.png,13,Community 3,NA,TRUE,j,j,NA,NA,NA,1,6,"11,7,3,6,2,5,4,1,14,15,10,12,8,13,9"
14414,commdev-image-keyboard-response,175,950313,learnblock1,489.6999988555908,img/planet12_left.png,12,Community 3,NA,TRUE,f,f,NA,NA,NA,1,6,"11,7,3,6,2,5,4,1,14,15,10,12,8,13,9"
14414,commdev-image-keyboard-response,176,951565,learnblock1,511.5,img/planet13_right.png,13,Community 3,NA,TRUE,j,j,NA,NA,NA,1,6,"11,7,3,6,2,5,4,1,14,15,10,12,8,13,9"
14414,commdev-image-keyboard-response,177,952818,learnblock1,836.5,img/planet8_right.png,8,Community 3,NA,TRUE,j,j,NA,NA,NA,1,6,"11,7,3,6,2,5,4,1,14,15,10,12,8,13,9"
14414,commdev-image-keyboard-response,178,954078,learnblock1,984.9000015258789,img/planet9_right.png,9,Community 3,NA,TRUE,j,j,NA,NA,NA,1,6,"11,7,3,6,2,5,4,1,14,15,10,12,8,13,9"
14414,commdev-image-keyboard-response,179,955337,learnblock1,628.6000003814697,img/planet10_right.png,10,Community 3,NA,TRUE,j,j,NA,NA,NA,1,6,"11,7,3,6,2,5,4,1,14,15,10,12,8,13,9"
14414,commdev-image-keyboard-response,180,956604,learnblock1,590.3999996185303,img/planet9_left.png,9,Community 3,NA,TRUE,f,f,NA,NA,NA,1,6,"11,7,3,6,2,5,4,1,14,15,10,12,8,13,9"
14414,commdev-image-keyboard-response,181,957858,learnblock1,630.1000003814697,img/planet8_left.png,8,Community 3,NA,TRUE,f,f,NA,NA,NA,1,6,"11,7,3,6,2,5,4,1,14,15,10,12,8,13,9"
14414,commdev-image-keyboard-response,182,959112,learnblock1,629.2999992370605,img/planet9_right.png,9,Community 3,NA,TRUE,j,j,NA,NA,NA,1,6,"11,7,3,6,2,5,4,1,14,15,10,12,8,13,9"
14414,commdev-image-keyboard-response,183,960366,learnblock1,705.7999992370605,img/planet12_left.png,12,Community 3,NA,FALSE,j,f,NA,NA,NA,1,6,"11,7,3,6,2,5,4,1,14,15,10,12,8,13,9"
14414,commdev-image-keyboard-response,184,961625,learnblock1,1176.8000011444092,img/planet8_left.png,8,Community 3,NA,TRUE,f,f,NA,NA,NA,1,6,"11,7,3,6,2,5,4,1,14,15,10,12,8,13,9"
14414,commdev-image-keyboard-response,185,962880,learnblock1,823.6000003814697,img/planet9_left.png,9,Community 3,NA,TRUE,f,f,NA,NA,NA,1,6,"11,7,3,6,2,5,4,1,14,15,10,12,8,13,9"
14414,commdev-image-keyboard-response,186,964138,learnblock1,720.7000007629395,img/planet8_right.png,8,Community 3,NA,TRUE,j,j,NA,NA,NA,1,6,"11,7,3,6,2,5,4,1,14,15,10,12,8,13,9"
14414,commdev-image-keyboard-response,187,965397,learnblock1,531.6000003814697,img/planet10_left.png,10,Community 3,NA,TRUE,f,f,NA,NA,NA,1,6,"11,7,3,6,2,5,4,1,14,15,10,12,8,13,9"
14414,commdev-image-keyboard-response,188,966666,learnblock1,671.5,img/planet9_right.png,9,Community 3,NA,TRUE,j,j,NA,NA,NA,1,6,"11,7,3,6,2,5,4,1,14,15,10,12,8,13,9"
14414,commdev-image-keyboard-response,189,967920,learnblock1,604,img/planet8_right.png,8,Community 3,NA,FALSE,f,j,NA,NA,NA,1,6,"11,7,3,6,2,5,4,1,14,15,10,12,8,13,9"
14414,commdev-image-keyboard-response,190,969189,learnblock1,918.1000003814697,img/planet9_right.png,9,Community 3,NA,TRUE,j,j,NA,NA,NA,1,6,"11,7,3,6,2,5,4,1,14,15,10,12,8,13,9"
14414,commdev-image-keyboard-response,191,970458,learnblock1,641.8999996185303,img/planet12_left.png,12,Community 3,NA,TRUE,f,f,NA,NA,NA,1,6,"11,7,3,6,2,5,4,1,14,15,10,12,8,13,9"
14414,commdev-image-keyboard-response,192,971711,learnblock1,592.3999996185303,img/planet8_right.png,8,Community 3,NA,TRUE,j,j,NA,NA,NA,1,6,"11,7,3,6,2,5,4,1,14,15,10,12,8,13,9"
14414,commdev-image-keyboard-response,193,972969,learnblock1,652,img/planet13_right.png,13,Community 3,NA,TRUE,j,j,NA,NA,NA,1,6,"11,7,3,6,2,5,4,1,14,15,10,12,8,13,9"
14414,commdev-image-keyboard-response,194,974229,learnblock1,705.7999992370605,img/planet12_right.png,12,Community 3,NA,TRUE,j,j,NA,NA,NA,1,6,"11,7,3,6,2,5,4,1,14,15,10,12,8,13,9"
14414,commdev-image-keyboard-response,195,975490,learnblock1,646.1000003814697,img/planet8_left.png,8,Community 3,NA,TRUE,f,f,NA,NA,NA,1,6,"11,7,3,6,2,5,4,1,14,15,10,12,8,13,9"
14414,commdev-image-keyboard-response,196,976748,learnblock1,674.7999992370605,img/planet13_left.png,13,Community 3,NA,TRUE,f,f,NA,NA,NA,1,6,"11,7,3,6,2,5,4,1,14,15,10,12,8,13,9"
14414,commdev-image-keyboard-response,197,978008,learnblock1,566.1000003814697,img/planet10_left.png,10,Community 3,NA,TRUE,f,f,NA,NA,NA,1,6,"11,7,3,6,2,5,4,1,14,15,10,12,8,13,9"
14414,commdev-image-keyboard-response,198,979260,learnblock1,617.7000007629395,img/planet2_right.png,2,Community 1,NA,TRUE,j,j,NA,NA,NA,1,6,"11,7,3,6,2,5,4,1,14,15,10,12,8,13,9"
14414,commdev-image-keyboard-response,199,980524,learnblock1,734.1000003814697,img/planet7_left.png,7,Community 1,NA,TRUE,f,f,NA,NA,NA,1,6,"11,7,3,6,2,5,4,1,14,15,10,12,8,13,9"
14414,commdev-image-keyboard-response,200,981783,learnblock1,661.8999996185303,img/planet11_right.png,11,Community 1,NA,TRUE,j,j,NA,NA,NA,1,6,"11,7,3,6,2,5,4,1,14,15,10,12,8,13,9"
14414,commdev-image-keyboard-response,201,983043,learnblock1,708,img/planet2_right.png,2,Community 1,NA,TRUE,j,j,NA,NA,NA,1,6,"11,7,3,6,2,5,4,1,14,15,10,12,8,13,9"
14414,commdev-image-keyboard-response,202,984300,learnblock1,863.1000003814697,img/planet10_right.png,10,Community 3,NA,TRUE,j,j,NA,NA,NA,1,6,"11,7,3,6,2,5,4,1,14,15,10,12,8,13,9"
14414,commdev-image-keyboard-response,203,985566,learnblock1,926.8999996185303,img/planet13_left.png,13,Community 3,NA,TRUE,f,f,NA,NA,NA,1,6,"11,7,3,6,2,5,4,1,14,15,10,12,8,13,9"
14414,commdev-image-keyboard-response,204,986824,learnblock1,882.8999996185303,img/planet10_left.png,10,Community 3,NA,TRUE,f,f,NA,NA,NA,1,6,"11,7,3,6,2,5,4,1,14,15,10,12,8,13,9"
14414,commdev-image-keyboard-response,205,988076,learnblock1,731.1000003814697,img/planet13_right.png,13,Community 3,NA,TRUE,j,j,NA,NA,NA,1,6,"11,7,3,6,2,5,4,1,14,15,10,12,8,13,9"
14414,commdev-image-keyboard-response,206,989339,learnblock1,497.1000003814697,img/planet12_left.png,12,Community 3,NA,TRUE,f,f,NA,NA,NA,1,6,"11,7,3,6,2,5,4,1,14,15,10,12,8,13,9"
14414,commdev-image-keyboard-response,207,990597,learnblock1,423.70000076293945,img/planet13_left.png,13,Community 3,NA,TRUE,f,f,NA,NA,NA,1,6,"11,7,3,6,2,5,4,1,14,15,10,12,8,13,9"
14414,commdev-image-keyboard-response,208,991854,learnblock1,476.6000003814697,img/planet9_left.png,9,Community 3,NA,TRUE,f,f,NA,NA,NA,1,6,"11,7,3,6,2,5,4,1,14,15,10,12,8,13,9"
14414,commdev-image-keyboard-response,209,993111,learnblock1,542.2999992370605,img/planet13_left.png,13,Community 3,NA,TRUE,f,f,NA,NA,NA,1,6,"11,7,3,6,2,5,4,1,14,15,10,12,8,13,9"
14414,commdev-image-keyboard-response,210,994369,learnblock1,736.1000003814697,img/planet8_right.png,8,Community 3,NA,TRUE,j,j,NA,NA,NA,1,6,"11,7,3,6,2,5,4,1,14,15,10,12,8,13,9"
14414,commdev-image-keyboard-response,211,995627,learnblock1,948.2999992370605,img/planet12_right.png,12,Community 3,NA,TRUE,j,j,NA,NA,NA,1,6,"11,7,3,6,2,5,4,1,14,15,10,12,8,13,9"
14414,commdev-image-keyboard-response,212,996881,learnblock1,697.3000011444092,img/planet8_left.png,8,Community 3,NA,TRUE,f,f,NA,NA,NA,1,6,"11,7,3,6,2,5,4,1,14,15,10,12,8,13,9"
14414,commdev-image-keyboard-response,213,998142,learnblock1,429.79999923706055,img/planet10_left.png,10,Community 3,NA,TRUE,f,f,NA,NA,NA,1,6,"11,7,3,6,2,5,4,1,14,15,10,12,8,13,9"
14414,commdev-image-keyboard-response,214,999402,learnblock1,610.2999992370605,img/planet8_right.png,8,Community 3,NA,TRUE,j,j,NA,NA,NA,1,6,"11,7,3,6,2,5,4,1,14,15,10,12,8,13,9"
14414,commdev-image-keyboard-response,215,1000660,learnblock1,515.5,img/planet9_right.png,9,Community 3,NA,FALSE,f,j,NA,NA,NA,1,6,"11,7,3,6,2,5,4,1,14,15,10,12,8,13,9"
14414,commdev-image-keyboard-response,216,1001916,learnblock1,866.3000011444092,img/planet12_right.png,12,Community 3,NA,TRUE,j,j,NA,NA,NA,1,6,"11,7,3,6,2,5,4,1,14,15,10,12,8,13,9"
14414,commdev-image-keyboard-response,217,1003169,learnblock1,610.6000003814697,img/planet13_left.png,13,Community 3,NA,TRUE,f,f,NA,NA,NA,1,6,"11,7,3,6,2,5,4,1,14,15,10,12,8,13,9"
14414,commdev-image-keyboard-response,218,1004425,learnblock1,795.1999988555908,img/planet12_left.png,12,Community 3,NA,TRUE,f,f,NA,NA,NA,1,6,"11,7,3,6,2,5,4,1,14,15,10,12,8,13,9"
14414,commdev-image-keyboard-response,219,1005690,learnblock1,606.5,img/planet8_right.png,8,Community 3,NA,TRUE,j,j,NA,NA,NA,1,6,"11,7,3,6,2,5,4,1,14,15,10,12,8,13,9"
14414,commdev-image-keyboard-response,220,1006954,learnblock1,670.8999996185303,img/planet10_right.png,10,Community 3,NA,TRUE,j,j,NA,NA,NA,1,6,"11,7,3,6,2,5,4,1,14,15,10,12,8,13,9"
14414,commdev-image-keyboard-response,221,1008209,learnblock1,1005.3999996185303,img/planet2_right.png,2,Community 1,NA,TRUE,j,j,NA,NA,NA,1,6,"11,7,3,6,2,5,4,1,14,15,10,12,8,13,9"
14414,commdev-image-keyboard-response,222,1009469,learnblock1,936.6000003814697,img/planet7_right.png,7,Community 1,NA,TRUE,j,j,NA,NA,NA,1,6,"11,7,3,6,2,5,4,1,14,15,10,12,8,13,9"
14414,commdev-image-keyboard-response,223,1010720,learnblock1,1046.1000003814697,img/planet11_left.png,11,Community 1,NA,TRUE,f,f,NA,NA,NA,1,6,"11,7,3,6,2,5,4,1,14,15,10,12,8,13,9"
14414,commdev-image-keyboard-response,224,1011987,learnblock1,661.6000003814697,img/planet7_right.png,7,Community 1,NA,TRUE,j,j,NA,NA,NA,1,6,"11,7,3,6,2,5,4,1,14,15,10,12,8,13,9"
14414,commdev-image-keyboard-response,225,1013241,learnblock1,923.7000007629395,img/planet3_left.png,3,Community 1,NA,TRUE,f,f,NA,NA,NA,1,6,"11,7,3,6,2,5,4,1,14,15,10,12,8,13,9"
14414,commdev-image-keyboard-response,226,1014499,learnblock1,675.3999996185303,img/planet2_right.png,2,Community 1,NA,TRUE,j,j,NA,NA,NA,1,6,"11,7,3,6,2,5,4,1,14,15,10,12,8,13,9"
14414,commdev-image-keyboard-response,227,1015753,learnblock1,550.7000007629395,img/planet11_left.png,11,Community 1,NA,TRUE,f,f,NA,NA,NA,1,6,"11,7,3,6,2,5,4,1,14,15,10,12,8,13,9"
14414,commdev-image-keyboard-response,228,1017017,learnblock1,706.5999984741211,img/planet3_right.png,3,Community 1,NA,TRUE,j,j,NA,NA,NA,1,6,"11,7,3,6,2,5,4,1,14,15,10,12,8,13,9"
14414,commdev-image-keyboard-response,229,1018274,learnblock1,800.4000015258789,img/planet11_right.png,11,Community 1,NA,TRUE,j,j,NA,NA,NA,1,6,"11,7,3,6,2,5,4,1,14,15,10,12,8,13,9"
14414,commdev-image-keyboard-response,230,1019538,learnblock1,602.5,img/planet3_left.png,3,Community 1,NA,TRUE,f,f,NA,NA,NA,1,6,"11,7,3,6,2,5,4,1,14,15,10,12,8,13,9"
14414,commdev-image-keyboard-response,231,1020792,learnblock1,594,img/planet11_right.png,11,Community 1,NA,TRUE,j,j,NA,NA,NA,1,6,"11,7,3,6,2,5,4,1,14,15,10,12,8,13,9"
14414,commdev-image-keyboard-response,232,1022045,learnblock1,565,img/planet2_left.png,2,Community 1,NA,TRUE,f,f,NA,NA,NA,1,6,"11,7,3,6,2,5,4,1,14,15,10,12,8,13,9"
14414,commdev-image-keyboard-response,233,1023309,learnblock1,519.3999996185303,img/planet11_right.png,11,Community 1,NA,TRUE,j,j,NA,NA,NA,1,6,"11,7,3,6,2,5,4,1,14,15,10,12,8,13,9"
14414,commdev-image-keyboard-response,234,1024565,learnblock1,827.3999996185303,img/planet3_right.png,3,Community 1,NA,TRUE,j,j,NA,NA,NA,1,6,"11,7,3,6,2,5,4,1,14,15,10,12,8,13,9"
14414,commdev-image-keyboard-response,235,1025823,learnblock1,641.3000011444092,img/planet7_left.png,7,Community 1,NA,TRUE,f,f,NA,NA,NA,1,6,"11,7,3,6,2,5,4,1,14,15,10,12,8,13,9"
14414,commdev-image-keyboard-response,236,1027082,learnblock1,892.7999992370605,img/planet6_left.png,6,Community 1,NA,TRUE,f,f,NA,NA,NA,1,6,"11,7,3,6,2,5,4,1,14,15,10,12,8,13,9"
14414,commdev-image-keyboard-response,237,1028342,learnblock1,653.5,img/planet11_left.png,11,Community 1,NA,TRUE,f,f,NA,NA,NA,1,6,"11,7,3,6,2,5,4,1,14,15,10,12,8,13,9"
14414,commdev-image-keyboard-response,238,1029603,learnblock1,628.3999996185303,img/planet6_right.png,6,Community 1,NA,TRUE,j,j,NA,NA,NA,1,6,"11,7,3,6,2,5,4,1,14,15,10,12,8,13,9"
14414,commdev-image-keyboard-response,239,1030862,learnblock1,524.3999996185303,img/planet7_right.png,7,Community 1,NA,TRUE,j,j,NA,NA,NA,1,6,"11,7,3,6,2,5,4,1,14,15,10,12,8,13,9"
14414,commdev-image-keyboard-response,240,1032116,learnblock1,658,img/planet3_left.png,3,Community 1,NA,TRUE,f,f,NA,NA,NA,1,6,"11,7,3,6,2,5,4,1,14,15,10,12,8,13,9"
14414,commdev-image-keyboard-response,241,1033373,learnblock1,667,img/planet6_left.png,6,Community 1,NA,FALSE,j,f,NA,NA,NA,1,6,"11,7,3,6,2,5,4,1,14,15,10,12,8,13,9"
14414,commdev-image-keyboard-response,242,1034633,learnblock1,745.1000003814697,img/planet11_right.png,11,Community 1,NA,TRUE,j,j,NA,NA,NA,1,6,"11,7,3,6,2,5,4,1,14,15,10,12,8,13,9"
14414,commdev-image-keyboard-response,243,1035893,learnblock1,639.6999988555908,img/planet7_left.png,7,Community 1,NA,TRUE,f,f,NA,NA,NA,1,6,"11,7,3,6,2,5,4,1,14,15,10,12,8,13,9"
14414,commdev-image-keyboard-response,244,1037149,learnblock1,753.6000003814697,img/planet11_right.png,11,Community 1,NA,TRUE,j,j,NA,NA,NA,1,6,"11,7,3,6,2,5,4,1,14,15,10,12,8,13,9"
14414,commdev-image-keyboard-response,245,1038408,learnblock1,737.5,img/planet2_left.png,2,Community 1,NA,TRUE,f,f,NA,NA,NA,1,6,"11,7,3,6,2,5,4,1,14,15,10,12,8,13,9"
14414,commdev-image-keyboard-response,246,1039664,learnblock1,724.8000011444092,img/planet7_right.png,7,Community 1,NA,TRUE,j,j,NA,NA,NA,1,6,"11,7,3,6,2,5,4,1,14,15,10,12,8,13,9"
14414,commdev-image-keyboard-response,247,1040922,learnblock1,930.5,img/planet3_right.png,3,Community 1,NA,TRUE,j,j,NA,NA,NA,1,6,"11,7,3,6,2,5,4,1,14,15,10,12,8,13,9"
14414,commdev-image-keyboard-response,248,1042176,learnblock1,618.3000011444092,img/planet11_left.png,11,Community 1,NA,TRUE,f,f,NA,NA,NA,1,6,"11,7,3,6,2,5,4,1,14,15,10,12,8,13,9"
14414,commdev-image-keyboard-response,249,1043441,learnblock1,515.5,img/planet3_right.png,3,Community 1,NA,TRUE,j,j,NA,NA,NA,1,6,"11,7,3,6,2,5,4,1,14,15,10,12,8,13,9"
14414,commdev-image-keyboard-response,250,1044706,learnblock1,776.4000015258789,img/planet6_right.png,6,Community 1,NA,TRUE,j,j,NA,NA,NA,1,6,"11,7,3,6,2,5,4,1,14,15,10,12,8,13,9"
14414,commdev-image-keyboard-response,251,1045961,learnblock1,673.1999988555908,img/planet5_right.png,5,Community 2,NA,TRUE,j,j,NA,NA,NA,1,6,"11,7,3,6,2,5,4,1,14,15,10,12,8,13,9"
14414,commdev-image-keyboard-response,252,1047218,learnblock1,705.6000003814697,img/planet4_left.png,4,Community 2,NA,TRUE,f,f,NA,NA,NA,1,6,"11,7,3,6,2,5,4,1,14,15,10,12,8,13,9"
14414,commdev-image-keyboard-response,253,1048477,learnblock1,751.6000003814697,img/planet15_left.png,15,Community 2,NA,TRUE,f,f,NA,NA,NA,1,6,"11,7,3,6,2,5,4,1,14,15,10,12,8,13,9"
14414,commdev-image-keyboard-response,254,1049735,learnblock1,848.9000015258789,img/planet4_left.png,4,Community 2,NA,TRUE,f,f,NA,NA,NA,1,6,"11,7,3,6,2,5,4,1,14,15,10,12,8,13,9"
14414,commdev-image-keyboard-response,255,1050994,learnblock1,1095.7999992370605,img/planet14_left.png,14,Community 2,NA,TRUE,f,f,NA,NA,NA,1,6,"11,7,3,6,2,5,4,1,14,15,10,12,8,13,9"
14414,commdev-image-keyboard-response,256,1052252,learnblock1,751,img/planet4_right.png,4,Community 2,NA,FALSE,f,j,NA,NA,NA,1,6,"11,7,3,6,2,5,4,1,14,15,10,12,8,13,9"
14414,commdev-image-keyboard-response,257,1053518,learnblock1,852.3999996185303,img/planet1_left.png,1,Community 2,NA,TRUE,f,f,NA,NA,NA,1,6,"11,7,3,6,2,5,4,1,14,15,10,12,8,13,9"
14414,commdev-image-keyboard-response,258,1054780,learnblock1,706.7999992370605,img/planet15_right.png,15,Community 2,NA,TRUE,j,j,NA,NA,NA,1,6,"11,7,3,6,2,5,4,1,14,15,10,12,8,13,9"
14414,commdev-image-keyboard-response,259,1056035,learnblock1,1037.2999992370605,img/planet5_left.png,5,Community 2,NA,TRUE,f,f,NA,NA,NA,1,6,"11,7,3,6,2,5,4,1,14,15,10,12,8,13,9"
14414,commdev-image-keyboard-response,260,1057301,learnblock1,881.3999996185303,img/planet6_right.png,6,Community 1,NA,TRUE,j,j,NA,NA,NA,1,6,"11,7,3,6,2,5,4,1,14,15,10,12,8,13,9"
14414,commdev-image-keyboard-response,261,1058557,learnblock1,606.8000011444092,img/planet11_left.png,11,Community 1,NA,TRUE,f,f,NA,NA,NA,1,6,"11,7,3,6,2,5,4,1,14,15,10,12,8,13,9"
14414,commdev-image-keyboard-response,262,1059819,learnblock1,635.7000007629395,img/planet2_right.png,2,Community 1,NA,TRUE,j,j,NA,NA,NA,1,6,"11,7,3,6,2,5,4,1,14,15,10,12,8,13,9"
14414,commdev-image-keyboard-response,263,1061082,learnblock1,663.2999992370605,img/planet10_left.png,10,Community 3,NA,TRUE,f,f,NA,NA,NA,1,6,"11,7,3,6,2,5,4,1,14,15,10,12,8,13,9"
14414,commdev-image-keyboard-response,264,1062343,learnblock1,559.2000007629395,img/planet8_right.png,8,Community 3,NA,TRUE,j,j,NA,NA,NA,1,6,"11,7,3,6,2,5,4,1,14,15,10,12,8,13,9"
14414,commdev-image-keyboard-response,265,1063598,learnblock1,779.4000015258789,img/planet13_right.png,13,Community 3,NA,TRUE,j,j,NA,NA,NA,1,6,"11,7,3,6,2,5,4,1,14,15,10,12,8,13,9"
14414,commdev-image-keyboard-response,266,1064858,learnblock1,616.3000011444092,img/planet12_left.png,12,Community 3,NA,TRUE,f,f,NA,NA,NA,1,6,"11,7,3,6,2,5,4,1,14,15,10,12,8,13,9"
14414,commdev-image-keyboard-response,267,1066115,learnblock1,847.1000003814697,img/planet8_left.png,8,Community 3,NA,TRUE,f,f,NA,NA,NA,1,6,"11,7,3,6,2,5,4,1,14,15,10,12,8,13,9"
14414,commdev-image-keyboard-response,268,1067382,learnblock1,728.2000007629395,img/planet13_right.png,13,Community 3,NA,TRUE,j,j,NA,NA,NA,1,6,"11,7,3,6,2,5,4,1,14,15,10,12,8,13,9"
14414,commdev-image-keyboard-response,269,1068643,learnblock1,754.2000007629395,img/planet8_right.png,8,Community 3,NA,TRUE,j,j,NA,NA,NA,1,6,"11,7,3,6,2,5,4,1,14,15,10,12,8,13,9"
14414,commdev-image-keyboard-response,270,1069896,learnblock1,628.5,img/planet13_left.png,13,Community 3,NA,TRUE,f,f,NA,NA,NA,1,6,"11,7,3,6,2,5,4,1,14,15,10,12,8,13,9"
14414,commdev-image-keyboard-response,271,1071150,learnblock1,603.2999992370605,img/planet10_right.png,10,Community 3,NA,TRUE,j,j,NA,NA,NA,1,6,"11,7,3,6,2,5,4,1,14,15,10,12,8,13,9"
14414,commdev-image-keyboard-response,272,1072408,learnblock1,676.8999996185303,img/planet2_right.png,2,Community 1,NA,TRUE,j,j,NA,NA,NA,1,6,"11,7,3,6,2,5,4,1,14,15,10,12,8,13,9"
14414,commdev-image-keyboard-response,273,1073672,learnblock1,731.8999996185303,img/planet7_right.png,7,Community 1,NA,FALSE,f,j,NA,NA,NA,1,6,"11,7,3,6,2,5,4,1,14,15,10,12,8,13,9"
14414,commdev-image-keyboard-response,274,1074939,learnblock1,1011.4000015258789,img/planet2_right.png,2,Community 1,NA,TRUE,j,j,NA,NA,NA,1,6,"11,7,3,6,2,5,4,1,14,15,10,12,8,13,9"
14414,commdev-image-keyboard-response,275,1076196,learnblock1,698,img/planet10_left.png,10,Community 3,NA,TRUE,f,f,NA,NA,NA,1,6,"11,7,3,6,2,5,4,1,14,15,10,12,8,13,9"
14414,commdev-image-keyboard-response,276,1077454,learnblock1,612.2000007629395,img/planet8_right.png,8,Community 3,NA,TRUE,j,j,NA,NA,NA,1,6,"11,7,3,6,2,5,4,1,14,15,10,12,8,13,9"
14414,commdev-image-keyboard-response,277,1078708,learnblock1,648,img/planet13_right.png,13,Community 3,NA,TRUE,j,j,NA,NA,NA,1,6,"11,7,3,6,2,5,4,1,14,15,10,12,8,13,9"
14414,commdev-image-keyboard-response,278,1079968,learnblock1,809.5,img/planet12_right.png,12,Community 3,NA,TRUE,j,j,NA,NA,NA,1,6,"11,7,3,6,2,5,4,1,14,15,10,12,8,13,9"
14414,commdev-image-keyboard-response,279,1081231,learnblock1,753.8000011444092,img/planet1_right.png,1,Community 2,NA,TRUE,j,j,NA,NA,NA,1,6,"11,7,3,6,2,5,4,1,14,15,10,12,8,13,9"
14414,commdev-image-keyboard-response,280,1082498,learnblock1,539.6999988555908,img/planet14_left.png,14,Community 2,NA,TRUE,f,f,NA,NA,NA,1,6,"11,7,3,6,2,5,4,1,14,15,10,12,8,13,9"
14414,commdev-image-keyboard-response,281,1083756,learnblock1,936.2000007629395,img/planet1_left.png,1,Community 2,NA,TRUE,f,f,NA,NA,NA,1,6,"11,7,3,6,2,5,4,1,14,15,10,12,8,13,9"
14414,commdev-image-keyboard-response,282,1085011,learnblock1,983.2000007629395,img/planet15_left.png,15,Community 2,NA,TRUE,f,f,NA,NA,NA,1,6,"11,7,3,6,2,5,4,1,14,15,10,12,8,13,9"
14414,commdev-image-keyboard-response,283,1086265,learnblock1,651.1000003814697,img/planet5_right.png,5,Community 2,NA,TRUE,j,j,NA,NA,NA,1,6,"11,7,3,6,2,5,4,1,14,15,10,12,8,13,9"
14414,commdev-image-keyboard-response,284,1087524,learnblock1,982.6999988555908,img/planet6_right.png,6,Community 1,NA,TRUE,j,j,NA,NA,NA,1,6,"11,7,3,6,2,5,4,1,14,15,10,12,8,13,9"
14414,commdev-image-keyboard-response,285,1088784,learnblock1,678.5,img/planet5_left.png,5,Community 2,NA,TRUE,f,f,NA,NA,NA,1,6,"11,7,3,6,2,5,4,1,14,15,10,12,8,13,9"
14414,commdev-image-keyboard-response,286,1090041,learnblock1,671,img/planet14_right.png,14,Community 2,NA,TRUE,j,j,NA,NA,NA,1,6,"11,7,3,6,2,5,4,1,14,15,10,12,8,13,9"
14414,commdev-image-keyboard-response,287,1091307,learnblock1,608.3999996185303,img/planet5_left.png,5,Community 2,NA,TRUE,f,f,NA,NA,NA,1,6,"11,7,3,6,2,5,4,1,14,15,10,12,8,13,9"
14414,commdev-image-keyboard-response,288,1092562,learnblock1,847.5,img/planet6_left.png,6,Community 1,NA,TRUE,f,f,NA,NA,NA,1,6,"11,7,3,6,2,5,4,1,14,15,10,12,8,13,9"
14414,commdev-image-keyboard-response,289,1093818,learnblock1,675.3999996185303,img/planet5_right.png,5,Community 2,NA,TRUE,j,j,NA,NA,NA,1,6,"11,7,3,6,2,5,4,1,14,15,10,12,8,13,9"
14414,commdev-image-keyboard-response,290,1095071,learnblock1,633.7999992370605,img/planet14_left.png,14,Community 2,NA,TRUE,f,f,NA,NA,NA,1,6,"11,7,3,6,2,5,4,1,14,15,10,12,8,13,9"
14414,commdev-image-keyboard-response,291,1096331,learnblock1,656.8000011444092,img/planet4_right.png,4,Community 2,NA,TRUE,j,j,NA,NA,NA,1,6,"11,7,3,6,2,5,4,1,14,15,10,12,8,13,9"
14414,commdev-image-keyboard-response,292,1097589,learnblock1,772.7999992370605,img/planet5_right.png,5,Community 2,NA,TRUE,j,j,NA,NA,NA,1,6,"11,7,3,6,2,5,4,1,14,15,10,12,8,13,9"
14414,commdev-image-keyboard-response,293,1098842,learnblock1,649.2999992370605,img/planet15_left.png,15,Community 2,NA,TRUE,f,f,NA,NA,NA,1,6,"11,7,3,6,2,5,4,1,14,15,10,12,8,13,9"
14414,commdev-image-keyboard-response,294,1100107,learnblock1,523.7000007629395,img/planet4_right.png,4,Community 2,NA,TRUE,j,j,NA,NA,NA,1,6,"11,7,3,6,2,5,4,1,14,15,10,12,8,13,9"
14414,commdev-image-keyboard-response,295,1101362,learnblock1,575.8999996185303,img/planet14_left.png,14,Community 2,NA,TRUE,f,f,NA,NA,NA,1,6,"11,7,3,6,2,5,4,1,14,15,10,12,8,13,9"
14414,commdev-image-keyboard-response,296,1102625,learnblock1,497.29999923706055,img/planet4_right.png,4,Community 2,NA,TRUE,j,j,NA,NA,NA,1,6,"11,7,3,6,2,5,4,1,14,15,10,12,8,13,9"
14414,commdev-image-keyboard-response,297,1103883,learnblock1,777.1000003814697,img/planet5_right.png,5,Community 2,NA,TRUE,j,j,NA,NA,NA,1,6,"11,7,3,6,2,5,4,1,14,15,10,12,8,13,9"
14414,commdev-image-keyboard-response,298,1105139,learnblock1,730.7000007629395,img/planet15_right.png,15,Community 2,NA,TRUE,j,j,NA,NA,NA,1,6,"11,7,3,6,2,5,4,1,14,15,10,12,8,13,9"
14414,commdev-image-keyboard-response,299,1106394,learnblock1,720.7000007629395,img/planet5_left.png,5,Community 2,NA,TRUE,f,f,NA,NA,NA,1,6,"11,7,3,6,2,5,4,1,14,15,10,12,8,13,9"
14414,commdev-image-keyboard-response,300,1107652,learnblock1,906.1000003814697,img/planet4_left.png,4,Community 2,NA,TRUE,f,f,NA,NA,NA,1,6,"11,7,3,6,2,5,4,1,14,15,10,12,8,13,9"
14414,commdev-image-keyboard-response,301,1108913,learnblock1,906.5,img/planet14_left.png,14,Community 2,NA,TRUE,f,f,NA,NA,NA,1,6,"11,7,3,6,2,5,4,1,14,15,10,12,8,13,9"
14414,commdev-image-keyboard-response,302,1110170,learnblock1,669.1000003814697,img/planet5_right.png,5,Community 2,NA,TRUE,j,j,NA,NA,NA,1,6,"11,7,3,6,2,5,4,1,14,15,10,12,8,13,9"
14414,commdev-image-keyboard-response,303,1111426,learnblock1,668.2999992370605,img/planet6_left.png,6,Community 1,NA,TRUE,f,f,NA,NA,NA,1,6,"11,7,3,6,2,5,4,1,14,15,10,12,8,13,9"
14414,commdev-image-keyboard-response,304,1112694,learnblock1,599.3000011444092,img/planet3_right.png,3,Community 1,NA,TRUE,j,j,NA,NA,NA,1,6,"11,7,3,6,2,5,4,1,14,15,10,12,8,13,9"
14414,commdev-image-keyboard-response,305,1113952,learnblock1,568.6000003814697,img/planet6_left.png,6,Community 1,NA,TRUE,f,f,NA,NA,NA,1,6,"11,7,3,6,2,5,4,1,14,15,10,12,8,13,9"
14414,commdev-image-keyboard-response,306,1115208,learnblock1,573,img/planet7_left.png,7,Community 1,NA,FALSE,j,f,NA,NA,NA,1,6,"11,7,3,6,2,5,4,1,14,15,10,12,8,13,9"
14414,commdev-image-keyboard-response,307,1116476,learnblock1,1029.400001525879,img/planet2_left.png,2,Community 1,NA,TRUE,f,f,NA,NA,NA,1,6,"11,7,3,6,2,5,4,1,14,15,10,12,8,13,9"
14414,commdev-image-keyboard-response,308,1117732,learnblock1,835.8999996185303,img/planet11_right.png,11,Community 1,NA,TRUE,j,j,NA,NA,NA,1,6,"11,7,3,6,2,5,4,1,14,15,10,12,8,13,9"
14414,commdev-image-keyboard-response,309,1118988,learnblock1,699.1000003814697,img/planet2_right.png,2,Community 1,NA,FALSE,f,j,NA,NA,NA,1,6,"11,7,3,6,2,5,4,1,14,15,10,12,8,13,9"
14414,commdev-image-keyboard-response,310,1120250,learnblock1,1135,img/planet7_right.png,7,Community 1,NA,TRUE,j,j,NA,NA,NA,1,6,"11,7,3,6,2,5,4,1,14,15,10,12,8,13,9"
14414,commdev-image-keyboard-response,311,1121505,learnblock1,1040,img/planet6_right.png,6,Community 1,NA,TRUE,j,j,NA,NA,NA,1,6,"11,7,3,6,2,5,4,1,14,15,10,12,8,13,9"
14414,commdev-image-keyboard-response,312,1122760,learnblock1,722.8999996185303,img/planet11_left.png,11,Community 1,NA,FALSE,j,f,NA,NA,NA,1,6,"11,7,3,6,2,5,4,1,14,15,10,12,8,13,9"
14414,commdev-image-keyboard-response,313,1124014,learnblock1,1214.8999996185303,img/planet6_left.png,6,Community 1,NA,TRUE,f,f,NA,NA,NA,1,6,"11,7,3,6,2,5,4,1,14,15,10,12,8,13,9"
14414,commdev-image-keyboard-response,314,1125267,learnblock1,696.1000003814697,img/planet5_right.png,5,Community 2,NA,TRUE,j,j,NA,NA,NA,1,6,"11,7,3,6,2,5,4,1,14,15,10,12,8,13,9"
14414,commdev-image-keyboard-response,315,1126527,learnblock1,1008.8999996185303,img/planet14_left.png,14,Community 2,NA,TRUE,f,f,NA,NA,NA,1,6,"11,7,3,6,2,5,4,1,14,15,10,12,8,13,9"
14414,commdev-image-keyboard-response,316,1127788,learnblock1,809.6000003814697,img/planet15_left.png,15,Community 2,NA,TRUE,f,f,NA,NA,NA,1,6,"11,7,3,6,2,5,4,1,14,15,10,12,8,13,9"
14414,commdev-image-keyboard-response,317,1129042,learnblock1,576.5,img/planet1_right.png,1,Community 2,NA,TRUE,j,j,NA,NA,NA,1,6,"11,7,3,6,2,5,4,1,14,15,10,12,8,13,9"
14414,commdev-image-keyboard-response,318,1130304,learnblock1,819.3999996185303,img/planet4_left.png,4,Community 2,NA,TRUE,f,f,NA,NA,NA,1,6,"11,7,3,6,2,5,4,1,14,15,10,12,8,13,9"
14414,commdev-image-keyboard-response,319,1131564,learnblock1,770.8999996185303,img/planet15_left.png,15,Community 2,NA,TRUE,f,f,NA,NA,NA,1,6,"11,7,3,6,2,5,4,1,14,15,10,12,8,13,9"
14414,commdev-image-keyboard-response,320,1132816,learnblock1,764,img/planet5_left.png,5,Community 2,NA,TRUE,f,f,NA,NA,NA,1,6,"11,7,3,6,2,5,4,1,14,15,10,12,8,13,9"
14414,commdev-image-keyboard-response,321,1134071,learnblock1,971.8000011444092,img/planet6_left.png,6,Community 1,NA,TRUE,f,f,NA,NA,NA,1,6,"11,7,3,6,2,5,4,1,14,15,10,12,8,13,9"
14414,commdev-image-keyboard-response,322,1135327,learnblock1,853.7999992370605,img/planet5_left.png,5,Community 2,NA,TRUE,f,f,NA,NA,NA,1,6,"11,7,3,6,2,5,4,1,14,15,10,12,8,13,9"
14414,commdev-image-keyboard-response,323,1136594,learnblock1,632.8000011444092,img/planet6_right.png,6,Community 1,NA,TRUE,j,j,NA,NA,NA,1,6,"11,7,3,6,2,5,4,1,14,15,10,12,8,13,9"
14414,commdev-image-keyboard-response,324,1137875,learnblock1,544.4000015258789,img/planet11_left.png,11,Community 1,NA,TRUE,f,f,NA,NA,NA,1,6,"11,7,3,6,2,5,4,1,14,15,10,12,8,13,9"
14414,commdev-image-keyboard-response,325,1139136,learnblock1,721.8999996185303,img/planet2_left.png,2,Community 1,NA,TRUE,f,f,NA,NA,NA,1,6,"11,7,3,6,2,5,4,1,14,15,10,12,8,13,9"
14414,commdev-image-keyboard-response,326,1140390,learnblock1,808.6000003814697,img/planet3_left.png,3,Community 1,NA,TRUE,f,f,NA,NA,NA,1,6,"11,7,3,6,2,5,4,1,14,15,10,12,8,13,9"
14414,commdev-image-keyboard-response,327,1141648,learnblock1,686.3999996185303,img/planet6_right.png,6,Community 1,NA,TRUE,j,j,NA,NA,NA,1,6,"11,7,3,6,2,5,4,1,14,15,10,12,8,13,9"
14414,commdev-image-keyboard-response,328,1142905,learnblock1,884.3999996185303,img/planet5_right.png,5,Community 2,NA,TRUE,j,j,NA,NA,NA,1,6,"11,7,3,6,2,5,4,1,14,15,10,12,8,13,9"
14414,commdev-image-keyboard-response,329,1144163,learnblock1,923.0999984741211,img/planet6_left.png,6,Community 1,NA,TRUE,f,f,NA,NA,NA,1,6,"11,7,3,6,2,5,4,1,14,15,10,12,8,13,9"
14414,commdev-image-keyboard-response,330,1145421,learnblock1,943.2000007629395,img/planet3_right.png,3,Community 1,NA,TRUE,j,j,NA,NA,NA,1,6,"11,7,3,6,2,5,4,1,14,15,10,12,8,13,9"
14414,commdev-image-keyboard-response,331,1146679,learnblock1,1166.7999992370605,img/planet7_right.png,7,Community 1,NA,TRUE,j,j,NA,NA,NA,1,6,"11,7,3,6,2,5,4,1,14,15,10,12,8,13,9"
14414,commdev-image-keyboard-response,332,1147933,learnblock1,1251.7000007629395,img/planet3_right.png,3,Community 1,NA,TRUE,j,j,NA,NA,NA,1,6,"11,7,3,6,2,5,4,1,14,15,10,12,8,13,9"
14414,commdev-image-keyboard-response,333,1149187,learnblock1,null,img/planet11_right.png,11,Community 1,NA,FALSE,null,j,NA,NA,NA,1,6,"11,7,3,6,2,5,4,1,14,15,10,12,8,13,9"
14414,commdev-image-keyboard-response,334,1150448,learnblock1,null,img/planet6_right.png,6,Community 1,NA,FALSE,null,j,NA,NA,NA,1,6,"11,7,3,6,2,5,4,1,14,15,10,12,8,13,9"
14414,commdev-image-keyboard-response,335,1151705,learnblock1,null,img/planet11_right.png,11,Community 1,NA,FALSE,null,j,NA,NA,NA,1,6,"11,7,3,6,2,5,4,1,14,15,10,12,8,13,9"
14414,commdev-image-keyboard-response,336,1152964,learnblock1,644.3000011444092,img/planet2_right.png,2,Community 1,NA,TRUE,j,j,NA,NA,NA,1,6,"11,7,3,6,2,5,4,1,14,15,10,12,8,13,9"
14414,commdev-image-keyboard-response,337,1154224,learnblock1,521.7000007629395,img/planet11_right.png,11,Community 1,NA,TRUE,j,j,NA,NA,NA,1,6,"11,7,3,6,2,5,4,1,14,15,10,12,8,13,9"
14414,commdev-image-keyboard-response,338,1155482,learnblock1,814.8999996185303,img/planet7_left.png,7,Community 1,NA,TRUE,f,f,NA,NA,NA,1,6,"11,7,3,6,2,5,4,1,14,15,10,12,8,13,9"
14414,commdev-image-keyboard-response,339,1156741,learnblock1,745.2000007629395,img/planet3_right.png,3,Community 1,NA,TRUE,j,j,NA,NA,NA,1,6,"11,7,3,6,2,5,4,1,14,15,10,12,8,13,9"
14414,commdev-image-keyboard-response,340,1157997,learnblock1,1006.6999988555908,img/planet11_right.png,11,Community 1,NA,FALSE,f,j,NA,NA,NA,1,6,"11,7,3,6,2,5,4,1,14,15,10,12,8,13,9"
14414,commdev-image-keyboard-response,341,1159254,learnblock1,903,img/planet6_left.png,6,Community 1,NA,TRUE,f,f,NA,NA,NA,1,6,"11,7,3,6,2,5,4,1,14,15,10,12,8,13,9"
14414,commdev-image-keyboard-response,342,1160511,learnblock1,664.8999996185303,img/planet3_right.png,3,Community 1,NA,TRUE,j,j,NA,NA,NA,1,6,"11,7,3,6,2,5,4,1,14,15,10,12,8,13,9"
14414,commdev-image-keyboard-response,343,1161769,learnblock1,842.1000003814697,img/planet6_right.png,6,Community 1,NA,TRUE,j,j,NA,NA,NA,1,6,"11,7,3,6,2,5,4,1,14,15,10,12,8,13,9"
14414,commdev-image-keyboard-response,344,1163026,learnblock1,801.3000011444092,img/planet5_right.png,5,Community 2,NA,TRUE,j,j,NA,NA,NA,1,6,"11,7,3,6,2,5,4,1,14,15,10,12,8,13,9"
14414,commdev-image-keyboard-response,345,1164286,learnblock1,912.7000007629395,img/planet6_left.png,6,Community 1,NA,TRUE,f,f,NA,NA,NA,1,6,"11,7,3,6,2,5,4,1,14,15,10,12,8,13,9"
14414,commdev-image-keyboard-response,346,1165543,learnblock1,880.6000003814697,img/planet7_left.png,7,Community 1,NA,TRUE,f,f,NA,NA,NA,1,6,"11,7,3,6,2,5,4,1,14,15,10,12,8,13,9"
14414,commdev-image-keyboard-response,347,1166799,learnblock1,906.1999988555908,img/planet11_left.png,11,Community 1,NA,TRUE,f,f,NA,NA,NA,1,6,"11,7,3,6,2,5,4,1,14,15,10,12,8,13,9"
14414,commdev-image-keyboard-response,348,1168066,learnblock1,830.3999996185303,img/planet7_left.png,7,Community 1,NA,TRUE,f,f,NA,NA,NA,1,6,"11,7,3,6,2,5,4,1,14,15,10,12,8,13,9"
14414,commdev-image-keyboard-response,349,1169329,learnblock1,862.2000007629395,img/planet6_right.png,6,Community 1,NA,TRUE,j,j,NA,NA,NA,1,6,"11,7,3,6,2,5,4,1,14,15,10,12,8,13,9"
14414,commdev-image-keyboard-response,350,1170589,learnblock1,860.5999984741211,img/planet7_right.png,7,Community 1,NA,TRUE,j,j,NA,NA,NA,1,6,"11,7,3,6,2,5,4,1,14,15,10,12,8,13,9"
14414,commdev-image-keyboard-response,351,1171846,learnblock1,1154.6000003814697,img/planet2_right.png,2,Community 1,NA,TRUE,j,j,NA,NA,NA,1,6,"11,7,3,6,2,5,4,1,14,15,10,12,8,13,9"
14414,commdev-image-keyboard-response,352,1173103,learnblock1,892.7999992370605,img/planet3_left.png,3,Community 1,NA,FALSE,j,f,NA,NA,NA,1,6,"11,7,3,6,2,5,4,1,14,15,10,12,8,13,9"
14414,commdev-image-keyboard-response,353,1174362,learnblock1,null,img/planet6_left.png,6,Community 1,NA,FALSE,null,f,NA,NA,NA,1,6,"11,7,3,6,2,5,4,1,14,15,10,12,8,13,9"
14414,commdev-image-keyboard-response,354,1175615,learnblock1,62.79999923706055,img/planet3_left.png,3,Community 1,NA,FALSE,j,f,NA,NA,NA,1,6,"11,7,3,6,2,5,4,1,14,15,10,12,8,13,9"
14414,commdev-image-keyboard-response,355,1176885,learnblock1,672.6000003814697,img/planet11_right.png,11,Community 1,NA,TRUE,j,j,NA,NA,NA,1,6,"11,7,3,6,2,5,4,1,14,15,10,12,8,13,9"
14414,commdev-image-keyboard-response,356,1178153,learnblock1,660.3000011444092,img/planet6_right.png,6,Community 1,NA,FALSE,f,j,NA,NA,NA,1,6,"11,7,3,6,2,5,4,1,14,15,10,12,8,13,9"
14414,commdev-image-keyboard-response,357,1179409,learnblock1,1053.099998474121,img/planet3_right.png,3,Community 1,NA,TRUE,j,j,NA,NA,NA,1,6,"11,7,3,6,2,5,4,1,14,15,10,12,8,13,9"
14414,commdev-image-keyboard-response,358,1180666,learnblock1,774.6000003814697,img/planet6_right.png,6,Community 1,NA,TRUE,j,j,NA,NA,NA,1,6,"11,7,3,6,2,5,4,1,14,15,10,12,8,13,9"
14414,commdev-image-keyboard-response,359,1181923,learnblock1,644.8000011444092,img/planet5_right.png,5,Community 2,NA,TRUE,j,j,NA,NA,NA,1,6,"11,7,3,6,2,5,4,1,14,15,10,12,8,13,9"
14414,commdev-image-keyboard-response,360,1183185,learnblock1,706.2000007629395,img/planet14_right.png,14,Community 2,NA,TRUE,j,j,NA,NA,NA,1,6,"11,7,3,6,2,5,4,1,14,15,10,12,8,13,9"
14414,commdev-image-keyboard-response,361,1184441,learnblock1,645.8999996185303,img/planet5_left.png,5,Community 2,NA,TRUE,f,f,NA,NA,NA,1,6,"11,7,3,6,2,5,4,1,14,15,10,12,8,13,9"
14414,commdev-image-keyboard-response,362,1185693,learnblock1,646.7000007629395,img/planet4_right.png,4,Community 2,NA,TRUE,j,j,NA,NA,NA,1,6,"11,7,3,6,2,5,4,1,14,15,10,12,8,13,9"
14414,commdev-image-keyboard-response,363,1186955,learnblock1,642.4000015258789,img/planet5_left.png,5,Community 2,NA,TRUE,f,f,NA,NA,NA,1,6,"11,7,3,6,2,5,4,1,14,15,10,12,8,13,9"
14414,commdev-image-keyboard-response,364,1188221,learnblock1,888.8000011444092,img/planet14_right.png,14,Community 2,NA,TRUE,j,j,NA,NA,NA,1,6,"11,7,3,6,2,5,4,1,14,15,10,12,8,13,9"
14414,commdev-image-keyboard-response,365,1189474,learnblock1,985.5,img/planet4_right.png,4,Community 2,NA,TRUE,j,j,NA,NA,NA,1,6,"11,7,3,6,2,5,4,1,14,15,10,12,8,13,9"
14414,commdev-image-keyboard-response,366,1190741,learnblock1,611,img/planet1_left.png,1,Community 2,NA,TRUE,f,f,NA,NA,NA,1,6,"11,7,3,6,2,5,4,1,14,15,10,12,8,13,9"
14414,commdev-image-keyboard-response,367,1192004,learnblock1,592.2000007629395,img/planet15_right.png,15,Community 2,NA,TRUE,j,j,NA,NA,NA,1,6,"11,7,3,6,2,5,4,1,14,15,10,12,8,13,9"
14414,commdev-image-keyboard-response,368,1193264,learnblock1,887,img/planet1_left.png,1,Community 2,NA,TRUE,f,f,NA,NA,NA,1,6,"11,7,3,6,2,5,4,1,14,15,10,12,8,13,9"
14414,commdev-image-keyboard-response,369,1194518,learnblock1,573.5,img/planet15_left.png,15,Community 2,NA,FALSE,j,f,NA,NA,NA,1,6,"11,7,3,6,2,5,4,1,14,15,10,12,8,13,9"
14414,commdev-image-keyboard-response,370,1195783,learnblock1,669.5,img/planet14_right.png,14,Community 2,NA,TRUE,j,j,NA,NA,NA,1,6,"11,7,3,6,2,5,4,1,14,15,10,12,8,13,9"
14414,commdev-image-keyboard-response,371,1197040,learnblock1,691.7999992370605,img/planet1_left.png,1,Community 2,NA,TRUE,f,f,NA,NA,NA,1,6,"11,7,3,6,2,5,4,1,14,15,10,12,8,13,9"
14414,commdev-image-keyboard-response,372,1198306,learnblock1,773.3999996185303,img/planet12_left.png,12,Community 3,NA,TRUE,f,f,NA,NA,NA,1,6,"11,7,3,6,2,5,4,1,14,15,10,12,8,13,9"
14414,commdev-image-keyboard-response,373,1199561,learnblock1,642,img/planet9_right.png,9,Community 3,NA,TRUE,j,j,NA,NA,NA,1,6,"11,7,3,6,2,5,4,1,14,15,10,12,8,13,9"
14414,commdev-image-keyboard-response,374,1200821,learnblock1,861.1000003814697,img/planet8_right.png,8,Community 3,NA,TRUE,j,j,NA,NA,NA,1,6,"11,7,3,6,2,5,4,1,14,15,10,12,8,13,9"
14414,commdev-image-keyboard-response,375,1202081,learnblock1,581.6000003814697,img/planet10_left.png,10,Community 3,NA,TRUE,f,f,NA,NA,NA,1,6,"11,7,3,6,2,5,4,1,14,15,10,12,8,13,9"
14414,commdev-image-keyboard-response,376,1203336,learnblock1,565.7000007629395,img/planet9_right.png,9,Community 3,NA,TRUE,j,j,NA,NA,NA,1,6,"11,7,3,6,2,5,4,1,14,15,10,12,8,13,9"
14414,commdev-image-keyboard-response,377,1204590,learnblock1,550.1000003814697,img/planet10_left.png,10,Community 3,NA,TRUE,f,f,NA,NA,NA,1,6,"11,7,3,6,2,5,4,1,14,15,10,12,8,13,9"
14414,commdev-image-keyboard-response,378,1205845,learnblock1,501.20000076293945,img/planet2_left.png,2,Community 1,NA,FALSE,j,f,NA,NA,NA,1,6,"11,7,3,6,2,5,4,1,14,15,10,12,8,13,9"
14414,commdev-image-keyboard-response,379,1207112,learnblock1,1180.3999996185303,img/planet10_right.png,10,Community 3,NA,FALSE,f,j,NA,NA,NA,1,6,"11,7,3,6,2,5,4,1,14,15,10,12,8,13,9"
14414,commdev-image-keyboard-response,380,1208373,learnblock1,880.6000003814697,img/planet13_left.png,13,Community 3,NA,TRUE,f,f,NA,NA,NA,1,6,"11,7,3,6,2,5,4,1,14,15,10,12,8,13,9"
14414,commdev-image-keyboard-response,381,1209631,learnblock1,710.7999992370605,img/planet12_left.png,12,Community 3,NA,TRUE,f,f,NA,NA,NA,1,6,"11,7,3,6,2,5,4,1,14,15,10,12,8,13,9"
14414,commdev-image-keyboard-response,382,1210896,learnblock1,704.5,img/planet9_right.png,9,Community 3,NA,TRUE,j,j,NA,NA,NA,1,6,"11,7,3,6,2,5,4,1,14,15,10,12,8,13,9"
14414,commdev-image-keyboard-response,383,1212156,learnblock1,753.5,img/planet13_left.png,13,Community 3,NA,TRUE,f,f,NA,NA,NA,1,6,"11,7,3,6,2,5,4,1,14,15,10,12,8,13,9"
14414,commdev-image-keyboard-response,384,1213412,learnblock1,559,img/planet10_left.png,10,Community 3,NA,TRUE,f,f,NA,NA,NA,1,6,"11,7,3,6,2,5,4,1,14,15,10,12,8,13,9"
14414,commdev-image-keyboard-response,385,1214683,learnblock1,631.8999996185303,img/planet8_left.png,8,Community 3,NA,TRUE,f,f,NA,NA,NA,1,6,"11,7,3,6,2,5,4,1,14,15,10,12,8,13,9"
14414,commdev-image-keyboard-response,386,1215942,learnblock1,636.5999984741211,img/planet13_right.png,13,Community 3,NA,TRUE,j,j,NA,NA,NA,1,6,"11,7,3,6,2,5,4,1,14,15,10,12,8,13,9"
14414,commdev-image-keyboard-response,387,1217197,learnblock1,656.5,img/planet12_left.png,12,Community 3,NA,TRUE,f,f,NA,NA,NA,1,6,"11,7,3,6,2,5,4,1,14,15,10,12,8,13,9"
14414,commdev-image-keyboard-response,388,1218454,learnblock1,883.7999992370605,img/planet9_left.png,9,Community 3,NA,TRUE,f,f,NA,NA,NA,1,6,"11,7,3,6,2,5,4,1,14,15,10,12,8,13,9"
14414,commdev-image-keyboard-response,389,1219717,learnblock1,707.7000007629395,img/planet13_right.png,13,Community 3,NA,TRUE,j,j,NA,NA,NA,1,6,"11,7,3,6,2,5,4,1,14,15,10,12,8,13,9"
14414,commdev-image-keyboard-response,390,1220972,learnblock1,762.7000007629395,img/planet8_left.png,8,Community 3,NA,TRUE,f,f,NA,NA,NA,1,6,"11,7,3,6,2,5,4,1,14,15,10,12,8,13,9"
14414,commdev-image-keyboard-response,391,1222236,learnblock1,545.6000003814697,img/planet10_right.png,10,Community 3,NA,TRUE,j,j,NA,NA,NA,1,6,"11,7,3,6,2,5,4,1,14,15,10,12,8,13,9"
14414,commdev-image-keyboard-response,392,1223499,learnblock1,719.3000011444092,img/planet2_right.png,2,Community 1,NA,TRUE,j,j,NA,NA,NA,1,6,"11,7,3,6,2,5,4,1,14,15,10,12,8,13,9"
14414,commdev-image-keyboard-response,393,1224752,learnblock1,794.3000011444092,img/planet11_right.png,11,Community 1,NA,TRUE,j,j,NA,NA,NA,1,6,"11,7,3,6,2,5,4,1,14,15,10,12,8,13,9"
14414,commdev-image-keyboard-response,394,1226009,learnblock1,759.2000007629395,img/planet3_right.png,3,Community 1,NA,TRUE,j,j,NA,NA,NA,1,6,"11,7,3,6,2,5,4,1,14,15,10,12,8,13,9"
14414,commdev-image-keyboard-response,395,1227274,learnblock1,753.1999988555908,img/planet2_left.png,2,Community 1,NA,TRUE,f,f,NA,NA,NA,1,6,"11,7,3,6,2,5,4,1,14,15,10,12,8,13,9"
14414,commdev-image-keyboard-response,396,1228528,learnblock1,674.2999992370605,img/planet10_left.png,10,Community 3,NA,TRUE,f,f,NA,NA,NA,1,6,"11,7,3,6,2,5,4,1,14,15,10,12,8,13,9"
14414,commdev-image-keyboard-response,397,1229786,learnblock1,714.5,img/planet9_right.png,9,Community 3,NA,TRUE,j,j,NA,NA,NA,1,6,"11,7,3,6,2,5,4,1,14,15,10,12,8,13,9"
14414,commdev-image-keyboard-response,398,1231055,learnblock1,669.8999996185303,img/planet12_left.png,12,Community 3,NA,TRUE,f,f,NA,NA,NA,1,6,"11,7,3,6,2,5,4,1,14,15,10,12,8,13,9"
14414,commdev-image-keyboard-response,399,1232309,learnblock1,998.1000003814697,img/planet8_left.png,8,Community 3,NA,TRUE,f,f,NA,NA,NA,1,6,"11,7,3,6,2,5,4,1,14,15,10,12,8,13,9"
14414,commdev-image-keyboard-response,400,1233564,learnblock1,692.2000007629395,img/planet13_left.png,13,Community 3,NA,TRUE,f,f,NA,NA,NA,1,6,"11,7,3,6,2,5,4,1,14,15,10,12,8,13,9"
14414,commdev-image-keyboard-response,401,1234825,learnblock1,689.1000003814697,img/planet9_left.png,9,Community 3,NA,TRUE,f,f,NA,NA,NA,1,6,"11,7,3,6,2,5,4,1,14,15,10,12,8,13,9"
14414,commdev-image-keyboard-response,402,1236086,learnblock1,627.8999996185303,img/planet13_right.png,13,Community 3,NA,FALSE,f,j,NA,NA,NA,1,6,"11,7,3,6,2,5,4,1,14,15,10,12,8,13,9"
14414,commdev-image-keyboard-response,403,1237347,learnblock1,642.8000011444092,img/planet12_right.png,12,Community 3,NA,TRUE,j,j,NA,NA,NA,1,6,"11,7,3,6,2,5,4,1,14,15,10,12,8,13,9"
14414,commdev-image-keyboard-response,404,1238605,learnblock1,819.3999996185303,img/planet1_right.png,1,Community 2,NA,TRUE,j,j,NA,NA,NA,1,6,"11,7,3,6,2,5,4,1,14,15,10,12,8,13,9"
14414,commdev-image-keyboard-response,405,1239862,learnblock1,677.1000003814697,img/planet15_left.png,15,Community 2,NA,TRUE,f,f,NA,NA,NA,1,6,"11,7,3,6,2,5,4,1,14,15,10,12,8,13,9"
14414,commdev-image-keyboard-response,406,1241123,learnblock1,589.7999992370605,img/planet1_left.png,1,Community 2,NA,TRUE,f,f,NA,NA,NA,1,6,"11,7,3,6,2,5,4,1,14,15,10,12,8,13,9"
14414,commdev-image-keyboard-response,407,1242380,learnblock1,818,img/planet12_left.png,12,Community 3,NA,TRUE,f,f,NA,NA,NA,1,6,"11,7,3,6,2,5,4,1,14,15,10,12,8,13,9"
14414,commdev-image-keyboard-response,408,1243638,learnblock1,802.7999992370605,img/planet13_left.png,13,Community 3,NA,TRUE,f,f,NA,NA,NA,1,6,"11,7,3,6,2,5,4,1,14,15,10,12,8,13,9"
14414,commdev-image-keyboard-response,409,1244896,learnblock1,770.8000011444092,img/planet12_left.png,12,Community 3,NA,TRUE,f,f,NA,NA,NA,1,6,"11,7,3,6,2,5,4,1,14,15,10,12,8,13,9"
14414,commdev-image-keyboard-response,410,1246149,learnblock1,593,img/planet13_right.png,13,Community 3,NA,TRUE,j,j,NA,NA,NA,1,6,"11,7,3,6,2,5,4,1,14,15,10,12,8,13,9"
14414,commdev-image-keyboard-response,411,1247409,learnblock1,512.1000003814697,img/planet10_right.png,10,Community 3,NA,TRUE,j,j,NA,NA,NA,1,6,"11,7,3,6,2,5,4,1,14,15,10,12,8,13,9"
14414,commdev-image-keyboard-response,412,1248669,learnblock1,459.9000015258789,img/planet13_left.png,13,Community 3,NA,TRUE,f,f,NA,NA,NA,1,6,"11,7,3,6,2,5,4,1,14,15,10,12,8,13,9"
14414,commdev-image-keyboard-response,413,1249927,learnblock1,510,img/planet10_right.png,10,Community 3,NA,TRUE,j,j,NA,NA,NA,1,6,"11,7,3,6,2,5,4,1,14,15,10,12,8,13,9"
14414,commdev-image-keyboard-response,414,1251180,learnblock1,664.9000015258789,img/planet13_right.png,13,Community 3,NA,TRUE,j,j,NA,NA,NA,1,6,"11,7,3,6,2,5,4,1,14,15,10,12,8,13,9"
14414,commdev-image-keyboard-response,415,1252437,learnblock1,531.5,img/planet8_left.png,8,Community 3,NA,TRUE,f,f,NA,NA,NA,1,6,"11,7,3,6,2,5,4,1,14,15,10,12,8,13,9"
14414,commdev-image-keyboard-response,416,1253692,learnblock1,689.5999984741211,img/planet12_right.png,12,Community 3,NA,FALSE,f,j,NA,NA,NA,1,6,"11,7,3,6,2,5,4,1,14,15,10,12,8,13,9"
14414,commdev-image-keyboard-response,417,1254949,learnblock1,1120.7999992370605,img/planet1_right.png,1,Community 2,NA,TRUE,j,j,NA,NA,NA,1,6,"11,7,3,6,2,5,4,1,14,15,10,12,8,13,9"
14414,commdev-image-keyboard-response,418,1256210,learnblock1,813.7000007629395,img/planet14_right.png,14,Community 2,NA,TRUE,j,j,NA,NA,NA,1,6,"11,7,3,6,2,5,4,1,14,15,10,12,8,13,9"
14414,commdev-image-keyboard-response,419,1257467,learnblock1,677.6000003814697,img/planet4_left.png,4,Community 2,NA,TRUE,f,f,NA,NA,NA,1,6,"11,7,3,6,2,5,4,1,14,15,10,12,8,13,9"
14414,commdev-image-keyboard-response,420,1258734,learnblock1,null,img/planet5_left.png,5,Community 2,NA,FALSE,null,f,NA,NA,NA,1,6,"11,7,3,6,2,5,4,1,14,15,10,12,8,13,9"
14414,commdev-image-keyboard-response,421,1260002,learnblock1,891.8999996185303,img/planet4_left.png,4,Community 2,NA,TRUE,f,f,NA,NA,NA,1,6,"11,7,3,6,2,5,4,1,14,15,10,12,8,13,9"
14414,commdev-image-keyboard-response,422,1261259,learnblock1,590.3999996185303,img/planet5_right.png,5,Community 2,NA,TRUE,j,j,NA,NA,NA,1,6,"11,7,3,6,2,5,4,1,14,15,10,12,8,13,9"
14414,commdev-image-keyboard-response,423,1262513,learnblock1,null,img/planet15_right.png,15,Community 2,NA,FALSE,null,j,NA,NA,NA,1,6,"11,7,3,6,2,5,4,1,14,15,10,12,8,13,9"
14414,commdev-image-keyboard-response,424,1263766,learnblock1,867.8999996185303,img/planet1_left.png,1,Community 2,NA,TRUE,f,f,NA,NA,NA,1,6,"11,7,3,6,2,5,4,1,14,15,10,12,8,13,9"
14414,commdev-image-keyboard-response,425,1265029,learnblock1,615.1000003814697,img/planet12_left.png,12,Community 3,NA,TRUE,f,f,NA,NA,NA,1,6,"11,7,3,6,2,5,4,1,14,15,10,12,8,13,9"
14414,commdev-image-keyboard-response,426,1266288,learnblock1,634.3000011444092,img/planet9_right.png,9,Community 3,NA,TRUE,j,j,NA,NA,NA,1,6,"11,7,3,6,2,5,4,1,14,15,10,12,8,13,9"
14414,commdev-image-keyboard-response,427,1267550,learnblock1,794.1000003814697,img/planet8_left.png,8,Community 3,NA,TRUE,f,f,NA,NA,NA,1,6,"11,7,3,6,2,5,4,1,14,15,10,12,8,13,9"
14414,commdev-image-keyboard-response,431,1286933,learnblock2,871.3999996185303,img/planet8_left.png,8,Community 3,NA,TRUE,f,f,NA,NA,NA,1,6,"11,7,3,6,2,5,4,1,14,15,10,12,8,13,9"
14414,commdev-image-keyboard-response,432,1288194,learnblock2,618.5,img/planet13_left.png,13,Community 3,NA,TRUE,f,f,NA,NA,NA,1,6,"11,7,3,6,2,5,4,1,14,15,10,12,8,13,9"
14414,commdev-image-keyboard-response,433,1289450,learnblock2,559.5,img/planet9_left.png,9,Community 3,NA,TRUE,f,f,NA,NA,NA,1,6,"11,7,3,6,2,5,4,1,14,15,10,12,8,13,9"
14414,commdev-image-keyboard-response,434,1290706,learnblock2,652,img/planet10_right.png,10,Community 3,NA,TRUE,j,j,NA,NA,NA,1,6,"11,7,3,6,2,5,4,1,14,15,10,12,8,13,9"
14414,commdev-image-keyboard-response,435,1291961,learnblock2,638.7000007629395,img/planet8_right.png,8,Community 3,NA,TRUE,j,j,NA,NA,NA,1,6,"11,7,3,6,2,5,4,1,14,15,10,12,8,13,9"
14414,commdev-image-keyboard-response,436,1293220,learnblock2,774.2999992370605,img/planet9_right.png,9,Community 3,NA,TRUE,j,j,NA,NA,NA,1,6,"11,7,3,6,2,5,4,1,14,15,10,12,8,13,9"
14414,commdev-image-keyboard-response,437,1294474,learnblock2,763.6999988555908,img/planet13_right.png,13,Community 3,NA,TRUE,j,j,NA,NA,NA,1,6,"11,7,3,6,2,5,4,1,14,15,10,12,8,13,9"
14414,commdev-image-keyboard-response,438,1295726,learnblock2,685.6000003814697,img/planet9_left.png,9,Community 3,NA,TRUE,f,f,NA,NA,NA,1,6,"11,7,3,6,2,5,4,1,14,15,10,12,8,13,9"
14414,commdev-image-keyboard-response,439,1296980,learnblock2,678.5999984741211,img/planet10_right.png,10,Community 3,NA,TRUE,j,j,NA,NA,NA,1,6,"11,7,3,6,2,5,4,1,14,15,10,12,8,13,9"
14414,commdev-image-keyboard-response,440,1298240,learnblock2,742.8000011444092,img/planet13_right.png,13,Community 3,NA,TRUE,j,j,NA,NA,NA,1,6,"11,7,3,6,2,5,4,1,14,15,10,12,8,13,9"
14414,commdev-image-keyboard-response,441,1299493,learnblock2,685.8000011444092,img/planet9_right.png,9,Community 3,NA,TRUE,j,j,NA,NA,NA,1,6,"11,7,3,6,2,5,4,1,14,15,10,12,8,13,9"
14414,commdev-image-keyboard-response,442,1300752,learnblock2,592.1000003814697,img/planet12_left.png,12,Community 3,NA,TRUE,f,f,NA,NA,NA,1,6,"11,7,3,6,2,5,4,1,14,15,10,12,8,13,9"
14414,commdev-image-keyboard-response,443,1302009,learnblock2,562.1000003814697,img/planet8_left.png,8,Community 3,NA,FALSE,j,f,NA,NA,NA,1,6,"11,7,3,6,2,5,4,1,14,15,10,12,8,13,9"
14414,commdev-image-keyboard-response,444,1303261,learnblock2,1029.8999996185303,img/planet12_right.png,12,Community 3,NA,TRUE,j,j,NA,NA,NA,1,6,"11,7,3,6,2,5,4,1,14,15,10,12,8,13,9"
14414,commdev-image-keyboard-response,445,1304518,learnblock2,803.1000003814697,img/planet1_left.png,1,Community 2,NA,TRUE,f,f,NA,NA,NA,1,6,"11,7,3,6,2,5,4,1,14,15,10,12,8,13,9"
14414,commdev-image-keyboard-response,446,1305771,learnblock2,559.6000003814697,img/planet12_right.png,12,Community 3,NA,TRUE,j,j,NA,NA,NA,1,6,"11,7,3,6,2,5,4,1,14,15,10,12,8,13,9"
14414,commdev-image-keyboard-response,447,1307029,learnblock2,730.3000011444092,img/planet8_left.png,8,Community 3,NA,TRUE,f,f,NA,NA,NA,1,6,"11,7,3,6,2,5,4,1,14,15,10,12,8,13,9"
14414,commdev-image-keyboard-response,448,1308294,learnblock2,1211,img/planet12_left.png,12,Community 3,NA,FALSE,j,f,NA,NA,NA,1,6,"11,7,3,6,2,5,4,1,14,15,10,12,8,13,9"
14414,commdev-image-keyboard-response,449,1309561,learnblock2,1085,img/planet9_left.png,9,Community 3,NA,TRUE,f,f,NA,NA,NA,1,6,"11,7,3,6,2,5,4,1,14,15,10,12,8,13,9"
14414,commdev-image-keyboard-response,450,1310822,learnblock2,1208.2000007629395,img/planet13_left.png,13,Community 3,NA,TRUE,f,f,NA,NA,NA,1,6,"11,7,3,6,2,5,4,1,14,15,10,12,8,13,9"
14414,commdev-image-keyboard-response,451,1312089,learnblock2,463.8999996185303,img/planet10_right.png,10,Community 3,NA,FALSE,f,j,NA,NA,NA,1,6,"11,7,3,6,2,5,4,1,14,15,10,12,8,13,9"
14414,commdev-image-keyboard-response,452,1313350,learnblock2,570.1000003814697,img/planet9_left.png,9,Community 3,NA,TRUE,f,f,NA,NA,NA,1,6,"11,7,3,6,2,5,4,1,14,15,10,12,8,13,9"
14414,commdev-image-keyboard-response,453,1314609,learnblock2,881.1999988555908,img/planet8_left.png,8,Community 3,NA,TRUE,f,f,NA,NA,NA,1,6,"11,7,3,6,2,5,4,1,14,15,10,12,8,13,9"
14414,commdev-image-keyboard-response,454,1315869,learnblock2,492.1999988555908,img/planet13_right.png,13,Community 3,NA,TRUE,j,j,NA,NA,NA,1,6,"11,7,3,6,2,5,4,1,14,15,10,12,8,13,9"
14414,commdev-image-keyboard-response,455,1317123,learnblock2,686.2999992370605,img/planet8_right.png,8,Community 3,NA,FALSE,f,j,NA,NA,NA,1,6,"11,7,3,6,2,5,4,1,14,15,10,12,8,13,9"
14414,commdev-image-keyboard-response,456,1318376,learnblock2,1032.3999996185303,img/planet12_right.png,12,Community 3,NA,TRUE,j,j,NA,NA,NA,1,6,"11,7,3,6,2,5,4,1,14,15,10,12,8,13,9"
14414,commdev-image-keyboard-response,457,1319642,learnblock2,843.2000007629395,img/planet1_right.png,1,Community 2,NA,TRUE,j,j,NA,NA,NA,1,6,"11,7,3,6,2,5,4,1,14,15,10,12,8,13,9"
14414,commdev-image-keyboard-response,458,1320895,learnblock2,609,img/planet12_left.png,12,Community 3,NA,TRUE,f,f,NA,NA,NA,1,6,"11,7,3,6,2,5,4,1,14,15,10,12,8,13,9"
14414,commdev-image-keyboard-response,459,1322154,learnblock2,758.1999988555908,img/planet1_left.png,1,Community 2,NA,TRUE,f,f,NA,NA,NA,1,6,"11,7,3,6,2,5,4,1,14,15,10,12,8,13,9"
14414,commdev-image-keyboard-response,460,1323407,learnblock2,653.5999984741211,img/planet14_right.png,14,Community 2,NA,TRUE,j,j,NA,NA,NA,1,6,"11,7,3,6,2,5,4,1,14,15,10,12,8,13,9"
14414,commdev-image-keyboard-response,461,1324667,learnblock2,536.8999996185303,img/planet1_left.png,1,Community 2,NA,TRUE,f,f,NA,NA,NA,1,6,"11,7,3,6,2,5,4,1,14,15,10,12,8,13,9"
14414,commdev-image-keyboard-response,462,1325926,learnblock2,435,img/planet4_right.png,4,Community 2,NA,TRUE,j,j,NA,NA,NA,1,6,"11,7,3,6,2,5,4,1,14,15,10,12,8,13,9"
14414,commdev-image-keyboard-response,463,1327180,learnblock2,587.3999996185303,img/planet14_left.png,14,Community 2,NA,TRUE,f,f,NA,NA,NA,1,6,"11,7,3,6,2,5,4,1,14,15,10,12,8,13,9"
14414,commdev-image-keyboard-response,464,1328439,learnblock2,542,img/planet4_right.png,4,Community 2,NA,TRUE,j,j,NA,NA,NA,1,6,"11,7,3,6,2,5,4,1,14,15,10,12,8,13,9"
14414,commdev-image-keyboard-response,465,1329695,learnblock2,709.8000011444092,img/planet5_left.png,5,Community 2,NA,TRUE,f,f,NA,NA,NA,1,6,"11,7,3,6,2,5,4,1,14,15,10,12,8,13,9"
14414,commdev-image-keyboard-response,466,1330961,learnblock2,494.29999923706055,img/planet14_right.png,14,Community 2,NA,TRUE,j,j,NA,NA,NA,1,6,"11,7,3,6,2,5,4,1,14,15,10,12,8,13,9"
14414,commdev-image-keyboard-response,467,1332221,learnblock2,637.8999996185303,img/planet4_left.png,4,Community 2,NA,TRUE,f,f,NA,NA,NA,1,6,"11,7,3,6,2,5,4,1,14,15,10,12,8,13,9"
14414,commdev-image-keyboard-response,468,1333488,learnblock2,632.2999992370605,img/planet15_left.png,15,Community 2,NA,TRUE,f,f,NA,NA,NA,1,6,"11,7,3,6,2,5,4,1,14,15,10,12,8,13,9"
14414,commdev-image-keyboard-response,469,1334745,learnblock2,705.2000007629395,img/planet4_left.png,4,Community 2,NA,TRUE,f,f,NA,NA,NA,1,6,"11,7,3,6,2,5,4,1,14,15,10,12,8,13,9"
14414,commdev-image-keyboard-response,470,1336006,learnblock2,579.5,img/planet5_right.png,5,Community 2,NA,TRUE,j,j,NA,NA,NA,1,6,"11,7,3,6,2,5,4,1,14,15,10,12,8,13,9"
14414,commdev-image-keyboard-response,471,1337274,learnblock2,946.2000007629395,img/planet14_right.png,14,Community 2,NA,TRUE,j,j,NA,NA,NA,1,6,"11,7,3,6,2,5,4,1,14,15,10,12,8,13,9"
14414,commdev-image-keyboard-response,472,1338530,learnblock2,658.5999984741211,img/planet1_left.png,1,Community 2,NA,TRUE,f,f,NA,NA,NA,1,6,"11,7,3,6,2,5,4,1,14,15,10,12,8,13,9"
14414,commdev-image-keyboard-response,473,1339797,learnblock2,805.6000003814697,img/planet12_right.png,12,Community 3,NA,TRUE,j,j,NA,NA,NA,1,6,"11,7,3,6,2,5,4,1,14,15,10,12,8,13,9"
14414,commdev-image-keyboard-response,474,1341052,learnblock2,599.1999988555908,img/planet13_left.png,13,Community 3,NA,TRUE,f,f,NA,NA,NA,1,6,"11,7,3,6,2,5,4,1,14,15,10,12,8,13,9"
14414,commdev-image-keyboard-response,475,1342307,learnblock2,610.3000011444092,img/planet12_right.png,12,Community 3,NA,TRUE,j,j,NA,NA,NA,1,6,"11,7,3,6,2,5,4,1,14,15,10,12,8,13,9"
14414,commdev-image-keyboard-response,476,1343562,learnblock2,618.2999992370605,img/planet8_left.png,8,Community 3,NA,TRUE,f,f,NA,NA,NA,1,6,"11,7,3,6,2,5,4,1,14,15,10,12,8,13,9"
14414,commdev-image-keyboard-response,477,1344817,learnblock2,667.1999988555908,img/planet12_right.png,12,Community 3,NA,TRUE,j,j,NA,NA,NA,1,6,"11,7,3,6,2,5,4,1,14,15,10,12,8,13,9"
14414,commdev-image-keyboard-response,478,1346077,learnblock2,754.7000007629395,img/planet8_left.png,8,Community 3,NA,TRUE,f,f,NA,NA,NA,1,6,"11,7,3,6,2,5,4,1,14,15,10,12,8,13,9"
14414,commdev-image-keyboard-response,479,1347333,learnblock2,645,img/planet12_left.png,12,Community 3,NA,FALSE,j,f,NA,NA,NA,1,6,"11,7,3,6,2,5,4,1,14,15,10,12,8,13,9"
14414,commdev-image-keyboard-response,480,1348602,learnblock2,null,img/planet9_left.png,9,Community 3,NA,FALSE,null,f,NA,NA,NA,1,6,"11,7,3,6,2,5,4,1,14,15,10,12,8,13,9"
14414,commdev-image-keyboard-response,481,1349858,learnblock2,68.70000076293945,img/planet8_left.png,8,Community 3,NA,TRUE,f,f,NA,NA,NA,1,6,"11,7,3,6,2,5,4,1,14,15,10,12,8,13,9"
14414,commdev-image-keyboard-response,482,1351117,learnblock2,605.3999996185303,img/planet13_left.png,13,Community 3,NA,TRUE,f,f,NA,NA,NA,1,6,"11,7,3,6,2,5,4,1,14,15,10,12,8,13,9"
14414,commdev-image-keyboard-response,483,1352371,learnblock2,688.2000007629395,img/planet12_right.png,12,Community 3,NA,TRUE,j,j,NA,NA,NA,1,6,"11,7,3,6,2,5,4,1,14,15,10,12,8,13,9"
14414,commdev-image-keyboard-response,484,1353627,learnblock2,897.6000003814697,img/planet8_right.png,8,Community 3,NA,TRUE,j,j,NA,NA,NA,1,6,"11,7,3,6,2,5,4,1,14,15,10,12,8,13,9"
14414,commdev-image-keyboard-response,485,1354885,learnblock2,928.8999996185303,img/planet9_right.png,9,Community 3,NA,TRUE,j,j,NA,NA,NA,1,6,"11,7,3,6,2,5,4,1,14,15,10,12,8,13,9"
14414,commdev-image-keyboard-response,486,1356141,learnblock2,685.1999988555908,img/planet10_right.png,10,Community 3,NA,TRUE,j,j,NA,NA,NA,1,6,"11,7,3,6,2,5,4,1,14,15,10,12,8,13,9"
14414,commdev-image-keyboard-response,487,1357400,learnblock2,705.3999996185303,img/planet13_left.png,13,Community 3,NA,TRUE,f,f,NA,NA,NA,1,6,"11,7,3,6,2,5,4,1,14,15,10,12,8,13,9"
14414,commdev-image-keyboard-response,488,1358659,learnblock2,766.8000011444092,img/planet10_left.png,10,Community 3,NA,TRUE,f,f,NA,NA,NA,1,6,"11,7,3,6,2,5,4,1,14,15,10,12,8,13,9"
14414,commdev-image-keyboard-response,489,1359915,learnblock2,638.2999992370605,img/planet9_left.png,9,Community 3,NA,TRUE,f,f,NA,NA,NA,1,6,"11,7,3,6,2,5,4,1,14,15,10,12,8,13,9"
14414,commdev-image-keyboard-response,490,1361170,learnblock2,594.8999996185303,img/planet10_left.png,10,Community 3,NA,TRUE,f,f,NA,NA,NA,1,6,"11,7,3,6,2,5,4,1,14,15,10,12,8,13,9"
14414,commdev-image-keyboard-response,491,1362440,learnblock2,810,img/planet9_left.png,9,Community 3,NA,TRUE,f,f,NA,NA,NA,1,6,"11,7,3,6,2,5,4,1,14,15,10,12,8,13,9"
14414,commdev-image-keyboard-response,492,1363693,learnblock2,678.1000003814697,img/planet10_right.png,10,Community 3,NA,TRUE,j,j,NA,NA,NA,1,6,"11,7,3,6,2,5,4,1,14,15,10,12,8,13,9"
14414,commdev-image-keyboard-response,493,1364954,learnblock2,554.7000007629395,img/planet13_left.png,13,Community 3,NA,TRUE,f,f,NA,NA,NA,1,6,"11,7,3,6,2,5,4,1,14,15,10,12,8,13,9"
14414,commdev-image-keyboard-response,494,1366209,learnblock2,537.2999992370605,img/planet9_right.png,9,Community 3,NA,TRUE,j,j,NA,NA,NA,1,6,"11,7,3,6,2,5,4,1,14,15,10,12,8,13,9"
14414,commdev-image-keyboard-response,495,1367467,learnblock2,521.7999992370605,img/planet10_left.png,10,Community 3,NA,TRUE,f,f,NA,NA,NA,1,6,"11,7,3,6,2,5,4,1,14,15,10,12,8,13,9"
14414,commdev-image-keyboard-response,496,1368727,learnblock2,561.3999996185303,img/planet8_right.png,8,Community 3,NA,TRUE,j,j,NA,NA,NA,1,6,"11,7,3,6,2,5,4,1,14,15,10,12,8,13,9"
14414,commdev-image-keyboard-response,497,1369985,learnblock2,747.6000003814697,img/planet13_right.png,13,Community 3,NA,TRUE,j,j,NA,NA,NA,1,6,"11,7,3,6,2,5,4,1,14,15,10,12,8,13,9"
14414,commdev-image-keyboard-response,498,1371241,learnblock2,655.7000007629395,img/planet12_left.png,12,Community 3,NA,TRUE,f,f,NA,NA,NA,1,6,"11,7,3,6,2,5,4,1,14,15,10,12,8,13,9"
14414,commdev-image-keyboard-response,499,1372495,learnblock2,557.8999996185303,img/planet13_right.png,13,Community 3,NA,TRUE,j,j,NA,NA,NA,1,6,"11,7,3,6,2,5,4,1,14,15,10,12,8,13,9"
14414,commdev-image-keyboard-response,500,1373763,learnblock2,728,img/planet10_left.png,10,Community 3,NA,TRUE,f,f,NA,NA,NA,1,6,"11,7,3,6,2,5,4,1,14,15,10,12,8,13,9"
14414,commdev-image-keyboard-response,501,1375017,learnblock2,819.2999992370605,img/planet8_left.png,8,Community 3,NA,FALSE,j,f,NA,NA,NA,1,6,"11,7,3,6,2,5,4,1,14,15,10,12,8,13,9"
14414,commdev-image-keyboard-response,502,1376272,learnblock2,816.2999992370605,img/planet12_right.png,12,Community 3,NA,TRUE,j,j,NA,NA,NA,1,6,"11,7,3,6,2,5,4,1,14,15,10,12,8,13,9"
14414,commdev-image-keyboard-response,503,1377526,learnblock2,766.5,img/planet1_right.png,1,Community 2,NA,TRUE,j,j,NA,NA,NA,1,6,"11,7,3,6,2,5,4,1,14,15,10,12,8,13,9"
14414,commdev-image-keyboard-response,504,1378782,learnblock2,794.5,img/planet14_right.png,14,Community 2,NA,TRUE,j,j,NA,NA,NA,1,6,"11,7,3,6,2,5,4,1,14,15,10,12,8,13,9"
14414,commdev-image-keyboard-response,505,1380035,learnblock2,642.5,img/planet1_left.png,1,Community 2,NA,TRUE,f,f,NA,NA,NA,1,6,"11,7,3,6,2,5,4,1,14,15,10,12,8,13,9"
14414,commdev-image-keyboard-response,506,1381290,learnblock2,1111.1000003814697,img/planet14_left.png,14,Community 2,NA,TRUE,f,f,NA,NA,NA,1,6,"11,7,3,6,2,5,4,1,14,15,10,12,8,13,9"
14414,commdev-image-keyboard-response,507,1382549,learnblock2,595.2999992370605,img/planet1_left.png,1,Community 2,NA,TRUE,f,f,NA,NA,NA,1,6,"11,7,3,6,2,5,4,1,14,15,10,12,8,13,9"
14414,commdev-image-keyboard-response,508,1383808,learnblock2,723.7000007629395,img/planet14_right.png,14,Community 2,NA,TRUE,j,j,NA,NA,NA,1,6,"11,7,3,6,2,5,4,1,14,15,10,12,8,13,9"
14414,commdev-image-keyboard-response,509,1385061,learnblock2,751.3000011444092,img/planet5_left.png,5,Community 2,NA,TRUE,f,f,NA,NA,NA,1,6,"11,7,3,6,2,5,4,1,14,15,10,12,8,13,9"
14414,commdev-image-keyboard-response,510,1386326,learnblock2,682.6000003814697,img/planet14_left.png,14,Community 2,NA,TRUE,f,f,NA,NA,NA,1,6,"11,7,3,6,2,5,4,1,14,15,10,12,8,13,9"
14414,commdev-image-keyboard-response,511,1387581,learnblock2,590.4000015258789,img/planet1_right.png,1,Community 2,NA,TRUE,j,j,NA,NA,NA,1,6,"11,7,3,6,2,5,4,1,14,15,10,12,8,13,9"
14414,commdev-image-keyboard-response,512,1388845,learnblock2,1005.2999992370605,img/planet14_right.png,14,Community 2,NA,TRUE,j,j,NA,NA,NA,1,6,"11,7,3,6,2,5,4,1,14,15,10,12,8,13,9"
14414,commdev-image-keyboard-response,513,1390099,learnblock2,747.2999992370605,img/planet5_right.png,5,Community 2,NA,TRUE,j,j,NA,NA,NA,1,6,"11,7,3,6,2,5,4,1,14,15,10,12,8,13,9"
14414,commdev-image-keyboard-response,514,1391355,learnblock2,845.5,img/planet15_right.png,15,Community 2,NA,TRUE,j,j,NA,NA,NA,1,6,"11,7,3,6,2,5,4,1,14,15,10,12,8,13,9"
14414,commdev-image-keyboard-response,515,1392610,learnblock2,662.6999988555908,img/planet1_left.png,1,Community 2,NA,TRUE,f,f,NA,NA,NA,1,6,"11,7,3,6,2,5,4,1,14,15,10,12,8,13,9"
14414,commdev-image-keyboard-response,516,1393867,learnblock2,758.5,img/planet15_left.png,15,Community 2,NA,TRUE,f,f,NA,NA,NA,1,6,"11,7,3,6,2,5,4,1,14,15,10,12,8,13,9"
14414,commdev-image-keyboard-response,517,1395128,learnblock2,778.7000007629395,img/planet14_left.png,14,Community 2,NA,TRUE,f,f,NA,NA,NA,1,6,"11,7,3,6,2,5,4,1,14,15,10,12,8,13,9"
14414,commdev-image-keyboard-response,518,1396388,learnblock2,811.1000003814697,img/planet15_left.png,15,Community 2,NA,TRUE,f,f,NA,NA,NA,1,6,"11,7,3,6,2,5,4,1,14,15,10,12,8,13,9"
14414,commdev-image-keyboard-response,519,1397654,learnblock2,635.8999996185303,img/planet4_right.png,4,Community 2,NA,TRUE,j,j,NA,NA,NA,1,6,"11,7,3,6,2,5,4,1,14,15,10,12,8,13,9"
14414,commdev-image-keyboard-response,520,1398913,learnblock2,764.2999992370605,img/planet14_left.png,14,Community 2,NA,TRUE,f,f,NA,NA,NA,1,6,"11,7,3,6,2,5,4,1,14,15,10,12,8,13,9"
14414,commdev-image-keyboard-response,521,1400171,learnblock2,665.3999996185303,img/planet5_right.png,5,Community 2,NA,TRUE,j,j,NA,NA,NA,1,6,"11,7,3,6,2,5,4,1,14,15,10,12,8,13,9"
14414,commdev-image-keyboard-response,522,1401432,learnblock2,null,img/planet6_right.png,6,Community 1,NA,FALSE,null,j,NA,NA,NA,1,6,"11,7,3,6,2,5,4,1,14,15,10,12,8,13,9"
14414,commdev-image-keyboard-response,523,1402690,learnblock2,112,img/planet5_right.png,5,Community 2,NA,TRUE,j,j,NA,NA,NA,1,6,"11,7,3,6,2,5,4,1,14,15,10,12,8,13,9"
14414,commdev-image-keyboard-response,524,1403957,learnblock2,746.1000003814697,img/planet14_right.png,14,Community 2,NA,TRUE,j,j,NA,NA,NA,1,6,"11,7,3,6,2,5,4,1,14,15,10,12,8,13,9"
14414,commdev-image-keyboard-response,525,1405212,learnblock2,762.6000003814697,img/planet15_right.png,15,Community 2,NA,TRUE,j,j,NA,NA,NA,1,6,"11,7,3,6,2,5,4,1,14,15,10,12,8,13,9"
14414,commdev-image-keyboard-response,526,1406465,learnblock2,720.2000007629395,img/planet5_right.png,5,Community 2,NA,TRUE,j,j,NA,NA,NA,1,6,"11,7,3,6,2,5,4,1,14,15,10,12,8,13,9"
14414,commdev-image-keyboard-response,527,1407720,learnblock2,912.5,img/planet6_left.png,6,Community 1,NA,TRUE,f,f,NA,NA,NA,1,6,"11,7,3,6,2,5,4,1,14,15,10,12,8,13,9"
14414,commdev-image-keyboard-response,528,1408980,learnblock2,599.6000003814697,img/planet11_right.png,11,Community 1,NA,TRUE,j,j,NA,NA,NA,1,6,"11,7,3,6,2,5,4,1,14,15,10,12,8,13,9"
14414,commdev-image-keyboard-response,529,1410246,learnblock2,1000.6000003814697,img/planet7_left.png,7,Community 1,NA,TRUE,f,f,NA,NA,NA,1,6,"11,7,3,6,2,5,4,1,14,15,10,12,8,13,9"
14414,commdev-image-keyboard-response,530,1411503,learnblock2,995.5999984741211,img/planet2_left.png,2,Community 1,NA,TRUE,f,f,NA,NA,NA,1,6,"11,7,3,6,2,5,4,1,14,15,10,12,8,13,9"
14414,commdev-image-keyboard-response,531,1412760,learnblock2,1014.2999992370605,img/planet7_right.png,7,Community 1,NA,FALSE,f,j,NA,NA,NA,1,6,"11,7,3,6,2,5,4,1,14,15,10,12,8,13,9"
14414,commdev-image-keyboard-response,532,1414014,learnblock2,null,img/planet6_right.png,6,Community 1,NA,FALSE,null,j,NA,NA,NA,1,6,"11,7,3,6,2,5,4,1,14,15,10,12,8,13,9"
14414,commdev-image-keyboard-response,533,1415273,learnblock2,85.29999923706055,img/planet5_left.png,5,Community 2,NA,FALSE,j,f,NA,NA,NA,1,6,"11,7,3,6,2,5,4,1,14,15,10,12,8,13,9"
14414,commdev-image-keyboard-response,534,1416536,learnblock2,825.9000015258789,img/planet15_right.png,15,Community 2,NA,TRUE,j,j,NA,NA,NA,1,6,"11,7,3,6,2,5,4,1,14,15,10,12,8,13,9"
14414,commdev-image-keyboard-response,535,1417790,learnblock2,774,img/planet5_left.png,5,Community 2,NA,TRUE,f,f,NA,NA,NA,1,6,"11,7,3,6,2,5,4,1,14,15,10,12,8,13,9"
14414,commdev-image-keyboard-response,536,1419046,learnblock2,654.8999996185303,img/planet6_left.png,6,Community 1,NA,FALSE,j,f,NA,NA,NA,1,6,"11,7,3,6,2,5,4,1,14,15,10,12,8,13,9"
14414,commdev-image-keyboard-response,537,1420302,learnblock2,930.3999996185303,img/planet3_left.png,3,Community 1,NA,TRUE,f,f,NA,NA,NA,1,6,"11,7,3,6,2,5,4,1,14,15,10,12,8,13,9"
14414,commdev-image-keyboard-response,538,1421560,learnblock2,886.2999992370605,img/planet2_left.png,2,Community 1,NA,TRUE,f,f,NA,NA,NA,1,6,"11,7,3,6,2,5,4,1,14,15,10,12,8,13,9"
14414,commdev-image-keyboard-response,539,1422823,learnblock2,723.1000003814697,img/planet11_left.png,11,Community 1,NA,TRUE,f,f,NA,NA,NA,1,6,"11,7,3,6,2,5,4,1,14,15,10,12,8,13,9"
14414,commdev-image-keyboard-response,540,1424076,learnblock2,580,img/planet2_left.png,2,Community 1,NA,TRUE,f,f,NA,NA,NA,1,6,"11,7,3,6,2,5,4,1,14,15,10,12,8,13,9"
14414,commdev-image-keyboard-response,541,1425331,learnblock2,551.2999992370605,img/planet10_left.png,10,Community 3,NA,TRUE,f,f,NA,NA,NA,1,6,"11,7,3,6,2,5,4,1,14,15,10,12,8,13,9"
14414,commdev-image-keyboard-response,542,1426588,learnblock2,453.6000003814697,img/planet13_right.png,13,Community 3,NA,TRUE,j,j,NA,NA,NA,1,6,"11,7,3,6,2,5,4,1,14,15,10,12,8,13,9"
14414,commdev-image-keyboard-response,543,1427856,learnblock2,942.2999992370605,img/planet8_right.png,8,Community 3,NA,TRUE,j,j,NA,NA,NA,1,6,"11,7,3,6,2,5,4,1,14,15,10,12,8,13,9"
14414,commdev-image-keyboard-response,544,1429117,learnblock2,625.7000007629395,img/planet10_right.png,10,Community 3,NA,TRUE,j,j,NA,NA,NA,1,6,"11,7,3,6,2,5,4,1,14,15,10,12,8,13,9"
14414,commdev-image-keyboard-response,545,1430372,learnblock2,798.6999988555908,img/planet8_left.png,8,Community 3,NA,TRUE,f,f,NA,NA,NA,1,6,"11,7,3,6,2,5,4,1,14,15,10,12,8,13,9"
14414,commdev-image-keyboard-response,546,1431633,learnblock2,684,img/planet10_left.png,10,Community 3,NA,TRUE,f,f,NA,NA,NA,1,6,"11,7,3,6,2,5,4,1,14,15,10,12,8,13,9"
14414,commdev-image-keyboard-response,547,1432887,learnblock2,812.9000015258789,img/planet8_right.png,8,Community 3,NA,TRUE,j,j,NA,NA,NA,1,6,"11,7,3,6,2,5,4,1,14,15,10,12,8,13,9"
14414,commdev-image-keyboard-response,548,1434142,learnblock2,678.8999996185303,img/planet10_right.png,10,Community 3,NA,TRUE,j,j,NA,NA,NA,1,6,"11,7,3,6,2,5,4,1,14,15,10,12,8,13,9"
14414,commdev-image-keyboard-response,549,1435401,learnblock2,818.3999996185303,img/planet2_right.png,2,Community 1,NA,TRUE,j,j,NA,NA,NA,1,6,"11,7,3,6,2,5,4,1,14,15,10,12,8,13,9"
14414,commdev-image-keyboard-response,550,1436662,learnblock2,789.2000007629395,img/planet3_left.png,3,Community 1,NA,TRUE,f,f,NA,NA,NA,1,6,"11,7,3,6,2,5,4,1,14,15,10,12,8,13,9"
14414,commdev-image-keyboard-response,551,1437916,learnblock2,786.6000003814697,img/planet11_right.png,11,Community 1,NA,TRUE,j,j,NA,NA,NA,1,6,"11,7,3,6,2,5,4,1,14,15,10,12,8,13,9"
14414,commdev-image-keyboard-response,552,1439168,learnblock2,641.5,img/planet2_left.png,2,Community 1,NA,TRUE,f,f,NA,NA,NA,1,6,"11,7,3,6,2,5,4,1,14,15,10,12,8,13,9"
14414,commdev-image-keyboard-response,553,1440428,learnblock2,499.79999923706055,img/planet10_right.png,10,Community 3,NA,TRUE,j,j,NA,NA,NA,1,6,"11,7,3,6,2,5,4,1,14,15,10,12,8,13,9"
14414,commdev-image-keyboard-response,554,1441683,learnblock2,636.8999996185303,img/planet2_left.png,2,Community 1,NA,TRUE,f,f,NA,NA,NA,1,6,"11,7,3,6,2,5,4,1,14,15,10,12,8,13,9"
14414,commdev-image-keyboard-response,555,1442947,learnblock2,858.2999992370605,img/planet3_left.png,3,Community 1,NA,TRUE,f,f,NA,NA,NA,1,6,"11,7,3,6,2,5,4,1,14,15,10,12,8,13,9"
14414,commdev-image-keyboard-response,556,1444204,learnblock2,676.0999984741211,img/planet11_right.png,11,Community 1,NA,TRUE,j,j,NA,NA,NA,1,6,"11,7,3,6,2,5,4,1,14,15,10,12,8,13,9"
14414,commdev-image-keyboard-response,557,1445467,learnblock2,913.3000011444092,img/planet2_left.png,2,Community 1,NA,TRUE,f,f,NA,NA,NA,1,6,"11,7,3,6,2,5,4,1,14,15,10,12,8,13,9"
14414,commdev-image-keyboard-response,558,1446722,learnblock2,569.1999988555908,img/planet3_right.png,3,Community 1,NA,TRUE,j,j,NA,NA,NA,1,6,"11,7,3,6,2,5,4,1,14,15,10,12,8,13,9"
14414,commdev-image-keyboard-response,559,1447985,learnblock2,996.8999996185303,img/planet6_right.png,6,Community 1,NA,TRUE,j,j,NA,NA,NA,1,6,"11,7,3,6,2,5,4,1,14,15,10,12,8,13,9"
14414,commdev-image-keyboard-response,560,1449242,learnblock2,856,img/planet11_right.png,11,Community 1,NA,TRUE,j,j,NA,NA,NA,1,6,"11,7,3,6,2,5,4,1,14,15,10,12,8,13,9"
14414,commdev-image-keyboard-response,561,1450500,learnblock2,822.5,img/planet6_left.png,6,Community 1,NA,TRUE,f,f,NA,NA,NA,1,6,"11,7,3,6,2,5,4,1,14,15,10,12,8,13,9"
14414,commdev-image-keyboard-response,562,1451760,learnblock2,783.8000011444092,img/planet3_right.png,3,Community 1,NA,TRUE,j,j,NA,NA,NA,1,6,"11,7,3,6,2,5,4,1,14,15,10,12,8,13,9"
14414,commdev-image-keyboard-response,563,1453014,learnblock2,657.8999996185303,img/planet2_right.png,2,Community 1,NA,TRUE,j,j,NA,NA,NA,1,6,"11,7,3,6,2,5,4,1,14,15,10,12,8,13,9"
14414,commdev-image-keyboard-response,564,1454270,learnblock2,615.7000007629395,img/planet10_right.png,10,Community 3,NA,TRUE,j,j,NA,NA,NA,1,6,"11,7,3,6,2,5,4,1,14,15,10,12,8,13,9"
14414,commdev-image-keyboard-response,565,1455524,learnblock2,588.6000003814697,img/planet13_left.png,13,Community 3,NA,TRUE,f,f,NA,NA,NA,1,6,"11,7,3,6,2,5,4,1,14,15,10,12,8,13,9"
14414,commdev-image-keyboard-response,566,1456779,learnblock2,570.8999996185303,img/planet10_left.png,10,Community 3,NA,TRUE,f,f,NA,NA,NA,1,6,"11,7,3,6,2,5,4,1,14,15,10,12,8,13,9"
14414,commdev-image-keyboard-response,567,1458037,learnblock2,728.6000003814697,img/planet13_right.png,13,Community 3,NA,TRUE,j,j,NA,NA,NA,1,6,"11,7,3,6,2,5,4,1,14,15,10,12,8,13,9"
14414,commdev-image-keyboard-response,568,1459295,learnblock2,731.5,img/planet10_left.png,10,Community 3,NA,TRUE,f,f,NA,NA,NA,1,6,"11,7,3,6,2,5,4,1,14,15,10,12,8,13,9"
14414,commdev-image-keyboard-response,569,1460548,learnblock2,695.7000007629395,img/planet9_right.png,9,Community 3,NA,TRUE,j,j,NA,NA,NA,1,6,"11,7,3,6,2,5,4,1,14,15,10,12,8,13,9"
14414,commdev-image-keyboard-response,570,1461808,learnblock2,721.5,img/planet8_left.png,8,Community 3,NA,TRUE,f,f,NA,NA,NA,1,6,"11,7,3,6,2,5,4,1,14,15,10,12,8,13,9"
14414,commdev-image-keyboard-response,571,1463064,learnblock2,533.2999992370605,img/planet10_right.png,10,Community 3,NA,TRUE,j,j,NA,NA,NA,1,6,"11,7,3,6,2,5,4,1,14,15,10,12,8,13,9"
14414,commdev-image-keyboard-response,572,1464318,learnblock2,639.6000003814697,img/planet9_right.png,9,Community 3,NA,TRUE,j,j,NA,NA,NA,1,6,"11,7,3,6,2,5,4,1,14,15,10,12,8,13,9"
14414,commdev-image-keyboard-response,573,1465573,learnblock2,648.8000011444092,img/planet13_right.png,13,Community 3,NA,TRUE,j,j,NA,NA,NA,1,6,"11,7,3,6,2,5,4,1,14,15,10,12,8,13,9"
14414,commdev-image-keyboard-response,574,1466833,learnblock2,653.8000011444092,img/planet12_left.png,12,Community 3,NA,TRUE,f,f,NA,NA,NA,1,6,"11,7,3,6,2,5,4,1,14,15,10,12,8,13,9"
14414,commdev-image-keyboard-response,575,1468088,learnblock2,565.0999984741211,img/planet1_right.png,1,Community 2,NA,TRUE,j,j,NA,NA,NA,1,6,"11,7,3,6,2,5,4,1,14,15,10,12,8,13,9"
14414,commdev-image-keyboard-response,576,1469348,learnblock2,802.9000015258789,img/planet14_right.png,14,Community 2,NA,TRUE,j,j,NA,NA,NA,1,6,"11,7,3,6,2,5,4,1,14,15,10,12,8,13,9"
14414,commdev-image-keyboard-response,577,1470605,learnblock2,743,img/planet15_right.png,15,Community 2,NA,TRUE,j,j,NA,NA,NA,1,6,"11,7,3,6,2,5,4,1,14,15,10,12,8,13,9"
14414,commdev-image-keyboard-response,578,1471868,learnblock2,596.5,img/planet1_left.png,1,Community 2,NA,TRUE,f,f,NA,NA,NA,1,6,"11,7,3,6,2,5,4,1,14,15,10,12,8,13,9"
14414,commdev-image-keyboard-response,579,1473125,learnblock2,721.2999992370605,img/planet15_left.png,15,Community 2,NA,TRUE,f,f,NA,NA,NA,1,6,"11,7,3,6,2,5,4,1,14,15,10,12,8,13,9"
14414,commdev-image-keyboard-response,580,1474385,learnblock2,867.5,img/planet4_left.png,4,Community 2,NA,TRUE,f,f,NA,NA,NA,1,6,"11,7,3,6,2,5,4,1,14,15,10,12,8,13,9"
14414,commdev-image-keyboard-response,581,1475644,learnblock2,803.7000007629395,img/planet15_left.png,15,Community 2,NA,TRUE,f,f,NA,NA,NA,1,6,"11,7,3,6,2,5,4,1,14,15,10,12,8,13,9"
14414,commdev-image-keyboard-response,582,1476899,learnblock2,618.8999996185303,img/planet1_left.png,1,Community 2,NA,TRUE,f,f,NA,NA,NA,1,6,"11,7,3,6,2,5,4,1,14,15,10,12,8,13,9"
14414,commdev-image-keyboard-response,583,1478157,learnblock2,674.8999996185303,img/planet15_left.png,15,Community 2,NA,TRUE,f,f,NA,NA,NA,1,6,"11,7,3,6,2,5,4,1,14,15,10,12,8,13,9"
14414,commdev-image-keyboard-response,584,1479413,learnblock2,682.8000011444092,img/planet4_left.png,4,Community 2,NA,TRUE,f,f,NA,NA,NA,1,6,"11,7,3,6,2,5,4,1,14,15,10,12,8,13,9"
14414,commdev-image-keyboard-response,585,1480671,learnblock2,618.9000015258789,img/planet1_right.png,1,Community 2,NA,FALSE,f,j,NA,NA,NA,1,6,"11,7,3,6,2,5,4,1,14,15,10,12,8,13,9"
14414,commdev-image-keyboard-response,586,1481931,learnblock2,615.8999996185303,img/planet14_right.png,14,Community 2,NA,TRUE,j,j,NA,NA,NA,1,6,"11,7,3,6,2,5,4,1,14,15,10,12,8,13,9"
14414,commdev-image-keyboard-response,587,1483185,learnblock2,597.1000003814697,img/planet15_right.png,15,Community 2,NA,TRUE,j,j,NA,NA,NA,1,6,"11,7,3,6,2,5,4,1,14,15,10,12,8,13,9"
14414,commdev-image-keyboard-response,588,1484438,learnblock2,1070.3999996185303,img/planet5_left.png,5,Community 2,NA,TRUE,f,f,NA,NA,NA,1,6,"11,7,3,6,2,5,4,1,14,15,10,12,8,13,9"
14414,commdev-image-keyboard-response,589,1485703,learnblock2,955.3000011444092,img/planet6_right.png,6,Community 1,NA,TRUE,j,j,NA,NA,NA,1,6,"11,7,3,6,2,5,4,1,14,15,10,12,8,13,9"
14414,commdev-image-keyboard-response,590,1486964,learnblock2,910.3000011444092,img/planet3_right.png,3,Community 1,NA,TRUE,j,j,NA,NA,NA,1,6,"11,7,3,6,2,5,4,1,14,15,10,12,8,13,9"
14414,commdev-image-keyboard-response,591,1488220,learnblock2,882.4000015258789,img/planet2_right.png,2,Community 1,NA,TRUE,j,j,NA,NA,NA,1,6,"11,7,3,6,2,5,4,1,14,15,10,12,8,13,9"
14414,commdev-image-keyboard-response,592,1489472,learnblock2,1206.5,img/planet3_left.png,3,Community 1,NA,TRUE,f,f,NA,NA,NA,1,6,"11,7,3,6,2,5,4,1,14,15,10,12,8,13,9"
14414,commdev-image-keyboard-response,593,1490725,learnblock2,1178.2999992370605,img/planet7_left.png,7,Community 1,NA,TRUE,f,f,NA,NA,NA,1,6,"11,7,3,6,2,5,4,1,14,15,10,12,8,13,9"
14414,commdev-image-keyboard-response,594,1491989,learnblock2,null,img/planet3_left.png,3,Community 1,NA,FALSE,null,f,NA,NA,NA,1,6,"11,7,3,6,2,5,4,1,14,15,10,12,8,13,9"
14414,commdev-image-keyboard-response,595,1493244,learnblock2,74.60000038146973,img/planet6_right.png,6,Community 1,NA,TRUE,j,j,NA,NA,NA,1,6,"11,7,3,6,2,5,4,1,14,15,10,12,8,13,9"
14414,commdev-image-keyboard-response,596,1494507,learnblock2,575.6999988555908,img/planet11_left.png,11,Community 1,NA,TRUE,f,f,NA,NA,NA,1,6,"11,7,3,6,2,5,4,1,14,15,10,12,8,13,9"
14414,commdev-image-keyboard-response,597,1495766,learnblock2,405.1000003814697,img/planet6_right.png,6,Community 1,NA,TRUE,j,j,NA,NA,NA,1,6,"11,7,3,6,2,5,4,1,14,15,10,12,8,13,9"
14414,commdev-image-keyboard-response,598,1497023,learnblock2,617.6000003814697,img/planet5_left.png,5,Community 2,NA,TRUE,f,f,NA,NA,NA,1,6,"11,7,3,6,2,5,4,1,14,15,10,12,8,13,9"
14414,commdev-image-keyboard-response,599,1498281,learnblock2,730,img/planet15_right.png,15,Community 2,NA,TRUE,j,j,NA,NA,NA,1,6,"11,7,3,6,2,5,4,1,14,15,10,12,8,13,9"
14414,commdev-image-keyboard-response,600,1499542,learnblock2,877.6000003814697,img/planet14_right.png,14,Community 2,NA,FALSE,f,j,NA,NA,NA,1,6,"11,7,3,6,2,5,4,1,14,15,10,12,8,13,9"
14414,commdev-image-keyboard-response,601,1500798,learnblock2,630.6000003814697,img/planet5_right.png,5,Community 2,NA,TRUE,j,j,NA,NA,NA,1,6,"11,7,3,6,2,5,4,1,14,15,10,12,8,13,9"
14414,commdev-image-keyboard-response,602,1502061,learnblock2,741.1000003814697,img/planet14_left.png,14,Community 2,NA,TRUE,f,f,NA,NA,NA,1,6,"11,7,3,6,2,5,4,1,14,15,10,12,8,13,9"
14414,commdev-image-keyboard-response,603,1503319,learnblock2,550.7999992370605,img/planet5_right.png,5,Community 2,NA,TRUE,j,j,NA,NA,NA,1,6,"11,7,3,6,2,5,4,1,14,15,10,12,8,13,9"
14414,commdev-image-keyboard-response,604,1504573,learnblock2,711.5,img/planet15_left.png,15,Community 2,NA,TRUE,f,f,NA,NA,NA,1,6,"11,7,3,6,2,5,4,1,14,15,10,12,8,13,9"
14414,commdev-image-keyboard-response,605,1505842,learnblock2,587.6000003814697,img/planet14_left.png,14,Community 2,NA,FALSE,j,f,NA,NA,NA,1,6,"11,7,3,6,2,5,4,1,14,15,10,12,8,13,9"
14414,commdev-image-keyboard-response,606,1507113,learnblock2,744.8000011444092,img/planet1_left.png,1,Community 2,NA,TRUE,f,f,NA,NA,NA,1,6,"11,7,3,6,2,5,4,1,14,15,10,12,8,13,9"
14414,commdev-image-keyboard-response,607,1508369,learnblock2,663.8999996185303,img/planet12_right.png,12,Community 3,NA,TRUE,j,j,NA,NA,NA,1,6,"11,7,3,6,2,5,4,1,14,15,10,12,8,13,9"
14414,commdev-image-keyboard-response,608,1509627,learnblock2,614.6000003814697,img/planet13_left.png,13,Community 3,NA,TRUE,f,f,NA,NA,NA,1,6,"11,7,3,6,2,5,4,1,14,15,10,12,8,13,9"
14414,commdev-image-keyboard-response,609,1510887,learnblock2,586.1000003814697,img/planet10_right.png,10,Community 3,NA,TRUE,j,j,NA,NA,NA,1,6,"11,7,3,6,2,5,4,1,14,15,10,12,8,13,9"
14414,commdev-image-keyboard-response,610,1512145,learnblock2,678,img/planet13_right.png,13,Community 3,NA,TRUE,j,j,NA,NA,NA,1,6,"11,7,3,6,2,5,4,1,14,15,10,12,8,13,9"
14414,commdev-image-keyboard-response,611,1513405,learnblock2,1009.8000011444092,img/planet9_right.png,9,Community 3,NA,TRUE,j,j,NA,NA,NA,1,6,"11,7,3,6,2,5,4,1,14,15,10,12,8,13,9"
14414,commdev-image-keyboard-response,612,1514662,learnblock2,625.2000007629395,img/planet13_right.png,13,Community 3,NA,FALSE,f,j,NA,NA,NA,1,6,"11,7,3,6,2,5,4,1,14,15,10,12,8,13,9"
14414,commdev-image-keyboard-response,613,1515919,learnblock2,550.0999984741211,img/planet10_right.png,10,Community 3,NA,TRUE,j,j,NA,NA,NA,1,6,"11,7,3,6,2,5,4,1,14,15,10,12,8,13,9"
14414,commdev-image-keyboard-response,614,1517172,learnblock2,1169.8999996185303,img/planet9_left.png,9,Community 3,NA,TRUE,f,f,NA,NA,NA,1,6,"11,7,3,6,2,5,4,1,14,15,10,12,8,13,9"
14414,commdev-image-keyboard-response,615,1518438,learnblock2,944.5999984741211,img/planet12_left.png,12,Community 3,NA,TRUE,f,f,NA,NA,NA,1,6,"11,7,3,6,2,5,4,1,14,15,10,12,8,13,9"
14414,commdev-image-keyboard-response,616,1519693,learnblock2,669,img/planet1_right.png,1,Community 2,NA,TRUE,j,j,NA,NA,NA,1,6,"11,7,3,6,2,5,4,1,14,15,10,12,8,13,9"
14414,commdev-image-keyboard-response,617,1520949,learnblock2,841,img/planet14_right.png,14,Community 2,NA,TRUE,j,j,NA,NA,NA,1,6,"11,7,3,6,2,5,4,1,14,15,10,12,8,13,9"
14414,commdev-image-keyboard-response,618,1522210,learnblock2,852,img/planet5_right.png,5,Community 2,NA,TRUE,j,j,NA,NA,NA,1,6,"11,7,3,6,2,5,4,1,14,15,10,12,8,13,9"
14414,commdev-image-keyboard-response,619,1523469,learnblock2,584.8000011444092,img/planet4_left.png,4,Community 2,NA,TRUE,f,f,NA,NA,NA,1,6,"11,7,3,6,2,5,4,1,14,15,10,12,8,13,9"
14414,commdev-image-keyboard-response,620,1524728,learnblock2,555.6000003814697,img/planet5_right.png,5,Community 2,NA,TRUE,j,j,NA,NA,NA,1,6,"11,7,3,6,2,5,4,1,14,15,10,12,8,13,9"
14414,commdev-image-keyboard-response,621,1525991,learnblock2,804.8999996185303,img/planet4_right.png,4,Community 2,NA,TRUE,j,j,NA,NA,NA,1,6,"11,7,3,6,2,5,4,1,14,15,10,12,8,13,9"
14414,commdev-image-keyboard-response,622,1527250,learnblock2,814,img/planet14_left.png,14,Community 2,NA,TRUE,f,f,NA,NA,NA,1,6,"11,7,3,6,2,5,4,1,14,15,10,12,8,13,9"
14414,commdev-image-keyboard-response,623,1528506,learnblock2,679.5999984741211,img/planet15_right.png,15,Community 2,NA,TRUE,j,j,NA,NA,NA,1,6,"11,7,3,6,2,5,4,1,14,15,10,12,8,13,9"
14414,commdev-image-keyboard-response,624,1529762,learnblock2,832.6000003814697,img/planet14_right.png,14,Community 2,NA,TRUE,j,j,NA,NA,NA,1,6,"11,7,3,6,2,5,4,1,14,15,10,12,8,13,9"
14414,commdev-image-keyboard-response,625,1531016,learnblock2,748,img/planet15_left.png,15,Community 2,NA,TRUE,f,f,NA,NA,NA,1,6,"11,7,3,6,2,5,4,1,14,15,10,12,8,13,9"
14414,commdev-image-keyboard-response,626,1532281,learnblock2,559.8999996185303,img/planet14_left.png,14,Community 2,NA,FALSE,j,f,NA,NA,NA,1,6,"11,7,3,6,2,5,4,1,14,15,10,12,8,13,9"
14414,commdev-image-keyboard-response,627,1533535,learnblock2,948.1000003814697,img/planet5_right.png,5,Community 2,NA,TRUE,j,j,NA,NA,NA,1,6,"11,7,3,6,2,5,4,1,14,15,10,12,8,13,9"
14414,commdev-image-keyboard-response,628,1534795,learnblock2,795.1000003814697,img/planet4_right.png,4,Community 2,NA,TRUE,j,j,NA,NA,NA,1,6,"11,7,3,6,2,5,4,1,14,15,10,12,8,13,9"
14414,commdev-image-keyboard-response,629,1536057,learnblock2,689.7000007629395,img/planet15_right.png,15,Community 2,NA,TRUE,j,j,NA,NA,NA,1,6,"11,7,3,6,2,5,4,1,14,15,10,12,8,13,9"
14414,commdev-image-keyboard-response,630,1537324,learnblock2,563.8999996185303,img/planet1_right.png,1,Community 2,NA,TRUE,j,j,NA,NA,NA,1,6,"11,7,3,6,2,5,4,1,14,15,10,12,8,13,9"
14414,commdev-image-keyboard-response,631,1538589,learnblock2,507.1000003814697,img/planet15_right.png,15,Community 2,NA,TRUE,j,j,NA,NA,NA,1,6,"11,7,3,6,2,5,4,1,14,15,10,12,8,13,9"
14414,commdev-image-keyboard-response,632,1539853,learnblock2,598.3999996185303,img/planet1_left.png,1,Community 2,NA,TRUE,f,f,NA,NA,NA,1,6,"11,7,3,6,2,5,4,1,14,15,10,12,8,13,9"
14414,commdev-image-keyboard-response,633,1541111,learnblock2,571.2999992370605,img/planet12_right.png,12,Community 3,NA,TRUE,j,j,NA,NA,NA,1,6,"11,7,3,6,2,5,4,1,14,15,10,12,8,13,9"
14414,commdev-image-keyboard-response,634,1542381,learnblock2,640.7999992370605,img/planet13_left.png,13,Community 3,NA,TRUE,f,f,NA,NA,NA,1,6,"11,7,3,6,2,5,4,1,14,15,10,12,8,13,9"
14414,commdev-image-keyboard-response,635,1543636,learnblock2,795.3000011444092,img/planet9_right.png,9,Community 3,NA,TRUE,j,j,NA,NA,NA,1,6,"11,7,3,6,2,5,4,1,14,15,10,12,8,13,9"
14414,commdev-image-keyboard-response,636,1544890,learnblock2,617.3999996185303,img/planet8_right.png,8,Community 3,NA,TRUE,j,j,NA,NA,NA,1,6,"11,7,3,6,2,5,4,1,14,15,10,12,8,13,9"
14414,commdev-image-keyboard-response,637,1546145,learnblock2,650.6999988555908,img/planet9_left.png,9,Community 3,NA,TRUE,f,f,NA,NA,NA,1,6,"11,7,3,6,2,5,4,1,14,15,10,12,8,13,9"
14414,commdev-image-keyboard-response,638,1547403,learnblock2,791.2000007629395,img/planet12_right.png,12,Community 3,NA,TRUE,j,j,NA,NA,NA,1,6,"11,7,3,6,2,5,4,1,14,15,10,12,8,13,9"
14414,commdev-image-keyboard-response,639,1548658,learnblock2,1028,img/planet9_right.png,9,Community 3,NA,TRUE,j,j,NA,NA,NA,1,6,"11,7,3,6,2,5,4,1,14,15,10,12,8,13,9"
14414,commdev-image-keyboard-response,640,1549916,learnblock2,728.1999988555908,img/planet10_right.png,10,Community 3,NA,TRUE,j,j,NA,NA,NA,1,6,"11,7,3,6,2,5,4,1,14,15,10,12,8,13,9"
14414,commdev-image-keyboard-response,641,1551172,learnblock2,698.2000007629395,img/planet8_left.png,8,Community 3,NA,TRUE,f,f,NA,NA,NA,1,6,"11,7,3,6,2,5,4,1,14,15,10,12,8,13,9"
14414,commdev-image-keyboard-response,642,1552427,learnblock2,688.7999992370605,img/planet9_right.png,9,Community 3,NA,TRUE,j,j,NA,NA,NA,1,6,"11,7,3,6,2,5,4,1,14,15,10,12,8,13,9"
14414,commdev-image-keyboard-response,643,1553690,learnblock2,616.5,img/planet12_left.png,12,Community 3,NA,TRUE,f,f,NA,NA,NA,1,6,"11,7,3,6,2,5,4,1,14,15,10,12,8,13,9"
14414,commdev-image-keyboard-response,644,1554944,learnblock2,560.3999996185303,img/planet8_left.png,8,Community 3,NA,FALSE,j,f,NA,NA,NA,1,6,"11,7,3,6,2,5,4,1,14,15,10,12,8,13,9"
14414,commdev-image-keyboard-response,645,1556204,learnblock2,751.7000007629395,img/planet12_right.png,12,Community 3,NA,TRUE,j,j,NA,NA,NA,1,6,"11,7,3,6,2,5,4,1,14,15,10,12,8,13,9"
14414,commdev-image-keyboard-response,646,1557463,learnblock2,601.1999988555908,img/planet13_left.png,13,Community 3,NA,TRUE,f,f,NA,NA,NA,1,6,"11,7,3,6,2,5,4,1,14,15,10,12,8,13,9"
14414,commdev-image-keyboard-response,647,1558729,learnblock2,611.7000007629395,img/planet8_right.png,8,Community 3,NA,TRUE,j,j,NA,NA,NA,1,6,"11,7,3,6,2,5,4,1,14,15,10,12,8,13,9"
14414,commdev-image-keyboard-response,648,1559985,learnblock2,583.7000007629395,img/planet13_left.png,13,Community 3,NA,TRUE,f,f,NA,NA,NA,1,6,"11,7,3,6,2,5,4,1,14,15,10,12,8,13,9"
14414,commdev-image-keyboard-response,649,1561247,learnblock2,433.1999988555908,img/planet8_left.png,8,Community 3,NA,FALSE,j,f,NA,NA,NA,1,6,"11,7,3,6,2,5,4,1,14,15,10,12,8,13,9"
14414,commdev-image-keyboard-response,650,1562506,learnblock2,786.1000003814697,img/planet13_left.png,13,Community 3,NA,TRUE,f,f,NA,NA,NA,1,6,"11,7,3,6,2,5,4,1,14,15,10,12,8,13,9"
14414,commdev-image-keyboard-response,651,1563766,learnblock2,798.2999992370605,img/planet9_right.png,9,Community 3,NA,TRUE,j,j,NA,NA,NA,1,6,"11,7,3,6,2,5,4,1,14,15,10,12,8,13,9"
14414,commdev-image-keyboard-response,652,1565026,learnblock2,775.1000003814697,img/planet8_left.png,8,Community 3,NA,TRUE,f,f,NA,NA,NA,1,6,"11,7,3,6,2,5,4,1,14,15,10,12,8,13,9"
14414,commdev-image-keyboard-response,653,1566282,learnblock2,616.1999988555908,img/planet13_right.png,13,Community 3,NA,TRUE,j,j,NA,NA,NA,1,6,"11,7,3,6,2,5,4,1,14,15,10,12,8,13,9"
14414,commdev-image-keyboard-response,654,1567541,learnblock2,556.8999996185303,img/planet9_left.png,9,Community 3,NA,TRUE,f,f,NA,NA,NA,1,6,"11,7,3,6,2,5,4,1,14,15,10,12,8,13,9"
14414,commdev-image-keyboard-response,655,1568806,learnblock2,644,img/planet8_right.png,8,Community 3,NA,TRUE,j,j,NA,NA,NA,1,6,"11,7,3,6,2,5,4,1,14,15,10,12,8,13,9"
