subject_id,trial_type,trial_index,time_elapsed,block,rt,stimulus,planet,community,response,correct,key_press,learning_correct_response,parse,init_locations,final_locations,browser_interactions,num_comp,planet_map
14092,commdev-instructions,7,94263,NA,3247.6999999997206,"<p>In this game, you will be shown a 3x3 grid of patterns.</p> <p>The last one in the bottom right-hand corner, <strong>will be missing:</strong></p> <div style='width: 700px;'><div style='float: top;'><img style='width: 200px;' src='practice/p1_M1.png'></img><p class='small'>You need to select<strong> which of the four possible patterns </strong>along the bottom<strong> fits into the gap:</strong></p></div><div style='float: top;'><img style='width: 300px;' src='practice/p1_T1.png'></img></div><br>",NA,NA,NA,NA,NA,NA,NA,NA,NA,NA,7,"5,8,7,13,15,14,10,6,11,9,3,4,2,12,1"
14092,commdev-instructions,8,116907,NA,2353.100000000093,"<p>Try to be as fast and as accurate as you can be.</p> <p>If you cannot solve the puzzle then you should guess - you will not be penalised for an incorrect answer.</p> <p>The task contains a shuffled mix of easy, medium and hard puzzles.</p> <p>You will have <strong>30 seconds</strong> to complete each puzzle.</p><br>",NA,NA,NA,NA,NA,NA,NA,NA,NA,NA,7,"5,8,7,13,15,14,10,6,11,9,3,4,2,12,1"
14092,commdev-instructions,17,154325,NA,3808.7000000001863,<p><strong>Success!</strong></p> <p>You seem to be getting the hang of this...</p> <p>Let's move on to the real trials.</p><br>,NA,NA,NA,NA,NA,NA,NA,NA,NA,NA,7,"5,8,7,13,15,14,10,6,11,9,3,4,2,12,1"
14092,commdev-instructions,107,653670,NA,7455.299999999814,"<p>In this game, you are a scientist on board a space shuttle. </p><p> On each mission, you will visit planets all across the universe.</p><img src=""img/controlroom.jpg"" width=300vw>",NA,NA,NA,NA,NA,NA,NA,NA,NA,NA,7,"5,8,7,13,15,14,10,6,11,9,3,4,2,12,1"
14092,commdev-instructions,108,657504,NA,1753.5999999996275,"<p>Here are a few planets you might see:</p><img src=""img/practice1.png"" width=200vw><img src=""img/practice2.png"" width=200vw><img src=""img/practice3.png"" width=200vw>",NA,NA,NA,NA,NA,NA,NA,NA,NA,NA,7,"5,8,7,13,15,14,10,6,11,9,3,4,2,12,1"
14092,commdev-instructions,109,667319,NA,2415.899999999441,"<p>Your job as a scientist is to record which direction the winds are moving on each planet.</p><p>There are two types of wind directions:</p><img src=""img/practice1_left.png"" width=200vw><img src=""img/practice1_right.png"" width=200vw>",NA,NA,NA,NA,NA,NA,NA,NA,NA,NA,7,"5,8,7,13,15,14,10,6,11,9,3,4,2,12,1"
14092,commdev-instructions,110,675582,NA,3383.4000000003725,"<p>If the winds are moving this way, press the letter <strong>F</strong> on the keyboard as fast as you can.</p><img src=""img/leftwind.png"" width=250vw>",NA,NA,NA,NA,NA,NA,NA,NA,NA,NA,7,"5,8,7,13,15,14,10,6,11,9,3,4,2,12,1"
14092,commdev-instructions,111,683468,NA,3386.100000000559,"<p>If the winds are moving this way, press the letter <strong>J</strong> on the keyboard as fast as you can.</p><img src=""img/rightwind.png"" width=350vw>",NA,NA,NA,NA,NA,NA,NA,NA,NA,NA,7,"5,8,7,13,15,14,10,6,11,9,3,4,2,12,1"
14092,commdev-instructions,112,690739,NA,2849.899999999441,<p>You will have 1 second to respond. Try to respond before the time runs out!,NA,NA,NA,NA,NA,NA,NA,NA,NA,NA,7,"5,8,7,13,15,14,10,6,11,9,3,4,2,12,1"
14092,commdev-instructions,113,697807,NA,1630,<p>The planets you will visit will look different from each other.</p><p>You should respond <strong>only</strong> based on wind direction.,NA,NA,NA,NA,NA,NA,NA,NA,NA,NA,7,"5,8,7,13,15,14,10,6,11,9,3,4,2,12,1"
14092,commdev-instructions,114,709141,NA,6168.4000000003725,"<p> Ready to start the practice round? </p><p> Remember, press <strong>F</strong> or <strong>J</strong> depending on the wind direction.<br><img src=""img/categorize_planet_example.png""",NA,NA,NA,NA,NA,NA,NA,NA,NA,NA,7,"5,8,7,13,15,14,10,6,11,9,3,4,2,12,1"
14092,commdev-instructions,126,768065,NA,5962.200000000186,"<p>Great, now try a short practice mission. </p><p> This time, you will have 1 second to respond and you won't know whether you pressed the right or wrong key for each planet.</p>",NA,NA,NA,NA,NA,NA,NA,NA,NA,NA,7,"5,8,7,13,15,14,10,6,11,9,3,4,2,12,1"
14092,commdev-image-keyboard-response,127,769421,practice,null,img/practice4_left.png,NA,Number not found in mappings,NA,FALSE,null,f,NA,NA,NA,NA,7,"5,8,7,13,15,14,10,6,11,9,3,4,2,12,1"
14092,commdev-image-keyboard-response,128,770673,practice,134.70000000018626,img/practice1_right.png,NA,Number not found in mappings,NA,FALSE,f,j,NA,NA,NA,NA,7,"5,8,7,13,15,14,10,6,11,9,3,4,2,12,1"
14092,commdev-image-keyboard-response,129,771926,practice,null,img/practice2_left.png,NA,Number not found in mappings,NA,FALSE,null,f,NA,NA,NA,NA,7,"5,8,7,13,15,14,10,6,11,9,3,4,2,12,1"
14092,commdev-image-keyboard-response,130,773178,practice,635.5,img/practice1_right.png,NA,Number not found in mappings,NA,FALSE,f,j,NA,NA,NA,NA,7,"5,8,7,13,15,14,10,6,11,9,3,4,2,12,1"
14092,commdev-image-keyboard-response,131,774430,practice,144.40000000037253,img/practice4_left.png,NA,Number not found in mappings,NA,FALSE,j,f,NA,NA,NA,NA,7,"5,8,7,13,15,14,10,6,11,9,3,4,2,12,1"
14092,commdev-image-keyboard-response,132,775683,practice,643.7999999998137,img/practice2_right.png,NA,Number not found in mappings,NA,TRUE,j,j,NA,NA,NA,NA,7,"5,8,7,13,15,14,10,6,11,9,3,4,2,12,1"
14092,commdev-image-keyboard-response,133,776935,practice,498.6000000005588,img/practice4_right.png,NA,Number not found in mappings,NA,FALSE,f,j,NA,NA,NA,NA,7,"5,8,7,13,15,14,10,6,11,9,3,4,2,12,1"
14092,commdev-image-keyboard-response,134,778187,practice,704.2999999998137,img/practice1_left.png,NA,Number not found in mappings,NA,TRUE,f,f,NA,NA,NA,NA,7,"5,8,7,13,15,14,10,6,11,9,3,4,2,12,1"
14092,commdev-instructions,135,789956,NA,2211.100000000559,"<p>Great job with the practice round.</p><p>During real missions, you won't know whether you pressed the right or wrong key for each planet.</p><p>But between missions, we will tell you how you did overall.</p>",NA,NA,NA,NA,NA,NA,NA,NA,NA,NA,7,"5,8,7,13,15,14,10,6,11,9,3,4,2,12,1"
14092,commdev-instructions,136,801331,NA,3132.2000000001863,<p>Try your best! You will be paid a bonus based on how many correct responses you make!</p><p>Responses that are too slow will not count toward your bonus.</p>,NA,NA,NA,NA,NA,NA,NA,NA,NA,NA,7,"5,8,7,13,15,14,10,6,11,9,3,4,2,12,1"
14092,commdev-instructions,137,809982,NA,2448.9000000003725,"<p>You are almost ready to start the real game.</p><p> First, we are going to ask you some questions about how the game works.</p>",NA,NA,NA,NA,NA,NA,NA,NA,NA,NA,7,"5,8,7,13,15,14,10,6,11,9,3,4,2,12,1"
14092,commdev-instructions,146,935713,NA,1786.0999999996275,"<p> Nice work! It is now time to start the real game.<p></p>You will go on two missions to record wind directions of different planets.<p></p>Each one will take about 5 minutes. You will get to take a break between missions.<p><p> Remember, press <strong>F</strong> or <strong>J</strong> depending on the wind direction. Good luck!<br><img src=""img/categorize_planet_example.png""",NA,NA,NA,NA,NA,NA,NA,NA,NA,NA,7,"5,8,7,13,15,14,10,6,11,9,3,4,2,12,1"
14092,commdev-image-keyboard-response,148,939985,learnblock1,1132.3999999994412,img/planet5_right.png,5,Community 1,NA,TRUE,j,j,NA,NA,NA,NA,7,"5,8,7,13,15,14,10,6,11,9,3,4,2,12,1"
14092,commdev-image-keyboard-response,149,941237,learnblock1,792.4000000003725,img/planet8_right.png,8,Community 1,NA,TRUE,j,j,NA,NA,NA,NA,7,"5,8,7,13,15,14,10,6,11,9,3,4,2,12,1"
14092,commdev-image-keyboard-response,150,942489,learnblock1,597.7999999998137,img/planet5_right.png,5,Community 1,NA,TRUE,j,j,NA,NA,NA,NA,7,"5,8,7,13,15,14,10,6,11,9,3,4,2,12,1"
14092,commdev-image-keyboard-response,151,943741,learnblock1,760.2000000001863,img/planet13_left.png,13,Community 1,NA,TRUE,f,f,NA,NA,NA,NA,7,"5,8,7,13,15,14,10,6,11,9,3,4,2,12,1"
14092,commdev-image-keyboard-response,152,944993,learnblock1,765.1000000005588,img/planet14_right.png,14,Community 2,NA,TRUE,j,j,NA,NA,NA,NA,7,"5,8,7,13,15,14,10,6,11,9,3,4,2,12,1"
14092,commdev-image-keyboard-response,153,946245,learnblock1,656.9000000003725,img/planet13_left.png,13,Community 1,NA,TRUE,f,f,NA,NA,NA,NA,7,"5,8,7,13,15,14,10,6,11,9,3,4,2,12,1"
14092,commdev-image-keyboard-response,154,947497,learnblock1,673.2000000001863,img/planet8_right.png,8,Community 1,NA,TRUE,j,j,NA,NA,NA,NA,7,"5,8,7,13,15,14,10,6,11,9,3,4,2,12,1"
14092,commdev-image-keyboard-response,155,948750,learnblock1,499.09999999962747,img/planet13_left.png,13,Community 1,NA,TRUE,f,f,NA,NA,NA,NA,7,"5,8,7,13,15,14,10,6,11,9,3,4,2,12,1"
14092,commdev-image-keyboard-response,156,950002,learnblock1,594.4000000003725,img/planet7_right.png,7,Community 1,NA,TRUE,j,j,NA,NA,NA,NA,7,"5,8,7,13,15,14,10,6,11,9,3,4,2,12,1"
14092,commdev-image-keyboard-response,157,951254,learnblock1,539.8999999994412,img/planet13_left.png,13,Community 1,NA,TRUE,f,f,NA,NA,NA,NA,7,"5,8,7,13,15,14,10,6,11,9,3,4,2,12,1"
14092,commdev-image-keyboard-response,158,952506,learnblock1,546.9000000003725,img/planet14_right.png,14,Community 2,NA,TRUE,j,j,NA,NA,NA,NA,7,"5,8,7,13,15,14,10,6,11,9,3,4,2,12,1"
14092,commdev-image-keyboard-response,159,953759,learnblock1,564.3999999994412,img/planet9_left.png,9,Community 2,NA,TRUE,f,f,NA,NA,NA,NA,7,"5,8,7,13,15,14,10,6,11,9,3,4,2,12,1"
14092,commdev-image-keyboard-response,160,955011,learnblock1,613.5999999996275,img/planet6_right.png,6,Community 2,NA,TRUE,j,j,NA,NA,NA,NA,7,"5,8,7,13,15,14,10,6,11,9,3,4,2,12,1"
14092,commdev-image-keyboard-response,161,956264,learnblock1,594.2999999998137,img/planet4_left.png,4,Community 3,NA,TRUE,f,f,NA,NA,NA,NA,7,"5,8,7,13,15,14,10,6,11,9,3,4,2,12,1"
14092,commdev-image-keyboard-response,162,957516,learnblock1,561.4000000003725,img/planet12_right.png,12,Community 3,NA,TRUE,j,j,NA,NA,NA,NA,7,"5,8,7,13,15,14,10,6,11,9,3,4,2,12,1"
14092,commdev-image-keyboard-response,163,958768,learnblock1,758.7999999998137,img/planet4_right.png,4,Community 3,NA,TRUE,j,j,NA,NA,NA,NA,7,"5,8,7,13,15,14,10,6,11,9,3,4,2,12,1"
14092,commdev-image-keyboard-response,164,960020,learnblock1,841.7000000001863,img/planet6_right.png,6,Community 2,NA,TRUE,j,j,NA,NA,NA,NA,7,"5,8,7,13,15,14,10,6,11,9,3,4,2,12,1"
14092,commdev-image-keyboard-response,165,961272,learnblock1,668.7999999998137,img/planet4_right.png,4,Community 3,NA,TRUE,j,j,NA,NA,NA,NA,7,"5,8,7,13,15,14,10,6,11,9,3,4,2,12,1"
14092,commdev-image-keyboard-response,166,962524,learnblock1,1190,img/planet12_left.png,12,Community 3,NA,TRUE,f,f,NA,NA,NA,NA,7,"5,8,7,13,15,14,10,6,11,9,3,4,2,12,1"
14092,commdev-image-keyboard-response,167,963776,learnblock1,758,img/planet2_left.png,2,Community 3,NA,TRUE,f,f,NA,NA,NA,NA,7,"5,8,7,13,15,14,10,6,11,9,3,4,2,12,1"
14092,commdev-image-keyboard-response,168,965028,learnblock1,790.7000000001863,img/planet3_left.png,3,Community 3,NA,TRUE,f,f,NA,NA,NA,NA,7,"5,8,7,13,15,14,10,6,11,9,3,4,2,12,1"
14092,commdev-image-keyboard-response,169,966280,learnblock1,612.0999999996275,img/planet15_left.png,15,Community 1,NA,TRUE,f,f,NA,NA,NA,NA,7,"5,8,7,13,15,14,10,6,11,9,3,4,2,12,1"
14092,commdev-image-keyboard-response,170,967532,learnblock1,686.7999999998137,img/planet3_right.png,3,Community 3,NA,TRUE,j,j,NA,NA,NA,NA,7,"5,8,7,13,15,14,10,6,11,9,3,4,2,12,1"
14092,commdev-image-keyboard-response,171,968784,learnblock1,887.5,img/planet12_left.png,12,Community 3,NA,TRUE,f,f,NA,NA,NA,NA,7,"5,8,7,13,15,14,10,6,11,9,3,4,2,12,1"
14092,commdev-image-keyboard-response,172,970036,learnblock1,582.7000000001863,img/planet4_right.png,4,Community 3,NA,TRUE,j,j,NA,NA,NA,NA,7,"5,8,7,13,15,14,10,6,11,9,3,4,2,12,1"
14092,commdev-image-keyboard-response,173,971288,learnblock1,425,img/planet6_left.png,6,Community 2,NA,TRUE,f,f,NA,NA,NA,NA,7,"5,8,7,13,15,14,10,6,11,9,3,4,2,12,1"
14092,commdev-image-keyboard-response,174,972540,learnblock1,466.90000000037253,img/planet9_right.png,9,Community 2,NA,TRUE,j,j,NA,NA,NA,NA,7,"5,8,7,13,15,14,10,6,11,9,3,4,2,12,1"
14092,commdev-image-keyboard-response,175,973792,learnblock1,815,img/planet11_left.png,11,Community 2,NA,TRUE,f,f,NA,NA,NA,NA,7,"5,8,7,13,15,14,10,6,11,9,3,4,2,12,1"
14092,commdev-image-keyboard-response,176,975044,learnblock1,729.4000000003725,img/planet10_left.png,10,Community 2,NA,TRUE,f,f,NA,NA,NA,NA,7,"5,8,7,13,15,14,10,6,11,9,3,4,2,12,1"
14092,commdev-image-keyboard-response,177,976296,learnblock1,658.7999999998137,img/planet11_right.png,11,Community 2,NA,TRUE,j,j,NA,NA,NA,NA,7,"5,8,7,13,15,14,10,6,11,9,3,4,2,12,1"
14092,commdev-image-keyboard-response,178,977548,learnblock1,513.8999999994412,img/planet9_left.png,9,Community 2,NA,TRUE,f,f,NA,NA,NA,NA,7,"5,8,7,13,15,14,10,6,11,9,3,4,2,12,1"
14092,commdev-image-keyboard-response,179,978801,learnblock1,729.0999999996275,img/planet14_left.png,14,Community 2,NA,TRUE,f,f,NA,NA,NA,NA,7,"5,8,7,13,15,14,10,6,11,9,3,4,2,12,1"
14092,commdev-image-keyboard-response,180,980053,learnblock1,537.2000000001863,img/planet10_left.png,10,Community 2,NA,TRUE,f,f,NA,NA,NA,NA,7,"5,8,7,13,15,14,10,6,11,9,3,4,2,12,1"
14092,commdev-image-keyboard-response,181,981305,learnblock1,527.6999999992549,img/planet14_left.png,14,Community 2,NA,TRUE,f,f,NA,NA,NA,NA,7,"5,8,7,13,15,14,10,6,11,9,3,4,2,12,1"
14092,commdev-image-keyboard-response,182,982557,learnblock1,479.20000000018626,img/planet11_left.png,11,Community 2,NA,TRUE,f,f,NA,NA,NA,NA,7,"5,8,7,13,15,14,10,6,11,9,3,4,2,12,1"
14092,commdev-image-keyboard-response,183,983809,learnblock1,652.2000000001863,img/planet6_left.png,6,Community 2,NA,TRUE,f,f,NA,NA,NA,NA,7,"5,8,7,13,15,14,10,6,11,9,3,4,2,12,1"
14092,commdev-image-keyboard-response,184,985061,learnblock1,882.5,img/planet4_left.png,4,Community 3,NA,TRUE,f,f,NA,NA,NA,NA,7,"5,8,7,13,15,14,10,6,11,9,3,4,2,12,1"
14092,commdev-image-keyboard-response,185,986313,learnblock1,725,img/planet12_right.png,12,Community 3,NA,TRUE,j,j,NA,NA,NA,NA,7,"5,8,7,13,15,14,10,6,11,9,3,4,2,12,1"
14092,commdev-image-keyboard-response,186,987565,learnblock1,621.5,img/planet4_left.png,4,Community 3,NA,TRUE,f,f,NA,NA,NA,NA,7,"5,8,7,13,15,14,10,6,11,9,3,4,2,12,1"
14092,commdev-image-keyboard-response,187,988816,learnblock1,705.2999999998137,img/planet6_right.png,6,Community 2,NA,TRUE,j,j,NA,NA,NA,NA,7,"5,8,7,13,15,14,10,6,11,9,3,4,2,12,1"
14092,commdev-image-keyboard-response,188,990068,learnblock1,915.2999999998137,img/planet10_right.png,10,Community 2,NA,TRUE,j,j,NA,NA,NA,NA,7,"5,8,7,13,15,14,10,6,11,9,3,4,2,12,1"
14092,commdev-image-keyboard-response,189,991320,learnblock1,711.5999999996275,img/planet9_right.png,9,Community 2,NA,TRUE,j,j,NA,NA,NA,NA,7,"5,8,7,13,15,14,10,6,11,9,3,4,2,12,1"
14092,commdev-image-keyboard-response,190,992572,learnblock1,691.4000000003725,img/planet14_left.png,14,Community 2,NA,TRUE,f,f,NA,NA,NA,NA,7,"5,8,7,13,15,14,10,6,11,9,3,4,2,12,1"
14092,commdev-image-keyboard-response,191,993824,learnblock1,588,img/planet13_right.png,13,Community 1,NA,TRUE,j,j,NA,NA,NA,NA,7,"5,8,7,13,15,14,10,6,11,9,3,4,2,12,1"
14092,commdev-image-keyboard-response,192,995076,learnblock1,756.8000000007451,img/planet8_right.png,8,Community 1,NA,TRUE,j,j,NA,NA,NA,NA,7,"5,8,7,13,15,14,10,6,11,9,3,4,2,12,1"
14092,commdev-image-keyboard-response,193,996329,learnblock1,618.5,img/planet7_left.png,7,Community 1,NA,TRUE,f,f,NA,NA,NA,NA,7,"5,8,7,13,15,14,10,6,11,9,3,4,2,12,1"
14092,commdev-image-keyboard-response,194,997581,learnblock1,633.5999999996275,img/planet5_right.png,5,Community 1,NA,TRUE,j,j,NA,NA,NA,NA,7,"5,8,7,13,15,14,10,6,11,9,3,4,2,12,1"
14092,commdev-image-keyboard-response,195,998833,learnblock1,752.7000000001863,img/planet15_left.png,15,Community 1,NA,TRUE,f,f,NA,NA,NA,NA,7,"5,8,7,13,15,14,10,6,11,9,3,4,2,12,1"
14092,commdev-image-keyboard-response,196,1000085,learnblock1,665.7999999998137,img/planet5_left.png,5,Community 1,NA,TRUE,f,f,NA,NA,NA,NA,7,"5,8,7,13,15,14,10,6,11,9,3,4,2,12,1"
14092,commdev-image-keyboard-response,197,1001337,learnblock1,753.2000000001863,img/planet13_right.png,13,Community 1,NA,TRUE,j,j,NA,NA,NA,NA,7,"5,8,7,13,15,14,10,6,11,9,3,4,2,12,1"
14092,commdev-image-keyboard-response,198,1002588,learnblock1,654.0999999996275,img/planet14_right.png,14,Community 2,NA,TRUE,j,j,NA,NA,NA,NA,7,"5,8,7,13,15,14,10,6,11,9,3,4,2,12,1"
14092,commdev-image-keyboard-response,199,1003840,learnblock1,607.9000000003725,img/planet13_left.png,13,Community 1,NA,TRUE,f,f,NA,NA,NA,NA,7,"5,8,7,13,15,14,10,6,11,9,3,4,2,12,1"
14092,commdev-image-keyboard-response,200,1005092,learnblock1,539.6000000005588,img/planet14_left.png,14,Community 2,NA,FALSE,j,f,NA,NA,NA,NA,7,"5,8,7,13,15,14,10,6,11,9,3,4,2,12,1"
14092,commdev-image-keyboard-response,201,1006344,learnblock1,664.2999999998137,img/planet10_left.png,10,Community 2,NA,FALSE,j,f,NA,NA,NA,NA,7,"5,8,7,13,15,14,10,6,11,9,3,4,2,12,1"
14092,commdev-image-keyboard-response,202,1007596,learnblock1,117.8999999994412,img/planet9_right.png,9,Community 2,NA,FALSE,f,j,NA,NA,NA,NA,7,"5,8,7,13,15,14,10,6,11,9,3,4,2,12,1"
14092,commdev-image-keyboard-response,203,1008848,learnblock1,983.7000000001863,img/planet10_left.png,10,Community 2,NA,TRUE,f,f,NA,NA,NA,NA,7,"5,8,7,13,15,14,10,6,11,9,3,4,2,12,1"
14092,commdev-image-keyboard-response,204,1010100,learnblock1,1043.2000000001863,img/planet6_right.png,6,Community 2,NA,TRUE,j,j,NA,NA,NA,NA,7,"5,8,7,13,15,14,10,6,11,9,3,4,2,12,1"
14092,commdev-image-keyboard-response,205,1011352,learnblock1,723.7999999998137,img/planet9_left.png,9,Community 2,NA,TRUE,f,f,NA,NA,NA,NA,7,"5,8,7,13,15,14,10,6,11,9,3,4,2,12,1"
14092,commdev-image-keyboard-response,206,1012604,learnblock1,549.6999999992549,img/planet6_right.png,6,Community 2,NA,TRUE,j,j,NA,NA,NA,NA,7,"5,8,7,13,15,14,10,6,11,9,3,4,2,12,1"
14092,commdev-image-keyboard-response,207,1013856,learnblock1,573.5,img/planet9_left.png,9,Community 2,NA,TRUE,f,f,NA,NA,NA,NA,7,"5,8,7,13,15,14,10,6,11,9,3,4,2,12,1"
14092,commdev-image-keyboard-response,208,1015108,learnblock1,755.7999999998137,img/planet14_right.png,14,Community 2,NA,TRUE,j,j,NA,NA,NA,NA,7,"5,8,7,13,15,14,10,6,11,9,3,4,2,12,1"
14092,commdev-image-keyboard-response,209,1016360,learnblock1,715.1000000005588,img/planet10_left.png,10,Community 2,NA,TRUE,f,f,NA,NA,NA,NA,7,"5,8,7,13,15,14,10,6,11,9,3,4,2,12,1"
14092,commdev-image-keyboard-response,210,1017612,learnblock1,647.5,img/planet9_left.png,9,Community 2,NA,TRUE,f,f,NA,NA,NA,NA,7,"5,8,7,13,15,14,10,6,11,9,3,4,2,12,1"
14092,commdev-image-keyboard-response,211,1018864,learnblock1,737.2999999998137,img/planet11_right.png,11,Community 2,NA,TRUE,j,j,NA,NA,NA,NA,7,"5,8,7,13,15,14,10,6,11,9,3,4,2,12,1"
14092,commdev-image-keyboard-response,212,1020116,learnblock1,967.5,img/planet14_right.png,14,Community 2,NA,TRUE,j,j,NA,NA,NA,NA,7,"5,8,7,13,15,14,10,6,11,9,3,4,2,12,1"
14092,commdev-image-keyboard-response,213,1021368,learnblock1,707.4000000003725,img/planet9_left.png,9,Community 2,NA,TRUE,f,f,NA,NA,NA,NA,7,"5,8,7,13,15,14,10,6,11,9,3,4,2,12,1"
14092,commdev-image-keyboard-response,214,1022620,learnblock1,863.6000000005588,img/planet14_left.png,14,Community 2,NA,TRUE,f,f,NA,NA,NA,NA,7,"5,8,7,13,15,14,10,6,11,9,3,4,2,12,1"
14092,commdev-image-keyboard-response,215,1023872,learnblock1,694.4000000003725,img/planet10_left.png,10,Community 2,NA,TRUE,f,f,NA,NA,NA,NA,7,"5,8,7,13,15,14,10,6,11,9,3,4,2,12,1"
14092,commdev-image-keyboard-response,216,1025124,learnblock1,928.6999999992549,img/planet14_right.png,14,Community 2,NA,TRUE,j,j,NA,NA,NA,NA,7,"5,8,7,13,15,14,10,6,11,9,3,4,2,12,1"
14092,commdev-image-keyboard-response,217,1026376,learnblock1,907.2999999998137,img/planet13_right.png,13,Community 1,NA,TRUE,j,j,NA,NA,NA,NA,7,"5,8,7,13,15,14,10,6,11,9,3,4,2,12,1"
14092,commdev-image-keyboard-response,218,1027628,learnblock1,1112.199999999255,img/planet7_right.png,7,Community 1,NA,TRUE,j,j,NA,NA,NA,NA,7,"5,8,7,13,15,14,10,6,11,9,3,4,2,12,1"
14092,commdev-image-keyboard-response,219,1028880,learnblock1,1087.4000000003725,img/planet13_right.png,13,Community 1,NA,TRUE,j,j,NA,NA,NA,NA,7,"5,8,7,13,15,14,10,6,11,9,3,4,2,12,1"
14092,commdev-image-keyboard-response,220,1030132,learnblock1,740.0999999996275,img/planet5_right.png,5,Community 1,NA,TRUE,j,j,NA,NA,NA,NA,7,"5,8,7,13,15,14,10,6,11,9,3,4,2,12,1"
14092,commdev-image-keyboard-response,221,1031384,learnblock1,547.2000000001863,img/planet8_right.png,8,Community 1,NA,TRUE,j,j,NA,NA,NA,NA,7,"5,8,7,13,15,14,10,6,11,9,3,4,2,12,1"
14092,commdev-image-keyboard-response,222,1032638,learnblock1,559.5,img/planet7_left.png,7,Community 1,NA,TRUE,f,f,NA,NA,NA,NA,7,"5,8,7,13,15,14,10,6,11,9,3,4,2,12,1"
14092,commdev-image-keyboard-response,223,1033890,learnblock1,668,img/planet8_right.png,8,Community 1,NA,TRUE,j,j,NA,NA,NA,NA,7,"5,8,7,13,15,14,10,6,11,9,3,4,2,12,1"
14092,commdev-image-keyboard-response,224,1035142,learnblock1,496.5,img/planet5_right.png,5,Community 1,NA,TRUE,j,j,NA,NA,NA,NA,7,"5,8,7,13,15,14,10,6,11,9,3,4,2,12,1"
14092,commdev-image-keyboard-response,225,1036394,learnblock1,639.4000000003725,img/planet13_left.png,13,Community 1,NA,TRUE,f,f,NA,NA,NA,NA,7,"5,8,7,13,15,14,10,6,11,9,3,4,2,12,1"
14092,commdev-image-keyboard-response,226,1037645,learnblock1,792.9000000003725,img/planet7_left.png,7,Community 1,NA,TRUE,f,f,NA,NA,NA,NA,7,"5,8,7,13,15,14,10,6,11,9,3,4,2,12,1"
14092,commdev-image-keyboard-response,227,1038897,learnblock1,747.7000000001863,img/planet8_left.png,8,Community 1,NA,TRUE,f,f,NA,NA,NA,NA,7,"5,8,7,13,15,14,10,6,11,9,3,4,2,12,1"
14092,commdev-image-keyboard-response,228,1040149,learnblock1,608.6999999992549,img/planet5_right.png,5,Community 1,NA,TRUE,j,j,NA,NA,NA,NA,7,"5,8,7,13,15,14,10,6,11,9,3,4,2,12,1"
14092,commdev-image-keyboard-response,229,1041401,learnblock1,585.1000000005588,img/planet8_left.png,8,Community 1,NA,TRUE,f,f,NA,NA,NA,NA,7,"5,8,7,13,15,14,10,6,11,9,3,4,2,12,1"
14092,commdev-image-keyboard-response,230,1042653,learnblock1,520.9000000003725,img/planet13_right.png,13,Community 1,NA,TRUE,j,j,NA,NA,NA,NA,7,"5,8,7,13,15,14,10,6,11,9,3,4,2,12,1"
14092,commdev-image-keyboard-response,231,1043905,learnblock1,736.6999999992549,img/planet14_right.png,14,Community 2,NA,TRUE,j,j,NA,NA,NA,NA,7,"5,8,7,13,15,14,10,6,11,9,3,4,2,12,1"
14092,commdev-image-keyboard-response,232,1045157,learnblock1,630.7999999998137,img/planet10_right.png,10,Community 2,NA,TRUE,j,j,NA,NA,NA,NA,7,"5,8,7,13,15,14,10,6,11,9,3,4,2,12,1"
14092,commdev-image-keyboard-response,233,1046408,learnblock1,510.20000000018626,img/planet14_left.png,14,Community 2,NA,FALSE,j,f,NA,NA,NA,NA,7,"5,8,7,13,15,14,10,6,11,9,3,4,2,12,1"
14092,commdev-image-keyboard-response,234,1047660,learnblock1,980,img/planet10_left.png,10,Community 2,NA,TRUE,f,f,NA,NA,NA,NA,7,"5,8,7,13,15,14,10,6,11,9,3,4,2,12,1"
14092,commdev-image-keyboard-response,235,1048912,learnblock1,792.4000000003725,img/planet9_right.png,9,Community 2,NA,TRUE,j,j,NA,NA,NA,NA,7,"5,8,7,13,15,14,10,6,11,9,3,4,2,12,1"
14092,commdev-image-keyboard-response,236,1050164,learnblock1,676.2999999998137,img/planet10_left.png,10,Community 2,NA,TRUE,f,f,NA,NA,NA,NA,7,"5,8,7,13,15,14,10,6,11,9,3,4,2,12,1"
14092,commdev-image-keyboard-response,237,1051416,learnblock1,714.7000000001863,img/planet9_right.png,9,Community 2,NA,TRUE,j,j,NA,NA,NA,NA,7,"5,8,7,13,15,14,10,6,11,9,3,4,2,12,1"
14092,commdev-image-keyboard-response,238,1052668,learnblock1,664.5999999996275,img/planet6_left.png,6,Community 2,NA,TRUE,f,f,NA,NA,NA,NA,7,"5,8,7,13,15,14,10,6,11,9,3,4,2,12,1"
14092,commdev-image-keyboard-response,239,1053920,learnblock1,1133.7999999998137,img/planet10_left.png,10,Community 2,NA,TRUE,f,f,NA,NA,NA,NA,7,"5,8,7,13,15,14,10,6,11,9,3,4,2,12,1"
14092,commdev-image-keyboard-response,240,1055172,learnblock1,635.1000000005588,img/planet9_right.png,9,Community 2,NA,TRUE,j,j,NA,NA,NA,NA,7,"5,8,7,13,15,14,10,6,11,9,3,4,2,12,1"
14092,commdev-image-keyboard-response,241,1056424,learnblock1,null,img/planet10_right.png,10,Community 2,NA,FALSE,null,j,NA,NA,NA,NA,7,"5,8,7,13,15,14,10,6,11,9,3,4,2,12,1"
14092,commdev-image-keyboard-response,242,1057676,learnblock1,64,img/planet6_right.png,6,Community 2,NA,TRUE,j,j,NA,NA,NA,NA,7,"5,8,7,13,15,14,10,6,11,9,3,4,2,12,1"
14092,commdev-image-keyboard-response,243,1058928,learnblock1,660,img/planet4_right.png,4,Community 3,NA,TRUE,j,j,NA,NA,NA,NA,7,"5,8,7,13,15,14,10,6,11,9,3,4,2,12,1"
14092,commdev-image-keyboard-response,244,1060180,learnblock1,818.8000000007451,img/planet1_left.png,1,Community 3,NA,TRUE,f,f,NA,NA,NA,NA,7,"5,8,7,13,15,14,10,6,11,9,3,4,2,12,1"
14092,commdev-image-keyboard-response,245,1061432,learnblock1,923.7000000001863,img/planet12_left.png,12,Community 3,NA,TRUE,f,f,NA,NA,NA,NA,7,"5,8,7,13,15,14,10,6,11,9,3,4,2,12,1"
14092,commdev-image-keyboard-response,246,1062684,learnblock1,736.5999999996275,img/planet2_right.png,2,Community 3,NA,TRUE,j,j,NA,NA,NA,NA,7,"5,8,7,13,15,14,10,6,11,9,3,4,2,12,1"
14092,commdev-image-keyboard-response,247,1063936,learnblock1,934,img/planet1_right.png,1,Community 3,NA,TRUE,j,j,NA,NA,NA,NA,7,"5,8,7,13,15,14,10,6,11,9,3,4,2,12,1"
14092,commdev-image-keyboard-response,248,1065188,learnblock1,870.2000000001863,img/planet12_right.png,12,Community 3,NA,TRUE,j,j,NA,NA,NA,NA,7,"5,8,7,13,15,14,10,6,11,9,3,4,2,12,1"
14092,commdev-image-keyboard-response,249,1066440,learnblock1,921.5,img/planet2_left.png,2,Community 3,NA,TRUE,f,f,NA,NA,NA,NA,7,"5,8,7,13,15,14,10,6,11,9,3,4,2,12,1"
14092,commdev-image-keyboard-response,250,1067692,learnblock1,null,img/planet12_right.png,12,Community 3,NA,FALSE,null,j,NA,NA,NA,NA,7,"5,8,7,13,15,14,10,6,11,9,3,4,2,12,1"
14092,commdev-image-keyboard-response,251,1068944,learnblock1,64.79999999981374,img/planet4_right.png,4,Community 3,NA,TRUE,j,j,NA,NA,NA,NA,7,"5,8,7,13,15,14,10,6,11,9,3,4,2,12,1"
14092,commdev-image-keyboard-response,252,1070196,learnblock1,53.40000000037253,img/planet6_left.png,6,Community 2,NA,FALSE,j,f,NA,NA,NA,NA,7,"5,8,7,13,15,14,10,6,11,9,3,4,2,12,1"
14092,commdev-image-keyboard-response,253,1071447,learnblock1,1092.3999999994412,img/planet4_right.png,4,Community 3,NA,TRUE,j,j,NA,NA,NA,NA,7,"5,8,7,13,15,14,10,6,11,9,3,4,2,12,1"
14092,commdev-image-keyboard-response,254,1072699,learnblock1,1033,img/planet12_right.png,12,Community 3,NA,TRUE,j,j,NA,NA,NA,NA,7,"5,8,7,13,15,14,10,6,11,9,3,4,2,12,1"
14092,commdev-image-keyboard-response,255,1073951,learnblock1,867.2999999998137,img/planet4_right.png,4,Community 3,NA,TRUE,j,j,NA,NA,NA,NA,7,"5,8,7,13,15,14,10,6,11,9,3,4,2,12,1"
14092,commdev-image-keyboard-response,256,1075203,learnblock1,675.2999999998137,img/planet12_right.png,12,Community 3,NA,TRUE,j,j,NA,NA,NA,NA,7,"5,8,7,13,15,14,10,6,11,9,3,4,2,12,1"
14092,commdev-image-keyboard-response,257,1076455,learnblock1,550.4000000003725,img/planet2_right.png,2,Community 3,NA,TRUE,j,j,NA,NA,NA,NA,7,"5,8,7,13,15,14,10,6,11,9,3,4,2,12,1"
14092,commdev-image-keyboard-response,258,1077707,learnblock1,629.2000000001863,img/planet4_left.png,4,Community 3,NA,TRUE,f,f,NA,NA,NA,NA,7,"5,8,7,13,15,14,10,6,11,9,3,4,2,12,1"
14092,commdev-image-keyboard-response,259,1078959,learnblock1,770.8999999994412,img/planet1_right.png,1,Community 3,NA,TRUE,j,j,NA,NA,NA,NA,7,"5,8,7,13,15,14,10,6,11,9,3,4,2,12,1"
14092,commdev-image-keyboard-response,260,1080211,learnblock1,1019.5999999996275,img/planet3_left.png,3,Community 3,NA,TRUE,f,f,NA,NA,NA,NA,7,"5,8,7,13,15,14,10,6,11,9,3,4,2,12,1"
14092,commdev-image-keyboard-response,261,1081464,learnblock1,918.7000000001863,img/planet12_right.png,12,Community 3,NA,TRUE,j,j,NA,NA,NA,NA,7,"5,8,7,13,15,14,10,6,11,9,3,4,2,12,1"
14092,commdev-image-keyboard-response,262,1082716,learnblock1,847.3000000007451,img/planet2_right.png,2,Community 3,NA,TRUE,j,j,NA,NA,NA,NA,7,"5,8,7,13,15,14,10,6,11,9,3,4,2,12,1"
14092,commdev-image-keyboard-response,263,1083968,learnblock1,705.5999999996275,img/planet12_right.png,12,Community 3,NA,TRUE,j,j,NA,NA,NA,NA,7,"5,8,7,13,15,14,10,6,11,9,3,4,2,12,1"
14092,commdev-image-keyboard-response,264,1085220,learnblock1,819.4000000003725,img/planet2_right.png,2,Community 3,NA,TRUE,j,j,NA,NA,NA,NA,7,"5,8,7,13,15,14,10,6,11,9,3,4,2,12,1"
14092,commdev-image-keyboard-response,265,1086472,learnblock1,1171.5,img/planet12_left.png,12,Community 3,NA,TRUE,f,f,NA,NA,NA,NA,7,"5,8,7,13,15,14,10,6,11,9,3,4,2,12,1"
14092,commdev-image-keyboard-response,266,1087724,learnblock1,768.7999999998137,img/planet4_left.png,4,Community 3,NA,TRUE,f,f,NA,NA,NA,NA,7,"5,8,7,13,15,14,10,6,11,9,3,4,2,12,1"
14092,commdev-image-keyboard-response,267,1088975,learnblock1,697.8999999994412,img/planet12_left.png,12,Community 3,NA,TRUE,f,f,NA,NA,NA,NA,7,"5,8,7,13,15,14,10,6,11,9,3,4,2,12,1"
14092,commdev-image-keyboard-response,268,1090228,learnblock1,722.7999999998137,img/planet4_left.png,4,Community 3,NA,TRUE,f,f,NA,NA,NA,NA,7,"5,8,7,13,15,14,10,6,11,9,3,4,2,12,1"
14092,commdev-image-keyboard-response,269,1091480,learnblock1,796,img/planet6_left.png,6,Community 2,NA,TRUE,f,f,NA,NA,NA,NA,7,"5,8,7,13,15,14,10,6,11,9,3,4,2,12,1"
14092,commdev-image-keyboard-response,270,1092731,learnblock1,676.3999999994412,img/planet9_right.png,9,Community 2,NA,TRUE,j,j,NA,NA,NA,NA,7,"5,8,7,13,15,14,10,6,11,9,3,4,2,12,1"
14092,commdev-image-keyboard-response,271,1093983,learnblock1,577.8000000007451,img/planet10_right.png,10,Community 2,NA,TRUE,j,j,NA,NA,NA,NA,7,"5,8,7,13,15,14,10,6,11,9,3,4,2,12,1"
14092,commdev-image-keyboard-response,272,1095236,learnblock1,590.2999999998137,img/planet9_left.png,9,Community 2,NA,TRUE,f,f,NA,NA,NA,NA,7,"5,8,7,13,15,14,10,6,11,9,3,4,2,12,1"
14092,commdev-image-keyboard-response,273,1096487,learnblock1,642.7999999998137,img/planet11_left.png,11,Community 2,NA,TRUE,f,f,NA,NA,NA,NA,7,"5,8,7,13,15,14,10,6,11,9,3,4,2,12,1"
14092,commdev-image-keyboard-response,274,1097739,learnblock1,824.2999999998137,img/planet14_right.png,14,Community 2,NA,TRUE,j,j,NA,NA,NA,NA,7,"5,8,7,13,15,14,10,6,11,9,3,4,2,12,1"
14092,commdev-image-keyboard-response,275,1098992,learnblock1,875.7999999998137,img/planet9_left.png,9,Community 2,NA,TRUE,f,f,NA,NA,NA,NA,7,"5,8,7,13,15,14,10,6,11,9,3,4,2,12,1"
14092,commdev-image-keyboard-response,276,1100244,learnblock1,875.0999999996275,img/planet6_left.png,6,Community 2,NA,TRUE,f,f,NA,NA,NA,NA,7,"5,8,7,13,15,14,10,6,11,9,3,4,2,12,1"
14092,commdev-image-keyboard-response,277,1101496,learnblock1,898.8999999994412,img/planet4_left.png,4,Community 3,NA,TRUE,f,f,NA,NA,NA,NA,7,"5,8,7,13,15,14,10,6,11,9,3,4,2,12,1"
14092,commdev-image-keyboard-response,278,1102748,learnblock1,709.3000000007451,img/planet12_left.png,12,Community 3,NA,TRUE,f,f,NA,NA,NA,NA,7,"5,8,7,13,15,14,10,6,11,9,3,4,2,12,1"
14092,commdev-image-keyboard-response,279,1104000,learnblock1,584.7000000001863,img/planet2_right.png,2,Community 3,NA,TRUE,j,j,NA,NA,NA,NA,7,"5,8,7,13,15,14,10,6,11,9,3,4,2,12,1"
14092,commdev-image-keyboard-response,280,1105252,learnblock1,535.2999999998137,img/planet3_right.png,3,Community 3,NA,TRUE,j,j,NA,NA,NA,NA,7,"5,8,7,13,15,14,10,6,11,9,3,4,2,12,1"
14092,commdev-image-keyboard-response,281,1106504,learnblock1,673.7000000001863,img/planet15_left.png,15,Community 1,NA,FALSE,j,f,NA,NA,NA,NA,7,"5,8,7,13,15,14,10,6,11,9,3,4,2,12,1"
14092,commdev-image-keyboard-response,282,1107756,learnblock1,612.6000000005588,img/planet5_right.png,5,Community 1,NA,TRUE,j,j,NA,NA,NA,NA,7,"5,8,7,13,15,14,10,6,11,9,3,4,2,12,1"
14092,commdev-image-keyboard-response,283,1109008,learnblock1,456,img/planet15_left.png,15,Community 1,NA,TRUE,f,f,NA,NA,NA,NA,7,"5,8,7,13,15,14,10,6,11,9,3,4,2,12,1"
14092,commdev-image-keyboard-response,284,1110260,learnblock1,710.4000000003725,img/planet3_left.png,3,Community 3,NA,TRUE,f,f,NA,NA,NA,NA,7,"5,8,7,13,15,14,10,6,11,9,3,4,2,12,1"
14092,commdev-image-keyboard-response,285,1111512,learnblock1,721.9000000003725,img/planet2_left.png,2,Community 3,NA,TRUE,f,f,NA,NA,NA,NA,7,"5,8,7,13,15,14,10,6,11,9,3,4,2,12,1"
14092,commdev-image-keyboard-response,286,1112763,learnblock1,951.5,img/planet3_left.png,3,Community 3,NA,TRUE,f,f,NA,NA,NA,NA,7,"5,8,7,13,15,14,10,6,11,9,3,4,2,12,1"
14092,commdev-image-keyboard-response,287,1114015,learnblock1,886,img/planet1_left.png,1,Community 3,NA,TRUE,f,f,NA,NA,NA,NA,7,"5,8,7,13,15,14,10,6,11,9,3,4,2,12,1"
14092,commdev-image-keyboard-response,288,1115268,learnblock1,678.4000000003725,img/planet12_left.png,12,Community 3,NA,TRUE,f,f,NA,NA,NA,NA,7,"5,8,7,13,15,14,10,6,11,9,3,4,2,12,1"
14092,commdev-image-keyboard-response,289,1116519,learnblock1,691.2000000001863,img/planet1_left.png,1,Community 3,NA,TRUE,f,f,NA,NA,NA,NA,7,"5,8,7,13,15,14,10,6,11,9,3,4,2,12,1"
14092,commdev-image-keyboard-response,290,1117771,learnblock1,697.6000000005588,img/planet3_left.png,3,Community 3,NA,TRUE,f,f,NA,NA,NA,NA,7,"5,8,7,13,15,14,10,6,11,9,3,4,2,12,1"
14092,commdev-image-keyboard-response,291,1119024,learnblock1,null,img/planet15_left.png,15,Community 1,NA,FALSE,null,f,NA,NA,NA,NA,7,"5,8,7,13,15,14,10,6,11,9,3,4,2,12,1"
14092,commdev-image-keyboard-response,292,1120276,learnblock1,105.20000000018626,img/planet8_left.png,8,Community 1,NA,TRUE,f,f,NA,NA,NA,NA,7,"5,8,7,13,15,14,10,6,11,9,3,4,2,12,1"
14092,commdev-image-keyboard-response,293,1121527,learnblock1,666.2999999998137,img/planet13_left.png,13,Community 1,NA,TRUE,f,f,NA,NA,NA,NA,7,"5,8,7,13,15,14,10,6,11,9,3,4,2,12,1"
14092,commdev-image-keyboard-response,294,1122779,learnblock1,585.6000000005588,img/planet14_right.png,14,Community 2,NA,TRUE,j,j,NA,NA,NA,NA,7,"5,8,7,13,15,14,10,6,11,9,3,4,2,12,1"
14092,commdev-image-keyboard-response,295,1124031,learnblock1,791.6999999992549,img/planet11_right.png,11,Community 2,NA,FALSE,f,j,NA,NA,NA,NA,7,"5,8,7,13,15,14,10,6,11,9,3,4,2,12,1"
14092,commdev-image-keyboard-response,296,1125283,learnblock1,713.7000000001863,img/planet9_right.png,9,Community 2,NA,TRUE,j,j,NA,NA,NA,NA,7,"5,8,7,13,15,14,10,6,11,9,3,4,2,12,1"
14092,commdev-image-keyboard-response,297,1126535,learnblock1,581.7999999998137,img/planet11_right.png,11,Community 2,NA,TRUE,j,j,NA,NA,NA,NA,7,"5,8,7,13,15,14,10,6,11,9,3,4,2,12,1"
14092,commdev-image-keyboard-response,298,1127787,learnblock1,709.5,img/planet9_right.png,9,Community 2,NA,TRUE,j,j,NA,NA,NA,NA,7,"5,8,7,13,15,14,10,6,11,9,3,4,2,12,1"
14092,commdev-image-keyboard-response,299,1129039,learnblock1,784.1999999992549,img/planet11_left.png,11,Community 2,NA,TRUE,f,f,NA,NA,NA,NA,7,"5,8,7,13,15,14,10,6,11,9,3,4,2,12,1"
14092,commdev-image-keyboard-response,300,1130291,learnblock1,727,img/planet10_left.png,10,Community 2,NA,TRUE,f,f,NA,NA,NA,NA,7,"5,8,7,13,15,14,10,6,11,9,3,4,2,12,1"
14092,commdev-image-keyboard-response,301,1131543,learnblock1,705.2999999998137,img/planet14_left.png,14,Community 2,NA,TRUE,f,f,NA,NA,NA,NA,7,"5,8,7,13,15,14,10,6,11,9,3,4,2,12,1"
14092,commdev-image-keyboard-response,302,1132797,learnblock1,862.3999999994412,img/planet9_right.png,9,Community 2,NA,TRUE,j,j,NA,NA,NA,NA,7,"5,8,7,13,15,14,10,6,11,9,3,4,2,12,1"
14092,commdev-image-keyboard-response,303,1134048,learnblock1,776.6999999992549,img/planet11_left.png,11,Community 2,NA,TRUE,f,f,NA,NA,NA,NA,7,"5,8,7,13,15,14,10,6,11,9,3,4,2,12,1"
14092,commdev-image-keyboard-response,304,1135300,learnblock1,1035.8999999994412,img/planet6_right.png,6,Community 2,NA,TRUE,j,j,NA,NA,NA,NA,7,"5,8,7,13,15,14,10,6,11,9,3,4,2,12,1"
14092,commdev-image-keyboard-response,305,1136553,learnblock1,1159.9000000003725,img/planet10_right.png,10,Community 2,NA,TRUE,j,j,NA,NA,NA,NA,7,"5,8,7,13,15,14,10,6,11,9,3,4,2,12,1"
14092,commdev-image-keyboard-response,306,1137805,learnblock1,null,img/planet9_right.png,9,Community 2,NA,FALSE,null,j,NA,NA,NA,NA,7,"5,8,7,13,15,14,10,6,11,9,3,4,2,12,1"
14092,commdev-image-keyboard-response,307,1139057,learnblock1,798.9000000003725,img/planet11_left.png,11,Community 2,NA,TRUE,f,f,NA,NA,NA,NA,7,"5,8,7,13,15,14,10,6,11,9,3,4,2,12,1"
14092,commdev-image-keyboard-response,308,1140309,learnblock1,null,img/planet10_right.png,10,Community 2,NA,FALSE,null,j,NA,NA,NA,NA,7,"5,8,7,13,15,14,10,6,11,9,3,4,2,12,1"
14092,commdev-image-keyboard-response,309,1141561,learnblock1,684.7000000001863,img/planet6_left.png,6,Community 2,NA,TRUE,f,f,NA,NA,NA,NA,7,"5,8,7,13,15,14,10,6,11,9,3,4,2,12,1"
14092,commdev-image-keyboard-response,310,1142813,learnblock1,581,img/planet9_right.png,9,Community 2,NA,TRUE,j,j,NA,NA,NA,NA,7,"5,8,7,13,15,14,10,6,11,9,3,4,2,12,1"
14092,commdev-image-keyboard-response,311,1144065,learnblock1,521.6999999992549,img/planet10_left.png,10,Community 2,NA,TRUE,f,f,NA,NA,NA,NA,7,"5,8,7,13,15,14,10,6,11,9,3,4,2,12,1"
14092,commdev-image-keyboard-response,312,1145317,learnblock1,642,img/planet9_right.png,9,Community 2,NA,TRUE,j,j,NA,NA,NA,NA,7,"5,8,7,13,15,14,10,6,11,9,3,4,2,12,1"
14092,commdev-image-keyboard-response,313,1146569,learnblock1,629.5,img/planet6_left.png,6,Community 2,NA,TRUE,f,f,NA,NA,NA,NA,7,"5,8,7,13,15,14,10,6,11,9,3,4,2,12,1"
14092,commdev-image-keyboard-response,314,1147821,learnblock1,903,img/planet11_left.png,11,Community 2,NA,TRUE,f,f,NA,NA,NA,NA,7,"5,8,7,13,15,14,10,6,11,9,3,4,2,12,1"
14092,commdev-image-keyboard-response,315,1149073,learnblock1,658,img/planet10_left.png,10,Community 2,NA,TRUE,f,f,NA,NA,NA,NA,7,"5,8,7,13,15,14,10,6,11,9,3,4,2,12,1"
14092,commdev-image-keyboard-response,316,1150325,learnblock1,536.0999999996275,img/planet9_left.png,9,Community 2,NA,TRUE,f,f,NA,NA,NA,NA,7,"5,8,7,13,15,14,10,6,11,9,3,4,2,12,1"
14092,commdev-image-keyboard-response,317,1151578,learnblock1,460.09999999962747,img/planet10_left.png,10,Community 2,NA,TRUE,f,f,NA,NA,NA,NA,7,"5,8,7,13,15,14,10,6,11,9,3,4,2,12,1"
14092,commdev-image-keyboard-response,318,1152829,learnblock1,466.70000000018626,img/planet14_left.png,14,Community 2,NA,TRUE,f,f,NA,NA,NA,NA,7,"5,8,7,13,15,14,10,6,11,9,3,4,2,12,1"
14092,commdev-image-keyboard-response,319,1154081,learnblock1,440.59999999962747,img/planet11_right.png,11,Community 2,NA,FALSE,f,j,NA,NA,NA,NA,7,"5,8,7,13,15,14,10,6,11,9,3,4,2,12,1"
14092,commdev-image-keyboard-response,320,1155333,learnblock1,541.7000000001863,img/planet10_left.png,10,Community 2,NA,TRUE,f,f,NA,NA,NA,NA,7,"5,8,7,13,15,14,10,6,11,9,3,4,2,12,1"
14092,commdev-image-keyboard-response,321,1156585,learnblock1,612.2999999998137,img/planet9_right.png,9,Community 2,NA,FALSE,f,j,NA,NA,NA,NA,7,"5,8,7,13,15,14,10,6,11,9,3,4,2,12,1"
14092,commdev-image-keyboard-response,322,1157837,learnblock1,924.7000000001863,img/planet11_left.png,11,Community 2,NA,TRUE,f,f,NA,NA,NA,NA,7,"5,8,7,13,15,14,10,6,11,9,3,4,2,12,1"
14092,commdev-image-keyboard-response,323,1159089,learnblock1,575.7999999998137,img/planet9_left.png,9,Community 2,NA,FALSE,j,f,NA,NA,NA,NA,7,"5,8,7,13,15,14,10,6,11,9,3,4,2,12,1"
14092,commdev-image-keyboard-response,324,1160342,learnblock1,928.3999999994412,img/planet10_left.png,10,Community 2,NA,FALSE,j,f,NA,NA,NA,NA,7,"5,8,7,13,15,14,10,6,11,9,3,4,2,12,1"
14092,commdev-image-keyboard-response,325,1161594,learnblock1,806.5999999996275,img/planet11_left.png,11,Community 2,NA,FALSE,j,f,NA,NA,NA,NA,7,"5,8,7,13,15,14,10,6,11,9,3,4,2,12,1"
14092,commdev-image-keyboard-response,326,1162846,learnblock1,896.7000000001863,img/planet10_right.png,10,Community 2,NA,TRUE,j,j,NA,NA,NA,NA,7,"5,8,7,13,15,14,10,6,11,9,3,4,2,12,1"
14092,commdev-image-keyboard-response,327,1164098,learnblock1,392.69999999925494,img/planet9_right.png,9,Community 2,NA,FALSE,f,j,NA,NA,NA,NA,7,"5,8,7,13,15,14,10,6,11,9,3,4,2,12,1"
14092,commdev-image-keyboard-response,328,1165350,learnblock1,476.90000000037253,img/planet10_right.png,10,Community 2,NA,FALSE,f,j,NA,NA,NA,NA,7,"5,8,7,13,15,14,10,6,11,9,3,4,2,12,1"
14092,commdev-image-keyboard-response,329,1166602,learnblock1,933.7000000001863,img/planet9_right.png,9,Community 2,NA,TRUE,j,j,NA,NA,NA,NA,7,"5,8,7,13,15,14,10,6,11,9,3,4,2,12,1"
14092,commdev-image-keyboard-response,330,1167854,learnblock1,893.1999999992549,img/planet14_right.png,14,Community 2,NA,TRUE,j,j,NA,NA,NA,NA,7,"5,8,7,13,15,14,10,6,11,9,3,4,2,12,1"
14092,commdev-image-keyboard-response,331,1169106,learnblock1,1214.7999999998137,img/planet10_right.png,10,Community 2,NA,TRUE,j,j,NA,NA,NA,NA,7,"5,8,7,13,15,14,10,6,11,9,3,4,2,12,1"
14092,commdev-image-keyboard-response,332,1170357,learnblock1,902,img/planet9_left.png,9,Community 2,NA,TRUE,f,f,NA,NA,NA,NA,7,"5,8,7,13,15,14,10,6,11,9,3,4,2,12,1"
14092,commdev-image-keyboard-response,333,1171610,learnblock1,null,img/planet10_left.png,10,Community 2,NA,FALSE,null,f,NA,NA,NA,NA,7,"5,8,7,13,15,14,10,6,11,9,3,4,2,12,1"
14092,commdev-image-keyboard-response,334,1172861,learnblock1,24.59999999962747,img/planet9_left.png,9,Community 2,NA,TRUE,f,f,NA,NA,NA,NA,7,"5,8,7,13,15,14,10,6,11,9,3,4,2,12,1"
14092,commdev-image-keyboard-response,335,1174114,learnblock1,null,img/planet14_left.png,14,Community 2,NA,FALSE,null,f,NA,NA,NA,NA,7,"5,8,7,13,15,14,10,6,11,9,3,4,2,12,1"
14092,commdev-image-keyboard-response,336,1175366,learnblock1,125.59999999962747,img/planet9_left.png,9,Community 2,NA,TRUE,f,f,NA,NA,NA,NA,7,"5,8,7,13,15,14,10,6,11,9,3,4,2,12,1"
14092,commdev-image-keyboard-response,337,1176618,learnblock1,553.9000000003725,img/planet10_right.png,10,Community 2,NA,TRUE,j,j,NA,NA,NA,NA,7,"5,8,7,13,15,14,10,6,11,9,3,4,2,12,1"
14092,commdev-image-keyboard-response,338,1177870,learnblock1,708.2999999998137,img/planet11_left.png,11,Community 2,NA,TRUE,f,f,NA,NA,NA,NA,7,"5,8,7,13,15,14,10,6,11,9,3,4,2,12,1"
14092,commdev-image-keyboard-response,339,1179122,learnblock1,646.2999999998137,img/planet6_right.png,6,Community 2,NA,TRUE,j,j,NA,NA,NA,NA,7,"5,8,7,13,15,14,10,6,11,9,3,4,2,12,1"
14092,commdev-image-keyboard-response,340,1180374,learnblock1,626,img/planet4_left.png,4,Community 3,NA,TRUE,f,f,NA,NA,NA,NA,7,"5,8,7,13,15,14,10,6,11,9,3,4,2,12,1"
14092,commdev-image-keyboard-response,341,1181626,learnblock1,697,img/planet2_left.png,2,Community 3,NA,FALSE,j,f,NA,NA,NA,NA,7,"5,8,7,13,15,14,10,6,11,9,3,4,2,12,1"
14092,commdev-image-keyboard-response,342,1182878,learnblock1,713.2999999998137,img/planet4_right.png,4,Community 3,NA,TRUE,j,j,NA,NA,NA,NA,7,"5,8,7,13,15,14,10,6,11,9,3,4,2,12,1"
14092,commdev-image-keyboard-response,343,1184131,learnblock1,1161.1000000005588,img/planet6_left.png,6,Community 2,NA,TRUE,f,f,NA,NA,NA,NA,7,"5,8,7,13,15,14,10,6,11,9,3,4,2,12,1"
14092,commdev-image-keyboard-response,344,1185382,learnblock1,1118.7999999998137,img/planet9_left.png,9,Community 2,NA,TRUE,f,f,NA,NA,NA,NA,7,"5,8,7,13,15,14,10,6,11,9,3,4,2,12,1"
14092,commdev-image-keyboard-response,345,1186635,learnblock1,543.0999999996275,img/planet10_left.png,10,Community 2,NA,TRUE,f,f,NA,NA,NA,NA,7,"5,8,7,13,15,14,10,6,11,9,3,4,2,12,1"
14092,commdev-image-keyboard-response,346,1187887,learnblock1,899.0999999996275,img/planet11_left.png,11,Community 2,NA,TRUE,f,f,NA,NA,NA,NA,7,"5,8,7,13,15,14,10,6,11,9,3,4,2,12,1"
14092,commdev-image-keyboard-response,347,1189139,learnblock1,1025.7000000001863,img/planet10_right.png,10,Community 2,NA,TRUE,j,j,NA,NA,NA,NA,7,"5,8,7,13,15,14,10,6,11,9,3,4,2,12,1"
14092,commdev-image-keyboard-response,348,1190391,learnblock1,558.3999999994412,img/planet9_left.png,9,Community 2,NA,TRUE,f,f,NA,NA,NA,NA,7,"5,8,7,13,15,14,10,6,11,9,3,4,2,12,1"
14092,commdev-image-keyboard-response,349,1191643,learnblock1,599.6000000005588,img/planet11_right.png,11,Community 2,NA,TRUE,j,j,NA,NA,NA,NA,7,"5,8,7,13,15,14,10,6,11,9,3,4,2,12,1"
14092,commdev-image-keyboard-response,350,1192895,learnblock1,null,img/planet14_right.png,14,Community 2,NA,FALSE,null,j,NA,NA,NA,NA,7,"5,8,7,13,15,14,10,6,11,9,3,4,2,12,1"
14092,commdev-image-keyboard-response,351,1194147,learnblock1,134.79999999981374,img/planet10_left.png,10,Community 2,NA,FALSE,j,f,NA,NA,NA,NA,7,"5,8,7,13,15,14,10,6,11,9,3,4,2,12,1"
14092,commdev-image-keyboard-response,352,1195399,learnblock1,875.5999999996275,img/planet14_right.png,14,Community 2,NA,TRUE,j,j,NA,NA,NA,NA,7,"5,8,7,13,15,14,10,6,11,9,3,4,2,12,1"
14092,commdev-image-keyboard-response,353,1196651,learnblock1,669.9000000003725,img/planet10_left.png,10,Community 2,NA,TRUE,f,f,NA,NA,NA,NA,7,"5,8,7,13,15,14,10,6,11,9,3,4,2,12,1"
14092,commdev-image-keyboard-response,354,1197902,learnblock1,677.7000000001863,img/planet9_right.png,9,Community 2,NA,TRUE,j,j,NA,NA,NA,NA,7,"5,8,7,13,15,14,10,6,11,9,3,4,2,12,1"
14092,commdev-image-keyboard-response,355,1199154,learnblock1,428.90000000037253,img/planet14_right.png,14,Community 2,NA,FALSE,f,j,NA,NA,NA,NA,7,"5,8,7,13,15,14,10,6,11,9,3,4,2,12,1"
14092,commdev-image-keyboard-response,356,1200407,learnblock1,null,img/planet13_left.png,13,Community 1,NA,FALSE,null,f,NA,NA,NA,NA,7,"5,8,7,13,15,14,10,6,11,9,3,4,2,12,1"
14092,commdev-image-keyboard-response,357,1201659,learnblock1,431.29999999981374,img/planet5_left.png,5,Community 1,NA,TRUE,f,f,NA,NA,NA,NA,7,"5,8,7,13,15,14,10,6,11,9,3,4,2,12,1"
14092,commdev-image-keyboard-response,358,1202910,learnblock1,827.9000000003725,img/planet15_right.png,15,Community 1,NA,FALSE,f,j,NA,NA,NA,NA,7,"5,8,7,13,15,14,10,6,11,9,3,4,2,12,1"
14092,commdev-image-keyboard-response,359,1204162,learnblock1,1183.4000000003725,img/planet7_right.png,7,Community 1,NA,FALSE,f,j,NA,NA,NA,NA,7,"5,8,7,13,15,14,10,6,11,9,3,4,2,12,1"
14092,commdev-image-keyboard-response,360,1205414,learnblock1,163.70000000018626,img/planet13_left.png,13,Community 1,NA,FALSE,j,f,NA,NA,NA,NA,7,"5,8,7,13,15,14,10,6,11,9,3,4,2,12,1"
14092,commdev-image-keyboard-response,361,1206666,learnblock1,573.5,img/planet8_left.png,8,Community 1,NA,FALSE,j,f,NA,NA,NA,NA,7,"5,8,7,13,15,14,10,6,11,9,3,4,2,12,1"
14092,commdev-image-keyboard-response,362,1207918,learnblock1,815.2999999998137,img/planet7_left.png,7,Community 1,NA,TRUE,f,f,NA,NA,NA,NA,7,"5,8,7,13,15,14,10,6,11,9,3,4,2,12,1"
14092,commdev-image-keyboard-response,363,1209170,learnblock1,514.5999999996275,img/planet15_left.png,15,Community 1,NA,FALSE,j,f,NA,NA,NA,NA,7,"5,8,7,13,15,14,10,6,11,9,3,4,2,12,1"
14092,commdev-image-keyboard-response,364,1210423,learnblock1,877.7000000001863,img/planet5_left.png,5,Community 1,NA,TRUE,f,f,NA,NA,NA,NA,7,"5,8,7,13,15,14,10,6,11,9,3,4,2,12,1"
14092,commdev-image-keyboard-response,365,1211675,learnblock1,883.6999999992549,img/planet8_right.png,8,Community 1,NA,TRUE,j,j,NA,NA,NA,NA,7,"5,8,7,13,15,14,10,6,11,9,3,4,2,12,1"
14092,commdev-image-keyboard-response,366,1212927,learnblock1,928.3999999994412,img/planet5_left.png,5,Community 1,NA,TRUE,f,f,NA,NA,NA,NA,7,"5,8,7,13,15,14,10,6,11,9,3,4,2,12,1"
14092,commdev-image-keyboard-response,367,1214179,learnblock1,null,img/planet7_left.png,7,Community 1,NA,FALSE,null,f,NA,NA,NA,NA,7,"5,8,7,13,15,14,10,6,11,9,3,4,2,12,1"
14092,commdev-image-keyboard-response,368,1215431,learnblock1,392,img/planet13_left.png,13,Community 1,NA,TRUE,f,f,NA,NA,NA,NA,7,"5,8,7,13,15,14,10,6,11,9,3,4,2,12,1"
14092,commdev-image-keyboard-response,369,1216683,learnblock1,935.7999999998137,img/planet5_right.png,5,Community 1,NA,TRUE,j,j,NA,NA,NA,NA,7,"5,8,7,13,15,14,10,6,11,9,3,4,2,12,1"
14092,commdev-image-keyboard-response,370,1217935,learnblock1,null,img/planet7_left.png,7,Community 1,NA,FALSE,null,f,NA,NA,NA,NA,7,"5,8,7,13,15,14,10,6,11,9,3,4,2,12,1"
14092,commdev-image-keyboard-response,371,1219187,learnblock1,335.6000000005588,img/planet15_right.png,15,Community 1,NA,FALSE,f,j,NA,NA,NA,NA,7,"5,8,7,13,15,14,10,6,11,9,3,4,2,12,1"
14092,commdev-image-keyboard-response,372,1220439,learnblock1,1060.2000000001863,img/planet3_right.png,3,Community 3,NA,TRUE,j,j,NA,NA,NA,NA,7,"5,8,7,13,15,14,10,6,11,9,3,4,2,12,1"
14092,commdev-image-keyboard-response,373,1221691,learnblock1,null,img/planet15_right.png,15,Community 1,NA,FALSE,null,j,NA,NA,NA,NA,7,"5,8,7,13,15,14,10,6,11,9,3,4,2,12,1"
14092,commdev-image-keyboard-response,374,1222943,learnblock1,111.80000000074506,img/planet7_right.png,7,Community 1,NA,TRUE,j,j,NA,NA,NA,NA,7,"5,8,7,13,15,14,10,6,11,9,3,4,2,12,1"
14092,commdev-image-keyboard-response,375,1224195,learnblock1,975.7999999998137,img/planet8_right.png,8,Community 1,NA,TRUE,j,j,NA,NA,NA,NA,7,"5,8,7,13,15,14,10,6,11,9,3,4,2,12,1"
14092,commdev-image-keyboard-response,376,1225447,learnblock1,681.2000000001863,img/planet7_right.png,7,Community 1,NA,TRUE,j,j,NA,NA,NA,NA,7,"5,8,7,13,15,14,10,6,11,9,3,4,2,12,1"
14092,commdev-image-keyboard-response,377,1226698,learnblock1,645.7000000001863,img/planet5_left.png,5,Community 1,NA,TRUE,f,f,NA,NA,NA,NA,7,"5,8,7,13,15,14,10,6,11,9,3,4,2,12,1"
14092,commdev-image-keyboard-response,378,1227951,learnblock1,678.7000000001863,img/planet13_left.png,13,Community 1,NA,TRUE,f,f,NA,NA,NA,NA,7,"5,8,7,13,15,14,10,6,11,9,3,4,2,12,1"
14092,commdev-image-keyboard-response,379,1229203,learnblock1,888.3999999994412,img/planet8_right.png,8,Community 1,NA,TRUE,j,j,NA,NA,NA,NA,7,"5,8,7,13,15,14,10,6,11,9,3,4,2,12,1"
14092,commdev-image-keyboard-response,380,1230455,learnblock1,916.7000000001863,img/planet13_right.png,13,Community 1,NA,FALSE,f,j,NA,NA,NA,NA,7,"5,8,7,13,15,14,10,6,11,9,3,4,2,12,1"
14092,commdev-image-keyboard-response,381,1231707,learnblock1,162.5,img/planet7_left.png,7,Community 1,NA,FALSE,j,f,NA,NA,NA,NA,7,"5,8,7,13,15,14,10,6,11,9,3,4,2,12,1"
14092,commdev-image-keyboard-response,382,1232959,learnblock1,483.19999999925494,img/planet15_left.png,15,Community 1,NA,TRUE,f,f,NA,NA,NA,NA,7,"5,8,7,13,15,14,10,6,11,9,3,4,2,12,1"
14092,commdev-image-keyboard-response,383,1234211,learnblock1,50.200000000186265,img/planet8_right.png,8,Community 1,NA,FALSE,f,j,NA,NA,NA,NA,7,"5,8,7,13,15,14,10,6,11,9,3,4,2,12,1"
14092,commdev-image-keyboard-response,384,1235463,learnblock1,743.3000000007451,img/planet7_right.png,7,Community 1,NA,TRUE,j,j,NA,NA,NA,NA,7,"5,8,7,13,15,14,10,6,11,9,3,4,2,12,1"
14092,commdev-image-keyboard-response,385,1236715,learnblock1,653.7999999998137,img/planet8_left.png,8,Community 1,NA,TRUE,f,f,NA,NA,NA,NA,7,"5,8,7,13,15,14,10,6,11,9,3,4,2,12,1"
14092,commdev-image-keyboard-response,386,1237967,learnblock1,618.5999999996275,img/planet13_right.png,13,Community 1,NA,TRUE,j,j,NA,NA,NA,NA,7,"5,8,7,13,15,14,10,6,11,9,3,4,2,12,1"
14092,commdev-image-keyboard-response,387,1239220,learnblock1,485.6000000005588,img/planet14_left.png,14,Community 2,NA,TRUE,f,f,NA,NA,NA,NA,7,"5,8,7,13,15,14,10,6,11,9,3,4,2,12,1"
14092,commdev-image-keyboard-response,388,1240471,learnblock1,914.5,img/planet11_left.png,11,Community 2,NA,TRUE,f,f,NA,NA,NA,NA,7,"5,8,7,13,15,14,10,6,11,9,3,4,2,12,1"
14092,commdev-image-keyboard-response,389,1241724,learnblock1,724.2999999998137,img/planet6_right.png,6,Community 2,NA,TRUE,j,j,NA,NA,NA,NA,7,"5,8,7,13,15,14,10,6,11,9,3,4,2,12,1"
14092,commdev-image-keyboard-response,390,1242976,learnblock1,649,img/planet10_left.png,10,Community 2,NA,TRUE,f,f,NA,NA,NA,NA,7,"5,8,7,13,15,14,10,6,11,9,3,4,2,12,1"
14092,commdev-image-keyboard-response,391,1244228,learnblock1,611.8999999994412,img/planet6_right.png,6,Community 2,NA,TRUE,j,j,NA,NA,NA,NA,7,"5,8,7,13,15,14,10,6,11,9,3,4,2,12,1"
14092,commdev-image-keyboard-response,392,1245479,learnblock1,491.20000000018626,img/planet11_left.png,11,Community 2,NA,TRUE,f,f,NA,NA,NA,NA,7,"5,8,7,13,15,14,10,6,11,9,3,4,2,12,1"
14092,commdev-image-keyboard-response,393,1246731,learnblock1,407.90000000037253,img/planet14_left.png,14,Community 2,NA,FALSE,j,f,NA,NA,NA,NA,7,"5,8,7,13,15,14,10,6,11,9,3,4,2,12,1"
14092,commdev-image-keyboard-response,394,1247983,learnblock1,1079.7000000001863,img/planet13_right.png,13,Community 1,NA,TRUE,j,j,NA,NA,NA,NA,7,"5,8,7,13,15,14,10,6,11,9,3,4,2,12,1"
14092,commdev-image-keyboard-response,395,1249236,learnblock1,948.3000000007451,img/planet14_right.png,14,Community 2,NA,TRUE,j,j,NA,NA,NA,NA,7,"5,8,7,13,15,14,10,6,11,9,3,4,2,12,1"
14092,commdev-image-keyboard-response,396,1250487,learnblock1,773.5,img/planet10_right.png,10,Community 2,NA,FALSE,f,j,NA,NA,NA,NA,7,"5,8,7,13,15,14,10,6,11,9,3,4,2,12,1"
14092,commdev-image-keyboard-response,397,1251739,learnblock1,642.7999999998137,img/planet6_right.png,6,Community 2,NA,TRUE,j,j,NA,NA,NA,NA,7,"5,8,7,13,15,14,10,6,11,9,3,4,2,12,1"
14092,commdev-image-keyboard-response,398,1252991,learnblock1,927.3000000007451,img/planet11_left.png,11,Community 2,NA,TRUE,f,f,NA,NA,NA,NA,7,"5,8,7,13,15,14,10,6,11,9,3,4,2,12,1"
14092,commdev-image-keyboard-response,399,1254243,learnblock1,799.8999999994412,img/planet6_left.png,6,Community 2,NA,TRUE,f,f,NA,NA,NA,NA,7,"5,8,7,13,15,14,10,6,11,9,3,4,2,12,1"
14092,commdev-image-keyboard-response,400,1255495,learnblock1,981.2999999998137,img/planet10_right.png,10,Community 2,NA,TRUE,j,j,NA,NA,NA,NA,7,"5,8,7,13,15,14,10,6,11,9,3,4,2,12,1"
14092,commdev-image-keyboard-response,401,1256747,learnblock1,694.5999999996275,img/planet9_right.png,9,Community 2,NA,TRUE,j,j,NA,NA,NA,NA,7,"5,8,7,13,15,14,10,6,11,9,3,4,2,12,1"
14092,commdev-image-keyboard-response,402,1257999,learnblock1,884.7999999998137,img/planet11_right.png,11,Community 2,NA,TRUE,j,j,NA,NA,NA,NA,7,"5,8,7,13,15,14,10,6,11,9,3,4,2,12,1"
14092,commdev-image-keyboard-response,403,1259251,learnblock1,1006,img/planet9_left.png,9,Community 2,NA,TRUE,f,f,NA,NA,NA,NA,7,"5,8,7,13,15,14,10,6,11,9,3,4,2,12,1"
14092,commdev-image-keyboard-response,404,1260503,learnblock1,1052.5,img/planet14_left.png,14,Community 2,NA,TRUE,f,f,NA,NA,NA,NA,7,"5,8,7,13,15,14,10,6,11,9,3,4,2,12,1"
14092,commdev-image-keyboard-response,405,1261755,learnblock1,697.9000000003725,img/planet9_right.png,9,Community 2,NA,TRUE,j,j,NA,NA,NA,NA,7,"5,8,7,13,15,14,10,6,11,9,3,4,2,12,1"
14092,commdev-image-keyboard-response,406,1263007,learnblock1,1118.5999999996275,img/planet10_right.png,10,Community 2,NA,TRUE,j,j,NA,NA,NA,NA,7,"5,8,7,13,15,14,10,6,11,9,3,4,2,12,1"
14092,commdev-image-keyboard-response,407,1264259,learnblock1,196.20000000018626,img/planet14_right.png,14,Community 2,NA,TRUE,j,j,NA,NA,NA,NA,7,"5,8,7,13,15,14,10,6,11,9,3,4,2,12,1"
14092,commdev-image-keyboard-response,408,1265511,learnblock1,730.2999999998137,img/planet13_left.png,13,Community 1,NA,TRUE,f,f,NA,NA,NA,NA,7,"5,8,7,13,15,14,10,6,11,9,3,4,2,12,1"
14092,commdev-image-keyboard-response,409,1266763,learnblock1,null,img/planet5_left.png,5,Community 1,NA,FALSE,null,f,NA,NA,NA,NA,7,"5,8,7,13,15,14,10,6,11,9,3,4,2,12,1"
14092,commdev-image-keyboard-response,410,1268016,learnblock1,410.70000000018626,img/planet15_right.png,15,Community 1,NA,FALSE,f,j,NA,NA,NA,NA,7,"5,8,7,13,15,14,10,6,11,9,3,4,2,12,1"
14092,commdev-image-keyboard-response,411,1269268,learnblock1,5.8999999994412065,img/planet5_left.png,5,Community 1,NA,FALSE,j,f,NA,NA,NA,NA,7,"5,8,7,13,15,14,10,6,11,9,3,4,2,12,1"
14092,commdev-image-keyboard-response,412,1270520,learnblock1,837.2999999998137,img/planet15_right.png,15,Community 1,NA,TRUE,j,j,NA,NA,NA,NA,7,"5,8,7,13,15,14,10,6,11,9,3,4,2,12,1"
14092,commdev-image-keyboard-response,413,1271772,learnblock1,838.2000000001863,img/planet7_right.png,7,Community 1,NA,TRUE,j,j,NA,NA,NA,NA,7,"5,8,7,13,15,14,10,6,11,9,3,4,2,12,1"
14092,commdev-image-keyboard-response,414,1273024,learnblock1,604.9000000003725,img/planet15_right.png,15,Community 1,NA,TRUE,j,j,NA,NA,NA,NA,7,"5,8,7,13,15,14,10,6,11,9,3,4,2,12,1"
14092,commdev-image-keyboard-response,415,1274276,learnblock1,623.9000000003725,img/planet5_left.png,5,Community 1,NA,FALSE,j,f,NA,NA,NA,NA,7,"5,8,7,13,15,14,10,6,11,9,3,4,2,12,1"
14092,commdev-image-keyboard-response,416,1275528,learnblock1,497.90000000037253,img/planet13_left.png,13,Community 1,NA,FALSE,j,f,NA,NA,NA,NA,7,"5,8,7,13,15,14,10,6,11,9,3,4,2,12,1"
14092,commdev-image-keyboard-response,417,1276780,learnblock1,693.6000000005588,img/planet5_left.png,5,Community 1,NA,TRUE,f,f,NA,NA,NA,NA,7,"5,8,7,13,15,14,10,6,11,9,3,4,2,12,1"
14092,commdev-image-keyboard-response,418,1278031,learnblock1,613,img/planet8_right.png,8,Community 1,NA,TRUE,j,j,NA,NA,NA,NA,7,"5,8,7,13,15,14,10,6,11,9,3,4,2,12,1"
14092,commdev-image-keyboard-response,419,1279284,learnblock1,751.9000000003725,img/planet5_left.png,5,Community 1,NA,TRUE,f,f,NA,NA,NA,NA,7,"5,8,7,13,15,14,10,6,11,9,3,4,2,12,1"
14092,commdev-image-keyboard-response,420,1280536,learnblock1,771.2000000001863,img/planet13_left.png,13,Community 1,NA,TRUE,f,f,NA,NA,NA,NA,7,"5,8,7,13,15,14,10,6,11,9,3,4,2,12,1"
14092,commdev-image-keyboard-response,421,1281788,learnblock1,593,img/planet5_left.png,5,Community 1,NA,TRUE,f,f,NA,NA,NA,NA,7,"5,8,7,13,15,14,10,6,11,9,3,4,2,12,1"
14092,commdev-image-keyboard-response,422,1283040,learnblock1,617.1999999992549,img/planet8_left.png,8,Community 1,NA,TRUE,f,f,NA,NA,NA,NA,7,"5,8,7,13,15,14,10,6,11,9,3,4,2,12,1"
14092,commdev-image-keyboard-response,423,1284292,learnblock1,730.0999999996275,img/planet13_left.png,13,Community 1,NA,TRUE,f,f,NA,NA,NA,NA,7,"5,8,7,13,15,14,10,6,11,9,3,4,2,12,1"
14092,commdev-image-keyboard-response,424,1285544,learnblock1,896.3000000007451,img/planet7_right.png,7,Community 1,NA,TRUE,j,j,NA,NA,NA,NA,7,"5,8,7,13,15,14,10,6,11,9,3,4,2,12,1"
14092,commdev-image-keyboard-response,425,1286796,learnblock1,797,img/planet5_right.png,5,Community 1,NA,TRUE,j,j,NA,NA,NA,NA,7,"5,8,7,13,15,14,10,6,11,9,3,4,2,12,1"
14092,commdev-image-keyboard-response,426,1288048,learnblock1,996.1000000005588,img/planet15_right.png,15,Community 1,NA,TRUE,j,j,NA,NA,NA,NA,7,"5,8,7,13,15,14,10,6,11,9,3,4,2,12,1"
14092,commdev-image-keyboard-response,427,1289300,learnblock1,838.7999999998137,img/planet5_right.png,5,Community 1,NA,TRUE,j,j,NA,NA,NA,NA,7,"5,8,7,13,15,14,10,6,11,9,3,4,2,12,1"
14092,commdev-image-keyboard-response,428,1290552,learnblock1,730.9000000003725,img/planet8_left.png,8,Community 1,NA,TRUE,f,f,NA,NA,NA,NA,7,"5,8,7,13,15,14,10,6,11,9,3,4,2,12,1"
14092,commdev-image-keyboard-response,429,1291804,learnblock1,845,img/planet5_right.png,5,Community 1,NA,TRUE,j,j,NA,NA,NA,NA,7,"5,8,7,13,15,14,10,6,11,9,3,4,2,12,1"
14092,commdev-image-keyboard-response,430,1293056,learnblock1,963.2999999998137,img/planet7_right.png,7,Community 1,NA,TRUE,j,j,NA,NA,NA,NA,7,"5,8,7,13,15,14,10,6,11,9,3,4,2,12,1"
14092,commdev-image-keyboard-response,431,1294308,learnblock1,997.0999999996275,img/planet15_right.png,15,Community 1,NA,TRUE,j,j,NA,NA,NA,NA,7,"5,8,7,13,15,14,10,6,11,9,3,4,2,12,1"
14092,commdev-image-keyboard-response,432,1295559,learnblock1,812.5999999996275,img/planet5_left.png,5,Community 1,NA,TRUE,f,f,NA,NA,NA,NA,7,"5,8,7,13,15,14,10,6,11,9,3,4,2,12,1"
14092,commdev-image-keyboard-response,433,1296811,learnblock1,1080.7999999998137,img/planet8_left.png,8,Community 1,NA,TRUE,f,f,NA,NA,NA,NA,7,"5,8,7,13,15,14,10,6,11,9,3,4,2,12,1"
14092,commdev-image-keyboard-response,434,1298063,learnblock1,595,img/planet7_right.png,7,Community 1,NA,TRUE,j,j,NA,NA,NA,NA,7,"5,8,7,13,15,14,10,6,11,9,3,4,2,12,1"
14092,commdev-image-keyboard-response,435,1299315,learnblock1,1086.7999999998137,img/planet5_left.png,5,Community 1,NA,FALSE,j,f,NA,NA,NA,NA,7,"5,8,7,13,15,14,10,6,11,9,3,4,2,12,1"
14092,commdev-image-keyboard-response,436,1300567,learnblock1,980.5999999996275,img/planet15_right.png,15,Community 1,NA,TRUE,j,j,NA,NA,NA,NA,7,"5,8,7,13,15,14,10,6,11,9,3,4,2,12,1"
14092,commdev-image-keyboard-response,437,1301819,learnblock1,879.8999999994412,img/planet7_right.png,7,Community 1,NA,FALSE,f,j,NA,NA,NA,NA,7,"5,8,7,13,15,14,10,6,11,9,3,4,2,12,1"
14092,commdev-image-keyboard-response,438,1303071,learnblock1,0.2999999998137355,img/planet5_right.png,5,Community 1,NA,TRUE,j,j,NA,NA,NA,NA,7,"5,8,7,13,15,14,10,6,11,9,3,4,2,12,1"
14092,commdev-image-keyboard-response,439,1304323,learnblock1,851.9000000003725,img/planet7_right.png,7,Community 1,NA,TRUE,j,j,NA,NA,NA,NA,7,"5,8,7,13,15,14,10,6,11,9,3,4,2,12,1"
14092,commdev-image-keyboard-response,440,1305575,learnblock1,664.2999999998137,img/planet5_right.png,5,Community 1,NA,TRUE,j,j,NA,NA,NA,NA,7,"5,8,7,13,15,14,10,6,11,9,3,4,2,12,1"
14092,commdev-image-keyboard-response,441,1306827,learnblock1,887.2000000001863,img/planet15_right.png,15,Community 1,NA,TRUE,j,j,NA,NA,NA,NA,7,"5,8,7,13,15,14,10,6,11,9,3,4,2,12,1"
14092,commdev-image-keyboard-response,442,1308079,learnblock1,716.2000000001863,img/planet5_right.png,5,Community 1,NA,TRUE,j,j,NA,NA,NA,NA,7,"5,8,7,13,15,14,10,6,11,9,3,4,2,12,1"
14092,commdev-image-keyboard-response,443,1309331,learnblock1,1225.5,img/planet7_left.png,7,Community 1,NA,TRUE,f,f,NA,NA,NA,NA,7,"5,8,7,13,15,14,10,6,11,9,3,4,2,12,1"
14092,commdev-image-keyboard-response,444,1310583,learnblock1,893.9000000003725,img/planet5_left.png,5,Community 1,NA,TRUE,f,f,NA,NA,NA,NA,7,"5,8,7,13,15,14,10,6,11,9,3,4,2,12,1"
14092,commdev-image-keyboard-response,445,1311835,learnblock1,623.9000000003725,img/planet7_left.png,7,Community 1,NA,TRUE,f,f,NA,NA,NA,NA,7,"5,8,7,13,15,14,10,6,11,9,3,4,2,12,1"
14092,commdev-image-keyboard-response,446,1313087,learnblock1,489.90000000037253,img/planet5_left.png,5,Community 1,NA,TRUE,f,f,NA,NA,NA,NA,7,"5,8,7,13,15,14,10,6,11,9,3,4,2,12,1"
14092,commdev-image-keyboard-response,447,1314339,learnblock1,263.19999999925494,img/planet13_left.png,13,Community 1,NA,TRUE,f,f,NA,NA,NA,NA,7,"5,8,7,13,15,14,10,6,11,9,3,4,2,12,1"
14092,commdev-image-keyboard-response,451,1448583,learnblock2,649,img/planet9_left.png,9,Community 2,NA,FALSE,j,f,NA,NA,NA,NA,7,"5,8,7,13,15,14,10,6,11,9,3,4,2,12,1"
14092,commdev-image-keyboard-response,452,1449835,learnblock2,586.3999999994412,img/planet10_left.png,10,Community 2,NA,TRUE,f,f,NA,NA,NA,NA,7,"5,8,7,13,15,14,10,6,11,9,3,4,2,12,1"
14092,commdev-image-keyboard-response,453,1451087,learnblock2,464.70000000018626,img/planet14_left.png,14,Community 2,NA,TRUE,f,f,NA,NA,NA,NA,7,"5,8,7,13,15,14,10,6,11,9,3,4,2,12,1"
14092,commdev-image-keyboard-response,454,1452339,learnblock2,655.7999999998137,img/planet9_left.png,9,Community 2,NA,TRUE,f,f,NA,NA,NA,NA,7,"5,8,7,13,15,14,10,6,11,9,3,4,2,12,1"
14092,commdev-image-keyboard-response,455,1453591,learnblock2,694,img/planet11_left.png,11,Community 2,NA,TRUE,f,f,NA,NA,NA,NA,7,"5,8,7,13,15,14,10,6,11,9,3,4,2,12,1"
14092,commdev-image-keyboard-response,456,1454843,learnblock2,539.1000000005588,img/planet6_left.png,6,Community 2,NA,TRUE,f,f,NA,NA,NA,NA,7,"5,8,7,13,15,14,10,6,11,9,3,4,2,12,1"
14092,commdev-image-keyboard-response,457,1456095,learnblock2,744.0999999996275,img/planet9_right.png,9,Community 2,NA,TRUE,j,j,NA,NA,NA,NA,7,"5,8,7,13,15,14,10,6,11,9,3,4,2,12,1"
14092,commdev-image-keyboard-response,458,1457348,learnblock2,616.2999999998137,img/planet11_right.png,11,Community 2,NA,TRUE,j,j,NA,NA,NA,NA,7,"5,8,7,13,15,14,10,6,11,9,3,4,2,12,1"
14092,commdev-image-keyboard-response,459,1458600,learnblock2,729.4000000003725,img/planet14_left.png,14,Community 2,NA,TRUE,f,f,NA,NA,NA,NA,7,"5,8,7,13,15,14,10,6,11,9,3,4,2,12,1"
14092,commdev-image-keyboard-response,460,1459852,learnblock2,582.8999999994412,img/planet13_right.png,13,Community 1,NA,TRUE,j,j,NA,NA,NA,NA,7,"5,8,7,13,15,14,10,6,11,9,3,4,2,12,1"
14092,commdev-image-keyboard-response,461,1461104,learnblock2,1107.2000000001863,img/planet14_right.png,14,Community 2,NA,TRUE,j,j,NA,NA,NA,NA,7,"5,8,7,13,15,14,10,6,11,9,3,4,2,12,1"
14092,commdev-image-keyboard-response,462,1462356,learnblock2,824.3999999994412,img/planet9_right.png,9,Community 2,NA,TRUE,j,j,NA,NA,NA,NA,7,"5,8,7,13,15,14,10,6,11,9,3,4,2,12,1"
14092,commdev-image-keyboard-response,463,1463608,learnblock2,693.2000000001863,img/planet11_left.png,11,Community 2,NA,TRUE,f,f,NA,NA,NA,NA,7,"5,8,7,13,15,14,10,6,11,9,3,4,2,12,1"
14092,commdev-image-keyboard-response,464,1464860,learnblock2,895.3000000007451,img/planet10_left.png,10,Community 2,NA,TRUE,f,f,NA,NA,NA,NA,7,"5,8,7,13,15,14,10,6,11,9,3,4,2,12,1"
14092,commdev-image-keyboard-response,465,1466112,learnblock2,660.6999999992549,img/planet11_right.png,11,Community 2,NA,TRUE,j,j,NA,NA,NA,NA,7,"5,8,7,13,15,14,10,6,11,9,3,4,2,12,1"
14092,commdev-image-keyboard-response,466,1467364,learnblock2,null,img/planet14_right.png,14,Community 2,NA,FALSE,null,j,NA,NA,NA,NA,7,"5,8,7,13,15,14,10,6,11,9,3,4,2,12,1"
14092,commdev-image-keyboard-response,467,1468616,learnblock2,257,img/planet10_left.png,10,Community 2,NA,FALSE,j,f,NA,NA,NA,NA,7,"5,8,7,13,15,14,10,6,11,9,3,4,2,12,1"
14092,commdev-image-keyboard-response,468,1469868,learnblock2,774.7000000001863,img/planet14_left.png,14,Community 2,NA,TRUE,f,f,NA,NA,NA,NA,7,"5,8,7,13,15,14,10,6,11,9,3,4,2,12,1"
14092,commdev-image-keyboard-response,469,1471120,learnblock2,647.9000000003725,img/planet10_left.png,10,Community 2,NA,TRUE,f,f,NA,NA,NA,NA,7,"5,8,7,13,15,14,10,6,11,9,3,4,2,12,1"
14092,commdev-image-keyboard-response,470,1472372,learnblock2,633.0999999996275,img/planet6_right.png,6,Community 2,NA,TRUE,j,j,NA,NA,NA,NA,7,"5,8,7,13,15,14,10,6,11,9,3,4,2,12,1"
14092,commdev-image-keyboard-response,471,1473624,learnblock2,690,img/planet4_left.png,4,Community 3,NA,TRUE,f,f,NA,NA,NA,NA,7,"5,8,7,13,15,14,10,6,11,9,3,4,2,12,1"
14092,commdev-image-keyboard-response,472,1474876,learnblock2,651.5999999996275,img/planet6_left.png,6,Community 2,NA,TRUE,f,f,NA,NA,NA,NA,7,"5,8,7,13,15,14,10,6,11,9,3,4,2,12,1"
14092,commdev-image-keyboard-response,473,1476128,learnblock2,564.7000000001863,img/planet10_left.png,10,Community 2,NA,TRUE,f,f,NA,NA,NA,NA,7,"5,8,7,13,15,14,10,6,11,9,3,4,2,12,1"
14092,commdev-image-keyboard-response,474,1477380,learnblock2,785.2000000001863,img/planet14_left.png,14,Community 2,NA,TRUE,f,f,NA,NA,NA,NA,7,"5,8,7,13,15,14,10,6,11,9,3,4,2,12,1"
14092,commdev-image-keyboard-response,475,1478632,learnblock2,737.5,img/planet13_right.png,13,Community 1,NA,TRUE,j,j,NA,NA,NA,NA,7,"5,8,7,13,15,14,10,6,11,9,3,4,2,12,1"
14092,commdev-image-keyboard-response,476,1479884,learnblock2,906,img/planet8_left.png,8,Community 1,NA,TRUE,f,f,NA,NA,NA,NA,7,"5,8,7,13,15,14,10,6,11,9,3,4,2,12,1"
14092,commdev-image-keyboard-response,477,1481136,learnblock2,null,img/planet13_right.png,13,Community 1,NA,FALSE,null,j,NA,NA,NA,NA,7,"5,8,7,13,15,14,10,6,11,9,3,4,2,12,1"
14092,commdev-image-keyboard-response,478,1482389,learnblock2,173.70000000018626,img/planet8_right.png,8,Community 1,NA,TRUE,j,j,NA,NA,NA,NA,7,"5,8,7,13,15,14,10,6,11,9,3,4,2,12,1"
14092,commdev-image-keyboard-response,479,1483640,learnblock2,883.6999999992549,img/planet13_right.png,13,Community 1,NA,TRUE,j,j,NA,NA,NA,NA,7,"5,8,7,13,15,14,10,6,11,9,3,4,2,12,1"
14092,commdev-image-keyboard-response,480,1484892,learnblock2,911.2999999998137,img/planet8_left.png,8,Community 1,NA,TRUE,f,f,NA,NA,NA,NA,7,"5,8,7,13,15,14,10,6,11,9,3,4,2,12,1"
14092,commdev-image-keyboard-response,481,1486144,learnblock2,1105,img/planet13_left.png,13,Community 1,NA,TRUE,f,f,NA,NA,NA,NA,7,"5,8,7,13,15,14,10,6,11,9,3,4,2,12,1"
14092,commdev-image-keyboard-response,482,1487396,learnblock2,591.5999999996275,img/planet7_left.png,7,Community 1,NA,TRUE,f,f,NA,NA,NA,NA,7,"5,8,7,13,15,14,10,6,11,9,3,4,2,12,1"
14092,commdev-image-keyboard-response,483,1488649,learnblock2,1010.3999999994412,img/planet5_right.png,5,Community 1,NA,TRUE,j,j,NA,NA,NA,NA,7,"5,8,7,13,15,14,10,6,11,9,3,4,2,12,1"
14092,commdev-image-keyboard-response,484,1489901,learnblock2,765.7999999998137,img/planet13_right.png,13,Community 1,NA,TRUE,j,j,NA,NA,NA,NA,7,"5,8,7,13,15,14,10,6,11,9,3,4,2,12,1"
14092,commdev-image-keyboard-response,485,1491153,learnblock2,727.5999999996275,img/planet8_left.png,8,Community 1,NA,TRUE,f,f,NA,NA,NA,NA,7,"5,8,7,13,15,14,10,6,11,9,3,4,2,12,1"
14092,commdev-image-keyboard-response,486,1492404,learnblock2,728.2999999998137,img/planet15_left.png,15,Community 1,NA,TRUE,f,f,NA,NA,NA,NA,7,"5,8,7,13,15,14,10,6,11,9,3,4,2,12,1"
14092,commdev-image-keyboard-response,487,1493656,learnblock2,797.5999999996275,img/planet3_left.png,3,Community 3,NA,TRUE,f,f,NA,NA,NA,NA,7,"5,8,7,13,15,14,10,6,11,9,3,4,2,12,1"
14092,commdev-image-keyboard-response,488,1494908,learnblock2,659.6999999992549,img/planet15_right.png,15,Community 1,NA,TRUE,j,j,NA,NA,NA,NA,7,"5,8,7,13,15,14,10,6,11,9,3,4,2,12,1"
14092,commdev-image-keyboard-response,489,1496160,learnblock2,688.6000000005588,img/planet5_right.png,5,Community 1,NA,TRUE,j,j,NA,NA,NA,NA,7,"5,8,7,13,15,14,10,6,11,9,3,4,2,12,1"
14092,commdev-image-keyboard-response,490,1497413,learnblock2,831.5,img/planet8_left.png,8,Community 1,NA,TRUE,f,f,NA,NA,NA,NA,7,"5,8,7,13,15,14,10,6,11,9,3,4,2,12,1"
14092,commdev-image-keyboard-response,491,1498665,learnblock2,1018.5999999996275,img/planet7_right.png,7,Community 1,NA,TRUE,j,j,NA,NA,NA,NA,7,"5,8,7,13,15,14,10,6,11,9,3,4,2,12,1"
14092,commdev-image-keyboard-response,492,1499917,learnblock2,876.7000000001863,img/planet15_left.png,15,Community 1,NA,TRUE,f,f,NA,NA,NA,NA,7,"5,8,7,13,15,14,10,6,11,9,3,4,2,12,1"
14092,commdev-image-keyboard-response,493,1501169,learnblock2,null,img/planet3_right.png,3,Community 3,NA,FALSE,null,j,NA,NA,NA,NA,7,"5,8,7,13,15,14,10,6,11,9,3,4,2,12,1"
14092,commdev-image-keyboard-response,494,1502420,learnblock2,326.3999999994412,img/planet12_left.png,12,Community 3,NA,FALSE,j,f,NA,NA,NA,NA,7,"5,8,7,13,15,14,10,6,11,9,3,4,2,12,1"
14092,commdev-image-keyboard-response,495,1503673,learnblock2,671.5,img/planet4_left.png,4,Community 3,NA,TRUE,f,f,NA,NA,NA,NA,7,"5,8,7,13,15,14,10,6,11,9,3,4,2,12,1"
14092,commdev-image-keyboard-response,496,1504925,learnblock2,522,img/planet1_left.png,1,Community 3,NA,TRUE,f,f,NA,NA,NA,NA,7,"5,8,7,13,15,14,10,6,11,9,3,4,2,12,1"
14092,commdev-image-keyboard-response,497,1506177,learnblock2,679.2000000001863,img/planet4_left.png,4,Community 3,NA,TRUE,f,f,NA,NA,NA,NA,7,"5,8,7,13,15,14,10,6,11,9,3,4,2,12,1"
14092,commdev-image-keyboard-response,498,1507428,learnblock2,705.2999999998137,img/planet1_left.png,1,Community 3,NA,TRUE,f,f,NA,NA,NA,NA,7,"5,8,7,13,15,14,10,6,11,9,3,4,2,12,1"
14092,commdev-image-keyboard-response,499,1508680,learnblock2,649.5999999996275,img/planet2_left.png,2,Community 3,NA,TRUE,f,f,NA,NA,NA,NA,7,"5,8,7,13,15,14,10,6,11,9,3,4,2,12,1"
14092,commdev-image-keyboard-response,500,1509932,learnblock2,419.3999999994412,img/planet12_left.png,12,Community 3,NA,TRUE,f,f,NA,NA,NA,NA,7,"5,8,7,13,15,14,10,6,11,9,3,4,2,12,1"
14092,commdev-image-keyboard-response,501,1511184,learnblock2,92.79999999981374,img/planet4_left.png,4,Community 3,NA,TRUE,f,f,NA,NA,NA,NA,7,"5,8,7,13,15,14,10,6,11,9,3,4,2,12,1"
14092,commdev-image-keyboard-response,502,1512438,learnblock2,347.1000000005588,img/planet2_right.png,2,Community 3,NA,FALSE,f,j,NA,NA,NA,NA,7,"5,8,7,13,15,14,10,6,11,9,3,4,2,12,1"
14092,commdev-image-keyboard-response,503,1513690,learnblock2,760.7000000001863,img/planet12_left.png,12,Community 3,NA,TRUE,f,f,NA,NA,NA,NA,7,"5,8,7,13,15,14,10,6,11,9,3,4,2,12,1"
14092,commdev-image-keyboard-response,504,1514942,learnblock2,633,img/planet3_left.png,3,Community 3,NA,TRUE,f,f,NA,NA,NA,NA,7,"5,8,7,13,15,14,10,6,11,9,3,4,2,12,1"
14092,commdev-image-keyboard-response,505,1516194,learnblock2,771.7999999998137,img/planet15_left.png,15,Community 1,NA,TRUE,f,f,NA,NA,NA,NA,7,"5,8,7,13,15,14,10,6,11,9,3,4,2,12,1"
14092,commdev-image-keyboard-response,506,1517446,learnblock2,767.3999999994412,img/planet7_left.png,7,Community 1,NA,TRUE,f,f,NA,NA,NA,NA,7,"5,8,7,13,15,14,10,6,11,9,3,4,2,12,1"
14092,commdev-image-keyboard-response,507,1518698,learnblock2,696,img/planet15_right.png,15,Community 1,NA,TRUE,j,j,NA,NA,NA,NA,7,"5,8,7,13,15,14,10,6,11,9,3,4,2,12,1"
14092,commdev-image-keyboard-response,508,1519950,learnblock2,602,img/planet5_left.png,5,Community 1,NA,TRUE,f,f,NA,NA,NA,NA,7,"5,8,7,13,15,14,10,6,11,9,3,4,2,12,1"
14092,commdev-image-keyboard-response,509,1521203,learnblock2,675.7000000001863,img/planet7_right.png,7,Community 1,NA,TRUE,j,j,NA,NA,NA,NA,7,"5,8,7,13,15,14,10,6,11,9,3,4,2,12,1"
14092,commdev-image-keyboard-response,510,1522455,learnblock2,685.2000000001863,img/planet15_left.png,15,Community 1,NA,TRUE,f,f,NA,NA,NA,NA,7,"5,8,7,13,15,14,10,6,11,9,3,4,2,12,1"
14092,commdev-image-keyboard-response,511,1523707,learnblock2,756.7000000001863,img/planet5_right.png,5,Community 1,NA,TRUE,j,j,NA,NA,NA,NA,7,"5,8,7,13,15,14,10,6,11,9,3,4,2,12,1"
14092,commdev-image-keyboard-response,512,1524959,learnblock2,935.1000000005588,img/planet13_right.png,13,Community 1,NA,TRUE,j,j,NA,NA,NA,NA,7,"5,8,7,13,15,14,10,6,11,9,3,4,2,12,1"
14092,commdev-image-keyboard-response,513,1526211,learnblock2,575.5,img/planet8_left.png,8,Community 1,NA,TRUE,f,f,NA,NA,NA,NA,7,"5,8,7,13,15,14,10,6,11,9,3,4,2,12,1"
14092,commdev-image-keyboard-response,514,1527463,learnblock2,953.7999999998137,img/planet5_right.png,5,Community 1,NA,TRUE,j,j,NA,NA,NA,NA,7,"5,8,7,13,15,14,10,6,11,9,3,4,2,12,1"
14092,commdev-image-keyboard-response,515,1528716,learnblock2,775.5,img/planet13_right.png,13,Community 1,NA,TRUE,j,j,NA,NA,NA,NA,7,"5,8,7,13,15,14,10,6,11,9,3,4,2,12,1"
14092,commdev-image-keyboard-response,516,1529968,learnblock2,719.4000000003725,img/planet14_right.png,14,Community 2,NA,TRUE,j,j,NA,NA,NA,NA,7,"5,8,7,13,15,14,10,6,11,9,3,4,2,12,1"
14092,commdev-image-keyboard-response,517,1531220,learnblock2,678.4000000003725,img/planet10_left.png,10,Community 2,NA,TRUE,f,f,NA,NA,NA,NA,7,"5,8,7,13,15,14,10,6,11,9,3,4,2,12,1"
14092,commdev-image-keyboard-response,518,1532472,learnblock2,821.2999999998137,img/planet11_left.png,11,Community 2,NA,TRUE,f,f,NA,NA,NA,NA,7,"5,8,7,13,15,14,10,6,11,9,3,4,2,12,1"
14092,commdev-image-keyboard-response,519,1533724,learnblock2,888.0999999996275,img/planet10_right.png,10,Community 2,NA,TRUE,j,j,NA,NA,NA,NA,7,"5,8,7,13,15,14,10,6,11,9,3,4,2,12,1"
14092,commdev-image-keyboard-response,520,1534976,learnblock2,1118.2000000001863,img/planet11_right.png,11,Community 2,NA,TRUE,j,j,NA,NA,NA,NA,7,"5,8,7,13,15,14,10,6,11,9,3,4,2,12,1"
14092,commdev-image-keyboard-response,521,1536228,learnblock2,1022.1000000005588,img/planet6_left.png,6,Community 2,NA,TRUE,f,f,NA,NA,NA,NA,7,"5,8,7,13,15,14,10,6,11,9,3,4,2,12,1"
14092,commdev-image-keyboard-response,522,1537480,learnblock2,767,img/planet9_right.png,9,Community 2,NA,TRUE,j,j,NA,NA,NA,NA,7,"5,8,7,13,15,14,10,6,11,9,3,4,2,12,1"
14092,commdev-image-keyboard-response,523,1538732,learnblock2,733.7000000001863,img/planet10_left.png,10,Community 2,NA,TRUE,f,f,NA,NA,NA,NA,7,"5,8,7,13,15,14,10,6,11,9,3,4,2,12,1"
14092,commdev-image-keyboard-response,524,1539984,learnblock2,807.8999999994412,img/planet14_left.png,14,Community 2,NA,TRUE,f,f,NA,NA,NA,NA,7,"5,8,7,13,15,14,10,6,11,9,3,4,2,12,1"
14092,commdev-image-keyboard-response,525,1541236,learnblock2,553.1999999992549,img/planet9_right.png,9,Community 2,NA,TRUE,j,j,NA,NA,NA,NA,7,"5,8,7,13,15,14,10,6,11,9,3,4,2,12,1"
14092,commdev-image-keyboard-response,526,1542488,learnblock2,548.7000000001863,img/planet10_left.png,10,Community 2,NA,TRUE,f,f,NA,NA,NA,NA,7,"5,8,7,13,15,14,10,6,11,9,3,4,2,12,1"
14092,commdev-image-keyboard-response,527,1543740,learnblock2,760.6000000005588,img/planet9_left.png,9,Community 2,NA,TRUE,f,f,NA,NA,NA,NA,7,"5,8,7,13,15,14,10,6,11,9,3,4,2,12,1"
14092,commdev-image-keyboard-response,528,1544992,learnblock2,857.2000000001863,img/planet6_right.png,6,Community 2,NA,FALSE,f,j,NA,NA,NA,NA,7,"5,8,7,13,15,14,10,6,11,9,3,4,2,12,1"
14092,commdev-image-keyboard-response,529,1546244,learnblock2,null,img/planet4_right.png,4,Community 3,NA,FALSE,null,j,NA,NA,NA,NA,7,"5,8,7,13,15,14,10,6,11,9,3,4,2,12,1"
14092,commdev-image-keyboard-response,530,1547497,learnblock2,997.2000000001863,img/planet6_left.png,6,Community 2,NA,TRUE,f,f,NA,NA,NA,NA,7,"5,8,7,13,15,14,10,6,11,9,3,4,2,12,1"
14092,commdev-image-keyboard-response,531,1548748,learnblock2,785,img/planet10_left.png,10,Community 2,NA,TRUE,f,f,NA,NA,NA,NA,7,"5,8,7,13,15,14,10,6,11,9,3,4,2,12,1"
14092,commdev-image-keyboard-response,532,1550001,learnblock2,577.7000000001863,img/planet14_right.png,14,Community 2,NA,TRUE,j,j,NA,NA,NA,NA,7,"5,8,7,13,15,14,10,6,11,9,3,4,2,12,1"
14092,commdev-image-keyboard-response,533,1551252,learnblock2,814.5,img/planet13_right.png,13,Community 1,NA,TRUE,j,j,NA,NA,NA,NA,7,"5,8,7,13,15,14,10,6,11,9,3,4,2,12,1"
14092,commdev-image-keyboard-response,534,1552504,learnblock2,611.7999999998137,img/planet7_right.png,7,Community 1,NA,TRUE,j,j,NA,NA,NA,NA,7,"5,8,7,13,15,14,10,6,11,9,3,4,2,12,1"
14092,commdev-image-keyboard-response,535,1553756,learnblock2,620.2999999998137,img/planet5_left.png,5,Community 1,NA,TRUE,f,f,NA,NA,NA,NA,7,"5,8,7,13,15,14,10,6,11,9,3,4,2,12,1"
14092,commdev-image-keyboard-response,536,1555008,learnblock2,883.0999999996275,img/planet7_left.png,7,Community 1,NA,TRUE,f,f,NA,NA,NA,NA,7,"5,8,7,13,15,14,10,6,11,9,3,4,2,12,1"
14092,commdev-image-keyboard-response,537,1556260,learnblock2,712.1999999992549,img/planet15_right.png,15,Community 1,NA,TRUE,j,j,NA,NA,NA,NA,7,"5,8,7,13,15,14,10,6,11,9,3,4,2,12,1"
14092,commdev-image-keyboard-response,538,1557512,learnblock2,814.7000000001863,img/planet3_right.png,3,Community 3,NA,TRUE,j,j,NA,NA,NA,NA,7,"5,8,7,13,15,14,10,6,11,9,3,4,2,12,1"
14092,commdev-image-keyboard-response,539,1558764,learnblock2,978.1999999992549,img/planet2_left.png,2,Community 3,NA,TRUE,f,f,NA,NA,NA,NA,7,"5,8,7,13,15,14,10,6,11,9,3,4,2,12,1"
14092,commdev-image-keyboard-response,540,1560016,learnblock2,855.3999999994412,img/planet3_left.png,3,Community 3,NA,TRUE,f,f,NA,NA,NA,NA,7,"5,8,7,13,15,14,10,6,11,9,3,4,2,12,1"
14092,commdev-image-keyboard-response,541,1561268,learnblock2,772.1000000005588,img/planet2_left.png,2,Community 3,NA,TRUE,f,f,NA,NA,NA,NA,7,"5,8,7,13,15,14,10,6,11,9,3,4,2,12,1"
14092,commdev-image-keyboard-response,542,1562520,learnblock2,576.5,img/planet1_left.png,1,Community 3,NA,TRUE,f,f,NA,NA,NA,NA,7,"5,8,7,13,15,14,10,6,11,9,3,4,2,12,1"
14092,commdev-image-keyboard-response,543,1563772,learnblock2,817.5,img/planet3_right.png,3,Community 3,NA,TRUE,j,j,NA,NA,NA,NA,7,"5,8,7,13,15,14,10,6,11,9,3,4,2,12,1"
14092,commdev-image-keyboard-response,544,1565024,learnblock2,897.7000000001863,img/planet1_left.png,1,Community 3,NA,TRUE,f,f,NA,NA,NA,NA,7,"5,8,7,13,15,14,10,6,11,9,3,4,2,12,1"
14092,commdev-image-keyboard-response,545,1566276,learnblock2,863.7999999998137,img/planet12_right.png,12,Community 3,NA,FALSE,f,j,NA,NA,NA,NA,7,"5,8,7,13,15,14,10,6,11,9,3,4,2,12,1"
14092,commdev-image-keyboard-response,546,1567528,learnblock2,695,img/planet4_right.png,4,Community 3,NA,TRUE,j,j,NA,NA,NA,NA,7,"5,8,7,13,15,14,10,6,11,9,3,4,2,12,1"
14092,commdev-image-keyboard-response,547,1568780,learnblock2,595.3999999994412,img/planet2_right.png,2,Community 3,NA,TRUE,j,j,NA,NA,NA,NA,7,"5,8,7,13,15,14,10,6,11,9,3,4,2,12,1"
14092,commdev-image-keyboard-response,548,1570032,learnblock2,704.1000000005588,img/planet3_right.png,3,Community 3,NA,TRUE,j,j,NA,NA,NA,NA,7,"5,8,7,13,15,14,10,6,11,9,3,4,2,12,1"
14092,commdev-image-keyboard-response,549,1571284,learnblock2,513.2999999998137,img/planet2_right.png,2,Community 3,NA,TRUE,j,j,NA,NA,NA,NA,7,"5,8,7,13,15,14,10,6,11,9,3,4,2,12,1"
14092,commdev-image-keyboard-response,550,1572537,learnblock2,415.90000000037253,img/planet1_right.png,1,Community 3,NA,TRUE,j,j,NA,NA,NA,NA,7,"5,8,7,13,15,14,10,6,11,9,3,4,2,12,1"
14092,commdev-image-keyboard-response,551,1573789,learnblock2,385.20000000018626,img/planet4_left.png,4,Community 3,NA,FALSE,j,f,NA,NA,NA,NA,7,"5,8,7,13,15,14,10,6,11,9,3,4,2,12,1"
14092,commdev-image-keyboard-response,552,1575042,learnblock2,578.6000000005588,img/planet12_left.png,12,Community 3,NA,TRUE,f,f,NA,NA,NA,NA,7,"5,8,7,13,15,14,10,6,11,9,3,4,2,12,1"
14092,commdev-image-keyboard-response,553,1576294,learnblock2,1149.9000000003725,img/planet3_left.png,3,Community 3,NA,TRUE,f,f,NA,NA,NA,NA,7,"5,8,7,13,15,14,10,6,11,9,3,4,2,12,1"
14092,commdev-image-keyboard-response,554,1577546,learnblock2,557.2000000001863,img/planet12_left.png,12,Community 3,NA,TRUE,f,f,NA,NA,NA,NA,7,"5,8,7,13,15,14,10,6,11,9,3,4,2,12,1"
14092,commdev-image-keyboard-response,555,1578799,learnblock2,603.3999999994412,img/planet1_left.png,1,Community 3,NA,TRUE,f,f,NA,NA,NA,NA,7,"5,8,7,13,15,14,10,6,11,9,3,4,2,12,1"
14092,commdev-image-keyboard-response,556,1580051,learnblock2,684.3999999994412,img/planet3_left.png,3,Community 3,NA,TRUE,f,f,NA,NA,NA,NA,7,"5,8,7,13,15,14,10,6,11,9,3,4,2,12,1"
14092,commdev-image-keyboard-response,557,1581303,learnblock2,1111.7000000001863,img/planet15_left.png,15,Community 1,NA,TRUE,f,f,NA,NA,NA,NA,7,"5,8,7,13,15,14,10,6,11,9,3,4,2,12,1"
14092,commdev-image-keyboard-response,558,1582555,learnblock2,831.2000000001863,img/planet5_left.png,5,Community 1,NA,TRUE,f,f,NA,NA,NA,NA,7,"5,8,7,13,15,14,10,6,11,9,3,4,2,12,1"
14092,commdev-image-keyboard-response,559,1583807,learnblock2,756.2999999998137,img/planet13_right.png,13,Community 1,NA,TRUE,j,j,NA,NA,NA,NA,7,"5,8,7,13,15,14,10,6,11,9,3,4,2,12,1"
14092,commdev-image-keyboard-response,560,1585060,learnblock2,583.2999999998137,img/planet14_left.png,14,Community 2,NA,TRUE,f,f,NA,NA,NA,NA,7,"5,8,7,13,15,14,10,6,11,9,3,4,2,12,1"
14092,commdev-image-keyboard-response,561,1586312,learnblock2,442.30000000074506,img/planet13_right.png,13,Community 1,NA,TRUE,j,j,NA,NA,NA,NA,7,"5,8,7,13,15,14,10,6,11,9,3,4,2,12,1"
14092,commdev-image-keyboard-response,562,1587564,learnblock2,null,img/planet5_right.png,5,Community 1,NA,FALSE,null,j,NA,NA,NA,NA,7,"5,8,7,13,15,14,10,6,11,9,3,4,2,12,1"
14092,commdev-image-keyboard-response,563,1588816,learnblock2,null,img/planet13_left.png,13,Community 1,NA,FALSE,null,f,NA,NA,NA,NA,7,"5,8,7,13,15,14,10,6,11,9,3,4,2,12,1"
14092,commdev-image-keyboard-response,564,1590068,learnblock2,522.5,img/planet8_right.png,8,Community 1,NA,TRUE,j,j,NA,NA,NA,NA,7,"5,8,7,13,15,14,10,6,11,9,3,4,2,12,1"
14092,commdev-image-keyboard-response,565,1591320,learnblock2,null,img/planet15_left.png,15,Community 1,NA,FALSE,null,f,NA,NA,NA,NA,7,"5,8,7,13,15,14,10,6,11,9,3,4,2,12,1"
14092,commdev-image-keyboard-response,566,1592572,learnblock2,267,img/planet5_left.png,5,Community 1,NA,FALSE,j,f,NA,NA,NA,NA,7,"5,8,7,13,15,14,10,6,11,9,3,4,2,12,1"
14092,commdev-image-keyboard-response,567,1593824,learnblock2,null,img/planet7_left.png,7,Community 1,NA,FALSE,null,f,NA,NA,NA,NA,7,"5,8,7,13,15,14,10,6,11,9,3,4,2,12,1"
14092,commdev-image-keyboard-response,568,1595076,learnblock2,null,img/planet13_left.png,13,Community 1,NA,FALSE,null,f,NA,NA,NA,NA,7,"5,8,7,13,15,14,10,6,11,9,3,4,2,12,1"
14092,commdev-image-keyboard-response,569,1596328,learnblock2,689,img/planet7_left.png,7,Community 1,NA,FALSE,j,f,NA,NA,NA,NA,7,"5,8,7,13,15,14,10,6,11,9,3,4,2,12,1"
14092,commdev-image-keyboard-response,570,1597580,learnblock2,984.7000000001863,img/planet15_right.png,15,Community 1,NA,TRUE,j,j,NA,NA,NA,NA,7,"5,8,7,13,15,14,10,6,11,9,3,4,2,12,1"
14092,commdev-image-keyboard-response,571,1598832,learnblock2,941.2999999998137,img/planet7_right.png,7,Community 1,NA,TRUE,j,j,NA,NA,NA,NA,7,"5,8,7,13,15,14,10,6,11,9,3,4,2,12,1"
14092,commdev-image-keyboard-response,572,1600084,learnblock2,576.2999999998137,img/planet15_right.png,15,Community 1,NA,TRUE,j,j,NA,NA,NA,NA,7,"5,8,7,13,15,14,10,6,11,9,3,4,2,12,1"
14092,commdev-image-keyboard-response,573,1601336,learnblock2,640,img/planet3_left.png,3,Community 3,NA,FALSE,j,f,NA,NA,NA,NA,7,"5,8,7,13,15,14,10,6,11,9,3,4,2,12,1"
14092,commdev-image-keyboard-response,574,1602588,learnblock2,796.3000000007451,img/planet1_right.png,1,Community 3,NA,TRUE,j,j,NA,NA,NA,NA,7,"5,8,7,13,15,14,10,6,11,9,3,4,2,12,1"
14092,commdev-image-keyboard-response,575,1603840,learnblock2,null,img/planet2_left.png,2,Community 3,NA,FALSE,null,f,NA,NA,NA,NA,7,"5,8,7,13,15,14,10,6,11,9,3,4,2,12,1"
14092,commdev-image-keyboard-response,576,1605092,learnblock2,null,img/planet3_left.png,3,Community 3,NA,FALSE,null,f,NA,NA,NA,NA,7,"5,8,7,13,15,14,10,6,11,9,3,4,2,12,1"
14092,commdev-image-keyboard-response,577,1606344,learnblock2,null,img/planet2_left.png,2,Community 3,NA,FALSE,null,f,NA,NA,NA,NA,7,"5,8,7,13,15,14,10,6,11,9,3,4,2,12,1"
14092,commdev-image-keyboard-response,578,1607596,learnblock2,846.7000000001863,img/planet12_right.png,12,Community 3,NA,TRUE,j,j,NA,NA,NA,NA,7,"5,8,7,13,15,14,10,6,11,9,3,4,2,12,1"
14092,commdev-image-keyboard-response,579,1608848,learnblock2,null,img/planet1_right.png,1,Community 3,NA,FALSE,null,j,NA,NA,NA,NA,7,"5,8,7,13,15,14,10,6,11,9,3,4,2,12,1"
14092,commdev-image-keyboard-response,580,1610100,learnblock2,1102.300000000745,img/planet2_right.png,2,Community 3,NA,TRUE,j,j,NA,NA,NA,NA,7,"5,8,7,13,15,14,10,6,11,9,3,4,2,12,1"
14092,commdev-image-keyboard-response,581,1611353,learnblock2,null,img/planet4_left.png,4,Community 3,NA,FALSE,null,f,NA,NA,NA,NA,7,"5,8,7,13,15,14,10,6,11,9,3,4,2,12,1"
14092,commdev-image-keyboard-response,582,1612605,learnblock2,1040.7000000001863,img/planet6_right.png,6,Community 2,NA,TRUE,j,j,NA,NA,NA,NA,7,"5,8,7,13,15,14,10,6,11,9,3,4,2,12,1"
14092,commdev-image-keyboard-response,583,1613856,learnblock2,null,img/planet4_left.png,4,Community 3,NA,FALSE,null,f,NA,NA,NA,NA,7,"5,8,7,13,15,14,10,6,11,9,3,4,2,12,1"
14092,commdev-image-keyboard-response,584,1615108,learnblock2,1051.699999999255,img/planet12_right.png,12,Community 3,NA,TRUE,j,j,NA,NA,NA,NA,7,"5,8,7,13,15,14,10,6,11,9,3,4,2,12,1"
14092,commdev-image-keyboard-response,585,1616361,learnblock2,null,img/planet1_left.png,1,Community 3,NA,FALSE,null,f,NA,NA,NA,NA,7,"5,8,7,13,15,14,10,6,11,9,3,4,2,12,1"
14092,commdev-image-keyboard-response,586,1617613,learnblock2,611.2000000001863,img/planet2_left.png,2,Community 3,NA,FALSE,j,f,NA,NA,NA,NA,7,"5,8,7,13,15,14,10,6,11,9,3,4,2,12,1"
14092,commdev-image-keyboard-response,587,1618865,learnblock2,null,img/planet1_left.png,1,Community 3,NA,FALSE,null,f,NA,NA,NA,NA,7,"5,8,7,13,15,14,10,6,11,9,3,4,2,12,1"
14092,commdev-image-keyboard-response,588,1620118,learnblock2,null,img/planet4_left.png,4,Community 3,NA,FALSE,null,f,NA,NA,NA,NA,7,"5,8,7,13,15,14,10,6,11,9,3,4,2,12,1"
14092,commdev-image-keyboard-response,589,1621370,learnblock2,null,img/planet1_right.png,1,Community 3,NA,FALSE,null,j,NA,NA,NA,NA,7,"5,8,7,13,15,14,10,6,11,9,3,4,2,12,1"
14092,commdev-image-keyboard-response,590,1622622,learnblock2,null,img/planet4_right.png,4,Community 3,NA,FALSE,null,j,NA,NA,NA,NA,7,"5,8,7,13,15,14,10,6,11,9,3,4,2,12,1"
14092,commdev-image-keyboard-response,591,1623874,learnblock2,36.39999999944121,img/planet1_right.png,1,Community 3,NA,TRUE,j,j,NA,NA,NA,NA,7,"5,8,7,13,15,14,10,6,11,9,3,4,2,12,1"
14092,commdev-image-keyboard-response,592,1625126,learnblock2,157,img/planet4_left.png,4,Community 3,NA,FALSE,j,f,NA,NA,NA,NA,7,"5,8,7,13,15,14,10,6,11,9,3,4,2,12,1"
14092,commdev-image-keyboard-response,593,1626378,learnblock2,547.7999999998137,img/planet2_right.png,2,Community 3,NA,TRUE,j,j,NA,NA,NA,NA,7,"5,8,7,13,15,14,10,6,11,9,3,4,2,12,1"
14092,commdev-image-keyboard-response,594,1627630,learnblock2,null,img/planet1_left.png,1,Community 3,NA,FALSE,null,f,NA,NA,NA,NA,7,"5,8,7,13,15,14,10,6,11,9,3,4,2,12,1"
14092,commdev-image-keyboard-response,595,1628883,learnblock2,687.5999999996275,img/planet12_right.png,12,Community 3,NA,TRUE,j,j,NA,NA,NA,NA,7,"5,8,7,13,15,14,10,6,11,9,3,4,2,12,1"
14092,commdev-image-keyboard-response,596,1630134,learnblock2,761.2000000001863,img/planet3_right.png,3,Community 3,NA,TRUE,j,j,NA,NA,NA,NA,7,"5,8,7,13,15,14,10,6,11,9,3,4,2,12,1"
14092,commdev-image-keyboard-response,597,1631386,learnblock2,null,img/planet1_left.png,1,Community 3,NA,FALSE,null,f,NA,NA,NA,NA,7,"5,8,7,13,15,14,10,6,11,9,3,4,2,12,1"
14092,commdev-image-keyboard-response,598,1632638,learnblock2,722.6999999992549,img/planet2_right.png,2,Community 3,NA,TRUE,j,j,NA,NA,NA,NA,7,"5,8,7,13,15,14,10,6,11,9,3,4,2,12,1"
14092,commdev-image-keyboard-response,599,1633891,learnblock2,null,img/planet12_left.png,12,Community 3,NA,FALSE,null,f,NA,NA,NA,NA,7,"5,8,7,13,15,14,10,6,11,9,3,4,2,12,1"
14092,commdev-image-keyboard-response,600,1635143,learnblock2,630.0999999996275,img/planet3_right.png,3,Community 3,NA,TRUE,j,j,NA,NA,NA,NA,7,"5,8,7,13,15,14,10,6,11,9,3,4,2,12,1"
14092,commdev-image-keyboard-response,601,1636395,learnblock2,927.8999999994412,img/planet15_right.png,15,Community 1,NA,TRUE,j,j,NA,NA,NA,NA,7,"5,8,7,13,15,14,10,6,11,9,3,4,2,12,1"
14092,commdev-image-keyboard-response,602,1637647,learnblock2,1103.9000000003725,img/planet5_right.png,5,Community 1,NA,TRUE,j,j,NA,NA,NA,NA,7,"5,8,7,13,15,14,10,6,11,9,3,4,2,12,1"
14092,commdev-image-keyboard-response,603,1638899,learnblock2,996.8000000007451,img/planet7_left.png,7,Community 1,NA,FALSE,j,f,NA,NA,NA,NA,7,"5,8,7,13,15,14,10,6,11,9,3,4,2,12,1"
14092,commdev-image-keyboard-response,604,1640151,learnblock2,825.0999999996275,img/planet8_right.png,8,Community 1,NA,TRUE,j,j,NA,NA,NA,NA,7,"5,8,7,13,15,14,10,6,11,9,3,4,2,12,1"
14092,commdev-image-keyboard-response,605,1641403,learnblock2,null,img/planet7_left.png,7,Community 1,NA,FALSE,null,f,NA,NA,NA,NA,7,"5,8,7,13,15,14,10,6,11,9,3,4,2,12,1"
14092,commdev-image-keyboard-response,606,1642655,learnblock2,null,img/planet8_left.png,8,Community 1,NA,FALSE,null,f,NA,NA,NA,NA,7,"5,8,7,13,15,14,10,6,11,9,3,4,2,12,1"
14092,commdev-image-keyboard-response,607,1643907,learnblock2,860.7000000001863,img/planet15_right.png,15,Community 1,NA,TRUE,j,j,NA,NA,NA,NA,7,"5,8,7,13,15,14,10,6,11,9,3,4,2,12,1"
14092,commdev-image-keyboard-response,608,1645159,learnblock2,null,img/planet5_left.png,5,Community 1,NA,FALSE,null,f,NA,NA,NA,NA,7,"5,8,7,13,15,14,10,6,11,9,3,4,2,12,1"
14092,commdev-image-keyboard-response,609,1646412,learnblock2,null,img/planet15_left.png,15,Community 1,NA,FALSE,null,f,NA,NA,NA,NA,7,"5,8,7,13,15,14,10,6,11,9,3,4,2,12,1"
14092,commdev-image-keyboard-response,610,1647664,learnblock2,871.1000000005588,img/planet7_right.png,7,Community 1,NA,TRUE,j,j,NA,NA,NA,NA,7,"5,8,7,13,15,14,10,6,11,9,3,4,2,12,1"
14092,commdev-image-keyboard-response,611,1648916,learnblock2,968.5999999996275,img/planet15_right.png,15,Community 1,NA,TRUE,j,j,NA,NA,NA,NA,7,"5,8,7,13,15,14,10,6,11,9,3,4,2,12,1"
14092,commdev-image-keyboard-response,612,1650168,learnblock2,null,img/planet5_left.png,5,Community 1,NA,FALSE,null,f,NA,NA,NA,NA,7,"5,8,7,13,15,14,10,6,11,9,3,4,2,12,1"
14092,commdev-image-keyboard-response,613,1651420,learnblock2,878.2000000001863,img/planet15_left.png,15,Community 1,NA,FALSE,j,f,NA,NA,NA,NA,7,"5,8,7,13,15,14,10,6,11,9,3,4,2,12,1"
14092,commdev-image-keyboard-response,614,1652672,learnblock2,null,img/planet8_right.png,8,Community 1,NA,FALSE,null,j,NA,NA,NA,NA,7,"5,8,7,13,15,14,10,6,11,9,3,4,2,12,1"
14092,commdev-image-keyboard-response,615,1653924,learnblock2,93,img/planet15_right.png,15,Community 1,NA,TRUE,j,j,NA,NA,NA,NA,7,"5,8,7,13,15,14,10,6,11,9,3,4,2,12,1"
14092,commdev-image-keyboard-response,616,1655177,learnblock2,824.7999999998137,img/planet5_right.png,5,Community 1,NA,TRUE,j,j,NA,NA,NA,NA,7,"5,8,7,13,15,14,10,6,11,9,3,4,2,12,1"
14092,commdev-image-keyboard-response,617,1656429,learnblock2,null,img/planet13_left.png,13,Community 1,NA,FALSE,null,f,NA,NA,NA,NA,7,"5,8,7,13,15,14,10,6,11,9,3,4,2,12,1"
14092,commdev-image-keyboard-response,618,1657681,learnblock2,946.2999999998137,img/planet8_right.png,8,Community 1,NA,TRUE,j,j,NA,NA,NA,NA,7,"5,8,7,13,15,14,10,6,11,9,3,4,2,12,1"
14092,commdev-image-keyboard-response,619,1658933,learnblock2,null,img/planet15_right.png,15,Community 1,NA,FALSE,null,j,NA,NA,NA,NA,7,"5,8,7,13,15,14,10,6,11,9,3,4,2,12,1"
14092,commdev-image-keyboard-response,620,1660186,learnblock2,806.8999999994412,img/planet8_right.png,8,Community 1,NA,TRUE,j,j,NA,NA,NA,NA,7,"5,8,7,13,15,14,10,6,11,9,3,4,2,12,1"
14092,commdev-image-keyboard-response,621,1661438,learnblock2,null,img/planet7_left.png,7,Community 1,NA,FALSE,null,f,NA,NA,NA,NA,7,"5,8,7,13,15,14,10,6,11,9,3,4,2,12,1"
14092,commdev-image-keyboard-response,622,1662690,learnblock2,null,img/planet15_left.png,15,Community 1,NA,FALSE,null,f,NA,NA,NA,NA,7,"5,8,7,13,15,14,10,6,11,9,3,4,2,12,1"
14092,commdev-image-keyboard-response,623,1663942,learnblock2,720.9000000003725,img/planet7_right.png,7,Community 1,NA,TRUE,j,j,NA,NA,NA,NA,7,"5,8,7,13,15,14,10,6,11,9,3,4,2,12,1"
14092,commdev-image-keyboard-response,624,1665194,learnblock2,1019.3999999994412,img/planet15_right.png,15,Community 1,NA,TRUE,j,j,NA,NA,NA,NA,7,"5,8,7,13,15,14,10,6,11,9,3,4,2,12,1"
14092,commdev-image-keyboard-response,625,1666446,learnblock2,null,img/planet5_left.png,5,Community 1,NA,FALSE,null,f,NA,NA,NA,NA,7,"5,8,7,13,15,14,10,6,11,9,3,4,2,12,1"
14092,commdev-image-keyboard-response,626,1667698,learnblock2,null,img/planet13_right.png,13,Community 1,NA,FALSE,null,j,NA,NA,NA,NA,7,"5,8,7,13,15,14,10,6,11,9,3,4,2,12,1"
14092,commdev-image-keyboard-response,627,1668950,learnblock2,15,img/planet8_left.png,8,Community 1,NA,FALSE,j,f,NA,NA,NA,NA,7,"5,8,7,13,15,14,10,6,11,9,3,4,2,12,1"
14092,commdev-image-keyboard-response,628,1670202,learnblock2,598.7999999998137,img/planet13_right.png,13,Community 1,NA,TRUE,j,j,NA,NA,NA,NA,7,"5,8,7,13,15,14,10,6,11,9,3,4,2,12,1"
14092,commdev-image-keyboard-response,629,1671455,learnblock2,789.5,img/planet14_right.png,14,Community 2,NA,TRUE,j,j,NA,NA,NA,NA,7,"5,8,7,13,15,14,10,6,11,9,3,4,2,12,1"
14092,commdev-image-keyboard-response,630,1672707,learnblock2,null,img/planet13_left.png,13,Community 1,NA,FALSE,null,f,NA,NA,NA,NA,7,"5,8,7,13,15,14,10,6,11,9,3,4,2,12,1"
14092,commdev-image-keyboard-response,631,1673959,learnblock2,517.7000000001863,img/planet14_right.png,14,Community 2,NA,TRUE,j,j,NA,NA,NA,NA,7,"5,8,7,13,15,14,10,6,11,9,3,4,2,12,1"
14092,commdev-image-keyboard-response,632,1675211,learnblock2,null,img/planet13_left.png,13,Community 1,NA,FALSE,null,f,NA,NA,NA,NA,7,"5,8,7,13,15,14,10,6,11,9,3,4,2,12,1"
14092,commdev-image-keyboard-response,633,1676463,learnblock2,null,img/planet7_left.png,7,Community 1,NA,FALSE,null,f,NA,NA,NA,NA,7,"5,8,7,13,15,14,10,6,11,9,3,4,2,12,1"
14092,commdev-image-keyboard-response,634,1677715,learnblock2,831.3999999994412,img/planet5_right.png,5,Community 1,NA,TRUE,j,j,NA,NA,NA,NA,7,"5,8,7,13,15,14,10,6,11,9,3,4,2,12,1"
14092,commdev-image-keyboard-response,635,1678968,learnblock2,817.7000000001863,img/planet7_right.png,7,Community 1,NA,TRUE,j,j,NA,NA,NA,NA,7,"5,8,7,13,15,14,10,6,11,9,3,4,2,12,1"
14092,commdev-image-keyboard-response,636,1680220,learnblock2,null,img/planet8_left.png,8,Community 1,NA,FALSE,null,f,NA,NA,NA,NA,7,"5,8,7,13,15,14,10,6,11,9,3,4,2,12,1"
14092,commdev-image-keyboard-response,637,1681472,learnblock2,null,img/planet13_left.png,13,Community 1,NA,FALSE,null,f,NA,NA,NA,NA,7,"5,8,7,13,15,14,10,6,11,9,3,4,2,12,1"
14092,commdev-image-keyboard-response,638,1682724,learnblock2,769.2000000001863,img/planet14_right.png,14,Community 2,NA,TRUE,j,j,NA,NA,NA,NA,7,"5,8,7,13,15,14,10,6,11,9,3,4,2,12,1"
14092,commdev-image-keyboard-response,639,1683976,learnblock2,null,img/planet11_left.png,11,Community 2,NA,FALSE,null,f,NA,NA,NA,NA,7,"5,8,7,13,15,14,10,6,11,9,3,4,2,12,1"
14092,commdev-image-keyboard-response,640,1685229,learnblock2,653.5,img/planet14_right.png,14,Community 2,NA,TRUE,j,j,NA,NA,NA,NA,7,"5,8,7,13,15,14,10,6,11,9,3,4,2,12,1"
14092,commdev-image-keyboard-response,641,1686481,learnblock2,666.2999999998137,img/planet13_right.png,13,Community 1,NA,TRUE,j,j,NA,NA,NA,NA,7,"5,8,7,13,15,14,10,6,11,9,3,4,2,12,1"
14092,commdev-image-keyboard-response,642,1687734,learnblock2,null,img/planet8_left.png,8,Community 1,NA,FALSE,null,f,NA,NA,NA,NA,7,"5,8,7,13,15,14,10,6,11,9,3,4,2,12,1"
14092,commdev-image-keyboard-response,643,1688986,learnblock2,null,img/planet13_left.png,13,Community 1,NA,FALSE,null,f,NA,NA,NA,NA,7,"5,8,7,13,15,14,10,6,11,9,3,4,2,12,1"
14092,commdev-image-keyboard-response,644,1690238,learnblock2,668.2999999998137,img/planet8_left.png,8,Community 1,NA,FALSE,j,f,NA,NA,NA,NA,7,"5,8,7,13,15,14,10,6,11,9,3,4,2,12,1"
14092,commdev-image-keyboard-response,645,1691491,learnblock2,null,img/planet5_left.png,5,Community 1,NA,FALSE,null,f,NA,NA,NA,NA,7,"5,8,7,13,15,14,10,6,11,9,3,4,2,12,1"
14092,commdev-image-keyboard-response,646,1692743,learnblock2,null,img/planet15_left.png,15,Community 1,NA,FALSE,null,f,NA,NA,NA,NA,7,"5,8,7,13,15,14,10,6,11,9,3,4,2,12,1"
14092,commdev-image-keyboard-response,647,1693995,learnblock2,676.7999999998137,img/planet3_right.png,3,Community 3,NA,TRUE,j,j,NA,NA,NA,NA,7,"5,8,7,13,15,14,10,6,11,9,3,4,2,12,1"
14092,commdev-image-keyboard-response,648,1695247,learnblock2,657.7999999998137,img/planet2_right.png,2,Community 3,NA,TRUE,j,j,NA,NA,NA,NA,7,"5,8,7,13,15,14,10,6,11,9,3,4,2,12,1"
14092,commdev-image-keyboard-response,649,1696499,learnblock2,618.7000000001863,img/planet12_right.png,12,Community 3,NA,TRUE,j,j,NA,NA,NA,NA,7,"5,8,7,13,15,14,10,6,11,9,3,4,2,12,1"
14092,commdev-image-keyboard-response,650,1697751,learnblock2,null,img/planet3_left.png,3,Community 3,NA,FALSE,null,f,NA,NA,NA,NA,7,"5,8,7,13,15,14,10,6,11,9,3,4,2,12,1"
14092,commdev-image-keyboard-response,651,1699003,learnblock2,752.7000000001863,img/planet15_right.png,15,Community 1,NA,TRUE,j,j,NA,NA,NA,NA,7,"5,8,7,13,15,14,10,6,11,9,3,4,2,12,1"
14092,commdev-image-keyboard-response,652,1700255,learnblock2,null,img/planet8_right.png,8,Community 1,NA,FALSE,null,j,NA,NA,NA,NA,7,"5,8,7,13,15,14,10,6,11,9,3,4,2,12,1"
14092,commdev-image-keyboard-response,653,1701507,learnblock2,53.10000000055879,img/planet5_left.png,5,Community 1,NA,FALSE,j,f,NA,NA,NA,NA,7,"5,8,7,13,15,14,10,6,11,9,3,4,2,12,1"
14092,commdev-image-keyboard-response,654,1702759,learnblock2,892.7999999998137,img/planet8_right.png,8,Community 1,NA,TRUE,j,j,NA,NA,NA,NA,7,"5,8,7,13,15,14,10,6,11,9,3,4,2,12,1"
14092,commdev-image-keyboard-response,655,1704011,learnblock2,1160.1000000005588,img/planet15_right.png,15,Community 1,NA,TRUE,j,j,NA,NA,NA,NA,7,"5,8,7,13,15,14,10,6,11,9,3,4,2,12,1"
14092,commdev-image-keyboard-response,656,1705263,learnblock2,null,img/planet3_right.png,3,Community 3,NA,FALSE,null,j,NA,NA,NA,NA,7,"5,8,7,13,15,14,10,6,11,9,3,4,2,12,1"
14092,commdev-image-keyboard-response,657,1706515,learnblock2,178.09999999962747,img/planet2_left.png,2,Community 3,NA,FALSE,j,f,NA,NA,NA,NA,7,"5,8,7,13,15,14,10,6,11,9,3,4,2,12,1"
14092,commdev-image-keyboard-response,658,1707767,learnblock2,739.5999999996275,img/planet4_right.png,4,Community 3,NA,TRUE,j,j,NA,NA,NA,NA,7,"5,8,7,13,15,14,10,6,11,9,3,4,2,12,1"
14092,commdev-image-keyboard-response,659,1709019,learnblock2,null,img/planet1_left.png,1,Community 3,NA,FALSE,null,f,NA,NA,NA,NA,7,"5,8,7,13,15,14,10,6,11,9,3,4,2,12,1"
14092,commdev-image-keyboard-response,660,1710271,learnblock2,668.5,img/planet3_right.png,3,Community 3,NA,TRUE,j,j,NA,NA,NA,NA,7,"5,8,7,13,15,14,10,6,11,9,3,4,2,12,1"
14092,commdev-image-keyboard-response,661,1711523,learnblock2,null,img/planet1_right.png,1,Community 3,NA,FALSE,null,j,NA,NA,NA,NA,7,"5,8,7,13,15,14,10,6,11,9,3,4,2,12,1"
14092,commdev-image-keyboard-response,662,1712775,learnblock2,10.200000000186265,img/planet12_left.png,12,Community 3,NA,FALSE,j,f,NA,NA,NA,NA,7,"5,8,7,13,15,14,10,6,11,9,3,4,2,12,1"
14092,commdev-image-keyboard-response,663,1714027,learnblock2,null,img/planet4_left.png,4,Community 3,NA,FALSE,null,f,NA,NA,NA,NA,7,"5,8,7,13,15,14,10,6,11,9,3,4,2,12,1"
14092,commdev-image-keyboard-response,664,1715279,learnblock2,null,img/planet1_left.png,1,Community 3,NA,FALSE,null,f,NA,NA,NA,NA,7,"5,8,7,13,15,14,10,6,11,9,3,4,2,12,1"
14092,commdev-image-keyboard-response,665,1716532,learnblock2,null,img/planet12_left.png,12,Community 3,NA,FALSE,null,f,NA,NA,NA,NA,7,"5,8,7,13,15,14,10,6,11,9,3,4,2,12,1"
14092,commdev-image-keyboard-response,666,1717784,learnblock2,715.1000000005588,img/planet4_right.png,4,Community 3,NA,TRUE,j,j,NA,NA,NA,NA,7,"5,8,7,13,15,14,10,6,11,9,3,4,2,12,1"
14092,commdev-image-keyboard-response,667,1719036,learnblock2,674.8000000007451,img/planet6_right.png,6,Community 2,NA,TRUE,j,j,NA,NA,NA,NA,7,"5,8,7,13,15,14,10,6,11,9,3,4,2,12,1"
14092,commdev-image-keyboard-response,668,1720288,learnblock2,null,img/planet9_left.png,9,Community 2,NA,FALSE,null,f,NA,NA,NA,NA,7,"5,8,7,13,15,14,10,6,11,9,3,4,2,12,1"
14092,commdev-image-keyboard-response,669,1721540,learnblock2,585.3999999994412,img/planet6_left.png,6,Community 2,NA,FALSE,j,f,NA,NA,NA,NA,7,"5,8,7,13,15,14,10,6,11,9,3,4,2,12,1"
14092,commdev-image-keyboard-response,670,1722792,learnblock2,665.4000000003725,img/planet4_right.png,4,Community 3,NA,TRUE,j,j,NA,NA,NA,NA,7,"5,8,7,13,15,14,10,6,11,9,3,4,2,12,1"
14092,commdev-image-keyboard-response,671,1724044,learnblock2,949,img/planet1_right.png,1,Community 3,NA,TRUE,j,j,NA,NA,NA,NA,7,"5,8,7,13,15,14,10,6,11,9,3,4,2,12,1"
14092,commdev-image-keyboard-response,672,1725296,learnblock2,null,img/planet12_left.png,12,Community 3,NA,FALSE,null,f,NA,NA,NA,NA,7,"5,8,7,13,15,14,10,6,11,9,3,4,2,12,1"
14092,commdev-image-keyboard-response,673,1726548,learnblock2,null,img/planet2_left.png,2,Community 3,NA,FALSE,null,f,NA,NA,NA,NA,7,"5,8,7,13,15,14,10,6,11,9,3,4,2,12,1"
