subject_id,trial_type,trial_index,time_elapsed,block,rt,stimulus,planet,community,response,correct,key_press,learning_correct_response,parse,init_locations,final_locations,browser_interactions,num_comp,planet_map
14464,commdev-instructions,7,29329,NA,2158.7999999523163,"<p>In this game, you will be shown a 3x3 grid of patterns.</p> <p>The last one in the bottom right-hand corner, <strong>will be missing:</strong></p> <div style='width: 700px;'><div style='float: top;'><img style='width: 200px;' src='practice/p1_M1.png'></img><p class='small'>You need to select<strong> which of the four possible patterns </strong>along the bottom<strong> fits into the gap:</strong></p></div><div style='float: top;'><img style='width: 300px;' src='practice/p1_T1.png'></img></div><br>",NA,NA,NA,NA,NA,NA,NA,NA,NA,1,6,"5,1,4,2,13,6,3,10,12,9,15,14,8,7,11"
14464,commdev-instructions,8,48611,NA,2030.6000001430511,"<p>Try to be as fast and as accurate as you can be.</p> <p>If you cannot solve the puzzle then you should guess - you will not be penalised for an incorrect answer.</p> <p>The task contains a shuffled mix of easy, medium and hard puzzles.</p> <p>You will have <strong>30 seconds</strong> to complete each puzzle.</p><br>",NA,NA,NA,NA,NA,NA,NA,NA,NA,1,6,"5,1,4,2,13,6,3,10,12,9,15,14,8,7,11"
14464,commdev-instructions,15,70279,NA,1121.2999999523163,<p><strong>Success!</strong></p> <p>You seem to be getting the hang of this...</p> <p>Let's move on to the real trials.</p><br>,NA,NA,NA,NA,NA,NA,NA,NA,NA,1,6,"5,1,4,2,13,6,3,10,12,9,15,14,8,7,11"
14464,commdev-instructions,178,472234,NA,1829.3999998569489,"<p>In this game, you are a scientist on board a space shuttle. </p><p> On each mission, you will visit planets all across the universe.</p><img src=""img/controlroom.jpg"" width=300vw>",NA,NA,NA,NA,NA,NA,NA,NA,NA,1,6,"5,1,4,2,13,6,3,10,12,9,15,14,8,7,11"
14464,commdev-instructions,179,476447,NA,2131.100000143051,"<p>Here are a few planets you might see:</p><img src=""img/practice1.png"" width=200vw><img src=""img/practice2.png"" width=200vw><img src=""img/practice3.png"" width=200vw>",NA,NA,NA,NA,NA,NA,NA,NA,NA,1,6,"5,1,4,2,13,6,3,10,12,9,15,14,8,7,11"
14464,commdev-instructions,180,485708,NA,1863.2000000476837,"<p>Your job as a scientist is to record which direction the winds are moving on each planet.</p><p>There are two types of wind directions:</p><img src=""img/practice1_left.png"" width=200vw><img src=""img/practice1_right.png"" width=200vw>",NA,NA,NA,NA,NA,NA,NA,NA,NA,1,6,"5,1,4,2,13,6,3,10,12,9,15,14,8,7,11"
14464,commdev-instructions,181,492234,NA,1637.7000000476837,"<p>If the winds are moving this way, press the letter <strong>F</strong> on the keyboard as fast as you can.</p><img src=""img/leftwind.png"" width=250vw>",NA,NA,NA,NA,NA,NA,NA,NA,NA,1,6,"5,1,4,2,13,6,3,10,12,9,15,14,8,7,11"
14464,commdev-instructions,182,498240,NA,1495.2999999523163,"<p>If the winds are moving this way, press the letter <strong>J</strong> on the keyboard as fast as you can.</p><img src=""img/rightwind.png"" width=350vw>",NA,NA,NA,NA,NA,NA,NA,NA,NA,1,6,"5,1,4,2,13,6,3,10,12,9,15,14,8,7,11"
14464,commdev-instructions,183,504437,NA,1771.7999999523163,<p>You will have 1 second to respond. Try to respond before the time runs out!,NA,NA,NA,NA,NA,NA,NA,NA,NA,1,6,"5,1,4,2,13,6,3,10,12,9,15,14,8,7,11"
14464,commdev-instructions,184,510948,NA,1082.9000000953674,<p>The planets you will visit will look different from each other.</p><p>You should respond <strong>only</strong> based on wind direction.,NA,NA,NA,NA,NA,NA,NA,NA,NA,1,6,"5,1,4,2,13,6,3,10,12,9,15,14,8,7,11"
14464,commdev-instructions,185,518341,NA,2225.2000000476837,"<p> Ready to start the practice round? </p><p> Remember, press <strong>F</strong> or <strong>J</strong> depending on the wind direction.<br><img src=""img/categorize_planet_example.png""",NA,NA,NA,NA,NA,NA,NA,NA,NA,1,6,"5,1,4,2,13,6,3,10,12,9,15,14,8,7,11"
14464,commdev-instructions,195,563188,NA,2339,"<p>Great, now try a short practice mission. </p><p> This time, you will have 1 second to respond and you won't know whether you pressed the right or wrong key for each planet.</p>",NA,NA,NA,NA,NA,NA,NA,NA,NA,1,6,"5,1,4,2,13,6,3,10,12,9,15,14,8,7,11"
14464,commdev-image-keyboard-response,196,564558,practice,549.7999999523163,img/practice4_left.png,NA,Number not found in mappings,NA,TRUE,f,f,NA,NA,NA,1,6,"5,1,4,2,13,6,3,10,12,9,15,14,8,7,11"
14464,commdev-image-keyboard-response,197,565819,practice,564.7000000476837,img/practice1_right.png,NA,Number not found in mappings,NA,TRUE,j,j,NA,NA,NA,1,6,"5,1,4,2,13,6,3,10,12,9,15,14,8,7,11"
14464,commdev-image-keyboard-response,198,567085,practice,526.5,img/practice3_right.png,NA,Number not found in mappings,NA,TRUE,j,j,NA,NA,NA,1,6,"5,1,4,2,13,6,3,10,12,9,15,14,8,7,11"
14464,commdev-image-keyboard-response,199,568349,practice,513.7000000476837,img/practice4_right.png,NA,Number not found in mappings,NA,TRUE,j,j,NA,NA,NA,1,6,"5,1,4,2,13,6,3,10,12,9,15,14,8,7,11"
14464,commdev-image-keyboard-response,200,569616,practice,501.7999999523163,img/practice1_left.png,NA,Number not found in mappings,NA,TRUE,f,f,NA,NA,NA,1,6,"5,1,4,2,13,6,3,10,12,9,15,14,8,7,11"
14464,commdev-image-keyboard-response,201,570879,practice,606.2000000476837,img/practice2_right.png,NA,Number not found in mappings,NA,TRUE,j,j,NA,NA,NA,1,6,"5,1,4,2,13,6,3,10,12,9,15,14,8,7,11"
14464,commdev-image-keyboard-response,202,572138,practice,544,img/practice4_left.png,NA,Number not found in mappings,NA,TRUE,f,f,NA,NA,NA,1,6,"5,1,4,2,13,6,3,10,12,9,15,14,8,7,11"
14464,commdev-image-keyboard-response,203,573395,practice,510.2000000476837,img/practice3_right.png,NA,Number not found in mappings,NA,TRUE,j,j,NA,NA,NA,1,6,"5,1,4,2,13,6,3,10,12,9,15,14,8,7,11"
14464,commdev-instructions,204,584687,NA,1737.9000000953674,"<p>Great job with the practice round.</p><p>During real missions, you won't know whether you pressed the right or wrong key for each planet.</p><p>But between missions, we will tell you how you did overall.</p>",NA,NA,NA,NA,NA,NA,NA,NA,NA,1,6,"5,1,4,2,13,6,3,10,12,9,15,14,8,7,11"
14464,commdev-instructions,205,593776,NA,837.2000000476837,<p>Try your best! You will be paid a bonus based on how many correct responses you make!</p><p>Responses that are too slow will not count toward your bonus.</p>,NA,NA,NA,NA,NA,NA,NA,NA,NA,1,6,"5,1,4,2,13,6,3,10,12,9,15,14,8,7,11"
14464,commdev-instructions,206,601289,NA,1309.0999999046326,"<p>You are almost ready to start the real game.</p><p> First, we are going to ask you some questions about how the game works.</p>",NA,NA,NA,NA,NA,NA,NA,NA,NA,1,6,"5,1,4,2,13,6,3,10,12,9,15,14,8,7,11"
14464,commdev-instructions,215,689065,NA,5775.5,"<p> Nice work! It is now time to start the real game.<p></p>You will go on two missions to record wind directions of different planets.<p></p>Each one will take about 5 minutes. You will get to take a break between missions.<p><p> Remember, press <strong>F</strong> or <strong>J</strong> depending on the wind direction. Good luck!<br><img src=""img/categorize_planet_example.png""",NA,NA,NA,NA,NA,NA,NA,NA,NA,1,6,"5,1,4,2,13,6,3,10,12,9,15,14,8,7,11"
14464,commdev-image-keyboard-response,217,693407,learnblock1,864.6000001430511,img/planet11_right.png,11,Community 3,NA,TRUE,j,j,NA,NA,NA,1,6,"5,1,4,2,13,6,3,10,12,9,15,14,8,7,11"
14464,commdev-image-keyboard-response,218,694673,learnblock1,749,img/planet15_right.png,15,Community 3,NA,TRUE,j,j,NA,NA,NA,1,6,"5,1,4,2,13,6,3,10,12,9,15,14,8,7,11"
14464,commdev-image-keyboard-response,219,695941,learnblock1,619.4000000953674,img/planet11_left.png,11,Community 3,NA,TRUE,f,f,NA,NA,NA,1,6,"5,1,4,2,13,6,3,10,12,9,15,14,8,7,11"
14464,commdev-image-keyboard-response,220,697202,learnblock1,598.9000000953674,img/planet15_left.png,15,Community 3,NA,TRUE,f,f,NA,NA,NA,1,6,"5,1,4,2,13,6,3,10,12,9,15,14,8,7,11"
14464,commdev-image-keyboard-response,221,698470,learnblock1,613.9000000953674,img/planet13_right.png,13,Community 1,NA,TRUE,j,j,NA,NA,NA,1,6,"5,1,4,2,13,6,3,10,12,9,15,14,8,7,11"
14464,commdev-image-keyboard-response,222,699735,learnblock1,893.9000000953674,img/planet15_right.png,15,Community 3,NA,TRUE,j,j,NA,NA,NA,1,6,"5,1,4,2,13,6,3,10,12,9,15,14,8,7,11"
14464,commdev-image-keyboard-response,223,701000,learnblock1,573.1000001430511,img/planet13_left.png,13,Community 1,NA,TRUE,f,f,NA,NA,NA,1,6,"5,1,4,2,13,6,3,10,12,9,15,14,8,7,11"
14464,commdev-image-keyboard-response,224,702263,learnblock1,607.5999999046326,img/planet5_right.png,5,Community 1,NA,TRUE,j,j,NA,NA,NA,1,6,"5,1,4,2,13,6,3,10,12,9,15,14,8,7,11"
14464,commdev-image-keyboard-response,225,703519,learnblock1,621.0999999046326,img/planet2_left.png,2,Community 1,NA,TRUE,f,f,NA,NA,NA,1,6,"5,1,4,2,13,6,3,10,12,9,15,14,8,7,11"
14464,commdev-image-keyboard-response,226,704779,learnblock1,636.9000000953674,img/planet5_right.png,5,Community 1,NA,TRUE,j,j,NA,NA,NA,1,6,"5,1,4,2,13,6,3,10,12,9,15,14,8,7,11"
14464,commdev-image-keyboard-response,227,706043,learnblock1,591,img/planet2_right.png,2,Community 1,NA,TRUE,j,j,NA,NA,NA,1,6,"5,1,4,2,13,6,3,10,12,9,15,14,8,7,11"
14464,commdev-image-keyboard-response,228,707308,learnblock1,674.5,img/planet1_right.png,1,Community 1,NA,TRUE,j,j,NA,NA,NA,1,6,"5,1,4,2,13,6,3,10,12,9,15,14,8,7,11"
14464,commdev-image-keyboard-response,229,708559,learnblock1,527.2000000476837,img/planet2_right.png,2,Community 1,NA,TRUE,j,j,NA,NA,NA,1,6,"5,1,4,2,13,6,3,10,12,9,15,14,8,7,11"
14464,commdev-image-keyboard-response,230,709811,learnblock1,779.3999998569489,img/planet6_right.png,6,Community 2,NA,TRUE,j,j,NA,NA,NA,1,6,"5,1,4,2,13,6,3,10,12,9,15,14,8,7,11"
14464,commdev-image-keyboard-response,231,711076,learnblock1,745.7000000476837,img/planet2_left.png,2,Community 1,NA,TRUE,f,f,NA,NA,NA,1,6,"5,1,4,2,13,6,3,10,12,9,15,14,8,7,11"
14464,commdev-image-keyboard-response,232,712340,learnblock1,688.1000001430511,img/planet4_left.png,4,Community 1,NA,TRUE,f,f,NA,NA,NA,1,6,"5,1,4,2,13,6,3,10,12,9,15,14,8,7,11"
14464,commdev-image-keyboard-response,233,713592,learnblock1,664.5999999046326,img/planet5_left.png,5,Community 1,NA,TRUE,f,f,NA,NA,NA,1,6,"5,1,4,2,13,6,3,10,12,9,15,14,8,7,11"
14464,commdev-image-keyboard-response,234,714844,learnblock1,610.4000000953674,img/planet2_right.png,2,Community 1,NA,TRUE,j,j,NA,NA,NA,1,6,"5,1,4,2,13,6,3,10,12,9,15,14,8,7,11"
14464,commdev-image-keyboard-response,235,716096,learnblock1,708,img/planet1_left.png,1,Community 1,NA,TRUE,f,f,NA,NA,NA,1,6,"5,1,4,2,13,6,3,10,12,9,15,14,8,7,11"
14464,commdev-image-keyboard-response,236,717347,learnblock1,614.2999999523163,img/planet5_left.png,5,Community 1,NA,TRUE,f,f,NA,NA,NA,1,6,"5,1,4,2,13,6,3,10,12,9,15,14,8,7,11"
14464,commdev-image-keyboard-response,237,718599,learnblock1,607.7999999523163,img/planet13_left.png,13,Community 1,NA,TRUE,f,f,NA,NA,NA,1,6,"5,1,4,2,13,6,3,10,12,9,15,14,8,7,11"
14464,commdev-image-keyboard-response,238,719851,learnblock1,626.7000000476837,img/planet15_left.png,15,Community 3,NA,TRUE,f,f,NA,NA,NA,1,6,"5,1,4,2,13,6,3,10,12,9,15,14,8,7,11"
14464,commdev-image-keyboard-response,239,721102,learnblock1,493.7000000476837,img/planet8_right.png,8,Community 3,NA,TRUE,j,j,NA,NA,NA,1,6,"5,1,4,2,13,6,3,10,12,9,15,14,8,7,11"
14464,commdev-image-keyboard-response,240,722353,learnblock1,586.8999998569489,img/planet15_right.png,15,Community 3,NA,TRUE,j,j,NA,NA,NA,1,6,"5,1,4,2,13,6,3,10,12,9,15,14,8,7,11"
14464,commdev-image-keyboard-response,241,723604,learnblock1,539.9000000953674,img/planet7_left.png,7,Community 3,NA,TRUE,f,f,NA,NA,NA,1,6,"5,1,4,2,13,6,3,10,12,9,15,14,8,7,11"
14464,commdev-image-keyboard-response,242,724855,learnblock1,749.5999999046326,img/planet8_left.png,8,Community 3,NA,TRUE,f,f,NA,NA,NA,1,6,"5,1,4,2,13,6,3,10,12,9,15,14,8,7,11"
14464,commdev-image-keyboard-response,243,726106,learnblock1,525,img/planet15_left.png,15,Community 3,NA,TRUE,f,f,NA,NA,NA,1,6,"5,1,4,2,13,6,3,10,12,9,15,14,8,7,11"
14464,commdev-image-keyboard-response,244,727357,learnblock1,643.7999999523163,img/planet8_left.png,8,Community 3,NA,TRUE,f,f,NA,NA,NA,1,6,"5,1,4,2,13,6,3,10,12,9,15,14,8,7,11"
14464,commdev-image-keyboard-response,245,728609,learnblock1,584.2999999523163,img/planet14_right.png,14,Community 3,NA,FALSE,f,j,NA,NA,NA,1,6,"5,1,4,2,13,6,3,10,12,9,15,14,8,7,11"
14464,commdev-image-keyboard-response,246,729861,learnblock1,662.6000001430511,img/planet11_left.png,11,Community 3,NA,TRUE,f,f,NA,NA,NA,1,6,"5,1,4,2,13,6,3,10,12,9,15,14,8,7,11"
14464,commdev-image-keyboard-response,247,731113,learnblock1,709.8999998569489,img/planet8_left.png,8,Community 3,NA,TRUE,f,f,NA,NA,NA,1,6,"5,1,4,2,13,6,3,10,12,9,15,14,8,7,11"
14464,commdev-image-keyboard-response,248,732364,learnblock1,534.8999998569489,img/planet15_left.png,15,Community 3,NA,TRUE,f,f,NA,NA,NA,1,6,"5,1,4,2,13,6,3,10,12,9,15,14,8,7,11"
14464,commdev-image-keyboard-response,249,733617,learnblock1,514.3000001907349,img/planet11_right.png,11,Community 3,NA,TRUE,j,j,NA,NA,NA,1,6,"5,1,4,2,13,6,3,10,12,9,15,14,8,7,11"
14464,commdev-image-keyboard-response,250,734868,learnblock1,627.7999999523163,img/planet7_right.png,7,Community 3,NA,TRUE,j,j,NA,NA,NA,1,6,"5,1,4,2,13,6,3,10,12,9,15,14,8,7,11"
14464,commdev-image-keyboard-response,251,736119,learnblock1,614.3999998569489,img/planet15_left.png,15,Community 3,NA,TRUE,f,f,NA,NA,NA,1,6,"5,1,4,2,13,6,3,10,12,9,15,14,8,7,11"
14464,commdev-image-keyboard-response,252,737370,learnblock1,639.5,img/planet13_left.png,13,Community 1,NA,TRUE,f,f,NA,NA,NA,1,6,"5,1,4,2,13,6,3,10,12,9,15,14,8,7,11"
14464,commdev-image-keyboard-response,253,738622,learnblock1,632.3999998569489,img/planet4_left.png,4,Community 1,NA,TRUE,f,f,NA,NA,NA,1,6,"5,1,4,2,13,6,3,10,12,9,15,14,8,7,11"
14464,commdev-image-keyboard-response,254,739874,learnblock1,431.7000000476837,img/planet13_right.png,13,Community 1,NA,TRUE,j,j,NA,NA,NA,1,6,"5,1,4,2,13,6,3,10,12,9,15,14,8,7,11"
14464,commdev-image-keyboard-response,255,741126,learnblock1,586.2999999523163,img/planet4_left.png,4,Community 1,NA,TRUE,f,f,NA,NA,NA,1,6,"5,1,4,2,13,6,3,10,12,9,15,14,8,7,11"
14464,commdev-image-keyboard-response,256,742377,learnblock1,517.8999998569489,img/planet1_right.png,1,Community 1,NA,TRUE,j,j,NA,NA,NA,1,6,"5,1,4,2,13,6,3,10,12,9,15,14,8,7,11"
14464,commdev-image-keyboard-response,257,743629,learnblock1,722.2000000476837,img/planet5_right.png,5,Community 1,NA,TRUE,j,j,NA,NA,NA,1,6,"5,1,4,2,13,6,3,10,12,9,15,14,8,7,11"
14464,commdev-image-keyboard-response,258,744881,learnblock1,585.1000001430511,img/planet4_left.png,4,Community 1,NA,TRUE,f,f,NA,NA,NA,1,6,"5,1,4,2,13,6,3,10,12,9,15,14,8,7,11"
14464,commdev-image-keyboard-response,259,746134,learnblock1,584.4000000953674,img/planet1_left.png,1,Community 1,NA,TRUE,f,f,NA,NA,NA,1,6,"5,1,4,2,13,6,3,10,12,9,15,14,8,7,11"
14464,commdev-image-keyboard-response,260,747385,learnblock1,781,img/planet4_left.png,4,Community 1,NA,TRUE,f,f,NA,NA,NA,1,6,"5,1,4,2,13,6,3,10,12,9,15,14,8,7,11"
14464,commdev-image-keyboard-response,261,748637,learnblock1,556.2000000476837,img/planet2_left.png,2,Community 1,NA,TRUE,f,f,NA,NA,NA,1,6,"5,1,4,2,13,6,3,10,12,9,15,14,8,7,11"
14464,commdev-image-keyboard-response,262,749889,learnblock1,600.7999999523163,img/planet6_left.png,6,Community 2,NA,FALSE,j,f,NA,NA,NA,1,6,"5,1,4,2,13,6,3,10,12,9,15,14,8,7,11"
14464,commdev-image-keyboard-response,263,751140,learnblock1,532.4000000953674,img/planet3_right.png,3,Community 2,NA,TRUE,j,j,NA,NA,NA,1,6,"5,1,4,2,13,6,3,10,12,9,15,14,8,7,11"
14464,commdev-image-keyboard-response,264,752392,learnblock1,616.2999999523163,img/planet9_right.png,9,Community 2,NA,TRUE,j,j,NA,NA,NA,1,6,"5,1,4,2,13,6,3,10,12,9,15,14,8,7,11"
14464,commdev-image-keyboard-response,265,753643,learnblock1,652.2000000476837,img/planet3_left.png,3,Community 2,NA,TRUE,f,f,NA,NA,NA,1,6,"5,1,4,2,13,6,3,10,12,9,15,14,8,7,11"
14464,commdev-image-keyboard-response,266,754894,learnblock1,641.7999999523163,img/planet12_right.png,12,Community 2,NA,TRUE,j,j,NA,NA,NA,1,6,"5,1,4,2,13,6,3,10,12,9,15,14,8,7,11"
14464,commdev-image-keyboard-response,267,756146,learnblock1,558.6000001430511,img/planet9_right.png,9,Community 2,NA,TRUE,j,j,NA,NA,NA,1,6,"5,1,4,2,13,6,3,10,12,9,15,14,8,7,11"
14464,commdev-image-keyboard-response,268,757398,learnblock1,650.2999999523163,img/planet3_right.png,3,Community 2,NA,TRUE,j,j,NA,NA,NA,1,6,"5,1,4,2,13,6,3,10,12,9,15,14,8,7,11"
14464,commdev-image-keyboard-response,269,758651,learnblock1,467.19999980926514,img/planet12_left.png,12,Community 2,NA,TRUE,f,f,NA,NA,NA,1,6,"5,1,4,2,13,6,3,10,12,9,15,14,8,7,11"
14464,commdev-image-keyboard-response,270,759902,learnblock1,646.7999999523163,img/planet3_right.png,3,Community 2,NA,TRUE,j,j,NA,NA,NA,1,6,"5,1,4,2,13,6,3,10,12,9,15,14,8,7,11"
14464,commdev-image-keyboard-response,271,761153,learnblock1,554.5,img/planet12_left.png,12,Community 2,NA,TRUE,f,f,NA,NA,NA,1,6,"5,1,4,2,13,6,3,10,12,9,15,14,8,7,11"
14464,commdev-image-keyboard-response,272,762405,learnblock1,541.6000001430511,img/planet9_left.png,9,Community 2,NA,TRUE,f,f,NA,NA,NA,1,6,"5,1,4,2,13,6,3,10,12,9,15,14,8,7,11"
14464,commdev-image-keyboard-response,273,763657,learnblock1,426.7000000476837,img/planet10_right.png,10,Community 2,NA,TRUE,j,j,NA,NA,NA,1,6,"5,1,4,2,13,6,3,10,12,9,15,14,8,7,11"
14464,commdev-image-keyboard-response,274,764909,learnblock1,519.7999999523163,img/planet14_left.png,14,Community 3,NA,TRUE,f,f,NA,NA,NA,1,6,"5,1,4,2,13,6,3,10,12,9,15,14,8,7,11"
14464,commdev-image-keyboard-response,275,766170,learnblock1,530.4000000953674,img/planet11_right.png,11,Community 3,NA,TRUE,j,j,NA,NA,NA,1,6,"5,1,4,2,13,6,3,10,12,9,15,14,8,7,11"
14464,commdev-image-keyboard-response,276,767421,learnblock1,431.7000000476837,img/planet15_left.png,15,Community 3,NA,TRUE,f,f,NA,NA,NA,1,6,"5,1,4,2,13,6,3,10,12,9,15,14,8,7,11"
14464,commdev-image-keyboard-response,277,768673,learnblock1,613.5,img/planet7_right.png,7,Community 3,NA,TRUE,j,j,NA,NA,NA,1,6,"5,1,4,2,13,6,3,10,12,9,15,14,8,7,11"
14464,commdev-image-keyboard-response,278,769924,learnblock1,640.1000001430511,img/planet14_left.png,14,Community 3,NA,TRUE,f,f,NA,NA,NA,1,6,"5,1,4,2,13,6,3,10,12,9,15,14,8,7,11"
14464,commdev-image-keyboard-response,279,771175,learnblock1,535,img/planet7_left.png,7,Community 3,NA,TRUE,f,f,NA,NA,NA,1,6,"5,1,4,2,13,6,3,10,12,9,15,14,8,7,11"
14464,commdev-image-keyboard-response,280,772427,learnblock1,689.4000000953674,img/planet8_left.png,8,Community 3,NA,TRUE,f,f,NA,NA,NA,1,6,"5,1,4,2,13,6,3,10,12,9,15,14,8,7,11"
14464,commdev-image-keyboard-response,281,773678,learnblock1,560.0999999046326,img/planet14_right.png,14,Community 3,NA,TRUE,j,j,NA,NA,NA,1,6,"5,1,4,2,13,6,3,10,12,9,15,14,8,7,11"
14464,commdev-image-keyboard-response,282,774930,learnblock1,532.1000001430511,img/planet10_right.png,10,Community 2,NA,TRUE,j,j,NA,NA,NA,1,6,"5,1,4,2,13,6,3,10,12,9,15,14,8,7,11"
14464,commdev-image-keyboard-response,283,776182,learnblock1,580.2999999523163,img/planet9_left.png,9,Community 2,NA,TRUE,f,f,NA,NA,NA,1,6,"5,1,4,2,13,6,3,10,12,9,15,14,8,7,11"
14464,commdev-image-keyboard-response,284,777434,learnblock1,525.2000000476837,img/planet10_right.png,10,Community 2,NA,TRUE,j,j,NA,NA,NA,1,6,"5,1,4,2,13,6,3,10,12,9,15,14,8,7,11"
14464,commdev-image-keyboard-response,285,778685,learnblock1,575.7999999523163,img/planet3_right.png,3,Community 2,NA,TRUE,j,j,NA,NA,NA,1,6,"5,1,4,2,13,6,3,10,12,9,15,14,8,7,11"
14464,commdev-image-keyboard-response,286,779936,learnblock1,524.0999999046326,img/planet6_left.png,6,Community 2,NA,TRUE,f,f,NA,NA,NA,1,6,"5,1,4,2,13,6,3,10,12,9,15,14,8,7,11"
14464,commdev-image-keyboard-response,287,781188,learnblock1,469.2000000476837,img/planet9_right.png,9,Community 2,NA,TRUE,j,j,NA,NA,NA,1,6,"5,1,4,2,13,6,3,10,12,9,15,14,8,7,11"
14464,commdev-image-keyboard-response,288,782440,learnblock1,472.5,img/planet12_left.png,12,Community 2,NA,TRUE,f,f,NA,NA,NA,1,6,"5,1,4,2,13,6,3,10,12,9,15,14,8,7,11"
14464,commdev-image-keyboard-response,289,783692,learnblock1,506.89999985694885,img/planet9_right.png,9,Community 2,NA,TRUE,j,j,NA,NA,NA,1,6,"5,1,4,2,13,6,3,10,12,9,15,14,8,7,11"
14464,commdev-image-keyboard-response,290,784943,learnblock1,611.7000000476837,img/planet6_right.png,6,Community 2,NA,TRUE,j,j,NA,NA,NA,1,6,"5,1,4,2,13,6,3,10,12,9,15,14,8,7,11"
14464,commdev-image-keyboard-response,291,786194,learnblock1,522.8000001907349,img/planet12_right.png,12,Community 2,NA,TRUE,j,j,NA,NA,NA,1,6,"5,1,4,2,13,6,3,10,12,9,15,14,8,7,11"
14464,commdev-image-keyboard-response,292,787445,learnblock1,625.7999999523163,img/planet3_left.png,3,Community 2,NA,TRUE,f,f,NA,NA,NA,1,6,"5,1,4,2,13,6,3,10,12,9,15,14,8,7,11"
14464,commdev-image-keyboard-response,293,788697,learnblock1,631.1000001430511,img/planet6_right.png,6,Community 2,NA,TRUE,j,j,NA,NA,NA,1,6,"5,1,4,2,13,6,3,10,12,9,15,14,8,7,11"
14464,commdev-image-keyboard-response,294,789949,learnblock1,509,img/planet2_right.png,2,Community 1,NA,TRUE,j,j,NA,NA,NA,1,6,"5,1,4,2,13,6,3,10,12,9,15,14,8,7,11"
14464,commdev-image-keyboard-response,295,791201,learnblock1,561.7000000476837,img/planet5_right.png,5,Community 1,NA,TRUE,j,j,NA,NA,NA,1,6,"5,1,4,2,13,6,3,10,12,9,15,14,8,7,11"
14464,commdev-image-keyboard-response,296,792453,learnblock1,551.7000000476837,img/planet2_right.png,2,Community 1,NA,TRUE,j,j,NA,NA,NA,1,6,"5,1,4,2,13,6,3,10,12,9,15,14,8,7,11"
14464,commdev-image-keyboard-response,297,793704,learnblock1,532.9000000953674,img/planet6_left.png,6,Community 2,NA,TRUE,f,f,NA,NA,NA,1,6,"5,1,4,2,13,6,3,10,12,9,15,14,8,7,11"
14464,commdev-image-keyboard-response,298,794955,learnblock1,579.2999999523163,img/planet9_left.png,9,Community 2,NA,TRUE,f,f,NA,NA,NA,1,6,"5,1,4,2,13,6,3,10,12,9,15,14,8,7,11"
14464,commdev-image-keyboard-response,299,796207,learnblock1,591.4000000953674,img/planet6_left.png,6,Community 2,NA,TRUE,f,f,NA,NA,NA,1,6,"5,1,4,2,13,6,3,10,12,9,15,14,8,7,11"
14464,commdev-image-keyboard-response,300,797459,learnblock1,535.3999998569489,img/planet2_left.png,2,Community 1,NA,TRUE,f,f,NA,NA,NA,1,6,"5,1,4,2,13,6,3,10,12,9,15,14,8,7,11"
14464,commdev-image-keyboard-response,301,798711,learnblock1,605.0999999046326,img/planet4_left.png,4,Community 1,NA,TRUE,f,f,NA,NA,NA,1,6,"5,1,4,2,13,6,3,10,12,9,15,14,8,7,11"
14464,commdev-image-keyboard-response,302,799963,learnblock1,543.4000000953674,img/planet1_right.png,1,Community 1,NA,TRUE,j,j,NA,NA,NA,1,6,"5,1,4,2,13,6,3,10,12,9,15,14,8,7,11"
14464,commdev-image-keyboard-response,303,801214,learnblock1,561.9000000953674,img/planet2_left.png,2,Community 1,NA,TRUE,f,f,NA,NA,NA,1,6,"5,1,4,2,13,6,3,10,12,9,15,14,8,7,11"
14464,commdev-image-keyboard-response,304,802466,learnblock1,459.5,img/planet4_right.png,4,Community 1,NA,TRUE,j,j,NA,NA,NA,1,6,"5,1,4,2,13,6,3,10,12,9,15,14,8,7,11"
14464,commdev-image-keyboard-response,305,803717,learnblock1,560.0999999046326,img/planet1_left.png,1,Community 1,NA,TRUE,f,f,NA,NA,NA,1,6,"5,1,4,2,13,6,3,10,12,9,15,14,8,7,11"
14464,commdev-image-keyboard-response,306,804969,learnblock1,465.89999985694885,img/planet2_right.png,2,Community 1,NA,TRUE,j,j,NA,NA,NA,1,6,"5,1,4,2,13,6,3,10,12,9,15,14,8,7,11"
14464,commdev-image-keyboard-response,307,806221,learnblock1,472,img/planet5_left.png,5,Community 1,NA,TRUE,f,f,NA,NA,NA,1,6,"5,1,4,2,13,6,3,10,12,9,15,14,8,7,11"
14464,commdev-image-keyboard-response,308,807474,learnblock1,617,img/planet4_left.png,4,Community 1,NA,TRUE,f,f,NA,NA,NA,1,6,"5,1,4,2,13,6,3,10,12,9,15,14,8,7,11"
14464,commdev-image-keyboard-response,309,808725,learnblock1,560.2000000476837,img/planet5_left.png,5,Community 1,NA,TRUE,f,f,NA,NA,NA,1,6,"5,1,4,2,13,6,3,10,12,9,15,14,8,7,11"
14464,commdev-image-keyboard-response,310,809977,learnblock1,563.2000000476837,img/planet4_left.png,4,Community 1,NA,TRUE,f,f,NA,NA,NA,1,6,"5,1,4,2,13,6,3,10,12,9,15,14,8,7,11"
14464,commdev-image-keyboard-response,311,811228,learnblock1,500.59999990463257,img/planet13_right.png,13,Community 1,NA,TRUE,j,j,NA,NA,NA,1,6,"5,1,4,2,13,6,3,10,12,9,15,14,8,7,11"
14464,commdev-image-keyboard-response,312,812479,learnblock1,482.5,img/planet1_left.png,1,Community 1,NA,TRUE,f,f,NA,NA,NA,1,6,"5,1,4,2,13,6,3,10,12,9,15,14,8,7,11"
14464,commdev-image-keyboard-response,313,813731,learnblock1,580.5,img/planet5_left.png,5,Community 1,NA,TRUE,f,f,NA,NA,NA,1,6,"5,1,4,2,13,6,3,10,12,9,15,14,8,7,11"
14464,commdev-image-keyboard-response,314,814983,learnblock1,494.59999990463257,img/planet13_left.png,13,Community 1,NA,TRUE,f,f,NA,NA,NA,1,6,"5,1,4,2,13,6,3,10,12,9,15,14,8,7,11"
14464,commdev-image-keyboard-response,315,816235,learnblock1,421.60000014305115,img/planet4_right.png,4,Community 1,NA,FALSE,f,j,NA,NA,NA,1,6,"5,1,4,2,13,6,3,10,12,9,15,14,8,7,11"
14464,commdev-image-keyboard-response,316,817486,learnblock1,522.8999998569489,img/planet13_left.png,13,Community 1,NA,TRUE,f,f,NA,NA,NA,1,6,"5,1,4,2,13,6,3,10,12,9,15,14,8,7,11"
14464,commdev-image-keyboard-response,317,818738,learnblock1,665.5,img/planet4_left.png,4,Community 1,NA,TRUE,f,f,NA,NA,NA,1,6,"5,1,4,2,13,6,3,10,12,9,15,14,8,7,11"
14464,commdev-image-keyboard-response,318,819990,learnblock1,608.2999999523163,img/planet2_right.png,2,Community 1,NA,TRUE,j,j,NA,NA,NA,1,6,"5,1,4,2,13,6,3,10,12,9,15,14,8,7,11"
14464,commdev-image-keyboard-response,319,821241,learnblock1,602,img/planet5_right.png,5,Community 1,NA,TRUE,j,j,NA,NA,NA,1,6,"5,1,4,2,13,6,3,10,12,9,15,14,8,7,11"
14464,commdev-image-keyboard-response,320,822492,learnblock1,619.0999999046326,img/planet2_right.png,2,Community 1,NA,TRUE,j,j,NA,NA,NA,1,6,"5,1,4,2,13,6,3,10,12,9,15,14,8,7,11"
14464,commdev-image-keyboard-response,321,823744,learnblock1,484,img/planet1_left.png,1,Community 1,NA,TRUE,f,f,NA,NA,NA,1,6,"5,1,4,2,13,6,3,10,12,9,15,14,8,7,11"
14464,commdev-image-keyboard-response,322,824995,learnblock1,730.5999999046326,img/planet5_right.png,5,Community 1,NA,TRUE,j,j,NA,NA,NA,1,6,"5,1,4,2,13,6,3,10,12,9,15,14,8,7,11"
14464,commdev-image-keyboard-response,323,826246,learnblock1,656,img/planet13_right.png,13,Community 1,NA,TRUE,j,j,NA,NA,NA,1,6,"5,1,4,2,13,6,3,10,12,9,15,14,8,7,11"
14464,commdev-image-keyboard-response,324,827498,learnblock1,522.9000000953674,img/planet1_left.png,1,Community 1,NA,TRUE,f,f,NA,NA,NA,1,6,"5,1,4,2,13,6,3,10,12,9,15,14,8,7,11"
14464,commdev-image-keyboard-response,325,828750,learnblock1,568.5999999046326,img/planet2_left.png,2,Community 1,NA,TRUE,f,f,NA,NA,NA,1,6,"5,1,4,2,13,6,3,10,12,9,15,14,8,7,11"
14464,commdev-image-keyboard-response,326,830002,learnblock1,650.6999998092651,img/planet6_left.png,6,Community 2,NA,TRUE,f,f,NA,NA,NA,1,6,"5,1,4,2,13,6,3,10,12,9,15,14,8,7,11"
14464,commdev-image-keyboard-response,327,831253,learnblock1,460.5,img/planet9_right.png,9,Community 2,NA,TRUE,j,j,NA,NA,NA,1,6,"5,1,4,2,13,6,3,10,12,9,15,14,8,7,11"
14464,commdev-image-keyboard-response,328,832504,learnblock1,557.5999999046326,img/planet10_right.png,10,Community 2,NA,TRUE,j,j,NA,NA,NA,1,6,"5,1,4,2,13,6,3,10,12,9,15,14,8,7,11"
14464,commdev-image-keyboard-response,329,833756,learnblock1,661,img/planet3_right.png,3,Community 2,NA,TRUE,j,j,NA,NA,NA,1,6,"5,1,4,2,13,6,3,10,12,9,15,14,8,7,11"
14464,commdev-image-keyboard-response,330,835008,learnblock1,594.7999999523163,img/planet6_right.png,6,Community 2,NA,TRUE,j,j,NA,NA,NA,1,6,"5,1,4,2,13,6,3,10,12,9,15,14,8,7,11"
14464,commdev-image-keyboard-response,331,836259,learnblock1,497.59999990463257,img/planet12_left.png,12,Community 2,NA,TRUE,f,f,NA,NA,NA,1,6,"5,1,4,2,13,6,3,10,12,9,15,14,8,7,11"
14464,commdev-image-keyboard-response,332,837511,learnblock1,549.0999999046326,img/planet9_right.png,9,Community 2,NA,TRUE,j,j,NA,NA,NA,1,6,"5,1,4,2,13,6,3,10,12,9,15,14,8,7,11"
14464,commdev-image-keyboard-response,333,838762,learnblock1,591.9000000953674,img/planet12_left.png,12,Community 2,NA,TRUE,f,f,NA,NA,NA,1,6,"5,1,4,2,13,6,3,10,12,9,15,14,8,7,11"
14464,commdev-image-keyboard-response,334,840013,learnblock1,463.2999999523163,img/planet10_right.png,10,Community 2,NA,TRUE,j,j,NA,NA,NA,1,6,"5,1,4,2,13,6,3,10,12,9,15,14,8,7,11"
14464,commdev-image-keyboard-response,335,841266,learnblock1,583.5,img/planet12_right.png,12,Community 2,NA,TRUE,j,j,NA,NA,NA,1,6,"5,1,4,2,13,6,3,10,12,9,15,14,8,7,11"
14464,commdev-image-keyboard-response,336,842517,learnblock1,608,img/planet6_left.png,6,Community 2,NA,TRUE,f,f,NA,NA,NA,1,6,"5,1,4,2,13,6,3,10,12,9,15,14,8,7,11"
14464,commdev-image-keyboard-response,337,843768,learnblock1,554.3999998569489,img/planet2_left.png,2,Community 1,NA,TRUE,f,f,NA,NA,NA,1,6,"5,1,4,2,13,6,3,10,12,9,15,14,8,7,11"
14464,commdev-image-keyboard-response,338,845020,learnblock1,539.2999999523163,img/planet5_right.png,5,Community 1,NA,TRUE,j,j,NA,NA,NA,1,6,"5,1,4,2,13,6,3,10,12,9,15,14,8,7,11"
14464,commdev-image-keyboard-response,339,846271,learnblock1,599.9000000953674,img/planet1_left.png,1,Community 1,NA,TRUE,f,f,NA,NA,NA,1,6,"5,1,4,2,13,6,3,10,12,9,15,14,8,7,11"
14464,commdev-image-keyboard-response,340,847522,learnblock1,455.90000009536743,img/planet2_left.png,2,Community 1,NA,FALSE,j,f,NA,NA,NA,1,6,"5,1,4,2,13,6,3,10,12,9,15,14,8,7,11"
14464,commdev-image-keyboard-response,341,848774,learnblock1,399,img/planet4_right.png,4,Community 1,NA,TRUE,j,j,NA,NA,NA,1,6,"5,1,4,2,13,6,3,10,12,9,15,14,8,7,11"
14464,commdev-image-keyboard-response,342,850026,learnblock1,478.19999980926514,img/planet2_left.png,2,Community 1,NA,TRUE,f,f,NA,NA,NA,1,6,"5,1,4,2,13,6,3,10,12,9,15,14,8,7,11"
14464,commdev-image-keyboard-response,343,851278,learnblock1,634.4000000953674,img/planet4_left.png,4,Community 1,NA,TRUE,f,f,NA,NA,NA,1,6,"5,1,4,2,13,6,3,10,12,9,15,14,8,7,11"
14464,commdev-image-keyboard-response,344,852530,learnblock1,919,img/planet5_left.png,5,Community 1,NA,TRUE,f,f,NA,NA,NA,1,6,"5,1,4,2,13,6,3,10,12,9,15,14,8,7,11"
14464,commdev-image-keyboard-response,345,853781,learnblock1,626.5,img/planet13_left.png,13,Community 1,NA,TRUE,f,f,NA,NA,NA,1,6,"5,1,4,2,13,6,3,10,12,9,15,14,8,7,11"
14464,commdev-image-keyboard-response,346,855033,learnblock1,570.7000000476837,img/planet15_left.png,15,Community 3,NA,TRUE,f,f,NA,NA,NA,1,6,"5,1,4,2,13,6,3,10,12,9,15,14,8,7,11"
14464,commdev-image-keyboard-response,347,856285,learnblock1,607.3000001907349,img/planet13_left.png,13,Community 1,NA,TRUE,f,f,NA,NA,NA,1,6,"5,1,4,2,13,6,3,10,12,9,15,14,8,7,11"
14464,commdev-image-keyboard-response,348,857537,learnblock1,493.7999999523163,img/planet15_right.png,15,Community 3,NA,TRUE,j,j,NA,NA,NA,1,6,"5,1,4,2,13,6,3,10,12,9,15,14,8,7,11"
14464,commdev-image-keyboard-response,349,858788,learnblock1,535.2999999523163,img/planet7_right.png,7,Community 3,NA,TRUE,j,j,NA,NA,NA,1,6,"5,1,4,2,13,6,3,10,12,9,15,14,8,7,11"
14464,commdev-image-keyboard-response,350,860040,learnblock1,850.8000001907349,img/planet8_right.png,8,Community 3,NA,TRUE,j,j,NA,NA,NA,1,6,"5,1,4,2,13,6,3,10,12,9,15,14,8,7,11"
14464,commdev-image-keyboard-response,351,861292,learnblock1,562.7000000476837,img/planet7_left.png,7,Community 3,NA,TRUE,f,f,NA,NA,NA,1,6,"5,1,4,2,13,6,3,10,12,9,15,14,8,7,11"
14464,commdev-image-keyboard-response,352,862543,learnblock1,507.2999999523163,img/planet15_right.png,15,Community 3,NA,TRUE,j,j,NA,NA,NA,1,6,"5,1,4,2,13,6,3,10,12,9,15,14,8,7,11"
14464,commdev-image-keyboard-response,353,863796,learnblock1,520.0999999046326,img/planet7_left.png,7,Community 3,NA,TRUE,f,f,NA,NA,NA,1,6,"5,1,4,2,13,6,3,10,12,9,15,14,8,7,11"
14464,commdev-image-keyboard-response,354,865047,learnblock1,630.1000001430511,img/planet14_right.png,14,Community 3,NA,TRUE,j,j,NA,NA,NA,1,6,"5,1,4,2,13,6,3,10,12,9,15,14,8,7,11"
14464,commdev-image-keyboard-response,355,866299,learnblock1,595.0999999046326,img/planet10_right.png,10,Community 2,NA,TRUE,j,j,NA,NA,NA,1,6,"5,1,4,2,13,6,3,10,12,9,15,14,8,7,11"
14464,commdev-image-keyboard-response,356,867551,learnblock1,610.2000000476837,img/planet14_left.png,14,Community 3,NA,TRUE,f,f,NA,NA,NA,1,6,"5,1,4,2,13,6,3,10,12,9,15,14,8,7,11"
14464,commdev-image-keyboard-response,357,868802,learnblock1,514.2000000476837,img/planet7_right.png,7,Community 3,NA,TRUE,j,j,NA,NA,NA,1,6,"5,1,4,2,13,6,3,10,12,9,15,14,8,7,11"
14464,commdev-image-keyboard-response,358,870054,learnblock1,530.7999999523163,img/planet15_right.png,15,Community 3,NA,TRUE,j,j,NA,NA,NA,1,6,"5,1,4,2,13,6,3,10,12,9,15,14,8,7,11"
14464,commdev-image-keyboard-response,359,871306,learnblock1,587.1000001430511,img/planet11_left.png,11,Community 3,NA,TRUE,f,f,NA,NA,NA,1,6,"5,1,4,2,13,6,3,10,12,9,15,14,8,7,11"
14464,commdev-image-keyboard-response,360,872558,learnblock1,756.2000000476837,img/planet15_right.png,15,Community 3,NA,TRUE,j,j,NA,NA,NA,1,6,"5,1,4,2,13,6,3,10,12,9,15,14,8,7,11"
14464,commdev-image-keyboard-response,361,873809,learnblock1,632.7000000476837,img/planet13_left.png,13,Community 1,NA,TRUE,f,f,NA,NA,NA,1,6,"5,1,4,2,13,6,3,10,12,9,15,14,8,7,11"
14464,commdev-image-keyboard-response,362,875062,learnblock1,644.9000000953674,img/planet5_left.png,5,Community 1,NA,TRUE,f,f,NA,NA,NA,1,6,"5,1,4,2,13,6,3,10,12,9,15,14,8,7,11"
14464,commdev-image-keyboard-response,363,876313,learnblock1,510.90000009536743,img/planet2_right.png,2,Community 1,NA,FALSE,f,j,NA,NA,NA,1,6,"5,1,4,2,13,6,3,10,12,9,15,14,8,7,11"
14464,commdev-image-keyboard-response,364,877565,learnblock1,530,img/planet1_left.png,1,Community 1,NA,TRUE,f,f,NA,NA,NA,1,6,"5,1,4,2,13,6,3,10,12,9,15,14,8,7,11"
14464,commdev-image-keyboard-response,365,878817,learnblock1,521.3999998569489,img/planet13_right.png,13,Community 1,NA,TRUE,j,j,NA,NA,NA,1,6,"5,1,4,2,13,6,3,10,12,9,15,14,8,7,11"
14464,commdev-image-keyboard-response,366,880069,learnblock1,518.2000000476837,img/planet4_right.png,4,Community 1,NA,TRUE,j,j,NA,NA,NA,1,6,"5,1,4,2,13,6,3,10,12,9,15,14,8,7,11"
14464,commdev-image-keyboard-response,367,881320,learnblock1,733.9000000953674,img/planet1_right.png,1,Community 1,NA,TRUE,j,j,NA,NA,NA,1,6,"5,1,4,2,13,6,3,10,12,9,15,14,8,7,11"
14464,commdev-image-keyboard-response,368,882572,learnblock1,581.7999999523163,img/planet4_left.png,4,Community 1,NA,TRUE,f,f,NA,NA,NA,1,6,"5,1,4,2,13,6,3,10,12,9,15,14,8,7,11"
14464,commdev-image-keyboard-response,369,883823,learnblock1,511.59999990463257,img/planet2_right.png,2,Community 1,NA,TRUE,j,j,NA,NA,NA,1,6,"5,1,4,2,13,6,3,10,12,9,15,14,8,7,11"
14464,commdev-image-keyboard-response,370,885075,learnblock1,554.7999999523163,img/planet5_left.png,5,Community 1,NA,TRUE,f,f,NA,NA,NA,1,6,"5,1,4,2,13,6,3,10,12,9,15,14,8,7,11"
14464,commdev-image-keyboard-response,371,886326,learnblock1,578.3999998569489,img/planet4_right.png,4,Community 1,NA,TRUE,j,j,NA,NA,NA,1,6,"5,1,4,2,13,6,3,10,12,9,15,14,8,7,11"
14464,commdev-image-keyboard-response,372,887579,learnblock1,463.2000000476837,img/planet2_left.png,2,Community 1,NA,TRUE,f,f,NA,NA,NA,1,6,"5,1,4,2,13,6,3,10,12,9,15,14,8,7,11"
14464,commdev-image-keyboard-response,373,888831,learnblock1,692.5,img/planet6_left.png,6,Community 2,NA,TRUE,f,f,NA,NA,NA,1,6,"5,1,4,2,13,6,3,10,12,9,15,14,8,7,11"
14464,commdev-image-keyboard-response,374,890092,learnblock1,547,img/planet2_left.png,2,Community 1,NA,TRUE,f,f,NA,NA,NA,1,6,"5,1,4,2,13,6,3,10,12,9,15,14,8,7,11"
14464,commdev-image-keyboard-response,375,891344,learnblock1,577.1000001430511,img/planet4_right.png,4,Community 1,NA,TRUE,j,j,NA,NA,NA,1,6,"5,1,4,2,13,6,3,10,12,9,15,14,8,7,11"
14464,commdev-image-keyboard-response,376,892595,learnblock1,490.30000019073486,img/planet13_right.png,13,Community 1,NA,TRUE,j,j,NA,NA,NA,1,6,"5,1,4,2,13,6,3,10,12,9,15,14,8,7,11"
14464,commdev-image-keyboard-response,377,893846,learnblock1,551,img/planet4_left.png,4,Community 1,NA,TRUE,f,f,NA,NA,NA,1,6,"5,1,4,2,13,6,3,10,12,9,15,14,8,7,11"
14464,commdev-image-keyboard-response,378,895099,learnblock1,597.0999999046326,img/planet2_left.png,2,Community 1,NA,TRUE,f,f,NA,NA,NA,1,6,"5,1,4,2,13,6,3,10,12,9,15,14,8,7,11"
14464,commdev-image-keyboard-response,379,896351,learnblock1,722.7000000476837,img/planet1_left.png,1,Community 1,NA,TRUE,f,f,NA,NA,NA,1,6,"5,1,4,2,13,6,3,10,12,9,15,14,8,7,11"
14464,commdev-image-keyboard-response,380,897603,learnblock1,517.2000000476837,img/planet4_left.png,4,Community 1,NA,TRUE,f,f,NA,NA,NA,1,6,"5,1,4,2,13,6,3,10,12,9,15,14,8,7,11"
14464,commdev-image-keyboard-response,381,898854,learnblock1,480.89999985694885,img/planet1_right.png,1,Community 1,NA,TRUE,j,j,NA,NA,NA,1,6,"5,1,4,2,13,6,3,10,12,9,15,14,8,7,11"
14464,commdev-image-keyboard-response,382,900106,learnblock1,526.4000000953674,img/planet2_right.png,2,Community 1,NA,TRUE,j,j,NA,NA,NA,1,6,"5,1,4,2,13,6,3,10,12,9,15,14,8,7,11"
14464,commdev-image-keyboard-response,383,901357,learnblock1,628.5,img/planet6_left.png,6,Community 2,NA,TRUE,f,f,NA,NA,NA,1,6,"5,1,4,2,13,6,3,10,12,9,15,14,8,7,11"
14464,commdev-image-keyboard-response,384,902608,learnblock1,497.60000014305115,img/planet2_left.png,2,Community 1,NA,TRUE,f,f,NA,NA,NA,1,6,"5,1,4,2,13,6,3,10,12,9,15,14,8,7,11"
14464,commdev-image-keyboard-response,385,903860,learnblock1,631.4000000953674,img/planet6_left.png,6,Community 2,NA,TRUE,f,f,NA,NA,NA,1,6,"5,1,4,2,13,6,3,10,12,9,15,14,8,7,11"
14464,commdev-image-keyboard-response,386,905111,learnblock1,880.2000000476837,img/planet3_left.png,3,Community 2,NA,TRUE,f,f,NA,NA,NA,1,6,"5,1,4,2,13,6,3,10,12,9,15,14,8,7,11"
14464,commdev-image-keyboard-response,387,906365,learnblock1,737.5,img/planet10_right.png,10,Community 2,NA,TRUE,j,j,NA,NA,NA,1,6,"5,1,4,2,13,6,3,10,12,9,15,14,8,7,11"
14464,commdev-image-keyboard-response,388,907616,learnblock1,764.0999999046326,img/planet14_right.png,14,Community 3,NA,TRUE,j,j,NA,NA,NA,1,6,"5,1,4,2,13,6,3,10,12,9,15,14,8,7,11"
14464,commdev-image-keyboard-response,389,908868,learnblock1,649.7000000476837,img/planet7_right.png,7,Community 3,NA,TRUE,j,j,NA,NA,NA,1,6,"5,1,4,2,13,6,3,10,12,9,15,14,8,7,11"
14464,commdev-image-keyboard-response,390,910119,learnblock1,640.4000000953674,img/planet15_right.png,15,Community 3,NA,TRUE,j,j,NA,NA,NA,1,6,"5,1,4,2,13,6,3,10,12,9,15,14,8,7,11"
14464,commdev-image-keyboard-response,391,911371,learnblock1,562.5,img/planet13_left.png,13,Community 1,NA,TRUE,f,f,NA,NA,NA,1,6,"5,1,4,2,13,6,3,10,12,9,15,14,8,7,11"
14464,commdev-image-keyboard-response,392,912631,learnblock1,566.1000001430511,img/planet5_left.png,5,Community 1,NA,TRUE,f,f,NA,NA,NA,1,6,"5,1,4,2,13,6,3,10,12,9,15,14,8,7,11"
14464,commdev-image-keyboard-response,393,913882,learnblock1,636.9000000953674,img/planet13_right.png,13,Community 1,NA,TRUE,j,j,NA,NA,NA,1,6,"5,1,4,2,13,6,3,10,12,9,15,14,8,7,11"
14464,commdev-image-keyboard-response,394,915134,learnblock1,649.5,img/planet15_right.png,15,Community 3,NA,TRUE,j,j,NA,NA,NA,1,6,"5,1,4,2,13,6,3,10,12,9,15,14,8,7,11"
14464,commdev-image-keyboard-response,395,916385,learnblock1,570.4000000953674,img/planet13_right.png,13,Community 1,NA,TRUE,j,j,NA,NA,NA,1,6,"5,1,4,2,13,6,3,10,12,9,15,14,8,7,11"
14464,commdev-image-keyboard-response,396,917637,learnblock1,618,img/planet1_left.png,1,Community 1,NA,TRUE,f,f,NA,NA,NA,1,6,"5,1,4,2,13,6,3,10,12,9,15,14,8,7,11"
14464,commdev-image-keyboard-response,397,918889,learnblock1,541.2999999523163,img/planet2_right.png,2,Community 1,NA,TRUE,j,j,NA,NA,NA,1,6,"5,1,4,2,13,6,3,10,12,9,15,14,8,7,11"
14464,commdev-image-keyboard-response,398,920141,learnblock1,582.6000001430511,img/planet6_right.png,6,Community 2,NA,TRUE,j,j,NA,NA,NA,1,6,"5,1,4,2,13,6,3,10,12,9,15,14,8,7,11"
14464,commdev-image-keyboard-response,399,921392,learnblock1,578.3999998569489,img/planet9_right.png,9,Community 2,NA,TRUE,j,j,NA,NA,NA,1,6,"5,1,4,2,13,6,3,10,12,9,15,14,8,7,11"
14464,commdev-image-keyboard-response,400,922643,learnblock1,600,img/planet10_right.png,10,Community 2,NA,TRUE,j,j,NA,NA,NA,1,6,"5,1,4,2,13,6,3,10,12,9,15,14,8,7,11"
14464,commdev-image-keyboard-response,401,923895,learnblock1,824.5,img/planet3_right.png,3,Community 2,NA,TRUE,j,j,NA,NA,NA,1,6,"5,1,4,2,13,6,3,10,12,9,15,14,8,7,11"
14464,commdev-image-keyboard-response,402,925146,learnblock1,483.59999990463257,img/planet12_left.png,12,Community 2,NA,TRUE,f,f,NA,NA,NA,1,6,"5,1,4,2,13,6,3,10,12,9,15,14,8,7,11"
14464,commdev-image-keyboard-response,403,926398,learnblock1,612.6999998092651,img/planet9_right.png,9,Community 2,NA,TRUE,j,j,NA,NA,NA,1,6,"5,1,4,2,13,6,3,10,12,9,15,14,8,7,11"
14464,commdev-image-keyboard-response,404,927651,learnblock1,568,img/planet6_right.png,6,Community 2,NA,TRUE,j,j,NA,NA,NA,1,6,"5,1,4,2,13,6,3,10,12,9,15,14,8,7,11"
14464,commdev-image-keyboard-response,405,928903,learnblock1,588.2999999523163,img/planet9_right.png,9,Community 2,NA,TRUE,j,j,NA,NA,NA,1,6,"5,1,4,2,13,6,3,10,12,9,15,14,8,7,11"
14464,commdev-image-keyboard-response,406,930155,learnblock1,583.7000000476837,img/planet6_right.png,6,Community 2,NA,TRUE,j,j,NA,NA,NA,1,6,"5,1,4,2,13,6,3,10,12,9,15,14,8,7,11"
14464,commdev-image-keyboard-response,407,931407,learnblock1,451.39999985694885,img/planet9_left.png,9,Community 2,NA,TRUE,f,f,NA,NA,NA,1,6,"5,1,4,2,13,6,3,10,12,9,15,14,8,7,11"
14464,commdev-image-keyboard-response,408,932659,learnblock1,628.7999999523163,img/planet12_right.png,12,Community 2,NA,TRUE,j,j,NA,NA,NA,1,6,"5,1,4,2,13,6,3,10,12,9,15,14,8,7,11"
14464,commdev-image-keyboard-response,409,933910,learnblock1,563.5,img/planet10_right.png,10,Community 2,NA,TRUE,j,j,NA,NA,NA,1,6,"5,1,4,2,13,6,3,10,12,9,15,14,8,7,11"
14464,commdev-image-keyboard-response,410,935162,learnblock1,435.80000019073486,img/planet12_left.png,12,Community 2,NA,TRUE,f,f,NA,NA,NA,1,6,"5,1,4,2,13,6,3,10,12,9,15,14,8,7,11"
14464,commdev-image-keyboard-response,411,936413,learnblock1,478.89999985694885,img/planet6_right.png,6,Community 2,NA,TRUE,j,j,NA,NA,NA,1,6,"5,1,4,2,13,6,3,10,12,9,15,14,8,7,11"
14464,commdev-image-keyboard-response,412,937666,learnblock1,705.3000001907349,img/planet3_right.png,3,Community 2,NA,TRUE,j,j,NA,NA,NA,1,6,"5,1,4,2,13,6,3,10,12,9,15,14,8,7,11"
14464,commdev-image-keyboard-response,413,938918,learnblock1,637.7000000476837,img/planet6_right.png,6,Community 2,NA,TRUE,j,j,NA,NA,NA,1,6,"5,1,4,2,13,6,3,10,12,9,15,14,8,7,11"
14464,commdev-image-keyboard-response,414,940171,learnblock1,777.4000000953674,img/planet3_right.png,3,Community 2,NA,TRUE,j,j,NA,NA,NA,1,6,"5,1,4,2,13,6,3,10,12,9,15,14,8,7,11"
14464,commdev-image-keyboard-response,415,941422,learnblock1,500.60000014305115,img/planet10_left.png,10,Community 2,NA,TRUE,f,f,NA,NA,NA,1,6,"5,1,4,2,13,6,3,10,12,9,15,14,8,7,11"
14464,commdev-image-keyboard-response,416,942673,learnblock1,628.7999999523163,img/planet12_left.png,12,Community 2,NA,TRUE,f,f,NA,NA,NA,1,6,"5,1,4,2,13,6,3,10,12,9,15,14,8,7,11"
14464,commdev-image-keyboard-response,417,943924,learnblock1,736.2999999523163,img/planet6_left.png,6,Community 2,NA,TRUE,f,f,NA,NA,NA,1,6,"5,1,4,2,13,6,3,10,12,9,15,14,8,7,11"
14464,commdev-image-keyboard-response,418,945176,learnblock1,598.8999998569489,img/planet9_left.png,9,Community 2,NA,TRUE,f,f,NA,NA,NA,1,6,"5,1,4,2,13,6,3,10,12,9,15,14,8,7,11"
14464,commdev-image-keyboard-response,419,946427,learnblock1,549.3000001907349,img/planet3_right.png,3,Community 2,NA,TRUE,j,j,NA,NA,NA,1,6,"5,1,4,2,13,6,3,10,12,9,15,14,8,7,11"
14464,commdev-image-keyboard-response,420,947679,learnblock1,556.9000000953674,img/planet6_right.png,6,Community 2,NA,TRUE,j,j,NA,NA,NA,1,6,"5,1,4,2,13,6,3,10,12,9,15,14,8,7,11"
14464,commdev-image-keyboard-response,421,948931,learnblock1,640.3000001907349,img/planet3_right.png,3,Community 2,NA,TRUE,j,j,NA,NA,NA,1,6,"5,1,4,2,13,6,3,10,12,9,15,14,8,7,11"
14464,commdev-image-keyboard-response,422,950183,learnblock1,591.2999999523163,img/planet9_left.png,9,Community 2,NA,TRUE,f,f,NA,NA,NA,1,6,"5,1,4,2,13,6,3,10,12,9,15,14,8,7,11"
14464,commdev-image-keyboard-response,423,951434,learnblock1,780.3999998569489,img/planet6_left.png,6,Community 2,NA,TRUE,f,f,NA,NA,NA,1,6,"5,1,4,2,13,6,3,10,12,9,15,14,8,7,11"
14464,commdev-image-keyboard-response,424,952685,learnblock1,619.6999998092651,img/planet3_right.png,3,Community 2,NA,TRUE,j,j,NA,NA,NA,1,6,"5,1,4,2,13,6,3,10,12,9,15,14,8,7,11"
14464,commdev-image-keyboard-response,425,953937,learnblock1,625.3999998569489,img/planet6_left.png,6,Community 2,NA,TRUE,f,f,NA,NA,NA,1,6,"5,1,4,2,13,6,3,10,12,9,15,14,8,7,11"
14464,commdev-image-keyboard-response,426,955188,learnblock1,585.1000001430511,img/planet2_left.png,2,Community 1,NA,TRUE,f,f,NA,NA,NA,1,6,"5,1,4,2,13,6,3,10,12,9,15,14,8,7,11"
14464,commdev-image-keyboard-response,427,956440,learnblock1,548,img/planet6_left.png,6,Community 2,NA,TRUE,f,f,NA,NA,NA,1,6,"5,1,4,2,13,6,3,10,12,9,15,14,8,7,11"
14464,commdev-image-keyboard-response,428,957699,learnblock1,745.5999999046326,img/planet3_left.png,3,Community 2,NA,TRUE,f,f,NA,NA,NA,1,6,"5,1,4,2,13,6,3,10,12,9,15,14,8,7,11"
14464,commdev-image-keyboard-response,429,958951,learnblock1,626.6000001430511,img/planet9_right.png,9,Community 2,NA,TRUE,j,j,NA,NA,NA,1,6,"5,1,4,2,13,6,3,10,12,9,15,14,8,7,11"
14464,commdev-image-keyboard-response,430,960202,learnblock1,511.80000019073486,img/planet10_right.png,10,Community 2,NA,TRUE,j,j,NA,NA,NA,1,6,"5,1,4,2,13,6,3,10,12,9,15,14,8,7,11"
14464,commdev-image-keyboard-response,431,961455,learnblock1,567,img/planet14_left.png,14,Community 3,NA,TRUE,f,f,NA,NA,NA,1,6,"5,1,4,2,13,6,3,10,12,9,15,14,8,7,11"
14464,commdev-image-keyboard-response,432,962706,learnblock1,725.6000001430511,img/planet10_left.png,10,Community 2,NA,FALSE,j,f,NA,NA,NA,1,6,"5,1,4,2,13,6,3,10,12,9,15,14,8,7,11"
14464,commdev-image-keyboard-response,433,963957,learnblock1,654.1000001430511,img/planet12_left.png,12,Community 2,NA,TRUE,f,f,NA,NA,NA,1,6,"5,1,4,2,13,6,3,10,12,9,15,14,8,7,11"
14464,commdev-image-keyboard-response,434,965208,learnblock1,470.2999999523163,img/planet10_left.png,10,Community 2,NA,TRUE,f,f,NA,NA,NA,1,6,"5,1,4,2,13,6,3,10,12,9,15,14,8,7,11"
14464,commdev-image-keyboard-response,435,966461,learnblock1,659.4000000953674,img/planet14_left.png,14,Community 3,NA,TRUE,f,f,NA,NA,NA,1,6,"5,1,4,2,13,6,3,10,12,9,15,14,8,7,11"
14464,commdev-image-keyboard-response,436,967713,learnblock1,424.2999999523163,img/planet10_right.png,10,Community 2,NA,TRUE,j,j,NA,NA,NA,1,6,"5,1,4,2,13,6,3,10,12,9,15,14,8,7,11"
14464,commdev-image-keyboard-response,437,968965,learnblock1,622.2000000476837,img/planet14_left.png,14,Community 3,NA,TRUE,f,f,NA,NA,NA,1,6,"5,1,4,2,13,6,3,10,12,9,15,14,8,7,11"
14464,commdev-image-keyboard-response,438,970216,learnblock1,555,img/planet11_right.png,11,Community 3,NA,TRUE,j,j,NA,NA,NA,1,6,"5,1,4,2,13,6,3,10,12,9,15,14,8,7,11"
14464,commdev-image-keyboard-response,439,971468,learnblock1,652.2999999523163,img/planet7_left.png,7,Community 3,NA,TRUE,f,f,NA,NA,NA,1,6,"5,1,4,2,13,6,3,10,12,9,15,14,8,7,11"
14464,commdev-image-keyboard-response,440,972719,learnblock1,627.1000001430511,img/planet15_right.png,15,Community 3,NA,TRUE,j,j,NA,NA,NA,1,6,"5,1,4,2,13,6,3,10,12,9,15,14,8,7,11"
14464,commdev-image-keyboard-response,441,973971,learnblock1,708.8999998569489,img/planet8_left.png,8,Community 3,NA,TRUE,f,f,NA,NA,NA,1,6,"5,1,4,2,13,6,3,10,12,9,15,14,8,7,11"
14464,commdev-image-keyboard-response,442,975225,learnblock1,616.7000000476837,img/planet14_left.png,14,Community 3,NA,TRUE,f,f,NA,NA,NA,1,6,"5,1,4,2,13,6,3,10,12,9,15,14,8,7,11"
14464,commdev-image-keyboard-response,443,976477,learnblock1,595.1000001430511,img/planet11_left.png,11,Community 3,NA,TRUE,f,f,NA,NA,NA,1,6,"5,1,4,2,13,6,3,10,12,9,15,14,8,7,11"
14464,commdev-image-keyboard-response,444,977728,learnblock1,509.2000000476837,img/planet7_right.png,7,Community 3,NA,TRUE,j,j,NA,NA,NA,1,6,"5,1,4,2,13,6,3,10,12,9,15,14,8,7,11"
14464,commdev-image-keyboard-response,445,978991,learnblock1,700.6999998092651,img/planet15_right.png,15,Community 3,NA,TRUE,j,j,NA,NA,NA,1,6,"5,1,4,2,13,6,3,10,12,9,15,14,8,7,11"
14464,commdev-image-keyboard-response,446,980243,learnblock1,591.2999999523163,img/planet13_right.png,13,Community 1,NA,TRUE,j,j,NA,NA,NA,1,6,"5,1,4,2,13,6,3,10,12,9,15,14,8,7,11"
14464,commdev-image-keyboard-response,447,981494,learnblock1,516.2000000476837,img/planet4_right.png,4,Community 1,NA,TRUE,j,j,NA,NA,NA,1,6,"5,1,4,2,13,6,3,10,12,9,15,14,8,7,11"
14464,commdev-image-keyboard-response,448,982746,learnblock1,554.1000001430511,img/planet13_left.png,13,Community 1,NA,TRUE,f,f,NA,NA,NA,1,6,"5,1,4,2,13,6,3,10,12,9,15,14,8,7,11"
14464,commdev-image-keyboard-response,449,983997,learnblock1,697.5,img/planet5_right.png,5,Community 1,NA,TRUE,j,j,NA,NA,NA,1,6,"5,1,4,2,13,6,3,10,12,9,15,14,8,7,11"
14464,commdev-image-keyboard-response,450,985249,learnblock1,536.9000000953674,img/planet2_left.png,2,Community 1,NA,TRUE,f,f,NA,NA,NA,1,6,"5,1,4,2,13,6,3,10,12,9,15,14,8,7,11"
14464,commdev-image-keyboard-response,451,986501,learnblock1,736.6999998092651,img/planet5_left.png,5,Community 1,NA,TRUE,f,f,NA,NA,NA,1,6,"5,1,4,2,13,6,3,10,12,9,15,14,8,7,11"
14464,commdev-image-keyboard-response,452,987753,learnblock1,716.2000000476837,img/planet13_right.png,13,Community 1,NA,TRUE,j,j,NA,NA,NA,1,6,"5,1,4,2,13,6,3,10,12,9,15,14,8,7,11"
14464,commdev-image-keyboard-response,453,989004,learnblock1,594.5,img/planet5_right.png,5,Community 1,NA,TRUE,j,j,NA,NA,NA,1,6,"5,1,4,2,13,6,3,10,12,9,15,14,8,7,11"
14464,commdev-image-keyboard-response,454,990263,learnblock1,583.4000000953674,img/planet13_left.png,13,Community 1,NA,TRUE,f,f,NA,NA,NA,1,6,"5,1,4,2,13,6,3,10,12,9,15,14,8,7,11"
14464,commdev-image-keyboard-response,455,991515,learnblock1,641.3000001907349,img/planet4_right.png,4,Community 1,NA,TRUE,j,j,NA,NA,NA,1,6,"5,1,4,2,13,6,3,10,12,9,15,14,8,7,11"
14464,commdev-image-keyboard-response,456,992766,learnblock1,514.3999998569489,img/planet13_left.png,13,Community 1,NA,TRUE,f,f,NA,NA,NA,1,6,"5,1,4,2,13,6,3,10,12,9,15,14,8,7,11"
14464,commdev-image-keyboard-response,457,994019,learnblock1,452.2999999523163,img/planet1_left.png,1,Community 1,NA,TRUE,f,f,NA,NA,NA,1,6,"5,1,4,2,13,6,3,10,12,9,15,14,8,7,11"
14464,commdev-image-keyboard-response,458,995271,learnblock1,547.9000000953674,img/planet2_left.png,2,Community 1,NA,TRUE,f,f,NA,NA,NA,1,6,"5,1,4,2,13,6,3,10,12,9,15,14,8,7,11"
14464,commdev-image-keyboard-response,459,996522,learnblock1,632.7000000476837,img/planet1_left.png,1,Community 1,NA,TRUE,f,f,NA,NA,NA,1,6,"5,1,4,2,13,6,3,10,12,9,15,14,8,7,11"
14464,commdev-image-keyboard-response,460,997773,learnblock1,435,img/planet13_right.png,13,Community 1,NA,TRUE,j,j,NA,NA,NA,1,6,"5,1,4,2,13,6,3,10,12,9,15,14,8,7,11"
14464,commdev-image-keyboard-response,461,999024,learnblock1,453,img/planet5_right.png,5,Community 1,NA,TRUE,j,j,NA,NA,NA,1,6,"5,1,4,2,13,6,3,10,12,9,15,14,8,7,11"
14464,commdev-image-keyboard-response,462,1000276,learnblock1,526.0999999046326,img/planet1_right.png,1,Community 1,NA,TRUE,j,j,NA,NA,NA,1,6,"5,1,4,2,13,6,3,10,12,9,15,14,8,7,11"
14464,commdev-image-keyboard-response,463,1001527,learnblock1,618.7999999523163,img/planet4_left.png,4,Community 1,NA,TRUE,f,f,NA,NA,NA,1,6,"5,1,4,2,13,6,3,10,12,9,15,14,8,7,11"
14464,commdev-image-keyboard-response,464,1002778,learnblock1,537.5,img/planet2_right.png,2,Community 1,NA,TRUE,j,j,NA,NA,NA,1,6,"5,1,4,2,13,6,3,10,12,9,15,14,8,7,11"
14464,commdev-image-keyboard-response,465,1004030,learnblock1,524,img/planet1_right.png,1,Community 1,NA,TRUE,j,j,NA,NA,NA,1,6,"5,1,4,2,13,6,3,10,12,9,15,14,8,7,11"
14464,commdev-image-keyboard-response,466,1005281,learnblock1,483.69999980926514,img/planet2_right.png,2,Community 1,NA,TRUE,j,j,NA,NA,NA,1,6,"5,1,4,2,13,6,3,10,12,9,15,14,8,7,11"
14464,commdev-image-keyboard-response,467,1006534,learnblock1,530.1000001430511,img/planet1_left.png,1,Community 1,NA,TRUE,f,f,NA,NA,NA,1,6,"5,1,4,2,13,6,3,10,12,9,15,14,8,7,11"
14464,commdev-image-keyboard-response,468,1007786,learnblock1,478.7999999523163,img/planet2_right.png,2,Community 1,NA,TRUE,j,j,NA,NA,NA,1,6,"5,1,4,2,13,6,3,10,12,9,15,14,8,7,11"
14464,commdev-image-keyboard-response,469,1009047,learnblock1,532.2999999523163,img/planet1_left.png,1,Community 1,NA,FALSE,j,f,NA,NA,NA,1,6,"5,1,4,2,13,6,3,10,12,9,15,14,8,7,11"
14464,commdev-image-keyboard-response,470,1010300,learnblock1,706.6000001430511,img/planet2_left.png,2,Community 1,NA,TRUE,f,f,NA,NA,NA,1,6,"5,1,4,2,13,6,3,10,12,9,15,14,8,7,11"
14464,commdev-image-keyboard-response,471,1011552,learnblock1,569.1000001430511,img/planet5_right.png,5,Community 1,NA,TRUE,j,j,NA,NA,NA,1,6,"5,1,4,2,13,6,3,10,12,9,15,14,8,7,11"
14464,commdev-image-keyboard-response,472,1012804,learnblock1,581.6000001430511,img/planet1_right.png,1,Community 1,NA,TRUE,j,j,NA,NA,NA,1,6,"5,1,4,2,13,6,3,10,12,9,15,14,8,7,11"
14464,commdev-image-keyboard-response,473,1014056,learnblock1,626.8000001907349,img/planet2_left.png,2,Community 1,NA,TRUE,f,f,NA,NA,NA,1,6,"5,1,4,2,13,6,3,10,12,9,15,14,8,7,11"
14464,commdev-image-keyboard-response,474,1015307,learnblock1,606.2999999523163,img/planet4_left.png,4,Community 1,NA,TRUE,f,f,NA,NA,NA,1,6,"5,1,4,2,13,6,3,10,12,9,15,14,8,7,11"
14464,commdev-image-keyboard-response,475,1016558,learnblock1,559.0999999046326,img/planet2_left.png,2,Community 1,NA,TRUE,f,f,NA,NA,NA,1,6,"5,1,4,2,13,6,3,10,12,9,15,14,8,7,11"
14464,commdev-image-keyboard-response,476,1017810,learnblock1,726.5,img/planet1_left.png,1,Community 1,NA,TRUE,f,f,NA,NA,NA,1,6,"5,1,4,2,13,6,3,10,12,9,15,14,8,7,11"
14464,commdev-image-keyboard-response,477,1019062,learnblock1,527,img/planet13_right.png,13,Community 1,NA,TRUE,j,j,NA,NA,NA,1,6,"5,1,4,2,13,6,3,10,12,9,15,14,8,7,11"
14464,commdev-image-keyboard-response,478,1020314,learnblock1,559.4000000953674,img/planet5_left.png,5,Community 1,NA,TRUE,f,f,NA,NA,NA,1,6,"5,1,4,2,13,6,3,10,12,9,15,14,8,7,11"
14464,commdev-image-keyboard-response,479,1021566,learnblock1,647.3999998569489,img/planet1_left.png,1,Community 1,NA,TRUE,f,f,NA,NA,NA,1,6,"5,1,4,2,13,6,3,10,12,9,15,14,8,7,11"
14464,commdev-image-keyboard-response,480,1022818,learnblock1,637.7000000476837,img/planet4_left.png,4,Community 1,NA,TRUE,f,f,NA,NA,NA,1,6,"5,1,4,2,13,6,3,10,12,9,15,14,8,7,11"
14464,commdev-image-keyboard-response,481,1024069,learnblock1,530.3000001907349,img/planet1_right.png,1,Community 1,NA,TRUE,j,j,NA,NA,NA,1,6,"5,1,4,2,13,6,3,10,12,9,15,14,8,7,11"
14464,commdev-image-keyboard-response,482,1025321,learnblock1,565,img/planet4_left.png,4,Community 1,NA,TRUE,f,f,NA,NA,NA,1,6,"5,1,4,2,13,6,3,10,12,9,15,14,8,7,11"
14464,commdev-image-keyboard-response,483,1026573,learnblock1,461.39999985694885,img/planet13_right.png,13,Community 1,NA,TRUE,j,j,NA,NA,NA,1,6,"5,1,4,2,13,6,3,10,12,9,15,14,8,7,11"
14464,commdev-image-keyboard-response,484,1027825,learnblock1,689.5999999046326,img/planet4_left.png,4,Community 1,NA,TRUE,f,f,NA,NA,NA,1,6,"5,1,4,2,13,6,3,10,12,9,15,14,8,7,11"
14464,commdev-image-keyboard-response,485,1029076,learnblock1,488.60000014305115,img/planet13_right.png,13,Community 1,NA,TRUE,j,j,NA,NA,NA,1,6,"5,1,4,2,13,6,3,10,12,9,15,14,8,7,11"
14464,commdev-image-keyboard-response,486,1030328,learnblock1,554.7000000476837,img/planet15_left.png,15,Community 3,NA,TRUE,f,f,NA,NA,NA,1,6,"5,1,4,2,13,6,3,10,12,9,15,14,8,7,11"
14464,commdev-image-keyboard-response,487,1031579,learnblock1,583.1000001430511,img/planet7_right.png,7,Community 3,NA,TRUE,j,j,NA,NA,NA,1,6,"5,1,4,2,13,6,3,10,12,9,15,14,8,7,11"
14464,commdev-image-keyboard-response,488,1032831,learnblock1,613.5,img/planet14_left.png,14,Community 3,NA,TRUE,f,f,NA,NA,NA,1,6,"5,1,4,2,13,6,3,10,12,9,15,14,8,7,11"
14464,commdev-image-keyboard-response,489,1034082,learnblock1,493.10000014305115,img/planet11_right.png,11,Community 3,NA,TRUE,j,j,NA,NA,NA,1,6,"5,1,4,2,13,6,3,10,12,9,15,14,8,7,11"
14464,commdev-image-keyboard-response,490,1035334,learnblock1,599.4000000953674,img/planet8_left.png,8,Community 3,NA,TRUE,f,f,NA,NA,NA,1,6,"5,1,4,2,13,6,3,10,12,9,15,14,8,7,11"
14464,commdev-image-keyboard-response,491,1036586,learnblock1,590.0999999046326,img/planet15_right.png,15,Community 3,NA,TRUE,j,j,NA,NA,NA,1,6,"5,1,4,2,13,6,3,10,12,9,15,14,8,7,11"
14464,commdev-image-keyboard-response,492,1037837,learnblock1,674.7999999523163,img/planet7_right.png,7,Community 3,NA,TRUE,j,j,NA,NA,NA,1,6,"5,1,4,2,13,6,3,10,12,9,15,14,8,7,11"
14464,commdev-image-keyboard-response,493,1039089,learnblock1,549.5999999046326,img/planet15_right.png,15,Community 3,NA,TRUE,j,j,NA,NA,NA,1,6,"5,1,4,2,13,6,3,10,12,9,15,14,8,7,11"
14464,commdev-image-keyboard-response,494,1040349,learnblock1,525.4000000953674,img/planet11_left.png,11,Community 3,NA,TRUE,f,f,NA,NA,NA,1,6,"5,1,4,2,13,6,3,10,12,9,15,14,8,7,11"
14464,commdev-image-keyboard-response,495,1041601,learnblock1,719.4000000953674,img/planet14_right.png,14,Community 3,NA,TRUE,j,j,NA,NA,NA,1,6,"5,1,4,2,13,6,3,10,12,9,15,14,8,7,11"
14464,commdev-image-keyboard-response,496,1042853,learnblock1,470.7999999523163,img/planet7_left.png,7,Community 3,NA,TRUE,f,f,NA,NA,NA,1,6,"5,1,4,2,13,6,3,10,12,9,15,14,8,7,11"
14464,commdev-image-keyboard-response,497,1044109,learnblock1,530,img/planet15_left.png,15,Community 3,NA,TRUE,f,f,NA,NA,NA,1,6,"5,1,4,2,13,6,3,10,12,9,15,14,8,7,11"
14464,commdev-image-keyboard-response,498,1045360,learnblock1,542.2999999523163,img/planet7_right.png,7,Community 3,NA,TRUE,j,j,NA,NA,NA,1,6,"5,1,4,2,13,6,3,10,12,9,15,14,8,7,11"
14464,commdev-image-keyboard-response,499,1046626,learnblock1,598.5,img/planet11_left.png,11,Community 3,NA,TRUE,f,f,NA,NA,NA,1,6,"5,1,4,2,13,6,3,10,12,9,15,14,8,7,11"
14464,commdev-image-keyboard-response,500,1047878,learnblock1,570.7000000476837,img/planet7_left.png,7,Community 3,NA,TRUE,f,f,NA,NA,NA,1,6,"5,1,4,2,13,6,3,10,12,9,15,14,8,7,11"
14464,commdev-image-keyboard-response,501,1049130,learnblock1,715.3999998569489,img/planet8_left.png,8,Community 3,NA,TRUE,f,f,NA,NA,NA,1,6,"5,1,4,2,13,6,3,10,12,9,15,14,8,7,11"
14464,commdev-image-keyboard-response,502,1050381,learnblock1,575.0999999046326,img/planet11_right.png,11,Community 3,NA,TRUE,j,j,NA,NA,NA,1,6,"5,1,4,2,13,6,3,10,12,9,15,14,8,7,11"
14464,commdev-image-keyboard-response,503,1051632,learnblock1,580.9000000953674,img/planet8_left.png,8,Community 3,NA,TRUE,f,f,NA,NA,NA,1,6,"5,1,4,2,13,6,3,10,12,9,15,14,8,7,11"
14464,commdev-image-keyboard-response,504,1052883,learnblock1,514.6000001430511,img/planet15_left.png,15,Community 3,NA,TRUE,f,f,NA,NA,NA,1,6,"5,1,4,2,13,6,3,10,12,9,15,14,8,7,11"
14464,commdev-image-keyboard-response,505,1054135,learnblock1,521.2000000476837,img/planet7_right.png,7,Community 3,NA,TRUE,j,j,NA,NA,NA,1,6,"5,1,4,2,13,6,3,10,12,9,15,14,8,7,11"
14464,commdev-image-keyboard-response,506,1055386,learnblock1,500.2000000476837,img/planet11_right.png,11,Community 3,NA,FALSE,f,j,NA,NA,NA,1,6,"5,1,4,2,13,6,3,10,12,9,15,14,8,7,11"
14464,commdev-image-keyboard-response,507,1056638,learnblock1,522.5,img/planet14_left.png,14,Community 3,NA,TRUE,f,f,NA,NA,NA,1,6,"5,1,4,2,13,6,3,10,12,9,15,14,8,7,11"
14464,commdev-image-keyboard-response,508,1057889,learnblock1,616,img/planet8_right.png,8,Community 3,NA,TRUE,j,j,NA,NA,NA,1,6,"5,1,4,2,13,6,3,10,12,9,15,14,8,7,11"
14464,commdev-image-keyboard-response,509,1059141,learnblock1,577.2999999523163,img/planet11_right.png,11,Community 3,NA,TRUE,j,j,NA,NA,NA,1,6,"5,1,4,2,13,6,3,10,12,9,15,14,8,7,11"
14464,commdev-image-keyboard-response,510,1060393,learnblock1,575.6000001430511,img/planet15_left.png,15,Community 3,NA,TRUE,f,f,NA,NA,NA,1,6,"5,1,4,2,13,6,3,10,12,9,15,14,8,7,11"
14464,commdev-image-keyboard-response,511,1061655,learnblock1,684.7000000476837,img/planet13_left.png,13,Community 1,NA,TRUE,f,f,NA,NA,NA,1,6,"5,1,4,2,13,6,3,10,12,9,15,14,8,7,11"
14464,commdev-image-keyboard-response,512,1062906,learnblock1,621.0999999046326,img/planet5_right.png,5,Community 1,NA,TRUE,j,j,NA,NA,NA,1,6,"5,1,4,2,13,6,3,10,12,9,15,14,8,7,11"
14464,commdev-image-keyboard-response,513,1064158,learnblock1,599.6000001430511,img/planet2_left.png,2,Community 1,NA,TRUE,f,f,NA,NA,NA,1,6,"5,1,4,2,13,6,3,10,12,9,15,14,8,7,11"
14464,commdev-image-keyboard-response,514,1065410,learnblock1,590.7999999523163,img/planet6_right.png,6,Community 2,NA,TRUE,j,j,NA,NA,NA,1,6,"5,1,4,2,13,6,3,10,12,9,15,14,8,7,11"
14464,commdev-image-keyboard-response,515,1066661,learnblock1,585.5,img/planet9_left.png,9,Community 2,NA,TRUE,f,f,NA,NA,NA,1,6,"5,1,4,2,13,6,3,10,12,9,15,14,8,7,11"
14464,commdev-image-keyboard-response,516,1067913,learnblock1,529.4000000953674,img/planet10_right.png,10,Community 2,NA,TRUE,j,j,NA,NA,NA,1,6,"5,1,4,2,13,6,3,10,12,9,15,14,8,7,11"
14464,commdev-image-keyboard-response,520,1140525,learnblock2,696.1000001430511,img/planet13_left.png,13,Community 1,NA,TRUE,f,f,NA,NA,NA,1,6,"5,1,4,2,13,6,3,10,12,9,15,14,8,7,11"
14464,commdev-image-keyboard-response,521,1141777,learnblock2,585.3000001907349,img/planet1_right.png,1,Community 1,NA,TRUE,j,j,NA,NA,NA,1,6,"5,1,4,2,13,6,3,10,12,9,15,14,8,7,11"
14464,commdev-image-keyboard-response,522,1143028,learnblock2,537.2999999523163,img/planet4_left.png,4,Community 1,NA,TRUE,f,f,NA,NA,NA,1,6,"5,1,4,2,13,6,3,10,12,9,15,14,8,7,11"
14464,commdev-image-keyboard-response,523,1144280,learnblock2,446.5,img/planet2_right.png,2,Community 1,NA,TRUE,j,j,NA,NA,NA,1,6,"5,1,4,2,13,6,3,10,12,9,15,14,8,7,11"
14464,commdev-image-keyboard-response,524,1145531,learnblock2,529.8000001907349,img/planet5_left.png,5,Community 1,NA,TRUE,f,f,NA,NA,NA,1,6,"5,1,4,2,13,6,3,10,12,9,15,14,8,7,11"
14464,commdev-image-keyboard-response,525,1146784,learnblock2,532.4000000953674,img/planet1_right.png,1,Community 1,NA,TRUE,j,j,NA,NA,NA,1,6,"5,1,4,2,13,6,3,10,12,9,15,14,8,7,11"
14464,commdev-image-keyboard-response,526,1148035,learnblock2,578,img/planet2_right.png,2,Community 1,NA,TRUE,j,j,NA,NA,NA,1,6,"5,1,4,2,13,6,3,10,12,9,15,14,8,7,11"
14464,commdev-image-keyboard-response,527,1149287,learnblock2,529.6999998092651,img/planet1_left.png,1,Community 1,NA,TRUE,f,f,NA,NA,NA,1,6,"5,1,4,2,13,6,3,10,12,9,15,14,8,7,11"
14464,commdev-image-keyboard-response,528,1150538,learnblock2,463,img/planet13_right.png,13,Community 1,NA,TRUE,j,j,NA,NA,NA,1,6,"5,1,4,2,13,6,3,10,12,9,15,14,8,7,11"
14464,commdev-image-keyboard-response,529,1151789,learnblock2,499.5,img/planet4_left.png,4,Community 1,NA,TRUE,f,f,NA,NA,NA,1,6,"5,1,4,2,13,6,3,10,12,9,15,14,8,7,11"
14464,commdev-image-keyboard-response,530,1153041,learnblock2,494.7000000476837,img/planet13_right.png,13,Community 1,NA,TRUE,j,j,NA,NA,NA,1,6,"5,1,4,2,13,6,3,10,12,9,15,14,8,7,11"
14464,commdev-image-keyboard-response,531,1154292,learnblock2,512.2000000476837,img/planet1_right.png,1,Community 1,NA,FALSE,f,j,NA,NA,NA,1,6,"5,1,4,2,13,6,3,10,12,9,15,14,8,7,11"
14464,commdev-image-keyboard-response,532,1155544,learnblock2,683,img/planet5_right.png,5,Community 1,NA,TRUE,j,j,NA,NA,NA,1,6,"5,1,4,2,13,6,3,10,12,9,15,14,8,7,11"
14464,commdev-image-keyboard-response,533,1156795,learnblock2,548.4000000953674,img/planet13_left.png,13,Community 1,NA,TRUE,f,f,NA,NA,NA,1,6,"5,1,4,2,13,6,3,10,12,9,15,14,8,7,11"
14464,commdev-image-keyboard-response,534,1158048,learnblock2,596.1000001430511,img/planet1_right.png,1,Community 1,NA,TRUE,j,j,NA,NA,NA,1,6,"5,1,4,2,13,6,3,10,12,9,15,14,8,7,11"
14464,commdev-image-keyboard-response,535,1159301,learnblock2,571.7000000476837,img/planet2_right.png,2,Community 1,NA,TRUE,j,j,NA,NA,NA,1,6,"5,1,4,2,13,6,3,10,12,9,15,14,8,7,11"
14464,commdev-image-keyboard-response,536,1160552,learnblock2,503.2000000476837,img/planet4_left.png,4,Community 1,NA,TRUE,f,f,NA,NA,NA,1,6,"5,1,4,2,13,6,3,10,12,9,15,14,8,7,11"
14464,commdev-image-keyboard-response,537,1161803,learnblock2,553.8000001907349,img/planet1_left.png,1,Community 1,NA,TRUE,f,f,NA,NA,NA,1,6,"5,1,4,2,13,6,3,10,12,9,15,14,8,7,11"
14464,commdev-image-keyboard-response,538,1163054,learnblock2,452.09999990463257,img/planet13_right.png,13,Community 1,NA,TRUE,j,j,NA,NA,NA,1,6,"5,1,4,2,13,6,3,10,12,9,15,14,8,7,11"
14464,commdev-image-keyboard-response,539,1164306,learnblock2,670.2000000476837,img/planet15_right.png,15,Community 3,NA,TRUE,j,j,NA,NA,NA,1,6,"5,1,4,2,13,6,3,10,12,9,15,14,8,7,11"
14464,commdev-image-keyboard-response,540,1165558,learnblock2,737,img/planet7_left.png,7,Community 3,NA,TRUE,f,f,NA,NA,NA,1,6,"5,1,4,2,13,6,3,10,12,9,15,14,8,7,11"
14464,commdev-image-keyboard-response,541,1166810,learnblock2,661,img/planet14_right.png,14,Community 3,NA,TRUE,j,j,NA,NA,NA,1,6,"5,1,4,2,13,6,3,10,12,9,15,14,8,7,11"
14464,commdev-image-keyboard-response,542,1168061,learnblock2,678,img/planet7_left.png,7,Community 3,NA,TRUE,f,f,NA,NA,NA,1,6,"5,1,4,2,13,6,3,10,12,9,15,14,8,7,11"
14464,commdev-image-keyboard-response,543,1169313,learnblock2,730.2999999523163,img/planet11_left.png,11,Community 3,NA,TRUE,f,f,NA,NA,NA,1,6,"5,1,4,2,13,6,3,10,12,9,15,14,8,7,11"
14464,commdev-image-keyboard-response,544,1170564,learnblock2,678.6000001430511,img/planet8_left.png,8,Community 3,NA,TRUE,f,f,NA,NA,NA,1,6,"5,1,4,2,13,6,3,10,12,9,15,14,8,7,11"
14464,commdev-image-keyboard-response,545,1171820,learnblock2,601.7999999523163,img/planet14_right.png,14,Community 3,NA,TRUE,j,j,NA,NA,NA,1,6,"5,1,4,2,13,6,3,10,12,9,15,14,8,7,11"
14464,commdev-image-keyboard-response,546,1173071,learnblock2,616.7000000476837,img/planet11_left.png,11,Community 3,NA,TRUE,f,f,NA,NA,NA,1,6,"5,1,4,2,13,6,3,10,12,9,15,14,8,7,11"
14464,commdev-image-keyboard-response,547,1174325,learnblock2,596.5,img/planet8_right.png,8,Community 3,NA,TRUE,j,j,NA,NA,NA,1,6,"5,1,4,2,13,6,3,10,12,9,15,14,8,7,11"
14464,commdev-image-keyboard-response,548,1175577,learnblock2,711.6000001430511,img/planet14_left.png,14,Community 3,NA,TRUE,f,f,NA,NA,NA,1,6,"5,1,4,2,13,6,3,10,12,9,15,14,8,7,11"
14464,commdev-image-keyboard-response,549,1176830,learnblock2,581.2999999523163,img/planet7_right.png,7,Community 3,NA,TRUE,j,j,NA,NA,NA,1,6,"5,1,4,2,13,6,3,10,12,9,15,14,8,7,11"
14464,commdev-image-keyboard-response,550,1178082,learnblock2,515.7000000476837,img/planet14_left.png,14,Community 3,NA,FALSE,j,f,NA,NA,NA,1,6,"5,1,4,2,13,6,3,10,12,9,15,14,8,7,11"
14464,commdev-image-keyboard-response,551,1179333,learnblock2,734.6000001430511,img/planet8_left.png,8,Community 3,NA,TRUE,f,f,NA,NA,NA,1,6,"5,1,4,2,13,6,3,10,12,9,15,14,8,7,11"
14464,commdev-image-keyboard-response,552,1180584,learnblock2,671.5999999046326,img/planet14_left.png,14,Community 3,NA,TRUE,f,f,NA,NA,NA,1,6,"5,1,4,2,13,6,3,10,12,9,15,14,8,7,11"
14464,commdev-image-keyboard-response,553,1181836,learnblock2,588,img/planet7_right.png,7,Community 3,NA,TRUE,j,j,NA,NA,NA,1,6,"5,1,4,2,13,6,3,10,12,9,15,14,8,7,11"
14464,commdev-image-keyboard-response,554,1183087,learnblock2,638.3999998569489,img/planet15_right.png,15,Community 3,NA,TRUE,j,j,NA,NA,NA,1,6,"5,1,4,2,13,6,3,10,12,9,15,14,8,7,11"
14464,commdev-image-keyboard-response,555,1184339,learnblock2,675.5999999046326,img/planet7_right.png,7,Community 3,NA,TRUE,j,j,NA,NA,NA,1,6,"5,1,4,2,13,6,3,10,12,9,15,14,8,7,11"
14464,commdev-image-keyboard-response,556,1185591,learnblock2,634.1000001430511,img/planet8_left.png,8,Community 3,NA,TRUE,f,f,NA,NA,NA,1,6,"5,1,4,2,13,6,3,10,12,9,15,14,8,7,11"
14464,commdev-image-keyboard-response,557,1186842,learnblock2,697,img/planet7_right.png,7,Community 3,NA,TRUE,j,j,NA,NA,NA,1,6,"5,1,4,2,13,6,3,10,12,9,15,14,8,7,11"
14464,commdev-image-keyboard-response,558,1188093,learnblock2,603.6000001430511,img/planet15_left.png,15,Community 3,NA,TRUE,f,f,NA,NA,NA,1,6,"5,1,4,2,13,6,3,10,12,9,15,14,8,7,11"
14464,commdev-image-keyboard-response,559,1189344,learnblock2,686.5,img/planet13_right.png,13,Community 1,NA,TRUE,j,j,NA,NA,NA,1,6,"5,1,4,2,13,6,3,10,12,9,15,14,8,7,11"
14464,commdev-image-keyboard-response,560,1190595,learnblock2,649,img/planet1_right.png,1,Community 1,NA,TRUE,j,j,NA,NA,NA,1,6,"5,1,4,2,13,6,3,10,12,9,15,14,8,7,11"
14464,commdev-image-keyboard-response,561,1191846,learnblock2,559.5999999046326,img/planet13_left.png,13,Community 1,NA,TRUE,f,f,NA,NA,NA,1,6,"5,1,4,2,13,6,3,10,12,9,15,14,8,7,11"
14464,commdev-image-keyboard-response,562,1193097,learnblock2,516.1999998092651,img/planet1_right.png,1,Community 1,NA,TRUE,j,j,NA,NA,NA,1,6,"5,1,4,2,13,6,3,10,12,9,15,14,8,7,11"
14464,commdev-image-keyboard-response,563,1194349,learnblock2,547.2000000476837,img/planet13_left.png,13,Community 1,NA,TRUE,f,f,NA,NA,NA,1,6,"5,1,4,2,13,6,3,10,12,9,15,14,8,7,11"
14464,commdev-image-keyboard-response,564,1195602,learnblock2,589.7999999523163,img/planet15_left.png,15,Community 3,NA,TRUE,f,f,NA,NA,NA,1,6,"5,1,4,2,13,6,3,10,12,9,15,14,8,7,11"
14464,commdev-image-keyboard-response,565,1196853,learnblock2,613.3000001907349,img/planet11_left.png,11,Community 3,NA,TRUE,f,f,NA,NA,NA,1,6,"5,1,4,2,13,6,3,10,12,9,15,14,8,7,11"
14464,commdev-image-keyboard-response,566,1198106,learnblock2,564.0999999046326,img/planet7_left.png,7,Community 3,NA,TRUE,f,f,NA,NA,NA,1,6,"5,1,4,2,13,6,3,10,12,9,15,14,8,7,11"
14464,commdev-image-keyboard-response,567,1199357,learnblock2,662,img/planet8_left.png,8,Community 3,NA,TRUE,f,f,NA,NA,NA,1,6,"5,1,4,2,13,6,3,10,12,9,15,14,8,7,11"
14464,commdev-image-keyboard-response,568,1200609,learnblock2,443.2999999523163,img/planet15_right.png,15,Community 3,NA,TRUE,j,j,NA,NA,NA,1,6,"5,1,4,2,13,6,3,10,12,9,15,14,8,7,11"
14464,commdev-image-keyboard-response,569,1201861,learnblock2,521.9000000953674,img/planet13_right.png,13,Community 1,NA,TRUE,j,j,NA,NA,NA,1,6,"5,1,4,2,13,6,3,10,12,9,15,14,8,7,11"
14464,commdev-image-keyboard-response,570,1203112,learnblock2,626.2999999523163,img/planet1_left.png,1,Community 1,NA,TRUE,f,f,NA,NA,NA,1,6,"5,1,4,2,13,6,3,10,12,9,15,14,8,7,11"
14464,commdev-image-keyboard-response,571,1204363,learnblock2,637,img/planet4_right.png,4,Community 1,NA,TRUE,j,j,NA,NA,NA,1,6,"5,1,4,2,13,6,3,10,12,9,15,14,8,7,11"
14464,commdev-image-keyboard-response,572,1205615,learnblock2,620.4000000953674,img/planet5_right.png,5,Community 1,NA,TRUE,j,j,NA,NA,NA,1,6,"5,1,4,2,13,6,3,10,12,9,15,14,8,7,11"
14464,commdev-image-keyboard-response,573,1206866,learnblock2,597,img/planet4_right.png,4,Community 1,NA,TRUE,j,j,NA,NA,NA,1,6,"5,1,4,2,13,6,3,10,12,9,15,14,8,7,11"
14464,commdev-image-keyboard-response,574,1208117,learnblock2,625.7999999523163,img/planet5_right.png,5,Community 1,NA,TRUE,j,j,NA,NA,NA,1,6,"5,1,4,2,13,6,3,10,12,9,15,14,8,7,11"
14464,commdev-image-keyboard-response,575,1209369,learnblock2,544.0999999046326,img/planet4_left.png,4,Community 1,NA,TRUE,f,f,NA,NA,NA,1,6,"5,1,4,2,13,6,3,10,12,9,15,14,8,7,11"
14464,commdev-image-keyboard-response,576,1210621,learnblock2,633.3000001907349,img/planet1_right.png,1,Community 1,NA,TRUE,j,j,NA,NA,NA,1,6,"5,1,4,2,13,6,3,10,12,9,15,14,8,7,11"
14464,commdev-image-keyboard-response,577,1211872,learnblock2,629.6000001430511,img/planet13_right.png,13,Community 1,NA,TRUE,j,j,NA,NA,NA,1,6,"5,1,4,2,13,6,3,10,12,9,15,14,8,7,11"
14464,commdev-image-keyboard-response,578,1213123,learnblock2,551.4000000953674,img/planet15_left.png,15,Community 3,NA,TRUE,f,f,NA,NA,NA,1,6,"5,1,4,2,13,6,3,10,12,9,15,14,8,7,11"
14464,commdev-image-keyboard-response,579,1214374,learnblock2,573,img/planet8_right.png,8,Community 3,NA,TRUE,j,j,NA,NA,NA,1,6,"5,1,4,2,13,6,3,10,12,9,15,14,8,7,11"
14464,commdev-image-keyboard-response,580,1215626,learnblock2,607.0999999046326,img/planet11_left.png,11,Community 3,NA,TRUE,f,f,NA,NA,NA,1,6,"5,1,4,2,13,6,3,10,12,9,15,14,8,7,11"
14464,commdev-image-keyboard-response,581,1216878,learnblock2,597.3999998569489,img/planet8_left.png,8,Community 3,NA,TRUE,f,f,NA,NA,NA,1,6,"5,1,4,2,13,6,3,10,12,9,15,14,8,7,11"
14464,commdev-image-keyboard-response,582,1218129,learnblock2,542,img/planet7_left.png,7,Community 3,NA,TRUE,f,f,NA,NA,NA,1,6,"5,1,4,2,13,6,3,10,12,9,15,14,8,7,11"
14464,commdev-image-keyboard-response,583,1219381,learnblock2,569.2000000476837,img/planet15_left.png,15,Community 3,NA,TRUE,f,f,NA,NA,NA,1,6,"5,1,4,2,13,6,3,10,12,9,15,14,8,7,11"
14464,commdev-image-keyboard-response,584,1220632,learnblock2,726.1000001430511,img/planet8_left.png,8,Community 3,NA,TRUE,f,f,NA,NA,NA,1,6,"5,1,4,2,13,6,3,10,12,9,15,14,8,7,11"
14464,commdev-image-keyboard-response,585,1221884,learnblock2,544.3999998569489,img/planet15_left.png,15,Community 3,NA,TRUE,f,f,NA,NA,NA,1,6,"5,1,4,2,13,6,3,10,12,9,15,14,8,7,11"
14464,commdev-image-keyboard-response,586,1223135,learnblock2,636.4000000953674,img/planet13_left.png,13,Community 1,NA,TRUE,f,f,NA,NA,NA,1,6,"5,1,4,2,13,6,3,10,12,9,15,14,8,7,11"
14464,commdev-image-keyboard-response,587,1224387,learnblock2,638.2000000476837,img/planet5_left.png,5,Community 1,NA,TRUE,f,f,NA,NA,NA,1,6,"5,1,4,2,13,6,3,10,12,9,15,14,8,7,11"
14464,commdev-image-keyboard-response,588,1225638,learnblock2,816.1000001430511,img/planet2_left.png,2,Community 1,NA,TRUE,f,f,NA,NA,NA,1,6,"5,1,4,2,13,6,3,10,12,9,15,14,8,7,11"
14464,commdev-image-keyboard-response,589,1226890,learnblock2,711.2999999523163,img/planet5_left.png,5,Community 1,NA,TRUE,f,f,NA,NA,NA,1,6,"5,1,4,2,13,6,3,10,12,9,15,14,8,7,11"
14464,commdev-image-keyboard-response,590,1228142,learnblock2,485.2999999523163,img/planet4_right.png,4,Community 1,NA,TRUE,j,j,NA,NA,NA,1,6,"5,1,4,2,13,6,3,10,12,9,15,14,8,7,11"
14464,commdev-image-keyboard-response,591,1229393,learnblock2,635.5,img/planet2_left.png,2,Community 1,NA,TRUE,f,f,NA,NA,NA,1,6,"5,1,4,2,13,6,3,10,12,9,15,14,8,7,11"
14464,commdev-image-keyboard-response,592,1230645,learnblock2,600.1000001430511,img/planet6_right.png,6,Community 2,NA,TRUE,j,j,NA,NA,NA,1,6,"5,1,4,2,13,6,3,10,12,9,15,14,8,7,11"
14464,commdev-image-keyboard-response,593,1231896,learnblock2,604.9000000953674,img/planet12_left.png,12,Community 2,NA,TRUE,f,f,NA,NA,NA,1,6,"5,1,4,2,13,6,3,10,12,9,15,14,8,7,11"
14464,commdev-image-keyboard-response,594,1233148,learnblock2,535.0999999046326,img/planet9_right.png,9,Community 2,NA,TRUE,j,j,NA,NA,NA,1,6,"5,1,4,2,13,6,3,10,12,9,15,14,8,7,11"
14464,commdev-image-keyboard-response,595,1234399,learnblock2,718.6000001430511,img/planet12_left.png,12,Community 2,NA,TRUE,f,f,NA,NA,NA,1,6,"5,1,4,2,13,6,3,10,12,9,15,14,8,7,11"
14464,commdev-image-keyboard-response,596,1235651,learnblock2,643.0999999046326,img/planet9_left.png,9,Community 2,NA,TRUE,f,f,NA,NA,NA,1,6,"5,1,4,2,13,6,3,10,12,9,15,14,8,7,11"
14464,commdev-image-keyboard-response,597,1236902,learnblock2,709.7000000476837,img/planet12_left.png,12,Community 2,NA,TRUE,f,f,NA,NA,NA,1,6,"5,1,4,2,13,6,3,10,12,9,15,14,8,7,11"
14464,commdev-image-keyboard-response,598,1238153,learnblock2,590.2000000476837,img/planet3_right.png,3,Community 2,NA,TRUE,j,j,NA,NA,NA,1,6,"5,1,4,2,13,6,3,10,12,9,15,14,8,7,11"
14464,commdev-image-keyboard-response,599,1239414,learnblock2,555.0999999046326,img/planet12_right.png,12,Community 2,NA,TRUE,j,j,NA,NA,NA,1,6,"5,1,4,2,13,6,3,10,12,9,15,14,8,7,11"
14464,commdev-image-keyboard-response,600,1240665,learnblock2,542.7000000476837,img/planet10_right.png,10,Community 2,NA,TRUE,j,j,NA,NA,NA,1,6,"5,1,4,2,13,6,3,10,12,9,15,14,8,7,11"
14464,commdev-image-keyboard-response,601,1241918,learnblock2,604.9000000953674,img/planet3_left.png,3,Community 2,NA,TRUE,f,f,NA,NA,NA,1,6,"5,1,4,2,13,6,3,10,12,9,15,14,8,7,11"
14464,commdev-image-keyboard-response,602,1243169,learnblock2,464.2999999523163,img/planet9_right.png,9,Community 2,NA,TRUE,j,j,NA,NA,NA,1,6,"5,1,4,2,13,6,3,10,12,9,15,14,8,7,11"
14464,commdev-image-keyboard-response,603,1244421,learnblock2,974.8999998569489,img/planet3_right.png,3,Community 2,NA,TRUE,j,j,NA,NA,NA,1,6,"5,1,4,2,13,6,3,10,12,9,15,14,8,7,11"
14464,commdev-image-keyboard-response,604,1245672,learnblock2,989.0999999046326,img/planet9_right.png,9,Community 2,NA,TRUE,j,j,NA,NA,NA,1,6,"5,1,4,2,13,6,3,10,12,9,15,14,8,7,11"
14464,commdev-image-keyboard-response,605,1246923,learnblock2,686.5999999046326,img/planet12_right.png,12,Community 2,NA,TRUE,j,j,NA,NA,NA,1,6,"5,1,4,2,13,6,3,10,12,9,15,14,8,7,11"
14464,commdev-image-keyboard-response,606,1248174,learnblock2,689.7999999523163,img/planet6_right.png,6,Community 2,NA,TRUE,j,j,NA,NA,NA,1,6,"5,1,4,2,13,6,3,10,12,9,15,14,8,7,11"
14464,commdev-image-keyboard-response,607,1249426,learnblock2,534,img/planet3_right.png,3,Community 2,NA,TRUE,j,j,NA,NA,NA,1,6,"5,1,4,2,13,6,3,10,12,9,15,14,8,7,11"
14464,commdev-image-keyboard-response,608,1250678,learnblock2,614.7999999523163,img/planet12_left.png,12,Community 2,NA,TRUE,f,f,NA,NA,NA,1,6,"5,1,4,2,13,6,3,10,12,9,15,14,8,7,11"
14464,commdev-image-keyboard-response,609,1251931,learnblock2,538.7999999523163,img/planet9_right.png,9,Community 2,NA,TRUE,j,j,NA,NA,NA,1,6,"5,1,4,2,13,6,3,10,12,9,15,14,8,7,11"
14464,commdev-image-keyboard-response,610,1253182,learnblock2,654.7999999523163,img/planet6_left.png,6,Community 2,NA,TRUE,f,f,NA,NA,NA,1,6,"5,1,4,2,13,6,3,10,12,9,15,14,8,7,11"
14464,commdev-image-keyboard-response,611,1254434,learnblock2,957.6000001430511,img/planet9_left.png,9,Community 2,NA,TRUE,f,f,NA,NA,NA,1,6,"5,1,4,2,13,6,3,10,12,9,15,14,8,7,11"
14464,commdev-image-keyboard-response,612,1255685,learnblock2,680.7999999523163,img/planet12_left.png,12,Community 2,NA,TRUE,f,f,NA,NA,NA,1,6,"5,1,4,2,13,6,3,10,12,9,15,14,8,7,11"
14464,commdev-image-keyboard-response,613,1256937,learnblock2,719.2000000476837,img/planet6_left.png,6,Community 2,NA,TRUE,f,f,NA,NA,NA,1,6,"5,1,4,2,13,6,3,10,12,9,15,14,8,7,11"
14464,commdev-image-keyboard-response,614,1258189,learnblock2,510.90000009536743,img/planet12_right.png,12,Community 2,NA,TRUE,j,j,NA,NA,NA,1,6,"5,1,4,2,13,6,3,10,12,9,15,14,8,7,11"
14464,commdev-image-keyboard-response,615,1259441,learnblock2,556.7000000476837,img/planet10_left.png,10,Community 2,NA,FALSE,j,f,NA,NA,NA,1,6,"5,1,4,2,13,6,3,10,12,9,15,14,8,7,11"
14464,commdev-image-keyboard-response,616,1260693,learnblock2,499.60000014305115,img/planet14_right.png,14,Community 3,NA,TRUE,j,j,NA,NA,NA,1,6,"5,1,4,2,13,6,3,10,12,9,15,14,8,7,11"
14464,commdev-image-keyboard-response,617,1261944,learnblock2,614.2999999523163,img/planet7_left.png,7,Community 3,NA,TRUE,f,f,NA,NA,NA,1,6,"5,1,4,2,13,6,3,10,12,9,15,14,8,7,11"
14464,commdev-image-keyboard-response,618,1263195,learnblock2,726.2000000476837,img/planet14_left.png,14,Community 3,NA,TRUE,f,f,NA,NA,NA,1,6,"5,1,4,2,13,6,3,10,12,9,15,14,8,7,11"
14464,commdev-image-keyboard-response,619,1264447,learnblock2,510.7999999523163,img/planet10_right.png,10,Community 2,NA,TRUE,j,j,NA,NA,NA,1,6,"5,1,4,2,13,6,3,10,12,9,15,14,8,7,11"
14464,commdev-image-keyboard-response,620,1265698,learnblock2,648,img/planet12_left.png,12,Community 2,NA,TRUE,f,f,NA,NA,NA,1,6,"5,1,4,2,13,6,3,10,12,9,15,14,8,7,11"
14464,commdev-image-keyboard-response,621,1266951,learnblock2,730,img/planet3_left.png,3,Community 2,NA,TRUE,f,f,NA,NA,NA,1,6,"5,1,4,2,13,6,3,10,12,9,15,14,8,7,11"
14464,commdev-image-keyboard-response,622,1268203,learnblock2,620.2000000476837,img/planet6_left.png,6,Community 2,NA,TRUE,f,f,NA,NA,NA,1,6,"5,1,4,2,13,6,3,10,12,9,15,14,8,7,11"
14464,commdev-image-keyboard-response,623,1269454,learnblock2,540.7000000476837,img/planet9_left.png,9,Community 2,NA,TRUE,f,f,NA,NA,NA,1,6,"5,1,4,2,13,6,3,10,12,9,15,14,8,7,11"
14464,commdev-image-keyboard-response,624,1270705,learnblock2,437.2000000476837,img/planet10_right.png,10,Community 2,NA,TRUE,j,j,NA,NA,NA,1,6,"5,1,4,2,13,6,3,10,12,9,15,14,8,7,11"
14464,commdev-image-keyboard-response,625,1271957,learnblock2,653.3999998569489,img/planet3_right.png,3,Community 2,NA,TRUE,j,j,NA,NA,NA,1,6,"5,1,4,2,13,6,3,10,12,9,15,14,8,7,11"
14464,commdev-image-keyboard-response,626,1273208,learnblock2,606.5,img/planet10_left.png,10,Community 2,NA,TRUE,f,f,NA,NA,NA,1,6,"5,1,4,2,13,6,3,10,12,9,15,14,8,7,11"
14464,commdev-image-keyboard-response,627,1274459,learnblock2,559.5,img/planet14_right.png,14,Community 3,NA,TRUE,j,j,NA,NA,NA,1,6,"5,1,4,2,13,6,3,10,12,9,15,14,8,7,11"
14464,commdev-image-keyboard-response,628,1275711,learnblock2,496.7999999523163,img/planet10_left.png,10,Community 2,NA,TRUE,f,f,NA,NA,NA,1,6,"5,1,4,2,13,6,3,10,12,9,15,14,8,7,11"
14464,commdev-image-keyboard-response,629,1276963,learnblock2,615.1999998092651,img/planet12_right.png,12,Community 2,NA,TRUE,j,j,NA,NA,NA,1,6,"5,1,4,2,13,6,3,10,12,9,15,14,8,7,11"
14464,commdev-image-keyboard-response,630,1278214,learnblock2,610.0999999046326,img/planet3_left.png,3,Community 2,NA,TRUE,f,f,NA,NA,NA,1,6,"5,1,4,2,13,6,3,10,12,9,15,14,8,7,11"
14464,commdev-image-keyboard-response,631,1279466,learnblock2,637.1999998092651,img/planet6_right.png,6,Community 2,NA,TRUE,j,j,NA,NA,NA,1,6,"5,1,4,2,13,6,3,10,12,9,15,14,8,7,11"
14464,commdev-image-keyboard-response,632,1280718,learnblock2,579.2000000476837,img/planet9_left.png,9,Community 2,NA,TRUE,f,f,NA,NA,NA,1,6,"5,1,4,2,13,6,3,10,12,9,15,14,8,7,11"
14464,commdev-image-keyboard-response,633,1281969,learnblock2,573.4000000953674,img/planet6_left.png,6,Community 2,NA,TRUE,f,f,NA,NA,NA,1,6,"5,1,4,2,13,6,3,10,12,9,15,14,8,7,11"
14464,commdev-image-keyboard-response,634,1283222,learnblock2,561.5999999046326,img/planet2_right.png,2,Community 1,NA,TRUE,j,j,NA,NA,NA,1,6,"5,1,4,2,13,6,3,10,12,9,15,14,8,7,11"
14464,commdev-image-keyboard-response,635,1284473,learnblock2,575.6000001430511,img/planet5_right.png,5,Community 1,NA,TRUE,j,j,NA,NA,NA,1,6,"5,1,4,2,13,6,3,10,12,9,15,14,8,7,11"
14464,commdev-image-keyboard-response,636,1285725,learnblock2,543.5,img/planet1_left.png,1,Community 1,NA,TRUE,f,f,NA,NA,NA,1,6,"5,1,4,2,13,6,3,10,12,9,15,14,8,7,11"
14464,commdev-image-keyboard-response,637,1286977,learnblock2,605.6000001430511,img/planet5_left.png,5,Community 1,NA,TRUE,f,f,NA,NA,NA,1,6,"5,1,4,2,13,6,3,10,12,9,15,14,8,7,11"
14464,commdev-image-keyboard-response,638,1288228,learnblock2,507.90000009536743,img/planet2_left.png,2,Community 1,NA,TRUE,f,f,NA,NA,NA,1,6,"5,1,4,2,13,6,3,10,12,9,15,14,8,7,11"
14464,commdev-image-keyboard-response,639,1289481,learnblock2,476.39999985694885,img/planet1_right.png,1,Community 1,NA,TRUE,j,j,NA,NA,NA,1,6,"5,1,4,2,13,6,3,10,12,9,15,14,8,7,11"
14464,commdev-image-keyboard-response,640,1290733,learnblock2,552.2000000476837,img/planet4_right.png,4,Community 1,NA,TRUE,j,j,NA,NA,NA,1,6,"5,1,4,2,13,6,3,10,12,9,15,14,8,7,11"
14464,commdev-image-keyboard-response,641,1291984,learnblock2,580.0999999046326,img/planet1_right.png,1,Community 1,NA,TRUE,j,j,NA,NA,NA,1,6,"5,1,4,2,13,6,3,10,12,9,15,14,8,7,11"
14464,commdev-image-keyboard-response,642,1293236,learnblock2,556.2000000476837,img/planet2_right.png,2,Community 1,NA,TRUE,j,j,NA,NA,NA,1,6,"5,1,4,2,13,6,3,10,12,9,15,14,8,7,11"
14464,commdev-image-keyboard-response,643,1294488,learnblock2,721.7999999523163,img/planet6_left.png,6,Community 2,NA,TRUE,f,f,NA,NA,NA,1,6,"5,1,4,2,13,6,3,10,12,9,15,14,8,7,11"
14464,commdev-image-keyboard-response,644,1295739,learnblock2,655.7000000476837,img/planet3_left.png,3,Community 2,NA,TRUE,f,f,NA,NA,NA,1,6,"5,1,4,2,13,6,3,10,12,9,15,14,8,7,11"
14464,commdev-image-keyboard-response,645,1296991,learnblock2,653,img/planet6_right.png,6,Community 2,NA,TRUE,j,j,NA,NA,NA,1,6,"5,1,4,2,13,6,3,10,12,9,15,14,8,7,11"
14464,commdev-image-keyboard-response,646,1298243,learnblock2,564.0999999046326,img/planet9_right.png,9,Community 2,NA,TRUE,j,j,NA,NA,NA,1,6,"5,1,4,2,13,6,3,10,12,9,15,14,8,7,11"
14464,commdev-image-keyboard-response,647,1299494,learnblock2,551.3000001907349,img/planet10_left.png,10,Community 2,NA,TRUE,f,f,NA,NA,NA,1,6,"5,1,4,2,13,6,3,10,12,9,15,14,8,7,11"
14464,commdev-image-keyboard-response,648,1300745,learnblock2,717.2999999523163,img/planet14_left.png,14,Community 3,NA,TRUE,f,f,NA,NA,NA,1,6,"5,1,4,2,13,6,3,10,12,9,15,14,8,7,11"
14464,commdev-image-keyboard-response,649,1301997,learnblock2,704.9000000953674,img/planet8_left.png,8,Community 3,NA,TRUE,f,f,NA,NA,NA,1,6,"5,1,4,2,13,6,3,10,12,9,15,14,8,7,11"
14464,commdev-image-keyboard-response,650,1303249,learnblock2,709.4000000953674,img/planet14_left.png,14,Community 3,NA,TRUE,f,f,NA,NA,NA,1,6,"5,1,4,2,13,6,3,10,12,9,15,14,8,7,11"
14464,commdev-image-keyboard-response,651,1304500,learnblock2,550.7999999523163,img/planet8_right.png,8,Community 3,NA,TRUE,j,j,NA,NA,NA,1,6,"5,1,4,2,13,6,3,10,12,9,15,14,8,7,11"
14464,commdev-image-keyboard-response,652,1305763,learnblock2,457.90000009536743,img/planet11_right.png,11,Community 3,NA,TRUE,j,j,NA,NA,NA,1,6,"5,1,4,2,13,6,3,10,12,9,15,14,8,7,11"
14464,commdev-image-keyboard-response,653,1307014,learnblock2,568.2000000476837,img/planet15_left.png,15,Community 3,NA,TRUE,f,f,NA,NA,NA,1,6,"5,1,4,2,13,6,3,10,12,9,15,14,8,7,11"
14464,commdev-image-keyboard-response,654,1308265,learnblock2,646.4000000953674,img/planet13_left.png,13,Community 1,NA,TRUE,f,f,NA,NA,NA,1,6,"5,1,4,2,13,6,3,10,12,9,15,14,8,7,11"
14464,commdev-image-keyboard-response,655,1309517,learnblock2,521.3000001907349,img/planet4_left.png,4,Community 1,NA,TRUE,f,f,NA,NA,NA,1,6,"5,1,4,2,13,6,3,10,12,9,15,14,8,7,11"
14464,commdev-image-keyboard-response,656,1310769,learnblock2,612.5,img/planet5_left.png,5,Community 1,NA,TRUE,f,f,NA,NA,NA,1,6,"5,1,4,2,13,6,3,10,12,9,15,14,8,7,11"
14464,commdev-image-keyboard-response,657,1312021,learnblock2,452.90000009536743,img/planet2_right.png,2,Community 1,NA,TRUE,j,j,NA,NA,NA,1,6,"5,1,4,2,13,6,3,10,12,9,15,14,8,7,11"
14464,commdev-image-keyboard-response,658,1313272,learnblock2,589.8999998569489,img/planet1_right.png,1,Community 1,NA,TRUE,j,j,NA,NA,NA,1,6,"5,1,4,2,13,6,3,10,12,9,15,14,8,7,11"
14464,commdev-image-keyboard-response,659,1314524,learnblock2,564.5,img/planet5_left.png,5,Community 1,NA,TRUE,f,f,NA,NA,NA,1,6,"5,1,4,2,13,6,3,10,12,9,15,14,8,7,11"
14464,commdev-image-keyboard-response,660,1315776,learnblock2,543.7000000476837,img/planet13_left.png,13,Community 1,NA,TRUE,f,f,NA,NA,NA,1,6,"5,1,4,2,13,6,3,10,12,9,15,14,8,7,11"
14464,commdev-image-keyboard-response,661,1317028,learnblock2,690.2000000476837,img/planet5_right.png,5,Community 1,NA,TRUE,j,j,NA,NA,NA,1,6,"5,1,4,2,13,6,3,10,12,9,15,14,8,7,11"
14464,commdev-image-keyboard-response,662,1318280,learnblock2,523.3999998569489,img/planet1_right.png,1,Community 1,NA,TRUE,j,j,NA,NA,NA,1,6,"5,1,4,2,13,6,3,10,12,9,15,14,8,7,11"
14464,commdev-image-keyboard-response,663,1319532,learnblock2,572.5999999046326,img/planet13_right.png,13,Community 1,NA,TRUE,j,j,NA,NA,NA,1,6,"5,1,4,2,13,6,3,10,12,9,15,14,8,7,11"
14464,commdev-image-keyboard-response,664,1320788,learnblock2,586,img/planet5_right.png,5,Community 1,NA,TRUE,j,j,NA,NA,NA,1,6,"5,1,4,2,13,6,3,10,12,9,15,14,8,7,11"
14464,commdev-image-keyboard-response,665,1322040,learnblock2,565,img/planet2_left.png,2,Community 1,NA,TRUE,f,f,NA,NA,NA,1,6,"5,1,4,2,13,6,3,10,12,9,15,14,8,7,11"
14464,commdev-image-keyboard-response,666,1323292,learnblock2,609.5,img/planet1_right.png,1,Community 1,NA,TRUE,j,j,NA,NA,NA,1,6,"5,1,4,2,13,6,3,10,12,9,15,14,8,7,11"
14464,commdev-image-keyboard-response,667,1324542,learnblock2,631,img/planet5_left.png,5,Community 1,NA,TRUE,f,f,NA,NA,NA,1,6,"5,1,4,2,13,6,3,10,12,9,15,14,8,7,11"
14464,commdev-image-keyboard-response,668,1325794,learnblock2,473.89999985694885,img/planet2_right.png,2,Community 1,NA,TRUE,j,j,NA,NA,NA,1,6,"5,1,4,2,13,6,3,10,12,9,15,14,8,7,11"
14464,commdev-image-keyboard-response,669,1327046,learnblock2,639.1999998092651,img/planet5_left.png,5,Community 1,NA,TRUE,f,f,NA,NA,NA,1,6,"5,1,4,2,13,6,3,10,12,9,15,14,8,7,11"
14464,commdev-image-keyboard-response,670,1328297,learnblock2,534,img/planet2_left.png,2,Community 1,NA,TRUE,f,f,NA,NA,NA,1,6,"5,1,4,2,13,6,3,10,12,9,15,14,8,7,11"
14464,commdev-image-keyboard-response,671,1329549,learnblock2,648.4000000953674,img/planet4_left.png,4,Community 1,NA,TRUE,f,f,NA,NA,NA,1,6,"5,1,4,2,13,6,3,10,12,9,15,14,8,7,11"
14464,commdev-image-keyboard-response,672,1330815,learnblock2,598.8999998569489,img/planet1_left.png,1,Community 1,NA,TRUE,f,f,NA,NA,NA,1,6,"5,1,4,2,13,6,3,10,12,9,15,14,8,7,11"
14464,commdev-image-keyboard-response,673,1332066,learnblock2,584.3999998569489,img/planet5_left.png,5,Community 1,NA,TRUE,f,f,NA,NA,NA,1,6,"5,1,4,2,13,6,3,10,12,9,15,14,8,7,11"
14464,commdev-image-keyboard-response,674,1333318,learnblock2,537.5999999046326,img/planet13_right.png,13,Community 1,NA,TRUE,j,j,NA,NA,NA,1,6,"5,1,4,2,13,6,3,10,12,9,15,14,8,7,11"
14464,commdev-image-keyboard-response,675,1334570,learnblock2,593.2999999523163,img/planet15_right.png,15,Community 3,NA,TRUE,j,j,NA,NA,NA,1,6,"5,1,4,2,13,6,3,10,12,9,15,14,8,7,11"
14464,commdev-image-keyboard-response,676,1335822,learnblock2,534,img/planet13_left.png,13,Community 1,NA,TRUE,f,f,NA,NA,NA,1,6,"5,1,4,2,13,6,3,10,12,9,15,14,8,7,11"
14464,commdev-image-keyboard-response,677,1337074,learnblock2,556.5,img/planet1_left.png,1,Community 1,NA,TRUE,f,f,NA,NA,NA,1,6,"5,1,4,2,13,6,3,10,12,9,15,14,8,7,11"
14464,commdev-image-keyboard-response,678,1338326,learnblock2,588.0999999046326,img/planet13_right.png,13,Community 1,NA,TRUE,j,j,NA,NA,NA,1,6,"5,1,4,2,13,6,3,10,12,9,15,14,8,7,11"
14464,commdev-image-keyboard-response,679,1339578,learnblock2,461.2000000476837,img/planet1_left.png,1,Community 1,NA,TRUE,f,f,NA,NA,NA,1,6,"5,1,4,2,13,6,3,10,12,9,15,14,8,7,11"
14464,commdev-image-keyboard-response,680,1340829,learnblock2,624.2999999523163,img/planet13_left.png,13,Community 1,NA,TRUE,f,f,NA,NA,NA,1,6,"5,1,4,2,13,6,3,10,12,9,15,14,8,7,11"
14464,commdev-image-keyboard-response,681,1342081,learnblock2,501.10000014305115,img/planet4_left.png,4,Community 1,NA,TRUE,f,f,NA,NA,NA,1,6,"5,1,4,2,13,6,3,10,12,9,15,14,8,7,11"
14464,commdev-image-keyboard-response,682,1343333,learnblock2,600.0999999046326,img/planet13_left.png,13,Community 1,NA,TRUE,f,f,NA,NA,NA,1,6,"5,1,4,2,13,6,3,10,12,9,15,14,8,7,11"
14464,commdev-image-keyboard-response,683,1344585,learnblock2,507.2000000476837,img/planet1_right.png,1,Community 1,NA,TRUE,j,j,NA,NA,NA,1,6,"5,1,4,2,13,6,3,10,12,9,15,14,8,7,11"
14464,commdev-image-keyboard-response,684,1345836,learnblock2,637.2999999523163,img/planet5_left.png,5,Community 1,NA,TRUE,f,f,NA,NA,NA,1,6,"5,1,4,2,13,6,3,10,12,9,15,14,8,7,11"
14464,commdev-image-keyboard-response,685,1347088,learnblock2,596.7000000476837,img/planet1_left.png,1,Community 1,NA,TRUE,f,f,NA,NA,NA,1,6,"5,1,4,2,13,6,3,10,12,9,15,14,8,7,11"
14464,commdev-image-keyboard-response,686,1348339,learnblock2,516,img/planet13_right.png,13,Community 1,NA,TRUE,j,j,NA,NA,NA,1,6,"5,1,4,2,13,6,3,10,12,9,15,14,8,7,11"
14464,commdev-image-keyboard-response,687,1349591,learnblock2,489.39999985694885,img/planet5_right.png,5,Community 1,NA,FALSE,f,j,NA,NA,NA,1,6,"5,1,4,2,13,6,3,10,12,9,15,14,8,7,11"
14464,commdev-image-keyboard-response,688,1350843,learnblock2,602,img/planet2_right.png,2,Community 1,NA,TRUE,j,j,NA,NA,NA,1,6,"5,1,4,2,13,6,3,10,12,9,15,14,8,7,11"
14464,commdev-image-keyboard-response,689,1352094,learnblock2,657.5,img/planet1_right.png,1,Community 1,NA,TRUE,j,j,NA,NA,NA,1,6,"5,1,4,2,13,6,3,10,12,9,15,14,8,7,11"
14464,commdev-image-keyboard-response,690,1353346,learnblock2,565.2000000476837,img/planet2_left.png,2,Community 1,NA,TRUE,f,f,NA,NA,NA,1,6,"5,1,4,2,13,6,3,10,12,9,15,14,8,7,11"
14464,commdev-image-keyboard-response,691,1354597,learnblock2,595.6000001430511,img/planet6_right.png,6,Community 2,NA,TRUE,j,j,NA,NA,NA,1,6,"5,1,4,2,13,6,3,10,12,9,15,14,8,7,11"
14464,commdev-image-keyboard-response,692,1355848,learnblock2,642,img/planet3_right.png,3,Community 2,NA,TRUE,j,j,NA,NA,NA,1,6,"5,1,4,2,13,6,3,10,12,9,15,14,8,7,11"
14464,commdev-image-keyboard-response,693,1357100,learnblock2,604.5999999046326,img/planet12_right.png,12,Community 2,NA,TRUE,j,j,NA,NA,NA,1,6,"5,1,4,2,13,6,3,10,12,9,15,14,8,7,11"
14464,commdev-image-keyboard-response,694,1358351,learnblock2,643.7000000476837,img/planet3_right.png,3,Community 2,NA,TRUE,j,j,NA,NA,NA,1,6,"5,1,4,2,13,6,3,10,12,9,15,14,8,7,11"
14464,commdev-image-keyboard-response,695,1359603,learnblock2,604.5,img/planet12_right.png,12,Community 2,NA,TRUE,j,j,NA,NA,NA,1,6,"5,1,4,2,13,6,3,10,12,9,15,14,8,7,11"
14464,commdev-image-keyboard-response,696,1360853,learnblock2,510.89999985694885,img/planet10_right.png,10,Community 2,NA,TRUE,j,j,NA,NA,NA,1,6,"5,1,4,2,13,6,3,10,12,9,15,14,8,7,11"
14464,commdev-image-keyboard-response,697,1362105,learnblock2,641.9000000953674,img/planet14_right.png,14,Community 3,NA,TRUE,j,j,NA,NA,NA,1,6,"5,1,4,2,13,6,3,10,12,9,15,14,8,7,11"
14464,commdev-image-keyboard-response,698,1363356,learnblock2,618.7999999523163,img/planet11_right.png,11,Community 3,NA,TRUE,j,j,NA,NA,NA,1,6,"5,1,4,2,13,6,3,10,12,9,15,14,8,7,11"
14464,commdev-image-keyboard-response,699,1364608,learnblock2,660.0999999046326,img/planet14_right.png,14,Community 3,NA,TRUE,j,j,NA,NA,NA,1,6,"5,1,4,2,13,6,3,10,12,9,15,14,8,7,11"
14464,commdev-image-keyboard-response,700,1365860,learnblock2,617.5999999046326,img/planet7_left.png,7,Community 3,NA,TRUE,f,f,NA,NA,NA,1,6,"5,1,4,2,13,6,3,10,12,9,15,14,8,7,11"
14464,commdev-image-keyboard-response,701,1367112,learnblock2,654.0999999046326,img/planet8_right.png,8,Community 3,NA,TRUE,j,j,NA,NA,NA,1,6,"5,1,4,2,13,6,3,10,12,9,15,14,8,7,11"
14464,commdev-image-keyboard-response,702,1368363,learnblock2,636.6000001430511,img/planet15_right.png,15,Community 3,NA,TRUE,j,j,NA,NA,NA,1,6,"5,1,4,2,13,6,3,10,12,9,15,14,8,7,11"
14464,commdev-image-keyboard-response,703,1369614,learnblock2,549.1999998092651,img/planet8_right.png,8,Community 3,NA,TRUE,j,j,NA,NA,NA,1,6,"5,1,4,2,13,6,3,10,12,9,15,14,8,7,11"
14464,commdev-image-keyboard-response,704,1370866,learnblock2,605.5999999046326,img/planet11_left.png,11,Community 3,NA,TRUE,f,f,NA,NA,NA,1,6,"5,1,4,2,13,6,3,10,12,9,15,14,8,7,11"
14464,commdev-image-keyboard-response,705,1372117,learnblock2,757.9000000953674,img/planet8_left.png,8,Community 3,NA,TRUE,f,f,NA,NA,NA,1,6,"5,1,4,2,13,6,3,10,12,9,15,14,8,7,11"
14464,commdev-image-keyboard-response,706,1373369,learnblock2,708.7000000476837,img/planet7_right.png,7,Community 3,NA,TRUE,j,j,NA,NA,NA,1,6,"5,1,4,2,13,6,3,10,12,9,15,14,8,7,11"
14464,commdev-image-keyboard-response,707,1374621,learnblock2,654.7000000476837,img/planet15_left.png,15,Community 3,NA,TRUE,f,f,NA,NA,NA,1,6,"5,1,4,2,13,6,3,10,12,9,15,14,8,7,11"
14464,commdev-image-keyboard-response,708,1375872,learnblock2,510.7000000476837,img/planet11_right.png,11,Community 3,NA,TRUE,j,j,NA,NA,NA,1,6,"5,1,4,2,13,6,3,10,12,9,15,14,8,7,11"
14464,commdev-image-keyboard-response,709,1377124,learnblock2,511.7999999523163,img/planet7_right.png,7,Community 3,NA,TRUE,j,j,NA,NA,NA,1,6,"5,1,4,2,13,6,3,10,12,9,15,14,8,7,11"
14464,commdev-image-keyboard-response,710,1378375,learnblock2,632.1000001430511,img/planet8_right.png,8,Community 3,NA,TRUE,j,j,NA,NA,NA,1,6,"5,1,4,2,13,6,3,10,12,9,15,14,8,7,11"
14464,commdev-image-keyboard-response,711,1379627,learnblock2,617.6000001430511,img/planet15_right.png,15,Community 3,NA,TRUE,j,j,NA,NA,NA,1,6,"5,1,4,2,13,6,3,10,12,9,15,14,8,7,11"
14464,commdev-image-keyboard-response,712,1380879,learnblock2,485.2999999523163,img/planet13_left.png,13,Community 1,NA,TRUE,f,f,NA,NA,NA,1,6,"5,1,4,2,13,6,3,10,12,9,15,14,8,7,11"
14464,commdev-image-keyboard-response,713,1382131,learnblock2,517.7000000476837,img/planet15_left.png,15,Community 3,NA,TRUE,f,f,NA,NA,NA,1,6,"5,1,4,2,13,6,3,10,12,9,15,14,8,7,11"
14464,commdev-image-keyboard-response,714,1383382,learnblock2,612.5999999046326,img/planet8_right.png,8,Community 3,NA,TRUE,j,j,NA,NA,NA,1,6,"5,1,4,2,13,6,3,10,12,9,15,14,8,7,11"
14464,commdev-image-keyboard-response,715,1384634,learnblock2,559.2999999523163,img/planet7_right.png,7,Community 3,NA,TRUE,j,j,NA,NA,NA,1,6,"5,1,4,2,13,6,3,10,12,9,15,14,8,7,11"
14464,commdev-image-keyboard-response,716,1385886,learnblock2,603.6000001430511,img/planet8_left.png,8,Community 3,NA,TRUE,f,f,NA,NA,NA,1,6,"5,1,4,2,13,6,3,10,12,9,15,14,8,7,11"
14464,commdev-image-keyboard-response,717,1387137,learnblock2,565.2000000476837,img/planet14_right.png,14,Community 3,NA,TRUE,j,j,NA,NA,NA,1,6,"5,1,4,2,13,6,3,10,12,9,15,14,8,7,11"
14464,commdev-image-keyboard-response,718,1388401,learnblock2,531.0999999046326,img/planet8_right.png,8,Community 3,NA,TRUE,j,j,NA,NA,NA,1,6,"5,1,4,2,13,6,3,10,12,9,15,14,8,7,11"
14464,commdev-image-keyboard-response,719,1389652,learnblock2,555.7999999523163,img/planet7_right.png,7,Community 3,NA,TRUE,j,j,NA,NA,NA,1,6,"5,1,4,2,13,6,3,10,12,9,15,14,8,7,11"
14464,commdev-image-keyboard-response,720,1390904,learnblock2,616.6999998092651,img/planet8_right.png,8,Community 3,NA,TRUE,j,j,NA,NA,NA,1,6,"5,1,4,2,13,6,3,10,12,9,15,14,8,7,11"
14464,commdev-image-keyboard-response,721,1392155,learnblock2,595.2000000476837,img/planet15_left.png,15,Community 3,NA,TRUE,f,f,NA,NA,NA,1,6,"5,1,4,2,13,6,3,10,12,9,15,14,8,7,11"
14464,commdev-image-keyboard-response,722,1393407,learnblock2,569.2000000476837,img/planet11_right.png,11,Community 3,NA,TRUE,j,j,NA,NA,NA,1,6,"5,1,4,2,13,6,3,10,12,9,15,14,8,7,11"
14464,commdev-image-keyboard-response,723,1394658,learnblock2,633.7000000476837,img/planet14_left.png,14,Community 3,NA,TRUE,f,f,NA,NA,NA,1,6,"5,1,4,2,13,6,3,10,12,9,15,14,8,7,11"
14464,commdev-image-keyboard-response,724,1395910,learnblock2,532.7000000476837,img/planet7_right.png,7,Community 3,NA,TRUE,j,j,NA,NA,NA,1,6,"5,1,4,2,13,6,3,10,12,9,15,14,8,7,11"
14464,commdev-image-keyboard-response,725,1397162,learnblock2,690.4000000953674,img/planet14_right.png,14,Community 3,NA,TRUE,j,j,NA,NA,NA,1,6,"5,1,4,2,13,6,3,10,12,9,15,14,8,7,11"
14464,commdev-image-keyboard-response,726,1398413,learnblock2,718.2999999523163,img/planet11_right.png,11,Community 3,NA,TRUE,j,j,NA,NA,NA,1,6,"5,1,4,2,13,6,3,10,12,9,15,14,8,7,11"
14464,commdev-image-keyboard-response,727,1399665,learnblock2,632.7999999523163,img/planet7_right.png,7,Community 3,NA,TRUE,j,j,NA,NA,NA,1,6,"5,1,4,2,13,6,3,10,12,9,15,14,8,7,11"
14464,commdev-image-keyboard-response,728,1400917,learnblock2,576.9000000953674,img/planet8_left.png,8,Community 3,NA,TRUE,f,f,NA,NA,NA,1,6,"5,1,4,2,13,6,3,10,12,9,15,14,8,7,11"
14464,commdev-image-keyboard-response,729,1402168,learnblock2,626.5999999046326,img/planet7_left.png,7,Community 3,NA,TRUE,f,f,NA,NA,NA,1,6,"5,1,4,2,13,6,3,10,12,9,15,14,8,7,11"
14464,commdev-image-keyboard-response,730,1403420,learnblock2,758.5,img/planet14_left.png,14,Community 3,NA,TRUE,f,f,NA,NA,NA,1,6,"5,1,4,2,13,6,3,10,12,9,15,14,8,7,11"
14464,commdev-image-keyboard-response,731,1404671,learnblock2,650.3000001907349,img/planet10_right.png,10,Community 2,NA,TRUE,j,j,NA,NA,NA,1,6,"5,1,4,2,13,6,3,10,12,9,15,14,8,7,11"
14464,commdev-image-keyboard-response,732,1405923,learnblock2,619,img/planet3_left.png,3,Community 2,NA,TRUE,f,f,NA,NA,NA,1,6,"5,1,4,2,13,6,3,10,12,9,15,14,8,7,11"
14464,commdev-image-keyboard-response,733,1407174,learnblock2,499.80000019073486,img/planet10_right.png,10,Community 2,NA,TRUE,j,j,NA,NA,NA,1,6,"5,1,4,2,13,6,3,10,12,9,15,14,8,7,11"
14464,commdev-image-keyboard-response,734,1408425,learnblock2,593.4000000953674,img/planet12_left.png,12,Community 2,NA,TRUE,f,f,NA,NA,NA,1,6,"5,1,4,2,13,6,3,10,12,9,15,14,8,7,11"
14464,commdev-image-keyboard-response,735,1409677,learnblock2,585.5,img/planet3_right.png,3,Community 2,NA,TRUE,j,j,NA,NA,NA,1,6,"5,1,4,2,13,6,3,10,12,9,15,14,8,7,11"
14464,commdev-image-keyboard-response,736,1410928,learnblock2,497.40000009536743,img/planet10_left.png,10,Community 2,NA,TRUE,f,f,NA,NA,NA,1,6,"5,1,4,2,13,6,3,10,12,9,15,14,8,7,11"
14464,commdev-image-keyboard-response,737,1412181,learnblock2,645.7000000476837,img/planet14_left.png,14,Community 3,NA,TRUE,f,f,NA,NA,NA,1,6,"5,1,4,2,13,6,3,10,12,9,15,14,8,7,11"
14464,commdev-image-keyboard-response,738,1413433,learnblock2,687,img/planet8_right.png,8,Community 3,NA,TRUE,j,j,NA,NA,NA,1,6,"5,1,4,2,13,6,3,10,12,9,15,14,8,7,11"
14464,commdev-image-keyboard-response,739,1414685,learnblock2,553,img/planet14_left.png,14,Community 3,NA,TRUE,f,f,NA,NA,NA,1,6,"5,1,4,2,13,6,3,10,12,9,15,14,8,7,11"
14464,commdev-image-keyboard-response,740,1415937,learnblock2,567.7999999523163,img/planet7_left.png,7,Community 3,NA,TRUE,f,f,NA,NA,NA,1,6,"5,1,4,2,13,6,3,10,12,9,15,14,8,7,11"
14464,commdev-image-keyboard-response,741,1417192,learnblock2,690.5999999046326,img/planet14_left.png,14,Community 3,NA,TRUE,f,f,NA,NA,NA,1,6,"5,1,4,2,13,6,3,10,12,9,15,14,8,7,11"
14464,commdev-image-keyboard-response,742,1418443,learnblock2,792.1999998092651,img/planet10_left.png,10,Community 2,NA,FALSE,j,f,NA,NA,NA,1,6,"5,1,4,2,13,6,3,10,12,9,15,14,8,7,11"
14464,commdev-image-keyboard-response,743,1419699,learnblock2,646.6999998092651,img/planet9_right.png,9,Community 2,NA,TRUE,j,j,NA,NA,NA,1,6,"5,1,4,2,13,6,3,10,12,9,15,14,8,7,11"
14464,commdev-image-keyboard-response,744,1420951,learnblock2,637.7000000476837,img/planet12_right.png,12,Community 2,NA,TRUE,j,j,NA,NA,NA,1,6,"5,1,4,2,13,6,3,10,12,9,15,14,8,7,11"
14464,commdev-image-keyboard-response,745,1422202,learnblock2,745,img/planet10_right.png,10,Community 2,NA,TRUE,j,j,NA,NA,NA,1,6,"5,1,4,2,13,6,3,10,12,9,15,14,8,7,11"
