subject_id,trial_type,trial_index,time_elapsed,block,rt,stimulus,planet,community,response,correct,key_press,learning_correct_response,parse,init_locations,final_locations,browser_interactions,num_comp,planet_map
15421,commdev-instructions,7,30240,NA,1094.6999999284744,"<p>In this game, you are a scientist on board a space shuttle. </p><p> On each mission, you will visit planets all across the universe.</p><img src=""img/controlroom.jpg"" width=300vw>",NA,NA,NA,NA,NA,NA,NA,NA,NA,25,6,"8,3,4,6,15,13,7,2,5,14,9,11,1,12,10"
15421,commdev-instructions,8,34538,NA,2212.7000000476837,"<p>Here are a few planets you might see:</p><img src=""img/practice1.png"" width=200vw><img src=""img/practice2.png"" width=200vw><img src=""img/practice3.png"" width=200vw>",NA,NA,NA,NA,NA,NA,NA,NA,NA,25,6,"8,3,4,6,15,13,7,2,5,14,9,11,1,12,10"
15421,commdev-instructions,9,42894,NA,948.2000000476837,"<p>Your job as a scientist is to record which direction the winds are moving on each planet.</p><p>There are two types of wind directions:</p><img src=""img/practice1_left.png"" width=200vw><img src=""img/practice1_right.png"" width=200vw>",NA,NA,NA,NA,NA,NA,NA,NA,NA,25,6,"8,3,4,6,15,13,7,2,5,14,9,11,1,12,10"
15421,commdev-instructions,10,49331,NA,1545.2999999523163,"<p>If the winds are moving this way, press the letter <strong>F</strong> on the keyboard as fast as you can.</p><img src=""img/leftwind.png"" width=250vw>",NA,NA,NA,NA,NA,NA,NA,NA,NA,25,6,"8,3,4,6,15,13,7,2,5,14,9,11,1,12,10"
15421,commdev-instructions,11,55178,NA,1353.2000000476837,"<p>If the winds are moving this way, press the letter <strong>J</strong> on the keyboard as fast as you can.</p><img src=""img/rightwind.png"" width=350vw>",NA,NA,NA,NA,NA,NA,NA,NA,NA,25,6,"8,3,4,6,15,13,7,2,5,14,9,11,1,12,10"
15421,commdev-instructions,12,60732,NA,1136.4000000953674,<p>You will have 1 second to respond. Try to respond before the time runs out!,NA,NA,NA,NA,NA,NA,NA,NA,NA,25,6,"8,3,4,6,15,13,7,2,5,14,9,11,1,12,10"
15421,commdev-instructions,13,66695,NA,540.4000000953674,<p>The planets you will visit will look different from each other.</p><p>You should respond <strong>only</strong> based on wind direction.,NA,NA,NA,NA,NA,NA,NA,NA,NA,25,6,"8,3,4,6,15,13,7,2,5,14,9,11,1,12,10"
15421,commdev-instructions,14,72435,NA,568.7999999523163,"<p> Ready to start the practice round? </p><p> Remember, press <strong>F</strong> or <strong>J</strong> depending on the wind direction.<br><img src=""img/categorize_planet_example.png""",NA,NA,NA,NA,NA,NA,NA,NA,NA,25,6,"8,3,4,6,15,13,7,2,5,14,9,11,1,12,10"
15421,commdev-instructions,26,129268,NA,2121.399999976158,"<p>Great, now try a short practice mission. </p><p> This time, you will have 1 second to respond and you won't know whether you pressed the right or wrong key for each planet.</p>",NA,NA,NA,NA,NA,NA,NA,NA,NA,25,6,"8,3,4,6,15,13,7,2,5,14,9,11,1,12,10"
15421,commdev-image-keyboard-response,27,130639,practice,695.7999999523163,img/practice1_left.png,NA,Number not found in mappings,NA,TRUE,f,f,NA,NA,NA,25,6,"8,3,4,6,15,13,7,2,5,14,9,11,1,12,10"
15421,commdev-image-keyboard-response,28,131892,practice,846.5,img/practice3_left.png,NA,Number not found in mappings,NA,TRUE,f,f,NA,NA,NA,25,6,"8,3,4,6,15,13,7,2,5,14,9,11,1,12,10"
15421,commdev-image-keyboard-response,29,133147,practice,849.2000000476837,img/practice1_left.png,NA,Number not found in mappings,NA,TRUE,f,f,NA,NA,NA,25,6,"8,3,4,6,15,13,7,2,5,14,9,11,1,12,10"
15421,commdev-image-keyboard-response,30,134409,practice,1200.4000000953674,img/practice3_right.png,NA,Number not found in mappings,NA,TRUE,j,j,NA,NA,NA,25,6,"8,3,4,6,15,13,7,2,5,14,9,11,1,12,10"
15421,commdev-image-keyboard-response,31,135674,practice,916.6999999284744,img/practice1_right.png,NA,Number not found in mappings,NA,TRUE,j,j,NA,NA,NA,25,6,"8,3,4,6,15,13,7,2,5,14,9,11,1,12,10"
15421,commdev-image-keyboard-response,32,136933,practice,769.5,img/practice3_right.png,NA,Number not found in mappings,NA,TRUE,j,j,NA,NA,NA,25,6,"8,3,4,6,15,13,7,2,5,14,9,11,1,12,10"
15421,commdev-image-keyboard-response,33,138190,practice,743,img/practice1_right.png,NA,Number not found in mappings,NA,TRUE,j,j,NA,NA,NA,25,6,"8,3,4,6,15,13,7,2,5,14,9,11,1,12,10"
15421,commdev-image-keyboard-response,34,139454,practice,691.6000000238419,img/practice3_left.png,NA,Number not found in mappings,NA,TRUE,f,f,NA,NA,NA,25,6,"8,3,4,6,15,13,7,2,5,14,9,11,1,12,10"
15421,commdev-instructions,35,149522,NA,525.7999999523163,"<p>Great job with the practice round.</p><p>During real missions, you won't know whether you pressed the right or wrong key for each planet.</p><p>But between missions, we will tell you how you did overall.</p>",NA,NA,NA,NA,NA,NA,NA,NA,NA,25,6,"8,3,4,6,15,13,7,2,5,14,9,11,1,12,10"
15421,commdev-instructions,36,159700,NA,1944.1000000238419,<p>Try your best! You will be paid a bonus based on how many correct responses you make!</p><p>Responses that are too slow will not count toward your bonus.</p>,NA,NA,NA,NA,NA,NA,NA,NA,NA,25,6,"8,3,4,6,15,13,7,2,5,14,9,11,1,12,10"
15421,commdev-instructions,37,167554,NA,1657.5,"<p>You are almost ready to start the real game.</p><p> First, we are going to ask you some questions about how the game works.</p>",NA,NA,NA,NA,NA,NA,NA,NA,NA,25,6,"8,3,4,6,15,13,7,2,5,14,9,11,1,12,10"
15421,commdev-instructions,46,245868,NA,2061.600000023842,"<p> Nice work! It is now time to start the real game.<p></p>You will go on two missions to record wind directions of different planets.<p></p>Each one will take about 5 minutes. You will get to take a break between missions.<p><p> Remember, press <strong>F</strong> or <strong>J</strong> depending on the wind direction. Good luck!<br><img src=""img/categorize_planet_example.png""",NA,NA,NA,NA,NA,NA,NA,NA,NA,25,6,"8,3,4,6,15,13,7,2,5,14,9,11,1,12,10"
15421,commdev-image-keyboard-response,48,251155,learnblock1,1092,img/planet7_right.png,7,Community 2,NA,TRUE,j,j,NA,NA,NA,25,6,"8,3,4,6,15,13,7,2,5,14,9,11,1,12,10"
15421,commdev-image-keyboard-response,49,252413,learnblock1,null,img/planet5_left.png,5,Community 2,NA,FALSE,null,f,NA,NA,NA,25,6,"8,3,4,6,15,13,7,2,5,14,9,11,1,12,10"
15421,commdev-image-keyboard-response,50,253672,learnblock1,55.39999997615814,img/planet7_left.png,7,Community 2,NA,TRUE,f,f,NA,NA,NA,25,6,"8,3,4,6,15,13,7,2,5,14,9,11,1,12,10"
15421,commdev-image-keyboard-response,51,254933,learnblock1,848.4000000953674,img/planet2_right.png,2,Community 2,NA,TRUE,j,j,NA,NA,NA,25,6,"8,3,4,6,15,13,7,2,5,14,9,11,1,12,10"
15421,commdev-image-keyboard-response,52,256194,learnblock1,751.6999999284744,img/planet5_right.png,5,Community 2,NA,TRUE,j,j,NA,NA,NA,25,6,"8,3,4,6,15,13,7,2,5,14,9,11,1,12,10"
15421,commdev-image-keyboard-response,53,257454,learnblock1,838.7000000476837,img/planet2_right.png,2,Community 2,NA,TRUE,j,j,NA,NA,NA,25,6,"8,3,4,6,15,13,7,2,5,14,9,11,1,12,10"
15421,commdev-image-keyboard-response,54,258712,learnblock1,759.5,img/planet7_left.png,7,Community 2,NA,TRUE,f,f,NA,NA,NA,25,6,"8,3,4,6,15,13,7,2,5,14,9,11,1,12,10"
15421,commdev-image-keyboard-response,55,259967,learnblock1,780.5,img/planet14_right.png,14,Community 2,NA,FALSE,f,j,NA,NA,NA,25,6,"8,3,4,6,15,13,7,2,5,14,9,11,1,12,10"
15421,commdev-image-keyboard-response,56,261225,learnblock1,873,img/planet7_left.png,7,Community 2,NA,TRUE,f,f,NA,NA,NA,25,6,"8,3,4,6,15,13,7,2,5,14,9,11,1,12,10"
15421,commdev-image-keyboard-response,57,262484,learnblock1,898.1000000238419,img/planet2_right.png,2,Community 2,NA,TRUE,j,j,NA,NA,NA,25,6,"8,3,4,6,15,13,7,2,5,14,9,11,1,12,10"
15421,commdev-image-keyboard-response,58,263747,learnblock1,797.5,img/planet7_left.png,7,Community 2,NA,TRUE,f,f,NA,NA,NA,25,6,"8,3,4,6,15,13,7,2,5,14,9,11,1,12,10"
15421,commdev-image-keyboard-response,59,265004,learnblock1,841.6000000238419,img/planet5_right.png,5,Community 2,NA,TRUE,j,j,NA,NA,NA,25,6,"8,3,4,6,15,13,7,2,5,14,9,11,1,12,10"
15421,commdev-image-keyboard-response,60,266263,learnblock1,743.6000000238419,img/planet7_left.png,7,Community 2,NA,TRUE,f,f,NA,NA,NA,25,6,"8,3,4,6,15,13,7,2,5,14,9,11,1,12,10"
15421,commdev-image-keyboard-response,61,267519,learnblock1,738.8000000715256,img/planet2_left.png,2,Community 2,NA,TRUE,f,f,NA,NA,NA,25,6,"8,3,4,6,15,13,7,2,5,14,9,11,1,12,10"
15421,commdev-image-keyboard-response,62,268777,learnblock1,1020.6000000238419,img/planet11_right.png,11,Community 3,NA,TRUE,j,j,NA,NA,NA,25,6,"8,3,4,6,15,13,7,2,5,14,9,11,1,12,10"
15421,commdev-image-keyboard-response,63,270037,learnblock1,717.1000000238419,img/planet12_right.png,12,Community 3,NA,TRUE,j,j,NA,NA,NA,25,6,"8,3,4,6,15,13,7,2,5,14,9,11,1,12,10"
15421,commdev-image-keyboard-response,64,271294,learnblock1,663.2999999523163,img/planet9_left.png,9,Community 3,NA,TRUE,f,f,NA,NA,NA,25,6,"8,3,4,6,15,13,7,2,5,14,9,11,1,12,10"
15421,commdev-image-keyboard-response,65,272555,learnblock1,661,img/planet12_left.png,12,Community 3,NA,TRUE,f,f,NA,NA,NA,25,6,"8,3,4,6,15,13,7,2,5,14,9,11,1,12,10"
15421,commdev-image-keyboard-response,66,273817,learnblock1,714.2000000476837,img/planet10_right.png,10,Community 3,NA,TRUE,j,j,NA,NA,NA,25,6,"8,3,4,6,15,13,7,2,5,14,9,11,1,12,10"
15421,commdev-image-keyboard-response,67,275069,learnblock1,750.1999999284744,img/planet12_left.png,12,Community 3,NA,TRUE,f,f,NA,NA,NA,25,6,"8,3,4,6,15,13,7,2,5,14,9,11,1,12,10"
15421,commdev-image-keyboard-response,68,276322,learnblock1,826.7999999523163,img/planet1_right.png,1,Community 3,NA,TRUE,j,j,NA,NA,NA,25,6,"8,3,4,6,15,13,7,2,5,14,9,11,1,12,10"
15421,commdev-image-keyboard-response,69,277574,learnblock1,876.5,img/planet11_right.png,11,Community 3,NA,TRUE,j,j,NA,NA,NA,25,6,"8,3,4,6,15,13,7,2,5,14,9,11,1,12,10"
15421,commdev-image-keyboard-response,70,278825,learnblock1,833.3000000715256,img/planet12_right.png,12,Community 3,NA,TRUE,j,j,NA,NA,NA,25,6,"8,3,4,6,15,13,7,2,5,14,9,11,1,12,10"
15421,commdev-image-keyboard-response,71,280076,learnblock1,763.8999999761581,img/planet9_left.png,9,Community 3,NA,TRUE,f,f,NA,NA,NA,25,6,"8,3,4,6,15,13,7,2,5,14,9,11,1,12,10"
15421,commdev-image-keyboard-response,72,281328,learnblock1,746.3000000715256,img/planet12_left.png,12,Community 3,NA,TRUE,f,f,NA,NA,NA,25,6,"8,3,4,6,15,13,7,2,5,14,9,11,1,12,10"
15421,commdev-image-keyboard-response,73,282579,learnblock1,633.3999999761581,img/planet11_left.png,11,Community 3,NA,TRUE,f,f,NA,NA,NA,25,6,"8,3,4,6,15,13,7,2,5,14,9,11,1,12,10"
15421,commdev-image-keyboard-response,74,283830,learnblock1,846.7000000476837,img/planet1_left.png,1,Community 3,NA,TRUE,f,f,NA,NA,NA,25,6,"8,3,4,6,15,13,7,2,5,14,9,11,1,12,10"
15421,commdev-image-keyboard-response,75,285082,learnblock1,1131.7000000476837,img/planet12_right.png,12,Community 3,NA,TRUE,j,j,NA,NA,NA,25,6,"8,3,4,6,15,13,7,2,5,14,9,11,1,12,10"
15421,commdev-image-keyboard-response,76,286333,learnblock1,900.8999999761581,img/planet9_left.png,9,Community 3,NA,TRUE,f,f,NA,NA,NA,25,6,"8,3,4,6,15,13,7,2,5,14,9,11,1,12,10"
15421,commdev-image-keyboard-response,77,287586,learnblock1,812,img/planet12_left.png,12,Community 3,NA,TRUE,f,f,NA,NA,NA,25,6,"8,3,4,6,15,13,7,2,5,14,9,11,1,12,10"
15421,commdev-image-keyboard-response,78,288837,learnblock1,911.8999999761581,img/planet1_right.png,1,Community 3,NA,TRUE,j,j,NA,NA,NA,25,6,"8,3,4,6,15,13,7,2,5,14,9,11,1,12,10"
15421,commdev-image-keyboard-response,79,290090,learnblock1,912.2000000476837,img/planet11_left.png,11,Community 3,NA,TRUE,f,f,NA,NA,NA,25,6,"8,3,4,6,15,13,7,2,5,14,9,11,1,12,10"
15421,commdev-image-keyboard-response,80,291341,learnblock1,642.5999999046326,img/planet10_right.png,10,Community 3,NA,TRUE,j,j,NA,NA,NA,25,6,"8,3,4,6,15,13,7,2,5,14,9,11,1,12,10"
15421,commdev-image-keyboard-response,81,292592,learnblock1,877.5,img/planet12_right.png,12,Community 3,NA,TRUE,j,j,NA,NA,NA,25,6,"8,3,4,6,15,13,7,2,5,14,9,11,1,12,10"
15421,commdev-image-keyboard-response,82,293853,learnblock1,693.8999999761581,img/planet10_left.png,10,Community 3,NA,TRUE,f,f,NA,NA,NA,25,6,"8,3,4,6,15,13,7,2,5,14,9,11,1,12,10"
15421,commdev-image-keyboard-response,83,295106,learnblock1,715.2000000476837,img/planet1_right.png,1,Community 3,NA,TRUE,j,j,NA,NA,NA,25,6,"8,3,4,6,15,13,7,2,5,14,9,11,1,12,10"
15421,commdev-image-keyboard-response,84,296357,learnblock1,811.2999999523163,img/planet12_right.png,12,Community 3,NA,TRUE,j,j,NA,NA,NA,25,6,"8,3,4,6,15,13,7,2,5,14,9,11,1,12,10"
15421,commdev-image-keyboard-response,85,297609,learnblock1,695.1999999284744,img/planet11_left.png,11,Community 3,NA,TRUE,f,f,NA,NA,NA,25,6,"8,3,4,6,15,13,7,2,5,14,9,11,1,12,10"
15421,commdev-image-keyboard-response,86,298860,learnblock1,635,img/planet10_right.png,10,Community 3,NA,TRUE,j,j,NA,NA,NA,25,6,"8,3,4,6,15,13,7,2,5,14,9,11,1,12,10"
15421,commdev-image-keyboard-response,87,300111,learnblock1,611,img/planet12_left.png,12,Community 3,NA,TRUE,f,f,NA,NA,NA,25,6,"8,3,4,6,15,13,7,2,5,14,9,11,1,12,10"
15421,commdev-image-keyboard-response,88,301363,learnblock1,547.5,img/planet10_left.png,10,Community 3,NA,TRUE,f,f,NA,NA,NA,25,6,"8,3,4,6,15,13,7,2,5,14,9,11,1,12,10"
15421,commdev-image-keyboard-response,89,302615,learnblock1,624.7000000476837,img/planet1_right.png,1,Community 3,NA,TRUE,j,j,NA,NA,NA,25,6,"8,3,4,6,15,13,7,2,5,14,9,11,1,12,10"
15421,commdev-image-keyboard-response,90,303866,learnblock1,554.5,img/planet9_left.png,9,Community 3,NA,TRUE,f,f,NA,NA,NA,25,6,"8,3,4,6,15,13,7,2,5,14,9,11,1,12,10"
15421,commdev-image-keyboard-response,91,305118,learnblock1,562.0999999046326,img/planet1_right.png,1,Community 3,NA,TRUE,j,j,NA,NA,NA,25,6,"8,3,4,6,15,13,7,2,5,14,9,11,1,12,10"
15421,commdev-image-keyboard-response,92,306370,learnblock1,492.2999999523163,img/planet9_left.png,9,Community 3,NA,TRUE,f,f,NA,NA,NA,25,6,"8,3,4,6,15,13,7,2,5,14,9,11,1,12,10"
15421,commdev-image-keyboard-response,93,307621,learnblock1,796.1000000238419,img/planet12_left.png,12,Community 3,NA,TRUE,f,f,NA,NA,NA,25,6,"8,3,4,6,15,13,7,2,5,14,9,11,1,12,10"
15421,commdev-image-keyboard-response,94,308872,learnblock1,870.3000000715256,img/planet1_left.png,1,Community 3,NA,TRUE,f,f,NA,NA,NA,25,6,"8,3,4,6,15,13,7,2,5,14,9,11,1,12,10"
15421,commdev-image-keyboard-response,95,310125,learnblock1,689,img/planet9_left.png,9,Community 3,NA,TRUE,f,f,NA,NA,NA,25,6,"8,3,4,6,15,13,7,2,5,14,9,11,1,12,10"
15421,commdev-image-keyboard-response,96,311376,learnblock1,743.1999999284744,img/planet15_right.png,15,Community 1,NA,TRUE,j,j,NA,NA,NA,25,6,"8,3,4,6,15,13,7,2,5,14,9,11,1,12,10"
15421,commdev-image-keyboard-response,97,312628,learnblock1,793.2000000476837,img/planet4_right.png,4,Community 1,NA,TRUE,j,j,NA,NA,NA,25,6,"8,3,4,6,15,13,7,2,5,14,9,11,1,12,10"
15421,commdev-image-keyboard-response,98,313885,learnblock1,746.4000000953674,img/planet3_left.png,3,Community 1,NA,TRUE,f,f,NA,NA,NA,25,6,"8,3,4,6,15,13,7,2,5,14,9,11,1,12,10"
15421,commdev-image-keyboard-response,99,315138,learnblock1,633.2999999523163,img/planet4_right.png,4,Community 1,NA,TRUE,j,j,NA,NA,NA,25,6,"8,3,4,6,15,13,7,2,5,14,9,11,1,12,10"
15421,commdev-image-keyboard-response,100,316389,learnblock1,725.0999999046326,img/planet8_left.png,8,Community 1,NA,TRUE,f,f,NA,NA,NA,25,6,"8,3,4,6,15,13,7,2,5,14,9,11,1,12,10"
15421,commdev-image-keyboard-response,101,317642,learnblock1,594.2999999523163,img/planet4_right.png,4,Community 1,NA,TRUE,j,j,NA,NA,NA,25,6,"8,3,4,6,15,13,7,2,5,14,9,11,1,12,10"
15421,commdev-image-keyboard-response,102,318895,learnblock1,662.8000000715256,img/planet15_left.png,15,Community 1,NA,TRUE,f,f,NA,NA,NA,25,6,"8,3,4,6,15,13,7,2,5,14,9,11,1,12,10"
15421,commdev-image-keyboard-response,103,320146,learnblock1,691.7000000476837,img/planet3_right.png,3,Community 1,NA,TRUE,j,j,NA,NA,NA,25,6,"8,3,4,6,15,13,7,2,5,14,9,11,1,12,10"
15421,commdev-image-keyboard-response,104,321398,learnblock1,622.5,img/planet15_left.png,15,Community 1,NA,TRUE,f,f,NA,NA,NA,25,6,"8,3,4,6,15,13,7,2,5,14,9,11,1,12,10"
15421,commdev-image-keyboard-response,105,322650,learnblock1,903.2000000476837,img/planet8_left.png,8,Community 1,NA,TRUE,f,f,NA,NA,NA,25,6,"8,3,4,6,15,13,7,2,5,14,9,11,1,12,10"
15421,commdev-image-keyboard-response,106,323901,learnblock1,883.8999999761581,img/planet3_left.png,3,Community 1,NA,TRUE,f,f,NA,NA,NA,25,6,"8,3,4,6,15,13,7,2,5,14,9,11,1,12,10"
15421,commdev-image-keyboard-response,107,325153,learnblock1,776.5,img/planet6_right.png,6,Community 1,NA,TRUE,j,j,NA,NA,NA,25,6,"8,3,4,6,15,13,7,2,5,14,9,11,1,12,10"
15421,commdev-image-keyboard-response,108,326404,learnblock1,849.5999999046326,img/planet3_right.png,3,Community 1,NA,TRUE,j,j,NA,NA,NA,25,6,"8,3,4,6,15,13,7,2,5,14,9,11,1,12,10"
15421,commdev-image-keyboard-response,109,327655,learnblock1,831.3000000715256,img/planet15_right.png,15,Community 1,NA,TRUE,j,j,NA,NA,NA,25,6,"8,3,4,6,15,13,7,2,5,14,9,11,1,12,10"
15421,commdev-image-keyboard-response,110,328906,learnblock1,928.4000000953674,img/planet4_right.png,4,Community 1,NA,TRUE,j,j,NA,NA,NA,25,6,"8,3,4,6,15,13,7,2,5,14,9,11,1,12,10"
15421,commdev-image-keyboard-response,111,330157,learnblock1,863.6000000238419,img/planet3_right.png,3,Community 1,NA,TRUE,j,j,NA,NA,NA,25,6,"8,3,4,6,15,13,7,2,5,14,9,11,1,12,10"
15421,commdev-image-keyboard-response,112,331408,learnblock1,892,img/planet15_right.png,15,Community 1,NA,TRUE,j,j,NA,NA,NA,25,6,"8,3,4,6,15,13,7,2,5,14,9,11,1,12,10"
15421,commdev-image-keyboard-response,113,332659,learnblock1,758,img/planet4_right.png,4,Community 1,NA,TRUE,j,j,NA,NA,NA,25,6,"8,3,4,6,15,13,7,2,5,14,9,11,1,12,10"
15421,commdev-image-keyboard-response,114,333911,learnblock1,734.7000000476837,img/planet6_left.png,6,Community 1,NA,TRUE,f,f,NA,NA,NA,25,6,"8,3,4,6,15,13,7,2,5,14,9,11,1,12,10"
15421,commdev-image-keyboard-response,115,335163,learnblock1,719.6000000238419,img/planet4_right.png,4,Community 1,NA,TRUE,j,j,NA,NA,NA,25,6,"8,3,4,6,15,13,7,2,5,14,9,11,1,12,10"
15421,commdev-image-keyboard-response,116,336415,learnblock1,791.2999999523163,img/planet15_right.png,15,Community 1,NA,TRUE,j,j,NA,NA,NA,25,6,"8,3,4,6,15,13,7,2,5,14,9,11,1,12,10"
15421,commdev-image-keyboard-response,117,337666,learnblock1,null,img/planet9_right.png,9,Community 3,NA,FALSE,null,j,NA,NA,NA,25,6,"8,3,4,6,15,13,7,2,5,14,9,11,1,12,10"
15421,commdev-image-keyboard-response,118,338918,learnblock1,52.200000047683716,img/planet1_right.png,1,Community 3,NA,TRUE,j,j,NA,NA,NA,25,6,"8,3,4,6,15,13,7,2,5,14,9,11,1,12,10"
15421,commdev-image-keyboard-response,119,340175,learnblock1,637.1999999284744,img/planet12_left.png,12,Community 3,NA,TRUE,f,f,NA,NA,NA,25,6,"8,3,4,6,15,13,7,2,5,14,9,11,1,12,10"
15421,commdev-image-keyboard-response,120,341426,learnblock1,636.7999999523163,img/planet9_left.png,9,Community 3,NA,TRUE,f,f,NA,NA,NA,25,6,"8,3,4,6,15,13,7,2,5,14,9,11,1,12,10"
15421,commdev-image-keyboard-response,121,342679,learnblock1,691.3999999761581,img/planet12_right.png,12,Community 3,NA,TRUE,j,j,NA,NA,NA,25,6,"8,3,4,6,15,13,7,2,5,14,9,11,1,12,10"
15421,commdev-image-keyboard-response,122,343931,learnblock1,647.7000000476837,img/planet10_right.png,10,Community 3,NA,TRUE,j,j,NA,NA,NA,25,6,"8,3,4,6,15,13,7,2,5,14,9,11,1,12,10"
15421,commdev-image-keyboard-response,123,345182,learnblock1,602.5,img/planet9_left.png,9,Community 3,NA,TRUE,f,f,NA,NA,NA,25,6,"8,3,4,6,15,13,7,2,5,14,9,11,1,12,10"
15421,commdev-image-keyboard-response,124,346444,learnblock1,633.7000000476837,img/planet15_right.png,15,Community 1,NA,TRUE,j,j,NA,NA,NA,25,6,"8,3,4,6,15,13,7,2,5,14,9,11,1,12,10"
15421,commdev-image-keyboard-response,125,347695,learnblock1,766,img/planet4_right.png,4,Community 1,NA,TRUE,j,j,NA,NA,NA,25,6,"8,3,4,6,15,13,7,2,5,14,9,11,1,12,10"
15421,commdev-image-keyboard-response,126,348946,learnblock1,604.7000000476837,img/planet15_left.png,15,Community 1,NA,TRUE,f,f,NA,NA,NA,25,6,"8,3,4,6,15,13,7,2,5,14,9,11,1,12,10"
15421,commdev-image-keyboard-response,127,350198,learnblock1,839.2000000476837,img/planet3_left.png,3,Community 1,NA,TRUE,f,f,NA,NA,NA,25,6,"8,3,4,6,15,13,7,2,5,14,9,11,1,12,10"
15421,commdev-image-keyboard-response,128,351449,learnblock1,917.7000000476837,img/planet8_right.png,8,Community 1,NA,TRUE,j,j,NA,NA,NA,25,6,"8,3,4,6,15,13,7,2,5,14,9,11,1,12,10"
15421,commdev-image-keyboard-response,129,352701,learnblock1,640,img/planet15_left.png,15,Community 1,NA,TRUE,f,f,NA,NA,NA,25,6,"8,3,4,6,15,13,7,2,5,14,9,11,1,12,10"
15421,commdev-image-keyboard-response,130,353953,learnblock1,736.6000000238419,img/planet4_left.png,4,Community 1,NA,TRUE,f,f,NA,NA,NA,25,6,"8,3,4,6,15,13,7,2,5,14,9,11,1,12,10"
15421,commdev-image-keyboard-response,131,355205,learnblock1,605.7999999523163,img/planet3_right.png,3,Community 1,NA,TRUE,j,j,NA,NA,NA,25,6,"8,3,4,6,15,13,7,2,5,14,9,11,1,12,10"
15421,commdev-image-keyboard-response,132,356456,learnblock1,886.5,img/planet8_right.png,8,Community 1,NA,TRUE,j,j,NA,NA,NA,25,6,"8,3,4,6,15,13,7,2,5,14,9,11,1,12,10"
15421,commdev-image-keyboard-response,133,357709,learnblock1,937.3000000715256,img/planet3_right.png,3,Community 1,NA,TRUE,j,j,NA,NA,NA,25,6,"8,3,4,6,15,13,7,2,5,14,9,11,1,12,10"
15421,commdev-image-keyboard-response,134,358960,learnblock1,824.7000000476837,img/planet6_right.png,6,Community 1,NA,TRUE,j,j,NA,NA,NA,25,6,"8,3,4,6,15,13,7,2,5,14,9,11,1,12,10"
15421,commdev-image-keyboard-response,135,360211,learnblock1,759.3999999761581,img/planet13_right.png,13,Community 2,NA,TRUE,j,j,NA,NA,NA,25,6,"8,3,4,6,15,13,7,2,5,14,9,11,1,12,10"
15421,commdev-image-keyboard-response,136,361463,learnblock1,741,img/planet6_right.png,6,Community 1,NA,TRUE,j,j,NA,NA,NA,25,6,"8,3,4,6,15,13,7,2,5,14,9,11,1,12,10"
15421,commdev-image-keyboard-response,137,362714,learnblock1,648.8000000715256,img/planet8_left.png,8,Community 1,NA,TRUE,f,f,NA,NA,NA,25,6,"8,3,4,6,15,13,7,2,5,14,9,11,1,12,10"
15421,commdev-image-keyboard-response,138,363966,learnblock1,699.3000000715256,img/planet3_left.png,3,Community 1,NA,TRUE,f,f,NA,NA,NA,25,6,"8,3,4,6,15,13,7,2,5,14,9,11,1,12,10"
15421,commdev-image-keyboard-response,139,365218,learnblock1,1217.8000000715256,img/planet6_right.png,6,Community 1,NA,TRUE,j,j,NA,NA,NA,25,6,"8,3,4,6,15,13,7,2,5,14,9,11,1,12,10"
15421,commdev-image-keyboard-response,140,366469,learnblock1,919.6000000238419,img/planet4_right.png,4,Community 1,NA,TRUE,j,j,NA,NA,NA,25,6,"8,3,4,6,15,13,7,2,5,14,9,11,1,12,10"
15421,commdev-image-keyboard-response,141,367721,learnblock1,854.0999999046326,img/planet3_right.png,3,Community 1,NA,TRUE,j,j,NA,NA,NA,25,6,"8,3,4,6,15,13,7,2,5,14,9,11,1,12,10"
15421,commdev-image-keyboard-response,142,368972,learnblock1,812.2999999523163,img/planet8_right.png,8,Community 1,NA,TRUE,j,j,NA,NA,NA,25,6,"8,3,4,6,15,13,7,2,5,14,9,11,1,12,10"
15421,commdev-image-keyboard-response,143,370224,learnblock1,701.3999999761581,img/planet3_right.png,3,Community 1,NA,TRUE,j,j,NA,NA,NA,25,6,"8,3,4,6,15,13,7,2,5,14,9,11,1,12,10"
15421,commdev-image-keyboard-response,144,371476,learnblock1,585.3999999761581,img/planet8_left.png,8,Community 1,NA,TRUE,f,f,NA,NA,NA,25,6,"8,3,4,6,15,13,7,2,5,14,9,11,1,12,10"
15421,commdev-image-keyboard-response,145,372728,learnblock1,612.1999999284744,img/planet15_left.png,15,Community 1,NA,TRUE,f,f,NA,NA,NA,25,6,"8,3,4,6,15,13,7,2,5,14,9,11,1,12,10"
15421,commdev-image-keyboard-response,146,373980,learnblock1,735.2000000476837,img/planet3_right.png,3,Community 1,NA,TRUE,j,j,NA,NA,NA,25,6,"8,3,4,6,15,13,7,2,5,14,9,11,1,12,10"
15421,commdev-image-keyboard-response,147,375231,learnblock1,828.4000000953674,img/planet15_left.png,15,Community 1,NA,TRUE,f,f,NA,NA,NA,25,6,"8,3,4,6,15,13,7,2,5,14,9,11,1,12,10"
15421,commdev-image-keyboard-response,148,376483,learnblock1,697.9000000953674,img/planet9_right.png,9,Community 3,NA,TRUE,j,j,NA,NA,NA,25,6,"8,3,4,6,15,13,7,2,5,14,9,11,1,12,10"
15421,commdev-image-keyboard-response,149,377735,learnblock1,559.2000000476837,img/planet1_left.png,1,Community 3,NA,TRUE,f,f,NA,NA,NA,25,6,"8,3,4,6,15,13,7,2,5,14,9,11,1,12,10"
15421,commdev-image-keyboard-response,150,378986,learnblock1,775,img/planet11_right.png,11,Community 3,NA,TRUE,j,j,NA,NA,NA,25,6,"8,3,4,6,15,13,7,2,5,14,9,11,1,12,10"
15421,commdev-image-keyboard-response,151,380238,learnblock1,661.2000000476837,img/planet2_left.png,2,Community 2,NA,TRUE,f,f,NA,NA,NA,25,6,"8,3,4,6,15,13,7,2,5,14,9,11,1,12,10"
15421,commdev-image-keyboard-response,152,381489,learnblock1,null,img/planet14_left.png,14,Community 2,NA,FALSE,null,f,NA,NA,NA,25,6,"8,3,4,6,15,13,7,2,5,14,9,11,1,12,10"
15421,commdev-image-keyboard-response,153,382741,learnblock1,199.60000002384186,img/planet7_left.png,7,Community 2,NA,TRUE,f,f,NA,NA,NA,25,6,"8,3,4,6,15,13,7,2,5,14,9,11,1,12,10"
15421,commdev-image-keyboard-response,154,383993,learnblock1,747.1000000238419,img/planet5_right.png,5,Community 2,NA,TRUE,j,j,NA,NA,NA,25,6,"8,3,4,6,15,13,7,2,5,14,9,11,1,12,10"
15421,commdev-image-keyboard-response,155,385245,learnblock1,727.2999999523163,img/planet2_right.png,2,Community 2,NA,TRUE,j,j,NA,NA,NA,25,6,"8,3,4,6,15,13,7,2,5,14,9,11,1,12,10"
15421,commdev-image-keyboard-response,156,386510,learnblock1,709.7000000476837,img/planet7_right.png,7,Community 2,NA,TRUE,j,j,NA,NA,NA,25,6,"8,3,4,6,15,13,7,2,5,14,9,11,1,12,10"
15421,commdev-image-keyboard-response,157,387762,learnblock1,607.3999999761581,img/planet5_right.png,5,Community 2,NA,TRUE,j,j,NA,NA,NA,25,6,"8,3,4,6,15,13,7,2,5,14,9,11,1,12,10"
15421,commdev-image-keyboard-response,158,389014,learnblock1,725.7999999523163,img/planet2_right.png,2,Community 2,NA,TRUE,j,j,NA,NA,NA,25,6,"8,3,4,6,15,13,7,2,5,14,9,11,1,12,10"
15421,commdev-image-keyboard-response,159,390272,learnblock1,661.5,img/planet7_right.png,7,Community 2,NA,TRUE,j,j,NA,NA,NA,25,6,"8,3,4,6,15,13,7,2,5,14,9,11,1,12,10"
15421,commdev-image-keyboard-response,160,391523,learnblock1,632.3999999761581,img/planet2_left.png,2,Community 2,NA,TRUE,f,f,NA,NA,NA,25,6,"8,3,4,6,15,13,7,2,5,14,9,11,1,12,10"
15421,commdev-image-keyboard-response,161,392774,learnblock1,594.9000000953674,img/planet7_right.png,7,Community 2,NA,TRUE,j,j,NA,NA,NA,25,6,"8,3,4,6,15,13,7,2,5,14,9,11,1,12,10"
15421,commdev-image-keyboard-response,162,394026,learnblock1,1014.8999999761581,img/planet14_right.png,14,Community 2,NA,TRUE,j,j,NA,NA,NA,25,6,"8,3,4,6,15,13,7,2,5,14,9,11,1,12,10"
15421,commdev-image-keyboard-response,163,395278,learnblock1,668.2999999523163,img/planet2_left.png,2,Community 2,NA,TRUE,f,f,NA,NA,NA,25,6,"8,3,4,6,15,13,7,2,5,14,9,11,1,12,10"
15421,commdev-image-keyboard-response,164,396529,learnblock1,764.3000000715256,img/planet14_left.png,14,Community 2,NA,TRUE,f,f,NA,NA,NA,25,6,"8,3,4,6,15,13,7,2,5,14,9,11,1,12,10"
15421,commdev-image-keyboard-response,165,397781,learnblock1,587.8999999761581,img/planet2_right.png,2,Community 2,NA,TRUE,j,j,NA,NA,NA,25,6,"8,3,4,6,15,13,7,2,5,14,9,11,1,12,10"
15421,commdev-image-keyboard-response,166,399034,learnblock1,729.7999999523163,img/planet11_right.png,11,Community 3,NA,TRUE,j,j,NA,NA,NA,25,6,"8,3,4,6,15,13,7,2,5,14,9,11,1,12,10"
15421,commdev-image-keyboard-response,167,400286,learnblock1,751.4000000953674,img/planet12_left.png,12,Community 3,NA,TRUE,f,f,NA,NA,NA,25,6,"8,3,4,6,15,13,7,2,5,14,9,11,1,12,10"
15421,commdev-image-keyboard-response,168,401537,learnblock1,645.4000000953674,img/planet1_right.png,1,Community 3,NA,TRUE,j,j,NA,NA,NA,25,6,"8,3,4,6,15,13,7,2,5,14,9,11,1,12,10"
15421,commdev-image-keyboard-response,169,402788,learnblock1,598.9000000953674,img/planet11_left.png,11,Community 3,NA,TRUE,f,f,NA,NA,NA,25,6,"8,3,4,6,15,13,7,2,5,14,9,11,1,12,10"
15421,commdev-image-keyboard-response,170,404047,learnblock1,538.8000000715256,img/planet10_right.png,10,Community 3,NA,TRUE,j,j,NA,NA,NA,25,6,"8,3,4,6,15,13,7,2,5,14,9,11,1,12,10"
15421,commdev-image-keyboard-response,171,405306,learnblock1,530.3999999761581,img/planet9_left.png,9,Community 3,NA,TRUE,f,f,NA,NA,NA,25,6,"8,3,4,6,15,13,7,2,5,14,9,11,1,12,10"
15421,commdev-image-keyboard-response,172,406558,learnblock1,761.8999999761581,img/planet10_right.png,10,Community 3,NA,TRUE,j,j,NA,NA,NA,25,6,"8,3,4,6,15,13,7,2,5,14,9,11,1,12,10"
15421,commdev-image-keyboard-response,173,407809,learnblock1,696.5999999046326,img/planet12_right.png,12,Community 3,NA,TRUE,j,j,NA,NA,NA,25,6,"8,3,4,6,15,13,7,2,5,14,9,11,1,12,10"
15421,commdev-image-keyboard-response,174,409061,learnblock1,558.7999999523163,img/planet1_left.png,1,Community 3,NA,TRUE,f,f,NA,NA,NA,25,6,"8,3,4,6,15,13,7,2,5,14,9,11,1,12,10"
15421,commdev-image-keyboard-response,175,410312,learnblock1,608.2999999523163,img/planet11_left.png,11,Community 3,NA,TRUE,f,f,NA,NA,NA,25,6,"8,3,4,6,15,13,7,2,5,14,9,11,1,12,10"
15421,commdev-image-keyboard-response,176,411564,learnblock1,593.8999999761581,img/planet10_right.png,10,Community 3,NA,TRUE,j,j,NA,NA,NA,25,6,"8,3,4,6,15,13,7,2,5,14,9,11,1,12,10"
15421,commdev-image-keyboard-response,177,412815,learnblock1,663.9000000953674,img/planet1_left.png,1,Community 3,NA,TRUE,f,f,NA,NA,NA,25,6,"8,3,4,6,15,13,7,2,5,14,9,11,1,12,10"
15421,commdev-image-keyboard-response,178,414066,learnblock1,737.5,img/planet11_left.png,11,Community 3,NA,TRUE,f,f,NA,NA,NA,25,6,"8,3,4,6,15,13,7,2,5,14,9,11,1,12,10"
15421,commdev-image-keyboard-response,179,415319,learnblock1,700,img/planet12_right.png,12,Community 3,NA,TRUE,j,j,NA,NA,NA,25,6,"8,3,4,6,15,13,7,2,5,14,9,11,1,12,10"
15421,commdev-image-keyboard-response,180,416570,learnblock1,587.8000000715256,img/planet1_right.png,1,Community 3,NA,TRUE,j,j,NA,NA,NA,25,6,"8,3,4,6,15,13,7,2,5,14,9,11,1,12,10"
15421,commdev-image-keyboard-response,181,417821,learnblock1,730.5,img/planet11_right.png,11,Community 3,NA,TRUE,j,j,NA,NA,NA,25,6,"8,3,4,6,15,13,7,2,5,14,9,11,1,12,10"
15421,commdev-image-keyboard-response,182,419072,learnblock1,943.3000000715256,img/planet1_right.png,1,Community 3,NA,TRUE,j,j,NA,NA,NA,25,6,"8,3,4,6,15,13,7,2,5,14,9,11,1,12,10"
15421,commdev-image-keyboard-response,183,420323,learnblock1,574.1000000238419,img/planet11_left.png,11,Community 3,NA,TRUE,f,f,NA,NA,NA,25,6,"8,3,4,6,15,13,7,2,5,14,9,11,1,12,10"
15421,commdev-image-keyboard-response,184,421575,learnblock1,717,img/planet12_left.png,12,Community 3,NA,TRUE,f,f,NA,NA,NA,25,6,"8,3,4,6,15,13,7,2,5,14,9,11,1,12,10"
15421,commdev-image-keyboard-response,185,422826,learnblock1,674.6000000238419,img/planet9_left.png,9,Community 3,NA,TRUE,f,f,NA,NA,NA,25,6,"8,3,4,6,15,13,7,2,5,14,9,11,1,12,10"
15421,commdev-image-keyboard-response,186,424077,learnblock1,1026.2999999523163,img/planet12_left.png,12,Community 3,NA,TRUE,f,f,NA,NA,NA,25,6,"8,3,4,6,15,13,7,2,5,14,9,11,1,12,10"
15421,commdev-image-keyboard-response,187,425328,learnblock1,665.2999999523163,img/planet9_right.png,9,Community 3,NA,TRUE,j,j,NA,NA,NA,25,6,"8,3,4,6,15,13,7,2,5,14,9,11,1,12,10"
15421,commdev-image-keyboard-response,188,426590,learnblock1,577.3999999761581,img/planet15_left.png,15,Community 1,NA,FALSE,j,f,NA,NA,NA,25,6,"8,3,4,6,15,13,7,2,5,14,9,11,1,12,10"
15421,commdev-image-keyboard-response,189,427842,learnblock1,733.3999999761581,img/planet8_right.png,8,Community 1,NA,TRUE,j,j,NA,NA,NA,25,6,"8,3,4,6,15,13,7,2,5,14,9,11,1,12,10"
15421,commdev-image-keyboard-response,190,429094,learnblock1,760.2000000476837,img/planet3_right.png,3,Community 1,NA,TRUE,j,j,NA,NA,NA,25,6,"8,3,4,6,15,13,7,2,5,14,9,11,1,12,10"
15421,commdev-image-keyboard-response,191,430346,learnblock1,598.5,img/planet15_left.png,15,Community 1,NA,TRUE,f,f,NA,NA,NA,25,6,"8,3,4,6,15,13,7,2,5,14,9,11,1,12,10"
15421,commdev-image-keyboard-response,192,431598,learnblock1,648.6000000238419,img/planet3_left.png,3,Community 1,NA,TRUE,f,f,NA,NA,NA,25,6,"8,3,4,6,15,13,7,2,5,14,9,11,1,12,10"
15421,commdev-image-keyboard-response,193,432849,learnblock1,721.5,img/planet8_left.png,8,Community 1,NA,TRUE,f,f,NA,NA,NA,25,6,"8,3,4,6,15,13,7,2,5,14,9,11,1,12,10"
15421,commdev-image-keyboard-response,194,434101,learnblock1,730.3999999761581,img/planet15_right.png,15,Community 1,NA,TRUE,j,j,NA,NA,NA,25,6,"8,3,4,6,15,13,7,2,5,14,9,11,1,12,10"
15421,commdev-image-keyboard-response,195,435352,learnblock1,756.7999999523163,img/planet8_right.png,8,Community 1,NA,TRUE,j,j,NA,NA,NA,25,6,"8,3,4,6,15,13,7,2,5,14,9,11,1,12,10"
15421,commdev-image-keyboard-response,196,436603,learnblock1,876.2000000476837,img/planet15_right.png,15,Community 1,NA,TRUE,j,j,NA,NA,NA,25,6,"8,3,4,6,15,13,7,2,5,14,9,11,1,12,10"
15421,commdev-image-keyboard-response,197,437854,learnblock1,719.3999999761581,img/planet4_right.png,4,Community 1,NA,TRUE,j,j,NA,NA,NA,25,6,"8,3,4,6,15,13,7,2,5,14,9,11,1,12,10"
15421,commdev-image-keyboard-response,198,439106,learnblock1,626.7999999523163,img/planet6_left.png,6,Community 1,NA,TRUE,f,f,NA,NA,NA,25,6,"8,3,4,6,15,13,7,2,5,14,9,11,1,12,10"
15421,commdev-image-keyboard-response,199,440357,learnblock1,678.6000000238419,img/planet8_left.png,8,Community 1,NA,TRUE,f,f,NA,NA,NA,25,6,"8,3,4,6,15,13,7,2,5,14,9,11,1,12,10"
15421,commdev-image-keyboard-response,200,441609,learnblock1,778.7999999523163,img/planet15_right.png,15,Community 1,NA,TRUE,j,j,NA,NA,NA,25,6,"8,3,4,6,15,13,7,2,5,14,9,11,1,12,10"
15421,commdev-image-keyboard-response,201,442861,learnblock1,662.7999999523163,img/planet9_left.png,9,Community 3,NA,TRUE,f,f,NA,NA,NA,25,6,"8,3,4,6,15,13,7,2,5,14,9,11,1,12,10"
15421,commdev-image-keyboard-response,202,444113,learnblock1,667.1999999284744,img/planet10_left.png,10,Community 3,NA,TRUE,f,f,NA,NA,NA,25,6,"8,3,4,6,15,13,7,2,5,14,9,11,1,12,10"
15421,commdev-image-keyboard-response,203,445365,learnblock1,787.3999999761581,img/planet1_left.png,1,Community 3,NA,TRUE,f,f,NA,NA,NA,25,6,"8,3,4,6,15,13,7,2,5,14,9,11,1,12,10"
15421,commdev-image-keyboard-response,204,446616,learnblock1,721.9000000953674,img/planet10_left.png,10,Community 3,NA,TRUE,f,f,NA,NA,NA,25,6,"8,3,4,6,15,13,7,2,5,14,9,11,1,12,10"
15421,commdev-image-keyboard-response,205,447868,learnblock1,611,img/planet12_left.png,12,Community 3,NA,TRUE,f,f,NA,NA,NA,25,6,"8,3,4,6,15,13,7,2,5,14,9,11,1,12,10"
15421,commdev-image-keyboard-response,206,449119,learnblock1,620,img/planet1_right.png,1,Community 3,NA,TRUE,j,j,NA,NA,NA,25,6,"8,3,4,6,15,13,7,2,5,14,9,11,1,12,10"
15421,commdev-image-keyboard-response,207,450371,learnblock1,758.1000000238419,img/planet11_left.png,11,Community 3,NA,TRUE,f,f,NA,NA,NA,25,6,"8,3,4,6,15,13,7,2,5,14,9,11,1,12,10"
15421,commdev-image-keyboard-response,208,451622,learnblock1,604.3000000715256,img/planet1_right.png,1,Community 3,NA,TRUE,j,j,NA,NA,NA,25,6,"8,3,4,6,15,13,7,2,5,14,9,11,1,12,10"
15421,commdev-image-keyboard-response,209,452873,learnblock1,605,img/planet10_left.png,10,Community 3,NA,TRUE,f,f,NA,NA,NA,25,6,"8,3,4,6,15,13,7,2,5,14,9,11,1,12,10"
15421,commdev-image-keyboard-response,210,454124,learnblock1,521.1000000238419,img/planet9_right.png,9,Community 3,NA,TRUE,j,j,NA,NA,NA,25,6,"8,3,4,6,15,13,7,2,5,14,9,11,1,12,10"
15421,commdev-image-keyboard-response,211,455376,learnblock1,779.5999999046326,img/planet15_right.png,15,Community 1,NA,TRUE,j,j,NA,NA,NA,25,6,"8,3,4,6,15,13,7,2,5,14,9,11,1,12,10"
15421,commdev-image-keyboard-response,212,456628,learnblock1,572.2999999523163,img/planet8_left.png,8,Community 1,NA,TRUE,f,f,NA,NA,NA,25,6,"8,3,4,6,15,13,7,2,5,14,9,11,1,12,10"
15421,commdev-image-keyboard-response,213,457879,learnblock1,668.2000000476837,img/planet4_left.png,4,Community 1,NA,TRUE,f,f,NA,NA,NA,25,6,"8,3,4,6,15,13,7,2,5,14,9,11,1,12,10"
15421,commdev-image-keyboard-response,214,459131,learnblock1,741.7999999523163,img/planet3_left.png,3,Community 1,NA,TRUE,f,f,NA,NA,NA,25,6,"8,3,4,6,15,13,7,2,5,14,9,11,1,12,10"
15421,commdev-image-keyboard-response,215,460391,learnblock1,654,img/planet15_left.png,15,Community 1,NA,TRUE,f,f,NA,NA,NA,25,6,"8,3,4,6,15,13,7,2,5,14,9,11,1,12,10"
15421,commdev-image-keyboard-response,216,461646,learnblock1,676.8000000715256,img/planet8_right.png,8,Community 1,NA,TRUE,j,j,NA,NA,NA,25,6,"8,3,4,6,15,13,7,2,5,14,9,11,1,12,10"
15421,commdev-image-keyboard-response,217,462898,learnblock1,674.2999999523163,img/planet4_left.png,4,Community 1,NA,TRUE,f,f,NA,NA,NA,25,6,"8,3,4,6,15,13,7,2,5,14,9,11,1,12,10"
15421,commdev-image-keyboard-response,218,464150,learnblock1,678.2000000476837,img/planet15_left.png,15,Community 1,NA,TRUE,f,f,NA,NA,NA,25,6,"8,3,4,6,15,13,7,2,5,14,9,11,1,12,10"
15421,commdev-image-keyboard-response,219,465403,learnblock1,636.4000000953674,img/planet8_left.png,8,Community 1,NA,TRUE,f,f,NA,NA,NA,25,6,"8,3,4,6,15,13,7,2,5,14,9,11,1,12,10"
15421,commdev-image-keyboard-response,220,466669,learnblock1,642.6000000238419,img/planet4_right.png,4,Community 1,NA,TRUE,j,j,NA,NA,NA,25,6,"8,3,4,6,15,13,7,2,5,14,9,11,1,12,10"
15421,commdev-image-keyboard-response,221,467933,learnblock1,605.5,img/planet6_left.png,6,Community 1,NA,TRUE,f,f,NA,NA,NA,25,6,"8,3,4,6,15,13,7,2,5,14,9,11,1,12,10"
15421,commdev-image-keyboard-response,222,469184,learnblock1,832.7000000476837,img/planet13_right.png,13,Community 2,NA,TRUE,j,j,NA,NA,NA,25,6,"8,3,4,6,15,13,7,2,5,14,9,11,1,12,10"
15421,commdev-image-keyboard-response,223,470436,learnblock1,884.1000000238419,img/planet14_right.png,14,Community 2,NA,TRUE,j,j,NA,NA,NA,25,6,"8,3,4,6,15,13,7,2,5,14,9,11,1,12,10"
15421,commdev-image-keyboard-response,224,471688,learnblock1,934.5,img/planet13_right.png,13,Community 2,NA,TRUE,j,j,NA,NA,NA,25,6,"8,3,4,6,15,13,7,2,5,14,9,11,1,12,10"
15421,commdev-image-keyboard-response,225,472939,learnblock1,957.5,img/planet14_left.png,14,Community 2,NA,TRUE,f,f,NA,NA,NA,25,6,"8,3,4,6,15,13,7,2,5,14,9,11,1,12,10"
15421,commdev-image-keyboard-response,226,474191,learnblock1,826.8999999761581,img/planet13_right.png,13,Community 2,NA,TRUE,j,j,NA,NA,NA,25,6,"8,3,4,6,15,13,7,2,5,14,9,11,1,12,10"
15421,commdev-image-keyboard-response,227,475441,learnblock1,781.8000000715256,img/planet7_left.png,7,Community 2,NA,TRUE,f,f,NA,NA,NA,25,6,"8,3,4,6,15,13,7,2,5,14,9,11,1,12,10"
15421,commdev-image-keyboard-response,228,476692,learnblock1,697.8999999761581,img/planet2_right.png,2,Community 2,NA,TRUE,j,j,NA,NA,NA,25,6,"8,3,4,6,15,13,7,2,5,14,9,11,1,12,10"
15421,commdev-image-keyboard-response,229,477944,learnblock1,653,img/planet5_left.png,5,Community 2,NA,TRUE,f,f,NA,NA,NA,25,6,"8,3,4,6,15,13,7,2,5,14,9,11,1,12,10"
15421,commdev-image-keyboard-response,230,479195,learnblock1,null,img/planet14_right.png,14,Community 2,NA,FALSE,null,j,NA,NA,NA,25,6,"8,3,4,6,15,13,7,2,5,14,9,11,1,12,10"
15421,commdev-image-keyboard-response,231,480446,learnblock1,1093.2999999523163,img/planet13_left.png,13,Community 2,NA,TRUE,f,f,NA,NA,NA,25,6,"8,3,4,6,15,13,7,2,5,14,9,11,1,12,10"
15421,commdev-image-keyboard-response,232,481706,learnblock1,709.1000000238419,img/planet14_right.png,14,Community 2,NA,TRUE,j,j,NA,NA,NA,25,6,"8,3,4,6,15,13,7,2,5,14,9,11,1,12,10"
15421,commdev-image-keyboard-response,233,482958,learnblock1,null,img/planet2_right.png,2,Community 2,NA,FALSE,null,j,NA,NA,NA,25,6,"8,3,4,6,15,13,7,2,5,14,9,11,1,12,10"
15421,commdev-image-keyboard-response,234,484210,learnblock1,null,img/planet11_left.png,11,Community 3,NA,FALSE,null,f,NA,NA,NA,25,6,"8,3,4,6,15,13,7,2,5,14,9,11,1,12,10"
15421,commdev-image-keyboard-response,235,485474,learnblock1,null,img/planet2_right.png,2,Community 2,NA,FALSE,null,j,NA,NA,NA,25,6,"8,3,4,6,15,13,7,2,5,14,9,11,1,12,10"
15421,commdev-image-keyboard-response,236,486726,learnblock1,null,img/planet7_right.png,7,Community 2,NA,FALSE,null,j,NA,NA,NA,25,6,"8,3,4,6,15,13,7,2,5,14,9,11,1,12,10"
15421,commdev-image-keyboard-response,237,487977,learnblock1,null,img/planet13_right.png,13,Community 2,NA,FALSE,null,j,NA,NA,NA,25,6,"8,3,4,6,15,13,7,2,5,14,9,11,1,12,10"
15421,commdev-image-keyboard-response,238,489228,learnblock1,null,img/planet5_right.png,5,Community 2,NA,FALSE,null,j,NA,NA,NA,25,6,"8,3,4,6,15,13,7,2,5,14,9,11,1,12,10"
15421,commdev-image-keyboard-response,239,490479,learnblock1,null,img/planet2_right.png,2,Community 2,NA,FALSE,null,j,NA,NA,NA,25,6,"8,3,4,6,15,13,7,2,5,14,9,11,1,12,10"
15421,commdev-image-keyboard-response,240,491730,learnblock1,null,img/planet7_left.png,7,Community 2,NA,FALSE,null,f,NA,NA,NA,25,6,"8,3,4,6,15,13,7,2,5,14,9,11,1,12,10"
15421,commdev-image-keyboard-response,241,492981,learnblock1,null,img/planet14_right.png,14,Community 2,NA,FALSE,null,j,NA,NA,NA,25,6,"8,3,4,6,15,13,7,2,5,14,9,11,1,12,10"
15421,commdev-image-keyboard-response,242,494233,learnblock1,344.7000000476837,img/planet7_right.png,7,Community 2,NA,TRUE,j,j,NA,NA,NA,25,6,"8,3,4,6,15,13,7,2,5,14,9,11,1,12,10"
15421,commdev-image-keyboard-response,243,495484,learnblock1,626,img/planet2_right.png,2,Community 2,NA,TRUE,j,j,NA,NA,NA,25,6,"8,3,4,6,15,13,7,2,5,14,9,11,1,12,10"
15421,commdev-image-keyboard-response,244,496735,learnblock1,584.7000000476837,img/planet7_right.png,7,Community 2,NA,TRUE,j,j,NA,NA,NA,25,6,"8,3,4,6,15,13,7,2,5,14,9,11,1,12,10"
15421,commdev-image-keyboard-response,245,497986,learnblock1,979,img/planet13_left.png,13,Community 2,NA,TRUE,f,f,NA,NA,NA,25,6,"8,3,4,6,15,13,7,2,5,14,9,11,1,12,10"
15421,commdev-image-keyboard-response,246,499238,learnblock1,572.2000000476837,img/planet14_right.png,14,Community 2,NA,TRUE,j,j,NA,NA,NA,25,6,"8,3,4,6,15,13,7,2,5,14,9,11,1,12,10"
15421,commdev-image-keyboard-response,247,500489,learnblock1,665.3999999761581,img/planet5_left.png,5,Community 2,NA,TRUE,f,f,NA,NA,NA,25,6,"8,3,4,6,15,13,7,2,5,14,9,11,1,12,10"
15421,commdev-image-keyboard-response,248,501740,learnblock1,674,img/planet7_right.png,7,Community 2,NA,TRUE,j,j,NA,NA,NA,25,6,"8,3,4,6,15,13,7,2,5,14,9,11,1,12,10"
15421,commdev-image-keyboard-response,249,502991,learnblock1,581.6000000238419,img/planet13_left.png,13,Community 2,NA,TRUE,f,f,NA,NA,NA,25,6,"8,3,4,6,15,13,7,2,5,14,9,11,1,12,10"
15421,commdev-image-keyboard-response,250,504243,learnblock1,702,img/planet6_left.png,6,Community 1,NA,TRUE,f,f,NA,NA,NA,25,6,"8,3,4,6,15,13,7,2,5,14,9,11,1,12,10"
15421,commdev-image-keyboard-response,251,505495,learnblock1,664.7000000476837,img/planet13_right.png,13,Community 2,NA,TRUE,j,j,NA,NA,NA,25,6,"8,3,4,6,15,13,7,2,5,14,9,11,1,12,10"
15421,commdev-image-keyboard-response,252,506746,learnblock1,526.3999999761581,img/planet14_left.png,14,Community 2,NA,TRUE,f,f,NA,NA,NA,25,6,"8,3,4,6,15,13,7,2,5,14,9,11,1,12,10"
15421,commdev-image-keyboard-response,253,507997,learnblock1,580.7000000476837,img/planet13_right.png,13,Community 2,NA,TRUE,j,j,NA,NA,NA,25,6,"8,3,4,6,15,13,7,2,5,14,9,11,1,12,10"
15421,commdev-image-keyboard-response,254,509249,learnblock1,725.1000000238419,img/planet6_right.png,6,Community 1,NA,TRUE,j,j,NA,NA,NA,25,6,"8,3,4,6,15,13,7,2,5,14,9,11,1,12,10"
15421,commdev-image-keyboard-response,255,510501,learnblock1,683.1000000238419,img/planet13_right.png,13,Community 2,NA,TRUE,j,j,NA,NA,NA,25,6,"8,3,4,6,15,13,7,2,5,14,9,11,1,12,10"
15421,commdev-image-keyboard-response,256,511752,learnblock1,660,img/planet6_left.png,6,Community 1,NA,TRUE,f,f,NA,NA,NA,25,6,"8,3,4,6,15,13,7,2,5,14,9,11,1,12,10"
15421,commdev-image-keyboard-response,257,513004,learnblock1,622.7000000476837,img/planet4_right.png,4,Community 1,NA,TRUE,j,j,NA,NA,NA,25,6,"8,3,4,6,15,13,7,2,5,14,9,11,1,12,10"
15421,commdev-image-keyboard-response,258,514256,learnblock1,673,img/planet15_right.png,15,Community 1,NA,TRUE,j,j,NA,NA,NA,25,6,"8,3,4,6,15,13,7,2,5,14,9,11,1,12,10"
15421,commdev-image-keyboard-response,259,515507,learnblock1,885.3999999761581,img/planet8_right.png,8,Community 1,NA,TRUE,j,j,NA,NA,NA,25,6,"8,3,4,6,15,13,7,2,5,14,9,11,1,12,10"
15421,commdev-image-keyboard-response,260,516758,learnblock1,797.5,img/planet3_right.png,3,Community 1,NA,TRUE,j,j,NA,NA,NA,25,6,"8,3,4,6,15,13,7,2,5,14,9,11,1,12,10"
15421,commdev-image-keyboard-response,261,518010,learnblock1,733.2000000476837,img/planet6_right.png,6,Community 1,NA,TRUE,j,j,NA,NA,NA,25,6,"8,3,4,6,15,13,7,2,5,14,9,11,1,12,10"
15421,commdev-image-keyboard-response,262,519261,learnblock1,713.6999999284744,img/planet3_right.png,3,Community 1,NA,TRUE,j,j,NA,NA,NA,25,6,"8,3,4,6,15,13,7,2,5,14,9,11,1,12,10"
15421,commdev-image-keyboard-response,263,520513,learnblock1,645.3000000715256,img/planet8_left.png,8,Community 1,NA,TRUE,f,f,NA,NA,NA,25,6,"8,3,4,6,15,13,7,2,5,14,9,11,1,12,10"
15421,commdev-image-keyboard-response,264,521765,learnblock1,719.1999999284744,img/planet6_left.png,6,Community 1,NA,TRUE,f,f,NA,NA,NA,25,6,"8,3,4,6,15,13,7,2,5,14,9,11,1,12,10"
15421,commdev-image-keyboard-response,265,523016,learnblock1,634.3999999761581,img/planet3_right.png,3,Community 1,NA,TRUE,j,j,NA,NA,NA,25,6,"8,3,4,6,15,13,7,2,5,14,9,11,1,12,10"
15421,commdev-image-keyboard-response,266,524268,learnblock1,658,img/planet4_left.png,4,Community 1,NA,TRUE,f,f,NA,NA,NA,25,6,"8,3,4,6,15,13,7,2,5,14,9,11,1,12,10"
15421,commdev-image-keyboard-response,267,525521,learnblock1,824.1999999284744,img/planet6_left.png,6,Community 1,NA,TRUE,f,f,NA,NA,NA,25,6,"8,3,4,6,15,13,7,2,5,14,9,11,1,12,10"
15421,commdev-image-keyboard-response,268,526772,learnblock1,599.6999999284744,img/planet3_right.png,3,Community 1,NA,TRUE,j,j,NA,NA,NA,25,6,"8,3,4,6,15,13,7,2,5,14,9,11,1,12,10"
15421,commdev-image-keyboard-response,269,528024,learnblock1,508.09999990463257,img/planet4_left.png,4,Community 1,NA,TRUE,f,f,NA,NA,NA,25,6,"8,3,4,6,15,13,7,2,5,14,9,11,1,12,10"
15421,commdev-image-keyboard-response,270,529282,learnblock1,742,img/planet6_left.png,6,Community 1,NA,TRUE,f,f,NA,NA,NA,25,6,"8,3,4,6,15,13,7,2,5,14,9,11,1,12,10"
15421,commdev-image-keyboard-response,271,530534,learnblock1,925,img/planet13_left.png,13,Community 2,NA,TRUE,f,f,NA,NA,NA,25,6,"8,3,4,6,15,13,7,2,5,14,9,11,1,12,10"
15421,commdev-image-keyboard-response,272,531786,learnblock1,655.2999999523163,img/planet7_right.png,7,Community 2,NA,TRUE,j,j,NA,NA,NA,25,6,"8,3,4,6,15,13,7,2,5,14,9,11,1,12,10"
15421,commdev-image-keyboard-response,273,533038,learnblock1,728.3999999761581,img/planet5_right.png,5,Community 2,NA,TRUE,j,j,NA,NA,NA,25,6,"8,3,4,6,15,13,7,2,5,14,9,11,1,12,10"
15421,commdev-image-keyboard-response,274,534290,learnblock1,565.3000000715256,img/planet13_left.png,13,Community 2,NA,TRUE,f,f,NA,NA,NA,25,6,"8,3,4,6,15,13,7,2,5,14,9,11,1,12,10"
15421,commdev-image-keyboard-response,275,535540,learnblock1,null,img/planet7_left.png,7,Community 2,NA,FALSE,null,f,NA,NA,NA,25,6,"8,3,4,6,15,13,7,2,5,14,9,11,1,12,10"
15421,commdev-image-keyboard-response,276,536792,learnblock1,128.10000002384186,img/planet14_right.png,14,Community 2,NA,FALSE,f,j,NA,NA,NA,25,6,"8,3,4,6,15,13,7,2,5,14,9,11,1,12,10"
15421,commdev-image-keyboard-response,277,538044,learnblock1,805,img/planet5_right.png,5,Community 2,NA,TRUE,j,j,NA,NA,NA,25,6,"8,3,4,6,15,13,7,2,5,14,9,11,1,12,10"
15421,commdev-image-keyboard-response,278,539306,learnblock1,670.8999999761581,img/planet7_right.png,7,Community 2,NA,TRUE,j,j,NA,NA,NA,25,6,"8,3,4,6,15,13,7,2,5,14,9,11,1,12,10"
15421,commdev-image-keyboard-response,279,540558,learnblock1,594.2999999523163,img/planet5_right.png,5,Community 2,NA,TRUE,j,j,NA,NA,NA,25,6,"8,3,4,6,15,13,7,2,5,14,9,11,1,12,10"
15421,commdev-image-keyboard-response,280,541810,learnblock1,664.4000000953674,img/planet7_left.png,7,Community 2,NA,TRUE,f,f,NA,NA,NA,25,6,"8,3,4,6,15,13,7,2,5,14,9,11,1,12,10"
15421,commdev-image-keyboard-response,281,543062,learnblock1,667.7999999523163,img/planet13_left.png,13,Community 2,NA,TRUE,f,f,NA,NA,NA,25,6,"8,3,4,6,15,13,7,2,5,14,9,11,1,12,10"
15421,commdev-image-keyboard-response,282,544314,learnblock1,602.1999999284744,img/planet6_left.png,6,Community 1,NA,TRUE,f,f,NA,NA,NA,25,6,"8,3,4,6,15,13,7,2,5,14,9,11,1,12,10"
15421,commdev-image-keyboard-response,283,545565,learnblock1,609.3999999761581,img/planet13_right.png,13,Community 2,NA,TRUE,j,j,NA,NA,NA,25,6,"8,3,4,6,15,13,7,2,5,14,9,11,1,12,10"
15421,commdev-image-keyboard-response,284,546816,learnblock1,586.8999999761581,img/planet14_left.png,14,Community 2,NA,TRUE,f,f,NA,NA,NA,25,6,"8,3,4,6,15,13,7,2,5,14,9,11,1,12,10"
15421,commdev-image-keyboard-response,285,548067,learnblock1,614.9000000953674,img/planet5_left.png,5,Community 2,NA,TRUE,f,f,NA,NA,NA,25,6,"8,3,4,6,15,13,7,2,5,14,9,11,1,12,10"
15421,commdev-image-keyboard-response,286,549319,learnblock1,874.2000000476837,img/planet2_left.png,2,Community 2,NA,TRUE,f,f,NA,NA,NA,25,6,"8,3,4,6,15,13,7,2,5,14,9,11,1,12,10"
15421,commdev-image-keyboard-response,287,550571,learnblock1,928.2000000476837,img/planet14_left.png,14,Community 2,NA,FALSE,j,f,NA,NA,NA,25,6,"8,3,4,6,15,13,7,2,5,14,9,11,1,12,10"
15421,commdev-image-keyboard-response,288,551823,learnblock1,4.199999928474426,img/planet13_right.png,13,Community 2,NA,FALSE,f,j,NA,NA,NA,25,6,"8,3,4,6,15,13,7,2,5,14,9,11,1,12,10"
15421,commdev-image-keyboard-response,289,553074,learnblock1,null,img/planet7_left.png,7,Community 2,NA,FALSE,null,f,NA,NA,NA,25,6,"8,3,4,6,15,13,7,2,5,14,9,11,1,12,10"
15421,commdev-image-keyboard-response,290,554327,learnblock1,570.3999999761581,img/planet2_right.png,2,Community 2,NA,TRUE,j,j,NA,NA,NA,25,6,"8,3,4,6,15,13,7,2,5,14,9,11,1,12,10"
15421,commdev-image-keyboard-response,291,555579,learnblock1,685.1000000238419,img/planet14_left.png,14,Community 2,NA,TRUE,f,f,NA,NA,NA,25,6,"8,3,4,6,15,13,7,2,5,14,9,11,1,12,10"
15421,commdev-image-keyboard-response,292,556830,learnblock1,643,img/planet7_left.png,7,Community 2,NA,TRUE,f,f,NA,NA,NA,25,6,"8,3,4,6,15,13,7,2,5,14,9,11,1,12,10"
15421,commdev-image-keyboard-response,293,558082,learnblock1,694.1000000238419,img/planet5_left.png,5,Community 2,NA,TRUE,f,f,NA,NA,NA,25,6,"8,3,4,6,15,13,7,2,5,14,9,11,1,12,10"
15421,commdev-image-keyboard-response,294,559333,learnblock1,864,img/planet14_right.png,14,Community 2,NA,TRUE,j,j,NA,NA,NA,25,6,"8,3,4,6,15,13,7,2,5,14,9,11,1,12,10"
15421,commdev-image-keyboard-response,295,560585,learnblock1,725.1999999284744,img/planet5_left.png,5,Community 2,NA,TRUE,f,f,NA,NA,NA,25,6,"8,3,4,6,15,13,7,2,5,14,9,11,1,12,10"
15421,commdev-image-keyboard-response,296,561836,learnblock1,752.2999999523163,img/planet7_left.png,7,Community 2,NA,TRUE,f,f,NA,NA,NA,25,6,"8,3,4,6,15,13,7,2,5,14,9,11,1,12,10"
15421,commdev-image-keyboard-response,297,563101,learnblock1,780.5,img/planet14_left.png,14,Community 2,NA,TRUE,f,f,NA,NA,NA,25,6,"8,3,4,6,15,13,7,2,5,14,9,11,1,12,10"
15421,commdev-image-keyboard-response,298,564352,learnblock1,770.7000000476837,img/planet7_left.png,7,Community 2,NA,TRUE,f,f,NA,NA,NA,25,6,"8,3,4,6,15,13,7,2,5,14,9,11,1,12,10"
15421,commdev-image-keyboard-response,299,565604,learnblock1,868,img/planet5_left.png,5,Community 2,NA,TRUE,f,f,NA,NA,NA,25,6,"8,3,4,6,15,13,7,2,5,14,9,11,1,12,10"
15421,commdev-image-keyboard-response,300,566855,learnblock1,876.3999999761581,img/planet2_right.png,2,Community 2,NA,TRUE,j,j,NA,NA,NA,25,6,"8,3,4,6,15,13,7,2,5,14,9,11,1,12,10"
15421,commdev-image-keyboard-response,301,568107,learnblock1,1061.8000000715256,img/planet7_right.png,7,Community 2,NA,FALSE,f,j,NA,NA,NA,25,6,"8,3,4,6,15,13,7,2,5,14,9,11,1,12,10"
15421,commdev-image-keyboard-response,302,569358,learnblock1,834.2999999523163,img/planet13_left.png,13,Community 2,NA,TRUE,f,f,NA,NA,NA,25,6,"8,3,4,6,15,13,7,2,5,14,9,11,1,12,10"
15421,commdev-image-keyboard-response,303,570610,learnblock1,654.2999999523163,img/planet6_left.png,6,Community 1,NA,TRUE,f,f,NA,NA,NA,25,6,"8,3,4,6,15,13,7,2,5,14,9,11,1,12,10"
15421,commdev-image-keyboard-response,304,571861,learnblock1,686.8999999761581,img/planet3_right.png,3,Community 1,NA,TRUE,j,j,NA,NA,NA,25,6,"8,3,4,6,15,13,7,2,5,14,9,11,1,12,10"
15421,commdev-image-keyboard-response,305,573114,learnblock1,828.2000000476837,img/planet8_right.png,8,Community 1,NA,TRUE,j,j,NA,NA,NA,25,6,"8,3,4,6,15,13,7,2,5,14,9,11,1,12,10"
15421,commdev-image-keyboard-response,306,574366,learnblock1,689.2999999523163,img/planet6_left.png,6,Community 1,NA,TRUE,f,f,NA,NA,NA,25,6,"8,3,4,6,15,13,7,2,5,14,9,11,1,12,10"
15421,commdev-image-keyboard-response,307,575618,learnblock1,906.1000000238419,img/planet4_right.png,4,Community 1,NA,TRUE,j,j,NA,NA,NA,25,6,"8,3,4,6,15,13,7,2,5,14,9,11,1,12,10"
15421,commdev-image-keyboard-response,308,576868,learnblock1,771.8000000715256,img/planet8_right.png,8,Community 1,NA,TRUE,j,j,NA,NA,NA,25,6,"8,3,4,6,15,13,7,2,5,14,9,11,1,12,10"
15421,commdev-image-keyboard-response,309,578120,learnblock1,703.3000000715256,img/planet6_left.png,6,Community 1,NA,TRUE,f,f,NA,NA,NA,25,6,"8,3,4,6,15,13,7,2,5,14,9,11,1,12,10"
15421,commdev-image-keyboard-response,310,579372,learnblock1,712.2999999523163,img/planet4_left.png,4,Community 1,NA,FALSE,j,f,NA,NA,NA,25,6,"8,3,4,6,15,13,7,2,5,14,9,11,1,12,10"
15421,commdev-image-keyboard-response,311,580624,learnblock1,null,img/planet8_right.png,8,Community 1,NA,FALSE,null,j,NA,NA,NA,25,6,"8,3,4,6,15,13,7,2,5,14,9,11,1,12,10"
15421,commdev-image-keyboard-response,312,581876,learnblock1,65,img/planet15_right.png,15,Community 1,NA,TRUE,j,j,NA,NA,NA,25,6,"8,3,4,6,15,13,7,2,5,14,9,11,1,12,10"
15421,commdev-image-keyboard-response,313,583128,learnblock1,627.2999999523163,img/planet8_left.png,8,Community 1,NA,TRUE,f,f,NA,NA,NA,25,6,"8,3,4,6,15,13,7,2,5,14,9,11,1,12,10"
15421,commdev-image-keyboard-response,314,584381,learnblock1,null,img/planet3_left.png,3,Community 1,NA,FALSE,null,f,NA,NA,NA,25,6,"8,3,4,6,15,13,7,2,5,14,9,11,1,12,10"
15421,commdev-image-keyboard-response,315,585632,learnblock1,144.39999997615814,img/planet8_right.png,8,Community 1,NA,TRUE,j,j,NA,NA,NA,25,6,"8,3,4,6,15,13,7,2,5,14,9,11,1,12,10"
15421,commdev-image-keyboard-response,316,586883,learnblock1,630.1000000238419,img/planet6_left.png,6,Community 1,NA,TRUE,f,f,NA,NA,NA,25,6,"8,3,4,6,15,13,7,2,5,14,9,11,1,12,10"
15421,commdev-image-keyboard-response,317,588135,learnblock1,430.89999997615814,img/planet13_right.png,13,Community 2,NA,TRUE,j,j,NA,NA,NA,25,6,"8,3,4,6,15,13,7,2,5,14,9,11,1,12,10"
15421,commdev-image-keyboard-response,318,589386,learnblock1,292.3000000715256,img/planet6_left.png,6,Community 1,NA,TRUE,f,f,NA,NA,NA,25,6,"8,3,4,6,15,13,7,2,5,14,9,11,1,12,10"
15421,commdev-image-keyboard-response,319,590637,learnblock1,601.8999999761581,img/planet3_right.png,3,Community 1,NA,TRUE,j,j,NA,NA,NA,25,6,"8,3,4,6,15,13,7,2,5,14,9,11,1,12,10"
15421,commdev-image-keyboard-response,320,591889,learnblock1,578.8999999761581,img/planet8_left.png,8,Community 1,NA,TRUE,f,f,NA,NA,NA,25,6,"8,3,4,6,15,13,7,2,5,14,9,11,1,12,10"
15421,commdev-image-keyboard-response,321,593140,learnblock1,680.5,img/planet3_right.png,3,Community 1,NA,TRUE,j,j,NA,NA,NA,25,6,"8,3,4,6,15,13,7,2,5,14,9,11,1,12,10"
15421,commdev-image-keyboard-response,322,594391,learnblock1,588.1000000238419,img/planet4_left.png,4,Community 1,NA,TRUE,f,f,NA,NA,NA,25,6,"8,3,4,6,15,13,7,2,5,14,9,11,1,12,10"
15421,commdev-image-keyboard-response,323,595643,learnblock1,730.8999999761581,img/planet8_left.png,8,Community 1,NA,TRUE,f,f,NA,NA,NA,25,6,"8,3,4,6,15,13,7,2,5,14,9,11,1,12,10"
15421,commdev-image-keyboard-response,324,596901,learnblock1,712.5,img/planet15_left.png,15,Community 1,NA,TRUE,f,f,NA,NA,NA,25,6,"8,3,4,6,15,13,7,2,5,14,9,11,1,12,10"
15421,commdev-image-keyboard-response,325,598153,learnblock1,917.8000000715256,img/planet4_left.png,4,Community 1,NA,TRUE,f,f,NA,NA,NA,25,6,"8,3,4,6,15,13,7,2,5,14,9,11,1,12,10"
15421,commdev-image-keyboard-response,326,599405,learnblock1,647.5,img/planet3_right.png,3,Community 1,NA,TRUE,j,j,NA,NA,NA,25,6,"8,3,4,6,15,13,7,2,5,14,9,11,1,12,10"
15421,commdev-image-keyboard-response,327,600657,learnblock1,555.1999999284744,img/planet15_left.png,15,Community 1,NA,TRUE,f,f,NA,NA,NA,25,6,"8,3,4,6,15,13,7,2,5,14,9,11,1,12,10"
15421,commdev-image-keyboard-response,328,601909,learnblock1,585.7000000476837,img/planet4_right.png,4,Community 1,NA,TRUE,j,j,NA,NA,NA,25,6,"8,3,4,6,15,13,7,2,5,14,9,11,1,12,10"
15421,commdev-image-keyboard-response,329,603160,learnblock1,729.6000000238419,img/planet15_right.png,15,Community 1,NA,TRUE,j,j,NA,NA,NA,25,6,"8,3,4,6,15,13,7,2,5,14,9,11,1,12,10"
15421,commdev-image-keyboard-response,330,604415,learnblock1,636.6000000238419,img/planet8_left.png,8,Community 1,NA,TRUE,f,f,NA,NA,NA,25,6,"8,3,4,6,15,13,7,2,5,14,9,11,1,12,10"
15421,commdev-image-keyboard-response,331,605666,learnblock1,776.1000000238419,img/planet15_left.png,15,Community 1,NA,TRUE,f,f,NA,NA,NA,25,6,"8,3,4,6,15,13,7,2,5,14,9,11,1,12,10"
15421,commdev-image-keyboard-response,332,606918,learnblock1,830.6000000238419,img/planet3_right.png,3,Community 1,NA,TRUE,j,j,NA,NA,NA,25,6,"8,3,4,6,15,13,7,2,5,14,9,11,1,12,10"
15421,commdev-image-keyboard-response,333,608170,learnblock1,854,img/planet8_left.png,8,Community 1,NA,TRUE,f,f,NA,NA,NA,25,6,"8,3,4,6,15,13,7,2,5,14,9,11,1,12,10"
15421,commdev-image-keyboard-response,334,609421,learnblock1,885.2999999523163,img/planet15_right.png,15,Community 1,NA,TRUE,j,j,NA,NA,NA,25,6,"8,3,4,6,15,13,7,2,5,14,9,11,1,12,10"
15421,commdev-image-keyboard-response,335,610676,learnblock1,773.6000000238419,img/planet9_right.png,9,Community 3,NA,TRUE,j,j,NA,NA,NA,25,6,"8,3,4,6,15,13,7,2,5,14,9,11,1,12,10"
15421,commdev-image-keyboard-response,336,611927,learnblock1,751.5999999046326,img/planet15_right.png,15,Community 1,NA,TRUE,j,j,NA,NA,NA,25,6,"8,3,4,6,15,13,7,2,5,14,9,11,1,12,10"
15421,commdev-image-keyboard-response,337,613179,learnblock1,686.5999999046326,img/planet4_right.png,4,Community 1,NA,TRUE,j,j,NA,NA,NA,25,6,"8,3,4,6,15,13,7,2,5,14,9,11,1,12,10"
15421,commdev-image-keyboard-response,338,614431,learnblock1,666.7000000476837,img/planet15_right.png,15,Community 1,NA,TRUE,j,j,NA,NA,NA,25,6,"8,3,4,6,15,13,7,2,5,14,9,11,1,12,10"
15421,commdev-image-keyboard-response,339,615682,learnblock1,804.5999999046326,img/planet3_left.png,3,Community 1,NA,TRUE,f,f,NA,NA,NA,25,6,"8,3,4,6,15,13,7,2,5,14,9,11,1,12,10"
15421,commdev-image-keyboard-response,340,616933,learnblock1,925.8999999761581,img/planet4_left.png,4,Community 1,NA,TRUE,f,f,NA,NA,NA,25,6,"8,3,4,6,15,13,7,2,5,14,9,11,1,12,10"
15421,commdev-image-keyboard-response,341,618185,learnblock1,933.8999999761581,img/planet15_right.png,15,Community 1,NA,TRUE,j,j,NA,NA,NA,25,6,"8,3,4,6,15,13,7,2,5,14,9,11,1,12,10"
15421,commdev-image-keyboard-response,342,619436,learnblock1,956.7999999523163,img/planet8_left.png,8,Community 1,NA,TRUE,f,f,NA,NA,NA,25,6,"8,3,4,6,15,13,7,2,5,14,9,11,1,12,10"
15421,commdev-image-keyboard-response,343,620688,learnblock1,1008.1000000238419,img/planet6_right.png,6,Community 1,NA,FALSE,f,j,NA,NA,NA,25,6,"8,3,4,6,15,13,7,2,5,14,9,11,1,12,10"
15421,commdev-image-keyboard-response,344,621940,learnblock1,1080.7000000476837,img/planet4_left.png,4,Community 1,NA,TRUE,f,f,NA,NA,NA,25,6,"8,3,4,6,15,13,7,2,5,14,9,11,1,12,10"
15421,commdev-image-keyboard-response,345,623193,learnblock1,968.2000000476837,img/planet3_left.png,3,Community 1,NA,TRUE,f,f,NA,NA,NA,25,6,"8,3,4,6,15,13,7,2,5,14,9,11,1,12,10"
15421,commdev-image-keyboard-response,346,624444,learnblock1,810.3999999761581,img/planet6_left.png,6,Community 1,NA,TRUE,f,f,NA,NA,NA,25,6,"8,3,4,6,15,13,7,2,5,14,9,11,1,12,10"
15421,commdev-image-keyboard-response,347,625696,learnblock1,745.9000000953674,img/planet4_left.png,4,Community 1,NA,TRUE,f,f,NA,NA,NA,25,6,"8,3,4,6,15,13,7,2,5,14,9,11,1,12,10"
15421,commdev-image-keyboard-response,351,676876,learnblock2,745.7999999523163,img/planet13_left.png,13,Community 2,NA,TRUE,f,f,NA,NA,NA,25,6,"8,3,4,6,15,13,7,2,5,14,9,11,1,12,10"
15421,commdev-image-keyboard-response,352,678128,learnblock2,653.5,img/planet5_left.png,5,Community 2,NA,TRUE,f,f,NA,NA,NA,25,6,"8,3,4,6,15,13,7,2,5,14,9,11,1,12,10"
15421,commdev-image-keyboard-response,353,679379,learnblock2,799.3999999761581,img/planet14_right.png,14,Community 2,NA,TRUE,j,j,NA,NA,NA,25,6,"8,3,4,6,15,13,7,2,5,14,9,11,1,12,10"
15421,commdev-image-keyboard-response,354,680631,learnblock2,777.2999999523163,img/planet13_left.png,13,Community 2,NA,TRUE,f,f,NA,NA,NA,25,6,"8,3,4,6,15,13,7,2,5,14,9,11,1,12,10"
15421,commdev-image-keyboard-response,355,681883,learnblock2,643.3999999761581,img/planet7_left.png,7,Community 2,NA,TRUE,f,f,NA,NA,NA,25,6,"8,3,4,6,15,13,7,2,5,14,9,11,1,12,10"
15421,commdev-image-keyboard-response,356,683134,learnblock2,576.1000000238419,img/planet5_left.png,5,Community 2,NA,TRUE,f,f,NA,NA,NA,25,6,"8,3,4,6,15,13,7,2,5,14,9,11,1,12,10"
15421,commdev-image-keyboard-response,357,684385,learnblock2,625.7999999523163,img/planet7_left.png,7,Community 2,NA,TRUE,f,f,NA,NA,NA,25,6,"8,3,4,6,15,13,7,2,5,14,9,11,1,12,10"
15421,commdev-image-keyboard-response,358,685637,learnblock2,631,img/planet14_left.png,14,Community 2,NA,TRUE,f,f,NA,NA,NA,25,6,"8,3,4,6,15,13,7,2,5,14,9,11,1,12,10"
15421,commdev-image-keyboard-response,359,686888,learnblock2,519.7999999523163,img/planet13_right.png,13,Community 2,NA,FALSE,f,j,NA,NA,NA,25,6,"8,3,4,6,15,13,7,2,5,14,9,11,1,12,10"
15421,commdev-image-keyboard-response,360,688140,learnblock2,670.2999999523163,img/planet7_left.png,7,Community 2,NA,TRUE,f,f,NA,NA,NA,25,6,"8,3,4,6,15,13,7,2,5,14,9,11,1,12,10"
15421,commdev-image-keyboard-response,361,689391,learnblock2,651.8999999761581,img/planet5_left.png,5,Community 2,NA,TRUE,f,f,NA,NA,NA,25,6,"8,3,4,6,15,13,7,2,5,14,9,11,1,12,10"
15421,commdev-image-keyboard-response,362,690643,learnblock2,544.7000000476837,img/planet13_right.png,13,Community 2,NA,TRUE,j,j,NA,NA,NA,25,6,"8,3,4,6,15,13,7,2,5,14,9,11,1,12,10"
15421,commdev-image-keyboard-response,363,691896,learnblock2,730,img/planet5_left.png,5,Community 2,NA,TRUE,f,f,NA,NA,NA,25,6,"8,3,4,6,15,13,7,2,5,14,9,11,1,12,10"
15421,commdev-image-keyboard-response,364,693148,learnblock2,643,img/planet2_right.png,2,Community 2,NA,TRUE,j,j,NA,NA,NA,25,6,"8,3,4,6,15,13,7,2,5,14,9,11,1,12,10"
15421,commdev-image-keyboard-response,365,694399,learnblock2,762.5,img/planet11_right.png,11,Community 3,NA,TRUE,j,j,NA,NA,NA,25,6,"8,3,4,6,15,13,7,2,5,14,9,11,1,12,10"
15421,commdev-image-keyboard-response,366,695651,learnblock2,578.1000000238419,img/planet2_left.png,2,Community 2,NA,TRUE,f,f,NA,NA,NA,25,6,"8,3,4,6,15,13,7,2,5,14,9,11,1,12,10"
15421,commdev-image-keyboard-response,367,696902,learnblock2,720.3999999761581,img/planet14_left.png,14,Community 2,NA,TRUE,f,f,NA,NA,NA,25,6,"8,3,4,6,15,13,7,2,5,14,9,11,1,12,10"
15421,commdev-image-keyboard-response,368,698153,learnblock2,655.3999999761581,img/planet2_left.png,2,Community 2,NA,TRUE,f,f,NA,NA,NA,25,6,"8,3,4,6,15,13,7,2,5,14,9,11,1,12,10"
15421,commdev-image-keyboard-response,369,699405,learnblock2,618.2999999523163,img/planet5_right.png,5,Community 2,NA,TRUE,j,j,NA,NA,NA,25,6,"8,3,4,6,15,13,7,2,5,14,9,11,1,12,10"
15421,commdev-image-keyboard-response,370,700656,learnblock2,619.5999999046326,img/planet14_left.png,14,Community 2,NA,TRUE,f,f,NA,NA,NA,25,6,"8,3,4,6,15,13,7,2,5,14,9,11,1,12,10"
15421,commdev-image-keyboard-response,371,701907,learnblock2,534.5,img/planet5_right.png,5,Community 2,NA,TRUE,j,j,NA,NA,NA,25,6,"8,3,4,6,15,13,7,2,5,14,9,11,1,12,10"
15421,commdev-image-keyboard-response,372,703158,learnblock2,650.3999999761581,img/planet13_left.png,13,Community 2,NA,TRUE,f,f,NA,NA,NA,25,6,"8,3,4,6,15,13,7,2,5,14,9,11,1,12,10"
15421,commdev-image-keyboard-response,373,704411,learnblock2,723.8999999761581,img/planet14_left.png,14,Community 2,NA,TRUE,f,f,NA,NA,NA,25,6,"8,3,4,6,15,13,7,2,5,14,9,11,1,12,10"
15421,commdev-image-keyboard-response,374,705668,learnblock2,634.6999999284744,img/planet7_left.png,7,Community 2,NA,TRUE,f,f,NA,NA,NA,25,6,"8,3,4,6,15,13,7,2,5,14,9,11,1,12,10"
15421,commdev-image-keyboard-response,375,706920,learnblock2,563.3999999761581,img/planet2_left.png,2,Community 2,NA,TRUE,f,f,NA,NA,NA,25,6,"8,3,4,6,15,13,7,2,5,14,9,11,1,12,10"
15421,commdev-image-keyboard-response,376,708172,learnblock2,659.5,img/planet5_left.png,5,Community 2,NA,TRUE,f,f,NA,NA,NA,25,6,"8,3,4,6,15,13,7,2,5,14,9,11,1,12,10"
15421,commdev-image-keyboard-response,377,709424,learnblock2,690.3000000715256,img/planet14_right.png,14,Community 2,NA,TRUE,j,j,NA,NA,NA,25,6,"8,3,4,6,15,13,7,2,5,14,9,11,1,12,10"
15421,commdev-image-keyboard-response,378,710676,learnblock2,597.6000000238419,img/planet2_left.png,2,Community 2,NA,TRUE,f,f,NA,NA,NA,25,6,"8,3,4,6,15,13,7,2,5,14,9,11,1,12,10"
15421,commdev-image-keyboard-response,379,711928,learnblock2,600.5,img/planet5_left.png,5,Community 2,NA,TRUE,f,f,NA,NA,NA,25,6,"8,3,4,6,15,13,7,2,5,14,9,11,1,12,10"
15421,commdev-image-keyboard-response,380,713178,learnblock2,654.6999999284744,img/planet7_right.png,7,Community 2,NA,TRUE,j,j,NA,NA,NA,25,6,"8,3,4,6,15,13,7,2,5,14,9,11,1,12,10"
15421,commdev-image-keyboard-response,381,714430,learnblock2,636.6000000238419,img/planet13_right.png,13,Community 2,NA,TRUE,j,j,NA,NA,NA,25,6,"8,3,4,6,15,13,7,2,5,14,9,11,1,12,10"
15421,commdev-image-keyboard-response,382,715681,learnblock2,635.8999999761581,img/planet6_left.png,6,Community 1,NA,TRUE,f,f,NA,NA,NA,25,6,"8,3,4,6,15,13,7,2,5,14,9,11,1,12,10"
15421,commdev-image-keyboard-response,383,716946,learnblock2,714.2000000476837,img/planet3_right.png,3,Community 1,NA,TRUE,j,j,NA,NA,NA,25,6,"8,3,4,6,15,13,7,2,5,14,9,11,1,12,10"
15421,commdev-image-keyboard-response,384,718197,learnblock2,678.8000000715256,img/planet4_left.png,4,Community 1,NA,TRUE,f,f,NA,NA,NA,25,6,"8,3,4,6,15,13,7,2,5,14,9,11,1,12,10"
15421,commdev-image-keyboard-response,385,719450,learnblock2,682.3000000715256,img/planet3_left.png,3,Community 1,NA,TRUE,f,f,NA,NA,NA,25,6,"8,3,4,6,15,13,7,2,5,14,9,11,1,12,10"
15421,commdev-image-keyboard-response,386,720701,learnblock2,596.5,img/planet15_right.png,15,Community 1,NA,TRUE,j,j,NA,NA,NA,25,6,"8,3,4,6,15,13,7,2,5,14,9,11,1,12,10"
15421,commdev-image-keyboard-response,387,721952,learnblock2,736.5,img/planet4_right.png,4,Community 1,NA,FALSE,f,j,NA,NA,NA,25,6,"8,3,4,6,15,13,7,2,5,14,9,11,1,12,10"
15421,commdev-image-keyboard-response,388,723204,learnblock2,1191.3999999761581,img/planet3_right.png,3,Community 1,NA,TRUE,j,j,NA,NA,NA,25,6,"8,3,4,6,15,13,7,2,5,14,9,11,1,12,10"
15421,commdev-image-keyboard-response,389,724456,learnblock2,null,img/planet6_right.png,6,Community 1,NA,FALSE,null,j,NA,NA,NA,25,6,"8,3,4,6,15,13,7,2,5,14,9,11,1,12,10"
15421,commdev-image-keyboard-response,390,725706,learnblock2,151.5,img/planet8_left.png,8,Community 1,NA,FALSE,j,f,NA,NA,NA,25,6,"8,3,4,6,15,13,7,2,5,14,9,11,1,12,10"
15421,commdev-image-keyboard-response,391,726959,learnblock2,533.8999999761581,img/planet15_right.png,15,Community 1,NA,TRUE,j,j,NA,NA,NA,25,6,"8,3,4,6,15,13,7,2,5,14,9,11,1,12,10"
15421,commdev-image-keyboard-response,392,728218,learnblock2,607.2000000476837,img/planet4_right.png,4,Community 1,NA,TRUE,j,j,NA,NA,NA,25,6,"8,3,4,6,15,13,7,2,5,14,9,11,1,12,10"
15421,commdev-image-keyboard-response,393,729470,learnblock2,714.7000000476837,img/planet3_left.png,3,Community 1,NA,TRUE,f,f,NA,NA,NA,25,6,"8,3,4,6,15,13,7,2,5,14,9,11,1,12,10"
15421,commdev-image-keyboard-response,394,730722,learnblock2,694.8999999761581,img/planet6_left.png,6,Community 1,NA,TRUE,f,f,NA,NA,NA,25,6,"8,3,4,6,15,13,7,2,5,14,9,11,1,12,10"
15421,commdev-image-keyboard-response,395,731973,learnblock2,813.9000000953674,img/planet13_left.png,13,Community 2,NA,TRUE,f,f,NA,NA,NA,25,6,"8,3,4,6,15,13,7,2,5,14,9,11,1,12,10"
15421,commdev-image-keyboard-response,396,733225,learnblock2,568.6000000238419,img/planet6_right.png,6,Community 1,NA,TRUE,j,j,NA,NA,NA,25,6,"8,3,4,6,15,13,7,2,5,14,9,11,1,12,10"
15421,commdev-image-keyboard-response,397,734477,learnblock2,641.3999999761581,img/planet13_right.png,13,Community 2,NA,TRUE,j,j,NA,NA,NA,25,6,"8,3,4,6,15,13,7,2,5,14,9,11,1,12,10"
15421,commdev-image-keyboard-response,398,735730,learnblock2,640.5999999046326,img/planet5_left.png,5,Community 2,NA,TRUE,f,f,NA,NA,NA,25,6,"8,3,4,6,15,13,7,2,5,14,9,11,1,12,10"
15421,commdev-image-keyboard-response,399,736981,learnblock2,602.1000000238419,img/planet13_right.png,13,Community 2,NA,TRUE,j,j,NA,NA,NA,25,6,"8,3,4,6,15,13,7,2,5,14,9,11,1,12,10"
15421,commdev-image-keyboard-response,400,738233,learnblock2,555.4000000953674,img/planet5_left.png,5,Community 2,NA,TRUE,f,f,NA,NA,NA,25,6,"8,3,4,6,15,13,7,2,5,14,9,11,1,12,10"
15421,commdev-image-keyboard-response,401,739484,learnblock2,790.6000000238419,img/planet7_left.png,7,Community 2,NA,TRUE,f,f,NA,NA,NA,25,6,"8,3,4,6,15,13,7,2,5,14,9,11,1,12,10"
15421,commdev-image-keyboard-response,402,740736,learnblock2,610.3999999761581,img/planet5_left.png,5,Community 2,NA,TRUE,f,f,NA,NA,NA,25,6,"8,3,4,6,15,13,7,2,5,14,9,11,1,12,10"
15421,commdev-image-keyboard-response,403,741988,learnblock2,776.5,img/planet14_left.png,14,Community 2,NA,TRUE,f,f,NA,NA,NA,25,6,"8,3,4,6,15,13,7,2,5,14,9,11,1,12,10"
15421,commdev-image-keyboard-response,404,743239,learnblock2,646.0999999046326,img/planet13_right.png,13,Community 2,NA,TRUE,j,j,NA,NA,NA,25,6,"8,3,4,6,15,13,7,2,5,14,9,11,1,12,10"
15421,commdev-image-keyboard-response,405,744491,learnblock2,623.7000000476837,img/planet14_left.png,14,Community 2,NA,TRUE,f,f,NA,NA,NA,25,6,"8,3,4,6,15,13,7,2,5,14,9,11,1,12,10"
15421,commdev-image-keyboard-response,406,745742,learnblock2,654.8999999761581,img/planet7_right.png,7,Community 2,NA,TRUE,j,j,NA,NA,NA,25,6,"8,3,4,6,15,13,7,2,5,14,9,11,1,12,10"
15421,commdev-image-keyboard-response,407,746994,learnblock2,589.5,img/planet14_right.png,14,Community 2,NA,TRUE,j,j,NA,NA,NA,25,6,"8,3,4,6,15,13,7,2,5,14,9,11,1,12,10"
15421,commdev-image-keyboard-response,408,748246,learnblock2,520.8999999761581,img/planet5_left.png,5,Community 2,NA,TRUE,f,f,NA,NA,NA,25,6,"8,3,4,6,15,13,7,2,5,14,9,11,1,12,10"
15421,commdev-image-keyboard-response,409,749497,learnblock2,824.7000000476837,img/planet7_left.png,7,Community 2,NA,TRUE,f,f,NA,NA,NA,25,6,"8,3,4,6,15,13,7,2,5,14,9,11,1,12,10"
15421,commdev-image-keyboard-response,410,750749,learnblock2,648.6000000238419,img/planet5_right.png,5,Community 2,NA,TRUE,j,j,NA,NA,NA,25,6,"8,3,4,6,15,13,7,2,5,14,9,11,1,12,10"
15421,commdev-image-keyboard-response,411,752002,learnblock2,648.1000000238419,img/planet7_left.png,7,Community 2,NA,TRUE,f,f,NA,NA,NA,25,6,"8,3,4,6,15,13,7,2,5,14,9,11,1,12,10"
15421,commdev-image-keyboard-response,412,753253,learnblock2,609.2000000476837,img/planet14_right.png,14,Community 2,NA,TRUE,j,j,NA,NA,NA,25,6,"8,3,4,6,15,13,7,2,5,14,9,11,1,12,10"
15421,commdev-image-keyboard-response,413,754505,learnblock2,636.8000000715256,img/planet13_right.png,13,Community 2,NA,TRUE,j,j,NA,NA,NA,25,6,"8,3,4,6,15,13,7,2,5,14,9,11,1,12,10"
15421,commdev-image-keyboard-response,414,755756,learnblock2,686.8999999761581,img/planet7_right.png,7,Community 2,NA,TRUE,j,j,NA,NA,NA,25,6,"8,3,4,6,15,13,7,2,5,14,9,11,1,12,10"
15421,commdev-image-keyboard-response,415,757008,learnblock2,783.5,img/planet2_right.png,2,Community 2,NA,TRUE,j,j,NA,NA,NA,25,6,"8,3,4,6,15,13,7,2,5,14,9,11,1,12,10"
15421,commdev-image-keyboard-response,416,758274,learnblock2,737.3999999761581,img/planet14_left.png,14,Community 2,NA,TRUE,f,f,NA,NA,NA,25,6,"8,3,4,6,15,13,7,2,5,14,9,11,1,12,10"
15421,commdev-image-keyboard-response,417,759526,learnblock2,797.6999999284744,img/planet2_left.png,2,Community 2,NA,TRUE,f,f,NA,NA,NA,25,6,"8,3,4,6,15,13,7,2,5,14,9,11,1,12,10"
15421,commdev-image-keyboard-response,418,760790,learnblock2,710.1000000238419,img/planet14_left.png,14,Community 2,NA,TRUE,f,f,NA,NA,NA,25,6,"8,3,4,6,15,13,7,2,5,14,9,11,1,12,10"
15421,commdev-image-keyboard-response,419,762042,learnblock2,701.2999999523163,img/planet7_left.png,7,Community 2,NA,TRUE,f,f,NA,NA,NA,25,6,"8,3,4,6,15,13,7,2,5,14,9,11,1,12,10"
15421,commdev-image-keyboard-response,420,763294,learnblock2,774.6000000238419,img/planet2_left.png,2,Community 2,NA,TRUE,f,f,NA,NA,NA,25,6,"8,3,4,6,15,13,7,2,5,14,9,11,1,12,10"
15421,commdev-image-keyboard-response,421,764545,learnblock2,872,img/planet7_left.png,7,Community 2,NA,TRUE,f,f,NA,NA,NA,25,6,"8,3,4,6,15,13,7,2,5,14,9,11,1,12,10"
15421,commdev-image-keyboard-response,422,765798,learnblock2,876.3999999761581,img/planet5_left.png,5,Community 2,NA,TRUE,f,f,NA,NA,NA,25,6,"8,3,4,6,15,13,7,2,5,14,9,11,1,12,10"
15421,commdev-image-keyboard-response,423,767049,learnblock2,954.1000000238419,img/planet2_right.png,2,Community 2,NA,TRUE,j,j,NA,NA,NA,25,6,"8,3,4,6,15,13,7,2,5,14,9,11,1,12,10"
15421,commdev-image-keyboard-response,424,768301,learnblock2,1073.7999999523163,img/planet14_right.png,14,Community 2,NA,TRUE,j,j,NA,NA,NA,25,6,"8,3,4,6,15,13,7,2,5,14,9,11,1,12,10"
15421,commdev-image-keyboard-response,425,769551,learnblock2,913.2999999523163,img/planet13_left.png,13,Community 2,NA,TRUE,f,f,NA,NA,NA,25,6,"8,3,4,6,15,13,7,2,5,14,9,11,1,12,10"
15421,commdev-image-keyboard-response,426,770803,learnblock2,852.5,img/planet7_right.png,7,Community 2,NA,TRUE,j,j,NA,NA,NA,25,6,"8,3,4,6,15,13,7,2,5,14,9,11,1,12,10"
15421,commdev-image-keyboard-response,427,772054,learnblock2,903.8999999761581,img/planet13_right.png,13,Community 2,NA,TRUE,j,j,NA,NA,NA,25,6,"8,3,4,6,15,13,7,2,5,14,9,11,1,12,10"
15421,commdev-image-keyboard-response,428,773306,learnblock2,650,img/planet7_left.png,7,Community 2,NA,TRUE,f,f,NA,NA,NA,25,6,"8,3,4,6,15,13,7,2,5,14,9,11,1,12,10"
15421,commdev-image-keyboard-response,429,774559,learnblock2,722.2999999523163,img/planet5_left.png,5,Community 2,NA,TRUE,f,f,NA,NA,NA,25,6,"8,3,4,6,15,13,7,2,5,14,9,11,1,12,10"
15421,commdev-image-keyboard-response,430,775810,learnblock2,772.2000000476837,img/planet7_left.png,7,Community 2,NA,TRUE,f,f,NA,NA,NA,25,6,"8,3,4,6,15,13,7,2,5,14,9,11,1,12,10"
15421,commdev-image-keyboard-response,431,777062,learnblock2,707.7999999523163,img/planet14_left.png,14,Community 2,NA,TRUE,f,f,NA,NA,NA,25,6,"8,3,4,6,15,13,7,2,5,14,9,11,1,12,10"
15421,commdev-image-keyboard-response,432,778314,learnblock2,642.9000000953674,img/planet7_left.png,7,Community 2,NA,TRUE,f,f,NA,NA,NA,25,6,"8,3,4,6,15,13,7,2,5,14,9,11,1,12,10"
15421,commdev-image-keyboard-response,433,779564,learnblock2,553.3000000715256,img/planet2_left.png,2,Community 2,NA,TRUE,f,f,NA,NA,NA,25,6,"8,3,4,6,15,13,7,2,5,14,9,11,1,12,10"
15421,commdev-image-keyboard-response,434,780816,learnblock2,932.4000000953674,img/planet14_right.png,14,Community 2,NA,TRUE,j,j,NA,NA,NA,25,6,"8,3,4,6,15,13,7,2,5,14,9,11,1,12,10"
15421,commdev-image-keyboard-response,435,782068,learnblock2,770.5,img/planet2_left.png,2,Community 2,NA,TRUE,f,f,NA,NA,NA,25,6,"8,3,4,6,15,13,7,2,5,14,9,11,1,12,10"
15421,commdev-image-keyboard-response,436,783330,learnblock2,593.3999999761581,img/planet5_right.png,5,Community 2,NA,TRUE,j,j,NA,NA,NA,25,6,"8,3,4,6,15,13,7,2,5,14,9,11,1,12,10"
15421,commdev-image-keyboard-response,437,784581,learnblock2,725.6000000238419,img/planet2_right.png,2,Community 2,NA,TRUE,j,j,NA,NA,NA,25,6,"8,3,4,6,15,13,7,2,5,14,9,11,1,12,10"
15421,commdev-image-keyboard-response,438,785833,learnblock2,749.1000000238419,img/planet11_left.png,11,Community 3,NA,TRUE,f,f,NA,NA,NA,25,6,"8,3,4,6,15,13,7,2,5,14,9,11,1,12,10"
15421,commdev-image-keyboard-response,439,787084,learnblock2,754.2000000476837,img/planet2_left.png,2,Community 2,NA,TRUE,f,f,NA,NA,NA,25,6,"8,3,4,6,15,13,7,2,5,14,9,11,1,12,10"
15421,commdev-image-keyboard-response,440,788335,learnblock2,850.7999999523163,img/planet7_left.png,7,Community 2,NA,TRUE,f,f,NA,NA,NA,25,6,"8,3,4,6,15,13,7,2,5,14,9,11,1,12,10"
15421,commdev-image-keyboard-response,441,789592,learnblock2,923.6000000238419,img/planet2_left.png,2,Community 2,NA,TRUE,f,f,NA,NA,NA,25,6,"8,3,4,6,15,13,7,2,5,14,9,11,1,12,10"
15421,commdev-image-keyboard-response,442,790843,learnblock2,1154.4000000953674,img/planet11_left.png,11,Community 3,NA,TRUE,f,f,NA,NA,NA,25,6,"8,3,4,6,15,13,7,2,5,14,9,11,1,12,10"
15421,commdev-image-keyboard-response,443,792095,learnblock2,885.6000000238419,img/planet1_right.png,1,Community 3,NA,TRUE,j,j,NA,NA,NA,25,6,"8,3,4,6,15,13,7,2,5,14,9,11,1,12,10"
15421,commdev-image-keyboard-response,444,793347,learnblock2,1046.3999999761581,img/planet11_left.png,11,Community 3,NA,TRUE,f,f,NA,NA,NA,25,6,"8,3,4,6,15,13,7,2,5,14,9,11,1,12,10"
15421,commdev-image-keyboard-response,445,794598,learnblock2,1027.6999999284744,img/planet2_left.png,2,Community 2,NA,TRUE,f,f,NA,NA,NA,25,6,"8,3,4,6,15,13,7,2,5,14,9,11,1,12,10"
15421,commdev-image-keyboard-response,446,795849,learnblock2,940.8000000715256,img/planet7_left.png,7,Community 2,NA,TRUE,f,f,NA,NA,NA,25,6,"8,3,4,6,15,13,7,2,5,14,9,11,1,12,10"
15421,commdev-image-keyboard-response,447,797101,learnblock2,714.2999999523163,img/planet13_left.png,13,Community 2,NA,TRUE,f,f,NA,NA,NA,25,6,"8,3,4,6,15,13,7,2,5,14,9,11,1,12,10"
15421,commdev-image-keyboard-response,448,798352,learnblock2,810.5,img/planet14_left.png,14,Community 2,NA,TRUE,f,f,NA,NA,NA,25,6,"8,3,4,6,15,13,7,2,5,14,9,11,1,12,10"
15421,commdev-image-keyboard-response,449,799603,learnblock2,931.1999999284744,img/planet2_left.png,2,Community 2,NA,TRUE,f,f,NA,NA,NA,25,6,"8,3,4,6,15,13,7,2,5,14,9,11,1,12,10"
15421,commdev-image-keyboard-response,450,800854,learnblock2,797.5,img/planet5_left.png,5,Community 2,NA,TRUE,f,f,NA,NA,NA,25,6,"8,3,4,6,15,13,7,2,5,14,9,11,1,12,10"
15421,commdev-image-keyboard-response,451,802105,learnblock2,779.2999999523163,img/planet13_left.png,13,Community 2,NA,TRUE,f,f,NA,NA,NA,25,6,"8,3,4,6,15,13,7,2,5,14,9,11,1,12,10"
15421,commdev-image-keyboard-response,452,803356,learnblock2,671.8999999761581,img/planet7_right.png,7,Community 2,NA,TRUE,j,j,NA,NA,NA,25,6,"8,3,4,6,15,13,7,2,5,14,9,11,1,12,10"
15421,commdev-image-keyboard-response,453,804608,learnblock2,700.3999999761581,img/planet14_right.png,14,Community 2,NA,TRUE,j,j,NA,NA,NA,25,6,"8,3,4,6,15,13,7,2,5,14,9,11,1,12,10"
15421,commdev-image-keyboard-response,454,805860,learnblock2,611.2999999523163,img/planet13_right.png,13,Community 2,NA,TRUE,j,j,NA,NA,NA,25,6,"8,3,4,6,15,13,7,2,5,14,9,11,1,12,10"
15421,commdev-image-keyboard-response,455,807111,learnblock2,889.0999999046326,img/planet14_left.png,14,Community 2,NA,TRUE,f,f,NA,NA,NA,25,6,"8,3,4,6,15,13,7,2,5,14,9,11,1,12,10"
15421,commdev-image-keyboard-response,456,808363,learnblock2,643.6000000238419,img/planet5_right.png,5,Community 2,NA,TRUE,j,j,NA,NA,NA,25,6,"8,3,4,6,15,13,7,2,5,14,9,11,1,12,10"
15421,commdev-image-keyboard-response,457,809615,learnblock2,716.3999999761581,img/planet7_right.png,7,Community 2,NA,TRUE,j,j,NA,NA,NA,25,6,"8,3,4,6,15,13,7,2,5,14,9,11,1,12,10"
15421,commdev-image-keyboard-response,458,810866,learnblock2,831.8999999761581,img/planet13_left.png,13,Community 2,NA,TRUE,f,f,NA,NA,NA,25,6,"8,3,4,6,15,13,7,2,5,14,9,11,1,12,10"
15421,commdev-image-keyboard-response,459,812118,learnblock2,607.8999999761581,img/planet6_right.png,6,Community 1,NA,TRUE,j,j,NA,NA,NA,25,6,"8,3,4,6,15,13,7,2,5,14,9,11,1,12,10"
15421,commdev-image-keyboard-response,460,813370,learnblock2,724.7999999523163,img/planet3_left.png,3,Community 1,NA,TRUE,f,f,NA,NA,NA,25,6,"8,3,4,6,15,13,7,2,5,14,9,11,1,12,10"
15421,commdev-image-keyboard-response,461,814621,learnblock2,593.8999999761581,img/planet15_right.png,15,Community 1,NA,TRUE,j,j,NA,NA,NA,25,6,"8,3,4,6,15,13,7,2,5,14,9,11,1,12,10"
15421,commdev-image-keyboard-response,462,815873,learnblock2,713.2000000476837,img/planet9_right.png,9,Community 3,NA,TRUE,j,j,NA,NA,NA,25,6,"8,3,4,6,15,13,7,2,5,14,9,11,1,12,10"
15421,commdev-image-keyboard-response,463,817124,learnblock2,552.1000000238419,img/planet1_left.png,1,Community 3,NA,TRUE,f,f,NA,NA,NA,25,6,"8,3,4,6,15,13,7,2,5,14,9,11,1,12,10"
15421,commdev-image-keyboard-response,464,818376,learnblock2,741.3999999761581,img/planet9_left.png,9,Community 3,NA,TRUE,f,f,NA,NA,NA,25,6,"8,3,4,6,15,13,7,2,5,14,9,11,1,12,10"
15421,commdev-image-keyboard-response,465,819628,learnblock2,675.3999999761581,img/planet10_left.png,10,Community 3,NA,TRUE,f,f,NA,NA,NA,25,6,"8,3,4,6,15,13,7,2,5,14,9,11,1,12,10"
15421,commdev-image-keyboard-response,466,820880,learnblock2,730.2999999523163,img/planet12_right.png,12,Community 3,NA,TRUE,j,j,NA,NA,NA,25,6,"8,3,4,6,15,13,7,2,5,14,9,11,1,12,10"
15421,commdev-image-keyboard-response,467,822132,learnblock2,733.1000000238419,img/planet11_right.png,11,Community 3,NA,TRUE,j,j,NA,NA,NA,25,6,"8,3,4,6,15,13,7,2,5,14,9,11,1,12,10"
15421,commdev-image-keyboard-response,468,823384,learnblock2,921,img/planet10_right.png,10,Community 3,NA,TRUE,j,j,NA,NA,NA,25,6,"8,3,4,6,15,13,7,2,5,14,9,11,1,12,10"
15421,commdev-image-keyboard-response,469,824635,learnblock2,1110.2000000476837,img/planet9_right.png,9,Community 3,NA,TRUE,j,j,NA,NA,NA,25,6,"8,3,4,6,15,13,7,2,5,14,9,11,1,12,10"
15421,commdev-image-keyboard-response,470,825886,learnblock2,809.7000000476837,img/planet12_left.png,12,Community 3,NA,TRUE,f,f,NA,NA,NA,25,6,"8,3,4,6,15,13,7,2,5,14,9,11,1,12,10"
15421,commdev-image-keyboard-response,471,827139,learnblock2,610.1999999284744,img/planet10_right.png,10,Community 3,NA,TRUE,j,j,NA,NA,NA,25,6,"8,3,4,6,15,13,7,2,5,14,9,11,1,12,10"
15421,commdev-image-keyboard-response,472,828390,learnblock2,932.5999999046326,img/planet12_left.png,12,Community 3,NA,TRUE,f,f,NA,NA,NA,25,6,"8,3,4,6,15,13,7,2,5,14,9,11,1,12,10"
15421,commdev-image-keyboard-response,473,829642,learnblock2,733.2999999523163,img/planet11_right.png,11,Community 3,NA,TRUE,j,j,NA,NA,NA,25,6,"8,3,4,6,15,13,7,2,5,14,9,11,1,12,10"
15421,commdev-image-keyboard-response,474,830893,learnblock2,548.2999999523163,img/planet12_right.png,12,Community 3,NA,FALSE,f,j,NA,NA,NA,25,6,"8,3,4,6,15,13,7,2,5,14,9,11,1,12,10"
15421,commdev-image-keyboard-response,475,832144,learnblock2,949,img/planet11_right.png,11,Community 3,NA,TRUE,j,j,NA,NA,NA,25,6,"8,3,4,6,15,13,7,2,5,14,9,11,1,12,10"
15421,commdev-image-keyboard-response,476,833395,learnblock2,699.2000000476837,img/planet1_right.png,1,Community 3,NA,TRUE,j,j,NA,NA,NA,25,6,"8,3,4,6,15,13,7,2,5,14,9,11,1,12,10"
15421,commdev-image-keyboard-response,477,834646,learnblock2,630.7000000476837,img/planet12_left.png,12,Community 3,NA,TRUE,f,f,NA,NA,NA,25,6,"8,3,4,6,15,13,7,2,5,14,9,11,1,12,10"
15421,commdev-image-keyboard-response,478,835897,learnblock2,796.6000000238419,img/planet9_left.png,9,Community 3,NA,TRUE,f,f,NA,NA,NA,25,6,"8,3,4,6,15,13,7,2,5,14,9,11,1,12,10"
15421,commdev-image-keyboard-response,479,837149,learnblock2,759.5,img/planet15_right.png,15,Community 1,NA,TRUE,j,j,NA,NA,NA,25,6,"8,3,4,6,15,13,7,2,5,14,9,11,1,12,10"
15421,commdev-image-keyboard-response,480,838405,learnblock2,667.3999999761581,img/planet8_left.png,8,Community 1,NA,TRUE,f,f,NA,NA,NA,25,6,"8,3,4,6,15,13,7,2,5,14,9,11,1,12,10"
15421,commdev-image-keyboard-response,481,839660,learnblock2,600.5,img/planet6_right.png,6,Community 1,NA,TRUE,j,j,NA,NA,NA,25,6,"8,3,4,6,15,13,7,2,5,14,9,11,1,12,10"
15421,commdev-image-keyboard-response,482,840910,learnblock2,971,img/planet3_right.png,3,Community 1,NA,TRUE,j,j,NA,NA,NA,25,6,"8,3,4,6,15,13,7,2,5,14,9,11,1,12,10"
15421,commdev-image-keyboard-response,483,842161,learnblock2,885.8999999761581,img/planet15_right.png,15,Community 1,NA,TRUE,j,j,NA,NA,NA,25,6,"8,3,4,6,15,13,7,2,5,14,9,11,1,12,10"
15421,commdev-image-keyboard-response,484,843413,learnblock2,588.3999999761581,img/planet4_right.png,4,Community 1,NA,TRUE,j,j,NA,NA,NA,25,6,"8,3,4,6,15,13,7,2,5,14,9,11,1,12,10"
15421,commdev-image-keyboard-response,485,844665,learnblock2,684,img/planet6_right.png,6,Community 1,NA,TRUE,j,j,NA,NA,NA,25,6,"8,3,4,6,15,13,7,2,5,14,9,11,1,12,10"
15421,commdev-image-keyboard-response,486,845918,learnblock2,707.1000000238419,img/planet13_left.png,13,Community 2,NA,TRUE,f,f,NA,NA,NA,25,6,"8,3,4,6,15,13,7,2,5,14,9,11,1,12,10"
15421,commdev-image-keyboard-response,487,847169,learnblock2,645.1000000238419,img/planet6_right.png,6,Community 1,NA,TRUE,j,j,NA,NA,NA,25,6,"8,3,4,6,15,13,7,2,5,14,9,11,1,12,10"
15421,commdev-image-keyboard-response,488,848421,learnblock2,668.5,img/planet4_left.png,4,Community 1,NA,TRUE,f,f,NA,NA,NA,25,6,"8,3,4,6,15,13,7,2,5,14,9,11,1,12,10"
15421,commdev-image-keyboard-response,489,849673,learnblock2,698.6999999284744,img/planet8_right.png,8,Community 1,NA,TRUE,j,j,NA,NA,NA,25,6,"8,3,4,6,15,13,7,2,5,14,9,11,1,12,10"
15421,commdev-image-keyboard-response,490,850924,learnblock2,815,img/planet3_left.png,3,Community 1,NA,TRUE,f,f,NA,NA,NA,25,6,"8,3,4,6,15,13,7,2,5,14,9,11,1,12,10"
15421,commdev-image-keyboard-response,491,852189,learnblock2,680.7999999523163,img/planet8_left.png,8,Community 1,NA,TRUE,f,f,NA,NA,NA,25,6,"8,3,4,6,15,13,7,2,5,14,9,11,1,12,10"
15421,commdev-image-keyboard-response,492,853441,learnblock2,602.2000000476837,img/planet4_left.png,4,Community 1,NA,TRUE,f,f,NA,NA,NA,25,6,"8,3,4,6,15,13,7,2,5,14,9,11,1,12,10"
15421,commdev-image-keyboard-response,493,854692,learnblock2,974.6999999284744,img/planet8_left.png,8,Community 1,NA,TRUE,f,f,NA,NA,NA,25,6,"8,3,4,6,15,13,7,2,5,14,9,11,1,12,10"
15421,commdev-image-keyboard-response,494,855945,learnblock2,632.8999999761581,img/planet3_left.png,3,Community 1,NA,TRUE,f,f,NA,NA,NA,25,6,"8,3,4,6,15,13,7,2,5,14,9,11,1,12,10"
15421,commdev-image-keyboard-response,495,857196,learnblock2,751.1999999284744,img/planet8_left.png,8,Community 1,NA,TRUE,f,f,NA,NA,NA,25,6,"8,3,4,6,15,13,7,2,5,14,9,11,1,12,10"
15421,commdev-image-keyboard-response,496,858447,learnblock2,758.3999999761581,img/planet6_right.png,6,Community 1,NA,TRUE,j,j,NA,NA,NA,25,6,"8,3,4,6,15,13,7,2,5,14,9,11,1,12,10"
15421,commdev-image-keyboard-response,497,859700,learnblock2,808.8999999761581,img/planet3_right.png,3,Community 1,NA,TRUE,j,j,NA,NA,NA,25,6,"8,3,4,6,15,13,7,2,5,14,9,11,1,12,10"
15421,commdev-image-keyboard-response,498,860951,learnblock2,785.8000000715256,img/planet4_left.png,4,Community 1,NA,TRUE,f,f,NA,NA,NA,25,6,"8,3,4,6,15,13,7,2,5,14,9,11,1,12,10"
15421,commdev-image-keyboard-response,499,862203,learnblock2,997.7999999523163,img/planet3_left.png,3,Community 1,NA,TRUE,f,f,NA,NA,NA,25,6,"8,3,4,6,15,13,7,2,5,14,9,11,1,12,10"
15421,commdev-image-keyboard-response,500,863468,learnblock2,1001.2999999523163,img/planet6_left.png,6,Community 1,NA,TRUE,f,f,NA,NA,NA,25,6,"8,3,4,6,15,13,7,2,5,14,9,11,1,12,10"
15421,commdev-image-keyboard-response,501,864720,learnblock2,697,img/planet13_right.png,13,Community 2,NA,TRUE,j,j,NA,NA,NA,25,6,"8,3,4,6,15,13,7,2,5,14,9,11,1,12,10"
15421,commdev-image-keyboard-response,502,865971,learnblock2,672.7000000476837,img/planet6_left.png,6,Community 1,NA,TRUE,f,f,NA,NA,NA,25,6,"8,3,4,6,15,13,7,2,5,14,9,11,1,12,10"
15421,commdev-image-keyboard-response,503,867223,learnblock2,727.3999999761581,img/planet3_right.png,3,Community 1,NA,TRUE,j,j,NA,NA,NA,25,6,"8,3,4,6,15,13,7,2,5,14,9,11,1,12,10"
15421,commdev-image-keyboard-response,504,868473,learnblock2,824.4000000953674,img/planet15_right.png,15,Community 1,NA,TRUE,j,j,NA,NA,NA,25,6,"8,3,4,6,15,13,7,2,5,14,9,11,1,12,10"
15421,commdev-image-keyboard-response,505,869725,learnblock2,804.8000000715256,img/planet3_right.png,3,Community 1,NA,TRUE,j,j,NA,NA,NA,25,6,"8,3,4,6,15,13,7,2,5,14,9,11,1,12,10"
15421,commdev-image-keyboard-response,506,870976,learnblock2,855.3999999761581,img/planet4_right.png,4,Community 1,NA,TRUE,j,j,NA,NA,NA,25,6,"8,3,4,6,15,13,7,2,5,14,9,11,1,12,10"
15421,commdev-image-keyboard-response,507,872228,learnblock2,952.3999999761581,img/planet3_right.png,3,Community 1,NA,TRUE,j,j,NA,NA,NA,25,6,"8,3,4,6,15,13,7,2,5,14,9,11,1,12,10"
15421,commdev-image-keyboard-response,508,873479,learnblock2,909.8000000715256,img/planet6_right.png,6,Community 1,NA,TRUE,j,j,NA,NA,NA,25,6,"8,3,4,6,15,13,7,2,5,14,9,11,1,12,10"
15421,commdev-image-keyboard-response,509,874731,learnblock2,841.1999999284744,img/planet13_left.png,13,Community 2,NA,TRUE,f,f,NA,NA,NA,25,6,"8,3,4,6,15,13,7,2,5,14,9,11,1,12,10"
15421,commdev-image-keyboard-response,510,875982,learnblock2,776.1000000238419,img/planet7_left.png,7,Community 2,NA,TRUE,f,f,NA,NA,NA,25,6,"8,3,4,6,15,13,7,2,5,14,9,11,1,12,10"
15421,commdev-image-keyboard-response,511,877233,learnblock2,622.2999999523163,img/planet14_right.png,14,Community 2,NA,TRUE,j,j,NA,NA,NA,25,6,"8,3,4,6,15,13,7,2,5,14,9,11,1,12,10"
15421,commdev-image-keyboard-response,512,878485,learnblock2,973.1000000238419,img/planet13_right.png,13,Community 2,NA,TRUE,j,j,NA,NA,NA,25,6,"8,3,4,6,15,13,7,2,5,14,9,11,1,12,10"
15421,commdev-image-keyboard-response,513,879737,learnblock2,742.6000000238419,img/planet5_left.png,5,Community 2,NA,TRUE,f,f,NA,NA,NA,25,6,"8,3,4,6,15,13,7,2,5,14,9,11,1,12,10"
15421,commdev-image-keyboard-response,514,880988,learnblock2,911.2000000476837,img/planet7_right.png,7,Community 2,NA,TRUE,j,j,NA,NA,NA,25,6,"8,3,4,6,15,13,7,2,5,14,9,11,1,12,10"
15421,commdev-image-keyboard-response,515,882239,learnblock2,null,img/planet5_left.png,5,Community 2,NA,FALSE,null,f,NA,NA,NA,25,6,"8,3,4,6,15,13,7,2,5,14,9,11,1,12,10"
15421,commdev-image-keyboard-response,516,883491,learnblock2,77.5,img/planet13_right.png,13,Community 2,NA,FALSE,f,j,NA,NA,NA,25,6,"8,3,4,6,15,13,7,2,5,14,9,11,1,12,10"
15421,commdev-image-keyboard-response,517,884742,learnblock2,38.700000047683716,img/planet14_right.png,14,Community 2,NA,TRUE,j,j,NA,NA,NA,25,6,"8,3,4,6,15,13,7,2,5,14,9,11,1,12,10"
15421,commdev-image-keyboard-response,518,885993,learnblock2,90,img/planet2_right.png,2,Community 2,NA,TRUE,j,j,NA,NA,NA,25,6,"8,3,4,6,15,13,7,2,5,14,9,11,1,12,10"
15421,commdev-image-keyboard-response,519,887245,learnblock2,764.2999999523163,img/planet5_right.png,5,Community 2,NA,TRUE,j,j,NA,NA,NA,25,6,"8,3,4,6,15,13,7,2,5,14,9,11,1,12,10"
15421,commdev-image-keyboard-response,520,888497,learnblock2,902.8999999761581,img/planet13_left.png,13,Community 2,NA,TRUE,f,f,NA,NA,NA,25,6,"8,3,4,6,15,13,7,2,5,14,9,11,1,12,10"
15421,commdev-image-keyboard-response,521,889749,learnblock2,610.7999999523163,img/planet6_right.png,6,Community 1,NA,TRUE,j,j,NA,NA,NA,25,6,"8,3,4,6,15,13,7,2,5,14,9,11,1,12,10"
15421,commdev-image-keyboard-response,522,891000,learnblock2,729.2000000476837,img/planet13_right.png,13,Community 2,NA,TRUE,j,j,NA,NA,NA,25,6,"8,3,4,6,15,13,7,2,5,14,9,11,1,12,10"
15421,commdev-image-keyboard-response,523,892252,learnblock2,733.0999999046326,img/planet7_right.png,7,Community 2,NA,TRUE,j,j,NA,NA,NA,25,6,"8,3,4,6,15,13,7,2,5,14,9,11,1,12,10"
15421,commdev-image-keyboard-response,524,893504,learnblock2,872.7999999523163,img/planet2_left.png,2,Community 2,NA,TRUE,f,f,NA,NA,NA,25,6,"8,3,4,6,15,13,7,2,5,14,9,11,1,12,10"
15421,commdev-image-keyboard-response,525,894755,learnblock2,833.6999999284744,img/planet5_right.png,5,Community 2,NA,TRUE,j,j,NA,NA,NA,25,6,"8,3,4,6,15,13,7,2,5,14,9,11,1,12,10"
15421,commdev-image-keyboard-response,526,896007,learnblock2,927.1999999284744,img/planet14_left.png,14,Community 2,NA,TRUE,f,f,NA,NA,NA,25,6,"8,3,4,6,15,13,7,2,5,14,9,11,1,12,10"
15421,commdev-image-keyboard-response,527,897258,learnblock2,657.6000000238419,img/planet5_right.png,5,Community 2,NA,TRUE,j,j,NA,NA,NA,25,6,"8,3,4,6,15,13,7,2,5,14,9,11,1,12,10"
15421,commdev-image-keyboard-response,528,898510,learnblock2,546.8999999761581,img/planet2_right.png,2,Community 2,NA,TRUE,j,j,NA,NA,NA,25,6,"8,3,4,6,15,13,7,2,5,14,9,11,1,12,10"
15421,commdev-image-keyboard-response,529,899761,learnblock2,666.7000000476837,img/planet7_left.png,7,Community 2,NA,FALSE,j,f,NA,NA,NA,25,6,"8,3,4,6,15,13,7,2,5,14,9,11,1,12,10"
15421,commdev-image-keyboard-response,530,901012,learnblock2,671.8999999761581,img/planet5_right.png,5,Community 2,NA,TRUE,j,j,NA,NA,NA,25,6,"8,3,4,6,15,13,7,2,5,14,9,11,1,12,10"
15421,commdev-image-keyboard-response,531,902263,learnblock2,721.6999999284744,img/planet2_right.png,2,Community 2,NA,TRUE,j,j,NA,NA,NA,25,6,"8,3,4,6,15,13,7,2,5,14,9,11,1,12,10"
15421,commdev-image-keyboard-response,532,903514,learnblock2,792.2000000476837,img/planet11_left.png,11,Community 3,NA,TRUE,f,f,NA,NA,NA,25,6,"8,3,4,6,15,13,7,2,5,14,9,11,1,12,10"
15421,commdev-image-keyboard-response,533,904766,learnblock2,569.3999999761581,img/planet10_right.png,10,Community 3,NA,TRUE,j,j,NA,NA,NA,25,6,"8,3,4,6,15,13,7,2,5,14,9,11,1,12,10"
15421,commdev-image-keyboard-response,534,906018,learnblock2,708.6000000238419,img/planet11_left.png,11,Community 3,NA,TRUE,f,f,NA,NA,NA,25,6,"8,3,4,6,15,13,7,2,5,14,9,11,1,12,10"
15421,commdev-image-keyboard-response,535,907270,learnblock2,900.6000000238419,img/planet2_left.png,2,Community 2,NA,FALSE,j,f,NA,NA,NA,25,6,"8,3,4,6,15,13,7,2,5,14,9,11,1,12,10"
15421,commdev-image-keyboard-response,536,908521,learnblock2,950.9000000953674,img/planet11_right.png,11,Community 3,NA,TRUE,j,j,NA,NA,NA,25,6,"8,3,4,6,15,13,7,2,5,14,9,11,1,12,10"
15421,commdev-image-keyboard-response,537,909772,learnblock2,650.6000000238419,img/planet1_left.png,1,Community 3,NA,TRUE,f,f,NA,NA,NA,25,6,"8,3,4,6,15,13,7,2,5,14,9,11,1,12,10"
15421,commdev-image-keyboard-response,538,911023,learnblock2,1028.1000000238419,img/planet9_right.png,9,Community 3,NA,TRUE,j,j,NA,NA,NA,25,6,"8,3,4,6,15,13,7,2,5,14,9,11,1,12,10"
15421,commdev-image-keyboard-response,539,912274,learnblock2,1052.1000000238419,img/planet15_left.png,15,Community 1,NA,TRUE,f,f,NA,NA,NA,25,6,"8,3,4,6,15,13,7,2,5,14,9,11,1,12,10"
15421,commdev-image-keyboard-response,540,913525,learnblock2,802,img/planet3_left.png,3,Community 1,NA,TRUE,f,f,NA,NA,NA,25,6,"8,3,4,6,15,13,7,2,5,14,9,11,1,12,10"
15421,commdev-image-keyboard-response,541,914777,learnblock2,692.2999999523163,img/planet6_left.png,6,Community 1,NA,TRUE,f,f,NA,NA,NA,25,6,"8,3,4,6,15,13,7,2,5,14,9,11,1,12,10"
15421,commdev-image-keyboard-response,542,916028,learnblock2,653.6000000238419,img/planet8_right.png,8,Community 1,NA,TRUE,j,j,NA,NA,NA,25,6,"8,3,4,6,15,13,7,2,5,14,9,11,1,12,10"
15421,commdev-image-keyboard-response,543,917279,learnblock2,612.8999999761581,img/planet4_right.png,4,Community 1,NA,TRUE,j,j,NA,NA,NA,25,6,"8,3,4,6,15,13,7,2,5,14,9,11,1,12,10"
15421,commdev-image-keyboard-response,544,918531,learnblock2,613,img/planet8_left.png,8,Community 1,NA,TRUE,f,f,NA,NA,NA,25,6,"8,3,4,6,15,13,7,2,5,14,9,11,1,12,10"
15421,commdev-image-keyboard-response,545,919783,learnblock2,709.6999999284744,img/planet4_left.png,4,Community 1,NA,TRUE,f,f,NA,NA,NA,25,6,"8,3,4,6,15,13,7,2,5,14,9,11,1,12,10"
15421,commdev-image-keyboard-response,546,921034,learnblock2,601.9000000953674,img/planet3_right.png,3,Community 1,NA,TRUE,j,j,NA,NA,NA,25,6,"8,3,4,6,15,13,7,2,5,14,9,11,1,12,10"
15421,commdev-image-keyboard-response,547,922285,learnblock2,1063.1000000238419,img/planet15_left.png,15,Community 1,NA,TRUE,f,f,NA,NA,NA,25,6,"8,3,4,6,15,13,7,2,5,14,9,11,1,12,10"
15421,commdev-image-keyboard-response,548,923537,learnblock2,767.8999999761581,img/planet8_left.png,8,Community 1,NA,TRUE,f,f,NA,NA,NA,25,6,"8,3,4,6,15,13,7,2,5,14,9,11,1,12,10"
15421,commdev-image-keyboard-response,549,924789,learnblock2,591.8000000715256,img/planet15_right.png,15,Community 1,NA,TRUE,j,j,NA,NA,NA,25,6,"8,3,4,6,15,13,7,2,5,14,9,11,1,12,10"
15421,commdev-image-keyboard-response,550,926040,learnblock2,872.7999999523163,img/planet9_right.png,9,Community 3,NA,TRUE,j,j,NA,NA,NA,25,6,"8,3,4,6,15,13,7,2,5,14,9,11,1,12,10"
15421,commdev-image-keyboard-response,551,927292,learnblock2,572,img/planet15_left.png,15,Community 1,NA,TRUE,f,f,NA,NA,NA,25,6,"8,3,4,6,15,13,7,2,5,14,9,11,1,12,10"
15421,commdev-image-keyboard-response,552,928543,learnblock2,714.8999999761581,img/planet3_left.png,3,Community 1,NA,TRUE,f,f,NA,NA,NA,25,6,"8,3,4,6,15,13,7,2,5,14,9,11,1,12,10"
15421,commdev-image-keyboard-response,553,929794,learnblock2,677,img/planet8_left.png,8,Community 1,NA,FALSE,j,f,NA,NA,NA,25,6,"8,3,4,6,15,13,7,2,5,14,9,11,1,12,10"
15421,commdev-image-keyboard-response,554,931045,learnblock2,1241.1000000238419,img/planet6_left.png,6,Community 1,NA,TRUE,f,f,NA,NA,NA,25,6,"8,3,4,6,15,13,7,2,5,14,9,11,1,12,10"
15421,commdev-image-keyboard-response,555,932297,learnblock2,694.7000000476837,img/planet3_right.png,3,Community 1,NA,TRUE,j,j,NA,NA,NA,25,6,"8,3,4,6,15,13,7,2,5,14,9,11,1,12,10"
15421,commdev-image-keyboard-response,556,933549,learnblock2,768.3999999761581,img/planet8_right.png,8,Community 1,NA,TRUE,j,j,NA,NA,NA,25,6,"8,3,4,6,15,13,7,2,5,14,9,11,1,12,10"
15421,commdev-image-keyboard-response,557,934801,learnblock2,609.8999999761581,img/planet4_right.png,4,Community 1,NA,TRUE,j,j,NA,NA,NA,25,6,"8,3,4,6,15,13,7,2,5,14,9,11,1,12,10"
15421,commdev-image-keyboard-response,558,936053,learnblock2,775.6000000238419,img/planet8_right.png,8,Community 1,NA,TRUE,j,j,NA,NA,NA,25,6,"8,3,4,6,15,13,7,2,5,14,9,11,1,12,10"
15421,commdev-image-keyboard-response,559,937304,learnblock2,618,img/planet3_right.png,3,Community 1,NA,TRUE,j,j,NA,NA,NA,25,6,"8,3,4,6,15,13,7,2,5,14,9,11,1,12,10"
15421,commdev-image-keyboard-response,560,938556,learnblock2,549.3999999761581,img/planet15_left.png,15,Community 1,NA,TRUE,f,f,NA,NA,NA,25,6,"8,3,4,6,15,13,7,2,5,14,9,11,1,12,10"
15421,commdev-image-keyboard-response,561,939808,learnblock2,807.1000000238419,img/planet8_left.png,8,Community 1,NA,TRUE,f,f,NA,NA,NA,25,6,"8,3,4,6,15,13,7,2,5,14,9,11,1,12,10"
15421,commdev-image-keyboard-response,562,941060,learnblock2,838.2999999523163,img/planet3_right.png,3,Community 1,NA,TRUE,j,j,NA,NA,NA,25,6,"8,3,4,6,15,13,7,2,5,14,9,11,1,12,10"
15421,commdev-image-keyboard-response,563,942311,learnblock2,700.1000000238419,img/planet6_left.png,6,Community 1,NA,TRUE,f,f,NA,NA,NA,25,6,"8,3,4,6,15,13,7,2,5,14,9,11,1,12,10"
15421,commdev-image-keyboard-response,564,943562,learnblock2,842.6999999284744,img/planet13_left.png,13,Community 2,NA,TRUE,f,f,NA,NA,NA,25,6,"8,3,4,6,15,13,7,2,5,14,9,11,1,12,10"
15421,commdev-image-keyboard-response,565,944813,learnblock2,805.6000000238419,img/planet6_right.png,6,Community 1,NA,TRUE,j,j,NA,NA,NA,25,6,"8,3,4,6,15,13,7,2,5,14,9,11,1,12,10"
15421,commdev-image-keyboard-response,566,946065,learnblock2,921.3999999761581,img/planet8_left.png,8,Community 1,NA,TRUE,f,f,NA,NA,NA,25,6,"8,3,4,6,15,13,7,2,5,14,9,11,1,12,10"
15421,commdev-image-keyboard-response,567,947317,learnblock2,698.2999999523163,img/planet3_right.png,3,Community 1,NA,TRUE,j,j,NA,NA,NA,25,6,"8,3,4,6,15,13,7,2,5,14,9,11,1,12,10"
15421,commdev-image-keyboard-response,568,948575,learnblock2,628,img/planet6_left.png,6,Community 1,NA,TRUE,f,f,NA,NA,NA,25,6,"8,3,4,6,15,13,7,2,5,14,9,11,1,12,10"
15421,commdev-image-keyboard-response,569,949827,learnblock2,885.1000000238419,img/planet4_right.png,4,Community 1,NA,TRUE,j,j,NA,NA,NA,25,6,"8,3,4,6,15,13,7,2,5,14,9,11,1,12,10"
15421,commdev-image-keyboard-response,570,951078,learnblock2,1050.5,img/planet8_right.png,8,Community 1,NA,TRUE,j,j,NA,NA,NA,25,6,"8,3,4,6,15,13,7,2,5,14,9,11,1,12,10"
15421,commdev-image-keyboard-response,571,952330,learnblock2,727.8999999761581,img/planet3_left.png,3,Community 1,NA,TRUE,f,f,NA,NA,NA,25,6,"8,3,4,6,15,13,7,2,5,14,9,11,1,12,10"
15421,commdev-image-keyboard-response,572,953582,learnblock2,939.8000000715256,img/planet15_left.png,15,Community 1,NA,TRUE,f,f,NA,NA,NA,25,6,"8,3,4,6,15,13,7,2,5,14,9,11,1,12,10"
15421,commdev-image-keyboard-response,573,954834,learnblock2,739.3000000715256,img/planet4_right.png,4,Community 1,NA,TRUE,j,j,NA,NA,NA,25,6,"8,3,4,6,15,13,7,2,5,14,9,11,1,12,10"
15421,commdev-image-keyboard-response,574,956085,learnblock2,951.6000000238419,img/planet6_right.png,6,Community 1,NA,TRUE,j,j,NA,NA,NA,25,6,"8,3,4,6,15,13,7,2,5,14,9,11,1,12,10"
15421,commdev-image-keyboard-response,575,957337,learnblock2,931.7999999523163,img/planet3_right.png,3,Community 1,NA,TRUE,j,j,NA,NA,NA,25,6,"8,3,4,6,15,13,7,2,5,14,9,11,1,12,10"
15421,commdev-image-keyboard-response,576,958588,learnblock2,798.5,img/planet4_right.png,4,Community 1,NA,TRUE,j,j,NA,NA,NA,25,6,"8,3,4,6,15,13,7,2,5,14,9,11,1,12,10"
15421,commdev-image-keyboard-response,577,959839,learnblock2,753.8000000715256,img/planet3_left.png,3,Community 1,NA,TRUE,f,f,NA,NA,NA,25,6,"8,3,4,6,15,13,7,2,5,14,9,11,1,12,10"
15421,commdev-image-keyboard-response,578,961090,learnblock2,647.6000000238419,img/planet4_right.png,4,Community 1,NA,TRUE,j,j,NA,NA,NA,25,6,"8,3,4,6,15,13,7,2,5,14,9,11,1,12,10"
15421,commdev-image-keyboard-response,579,962342,learnblock2,692.8999999761581,img/planet8_left.png,8,Community 1,NA,TRUE,f,f,NA,NA,NA,25,6,"8,3,4,6,15,13,7,2,5,14,9,11,1,12,10"
15421,commdev-image-keyboard-response,580,963593,learnblock2,813.9000000953674,img/planet6_left.png,6,Community 1,NA,TRUE,f,f,NA,NA,NA,25,6,"8,3,4,6,15,13,7,2,5,14,9,11,1,12,10"
15421,commdev-image-keyboard-response,581,964844,learnblock2,798.6000000238419,img/planet3_right.png,3,Community 1,NA,TRUE,j,j,NA,NA,NA,25,6,"8,3,4,6,15,13,7,2,5,14,9,11,1,12,10"
15421,commdev-image-keyboard-response,582,966096,learnblock2,521.8999999761581,img/planet6_left.png,6,Community 1,NA,TRUE,f,f,NA,NA,NA,25,6,"8,3,4,6,15,13,7,2,5,14,9,11,1,12,10"
15421,commdev-image-keyboard-response,583,967348,learnblock2,622.8000000715256,img/planet8_right.png,8,Community 1,NA,TRUE,j,j,NA,NA,NA,25,6,"8,3,4,6,15,13,7,2,5,14,9,11,1,12,10"
