subject_id,trial_type,trial_index,time_elapsed,block,rt,stimulus,planet,community,response,correct,key_press,learning_correct_response,parse,init_locations,final_locations,browser_interactions,num_comp,planet_map
14348,commdev-instructions,7,52294,NA,5456.4000000059605,"<p>In this game, you will be shown a 3x3 grid of patterns.</p> <p>The last one in the bottom right-hand corner, <strong>will be missing:</strong></p> <div style='width: 700px;'><div style='float: top;'><img style='width: 200px;' src='practice/p1_M1.png'></img><p class='small'>You need to select<strong> which of the four possible patterns </strong>along the bottom<strong> fits into the gap:</strong></p></div><div style='float: top;'><img style='width: 300px;' src='practice/p1_T1.png'></img></div><br>",NA,NA,NA,NA,NA,NA,NA,NA,NA,1,6,"13,5,10,7,11,15,14,9,3,4,12,8,2,1,6"
14348,commdev-instructions,8,76632,NA,6334.600000008941,"<p>Try to be as fast and as accurate as you can be.</p> <p>If you cannot solve the puzzle then you should guess - you will not be penalised for an incorrect answer.</p> <p>The task contains a shuffled mix of easy, medium and hard puzzles.</p> <p>You will have <strong>30 seconds</strong> to complete each puzzle.</p><br>",NA,NA,NA,NA,NA,NA,NA,NA,NA,1,6,"13,5,10,7,11,15,14,9,3,4,12,8,2,1,6"
14348,commdev-instructions,17,107887,NA,4559.79999999702,<p><strong>Success!</strong></p> <p>You seem to be getting the hang of this...</p> <p>Let's move on to the real trials.</p><br>,NA,NA,NA,NA,NA,NA,NA,NA,NA,1,6,"13,5,10,7,11,15,14,9,3,4,12,8,2,1,6"
14348,commdev-instructions,93,604937,NA,5127.0999999940395,"<p>In this game, you are a scientist on board a space shuttle. </p><p> On each mission, you will visit planets all across the universe.</p><img src=""img/controlroom.jpg"" width=300vw>",NA,NA,NA,NA,NA,NA,NA,NA,NA,1,6,"13,5,10,7,11,15,14,9,3,4,12,8,2,1,6"
14348,commdev-instructions,94,608188,NA,1187.8999999910593,"<p>Here are a few planets you might see:</p><img src=""img/practice1.png"" width=200vw><img src=""img/practice2.png"" width=200vw><img src=""img/practice3.png"" width=200vw>",NA,NA,NA,NA,NA,NA,NA,NA,NA,1,6,"13,5,10,7,11,15,14,9,3,4,12,8,2,1,6"
14348,commdev-instructions,95,623707,NA,8116.9000000059605,"<p>Your job as a scientist is to record which direction the winds are moving on each planet.</p><p>There are two types of wind directions:</p><img src=""img/practice1_left.png"" width=200vw><img src=""img/practice1_right.png"" width=200vw>",NA,NA,NA,NA,NA,NA,NA,NA,NA,1,6,"13,5,10,7,11,15,14,9,3,4,12,8,2,1,6"
14348,commdev-instructions,96,631494,NA,2903.7999999970198,"<p>If the winds are moving this way, press the letter <strong>F</strong> on the keyboard as fast as you can.</p><img src=""img/leftwind.png"" width=250vw>",NA,NA,NA,NA,NA,NA,NA,NA,NA,1,6,"13,5,10,7,11,15,14,9,3,4,12,8,2,1,6"
14348,commdev-instructions,97,638222,NA,2232.300000011921,"<p>If the winds are moving this way, press the letter <strong>J</strong> on the keyboard as fast as you can.</p><img src=""img/rightwind.png"" width=350vw>",NA,NA,NA,NA,NA,NA,NA,NA,NA,1,6,"13,5,10,7,11,15,14,9,3,4,12,8,2,1,6"
14348,commdev-instructions,98,643702,NA,1052,<p>You will have 1 second to respond. Try to respond before the time runs out!,NA,NA,NA,NA,NA,NA,NA,NA,NA,1,6,"13,5,10,7,11,15,14,9,3,4,12,8,2,1,6"
14348,commdev-instructions,99,652408,NA,3268.0999999940395,<p>The planets you will visit will look different from each other.</p><p>You should respond <strong>only</strong> based on wind direction.,NA,NA,NA,NA,NA,NA,NA,NA,NA,1,6,"13,5,10,7,11,15,14,9,3,4,12,8,2,1,6"
14348,commdev-instructions,100,658581,NA,1001.2000000029802,"<p> Ready to start the practice round? </p><p> Remember, press <strong>F</strong> or <strong>J</strong> depending on the wind direction.<br><img src=""img/categorize_planet_example.png""",NA,NA,NA,NA,NA,NA,NA,NA,NA,1,6,"13,5,10,7,11,15,14,9,3,4,12,8,2,1,6"
14348,commdev-instructions,112,727597,NA,2978.5999999940395,"<p>Great, now try a short practice mission. </p><p> This time, you will have 1 second to respond and you won't know whether you pressed the right or wrong key for each planet.</p>",NA,NA,NA,NA,NA,NA,NA,NA,NA,1,6,"13,5,10,7,11,15,14,9,3,4,12,8,2,1,6"
14348,commdev-image-keyboard-response,113,728960,practice,591,img/practice3_left.png,NA,Number not found in mappings,NA,FALSE,j,f,NA,NA,NA,1,6,"13,5,10,7,11,15,14,9,3,4,12,8,2,1,6"
14348,commdev-image-keyboard-response,114,730215,practice,929.2000000029802,img/practice1_right.png,NA,Number not found in mappings,NA,FALSE,f,j,NA,NA,NA,1,6,"13,5,10,7,11,15,14,9,3,4,12,8,2,1,6"
14348,commdev-image-keyboard-response,115,731474,practice,801.3000000119209,img/practice3_left.png,NA,Number not found in mappings,NA,FALSE,j,f,NA,NA,NA,1,6,"13,5,10,7,11,15,14,9,3,4,12,8,2,1,6"
14348,commdev-image-keyboard-response,116,732727,practice,848.3999999910593,img/practice2_right.png,NA,Number not found in mappings,NA,TRUE,j,j,NA,NA,NA,1,6,"13,5,10,7,11,15,14,9,3,4,12,8,2,1,6"
14348,commdev-image-keyboard-response,117,733985,practice,983.4000000059605,img/practice4_right.png,NA,Number not found in mappings,NA,FALSE,f,j,NA,NA,NA,1,6,"13,5,10,7,11,15,14,9,3,4,12,8,2,1,6"
14348,commdev-image-keyboard-response,118,735242,practice,766.2999999970198,img/practice2_right.png,NA,Number not found in mappings,NA,TRUE,j,j,NA,NA,NA,1,6,"13,5,10,7,11,15,14,9,3,4,12,8,2,1,6"
14348,commdev-image-keyboard-response,119,736501,practice,426.09999999403954,img/practice1_left.png,NA,Number not found in mappings,NA,FALSE,j,f,NA,NA,NA,1,6,"13,5,10,7,11,15,14,9,3,4,12,8,2,1,6"
14348,commdev-image-keyboard-response,120,737765,practice,354.5,img/practice3_right.png,NA,Number not found in mappings,NA,TRUE,j,j,NA,NA,NA,1,6,"13,5,10,7,11,15,14,9,3,4,12,8,2,1,6"
14348,commdev-instructions,121,751724,NA,4405.70000000298,"<p>Great job with the practice round.</p><p>During real missions, you won't know whether you pressed the right or wrong key for each planet.</p><p>But between missions, we will tell you how you did overall.</p>",NA,NA,NA,NA,NA,NA,NA,NA,NA,1,6,"13,5,10,7,11,15,14,9,3,4,12,8,2,1,6"
14348,commdev-instructions,122,761986,NA,2017.3999999910593,<p>Try your best! You will be paid a bonus based on how many correct responses you make!</p><p>Responses that are too slow will not count toward your bonus.</p>,NA,NA,NA,NA,NA,NA,NA,NA,NA,1,6,"13,5,10,7,11,15,14,9,3,4,12,8,2,1,6"
14348,commdev-instructions,123,770344,NA,2155.7000000029802,"<p>You are almost ready to start the real game.</p><p> First, we are going to ask you some questions about how the game works.</p>",NA,NA,NA,NA,NA,NA,NA,NA,NA,1,6,"13,5,10,7,11,15,14,9,3,4,12,8,2,1,6"
14348,commdev-instructions,132,852441,NA,2862.2999999970198,"<p> Nice work! It is now time to start the real game.<p></p>You will go on two missions to record wind directions of different planets.<p></p>Each one will take about 5 minutes. You will get to take a break between missions.<p><p> Remember, press <strong>F</strong> or <strong>J</strong> depending on the wind direction. Good luck!<br><img src=""img/categorize_planet_example.png""",NA,NA,NA,NA,NA,NA,NA,NA,NA,1,6,"13,5,10,7,11,15,14,9,3,4,12,8,2,1,6"
14348,commdev-image-keyboard-response,134,856099,learnblock1,null,img/planet13_left.png,13,Community 1,NA,FALSE,null,f,NA,NA,NA,1,6,"13,5,10,7,11,15,14,9,3,4,12,8,2,1,6"
14348,commdev-image-keyboard-response,135,857363,learnblock1,512.3999999910593,img/planet10_left.png,10,Community 1,NA,TRUE,f,f,NA,NA,NA,1,6,"13,5,10,7,11,15,14,9,3,4,12,8,2,1,6"
14348,commdev-image-keyboard-response,136,858619,learnblock1,1048.199999988079,img/planet11_left.png,11,Community 1,NA,TRUE,f,f,NA,NA,NA,1,6,"13,5,10,7,11,15,14,9,3,4,12,8,2,1,6"
14348,commdev-image-keyboard-response,137,859876,learnblock1,968.9000000059605,img/planet5_right.png,5,Community 1,NA,FALSE,f,j,NA,NA,NA,1,6,"13,5,10,7,11,15,14,9,3,4,12,8,2,1,6"
14348,commdev-image-keyboard-response,138,861137,learnblock1,974.4000000059605,img/planet7_left.png,7,Community 1,NA,TRUE,f,f,NA,NA,NA,1,6,"13,5,10,7,11,15,14,9,3,4,12,8,2,1,6"
14348,commdev-image-keyboard-response,139,862402,learnblock1,356.1000000089407,img/planet5_right.png,5,Community 1,NA,TRUE,j,j,NA,NA,NA,1,6,"13,5,10,7,11,15,14,9,3,4,12,8,2,1,6"
14348,commdev-image-keyboard-response,140,863659,learnblock1,791.5,img/planet10_right.png,10,Community 1,NA,TRUE,j,j,NA,NA,NA,1,6,"13,5,10,7,11,15,14,9,3,4,12,8,2,1,6"
14348,commdev-image-keyboard-response,141,864920,learnblock1,739.0999999940395,img/planet5_left.png,5,Community 1,NA,TRUE,f,f,NA,NA,NA,1,6,"13,5,10,7,11,15,14,9,3,4,12,8,2,1,6"
14348,commdev-image-keyboard-response,142,866181,learnblock1,713.8999999910593,img/planet10_left.png,10,Community 1,NA,TRUE,f,f,NA,NA,NA,1,6,"13,5,10,7,11,15,14,9,3,4,12,8,2,1,6"
14348,commdev-image-keyboard-response,143,867434,learnblock1,637.7999999970198,img/planet13_left.png,13,Community 1,NA,TRUE,f,f,NA,NA,NA,1,6,"13,5,10,7,11,15,14,9,3,4,12,8,2,1,6"
14348,commdev-image-keyboard-response,144,868699,learnblock1,716.7999999970198,img/planet7_right.png,7,Community 1,NA,TRUE,j,j,NA,NA,NA,1,6,"13,5,10,7,11,15,14,9,3,4,12,8,2,1,6"
14348,commdev-image-keyboard-response,145,869962,learnblock1,1228.5999999940395,img/planet5_left.png,5,Community 1,NA,TRUE,f,f,NA,NA,NA,1,6,"13,5,10,7,11,15,14,9,3,4,12,8,2,1,6"
14348,commdev-image-keyboard-response,146,871221,learnblock1,814,img/planet10_right.png,10,Community 1,NA,TRUE,j,j,NA,NA,NA,1,6,"13,5,10,7,11,15,14,9,3,4,12,8,2,1,6"
14348,commdev-image-keyboard-response,147,872482,learnblock1,730.2000000029802,img/planet7_right.png,7,Community 1,NA,TRUE,j,j,NA,NA,NA,1,6,"13,5,10,7,11,15,14,9,3,4,12,8,2,1,6"
14348,commdev-image-keyboard-response,148,873740,learnblock1,607.5999999940395,img/planet10_left.png,10,Community 1,NA,FALSE,j,f,NA,NA,NA,1,6,"13,5,10,7,11,15,14,9,3,4,12,8,2,1,6"
14348,commdev-image-keyboard-response,149,875004,learnblock1,876.2999999970198,img/planet11_left.png,11,Community 1,NA,TRUE,f,f,NA,NA,NA,1,6,"13,5,10,7,11,15,14,9,3,4,12,8,2,1,6"
14348,commdev-image-keyboard-response,150,876263,learnblock1,843.0999999940395,img/planet13_left.png,13,Community 1,NA,TRUE,f,f,NA,NA,NA,1,6,"13,5,10,7,11,15,14,9,3,4,12,8,2,1,6"
14348,commdev-image-keyboard-response,151,877520,learnblock1,null,img/planet7_left.png,7,Community 1,NA,FALSE,null,f,NA,NA,NA,1,6,"13,5,10,7,11,15,14,9,3,4,12,8,2,1,6"
14348,commdev-image-keyboard-response,152,878775,learnblock1,526.7999999970198,img/planet15_left.png,15,Community 2,NA,TRUE,f,f,NA,NA,NA,1,6,"13,5,10,7,11,15,14,9,3,4,12,8,2,1,6"
14348,commdev-image-keyboard-response,153,880027,learnblock1,543.9000000059605,img/planet4_right.png,4,Community 2,NA,TRUE,j,j,NA,NA,NA,1,6,"13,5,10,7,11,15,14,9,3,4,12,8,2,1,6"
14348,commdev-image-keyboard-response,154,881278,learnblock1,723.7999999970198,img/planet9_right.png,9,Community 2,NA,TRUE,j,j,NA,NA,NA,1,6,"13,5,10,7,11,15,14,9,3,4,12,8,2,1,6"
14348,commdev-image-keyboard-response,155,882529,learnblock1,908.8999999910593,img/planet14_left.png,14,Community 2,NA,TRUE,f,f,NA,NA,NA,1,6,"13,5,10,7,11,15,14,9,3,4,12,8,2,1,6"
14348,commdev-image-keyboard-response,156,883780,learnblock1,757.2999999970198,img/planet4_right.png,4,Community 2,NA,TRUE,j,j,NA,NA,NA,1,6,"13,5,10,7,11,15,14,9,3,4,12,8,2,1,6"
14348,commdev-image-keyboard-response,157,885031,learnblock1,1243.1000000089407,img/planet9_left.png,9,Community 2,NA,FALSE,j,f,NA,NA,NA,1,6,"13,5,10,7,11,15,14,9,3,4,12,8,2,1,6"
14348,commdev-image-keyboard-response,158,886282,learnblock1,992.1000000089407,img/planet4_left.png,4,Community 2,NA,TRUE,f,f,NA,NA,NA,1,6,"13,5,10,7,11,15,14,9,3,4,12,8,2,1,6"
14348,commdev-image-keyboard-response,159,887534,learnblock1,613.5999999940395,img/planet3_right.png,3,Community 2,NA,TRUE,j,j,NA,NA,NA,1,6,"13,5,10,7,11,15,14,9,3,4,12,8,2,1,6"
14348,commdev-image-keyboard-response,160,888786,learnblock1,650.2000000029802,img/planet4_right.png,4,Community 2,NA,TRUE,j,j,NA,NA,NA,1,6,"13,5,10,7,11,15,14,9,3,4,12,8,2,1,6"
14348,commdev-image-keyboard-response,161,890037,learnblock1,358.40000000596046,img/planet15_right.png,15,Community 2,NA,TRUE,j,j,NA,NA,NA,1,6,"13,5,10,7,11,15,14,9,3,4,12,8,2,1,6"
14348,commdev-image-keyboard-response,162,891288,learnblock1,734.5,img/planet7_right.png,7,Community 1,NA,TRUE,j,j,NA,NA,NA,1,6,"13,5,10,7,11,15,14,9,3,4,12,8,2,1,6"
14348,commdev-image-keyboard-response,163,892539,learnblock1,832.9000000059605,img/planet15_left.png,15,Community 2,NA,TRUE,f,f,NA,NA,NA,1,6,"13,5,10,7,11,15,14,9,3,4,12,8,2,1,6"
14348,commdev-image-keyboard-response,164,893790,learnblock1,946.6999999880791,img/planet7_right.png,7,Community 1,NA,TRUE,j,j,NA,NA,NA,1,6,"13,5,10,7,11,15,14,9,3,4,12,8,2,1,6"
14348,commdev-image-keyboard-response,165,895041,learnblock1,744.7000000029802,img/planet5_left.png,5,Community 1,NA,TRUE,f,f,NA,NA,NA,1,6,"13,5,10,7,11,15,14,9,3,4,12,8,2,1,6"
14348,commdev-image-keyboard-response,166,896292,learnblock1,1162.7000000029802,img/planet7_right.png,7,Community 1,NA,TRUE,j,j,NA,NA,NA,1,6,"13,5,10,7,11,15,14,9,3,4,12,8,2,1,6"
14348,commdev-image-keyboard-response,167,897544,learnblock1,647.4000000059605,img/planet10_left.png,10,Community 1,NA,TRUE,f,f,NA,NA,NA,1,6,"13,5,10,7,11,15,14,9,3,4,12,8,2,1,6"
14348,commdev-image-keyboard-response,168,898795,learnblock1,1124.7999999970198,img/planet5_right.png,5,Community 1,NA,TRUE,j,j,NA,NA,NA,1,6,"13,5,10,7,11,15,14,9,3,4,12,8,2,1,6"
14348,commdev-image-keyboard-response,169,900045,learnblock1,1208,img/planet13_right.png,13,Community 1,NA,TRUE,j,j,NA,NA,NA,1,6,"13,5,10,7,11,15,14,9,3,4,12,8,2,1,6"
14348,commdev-image-keyboard-response,170,901296,learnblock1,1100.5999999940395,img/planet10_left.png,10,Community 1,NA,FALSE,j,f,NA,NA,NA,1,6,"13,5,10,7,11,15,14,9,3,4,12,8,2,1,6"
14348,commdev-image-keyboard-response,171,902546,learnblock1,88.69999998807907,img/planet5_left.png,5,Community 1,NA,TRUE,f,f,NA,NA,NA,1,6,"13,5,10,7,11,15,14,9,3,4,12,8,2,1,6"
14348,commdev-image-keyboard-response,172,903797,learnblock1,745.7999999970198,img/planet10_right.png,10,Community 1,NA,TRUE,j,j,NA,NA,NA,1,6,"13,5,10,7,11,15,14,9,3,4,12,8,2,1,6"
14348,commdev-image-keyboard-response,173,905049,learnblock1,664.5999999940395,img/planet5_left.png,5,Community 1,NA,TRUE,f,f,NA,NA,NA,1,6,"13,5,10,7,11,15,14,9,3,4,12,8,2,1,6"
14348,commdev-image-keyboard-response,174,906311,learnblock1,588.7000000029802,img/planet10_right.png,10,Community 1,NA,TRUE,j,j,NA,NA,NA,1,6,"13,5,10,7,11,15,14,9,3,4,12,8,2,1,6"
14348,commdev-image-keyboard-response,175,907563,learnblock1,765.3999999910593,img/planet13_right.png,13,Community 1,NA,TRUE,j,j,NA,NA,NA,1,6,"13,5,10,7,11,15,14,9,3,4,12,8,2,1,6"
14348,commdev-image-keyboard-response,176,908814,learnblock1,686.9000000059605,img/planet7_right.png,7,Community 1,NA,TRUE,j,j,NA,NA,NA,1,6,"13,5,10,7,11,15,14,9,3,4,12,8,2,1,6"
14348,commdev-image-keyboard-response,177,910066,learnblock1,528.7000000029802,img/planet5_right.png,5,Community 1,NA,TRUE,j,j,NA,NA,NA,1,6,"13,5,10,7,11,15,14,9,3,4,12,8,2,1,6"
14348,commdev-image-keyboard-response,178,911316,learnblock1,804.6000000089407,img/planet10_left.png,10,Community 1,NA,TRUE,f,f,NA,NA,NA,1,6,"13,5,10,7,11,15,14,9,3,4,12,8,2,1,6"
14348,commdev-image-keyboard-response,179,912568,learnblock1,null,img/planet13_left.png,13,Community 1,NA,FALSE,null,f,NA,NA,NA,1,6,"13,5,10,7,11,15,14,9,3,4,12,8,2,1,6"
14348,commdev-image-keyboard-response,180,913819,learnblock1,699.2000000029802,img/planet7_right.png,7,Community 1,NA,TRUE,j,j,NA,NA,NA,1,6,"13,5,10,7,11,15,14,9,3,4,12,8,2,1,6"
14348,commdev-image-keyboard-response,181,915070,learnblock1,100.20000000298023,img/planet15_right.png,15,Community 2,NA,TRUE,j,j,NA,NA,NA,1,6,"13,5,10,7,11,15,14,9,3,4,12,8,2,1,6"
14348,commdev-image-keyboard-response,182,916321,learnblock1,598.5,img/planet7_right.png,7,Community 1,NA,TRUE,j,j,NA,NA,NA,1,6,"13,5,10,7,11,15,14,9,3,4,12,8,2,1,6"
14348,commdev-image-keyboard-response,183,917572,learnblock1,600.2000000029802,img/planet5_left.png,5,Community 1,NA,TRUE,f,f,NA,NA,NA,1,6,"13,5,10,7,11,15,14,9,3,4,12,8,2,1,6"
14348,commdev-image-keyboard-response,184,918823,learnblock1,511.40000000596046,img/planet13_left.png,13,Community 1,NA,FALSE,j,f,NA,NA,NA,1,6,"13,5,10,7,11,15,14,9,3,4,12,8,2,1,6"
14348,commdev-image-keyboard-response,185,920075,learnblock1,700.8000000119209,img/planet7_left.png,7,Community 1,NA,FALSE,j,f,NA,NA,NA,1,6,"13,5,10,7,11,15,14,9,3,4,12,8,2,1,6"
14348,commdev-image-keyboard-response,186,921326,learnblock1,76.29999999701977,img/planet13_left.png,13,Community 1,NA,TRUE,f,f,NA,NA,NA,1,6,"13,5,10,7,11,15,14,9,3,4,12,8,2,1,6"
14348,commdev-image-keyboard-response,187,922578,learnblock1,656.7999999970198,img/planet7_right.png,7,Community 1,NA,TRUE,j,j,NA,NA,NA,1,6,"13,5,10,7,11,15,14,9,3,4,12,8,2,1,6"
14348,commdev-image-keyboard-response,188,923830,learnblock1,586.3000000119209,img/planet15_right.png,15,Community 2,NA,TRUE,j,j,NA,NA,NA,1,6,"13,5,10,7,11,15,14,9,3,4,12,8,2,1,6"
14348,commdev-image-keyboard-response,189,925081,learnblock1,490.3999999910593,img/planet7_left.png,7,Community 1,NA,FALSE,j,f,NA,NA,NA,1,6,"13,5,10,7,11,15,14,9,3,4,12,8,2,1,6"
14348,commdev-image-keyboard-response,190,926331,learnblock1,863.2000000029802,img/planet13_right.png,13,Community 1,NA,TRUE,j,j,NA,NA,NA,1,6,"13,5,10,7,11,15,14,9,3,4,12,8,2,1,6"
14348,commdev-image-keyboard-response,191,927583,learnblock1,675.7000000029802,img/planet5_left.png,5,Community 1,NA,TRUE,f,f,NA,NA,NA,1,6,"13,5,10,7,11,15,14,9,3,4,12,8,2,1,6"
14348,commdev-image-keyboard-response,192,928835,learnblock1,300.8999999910593,img/planet10_right.png,10,Community 1,NA,TRUE,j,j,NA,NA,NA,1,6,"13,5,10,7,11,15,14,9,3,4,12,8,2,1,6"
14348,commdev-image-keyboard-response,193,930085,learnblock1,913.7000000029802,img/planet11_left.png,11,Community 1,NA,TRUE,f,f,NA,NA,NA,1,6,"13,5,10,7,11,15,14,9,3,4,12,8,2,1,6"
14348,commdev-image-keyboard-response,194,931336,learnblock1,699.1000000089407,img/planet12_right.png,12,Community 3,NA,TRUE,j,j,NA,NA,NA,1,6,"13,5,10,7,11,15,14,9,3,4,12,8,2,1,6"
14348,commdev-image-keyboard-response,195,932588,learnblock1,694.7000000029802,img/planet6_right.png,6,Community 3,NA,TRUE,j,j,NA,NA,NA,1,6,"13,5,10,7,11,15,14,9,3,4,12,8,2,1,6"
14348,commdev-image-keyboard-response,196,933839,learnblock1,779.4000000059605,img/planet8_right.png,8,Community 3,NA,TRUE,j,j,NA,NA,NA,1,6,"13,5,10,7,11,15,14,9,3,4,12,8,2,1,6"
14348,commdev-image-keyboard-response,197,935105,learnblock1,628.2000000029802,img/planet9_left.png,9,Community 2,NA,TRUE,f,f,NA,NA,NA,1,6,"13,5,10,7,11,15,14,9,3,4,12,8,2,1,6"
14348,commdev-image-keyboard-response,198,936356,learnblock1,694.6999999880791,img/planet14_right.png,14,Community 2,NA,TRUE,j,j,NA,NA,NA,1,6,"13,5,10,7,11,15,14,9,3,4,12,8,2,1,6"
14348,commdev-image-keyboard-response,199,937607,learnblock1,578.5,img/planet15_right.png,15,Community 2,NA,TRUE,j,j,NA,NA,NA,1,6,"13,5,10,7,11,15,14,9,3,4,12,8,2,1,6"
14348,commdev-image-keyboard-response,200,938858,learnblock1,876.0999999940395,img/planet3_right.png,3,Community 2,NA,TRUE,j,j,NA,NA,NA,1,6,"13,5,10,7,11,15,14,9,3,4,12,8,2,1,6"
14348,commdev-image-keyboard-response,201,940108,learnblock1,758.5,img/planet4_left.png,4,Community 2,NA,TRUE,f,f,NA,NA,NA,1,6,"13,5,10,7,11,15,14,9,3,4,12,8,2,1,6"
14348,commdev-image-keyboard-response,202,941359,learnblock1,1069,img/planet3_left.png,3,Community 2,NA,TRUE,f,f,NA,NA,NA,1,6,"13,5,10,7,11,15,14,9,3,4,12,8,2,1,6"
14348,commdev-image-keyboard-response,203,942611,learnblock1,1022.7000000029802,img/planet15_left.png,15,Community 2,NA,FALSE,j,f,NA,NA,NA,1,6,"13,5,10,7,11,15,14,9,3,4,12,8,2,1,6"
14348,commdev-image-keyboard-response,204,943862,learnblock1,855.7000000029802,img/planet7_right.png,7,Community 1,NA,TRUE,j,j,NA,NA,NA,1,6,"13,5,10,7,11,15,14,9,3,4,12,8,2,1,6"
14348,commdev-image-keyboard-response,205,945113,learnblock1,667.5,img/planet5_left.png,5,Community 1,NA,TRUE,f,f,NA,NA,NA,1,6,"13,5,10,7,11,15,14,9,3,4,12,8,2,1,6"
14348,commdev-image-keyboard-response,206,946364,learnblock1,896.5,img/planet13_left.png,13,Community 1,NA,TRUE,f,f,NA,NA,NA,1,6,"13,5,10,7,11,15,14,9,3,4,12,8,2,1,6"
14348,commdev-image-keyboard-response,207,947616,learnblock1,873.6000000089407,img/planet7_left.png,7,Community 1,NA,TRUE,f,f,NA,NA,NA,1,6,"13,5,10,7,11,15,14,9,3,4,12,8,2,1,6"
14348,commdev-image-keyboard-response,208,948868,learnblock1,854.6000000089407,img/planet13_right.png,13,Community 1,NA,TRUE,j,j,NA,NA,NA,1,6,"13,5,10,7,11,15,14,9,3,4,12,8,2,1,6"
14348,commdev-image-keyboard-response,209,950119,learnblock1,954.2999999970198,img/planet5_right.png,5,Community 1,NA,TRUE,j,j,NA,NA,NA,1,6,"13,5,10,7,11,15,14,9,3,4,12,8,2,1,6"
14348,commdev-image-keyboard-response,210,951370,learnblock1,645.7999999970198,img/planet10_right.png,10,Community 1,NA,TRUE,j,j,NA,NA,NA,1,6,"13,5,10,7,11,15,14,9,3,4,12,8,2,1,6"
14348,commdev-image-keyboard-response,211,952621,learnblock1,786,img/planet5_left.png,5,Community 1,NA,TRUE,f,f,NA,NA,NA,1,6,"13,5,10,7,11,15,14,9,3,4,12,8,2,1,6"
14348,commdev-image-keyboard-response,212,953872,learnblock1,1143.1000000089407,img/planet7_left.png,7,Community 1,NA,TRUE,f,f,NA,NA,NA,1,6,"13,5,10,7,11,15,14,9,3,4,12,8,2,1,6"
14348,commdev-image-keyboard-response,213,955124,learnblock1,473.1000000089407,img/planet5_right.png,5,Community 1,NA,TRUE,j,j,NA,NA,NA,1,6,"13,5,10,7,11,15,14,9,3,4,12,8,2,1,6"
14348,commdev-image-keyboard-response,214,956377,learnblock1,414.29999999701977,img/planet10_right.png,10,Community 1,NA,TRUE,j,j,NA,NA,NA,1,6,"13,5,10,7,11,15,14,9,3,4,12,8,2,1,6"
14348,commdev-image-keyboard-response,215,957628,learnblock1,1224.8999999910593,img/planet13_left.png,13,Community 1,NA,TRUE,f,f,NA,NA,NA,1,6,"13,5,10,7,11,15,14,9,3,4,12,8,2,1,6"
14348,commdev-image-keyboard-response,216,958879,learnblock1,null,img/planet5_left.png,5,Community 1,NA,FALSE,null,f,NA,NA,NA,1,6,"13,5,10,7,11,15,14,9,3,4,12,8,2,1,6"
14348,commdev-image-keyboard-response,217,960130,learnblock1,178.79999999701977,img/planet10_left.png,10,Community 1,NA,FALSE,j,f,NA,NA,NA,1,6,"13,5,10,7,11,15,14,9,3,4,12,8,2,1,6"
14348,commdev-image-keyboard-response,218,961381,learnblock1,null,img/planet11_right.png,11,Community 1,NA,FALSE,null,j,NA,NA,NA,1,6,"13,5,10,7,11,15,14,9,3,4,12,8,2,1,6"
14348,commdev-image-keyboard-response,219,962647,learnblock1,146.70000000298023,img/planet12_right.png,12,Community 3,NA,TRUE,j,j,NA,NA,NA,1,6,"13,5,10,7,11,15,14,9,3,4,12,8,2,1,6"
14348,commdev-image-keyboard-response,220,963898,learnblock1,624.8999999910593,img/planet11_right.png,11,Community 1,NA,TRUE,j,j,NA,NA,NA,1,6,"13,5,10,7,11,15,14,9,3,4,12,8,2,1,6"
14348,commdev-image-keyboard-response,221,965150,learnblock1,277.59999999403954,img/planet12_left.png,12,Community 3,NA,FALSE,j,f,NA,NA,NA,1,6,"13,5,10,7,11,15,14,9,3,4,12,8,2,1,6"
14348,commdev-image-keyboard-response,222,966402,learnblock1,1.2000000029802322,img/planet11_left.png,11,Community 1,NA,TRUE,f,f,NA,NA,NA,1,6,"13,5,10,7,11,15,14,9,3,4,12,8,2,1,6"
14348,commdev-image-keyboard-response,223,967659,learnblock1,436.19999998807907,img/planet10_left.png,10,Community 1,NA,TRUE,f,f,NA,NA,NA,1,6,"13,5,10,7,11,15,14,9,3,4,12,8,2,1,6"
14348,commdev-image-keyboard-response,224,968911,learnblock1,411.20000000298023,img/planet5_left.png,5,Community 1,NA,FALSE,j,f,NA,NA,NA,1,6,"13,5,10,7,11,15,14,9,3,4,12,8,2,1,6"
14348,commdev-image-keyboard-response,225,970163,learnblock1,801.6999999880791,img/planet10_left.png,10,Community 1,NA,TRUE,f,f,NA,NA,NA,1,6,"13,5,10,7,11,15,14,9,3,4,12,8,2,1,6"
14348,commdev-image-keyboard-response,226,971414,learnblock1,936.2999999970198,img/planet5_left.png,5,Community 1,NA,TRUE,f,f,NA,NA,NA,1,6,"13,5,10,7,11,15,14,9,3,4,12,8,2,1,6"
14348,commdev-image-keyboard-response,227,972664,learnblock1,769.2999999970198,img/planet13_left.png,13,Community 1,NA,TRUE,f,f,NA,NA,NA,1,6,"13,5,10,7,11,15,14,9,3,4,12,8,2,1,6"
14348,commdev-image-keyboard-response,228,973916,learnblock1,591.6999999880791,img/planet10_right.png,10,Community 1,NA,TRUE,j,j,NA,NA,NA,1,6,"13,5,10,7,11,15,14,9,3,4,12,8,2,1,6"
14348,commdev-image-keyboard-response,229,975167,learnblock1,857.3999999910593,img/planet7_right.png,7,Community 1,NA,TRUE,j,j,NA,NA,NA,1,6,"13,5,10,7,11,15,14,9,3,4,12,8,2,1,6"
14348,commdev-image-keyboard-response,230,976417,learnblock1,949.2000000029802,img/planet10_right.png,10,Community 1,NA,TRUE,j,j,NA,NA,NA,1,6,"13,5,10,7,11,15,14,9,3,4,12,8,2,1,6"
14348,commdev-image-keyboard-response,231,977668,learnblock1,673.5,img/planet13_right.png,13,Community 1,NA,TRUE,j,j,NA,NA,NA,1,6,"13,5,10,7,11,15,14,9,3,4,12,8,2,1,6"
14348,commdev-image-keyboard-response,232,978920,learnblock1,417.1000000089407,img/planet11_right.png,11,Community 1,NA,TRUE,j,j,NA,NA,NA,1,6,"13,5,10,7,11,15,14,9,3,4,12,8,2,1,6"
14348,commdev-image-keyboard-response,233,980171,learnblock1,716.7999999970198,img/planet13_right.png,13,Community 1,NA,TRUE,j,j,NA,NA,NA,1,6,"13,5,10,7,11,15,14,9,3,4,12,8,2,1,6"
14348,commdev-image-keyboard-response,234,981422,learnblock1,743.2999999970198,img/planet10_left.png,10,Community 1,NA,FALSE,j,f,NA,NA,NA,1,6,"13,5,10,7,11,15,14,9,3,4,12,8,2,1,6"
14348,commdev-image-keyboard-response,235,982673,learnblock1,541,img/planet5_left.png,5,Community 1,NA,FALSE,j,f,NA,NA,NA,1,6,"13,5,10,7,11,15,14,9,3,4,12,8,2,1,6"
14348,commdev-image-keyboard-response,236,983924,learnblock1,624,img/planet10_left.png,10,Community 1,NA,FALSE,j,f,NA,NA,NA,1,6,"13,5,10,7,11,15,14,9,3,4,12,8,2,1,6"
14348,commdev-image-keyboard-response,237,985174,learnblock1,336.29999999701977,img/planet13_left.png,13,Community 1,NA,TRUE,f,f,NA,NA,NA,1,6,"13,5,10,7,11,15,14,9,3,4,12,8,2,1,6"
14348,commdev-image-keyboard-response,238,986439,learnblock1,522.9000000059605,img/planet5_left.png,5,Community 1,NA,TRUE,f,f,NA,NA,NA,1,6,"13,5,10,7,11,15,14,9,3,4,12,8,2,1,6"
14348,commdev-image-keyboard-response,239,987690,learnblock1,597.3999999910593,img/planet7_right.png,7,Community 1,NA,FALSE,f,j,NA,NA,NA,1,6,"13,5,10,7,11,15,14,9,3,4,12,8,2,1,6"
14348,commdev-image-keyboard-response,240,988942,learnblock1,797.6000000089407,img/planet13_right.png,13,Community 1,NA,TRUE,j,j,NA,NA,NA,1,6,"13,5,10,7,11,15,14,9,3,4,12,8,2,1,6"
14348,commdev-image-keyboard-response,241,990194,learnblock1,388.79999999701977,img/planet5_left.png,5,Community 1,NA,FALSE,j,f,NA,NA,NA,1,6,"13,5,10,7,11,15,14,9,3,4,12,8,2,1,6"
14348,commdev-image-keyboard-response,242,991445,learnblock1,780.7999999970198,img/planet10_left.png,10,Community 1,NA,TRUE,f,f,NA,NA,NA,1,6,"13,5,10,7,11,15,14,9,3,4,12,8,2,1,6"
14348,commdev-image-keyboard-response,243,992696,learnblock1,651.7999999970198,img/planet7_right.png,7,Community 1,NA,TRUE,j,j,NA,NA,NA,1,6,"13,5,10,7,11,15,14,9,3,4,12,8,2,1,6"
14348,commdev-image-keyboard-response,244,993947,learnblock1,958.0999999940395,img/planet13_left.png,13,Community 1,NA,TRUE,f,f,NA,NA,NA,1,6,"13,5,10,7,11,15,14,9,3,4,12,8,2,1,6"
14348,commdev-image-keyboard-response,245,995198,learnblock1,780.5,img/planet10_left.png,10,Community 1,NA,TRUE,f,f,NA,NA,NA,1,6,"13,5,10,7,11,15,14,9,3,4,12,8,2,1,6"
14348,commdev-image-keyboard-response,246,996450,learnblock1,638.5,img/planet13_left.png,13,Community 1,NA,TRUE,f,f,NA,NA,NA,1,6,"13,5,10,7,11,15,14,9,3,4,12,8,2,1,6"
14348,commdev-image-keyboard-response,247,997702,learnblock1,802.1000000089407,img/planet5_right.png,5,Community 1,NA,TRUE,j,j,NA,NA,NA,1,6,"13,5,10,7,11,15,14,9,3,4,12,8,2,1,6"
14348,commdev-image-keyboard-response,248,998952,learnblock1,1061.7000000029802,img/planet7_left.png,7,Community 1,NA,TRUE,f,f,NA,NA,NA,1,6,"13,5,10,7,11,15,14,9,3,4,12,8,2,1,6"
14348,commdev-image-keyboard-response,249,1000203,learnblock1,946.7999999970198,img/planet5_left.png,5,Community 1,NA,TRUE,f,f,NA,NA,NA,1,6,"13,5,10,7,11,15,14,9,3,4,12,8,2,1,6"
14348,commdev-image-keyboard-response,250,1001455,learnblock1,698.7999999970198,img/planet7_right.png,7,Community 1,NA,TRUE,j,j,NA,NA,NA,1,6,"13,5,10,7,11,15,14,9,3,4,12,8,2,1,6"
14348,commdev-image-keyboard-response,251,1002706,learnblock1,775.4000000059605,img/planet15_right.png,15,Community 2,NA,TRUE,j,j,NA,NA,NA,1,6,"13,5,10,7,11,15,14,9,3,4,12,8,2,1,6"
14348,commdev-image-keyboard-response,252,1003958,learnblock1,786.2999999970198,img/planet7_right.png,7,Community 1,NA,FALSE,f,j,NA,NA,NA,1,6,"13,5,10,7,11,15,14,9,3,4,12,8,2,1,6"
14348,commdev-image-keyboard-response,253,1005209,learnblock1,640.2999999970198,img/planet15_left.png,15,Community 2,NA,TRUE,f,f,NA,NA,NA,1,6,"13,5,10,7,11,15,14,9,3,4,12,8,2,1,6"
14348,commdev-image-keyboard-response,254,1006461,learnblock1,702.8999999910593,img/planet3_left.png,3,Community 2,NA,TRUE,f,f,NA,NA,NA,1,6,"13,5,10,7,11,15,14,9,3,4,12,8,2,1,6"
14348,commdev-image-keyboard-response,255,1007712,learnblock1,862.8999999910593,img/planet4_left.png,4,Community 2,NA,TRUE,f,f,NA,NA,NA,1,6,"13,5,10,7,11,15,14,9,3,4,12,8,2,1,6"
14348,commdev-image-keyboard-response,256,1008963,learnblock1,990.7000000029802,img/planet3_left.png,3,Community 2,NA,TRUE,f,f,NA,NA,NA,1,6,"13,5,10,7,11,15,14,9,3,4,12,8,2,1,6"
14348,commdev-image-keyboard-response,257,1010214,learnblock1,759.4000000059605,img/planet9_left.png,9,Community 2,NA,TRUE,f,f,NA,NA,NA,1,6,"13,5,10,7,11,15,14,9,3,4,12,8,2,1,6"
14348,commdev-image-keyboard-response,258,1011479,learnblock1,584.2999999970198,img/planet3_left.png,3,Community 2,NA,FALSE,j,f,NA,NA,NA,1,6,"13,5,10,7,11,15,14,9,3,4,12,8,2,1,6"
14348,commdev-image-keyboard-response,259,1012731,learnblock1,888.2999999970198,img/planet14_right.png,14,Community 2,NA,TRUE,j,j,NA,NA,NA,1,6,"13,5,10,7,11,15,14,9,3,4,12,8,2,1,6"
14348,commdev-image-keyboard-response,260,1013982,learnblock1,929,img/planet9_left.png,9,Community 2,NA,TRUE,f,f,NA,NA,NA,1,6,"13,5,10,7,11,15,14,9,3,4,12,8,2,1,6"
14348,commdev-image-keyboard-response,261,1015233,learnblock1,1149.699999988079,img/planet3_right.png,3,Community 2,NA,TRUE,j,j,NA,NA,NA,1,6,"13,5,10,7,11,15,14,9,3,4,12,8,2,1,6"
14348,commdev-image-keyboard-response,262,1016485,learnblock1,null,img/planet15_left.png,15,Community 2,NA,FALSE,null,f,NA,NA,NA,1,6,"13,5,10,7,11,15,14,9,3,4,12,8,2,1,6"
14348,commdev-image-keyboard-response,263,1017736,learnblock1,1039.9000000059605,img/planet7_right.png,7,Community 1,NA,TRUE,j,j,NA,NA,NA,1,6,"13,5,10,7,11,15,14,9,3,4,12,8,2,1,6"
14348,commdev-image-keyboard-response,264,1018987,learnblock1,668.3999999910593,img/planet10_right.png,10,Community 1,NA,TRUE,j,j,NA,NA,NA,1,6,"13,5,10,7,11,15,14,9,3,4,12,8,2,1,6"
14348,commdev-image-keyboard-response,265,1020237,learnblock1,980.3999999910593,img/planet11_right.png,11,Community 1,NA,TRUE,j,j,NA,NA,NA,1,6,"13,5,10,7,11,15,14,9,3,4,12,8,2,1,6"
14348,commdev-image-keyboard-response,266,1021488,learnblock1,824.7999999970198,img/planet13_left.png,13,Community 1,NA,TRUE,f,f,NA,NA,NA,1,6,"13,5,10,7,11,15,14,9,3,4,12,8,2,1,6"
14348,commdev-image-keyboard-response,267,1022739,learnblock1,980.5,img/planet7_left.png,7,Community 1,NA,FALSE,j,f,NA,NA,NA,1,6,"13,5,10,7,11,15,14,9,3,4,12,8,2,1,6"
14348,commdev-image-keyboard-response,268,1023990,learnblock1,806.5999999940395,img/planet5_left.png,5,Community 1,NA,TRUE,f,f,NA,NA,NA,1,6,"13,5,10,7,11,15,14,9,3,4,12,8,2,1,6"
14348,commdev-image-keyboard-response,269,1025242,learnblock1,1014.2999999970198,img/planet13_left.png,13,Community 1,NA,FALSE,j,f,NA,NA,NA,1,6,"13,5,10,7,11,15,14,9,3,4,12,8,2,1,6"
14348,commdev-image-keyboard-response,270,1026492,learnblock1,826.2999999970198,img/planet5_right.png,5,Community 1,NA,TRUE,j,j,NA,NA,NA,1,6,"13,5,10,7,11,15,14,9,3,4,12,8,2,1,6"
14348,commdev-image-keyboard-response,271,1027744,learnblock1,1003.2999999970198,img/planet10_right.png,10,Community 1,NA,TRUE,j,j,NA,NA,NA,1,6,"13,5,10,7,11,15,14,9,3,4,12,8,2,1,6"
14348,commdev-image-keyboard-response,272,1028995,learnblock1,984.9000000059605,img/planet11_right.png,11,Community 1,NA,TRUE,j,j,NA,NA,NA,1,6,"13,5,10,7,11,15,14,9,3,4,12,8,2,1,6"
14348,commdev-image-keyboard-response,273,1030247,learnblock1,1048.7999999970198,img/planet12_left.png,12,Community 3,NA,TRUE,f,f,NA,NA,NA,1,6,"13,5,10,7,11,15,14,9,3,4,12,8,2,1,6"
14348,commdev-image-keyboard-response,274,1031497,learnblock1,1119.2999999970198,img/planet1_right.png,1,Community 3,NA,TRUE,j,j,NA,NA,NA,1,6,"13,5,10,7,11,15,14,9,3,4,12,8,2,1,6"
14348,commdev-image-keyboard-response,275,1032750,learnblock1,null,img/planet2_right.png,2,Community 3,NA,FALSE,null,j,NA,NA,NA,1,6,"13,5,10,7,11,15,14,9,3,4,12,8,2,1,6"
14348,commdev-image-keyboard-response,276,1034000,learnblock1,null,img/planet12_right.png,12,Community 3,NA,FALSE,null,j,NA,NA,NA,1,6,"13,5,10,7,11,15,14,9,3,4,12,8,2,1,6"
14348,commdev-image-keyboard-response,277,1035252,learnblock1,604.4000000059605,img/planet6_right.png,6,Community 3,NA,TRUE,j,j,NA,NA,NA,1,6,"13,5,10,7,11,15,14,9,3,4,12,8,2,1,6"
14348,commdev-image-keyboard-response,278,1036503,learnblock1,1037.6000000089407,img/planet8_right.png,8,Community 3,NA,TRUE,j,j,NA,NA,NA,1,6,"13,5,10,7,11,15,14,9,3,4,12,8,2,1,6"
14348,commdev-image-keyboard-response,279,1037754,learnblock1,507.5,img/planet1_right.png,1,Community 3,NA,TRUE,j,j,NA,NA,NA,1,6,"13,5,10,7,11,15,14,9,3,4,12,8,2,1,6"
14348,commdev-image-keyboard-response,280,1039006,learnblock1,310.70000000298023,img/planet8_right.png,8,Community 3,NA,TRUE,j,j,NA,NA,NA,1,6,"13,5,10,7,11,15,14,9,3,4,12,8,2,1,6"
14348,commdev-image-keyboard-response,281,1040258,learnblock1,559,img/planet9_left.png,9,Community 2,NA,TRUE,f,f,NA,NA,NA,1,6,"13,5,10,7,11,15,14,9,3,4,12,8,2,1,6"
14348,commdev-image-keyboard-response,282,1041509,learnblock1,924.2000000029802,img/planet14_left.png,14,Community 2,NA,TRUE,f,f,NA,NA,NA,1,6,"13,5,10,7,11,15,14,9,3,4,12,8,2,1,6"
14348,commdev-image-keyboard-response,283,1042760,learnblock1,577,img/planet15_right.png,15,Community 2,NA,TRUE,j,j,NA,NA,NA,1,6,"13,5,10,7,11,15,14,9,3,4,12,8,2,1,6"
14348,commdev-image-keyboard-response,284,1044011,learnblock1,1157.6000000089407,img/planet14_right.png,14,Community 2,NA,TRUE,j,j,NA,NA,NA,1,6,"13,5,10,7,11,15,14,9,3,4,12,8,2,1,6"
14348,commdev-image-keyboard-response,285,1045264,learnblock1,824.5,img/planet4_right.png,4,Community 2,NA,TRUE,j,j,NA,NA,NA,1,6,"13,5,10,7,11,15,14,9,3,4,12,8,2,1,6"
14348,commdev-image-keyboard-response,286,1046515,learnblock1,402,img/planet14_left.png,14,Community 2,NA,FALSE,j,f,NA,NA,NA,1,6,"13,5,10,7,11,15,14,9,3,4,12,8,2,1,6"
14348,commdev-image-keyboard-response,287,1047777,learnblock1,722.6000000089407,img/planet3_right.png,3,Community 2,NA,TRUE,j,j,NA,NA,NA,1,6,"13,5,10,7,11,15,14,9,3,4,12,8,2,1,6"
14348,commdev-image-keyboard-response,288,1049028,learnblock1,515.5,img/planet4_right.png,4,Community 2,NA,TRUE,j,j,NA,NA,NA,1,6,"13,5,10,7,11,15,14,9,3,4,12,8,2,1,6"
14348,commdev-image-keyboard-response,289,1050279,learnblock1,448.70000000298023,img/planet15_left.png,15,Community 2,NA,FALSE,j,f,NA,NA,NA,1,6,"13,5,10,7,11,15,14,9,3,4,12,8,2,1,6"
14348,commdev-image-keyboard-response,290,1051530,learnblock1,866.5,img/planet7_left.png,7,Community 1,NA,TRUE,f,f,NA,NA,NA,1,6,"13,5,10,7,11,15,14,9,3,4,12,8,2,1,6"
14348,commdev-image-keyboard-response,291,1052781,learnblock1,865.0999999940395,img/planet15_right.png,15,Community 2,NA,TRUE,j,j,NA,NA,NA,1,6,"13,5,10,7,11,15,14,9,3,4,12,8,2,1,6"
14348,commdev-image-keyboard-response,292,1054032,learnblock1,778.7000000029802,img/planet4_right.png,4,Community 2,NA,TRUE,j,j,NA,NA,NA,1,6,"13,5,10,7,11,15,14,9,3,4,12,8,2,1,6"
14348,commdev-image-keyboard-response,293,1055284,learnblock1,929.3999999910593,img/planet15_right.png,15,Community 2,NA,FALSE,f,j,NA,NA,NA,1,6,"13,5,10,7,11,15,14,9,3,4,12,8,2,1,6"
14348,commdev-image-keyboard-response,294,1056535,learnblock1,843,img/planet7_right.png,7,Community 1,NA,TRUE,j,j,NA,NA,NA,1,6,"13,5,10,7,11,15,14,9,3,4,12,8,2,1,6"
14348,commdev-image-keyboard-response,295,1057785,learnblock1,992,img/planet10_right.png,10,Community 1,NA,TRUE,j,j,NA,NA,NA,1,6,"13,5,10,7,11,15,14,9,3,4,12,8,2,1,6"
14348,commdev-image-keyboard-response,296,1059037,learnblock1,606.5999999940395,img/planet5_left.png,5,Community 1,NA,TRUE,f,f,NA,NA,NA,1,6,"13,5,10,7,11,15,14,9,3,4,12,8,2,1,6"
14348,commdev-image-keyboard-response,297,1060288,learnblock1,295.09999999403954,img/planet13_left.png,13,Community 1,NA,FALSE,j,f,NA,NA,NA,1,6,"13,5,10,7,11,15,14,9,3,4,12,8,2,1,6"
14348,commdev-image-keyboard-response,298,1061539,learnblock1,817.6000000089407,img/planet5_left.png,5,Community 1,NA,TRUE,f,f,NA,NA,NA,1,6,"13,5,10,7,11,15,14,9,3,4,12,8,2,1,6"
14348,commdev-image-keyboard-response,299,1062789,learnblock1,930,img/planet10_right.png,10,Community 1,NA,TRUE,j,j,NA,NA,NA,1,6,"13,5,10,7,11,15,14,9,3,4,12,8,2,1,6"
14348,commdev-image-keyboard-response,300,1064041,learnblock1,500.29999999701977,img/planet7_right.png,7,Community 1,NA,TRUE,j,j,NA,NA,NA,1,6,"13,5,10,7,11,15,14,9,3,4,12,8,2,1,6"
14348,commdev-image-keyboard-response,301,1065292,learnblock1,419.80000001192093,img/planet5_left.png,5,Community 1,NA,FALSE,j,f,NA,NA,NA,1,6,"13,5,10,7,11,15,14,9,3,4,12,8,2,1,6"
14348,commdev-image-keyboard-response,302,1066545,learnblock1,345.3999999910593,img/planet11_left.png,11,Community 1,NA,TRUE,f,f,NA,NA,NA,1,6,"13,5,10,7,11,15,14,9,3,4,12,8,2,1,6"
14348,commdev-image-keyboard-response,303,1067796,learnblock1,660.9000000059605,img/planet12_right.png,12,Community 3,NA,TRUE,j,j,NA,NA,NA,1,6,"13,5,10,7,11,15,14,9,3,4,12,8,2,1,6"
14348,commdev-image-keyboard-response,304,1069052,learnblock1,662,img/planet2_right.png,2,Community 3,NA,TRUE,j,j,NA,NA,NA,1,6,"13,5,10,7,11,15,14,9,3,4,12,8,2,1,6"
14348,commdev-image-keyboard-response,305,1070303,learnblock1,702.0999999940395,img/planet6_left.png,6,Community 3,NA,TRUE,f,f,NA,NA,NA,1,6,"13,5,10,7,11,15,14,9,3,4,12,8,2,1,6"
14348,commdev-image-keyboard-response,306,1071554,learnblock1,720.9000000059605,img/planet12_right.png,12,Community 3,NA,FALSE,f,j,NA,NA,NA,1,6,"13,5,10,7,11,15,14,9,3,4,12,8,2,1,6"
14348,commdev-image-keyboard-response,307,1072805,learnblock1,466.20000000298023,img/planet2_left.png,2,Community 3,NA,FALSE,j,f,NA,NA,NA,1,6,"13,5,10,7,11,15,14,9,3,4,12,8,2,1,6"
14348,commdev-image-keyboard-response,308,1074056,learnblock1,865.5,img/planet12_left.png,12,Community 3,NA,TRUE,f,f,NA,NA,NA,1,6,"13,5,10,7,11,15,14,9,3,4,12,8,2,1,6"
14348,commdev-image-keyboard-response,309,1075307,learnblock1,715.5,img/planet11_right.png,11,Community 1,NA,TRUE,j,j,NA,NA,NA,1,6,"13,5,10,7,11,15,14,9,3,4,12,8,2,1,6"
14348,commdev-image-keyboard-response,310,1076558,learnblock1,904.2999999970198,img/planet13_left.png,13,Community 1,NA,TRUE,f,f,NA,NA,NA,1,6,"13,5,10,7,11,15,14,9,3,4,12,8,2,1,6"
14348,commdev-image-keyboard-response,311,1077810,learnblock1,570.4000000059605,img/planet5_right.png,5,Community 1,NA,FALSE,f,j,NA,NA,NA,1,6,"13,5,10,7,11,15,14,9,3,4,12,8,2,1,6"
14348,commdev-image-keyboard-response,312,1079061,learnblock1,886,img/planet13_right.png,13,Community 1,NA,TRUE,j,j,NA,NA,NA,1,6,"13,5,10,7,11,15,14,9,3,4,12,8,2,1,6"
14348,commdev-image-keyboard-response,313,1080312,learnblock1,1233,img/planet7_left.png,7,Community 1,NA,FALSE,j,f,NA,NA,NA,1,6,"13,5,10,7,11,15,14,9,3,4,12,8,2,1,6"
14348,commdev-image-keyboard-response,314,1081563,learnblock1,1157.6000000089407,img/planet13_left.png,13,Community 1,NA,TRUE,f,f,NA,NA,NA,1,6,"13,5,10,7,11,15,14,9,3,4,12,8,2,1,6"
14348,commdev-image-keyboard-response,315,1082814,learnblock1,646.2999999970198,img/planet7_left.png,7,Community 1,NA,TRUE,f,f,NA,NA,NA,1,6,"13,5,10,7,11,15,14,9,3,4,12,8,2,1,6"
14348,commdev-image-keyboard-response,316,1084066,learnblock1,609.5,img/planet5_right.png,5,Community 1,NA,TRUE,j,j,NA,NA,NA,1,6,"13,5,10,7,11,15,14,9,3,4,12,8,2,1,6"
14348,commdev-image-keyboard-response,317,1085317,learnblock1,1193.2999999970198,img/planet11_left.png,11,Community 1,NA,TRUE,f,f,NA,NA,NA,1,6,"13,5,10,7,11,15,14,9,3,4,12,8,2,1,6"
14348,commdev-image-keyboard-response,318,1086569,learnblock1,null,img/planet13_left.png,13,Community 1,NA,FALSE,null,f,NA,NA,NA,1,6,"13,5,10,7,11,15,14,9,3,4,12,8,2,1,6"
14348,commdev-image-keyboard-response,319,1087820,learnblock1,778,img/planet7_left.png,7,Community 1,NA,TRUE,f,f,NA,NA,NA,1,6,"13,5,10,7,11,15,14,9,3,4,12,8,2,1,6"
14348,commdev-image-keyboard-response,320,1089071,learnblock1,1247.7000000029802,img/planet10_left.png,10,Community 1,NA,TRUE,f,f,NA,NA,NA,1,6,"13,5,10,7,11,15,14,9,3,4,12,8,2,1,6"
14348,commdev-image-keyboard-response,321,1090323,learnblock1,null,img/planet7_left.png,7,Community 1,NA,FALSE,null,f,NA,NA,NA,1,6,"13,5,10,7,11,15,14,9,3,4,12,8,2,1,6"
14348,commdev-image-keyboard-response,322,1091579,learnblock1,664.5,img/planet15_left.png,15,Community 2,NA,TRUE,f,f,NA,NA,NA,1,6,"13,5,10,7,11,15,14,9,3,4,12,8,2,1,6"
14348,commdev-image-keyboard-response,323,1092830,learnblock1,516.0999999940395,img/planet7_left.png,7,Community 1,NA,TRUE,f,f,NA,NA,NA,1,6,"13,5,10,7,11,15,14,9,3,4,12,8,2,1,6"
14348,commdev-image-keyboard-response,324,1094082,learnblock1,360.09999999403954,img/planet5_right.png,5,Community 1,NA,FALSE,f,j,NA,NA,NA,1,6,"13,5,10,7,11,15,14,9,3,4,12,8,2,1,6"
14348,commdev-image-keyboard-response,325,1095334,learnblock1,816,img/planet11_right.png,11,Community 1,NA,FALSE,f,j,NA,NA,NA,1,6,"13,5,10,7,11,15,14,9,3,4,12,8,2,1,6"
14348,commdev-image-keyboard-response,326,1096585,learnblock1,742.2000000029802,img/planet5_left.png,5,Community 1,NA,TRUE,f,f,NA,NA,NA,1,6,"13,5,10,7,11,15,14,9,3,4,12,8,2,1,6"
14348,commdev-image-keyboard-response,327,1097837,learnblock1,554.7999999970198,img/planet13_left.png,13,Community 1,NA,TRUE,f,f,NA,NA,NA,1,6,"13,5,10,7,11,15,14,9,3,4,12,8,2,1,6"
14348,commdev-image-keyboard-response,328,1099088,learnblock1,679,img/planet7_right.png,7,Community 1,NA,TRUE,j,j,NA,NA,NA,1,6,"13,5,10,7,11,15,14,9,3,4,12,8,2,1,6"
14348,commdev-image-keyboard-response,329,1100339,learnblock1,883.0999999940395,img/planet13_left.png,13,Community 1,NA,TRUE,f,f,NA,NA,NA,1,6,"13,5,10,7,11,15,14,9,3,4,12,8,2,1,6"
14348,commdev-image-keyboard-response,330,1101601,learnblock1,836,img/planet11_left.png,11,Community 1,NA,TRUE,f,f,NA,NA,NA,1,6,"13,5,10,7,11,15,14,9,3,4,12,8,2,1,6"
14348,commdev-image-keyboard-response,331,1102853,learnblock1,670.5,img/planet10_right.png,10,Community 1,NA,TRUE,j,j,NA,NA,NA,1,6,"13,5,10,7,11,15,14,9,3,4,12,8,2,1,6"
14348,commdev-image-keyboard-response,332,1104103,learnblock1,561,img/planet11_left.png,11,Community 1,NA,FALSE,j,f,NA,NA,NA,1,6,"13,5,10,7,11,15,14,9,3,4,12,8,2,1,6"
14348,commdev-image-keyboard-response,333,1105365,learnblock1,674.1000000089407,img/planet13_left.png,13,Community 1,NA,TRUE,f,f,NA,NA,NA,1,6,"13,5,10,7,11,15,14,9,3,4,12,8,2,1,6"
14348,commdev-image-keyboard-response,334,1106617,learnblock1,592.4000000059605,img/planet10_left.png,10,Community 1,NA,TRUE,f,f,NA,NA,NA,1,6,"13,5,10,7,11,15,14,9,3,4,12,8,2,1,6"
14348,commdev-image-keyboard-response,335,1107869,learnblock1,1192.2000000029802,img/planet5_right.png,5,Community 1,NA,TRUE,j,j,NA,NA,NA,1,6,"13,5,10,7,11,15,14,9,3,4,12,8,2,1,6"
14348,commdev-image-keyboard-response,336,1109120,learnblock1,678.1000000089407,img/planet7_right.png,7,Community 1,NA,TRUE,j,j,NA,NA,NA,1,6,"13,5,10,7,11,15,14,9,3,4,12,8,2,1,6"
14348,commdev-image-keyboard-response,337,1110371,learnblock1,492.40000000596046,img/planet10_left.png,10,Community 1,NA,FALSE,j,f,NA,NA,NA,1,6,"13,5,10,7,11,15,14,9,3,4,12,8,2,1,6"
14348,commdev-image-keyboard-response,338,1111623,learnblock1,824,img/planet7_left.png,7,Community 1,NA,TRUE,f,f,NA,NA,NA,1,6,"13,5,10,7,11,15,14,9,3,4,12,8,2,1,6"
14348,commdev-image-keyboard-response,339,1112874,learnblock1,1017.5,img/planet15_left.png,15,Community 2,NA,FALSE,j,f,NA,NA,NA,1,6,"13,5,10,7,11,15,14,9,3,4,12,8,2,1,6"
14348,commdev-image-keyboard-response,340,1114125,learnblock1,null,img/planet7_left.png,7,Community 1,NA,FALSE,null,f,NA,NA,NA,1,6,"13,5,10,7,11,15,14,9,3,4,12,8,2,1,6"
14348,commdev-image-keyboard-response,341,1115376,learnblock1,229.20000000298023,img/planet10_right.png,10,Community 1,NA,FALSE,f,j,NA,NA,NA,1,6,"13,5,10,7,11,15,14,9,3,4,12,8,2,1,6"
14348,commdev-image-keyboard-response,342,1116627,learnblock1,934.5,img/planet11_right.png,11,Community 1,NA,TRUE,j,j,NA,NA,NA,1,6,"13,5,10,7,11,15,14,9,3,4,12,8,2,1,6"
14348,commdev-image-keyboard-response,343,1117878,learnblock1,546.2000000029802,img/planet13_left.png,13,Community 1,NA,TRUE,f,f,NA,NA,NA,1,6,"13,5,10,7,11,15,14,9,3,4,12,8,2,1,6"
14348,commdev-image-keyboard-response,344,1119129,learnblock1,null,img/planet11_right.png,11,Community 1,NA,FALSE,null,j,NA,NA,NA,1,6,"13,5,10,7,11,15,14,9,3,4,12,8,2,1,6"
14348,commdev-image-keyboard-response,345,1120380,learnblock1,151.5,img/planet12_right.png,12,Community 3,NA,TRUE,j,j,NA,NA,NA,1,6,"13,5,10,7,11,15,14,9,3,4,12,8,2,1,6"
14348,commdev-image-keyboard-response,346,1121632,learnblock1,466.1000000089407,img/planet2_left.png,2,Community 3,NA,FALSE,j,f,NA,NA,NA,1,6,"13,5,10,7,11,15,14,9,3,4,12,8,2,1,6"
14348,commdev-image-keyboard-response,347,1122883,learnblock1,848.6999999880791,img/planet6_left.png,6,Community 3,NA,TRUE,f,f,NA,NA,NA,1,6,"13,5,10,7,11,15,14,9,3,4,12,8,2,1,6"
14348,commdev-image-keyboard-response,348,1124135,learnblock1,693.0999999940395,img/planet1_right.png,1,Community 3,NA,TRUE,j,j,NA,NA,NA,1,6,"13,5,10,7,11,15,14,9,3,4,12,8,2,1,6"
14348,commdev-image-keyboard-response,349,1125385,learnblock1,1185.7000000029802,img/planet8_left.png,8,Community 3,NA,TRUE,f,f,NA,NA,NA,1,6,"13,5,10,7,11,15,14,9,3,4,12,8,2,1,6"
14348,commdev-image-keyboard-response,350,1126636,learnblock1,625.7000000029802,img/planet2_right.png,2,Community 3,NA,TRUE,j,j,NA,NA,NA,1,6,"13,5,10,7,11,15,14,9,3,4,12,8,2,1,6"
14348,commdev-image-keyboard-response,351,1127888,learnblock1,814.2999999970198,img/planet6_right.png,6,Community 3,NA,TRUE,j,j,NA,NA,NA,1,6,"13,5,10,7,11,15,14,9,3,4,12,8,2,1,6"
14348,commdev-image-keyboard-response,352,1129138,learnblock1,813.7999999970198,img/planet12_right.png,12,Community 3,NA,TRUE,j,j,NA,NA,NA,1,6,"13,5,10,7,11,15,14,9,3,4,12,8,2,1,6"
14348,commdev-image-keyboard-response,353,1130389,learnblock1,1004.2999999970198,img/planet1_right.png,1,Community 3,NA,TRUE,j,j,NA,NA,NA,1,6,"13,5,10,7,11,15,14,9,3,4,12,8,2,1,6"
14348,commdev-image-keyboard-response,354,1131641,learnblock1,780.4000000059605,img/planet12_left.png,12,Community 3,NA,TRUE,f,f,NA,NA,NA,1,6,"13,5,10,7,11,15,14,9,3,4,12,8,2,1,6"
14348,commdev-image-keyboard-response,355,1132892,learnblock1,790,img/planet2_left.png,2,Community 3,NA,TRUE,f,f,NA,NA,NA,1,6,"13,5,10,7,11,15,14,9,3,4,12,8,2,1,6"
14348,commdev-image-keyboard-response,356,1134143,learnblock1,836.4000000059605,img/planet1_left.png,1,Community 3,NA,TRUE,f,f,NA,NA,NA,1,6,"13,5,10,7,11,15,14,9,3,4,12,8,2,1,6"
14348,commdev-image-keyboard-response,357,1135394,learnblock1,741.0999999940395,img/planet6_left.png,6,Community 3,NA,TRUE,f,f,NA,NA,NA,1,6,"13,5,10,7,11,15,14,9,3,4,12,8,2,1,6"
14348,commdev-image-keyboard-response,358,1136645,learnblock1,560.2000000029802,img/planet2_right.png,2,Community 3,NA,FALSE,f,j,NA,NA,NA,1,6,"13,5,10,7,11,15,14,9,3,4,12,8,2,1,6"
14348,commdev-image-keyboard-response,359,1137896,learnblock1,804.7000000029802,img/planet1_left.png,1,Community 3,NA,TRUE,f,f,NA,NA,NA,1,6,"13,5,10,7,11,15,14,9,3,4,12,8,2,1,6"
14348,commdev-image-keyboard-response,360,1139147,learnblock1,728.6000000089407,img/planet6_right.png,6,Community 3,NA,TRUE,j,j,NA,NA,NA,1,6,"13,5,10,7,11,15,14,9,3,4,12,8,2,1,6"
14348,commdev-image-keyboard-response,361,1140398,learnblock1,744.4000000059605,img/planet1_right.png,1,Community 3,NA,TRUE,j,j,NA,NA,NA,1,6,"13,5,10,7,11,15,14,9,3,4,12,8,2,1,6"
14348,commdev-image-keyboard-response,362,1141649,learnblock1,992.6000000089407,img/planet12_left.png,12,Community 3,NA,FALSE,j,f,NA,NA,NA,1,6,"13,5,10,7,11,15,14,9,3,4,12,8,2,1,6"
14348,commdev-image-keyboard-response,363,1142900,learnblock1,957.6999999880791,img/planet11_left.png,11,Community 1,NA,TRUE,f,f,NA,NA,NA,1,6,"13,5,10,7,11,15,14,9,3,4,12,8,2,1,6"
14348,commdev-image-keyboard-response,364,1144151,learnblock1,763.8999999910593,img/planet5_left.png,5,Community 1,NA,TRUE,f,f,NA,NA,NA,1,6,"13,5,10,7,11,15,14,9,3,4,12,8,2,1,6"
14348,commdev-image-keyboard-response,365,1145402,learnblock1,555.4000000059605,img/planet10_left.png,10,Community 1,NA,TRUE,f,f,NA,NA,NA,1,6,"13,5,10,7,11,15,14,9,3,4,12,8,2,1,6"
14348,commdev-image-keyboard-response,366,1146653,learnblock1,706.5999999940395,img/planet13_right.png,13,Community 1,NA,TRUE,j,j,NA,NA,NA,1,6,"13,5,10,7,11,15,14,9,3,4,12,8,2,1,6"
14348,commdev-image-keyboard-response,367,1147905,learnblock1,679.1999999880791,img/planet7_left.png,7,Community 1,NA,TRUE,f,f,NA,NA,NA,1,6,"13,5,10,7,11,15,14,9,3,4,12,8,2,1,6"
14348,commdev-image-keyboard-response,368,1149156,learnblock1,400.6000000089407,img/planet13_right.png,13,Community 1,NA,FALSE,f,j,NA,NA,NA,1,6,"13,5,10,7,11,15,14,9,3,4,12,8,2,1,6"
14348,commdev-image-keyboard-response,369,1150407,learnblock1,1013.2999999970198,img/planet11_left.png,11,Community 1,NA,TRUE,f,f,NA,NA,NA,1,6,"13,5,10,7,11,15,14,9,3,4,12,8,2,1,6"
14348,commdev-image-keyboard-response,370,1151659,learnblock1,867.0999999940395,img/planet12_left.png,12,Community 3,NA,TRUE,f,f,NA,NA,NA,1,6,"13,5,10,7,11,15,14,9,3,4,12,8,2,1,6"
14348,commdev-image-keyboard-response,371,1152910,learnblock1,639.0999999940395,img/planet6_left.png,6,Community 3,NA,TRUE,f,f,NA,NA,NA,1,6,"13,5,10,7,11,15,14,9,3,4,12,8,2,1,6"
14348,commdev-image-keyboard-response,372,1154161,learnblock1,564.9000000059605,img/planet2_left.png,2,Community 3,NA,TRUE,f,f,NA,NA,NA,1,6,"13,5,10,7,11,15,14,9,3,4,12,8,2,1,6"
14348,commdev-image-keyboard-response,373,1155412,learnblock1,755.1000000089407,img/planet8_right.png,8,Community 3,NA,FALSE,f,j,NA,NA,NA,1,6,"13,5,10,7,11,15,14,9,3,4,12,8,2,1,6"
14348,commdev-image-keyboard-response,374,1156663,learnblock1,90.90000000596046,img/planet9_right.png,9,Community 2,NA,TRUE,j,j,NA,NA,NA,1,6,"13,5,10,7,11,15,14,9,3,4,12,8,2,1,6"
14348,commdev-image-keyboard-response,375,1157914,learnblock1,1087.2999999970198,img/planet8_right.png,8,Community 3,NA,TRUE,j,j,NA,NA,NA,1,6,"13,5,10,7,11,15,14,9,3,4,12,8,2,1,6"
14348,commdev-image-keyboard-response,376,1159165,learnblock1,586.9000000059605,img/planet6_right.png,6,Community 3,NA,TRUE,j,j,NA,NA,NA,1,6,"13,5,10,7,11,15,14,9,3,4,12,8,2,1,6"
14348,commdev-image-keyboard-response,377,1160425,learnblock1,582,img/planet2_right.png,2,Community 3,NA,TRUE,j,j,NA,NA,NA,1,6,"13,5,10,7,11,15,14,9,3,4,12,8,2,1,6"
14348,commdev-image-keyboard-response,378,1161677,learnblock1,724,img/planet6_left.png,6,Community 3,NA,TRUE,f,f,NA,NA,NA,1,6,"13,5,10,7,11,15,14,9,3,4,12,8,2,1,6"
14348,commdev-image-keyboard-response,379,1162928,learnblock1,785.5,img/planet2_left.png,2,Community 3,NA,TRUE,f,f,NA,NA,NA,1,6,"13,5,10,7,11,15,14,9,3,4,12,8,2,1,6"
14348,commdev-image-keyboard-response,380,1164179,learnblock1,1171.0999999940395,img/planet8_left.png,8,Community 3,NA,TRUE,f,f,NA,NA,NA,1,6,"13,5,10,7,11,15,14,9,3,4,12,8,2,1,6"
14348,commdev-image-keyboard-response,381,1165429,learnblock1,778.5,img/planet1_right.png,1,Community 3,NA,TRUE,j,j,NA,NA,NA,1,6,"13,5,10,7,11,15,14,9,3,4,12,8,2,1,6"
14348,commdev-image-keyboard-response,382,1166680,learnblock1,726.0999999940395,img/planet2_left.png,2,Community 3,NA,TRUE,f,f,NA,NA,NA,1,6,"13,5,10,7,11,15,14,9,3,4,12,8,2,1,6"
14348,commdev-image-keyboard-response,383,1167931,learnblock1,786.5,img/planet6_left.png,6,Community 3,NA,TRUE,f,f,NA,NA,NA,1,6,"13,5,10,7,11,15,14,9,3,4,12,8,2,1,6"
14348,commdev-image-keyboard-response,384,1169183,learnblock1,584.2999999970198,img/planet1_right.png,1,Community 3,NA,TRUE,j,j,NA,NA,NA,1,6,"13,5,10,7,11,15,14,9,3,4,12,8,2,1,6"
14348,commdev-image-keyboard-response,385,1170433,learnblock1,787.5,img/planet12_left.png,12,Community 3,NA,FALSE,j,f,NA,NA,NA,1,6,"13,5,10,7,11,15,14,9,3,4,12,8,2,1,6"
14348,commdev-image-keyboard-response,386,1171685,learnblock1,601,img/planet2_right.png,2,Community 3,NA,TRUE,j,j,NA,NA,NA,1,6,"13,5,10,7,11,15,14,9,3,4,12,8,2,1,6"
14348,commdev-image-keyboard-response,387,1172935,learnblock1,null,img/planet8_left.png,8,Community 3,NA,FALSE,null,f,NA,NA,NA,1,6,"13,5,10,7,11,15,14,9,3,4,12,8,2,1,6"
14348,commdev-image-keyboard-response,388,1174187,learnblock1,883.2000000029802,img/planet1_right.png,1,Community 3,NA,TRUE,j,j,NA,NA,NA,1,6,"13,5,10,7,11,15,14,9,3,4,12,8,2,1,6"
14348,commdev-image-keyboard-response,389,1175438,learnblock1,673.5999999940395,img/planet2_right.png,2,Community 3,NA,TRUE,j,j,NA,NA,NA,1,6,"13,5,10,7,11,15,14,9,3,4,12,8,2,1,6"
14348,commdev-image-keyboard-response,390,1176689,learnblock1,790.2999999970198,img/planet8_left.png,8,Community 3,NA,FALSE,j,f,NA,NA,NA,1,6,"13,5,10,7,11,15,14,9,3,4,12,8,2,1,6"
14348,commdev-image-keyboard-response,391,1177941,learnblock1,824.9000000059605,img/planet9_left.png,9,Community 2,NA,TRUE,f,f,NA,NA,NA,1,6,"13,5,10,7,11,15,14,9,3,4,12,8,2,1,6"
14348,commdev-image-keyboard-response,392,1179192,learnblock1,928.5,img/planet14_left.png,14,Community 2,NA,TRUE,f,f,NA,NA,NA,1,6,"13,5,10,7,11,15,14,9,3,4,12,8,2,1,6"
14348,commdev-image-keyboard-response,393,1180443,learnblock1,824.7000000029802,img/planet9_left.png,9,Community 2,NA,TRUE,f,f,NA,NA,NA,1,6,"13,5,10,7,11,15,14,9,3,4,12,8,2,1,6"
14348,commdev-image-keyboard-response,394,1181693,learnblock1,991.7000000029802,img/planet3_right.png,3,Community 2,NA,TRUE,j,j,NA,NA,NA,1,6,"13,5,10,7,11,15,14,9,3,4,12,8,2,1,6"
14348,commdev-image-keyboard-response,395,1182945,learnblock1,716.7999999970198,img/planet9_left.png,9,Community 2,NA,TRUE,f,f,NA,NA,NA,1,6,"13,5,10,7,11,15,14,9,3,4,12,8,2,1,6"
14348,commdev-image-keyboard-response,396,1184196,learnblock1,null,img/planet14_right.png,14,Community 2,NA,FALSE,null,j,NA,NA,NA,1,6,"13,5,10,7,11,15,14,9,3,4,12,8,2,1,6"
14348,commdev-image-keyboard-response,397,1185447,learnblock1,112,img/planet15_left.png,15,Community 2,NA,FALSE,j,f,NA,NA,NA,1,6,"13,5,10,7,11,15,14,9,3,4,12,8,2,1,6"
14348,commdev-image-keyboard-response,398,1186709,learnblock1,411.19999998807907,img/planet14_right.png,14,Community 2,NA,TRUE,j,j,NA,NA,NA,1,6,"13,5,10,7,11,15,14,9,3,4,12,8,2,1,6"
14348,commdev-image-keyboard-response,399,1187959,learnblock1,373.70000000298023,img/planet3_left.png,3,Community 2,NA,TRUE,f,f,NA,NA,NA,1,6,"13,5,10,7,11,15,14,9,3,4,12,8,2,1,6"
14348,commdev-image-keyboard-response,400,1189211,learnblock1,271,img/planet4_right.png,4,Community 2,NA,TRUE,j,j,NA,NA,NA,1,6,"13,5,10,7,11,15,14,9,3,4,12,8,2,1,6"
14348,commdev-image-keyboard-response,401,1190463,learnblock1,369.79999999701977,img/planet3_left.png,3,Community 2,NA,FALSE,j,f,NA,NA,NA,1,6,"13,5,10,7,11,15,14,9,3,4,12,8,2,1,6"
14348,commdev-image-keyboard-response,402,1191713,learnblock1,267.69999998807907,img/planet9_left.png,9,Community 2,NA,FALSE,j,f,NA,NA,NA,1,6,"13,5,10,7,11,15,14,9,3,4,12,8,2,1,6"
14348,commdev-image-keyboard-response,403,1192975,learnblock1,444.8999999910593,img/planet3_right.png,3,Community 2,NA,FALSE,f,j,NA,NA,NA,1,6,"13,5,10,7,11,15,14,9,3,4,12,8,2,1,6"
14348,commdev-image-keyboard-response,404,1194226,learnblock1,1158.300000011921,img/planet9_right.png,9,Community 2,NA,TRUE,j,j,NA,NA,NA,1,6,"13,5,10,7,11,15,14,9,3,4,12,8,2,1,6"
14348,commdev-image-keyboard-response,405,1195477,learnblock1,884.5999999940395,img/planet14_right.png,14,Community 2,NA,TRUE,j,j,NA,NA,NA,1,6,"13,5,10,7,11,15,14,9,3,4,12,8,2,1,6"
14348,commdev-image-keyboard-response,406,1196728,learnblock1,1012.0999999940395,img/planet9_right.png,9,Community 2,NA,TRUE,j,j,NA,NA,NA,1,6,"13,5,10,7,11,15,14,9,3,4,12,8,2,1,6"
14348,commdev-image-keyboard-response,407,1197979,learnblock1,1001.5,img/planet8_right.png,8,Community 3,NA,TRUE,j,j,NA,NA,NA,1,6,"13,5,10,7,11,15,14,9,3,4,12,8,2,1,6"
14348,commdev-image-keyboard-response,408,1199230,learnblock1,591.2999999970198,img/planet1_right.png,1,Community 3,NA,TRUE,j,j,NA,NA,NA,1,6,"13,5,10,7,11,15,14,9,3,4,12,8,2,1,6"
14348,commdev-image-keyboard-response,409,1200481,learnblock1,436.3999999910593,img/planet6_left.png,6,Community 3,NA,FALSE,j,f,NA,NA,NA,1,6,"13,5,10,7,11,15,14,9,3,4,12,8,2,1,6"
14348,commdev-image-keyboard-response,410,1201732,learnblock1,705.7000000029802,img/planet12_left.png,12,Community 3,NA,TRUE,f,f,NA,NA,NA,1,6,"13,5,10,7,11,15,14,9,3,4,12,8,2,1,6"
14348,commdev-image-keyboard-response,411,1202984,learnblock1,null,img/planet11_right.png,11,Community 1,NA,FALSE,null,j,NA,NA,NA,1,6,"13,5,10,7,11,15,14,9,3,4,12,8,2,1,6"
14348,commdev-image-keyboard-response,412,1204235,learnblock1,125.09999999403954,img/planet5_right.png,5,Community 1,NA,TRUE,j,j,NA,NA,NA,1,6,"13,5,10,7,11,15,14,9,3,4,12,8,2,1,6"
14348,commdev-image-keyboard-response,413,1205486,learnblock1,62.79999999701977,img/planet10_left.png,10,Community 1,NA,FALSE,j,f,NA,NA,NA,1,6,"13,5,10,7,11,15,14,9,3,4,12,8,2,1,6"
14348,commdev-image-keyboard-response,414,1206737,learnblock1,545.9000000059605,img/planet5_left.png,5,Community 1,NA,FALSE,j,f,NA,NA,NA,1,6,"13,5,10,7,11,15,14,9,3,4,12,8,2,1,6"
14348,commdev-image-keyboard-response,415,1207988,learnblock1,315.80000001192093,img/planet10_right.png,10,Community 1,NA,FALSE,f,j,NA,NA,NA,1,6,"13,5,10,7,11,15,14,9,3,4,12,8,2,1,6"
14348,commdev-image-keyboard-response,416,1209239,learnblock1,1078.800000011921,img/planet11_left.png,11,Community 1,NA,TRUE,f,f,NA,NA,NA,1,6,"13,5,10,7,11,15,14,9,3,4,12,8,2,1,6"
14348,commdev-image-keyboard-response,417,1210491,learnblock1,669.8000000119209,img/planet13_right.png,13,Community 1,NA,TRUE,j,j,NA,NA,NA,1,6,"13,5,10,7,11,15,14,9,3,4,12,8,2,1,6"
14348,commdev-image-keyboard-response,418,1211743,learnblock1,603.0999999940395,img/planet11_right.png,11,Community 1,NA,TRUE,j,j,NA,NA,NA,1,6,"13,5,10,7,11,15,14,9,3,4,12,8,2,1,6"
14348,commdev-image-keyboard-response,419,1212994,learnblock1,760.4000000059605,img/planet5_left.png,5,Community 1,NA,TRUE,f,f,NA,NA,NA,1,6,"13,5,10,7,11,15,14,9,3,4,12,8,2,1,6"
14348,commdev-image-keyboard-response,420,1214245,learnblock1,1022.1000000089407,img/planet7_right.png,7,Community 1,NA,TRUE,j,j,NA,NA,NA,1,6,"13,5,10,7,11,15,14,9,3,4,12,8,2,1,6"
14348,commdev-image-keyboard-response,421,1215496,learnblock1,1032.1000000089407,img/planet5_right.png,5,Community 1,NA,FALSE,f,j,NA,NA,NA,1,6,"13,5,10,7,11,15,14,9,3,4,12,8,2,1,6"
14348,commdev-image-keyboard-response,422,1216747,learnblock1,734.5999999940395,img/planet11_right.png,11,Community 1,NA,TRUE,j,j,NA,NA,NA,1,6,"13,5,10,7,11,15,14,9,3,4,12,8,2,1,6"
14348,commdev-image-keyboard-response,423,1217999,learnblock1,315,img/planet10_right.png,10,Community 1,NA,TRUE,j,j,NA,NA,NA,1,6,"13,5,10,7,11,15,14,9,3,4,12,8,2,1,6"
14348,commdev-image-keyboard-response,424,1219249,learnblock1,471,img/planet5_left.png,5,Community 1,NA,FALSE,j,f,NA,NA,NA,1,6,"13,5,10,7,11,15,14,9,3,4,12,8,2,1,6"
14348,commdev-image-keyboard-response,425,1220510,learnblock1,845,img/planet7_left.png,7,Community 1,NA,TRUE,f,f,NA,NA,NA,1,6,"13,5,10,7,11,15,14,9,3,4,12,8,2,1,6"
14348,commdev-image-keyboard-response,426,1221761,learnblock1,390.40000000596046,img/planet13_right.png,13,Community 1,NA,FALSE,f,j,NA,NA,NA,1,6,"13,5,10,7,11,15,14,9,3,4,12,8,2,1,6"
14348,commdev-image-keyboard-response,427,1223013,learnblock1,104.5,img/planet7_right.png,7,Community 1,NA,TRUE,j,j,NA,NA,NA,1,6,"13,5,10,7,11,15,14,9,3,4,12,8,2,1,6"
14348,commdev-image-keyboard-response,428,1224264,learnblock1,265.29999999701977,img/planet15_right.png,15,Community 2,NA,TRUE,j,j,NA,NA,NA,1,6,"13,5,10,7,11,15,14,9,3,4,12,8,2,1,6"
14348,commdev-image-keyboard-response,429,1225515,learnblock1,478.8999999910593,img/planet3_left.png,3,Community 2,NA,FALSE,j,f,NA,NA,NA,1,6,"13,5,10,7,11,15,14,9,3,4,12,8,2,1,6"
14348,commdev-image-keyboard-response,430,1226766,learnblock1,null,img/planet15_right.png,15,Community 2,NA,FALSE,null,j,NA,NA,NA,1,6,"13,5,10,7,11,15,14,9,3,4,12,8,2,1,6"
14348,commdev-image-keyboard-response,431,1228018,learnblock1,58.29999999701977,img/planet14_right.png,14,Community 2,NA,TRUE,j,j,NA,NA,NA,1,6,"13,5,10,7,11,15,14,9,3,4,12,8,2,1,6"
14348,commdev-image-keyboard-response,432,1229270,learnblock1,1068.0999999940395,img/planet3_right.png,3,Community 2,NA,TRUE,j,j,NA,NA,NA,1,6,"13,5,10,7,11,15,14,9,3,4,12,8,2,1,6"
14348,commdev-image-keyboard-response,433,1230521,learnblock1,717.2000000029802,img/planet4_left.png,4,Community 2,NA,TRUE,f,f,NA,NA,NA,1,6,"13,5,10,7,11,15,14,9,3,4,12,8,2,1,6"
14348,commdev-image-keyboard-response,437,1255786,learnblock2,974.4000000059605,img/planet1_right.png,1,Community 3,NA,TRUE,j,j,NA,NA,NA,1,6,"13,5,10,7,11,15,14,9,3,4,12,8,2,1,6"
14348,commdev-image-keyboard-response,438,1257037,learnblock2,704.0999999940395,img/planet8_right.png,8,Community 3,NA,TRUE,j,j,NA,NA,NA,1,6,"13,5,10,7,11,15,14,9,3,4,12,8,2,1,6"
14348,commdev-image-keyboard-response,439,1258289,learnblock2,512.1000000089407,img/planet1_left.png,1,Community 3,NA,TRUE,f,f,NA,NA,NA,1,6,"13,5,10,7,11,15,14,9,3,4,12,8,2,1,6"
14348,commdev-image-keyboard-response,440,1259540,learnblock2,999.5,img/planet6_right.png,6,Community 3,NA,TRUE,j,j,NA,NA,NA,1,6,"13,5,10,7,11,15,14,9,3,4,12,8,2,1,6"
14348,commdev-image-keyboard-response,441,1260792,learnblock2,672.9000000059605,img/planet1_left.png,1,Community 3,NA,TRUE,f,f,NA,NA,NA,1,6,"13,5,10,7,11,15,14,9,3,4,12,8,2,1,6"
14348,commdev-image-keyboard-response,442,1262042,learnblock2,579.2999999970198,img/planet2_left.png,2,Community 3,NA,TRUE,f,f,NA,NA,NA,1,6,"13,5,10,7,11,15,14,9,3,4,12,8,2,1,6"
14348,commdev-image-keyboard-response,443,1263293,learnblock2,665.5999999940395,img/planet12_right.png,12,Community 3,NA,TRUE,j,j,NA,NA,NA,1,6,"13,5,10,7,11,15,14,9,3,4,12,8,2,1,6"
14348,commdev-image-keyboard-response,444,1264545,learnblock2,864.5,img/planet2_left.png,2,Community 3,NA,TRUE,f,f,NA,NA,NA,1,6,"13,5,10,7,11,15,14,9,3,4,12,8,2,1,6"
14348,commdev-image-keyboard-response,445,1265796,learnblock2,870.3999999910593,img/planet8_left.png,8,Community 3,NA,TRUE,f,f,NA,NA,NA,1,6,"13,5,10,7,11,15,14,9,3,4,12,8,2,1,6"
14348,commdev-image-keyboard-response,446,1267047,learnblock2,743.4000000059605,img/planet6_right.png,6,Community 3,NA,TRUE,j,j,NA,NA,NA,1,6,"13,5,10,7,11,15,14,9,3,4,12,8,2,1,6"
14348,commdev-image-keyboard-response,447,1268298,learnblock2,681.8999999910593,img/planet2_right.png,2,Community 3,NA,TRUE,j,j,NA,NA,NA,1,6,"13,5,10,7,11,15,14,9,3,4,12,8,2,1,6"
14348,commdev-image-keyboard-response,448,1269549,learnblock2,449.5,img/planet12_right.png,12,Community 3,NA,TRUE,j,j,NA,NA,NA,1,6,"13,5,10,7,11,15,14,9,3,4,12,8,2,1,6"
14348,commdev-image-keyboard-response,449,1270800,learnblock2,734.7999999970198,img/planet1_left.png,1,Community 3,NA,TRUE,f,f,NA,NA,NA,1,6,"13,5,10,7,11,15,14,9,3,4,12,8,2,1,6"
14348,commdev-image-keyboard-response,450,1272051,learnblock2,690.6999999880791,img/planet6_right.png,6,Community 3,NA,TRUE,j,j,NA,NA,NA,1,6,"13,5,10,7,11,15,14,9,3,4,12,8,2,1,6"
14348,commdev-image-keyboard-response,451,1273302,learnblock2,760.9000000059605,img/planet8_right.png,8,Community 3,NA,TRUE,j,j,NA,NA,NA,1,6,"13,5,10,7,11,15,14,9,3,4,12,8,2,1,6"
14348,commdev-image-keyboard-response,452,1274554,learnblock2,786.7999999970198,img/planet6_left.png,6,Community 3,NA,TRUE,f,f,NA,NA,NA,1,6,"13,5,10,7,11,15,14,9,3,4,12,8,2,1,6"
14348,commdev-image-keyboard-response,453,1275805,learnblock2,997.2000000029802,img/planet8_right.png,8,Community 3,NA,TRUE,j,j,NA,NA,NA,1,6,"13,5,10,7,11,15,14,9,3,4,12,8,2,1,6"
14348,commdev-image-keyboard-response,454,1277056,learnblock2,1019.2999999970198,img/planet9_right.png,9,Community 2,NA,TRUE,j,j,NA,NA,NA,1,6,"13,5,10,7,11,15,14,9,3,4,12,8,2,1,6"
14348,commdev-image-keyboard-response,455,1278306,learnblock2,530.2999999970198,img/planet14_left.png,14,Community 2,NA,FALSE,j,f,NA,NA,NA,1,6,"13,5,10,7,11,15,14,9,3,4,12,8,2,1,6"
14348,commdev-image-keyboard-response,456,1279557,learnblock2,485.5,img/planet4_left.png,4,Community 2,NA,TRUE,f,f,NA,NA,NA,1,6,"13,5,10,7,11,15,14,9,3,4,12,8,2,1,6"
14348,commdev-image-keyboard-response,457,1280809,learnblock2,477.70000000298023,img/planet15_left.png,15,Community 2,NA,TRUE,f,f,NA,NA,NA,1,6,"13,5,10,7,11,15,14,9,3,4,12,8,2,1,6"
14348,commdev-image-keyboard-response,458,1282060,learnblock2,696.2999999970198,img/planet4_right.png,4,Community 2,NA,TRUE,j,j,NA,NA,NA,1,6,"13,5,10,7,11,15,14,9,3,4,12,8,2,1,6"
14348,commdev-image-keyboard-response,459,1283311,learnblock2,561.5999999940395,img/planet9_right.png,9,Community 2,NA,TRUE,j,j,NA,NA,NA,1,6,"13,5,10,7,11,15,14,9,3,4,12,8,2,1,6"
14348,commdev-image-keyboard-response,460,1284563,learnblock2,633.5,img/planet3_left.png,3,Community 2,NA,TRUE,f,f,NA,NA,NA,1,6,"13,5,10,7,11,15,14,9,3,4,12,8,2,1,6"
14348,commdev-image-keyboard-response,461,1285814,learnblock2,1046.199999988079,img/planet14_right.png,14,Community 2,NA,TRUE,j,j,NA,NA,NA,1,6,"13,5,10,7,11,15,14,9,3,4,12,8,2,1,6"
14348,commdev-image-keyboard-response,462,1287065,learnblock2,962.1999999880791,img/planet3_right.png,3,Community 2,NA,TRUE,j,j,NA,NA,NA,1,6,"13,5,10,7,11,15,14,9,3,4,12,8,2,1,6"
14348,commdev-image-keyboard-response,463,1288316,learnblock2,640,img/planet4_left.png,4,Community 2,NA,TRUE,f,f,NA,NA,NA,1,6,"13,5,10,7,11,15,14,9,3,4,12,8,2,1,6"
14348,commdev-image-keyboard-response,464,1289568,learnblock2,484.8999999910593,img/planet3_right.png,3,Community 2,NA,TRUE,j,j,NA,NA,NA,1,6,"13,5,10,7,11,15,14,9,3,4,12,8,2,1,6"
14348,commdev-image-keyboard-response,465,1290819,learnblock2,641.0999999940395,img/planet9_left.png,9,Community 2,NA,TRUE,f,f,NA,NA,NA,1,6,"13,5,10,7,11,15,14,9,3,4,12,8,2,1,6"
14348,commdev-image-keyboard-response,466,1292069,learnblock2,1044.8999999910593,img/planet14_right.png,14,Community 2,NA,TRUE,j,j,NA,NA,NA,1,6,"13,5,10,7,11,15,14,9,3,4,12,8,2,1,6"
14348,commdev-image-keyboard-response,467,1293320,learnblock2,1065.2999999970198,img/planet9_left.png,9,Community 2,NA,TRUE,f,f,NA,NA,NA,1,6,"13,5,10,7,11,15,14,9,3,4,12,8,2,1,6"
14348,commdev-image-keyboard-response,468,1294583,learnblock2,597.8000000119209,img/planet3_right.png,3,Community 2,NA,TRUE,j,j,NA,NA,NA,1,6,"13,5,10,7,11,15,14,9,3,4,12,8,2,1,6"
14348,commdev-image-keyboard-response,469,1295835,learnblock2,587.5,img/planet15_right.png,15,Community 2,NA,TRUE,j,j,NA,NA,NA,1,6,"13,5,10,7,11,15,14,9,3,4,12,8,2,1,6"
14348,commdev-image-keyboard-response,470,1297097,learnblock2,612.3999999910593,img/planet7_right.png,7,Community 1,NA,TRUE,j,j,NA,NA,NA,1,6,"13,5,10,7,11,15,14,9,3,4,12,8,2,1,6"
14348,commdev-image-keyboard-response,471,1298349,learnblock2,387.80000001192093,img/planet10_left.png,10,Community 1,NA,TRUE,f,f,NA,NA,NA,1,6,"13,5,10,7,11,15,14,9,3,4,12,8,2,1,6"
14348,commdev-image-keyboard-response,472,1299600,learnblock2,757.1000000089407,img/planet7_left.png,7,Community 1,NA,TRUE,f,f,NA,NA,NA,1,6,"13,5,10,7,11,15,14,9,3,4,12,8,2,1,6"
14348,commdev-image-keyboard-response,473,1300851,learnblock2,561.7999999970198,img/planet10_left.png,10,Community 1,NA,TRUE,f,f,NA,NA,NA,1,6,"13,5,10,7,11,15,14,9,3,4,12,8,2,1,6"
14348,commdev-image-keyboard-response,474,1302103,learnblock2,480.59999999403954,img/planet13_left.png,13,Community 1,NA,TRUE,f,f,NA,NA,NA,1,6,"13,5,10,7,11,15,14,9,3,4,12,8,2,1,6"
14348,commdev-image-keyboard-response,475,1303354,learnblock2,590.0999999940395,img/planet7_left.png,7,Community 1,NA,TRUE,f,f,NA,NA,NA,1,6,"13,5,10,7,11,15,14,9,3,4,12,8,2,1,6"
14348,commdev-image-keyboard-response,476,1304605,learnblock2,911.7999999970198,img/planet5_left.png,5,Community 1,NA,TRUE,f,f,NA,NA,NA,1,6,"13,5,10,7,11,15,14,9,3,4,12,8,2,1,6"
14348,commdev-image-keyboard-response,477,1305856,learnblock2,688.5,img/planet13_right.png,13,Community 1,NA,TRUE,j,j,NA,NA,NA,1,6,"13,5,10,7,11,15,14,9,3,4,12,8,2,1,6"
14348,commdev-image-keyboard-response,478,1307108,learnblock2,751.4000000059605,img/planet7_right.png,7,Community 1,NA,TRUE,j,j,NA,NA,NA,1,6,"13,5,10,7,11,15,14,9,3,4,12,8,2,1,6"
14348,commdev-image-keyboard-response,479,1308358,learnblock2,761.2999999970198,img/planet10_right.png,10,Community 1,NA,TRUE,j,j,NA,NA,NA,1,6,"13,5,10,7,11,15,14,9,3,4,12,8,2,1,6"
14348,commdev-image-keyboard-response,480,1309610,learnblock2,670.8999999910593,img/planet11_left.png,11,Community 1,NA,TRUE,f,f,NA,NA,NA,1,6,"13,5,10,7,11,15,14,9,3,4,12,8,2,1,6"
14348,commdev-image-keyboard-response,481,1310860,learnblock2,587.4000000059605,img/planet12_right.png,12,Community 3,NA,TRUE,j,j,NA,NA,NA,1,6,"13,5,10,7,11,15,14,9,3,4,12,8,2,1,6"
14348,commdev-image-keyboard-response,482,1312112,learnblock2,752.7000000029802,img/planet1_left.png,1,Community 3,NA,TRUE,f,f,NA,NA,NA,1,6,"13,5,10,7,11,15,14,9,3,4,12,8,2,1,6"
14348,commdev-image-keyboard-response,483,1313363,learnblock2,640.9000000059605,img/planet6_right.png,6,Community 3,NA,TRUE,j,j,NA,NA,NA,1,6,"13,5,10,7,11,15,14,9,3,4,12,8,2,1,6"
14348,commdev-image-keyboard-response,484,1314614,learnblock2,null,img/planet12_right.png,12,Community 3,NA,FALSE,null,j,NA,NA,NA,1,6,"13,5,10,7,11,15,14,9,3,4,12,8,2,1,6"
14348,commdev-image-keyboard-response,485,1315865,learnblock2,15.299999997019768,img/planet11_left.png,11,Community 1,NA,FALSE,j,f,NA,NA,NA,1,6,"13,5,10,7,11,15,14,9,3,4,12,8,2,1,6"
14348,commdev-image-keyboard-response,486,1317116,learnblock2,669.0999999940395,img/planet13_left.png,13,Community 1,NA,TRUE,f,f,NA,NA,NA,1,6,"13,5,10,7,11,15,14,9,3,4,12,8,2,1,6"
14348,commdev-image-keyboard-response,487,1318368,learnblock2,590.7000000029802,img/planet10_left.png,10,Community 1,NA,TRUE,f,f,NA,NA,NA,1,6,"13,5,10,7,11,15,14,9,3,4,12,8,2,1,6"
14348,commdev-image-keyboard-response,488,1319620,learnblock2,752.5999999940395,img/planet5_left.png,5,Community 1,NA,TRUE,f,f,NA,NA,NA,1,6,"13,5,10,7,11,15,14,9,3,4,12,8,2,1,6"
14348,commdev-image-keyboard-response,489,1320871,learnblock2,640.0999999940395,img/planet13_right.png,13,Community 1,NA,TRUE,j,j,NA,NA,NA,1,6,"13,5,10,7,11,15,14,9,3,4,12,8,2,1,6"
14348,commdev-image-keyboard-response,490,1322121,learnblock2,744.0999999940395,img/planet7_left.png,7,Community 1,NA,TRUE,f,f,NA,NA,NA,1,6,"13,5,10,7,11,15,14,9,3,4,12,8,2,1,6"
14348,commdev-image-keyboard-response,491,1323373,learnblock2,546.5,img/planet10_right.png,10,Community 1,NA,TRUE,j,j,NA,NA,NA,1,6,"13,5,10,7,11,15,14,9,3,4,12,8,2,1,6"
14348,commdev-image-keyboard-response,492,1324624,learnblock2,518,img/planet13_right.png,13,Community 1,NA,TRUE,j,j,NA,NA,NA,1,6,"13,5,10,7,11,15,14,9,3,4,12,8,2,1,6"
14348,commdev-image-keyboard-response,493,1325875,learnblock2,666.7000000029802,img/planet7_right.png,7,Community 1,NA,TRUE,j,j,NA,NA,NA,1,6,"13,5,10,7,11,15,14,9,3,4,12,8,2,1,6"
14348,commdev-image-keyboard-response,494,1327127,learnblock2,644.0999999940395,img/planet15_left.png,15,Community 2,NA,TRUE,f,f,NA,NA,NA,1,6,"13,5,10,7,11,15,14,9,3,4,12,8,2,1,6"
14348,commdev-image-keyboard-response,495,1328378,learnblock2,887.0999999940395,img/planet14_right.png,14,Community 2,NA,TRUE,j,j,NA,NA,NA,1,6,"13,5,10,7,11,15,14,9,3,4,12,8,2,1,6"
14348,commdev-image-keyboard-response,496,1329629,learnblock2,662.1000000089407,img/planet9_left.png,9,Community 2,NA,TRUE,f,f,NA,NA,NA,1,6,"13,5,10,7,11,15,14,9,3,4,12,8,2,1,6"
14348,commdev-image-keyboard-response,497,1330880,learnblock2,720.6999999880791,img/planet14_right.png,14,Community 2,NA,TRUE,j,j,NA,NA,NA,1,6,"13,5,10,7,11,15,14,9,3,4,12,8,2,1,6"
14348,commdev-image-keyboard-response,498,1332131,learnblock2,746.2000000029802,img/planet9_left.png,9,Community 2,NA,TRUE,f,f,NA,NA,NA,1,6,"13,5,10,7,11,15,14,9,3,4,12,8,2,1,6"
14348,commdev-image-keyboard-response,499,1333382,learnblock2,548.5999999940395,img/planet8_right.png,8,Community 3,NA,TRUE,j,j,NA,NA,NA,1,6,"13,5,10,7,11,15,14,9,3,4,12,8,2,1,6"
14348,commdev-image-keyboard-response,500,1334633,learnblock2,709.6000000089407,img/planet1_left.png,1,Community 3,NA,TRUE,f,f,NA,NA,NA,1,6,"13,5,10,7,11,15,14,9,3,4,12,8,2,1,6"
14348,commdev-image-keyboard-response,501,1335885,learnblock2,769.3000000119209,img/planet8_left.png,8,Community 3,NA,FALSE,j,f,NA,NA,NA,1,6,"13,5,10,7,11,15,14,9,3,4,12,8,2,1,6"
14348,commdev-image-keyboard-response,502,1337136,learnblock2,878,img/planet9_right.png,9,Community 2,NA,TRUE,j,j,NA,NA,NA,1,6,"13,5,10,7,11,15,14,9,3,4,12,8,2,1,6"
14348,commdev-image-keyboard-response,503,1338387,learnblock2,1182.3999999910593,img/planet8_right.png,8,Community 3,NA,TRUE,j,j,NA,NA,NA,1,6,"13,5,10,7,11,15,14,9,3,4,12,8,2,1,6"
14348,commdev-image-keyboard-response,504,1339638,learnblock2,785.7000000029802,img/planet1_left.png,1,Community 3,NA,TRUE,f,f,NA,NA,NA,1,6,"13,5,10,7,11,15,14,9,3,4,12,8,2,1,6"
14348,commdev-image-keyboard-response,505,1340889,learnblock2,785.5999999940395,img/planet2_right.png,2,Community 3,NA,TRUE,j,j,NA,NA,NA,1,6,"13,5,10,7,11,15,14,9,3,4,12,8,2,1,6"
14348,commdev-image-keyboard-response,506,1342141,learnblock2,855.5,img/planet8_right.png,8,Community 3,NA,TRUE,j,j,NA,NA,NA,1,6,"13,5,10,7,11,15,14,9,3,4,12,8,2,1,6"
14348,commdev-image-keyboard-response,507,1343391,learnblock2,1000,img/planet2_right.png,2,Community 3,NA,TRUE,j,j,NA,NA,NA,1,6,"13,5,10,7,11,15,14,9,3,4,12,8,2,1,6"
14348,commdev-image-keyboard-response,508,1344643,learnblock2,856.4000000059605,img/planet1_left.png,1,Community 3,NA,TRUE,f,f,NA,NA,NA,1,6,"13,5,10,7,11,15,14,9,3,4,12,8,2,1,6"
14348,commdev-image-keyboard-response,509,1345894,learnblock2,902.9000000059605,img/planet6_left.png,6,Community 3,NA,TRUE,f,f,NA,NA,NA,1,6,"13,5,10,7,11,15,14,9,3,4,12,8,2,1,6"
14348,commdev-image-keyboard-response,510,1347146,learnblock2,598,img/planet2_right.png,2,Community 3,NA,TRUE,j,j,NA,NA,NA,1,6,"13,5,10,7,11,15,14,9,3,4,12,8,2,1,6"
14348,commdev-image-keyboard-response,511,1348397,learnblock2,297.1000000089407,img/planet1_left.png,1,Community 3,NA,FALSE,j,f,NA,NA,NA,1,6,"13,5,10,7,11,15,14,9,3,4,12,8,2,1,6"
14348,commdev-image-keyboard-response,512,1349649,learnblock2,555.3000000119209,img/planet6_right.png,6,Community 3,NA,TRUE,j,j,NA,NA,NA,1,6,"13,5,10,7,11,15,14,9,3,4,12,8,2,1,6"
14348,commdev-image-keyboard-response,513,1350899,learnblock2,730.9000000059605,img/planet8_right.png,8,Community 3,NA,TRUE,j,j,NA,NA,NA,1,6,"13,5,10,7,11,15,14,9,3,4,12,8,2,1,6"
14348,commdev-image-keyboard-response,514,1352150,learnblock2,930.9000000059605,img/planet2_right.png,2,Community 3,NA,TRUE,j,j,NA,NA,NA,1,6,"13,5,10,7,11,15,14,9,3,4,12,8,2,1,6"
14348,commdev-image-keyboard-response,515,1353401,learnblock2,525.8000000119209,img/planet1_left.png,1,Community 3,NA,TRUE,f,f,NA,NA,NA,1,6,"13,5,10,7,11,15,14,9,3,4,12,8,2,1,6"
14348,commdev-image-keyboard-response,516,1354653,learnblock2,510.79999999701977,img/planet8_left.png,8,Community 3,NA,FALSE,j,f,NA,NA,NA,1,6,"13,5,10,7,11,15,14,9,3,4,12,8,2,1,6"
14348,commdev-image-keyboard-response,517,1355903,learnblock2,849,img/planet1_left.png,1,Community 3,NA,TRUE,f,f,NA,NA,NA,1,6,"13,5,10,7,11,15,14,9,3,4,12,8,2,1,6"
14348,commdev-image-keyboard-response,518,1357154,learnblock2,740.5,img/planet6_left.png,6,Community 3,NA,TRUE,f,f,NA,NA,NA,1,6,"13,5,10,7,11,15,14,9,3,4,12,8,2,1,6"
14348,commdev-image-keyboard-response,519,1358405,learnblock2,560.0999999940395,img/planet8_left.png,8,Community 3,NA,TRUE,f,f,NA,NA,NA,1,6,"13,5,10,7,11,15,14,9,3,4,12,8,2,1,6"
14348,commdev-image-keyboard-response,520,1359657,learnblock2,403.20000000298023,img/planet1_right.png,1,Community 3,NA,FALSE,f,j,NA,NA,NA,1,6,"13,5,10,7,11,15,14,9,3,4,12,8,2,1,6"
14348,commdev-image-keyboard-response,521,1360908,learnblock2,668.2000000029802,img/planet12_right.png,12,Community 3,NA,TRUE,j,j,NA,NA,NA,1,6,"13,5,10,7,11,15,14,9,3,4,12,8,2,1,6"
14348,commdev-image-keyboard-response,522,1362160,learnblock2,704.5999999940395,img/planet2_left.png,2,Community 3,NA,TRUE,f,f,NA,NA,NA,1,6,"13,5,10,7,11,15,14,9,3,4,12,8,2,1,6"
14348,commdev-image-keyboard-response,523,1363410,learnblock2,693,img/planet8_left.png,8,Community 3,NA,TRUE,f,f,NA,NA,NA,1,6,"13,5,10,7,11,15,14,9,3,4,12,8,2,1,6"
14348,commdev-image-keyboard-response,524,1364662,learnblock2,619.3000000119209,img/planet6_left.png,6,Community 3,NA,TRUE,f,f,NA,NA,NA,1,6,"13,5,10,7,11,15,14,9,3,4,12,8,2,1,6"
14348,commdev-image-keyboard-response,525,1365913,learnblock2,712.2000000029802,img/planet12_right.png,12,Community 3,NA,TRUE,j,j,NA,NA,NA,1,6,"13,5,10,7,11,15,14,9,3,4,12,8,2,1,6"
14348,commdev-image-keyboard-response,526,1367165,learnblock2,409.5,img/planet11_left.png,11,Community 1,NA,FALSE,j,f,NA,NA,NA,1,6,"13,5,10,7,11,15,14,9,3,4,12,8,2,1,6"
14348,commdev-image-keyboard-response,527,1368416,learnblock2,null,img/planet12_right.png,12,Community 3,NA,FALSE,null,j,NA,NA,NA,1,6,"13,5,10,7,11,15,14,9,3,4,12,8,2,1,6"
14348,commdev-image-keyboard-response,528,1369667,learnblock2,945.5999999940395,img/planet6_left.png,6,Community 3,NA,TRUE,f,f,NA,NA,NA,1,6,"13,5,10,7,11,15,14,9,3,4,12,8,2,1,6"
14348,commdev-image-keyboard-response,529,1370918,learnblock2,648.6000000089407,img/planet12_left.png,12,Community 3,NA,TRUE,f,f,NA,NA,NA,1,6,"13,5,10,7,11,15,14,9,3,4,12,8,2,1,6"
14348,commdev-image-keyboard-response,530,1372170,learnblock2,777.5999999940395,img/planet1_right.png,1,Community 3,NA,TRUE,j,j,NA,NA,NA,1,6,"13,5,10,7,11,15,14,9,3,4,12,8,2,1,6"
14348,commdev-image-keyboard-response,531,1373422,learnblock2,null,img/planet8_left.png,8,Community 3,NA,FALSE,null,f,NA,NA,NA,1,6,"13,5,10,7,11,15,14,9,3,4,12,8,2,1,6"
14348,commdev-image-keyboard-response,532,1374674,learnblock2,128.1000000089407,img/planet1_right.png,1,Community 3,NA,TRUE,j,j,NA,NA,NA,1,6,"13,5,10,7,11,15,14,9,3,4,12,8,2,1,6"
14348,commdev-image-keyboard-response,533,1375925,learnblock2,864.8999999910593,img/planet8_right.png,8,Community 3,NA,TRUE,j,j,NA,NA,NA,1,6,"13,5,10,7,11,15,14,9,3,4,12,8,2,1,6"
14348,commdev-image-keyboard-response,534,1377176,learnblock2,317.5,img/planet1_right.png,1,Community 3,NA,FALSE,f,j,NA,NA,NA,1,6,"13,5,10,7,11,15,14,9,3,4,12,8,2,1,6"
14348,commdev-image-keyboard-response,535,1378432,learnblock2,681.1000000089407,img/planet8_left.png,8,Community 3,NA,TRUE,f,f,NA,NA,NA,1,6,"13,5,10,7,11,15,14,9,3,4,12,8,2,1,6"
14348,commdev-image-keyboard-response,536,1379683,learnblock2,762.6000000089407,img/planet6_right.png,6,Community 3,NA,TRUE,j,j,NA,NA,NA,1,6,"13,5,10,7,11,15,14,9,3,4,12,8,2,1,6"
14348,commdev-image-keyboard-response,537,1380934,learnblock2,636.5999999940395,img/planet8_right.png,8,Community 3,NA,TRUE,j,j,NA,NA,NA,1,6,"13,5,10,7,11,15,14,9,3,4,12,8,2,1,6"
14348,commdev-image-keyboard-response,538,1382185,learnblock2,571.2000000029802,img/planet2_right.png,2,Community 3,NA,TRUE,j,j,NA,NA,NA,1,6,"13,5,10,7,11,15,14,9,3,4,12,8,2,1,6"
14348,commdev-image-keyboard-response,539,1383436,learnblock2,769.5999999940395,img/planet12_left.png,12,Community 3,NA,TRUE,f,f,NA,NA,NA,1,6,"13,5,10,7,11,15,14,9,3,4,12,8,2,1,6"
14348,commdev-image-keyboard-response,540,1384687,learnblock2,758.4000000059605,img/planet1_right.png,1,Community 3,NA,TRUE,j,j,NA,NA,NA,1,6,"13,5,10,7,11,15,14,9,3,4,12,8,2,1,6"
14348,commdev-image-keyboard-response,541,1385939,learnblock2,592.3000000119209,img/planet8_left.png,8,Community 3,NA,TRUE,f,f,NA,NA,NA,1,6,"13,5,10,7,11,15,14,9,3,4,12,8,2,1,6"
14348,commdev-image-keyboard-response,542,1387189,learnblock2,888.7000000029802,img/planet6_left.png,6,Community 3,NA,TRUE,f,f,NA,NA,NA,1,6,"13,5,10,7,11,15,14,9,3,4,12,8,2,1,6"
14348,commdev-image-keyboard-response,543,1388440,learnblock2,978.2000000029802,img/planet1_left.png,1,Community 3,NA,TRUE,f,f,NA,NA,NA,1,6,"13,5,10,7,11,15,14,9,3,4,12,8,2,1,6"
14348,commdev-image-keyboard-response,544,1389691,learnblock2,561.9000000059605,img/planet2_left.png,2,Community 3,NA,TRUE,f,f,NA,NA,NA,1,6,"13,5,10,7,11,15,14,9,3,4,12,8,2,1,6"
14348,commdev-image-keyboard-response,545,1390942,learnblock2,950.0999999940395,img/planet12_left.png,12,Community 3,NA,TRUE,f,f,NA,NA,NA,1,6,"13,5,10,7,11,15,14,9,3,4,12,8,2,1,6"
14348,commdev-image-keyboard-response,546,1392192,learnblock2,null,img/planet11_left.png,11,Community 1,NA,FALSE,null,f,NA,NA,NA,1,6,"13,5,10,7,11,15,14,9,3,4,12,8,2,1,6"
14348,commdev-image-keyboard-response,547,1393444,learnblock2,null,img/planet5_right.png,5,Community 1,NA,FALSE,null,j,NA,NA,NA,1,6,"13,5,10,7,11,15,14,9,3,4,12,8,2,1,6"
14348,commdev-image-keyboard-response,548,1394695,learnblock2,853.7999999970198,img/planet7_left.png,7,Community 1,NA,FALSE,j,f,NA,NA,NA,1,6,"13,5,10,7,11,15,14,9,3,4,12,8,2,1,6"
14348,commdev-image-keyboard-response,549,1395947,learnblock2,557.6000000089407,img/planet15_left.png,15,Community 2,NA,TRUE,f,f,NA,NA,NA,1,6,"13,5,10,7,11,15,14,9,3,4,12,8,2,1,6"
14348,commdev-image-keyboard-response,550,1397198,learnblock2,439.70000000298023,img/planet3_right.png,3,Community 2,NA,FALSE,f,j,NA,NA,NA,1,6,"13,5,10,7,11,15,14,9,3,4,12,8,2,1,6"
14348,commdev-image-keyboard-response,551,1398450,learnblock2,819.8999999910593,img/planet9_right.png,9,Community 2,NA,TRUE,j,j,NA,NA,NA,1,6,"13,5,10,7,11,15,14,9,3,4,12,8,2,1,6"
14348,commdev-image-keyboard-response,552,1399701,learnblock2,420.20000000298023,img/planet3_left.png,3,Community 2,NA,FALSE,j,f,NA,NA,NA,1,6,"13,5,10,7,11,15,14,9,3,4,12,8,2,1,6"
14348,commdev-image-keyboard-response,553,1400965,learnblock2,705.8999999910593,img/planet15_right.png,15,Community 2,NA,TRUE,j,j,NA,NA,NA,1,6,"13,5,10,7,11,15,14,9,3,4,12,8,2,1,6"
14348,commdev-image-keyboard-response,554,1402217,learnblock2,670.2000000029802,img/planet3_right.png,3,Community 2,NA,TRUE,j,j,NA,NA,NA,1,6,"13,5,10,7,11,15,14,9,3,4,12,8,2,1,6"
14348,commdev-image-keyboard-response,555,1403468,learnblock2,606.9000000059605,img/planet4_left.png,4,Community 2,NA,TRUE,f,f,NA,NA,NA,1,6,"13,5,10,7,11,15,14,9,3,4,12,8,2,1,6"
14348,commdev-image-keyboard-response,556,1404720,learnblock2,520.4000000059605,img/planet9_left.png,9,Community 2,NA,TRUE,f,f,NA,NA,NA,1,6,"13,5,10,7,11,15,14,9,3,4,12,8,2,1,6"
14348,commdev-image-keyboard-response,557,1405971,learnblock2,960.2999999970198,img/planet3_right.png,3,Community 2,NA,TRUE,j,j,NA,NA,NA,1,6,"13,5,10,7,11,15,14,9,3,4,12,8,2,1,6"
14348,commdev-image-keyboard-response,558,1407223,learnblock2,1087.2999999970198,img/planet9_right.png,9,Community 2,NA,TRUE,j,j,NA,NA,NA,1,6,"13,5,10,7,11,15,14,9,3,4,12,8,2,1,6"
14348,commdev-image-keyboard-response,559,1408474,learnblock2,null,img/planet14_left.png,14,Community 2,NA,FALSE,null,f,NA,NA,NA,1,6,"13,5,10,7,11,15,14,9,3,4,12,8,2,1,6"
14348,commdev-image-keyboard-response,560,1409725,learnblock2,164.29999999701977,img/planet3_right.png,3,Community 2,NA,FALSE,f,j,NA,NA,NA,1,6,"13,5,10,7,11,15,14,9,3,4,12,8,2,1,6"
14348,commdev-image-keyboard-response,561,1410977,learnblock2,857.2000000029802,img/planet14_right.png,14,Community 2,NA,FALSE,f,j,NA,NA,NA,1,6,"13,5,10,7,11,15,14,9,3,4,12,8,2,1,6"
14348,commdev-image-keyboard-response,562,1412228,learnblock2,529.8999999910593,img/planet4_right.png,4,Community 2,NA,TRUE,j,j,NA,NA,NA,1,6,"13,5,10,7,11,15,14,9,3,4,12,8,2,1,6"
14348,commdev-image-keyboard-response,563,1413480,learnblock2,519.3999999910593,img/planet15_right.png,15,Community 2,NA,TRUE,j,j,NA,NA,NA,1,6,"13,5,10,7,11,15,14,9,3,4,12,8,2,1,6"
14348,commdev-image-keyboard-response,564,1414730,learnblock2,661.9000000059605,img/planet7_left.png,7,Community 1,NA,FALSE,j,f,NA,NA,NA,1,6,"13,5,10,7,11,15,14,9,3,4,12,8,2,1,6"
14348,commdev-image-keyboard-response,565,1415982,learnblock2,461.20000000298023,img/planet13_left.png,13,Community 1,NA,FALSE,j,f,NA,NA,NA,1,6,"13,5,10,7,11,15,14,9,3,4,12,8,2,1,6"
14348,commdev-image-keyboard-response,566,1417233,learnblock2,516.6999999880791,img/planet11_right.png,11,Community 1,NA,TRUE,j,j,NA,NA,NA,1,6,"13,5,10,7,11,15,14,9,3,4,12,8,2,1,6"
14348,commdev-image-keyboard-response,567,1418484,learnblock2,934.5999999940395,img/planet12_left.png,12,Community 3,NA,TRUE,f,f,NA,NA,NA,1,6,"13,5,10,7,11,15,14,9,3,4,12,8,2,1,6"
14348,commdev-image-keyboard-response,568,1419735,learnblock2,676.6000000089407,img/planet1_right.png,1,Community 3,NA,TRUE,j,j,NA,NA,NA,1,6,"13,5,10,7,11,15,14,9,3,4,12,8,2,1,6"
14348,commdev-image-keyboard-response,569,1420987,learnblock2,694.0999999940395,img/planet2_right.png,2,Community 3,NA,TRUE,j,j,NA,NA,NA,1,6,"13,5,10,7,11,15,14,9,3,4,12,8,2,1,6"
14348,commdev-image-keyboard-response,570,1422252,learnblock2,763.5999999940395,img/planet8_left.png,8,Community 3,NA,TRUE,f,f,NA,NA,NA,1,6,"13,5,10,7,11,15,14,9,3,4,12,8,2,1,6"
14348,commdev-image-keyboard-response,571,1423503,learnblock2,893.6000000089407,img/planet9_left.png,9,Community 2,NA,FALSE,j,f,NA,NA,NA,1,6,"13,5,10,7,11,15,14,9,3,4,12,8,2,1,6"
14348,commdev-image-keyboard-response,572,1424754,learnblock2,601.7999999970198,img/planet4_right.png,4,Community 2,NA,TRUE,j,j,NA,NA,NA,1,6,"13,5,10,7,11,15,14,9,3,4,12,8,2,1,6"
14348,commdev-image-keyboard-response,573,1426005,learnblock2,615.7999999970198,img/planet14_right.png,14,Community 2,NA,FALSE,f,j,NA,NA,NA,1,6,"13,5,10,7,11,15,14,9,3,4,12,8,2,1,6"
14348,commdev-image-keyboard-response,574,1427256,learnblock2,816.8999999910593,img/planet9_left.png,9,Community 2,NA,TRUE,f,f,NA,NA,NA,1,6,"13,5,10,7,11,15,14,9,3,4,12,8,2,1,6"
14348,commdev-image-keyboard-response,575,1428507,learnblock2,798.5,img/planet14_right.png,14,Community 2,NA,TRUE,j,j,NA,NA,NA,1,6,"13,5,10,7,11,15,14,9,3,4,12,8,2,1,6"
14348,commdev-image-keyboard-response,576,1429758,learnblock2,596.2999999970198,img/planet9_left.png,9,Community 2,NA,TRUE,f,f,NA,NA,NA,1,6,"13,5,10,7,11,15,14,9,3,4,12,8,2,1,6"
14348,commdev-image-keyboard-response,577,1431009,learnblock2,418.19999998807907,img/planet8_right.png,8,Community 3,NA,TRUE,j,j,NA,NA,NA,1,6,"13,5,10,7,11,15,14,9,3,4,12,8,2,1,6"
14348,commdev-image-keyboard-response,578,1432261,learnblock2,390.70000000298023,img/planet2_right.png,2,Community 3,NA,FALSE,f,j,NA,NA,NA,1,6,"13,5,10,7,11,15,14,9,3,4,12,8,2,1,6"
14348,commdev-image-keyboard-response,579,1433513,learnblock2,834.0999999940395,img/planet8_right.png,8,Community 3,NA,TRUE,j,j,NA,NA,NA,1,6,"13,5,10,7,11,15,14,9,3,4,12,8,2,1,6"
14348,commdev-image-keyboard-response,580,1434764,learnblock2,1027.699999988079,img/planet9_left.png,9,Community 2,NA,TRUE,f,f,NA,NA,NA,1,6,"13,5,10,7,11,15,14,9,3,4,12,8,2,1,6"
14348,commdev-image-keyboard-response,581,1436014,learnblock2,null,img/planet8_right.png,8,Community 3,NA,FALSE,null,j,NA,NA,NA,1,6,"13,5,10,7,11,15,14,9,3,4,12,8,2,1,6"
14348,commdev-image-keyboard-response,582,1437266,learnblock2,521.5,img/planet1_right.png,1,Community 3,NA,TRUE,j,j,NA,NA,NA,1,6,"13,5,10,7,11,15,14,9,3,4,12,8,2,1,6"
14348,commdev-image-keyboard-response,583,1438517,learnblock2,738.8999999910593,img/planet6_left.png,6,Community 3,NA,TRUE,f,f,NA,NA,NA,1,6,"13,5,10,7,11,15,14,9,3,4,12,8,2,1,6"
14348,commdev-image-keyboard-response,584,1439768,learnblock2,701.6999999880791,img/planet8_right.png,8,Community 3,NA,TRUE,j,j,NA,NA,NA,1,6,"13,5,10,7,11,15,14,9,3,4,12,8,2,1,6"
14348,commdev-image-keyboard-response,585,1441019,learnblock2,601.5,img/planet9_right.png,9,Community 2,NA,TRUE,j,j,NA,NA,NA,1,6,"13,5,10,7,11,15,14,9,3,4,12,8,2,1,6"
14348,commdev-image-keyboard-response,586,1442270,learnblock2,807.2999999970198,img/planet4_left.png,4,Community 2,NA,TRUE,f,f,NA,NA,NA,1,6,"13,5,10,7,11,15,14,9,3,4,12,8,2,1,6"
14348,commdev-image-keyboard-response,587,1443522,learnblock2,918.8999999910593,img/planet14_right.png,14,Community 2,NA,TRUE,j,j,NA,NA,NA,1,6,"13,5,10,7,11,15,14,9,3,4,12,8,2,1,6"
14348,commdev-image-keyboard-response,588,1444772,learnblock2,813.5999999940395,img/planet15_left.png,15,Community 2,NA,TRUE,f,f,NA,NA,NA,1,6,"13,5,10,7,11,15,14,9,3,4,12,8,2,1,6"
14348,commdev-image-keyboard-response,589,1446024,learnblock2,1176.199999988079,img/planet3_right.png,3,Community 2,NA,TRUE,j,j,NA,NA,NA,1,6,"13,5,10,7,11,15,14,9,3,4,12,8,2,1,6"
14348,commdev-image-keyboard-response,590,1447275,learnblock2,548.6999999880791,img/planet4_left.png,4,Community 2,NA,TRUE,f,f,NA,NA,NA,1,6,"13,5,10,7,11,15,14,9,3,4,12,8,2,1,6"
14348,commdev-image-keyboard-response,591,1448527,learnblock2,496.70000000298023,img/planet14_right.png,14,Community 2,NA,TRUE,j,j,NA,NA,NA,1,6,"13,5,10,7,11,15,14,9,3,4,12,8,2,1,6"
14348,commdev-image-keyboard-response,592,1449778,learnblock2,455.6000000089407,img/planet9_left.png,9,Community 2,NA,TRUE,f,f,NA,NA,NA,1,6,"13,5,10,7,11,15,14,9,3,4,12,8,2,1,6"
14348,commdev-image-keyboard-response,593,1451030,learnblock2,382.59999999403954,img/planet8_right.png,8,Community 3,NA,TRUE,j,j,NA,NA,NA,1,6,"13,5,10,7,11,15,14,9,3,4,12,8,2,1,6"
14348,commdev-image-keyboard-response,594,1452281,learnblock2,739.5999999940395,img/planet1_left.png,1,Community 3,NA,FALSE,j,f,NA,NA,NA,1,6,"13,5,10,7,11,15,14,9,3,4,12,8,2,1,6"
14348,commdev-image-keyboard-response,595,1453533,learnblock2,603.2999999970198,img/planet2_left.png,2,Community 3,NA,FALSE,j,f,NA,NA,NA,1,6,"13,5,10,7,11,15,14,9,3,4,12,8,2,1,6"
14348,commdev-image-keyboard-response,596,1454784,learnblock2,662.6000000089407,img/planet6_left.png,6,Community 3,NA,TRUE,f,f,NA,NA,NA,1,6,"13,5,10,7,11,15,14,9,3,4,12,8,2,1,6"
14348,commdev-image-keyboard-response,597,1456036,learnblock2,889.8999999910593,img/planet2_right.png,2,Community 3,NA,TRUE,j,j,NA,NA,NA,1,6,"13,5,10,7,11,15,14,9,3,4,12,8,2,1,6"
14348,commdev-image-keyboard-response,598,1457287,learnblock2,766,img/planet6_right.png,6,Community 3,NA,TRUE,j,j,NA,NA,NA,1,6,"13,5,10,7,11,15,14,9,3,4,12,8,2,1,6"
14348,commdev-image-keyboard-response,599,1458538,learnblock2,558.7000000029802,img/planet8_right.png,8,Community 3,NA,TRUE,j,j,NA,NA,NA,1,6,"13,5,10,7,11,15,14,9,3,4,12,8,2,1,6"
14348,commdev-image-keyboard-response,600,1459789,learnblock2,648.7999999970198,img/planet2_left.png,2,Community 3,NA,TRUE,f,f,NA,NA,NA,1,6,"13,5,10,7,11,15,14,9,3,4,12,8,2,1,6"
14348,commdev-image-keyboard-response,601,1461041,learnblock2,709.1999999880791,img/planet12_right.png,12,Community 3,NA,TRUE,j,j,NA,NA,NA,1,6,"13,5,10,7,11,15,14,9,3,4,12,8,2,1,6"
14348,commdev-image-keyboard-response,602,1462293,learnblock2,662.8999999910593,img/planet6_right.png,6,Community 3,NA,TRUE,j,j,NA,NA,NA,1,6,"13,5,10,7,11,15,14,9,3,4,12,8,2,1,6"
14348,commdev-image-keyboard-response,603,1463545,learnblock2,778.7999999970198,img/planet8_left.png,8,Community 3,NA,TRUE,f,f,NA,NA,NA,1,6,"13,5,10,7,11,15,14,9,3,4,12,8,2,1,6"
14348,commdev-image-keyboard-response,604,1464796,learnblock2,638.6000000089407,img/planet1_right.png,1,Community 3,NA,TRUE,j,j,NA,NA,NA,1,6,"13,5,10,7,11,15,14,9,3,4,12,8,2,1,6"
14348,commdev-image-keyboard-response,605,1466048,learnblock2,722.9000000059605,img/planet6_right.png,6,Community 3,NA,TRUE,j,j,NA,NA,NA,1,6,"13,5,10,7,11,15,14,9,3,4,12,8,2,1,6"
14348,commdev-image-keyboard-response,606,1467299,learnblock2,696.3000000119209,img/planet12_right.png,12,Community 3,NA,TRUE,j,j,NA,NA,NA,1,6,"13,5,10,7,11,15,14,9,3,4,12,8,2,1,6"
14348,commdev-image-keyboard-response,607,1468551,learnblock2,682,img/planet6_left.png,6,Community 3,NA,TRUE,f,f,NA,NA,NA,1,6,"13,5,10,7,11,15,14,9,3,4,12,8,2,1,6"
14348,commdev-image-keyboard-response,608,1469802,learnblock2,599.5,img/planet8_left.png,8,Community 3,NA,TRUE,f,f,NA,NA,NA,1,6,"13,5,10,7,11,15,14,9,3,4,12,8,2,1,6"
14348,commdev-image-keyboard-response,609,1471053,learnblock2,646.5999999940395,img/planet6_left.png,6,Community 3,NA,TRUE,f,f,NA,NA,NA,1,6,"13,5,10,7,11,15,14,9,3,4,12,8,2,1,6"
14348,commdev-image-keyboard-response,610,1472304,learnblock2,919.8000000119209,img/planet8_right.png,8,Community 3,NA,TRUE,j,j,NA,NA,NA,1,6,"13,5,10,7,11,15,14,9,3,4,12,8,2,1,6"
14348,commdev-image-keyboard-response,611,1473555,learnblock2,549.2000000029802,img/planet9_right.png,9,Community 2,NA,TRUE,j,j,NA,NA,NA,1,6,"13,5,10,7,11,15,14,9,3,4,12,8,2,1,6"
14348,commdev-image-keyboard-response,612,1474807,learnblock2,684.8999999910593,img/planet14_left.png,14,Community 2,NA,TRUE,f,f,NA,NA,NA,1,6,"13,5,10,7,11,15,14,9,3,4,12,8,2,1,6"
14348,commdev-image-keyboard-response,613,1476058,learnblock2,578.5,img/planet4_left.png,4,Community 2,NA,TRUE,f,f,NA,NA,NA,1,6,"13,5,10,7,11,15,14,9,3,4,12,8,2,1,6"
14348,commdev-image-keyboard-response,614,1477310,learnblock2,594.9000000059605,img/planet3_left.png,3,Community 2,NA,TRUE,f,f,NA,NA,NA,1,6,"13,5,10,7,11,15,14,9,3,4,12,8,2,1,6"
14348,commdev-image-keyboard-response,615,1478561,learnblock2,502.30000001192093,img/planet14_left.png,14,Community 2,NA,TRUE,f,f,NA,NA,NA,1,6,"13,5,10,7,11,15,14,9,3,4,12,8,2,1,6"
14348,commdev-image-keyboard-response,616,1479812,learnblock2,618.3000000119209,img/planet3_right.png,3,Community 2,NA,FALSE,f,j,NA,NA,NA,1,6,"13,5,10,7,11,15,14,9,3,4,12,8,2,1,6"
14348,commdev-image-keyboard-response,617,1481064,learnblock2,371.80000001192093,img/planet15_left.png,15,Community 2,NA,FALSE,j,f,NA,NA,NA,1,6,"13,5,10,7,11,15,14,9,3,4,12,8,2,1,6"
14348,commdev-image-keyboard-response,618,1482315,learnblock2,338.59999999403954,img/planet14_right.png,14,Community 2,NA,FALSE,f,j,NA,NA,NA,1,6,"13,5,10,7,11,15,14,9,3,4,12,8,2,1,6"
14348,commdev-image-keyboard-response,619,1483567,learnblock2,551.1000000089407,img/planet4_right.png,4,Community 2,NA,TRUE,j,j,NA,NA,NA,1,6,"13,5,10,7,11,15,14,9,3,4,12,8,2,1,6"
14348,commdev-image-keyboard-response,620,1484818,learnblock2,295.8999999910593,img/planet3_left.png,3,Community 2,NA,FALSE,j,f,NA,NA,NA,1,6,"13,5,10,7,11,15,14,9,3,4,12,8,2,1,6"
14348,commdev-image-keyboard-response,621,1486069,learnblock2,null,img/planet14_right.png,14,Community 2,NA,FALSE,null,j,NA,NA,NA,1,6,"13,5,10,7,11,15,14,9,3,4,12,8,2,1,6"
14348,commdev-image-keyboard-response,622,1487322,learnblock2,353.90000000596046,img/planet15_right.png,15,Community 2,NA,TRUE,j,j,NA,NA,NA,1,6,"13,5,10,7,11,15,14,9,3,4,12,8,2,1,6"
14348,commdev-image-keyboard-response,623,1488573,learnblock2,288.5,img/planet3_right.png,3,Community 2,NA,TRUE,j,j,NA,NA,NA,1,6,"13,5,10,7,11,15,14,9,3,4,12,8,2,1,6"
14348,commdev-image-keyboard-response,624,1489825,learnblock2,538.3000000119209,img/planet4_left.png,4,Community 2,NA,TRUE,f,f,NA,NA,NA,1,6,"13,5,10,7,11,15,14,9,3,4,12,8,2,1,6"
14348,commdev-image-keyboard-response,625,1491077,learnblock2,487.5,img/planet15_left.png,15,Community 2,NA,TRUE,f,f,NA,NA,NA,1,6,"13,5,10,7,11,15,14,9,3,4,12,8,2,1,6"
14348,commdev-image-keyboard-response,626,1492327,learnblock2,745.7000000029802,img/planet3_right.png,3,Community 2,NA,TRUE,j,j,NA,NA,NA,1,6,"13,5,10,7,11,15,14,9,3,4,12,8,2,1,6"
14348,commdev-image-keyboard-response,627,1493578,learnblock2,678,img/planet9_left.png,9,Community 2,NA,TRUE,f,f,NA,NA,NA,1,6,"13,5,10,7,11,15,14,9,3,4,12,8,2,1,6"
14348,commdev-image-keyboard-response,628,1494837,learnblock2,449.70000000298023,img/planet3_right.png,3,Community 2,NA,TRUE,j,j,NA,NA,NA,1,6,"13,5,10,7,11,15,14,9,3,4,12,8,2,1,6"
14348,commdev-image-keyboard-response,629,1496088,learnblock2,608.8999999910593,img/planet9_left.png,9,Community 2,NA,TRUE,f,f,NA,NA,NA,1,6,"13,5,10,7,11,15,14,9,3,4,12,8,2,1,6"
14348,commdev-image-keyboard-response,630,1497339,learnblock2,422.79999999701977,img/planet8_left.png,8,Community 3,NA,FALSE,j,f,NA,NA,NA,1,6,"13,5,10,7,11,15,14,9,3,4,12,8,2,1,6"
14348,commdev-image-keyboard-response,631,1498591,learnblock2,574,img/planet2_right.png,2,Community 3,NA,TRUE,j,j,NA,NA,NA,1,6,"13,5,10,7,11,15,14,9,3,4,12,8,2,1,6"
14348,commdev-image-keyboard-response,632,1499842,learnblock2,886.3999999910593,img/planet12_left.png,12,Community 3,NA,TRUE,f,f,NA,NA,NA,1,6,"13,5,10,7,11,15,14,9,3,4,12,8,2,1,6"
14348,commdev-image-keyboard-response,633,1501093,learnblock2,641.7000000029802,img/planet2_right.png,2,Community 3,NA,TRUE,j,j,NA,NA,NA,1,6,"13,5,10,7,11,15,14,9,3,4,12,8,2,1,6"
14348,commdev-image-keyboard-response,634,1502344,learnblock2,582.6000000089407,img/planet1_right.png,1,Community 3,NA,TRUE,j,j,NA,NA,NA,1,6,"13,5,10,7,11,15,14,9,3,4,12,8,2,1,6"
14348,commdev-image-keyboard-response,635,1503595,learnblock2,456.30000001192093,img/planet12_right.png,12,Community 3,NA,TRUE,j,j,NA,NA,NA,1,6,"13,5,10,7,11,15,14,9,3,4,12,8,2,1,6"
14348,commdev-image-keyboard-response,636,1504847,learnblock2,479.59999999403954,img/planet2_right.png,2,Community 3,NA,TRUE,j,j,NA,NA,NA,1,6,"13,5,10,7,11,15,14,9,3,4,12,8,2,1,6"
14348,commdev-image-keyboard-response,637,1506097,learnblock2,865.6000000089407,img/planet8_right.png,8,Community 3,NA,TRUE,j,j,NA,NA,NA,1,6,"13,5,10,7,11,15,14,9,3,4,12,8,2,1,6"
14348,commdev-image-keyboard-response,638,1507349,learnblock2,548.9000000059605,img/planet1_right.png,1,Community 3,NA,TRUE,j,j,NA,NA,NA,1,6,"13,5,10,7,11,15,14,9,3,4,12,8,2,1,6"
14348,commdev-image-keyboard-response,639,1508611,learnblock2,852.3000000119209,img/planet2_left.png,2,Community 3,NA,TRUE,f,f,NA,NA,NA,1,6,"13,5,10,7,11,15,14,9,3,4,12,8,2,1,6"
14348,commdev-image-keyboard-response,640,1509863,learnblock2,607,img/planet6_right.png,6,Community 3,NA,TRUE,j,j,NA,NA,NA,1,6,"13,5,10,7,11,15,14,9,3,4,12,8,2,1,6"
14348,commdev-image-keyboard-response,641,1511114,learnblock2,561.7000000029802,img/planet8_right.png,8,Community 3,NA,TRUE,j,j,NA,NA,NA,1,6,"13,5,10,7,11,15,14,9,3,4,12,8,2,1,6"
14348,commdev-image-keyboard-response,642,1512366,learnblock2,607.7999999970198,img/planet1_left.png,1,Community 3,NA,FALSE,j,f,NA,NA,NA,1,6,"13,5,10,7,11,15,14,9,3,4,12,8,2,1,6"
14348,commdev-image-keyboard-response,643,1513617,learnblock2,735.2000000029802,img/planet8_right.png,8,Community 3,NA,TRUE,j,j,NA,NA,NA,1,6,"13,5,10,7,11,15,14,9,3,4,12,8,2,1,6"
14348,commdev-image-keyboard-response,644,1514868,learnblock2,634.5999999940395,img/planet9_right.png,9,Community 2,NA,TRUE,j,j,NA,NA,NA,1,6,"13,5,10,7,11,15,14,9,3,4,12,8,2,1,6"
14348,commdev-image-keyboard-response,645,1516118,learnblock2,1230.2999999970198,img/planet8_right.png,8,Community 3,NA,TRUE,j,j,NA,NA,NA,1,6,"13,5,10,7,11,15,14,9,3,4,12,8,2,1,6"
14348,commdev-image-keyboard-response,646,1517370,learnblock2,854.7000000029802,img/planet1_right.png,1,Community 3,NA,TRUE,j,j,NA,NA,NA,1,6,"13,5,10,7,11,15,14,9,3,4,12,8,2,1,6"
14348,commdev-image-keyboard-response,647,1518622,learnblock2,568.8999999910593,img/planet8_right.png,8,Community 3,NA,TRUE,j,j,NA,NA,NA,1,6,"13,5,10,7,11,15,14,9,3,4,12,8,2,1,6"
14348,commdev-image-keyboard-response,648,1519873,learnblock2,649.8999999910593,img/planet1_left.png,1,Community 3,NA,TRUE,f,f,NA,NA,NA,1,6,"13,5,10,7,11,15,14,9,3,4,12,8,2,1,6"
14348,commdev-image-keyboard-response,649,1521125,learnblock2,767.2999999970198,img/planet6_right.png,6,Community 3,NA,TRUE,j,j,NA,NA,NA,1,6,"13,5,10,7,11,15,14,9,3,4,12,8,2,1,6"
14348,commdev-image-keyboard-response,650,1522375,learnblock2,677.3999999910593,img/planet1_left.png,1,Community 3,NA,TRUE,f,f,NA,NA,NA,1,6,"13,5,10,7,11,15,14,9,3,4,12,8,2,1,6"
14348,commdev-image-keyboard-response,651,1523626,learnblock2,962.9000000059605,img/planet12_right.png,12,Community 3,NA,TRUE,j,j,NA,NA,NA,1,6,"13,5,10,7,11,15,14,9,3,4,12,8,2,1,6"
14348,commdev-image-keyboard-response,652,1524888,learnblock2,591.2999999970198,img/planet6_right.png,6,Community 3,NA,TRUE,j,j,NA,NA,NA,1,6,"13,5,10,7,11,15,14,9,3,4,12,8,2,1,6"
14348,commdev-image-keyboard-response,653,1526139,learnblock2,631.2999999970198,img/planet1_left.png,1,Community 3,NA,FALSE,j,f,NA,NA,NA,1,6,"13,5,10,7,11,15,14,9,3,4,12,8,2,1,6"
14348,commdev-image-keyboard-response,654,1527391,learnblock2,371.79999999701977,img/planet12_right.png,12,Community 3,NA,TRUE,j,j,NA,NA,NA,1,6,"13,5,10,7,11,15,14,9,3,4,12,8,2,1,6"
14348,commdev-image-keyboard-response,655,1528642,learnblock2,449.5,img/planet2_left.png,2,Community 3,NA,FALSE,j,f,NA,NA,NA,1,6,"13,5,10,7,11,15,14,9,3,4,12,8,2,1,6"
14348,commdev-image-keyboard-response,656,1529894,learnblock2,505.90000000596046,img/planet8_right.png,8,Community 3,NA,TRUE,j,j,NA,NA,NA,1,6,"13,5,10,7,11,15,14,9,3,4,12,8,2,1,6"
14348,commdev-image-keyboard-response,657,1531145,learnblock2,568.5,img/planet9_left.png,9,Community 2,NA,TRUE,f,f,NA,NA,NA,1,6,"13,5,10,7,11,15,14,9,3,4,12,8,2,1,6"
14348,commdev-image-keyboard-response,658,1532396,learnblock2,850.4000000059605,img/planet8_right.png,8,Community 3,NA,TRUE,j,j,NA,NA,NA,1,6,"13,5,10,7,11,15,14,9,3,4,12,8,2,1,6"
14348,commdev-image-keyboard-response,659,1533648,learnblock2,657.7999999970198,img/planet1_left.png,1,Community 3,NA,TRUE,f,f,NA,NA,NA,1,6,"13,5,10,7,11,15,14,9,3,4,12,8,2,1,6"
14348,commdev-image-keyboard-response,660,1534900,learnblock2,628.1000000089407,img/planet12_left.png,12,Community 3,NA,TRUE,f,f,NA,NA,NA,1,6,"13,5,10,7,11,15,14,9,3,4,12,8,2,1,6"
14348,commdev-image-keyboard-response,661,1536151,learnblock2,575.5,img/planet6_right.png,6,Community 3,NA,TRUE,j,j,NA,NA,NA,1,6,"13,5,10,7,11,15,14,9,3,4,12,8,2,1,6"
