subject_id,trial_type,trial_index,time_elapsed,block,rt,stimulus,planet,community,response,correct,key_press,learning_correct_response,parse,init_locations,final_locations,browser_interactions,num_comp,planet_map
14819,commdev-instructions,7,21547,NA,1713,"<p>In this game, you are a scientist on board a space shuttle. </p><p> On each mission, you will visit planets all across the universe.</p><img src=""img/controlroom.jpg"" width=300vw>",NA,NA,NA,NA,NA,NA,NA,NA,NA,1,6,"11,8,9,1,6,13,7,3,14,15,10,2,4,5,12"
14819,commdev-instructions,8,27980,NA,4361,"<p>Here are a few planets you might see:</p><img src=""img/practice1.png"" width=200vw><img src=""img/practice2.png"" width=200vw><img src=""img/practice3.png"" width=200vw>",NA,NA,NA,NA,NA,NA,NA,NA,NA,1,6,"11,8,9,1,6,13,7,3,14,15,10,2,4,5,12"
14819,commdev-instructions,9,36930,NA,1553,"<p>Your job as a scientist is to record which direction the winds are moving on each planet.</p><p>There are two types of wind directions:</p><img src=""img/practice1_left.png"" width=200vw><img src=""img/practice1_right.png"" width=200vw>",NA,NA,NA,NA,NA,NA,NA,NA,NA,1,6,"11,8,9,1,6,13,7,3,14,15,10,2,4,5,12"
14819,commdev-instructions,10,48146,NA,6338,"<p>If the winds are moving this way, press the letter <strong>F</strong> on the keyboard as fast as you can.</p><img src=""img/leftwind.png"" width=250vw>",NA,NA,NA,NA,NA,NA,NA,NA,NA,1,6,"11,8,9,1,6,13,7,3,14,15,10,2,4,5,12"
14819,commdev-instructions,11,53764,NA,1123,"<p>If the winds are moving this way, press the letter <strong>J</strong> on the keyboard as fast as you can.</p><img src=""img/rightwind.png"" width=350vw>",NA,NA,NA,NA,NA,NA,NA,NA,NA,1,6,"11,8,9,1,6,13,7,3,14,15,10,2,4,5,12"
14819,commdev-instructions,12,60330,NA,2142,<p>You will have 1 second to respond. Try to respond before the time runs out!,NA,NA,NA,NA,NA,NA,NA,NA,NA,1,6,"11,8,9,1,6,13,7,3,14,15,10,2,4,5,12"
14819,commdev-instructions,13,68364,NA,2604,<p>The planets you will visit will look different from each other.</p><p>You should respond <strong>only</strong> based on wind direction.,NA,NA,NA,NA,NA,NA,NA,NA,NA,1,6,"11,8,9,1,6,13,7,3,14,15,10,2,4,5,12"
14819,commdev-instructions,14,76197,NA,2666.9999999999854,"<p> Ready to start the practice round? </p><p> Remember, press <strong>F</strong> or <strong>J</strong> depending on the wind direction.<br><img src=""img/categorize_planet_example.png""",NA,NA,NA,NA,NA,NA,NA,NA,NA,1,6,"11,8,9,1,6,13,7,3,14,15,10,2,4,5,12"
14819,commdev-instructions,26,132598,NA,5881.000000000029,"<p>Great, now try a short practice mission. </p><p> This time, you will have 1 second to respond and you won't know whether you pressed the right or wrong key for each planet.</p>",NA,NA,NA,NA,NA,NA,NA,NA,NA,1,6,"11,8,9,1,6,13,7,3,14,15,10,2,4,5,12"
14819,commdev-image-keyboard-response,27,133952,practice,1038,img/practice4_left.png,NA,Number not found in mappings,NA,TRUE,f,f,NA,NA,NA,1,6,"11,8,9,1,6,13,7,3,14,15,10,2,4,5,12"
14819,commdev-image-keyboard-response,28,135203,practice,694,img/practice2_right.png,NA,Number not found in mappings,NA,TRUE,j,j,NA,NA,NA,1,6,"11,8,9,1,6,13,7,3,14,15,10,2,4,5,12"
14819,commdev-image-keyboard-response,29,136455,practice,618,img/practice4_right.png,NA,Number not found in mappings,NA,TRUE,j,j,NA,NA,NA,1,6,"11,8,9,1,6,13,7,3,14,15,10,2,4,5,12"
14819,commdev-image-keyboard-response,30,137707,practice,600,img/practice2_right.png,NA,Number not found in mappings,NA,TRUE,j,j,NA,NA,NA,1,6,"11,8,9,1,6,13,7,3,14,15,10,2,4,5,12"
14819,commdev-image-keyboard-response,31,138958,practice,512,img/practice4_right.png,NA,Number not found in mappings,NA,TRUE,j,j,NA,NA,NA,1,6,"11,8,9,1,6,13,7,3,14,15,10,2,4,5,12"
14819,commdev-image-keyboard-response,32,140209,practice,606,img/practice3_right.png,NA,Number not found in mappings,NA,TRUE,j,j,NA,NA,NA,1,6,"11,8,9,1,6,13,7,3,14,15,10,2,4,5,12"
14819,commdev-image-keyboard-response,33,141460,practice,524,img/practice4_right.png,NA,Number not found in mappings,NA,TRUE,j,j,NA,NA,NA,1,6,"11,8,9,1,6,13,7,3,14,15,10,2,4,5,12"
14819,commdev-image-keyboard-response,34,142711,practice,533,img/practice1_left.png,NA,Number not found in mappings,NA,TRUE,f,f,NA,NA,NA,1,6,"11,8,9,1,6,13,7,3,14,15,10,2,4,5,12"
14819,commdev-instructions,35,154331,NA,2067,"<p>Great job with the practice round.</p><p>During real missions, you won't know whether you pressed the right or wrong key for each planet.</p><p>But between missions, we will tell you how you did overall.</p>",NA,NA,NA,NA,NA,NA,NA,NA,NA,1,6,"11,8,9,1,6,13,7,3,14,15,10,2,4,5,12"
14819,commdev-instructions,36,166565,NA,3994,<p>Try your best! You will be paid a bonus based on how many correct responses you make!</p><p>Responses that are too slow will not count toward your bonus.</p>,NA,NA,NA,NA,NA,NA,NA,NA,NA,1,6,"11,8,9,1,6,13,7,3,14,15,10,2,4,5,12"
14819,commdev-instructions,37,174314,NA,1549.999999999971,"<p>You are almost ready to start the real game.</p><p> First, we are going to ask you some questions about how the game works.</p>",NA,NA,NA,NA,NA,NA,NA,NA,NA,1,6,"11,8,9,1,6,13,7,3,14,15,10,2,4,5,12"
14819,commdev-instructions,46,264265,NA,1548,"<p> Nice work! It is now time to start the real game.<p></p>You will go on two missions to record wind directions of different planets.<p></p>Each one will take about 5 minutes. You will get to take a break between missions.<p><p> Remember, press <strong>F</strong> or <strong>J</strong> depending on the wind direction. Good luck!<br><img src=""img/categorize_planet_example.png""",NA,NA,NA,NA,NA,NA,NA,NA,NA,1,6,"11,8,9,1,6,13,7,3,14,15,10,2,4,5,12"
14819,commdev-image-keyboard-response,48,271612,learnblock1,976,img/planet12_left.png,12,Community 3,NA,TRUE,f,f,NA,NA,NA,1,6,"11,8,9,1,6,13,7,3,14,15,10,2,4,5,12"
14819,commdev-image-keyboard-response,49,272863,learnblock1,652,img/planet5_left.png,5,Community 3,NA,TRUE,f,f,NA,NA,NA,1,6,"11,8,9,1,6,13,7,3,14,15,10,2,4,5,12"
14819,commdev-image-keyboard-response,50,274114,learnblock1,586,img/planet12_left.png,12,Community 3,NA,TRUE,f,f,NA,NA,NA,1,6,"11,8,9,1,6,13,7,3,14,15,10,2,4,5,12"
14819,commdev-image-keyboard-response,51,275365,learnblock1,652,img/planet4_left.png,4,Community 3,NA,TRUE,f,f,NA,NA,NA,1,6,"11,8,9,1,6,13,7,3,14,15,10,2,4,5,12"
14819,commdev-image-keyboard-response,52,276617,learnblock1,730.0000000000582,img/planet5_left.png,5,Community 3,NA,FALSE,j,f,NA,NA,NA,1,6,"11,8,9,1,6,13,7,3,14,15,10,2,4,5,12"
14819,commdev-image-keyboard-response,53,277869,learnblock1,633,img/planet12_left.png,12,Community 3,NA,TRUE,f,f,NA,NA,NA,1,6,"11,8,9,1,6,13,7,3,14,15,10,2,4,5,12"
14819,commdev-image-keyboard-response,54,279121,learnblock1,647.9999999999418,img/planet2_left.png,2,Community 3,NA,TRUE,f,f,NA,NA,NA,1,6,"11,8,9,1,6,13,7,3,14,15,10,2,4,5,12"
14819,commdev-image-keyboard-response,55,280372,learnblock1,786,img/planet12_right.png,12,Community 3,NA,TRUE,j,j,NA,NA,NA,1,6,"11,8,9,1,6,13,7,3,14,15,10,2,4,5,12"
14819,commdev-image-keyboard-response,56,281623,learnblock1,651,img/planet5_right.png,5,Community 3,NA,TRUE,j,j,NA,NA,NA,1,6,"11,8,9,1,6,13,7,3,14,15,10,2,4,5,12"
14819,commdev-image-keyboard-response,57,282874,learnblock1,774,img/planet12_left.png,12,Community 3,NA,TRUE,f,f,NA,NA,NA,1,6,"11,8,9,1,6,13,7,3,14,15,10,2,4,5,12"
14819,commdev-image-keyboard-response,58,284125,learnblock1,695,img/planet10_left.png,10,Community 3,NA,TRUE,f,f,NA,NA,NA,1,6,"11,8,9,1,6,13,7,3,14,15,10,2,4,5,12"
14819,commdev-image-keyboard-response,59,285376,learnblock1,652,img/planet12_left.png,12,Community 3,NA,TRUE,f,f,NA,NA,NA,1,6,"11,8,9,1,6,13,7,3,14,15,10,2,4,5,12"
14819,commdev-image-keyboard-response,60,286627,learnblock1,721,img/planet4_right.png,4,Community 3,NA,TRUE,j,j,NA,NA,NA,1,6,"11,8,9,1,6,13,7,3,14,15,10,2,4,5,12"
14819,commdev-image-keyboard-response,61,287878,learnblock1,652,img/planet2_left.png,2,Community 3,NA,TRUE,f,f,NA,NA,NA,1,6,"11,8,9,1,6,13,7,3,14,15,10,2,4,5,12"
14819,commdev-image-keyboard-response,62,289129,learnblock1,673,img/planet5_right.png,5,Community 3,NA,TRUE,j,j,NA,NA,NA,1,6,"11,8,9,1,6,13,7,3,14,15,10,2,4,5,12"
14819,commdev-image-keyboard-response,63,290380,learnblock1,661,img/planet4_left.png,4,Community 3,NA,TRUE,f,f,NA,NA,NA,1,6,"11,8,9,1,6,13,7,3,14,15,10,2,4,5,12"
14819,commdev-image-keyboard-response,64,291631,learnblock1,627,img/planet2_right.png,2,Community 3,NA,TRUE,j,j,NA,NA,NA,1,6,"11,8,9,1,6,13,7,3,14,15,10,2,4,5,12"
14819,commdev-image-keyboard-response,65,292882,learnblock1,577.9999999999418,img/planet12_left.png,12,Community 3,NA,TRUE,f,f,NA,NA,NA,1,6,"11,8,9,1,6,13,7,3,14,15,10,2,4,5,12"
14819,commdev-image-keyboard-response,66,294133,learnblock1,631,img/planet10_left.png,10,Community 3,NA,TRUE,f,f,NA,NA,NA,1,6,"11,8,9,1,6,13,7,3,14,15,10,2,4,5,12"
14819,commdev-image-keyboard-response,67,295384,learnblock1,628,img/planet12_right.png,12,Community 3,NA,TRUE,j,j,NA,NA,NA,1,6,"11,8,9,1,6,13,7,3,14,15,10,2,4,5,12"
14819,commdev-image-keyboard-response,68,296635,learnblock1,592,img/planet10_left.png,10,Community 3,NA,TRUE,f,f,NA,NA,NA,1,6,"11,8,9,1,6,13,7,3,14,15,10,2,4,5,12"
14819,commdev-image-keyboard-response,69,297885,learnblock1,648,img/planet4_left.png,4,Community 3,NA,TRUE,f,f,NA,NA,NA,1,6,"11,8,9,1,6,13,7,3,14,15,10,2,4,5,12"
14819,commdev-image-keyboard-response,70,299137,learnblock1,710.0000000000582,img/planet12_left.png,12,Community 3,NA,TRUE,f,f,NA,NA,NA,1,6,"11,8,9,1,6,13,7,3,14,15,10,2,4,5,12"
14819,commdev-image-keyboard-response,71,300387,learnblock1,622,img/planet4_left.png,4,Community 3,NA,TRUE,f,f,NA,NA,NA,1,6,"11,8,9,1,6,13,7,3,14,15,10,2,4,5,12"
14819,commdev-image-keyboard-response,72,301638,learnblock1,565.0000000000582,img/planet2_left.png,2,Community 3,NA,TRUE,f,f,NA,NA,NA,1,6,"11,8,9,1,6,13,7,3,14,15,10,2,4,5,12"
14819,commdev-image-keyboard-response,73,302890,learnblock1,672,img/planet5_left.png,5,Community 3,NA,TRUE,f,f,NA,NA,NA,1,6,"11,8,9,1,6,13,7,3,14,15,10,2,4,5,12"
14819,commdev-image-keyboard-response,74,304141,learnblock1,591,img/planet10_left.png,10,Community 3,NA,TRUE,f,f,NA,NA,NA,1,6,"11,8,9,1,6,13,7,3,14,15,10,2,4,5,12"
14819,commdev-image-keyboard-response,75,305392,learnblock1,695,img/planet12_right.png,12,Community 3,NA,TRUE,j,j,NA,NA,NA,1,6,"11,8,9,1,6,13,7,3,14,15,10,2,4,5,12"
14819,commdev-image-keyboard-response,76,306643,learnblock1,603,img/planet5_left.png,5,Community 3,NA,TRUE,f,f,NA,NA,NA,1,6,"11,8,9,1,6,13,7,3,14,15,10,2,4,5,12"
14819,commdev-image-keyboard-response,77,307894,learnblock1,679.9999999999418,img/planet4_left.png,4,Community 3,NA,TRUE,f,f,NA,NA,NA,1,6,"11,8,9,1,6,13,7,3,14,15,10,2,4,5,12"
14819,commdev-image-keyboard-response,78,309146,learnblock1,699,img/planet5_right.png,5,Community 3,NA,TRUE,j,j,NA,NA,NA,1,6,"11,8,9,1,6,13,7,3,14,15,10,2,4,5,12"
14819,commdev-image-keyboard-response,79,310398,learnblock1,822,img/planet4_right.png,4,Community 3,NA,TRUE,j,j,NA,NA,NA,1,6,"11,8,9,1,6,13,7,3,14,15,10,2,4,5,12"
14819,commdev-image-keyboard-response,80,311649,learnblock1,691,img/planet12_right.png,12,Community 3,NA,TRUE,j,j,NA,NA,NA,1,6,"11,8,9,1,6,13,7,3,14,15,10,2,4,5,12"
14819,commdev-image-keyboard-response,81,312900,learnblock1,703.0000000000582,img/planet2_right.png,2,Community 3,NA,TRUE,j,j,NA,NA,NA,1,6,"11,8,9,1,6,13,7,3,14,15,10,2,4,5,12"
14819,commdev-image-keyboard-response,82,314151,learnblock1,584,img/planet5_left.png,5,Community 3,NA,TRUE,f,f,NA,NA,NA,1,6,"11,8,9,1,6,13,7,3,14,15,10,2,4,5,12"
14819,commdev-image-keyboard-response,83,315402,learnblock1,611,img/planet12_right.png,12,Community 3,NA,TRUE,j,j,NA,NA,NA,1,6,"11,8,9,1,6,13,7,3,14,15,10,2,4,5,12"
14819,commdev-image-keyboard-response,84,316653,learnblock1,535,img/planet4_left.png,4,Community 3,NA,TRUE,f,f,NA,NA,NA,1,6,"11,8,9,1,6,13,7,3,14,15,10,2,4,5,12"
14819,commdev-image-keyboard-response,85,317904,learnblock1,600,img/planet2_right.png,2,Community 3,NA,TRUE,j,j,NA,NA,NA,1,6,"11,8,9,1,6,13,7,3,14,15,10,2,4,5,12"
14819,commdev-image-keyboard-response,86,319155,learnblock1,590.0000000000582,img/planet12_right.png,12,Community 3,NA,FALSE,f,j,NA,NA,NA,1,6,"11,8,9,1,6,13,7,3,14,15,10,2,4,5,12"
14819,commdev-image-keyboard-response,87,320406,learnblock1,620.9999999999418,img/planet4_left.png,4,Community 3,NA,TRUE,f,f,NA,NA,NA,1,6,"11,8,9,1,6,13,7,3,14,15,10,2,4,5,12"
14819,commdev-image-keyboard-response,88,321657,learnblock1,585,img/planet10_left.png,10,Community 3,NA,TRUE,f,f,NA,NA,NA,1,6,"11,8,9,1,6,13,7,3,14,15,10,2,4,5,12"
14819,commdev-image-keyboard-response,89,322908,learnblock1,651,img/planet4_right.png,4,Community 3,NA,TRUE,j,j,NA,NA,NA,1,6,"11,8,9,1,6,13,7,3,14,15,10,2,4,5,12"
14819,commdev-image-keyboard-response,90,324159,learnblock1,605,img/planet12_right.png,12,Community 3,NA,TRUE,j,j,NA,NA,NA,1,6,"11,8,9,1,6,13,7,3,14,15,10,2,4,5,12"
14819,commdev-image-keyboard-response,91,325410,learnblock1,571,img/planet10_left.png,10,Community 3,NA,TRUE,f,f,NA,NA,NA,1,6,"11,8,9,1,6,13,7,3,14,15,10,2,4,5,12"
14819,commdev-image-keyboard-response,92,326661,learnblock1,590,img/planet12_left.png,12,Community 3,NA,TRUE,f,f,NA,NA,NA,1,6,"11,8,9,1,6,13,7,3,14,15,10,2,4,5,12"
14819,commdev-image-keyboard-response,93,327915,learnblock1,628,img/planet4_right.png,4,Community 3,NA,TRUE,j,j,NA,NA,NA,1,6,"11,8,9,1,6,13,7,3,14,15,10,2,4,5,12"
14819,commdev-image-keyboard-response,94,329166,learnblock1,658,img/planet12_right.png,12,Community 3,NA,TRUE,j,j,NA,NA,NA,1,6,"11,8,9,1,6,13,7,3,14,15,10,2,4,5,12"
14819,commdev-image-keyboard-response,95,330417,learnblock1,584,img/planet10_right.png,10,Community 3,NA,TRUE,j,j,NA,NA,NA,1,6,"11,8,9,1,6,13,7,3,14,15,10,2,4,5,12"
14819,commdev-image-keyboard-response,96,331668,learnblock1,703.9999999999418,img/planet4_right.png,4,Community 3,NA,TRUE,j,j,NA,NA,NA,1,6,"11,8,9,1,6,13,7,3,14,15,10,2,4,5,12"
14819,commdev-image-keyboard-response,97,332920,learnblock1,633,img/planet5_right.png,5,Community 3,NA,TRUE,j,j,NA,NA,NA,1,6,"11,8,9,1,6,13,7,3,14,15,10,2,4,5,12"
14819,commdev-image-keyboard-response,98,334173,learnblock1,553,img/planet4_right.png,4,Community 3,NA,TRUE,j,j,NA,NA,NA,1,6,"11,8,9,1,6,13,7,3,14,15,10,2,4,5,12"
14819,commdev-image-keyboard-response,99,335424,learnblock1,668.0000000000582,img/planet12_left.png,12,Community 3,NA,TRUE,f,f,NA,NA,NA,1,6,"11,8,9,1,6,13,7,3,14,15,10,2,4,5,12"
14819,commdev-image-keyboard-response,100,336675,learnblock1,662,img/planet4_left.png,4,Community 3,NA,TRUE,f,f,NA,NA,NA,1,6,"11,8,9,1,6,13,7,3,14,15,10,2,4,5,12"
14819,commdev-image-keyboard-response,101,337926,learnblock1,544,img/planet12_left.png,12,Community 3,NA,TRUE,f,f,NA,NA,NA,1,6,"11,8,9,1,6,13,7,3,14,15,10,2,4,5,12"
14819,commdev-image-keyboard-response,102,339177,learnblock1,639,img/planet10_right.png,10,Community 3,NA,FALSE,f,j,NA,NA,NA,1,6,"11,8,9,1,6,13,7,3,14,15,10,2,4,5,12"
14819,commdev-image-keyboard-response,103,340428,learnblock1,641,img/planet4_left.png,4,Community 3,NA,TRUE,f,f,NA,NA,NA,1,6,"11,8,9,1,6,13,7,3,14,15,10,2,4,5,12"
14819,commdev-image-keyboard-response,104,341679,learnblock1,814,img/planet5_left.png,5,Community 3,NA,TRUE,f,f,NA,NA,NA,1,6,"11,8,9,1,6,13,7,3,14,15,10,2,4,5,12"
14819,commdev-image-keyboard-response,105,342930,learnblock1,687,img/planet4_right.png,4,Community 3,NA,TRUE,j,j,NA,NA,NA,1,6,"11,8,9,1,6,13,7,3,14,15,10,2,4,5,12"
14819,commdev-image-keyboard-response,106,344181,learnblock1,671.9999999999418,img/planet5_left.png,5,Community 3,NA,TRUE,f,f,NA,NA,NA,1,6,"11,8,9,1,6,13,7,3,14,15,10,2,4,5,12"
14819,commdev-image-keyboard-response,107,345432,learnblock1,703,img/planet4_left.png,4,Community 3,NA,TRUE,f,f,NA,NA,NA,1,6,"11,8,9,1,6,13,7,3,14,15,10,2,4,5,12"
14819,commdev-image-keyboard-response,108,346683,learnblock1,649,img/planet5_right.png,5,Community 3,NA,TRUE,j,j,NA,NA,NA,1,6,"11,8,9,1,6,13,7,3,14,15,10,2,4,5,12"
14819,commdev-image-keyboard-response,109,347934,learnblock1,597,img/planet2_right.png,2,Community 3,NA,TRUE,j,j,NA,NA,NA,1,6,"11,8,9,1,6,13,7,3,14,15,10,2,4,5,12"
14819,commdev-image-keyboard-response,110,349185,learnblock1,679,img/planet4_left.png,4,Community 3,NA,TRUE,f,f,NA,NA,NA,1,6,"11,8,9,1,6,13,7,3,14,15,10,2,4,5,12"
14819,commdev-image-keyboard-response,111,350436,learnblock1,637,img/planet10_right.png,10,Community 3,NA,TRUE,j,j,NA,NA,NA,1,6,"11,8,9,1,6,13,7,3,14,15,10,2,4,5,12"
14819,commdev-image-keyboard-response,112,351687,learnblock1,627,img/planet4_right.png,4,Community 3,NA,TRUE,j,j,NA,NA,NA,1,6,"11,8,9,1,6,13,7,3,14,15,10,2,4,5,12"
14819,commdev-image-keyboard-response,113,352938,learnblock1,595,img/planet5_right.png,5,Community 3,NA,TRUE,j,j,NA,NA,NA,1,6,"11,8,9,1,6,13,7,3,14,15,10,2,4,5,12"
14819,commdev-image-keyboard-response,114,354189,learnblock1,634,img/planet12_right.png,12,Community 3,NA,TRUE,j,j,NA,NA,NA,1,6,"11,8,9,1,6,13,7,3,14,15,10,2,4,5,12"
14819,commdev-image-keyboard-response,115,355439,learnblock1,623,img/planet4_left.png,4,Community 3,NA,TRUE,f,f,NA,NA,NA,1,6,"11,8,9,1,6,13,7,3,14,15,10,2,4,5,12"
14819,commdev-image-keyboard-response,116,356690,learnblock1,649,img/planet5_right.png,5,Community 3,NA,TRUE,j,j,NA,NA,NA,1,6,"11,8,9,1,6,13,7,3,14,15,10,2,4,5,12"
14819,commdev-image-keyboard-response,117,357941,learnblock1,681,img/planet10_right.png,10,Community 3,NA,TRUE,j,j,NA,NA,NA,1,6,"11,8,9,1,6,13,7,3,14,15,10,2,4,5,12"
14819,commdev-image-keyboard-response,118,359192,learnblock1,610.9999999999418,img/planet4_right.png,4,Community 3,NA,TRUE,j,j,NA,NA,NA,1,6,"11,8,9,1,6,13,7,3,14,15,10,2,4,5,12"
14819,commdev-image-keyboard-response,119,360443,learnblock1,627,img/planet2_right.png,2,Community 3,NA,TRUE,j,j,NA,NA,NA,1,6,"11,8,9,1,6,13,7,3,14,15,10,2,4,5,12"
14819,commdev-image-keyboard-response,120,361694,learnblock1,554,img/planet4_right.png,4,Community 3,NA,TRUE,j,j,NA,NA,NA,1,6,"11,8,9,1,6,13,7,3,14,15,10,2,4,5,12"
14819,commdev-image-keyboard-response,121,362945,learnblock1,609,img/planet12_left.png,12,Community 3,NA,TRUE,f,f,NA,NA,NA,1,6,"11,8,9,1,6,13,7,3,14,15,10,2,4,5,12"
14819,commdev-image-keyboard-response,122,364196,learnblock1,933,img/planet2_left.png,2,Community 3,NA,TRUE,f,f,NA,NA,NA,1,6,"11,8,9,1,6,13,7,3,14,15,10,2,4,5,12"
14819,commdev-image-keyboard-response,123,365447,learnblock1,739,img/planet5_left.png,5,Community 3,NA,TRUE,f,f,NA,NA,NA,1,6,"11,8,9,1,6,13,7,3,14,15,10,2,4,5,12"
14819,commdev-image-keyboard-response,124,366698,learnblock1,633,img/planet2_left.png,2,Community 3,NA,TRUE,f,f,NA,NA,NA,1,6,"11,8,9,1,6,13,7,3,14,15,10,2,4,5,12"
14819,commdev-image-keyboard-response,125,367949,learnblock1,680,img/planet5_right.png,5,Community 3,NA,TRUE,j,j,NA,NA,NA,1,6,"11,8,9,1,6,13,7,3,14,15,10,2,4,5,12"
14819,commdev-image-keyboard-response,126,369200,learnblock1,610,img/planet4_left.png,4,Community 3,NA,TRUE,f,f,NA,NA,NA,1,6,"11,8,9,1,6,13,7,3,14,15,10,2,4,5,12"
14819,commdev-image-keyboard-response,127,370451,learnblock1,599,img/planet2_left.png,2,Community 3,NA,TRUE,f,f,NA,NA,NA,1,6,"11,8,9,1,6,13,7,3,14,15,10,2,4,5,12"
14819,commdev-image-keyboard-response,128,371702,learnblock1,672,img/planet3_right.png,3,Community 2,NA,TRUE,j,j,NA,NA,NA,1,6,"11,8,9,1,6,13,7,3,14,15,10,2,4,5,12"
14819,commdev-image-keyboard-response,129,372953,learnblock1,631,img/planet2_left.png,2,Community 3,NA,TRUE,f,f,NA,NA,NA,1,6,"11,8,9,1,6,13,7,3,14,15,10,2,4,5,12"
14819,commdev-image-keyboard-response,130,374204,learnblock1,729.9999999999418,img/planet4_left.png,4,Community 3,NA,TRUE,f,f,NA,NA,NA,1,6,"11,8,9,1,6,13,7,3,14,15,10,2,4,5,12"
14819,commdev-image-keyboard-response,131,375455,learnblock1,651,img/planet2_right.png,2,Community 3,NA,TRUE,j,j,NA,NA,NA,1,6,"11,8,9,1,6,13,7,3,14,15,10,2,4,5,12"
14819,commdev-image-keyboard-response,132,376706,learnblock1,654,img/planet3_right.png,3,Community 2,NA,TRUE,j,j,NA,NA,NA,1,6,"11,8,9,1,6,13,7,3,14,15,10,2,4,5,12"
14819,commdev-image-keyboard-response,133,377957,learnblock1,688,img/planet14_left.png,14,Community 2,NA,TRUE,f,f,NA,NA,NA,1,6,"11,8,9,1,6,13,7,3,14,15,10,2,4,5,12"
14819,commdev-image-keyboard-response,134,379208,learnblock1,657.0000000000582,img/planet7_left.png,7,Community 2,NA,TRUE,f,f,NA,NA,NA,1,6,"11,8,9,1,6,13,7,3,14,15,10,2,4,5,12"
14819,commdev-image-keyboard-response,135,380459,learnblock1,602,img/planet15_left.png,15,Community 2,NA,TRUE,f,f,NA,NA,NA,1,6,"11,8,9,1,6,13,7,3,14,15,10,2,4,5,12"
14819,commdev-image-keyboard-response,136,381710,learnblock1,738,img/planet3_left.png,3,Community 2,NA,TRUE,f,f,NA,NA,NA,1,6,"11,8,9,1,6,13,7,3,14,15,10,2,4,5,12"
14819,commdev-image-keyboard-response,137,382961,learnblock1,642.0000000000582,img/planet7_left.png,7,Community 2,NA,TRUE,f,f,NA,NA,NA,1,6,"11,8,9,1,6,13,7,3,14,15,10,2,4,5,12"
14819,commdev-image-keyboard-response,138,384212,learnblock1,736,img/planet13_right.png,13,Community 2,NA,TRUE,j,j,NA,NA,NA,1,6,"11,8,9,1,6,13,7,3,14,15,10,2,4,5,12"
14819,commdev-image-keyboard-response,139,385463,learnblock1,716,img/planet7_left.png,7,Community 2,NA,TRUE,f,f,NA,NA,NA,1,6,"11,8,9,1,6,13,7,3,14,15,10,2,4,5,12"
14819,commdev-image-keyboard-response,140,386714,learnblock1,779,img/planet3_left.png,3,Community 2,NA,TRUE,f,f,NA,NA,NA,1,6,"11,8,9,1,6,13,7,3,14,15,10,2,4,5,12"
14819,commdev-image-keyboard-response,141,387965,learnblock1,672,img/planet15_left.png,15,Community 2,NA,TRUE,f,f,NA,NA,NA,1,6,"11,8,9,1,6,13,7,3,14,15,10,2,4,5,12"
14819,commdev-image-keyboard-response,142,389216,learnblock1,671,img/planet7_left.png,7,Community 2,NA,TRUE,f,f,NA,NA,NA,1,6,"11,8,9,1,6,13,7,3,14,15,10,2,4,5,12"
14819,commdev-image-keyboard-response,143,390467,learnblock1,755,img/planet13_left.png,13,Community 2,NA,TRUE,f,f,NA,NA,NA,1,6,"11,8,9,1,6,13,7,3,14,15,10,2,4,5,12"
14819,commdev-image-keyboard-response,144,391718,learnblock1,732,img/planet15_right.png,15,Community 2,NA,TRUE,j,j,NA,NA,NA,1,6,"11,8,9,1,6,13,7,3,14,15,10,2,4,5,12"
14819,commdev-image-keyboard-response,145,392969,learnblock1,663,img/planet14_left.png,14,Community 2,NA,TRUE,f,f,NA,NA,NA,1,6,"11,8,9,1,6,13,7,3,14,15,10,2,4,5,12"
14819,commdev-image-keyboard-response,146,394220,learnblock1,631,img/planet7_left.png,7,Community 2,NA,TRUE,f,f,NA,NA,NA,1,6,"11,8,9,1,6,13,7,3,14,15,10,2,4,5,12"
14819,commdev-image-keyboard-response,147,395471,learnblock1,634,img/planet15_right.png,15,Community 2,NA,TRUE,j,j,NA,NA,NA,1,6,"11,8,9,1,6,13,7,3,14,15,10,2,4,5,12"
14819,commdev-image-keyboard-response,148,396722,learnblock1,733,img/planet3_left.png,3,Community 2,NA,TRUE,f,f,NA,NA,NA,1,6,"11,8,9,1,6,13,7,3,14,15,10,2,4,5,12"
14819,commdev-image-keyboard-response,149,397973,learnblock1,730,img/planet14_right.png,14,Community 2,NA,TRUE,j,j,NA,NA,NA,1,6,"11,8,9,1,6,13,7,3,14,15,10,2,4,5,12"
14819,commdev-image-keyboard-response,150,399224,learnblock1,645,img/planet3_left.png,3,Community 2,NA,TRUE,f,f,NA,NA,NA,1,6,"11,8,9,1,6,13,7,3,14,15,10,2,4,5,12"
14819,commdev-image-keyboard-response,151,400475,learnblock1,594,img/planet2_left.png,2,Community 3,NA,TRUE,f,f,NA,NA,NA,1,6,"11,8,9,1,6,13,7,3,14,15,10,2,4,5,12"
14819,commdev-image-keyboard-response,152,401726,learnblock1,753,img/planet3_left.png,3,Community 2,NA,TRUE,f,f,NA,NA,NA,1,6,"11,8,9,1,6,13,7,3,14,15,10,2,4,5,12"
14819,commdev-image-keyboard-response,153,402977,learnblock1,690,img/planet7_right.png,7,Community 2,NA,TRUE,j,j,NA,NA,NA,1,6,"11,8,9,1,6,13,7,3,14,15,10,2,4,5,12"
14819,commdev-image-keyboard-response,154,404228,learnblock1,601,img/planet13_left.png,13,Community 2,NA,TRUE,f,f,NA,NA,NA,1,6,"11,8,9,1,6,13,7,3,14,15,10,2,4,5,12"
14819,commdev-image-keyboard-response,155,405479,learnblock1,726.9999999999418,img/planet15_left.png,15,Community 2,NA,TRUE,f,f,NA,NA,NA,1,6,"11,8,9,1,6,13,7,3,14,15,10,2,4,5,12"
14819,commdev-image-keyboard-response,156,406730,learnblock1,634,img/planet3_right.png,3,Community 2,NA,TRUE,j,j,NA,NA,NA,1,6,"11,8,9,1,6,13,7,3,14,15,10,2,4,5,12"
14819,commdev-image-keyboard-response,157,407981,learnblock1,629,img/planet15_right.png,15,Community 2,NA,TRUE,j,j,NA,NA,NA,1,6,"11,8,9,1,6,13,7,3,14,15,10,2,4,5,12"
14819,commdev-image-keyboard-response,158,409232,learnblock1,712,img/planet14_right.png,14,Community 2,NA,FALSE,f,j,NA,NA,NA,1,6,"11,8,9,1,6,13,7,3,14,15,10,2,4,5,12"
14819,commdev-image-keyboard-response,159,410483,learnblock1,670,img/planet7_left.png,7,Community 2,NA,TRUE,f,f,NA,NA,NA,1,6,"11,8,9,1,6,13,7,3,14,15,10,2,4,5,12"
14819,commdev-image-keyboard-response,160,411734,learnblock1,715.9999999999418,img/planet3_left.png,3,Community 2,NA,TRUE,f,f,NA,NA,NA,1,6,"11,8,9,1,6,13,7,3,14,15,10,2,4,5,12"
14819,commdev-image-keyboard-response,161,412985,learnblock1,666,img/planet15_right.png,15,Community 2,NA,TRUE,j,j,NA,NA,NA,1,6,"11,8,9,1,6,13,7,3,14,15,10,2,4,5,12"
14819,commdev-image-keyboard-response,162,414236,learnblock1,647.0000000000582,img/planet3_left.png,3,Community 2,NA,TRUE,f,f,NA,NA,NA,1,6,"11,8,9,1,6,13,7,3,14,15,10,2,4,5,12"
14819,commdev-image-keyboard-response,163,415487,learnblock1,740,img/planet2_right.png,2,Community 3,NA,TRUE,j,j,NA,NA,NA,1,6,"11,8,9,1,6,13,7,3,14,15,10,2,4,5,12"
14819,commdev-image-keyboard-response,164,416738,learnblock1,938,img/planet12_right.png,12,Community 3,NA,TRUE,j,j,NA,NA,NA,1,6,"11,8,9,1,6,13,7,3,14,15,10,2,4,5,12"
14819,commdev-image-keyboard-response,165,417989,learnblock1,619,img/planet2_right.png,2,Community 3,NA,TRUE,j,j,NA,NA,NA,1,6,"11,8,9,1,6,13,7,3,14,15,10,2,4,5,12"
14819,commdev-image-keyboard-response,166,419240,learnblock1,695,img/planet12_left.png,12,Community 3,NA,TRUE,f,f,NA,NA,NA,1,6,"11,8,9,1,6,13,7,3,14,15,10,2,4,5,12"
14819,commdev-image-keyboard-response,167,420491,learnblock1,662.9999999999418,img/planet10_right.png,10,Community 3,NA,TRUE,j,j,NA,NA,NA,1,6,"11,8,9,1,6,13,7,3,14,15,10,2,4,5,12"
14819,commdev-image-keyboard-response,168,421742,learnblock1,797.0000000000582,img/planet12_left.png,12,Community 3,NA,TRUE,f,f,NA,NA,NA,1,6,"11,8,9,1,6,13,7,3,14,15,10,2,4,5,12"
14819,commdev-image-keyboard-response,169,422993,learnblock1,630,img/planet10_left.png,10,Community 3,NA,TRUE,f,f,NA,NA,NA,1,6,"11,8,9,1,6,13,7,3,14,15,10,2,4,5,12"
14819,commdev-image-keyboard-response,170,424244,learnblock1,719,img/planet6_left.png,6,Community 1,NA,TRUE,f,f,NA,NA,NA,1,6,"11,8,9,1,6,13,7,3,14,15,10,2,4,5,12"
14819,commdev-image-keyboard-response,171,425495,learnblock1,773,img/planet8_right.png,8,Community 1,NA,TRUE,j,j,NA,NA,NA,1,6,"11,8,9,1,6,13,7,3,14,15,10,2,4,5,12"
14819,commdev-image-keyboard-response,172,426746,learnblock1,763.9999999999418,img/planet1_left.png,1,Community 1,NA,TRUE,f,f,NA,NA,NA,1,6,"11,8,9,1,6,13,7,3,14,15,10,2,4,5,12"
14819,commdev-image-keyboard-response,173,427997,learnblock1,960,img/planet8_left.png,8,Community 1,NA,TRUE,f,f,NA,NA,NA,1,6,"11,8,9,1,6,13,7,3,14,15,10,2,4,5,12"
14819,commdev-image-keyboard-response,174,429247,learnblock1,767.0000000000582,img/planet1_left.png,1,Community 1,NA,TRUE,f,f,NA,NA,NA,1,6,"11,8,9,1,6,13,7,3,14,15,10,2,4,5,12"
14819,commdev-image-keyboard-response,175,430499,learnblock1,667,img/planet13_left.png,13,Community 2,NA,TRUE,f,f,NA,NA,NA,1,6,"11,8,9,1,6,13,7,3,14,15,10,2,4,5,12"
14819,commdev-image-keyboard-response,176,431750,learnblock1,700,img/planet7_left.png,7,Community 2,NA,TRUE,f,f,NA,NA,NA,1,6,"11,8,9,1,6,13,7,3,14,15,10,2,4,5,12"
14819,commdev-image-keyboard-response,177,433002,learnblock1,845,img/planet3_left.png,3,Community 2,NA,TRUE,f,f,NA,NA,NA,1,6,"11,8,9,1,6,13,7,3,14,15,10,2,4,5,12"
14819,commdev-image-keyboard-response,178,434255,learnblock1,766,img/planet2_right.png,2,Community 3,NA,TRUE,j,j,NA,NA,NA,1,6,"11,8,9,1,6,13,7,3,14,15,10,2,4,5,12"
14819,commdev-image-keyboard-response,179,435507,learnblock1,941.9999999999418,img/planet5_right.png,5,Community 3,NA,TRUE,j,j,NA,NA,NA,1,6,"11,8,9,1,6,13,7,3,14,15,10,2,4,5,12"
14819,commdev-image-keyboard-response,180,436759,learnblock1,698,img/planet2_right.png,2,Community 3,NA,TRUE,j,j,NA,NA,NA,1,6,"11,8,9,1,6,13,7,3,14,15,10,2,4,5,12"
14819,commdev-image-keyboard-response,181,438010,learnblock1,981,img/planet12_right.png,12,Community 3,NA,TRUE,j,j,NA,NA,NA,1,6,"11,8,9,1,6,13,7,3,14,15,10,2,4,5,12"
14819,commdev-image-keyboard-response,182,439262,learnblock1,758,img/planet4_right.png,4,Community 3,NA,TRUE,j,j,NA,NA,NA,1,6,"11,8,9,1,6,13,7,3,14,15,10,2,4,5,12"
14819,commdev-image-keyboard-response,183,440514,learnblock1,776.0000000000582,img/planet5_left.png,5,Community 3,NA,TRUE,f,f,NA,NA,NA,1,6,"11,8,9,1,6,13,7,3,14,15,10,2,4,5,12"
14819,commdev-image-keyboard-response,184,441766,learnblock1,697,img/planet10_right.png,10,Community 3,NA,TRUE,j,j,NA,NA,NA,1,6,"11,8,9,1,6,13,7,3,14,15,10,2,4,5,12"
14819,commdev-image-keyboard-response,185,443017,learnblock1,668,img/planet5_left.png,5,Community 3,NA,TRUE,f,f,NA,NA,NA,1,6,"11,8,9,1,6,13,7,3,14,15,10,2,4,5,12"
14819,commdev-image-keyboard-response,186,444269,learnblock1,695,img/planet10_right.png,10,Community 3,NA,TRUE,j,j,NA,NA,NA,1,6,"11,8,9,1,6,13,7,3,14,15,10,2,4,5,12"
14819,commdev-image-keyboard-response,187,445520,learnblock1,700,img/planet4_left.png,4,Community 3,NA,TRUE,f,f,NA,NA,NA,1,6,"11,8,9,1,6,13,7,3,14,15,10,2,4,5,12"
14819,commdev-image-keyboard-response,188,446775,learnblock1,638,img/planet10_left.png,10,Community 3,NA,TRUE,f,f,NA,NA,NA,1,6,"11,8,9,1,6,13,7,3,14,15,10,2,4,5,12"
14819,commdev-image-keyboard-response,189,448026,learnblock1,881.9999999999418,img/planet12_right.png,12,Community 3,NA,TRUE,j,j,NA,NA,NA,1,6,"11,8,9,1,6,13,7,3,14,15,10,2,4,5,12"
14819,commdev-image-keyboard-response,190,449279,learnblock1,735,img/planet10_right.png,10,Community 3,NA,TRUE,j,j,NA,NA,NA,1,6,"11,8,9,1,6,13,7,3,14,15,10,2,4,5,12"
14819,commdev-image-keyboard-response,191,450530,learnblock1,667,img/planet4_left.png,4,Community 3,NA,TRUE,f,f,NA,NA,NA,1,6,"11,8,9,1,6,13,7,3,14,15,10,2,4,5,12"
14819,commdev-image-keyboard-response,192,451783,learnblock1,608.9999999999418,img/planet2_left.png,2,Community 3,NA,TRUE,f,f,NA,NA,NA,1,6,"11,8,9,1,6,13,7,3,14,15,10,2,4,5,12"
14819,commdev-image-keyboard-response,193,453035,learnblock1,642.0000000000582,img/planet4_right.png,4,Community 3,NA,TRUE,j,j,NA,NA,NA,1,6,"11,8,9,1,6,13,7,3,14,15,10,2,4,5,12"
14819,commdev-image-keyboard-response,194,454286,learnblock1,617.0000000000582,img/planet2_left.png,2,Community 3,NA,TRUE,f,f,NA,NA,NA,1,6,"11,8,9,1,6,13,7,3,14,15,10,2,4,5,12"
14819,commdev-image-keyboard-response,195,455537,learnblock1,699,img/planet12_right.png,12,Community 3,NA,TRUE,j,j,NA,NA,NA,1,6,"11,8,9,1,6,13,7,3,14,15,10,2,4,5,12"
14819,commdev-image-keyboard-response,196,456789,learnblock1,592,img/planet5_left.png,5,Community 3,NA,TRUE,f,f,NA,NA,NA,1,6,"11,8,9,1,6,13,7,3,14,15,10,2,4,5,12"
14819,commdev-image-keyboard-response,197,458040,learnblock1,582,img/planet10_left.png,10,Community 3,NA,TRUE,f,f,NA,NA,NA,1,6,"11,8,9,1,6,13,7,3,14,15,10,2,4,5,12"
14819,commdev-image-keyboard-response,198,459291,learnblock1,752.9999999999418,img/planet5_left.png,5,Community 3,NA,TRUE,f,f,NA,NA,NA,1,6,"11,8,9,1,6,13,7,3,14,15,10,2,4,5,12"
14819,commdev-image-keyboard-response,199,460542,learnblock1,651,img/planet10_left.png,10,Community 3,NA,TRUE,f,f,NA,NA,NA,1,6,"11,8,9,1,6,13,7,3,14,15,10,2,4,5,12"
14819,commdev-image-keyboard-response,200,461793,learnblock1,750,img/planet4_left.png,4,Community 3,NA,TRUE,f,f,NA,NA,NA,1,6,"11,8,9,1,6,13,7,3,14,15,10,2,4,5,12"
14819,commdev-image-keyboard-response,201,463044,learnblock1,638,img/planet5_right.png,5,Community 3,NA,FALSE,f,j,NA,NA,NA,1,6,"11,8,9,1,6,13,7,3,14,15,10,2,4,5,12"
14819,commdev-image-keyboard-response,202,464296,learnblock1,906,img/planet12_right.png,12,Community 3,NA,TRUE,j,j,NA,NA,NA,1,6,"11,8,9,1,6,13,7,3,14,15,10,2,4,5,12"
14819,commdev-image-keyboard-response,203,465547,learnblock1,764.9999999999418,img/planet10_left.png,10,Community 3,NA,TRUE,f,f,NA,NA,NA,1,6,"11,8,9,1,6,13,7,3,14,15,10,2,4,5,12"
14819,commdev-image-keyboard-response,204,466798,learnblock1,769,img/planet6_left.png,6,Community 1,NA,TRUE,f,f,NA,NA,NA,1,6,"11,8,9,1,6,13,7,3,14,15,10,2,4,5,12"
14819,commdev-image-keyboard-response,205,468049,learnblock1,851,img/planet9_right.png,9,Community 1,NA,TRUE,j,j,NA,NA,NA,1,6,"11,8,9,1,6,13,7,3,14,15,10,2,4,5,12"
14819,commdev-image-keyboard-response,206,469300,learnblock1,840,img/planet6_right.png,6,Community 1,NA,TRUE,j,j,NA,NA,NA,1,6,"11,8,9,1,6,13,7,3,14,15,10,2,4,5,12"
14819,commdev-image-keyboard-response,207,470551,learnblock1,886,img/planet11_right.png,11,Community 1,NA,TRUE,j,j,NA,NA,NA,1,6,"11,8,9,1,6,13,7,3,14,15,10,2,4,5,12"
14819,commdev-image-keyboard-response,208,471802,learnblock1,871,img/planet9_right.png,9,Community 1,NA,TRUE,j,j,NA,NA,NA,1,6,"11,8,9,1,6,13,7,3,14,15,10,2,4,5,12"
14819,commdev-image-keyboard-response,209,473053,learnblock1,680,img/planet8_right.png,8,Community 1,NA,TRUE,j,j,NA,NA,NA,1,6,"11,8,9,1,6,13,7,3,14,15,10,2,4,5,12"
14819,commdev-image-keyboard-response,210,474305,learnblock1,570,img/planet9_right.png,9,Community 1,NA,TRUE,j,j,NA,NA,NA,1,6,"11,8,9,1,6,13,7,3,14,15,10,2,4,5,12"
14819,commdev-image-keyboard-response,211,475557,learnblock1,627,img/planet11_left.png,11,Community 1,NA,TRUE,f,f,NA,NA,NA,1,6,"11,8,9,1,6,13,7,3,14,15,10,2,4,5,12"
14819,commdev-image-keyboard-response,212,476809,learnblock1,798,img/planet8_left.png,8,Community 1,NA,TRUE,f,f,NA,NA,NA,1,6,"11,8,9,1,6,13,7,3,14,15,10,2,4,5,12"
14819,commdev-image-keyboard-response,213,478061,learnblock1,946.0000000000582,img/planet6_right.png,6,Community 1,NA,TRUE,j,j,NA,NA,NA,1,6,"11,8,9,1,6,13,7,3,14,15,10,2,4,5,12"
14819,commdev-image-keyboard-response,214,479312,learnblock1,727,img/planet9_right.png,9,Community 1,NA,TRUE,j,j,NA,NA,NA,1,6,"11,8,9,1,6,13,7,3,14,15,10,2,4,5,12"
14819,commdev-image-keyboard-response,215,480563,learnblock1,614,img/planet6_right.png,6,Community 1,NA,TRUE,j,j,NA,NA,NA,1,6,"11,8,9,1,6,13,7,3,14,15,10,2,4,5,12"
14819,commdev-image-keyboard-response,216,481814,learnblock1,800.0000000000582,img/planet8_right.png,8,Community 1,NA,TRUE,j,j,NA,NA,NA,1,6,"11,8,9,1,6,13,7,3,14,15,10,2,4,5,12"
14819,commdev-image-keyboard-response,217,483065,learnblock1,672,img/planet11_left.png,11,Community 1,NA,TRUE,f,f,NA,NA,NA,1,6,"11,8,9,1,6,13,7,3,14,15,10,2,4,5,12"
14819,commdev-image-keyboard-response,218,484317,learnblock1,594,img/planet9_right.png,9,Community 1,NA,TRUE,j,j,NA,NA,NA,1,6,"11,8,9,1,6,13,7,3,14,15,10,2,4,5,12"
14819,commdev-image-keyboard-response,219,485569,learnblock1,572,img/planet11_left.png,11,Community 1,NA,TRUE,f,f,NA,NA,NA,1,6,"11,8,9,1,6,13,7,3,14,15,10,2,4,5,12"
14819,commdev-image-keyboard-response,220,486821,learnblock1,759.0000000000582,img/planet8_left.png,8,Community 1,NA,TRUE,f,f,NA,NA,NA,1,6,"11,8,9,1,6,13,7,3,14,15,10,2,4,5,12"
14819,commdev-image-keyboard-response,221,488072,learnblock1,640,img/planet9_left.png,9,Community 1,NA,FALSE,j,f,NA,NA,NA,1,6,"11,8,9,1,6,13,7,3,14,15,10,2,4,5,12"
14819,commdev-image-keyboard-response,222,489323,learnblock1,653.9999999999418,img/planet6_right.png,6,Community 1,NA,TRUE,j,j,NA,NA,NA,1,6,"11,8,9,1,6,13,7,3,14,15,10,2,4,5,12"
14819,commdev-image-keyboard-response,223,490574,learnblock1,602,img/planet10_right.png,10,Community 3,NA,TRUE,j,j,NA,NA,NA,1,6,"11,8,9,1,6,13,7,3,14,15,10,2,4,5,12"
14819,commdev-image-keyboard-response,224,491825,learnblock1,974.0000000000582,img/planet4_right.png,4,Community 3,NA,TRUE,j,j,NA,NA,NA,1,6,"11,8,9,1,6,13,7,3,14,15,10,2,4,5,12"
14819,commdev-image-keyboard-response,225,493076,learnblock1,864,img/planet12_right.png,12,Community 3,NA,TRUE,j,j,NA,NA,NA,1,6,"11,8,9,1,6,13,7,3,14,15,10,2,4,5,12"
14819,commdev-image-keyboard-response,226,494327,learnblock1,620,img/planet10_right.png,10,Community 3,NA,TRUE,j,j,NA,NA,NA,1,6,"11,8,9,1,6,13,7,3,14,15,10,2,4,5,12"
14819,commdev-image-keyboard-response,227,495578,learnblock1,666,img/planet12_left.png,12,Community 3,NA,TRUE,f,f,NA,NA,NA,1,6,"11,8,9,1,6,13,7,3,14,15,10,2,4,5,12"
14819,commdev-image-keyboard-response,228,496829,learnblock1,897,img/planet4_left.png,4,Community 3,NA,TRUE,f,f,NA,NA,NA,1,6,"11,8,9,1,6,13,7,3,14,15,10,2,4,5,12"
14819,commdev-image-keyboard-response,229,498080,learnblock1,654,img/planet10_left.png,10,Community 3,NA,TRUE,f,f,NA,NA,NA,1,6,"11,8,9,1,6,13,7,3,14,15,10,2,4,5,12"
14819,commdev-image-keyboard-response,230,499331,learnblock1,701.0000000000582,img/planet6_right.png,6,Community 1,NA,TRUE,j,j,NA,NA,NA,1,6,"11,8,9,1,6,13,7,3,14,15,10,2,4,5,12"
14819,commdev-image-keyboard-response,231,500582,learnblock1,743,img/planet9_right.png,9,Community 1,NA,TRUE,j,j,NA,NA,NA,1,6,"11,8,9,1,6,13,7,3,14,15,10,2,4,5,12"
14819,commdev-image-keyboard-response,232,501833,learnblock1,684,img/planet8_left.png,8,Community 1,NA,TRUE,f,f,NA,NA,NA,1,6,"11,8,9,1,6,13,7,3,14,15,10,2,4,5,12"
14819,commdev-image-keyboard-response,233,503084,learnblock1,670,img/planet1_left.png,1,Community 1,NA,TRUE,f,f,NA,NA,NA,1,6,"11,8,9,1,6,13,7,3,14,15,10,2,4,5,12"
14819,commdev-image-keyboard-response,234,504335,learnblock1,863.9999999999418,img/planet8_left.png,8,Community 1,NA,TRUE,f,f,NA,NA,NA,1,6,"11,8,9,1,6,13,7,3,14,15,10,2,4,5,12"
14819,commdev-image-keyboard-response,235,505588,learnblock1,935,img/planet11_right.png,11,Community 1,NA,TRUE,j,j,NA,NA,NA,1,6,"11,8,9,1,6,13,7,3,14,15,10,2,4,5,12"
14819,commdev-image-keyboard-response,236,506840,learnblock1,697,img/planet9_left.png,9,Community 1,NA,TRUE,f,f,NA,NA,NA,1,6,"11,8,9,1,6,13,7,3,14,15,10,2,4,5,12"
14819,commdev-image-keyboard-response,237,508091,learnblock1,870,img/planet1_left.png,1,Community 1,NA,TRUE,f,f,NA,NA,NA,1,6,"11,8,9,1,6,13,7,3,14,15,10,2,4,5,12"
14819,commdev-image-keyboard-response,238,509342,learnblock1,772.9999999999418,img/planet9_left.png,9,Community 1,NA,TRUE,f,f,NA,NA,NA,1,6,"11,8,9,1,6,13,7,3,14,15,10,2,4,5,12"
14819,commdev-image-keyboard-response,239,510593,learnblock1,737.0000000000582,img/planet6_right.png,6,Community 1,NA,TRUE,j,j,NA,NA,NA,1,6,"11,8,9,1,6,13,7,3,14,15,10,2,4,5,12"
14819,commdev-image-keyboard-response,240,511844,learnblock1,818,img/planet8_right.png,8,Community 1,NA,TRUE,j,j,NA,NA,NA,1,6,"11,8,9,1,6,13,7,3,14,15,10,2,4,5,12"
14819,commdev-image-keyboard-response,241,513095,learnblock1,702,img/planet11_right.png,11,Community 1,NA,TRUE,j,j,NA,NA,NA,1,6,"11,8,9,1,6,13,7,3,14,15,10,2,4,5,12"
14819,commdev-image-keyboard-response,242,514347,learnblock1,703.9999999999418,img/planet1_right.png,1,Community 1,NA,TRUE,j,j,NA,NA,NA,1,6,"11,8,9,1,6,13,7,3,14,15,10,2,4,5,12"
14819,commdev-image-keyboard-response,243,515599,learnblock1,742,img/planet13_right.png,13,Community 2,NA,TRUE,j,j,NA,NA,NA,1,6,"11,8,9,1,6,13,7,3,14,15,10,2,4,5,12"
14819,commdev-image-keyboard-response,244,516851,learnblock1,727.0000000001164,img/planet7_left.png,7,Community 2,NA,TRUE,f,f,NA,NA,NA,1,6,"11,8,9,1,6,13,7,3,14,15,10,2,4,5,12"
14819,commdev-image-keyboard-response,245,518102,learnblock1,780.9999999999418,img/planet3_left.png,3,Community 2,NA,TRUE,f,f,NA,NA,NA,1,6,"11,8,9,1,6,13,7,3,14,15,10,2,4,5,12"
14819,commdev-image-keyboard-response,246,519353,learnblock1,701.0000000000582,img/planet15_left.png,15,Community 2,NA,TRUE,f,f,NA,NA,NA,1,6,"11,8,9,1,6,13,7,3,14,15,10,2,4,5,12"
14819,commdev-image-keyboard-response,247,520604,learnblock1,652.0000000000582,img/planet14_left.png,14,Community 2,NA,TRUE,f,f,NA,NA,NA,1,6,"11,8,9,1,6,13,7,3,14,15,10,2,4,5,12"
14819,commdev-image-keyboard-response,248,521855,learnblock1,738.0000000000582,img/planet3_right.png,3,Community 2,NA,TRUE,j,j,NA,NA,NA,1,6,"11,8,9,1,6,13,7,3,14,15,10,2,4,5,12"
14819,commdev-image-keyboard-response,249,523106,learnblock1,646.0000000001164,img/planet2_left.png,2,Community 3,NA,TRUE,f,f,NA,NA,NA,1,6,"11,8,9,1,6,13,7,3,14,15,10,2,4,5,12"
14819,commdev-image-keyboard-response,250,524357,learnblock1,656.9999999999418,img/planet5_right.png,5,Community 3,NA,TRUE,j,j,NA,NA,NA,1,6,"11,8,9,1,6,13,7,3,14,15,10,2,4,5,12"
14819,commdev-image-keyboard-response,251,525608,learnblock1,643,img/planet10_left.png,10,Community 3,NA,TRUE,f,f,NA,NA,NA,1,6,"11,8,9,1,6,13,7,3,14,15,10,2,4,5,12"
14819,commdev-image-keyboard-response,252,526859,learnblock1,692,img/planet5_left.png,5,Community 3,NA,TRUE,f,f,NA,NA,NA,1,6,"11,8,9,1,6,13,7,3,14,15,10,2,4,5,12"
14819,commdev-image-keyboard-response,253,528110,learnblock1,739,img/planet2_right.png,2,Community 3,NA,TRUE,j,j,NA,NA,NA,1,6,"11,8,9,1,6,13,7,3,14,15,10,2,4,5,12"
14819,commdev-image-keyboard-response,254,529361,learnblock1,1049.9999999998836,img/planet12_right.png,12,Community 3,NA,TRUE,j,j,NA,NA,NA,1,6,"11,8,9,1,6,13,7,3,14,15,10,2,4,5,12"
14819,commdev-image-keyboard-response,255,530612,learnblock1,1021,img/planet4_right.png,4,Community 3,NA,TRUE,j,j,NA,NA,NA,1,6,"11,8,9,1,6,13,7,3,14,15,10,2,4,5,12"
14819,commdev-image-keyboard-response,256,531863,learnblock1,817,img/planet12_right.png,12,Community 3,NA,TRUE,j,j,NA,NA,NA,1,6,"11,8,9,1,6,13,7,3,14,15,10,2,4,5,12"
14819,commdev-image-keyboard-response,257,533114,learnblock1,841,img/planet5_right.png,5,Community 3,NA,TRUE,j,j,NA,NA,NA,1,6,"11,8,9,1,6,13,7,3,14,15,10,2,4,5,12"
14819,commdev-image-keyboard-response,258,534366,learnblock1,649,img/planet12_right.png,12,Community 3,NA,TRUE,j,j,NA,NA,NA,1,6,"11,8,9,1,6,13,7,3,14,15,10,2,4,5,12"
14819,commdev-image-keyboard-response,259,535618,learnblock1,1203,img/planet2_right.png,2,Community 3,NA,TRUE,j,j,NA,NA,NA,1,6,"11,8,9,1,6,13,7,3,14,15,10,2,4,5,12"
14819,commdev-image-keyboard-response,260,536869,learnblock1,1030,img/planet12_right.png,12,Community 3,NA,TRUE,j,j,NA,NA,NA,1,6,"11,8,9,1,6,13,7,3,14,15,10,2,4,5,12"
14819,commdev-image-keyboard-response,261,538120,learnblock1,814,img/planet5_right.png,5,Community 3,NA,TRUE,j,j,NA,NA,NA,1,6,"11,8,9,1,6,13,7,3,14,15,10,2,4,5,12"
14819,commdev-image-keyboard-response,262,539371,learnblock1,686,img/planet4_left.png,4,Community 3,NA,TRUE,f,f,NA,NA,NA,1,6,"11,8,9,1,6,13,7,3,14,15,10,2,4,5,12"
14819,commdev-image-keyboard-response,263,540622,learnblock1,747,img/planet5_right.png,5,Community 3,NA,TRUE,j,j,NA,NA,NA,1,6,"11,8,9,1,6,13,7,3,14,15,10,2,4,5,12"
14819,commdev-image-keyboard-response,264,541874,learnblock1,879,img/planet12_right.png,12,Community 3,NA,TRUE,j,j,NA,NA,NA,1,6,"11,8,9,1,6,13,7,3,14,15,10,2,4,5,12"
14819,commdev-image-keyboard-response,265,543125,learnblock1,943.0000000001164,img/planet4_right.png,4,Community 3,NA,TRUE,j,j,NA,NA,NA,1,6,"11,8,9,1,6,13,7,3,14,15,10,2,4,5,12"
14819,commdev-image-keyboard-response,266,544376,learnblock1,643,img/planet2_right.png,2,Community 3,NA,TRUE,j,j,NA,NA,NA,1,6,"11,8,9,1,6,13,7,3,14,15,10,2,4,5,12"
14819,commdev-image-keyboard-response,267,545627,learnblock1,642,img/planet5_right.png,5,Community 3,NA,TRUE,j,j,NA,NA,NA,1,6,"11,8,9,1,6,13,7,3,14,15,10,2,4,5,12"
14819,commdev-image-keyboard-response,268,546878,learnblock1,788,img/planet4_right.png,4,Community 3,NA,TRUE,j,j,NA,NA,NA,1,6,"11,8,9,1,6,13,7,3,14,15,10,2,4,5,12"
14819,commdev-image-keyboard-response,269,548129,learnblock1,702,img/planet10_right.png,10,Community 3,NA,TRUE,j,j,NA,NA,NA,1,6,"11,8,9,1,6,13,7,3,14,15,10,2,4,5,12"
14819,commdev-image-keyboard-response,270,549380,learnblock1,561,img/planet4_right.png,4,Community 3,NA,TRUE,j,j,NA,NA,NA,1,6,"11,8,9,1,6,13,7,3,14,15,10,2,4,5,12"
14819,commdev-image-keyboard-response,271,550631,learnblock1,701,img/planet12_left.png,12,Community 3,NA,TRUE,f,f,NA,NA,NA,1,6,"11,8,9,1,6,13,7,3,14,15,10,2,4,5,12"
14819,commdev-image-keyboard-response,272,551881,learnblock1,696,img/planet4_right.png,4,Community 3,NA,TRUE,j,j,NA,NA,NA,1,6,"11,8,9,1,6,13,7,3,14,15,10,2,4,5,12"
14819,commdev-image-keyboard-response,273,553133,learnblock1,643,img/planet2_left.png,2,Community 3,NA,TRUE,f,f,NA,NA,NA,1,6,"11,8,9,1,6,13,7,3,14,15,10,2,4,5,12"
14819,commdev-image-keyboard-response,274,554383,learnblock1,724,img/planet3_right.png,3,Community 2,NA,TRUE,j,j,NA,NA,NA,1,6,"11,8,9,1,6,13,7,3,14,15,10,2,4,5,12"
14819,commdev-image-keyboard-response,275,555634,learnblock1,678.9999999998836,img/planet14_left.png,14,Community 2,NA,TRUE,f,f,NA,NA,NA,1,6,"11,8,9,1,6,13,7,3,14,15,10,2,4,5,12"
14819,commdev-image-keyboard-response,276,556885,learnblock1,700.9999999998836,img/planet7_right.png,7,Community 2,NA,TRUE,j,j,NA,NA,NA,1,6,"11,8,9,1,6,13,7,3,14,15,10,2,4,5,12"
14819,commdev-image-keyboard-response,277,558136,learnblock1,713,img/planet13_left.png,13,Community 2,NA,TRUE,f,f,NA,NA,NA,1,6,"11,8,9,1,6,13,7,3,14,15,10,2,4,5,12"
14819,commdev-image-keyboard-response,278,559387,learnblock1,680.0000000001164,img/planet7_right.png,7,Community 2,NA,TRUE,j,j,NA,NA,NA,1,6,"11,8,9,1,6,13,7,3,14,15,10,2,4,5,12"
14819,commdev-image-keyboard-response,279,560638,learnblock1,595,img/planet13_right.png,13,Community 2,NA,FALSE,f,j,NA,NA,NA,1,6,"11,8,9,1,6,13,7,3,14,15,10,2,4,5,12"
14819,commdev-image-keyboard-response,280,561890,learnblock1,630.9999999998836,img/planet15_left.png,15,Community 2,NA,TRUE,f,f,NA,NA,NA,1,6,"11,8,9,1,6,13,7,3,14,15,10,2,4,5,12"
14819,commdev-image-keyboard-response,281,563142,learnblock1,672,img/planet7_right.png,7,Community 2,NA,TRUE,j,j,NA,NA,NA,1,6,"11,8,9,1,6,13,7,3,14,15,10,2,4,5,12"
14819,commdev-image-keyboard-response,282,564394,learnblock1,658,img/planet13_right.png,13,Community 2,NA,TRUE,j,j,NA,NA,NA,1,6,"11,8,9,1,6,13,7,3,14,15,10,2,4,5,12"
14819,commdev-image-keyboard-response,283,565646,learnblock1,1243.9999999998836,img/planet15_right.png,15,Community 2,NA,TRUE,j,j,NA,NA,NA,1,6,"11,8,9,1,6,13,7,3,14,15,10,2,4,5,12"
14819,commdev-image-keyboard-response,284,566899,learnblock1,653,img/planet14_left.png,14,Community 2,NA,TRUE,f,f,NA,NA,NA,1,6,"11,8,9,1,6,13,7,3,14,15,10,2,4,5,12"
14819,commdev-image-keyboard-response,285,568150,learnblock1,640,img/planet3_right.png,3,Community 2,NA,TRUE,j,j,NA,NA,NA,1,6,"11,8,9,1,6,13,7,3,14,15,10,2,4,5,12"
14819,commdev-image-keyboard-response,286,569401,learnblock1,649,img/planet2_left.png,2,Community 3,NA,TRUE,f,f,NA,NA,NA,1,6,"11,8,9,1,6,13,7,3,14,15,10,2,4,5,12"
14819,commdev-image-keyboard-response,287,570652,learnblock1,733.0000000001164,img/planet4_right.png,4,Community 3,NA,TRUE,j,j,NA,NA,NA,1,6,"11,8,9,1,6,13,7,3,14,15,10,2,4,5,12"
14819,commdev-image-keyboard-response,288,571903,learnblock1,663,img/planet5_right.png,5,Community 3,NA,TRUE,j,j,NA,NA,NA,1,6,"11,8,9,1,6,13,7,3,14,15,10,2,4,5,12"
14819,commdev-image-keyboard-response,289,573154,learnblock1,799,img/planet2_right.png,2,Community 3,NA,TRUE,j,j,NA,NA,NA,1,6,"11,8,9,1,6,13,7,3,14,15,10,2,4,5,12"
14819,commdev-image-keyboard-response,290,574405,learnblock1,687.0000000001164,img/planet12_left.png,12,Community 3,NA,TRUE,f,f,NA,NA,NA,1,6,"11,8,9,1,6,13,7,3,14,15,10,2,4,5,12"
14819,commdev-image-keyboard-response,291,575658,learnblock1,945,img/planet5_left.png,5,Community 3,NA,TRUE,f,f,NA,NA,NA,1,6,"11,8,9,1,6,13,7,3,14,15,10,2,4,5,12"
14819,commdev-image-keyboard-response,292,576909,learnblock1,923,img/planet2_right.png,2,Community 3,NA,TRUE,j,j,NA,NA,NA,1,6,"11,8,9,1,6,13,7,3,14,15,10,2,4,5,12"
14819,commdev-image-keyboard-response,293,578161,learnblock1,821,img/planet3_right.png,3,Community 2,NA,TRUE,j,j,NA,NA,NA,1,6,"11,8,9,1,6,13,7,3,14,15,10,2,4,5,12"
14819,commdev-image-keyboard-response,294,579412,learnblock1,723.0000000001164,img/planet2_right.png,2,Community 3,NA,TRUE,j,j,NA,NA,NA,1,6,"11,8,9,1,6,13,7,3,14,15,10,2,4,5,12"
14819,commdev-image-keyboard-response,295,580663,learnblock1,891,img/planet5_left.png,5,Community 3,NA,TRUE,f,f,NA,NA,NA,1,6,"11,8,9,1,6,13,7,3,14,15,10,2,4,5,12"
14819,commdev-image-keyboard-response,296,581914,learnblock1,673.9999999998836,img/planet10_left.png,10,Community 3,NA,TRUE,f,f,NA,NA,NA,1,6,"11,8,9,1,6,13,7,3,14,15,10,2,4,5,12"
14819,commdev-image-keyboard-response,297,583165,learnblock1,749.0000000001164,img/planet4_left.png,4,Community 3,NA,TRUE,f,f,NA,NA,NA,1,6,"11,8,9,1,6,13,7,3,14,15,10,2,4,5,12"
14819,commdev-image-keyboard-response,298,584416,learnblock1,775,img/planet5_right.png,5,Community 3,NA,TRUE,j,j,NA,NA,NA,1,6,"11,8,9,1,6,13,7,3,14,15,10,2,4,5,12"
14819,commdev-image-keyboard-response,299,585667,learnblock1,701,img/planet2_right.png,2,Community 3,NA,TRUE,j,j,NA,NA,NA,1,6,"11,8,9,1,6,13,7,3,14,15,10,2,4,5,12"
14819,commdev-image-keyboard-response,300,586918,learnblock1,786,img/planet4_left.png,4,Community 3,NA,TRUE,f,f,NA,NA,NA,1,6,"11,8,9,1,6,13,7,3,14,15,10,2,4,5,12"
14819,commdev-image-keyboard-response,301,588169,learnblock1,851,img/planet5_left.png,5,Community 3,NA,TRUE,f,f,NA,NA,NA,1,6,"11,8,9,1,6,13,7,3,14,15,10,2,4,5,12"
14819,commdev-image-keyboard-response,302,589420,learnblock1,929,img/planet2_left.png,2,Community 3,NA,TRUE,f,f,NA,NA,NA,1,6,"11,8,9,1,6,13,7,3,14,15,10,2,4,5,12"
14819,commdev-image-keyboard-response,303,590671,learnblock1,853,img/planet3_left.png,3,Community 2,NA,TRUE,f,f,NA,NA,NA,1,6,"11,8,9,1,6,13,7,3,14,15,10,2,4,5,12"
14819,commdev-image-keyboard-response,304,591922,learnblock1,1011,img/planet7_right.png,7,Community 2,NA,TRUE,j,j,NA,NA,NA,1,6,"11,8,9,1,6,13,7,3,14,15,10,2,4,5,12"
14819,commdev-image-keyboard-response,305,593173,learnblock1,725,img/planet13_left.png,13,Community 2,NA,TRUE,f,f,NA,NA,NA,1,6,"11,8,9,1,6,13,7,3,14,15,10,2,4,5,12"
14819,commdev-image-keyboard-response,306,594424,learnblock1,720,img/planet15_right.png,15,Community 2,NA,TRUE,j,j,NA,NA,NA,1,6,"11,8,9,1,6,13,7,3,14,15,10,2,4,5,12"
14819,commdev-image-keyboard-response,307,595675,learnblock1,927,img/planet14_right.png,14,Community 2,NA,FALSE,f,j,NA,NA,NA,1,6,"11,8,9,1,6,13,7,3,14,15,10,2,4,5,12"
14819,commdev-image-keyboard-response,308,596928,learnblock1,754,img/planet7_right.png,7,Community 2,NA,TRUE,j,j,NA,NA,NA,1,6,"11,8,9,1,6,13,7,3,14,15,10,2,4,5,12"
14819,commdev-image-keyboard-response,309,598180,learnblock1,653,img/planet14_right.png,14,Community 2,NA,TRUE,j,j,NA,NA,NA,1,6,"11,8,9,1,6,13,7,3,14,15,10,2,4,5,12"
14819,commdev-image-keyboard-response,310,599431,learnblock1,683,img/planet3_left.png,3,Community 2,NA,TRUE,f,f,NA,NA,NA,1,6,"11,8,9,1,6,13,7,3,14,15,10,2,4,5,12"
14819,commdev-image-keyboard-response,311,600682,learnblock1,710,img/planet14_right.png,14,Community 2,NA,TRUE,j,j,NA,NA,NA,1,6,"11,8,9,1,6,13,7,3,14,15,10,2,4,5,12"
14819,commdev-image-keyboard-response,312,601933,learnblock1,706,img/planet13_left.png,13,Community 2,NA,TRUE,f,f,NA,NA,NA,1,6,"11,8,9,1,6,13,7,3,14,15,10,2,4,5,12"
14819,commdev-image-keyboard-response,313,603184,learnblock1,714,img/planet15_right.png,15,Community 2,NA,TRUE,j,j,NA,NA,NA,1,6,"11,8,9,1,6,13,7,3,14,15,10,2,4,5,12"
14819,commdev-image-keyboard-response,314,604435,learnblock1,748,img/planet14_left.png,14,Community 2,NA,TRUE,f,f,NA,NA,NA,1,6,"11,8,9,1,6,13,7,3,14,15,10,2,4,5,12"
14819,commdev-image-keyboard-response,315,605687,learnblock1,1036,img/planet7_right.png,7,Community 2,NA,TRUE,j,j,NA,NA,NA,1,6,"11,8,9,1,6,13,7,3,14,15,10,2,4,5,12"
14819,commdev-image-keyboard-response,316,606940,learnblock1,693.9999999998836,img/planet13_right.png,13,Community 2,NA,TRUE,j,j,NA,NA,NA,1,6,"11,8,9,1,6,13,7,3,14,15,10,2,4,5,12"
14819,commdev-image-keyboard-response,317,608191,learnblock1,711,img/planet14_left.png,14,Community 2,NA,TRUE,f,f,NA,NA,NA,1,6,"11,8,9,1,6,13,7,3,14,15,10,2,4,5,12"
14819,commdev-image-keyboard-response,318,609441,learnblock1,681,img/planet3_left.png,3,Community 2,NA,TRUE,f,f,NA,NA,NA,1,6,"11,8,9,1,6,13,7,3,14,15,10,2,4,5,12"
14819,commdev-image-keyboard-response,319,610692,learnblock1,979,img/planet15_left.png,15,Community 2,NA,FALSE,j,f,NA,NA,NA,1,6,"11,8,9,1,6,13,7,3,14,15,10,2,4,5,12"
14819,commdev-image-keyboard-response,320,611943,learnblock1,763.9999999998836,img/planet7_right.png,7,Community 2,NA,TRUE,j,j,NA,NA,NA,1,6,"11,8,9,1,6,13,7,3,14,15,10,2,4,5,12"
14819,commdev-image-keyboard-response,321,613195,learnblock1,null,img/planet3_right.png,3,Community 2,NA,FALSE,null,j,NA,NA,NA,1,6,"11,8,9,1,6,13,7,3,14,15,10,2,4,5,12"
14819,commdev-image-keyboard-response,322,614446,learnblock1,23,img/planet2_left.png,2,Community 3,NA,FALSE,j,f,NA,NA,NA,1,6,"11,8,9,1,6,13,7,3,14,15,10,2,4,5,12"
14819,commdev-image-keyboard-response,323,615697,learnblock1,749,img/planet12_right.png,12,Community 3,NA,TRUE,j,j,NA,NA,NA,1,6,"11,8,9,1,6,13,7,3,14,15,10,2,4,5,12"
14819,commdev-image-keyboard-response,324,616948,learnblock1,877,img/planet5_right.png,5,Community 3,NA,TRUE,j,j,NA,NA,NA,1,6,"11,8,9,1,6,13,7,3,14,15,10,2,4,5,12"
14819,commdev-image-keyboard-response,325,618199,learnblock1,671,img/planet2_left.png,2,Community 3,NA,TRUE,f,f,NA,NA,NA,1,6,"11,8,9,1,6,13,7,3,14,15,10,2,4,5,12"
14819,commdev-image-keyboard-response,326,619450,learnblock1,854,img/planet12_left.png,12,Community 3,NA,TRUE,f,f,NA,NA,NA,1,6,"11,8,9,1,6,13,7,3,14,15,10,2,4,5,12"
14819,commdev-image-keyboard-response,327,620701,learnblock1,844.0000000001164,img/planet4_right.png,4,Community 3,NA,TRUE,j,j,NA,NA,NA,1,6,"11,8,9,1,6,13,7,3,14,15,10,2,4,5,12"
14819,commdev-image-keyboard-response,328,621951,learnblock1,851,img/planet12_right.png,12,Community 3,NA,TRUE,j,j,NA,NA,NA,1,6,"11,8,9,1,6,13,7,3,14,15,10,2,4,5,12"
14819,commdev-image-keyboard-response,329,623202,learnblock1,828,img/planet5_left.png,5,Community 3,NA,TRUE,f,f,NA,NA,NA,1,6,"11,8,9,1,6,13,7,3,14,15,10,2,4,5,12"
14819,commdev-image-keyboard-response,330,624453,learnblock1,880,img/planet12_right.png,12,Community 3,NA,TRUE,j,j,NA,NA,NA,1,6,"11,8,9,1,6,13,7,3,14,15,10,2,4,5,12"
14819,commdev-image-keyboard-response,331,625704,learnblock1,910,img/planet4_right.png,4,Community 3,NA,TRUE,j,j,NA,NA,NA,1,6,"11,8,9,1,6,13,7,3,14,15,10,2,4,5,12"
14819,commdev-image-keyboard-response,332,626955,learnblock1,797,img/planet5_right.png,5,Community 3,NA,TRUE,j,j,NA,NA,NA,1,6,"11,8,9,1,6,13,7,3,14,15,10,2,4,5,12"
14819,commdev-image-keyboard-response,333,628208,learnblock1,792,img/planet4_right.png,4,Community 3,NA,TRUE,j,j,NA,NA,NA,1,6,"11,8,9,1,6,13,7,3,14,15,10,2,4,5,12"
14819,commdev-image-keyboard-response,334,629460,learnblock1,780,img/planet12_right.png,12,Community 3,NA,TRUE,j,j,NA,NA,NA,1,6,"11,8,9,1,6,13,7,3,14,15,10,2,4,5,12"
14819,commdev-image-keyboard-response,335,630711,learnblock1,651,img/planet2_left.png,2,Community 3,NA,TRUE,f,f,NA,NA,NA,1,6,"11,8,9,1,6,13,7,3,14,15,10,2,4,5,12"
14819,commdev-image-keyboard-response,336,631964,learnblock1,662.9999999998836,img/planet4_left.png,4,Community 3,NA,TRUE,f,f,NA,NA,NA,1,6,"11,8,9,1,6,13,7,3,14,15,10,2,4,5,12"
14819,commdev-image-keyboard-response,337,633216,learnblock1,548,img/planet2_left.png,2,Community 3,NA,TRUE,f,f,NA,NA,NA,1,6,"11,8,9,1,6,13,7,3,14,15,10,2,4,5,12"
14819,commdev-image-keyboard-response,338,634467,learnblock1,681,img/planet3_right.png,3,Community 2,NA,TRUE,j,j,NA,NA,NA,1,6,"11,8,9,1,6,13,7,3,14,15,10,2,4,5,12"
14819,commdev-image-keyboard-response,339,635718,learnblock1,758.9999999998836,img/planet15_right.png,15,Community 2,NA,TRUE,j,j,NA,NA,NA,1,6,"11,8,9,1,6,13,7,3,14,15,10,2,4,5,12"
14819,commdev-image-keyboard-response,340,636969,learnblock1,658,img/planet7_right.png,7,Community 2,NA,TRUE,j,j,NA,NA,NA,1,6,"11,8,9,1,6,13,7,3,14,15,10,2,4,5,12"
14819,commdev-image-keyboard-response,341,638220,learnblock1,663,img/planet13_left.png,13,Community 2,NA,TRUE,f,f,NA,NA,NA,1,6,"11,8,9,1,6,13,7,3,14,15,10,2,4,5,12"
14819,commdev-image-keyboard-response,342,639471,learnblock1,567,img/planet1_left.png,1,Community 1,NA,TRUE,f,f,NA,NA,NA,1,6,"11,8,9,1,6,13,7,3,14,15,10,2,4,5,12"
14819,commdev-image-keyboard-response,343,640722,learnblock1,718,img/planet9_left.png,9,Community 1,NA,TRUE,f,f,NA,NA,NA,1,6,"11,8,9,1,6,13,7,3,14,15,10,2,4,5,12"
14819,commdev-image-keyboard-response,344,641973,learnblock1,672,img/planet11_right.png,11,Community 1,NA,TRUE,j,j,NA,NA,NA,1,6,"11,8,9,1,6,13,7,3,14,15,10,2,4,5,12"
14819,commdev-image-keyboard-response,345,643224,learnblock1,660,img/planet9_left.png,9,Community 1,NA,TRUE,f,f,NA,NA,NA,1,6,"11,8,9,1,6,13,7,3,14,15,10,2,4,5,12"
14819,commdev-image-keyboard-response,346,644475,learnblock1,644,img/planet6_right.png,6,Community 1,NA,TRUE,j,j,NA,NA,NA,1,6,"11,8,9,1,6,13,7,3,14,15,10,2,4,5,12"
14819,commdev-image-keyboard-response,347,645726,learnblock1,818,img/planet11_left.png,11,Community 1,NA,TRUE,f,f,NA,NA,NA,1,6,"11,8,9,1,6,13,7,3,14,15,10,2,4,5,12"
14819,commdev-image-keyboard-response,351,659091,learnblock2,765,img/planet7_left.png,7,Community 2,NA,TRUE,f,f,NA,NA,NA,1,6,"11,8,9,1,6,13,7,3,14,15,10,2,4,5,12"
14819,commdev-image-keyboard-response,352,660343,learnblock2,722.0000000001164,img/planet15_right.png,15,Community 2,NA,TRUE,j,j,NA,NA,NA,1,6,"11,8,9,1,6,13,7,3,14,15,10,2,4,5,12"
14819,commdev-image-keyboard-response,353,661594,learnblock2,580,img/planet13_left.png,13,Community 2,NA,TRUE,f,f,NA,NA,NA,1,6,"11,8,9,1,6,13,7,3,14,15,10,2,4,5,12"
14819,commdev-image-keyboard-response,354,662845,learnblock2,550,img/planet1_right.png,1,Community 1,NA,TRUE,j,j,NA,NA,NA,1,6,"11,8,9,1,6,13,7,3,14,15,10,2,4,5,12"
14819,commdev-image-keyboard-response,355,664098,learnblock2,607,img/planet11_left.png,11,Community 1,NA,TRUE,f,f,NA,NA,NA,1,6,"11,8,9,1,6,13,7,3,14,15,10,2,4,5,12"
14819,commdev-image-keyboard-response,356,665350,learnblock2,714,img/planet6_left.png,6,Community 1,NA,TRUE,f,f,NA,NA,NA,1,6,"11,8,9,1,6,13,7,3,14,15,10,2,4,5,12"
14819,commdev-image-keyboard-response,357,666601,learnblock2,619,img/planet10_right.png,10,Community 3,NA,TRUE,j,j,NA,NA,NA,1,6,"11,8,9,1,6,13,7,3,14,15,10,2,4,5,12"
14819,commdev-image-keyboard-response,358,667852,learnblock2,669.0000000001164,img/planet6_left.png,6,Community 1,NA,TRUE,f,f,NA,NA,NA,1,6,"11,8,9,1,6,13,7,3,14,15,10,2,4,5,12"
14819,commdev-image-keyboard-response,359,669103,learnblock2,592,img/planet10_left.png,10,Community 3,NA,TRUE,f,f,NA,NA,NA,1,6,"11,8,9,1,6,13,7,3,14,15,10,2,4,5,12"
14819,commdev-image-keyboard-response,360,670354,learnblock2,699,img/planet12_left.png,12,Community 3,NA,TRUE,f,f,NA,NA,NA,1,6,"11,8,9,1,6,13,7,3,14,15,10,2,4,5,12"
14819,commdev-image-keyboard-response,361,671605,learnblock2,567,img/planet4_right.png,4,Community 3,NA,TRUE,j,j,NA,NA,NA,1,6,"11,8,9,1,6,13,7,3,14,15,10,2,4,5,12"
14819,commdev-image-keyboard-response,362,672857,learnblock2,668,img/planet12_left.png,12,Community 3,NA,TRUE,f,f,NA,NA,NA,1,6,"11,8,9,1,6,13,7,3,14,15,10,2,4,5,12"
14819,commdev-image-keyboard-response,363,674110,learnblock2,610.0000000001164,img/planet2_left.png,2,Community 3,NA,TRUE,f,f,NA,NA,NA,1,6,"11,8,9,1,6,13,7,3,14,15,10,2,4,5,12"
14819,commdev-image-keyboard-response,364,675361,learnblock2,595,img/planet12_right.png,12,Community 3,NA,TRUE,j,j,NA,NA,NA,1,6,"11,8,9,1,6,13,7,3,14,15,10,2,4,5,12"
14819,commdev-image-keyboard-response,365,676612,learnblock2,644,img/planet5_right.png,5,Community 3,NA,TRUE,j,j,NA,NA,NA,1,6,"11,8,9,1,6,13,7,3,14,15,10,2,4,5,12"
14819,commdev-image-keyboard-response,366,677863,learnblock2,631.9999999998836,img/planet2_left.png,2,Community 3,NA,TRUE,f,f,NA,NA,NA,1,6,"11,8,9,1,6,13,7,3,14,15,10,2,4,5,12"
14819,commdev-image-keyboard-response,367,679114,learnblock2,752,img/planet5_left.png,5,Community 3,NA,TRUE,f,f,NA,NA,NA,1,6,"11,8,9,1,6,13,7,3,14,15,10,2,4,5,12"
14819,commdev-image-keyboard-response,368,680366,learnblock2,707,img/planet4_left.png,4,Community 3,NA,TRUE,f,f,NA,NA,NA,1,6,"11,8,9,1,6,13,7,3,14,15,10,2,4,5,12"
14819,commdev-image-keyboard-response,369,681619,learnblock2,613.9999999998836,img/planet10_left.png,10,Community 3,NA,TRUE,f,f,NA,NA,NA,1,6,"11,8,9,1,6,13,7,3,14,15,10,2,4,5,12"
14819,commdev-image-keyboard-response,370,682870,learnblock2,663,img/planet12_right.png,12,Community 3,NA,TRUE,j,j,NA,NA,NA,1,6,"11,8,9,1,6,13,7,3,14,15,10,2,4,5,12"
14819,commdev-image-keyboard-response,371,684121,learnblock2,820,img/planet5_left.png,5,Community 3,NA,TRUE,f,f,NA,NA,NA,1,6,"11,8,9,1,6,13,7,3,14,15,10,2,4,5,12"
14819,commdev-image-keyboard-response,372,685372,learnblock2,693.0000000001164,img/planet10_right.png,10,Community 3,NA,TRUE,j,j,NA,NA,NA,1,6,"11,8,9,1,6,13,7,3,14,15,10,2,4,5,12"
14819,commdev-image-keyboard-response,373,686623,learnblock2,754,img/planet12_left.png,12,Community 3,NA,TRUE,f,f,NA,NA,NA,1,6,"11,8,9,1,6,13,7,3,14,15,10,2,4,5,12"
14819,commdev-image-keyboard-response,374,687874,learnblock2,685,img/planet2_right.png,2,Community 3,NA,TRUE,j,j,NA,NA,NA,1,6,"11,8,9,1,6,13,7,3,14,15,10,2,4,5,12"
14819,commdev-image-keyboard-response,375,689125,learnblock2,779,img/planet12_right.png,12,Community 3,NA,TRUE,j,j,NA,NA,NA,1,6,"11,8,9,1,6,13,7,3,14,15,10,2,4,5,12"
14819,commdev-image-keyboard-response,376,690376,learnblock2,611,img/planet2_right.png,2,Community 3,NA,TRUE,j,j,NA,NA,NA,1,6,"11,8,9,1,6,13,7,3,14,15,10,2,4,5,12"
14819,commdev-image-keyboard-response,377,691628,learnblock2,688.0000000001164,img/planet3_right.png,3,Community 2,NA,TRUE,j,j,NA,NA,NA,1,6,"11,8,9,1,6,13,7,3,14,15,10,2,4,5,12"
14819,commdev-image-keyboard-response,378,692880,learnblock2,609.0000000001164,img/planet2_right.png,2,Community 3,NA,TRUE,j,j,NA,NA,NA,1,6,"11,8,9,1,6,13,7,3,14,15,10,2,4,5,12"
14819,commdev-image-keyboard-response,379,694132,learnblock2,826,img/planet5_right.png,5,Community 3,NA,TRUE,j,j,NA,NA,NA,1,6,"11,8,9,1,6,13,7,3,14,15,10,2,4,5,12"
14819,commdev-image-keyboard-response,380,695383,learnblock2,642,img/planet2_left.png,2,Community 3,NA,TRUE,f,f,NA,NA,NA,1,6,"11,8,9,1,6,13,7,3,14,15,10,2,4,5,12"
14819,commdev-image-keyboard-response,381,696634,learnblock2,979.0000000001164,img/planet5_left.png,5,Community 3,NA,TRUE,f,f,NA,NA,NA,1,6,"11,8,9,1,6,13,7,3,14,15,10,2,4,5,12"
14819,commdev-image-keyboard-response,382,697885,learnblock2,857,img/planet2_right.png,2,Community 3,NA,TRUE,j,j,NA,NA,NA,1,6,"11,8,9,1,6,13,7,3,14,15,10,2,4,5,12"
14819,commdev-image-keyboard-response,383,699136,learnblock2,764,img/planet5_right.png,5,Community 3,NA,TRUE,j,j,NA,NA,NA,1,6,"11,8,9,1,6,13,7,3,14,15,10,2,4,5,12"
14819,commdev-image-keyboard-response,384,700387,learnblock2,604.9999999998836,img/planet2_left.png,2,Community 3,NA,TRUE,f,f,NA,NA,NA,1,6,"11,8,9,1,6,13,7,3,14,15,10,2,4,5,12"
14819,commdev-image-keyboard-response,385,701638,learnblock2,743,img/planet3_left.png,3,Community 2,NA,TRUE,f,f,NA,NA,NA,1,6,"11,8,9,1,6,13,7,3,14,15,10,2,4,5,12"
14819,commdev-image-keyboard-response,386,702889,learnblock2,747,img/planet14_right.png,14,Community 2,NA,TRUE,j,j,NA,NA,NA,1,6,"11,8,9,1,6,13,7,3,14,15,10,2,4,5,12"
14819,commdev-image-keyboard-response,387,704140,learnblock2,986,img/planet13_right.png,13,Community 2,NA,TRUE,j,j,NA,NA,NA,1,6,"11,8,9,1,6,13,7,3,14,15,10,2,4,5,12"
14819,commdev-image-keyboard-response,388,705391,learnblock2,687,img/planet1_left.png,1,Community 1,NA,TRUE,f,f,NA,NA,NA,1,6,"11,8,9,1,6,13,7,3,14,15,10,2,4,5,12"
14819,commdev-image-keyboard-response,389,706641,learnblock2,947,img/planet8_left.png,8,Community 1,NA,TRUE,f,f,NA,NA,NA,1,6,"11,8,9,1,6,13,7,3,14,15,10,2,4,5,12"
14819,commdev-image-keyboard-response,390,707892,learnblock2,723,img/planet9_right.png,9,Community 1,NA,TRUE,j,j,NA,NA,NA,1,6,"11,8,9,1,6,13,7,3,14,15,10,2,4,5,12"
14819,commdev-image-keyboard-response,391,709143,learnblock2,622,img/planet11_left.png,11,Community 1,NA,TRUE,f,f,NA,NA,NA,1,6,"11,8,9,1,6,13,7,3,14,15,10,2,4,5,12"
14819,commdev-image-keyboard-response,392,710394,learnblock2,655,img/planet6_right.png,6,Community 1,NA,TRUE,j,j,NA,NA,NA,1,6,"11,8,9,1,6,13,7,3,14,15,10,2,4,5,12"
14819,commdev-image-keyboard-response,393,711645,learnblock2,764,img/planet8_right.png,8,Community 1,NA,TRUE,j,j,NA,NA,NA,1,6,"11,8,9,1,6,13,7,3,14,15,10,2,4,5,12"
14819,commdev-image-keyboard-response,394,712896,learnblock2,722.0000000001164,img/planet9_right.png,9,Community 1,NA,TRUE,j,j,NA,NA,NA,1,6,"11,8,9,1,6,13,7,3,14,15,10,2,4,5,12"
14819,commdev-image-keyboard-response,395,714148,learnblock2,835,img/planet8_right.png,8,Community 1,NA,TRUE,j,j,NA,NA,NA,1,6,"11,8,9,1,6,13,7,3,14,15,10,2,4,5,12"
14819,commdev-image-keyboard-response,396,715399,learnblock2,723,img/planet6_left.png,6,Community 1,NA,TRUE,f,f,NA,NA,NA,1,6,"11,8,9,1,6,13,7,3,14,15,10,2,4,5,12"
14819,commdev-image-keyboard-response,397,716649,learnblock2,797,img/planet9_left.png,9,Community 1,NA,TRUE,f,f,NA,NA,NA,1,6,"11,8,9,1,6,13,7,3,14,15,10,2,4,5,12"
14819,commdev-image-keyboard-response,398,717900,learnblock2,694.0000000001164,img/planet8_right.png,8,Community 1,NA,TRUE,j,j,NA,NA,NA,1,6,"11,8,9,1,6,13,7,3,14,15,10,2,4,5,12"
14819,commdev-image-keyboard-response,399,719151,learnblock2,912,img/planet1_right.png,1,Community 1,NA,TRUE,j,j,NA,NA,NA,1,6,"11,8,9,1,6,13,7,3,14,15,10,2,4,5,12"
14819,commdev-image-keyboard-response,400,720402,learnblock2,733,img/planet9_right.png,9,Community 1,NA,TRUE,j,j,NA,NA,NA,1,6,"11,8,9,1,6,13,7,3,14,15,10,2,4,5,12"
14819,commdev-image-keyboard-response,401,721653,learnblock2,721,img/planet11_right.png,11,Community 1,NA,TRUE,j,j,NA,NA,NA,1,6,"11,8,9,1,6,13,7,3,14,15,10,2,4,5,12"
14819,commdev-image-keyboard-response,402,722904,learnblock2,674,img/planet9_left.png,9,Community 1,NA,TRUE,f,f,NA,NA,NA,1,6,"11,8,9,1,6,13,7,3,14,15,10,2,4,5,12"
14819,commdev-image-keyboard-response,403,724155,learnblock2,659,img/planet6_left.png,6,Community 1,NA,TRUE,f,f,NA,NA,NA,1,6,"11,8,9,1,6,13,7,3,14,15,10,2,4,5,12"
14819,commdev-image-keyboard-response,404,725406,learnblock2,694,img/planet8_right.png,8,Community 1,NA,TRUE,j,j,NA,NA,NA,1,6,"11,8,9,1,6,13,7,3,14,15,10,2,4,5,12"
14819,commdev-image-keyboard-response,405,726657,learnblock2,797,img/planet6_right.png,6,Community 1,NA,TRUE,j,j,NA,NA,NA,1,6,"11,8,9,1,6,13,7,3,14,15,10,2,4,5,12"
14819,commdev-image-keyboard-response,406,727908,learnblock2,670,img/planet8_right.png,8,Community 1,NA,TRUE,j,j,NA,NA,NA,1,6,"11,8,9,1,6,13,7,3,14,15,10,2,4,5,12"
14819,commdev-image-keyboard-response,407,729159,learnblock2,591,img/planet1_left.png,1,Community 1,NA,TRUE,f,f,NA,NA,NA,1,6,"11,8,9,1,6,13,7,3,14,15,10,2,4,5,12"
14819,commdev-image-keyboard-response,408,730410,learnblock2,547,img/planet9_left.png,9,Community 1,NA,TRUE,f,f,NA,NA,NA,1,6,"11,8,9,1,6,13,7,3,14,15,10,2,4,5,12"
14819,commdev-image-keyboard-response,409,731661,learnblock2,625.9999999998836,img/planet6_right.png,6,Community 1,NA,TRUE,j,j,NA,NA,NA,1,6,"11,8,9,1,6,13,7,3,14,15,10,2,4,5,12"
14819,commdev-image-keyboard-response,410,732912,learnblock2,661,img/planet9_right.png,9,Community 1,NA,TRUE,j,j,NA,NA,NA,1,6,"11,8,9,1,6,13,7,3,14,15,10,2,4,5,12"
14819,commdev-image-keyboard-response,411,734163,learnblock2,650,img/planet1_right.png,1,Community 1,NA,TRUE,j,j,NA,NA,NA,1,6,"11,8,9,1,6,13,7,3,14,15,10,2,4,5,12"
14819,commdev-image-keyboard-response,412,735414,learnblock2,765,img/planet13_right.png,13,Community 2,NA,TRUE,j,j,NA,NA,NA,1,6,"11,8,9,1,6,13,7,3,14,15,10,2,4,5,12"
14819,commdev-image-keyboard-response,413,736665,learnblock2,735,img/planet7_right.png,7,Community 2,NA,TRUE,j,j,NA,NA,NA,1,6,"11,8,9,1,6,13,7,3,14,15,10,2,4,5,12"
14819,commdev-image-keyboard-response,414,737916,learnblock2,null,img/planet14_right.png,14,Community 2,NA,FALSE,null,j,NA,NA,NA,1,6,"11,8,9,1,6,13,7,3,14,15,10,2,4,5,12"
14819,commdev-image-keyboard-response,415,739167,learnblock2,6,img/planet7_right.png,7,Community 2,NA,TRUE,j,j,NA,NA,NA,1,6,"11,8,9,1,6,13,7,3,14,15,10,2,4,5,12"
14819,commdev-image-keyboard-response,416,740418,learnblock2,757,img/planet14_left.png,14,Community 2,NA,TRUE,f,f,NA,NA,NA,1,6,"11,8,9,1,6,13,7,3,14,15,10,2,4,5,12"
14819,commdev-image-keyboard-response,417,741669,learnblock2,675.0000000001164,img/planet15_left.png,15,Community 2,NA,TRUE,f,f,NA,NA,NA,1,6,"11,8,9,1,6,13,7,3,14,15,10,2,4,5,12"
14819,commdev-image-keyboard-response,418,742920,learnblock2,655,img/planet7_left.png,7,Community 2,NA,TRUE,f,f,NA,NA,NA,1,6,"11,8,9,1,6,13,7,3,14,15,10,2,4,5,12"
14819,commdev-image-keyboard-response,419,744171,learnblock2,623.9999999998836,img/planet15_left.png,15,Community 2,NA,TRUE,f,f,NA,NA,NA,1,6,"11,8,9,1,6,13,7,3,14,15,10,2,4,5,12"
14819,commdev-image-keyboard-response,420,745422,learnblock2,752,img/planet3_right.png,3,Community 2,NA,TRUE,j,j,NA,NA,NA,1,6,"11,8,9,1,6,13,7,3,14,15,10,2,4,5,12"
14819,commdev-image-keyboard-response,421,746673,learnblock2,677,img/planet7_left.png,7,Community 2,NA,TRUE,f,f,NA,NA,NA,1,6,"11,8,9,1,6,13,7,3,14,15,10,2,4,5,12"
14819,commdev-image-keyboard-response,422,747924,learnblock2,649,img/planet13_right.png,13,Community 2,NA,TRUE,j,j,NA,NA,NA,1,6,"11,8,9,1,6,13,7,3,14,15,10,2,4,5,12"
14819,commdev-image-keyboard-response,423,749175,learnblock2,594,img/planet1_right.png,1,Community 1,NA,TRUE,j,j,NA,NA,NA,1,6,"11,8,9,1,6,13,7,3,14,15,10,2,4,5,12"
14819,commdev-image-keyboard-response,424,750426,learnblock2,697,img/planet13_right.png,13,Community 2,NA,TRUE,j,j,NA,NA,NA,1,6,"11,8,9,1,6,13,7,3,14,15,10,2,4,5,12"
14819,commdev-image-keyboard-response,425,751677,learnblock2,810,img/planet1_right.png,1,Community 1,NA,TRUE,j,j,NA,NA,NA,1,6,"11,8,9,1,6,13,7,3,14,15,10,2,4,5,12"
14819,commdev-image-keyboard-response,426,752928,learnblock2,720,img/planet13_right.png,13,Community 2,NA,TRUE,j,j,NA,NA,NA,1,6,"11,8,9,1,6,13,7,3,14,15,10,2,4,5,12"
14819,commdev-image-keyboard-response,427,754179,learnblock2,690,img/planet7_left.png,7,Community 2,NA,TRUE,f,f,NA,NA,NA,1,6,"11,8,9,1,6,13,7,3,14,15,10,2,4,5,12"
14819,commdev-image-keyboard-response,428,755430,learnblock2,671,img/planet13_right.png,13,Community 2,NA,TRUE,j,j,NA,NA,NA,1,6,"11,8,9,1,6,13,7,3,14,15,10,2,4,5,12"
14819,commdev-image-keyboard-response,429,756681,learnblock2,637,img/planet1_right.png,1,Community 1,NA,TRUE,j,j,NA,NA,NA,1,6,"11,8,9,1,6,13,7,3,14,15,10,2,4,5,12"
14819,commdev-image-keyboard-response,430,757932,learnblock2,646,img/planet13_left.png,13,Community 2,NA,TRUE,f,f,NA,NA,NA,1,6,"11,8,9,1,6,13,7,3,14,15,10,2,4,5,12"
14819,commdev-image-keyboard-response,431,759183,learnblock2,598,img/planet1_left.png,1,Community 1,NA,TRUE,f,f,NA,NA,NA,1,6,"11,8,9,1,6,13,7,3,14,15,10,2,4,5,12"
14819,commdev-image-keyboard-response,432,760434,learnblock2,615,img/planet11_left.png,11,Community 1,NA,TRUE,f,f,NA,NA,NA,1,6,"11,8,9,1,6,13,7,3,14,15,10,2,4,5,12"
14819,commdev-image-keyboard-response,433,761685,learnblock2,870.9999999998836,img/planet8_left.png,8,Community 1,NA,TRUE,f,f,NA,NA,NA,1,6,"11,8,9,1,6,13,7,3,14,15,10,2,4,5,12"
14819,commdev-image-keyboard-response,434,762936,learnblock2,728.9999999998836,img/planet6_left.png,6,Community 1,NA,TRUE,f,f,NA,NA,NA,1,6,"11,8,9,1,6,13,7,3,14,15,10,2,4,5,12"
14819,commdev-image-keyboard-response,435,764187,learnblock2,684,img/planet8_right.png,8,Community 1,NA,TRUE,j,j,NA,NA,NA,1,6,"11,8,9,1,6,13,7,3,14,15,10,2,4,5,12"
14819,commdev-image-keyboard-response,436,765438,learnblock2,584,img/planet9_right.png,9,Community 1,NA,TRUE,j,j,NA,NA,NA,1,6,"11,8,9,1,6,13,7,3,14,15,10,2,4,5,12"
14819,commdev-image-keyboard-response,437,766689,learnblock2,622.0000000001164,img/planet6_left.png,6,Community 1,NA,TRUE,f,f,NA,NA,NA,1,6,"11,8,9,1,6,13,7,3,14,15,10,2,4,5,12"
14819,commdev-image-keyboard-response,438,767940,learnblock2,712.9999999998836,img/planet10_left.png,10,Community 3,NA,TRUE,f,f,NA,NA,NA,1,6,"11,8,9,1,6,13,7,3,14,15,10,2,4,5,12"
14819,commdev-image-keyboard-response,439,769191,learnblock2,639,img/planet6_right.png,6,Community 1,NA,TRUE,j,j,NA,NA,NA,1,6,"11,8,9,1,6,13,7,3,14,15,10,2,4,5,12"
14819,commdev-image-keyboard-response,440,770442,learnblock2,630,img/planet10_right.png,10,Community 3,NA,TRUE,j,j,NA,NA,NA,1,6,"11,8,9,1,6,13,7,3,14,15,10,2,4,5,12"
14819,commdev-image-keyboard-response,441,771693,learnblock2,605,img/planet12_left.png,12,Community 3,NA,TRUE,f,f,NA,NA,NA,1,6,"11,8,9,1,6,13,7,3,14,15,10,2,4,5,12"
14819,commdev-image-keyboard-response,442,772944,learnblock2,646,img/planet5_left.png,5,Community 3,NA,TRUE,f,f,NA,NA,NA,1,6,"11,8,9,1,6,13,7,3,14,15,10,2,4,5,12"
14819,commdev-image-keyboard-response,443,774195,learnblock2,576,img/planet2_left.png,2,Community 3,NA,TRUE,f,f,NA,NA,NA,1,6,"11,8,9,1,6,13,7,3,14,15,10,2,4,5,12"
14819,commdev-image-keyboard-response,444,775446,learnblock2,755.9999999998836,img/planet3_left.png,3,Community 2,NA,TRUE,f,f,NA,NA,NA,1,6,"11,8,9,1,6,13,7,3,14,15,10,2,4,5,12"
14819,commdev-image-keyboard-response,445,776700,learnblock2,679,img/planet2_right.png,2,Community 3,NA,TRUE,j,j,NA,NA,NA,1,6,"11,8,9,1,6,13,7,3,14,15,10,2,4,5,12"
14819,commdev-image-keyboard-response,446,777951,learnblock2,651,img/planet5_right.png,5,Community 3,NA,TRUE,j,j,NA,NA,NA,1,6,"11,8,9,1,6,13,7,3,14,15,10,2,4,5,12"
14819,commdev-image-keyboard-response,447,779203,learnblock2,939,img/planet12_right.png,12,Community 3,NA,TRUE,j,j,NA,NA,NA,1,6,"11,8,9,1,6,13,7,3,14,15,10,2,4,5,12"
14819,commdev-image-keyboard-response,448,780455,learnblock2,611,img/planet2_left.png,2,Community 3,NA,TRUE,f,f,NA,NA,NA,1,6,"11,8,9,1,6,13,7,3,14,15,10,2,4,5,12"
14819,commdev-image-keyboard-response,449,781707,learnblock2,1053,img/planet5_left.png,5,Community 3,NA,TRUE,f,f,NA,NA,NA,1,6,"11,8,9,1,6,13,7,3,14,15,10,2,4,5,12"
14819,commdev-image-keyboard-response,450,782958,learnblock2,651.0000000001164,img/planet10_left.png,10,Community 3,NA,TRUE,f,f,NA,NA,NA,1,6,"11,8,9,1,6,13,7,3,14,15,10,2,4,5,12"
14819,commdev-image-keyboard-response,451,784209,learnblock2,721,img/planet5_left.png,5,Community 3,NA,TRUE,f,f,NA,NA,NA,1,6,"11,8,9,1,6,13,7,3,14,15,10,2,4,5,12"
14819,commdev-image-keyboard-response,452,785460,learnblock2,654.9999999998836,img/planet12_right.png,12,Community 3,NA,TRUE,j,j,NA,NA,NA,1,6,"11,8,9,1,6,13,7,3,14,15,10,2,4,5,12"
14819,commdev-image-keyboard-response,453,786711,learnblock2,675,img/planet4_left.png,4,Community 3,NA,TRUE,f,f,NA,NA,NA,1,6,"11,8,9,1,6,13,7,3,14,15,10,2,4,5,12"
14819,commdev-image-keyboard-response,454,787962,learnblock2,569,img/planet2_left.png,2,Community 3,NA,TRUE,f,f,NA,NA,NA,1,6,"11,8,9,1,6,13,7,3,14,15,10,2,4,5,12"
14819,commdev-image-keyboard-response,455,789213,learnblock2,755,img/planet12_left.png,12,Community 3,NA,TRUE,f,f,NA,NA,NA,1,6,"11,8,9,1,6,13,7,3,14,15,10,2,4,5,12"
14819,commdev-image-keyboard-response,456,790464,learnblock2,596,img/planet10_right.png,10,Community 3,NA,TRUE,j,j,NA,NA,NA,1,6,"11,8,9,1,6,13,7,3,14,15,10,2,4,5,12"
14819,commdev-image-keyboard-response,457,791715,learnblock2,604.9999999998836,img/planet6_right.png,6,Community 1,NA,TRUE,j,j,NA,NA,NA,1,6,"11,8,9,1,6,13,7,3,14,15,10,2,4,5,12"
14819,commdev-image-keyboard-response,458,792966,learnblock2,840,img/planet8_right.png,8,Community 1,NA,TRUE,j,j,NA,NA,NA,1,6,"11,8,9,1,6,13,7,3,14,15,10,2,4,5,12"
14819,commdev-image-keyboard-response,459,794217,learnblock2,965,img/planet6_right.png,6,Community 1,NA,TRUE,j,j,NA,NA,NA,1,6,"11,8,9,1,6,13,7,3,14,15,10,2,4,5,12"
14819,commdev-image-keyboard-response,460,795468,learnblock2,793,img/planet8_right.png,8,Community 1,NA,TRUE,j,j,NA,NA,NA,1,6,"11,8,9,1,6,13,7,3,14,15,10,2,4,5,12"
14819,commdev-image-keyboard-response,461,796719,learnblock2,546,img/planet9_right.png,9,Community 1,NA,TRUE,j,j,NA,NA,NA,1,6,"11,8,9,1,6,13,7,3,14,15,10,2,4,5,12"
14819,commdev-image-keyboard-response,462,797970,learnblock2,529.9999999998836,img/planet6_right.png,6,Community 1,NA,TRUE,j,j,NA,NA,NA,1,6,"11,8,9,1,6,13,7,3,14,15,10,2,4,5,12"
14819,commdev-image-keyboard-response,463,799221,learnblock2,681,img/planet9_right.png,9,Community 1,NA,TRUE,j,j,NA,NA,NA,1,6,"11,8,9,1,6,13,7,3,14,15,10,2,4,5,12"
14819,commdev-image-keyboard-response,464,800472,learnblock2,598,img/planet1_left.png,1,Community 1,NA,TRUE,f,f,NA,NA,NA,1,6,"11,8,9,1,6,13,7,3,14,15,10,2,4,5,12"
14819,commdev-image-keyboard-response,465,801723,learnblock2,598.0000000001164,img/planet8_right.png,8,Community 1,NA,TRUE,j,j,NA,NA,NA,1,6,"11,8,9,1,6,13,7,3,14,15,10,2,4,5,12"
14819,commdev-image-keyboard-response,466,802974,learnblock2,627,img/planet1_left.png,1,Community 1,NA,TRUE,f,f,NA,NA,NA,1,6,"11,8,9,1,6,13,7,3,14,15,10,2,4,5,12"
14819,commdev-image-keyboard-response,467,804227,learnblock2,821,img/planet9_left.png,9,Community 1,NA,TRUE,f,f,NA,NA,NA,1,6,"11,8,9,1,6,13,7,3,14,15,10,2,4,5,12"
14819,commdev-image-keyboard-response,468,805479,learnblock2,647,img/planet6_left.png,6,Community 1,NA,TRUE,f,f,NA,NA,NA,1,6,"11,8,9,1,6,13,7,3,14,15,10,2,4,5,12"
14819,commdev-image-keyboard-response,469,806730,learnblock2,776,img/planet8_left.png,8,Community 1,NA,TRUE,f,f,NA,NA,NA,1,6,"11,8,9,1,6,13,7,3,14,15,10,2,4,5,12"
14819,commdev-image-keyboard-response,470,807981,learnblock2,628,img/planet9_right.png,9,Community 1,NA,TRUE,j,j,NA,NA,NA,1,6,"11,8,9,1,6,13,7,3,14,15,10,2,4,5,12"
14819,commdev-image-keyboard-response,471,809232,learnblock2,726,img/planet11_left.png,11,Community 1,NA,TRUE,f,f,NA,NA,NA,1,6,"11,8,9,1,6,13,7,3,14,15,10,2,4,5,12"
14819,commdev-image-keyboard-response,472,810483,learnblock2,710,img/planet6_right.png,6,Community 1,NA,TRUE,j,j,NA,NA,NA,1,6,"11,8,9,1,6,13,7,3,14,15,10,2,4,5,12"
14819,commdev-image-keyboard-response,473,811735,learnblock2,635,img/planet9_left.png,9,Community 1,NA,TRUE,f,f,NA,NA,NA,1,6,"11,8,9,1,6,13,7,3,14,15,10,2,4,5,12"
14819,commdev-image-keyboard-response,474,812987,learnblock2,595,img/planet11_left.png,11,Community 1,NA,TRUE,f,f,NA,NA,NA,1,6,"11,8,9,1,6,13,7,3,14,15,10,2,4,5,12"
14819,commdev-image-keyboard-response,475,814238,learnblock2,686,img/planet1_right.png,1,Community 1,NA,TRUE,j,j,NA,NA,NA,1,6,"11,8,9,1,6,13,7,3,14,15,10,2,4,5,12"
14819,commdev-image-keyboard-response,476,815489,learnblock2,679.9999999998836,img/planet8_left.png,8,Community 1,NA,TRUE,f,f,NA,NA,NA,1,6,"11,8,9,1,6,13,7,3,14,15,10,2,4,5,12"
14819,commdev-image-keyboard-response,477,816740,learnblock2,622,img/planet9_right.png,9,Community 1,NA,TRUE,j,j,NA,NA,NA,1,6,"11,8,9,1,6,13,7,3,14,15,10,2,4,5,12"
14819,commdev-image-keyboard-response,478,817991,learnblock2,626,img/planet1_right.png,1,Community 1,NA,TRUE,j,j,NA,NA,NA,1,6,"11,8,9,1,6,13,7,3,14,15,10,2,4,5,12"
14819,commdev-image-keyboard-response,479,819244,learnblock2,775.0000000001164,img/planet8_left.png,8,Community 1,NA,TRUE,f,f,NA,NA,NA,1,6,"11,8,9,1,6,13,7,3,14,15,10,2,4,5,12"
14819,commdev-image-keyboard-response,480,820496,learnblock2,663,img/planet11_left.png,11,Community 1,NA,TRUE,f,f,NA,NA,NA,1,6,"11,8,9,1,6,13,7,3,14,15,10,2,4,5,12"
14819,commdev-image-keyboard-response,481,821748,learnblock2,668,img/planet6_right.png,6,Community 1,NA,TRUE,j,j,NA,NA,NA,1,6,"11,8,9,1,6,13,7,3,14,15,10,2,4,5,12"
14819,commdev-image-keyboard-response,482,823000,learnblock2,660,img/planet9_right.png,9,Community 1,NA,TRUE,j,j,NA,NA,NA,1,6,"11,8,9,1,6,13,7,3,14,15,10,2,4,5,12"
14819,commdev-image-keyboard-response,483,824252,learnblock2,653,img/planet6_left.png,6,Community 1,NA,TRUE,f,f,NA,NA,NA,1,6,"11,8,9,1,6,13,7,3,14,15,10,2,4,5,12"
14819,commdev-image-keyboard-response,484,825503,learnblock2,627,img/planet11_right.png,11,Community 1,NA,TRUE,j,j,NA,NA,NA,1,6,"11,8,9,1,6,13,7,3,14,15,10,2,4,5,12"
14819,commdev-image-keyboard-response,485,826754,learnblock2,905,img/planet9_right.png,9,Community 1,NA,FALSE,f,j,NA,NA,NA,1,6,"11,8,9,1,6,13,7,3,14,15,10,2,4,5,12"
14819,commdev-image-keyboard-response,486,828007,learnblock2,767,img/planet8_right.png,8,Community 1,NA,TRUE,j,j,NA,NA,NA,1,6,"11,8,9,1,6,13,7,3,14,15,10,2,4,5,12"
14819,commdev-image-keyboard-response,487,829259,learnblock2,748,img/planet11_right.png,11,Community 1,NA,TRUE,j,j,NA,NA,NA,1,6,"11,8,9,1,6,13,7,3,14,15,10,2,4,5,12"
14819,commdev-image-keyboard-response,488,830510,learnblock2,728,img/planet9_right.png,9,Community 1,NA,TRUE,j,j,NA,NA,NA,1,6,"11,8,9,1,6,13,7,3,14,15,10,2,4,5,12"
14819,commdev-image-keyboard-response,489,831761,learnblock2,808,img/planet11_right.png,11,Community 1,NA,TRUE,j,j,NA,NA,NA,1,6,"11,8,9,1,6,13,7,3,14,15,10,2,4,5,12"
14819,commdev-image-keyboard-response,490,833012,learnblock2,694,img/planet1_right.png,1,Community 1,NA,TRUE,j,j,NA,NA,NA,1,6,"11,8,9,1,6,13,7,3,14,15,10,2,4,5,12"
14819,commdev-image-keyboard-response,491,834263,learnblock2,695,img/planet13_left.png,13,Community 2,NA,TRUE,f,f,NA,NA,NA,1,6,"11,8,9,1,6,13,7,3,14,15,10,2,4,5,12"
14819,commdev-image-keyboard-response,492,835514,learnblock2,584.9999999998836,img/planet1_left.png,1,Community 1,NA,TRUE,f,f,NA,NA,NA,1,6,"11,8,9,1,6,13,7,3,14,15,10,2,4,5,12"
14819,commdev-image-keyboard-response,493,836765,learnblock2,838,img/planet8_left.png,8,Community 1,NA,TRUE,f,f,NA,NA,NA,1,6,"11,8,9,1,6,13,7,3,14,15,10,2,4,5,12"
14819,commdev-image-keyboard-response,494,838016,learnblock2,745,img/planet6_left.png,6,Community 1,NA,TRUE,f,f,NA,NA,NA,1,6,"11,8,9,1,6,13,7,3,14,15,10,2,4,5,12"
14819,commdev-image-keyboard-response,495,839267,learnblock2,747,img/planet10_right.png,10,Community 3,NA,TRUE,j,j,NA,NA,NA,1,6,"11,8,9,1,6,13,7,3,14,15,10,2,4,5,12"
14819,commdev-image-keyboard-response,496,840518,learnblock2,789.9999999998836,img/planet12_left.png,12,Community 3,NA,TRUE,f,f,NA,NA,NA,1,6,"11,8,9,1,6,13,7,3,14,15,10,2,4,5,12"
14819,commdev-image-keyboard-response,497,841769,learnblock2,602.9999999998836,img/planet10_left.png,10,Community 3,NA,TRUE,f,f,NA,NA,NA,1,6,"11,8,9,1,6,13,7,3,14,15,10,2,4,5,12"
14819,commdev-image-keyboard-response,498,843020,learnblock2,645,img/planet6_left.png,6,Community 1,NA,TRUE,f,f,NA,NA,NA,1,6,"11,8,9,1,6,13,7,3,14,15,10,2,4,5,12"
14819,commdev-image-keyboard-response,499,844271,learnblock2,699,img/planet8_right.png,8,Community 1,NA,TRUE,j,j,NA,NA,NA,1,6,"11,8,9,1,6,13,7,3,14,15,10,2,4,5,12"
14819,commdev-image-keyboard-response,500,845522,learnblock2,585,img/planet9_right.png,9,Community 1,NA,TRUE,j,j,NA,NA,NA,1,6,"11,8,9,1,6,13,7,3,14,15,10,2,4,5,12"
14819,commdev-image-keyboard-response,501,846773,learnblock2,667,img/planet6_left.png,6,Community 1,NA,TRUE,f,f,NA,NA,NA,1,6,"11,8,9,1,6,13,7,3,14,15,10,2,4,5,12"
14819,commdev-image-keyboard-response,502,848024,learnblock2,664,img/planet10_right.png,10,Community 3,NA,TRUE,j,j,NA,NA,NA,1,6,"11,8,9,1,6,13,7,3,14,15,10,2,4,5,12"
14819,commdev-image-keyboard-response,503,849275,learnblock2,678,img/planet5_left.png,5,Community 3,NA,TRUE,f,f,NA,NA,NA,1,6,"11,8,9,1,6,13,7,3,14,15,10,2,4,5,12"
14819,commdev-image-keyboard-response,504,850526,learnblock2,1018,img/planet12_left.png,12,Community 3,NA,TRUE,f,f,NA,NA,NA,1,6,"11,8,9,1,6,13,7,3,14,15,10,2,4,5,12"
14819,commdev-image-keyboard-response,505,851777,learnblock2,783,img/planet2_right.png,2,Community 3,NA,TRUE,j,j,NA,NA,NA,1,6,"11,8,9,1,6,13,7,3,14,15,10,2,4,5,12"
14819,commdev-image-keyboard-response,506,853028,learnblock2,1048,img/planet12_left.png,12,Community 3,NA,TRUE,f,f,NA,NA,NA,1,6,"11,8,9,1,6,13,7,3,14,15,10,2,4,5,12"
14819,commdev-image-keyboard-response,507,854279,learnblock2,1029,img/planet4_left.png,4,Community 3,NA,TRUE,f,f,NA,NA,NA,1,6,"11,8,9,1,6,13,7,3,14,15,10,2,4,5,12"
14819,commdev-image-keyboard-response,508,855530,learnblock2,1062,img/planet12_right.png,12,Community 3,NA,TRUE,j,j,NA,NA,NA,1,6,"11,8,9,1,6,13,7,3,14,15,10,2,4,5,12"
14819,commdev-image-keyboard-response,509,856781,learnblock2,1064,img/planet5_right.png,5,Community 3,NA,TRUE,j,j,NA,NA,NA,1,6,"11,8,9,1,6,13,7,3,14,15,10,2,4,5,12"
14819,commdev-image-keyboard-response,510,858032,learnblock2,919,img/planet4_right.png,4,Community 3,NA,TRUE,j,j,NA,NA,NA,1,6,"11,8,9,1,6,13,7,3,14,15,10,2,4,5,12"
14819,commdev-image-keyboard-response,511,859284,learnblock2,1118.9999999998836,img/planet12_right.png,12,Community 3,NA,TRUE,j,j,NA,NA,NA,1,6,"11,8,9,1,6,13,7,3,14,15,10,2,4,5,12"
14819,commdev-image-keyboard-response,512,860536,learnblock2,775,img/planet2_right.png,2,Community 3,NA,TRUE,j,j,NA,NA,NA,1,6,"11,8,9,1,6,13,7,3,14,15,10,2,4,5,12"
14819,commdev-image-keyboard-response,513,861788,learnblock2,696,img/planet3_left.png,3,Community 2,NA,TRUE,f,f,NA,NA,NA,1,6,"11,8,9,1,6,13,7,3,14,15,10,2,4,5,12"
14819,commdev-image-keyboard-response,514,863039,learnblock2,825,img/planet15_right.png,15,Community 2,NA,TRUE,j,j,NA,NA,NA,1,6,"11,8,9,1,6,13,7,3,14,15,10,2,4,5,12"
14819,commdev-image-keyboard-response,515,864290,learnblock2,731,img/planet3_left.png,3,Community 2,NA,TRUE,f,f,NA,NA,NA,1,6,"11,8,9,1,6,13,7,3,14,15,10,2,4,5,12"
14819,commdev-image-keyboard-response,516,865541,learnblock2,1049,img/planet15_left.png,15,Community 2,NA,TRUE,f,f,NA,NA,NA,1,6,"11,8,9,1,6,13,7,3,14,15,10,2,4,5,12"
14819,commdev-image-keyboard-response,517,866792,learnblock2,808,img/planet14_left.png,14,Community 2,NA,TRUE,f,f,NA,NA,NA,1,6,"11,8,9,1,6,13,7,3,14,15,10,2,4,5,12"
14819,commdev-image-keyboard-response,518,868043,learnblock2,695.9999999998836,img/planet7_left.png,7,Community 2,NA,TRUE,f,f,NA,NA,NA,1,6,"11,8,9,1,6,13,7,3,14,15,10,2,4,5,12"
14819,commdev-image-keyboard-response,519,869294,learnblock2,714,img/planet15_left.png,15,Community 2,NA,TRUE,f,f,NA,NA,NA,1,6,"11,8,9,1,6,13,7,3,14,15,10,2,4,5,12"
14819,commdev-image-keyboard-response,520,870545,learnblock2,833,img/planet13_right.png,13,Community 2,NA,TRUE,j,j,NA,NA,NA,1,6,"11,8,9,1,6,13,7,3,14,15,10,2,4,5,12"
14819,commdev-image-keyboard-response,521,871796,learnblock2,687,img/planet7_left.png,7,Community 2,NA,TRUE,f,f,NA,NA,NA,1,6,"11,8,9,1,6,13,7,3,14,15,10,2,4,5,12"
14819,commdev-image-keyboard-response,522,873047,learnblock2,895.0000000001164,img/planet14_right.png,14,Community 2,NA,TRUE,j,j,NA,NA,NA,1,6,"11,8,9,1,6,13,7,3,14,15,10,2,4,5,12"
14819,commdev-image-keyboard-response,523,874298,learnblock2,null,img/planet7_right.png,7,Community 2,NA,FALSE,null,j,NA,NA,NA,1,6,"11,8,9,1,6,13,7,3,14,15,10,2,4,5,12"
14819,commdev-image-keyboard-response,524,875549,learnblock2,44,img/planet3_left.png,3,Community 2,NA,TRUE,f,f,NA,NA,NA,1,6,"11,8,9,1,6,13,7,3,14,15,10,2,4,5,12"
14819,commdev-image-keyboard-response,525,876801,learnblock2,668,img/planet14_left.png,14,Community 2,NA,TRUE,f,f,NA,NA,NA,1,6,"11,8,9,1,6,13,7,3,14,15,10,2,4,5,12"
14819,commdev-image-keyboard-response,526,878053,learnblock2,607,img/planet3_left.png,3,Community 2,NA,TRUE,f,f,NA,NA,NA,1,6,"11,8,9,1,6,13,7,3,14,15,10,2,4,5,12"
14819,commdev-image-keyboard-response,527,879304,learnblock2,722,img/planet14_right.png,14,Community 2,NA,TRUE,j,j,NA,NA,NA,1,6,"11,8,9,1,6,13,7,3,14,15,10,2,4,5,12"
14819,commdev-image-keyboard-response,528,880556,learnblock2,636,img/planet7_right.png,7,Community 2,NA,TRUE,j,j,NA,NA,NA,1,6,"11,8,9,1,6,13,7,3,14,15,10,2,4,5,12"
14819,commdev-image-keyboard-response,529,881806,learnblock2,983,img/planet14_right.png,14,Community 2,NA,FALSE,f,j,NA,NA,NA,1,6,"11,8,9,1,6,13,7,3,14,15,10,2,4,5,12"
14819,commdev-image-keyboard-response,530,883057,learnblock2,720.9999999998836,img/planet15_right.png,15,Community 2,NA,TRUE,j,j,NA,NA,NA,1,6,"11,8,9,1,6,13,7,3,14,15,10,2,4,5,12"
14819,commdev-image-keyboard-response,531,884308,learnblock2,689,img/planet13_left.png,13,Community 2,NA,TRUE,f,f,NA,NA,NA,1,6,"11,8,9,1,6,13,7,3,14,15,10,2,4,5,12"
14819,commdev-image-keyboard-response,532,885561,learnblock2,712,img/planet15_right.png,15,Community 2,NA,TRUE,j,j,NA,NA,NA,1,6,"11,8,9,1,6,13,7,3,14,15,10,2,4,5,12"
14819,commdev-image-keyboard-response,533,886813,learnblock2,758.9999999998836,img/planet3_right.png,3,Community 2,NA,TRUE,j,j,NA,NA,NA,1,6,"11,8,9,1,6,13,7,3,14,15,10,2,4,5,12"
14819,commdev-image-keyboard-response,534,888064,learnblock2,604.0000000001164,img/planet15_right.png,15,Community 2,NA,TRUE,j,j,NA,NA,NA,1,6,"11,8,9,1,6,13,7,3,14,15,10,2,4,5,12"
14819,commdev-image-keyboard-response,535,889315,learnblock2,852,img/planet3_right.png,3,Community 2,NA,TRUE,j,j,NA,NA,NA,1,6,"11,8,9,1,6,13,7,3,14,15,10,2,4,5,12"
14819,commdev-image-keyboard-response,536,890566,learnblock2,686,img/planet7_left.png,7,Community 2,NA,TRUE,f,f,NA,NA,NA,1,6,"11,8,9,1,6,13,7,3,14,15,10,2,4,5,12"
14819,commdev-image-keyboard-response,537,891817,learnblock2,796.9999999998836,img/planet15_left.png,15,Community 2,NA,TRUE,f,f,NA,NA,NA,1,6,"11,8,9,1,6,13,7,3,14,15,10,2,4,5,12"
14819,commdev-image-keyboard-response,538,893068,learnblock2,773.0000000001164,img/planet14_left.png,14,Community 2,NA,TRUE,f,f,NA,NA,NA,1,6,"11,8,9,1,6,13,7,3,14,15,10,2,4,5,12"
14819,commdev-image-keyboard-response,539,894319,learnblock2,735,img/planet13_right.png,13,Community 2,NA,TRUE,j,j,NA,NA,NA,1,6,"11,8,9,1,6,13,7,3,14,15,10,2,4,5,12"
14819,commdev-image-keyboard-response,540,895570,learnblock2,607,img/planet1_left.png,1,Community 1,NA,TRUE,f,f,NA,NA,NA,1,6,"11,8,9,1,6,13,7,3,14,15,10,2,4,5,12"
14819,commdev-image-keyboard-response,541,896821,learnblock2,725,img/planet11_right.png,11,Community 1,NA,TRUE,j,j,NA,NA,NA,1,6,"11,8,9,1,6,13,7,3,14,15,10,2,4,5,12"
14819,commdev-image-keyboard-response,542,898072,learnblock2,688.9999999998836,img/planet1_left.png,1,Community 1,NA,TRUE,f,f,NA,NA,NA,1,6,"11,8,9,1,6,13,7,3,14,15,10,2,4,5,12"
14819,commdev-image-keyboard-response,543,899323,learnblock2,761,img/planet9_left.png,9,Community 1,NA,TRUE,f,f,NA,NA,NA,1,6,"11,8,9,1,6,13,7,3,14,15,10,2,4,5,12"
14819,commdev-image-keyboard-response,544,900574,learnblock2,647.0000000001164,img/planet11_right.png,11,Community 1,NA,TRUE,j,j,NA,NA,NA,1,6,"11,8,9,1,6,13,7,3,14,15,10,2,4,5,12"
14819,commdev-image-keyboard-response,545,901827,learnblock2,810,img/planet8_left.png,8,Community 1,NA,TRUE,f,f,NA,NA,NA,1,6,"11,8,9,1,6,13,7,3,14,15,10,2,4,5,12"
14819,commdev-image-keyboard-response,546,903079,learnblock2,672,img/planet11_left.png,11,Community 1,NA,TRUE,f,f,NA,NA,NA,1,6,"11,8,9,1,6,13,7,3,14,15,10,2,4,5,12"
14819,commdev-image-keyboard-response,547,904330,learnblock2,585,img/planet1_left.png,1,Community 1,NA,TRUE,f,f,NA,NA,NA,1,6,"11,8,9,1,6,13,7,3,14,15,10,2,4,5,12"
14819,commdev-image-keyboard-response,548,905581,learnblock2,592,img/planet11_left.png,11,Community 1,NA,TRUE,f,f,NA,NA,NA,1,6,"11,8,9,1,6,13,7,3,14,15,10,2,4,5,12"
14819,commdev-image-keyboard-response,549,906832,learnblock2,836.0000000001164,img/planet9_right.png,9,Community 1,NA,TRUE,j,j,NA,NA,NA,1,6,"11,8,9,1,6,13,7,3,14,15,10,2,4,5,12"
14819,commdev-image-keyboard-response,550,908083,learnblock2,677,img/planet1_left.png,1,Community 1,NA,TRUE,f,f,NA,NA,NA,1,6,"11,8,9,1,6,13,7,3,14,15,10,2,4,5,12"
14819,commdev-image-keyboard-response,551,909336,learnblock2,1067,img/planet8_left.png,8,Community 1,NA,TRUE,f,f,NA,NA,NA,1,6,"11,8,9,1,6,13,7,3,14,15,10,2,4,5,12"
14819,commdev-image-keyboard-response,552,910588,learnblock2,756.9999999998836,img/planet11_right.png,11,Community 1,NA,TRUE,j,j,NA,NA,NA,1,6,"11,8,9,1,6,13,7,3,14,15,10,2,4,5,12"
14819,commdev-image-keyboard-response,553,911839,learnblock2,675.0000000001164,img/planet1_right.png,1,Community 1,NA,TRUE,j,j,NA,NA,NA,1,6,"11,8,9,1,6,13,7,3,14,15,10,2,4,5,12"
14819,commdev-image-keyboard-response,554,913090,learnblock2,757.0000000001164,img/planet9_left.png,9,Community 1,NA,TRUE,f,f,NA,NA,NA,1,6,"11,8,9,1,6,13,7,3,14,15,10,2,4,5,12"
14819,commdev-image-keyboard-response,555,914341,learnblock2,678,img/planet6_right.png,6,Community 1,NA,TRUE,j,j,NA,NA,NA,1,6,"11,8,9,1,6,13,7,3,14,15,10,2,4,5,12"
14819,commdev-image-keyboard-response,556,915592,learnblock2,604,img/planet11_left.png,11,Community 1,NA,TRUE,f,f,NA,NA,NA,1,6,"11,8,9,1,6,13,7,3,14,15,10,2,4,5,12"
14819,commdev-image-keyboard-response,557,916843,learnblock2,619,img/planet9_left.png,9,Community 1,NA,TRUE,f,f,NA,NA,NA,1,6,"11,8,9,1,6,13,7,3,14,15,10,2,4,5,12"
14819,commdev-image-keyboard-response,558,918095,learnblock2,748,img/planet8_left.png,8,Community 1,NA,TRUE,f,f,NA,NA,NA,1,6,"11,8,9,1,6,13,7,3,14,15,10,2,4,5,12"
14819,commdev-image-keyboard-response,559,919348,learnblock2,692.9999999998836,img/planet6_right.png,6,Community 1,NA,TRUE,j,j,NA,NA,NA,1,6,"11,8,9,1,6,13,7,3,14,15,10,2,4,5,12"
14819,commdev-image-keyboard-response,560,920599,learnblock2,990,img/planet11_right.png,11,Community 1,NA,FALSE,f,j,NA,NA,NA,1,6,"11,8,9,1,6,13,7,3,14,15,10,2,4,5,12"
14819,commdev-image-keyboard-response,561,921850,learnblock2,718.0000000001164,img/planet8_right.png,8,Community 1,NA,TRUE,j,j,NA,NA,NA,1,6,"11,8,9,1,6,13,7,3,14,15,10,2,4,5,12"
14819,commdev-image-keyboard-response,562,923101,learnblock2,694,img/planet6_right.png,6,Community 1,NA,TRUE,j,j,NA,NA,NA,1,6,"11,8,9,1,6,13,7,3,14,15,10,2,4,5,12"
14819,commdev-image-keyboard-response,563,924352,learnblock2,711.0000000001164,img/planet11_left.png,11,Community 1,NA,TRUE,f,f,NA,NA,NA,1,6,"11,8,9,1,6,13,7,3,14,15,10,2,4,5,12"
14819,commdev-image-keyboard-response,564,925603,learnblock2,589,img/planet1_left.png,1,Community 1,NA,TRUE,f,f,NA,NA,NA,1,6,"11,8,9,1,6,13,7,3,14,15,10,2,4,5,12"
14819,commdev-image-keyboard-response,565,926854,learnblock2,621,img/planet11_right.png,11,Community 1,NA,TRUE,j,j,NA,NA,NA,1,6,"11,8,9,1,6,13,7,3,14,15,10,2,4,5,12"
14819,commdev-image-keyboard-response,566,928105,learnblock2,754,img/planet1_right.png,1,Community 1,NA,TRUE,j,j,NA,NA,NA,1,6,"11,8,9,1,6,13,7,3,14,15,10,2,4,5,12"
14819,commdev-image-keyboard-response,567,929356,learnblock2,612,img/planet13_left.png,13,Community 2,NA,TRUE,f,f,NA,NA,NA,1,6,"11,8,9,1,6,13,7,3,14,15,10,2,4,5,12"
14819,commdev-image-keyboard-response,568,930607,learnblock2,623,img/planet1_right.png,1,Community 1,NA,TRUE,j,j,NA,NA,NA,1,6,"11,8,9,1,6,13,7,3,14,15,10,2,4,5,12"
14819,commdev-image-keyboard-response,569,931858,learnblock2,1170,img/planet11_right.png,11,Community 1,NA,TRUE,j,j,NA,NA,NA,1,6,"11,8,9,1,6,13,7,3,14,15,10,2,4,5,12"
14819,commdev-image-keyboard-response,570,933109,learnblock2,914,img/planet8_right.png,8,Community 1,NA,TRUE,j,j,NA,NA,NA,1,6,"11,8,9,1,6,13,7,3,14,15,10,2,4,5,12"
14819,commdev-image-keyboard-response,571,934360,learnblock2,716,img/planet1_right.png,1,Community 1,NA,TRUE,j,j,NA,NA,NA,1,6,"11,8,9,1,6,13,7,3,14,15,10,2,4,5,12"
14819,commdev-image-keyboard-response,572,935611,learnblock2,645.9999999998836,img/planet9_left.png,9,Community 1,NA,TRUE,f,f,NA,NA,NA,1,6,"11,8,9,1,6,13,7,3,14,15,10,2,4,5,12"
14819,commdev-image-keyboard-response,573,936862,learnblock2,637,img/planet8_left.png,8,Community 1,NA,TRUE,f,f,NA,NA,NA,1,6,"11,8,9,1,6,13,7,3,14,15,10,2,4,5,12"
14819,commdev-image-keyboard-response,574,938113,learnblock2,535,img/planet9_left.png,9,Community 1,NA,TRUE,f,f,NA,NA,NA,1,6,"11,8,9,1,6,13,7,3,14,15,10,2,4,5,12"
14819,commdev-image-keyboard-response,575,939364,learnblock2,650,img/planet1_right.png,1,Community 1,NA,TRUE,j,j,NA,NA,NA,1,6,"11,8,9,1,6,13,7,3,14,15,10,2,4,5,12"
14819,commdev-image-keyboard-response,576,940616,learnblock2,793,img/planet11_right.png,11,Community 1,NA,TRUE,j,j,NA,NA,NA,1,6,"11,8,9,1,6,13,7,3,14,15,10,2,4,5,12"
14819,commdev-image-keyboard-response,577,941869,learnblock2,643,img/planet9_left.png,9,Community 1,NA,TRUE,f,f,NA,NA,NA,1,6,"11,8,9,1,6,13,7,3,14,15,10,2,4,5,12"
14819,commdev-image-keyboard-response,578,943120,learnblock2,678,img/planet6_left.png,6,Community 1,NA,TRUE,f,f,NA,NA,NA,1,6,"11,8,9,1,6,13,7,3,14,15,10,2,4,5,12"
14819,commdev-image-keyboard-response,579,944371,learnblock2,633.9999999998836,img/planet11_left.png,11,Community 1,NA,TRUE,f,f,NA,NA,NA,1,6,"11,8,9,1,6,13,7,3,14,15,10,2,4,5,12"
14819,commdev-image-keyboard-response,580,945622,learnblock2,695,img/planet6_left.png,6,Community 1,NA,TRUE,f,f,NA,NA,NA,1,6,"11,8,9,1,6,13,7,3,14,15,10,2,4,5,12"
14819,commdev-image-keyboard-response,581,946873,learnblock2,752,img/planet8_right.png,8,Community 1,NA,TRUE,j,j,NA,NA,NA,1,6,"11,8,9,1,6,13,7,3,14,15,10,2,4,5,12"
14819,commdev-image-keyboard-response,582,948124,learnblock2,717,img/planet9_right.png,9,Community 1,NA,TRUE,j,j,NA,NA,NA,1,6,"11,8,9,1,6,13,7,3,14,15,10,2,4,5,12"
14819,commdev-image-keyboard-response,583,949376,learnblock2,666,img/planet1_right.png,1,Community 1,NA,TRUE,j,j,NA,NA,NA,1,6,"11,8,9,1,6,13,7,3,14,15,10,2,4,5,12"
14819,commdev-image-keyboard-response,584,950628,learnblock2,695,img/planet9_right.png,9,Community 1,NA,TRUE,j,j,NA,NA,NA,1,6,"11,8,9,1,6,13,7,3,14,15,10,2,4,5,12"
14819,commdev-image-keyboard-response,585,951879,learnblock2,653,img/planet6_left.png,6,Community 1,NA,TRUE,f,f,NA,NA,NA,1,6,"11,8,9,1,6,13,7,3,14,15,10,2,4,5,12"
14819,commdev-image-keyboard-response,586,953130,learnblock2,632,img/planet10_right.png,10,Community 3,NA,TRUE,j,j,NA,NA,NA,1,6,"11,8,9,1,6,13,7,3,14,15,10,2,4,5,12"
14819,commdev-image-keyboard-response,587,954381,learnblock2,738,img/planet6_left.png,6,Community 1,NA,TRUE,f,f,NA,NA,NA,1,6,"11,8,9,1,6,13,7,3,14,15,10,2,4,5,12"
14819,commdev-image-keyboard-response,588,955632,learnblock2,838,img/planet11_right.png,11,Community 1,NA,TRUE,j,j,NA,NA,NA,1,6,"11,8,9,1,6,13,7,3,14,15,10,2,4,5,12"
14819,commdev-image-keyboard-response,589,956883,learnblock2,635,img/planet1_right.png,1,Community 1,NA,TRUE,j,j,NA,NA,NA,1,6,"11,8,9,1,6,13,7,3,14,15,10,2,4,5,12"
14819,commdev-image-keyboard-response,590,958135,learnblock2,792,img/planet11_right.png,11,Community 1,NA,FALSE,f,j,NA,NA,NA,1,6,"11,8,9,1,6,13,7,3,14,15,10,2,4,5,12"
14819,commdev-image-keyboard-response,591,959385,learnblock2,592.9999999998836,img/planet9_right.png,9,Community 1,NA,TRUE,j,j,NA,NA,NA,1,6,"11,8,9,1,6,13,7,3,14,15,10,2,4,5,12"
14819,commdev-image-keyboard-response,592,960636,learnblock2,532,img/planet1_left.png,1,Community 1,NA,FALSE,j,f,NA,NA,NA,1,6,"11,8,9,1,6,13,7,3,14,15,10,2,4,5,12"
14819,commdev-image-keyboard-response,593,961887,learnblock2,769,img/planet13_left.png,13,Community 2,NA,TRUE,f,f,NA,NA,NA,1,6,"11,8,9,1,6,13,7,3,14,15,10,2,4,5,12"
14819,commdev-image-keyboard-response,594,963138,learnblock2,627.0000000001164,img/planet15_left.png,15,Community 2,NA,TRUE,f,f,NA,NA,NA,1,6,"11,8,9,1,6,13,7,3,14,15,10,2,4,5,12"
14819,commdev-image-keyboard-response,595,964390,learnblock2,663,img/planet14_left.png,14,Community 2,NA,TRUE,f,f,NA,NA,NA,1,6,"11,8,9,1,6,13,7,3,14,15,10,2,4,5,12"
14819,commdev-image-keyboard-response,596,965640,learnblock2,723.9999999998836,img/planet7_right.png,7,Community 2,NA,TRUE,j,j,NA,NA,NA,1,6,"11,8,9,1,6,13,7,3,14,15,10,2,4,5,12"
14819,commdev-image-keyboard-response,597,966891,learnblock2,1111,img/planet14_right.png,14,Community 2,NA,TRUE,j,j,NA,NA,NA,1,6,"11,8,9,1,6,13,7,3,14,15,10,2,4,5,12"
14819,commdev-image-keyboard-response,598,968142,learnblock2,814,img/planet7_left.png,7,Community 2,NA,TRUE,f,f,NA,NA,NA,1,6,"11,8,9,1,6,13,7,3,14,15,10,2,4,5,12"
14819,commdev-image-keyboard-response,599,969393,learnblock2,794,img/planet3_left.png,3,Community 2,NA,TRUE,f,f,NA,NA,NA,1,6,"11,8,9,1,6,13,7,3,14,15,10,2,4,5,12"
14819,commdev-image-keyboard-response,600,970645,learnblock2,671,img/planet7_left.png,7,Community 2,NA,TRUE,f,f,NA,NA,NA,1,6,"11,8,9,1,6,13,7,3,14,15,10,2,4,5,12"
14819,commdev-image-keyboard-response,601,971897,learnblock2,765,img/planet3_left.png,3,Community 2,NA,TRUE,f,f,NA,NA,NA,1,6,"11,8,9,1,6,13,7,3,14,15,10,2,4,5,12"
14819,commdev-image-keyboard-response,602,973150,learnblock2,726,img/planet15_right.png,15,Community 2,NA,TRUE,j,j,NA,NA,NA,1,6,"11,8,9,1,6,13,7,3,14,15,10,2,4,5,12"
14819,commdev-image-keyboard-response,603,974402,learnblock2,939.9999999998836,img/planet14_right.png,14,Community 2,NA,TRUE,j,j,NA,NA,NA,1,6,"11,8,9,1,6,13,7,3,14,15,10,2,4,5,12"
14819,commdev-image-keyboard-response,604,975654,learnblock2,765,img/planet13_left.png,13,Community 2,NA,TRUE,f,f,NA,NA,NA,1,6,"11,8,9,1,6,13,7,3,14,15,10,2,4,5,12"
14819,commdev-image-keyboard-response,605,976905,learnblock2,652,img/planet1_left.png,1,Community 1,NA,TRUE,f,f,NA,NA,NA,1,6,"11,8,9,1,6,13,7,3,14,15,10,2,4,5,12"
14819,commdev-image-keyboard-response,606,978156,learnblock2,699,img/planet9_left.png,9,Community 1,NA,TRUE,f,f,NA,NA,NA,1,6,"11,8,9,1,6,13,7,3,14,15,10,2,4,5,12"
14819,commdev-image-keyboard-response,607,979407,learnblock2,700,img/planet6_left.png,6,Community 1,NA,TRUE,f,f,NA,NA,NA,1,6,"11,8,9,1,6,13,7,3,14,15,10,2,4,5,12"
14819,commdev-image-keyboard-response,608,980660,learnblock2,663,img/planet11_left.png,11,Community 1,NA,TRUE,f,f,NA,NA,NA,1,6,"11,8,9,1,6,13,7,3,14,15,10,2,4,5,12"
14819,commdev-image-keyboard-response,609,981912,learnblock2,670,img/planet6_right.png,6,Community 1,NA,TRUE,j,j,NA,NA,NA,1,6,"11,8,9,1,6,13,7,3,14,15,10,2,4,5,12"
14819,commdev-image-keyboard-response,610,983163,learnblock2,690,img/planet11_left.png,11,Community 1,NA,TRUE,f,f,NA,NA,NA,1,6,"11,8,9,1,6,13,7,3,14,15,10,2,4,5,12"
14819,commdev-image-keyboard-response,611,984414,learnblock2,784,img/planet8_right.png,8,Community 1,NA,TRUE,j,j,NA,NA,NA,1,6,"11,8,9,1,6,13,7,3,14,15,10,2,4,5,12"
14819,commdev-image-keyboard-response,612,985665,learnblock2,690.9999999998836,img/planet1_right.png,1,Community 1,NA,TRUE,j,j,NA,NA,NA,1,6,"11,8,9,1,6,13,7,3,14,15,10,2,4,5,12"
14819,commdev-image-keyboard-response,613,986916,learnblock2,726,img/planet8_right.png,8,Community 1,NA,TRUE,j,j,NA,NA,NA,1,6,"11,8,9,1,6,13,7,3,14,15,10,2,4,5,12"
14819,commdev-image-keyboard-response,614,988168,learnblock2,634,img/planet11_right.png,11,Community 1,NA,TRUE,j,j,NA,NA,NA,1,6,"11,8,9,1,6,13,7,3,14,15,10,2,4,5,12"
