subject_id,trial_type,trial_index,time_elapsed,block,rt,stimulus,planet,community,response,correct,key_press,learning_correct_response,parse,init_locations,final_locations,browser_interactions,num_comp,planet_map
14517,commdev-instructions,7,122667,NA,3329,"<p>In this game, you will be shown a 3x3 grid of patterns.</p> <p>The last one in the bottom right-hand corner, <strong>will be missing:</strong></p> <div style='width: 700px;'><div style='float: top;'><img style='width: 200px;' src='practice/p1_M1.png'></img><p class='small'>You need to select<strong> which of the four possible patterns </strong>along the bottom<strong> fits into the gap:</strong></p></div><div style='float: top;'><img style='width: 300px;' src='practice/p1_T1.png'></img></div><br>",NA,NA,NA,NA,NA,NA,NA,NA,NA,3,7,"14,7,2,1,15,11,10,3,12,9,6,4,13,8,5"
14517,commdev-instructions,8,143601,NA,2429,"<p>Try to be as fast and as accurate as you can be.</p> <p>If you cannot solve the puzzle then you should guess - you will not be penalised for an incorrect answer.</p> <p>The task contains a shuffled mix of easy, medium and hard puzzles.</p> <p>You will have <strong>30 seconds</strong> to complete each puzzle.</p><br>",NA,NA,NA,NA,NA,NA,NA,NA,NA,3,7,"14,7,2,1,15,11,10,3,12,9,6,4,13,8,5"
14517,commdev-instructions,17,182655,NA,2124,<p><strong>Success!</strong></p> <p>You seem to be getting the hang of this...</p> <p>Let's move on to the real trials.</p><br>,NA,NA,NA,NA,NA,NA,NA,NA,NA,3,7,"14,7,2,1,15,11,10,3,12,9,6,4,13,8,5"
14517,commdev-instructions,121,680398,NA,5776,"<p>In this game, you are a scientist on board a space shuttle. </p><p> On each mission, you will visit planets all across the universe.</p><img src=""img/controlroom.jpg"" width=300vw>",NA,NA,NA,NA,NA,NA,NA,NA,NA,3,7,"14,7,2,1,15,11,10,3,12,9,6,4,13,8,5"
14517,commdev-instructions,122,686389,NA,3900,"<p>Here are a few planets you might see:</p><img src=""img/practice1.png"" width=200vw><img src=""img/practice2.png"" width=200vw><img src=""img/practice3.png"" width=200vw>",NA,NA,NA,NA,NA,NA,NA,NA,NA,3,7,"14,7,2,1,15,11,10,3,12,9,6,4,13,8,5"
14517,commdev-instructions,123,697899,NA,4091,"<p>Your job as a scientist is to record which direction the winds are moving on each planet.</p><p>There are two types of wind directions:</p><img src=""img/practice1_left.png"" width=200vw><img src=""img/practice1_right.png"" width=200vw>",NA,NA,NA,NA,NA,NA,NA,NA,NA,3,7,"14,7,2,1,15,11,10,3,12,9,6,4,13,8,5"
14517,commdev-instructions,124,705227,NA,2439,"<p>If the winds are moving this way, press the letter <strong>F</strong> on the keyboard as fast as you can.</p><img src=""img/leftwind.png"" width=250vw>",NA,NA,NA,NA,NA,NA,NA,NA,NA,3,7,"14,7,2,1,15,11,10,3,12,9,6,4,13,8,5"
14517,commdev-instructions,125,711115,NA,1367,"<p>If the winds are moving this way, press the letter <strong>J</strong> on the keyboard as fast as you can.</p><img src=""img/rightwind.png"" width=350vw>",NA,NA,NA,NA,NA,NA,NA,NA,NA,3,7,"14,7,2,1,15,11,10,3,12,9,6,4,13,8,5"
14517,commdev-instructions,126,717809,NA,2261,<p>You will have 1 second to respond. Try to respond before the time runs out!,NA,NA,NA,NA,NA,NA,NA,NA,NA,3,7,"14,7,2,1,15,11,10,3,12,9,6,4,13,8,5"
14517,commdev-instructions,127,724067,NA,809,<p>The planets you will visit will look different from each other.</p><p>You should respond <strong>only</strong> based on wind direction.,NA,NA,NA,NA,NA,NA,NA,NA,NA,3,7,"14,7,2,1,15,11,10,3,12,9,6,4,13,8,5"
14517,commdev-instructions,128,731169,NA,1913,"<p> Ready to start the practice round? </p><p> Remember, press <strong>F</strong> or <strong>J</strong> depending on the wind direction.<br><img src=""img/categorize_planet_example.png""",NA,NA,NA,NA,NA,NA,NA,NA,NA,3,7,"14,7,2,1,15,11,10,3,12,9,6,4,13,8,5"
14517,commdev-instructions,140,792895,NA,2528,"<p>Great, now try a short practice mission. </p><p> This time, you will have 1 second to respond and you won't know whether you pressed the right or wrong key for each planet.</p>",NA,NA,NA,NA,NA,NA,NA,NA,NA,3,7,"14,7,2,1,15,11,10,3,12,9,6,4,13,8,5"
14517,commdev-image-keyboard-response,141,794274,practice,null,img/practice2_right.png,NA,Number not found in mappings,NA,FALSE,null,j,NA,NA,NA,3,7,"14,7,2,1,15,11,10,3,12,9,6,4,13,8,5"
14517,commdev-image-keyboard-response,142,795528,practice,161,img/practice4_right.png,NA,Number not found in mappings,NA,FALSE,f,j,NA,NA,NA,3,7,"14,7,2,1,15,11,10,3,12,9,6,4,13,8,5"
14517,commdev-image-keyboard-response,143,796867,practice,1144,img/practice3_left.png,NA,Number not found in mappings,NA,FALSE,j,f,NA,NA,NA,3,7,"14,7,2,1,15,11,10,3,12,9,6,4,13,8,5"
14517,commdev-image-keyboard-response,144,798124,practice,756,img/practice4_left.png,NA,Number not found in mappings,NA,TRUE,f,f,NA,NA,NA,3,7,"14,7,2,1,15,11,10,3,12,9,6,4,13,8,5"
14517,commdev-image-keyboard-response,145,799383,practice,160,img/practice2_left.png,NA,Number not found in mappings,NA,TRUE,f,f,NA,NA,NA,3,7,"14,7,2,1,15,11,10,3,12,9,6,4,13,8,5"
14517,commdev-image-keyboard-response,146,800649,practice,1204,img/practice3_left.png,NA,Number not found in mappings,NA,FALSE,j,f,NA,NA,NA,3,7,"14,7,2,1,15,11,10,3,12,9,6,4,13,8,5"
14517,commdev-image-keyboard-response,147,801904,practice,744,img/practice1_left.png,NA,Number not found in mappings,NA,TRUE,f,f,NA,NA,NA,3,7,"14,7,2,1,15,11,10,3,12,9,6,4,13,8,5"
14517,commdev-image-keyboard-response,148,803165,practice,749,img/practice3_left.png,NA,Number not found in mappings,NA,FALSE,j,f,NA,NA,NA,3,7,"14,7,2,1,15,11,10,3,12,9,6,4,13,8,5"
14517,commdev-instructions,149,814518,NA,1781,"<p>Great job with the practice round.</p><p>During real missions, you won't know whether you pressed the right or wrong key for each planet.</p><p>But between missions, we will tell you how you did overall.</p>",NA,NA,NA,NA,NA,NA,NA,NA,NA,3,7,"14,7,2,1,15,11,10,3,12,9,6,4,13,8,5"
14517,commdev-instructions,150,823936,NA,1160,<p>Try your best! You will be paid a bonus based on how many correct responses you make!</p><p>Responses that are too slow will not count toward your bonus.</p>,NA,NA,NA,NA,NA,NA,NA,NA,NA,3,7,"14,7,2,1,15,11,10,3,12,9,6,4,13,8,5"
14517,commdev-instructions,151,831160,NA,1013,"<p>You are almost ready to start the real game.</p><p> First, we are going to ask you some questions about how the game works.</p>",NA,NA,NA,NA,NA,NA,NA,NA,NA,3,7,"14,7,2,1,15,11,10,3,12,9,6,4,13,8,5"
14517,commdev-instructions,160,917546,NA,3759,"<p> Nice work! It is now time to start the real game.<p></p>You will go on two missions to record wind directions of different planets.<p></p>Each one will take about 5 minutes. You will get to take a break between missions.<p><p> Remember, press <strong>F</strong> or <strong>J</strong> depending on the wind direction. Good luck!<br><img src=""img/categorize_planet_example.png""",NA,NA,NA,NA,NA,NA,NA,NA,NA,3,7,"14,7,2,1,15,11,10,3,12,9,6,4,13,8,5"
14517,commdev-image-keyboard-response,162,922244,learnblock1,null,img/planet10_left.png,10,Community 2,NA,FALSE,null,f,NA,NA,NA,3,7,"14,7,2,1,15,11,10,3,12,9,6,4,13,8,5"
14517,commdev-image-keyboard-response,163,923511,learnblock1,1237,img/planet12_right.png,12,Community 2,NA,FALSE,f,j,NA,NA,NA,3,7,"14,7,2,1,15,11,10,3,12,9,6,4,13,8,5"
14517,commdev-image-keyboard-response,164,924764,learnblock1,863,img/planet9_left.png,9,Community 2,NA,FALSE,j,f,NA,NA,NA,3,7,"14,7,2,1,15,11,10,3,12,9,6,4,13,8,5"
14517,commdev-image-keyboard-response,165,926029,learnblock1,1056,img/planet11_left.png,11,Community 2,NA,TRUE,f,f,NA,NA,NA,3,7,"14,7,2,1,15,11,10,3,12,9,6,4,13,8,5"
14517,commdev-image-keyboard-response,166,927290,learnblock1,1070,img/planet12_left.png,12,Community 2,NA,TRUE,f,f,NA,NA,NA,3,7,"14,7,2,1,15,11,10,3,12,9,6,4,13,8,5"
14517,commdev-image-keyboard-response,167,928552,learnblock1,748,img/planet11_right.png,11,Community 2,NA,TRUE,j,j,NA,NA,NA,3,7,"14,7,2,1,15,11,10,3,12,9,6,4,13,8,5"
14517,commdev-image-keyboard-response,168,929809,learnblock1,179,img/planet9_right.png,9,Community 2,NA,TRUE,j,j,NA,NA,NA,3,7,"14,7,2,1,15,11,10,3,12,9,6,4,13,8,5"
14517,commdev-image-keyboard-response,169,931076,learnblock1,815,img/planet10_right.png,10,Community 2,NA,TRUE,j,j,NA,NA,NA,3,7,"14,7,2,1,15,11,10,3,12,9,6,4,13,8,5"
14517,commdev-image-keyboard-response,170,932329,learnblock1,1059,img/planet11_left.png,11,Community 2,NA,FALSE,j,f,NA,NA,NA,3,7,"14,7,2,1,15,11,10,3,12,9,6,4,13,8,5"
14517,commdev-image-keyboard-response,171,933581,learnblock1,683,img/planet12_right.png,12,Community 2,NA,FALSE,f,j,NA,NA,NA,3,7,"14,7,2,1,15,11,10,3,12,9,6,4,13,8,5"
14517,commdev-image-keyboard-response,172,934847,learnblock1,634,img/planet11_left.png,11,Community 2,NA,FALSE,j,f,NA,NA,NA,3,7,"14,7,2,1,15,11,10,3,12,9,6,4,13,8,5"
14517,commdev-image-keyboard-response,173,936105,learnblock1,848,img/planet9_right.png,9,Community 2,NA,FALSE,f,j,NA,NA,NA,3,7,"14,7,2,1,15,11,10,3,12,9,6,4,13,8,5"
14517,commdev-image-keyboard-response,174,937371,learnblock1,1111,img/planet3_right.png,3,Community 2,NA,FALSE,f,j,NA,NA,NA,3,7,"14,7,2,1,15,11,10,3,12,9,6,4,13,8,5"
14517,commdev-image-keyboard-response,175,938626,learnblock1,787,img/planet9_left.png,9,Community 2,NA,FALSE,j,f,NA,NA,NA,3,7,"14,7,2,1,15,11,10,3,12,9,6,4,13,8,5"
14517,commdev-image-keyboard-response,176,939879,learnblock1,910,img/planet10_right.png,10,Community 2,NA,FALSE,f,j,NA,NA,NA,3,7,"14,7,2,1,15,11,10,3,12,9,6,4,13,8,5"
14517,commdev-image-keyboard-response,177,941142,learnblock1,545,img/planet3_left.png,3,Community 2,NA,TRUE,f,f,NA,NA,NA,3,7,"14,7,2,1,15,11,10,3,12,9,6,4,13,8,5"
14517,commdev-image-keyboard-response,178,942433,learnblock1,613,img/planet4_left.png,4,Community 3,NA,FALSE,j,f,NA,NA,NA,3,7,"14,7,2,1,15,11,10,3,12,9,6,4,13,8,5"
14517,commdev-image-keyboard-response,179,943688,learnblock1,754,img/planet3_right.png,3,Community 2,NA,FALSE,f,j,NA,NA,NA,3,7,"14,7,2,1,15,11,10,3,12,9,6,4,13,8,5"
14517,commdev-image-keyboard-response,180,944952,learnblock1,668,img/planet12_right.png,12,Community 2,NA,TRUE,j,j,NA,NA,NA,3,7,"14,7,2,1,15,11,10,3,12,9,6,4,13,8,5"
14517,commdev-image-keyboard-response,181,946215,learnblock1,688,img/planet11_left.png,11,Community 2,NA,TRUE,f,f,NA,NA,NA,3,7,"14,7,2,1,15,11,10,3,12,9,6,4,13,8,5"
14517,commdev-image-keyboard-response,182,947476,learnblock1,318,img/planet12_left.png,12,Community 2,NA,TRUE,f,f,NA,NA,NA,3,7,"14,7,2,1,15,11,10,3,12,9,6,4,13,8,5"
14517,commdev-image-keyboard-response,183,948728,learnblock1,410,img/planet10_left.png,10,Community 2,NA,TRUE,f,f,NA,NA,NA,3,7,"14,7,2,1,15,11,10,3,12,9,6,4,13,8,5"
14517,commdev-image-keyboard-response,184,949994,learnblock1,694,img/planet3_left.png,3,Community 2,NA,FALSE,j,f,NA,NA,NA,3,7,"14,7,2,1,15,11,10,3,12,9,6,4,13,8,5"
14517,commdev-image-keyboard-response,185,951252,learnblock1,703,img/planet9_left.png,9,Community 2,NA,TRUE,f,f,NA,NA,NA,3,7,"14,7,2,1,15,11,10,3,12,9,6,4,13,8,5"
14517,commdev-image-keyboard-response,186,952508,learnblock1,441,img/planet3_left.png,3,Community 2,NA,TRUE,f,f,NA,NA,NA,3,7,"14,7,2,1,15,11,10,3,12,9,6,4,13,8,5"
14517,commdev-image-keyboard-response,187,953767,learnblock1,517,img/planet9_left.png,9,Community 2,NA,FALSE,j,f,NA,NA,NA,3,7,"14,7,2,1,15,11,10,3,12,9,6,4,13,8,5"
14517,commdev-image-keyboard-response,188,955031,learnblock1,454,img/planet3_left.png,3,Community 2,NA,FALSE,j,f,NA,NA,NA,3,7,"14,7,2,1,15,11,10,3,12,9,6,4,13,8,5"
14517,commdev-image-keyboard-response,189,956282,learnblock1,745,img/planet12_left.png,12,Community 2,NA,TRUE,f,f,NA,NA,NA,3,7,"14,7,2,1,15,11,10,3,12,9,6,4,13,8,5"
14517,commdev-image-keyboard-response,190,957534,learnblock1,352,img/planet11_right.png,11,Community 2,NA,FALSE,f,j,NA,NA,NA,3,7,"14,7,2,1,15,11,10,3,12,9,6,4,13,8,5"
14517,commdev-image-keyboard-response,191,958792,learnblock1,679,img/planet10_left.png,10,Community 2,NA,FALSE,j,f,NA,NA,NA,3,7,"14,7,2,1,15,11,10,3,12,9,6,4,13,8,5"
14517,commdev-image-keyboard-response,192,960047,learnblock1,410,img/planet3_right.png,3,Community 2,NA,TRUE,j,j,NA,NA,NA,3,7,"14,7,2,1,15,11,10,3,12,9,6,4,13,8,5"
14517,commdev-image-keyboard-response,193,961312,learnblock1,660,img/planet9_left.png,9,Community 2,NA,TRUE,f,f,NA,NA,NA,3,7,"14,7,2,1,15,11,10,3,12,9,6,4,13,8,5"
14517,commdev-image-keyboard-response,194,962708,learnblock1,648,img/planet3_left.png,3,Community 2,NA,FALSE,j,f,NA,NA,NA,3,7,"14,7,2,1,15,11,10,3,12,9,6,4,13,8,5"
14517,commdev-image-keyboard-response,195,963962,learnblock1,658,img/planet10_left.png,10,Community 2,NA,TRUE,f,f,NA,NA,NA,3,7,"14,7,2,1,15,11,10,3,12,9,6,4,13,8,5"
14517,commdev-image-keyboard-response,196,965370,learnblock1,398,img/planet11_right.png,11,Community 2,NA,FALSE,f,j,NA,NA,NA,3,7,"14,7,2,1,15,11,10,3,12,9,6,4,13,8,5"
14517,commdev-image-keyboard-response,197,966626,learnblock1,342,img/planet12_left.png,12,Community 2,NA,FALSE,j,f,NA,NA,NA,3,7,"14,7,2,1,15,11,10,3,12,9,6,4,13,8,5"
14517,commdev-image-keyboard-response,198,967879,learnblock1,420,img/planet10_left.png,10,Community 2,NA,TRUE,f,f,NA,NA,NA,3,7,"14,7,2,1,15,11,10,3,12,9,6,4,13,8,5"
14517,commdev-image-keyboard-response,199,969142,learnblock1,296,img/planet11_right.png,11,Community 2,NA,FALSE,f,j,NA,NA,NA,3,7,"14,7,2,1,15,11,10,3,12,9,6,4,13,8,5"
14517,commdev-image-keyboard-response,200,970393,learnblock1,226,img/planet9_right.png,9,Community 2,NA,TRUE,j,j,NA,NA,NA,3,7,"14,7,2,1,15,11,10,3,12,9,6,4,13,8,5"
14517,commdev-image-keyboard-response,201,971659,learnblock1,260,img/planet11_right.png,11,Community 2,NA,TRUE,j,j,NA,NA,NA,3,7,"14,7,2,1,15,11,10,3,12,9,6,4,13,8,5"
14517,commdev-image-keyboard-response,202,972918,learnblock1,685,img/planet1_left.png,1,Community 1,NA,TRUE,f,f,NA,NA,NA,3,7,"14,7,2,1,15,11,10,3,12,9,6,4,13,8,5"
14517,commdev-image-keyboard-response,203,974182,learnblock1,479,img/planet7_right.png,7,Community 1,NA,TRUE,j,j,NA,NA,NA,3,7,"14,7,2,1,15,11,10,3,12,9,6,4,13,8,5"
14517,commdev-image-keyboard-response,204,975435,learnblock1,373,img/planet1_right.png,1,Community 1,NA,TRUE,j,j,NA,NA,NA,3,7,"14,7,2,1,15,11,10,3,12,9,6,4,13,8,5"
14517,commdev-image-keyboard-response,205,976699,learnblock1,392,img/planet7_right.png,7,Community 1,NA,TRUE,j,j,NA,NA,NA,3,7,"14,7,2,1,15,11,10,3,12,9,6,4,13,8,5"
14517,commdev-image-keyboard-response,206,977956,learnblock1,760,img/planet15_right.png,15,Community 1,NA,FALSE,f,j,NA,NA,NA,3,7,"14,7,2,1,15,11,10,3,12,9,6,4,13,8,5"
14517,commdev-image-keyboard-response,207,979220,learnblock1,503,img/planet14_right.png,14,Community 1,NA,FALSE,f,j,NA,NA,NA,3,7,"14,7,2,1,15,11,10,3,12,9,6,4,13,8,5"
14517,commdev-image-keyboard-response,208,980482,learnblock1,360,img/planet15_right.png,15,Community 1,NA,FALSE,f,j,NA,NA,NA,3,7,"14,7,2,1,15,11,10,3,12,9,6,4,13,8,5"
14517,commdev-image-keyboard-response,209,981746,learnblock1,288,img/planet14_left.png,14,Community 1,NA,TRUE,f,f,NA,NA,NA,3,7,"14,7,2,1,15,11,10,3,12,9,6,4,13,8,5"
14517,commdev-image-keyboard-response,210,983006,learnblock1,356,img/planet7_right.png,7,Community 1,NA,TRUE,j,j,NA,NA,NA,3,7,"14,7,2,1,15,11,10,3,12,9,6,4,13,8,5"
14517,commdev-image-keyboard-response,211,984266,learnblock1,324,img/planet1_right.png,1,Community 1,NA,TRUE,j,j,NA,NA,NA,3,7,"14,7,2,1,15,11,10,3,12,9,6,4,13,8,5"
14517,commdev-image-keyboard-response,212,985526,learnblock1,392,img/planet7_right.png,7,Community 1,NA,TRUE,j,j,NA,NA,NA,3,7,"14,7,2,1,15,11,10,3,12,9,6,4,13,8,5"
14517,commdev-image-keyboard-response,213,986789,learnblock1,530,img/planet1_left.png,1,Community 1,NA,TRUE,f,f,NA,NA,NA,3,7,"14,7,2,1,15,11,10,3,12,9,6,4,13,8,5"
14517,commdev-image-keyboard-response,214,988050,learnblock1,274,img/planet7_right.png,7,Community 1,NA,FALSE,f,j,NA,NA,NA,3,7,"14,7,2,1,15,11,10,3,12,9,6,4,13,8,5"
14517,commdev-image-keyboard-response,215,989308,learnblock1,181,img/planet1_right.png,1,Community 1,NA,FALSE,f,j,NA,NA,NA,3,7,"14,7,2,1,15,11,10,3,12,9,6,4,13,8,5"
14517,commdev-image-keyboard-response,216,990572,learnblock1,218,img/planet11_left.png,11,Community 2,NA,TRUE,f,f,NA,NA,NA,3,7,"14,7,2,1,15,11,10,3,12,9,6,4,13,8,5"
14517,commdev-image-keyboard-response,217,991827,learnblock1,898,img/planet12_right.png,12,Community 2,NA,TRUE,j,j,NA,NA,NA,3,7,"14,7,2,1,15,11,10,3,12,9,6,4,13,8,5"
14517,commdev-image-keyboard-response,218,993086,learnblock1,462,img/planet3_left.png,3,Community 2,NA,FALSE,j,f,NA,NA,NA,3,7,"14,7,2,1,15,11,10,3,12,9,6,4,13,8,5"
14517,commdev-image-keyboard-response,219,994346,learnblock1,885,img/planet9_right.png,9,Community 2,NA,FALSE,f,j,NA,NA,NA,3,7,"14,7,2,1,15,11,10,3,12,9,6,4,13,8,5"
14517,commdev-image-keyboard-response,220,995597,learnblock1,367,img/planet10_left.png,10,Community 2,NA,FALSE,j,f,NA,NA,NA,3,7,"14,7,2,1,15,11,10,3,12,9,6,4,13,8,5"
14517,commdev-image-keyboard-response,221,996859,learnblock1,685,img/planet11_left.png,11,Community 2,NA,FALSE,j,f,NA,NA,NA,3,7,"14,7,2,1,15,11,10,3,12,9,6,4,13,8,5"
14517,commdev-image-keyboard-response,222,998123,learnblock1,692,img/planet1_right.png,1,Community 1,NA,FALSE,f,j,NA,NA,NA,3,7,"14,7,2,1,15,11,10,3,12,9,6,4,13,8,5"
14517,commdev-image-keyboard-response,223,999385,learnblock1,464,img/planet11_left.png,11,Community 2,NA,FALSE,j,f,NA,NA,NA,3,7,"14,7,2,1,15,11,10,3,12,9,6,4,13,8,5"
14517,commdev-image-keyboard-response,224,1000647,learnblock1,878,img/planet1_left.png,1,Community 1,NA,TRUE,f,f,NA,NA,NA,3,7,"14,7,2,1,15,11,10,3,12,9,6,4,13,8,5"
14517,commdev-image-keyboard-response,225,1001907,learnblock1,913,img/planet14_left.png,14,Community 1,NA,TRUE,f,f,NA,NA,NA,3,7,"14,7,2,1,15,11,10,3,12,9,6,4,13,8,5"
14517,commdev-image-keyboard-response,226,1003162,learnblock1,827,img/planet15_right.png,15,Community 1,NA,TRUE,j,j,NA,NA,NA,3,7,"14,7,2,1,15,11,10,3,12,9,6,4,13,8,5"
14517,commdev-image-keyboard-response,227,1004419,learnblock1,null,img/planet6_right.png,6,Community 3,NA,FALSE,null,j,NA,NA,NA,3,7,"14,7,2,1,15,11,10,3,12,9,6,4,13,8,5"
14517,commdev-image-keyboard-response,228,1005682,learnblock1,54,img/planet5_left.png,5,Community 3,NA,FALSE,j,f,NA,NA,NA,3,7,"14,7,2,1,15,11,10,3,12,9,6,4,13,8,5"
14517,commdev-image-keyboard-response,229,1006941,learnblock1,234,img/planet6_right.png,6,Community 3,NA,FALSE,f,j,NA,NA,NA,3,7,"14,7,2,1,15,11,10,3,12,9,6,4,13,8,5"
14517,commdev-image-keyboard-response,230,1008202,learnblock1,364,img/planet5_right.png,5,Community 3,NA,FALSE,f,j,NA,NA,NA,3,7,"14,7,2,1,15,11,10,3,12,9,6,4,13,8,5"
14517,commdev-image-keyboard-response,231,1009462,learnblock1,881,img/planet13_left.png,13,Community 3,NA,FALSE,j,f,NA,NA,NA,3,7,"14,7,2,1,15,11,10,3,12,9,6,4,13,8,5"
14517,commdev-image-keyboard-response,232,1010724,learnblock1,null,img/planet5_left.png,5,Community 3,NA,FALSE,null,f,NA,NA,NA,3,7,"14,7,2,1,15,11,10,3,12,9,6,4,13,8,5"
14517,commdev-image-keyboard-response,233,1011989,learnblock1,643,img/planet13_right.png,13,Community 3,NA,TRUE,j,j,NA,NA,NA,3,7,"14,7,2,1,15,11,10,3,12,9,6,4,13,8,5"
14517,commdev-image-keyboard-response,234,1013243,learnblock1,786,img/planet5_right.png,5,Community 3,NA,FALSE,f,j,NA,NA,NA,3,7,"14,7,2,1,15,11,10,3,12,9,6,4,13,8,5"
14517,commdev-image-keyboard-response,235,1014507,learnblock1,null,img/planet4_left.png,4,Community 3,NA,FALSE,null,f,NA,NA,NA,3,7,"14,7,2,1,15,11,10,3,12,9,6,4,13,8,5"
14517,commdev-image-keyboard-response,236,1015766,learnblock1,151,img/planet8_left.png,8,Community 3,NA,TRUE,f,f,NA,NA,NA,3,7,"14,7,2,1,15,11,10,3,12,9,6,4,13,8,5"
14517,commdev-image-keyboard-response,237,1017029,learnblock1,877,img/planet6_left.png,6,Community 3,NA,TRUE,f,f,NA,NA,NA,3,7,"14,7,2,1,15,11,10,3,12,9,6,4,13,8,5"
14517,commdev-image-keyboard-response,238,1018291,learnblock1,null,img/planet8_right.png,8,Community 3,NA,FALSE,null,j,NA,NA,NA,3,7,"14,7,2,1,15,11,10,3,12,9,6,4,13,8,5"
14517,commdev-image-keyboard-response,239,1019543,learnblock1,495,img/planet6_left.png,6,Community 3,NA,FALSE,j,f,NA,NA,NA,3,7,"14,7,2,1,15,11,10,3,12,9,6,4,13,8,5"
14517,commdev-image-keyboard-response,240,1020794,learnblock1,130,img/planet13_left.png,13,Community 3,NA,FALSE,j,f,NA,NA,NA,3,7,"14,7,2,1,15,11,10,3,12,9,6,4,13,8,5"
14517,commdev-image-keyboard-response,241,1022049,learnblock1,1057,img/planet4_right.png,4,Community 3,NA,FALSE,f,j,NA,NA,NA,3,7,"14,7,2,1,15,11,10,3,12,9,6,4,13,8,5"
14517,commdev-image-keyboard-response,242,1023312,learnblock1,null,img/planet3_left.png,3,Community 2,NA,FALSE,null,f,NA,NA,NA,3,7,"14,7,2,1,15,11,10,3,12,9,6,4,13,8,5"
14517,commdev-image-keyboard-response,243,1024579,learnblock1,243,img/planet12_left.png,12,Community 2,NA,TRUE,f,f,NA,NA,NA,3,7,"14,7,2,1,15,11,10,3,12,9,6,4,13,8,5"
14517,commdev-image-keyboard-response,244,1025841,learnblock1,null,img/planet11_right.png,11,Community 2,NA,FALSE,null,j,NA,NA,NA,3,7,"14,7,2,1,15,11,10,3,12,9,6,4,13,8,5"
14517,commdev-image-keyboard-response,245,1027104,learnblock1,1072,img/planet10_left.png,10,Community 2,NA,FALSE,j,f,NA,NA,NA,3,7,"14,7,2,1,15,11,10,3,12,9,6,4,13,8,5"
14517,commdev-image-keyboard-response,246,1028362,learnblock1,null,img/planet9_left.png,9,Community 2,NA,FALSE,null,f,NA,NA,NA,3,7,"14,7,2,1,15,11,10,3,12,9,6,4,13,8,5"
14517,commdev-image-keyboard-response,247,1029626,learnblock1,914,img/planet11_right.png,11,Community 2,NA,TRUE,j,j,NA,NA,NA,3,7,"14,7,2,1,15,11,10,3,12,9,6,4,13,8,5"
14517,commdev-image-keyboard-response,248,1030887,learnblock1,849,img/planet1_left.png,1,Community 1,NA,TRUE,f,f,NA,NA,NA,3,7,"14,7,2,1,15,11,10,3,12,9,6,4,13,8,5"
14517,commdev-image-keyboard-response,249,1032145,learnblock1,null,img/planet11_right.png,11,Community 2,NA,FALSE,null,j,NA,NA,NA,3,7,"14,7,2,1,15,11,10,3,12,9,6,4,13,8,5"
14517,commdev-image-keyboard-response,250,1033409,learnblock1,null,img/planet1_left.png,1,Community 1,NA,FALSE,null,f,NA,NA,NA,3,7,"14,7,2,1,15,11,10,3,12,9,6,4,13,8,5"
14517,commdev-image-keyboard-response,251,1034671,learnblock1,295,img/planet14_right.png,14,Community 1,NA,TRUE,j,j,NA,NA,NA,3,7,"14,7,2,1,15,11,10,3,12,9,6,4,13,8,5"
14517,commdev-image-keyboard-response,252,1035934,learnblock1,73,img/planet1_left.png,1,Community 1,NA,TRUE,f,f,NA,NA,NA,3,7,"14,7,2,1,15,11,10,3,12,9,6,4,13,8,5"
14517,commdev-image-keyboard-response,253,1037195,learnblock1,0,img/planet7_left.png,7,Community 1,NA,FALSE,j,f,NA,NA,NA,3,7,"14,7,2,1,15,11,10,3,12,9,6,4,13,8,5"
14517,commdev-image-keyboard-response,254,1038457,learnblock1,74,img/planet1_right.png,1,Community 1,NA,FALSE,f,j,NA,NA,NA,3,7,"14,7,2,1,15,11,10,3,12,9,6,4,13,8,5"
14517,commdev-image-keyboard-response,255,1039720,learnblock1,516,img/planet7_right.png,7,Community 1,NA,TRUE,j,j,NA,NA,NA,3,7,"14,7,2,1,15,11,10,3,12,9,6,4,13,8,5"
14517,commdev-image-keyboard-response,256,1040980,learnblock1,618,img/planet14_left.png,14,Community 1,NA,FALSE,j,f,NA,NA,NA,3,7,"14,7,2,1,15,11,10,3,12,9,6,4,13,8,5"
14517,commdev-image-keyboard-response,257,1042238,learnblock1,64,img/planet15_left.png,15,Community 1,NA,TRUE,f,f,NA,NA,NA,3,7,"14,7,2,1,15,11,10,3,12,9,6,4,13,8,5"
14517,commdev-image-keyboard-response,258,1043500,learnblock1,1172,img/planet6_right.png,6,Community 3,NA,FALSE,f,j,NA,NA,NA,3,7,"14,7,2,1,15,11,10,3,12,9,6,4,13,8,5"
14517,commdev-image-keyboard-response,259,1044761,learnblock1,1111,img/planet8_left.png,8,Community 3,NA,FALSE,j,f,NA,NA,NA,3,7,"14,7,2,1,15,11,10,3,12,9,6,4,13,8,5"
14517,commdev-image-keyboard-response,260,1046025,learnblock1,null,img/planet6_right.png,6,Community 3,NA,FALSE,null,j,NA,NA,NA,3,7,"14,7,2,1,15,11,10,3,12,9,6,4,13,8,5"
14517,commdev-image-keyboard-response,261,1047287,learnblock1,65,img/planet8_right.png,8,Community 3,NA,TRUE,j,j,NA,NA,NA,3,7,"14,7,2,1,15,11,10,3,12,9,6,4,13,8,5"
14517,commdev-image-keyboard-response,262,1048541,learnblock1,268,img/planet4_left.png,4,Community 3,NA,FALSE,j,f,NA,NA,NA,3,7,"14,7,2,1,15,11,10,3,12,9,6,4,13,8,5"
14517,commdev-image-keyboard-response,263,1049807,learnblock1,816,img/planet3_left.png,3,Community 2,NA,TRUE,f,f,NA,NA,NA,3,7,"14,7,2,1,15,11,10,3,12,9,6,4,13,8,5"
14517,commdev-image-keyboard-response,264,1051059,learnblock1,null,img/planet9_left.png,9,Community 2,NA,FALSE,null,f,NA,NA,NA,3,7,"14,7,2,1,15,11,10,3,12,9,6,4,13,8,5"
14517,commdev-image-keyboard-response,265,1052325,learnblock1,196,img/planet3_left.png,3,Community 2,NA,TRUE,f,f,NA,NA,NA,3,7,"14,7,2,1,15,11,10,3,12,9,6,4,13,8,5"
14517,commdev-image-keyboard-response,266,1053581,learnblock1,775,img/planet10_left.png,10,Community 2,NA,FALSE,j,f,NA,NA,NA,3,7,"14,7,2,1,15,11,10,3,12,9,6,4,13,8,5"
14517,commdev-image-keyboard-response,267,1054845,learnblock1,644,img/planet3_right.png,3,Community 2,NA,FALSE,f,j,NA,NA,NA,3,7,"14,7,2,1,15,11,10,3,12,9,6,4,13,8,5"
14517,commdev-image-keyboard-response,268,1056110,learnblock1,null,img/planet10_left.png,10,Community 2,NA,FALSE,null,f,NA,NA,NA,3,7,"14,7,2,1,15,11,10,3,12,9,6,4,13,8,5"
14517,commdev-image-keyboard-response,269,1057375,learnblock1,750,img/planet11_right.png,11,Community 2,NA,FALSE,f,j,NA,NA,NA,3,7,"14,7,2,1,15,11,10,3,12,9,6,4,13,8,5"
14517,commdev-image-keyboard-response,270,1058630,learnblock1,448,img/planet12_left.png,12,Community 2,NA,FALSE,j,f,NA,NA,NA,3,7,"14,7,2,1,15,11,10,3,12,9,6,4,13,8,5"
14517,commdev-image-keyboard-response,271,1059894,learnblock1,null,img/planet3_right.png,3,Community 2,NA,FALSE,null,j,NA,NA,NA,3,7,"14,7,2,1,15,11,10,3,12,9,6,4,13,8,5"
14517,commdev-image-keyboard-response,272,1061160,learnblock1,null,img/planet10_right.png,10,Community 2,NA,FALSE,null,j,NA,NA,NA,3,7,"14,7,2,1,15,11,10,3,12,9,6,4,13,8,5"
14517,commdev-image-keyboard-response,273,1062426,learnblock1,583,img/planet11_right.png,11,Community 2,NA,FALSE,f,j,NA,NA,NA,3,7,"14,7,2,1,15,11,10,3,12,9,6,4,13,8,5"
14517,commdev-image-keyboard-response,274,1063686,learnblock1,284,img/planet9_left.png,9,Community 2,NA,FALSE,j,f,NA,NA,NA,3,7,"14,7,2,1,15,11,10,3,12,9,6,4,13,8,5"
14517,commdev-image-keyboard-response,275,1064938,learnblock1,null,img/planet3_right.png,3,Community 2,NA,FALSE,null,j,NA,NA,NA,3,7,"14,7,2,1,15,11,10,3,12,9,6,4,13,8,5"
14517,commdev-image-keyboard-response,276,1066200,learnblock1,null,img/planet12_right.png,12,Community 2,NA,FALSE,null,j,NA,NA,NA,3,7,"14,7,2,1,15,11,10,3,12,9,6,4,13,8,5"
14517,commdev-image-keyboard-response,277,1067467,learnblock1,1079,img/planet3_right.png,3,Community 2,NA,FALSE,f,j,NA,NA,NA,3,7,"14,7,2,1,15,11,10,3,12,9,6,4,13,8,5"
14517,commdev-image-keyboard-response,278,1068729,learnblock1,null,img/planet10_left.png,10,Community 2,NA,FALSE,null,f,NA,NA,NA,3,7,"14,7,2,1,15,11,10,3,12,9,6,4,13,8,5"
14517,commdev-image-keyboard-response,279,1069989,learnblock1,1023,img/planet11_right.png,11,Community 2,NA,FALSE,f,j,NA,NA,NA,3,7,"14,7,2,1,15,11,10,3,12,9,6,4,13,8,5"
14517,commdev-image-keyboard-response,280,1071254,learnblock1,593,img/planet12_left.png,12,Community 2,NA,FALSE,j,f,NA,NA,NA,3,7,"14,7,2,1,15,11,10,3,12,9,6,4,13,8,5"
14517,commdev-image-keyboard-response,281,1072509,learnblock1,404,img/planet3_right.png,3,Community 2,NA,TRUE,j,j,NA,NA,NA,3,7,"14,7,2,1,15,11,10,3,12,9,6,4,13,8,5"
14517,commdev-image-keyboard-response,282,1073769,learnblock1,571,img/planet12_left.png,12,Community 2,NA,FALSE,j,f,NA,NA,NA,3,7,"14,7,2,1,15,11,10,3,12,9,6,4,13,8,5"
14517,commdev-image-keyboard-response,283,1075082,learnblock1,null,img/planet3_right.png,3,Community 2,NA,FALSE,null,j,NA,NA,NA,3,7,"14,7,2,1,15,11,10,3,12,9,6,4,13,8,5"
14517,commdev-image-keyboard-response,284,1076342,learnblock1,309,img/planet12_right.png,12,Community 2,NA,TRUE,j,j,NA,NA,NA,3,7,"14,7,2,1,15,11,10,3,12,9,6,4,13,8,5"
14517,commdev-image-keyboard-response,285,1077605,learnblock1,null,img/planet9_right.png,9,Community 2,NA,FALSE,null,j,NA,NA,NA,3,7,"14,7,2,1,15,11,10,3,12,9,6,4,13,8,5"
14517,commdev-image-keyboard-response,286,1078865,learnblock1,null,img/planet3_right.png,3,Community 2,NA,FALSE,null,j,NA,NA,NA,3,7,"14,7,2,1,15,11,10,3,12,9,6,4,13,8,5"
14517,commdev-image-keyboard-response,287,1080116,learnblock1,254,img/planet12_right.png,12,Community 2,NA,FALSE,f,j,NA,NA,NA,3,7,"14,7,2,1,15,11,10,3,12,9,6,4,13,8,5"
14517,commdev-image-keyboard-response,288,1081369,learnblock1,320,img/planet9_left.png,9,Community 2,NA,TRUE,f,f,NA,NA,NA,3,7,"14,7,2,1,15,11,10,3,12,9,6,4,13,8,5"
14517,commdev-image-keyboard-response,289,1082632,learnblock1,388,img/planet11_right.png,11,Community 2,NA,TRUE,j,j,NA,NA,NA,3,7,"14,7,2,1,15,11,10,3,12,9,6,4,13,8,5"
14517,commdev-image-keyboard-response,290,1083892,learnblock1,70,img/planet1_right.png,1,Community 1,NA,FALSE,f,j,NA,NA,NA,3,7,"14,7,2,1,15,11,10,3,12,9,6,4,13,8,5"
14517,commdev-image-keyboard-response,291,1085157,learnblock1,258,img/planet14_right.png,14,Community 1,NA,TRUE,j,j,NA,NA,NA,3,7,"14,7,2,1,15,11,10,3,12,9,6,4,13,8,5"
14517,commdev-image-keyboard-response,292,1086418,learnblock1,300,img/planet7_right.png,7,Community 1,NA,TRUE,j,j,NA,NA,NA,3,7,"14,7,2,1,15,11,10,3,12,9,6,4,13,8,5"
14517,commdev-image-keyboard-response,293,1087681,learnblock1,113,img/planet1_left.png,1,Community 1,NA,FALSE,j,f,NA,NA,NA,3,7,"14,7,2,1,15,11,10,3,12,9,6,4,13,8,5"
14517,commdev-image-keyboard-response,294,1088943,learnblock1,359,img/planet2_right.png,2,Community 1,NA,TRUE,j,j,NA,NA,NA,3,7,"14,7,2,1,15,11,10,3,12,9,6,4,13,8,5"
14517,commdev-image-keyboard-response,295,1090202,learnblock1,271,img/planet15_right.png,15,Community 1,NA,TRUE,j,j,NA,NA,NA,3,7,"14,7,2,1,15,11,10,3,12,9,6,4,13,8,5"
14517,commdev-image-keyboard-response,296,1091467,learnblock1,977,img/planet7_right.png,7,Community 1,NA,TRUE,j,j,NA,NA,NA,3,7,"14,7,2,1,15,11,10,3,12,9,6,4,13,8,5"
14517,commdev-image-keyboard-response,297,1092720,learnblock1,664,img/planet2_right.png,2,Community 1,NA,TRUE,j,j,NA,NA,NA,3,7,"14,7,2,1,15,11,10,3,12,9,6,4,13,8,5"
14517,commdev-image-keyboard-response,298,1093984,learnblock1,null,img/planet15_right.png,15,Community 1,NA,FALSE,null,j,NA,NA,NA,3,7,"14,7,2,1,15,11,10,3,12,9,6,4,13,8,5"
14517,commdev-image-keyboard-response,299,1095251,learnblock1,535,img/planet7_right.png,7,Community 1,NA,TRUE,j,j,NA,NA,NA,3,7,"14,7,2,1,15,11,10,3,12,9,6,4,13,8,5"
14517,commdev-image-keyboard-response,300,1096506,learnblock1,null,img/planet2_right.png,2,Community 1,NA,FALSE,null,j,NA,NA,NA,3,7,"14,7,2,1,15,11,10,3,12,9,6,4,13,8,5"
14517,commdev-image-keyboard-response,301,1097764,learnblock1,null,img/planet14_left.png,14,Community 1,NA,FALSE,null,f,NA,NA,NA,3,7,"14,7,2,1,15,11,10,3,12,9,6,4,13,8,5"
14517,commdev-image-keyboard-response,302,1099020,learnblock1,30,img/planet1_left.png,1,Community 1,NA,FALSE,j,f,NA,NA,NA,3,7,"14,7,2,1,15,11,10,3,12,9,6,4,13,8,5"
14517,commdev-image-keyboard-response,303,1100285,learnblock1,null,img/planet2_right.png,2,Community 1,NA,FALSE,null,j,NA,NA,NA,3,7,"14,7,2,1,15,11,10,3,12,9,6,4,13,8,5"
14517,commdev-image-keyboard-response,304,1101545,learnblock1,516,img/planet7_left.png,7,Community 1,NA,TRUE,f,f,NA,NA,NA,3,7,"14,7,2,1,15,11,10,3,12,9,6,4,13,8,5"
14517,commdev-image-keyboard-response,305,1102802,learnblock1,294,img/planet1_left.png,1,Community 1,NA,FALSE,j,f,NA,NA,NA,3,7,"14,7,2,1,15,11,10,3,12,9,6,4,13,8,5"
14517,commdev-image-keyboard-response,306,1104062,learnblock1,1048,img/planet2_right.png,2,Community 1,NA,TRUE,j,j,NA,NA,NA,3,7,"14,7,2,1,15,11,10,3,12,9,6,4,13,8,5"
14517,commdev-image-keyboard-response,307,1105325,learnblock1,1094,img/planet1_right.png,1,Community 1,NA,TRUE,j,j,NA,NA,NA,3,7,"14,7,2,1,15,11,10,3,12,9,6,4,13,8,5"
14517,commdev-image-keyboard-response,308,1106583,learnblock1,null,img/planet7_left.png,7,Community 1,NA,FALSE,null,f,NA,NA,NA,3,7,"14,7,2,1,15,11,10,3,12,9,6,4,13,8,5"
14517,commdev-image-keyboard-response,309,1107844,learnblock1,70,img/planet14_right.png,14,Community 1,NA,TRUE,j,j,NA,NA,NA,3,7,"14,7,2,1,15,11,10,3,12,9,6,4,13,8,5"
14517,commdev-image-keyboard-response,310,1109107,learnblock1,434,img/planet7_left.png,7,Community 1,NA,TRUE,f,f,NA,NA,NA,3,7,"14,7,2,1,15,11,10,3,12,9,6,4,13,8,5"
14517,commdev-image-keyboard-response,311,1110373,learnblock1,342,img/planet15_right.png,15,Community 1,NA,TRUE,j,j,NA,NA,NA,3,7,"14,7,2,1,15,11,10,3,12,9,6,4,13,8,5"
14517,commdev-image-keyboard-response,312,1111637,learnblock1,762,img/planet2_right.png,2,Community 1,NA,TRUE,j,j,NA,NA,NA,3,7,"14,7,2,1,15,11,10,3,12,9,6,4,13,8,5"
14517,commdev-image-keyboard-response,313,1112895,learnblock1,531,img/planet15_left.png,15,Community 1,NA,FALSE,j,f,NA,NA,NA,3,7,"14,7,2,1,15,11,10,3,12,9,6,4,13,8,5"
14517,commdev-image-keyboard-response,314,1114159,learnblock1,27,img/planet6_left.png,6,Community 3,NA,TRUE,f,f,NA,NA,NA,3,7,"14,7,2,1,15,11,10,3,12,9,6,4,13,8,5"
14517,commdev-image-keyboard-response,315,1115412,learnblock1,1080,img/planet5_right.png,5,Community 3,NA,FALSE,f,j,NA,NA,NA,3,7,"14,7,2,1,15,11,10,3,12,9,6,4,13,8,5"
14517,commdev-image-keyboard-response,316,1116665,learnblock1,null,img/planet13_right.png,13,Community 3,NA,FALSE,null,j,NA,NA,NA,3,7,"14,7,2,1,15,11,10,3,12,9,6,4,13,8,5"
14517,commdev-image-keyboard-response,317,1117928,learnblock1,54,img/planet6_left.png,6,Community 3,NA,TRUE,f,f,NA,NA,NA,3,7,"14,7,2,1,15,11,10,3,12,9,6,4,13,8,5"
14517,commdev-image-keyboard-response,318,1119186,learnblock1,357,img/planet8_right.png,8,Community 3,NA,FALSE,f,j,NA,NA,NA,3,7,"14,7,2,1,15,11,10,3,12,9,6,4,13,8,5"
14517,commdev-image-keyboard-response,319,1120450,learnblock1,null,img/planet5_left.png,5,Community 3,NA,FALSE,null,f,NA,NA,NA,3,7,"14,7,2,1,15,11,10,3,12,9,6,4,13,8,5"
14517,commdev-image-keyboard-response,320,1121711,learnblock1,450,img/planet13_left.png,13,Community 3,NA,TRUE,f,f,NA,NA,NA,3,7,"14,7,2,1,15,11,10,3,12,9,6,4,13,8,5"
14517,commdev-image-keyboard-response,321,1122977,learnblock1,331,img/planet5_right.png,5,Community 3,NA,TRUE,j,j,NA,NA,NA,3,7,"14,7,2,1,15,11,10,3,12,9,6,4,13,8,5"
14517,commdev-image-keyboard-response,322,1124241,learnblock1,339,img/planet8_left.png,8,Community 3,NA,FALSE,j,f,NA,NA,NA,3,7,"14,7,2,1,15,11,10,3,12,9,6,4,13,8,5"
14517,commdev-image-keyboard-response,323,1125503,learnblock1,1101,img/planet5_right.png,5,Community 3,NA,TRUE,j,j,NA,NA,NA,3,7,"14,7,2,1,15,11,10,3,12,9,6,4,13,8,5"
14517,commdev-image-keyboard-response,324,1126763,learnblock1,null,img/planet13_left.png,13,Community 3,NA,FALSE,null,f,NA,NA,NA,3,7,"14,7,2,1,15,11,10,3,12,9,6,4,13,8,5"
14517,commdev-image-keyboard-response,325,1128020,learnblock1,961,img/planet5_left.png,5,Community 3,NA,FALSE,j,f,NA,NA,NA,3,7,"14,7,2,1,15,11,10,3,12,9,6,4,13,8,5"
14517,commdev-image-keyboard-response,326,1129275,learnblock1,628,img/planet8_right.png,8,Community 3,NA,FALSE,f,j,NA,NA,NA,3,7,"14,7,2,1,15,11,10,3,12,9,6,4,13,8,5"
14517,commdev-image-keyboard-response,327,1130530,learnblock1,587,img/planet6_right.png,6,Community 3,NA,FALSE,f,j,NA,NA,NA,3,7,"14,7,2,1,15,11,10,3,12,9,6,4,13,8,5"
14517,commdev-image-keyboard-response,328,1131875,learnblock1,678,img/planet15_right.png,15,Community 1,NA,FALSE,f,j,NA,NA,NA,3,7,"14,7,2,1,15,11,10,3,12,9,6,4,13,8,5"
14517,commdev-image-keyboard-response,329,1133141,learnblock1,491,img/planet2_left.png,2,Community 1,NA,TRUE,f,f,NA,NA,NA,3,7,"14,7,2,1,15,11,10,3,12,9,6,4,13,8,5"
14517,commdev-image-keyboard-response,330,1134406,learnblock1,null,img/planet14_left.png,14,Community 1,NA,FALSE,null,f,NA,NA,NA,3,7,"14,7,2,1,15,11,10,3,12,9,6,4,13,8,5"
14517,commdev-image-keyboard-response,331,1135665,learnblock1,908,img/planet15_right.png,15,Community 1,NA,TRUE,j,j,NA,NA,NA,3,7,"14,7,2,1,15,11,10,3,12,9,6,4,13,8,5"
14517,commdev-image-keyboard-response,332,1136921,learnblock1,913,img/planet6_left.png,6,Community 3,NA,TRUE,f,f,NA,NA,NA,3,7,"14,7,2,1,15,11,10,3,12,9,6,4,13,8,5"
14517,commdev-image-keyboard-response,333,1138178,learnblock1,null,img/planet5_right.png,5,Community 3,NA,FALSE,null,j,NA,NA,NA,3,7,"14,7,2,1,15,11,10,3,12,9,6,4,13,8,5"
14517,commdev-image-keyboard-response,334,1139429,learnblock1,231,img/planet6_left.png,6,Community 3,NA,FALSE,j,f,NA,NA,NA,3,7,"14,7,2,1,15,11,10,3,12,9,6,4,13,8,5"
14517,commdev-image-keyboard-response,335,1140691,learnblock1,1004,img/planet5_left.png,5,Community 3,NA,TRUE,f,f,NA,NA,NA,3,7,"14,7,2,1,15,11,10,3,12,9,6,4,13,8,5"
14517,commdev-image-keyboard-response,336,1141956,learnblock1,494,img/planet8_right.png,8,Community 3,NA,TRUE,j,j,NA,NA,NA,3,7,"14,7,2,1,15,11,10,3,12,9,6,4,13,8,5"
14517,commdev-image-keyboard-response,337,1143221,learnblock1,328,img/planet6_right.png,6,Community 3,NA,FALSE,f,j,NA,NA,NA,3,7,"14,7,2,1,15,11,10,3,12,9,6,4,13,8,5"
14517,commdev-image-keyboard-response,338,1144488,learnblock1,340,img/planet15_right.png,15,Community 1,NA,FALSE,f,j,NA,NA,NA,3,7,"14,7,2,1,15,11,10,3,12,9,6,4,13,8,5"
14517,commdev-image-keyboard-response,339,1145749,learnblock1,927,img/planet14_left.png,14,Community 1,NA,FALSE,j,f,NA,NA,NA,3,7,"14,7,2,1,15,11,10,3,12,9,6,4,13,8,5"
14517,commdev-image-keyboard-response,340,1147013,learnblock1,986,img/planet2_left.png,2,Community 1,NA,TRUE,f,f,NA,NA,NA,3,7,"14,7,2,1,15,11,10,3,12,9,6,4,13,8,5"
14517,commdev-image-keyboard-response,341,1148279,learnblock1,889,img/planet14_right.png,14,Community 1,NA,TRUE,j,j,NA,NA,NA,3,7,"14,7,2,1,15,11,10,3,12,9,6,4,13,8,5"
14517,commdev-image-keyboard-response,342,1149540,learnblock1,546,img/planet2_right.png,2,Community 1,NA,TRUE,j,j,NA,NA,NA,3,7,"14,7,2,1,15,11,10,3,12,9,6,4,13,8,5"
14517,commdev-image-keyboard-response,343,1150805,learnblock1,989,img/planet1_left.png,1,Community 1,NA,TRUE,f,f,NA,NA,NA,3,7,"14,7,2,1,15,11,10,3,12,9,6,4,13,8,5"
14517,commdev-image-keyboard-response,344,1152068,learnblock1,665,img/planet7_left.png,7,Community 1,NA,FALSE,j,f,NA,NA,NA,3,7,"14,7,2,1,15,11,10,3,12,9,6,4,13,8,5"
14517,commdev-image-keyboard-response,345,1153321,learnblock1,548,img/planet2_left.png,2,Community 1,NA,FALSE,j,f,NA,NA,NA,3,7,"14,7,2,1,15,11,10,3,12,9,6,4,13,8,5"
14517,commdev-image-keyboard-response,346,1154620,learnblock1,973,img/planet1_right.png,1,Community 1,NA,FALSE,f,j,NA,NA,NA,3,7,"14,7,2,1,15,11,10,3,12,9,6,4,13,8,5"
14517,commdev-image-keyboard-response,347,1155878,learnblock1,795,img/planet2_right.png,2,Community 1,NA,TRUE,j,j,NA,NA,NA,3,7,"14,7,2,1,15,11,10,3,12,9,6,4,13,8,5"
14517,commdev-image-keyboard-response,348,1157138,learnblock1,505,img/planet15_right.png,15,Community 1,NA,TRUE,j,j,NA,NA,NA,3,7,"14,7,2,1,15,11,10,3,12,9,6,4,13,8,5"
14517,commdev-image-keyboard-response,349,1158399,learnblock1,891,img/planet7_left.png,7,Community 1,NA,TRUE,f,f,NA,NA,NA,3,7,"14,7,2,1,15,11,10,3,12,9,6,4,13,8,5"
14517,commdev-image-keyboard-response,350,1159650,learnblock1,1135,img/planet14_right.png,14,Community 1,NA,TRUE,j,j,NA,NA,NA,3,7,"14,7,2,1,15,11,10,3,12,9,6,4,13,8,5"
14517,commdev-image-keyboard-response,351,1160913,learnblock1,1164,img/planet1_right.png,1,Community 1,NA,TRUE,j,j,NA,NA,NA,3,7,"14,7,2,1,15,11,10,3,12,9,6,4,13,8,5"
14517,commdev-image-keyboard-response,352,1162174,learnblock1,null,img/planet11_left.png,11,Community 2,NA,FALSE,null,f,NA,NA,NA,3,7,"14,7,2,1,15,11,10,3,12,9,6,4,13,8,5"
14517,commdev-image-keyboard-response,353,1163439,learnblock1,161,img/planet12_left.png,12,Community 2,NA,FALSE,j,f,NA,NA,NA,3,7,"14,7,2,1,15,11,10,3,12,9,6,4,13,8,5"
14517,commdev-image-keyboard-response,354,1164700,learnblock1,273,img/planet10_left.png,10,Community 2,NA,FALSE,j,f,NA,NA,NA,3,7,"14,7,2,1,15,11,10,3,12,9,6,4,13,8,5"
14517,commdev-image-keyboard-response,355,1165963,learnblock1,330,img/planet12_left.png,12,Community 2,NA,FALSE,j,f,NA,NA,NA,3,7,"14,7,2,1,15,11,10,3,12,9,6,4,13,8,5"
14517,commdev-image-keyboard-response,356,1167226,learnblock1,357,img/planet9_left.png,9,Community 2,NA,FALSE,j,f,NA,NA,NA,3,7,"14,7,2,1,15,11,10,3,12,9,6,4,13,8,5"
14517,commdev-image-keyboard-response,357,1168490,learnblock1,null,img/planet11_left.png,11,Community 2,NA,FALSE,null,f,NA,NA,NA,3,7,"14,7,2,1,15,11,10,3,12,9,6,4,13,8,5"
14517,commdev-image-keyboard-response,358,1169743,learnblock1,216,img/planet9_right.png,9,Community 2,NA,FALSE,f,j,NA,NA,NA,3,7,"14,7,2,1,15,11,10,3,12,9,6,4,13,8,5"
14517,commdev-image-keyboard-response,359,1171004,learnblock1,196,img/planet11_right.png,11,Community 2,NA,FALSE,f,j,NA,NA,NA,3,7,"14,7,2,1,15,11,10,3,12,9,6,4,13,8,5"
14517,commdev-image-keyboard-response,360,1172268,learnblock1,null,img/planet9_right.png,9,Community 2,NA,FALSE,null,j,NA,NA,NA,3,7,"14,7,2,1,15,11,10,3,12,9,6,4,13,8,5"
14517,commdev-image-keyboard-response,361,1173531,learnblock1,765,img/planet12_right.png,12,Community 2,NA,FALSE,f,j,NA,NA,NA,3,7,"14,7,2,1,15,11,10,3,12,9,6,4,13,8,5"
14517,commdev-image-keyboard-response,362,1174792,learnblock1,813,img/planet3_left.png,3,Community 2,NA,FALSE,j,f,NA,NA,NA,3,7,"14,7,2,1,15,11,10,3,12,9,6,4,13,8,5"
14517,commdev-image-keyboard-response,363,1176056,learnblock1,431,img/planet12_right.png,12,Community 2,NA,TRUE,j,j,NA,NA,NA,3,7,"14,7,2,1,15,11,10,3,12,9,6,4,13,8,5"
14517,commdev-image-keyboard-response,364,1177307,learnblock1,362,img/planet10_left.png,10,Community 2,NA,FALSE,j,f,NA,NA,NA,3,7,"14,7,2,1,15,11,10,3,12,9,6,4,13,8,5"
14517,commdev-image-keyboard-response,365,1178568,learnblock1,1051,img/planet11_right.png,11,Community 2,NA,FALSE,f,j,NA,NA,NA,3,7,"14,7,2,1,15,11,10,3,12,9,6,4,13,8,5"
14517,commdev-image-keyboard-response,366,1179833,learnblock1,825,img/planet1_left.png,1,Community 1,NA,FALSE,j,f,NA,NA,NA,3,7,"14,7,2,1,15,11,10,3,12,9,6,4,13,8,5"
14517,commdev-image-keyboard-response,367,1181084,learnblock1,733,img/planet7_left.png,7,Community 1,NA,FALSE,j,f,NA,NA,NA,3,7,"14,7,2,1,15,11,10,3,12,9,6,4,13,8,5"
14517,commdev-image-keyboard-response,368,1182343,learnblock1,920,img/planet15_right.png,15,Community 1,NA,FALSE,f,j,NA,NA,NA,3,7,"14,7,2,1,15,11,10,3,12,9,6,4,13,8,5"
14517,commdev-image-keyboard-response,369,1183594,learnblock1,1129,img/planet14_right.png,14,Community 1,NA,TRUE,j,j,NA,NA,NA,3,7,"14,7,2,1,15,11,10,3,12,9,6,4,13,8,5"
14517,commdev-image-keyboard-response,370,1184853,learnblock1,741,img/planet1_right.png,1,Community 1,NA,TRUE,j,j,NA,NA,NA,3,7,"14,7,2,1,15,11,10,3,12,9,6,4,13,8,5"
14517,commdev-image-keyboard-response,371,1186114,learnblock1,790,img/planet11_right.png,11,Community 2,NA,TRUE,j,j,NA,NA,NA,3,7,"14,7,2,1,15,11,10,3,12,9,6,4,13,8,5"
14517,commdev-image-keyboard-response,372,1187377,learnblock1,451,img/planet12_left.png,12,Community 2,NA,TRUE,f,f,NA,NA,NA,3,7,"14,7,2,1,15,11,10,3,12,9,6,4,13,8,5"
14517,commdev-image-keyboard-response,373,1188641,learnblock1,376,img/planet10_right.png,10,Community 2,NA,FALSE,f,j,NA,NA,NA,3,7,"14,7,2,1,15,11,10,3,12,9,6,4,13,8,5"
14517,commdev-image-keyboard-response,374,1189902,learnblock1,256,img/planet3_left.png,3,Community 2,NA,FALSE,j,f,NA,NA,NA,3,7,"14,7,2,1,15,11,10,3,12,9,6,4,13,8,5"
14517,commdev-image-keyboard-response,375,1191161,learnblock1,326,img/planet4_right.png,4,Community 3,NA,FALSE,f,j,NA,NA,NA,3,7,"14,7,2,1,15,11,10,3,12,9,6,4,13,8,5"
14517,commdev-image-keyboard-response,376,1192413,learnblock1,745,img/planet8_right.png,8,Community 3,NA,TRUE,j,j,NA,NA,NA,3,7,"14,7,2,1,15,11,10,3,12,9,6,4,13,8,5"
14517,commdev-image-keyboard-response,377,1193667,learnblock1,527,img/planet5_right.png,5,Community 3,NA,TRUE,j,j,NA,NA,NA,3,7,"14,7,2,1,15,11,10,3,12,9,6,4,13,8,5"
14517,commdev-image-keyboard-response,378,1194927,learnblock1,378,img/planet8_right.png,8,Community 3,NA,TRUE,j,j,NA,NA,NA,3,7,"14,7,2,1,15,11,10,3,12,9,6,4,13,8,5"
14517,commdev-image-keyboard-response,379,1196187,learnblock1,315,img/planet5_right.png,5,Community 3,NA,TRUE,j,j,NA,NA,NA,3,7,"14,7,2,1,15,11,10,3,12,9,6,4,13,8,5"
14517,commdev-image-keyboard-response,380,1197447,learnblock1,718,img/planet6_left.png,6,Community 3,NA,TRUE,f,f,NA,NA,NA,3,7,"14,7,2,1,15,11,10,3,12,9,6,4,13,8,5"
14517,commdev-image-keyboard-response,381,1198706,learnblock1,864,img/planet13_right.png,13,Community 3,NA,FALSE,f,j,NA,NA,NA,3,7,"14,7,2,1,15,11,10,3,12,9,6,4,13,8,5"
14517,commdev-image-keyboard-response,382,1199968,learnblock1,1103,img/planet4_left.png,4,Community 3,NA,TRUE,f,f,NA,NA,NA,3,7,"14,7,2,1,15,11,10,3,12,9,6,4,13,8,5"
14517,commdev-image-keyboard-response,383,1201287,learnblock1,null,img/planet8_right.png,8,Community 3,NA,FALSE,null,j,NA,NA,NA,3,7,"14,7,2,1,15,11,10,3,12,9,6,4,13,8,5"
14517,commdev-image-keyboard-response,384,1202546,learnblock1,197,img/planet13_right.png,13,Community 3,NA,FALSE,f,j,NA,NA,NA,3,7,"14,7,2,1,15,11,10,3,12,9,6,4,13,8,5"
14517,commdev-image-keyboard-response,385,1203809,learnblock1,null,img/planet8_left.png,8,Community 3,NA,FALSE,null,f,NA,NA,NA,3,7,"14,7,2,1,15,11,10,3,12,9,6,4,13,8,5"
14517,commdev-image-keyboard-response,386,1205070,learnblock1,182,img/planet6_left.png,6,Community 3,NA,FALSE,j,f,NA,NA,NA,3,7,"14,7,2,1,15,11,10,3,12,9,6,4,13,8,5"
14517,commdev-image-keyboard-response,387,1206331,learnblock1,813,img/planet5_right.png,5,Community 3,NA,TRUE,j,j,NA,NA,NA,3,7,"14,7,2,1,15,11,10,3,12,9,6,4,13,8,5"
14517,commdev-image-keyboard-response,388,1207594,learnblock1,null,img/planet13_right.png,13,Community 3,NA,FALSE,null,j,NA,NA,NA,3,7,"14,7,2,1,15,11,10,3,12,9,6,4,13,8,5"
14517,commdev-image-keyboard-response,389,1208853,learnblock1,107,img/planet5_right.png,5,Community 3,NA,FALSE,f,j,NA,NA,NA,3,7,"14,7,2,1,15,11,10,3,12,9,6,4,13,8,5"
14517,commdev-image-keyboard-response,390,1210113,learnblock1,null,img/planet13_left.png,13,Community 3,NA,FALSE,null,f,NA,NA,NA,3,7,"14,7,2,1,15,11,10,3,12,9,6,4,13,8,5"
14517,commdev-image-keyboard-response,391,1211376,learnblock1,null,img/planet5_left.png,5,Community 3,NA,FALSE,null,f,NA,NA,NA,3,7,"14,7,2,1,15,11,10,3,12,9,6,4,13,8,5"
14517,commdev-image-keyboard-response,392,1212643,learnblock1,1128,img/planet8_right.png,8,Community 3,NA,FALSE,f,j,NA,NA,NA,3,7,"14,7,2,1,15,11,10,3,12,9,6,4,13,8,5"
14517,commdev-image-keyboard-response,393,1213895,learnblock1,null,img/planet13_right.png,13,Community 3,NA,FALSE,null,j,NA,NA,NA,3,7,"14,7,2,1,15,11,10,3,12,9,6,4,13,8,5"
14517,commdev-image-keyboard-response,394,1215147,learnblock1,183,img/planet8_left.png,8,Community 3,NA,TRUE,f,f,NA,NA,NA,3,7,"14,7,2,1,15,11,10,3,12,9,6,4,13,8,5"
14517,commdev-image-keyboard-response,395,1216409,learnblock1,561,img/planet5_left.png,5,Community 3,NA,FALSE,j,f,NA,NA,NA,3,7,"14,7,2,1,15,11,10,3,12,9,6,4,13,8,5"
14517,commdev-image-keyboard-response,396,1217660,learnblock1,683,img/planet4_left.png,4,Community 3,NA,FALSE,j,f,NA,NA,NA,3,7,"14,7,2,1,15,11,10,3,12,9,6,4,13,8,5"
14517,commdev-image-keyboard-response,397,1218922,learnblock1,391,img/planet3_right.png,3,Community 2,NA,TRUE,j,j,NA,NA,NA,3,7,"14,7,2,1,15,11,10,3,12,9,6,4,13,8,5"
14517,commdev-image-keyboard-response,398,1220188,learnblock1,351,img/planet10_right.png,10,Community 2,NA,TRUE,j,j,NA,NA,NA,3,7,"14,7,2,1,15,11,10,3,12,9,6,4,13,8,5"
14517,commdev-image-keyboard-response,399,1221442,learnblock1,16,img/planet12_left.png,12,Community 2,NA,TRUE,f,f,NA,NA,NA,3,7,"14,7,2,1,15,11,10,3,12,9,6,4,13,8,5"
14517,commdev-image-keyboard-response,400,1222694,learnblock1,705,img/planet10_left.png,10,Community 2,NA,TRUE,f,f,NA,NA,NA,3,7,"14,7,2,1,15,11,10,3,12,9,6,4,13,8,5"
14517,commdev-image-keyboard-response,401,1223958,learnblock1,474,img/planet9_right.png,9,Community 2,NA,FALSE,f,j,NA,NA,NA,3,7,"14,7,2,1,15,11,10,3,12,9,6,4,13,8,5"
14517,commdev-image-keyboard-response,402,1225222,learnblock1,963,img/planet10_right.png,10,Community 2,NA,TRUE,j,j,NA,NA,NA,3,7,"14,7,2,1,15,11,10,3,12,9,6,4,13,8,5"
14517,commdev-image-keyboard-response,403,1226474,learnblock1,null,img/planet11_right.png,11,Community 2,NA,FALSE,null,j,NA,NA,NA,3,7,"14,7,2,1,15,11,10,3,12,9,6,4,13,8,5"
14517,commdev-image-keyboard-response,404,1227737,learnblock1,1073,img/planet9_right.png,9,Community 2,NA,TRUE,j,j,NA,NA,NA,3,7,"14,7,2,1,15,11,10,3,12,9,6,4,13,8,5"
14517,commdev-image-keyboard-response,405,1228991,learnblock1,null,img/planet3_left.png,3,Community 2,NA,FALSE,null,f,NA,NA,NA,3,7,"14,7,2,1,15,11,10,3,12,9,6,4,13,8,5"
14517,commdev-image-keyboard-response,406,1230245,learnblock1,884,img/planet4_right.png,4,Community 3,NA,TRUE,j,j,NA,NA,NA,3,7,"14,7,2,1,15,11,10,3,12,9,6,4,13,8,5"
14517,commdev-image-keyboard-response,407,1231510,learnblock1,1175,img/planet5_right.png,5,Community 3,NA,TRUE,j,j,NA,NA,NA,3,7,"14,7,2,1,15,11,10,3,12,9,6,4,13,8,5"
14517,commdev-image-keyboard-response,408,1232774,learnblock1,null,img/planet4_right.png,4,Community 3,NA,FALSE,null,j,NA,NA,NA,3,7,"14,7,2,1,15,11,10,3,12,9,6,4,13,8,5"
14517,commdev-image-keyboard-response,409,1234038,learnblock1,56,img/planet3_right.png,3,Community 2,NA,FALSE,f,j,NA,NA,NA,3,7,"14,7,2,1,15,11,10,3,12,9,6,4,13,8,5"
14517,commdev-image-keyboard-response,410,1235293,learnblock1,876,img/planet4_left.png,4,Community 3,NA,FALSE,j,f,NA,NA,NA,3,7,"14,7,2,1,15,11,10,3,12,9,6,4,13,8,5"
14517,commdev-image-keyboard-response,411,1236552,learnblock1,470,img/planet5_right.png,5,Community 3,NA,TRUE,j,j,NA,NA,NA,3,7,"14,7,2,1,15,11,10,3,12,9,6,4,13,8,5"
14517,commdev-image-keyboard-response,412,1237812,learnblock1,109,img/planet13_right.png,13,Community 3,NA,FALSE,f,j,NA,NA,NA,3,7,"14,7,2,1,15,11,10,3,12,9,6,4,13,8,5"
14517,commdev-image-keyboard-response,413,1239075,learnblock1,537,img/planet6_left.png,6,Community 3,NA,FALSE,j,f,NA,NA,NA,3,7,"14,7,2,1,15,11,10,3,12,9,6,4,13,8,5"
14517,commdev-image-keyboard-response,414,1240352,learnblock1,171,img/planet8_left.png,8,Community 3,NA,FALSE,j,f,NA,NA,NA,3,7,"14,7,2,1,15,11,10,3,12,9,6,4,13,8,5"
14517,commdev-image-keyboard-response,415,1241616,learnblock1,726,img/planet5_right.png,5,Community 3,NA,FALSE,f,j,NA,NA,NA,3,7,"14,7,2,1,15,11,10,3,12,9,6,4,13,8,5"
14517,commdev-image-keyboard-response,416,1242871,learnblock1,483,img/planet4_right.png,4,Community 3,NA,TRUE,j,j,NA,NA,NA,3,7,"14,7,2,1,15,11,10,3,12,9,6,4,13,8,5"
14517,commdev-image-keyboard-response,417,1244133,learnblock1,339,img/planet3_left.png,3,Community 2,NA,FALSE,j,f,NA,NA,NA,3,7,"14,7,2,1,15,11,10,3,12,9,6,4,13,8,5"
14517,commdev-image-keyboard-response,418,1245399,learnblock1,906,img/planet10_left.png,10,Community 2,NA,FALSE,j,f,NA,NA,NA,3,7,"14,7,2,1,15,11,10,3,12,9,6,4,13,8,5"
14517,commdev-image-keyboard-response,419,1246660,learnblock1,374,img/planet3_right.png,3,Community 2,NA,FALSE,f,j,NA,NA,NA,3,7,"14,7,2,1,15,11,10,3,12,9,6,4,13,8,5"
14517,commdev-image-keyboard-response,420,1247913,learnblock1,1021,img/planet4_left.png,4,Community 3,NA,FALSE,j,f,NA,NA,NA,3,7,"14,7,2,1,15,11,10,3,12,9,6,4,13,8,5"
14517,commdev-image-keyboard-response,421,1249179,learnblock1,974,img/planet8_left.png,8,Community 3,NA,TRUE,f,f,NA,NA,NA,3,7,"14,7,2,1,15,11,10,3,12,9,6,4,13,8,5"
14517,commdev-image-keyboard-response,422,1250440,learnblock1,565,img/planet6_left.png,6,Community 3,NA,FALSE,j,f,NA,NA,NA,3,7,"14,7,2,1,15,11,10,3,12,9,6,4,13,8,5"
14517,commdev-image-keyboard-response,423,1251758,learnblock1,711,img/planet13_right.png,13,Community 3,NA,FALSE,f,j,NA,NA,NA,3,7,"14,7,2,1,15,11,10,3,12,9,6,4,13,8,5"
14517,commdev-image-keyboard-response,424,1253018,learnblock1,355,img/planet8_left.png,8,Community 3,NA,TRUE,f,f,NA,NA,NA,3,7,"14,7,2,1,15,11,10,3,12,9,6,4,13,8,5"
14517,commdev-image-keyboard-response,425,1254268,learnblock1,29,img/planet4_right.png,4,Community 3,NA,FALSE,f,j,NA,NA,NA,3,7,"14,7,2,1,15,11,10,3,12,9,6,4,13,8,5"
14517,commdev-image-keyboard-response,426,1255528,learnblock1,632,img/planet8_left.png,8,Community 3,NA,FALSE,j,f,NA,NA,NA,3,7,"14,7,2,1,15,11,10,3,12,9,6,4,13,8,5"
14517,commdev-image-keyboard-response,427,1256792,learnblock1,533,img/planet13_left.png,13,Community 3,NA,FALSE,j,f,NA,NA,NA,3,7,"14,7,2,1,15,11,10,3,12,9,6,4,13,8,5"
14517,commdev-image-keyboard-response,428,1258054,learnblock1,14,img/planet5_left.png,5,Community 3,NA,TRUE,f,f,NA,NA,NA,3,7,"14,7,2,1,15,11,10,3,12,9,6,4,13,8,5"
14517,commdev-image-keyboard-response,429,1259312,learnblock1,364,img/planet4_left.png,4,Community 3,NA,TRUE,f,f,NA,NA,NA,3,7,"14,7,2,1,15,11,10,3,12,9,6,4,13,8,5"
14517,commdev-image-keyboard-response,430,1260578,learnblock1,41,img/planet3_right.png,3,Community 2,NA,FALSE,f,j,NA,NA,NA,3,7,"14,7,2,1,15,11,10,3,12,9,6,4,13,8,5"
14517,commdev-image-keyboard-response,431,1261838,learnblock1,311,img/planet12_left.png,12,Community 2,NA,FALSE,j,f,NA,NA,NA,3,7,"14,7,2,1,15,11,10,3,12,9,6,4,13,8,5"
14517,commdev-image-keyboard-response,432,1263100,learnblock1,272,img/planet11_right.png,11,Community 2,NA,TRUE,j,j,NA,NA,NA,3,7,"14,7,2,1,15,11,10,3,12,9,6,4,13,8,5"
14517,commdev-image-keyboard-response,433,1264352,learnblock1,632,img/planet9_right.png,9,Community 2,NA,TRUE,j,j,NA,NA,NA,3,7,"14,7,2,1,15,11,10,3,12,9,6,4,13,8,5"
14517,commdev-image-keyboard-response,434,1265614,learnblock1,269,img/planet10_left.png,10,Community 2,NA,FALSE,j,f,NA,NA,NA,3,7,"14,7,2,1,15,11,10,3,12,9,6,4,13,8,5"
14517,commdev-image-keyboard-response,435,1266890,learnblock1,578,img/planet9_left.png,9,Community 2,NA,FALSE,j,f,NA,NA,NA,3,7,"14,7,2,1,15,11,10,3,12,9,6,4,13,8,5"
14517,commdev-image-keyboard-response,436,1268153,learnblock1,598,img/planet12_left.png,12,Community 2,NA,TRUE,f,f,NA,NA,NA,3,7,"14,7,2,1,15,11,10,3,12,9,6,4,13,8,5"
14517,commdev-image-keyboard-response,437,1269415,learnblock1,714,img/planet9_right.png,9,Community 2,NA,TRUE,j,j,NA,NA,NA,3,7,"14,7,2,1,15,11,10,3,12,9,6,4,13,8,5"
14517,commdev-image-keyboard-response,438,1270680,learnblock1,217,img/planet12_left.png,12,Community 2,NA,FALSE,j,f,NA,NA,NA,3,7,"14,7,2,1,15,11,10,3,12,9,6,4,13,8,5"
14517,commdev-image-keyboard-response,439,1271936,learnblock1,872,img/planet9_left.png,9,Community 2,NA,FALSE,j,f,NA,NA,NA,3,7,"14,7,2,1,15,11,10,3,12,9,6,4,13,8,5"
14517,commdev-image-keyboard-response,440,1273197,learnblock1,293,img/planet12_left.png,12,Community 2,NA,TRUE,f,f,NA,NA,NA,3,7,"14,7,2,1,15,11,10,3,12,9,6,4,13,8,5"
14517,commdev-image-keyboard-response,441,1274455,learnblock1,697,img/planet10_right.png,10,Community 2,NA,FALSE,f,j,NA,NA,NA,3,7,"14,7,2,1,15,11,10,3,12,9,6,4,13,8,5"
14517,commdev-image-keyboard-response,442,1275712,learnblock1,980,img/planet9_left.png,9,Community 2,NA,TRUE,f,f,NA,NA,NA,3,7,"14,7,2,1,15,11,10,3,12,9,6,4,13,8,5"
14517,commdev-image-keyboard-response,443,1276974,learnblock1,547,img/planet11_right.png,11,Community 2,NA,TRUE,j,j,NA,NA,NA,3,7,"14,7,2,1,15,11,10,3,12,9,6,4,13,8,5"
14517,commdev-image-keyboard-response,444,1278269,learnblock1,218,img/planet1_right.png,1,Community 1,NA,TRUE,j,j,NA,NA,NA,3,7,"14,7,2,1,15,11,10,3,12,9,6,4,13,8,5"
14517,commdev-image-keyboard-response,445,1279522,learnblock1,650,img/planet2_left.png,2,Community 1,NA,FALSE,j,f,NA,NA,NA,3,7,"14,7,2,1,15,11,10,3,12,9,6,4,13,8,5"
14517,commdev-image-keyboard-response,446,1280784,learnblock1,176,img/planet7_left.png,7,Community 1,NA,TRUE,f,f,NA,NA,NA,3,7,"14,7,2,1,15,11,10,3,12,9,6,4,13,8,5"
14517,commdev-image-keyboard-response,447,1282042,learnblock1,260,img/planet2_right.png,2,Community 1,NA,TRUE,j,j,NA,NA,NA,3,7,"14,7,2,1,15,11,10,3,12,9,6,4,13,8,5"
14517,commdev-image-keyboard-response,448,1283308,learnblock1,181,img/planet1_right.png,1,Community 1,NA,FALSE,f,j,NA,NA,NA,3,7,"14,7,2,1,15,11,10,3,12,9,6,4,13,8,5"
14517,commdev-image-keyboard-response,449,1284560,learnblock1,442,img/planet14_right.png,14,Community 1,NA,TRUE,j,j,NA,NA,NA,3,7,"14,7,2,1,15,11,10,3,12,9,6,4,13,8,5"
14517,commdev-image-keyboard-response,450,1285820,learnblock1,439,img/planet15_right.png,15,Community 1,NA,FALSE,f,j,NA,NA,NA,3,7,"14,7,2,1,15,11,10,3,12,9,6,4,13,8,5"
14517,commdev-image-keyboard-response,451,1287080,learnblock1,709,img/planet7_right.png,7,Community 1,NA,TRUE,j,j,NA,NA,NA,3,7,"14,7,2,1,15,11,10,3,12,9,6,4,13,8,5"
14517,commdev-image-keyboard-response,452,1288334,learnblock1,437,img/planet14_left.png,14,Community 1,NA,TRUE,f,f,NA,NA,NA,3,7,"14,7,2,1,15,11,10,3,12,9,6,4,13,8,5"
14517,commdev-image-keyboard-response,453,1289598,learnblock1,59,img/planet2_right.png,2,Community 1,NA,TRUE,j,j,NA,NA,NA,3,7,"14,7,2,1,15,11,10,3,12,9,6,4,13,8,5"
14517,commdev-image-keyboard-response,454,1290853,learnblock1,389,img/planet7_left.png,7,Community 1,NA,FALSE,j,f,NA,NA,NA,3,7,"14,7,2,1,15,11,10,3,12,9,6,4,13,8,5"
14517,commdev-image-keyboard-response,455,1292104,learnblock1,440,img/planet14_right.png,14,Community 1,NA,FALSE,f,j,NA,NA,NA,3,7,"14,7,2,1,15,11,10,3,12,9,6,4,13,8,5"
14517,commdev-image-keyboard-response,456,1293370,learnblock1,676,img/planet2_left.png,2,Community 1,NA,TRUE,f,f,NA,NA,NA,3,7,"14,7,2,1,15,11,10,3,12,9,6,4,13,8,5"
14517,commdev-image-keyboard-response,457,1294631,learnblock1,552,img/planet7_right.png,7,Community 1,NA,TRUE,j,j,NA,NA,NA,3,7,"14,7,2,1,15,11,10,3,12,9,6,4,13,8,5"
14517,commdev-image-keyboard-response,458,1295890,learnblock1,50,img/planet15_right.png,15,Community 1,NA,FALSE,f,j,NA,NA,NA,3,7,"14,7,2,1,15,11,10,3,12,9,6,4,13,8,5"
14517,commdev-image-keyboard-response,459,1297154,learnblock1,126,img/planet14_right.png,14,Community 1,NA,TRUE,j,j,NA,NA,NA,3,7,"14,7,2,1,15,11,10,3,12,9,6,4,13,8,5"
14517,commdev-image-keyboard-response,460,1298413,learnblock1,661,img/planet15_right.png,15,Community 1,NA,TRUE,j,j,NA,NA,NA,3,7,"14,7,2,1,15,11,10,3,12,9,6,4,13,8,5"
14517,commdev-image-keyboard-response,461,1299816,learnblock1,30,img/planet7_left.png,7,Community 1,NA,TRUE,f,f,NA,NA,NA,3,7,"14,7,2,1,15,11,10,3,12,9,6,4,13,8,5"
14517,commdev-image-keyboard-response,465,1365194,learnblock2,null,img/planet12_right.png,12,Community 2,NA,FALSE,null,j,NA,NA,NA,3,7,"14,7,2,1,15,11,10,3,12,9,6,4,13,8,5"
14517,commdev-image-keyboard-response,466,1366455,learnblock2,null,img/planet10_left.png,10,Community 2,NA,FALSE,null,f,NA,NA,NA,3,7,"14,7,2,1,15,11,10,3,12,9,6,4,13,8,5"
14517,commdev-image-keyboard-response,467,1367716,learnblock2,null,img/planet12_left.png,12,Community 2,NA,FALSE,null,f,NA,NA,NA,3,7,"14,7,2,1,15,11,10,3,12,9,6,4,13,8,5"
14517,commdev-image-keyboard-response,468,1368968,learnblock2,null,img/planet3_right.png,3,Community 2,NA,FALSE,null,j,NA,NA,NA,3,7,"14,7,2,1,15,11,10,3,12,9,6,4,13,8,5"
14517,commdev-image-keyboard-response,469,1370223,learnblock2,874,img/planet12_right.png,12,Community 2,NA,TRUE,j,j,NA,NA,NA,3,7,"14,7,2,1,15,11,10,3,12,9,6,4,13,8,5"
14517,commdev-image-keyboard-response,470,1371487,learnblock2,246,img/planet11_right.png,11,Community 2,NA,FALSE,f,j,NA,NA,NA,3,7,"14,7,2,1,15,11,10,3,12,9,6,4,13,8,5"
14517,commdev-image-keyboard-response,471,1372748,learnblock2,122,img/planet1_left.png,1,Community 1,NA,TRUE,f,f,NA,NA,NA,3,7,"14,7,2,1,15,11,10,3,12,9,6,4,13,8,5"
14517,commdev-image-keyboard-response,472,1374014,learnblock2,89,img/planet11_left.png,11,Community 2,NA,TRUE,f,f,NA,NA,NA,3,7,"14,7,2,1,15,11,10,3,12,9,6,4,13,8,5"
14517,commdev-image-keyboard-response,473,1375361,learnblock2,118,img/planet12_left.png,12,Community 2,NA,FALSE,j,f,NA,NA,NA,3,7,"14,7,2,1,15,11,10,3,12,9,6,4,13,8,5"
14517,commdev-image-keyboard-response,474,1376620,learnblock2,121,img/planet10_right.png,10,Community 2,NA,TRUE,j,j,NA,NA,NA,3,7,"14,7,2,1,15,11,10,3,12,9,6,4,13,8,5"
14517,commdev-image-keyboard-response,475,1377880,learnblock2,295,img/planet9_right.png,9,Community 2,NA,TRUE,j,j,NA,NA,NA,3,7,"14,7,2,1,15,11,10,3,12,9,6,4,13,8,5"
14517,commdev-image-keyboard-response,476,1379136,learnblock2,542,img/planet3_left.png,3,Community 2,NA,TRUE,f,f,NA,NA,NA,3,7,"14,7,2,1,15,11,10,3,12,9,6,4,13,8,5"
14517,commdev-image-keyboard-response,477,1380402,learnblock2,191,img/planet12_left.png,12,Community 2,NA,FALSE,j,f,NA,NA,NA,3,7,"14,7,2,1,15,11,10,3,12,9,6,4,13,8,5"
14517,commdev-image-keyboard-response,478,1381667,learnblock2,null,img/planet9_right.png,9,Community 2,NA,FALSE,null,j,NA,NA,NA,3,7,"14,7,2,1,15,11,10,3,12,9,6,4,13,8,5"
14517,commdev-image-keyboard-response,479,1382931,learnblock2,245,img/planet3_right.png,3,Community 2,NA,FALSE,f,j,NA,NA,NA,3,7,"14,7,2,1,15,11,10,3,12,9,6,4,13,8,5"
14517,commdev-image-keyboard-response,480,1384196,learnblock2,45,img/planet12_left.png,12,Community 2,NA,FALSE,j,f,NA,NA,NA,3,7,"14,7,2,1,15,11,10,3,12,9,6,4,13,8,5"
14517,commdev-image-keyboard-response,481,1385459,learnblock2,351,img/planet11_left.png,11,Community 2,NA,TRUE,f,f,NA,NA,NA,3,7,"14,7,2,1,15,11,10,3,12,9,6,4,13,8,5"
14517,commdev-image-keyboard-response,482,1386716,learnblock2,382,img/planet12_left.png,12,Community 2,NA,FALSE,j,f,NA,NA,NA,3,7,"14,7,2,1,15,11,10,3,12,9,6,4,13,8,5"
14517,commdev-image-keyboard-response,483,1387980,learnblock2,496,img/planet9_right.png,9,Community 2,NA,FALSE,f,j,NA,NA,NA,3,7,"14,7,2,1,15,11,10,3,12,9,6,4,13,8,5"
14517,commdev-image-keyboard-response,484,1389236,learnblock2,110,img/planet10_right.png,10,Community 2,NA,TRUE,j,j,NA,NA,NA,3,7,"14,7,2,1,15,11,10,3,12,9,6,4,13,8,5"
14517,commdev-image-keyboard-response,485,1390498,learnblock2,1052,img/planet3_right.png,3,Community 2,NA,FALSE,f,j,NA,NA,NA,3,7,"14,7,2,1,15,11,10,3,12,9,6,4,13,8,5"
14517,commdev-image-keyboard-response,486,1391751,learnblock2,458,img/planet9_right.png,9,Community 2,NA,TRUE,j,j,NA,NA,NA,3,7,"14,7,2,1,15,11,10,3,12,9,6,4,13,8,5"
14517,commdev-image-keyboard-response,487,1393017,learnblock2,553,img/planet12_right.png,12,Community 2,NA,TRUE,j,j,NA,NA,NA,3,7,"14,7,2,1,15,11,10,3,12,9,6,4,13,8,5"
14517,commdev-image-keyboard-response,488,1394281,learnblock2,112,img/planet10_right.png,10,Community 2,NA,FALSE,f,j,NA,NA,NA,3,7,"14,7,2,1,15,11,10,3,12,9,6,4,13,8,5"
14517,commdev-image-keyboard-response,489,1395544,learnblock2,53,img/planet12_left.png,12,Community 2,NA,FALSE,j,f,NA,NA,NA,3,7,"14,7,2,1,15,11,10,3,12,9,6,4,13,8,5"
14517,commdev-image-keyboard-response,490,1396804,learnblock2,1063,img/planet3_right.png,3,Community 2,NA,FALSE,f,j,NA,NA,NA,3,7,"14,7,2,1,15,11,10,3,12,9,6,4,13,8,5"
14517,commdev-image-keyboard-response,491,1398069,learnblock2,622,img/planet10_left.png,10,Community 2,NA,FALSE,j,f,NA,NA,NA,3,7,"14,7,2,1,15,11,10,3,12,9,6,4,13,8,5"
14517,commdev-image-keyboard-response,492,1399430,learnblock2,110,img/planet11_left.png,11,Community 2,NA,TRUE,f,f,NA,NA,NA,3,7,"14,7,2,1,15,11,10,3,12,9,6,4,13,8,5"
14517,commdev-image-keyboard-response,493,1400688,learnblock2,699,img/planet12_left.png,12,Community 2,NA,TRUE,f,f,NA,NA,NA,3,7,"14,7,2,1,15,11,10,3,12,9,6,4,13,8,5"
14517,commdev-image-keyboard-response,494,1401950,learnblock2,326,img/planet10_left.png,10,Community 2,NA,TRUE,f,f,NA,NA,NA,3,7,"14,7,2,1,15,11,10,3,12,9,6,4,13,8,5"
14517,commdev-image-keyboard-response,495,1403203,learnblock2,36,img/planet3_right.png,3,Community 2,NA,FALSE,f,j,NA,NA,NA,3,7,"14,7,2,1,15,11,10,3,12,9,6,4,13,8,5"
14517,commdev-image-keyboard-response,496,1404459,learnblock2,10,img/planet9_left.png,9,Community 2,NA,TRUE,f,f,NA,NA,NA,3,7,"14,7,2,1,15,11,10,3,12,9,6,4,13,8,5"
14517,commdev-image-keyboard-response,497,1405715,learnblock2,null,img/planet12_right.png,12,Community 2,NA,FALSE,null,j,NA,NA,NA,3,7,"14,7,2,1,15,11,10,3,12,9,6,4,13,8,5"
14517,commdev-image-keyboard-response,498,1406969,learnblock2,501,img/planet11_right.png,11,Community 2,NA,FALSE,f,j,NA,NA,NA,3,7,"14,7,2,1,15,11,10,3,12,9,6,4,13,8,5"
14517,commdev-image-keyboard-response,499,1408232,learnblock2,129,img/planet12_right.png,12,Community 2,NA,TRUE,j,j,NA,NA,NA,3,7,"14,7,2,1,15,11,10,3,12,9,6,4,13,8,5"
14517,commdev-image-keyboard-response,500,1409498,learnblock2,641,img/planet10_left.png,10,Community 2,NA,FALSE,j,f,NA,NA,NA,3,7,"14,7,2,1,15,11,10,3,12,9,6,4,13,8,5"
14517,commdev-image-keyboard-response,501,1410762,learnblock2,85,img/planet9_right.png,9,Community 2,NA,FALSE,f,j,NA,NA,NA,3,7,"14,7,2,1,15,11,10,3,12,9,6,4,13,8,5"
14517,commdev-image-keyboard-response,502,1412024,learnblock2,null,img/planet11_right.png,11,Community 2,NA,FALSE,null,j,NA,NA,NA,3,7,"14,7,2,1,15,11,10,3,12,9,6,4,13,8,5"
14517,commdev-image-keyboard-response,503,1413286,learnblock2,null,img/planet1_left.png,1,Community 1,NA,FALSE,null,f,NA,NA,NA,3,7,"14,7,2,1,15,11,10,3,12,9,6,4,13,8,5"
14517,commdev-image-keyboard-response,504,1414538,learnblock2,933,img/planet7_right.png,7,Community 1,NA,FALSE,f,j,NA,NA,NA,3,7,"14,7,2,1,15,11,10,3,12,9,6,4,13,8,5"
14517,commdev-image-keyboard-response,505,1415797,learnblock2,280,img/planet15_left.png,15,Community 1,NA,FALSE,j,f,NA,NA,NA,3,7,"14,7,2,1,15,11,10,3,12,9,6,4,13,8,5"
14517,commdev-image-keyboard-response,506,1417059,learnblock2,234,img/planet7_left.png,7,Community 1,NA,TRUE,f,f,NA,NA,NA,3,7,"14,7,2,1,15,11,10,3,12,9,6,4,13,8,5"
14517,commdev-image-keyboard-response,507,1418318,learnblock2,409,img/planet15_left.png,15,Community 1,NA,FALSE,j,f,NA,NA,NA,3,7,"14,7,2,1,15,11,10,3,12,9,6,4,13,8,5"
14517,commdev-image-keyboard-response,508,1419584,learnblock2,266,img/planet14_right.png,14,Community 1,NA,FALSE,f,j,NA,NA,NA,3,7,"14,7,2,1,15,11,10,3,12,9,6,4,13,8,5"
14517,commdev-image-keyboard-response,509,1420849,learnblock2,389,img/planet1_left.png,1,Community 1,NA,TRUE,f,f,NA,NA,NA,3,7,"14,7,2,1,15,11,10,3,12,9,6,4,13,8,5"
14517,commdev-image-keyboard-response,510,1422111,learnblock2,587,img/planet14_left.png,14,Community 1,NA,TRUE,f,f,NA,NA,NA,3,7,"14,7,2,1,15,11,10,3,12,9,6,4,13,8,5"
14517,commdev-image-keyboard-response,511,1423453,learnblock2,48,img/planet2_left.png,2,Community 1,NA,FALSE,j,f,NA,NA,NA,3,7,"14,7,2,1,15,11,10,3,12,9,6,4,13,8,5"
14517,commdev-image-keyboard-response,512,1424709,learnblock2,69,img/planet15_left.png,15,Community 1,NA,FALSE,j,f,NA,NA,NA,3,7,"14,7,2,1,15,11,10,3,12,9,6,4,13,8,5"
14517,commdev-image-keyboard-response,513,1425968,learnblock2,34,img/planet14_left.png,14,Community 1,NA,FALSE,j,f,NA,NA,NA,3,7,"14,7,2,1,15,11,10,3,12,9,6,4,13,8,5"
14517,commdev-image-keyboard-response,514,1427221,learnblock2,527,img/planet15_left.png,15,Community 1,NA,TRUE,f,f,NA,NA,NA,3,7,"14,7,2,1,15,11,10,3,12,9,6,4,13,8,5"
14517,commdev-image-keyboard-response,515,1428483,learnblock2,581,img/planet6_left.png,6,Community 3,NA,TRUE,f,f,NA,NA,NA,3,7,"14,7,2,1,15,11,10,3,12,9,6,4,13,8,5"
14517,commdev-image-keyboard-response,516,1429809,learnblock2,164,img/planet5_left.png,5,Community 3,NA,FALSE,j,f,NA,NA,NA,3,7,"14,7,2,1,15,11,10,3,12,9,6,4,13,8,5"
14517,commdev-image-keyboard-response,517,1431073,learnblock2,206,img/planet6_right.png,6,Community 3,NA,TRUE,j,j,NA,NA,NA,3,7,"14,7,2,1,15,11,10,3,12,9,6,4,13,8,5"
14517,commdev-image-keyboard-response,518,1432324,learnblock2,200,img/planet15_left.png,15,Community 1,NA,FALSE,j,f,NA,NA,NA,3,7,"14,7,2,1,15,11,10,3,12,9,6,4,13,8,5"
14517,commdev-image-keyboard-response,519,1433577,learnblock2,861,img/planet6_right.png,6,Community 3,NA,FALSE,f,j,NA,NA,NA,3,7,"14,7,2,1,15,11,10,3,12,9,6,4,13,8,5"
14517,commdev-image-keyboard-response,520,1434842,learnblock2,449,img/planet5_right.png,5,Community 3,NA,TRUE,j,j,NA,NA,NA,3,7,"14,7,2,1,15,11,10,3,12,9,6,4,13,8,5"
14517,commdev-image-keyboard-response,521,1436107,learnblock2,508,img/planet4_left.png,4,Community 3,NA,TRUE,f,f,NA,NA,NA,3,7,"14,7,2,1,15,11,10,3,12,9,6,4,13,8,5"
14517,commdev-image-keyboard-response,522,1437371,learnblock2,89,img/planet5_left.png,5,Community 3,NA,FALSE,j,f,NA,NA,NA,3,7,"14,7,2,1,15,11,10,3,12,9,6,4,13,8,5"
14517,commdev-image-keyboard-response,523,1438632,learnblock2,225,img/planet8_right.png,8,Community 3,NA,TRUE,j,j,NA,NA,NA,3,7,"14,7,2,1,15,11,10,3,12,9,6,4,13,8,5"
14517,commdev-image-keyboard-response,524,1439894,learnblock2,11,img/planet13_left.png,13,Community 3,NA,TRUE,f,f,NA,NA,NA,3,7,"14,7,2,1,15,11,10,3,12,9,6,4,13,8,5"
14517,commdev-image-keyboard-response,525,1441159,learnblock2,29,img/planet4_right.png,4,Community 3,NA,FALSE,f,j,NA,NA,NA,3,7,"14,7,2,1,15,11,10,3,12,9,6,4,13,8,5"
14517,commdev-image-keyboard-response,526,1442419,learnblock2,197,img/planet8_left.png,8,Community 3,NA,FALSE,j,f,NA,NA,NA,3,7,"14,7,2,1,15,11,10,3,12,9,6,4,13,8,5"
14517,commdev-image-keyboard-response,527,1443682,learnblock2,284,img/planet5_left.png,5,Community 3,NA,FALSE,j,f,NA,NA,NA,3,7,"14,7,2,1,15,11,10,3,12,9,6,4,13,8,5"
14517,commdev-image-keyboard-response,528,1444946,learnblock2,728,img/planet6_left.png,6,Community 3,NA,FALSE,j,f,NA,NA,NA,3,7,"14,7,2,1,15,11,10,3,12,9,6,4,13,8,5"
14517,commdev-image-keyboard-response,529,1446210,learnblock2,456,img/planet5_right.png,5,Community 3,NA,TRUE,j,j,NA,NA,NA,3,7,"14,7,2,1,15,11,10,3,12,9,6,4,13,8,5"
14517,commdev-image-keyboard-response,530,1447469,learnblock2,722,img/planet6_left.png,6,Community 3,NA,TRUE,f,f,NA,NA,NA,3,7,"14,7,2,1,15,11,10,3,12,9,6,4,13,8,5"
14517,commdev-image-keyboard-response,531,1448729,learnblock2,143,img/planet5_left.png,5,Community 3,NA,FALSE,j,f,NA,NA,NA,3,7,"14,7,2,1,15,11,10,3,12,9,6,4,13,8,5"
14517,commdev-image-keyboard-response,532,1449987,learnblock2,369,img/planet13_right.png,13,Community 3,NA,TRUE,j,j,NA,NA,NA,3,7,"14,7,2,1,15,11,10,3,12,9,6,4,13,8,5"
14517,commdev-image-keyboard-response,533,1451241,learnblock2,128,img/planet5_left.png,5,Community 3,NA,TRUE,f,f,NA,NA,NA,3,7,"14,7,2,1,15,11,10,3,12,9,6,4,13,8,5"
14517,commdev-image-keyboard-response,534,1452502,learnblock2,589,img/planet8_right.png,8,Community 3,NA,FALSE,f,j,NA,NA,NA,3,7,"14,7,2,1,15,11,10,3,12,9,6,4,13,8,5"
14517,commdev-image-keyboard-response,535,1453766,learnblock2,84,img/planet4_right.png,4,Community 3,NA,TRUE,j,j,NA,NA,NA,3,7,"14,7,2,1,15,11,10,3,12,9,6,4,13,8,5"
14517,commdev-image-keyboard-response,536,1455018,learnblock2,67,img/planet3_right.png,3,Community 2,NA,FALSE,f,j,NA,NA,NA,3,7,"14,7,2,1,15,11,10,3,12,9,6,4,13,8,5"
14517,commdev-image-keyboard-response,537,1456283,learnblock2,561,img/planet10_right.png,10,Community 2,NA,FALSE,f,j,NA,NA,NA,3,7,"14,7,2,1,15,11,10,3,12,9,6,4,13,8,5"
14517,commdev-image-keyboard-response,538,1457541,learnblock2,546,img/planet3_left.png,3,Community 2,NA,TRUE,f,f,NA,NA,NA,3,7,"14,7,2,1,15,11,10,3,12,9,6,4,13,8,5"
14517,commdev-image-keyboard-response,539,1458806,learnblock2,432,img/planet9_left.png,9,Community 2,NA,TRUE,f,f,NA,NA,NA,3,7,"14,7,2,1,15,11,10,3,12,9,6,4,13,8,5"
14517,commdev-image-keyboard-response,540,1460167,learnblock2,363,img/planet3_right.png,3,Community 2,NA,FALSE,f,j,NA,NA,NA,3,7,"14,7,2,1,15,11,10,3,12,9,6,4,13,8,5"
14517,commdev-image-keyboard-response,541,1461419,learnblock2,117,img/planet10_left.png,10,Community 2,NA,FALSE,j,f,NA,NA,NA,3,7,"14,7,2,1,15,11,10,3,12,9,6,4,13,8,5"
14517,commdev-image-keyboard-response,542,1462685,learnblock2,182,img/planet11_left.png,11,Community 2,NA,FALSE,j,f,NA,NA,NA,3,7,"14,7,2,1,15,11,10,3,12,9,6,4,13,8,5"
14517,commdev-image-keyboard-response,543,1463949,learnblock2,404,img/planet1_right.png,1,Community 1,NA,TRUE,j,j,NA,NA,NA,3,7,"14,7,2,1,15,11,10,3,12,9,6,4,13,8,5"
14517,commdev-image-keyboard-response,544,1465200,learnblock2,435,img/planet7_left.png,7,Community 1,NA,FALSE,j,f,NA,NA,NA,3,7,"14,7,2,1,15,11,10,3,12,9,6,4,13,8,5"
14517,commdev-image-keyboard-response,545,1466458,learnblock2,null,img/planet15_left.png,15,Community 1,NA,FALSE,null,f,NA,NA,NA,3,7,"14,7,2,1,15,11,10,3,12,9,6,4,13,8,5"
14517,commdev-image-keyboard-response,546,1467718,learnblock2,null,img/planet14_right.png,14,Community 1,NA,FALSE,null,j,NA,NA,NA,3,7,"14,7,2,1,15,11,10,3,12,9,6,4,13,8,5"
14517,commdev-image-keyboard-response,547,1468971,learnblock2,3,img/planet2_right.png,2,Community 1,NA,TRUE,j,j,NA,NA,NA,3,7,"14,7,2,1,15,11,10,3,12,9,6,4,13,8,5"
14517,commdev-image-keyboard-response,548,1470223,learnblock2,null,img/planet15_left.png,15,Community 1,NA,FALSE,null,f,NA,NA,NA,3,7,"14,7,2,1,15,11,10,3,12,9,6,4,13,8,5"
14517,commdev-image-keyboard-response,549,1471484,learnblock2,null,img/planet6_right.png,6,Community 3,NA,FALSE,null,j,NA,NA,NA,3,7,"14,7,2,1,15,11,10,3,12,9,6,4,13,8,5"
14517,commdev-image-keyboard-response,550,1472750,learnblock2,533,img/planet8_left.png,8,Community 3,NA,FALSE,j,f,NA,NA,NA,3,7,"14,7,2,1,15,11,10,3,12,9,6,4,13,8,5"
14517,commdev-image-keyboard-response,551,1474000,learnblock2,519,img/planet6_right.png,6,Community 3,NA,TRUE,j,j,NA,NA,NA,3,7,"14,7,2,1,15,11,10,3,12,9,6,4,13,8,5"
14517,commdev-image-keyboard-response,552,1475264,learnblock2,636,img/planet15_left.png,15,Community 1,NA,FALSE,j,f,NA,NA,NA,3,7,"14,7,2,1,15,11,10,3,12,9,6,4,13,8,5"
14517,commdev-image-keyboard-response,553,1476519,learnblock2,59,img/planet14_right.png,14,Community 1,NA,FALSE,f,j,NA,NA,NA,3,7,"14,7,2,1,15,11,10,3,12,9,6,4,13,8,5"
14517,commdev-image-keyboard-response,554,1477786,learnblock2,440,img/planet2_left.png,2,Community 1,NA,FALSE,j,f,NA,NA,NA,3,7,"14,7,2,1,15,11,10,3,12,9,6,4,13,8,5"
14517,commdev-image-keyboard-response,555,1479049,learnblock2,830,img/planet1_left.png,1,Community 1,NA,FALSE,j,f,NA,NA,NA,3,7,"14,7,2,1,15,11,10,3,12,9,6,4,13,8,5"
14517,commdev-image-keyboard-response,556,1480315,learnblock2,934,img/planet11_left.png,11,Community 2,NA,TRUE,f,f,NA,NA,NA,3,7,"14,7,2,1,15,11,10,3,12,9,6,4,13,8,5"
14517,commdev-image-keyboard-response,557,1481577,learnblock2,304,img/planet9_right.png,9,Community 2,NA,TRUE,j,j,NA,NA,NA,3,7,"14,7,2,1,15,11,10,3,12,9,6,4,13,8,5"
14517,commdev-image-keyboard-response,558,1482830,learnblock2,100,img/planet11_right.png,11,Community 2,NA,FALSE,f,j,NA,NA,NA,3,7,"14,7,2,1,15,11,10,3,12,9,6,4,13,8,5"
14517,commdev-image-keyboard-response,559,1484091,learnblock2,204,img/planet12_left.png,12,Community 2,NA,TRUE,f,f,NA,NA,NA,3,7,"14,7,2,1,15,11,10,3,12,9,6,4,13,8,5"
14517,commdev-image-keyboard-response,560,1485351,learnblock2,381,img/planet3_left.png,3,Community 2,NA,FALSE,j,f,NA,NA,NA,3,7,"14,7,2,1,15,11,10,3,12,9,6,4,13,8,5"
14517,commdev-image-keyboard-response,561,1486603,learnblock2,395,img/planet4_right.png,4,Community 3,NA,TRUE,j,j,NA,NA,NA,3,7,"14,7,2,1,15,11,10,3,12,9,6,4,13,8,5"
14517,commdev-image-keyboard-response,562,1487866,learnblock2,701,img/planet3_right.png,3,Community 2,NA,TRUE,j,j,NA,NA,NA,3,7,"14,7,2,1,15,11,10,3,12,9,6,4,13,8,5"
14517,commdev-image-keyboard-response,563,1489125,learnblock2,730,img/planet4_right.png,4,Community 3,NA,FALSE,f,j,NA,NA,NA,3,7,"14,7,2,1,15,11,10,3,12,9,6,4,13,8,5"
14517,commdev-image-keyboard-response,564,1490389,learnblock2,128,img/planet8_right.png,8,Community 3,NA,TRUE,j,j,NA,NA,NA,3,7,"14,7,2,1,15,11,10,3,12,9,6,4,13,8,5"
14517,commdev-image-keyboard-response,565,1491641,learnblock2,607,img/planet5_right.png,5,Community 3,NA,TRUE,j,j,NA,NA,NA,3,7,"14,7,2,1,15,11,10,3,12,9,6,4,13,8,5"
14517,commdev-image-keyboard-response,566,1492897,learnblock2,225,img/planet6_left.png,6,Community 3,NA,TRUE,f,f,NA,NA,NA,3,7,"14,7,2,1,15,11,10,3,12,9,6,4,13,8,5"
14517,commdev-image-keyboard-response,567,1494158,learnblock2,576,img/planet13_right.png,13,Community 3,NA,FALSE,f,j,NA,NA,NA,3,7,"14,7,2,1,15,11,10,3,12,9,6,4,13,8,5"
14517,commdev-image-keyboard-response,568,1495420,learnblock2,64,img/planet4_right.png,4,Community 3,NA,TRUE,j,j,NA,NA,NA,3,7,"14,7,2,1,15,11,10,3,12,9,6,4,13,8,5"
14517,commdev-image-keyboard-response,569,1496701,learnblock2,488,img/planet13_right.png,13,Community 3,NA,TRUE,j,j,NA,NA,NA,3,7,"14,7,2,1,15,11,10,3,12,9,6,4,13,8,5"
14517,commdev-image-keyboard-response,570,1497965,learnblock2,121,img/planet8_left.png,8,Community 3,NA,TRUE,f,f,NA,NA,NA,3,7,"14,7,2,1,15,11,10,3,12,9,6,4,13,8,5"
14517,commdev-image-keyboard-response,571,1499228,learnblock2,333,img/planet6_left.png,6,Community 3,NA,TRUE,f,f,NA,NA,NA,3,7,"14,7,2,1,15,11,10,3,12,9,6,4,13,8,5"
14517,commdev-image-keyboard-response,572,1500491,learnblock2,518,img/planet8_left.png,8,Community 3,NA,TRUE,f,f,NA,NA,NA,3,7,"14,7,2,1,15,11,10,3,12,9,6,4,13,8,5"
14517,commdev-image-keyboard-response,573,1501756,learnblock2,207,img/planet4_left.png,4,Community 3,NA,FALSE,j,f,NA,NA,NA,3,7,"14,7,2,1,15,11,10,3,12,9,6,4,13,8,5"
14517,commdev-image-keyboard-response,574,1503018,learnblock2,424,img/planet8_right.png,8,Community 3,NA,TRUE,j,j,NA,NA,NA,3,7,"14,7,2,1,15,11,10,3,12,9,6,4,13,8,5"
14517,commdev-image-keyboard-response,575,1504282,learnblock2,555,img/planet5_left.png,5,Community 3,NA,FALSE,j,f,NA,NA,NA,3,7,"14,7,2,1,15,11,10,3,12,9,6,4,13,8,5"
14517,commdev-image-keyboard-response,576,1505574,learnblock2,850,img/planet6_left.png,6,Community 3,NA,FALSE,j,f,NA,NA,NA,3,7,"14,7,2,1,15,11,10,3,12,9,6,4,13,8,5"
14517,commdev-image-keyboard-response,577,1506833,learnblock2,186,img/planet13_right.png,13,Community 3,NA,FALSE,f,j,NA,NA,NA,3,7,"14,7,2,1,15,11,10,3,12,9,6,4,13,8,5"
14517,commdev-image-keyboard-response,578,1508097,learnblock2,332,img/planet5_left.png,5,Community 3,NA,TRUE,f,f,NA,NA,NA,3,7,"14,7,2,1,15,11,10,3,12,9,6,4,13,8,5"
14517,commdev-image-keyboard-response,579,1509348,learnblock2,317,img/planet8_right.png,8,Community 3,NA,FALSE,f,j,NA,NA,NA,3,7,"14,7,2,1,15,11,10,3,12,9,6,4,13,8,5"
14517,commdev-image-keyboard-response,580,1510608,learnblock2,711,img/planet4_left.png,4,Community 3,NA,TRUE,f,f,NA,NA,NA,3,7,"14,7,2,1,15,11,10,3,12,9,6,4,13,8,5"
14517,commdev-image-keyboard-response,581,1511871,learnblock2,126,img/planet13_right.png,13,Community 3,NA,TRUE,j,j,NA,NA,NA,3,7,"14,7,2,1,15,11,10,3,12,9,6,4,13,8,5"
14517,commdev-image-keyboard-response,582,1513135,learnblock2,366,img/planet6_left.png,6,Community 3,NA,FALSE,j,f,NA,NA,NA,3,7,"14,7,2,1,15,11,10,3,12,9,6,4,13,8,5"
14517,commdev-image-keyboard-response,583,1514399,learnblock2,447,img/planet5_left.png,5,Community 3,NA,FALSE,j,f,NA,NA,NA,3,7,"14,7,2,1,15,11,10,3,12,9,6,4,13,8,5"
14517,commdev-image-keyboard-response,584,1515660,learnblock2,188,img/planet8_left.png,8,Community 3,NA,TRUE,f,f,NA,NA,NA,3,7,"14,7,2,1,15,11,10,3,12,9,6,4,13,8,5"
14517,commdev-image-keyboard-response,585,1516926,learnblock2,117,img/planet4_right.png,4,Community 3,NA,FALSE,f,j,NA,NA,NA,3,7,"14,7,2,1,15,11,10,3,12,9,6,4,13,8,5"
14517,commdev-image-keyboard-response,586,1518336,learnblock2,477,img/planet8_left.png,8,Community 3,NA,FALSE,j,f,NA,NA,NA,3,7,"14,7,2,1,15,11,10,3,12,9,6,4,13,8,5"
14517,commdev-image-keyboard-response,587,1519588,learnblock2,91,img/planet4_left.png,4,Community 3,NA,TRUE,f,f,NA,NA,NA,3,7,"14,7,2,1,15,11,10,3,12,9,6,4,13,8,5"
14517,commdev-image-keyboard-response,588,1520852,learnblock2,92,img/planet5_right.png,5,Community 3,NA,FALSE,f,j,NA,NA,NA,3,7,"14,7,2,1,15,11,10,3,12,9,6,4,13,8,5"
14517,commdev-image-keyboard-response,589,1522113,learnblock2,32,img/planet6_left.png,6,Community 3,NA,TRUE,f,f,NA,NA,NA,3,7,"14,7,2,1,15,11,10,3,12,9,6,4,13,8,5"
14517,commdev-image-keyboard-response,590,1523377,learnblock2,769,img/planet13_left.png,13,Community 3,NA,FALSE,j,f,NA,NA,NA,3,7,"14,7,2,1,15,11,10,3,12,9,6,4,13,8,5"
14517,commdev-image-keyboard-response,591,1524632,learnblock2,161,img/planet4_right.png,4,Community 3,NA,FALSE,f,j,NA,NA,NA,3,7,"14,7,2,1,15,11,10,3,12,9,6,4,13,8,5"
14517,commdev-image-keyboard-response,592,1525896,learnblock2,168,img/planet13_right.png,13,Community 3,NA,FALSE,f,j,NA,NA,NA,3,7,"14,7,2,1,15,11,10,3,12,9,6,4,13,8,5"
14517,commdev-image-keyboard-response,593,1527160,learnblock2,1002,img/planet4_left.png,4,Community 3,NA,TRUE,f,f,NA,NA,NA,3,7,"14,7,2,1,15,11,10,3,12,9,6,4,13,8,5"
14517,commdev-image-keyboard-response,594,1528418,learnblock2,115,img/planet13_right.png,13,Community 3,NA,FALSE,f,j,NA,NA,NA,3,7,"14,7,2,1,15,11,10,3,12,9,6,4,13,8,5"
14517,commdev-image-keyboard-response,595,1529670,learnblock2,508,img/planet5_right.png,5,Community 3,NA,FALSE,f,j,NA,NA,NA,3,7,"14,7,2,1,15,11,10,3,12,9,6,4,13,8,5"
14517,commdev-image-keyboard-response,596,1530936,learnblock2,277,img/planet6_right.png,6,Community 3,NA,TRUE,j,j,NA,NA,NA,3,7,"14,7,2,1,15,11,10,3,12,9,6,4,13,8,5"
14517,commdev-image-keyboard-response,597,1532190,learnblock2,368,img/planet13_left.png,13,Community 3,NA,TRUE,f,f,NA,NA,NA,3,7,"14,7,2,1,15,11,10,3,12,9,6,4,13,8,5"
14517,commdev-image-keyboard-response,598,1533454,learnblock2,800,img/planet5_left.png,5,Community 3,NA,TRUE,f,f,NA,NA,NA,3,7,"14,7,2,1,15,11,10,3,12,9,6,4,13,8,5"
14517,commdev-image-keyboard-response,599,1534707,learnblock2,54,img/planet6_right.png,6,Community 3,NA,TRUE,j,j,NA,NA,NA,3,7,"14,7,2,1,15,11,10,3,12,9,6,4,13,8,5"
14517,commdev-image-keyboard-response,600,1535971,learnblock2,217,img/planet13_left.png,13,Community 3,NA,FALSE,j,f,NA,NA,NA,3,7,"14,7,2,1,15,11,10,3,12,9,6,4,13,8,5"
14517,commdev-image-keyboard-response,601,1537231,learnblock2,465,img/planet8_right.png,8,Community 3,NA,TRUE,j,j,NA,NA,NA,3,7,"14,7,2,1,15,11,10,3,12,9,6,4,13,8,5"
14517,commdev-image-keyboard-response,602,1538493,learnblock2,82,img/planet5_left.png,5,Community 3,NA,TRUE,f,f,NA,NA,NA,3,7,"14,7,2,1,15,11,10,3,12,9,6,4,13,8,5"
14517,commdev-image-keyboard-response,603,1539756,learnblock2,298,img/planet6_left.png,6,Community 3,NA,TRUE,f,f,NA,NA,NA,3,7,"14,7,2,1,15,11,10,3,12,9,6,4,13,8,5"
14517,commdev-image-keyboard-response,604,1541008,learnblock2,386,img/planet5_right.png,5,Community 3,NA,FALSE,f,j,NA,NA,NA,3,7,"14,7,2,1,15,11,10,3,12,9,6,4,13,8,5"
14517,commdev-image-keyboard-response,605,1542272,learnblock2,518,img/planet6_right.png,6,Community 3,NA,FALSE,f,j,NA,NA,NA,3,7,"14,7,2,1,15,11,10,3,12,9,6,4,13,8,5"
14517,commdev-image-keyboard-response,606,1543530,learnblock2,239,img/planet5_left.png,5,Community 3,NA,FALSE,j,f,NA,NA,NA,3,7,"14,7,2,1,15,11,10,3,12,9,6,4,13,8,5"
14517,commdev-image-keyboard-response,607,1544789,learnblock2,464,img/planet4_left.png,4,Community 3,NA,TRUE,f,f,NA,NA,NA,3,7,"14,7,2,1,15,11,10,3,12,9,6,4,13,8,5"
14517,commdev-image-keyboard-response,608,1546052,learnblock2,918,img/planet5_left.png,5,Community 3,NA,TRUE,f,f,NA,NA,NA,3,7,"14,7,2,1,15,11,10,3,12,9,6,4,13,8,5"
14517,commdev-image-keyboard-response,609,1547303,learnblock2,null,img/planet4_right.png,4,Community 3,NA,FALSE,null,j,NA,NA,NA,3,7,"14,7,2,1,15,11,10,3,12,9,6,4,13,8,5"
14517,commdev-image-keyboard-response,610,1548569,learnblock2,111,img/planet13_left.png,13,Community 3,NA,FALSE,j,f,NA,NA,NA,3,7,"14,7,2,1,15,11,10,3,12,9,6,4,13,8,5"
14517,commdev-image-keyboard-response,611,1549832,learnblock2,992,img/planet6_right.png,6,Community 3,NA,TRUE,j,j,NA,NA,NA,3,7,"14,7,2,1,15,11,10,3,12,9,6,4,13,8,5"
14517,commdev-image-keyboard-response,612,1551098,learnblock2,296,img/planet13_left.png,13,Community 3,NA,TRUE,f,f,NA,NA,NA,3,7,"14,7,2,1,15,11,10,3,12,9,6,4,13,8,5"
14517,commdev-image-keyboard-response,613,1552364,learnblock2,397,img/planet4_right.png,4,Community 3,NA,TRUE,j,j,NA,NA,NA,3,7,"14,7,2,1,15,11,10,3,12,9,6,4,13,8,5"
14517,commdev-image-keyboard-response,614,1553627,learnblock2,null,img/planet3_left.png,3,Community 2,NA,FALSE,null,f,NA,NA,NA,3,7,"14,7,2,1,15,11,10,3,12,9,6,4,13,8,5"
14517,commdev-image-keyboard-response,615,1554883,learnblock2,657,img/planet4_right.png,4,Community 3,NA,TRUE,j,j,NA,NA,NA,3,7,"14,7,2,1,15,11,10,3,12,9,6,4,13,8,5"
14517,commdev-image-keyboard-response,616,1556288,learnblock2,34,img/planet13_right.png,13,Community 3,NA,FALSE,f,j,NA,NA,NA,3,7,"14,7,2,1,15,11,10,3,12,9,6,4,13,8,5"
14517,commdev-image-keyboard-response,617,1557539,learnblock2,142,img/planet8_right.png,8,Community 3,NA,FALSE,f,j,NA,NA,NA,3,7,"14,7,2,1,15,11,10,3,12,9,6,4,13,8,5"
14517,commdev-image-keyboard-response,618,1558799,learnblock2,471,img/planet5_right.png,5,Community 3,NA,TRUE,j,j,NA,NA,NA,3,7,"14,7,2,1,15,11,10,3,12,9,6,4,13,8,5"
14517,commdev-image-keyboard-response,619,1560055,learnblock2,71,img/planet8_left.png,8,Community 3,NA,TRUE,f,f,NA,NA,NA,3,7,"14,7,2,1,15,11,10,3,12,9,6,4,13,8,5"
14517,commdev-image-keyboard-response,620,1561314,learnblock2,313,img/planet5_right.png,5,Community 3,NA,TRUE,j,j,NA,NA,NA,3,7,"14,7,2,1,15,11,10,3,12,9,6,4,13,8,5"
14517,commdev-image-keyboard-response,621,1562659,learnblock2,125,img/planet13_right.png,13,Community 3,NA,TRUE,j,j,NA,NA,NA,3,7,"14,7,2,1,15,11,10,3,12,9,6,4,13,8,5"
14517,commdev-image-keyboard-response,622,1563910,learnblock2,147,img/planet4_right.png,4,Community 3,NA,TRUE,j,j,NA,NA,NA,3,7,"14,7,2,1,15,11,10,3,12,9,6,4,13,8,5"
14517,commdev-image-keyboard-response,623,1565172,learnblock2,124,img/planet13_left.png,13,Community 3,NA,FALSE,j,f,NA,NA,NA,3,7,"14,7,2,1,15,11,10,3,12,9,6,4,13,8,5"
14517,commdev-image-keyboard-response,624,1566439,learnblock2,644,img/planet8_left.png,8,Community 3,NA,TRUE,f,f,NA,NA,NA,3,7,"14,7,2,1,15,11,10,3,12,9,6,4,13,8,5"
14517,commdev-image-keyboard-response,625,1567698,learnblock2,557,img/planet4_left.png,4,Community 3,NA,TRUE,f,f,NA,NA,NA,3,7,"14,7,2,1,15,11,10,3,12,9,6,4,13,8,5"
14517,commdev-image-keyboard-response,626,1568961,learnblock2,228,img/planet13_left.png,13,Community 3,NA,FALSE,j,f,NA,NA,NA,3,7,"14,7,2,1,15,11,10,3,12,9,6,4,13,8,5"
14517,commdev-image-keyboard-response,627,1570223,learnblock2,536,img/planet5_left.png,5,Community 3,NA,FALSE,j,f,NA,NA,NA,3,7,"14,7,2,1,15,11,10,3,12,9,6,4,13,8,5"
14517,commdev-image-keyboard-response,628,1571501,learnblock2,374,img/planet6_right.png,6,Community 3,NA,TRUE,j,j,NA,NA,NA,3,7,"14,7,2,1,15,11,10,3,12,9,6,4,13,8,5"
14517,commdev-image-keyboard-response,629,1572762,learnblock2,272,img/planet5_right.png,5,Community 3,NA,TRUE,j,j,NA,NA,NA,3,7,"14,7,2,1,15,11,10,3,12,9,6,4,13,8,5"
14517,commdev-image-keyboard-response,630,1574028,learnblock2,141,img/planet13_right.png,13,Community 3,NA,TRUE,j,j,NA,NA,NA,3,7,"14,7,2,1,15,11,10,3,12,9,6,4,13,8,5"
14517,commdev-image-keyboard-response,631,1575290,learnblock2,118,img/planet4_right.png,4,Community 3,NA,TRUE,j,j,NA,NA,NA,3,7,"14,7,2,1,15,11,10,3,12,9,6,4,13,8,5"
14517,commdev-image-keyboard-response,632,1576553,learnblock2,1101,img/planet3_right.png,3,Community 2,NA,FALSE,f,j,NA,NA,NA,3,7,"14,7,2,1,15,11,10,3,12,9,6,4,13,8,5"
14517,commdev-image-keyboard-response,633,1577805,learnblock2,603,img/planet4_left.png,4,Community 3,NA,FALSE,j,f,NA,NA,NA,3,7,"14,7,2,1,15,11,10,3,12,9,6,4,13,8,5"
14517,commdev-image-keyboard-response,634,1579064,learnblock2,260,img/planet13_left.png,13,Community 3,NA,TRUE,f,f,NA,NA,NA,3,7,"14,7,2,1,15,11,10,3,12,9,6,4,13,8,5"
14517,commdev-image-keyboard-response,635,1580322,learnblock2,476,img/planet6_right.png,6,Community 3,NA,FALSE,f,j,NA,NA,NA,3,7,"14,7,2,1,15,11,10,3,12,9,6,4,13,8,5"
14517,commdev-image-keyboard-response,636,1581582,learnblock2,700,img/planet5_right.png,5,Community 3,NA,TRUE,j,j,NA,NA,NA,3,7,"14,7,2,1,15,11,10,3,12,9,6,4,13,8,5"
14517,commdev-image-keyboard-response,637,1582843,learnblock2,39,img/planet13_left.png,13,Community 3,NA,TRUE,f,f,NA,NA,NA,3,7,"14,7,2,1,15,11,10,3,12,9,6,4,13,8,5"
14517,commdev-image-keyboard-response,638,1584180,learnblock2,116,img/planet6_left.png,6,Community 3,NA,TRUE,f,f,NA,NA,NA,3,7,"14,7,2,1,15,11,10,3,12,9,6,4,13,8,5"
14517,commdev-image-keyboard-response,639,1585443,learnblock2,366,img/planet13_right.png,13,Community 3,NA,FALSE,f,j,NA,NA,NA,3,7,"14,7,2,1,15,11,10,3,12,9,6,4,13,8,5"
14517,commdev-image-keyboard-response,640,1586702,learnblock2,839,img/planet5_right.png,5,Community 3,NA,FALSE,f,j,NA,NA,NA,3,7,"14,7,2,1,15,11,10,3,12,9,6,4,13,8,5"
14517,commdev-image-keyboard-response,641,1587960,learnblock2,213,img/planet4_right.png,4,Community 3,NA,TRUE,j,j,NA,NA,NA,3,7,"14,7,2,1,15,11,10,3,12,9,6,4,13,8,5"
14517,commdev-image-keyboard-response,642,1589212,learnblock2,100,img/planet3_left.png,3,Community 2,NA,FALSE,j,f,NA,NA,NA,3,7,"14,7,2,1,15,11,10,3,12,9,6,4,13,8,5"
14517,commdev-image-keyboard-response,643,1590466,learnblock2,89,img/planet12_right.png,12,Community 2,NA,TRUE,j,j,NA,NA,NA,3,7,"14,7,2,1,15,11,10,3,12,9,6,4,13,8,5"
14517,commdev-image-keyboard-response,644,1591731,learnblock2,98,img/planet9_right.png,9,Community 2,NA,TRUE,j,j,NA,NA,NA,3,7,"14,7,2,1,15,11,10,3,12,9,6,4,13,8,5"
14517,commdev-image-keyboard-response,645,1593068,learnblock2,380,img/planet3_left.png,3,Community 2,NA,TRUE,f,f,NA,NA,NA,3,7,"14,7,2,1,15,11,10,3,12,9,6,4,13,8,5"
14517,commdev-image-keyboard-response,646,1594326,learnblock2,464,img/planet10_right.png,10,Community 2,NA,FALSE,f,j,NA,NA,NA,3,7,"14,7,2,1,15,11,10,3,12,9,6,4,13,8,5"
14517,commdev-image-keyboard-response,647,1595584,learnblock2,342,img/planet11_right.png,11,Community 2,NA,FALSE,f,j,NA,NA,NA,3,7,"14,7,2,1,15,11,10,3,12,9,6,4,13,8,5"
14517,commdev-image-keyboard-response,648,1596843,learnblock2,329,img/planet9_right.png,9,Community 2,NA,FALSE,f,j,NA,NA,NA,3,7,"14,7,2,1,15,11,10,3,12,9,6,4,13,8,5"
14517,commdev-image-keyboard-response,649,1598099,learnblock2,321,img/planet3_left.png,3,Community 2,NA,TRUE,f,f,NA,NA,NA,3,7,"14,7,2,1,15,11,10,3,12,9,6,4,13,8,5"
14517,commdev-image-keyboard-response,650,1599390,learnblock2,140,img/planet10_right.png,10,Community 2,NA,FALSE,f,j,NA,NA,NA,3,7,"14,7,2,1,15,11,10,3,12,9,6,4,13,8,5"
14517,commdev-image-keyboard-response,651,1600652,learnblock2,69,img/planet9_left.png,9,Community 2,NA,TRUE,f,f,NA,NA,NA,3,7,"14,7,2,1,15,11,10,3,12,9,6,4,13,8,5"
14517,commdev-image-keyboard-response,652,1601908,learnblock2,560,img/planet10_left.png,10,Community 2,NA,FALSE,j,f,NA,NA,NA,3,7,"14,7,2,1,15,11,10,3,12,9,6,4,13,8,5"
14517,commdev-image-keyboard-response,653,1603169,learnblock2,388,img/planet3_right.png,3,Community 2,NA,TRUE,j,j,NA,NA,NA,3,7,"14,7,2,1,15,11,10,3,12,9,6,4,13,8,5"
14517,commdev-image-keyboard-response,654,1604431,learnblock2,1,img/planet12_right.png,12,Community 2,NA,FALSE,f,j,NA,NA,NA,3,7,"14,7,2,1,15,11,10,3,12,9,6,4,13,8,5"
14517,commdev-image-keyboard-response,655,1605690,learnblock2,321,img/planet11_right.png,11,Community 2,NA,TRUE,j,j,NA,NA,NA,3,7,"14,7,2,1,15,11,10,3,12,9,6,4,13,8,5"
14517,commdev-image-keyboard-response,656,1606952,learnblock2,644,img/planet10_right.png,10,Community 2,NA,TRUE,j,j,NA,NA,NA,3,7,"14,7,2,1,15,11,10,3,12,9,6,4,13,8,5"
14517,commdev-image-keyboard-response,657,1608344,learnblock2,554,img/planet12_left.png,12,Community 2,NA,FALSE,j,f,NA,NA,NA,3,7,"14,7,2,1,15,11,10,3,12,9,6,4,13,8,5"
14517,commdev-image-keyboard-response,658,1609605,learnblock2,366,img/planet10_right.png,10,Community 2,NA,TRUE,j,j,NA,NA,NA,3,7,"14,7,2,1,15,11,10,3,12,9,6,4,13,8,5"
14517,commdev-image-keyboard-response,659,1610866,learnblock2,313,img/planet9_right.png,9,Community 2,NA,TRUE,j,j,NA,NA,NA,3,7,"14,7,2,1,15,11,10,3,12,9,6,4,13,8,5"
14517,commdev-image-keyboard-response,660,1612119,learnblock2,137,img/planet10_left.png,10,Community 2,NA,TRUE,f,f,NA,NA,NA,3,7,"14,7,2,1,15,11,10,3,12,9,6,4,13,8,5"
14517,commdev-image-keyboard-response,661,1613381,learnblock2,1027,img/planet12_left.png,12,Community 2,NA,FALSE,j,f,NA,NA,NA,3,7,"14,7,2,1,15,11,10,3,12,9,6,4,13,8,5"
14517,commdev-image-keyboard-response,662,1614644,learnblock2,704,img/planet3_left.png,3,Community 2,NA,TRUE,f,f,NA,NA,NA,3,7,"14,7,2,1,15,11,10,3,12,9,6,4,13,8,5"
14517,commdev-image-keyboard-response,663,1615905,learnblock2,286,img/planet4_right.png,4,Community 3,NA,FALSE,f,j,NA,NA,NA,3,7,"14,7,2,1,15,11,10,3,12,9,6,4,13,8,5"
14517,commdev-image-keyboard-response,664,1617165,learnblock2,470,img/planet8_left.png,8,Community 3,NA,FALSE,j,f,NA,NA,NA,3,7,"14,7,2,1,15,11,10,3,12,9,6,4,13,8,5"
14517,commdev-image-keyboard-response,665,1618424,learnblock2,483,img/planet5_right.png,5,Community 3,NA,FALSE,f,j,NA,NA,NA,3,7,"14,7,2,1,15,11,10,3,12,9,6,4,13,8,5"
14517,commdev-image-keyboard-response,666,1619686,learnblock2,147,img/planet13_left.png,13,Community 3,NA,FALSE,j,f,NA,NA,NA,3,7,"14,7,2,1,15,11,10,3,12,9,6,4,13,8,5"
14517,commdev-image-keyboard-response,667,1620941,learnblock2,161,img/planet5_left.png,5,Community 3,NA,TRUE,f,f,NA,NA,NA,3,7,"14,7,2,1,15,11,10,3,12,9,6,4,13,8,5"
14517,commdev-image-keyboard-response,668,1622200,learnblock2,null,img/planet6_right.png,6,Community 3,NA,FALSE,null,j,NA,NA,NA,3,7,"14,7,2,1,15,11,10,3,12,9,6,4,13,8,5"
14517,commdev-image-keyboard-response,669,1623463,learnblock2,1221,img/planet8_right.png,8,Community 3,NA,FALSE,f,j,NA,NA,NA,3,7,"14,7,2,1,15,11,10,3,12,9,6,4,13,8,5"
14517,commdev-image-keyboard-response,670,1624721,learnblock2,1057,img/planet13_right.png,13,Community 3,NA,TRUE,j,j,NA,NA,NA,3,7,"14,7,2,1,15,11,10,3,12,9,6,4,13,8,5"
14517,commdev-image-keyboard-response,671,1625983,learnblock2,631,img/planet8_left.png,8,Community 3,NA,TRUE,f,f,NA,NA,NA,3,7,"14,7,2,1,15,11,10,3,12,9,6,4,13,8,5"
14517,commdev-image-keyboard-response,672,1627245,learnblock2,123,img/planet4_left.png,4,Community 3,NA,FALSE,j,f,NA,NA,NA,3,7,"14,7,2,1,15,11,10,3,12,9,6,4,13,8,5"
14517,commdev-image-keyboard-response,673,1628650,learnblock2,200,img/planet3_left.png,3,Community 2,NA,FALSE,j,f,NA,NA,NA,3,7,"14,7,2,1,15,11,10,3,12,9,6,4,13,8,5"
14517,commdev-image-keyboard-response,674,1629907,learnblock2,54,img/planet9_left.png,9,Community 2,NA,FALSE,j,f,NA,NA,NA,3,7,"14,7,2,1,15,11,10,3,12,9,6,4,13,8,5"
14517,commdev-image-keyboard-response,675,1631170,learnblock2,31,img/planet3_left.png,3,Community 2,NA,FALSE,j,f,NA,NA,NA,3,7,"14,7,2,1,15,11,10,3,12,9,6,4,13,8,5"
14517,commdev-image-keyboard-response,676,1632428,learnblock2,599,img/planet9_left.png,9,Community 2,NA,FALSE,j,f,NA,NA,NA,3,7,"14,7,2,1,15,11,10,3,12,9,6,4,13,8,5"
14517,commdev-image-keyboard-response,677,1633692,learnblock2,412,img/planet10_left.png,10,Community 2,NA,FALSE,j,f,NA,NA,NA,3,7,"14,7,2,1,15,11,10,3,12,9,6,4,13,8,5"
14517,commdev-image-keyboard-response,678,1635066,learnblock2,116,img/planet9_right.png,9,Community 2,NA,FALSE,f,j,NA,NA,NA,3,7,"14,7,2,1,15,11,10,3,12,9,6,4,13,8,5"
14517,commdev-image-keyboard-response,679,1636326,learnblock2,null,img/planet3_left.png,3,Community 2,NA,FALSE,null,f,NA,NA,NA,3,7,"14,7,2,1,15,11,10,3,12,9,6,4,13,8,5"
14517,commdev-image-keyboard-response,680,1637581,learnblock2,null,img/planet9_right.png,9,Community 2,NA,FALSE,null,j,NA,NA,NA,3,7,"14,7,2,1,15,11,10,3,12,9,6,4,13,8,5"
14517,commdev-image-keyboard-response,681,1638841,learnblock2,561,img/planet3_right.png,3,Community 2,NA,TRUE,j,j,NA,NA,NA,3,7,"14,7,2,1,15,11,10,3,12,9,6,4,13,8,5"
14517,commdev-image-keyboard-response,682,1640105,learnblock2,183,img/planet9_right.png,9,Community 2,NA,FALSE,f,j,NA,NA,NA,3,7,"14,7,2,1,15,11,10,3,12,9,6,4,13,8,5"
14517,commdev-image-keyboard-response,683,1641370,learnblock2,431,img/planet11_left.png,11,Community 2,NA,TRUE,f,f,NA,NA,NA,3,7,"14,7,2,1,15,11,10,3,12,9,6,4,13,8,5"
14517,commdev-image-keyboard-response,684,1642631,learnblock2,736,img/planet12_left.png,12,Community 2,NA,FALSE,j,f,NA,NA,NA,3,7,"14,7,2,1,15,11,10,3,12,9,6,4,13,8,5"
14517,commdev-image-keyboard-response,685,1644003,learnblock2,246,img/planet9_left.png,9,Community 2,NA,TRUE,f,f,NA,NA,NA,3,7,"14,7,2,1,15,11,10,3,12,9,6,4,13,8,5"
14517,commdev-image-keyboard-response,686,1645264,learnblock2,471,img/planet12_right.png,12,Community 2,NA,TRUE,j,j,NA,NA,NA,3,7,"14,7,2,1,15,11,10,3,12,9,6,4,13,8,5"
14517,commdev-image-keyboard-response,687,1646523,learnblock2,207,img/planet10_left.png,10,Community 2,NA,TRUE,f,f,NA,NA,NA,3,7,"14,7,2,1,15,11,10,3,12,9,6,4,13,8,5"
14517,commdev-image-keyboard-response,688,1647782,learnblock2,490,img/planet3_right.png,3,Community 2,NA,FALSE,f,j,NA,NA,NA,3,7,"14,7,2,1,15,11,10,3,12,9,6,4,13,8,5"
14517,commdev-image-keyboard-response,689,1649044,learnblock2,332,img/planet4_left.png,4,Community 3,NA,FALSE,j,f,NA,NA,NA,3,7,"14,7,2,1,15,11,10,3,12,9,6,4,13,8,5"
14517,commdev-image-keyboard-response,690,1650307,learnblock2,536,img/planet5_right.png,5,Community 3,NA,TRUE,j,j,NA,NA,NA,3,7,"14,7,2,1,15,11,10,3,12,9,6,4,13,8,5"
14517,commdev-image-keyboard-response,691,1651571,learnblock2,619,img/planet8_left.png,8,Community 3,NA,FALSE,j,f,NA,NA,NA,3,7,"14,7,2,1,15,11,10,3,12,9,6,4,13,8,5"
14517,commdev-image-keyboard-response,692,1652836,learnblock2,418,img/planet4_left.png,4,Community 3,NA,FALSE,j,f,NA,NA,NA,3,7,"14,7,2,1,15,11,10,3,12,9,6,4,13,8,5"
14517,commdev-image-keyboard-response,693,1654098,learnblock2,521,img/planet8_left.png,8,Community 3,NA,FALSE,j,f,NA,NA,NA,3,7,"14,7,2,1,15,11,10,3,12,9,6,4,13,8,5"
14517,commdev-image-keyboard-response,694,1655359,learnblock2,590,img/planet5_left.png,5,Community 3,NA,TRUE,f,f,NA,NA,NA,3,7,"14,7,2,1,15,11,10,3,12,9,6,4,13,8,5"
14517,commdev-image-keyboard-response,695,1656699,learnblock2,138,img/planet8_left.png,8,Community 3,NA,FALSE,j,f,NA,NA,NA,3,7,"14,7,2,1,15,11,10,3,12,9,6,4,13,8,5"
14517,commdev-image-keyboard-response,696,1657961,learnblock2,778,img/planet13_right.png,13,Community 3,NA,FALSE,f,j,NA,NA,NA,3,7,"14,7,2,1,15,11,10,3,12,9,6,4,13,8,5"
14517,commdev-image-keyboard-response,697,1659215,learnblock2,177,img/planet6_left.png,6,Community 3,NA,TRUE,f,f,NA,NA,NA,3,7,"14,7,2,1,15,11,10,3,12,9,6,4,13,8,5"
14517,commdev-image-keyboard-response,698,1660477,learnblock2,484,img/planet8_right.png,8,Community 3,NA,TRUE,j,j,NA,NA,NA,3,7,"14,7,2,1,15,11,10,3,12,9,6,4,13,8,5"
14517,commdev-image-keyboard-response,699,1661741,learnblock2,190,img/planet5_left.png,5,Community 3,NA,TRUE,f,f,NA,NA,NA,3,7,"14,7,2,1,15,11,10,3,12,9,6,4,13,8,5"
14517,commdev-image-keyboard-response,700,1663159,learnblock2,623,img/planet8_right.png,8,Community 3,NA,TRUE,j,j,NA,NA,NA,3,7,"14,7,2,1,15,11,10,3,12,9,6,4,13,8,5"
14517,commdev-image-keyboard-response,701,1664420,learnblock2,798,img/planet13_left.png,13,Community 3,NA,TRUE,f,f,NA,NA,NA,3,7,"14,7,2,1,15,11,10,3,12,9,6,4,13,8,5"
14517,commdev-image-keyboard-response,702,1665679,learnblock2,501,img/planet4_left.png,4,Community 3,NA,TRUE,f,f,NA,NA,NA,3,7,"14,7,2,1,15,11,10,3,12,9,6,4,13,8,5"
14517,commdev-image-keyboard-response,703,1666930,learnblock2,456,img/planet5_right.png,5,Community 3,NA,TRUE,j,j,NA,NA,NA,3,7,"14,7,2,1,15,11,10,3,12,9,6,4,13,8,5"
14517,commdev-image-keyboard-response,704,1668193,learnblock2,null,img/planet13_right.png,13,Community 3,NA,FALSE,null,j,NA,NA,NA,3,7,"14,7,2,1,15,11,10,3,12,9,6,4,13,8,5"
14517,commdev-image-keyboard-response,705,1669455,learnblock2,818,img/planet6_right.png,6,Community 3,NA,FALSE,f,j,NA,NA,NA,3,7,"14,7,2,1,15,11,10,3,12,9,6,4,13,8,5"
14517,commdev-image-keyboard-response,706,1670718,learnblock2,623,img/planet13_left.png,13,Community 3,NA,TRUE,f,f,NA,NA,NA,3,7,"14,7,2,1,15,11,10,3,12,9,6,4,13,8,5"
14517,commdev-image-keyboard-response,707,1671977,learnblock2,878,img/planet5_left.png,5,Community 3,NA,FALSE,j,f,NA,NA,NA,3,7,"14,7,2,1,15,11,10,3,12,9,6,4,13,8,5"
14517,commdev-image-keyboard-response,708,1673238,learnblock2,245,img/planet13_left.png,13,Community 3,NA,TRUE,f,f,NA,NA,NA,3,7,"14,7,2,1,15,11,10,3,12,9,6,4,13,8,5"
14517,commdev-image-keyboard-response,709,1674490,learnblock2,467,img/planet4_right.png,4,Community 3,NA,FALSE,f,j,NA,NA,NA,3,7,"14,7,2,1,15,11,10,3,12,9,6,4,13,8,5"
14517,commdev-image-keyboard-response,710,1675745,learnblock2,177,img/planet13_left.png,13,Community 3,NA,TRUE,f,f,NA,NA,NA,3,7,"14,7,2,1,15,11,10,3,12,9,6,4,13,8,5"
14517,commdev-image-keyboard-response,711,1677009,learnblock2,468,img/planet8_right.png,8,Community 3,NA,FALSE,f,j,NA,NA,NA,3,7,"14,7,2,1,15,11,10,3,12,9,6,4,13,8,5"
14517,commdev-image-keyboard-response,712,1678269,learnblock2,498,img/planet13_left.png,13,Community 3,NA,TRUE,f,f,NA,NA,NA,3,7,"14,7,2,1,15,11,10,3,12,9,6,4,13,8,5"
14517,commdev-image-keyboard-response,713,1679664,learnblock2,338,img/planet4_right.png,4,Community 3,NA,FALSE,f,j,NA,NA,NA,3,7,"14,7,2,1,15,11,10,3,12,9,6,4,13,8,5"
14517,commdev-image-keyboard-response,714,1680917,learnblock2,860,img/planet8_right.png,8,Community 3,NA,FALSE,f,j,NA,NA,NA,3,7,"14,7,2,1,15,11,10,3,12,9,6,4,13,8,5"
14517,commdev-image-keyboard-response,715,1682193,learnblock2,763,img/planet13_right.png,13,Community 3,NA,FALSE,f,j,NA,NA,NA,3,7,"14,7,2,1,15,11,10,3,12,9,6,4,13,8,5"
14517,commdev-image-keyboard-response,716,1683454,learnblock2,737,img/planet6_right.png,6,Community 3,NA,TRUE,j,j,NA,NA,NA,3,7,"14,7,2,1,15,11,10,3,12,9,6,4,13,8,5"
14517,commdev-image-keyboard-response,717,1684715,learnblock2,272,img/planet15_left.png,15,Community 1,NA,TRUE,f,f,NA,NA,NA,3,7,"14,7,2,1,15,11,10,3,12,9,6,4,13,8,5"
14517,commdev-image-keyboard-response,718,1685977,learnblock2,null,img/planet2_left.png,2,Community 1,NA,FALSE,null,f,NA,NA,NA,3,7,"14,7,2,1,15,11,10,3,12,9,6,4,13,8,5"
14517,commdev-image-keyboard-response,719,1687241,learnblock2,268,img/planet15_left.png,15,Community 1,NA,TRUE,f,f,NA,NA,NA,3,7,"14,7,2,1,15,11,10,3,12,9,6,4,13,8,5"
14517,commdev-image-keyboard-response,720,1688499,learnblock2,1183,img/planet2_left.png,2,Community 1,NA,TRUE,f,f,NA,NA,NA,3,7,"14,7,2,1,15,11,10,3,12,9,6,4,13,8,5"
14517,commdev-image-keyboard-response,721,1689765,learnblock2,null,img/planet1_right.png,1,Community 1,NA,FALSE,null,j,NA,NA,NA,3,7,"14,7,2,1,15,11,10,3,12,9,6,4,13,8,5"
14517,commdev-image-keyboard-response,722,1691025,learnblock2,614,img/planet14_right.png,14,Community 1,NA,TRUE,j,j,NA,NA,NA,3,7,"14,7,2,1,15,11,10,3,12,9,6,4,13,8,5"
14517,commdev-image-keyboard-response,723,1692286,learnblock2,694,img/planet7_right.png,7,Community 1,NA,TRUE,j,j,NA,NA,NA,3,7,"14,7,2,1,15,11,10,3,12,9,6,4,13,8,5"
14517,commdev-image-keyboard-response,724,1693549,learnblock2,93,img/planet2_right.png,2,Community 1,NA,FALSE,f,j,NA,NA,NA,3,7,"14,7,2,1,15,11,10,3,12,9,6,4,13,8,5"
