subject_id,trial_type,trial_index,time_elapsed,block,rt,stimulus,planet,community,response,correct,key_press,learning_correct_response,parse,init_locations,final_locations,browser_interactions,num_comp,planet_map
15361,commdev-instructions,7,29819,NA,1011,"<p>In this game, you will be shown a 3x3 grid of patterns.</p> <p>The last one in the bottom right-hand corner, <strong>will be missing:</strong></p> <div style='width: 700px;'><div style='float: top;'><img style='width: 200px;' src='practice/p1_M1.png'></img><p class='small'>You need to select<strong> which of the four possible patterns </strong>along the bottom<strong> fits into the gap:</strong></p></div><div style='float: top;'><img style='width: 300px;' src='practice/p1_T1.png'></img></div><br>",NA,NA,NA,NA,NA,NA,NA,NA,NA,1,6,"9,12,14,6,15,4,5,2,3,7,1,11,13,8,10"
15361,commdev-instructions,8,48640,NA,815,"<p>Try to be as fast and as accurate as you can be.</p> <p>If you cannot solve the puzzle then you should guess - you will not be penalised for an incorrect answer.</p> <p>The task contains a shuffled mix of easy, medium and hard puzzles.</p> <p>You will have <strong>30 seconds</strong> to complete each puzzle.</p><br>",NA,NA,NA,NA,NA,NA,NA,NA,NA,1,6,"9,12,14,6,15,4,5,2,3,7,1,11,13,8,10"
15361,commdev-instructions,15,72664,NA,653.7000000029802,<p><strong>Success!</strong></p> <p>You seem to be getting the hang of this...</p> <p>Let's move on to the real trials.</p><br>,NA,NA,NA,NA,NA,NA,NA,NA,NA,1,6,"9,12,14,6,15,4,5,2,3,7,1,11,13,8,10"
15361,commdev-instructions,129,570764,NA,6139.100000008941,"<p>In this game, you are a scientist on board a space shuttle. </p><p> On each mission, you will visit planets all across the universe.</p><img src=""img/controlroom.jpg"" width=300vw>",NA,NA,NA,NA,NA,NA,NA,NA,NA,1,6,"9,12,14,6,15,4,5,2,3,7,1,11,13,8,10"
15361,commdev-instructions,130,582383,NA,9549.79999999702,"<p>Here are a few planets you might see:</p><img src=""img/practice1.png"" width=200vw><img src=""img/practice2.png"" width=200vw><img src=""img/practice3.png"" width=200vw>",NA,NA,NA,NA,NA,NA,NA,NA,NA,1,6,"9,12,14,6,15,4,5,2,3,7,1,11,13,8,10"
15361,commdev-instructions,131,591654,NA,1871.7999999970198,"<p>Your job as a scientist is to record which direction the winds are moving on each planet.</p><p>There are two types of wind directions:</p><img src=""img/practice1_left.png"" width=200vw><img src=""img/practice1_right.png"" width=200vw>",NA,NA,NA,NA,NA,NA,NA,NA,NA,1,6,"9,12,14,6,15,4,5,2,3,7,1,11,13,8,10"
15361,commdev-instructions,132,597493,NA,959.9000000059605,"<p>If the winds are moving this way, press the letter <strong>F</strong> on the keyboard as fast as you can.</p><img src=""img/leftwind.png"" width=250vw>",NA,NA,NA,NA,NA,NA,NA,NA,NA,1,6,"9,12,14,6,15,4,5,2,3,7,1,11,13,8,10"
15361,commdev-instructions,133,602853,NA,864.5,"<p>If the winds are moving this way, press the letter <strong>J</strong> on the keyboard as fast as you can.</p><img src=""img/rightwind.png"" width=350vw>",NA,NA,NA,NA,NA,NA,NA,NA,NA,1,6,"9,12,14,6,15,4,5,2,3,7,1,11,13,8,10"
15361,commdev-instructions,134,608762,NA,1488.0999999940395,<p>You will have 1 second to respond. Try to respond before the time runs out!,NA,NA,NA,NA,NA,NA,NA,NA,NA,1,6,"9,12,14,6,15,4,5,2,3,7,1,11,13,8,10"
15361,commdev-instructions,135,615003,NA,812,<p>The planets you will visit will look different from each other.</p><p>You should respond <strong>only</strong> based on wind direction.,NA,NA,NA,NA,NA,NA,NA,NA,NA,1,6,"9,12,14,6,15,4,5,2,3,7,1,11,13,8,10"
15361,commdev-instructions,136,621607,NA,1436.5,"<p> Ready to start the practice round? </p><p> Remember, press <strong>F</strong> or <strong>J</strong> depending on the wind direction.<br><img src=""img/categorize_planet_example.png""",NA,NA,NA,NA,NA,NA,NA,NA,NA,1,6,"9,12,14,6,15,4,5,2,3,7,1,11,13,8,10"
15361,commdev-instructions,148,684680,NA,1195.2000000029802,"<p>Great, now try a short practice mission. </p><p> This time, you will have 1 second to respond and you won't know whether you pressed the right or wrong key for each planet.</p>",NA,NA,NA,NA,NA,NA,NA,NA,NA,1,6,"9,12,14,6,15,4,5,2,3,7,1,11,13,8,10"
15361,commdev-image-keyboard-response,149,686037,practice,881.6000000089407,img/practice4_left.png,NA,Number not found in mappings,NA,TRUE,f,f,NA,NA,NA,1,6,"9,12,14,6,15,4,5,2,3,7,1,11,13,8,10"
15361,commdev-image-keyboard-response,150,687290,practice,770.5,img/practice1_right.png,NA,Number not found in mappings,NA,TRUE,j,j,NA,NA,NA,1,6,"9,12,14,6,15,4,5,2,3,7,1,11,13,8,10"
15361,commdev-image-keyboard-response,151,688543,practice,690.8999999910593,img/practice4_left.png,NA,Number not found in mappings,NA,TRUE,f,f,NA,NA,NA,1,6,"9,12,14,6,15,4,5,2,3,7,1,11,13,8,10"
15361,commdev-image-keyboard-response,152,689796,practice,834.5999999940395,img/practice3_left.png,NA,Number not found in mappings,NA,TRUE,f,f,NA,NA,NA,1,6,"9,12,14,6,15,4,5,2,3,7,1,11,13,8,10"
15361,commdev-image-keyboard-response,153,691049,practice,1045.6000000089407,img/practice2_left.png,NA,Number not found in mappings,NA,TRUE,f,f,NA,NA,NA,1,6,"9,12,14,6,15,4,5,2,3,7,1,11,13,8,10"
15361,commdev-image-keyboard-response,154,692302,practice,753.2999999970198,img/practice3_right.png,NA,Number not found in mappings,NA,TRUE,j,j,NA,NA,NA,1,6,"9,12,14,6,15,4,5,2,3,7,1,11,13,8,10"
15361,commdev-image-keyboard-response,155,693553,practice,608,img/practice4_right.png,NA,Number not found in mappings,NA,TRUE,j,j,NA,NA,NA,1,6,"9,12,14,6,15,4,5,2,3,7,1,11,13,8,10"
15361,commdev-image-keyboard-response,156,694806,practice,591.5,img/practice1_right.png,NA,Number not found in mappings,NA,TRUE,j,j,NA,NA,NA,1,6,"9,12,14,6,15,4,5,2,3,7,1,11,13,8,10"
15361,commdev-instructions,157,705983,NA,1629,"<p>Great job with the practice round.</p><p>During real missions, you won't know whether you pressed the right or wrong key for each planet.</p><p>But between missions, we will tell you how you did overall.</p>",NA,NA,NA,NA,NA,NA,NA,NA,NA,1,6,"9,12,14,6,15,4,5,2,3,7,1,11,13,8,10"
15361,commdev-instructions,158,715331,NA,1110.9000000059605,<p>Try your best! You will be paid a bonus based on how many correct responses you make!</p><p>Responses that are too slow will not count toward your bonus.</p>,NA,NA,NA,NA,NA,NA,NA,NA,NA,1,6,"9,12,14,6,15,4,5,2,3,7,1,11,13,8,10"
15361,commdev-instructions,159,722487,NA,960.2999999970198,"<p>You are almost ready to start the real game.</p><p> First, we are going to ask you some questions about how the game works.</p>",NA,NA,NA,NA,NA,NA,NA,NA,NA,1,6,"9,12,14,6,15,4,5,2,3,7,1,11,13,8,10"
15361,commdev-instructions,168,796559,NA,1124.4000000059605,"<p> Nice work! It is now time to start the real game.<p></p>You will go on two missions to record wind directions of different planets.<p></p>Each one will take about 5 minutes. You will get to take a break between missions.<p><p> Remember, press <strong>F</strong> or <strong>J</strong> depending on the wind direction. Good luck!<br><img src=""img/categorize_planet_example.png""",NA,NA,NA,NA,NA,NA,NA,NA,NA,1,6,"9,12,14,6,15,4,5,2,3,7,1,11,13,8,10"
15361,commdev-image-keyboard-response,170,800536,learnblock1,1100.4000000059605,img/planet9_left.png,9,Community 1,NA,TRUE,f,f,NA,NA,NA,1,6,"9,12,14,6,15,4,5,2,3,7,1,11,13,8,10"
15361,commdev-image-keyboard-response,171,801790,learnblock1,1010,img/planet12_right.png,12,Community 1,NA,TRUE,j,j,NA,NA,NA,1,6,"9,12,14,6,15,4,5,2,3,7,1,11,13,8,10"
15361,commdev-image-keyboard-response,172,803043,learnblock1,924.7000000029802,img/planet6_left.png,6,Community 1,NA,TRUE,f,f,NA,NA,NA,1,6,"9,12,14,6,15,4,5,2,3,7,1,11,13,8,10"
15361,commdev-image-keyboard-response,173,804294,learnblock1,804.2000000029802,img/planet4_right.png,4,Community 2,NA,TRUE,j,j,NA,NA,NA,1,6,"9,12,14,6,15,4,5,2,3,7,1,11,13,8,10"
15361,commdev-image-keyboard-response,174,805547,learnblock1,798.4000000059605,img/planet3_left.png,3,Community 2,NA,TRUE,f,f,NA,NA,NA,1,6,"9,12,14,6,15,4,5,2,3,7,1,11,13,8,10"
15361,commdev-image-keyboard-response,175,806800,learnblock1,1064.2000000029802,img/planet7_right.png,7,Community 2,NA,TRUE,j,j,NA,NA,NA,1,6,"9,12,14,6,15,4,5,2,3,7,1,11,13,8,10"
15361,commdev-image-keyboard-response,176,808053,learnblock1,765.7999999970198,img/planet4_right.png,4,Community 2,NA,TRUE,j,j,NA,NA,NA,1,6,"9,12,14,6,15,4,5,2,3,7,1,11,13,8,10"
15361,commdev-image-keyboard-response,177,809306,learnblock1,672.0999999940395,img/planet3_left.png,3,Community 2,NA,TRUE,f,f,NA,NA,NA,1,6,"9,12,14,6,15,4,5,2,3,7,1,11,13,8,10"
15361,commdev-image-keyboard-response,178,810558,learnblock1,925.7999999970198,img/planet5_right.png,5,Community 2,NA,TRUE,j,j,NA,NA,NA,1,6,"9,12,14,6,15,4,5,2,3,7,1,11,13,8,10"
15361,commdev-image-keyboard-response,179,811811,learnblock1,750.1999999880791,img/planet2_right.png,2,Community 2,NA,TRUE,j,j,NA,NA,NA,1,6,"9,12,14,6,15,4,5,2,3,7,1,11,13,8,10"
15361,commdev-image-keyboard-response,180,813063,learnblock1,765.9000000059605,img/planet7_right.png,7,Community 2,NA,TRUE,j,j,NA,NA,NA,1,6,"9,12,14,6,15,4,5,2,3,7,1,11,13,8,10"
15361,commdev-image-keyboard-response,181,814316,learnblock1,707.2000000029802,img/planet5_left.png,5,Community 2,NA,TRUE,f,f,NA,NA,NA,1,6,"9,12,14,6,15,4,5,2,3,7,1,11,13,8,10"
15361,commdev-image-keyboard-response,182,815569,learnblock1,794.9000000059605,img/planet7_right.png,7,Community 2,NA,FALSE,f,j,NA,NA,NA,1,6,"9,12,14,6,15,4,5,2,3,7,1,11,13,8,10"
15361,commdev-image-keyboard-response,183,816822,learnblock1,664.0999999940395,img/planet4_right.png,4,Community 2,NA,TRUE,j,j,NA,NA,NA,1,6,"9,12,14,6,15,4,5,2,3,7,1,11,13,8,10"
15361,commdev-image-keyboard-response,184,818074,learnblock1,757.5,img/planet3_right.png,3,Community 2,NA,TRUE,j,j,NA,NA,NA,1,6,"9,12,14,6,15,4,5,2,3,7,1,11,13,8,10"
15361,commdev-image-keyboard-response,185,819327,learnblock1,613.6999999880791,img/planet4_left.png,4,Community 2,NA,TRUE,f,f,NA,NA,NA,1,6,"9,12,14,6,15,4,5,2,3,7,1,11,13,8,10"
15361,commdev-image-keyboard-response,186,820579,learnblock1,633.5,img/planet6_right.png,6,Community 1,NA,TRUE,j,j,NA,NA,NA,1,6,"9,12,14,6,15,4,5,2,3,7,1,11,13,8,10"
15361,commdev-image-keyboard-response,187,821833,learnblock1,595,img/planet14_left.png,14,Community 1,NA,TRUE,f,f,NA,NA,NA,1,6,"9,12,14,6,15,4,5,2,3,7,1,11,13,8,10"
15361,commdev-image-keyboard-response,188,823085,learnblock1,662,img/planet9_left.png,9,Community 1,NA,FALSE,j,f,NA,NA,NA,1,6,"9,12,14,6,15,4,5,2,3,7,1,11,13,8,10"
15361,commdev-image-keyboard-response,189,824338,learnblock1,780.8999999910593,img/planet14_left.png,14,Community 1,NA,TRUE,f,f,NA,NA,NA,1,6,"9,12,14,6,15,4,5,2,3,7,1,11,13,8,10"
15361,commdev-image-keyboard-response,190,825591,learnblock1,820.2999999970198,img/planet12_right.png,12,Community 1,NA,TRUE,j,j,NA,NA,NA,1,6,"9,12,14,6,15,4,5,2,3,7,1,11,13,8,10"
15361,commdev-image-keyboard-response,191,826844,learnblock1,579.6000000089407,img/planet9_left.png,9,Community 1,NA,TRUE,f,f,NA,NA,NA,1,6,"9,12,14,6,15,4,5,2,3,7,1,11,13,8,10"
15361,commdev-image-keyboard-response,192,828097,learnblock1,820.7999999970198,img/planet15_left.png,15,Community 1,NA,FALSE,j,f,NA,NA,NA,1,6,"9,12,14,6,15,4,5,2,3,7,1,11,13,8,10"
15361,commdev-image-keyboard-response,193,829348,learnblock1,699.7000000029802,img/planet1_left.png,1,Community 3,NA,TRUE,f,f,NA,NA,NA,1,6,"9,12,14,6,15,4,5,2,3,7,1,11,13,8,10"
15361,commdev-image-keyboard-response,194,830601,learnblock1,661.6000000089407,img/planet10_right.png,10,Community 3,NA,TRUE,j,j,NA,NA,NA,1,6,"9,12,14,6,15,4,5,2,3,7,1,11,13,8,10"
15361,commdev-image-keyboard-response,195,831854,learnblock1,525.8999999910593,img/planet13_left.png,13,Community 3,NA,TRUE,f,f,NA,NA,NA,1,6,"9,12,14,6,15,4,5,2,3,7,1,11,13,8,10"
15361,commdev-image-keyboard-response,196,833108,learnblock1,606,img/planet1_left.png,1,Community 3,NA,TRUE,f,f,NA,NA,NA,1,6,"9,12,14,6,15,4,5,2,3,7,1,11,13,8,10"
15361,commdev-image-keyboard-response,197,834360,learnblock1,649.1999999880791,img/planet10_right.png,10,Community 3,NA,TRUE,j,j,NA,NA,NA,1,6,"9,12,14,6,15,4,5,2,3,7,1,11,13,8,10"
15361,commdev-image-keyboard-response,198,835613,learnblock1,566.5,img/planet1_right.png,1,Community 3,NA,TRUE,j,j,NA,NA,NA,1,6,"9,12,14,6,15,4,5,2,3,7,1,11,13,8,10"
15361,commdev-image-keyboard-response,199,836865,learnblock1,476.5,img/planet10_left.png,10,Community 3,NA,TRUE,f,f,NA,NA,NA,1,6,"9,12,14,6,15,4,5,2,3,7,1,11,13,8,10"
15361,commdev-image-keyboard-response,200,838117,learnblock1,618.2000000029802,img/planet11_left.png,11,Community 3,NA,TRUE,f,f,NA,NA,NA,1,6,"9,12,14,6,15,4,5,2,3,7,1,11,13,8,10"
15361,commdev-image-keyboard-response,201,839370,learnblock1,681.6000000089407,img/planet2_left.png,2,Community 2,NA,TRUE,f,f,NA,NA,NA,1,6,"9,12,14,6,15,4,5,2,3,7,1,11,13,8,10"
15361,commdev-image-keyboard-response,202,840623,learnblock1,653.5,img/planet3_left.png,3,Community 2,NA,TRUE,f,f,NA,NA,NA,1,6,"9,12,14,6,15,4,5,2,3,7,1,11,13,8,10"
15361,commdev-image-keyboard-response,203,841876,learnblock1,437.3999999910593,img/planet4_left.png,4,Community 2,NA,FALSE,j,f,NA,NA,NA,1,6,"9,12,14,6,15,4,5,2,3,7,1,11,13,8,10"
15361,commdev-image-keyboard-response,204,843128,learnblock1,759.7999999970198,img/planet6_left.png,6,Community 1,NA,TRUE,f,f,NA,NA,NA,1,6,"9,12,14,6,15,4,5,2,3,7,1,11,13,8,10"
15361,commdev-image-keyboard-response,205,844381,learnblock1,546.9000000059605,img/planet4_right.png,4,Community 2,NA,TRUE,j,j,NA,NA,NA,1,6,"9,12,14,6,15,4,5,2,3,7,1,11,13,8,10"
15361,commdev-image-keyboard-response,206,845634,learnblock1,561.6999999880791,img/planet5_right.png,5,Community 2,NA,TRUE,j,j,NA,NA,NA,1,6,"9,12,14,6,15,4,5,2,3,7,1,11,13,8,10"
15361,commdev-image-keyboard-response,207,846887,learnblock1,657.9000000059605,img/planet4_left.png,4,Community 2,NA,TRUE,f,f,NA,NA,NA,1,6,"9,12,14,6,15,4,5,2,3,7,1,11,13,8,10"
15361,commdev-image-keyboard-response,208,848139,learnblock1,692.7999999970198,img/planet3_right.png,3,Community 2,NA,TRUE,j,j,NA,NA,NA,1,6,"9,12,14,6,15,4,5,2,3,7,1,11,13,8,10"
15361,commdev-image-keyboard-response,209,849393,learnblock1,643.1999999880791,img/planet5_right.png,5,Community 2,NA,TRUE,j,j,NA,NA,NA,1,6,"9,12,14,6,15,4,5,2,3,7,1,11,13,8,10"
15361,commdev-image-keyboard-response,210,850646,learnblock1,583.5,img/planet7_left.png,7,Community 2,NA,TRUE,f,f,NA,NA,NA,1,6,"9,12,14,6,15,4,5,2,3,7,1,11,13,8,10"
15361,commdev-image-keyboard-response,211,851897,learnblock1,559.6999999880791,img/planet2_right.png,2,Community 2,NA,TRUE,j,j,NA,NA,NA,1,6,"9,12,14,6,15,4,5,2,3,7,1,11,13,8,10"
15361,commdev-image-keyboard-response,212,853151,learnblock1,610.7000000029802,img/planet5_right.png,5,Community 2,NA,TRUE,j,j,NA,NA,NA,1,6,"9,12,14,6,15,4,5,2,3,7,1,11,13,8,10"
15361,commdev-image-keyboard-response,213,854403,learnblock1,570.6000000089407,img/planet3_left.png,3,Community 2,NA,TRUE,f,f,NA,NA,NA,1,6,"9,12,14,6,15,4,5,2,3,7,1,11,13,8,10"
15361,commdev-image-keyboard-response,214,855656,learnblock1,638.5,img/planet5_right.png,5,Community 2,NA,TRUE,j,j,NA,NA,NA,1,6,"9,12,14,6,15,4,5,2,3,7,1,11,13,8,10"
15361,commdev-image-keyboard-response,215,856909,learnblock1,652,img/planet2_right.png,2,Community 2,NA,TRUE,j,j,NA,NA,NA,1,6,"9,12,14,6,15,4,5,2,3,7,1,11,13,8,10"
15361,commdev-image-keyboard-response,216,858161,learnblock1,580.7000000029802,img/planet11_left.png,11,Community 3,NA,TRUE,f,f,NA,NA,NA,1,6,"9,12,14,6,15,4,5,2,3,7,1,11,13,8,10"
15361,commdev-image-keyboard-response,217,859414,learnblock1,550,img/planet10_right.png,10,Community 3,NA,TRUE,j,j,NA,NA,NA,1,6,"9,12,14,6,15,4,5,2,3,7,1,11,13,8,10"
15361,commdev-image-keyboard-response,218,860667,learnblock1,654.0999999940395,img/planet13_left.png,13,Community 3,NA,TRUE,f,f,NA,NA,NA,1,6,"9,12,14,6,15,4,5,2,3,7,1,11,13,8,10"
15361,commdev-image-keyboard-response,219,861920,learnblock1,656.8999999910593,img/planet10_right.png,10,Community 3,NA,TRUE,j,j,NA,NA,NA,1,6,"9,12,14,6,15,4,5,2,3,7,1,11,13,8,10"
15361,commdev-image-keyboard-response,220,863172,learnblock1,613.6000000089407,img/planet13_right.png,13,Community 3,NA,FALSE,f,j,NA,NA,NA,1,6,"9,12,14,6,15,4,5,2,3,7,1,11,13,8,10"
15361,commdev-image-keyboard-response,221,864424,learnblock1,515.2999999970198,img/planet10_left.png,10,Community 3,NA,TRUE,f,f,NA,NA,NA,1,6,"9,12,14,6,15,4,5,2,3,7,1,11,13,8,10"
15361,commdev-image-keyboard-response,222,865676,learnblock1,505.5,img/planet1_left.png,1,Community 3,NA,TRUE,f,f,NA,NA,NA,1,6,"9,12,14,6,15,4,5,2,3,7,1,11,13,8,10"
15361,commdev-image-keyboard-response,223,866928,learnblock1,522.2999999970198,img/planet13_left.png,13,Community 3,NA,TRUE,f,f,NA,NA,NA,1,6,"9,12,14,6,15,4,5,2,3,7,1,11,13,8,10"
15361,commdev-image-keyboard-response,224,868180,learnblock1,536,img/planet11_left.png,11,Community 3,NA,TRUE,f,f,NA,NA,NA,1,6,"9,12,14,6,15,4,5,2,3,7,1,11,13,8,10"
15361,commdev-image-keyboard-response,225,869433,learnblock1,454.3999999910593,img/planet2_left.png,2,Community 2,NA,TRUE,f,f,NA,NA,NA,1,6,"9,12,14,6,15,4,5,2,3,7,1,11,13,8,10"
15361,commdev-image-keyboard-response,226,870685,learnblock1,527.5,img/planet5_right.png,5,Community 2,NA,TRUE,j,j,NA,NA,NA,1,6,"9,12,14,6,15,4,5,2,3,7,1,11,13,8,10"
15361,commdev-image-keyboard-response,227,871938,learnblock1,599.1000000089407,img/planet7_right.png,7,Community 2,NA,TRUE,j,j,NA,NA,NA,1,6,"9,12,14,6,15,4,5,2,3,7,1,11,13,8,10"
15361,commdev-image-keyboard-response,228,873190,learnblock1,473.09999999403954,img/planet3_right.png,3,Community 2,NA,FALSE,f,j,NA,NA,NA,1,6,"9,12,14,6,15,4,5,2,3,7,1,11,13,8,10"
15361,commdev-image-keyboard-response,229,874443,learnblock1,590,img/planet4_right.png,4,Community 2,NA,TRUE,j,j,NA,NA,NA,1,6,"9,12,14,6,15,4,5,2,3,7,1,11,13,8,10"
15361,commdev-image-keyboard-response,230,875695,learnblock1,637.5999999940395,img/planet3_right.png,3,Community 2,NA,TRUE,j,j,NA,NA,NA,1,6,"9,12,14,6,15,4,5,2,3,7,1,11,13,8,10"
15361,commdev-image-keyboard-response,231,876947,learnblock1,676.5999999940395,img/planet5_left.png,5,Community 2,NA,TRUE,f,f,NA,NA,NA,1,6,"9,12,14,6,15,4,5,2,3,7,1,11,13,8,10"
15361,commdev-image-keyboard-response,232,878200,learnblock1,554.5,img/planet4_right.png,4,Community 2,NA,TRUE,j,j,NA,NA,NA,1,6,"9,12,14,6,15,4,5,2,3,7,1,11,13,8,10"
15361,commdev-image-keyboard-response,233,879453,learnblock1,641.8999999910593,img/planet5_left.png,5,Community 2,NA,TRUE,f,f,NA,NA,NA,1,6,"9,12,14,6,15,4,5,2,3,7,1,11,13,8,10"
15361,commdev-image-keyboard-response,234,880706,learnblock1,689,img/planet7_right.png,7,Community 2,NA,TRUE,j,j,NA,NA,NA,1,6,"9,12,14,6,15,4,5,2,3,7,1,11,13,8,10"
15361,commdev-image-keyboard-response,235,881959,learnblock1,555.7000000029802,img/planet5_right.png,5,Community 2,NA,TRUE,j,j,NA,NA,NA,1,6,"9,12,14,6,15,4,5,2,3,7,1,11,13,8,10"
15361,commdev-image-keyboard-response,236,883212,learnblock1,627.2999999970198,img/planet2_left.png,2,Community 2,NA,TRUE,f,f,NA,NA,NA,1,6,"9,12,14,6,15,4,5,2,3,7,1,11,13,8,10"
15361,commdev-image-keyboard-response,237,884464,learnblock1,830.7000000029802,img/planet5_left.png,5,Community 2,NA,TRUE,f,f,NA,NA,NA,1,6,"9,12,14,6,15,4,5,2,3,7,1,11,13,8,10"
15361,commdev-image-keyboard-response,238,885716,learnblock1,741.6000000089407,img/planet7_left.png,7,Community 2,NA,TRUE,f,f,NA,NA,NA,1,6,"9,12,14,6,15,4,5,2,3,7,1,11,13,8,10"
15361,commdev-image-keyboard-response,239,886967,learnblock1,725.7000000029802,img/planet2_left.png,2,Community 2,NA,TRUE,f,f,NA,NA,NA,1,6,"9,12,14,6,15,4,5,2,3,7,1,11,13,8,10"
15361,commdev-image-keyboard-response,240,888220,learnblock1,493.69999998807907,img/planet7_right.png,7,Community 2,NA,TRUE,j,j,NA,NA,NA,1,6,"9,12,14,6,15,4,5,2,3,7,1,11,13,8,10"
15361,commdev-image-keyboard-response,241,889472,learnblock1,647.4000000059605,img/planet5_left.png,5,Community 2,NA,TRUE,f,f,NA,NA,NA,1,6,"9,12,14,6,15,4,5,2,3,7,1,11,13,8,10"
15361,commdev-image-keyboard-response,242,890725,learnblock1,576.2000000029802,img/planet3_right.png,3,Community 2,NA,TRUE,j,j,NA,NA,NA,1,6,"9,12,14,6,15,4,5,2,3,7,1,11,13,8,10"
15361,commdev-image-keyboard-response,243,891978,learnblock1,428.3999999910593,img/planet2_left.png,2,Community 2,NA,TRUE,f,f,NA,NA,NA,1,6,"9,12,14,6,15,4,5,2,3,7,1,11,13,8,10"
15361,commdev-image-keyboard-response,244,893230,learnblock1,512.2999999970198,img/planet3_right.png,3,Community 2,NA,TRUE,j,j,NA,NA,NA,1,6,"9,12,14,6,15,4,5,2,3,7,1,11,13,8,10"
15361,commdev-image-keyboard-response,245,894483,learnblock1,398,img/planet2_right.png,2,Community 2,NA,FALSE,f,j,NA,NA,NA,1,6,"9,12,14,6,15,4,5,2,3,7,1,11,13,8,10"
15361,commdev-image-keyboard-response,246,895736,learnblock1,658.8999999910593,img/planet5_left.png,5,Community 2,NA,TRUE,f,f,NA,NA,NA,1,6,"9,12,14,6,15,4,5,2,3,7,1,11,13,8,10"
15361,commdev-image-keyboard-response,247,896988,learnblock1,724.9000000059605,img/planet4_left.png,4,Community 2,NA,TRUE,f,f,NA,NA,NA,1,6,"9,12,14,6,15,4,5,2,3,7,1,11,13,8,10"
15361,commdev-image-keyboard-response,248,898240,learnblock1,543.7000000029802,img/planet3_left.png,3,Community 2,NA,TRUE,f,f,NA,NA,NA,1,6,"9,12,14,6,15,4,5,2,3,7,1,11,13,8,10"
15361,commdev-image-keyboard-response,249,899493,learnblock1,515.8000000119209,img/planet2_left.png,2,Community 2,NA,TRUE,f,f,NA,NA,NA,1,6,"9,12,14,6,15,4,5,2,3,7,1,11,13,8,10"
15361,commdev-image-keyboard-response,250,900745,learnblock1,582,img/planet11_left.png,11,Community 3,NA,TRUE,f,f,NA,NA,NA,1,6,"9,12,14,6,15,4,5,2,3,7,1,11,13,8,10"
15361,commdev-image-keyboard-response,251,901998,learnblock1,560.5,img/planet8_right.png,8,Community 3,NA,FALSE,f,j,NA,NA,NA,1,6,"9,12,14,6,15,4,5,2,3,7,1,11,13,8,10"
15361,commdev-image-keyboard-response,252,903250,learnblock1,588.7999999970198,img/planet10_left.png,10,Community 3,NA,TRUE,f,f,NA,NA,NA,1,6,"9,12,14,6,15,4,5,2,3,7,1,11,13,8,10"
15361,commdev-image-keyboard-response,253,904503,learnblock1,596.1000000089407,img/planet1_left.png,1,Community 3,NA,TRUE,f,f,NA,NA,NA,1,6,"9,12,14,6,15,4,5,2,3,7,1,11,13,8,10"
15361,commdev-image-keyboard-response,254,905756,learnblock1,564.2999999970198,img/planet13_right.png,13,Community 3,NA,TRUE,j,j,NA,NA,NA,1,6,"9,12,14,6,15,4,5,2,3,7,1,11,13,8,10"
15361,commdev-image-keyboard-response,255,907007,learnblock1,557.5999999940395,img/planet10_left.png,10,Community 3,NA,TRUE,f,f,NA,NA,NA,1,6,"9,12,14,6,15,4,5,2,3,7,1,11,13,8,10"
15361,commdev-image-keyboard-response,256,908259,learnblock1,636.0999999940395,img/planet11_left.png,11,Community 3,NA,TRUE,f,f,NA,NA,NA,1,6,"9,12,14,6,15,4,5,2,3,7,1,11,13,8,10"
15361,commdev-image-keyboard-response,257,909513,learnblock1,428.70000000298023,img/planet10_right.png,10,Community 3,NA,TRUE,j,j,NA,NA,NA,1,6,"9,12,14,6,15,4,5,2,3,7,1,11,13,8,10"
15361,commdev-image-keyboard-response,258,910765,learnblock1,514,img/planet13_right.png,13,Community 3,NA,FALSE,f,j,NA,NA,NA,1,6,"9,12,14,6,15,4,5,2,3,7,1,11,13,8,10"
15361,commdev-image-keyboard-response,259,912017,learnblock1,628.5,img/planet1_left.png,1,Community 3,NA,TRUE,f,f,NA,NA,NA,1,6,"9,12,14,6,15,4,5,2,3,7,1,11,13,8,10"
15361,commdev-image-keyboard-response,260,913270,learnblock1,581.4000000059605,img/planet10_left.png,10,Community 3,NA,TRUE,f,f,NA,NA,NA,1,6,"9,12,14,6,15,4,5,2,3,7,1,11,13,8,10"
15361,commdev-image-keyboard-response,261,914523,learnblock1,510.79999999701977,img/planet11_right.png,11,Community 3,NA,TRUE,j,j,NA,NA,NA,1,6,"9,12,14,6,15,4,5,2,3,7,1,11,13,8,10"
15361,commdev-image-keyboard-response,262,915774,learnblock1,493.30000001192093,img/planet2_left.png,2,Community 2,NA,TRUE,f,f,NA,NA,NA,1,6,"9,12,14,6,15,4,5,2,3,7,1,11,13,8,10"
15361,commdev-image-keyboard-response,263,917026,learnblock1,647.2000000029802,img/planet11_left.png,11,Community 3,NA,TRUE,f,f,NA,NA,NA,1,6,"9,12,14,6,15,4,5,2,3,7,1,11,13,8,10"
15361,commdev-image-keyboard-response,264,918279,learnblock1,563.3999999910593,img/planet8_left.png,8,Community 3,NA,TRUE,f,f,NA,NA,NA,1,6,"9,12,14,6,15,4,5,2,3,7,1,11,13,8,10"
15361,commdev-image-keyboard-response,265,919532,learnblock1,559.1999999880791,img/planet13_left.png,13,Community 3,NA,TRUE,f,f,NA,NA,NA,1,6,"9,12,14,6,15,4,5,2,3,7,1,11,13,8,10"
15361,commdev-image-keyboard-response,266,920784,learnblock1,500.5,img/planet11_right.png,11,Community 3,NA,TRUE,j,j,NA,NA,NA,1,6,"9,12,14,6,15,4,5,2,3,7,1,11,13,8,10"
15361,commdev-image-keyboard-response,267,922037,learnblock1,510.40000000596046,img/planet10_left.png,10,Community 3,NA,TRUE,f,f,NA,NA,NA,1,6,"9,12,14,6,15,4,5,2,3,7,1,11,13,8,10"
15361,commdev-image-keyboard-response,268,923289,learnblock1,554.7999999970198,img/planet13_right.png,13,Community 3,NA,TRUE,j,j,NA,NA,NA,1,6,"9,12,14,6,15,4,5,2,3,7,1,11,13,8,10"
15361,commdev-image-keyboard-response,269,924541,learnblock1,771.6000000089407,img/planet8_right.png,8,Community 3,NA,TRUE,j,j,NA,NA,NA,1,6,"9,12,14,6,15,4,5,2,3,7,1,11,13,8,10"
15361,commdev-image-keyboard-response,270,925793,learnblock1,520.5,img/planet10_right.png,10,Community 3,NA,TRUE,j,j,NA,NA,NA,1,6,"9,12,14,6,15,4,5,2,3,7,1,11,13,8,10"
15361,commdev-image-keyboard-response,271,927046,learnblock1,610.9000000059605,img/planet11_left.png,11,Community 3,NA,TRUE,f,f,NA,NA,NA,1,6,"9,12,14,6,15,4,5,2,3,7,1,11,13,8,10"
15361,commdev-image-keyboard-response,272,928298,learnblock1,570.1000000089407,img/planet10_right.png,10,Community 3,NA,TRUE,j,j,NA,NA,NA,1,6,"9,12,14,6,15,4,5,2,3,7,1,11,13,8,10"
15361,commdev-image-keyboard-response,273,929551,learnblock1,516.2000000029802,img/planet1_right.png,1,Community 3,NA,TRUE,j,j,NA,NA,NA,1,6,"9,12,14,6,15,4,5,2,3,7,1,11,13,8,10"
15361,commdev-image-keyboard-response,274,930803,learnblock1,662.5,img/planet15_right.png,15,Community 1,NA,TRUE,j,j,NA,NA,NA,1,6,"9,12,14,6,15,4,5,2,3,7,1,11,13,8,10"
15361,commdev-image-keyboard-response,275,932056,learnblock1,599.3999999910593,img/planet14_right.png,14,Community 1,NA,TRUE,j,j,NA,NA,NA,1,6,"9,12,14,6,15,4,5,2,3,7,1,11,13,8,10"
15361,commdev-image-keyboard-response,276,933308,learnblock1,1076.2000000029802,img/planet6_right.png,6,Community 1,NA,TRUE,j,j,NA,NA,NA,1,6,"9,12,14,6,15,4,5,2,3,7,1,11,13,8,10"
15361,commdev-image-keyboard-response,277,934561,learnblock1,642.2999999970198,img/planet14_left.png,14,Community 1,NA,TRUE,f,f,NA,NA,NA,1,6,"9,12,14,6,15,4,5,2,3,7,1,11,13,8,10"
15361,commdev-image-keyboard-response,278,935813,learnblock1,634.5999999940395,img/planet12_right.png,12,Community 1,NA,TRUE,j,j,NA,NA,NA,1,6,"9,12,14,6,15,4,5,2,3,7,1,11,13,8,10"
15361,commdev-image-keyboard-response,279,937066,learnblock1,762.1000000089407,img/planet14_right.png,14,Community 1,NA,TRUE,j,j,NA,NA,NA,1,6,"9,12,14,6,15,4,5,2,3,7,1,11,13,8,10"
15361,commdev-image-keyboard-response,280,938318,learnblock1,678.2999999970198,img/planet15_right.png,15,Community 1,NA,TRUE,j,j,NA,NA,NA,1,6,"9,12,14,6,15,4,5,2,3,7,1,11,13,8,10"
15361,commdev-image-keyboard-response,281,939571,learnblock1,423.70000000298023,img/planet9_right.png,9,Community 1,NA,TRUE,j,j,NA,NA,NA,1,6,"9,12,14,6,15,4,5,2,3,7,1,11,13,8,10"
15361,commdev-image-keyboard-response,282,940823,learnblock1,674.5999999940395,img/planet6_left.png,6,Community 1,NA,TRUE,f,f,NA,NA,NA,1,6,"9,12,14,6,15,4,5,2,3,7,1,11,13,8,10"
15361,commdev-image-keyboard-response,283,942076,learnblock1,681,img/planet12_left.png,12,Community 1,NA,TRUE,f,f,NA,NA,NA,1,6,"9,12,14,6,15,4,5,2,3,7,1,11,13,8,10"
15361,commdev-image-keyboard-response,284,943329,learnblock1,584.2999999970198,img/planet14_right.png,14,Community 1,NA,TRUE,j,j,NA,NA,NA,1,6,"9,12,14,6,15,4,5,2,3,7,1,11,13,8,10"
15361,commdev-image-keyboard-response,285,944581,learnblock1,591.5,img/planet15_right.png,15,Community 1,NA,TRUE,j,j,NA,NA,NA,1,6,"9,12,14,6,15,4,5,2,3,7,1,11,13,8,10"
15361,commdev-image-keyboard-response,286,945835,learnblock1,527.4000000059605,img/planet14_right.png,14,Community 1,NA,TRUE,j,j,NA,NA,NA,1,6,"9,12,14,6,15,4,5,2,3,7,1,11,13,8,10"
15361,commdev-image-keyboard-response,287,947087,learnblock1,604,img/planet15_right.png,15,Community 1,NA,TRUE,j,j,NA,NA,NA,1,6,"9,12,14,6,15,4,5,2,3,7,1,11,13,8,10"
15361,commdev-image-keyboard-response,288,948339,learnblock1,430.59999999403954,img/planet9_left.png,9,Community 1,NA,FALSE,j,f,NA,NA,NA,1,6,"9,12,14,6,15,4,5,2,3,7,1,11,13,8,10"
15361,commdev-image-keyboard-response,289,949592,learnblock1,621,img/planet6_right.png,6,Community 1,NA,TRUE,j,j,NA,NA,NA,1,6,"9,12,14,6,15,4,5,2,3,7,1,11,13,8,10"
15361,commdev-image-keyboard-response,290,950845,learnblock1,757.9000000059605,img/planet12_left.png,12,Community 1,NA,TRUE,f,f,NA,NA,NA,1,6,"9,12,14,6,15,4,5,2,3,7,1,11,13,8,10"
15361,commdev-image-keyboard-response,291,952097,learnblock1,729.2000000029802,img/planet9_left.png,9,Community 1,NA,TRUE,f,f,NA,NA,NA,1,6,"9,12,14,6,15,4,5,2,3,7,1,11,13,8,10"
15361,commdev-image-keyboard-response,292,953350,learnblock1,614.7000000029802,img/planet12_right.png,12,Community 1,NA,TRUE,j,j,NA,NA,NA,1,6,"9,12,14,6,15,4,5,2,3,7,1,11,13,8,10"
15361,commdev-image-keyboard-response,293,954602,learnblock1,557.7000000029802,img/planet15_left.png,15,Community 1,NA,FALSE,j,f,NA,NA,NA,1,6,"9,12,14,6,15,4,5,2,3,7,1,11,13,8,10"
15361,commdev-image-keyboard-response,294,955854,learnblock1,561.8999999910593,img/planet9_right.png,9,Community 1,NA,TRUE,j,j,NA,NA,NA,1,6,"9,12,14,6,15,4,5,2,3,7,1,11,13,8,10"
15361,commdev-image-keyboard-response,295,957106,learnblock1,661.0999999940395,img/planet6_right.png,6,Community 1,NA,TRUE,j,j,NA,NA,NA,1,6,"9,12,14,6,15,4,5,2,3,7,1,11,13,8,10"
15361,commdev-image-keyboard-response,296,958360,learnblock1,732.7000000029802,img/planet12_right.png,12,Community 1,NA,TRUE,j,j,NA,NA,NA,1,6,"9,12,14,6,15,4,5,2,3,7,1,11,13,8,10"
15361,commdev-image-keyboard-response,297,959612,learnblock1,580.7000000029802,img/planet15_left.png,15,Community 1,NA,TRUE,f,f,NA,NA,NA,1,6,"9,12,14,6,15,4,5,2,3,7,1,11,13,8,10"
15361,commdev-image-keyboard-response,298,960866,learnblock1,722.4000000059605,img/planet9_left.png,9,Community 1,NA,TRUE,f,f,NA,NA,NA,1,6,"9,12,14,6,15,4,5,2,3,7,1,11,13,8,10"
15361,commdev-image-keyboard-response,299,962118,learnblock1,725.2000000029802,img/planet14_left.png,14,Community 1,NA,TRUE,f,f,NA,NA,NA,1,6,"9,12,14,6,15,4,5,2,3,7,1,11,13,8,10"
15361,commdev-image-keyboard-response,300,963371,learnblock1,612.2000000029802,img/planet6_right.png,6,Community 1,NA,TRUE,j,j,NA,NA,NA,1,6,"9,12,14,6,15,4,5,2,3,7,1,11,13,8,10"
15361,commdev-image-keyboard-response,301,964624,learnblock1,736.6000000089407,img/planet14_left.png,14,Community 1,NA,TRUE,f,f,NA,NA,NA,1,6,"9,12,14,6,15,4,5,2,3,7,1,11,13,8,10"
15361,commdev-image-keyboard-response,302,965877,learnblock1,676.7999999970198,img/planet6_left.png,6,Community 1,NA,TRUE,f,f,NA,NA,NA,1,6,"9,12,14,6,15,4,5,2,3,7,1,11,13,8,10"
15361,commdev-image-keyboard-response,303,967130,learnblock1,570.2000000029802,img/planet12_right.png,12,Community 1,NA,TRUE,j,j,NA,NA,NA,1,6,"9,12,14,6,15,4,5,2,3,7,1,11,13,8,10"
15361,commdev-image-keyboard-response,304,968381,learnblock1,543.6999999880791,img/planet9_right.png,9,Community 1,NA,TRUE,j,j,NA,NA,NA,1,6,"9,12,14,6,15,4,5,2,3,7,1,11,13,8,10"
15361,commdev-image-keyboard-response,305,969633,learnblock1,622,img/planet14_right.png,14,Community 1,NA,TRUE,j,j,NA,NA,NA,1,6,"9,12,14,6,15,4,5,2,3,7,1,11,13,8,10"
15361,commdev-image-keyboard-response,306,970887,learnblock1,665.2999999970198,img/planet6_right.png,6,Community 1,NA,TRUE,j,j,NA,NA,NA,1,6,"9,12,14,6,15,4,5,2,3,7,1,11,13,8,10"
15361,commdev-image-keyboard-response,307,972139,learnblock1,626.9000000059605,img/planet9_right.png,9,Community 1,NA,TRUE,j,j,NA,NA,NA,1,6,"9,12,14,6,15,4,5,2,3,7,1,11,13,8,10"
15361,commdev-image-keyboard-response,308,973392,learnblock1,632.6999999880791,img/planet12_right.png,12,Community 1,NA,TRUE,j,j,NA,NA,NA,1,6,"9,12,14,6,15,4,5,2,3,7,1,11,13,8,10"
15361,commdev-image-keyboard-response,309,974644,learnblock1,684.2000000029802,img/planet15_right.png,15,Community 1,NA,FALSE,f,j,NA,NA,NA,1,6,"9,12,14,6,15,4,5,2,3,7,1,11,13,8,10"
15361,commdev-image-keyboard-response,310,975896,learnblock1,1157.4000000059605,img/planet12_right.png,12,Community 1,NA,TRUE,j,j,NA,NA,NA,1,6,"9,12,14,6,15,4,5,2,3,7,1,11,13,8,10"
15361,commdev-image-keyboard-response,311,977148,learnblock1,803.3999999910593,img/planet9_right.png,9,Community 1,NA,TRUE,j,j,NA,NA,NA,1,6,"9,12,14,6,15,4,5,2,3,7,1,11,13,8,10"
15361,commdev-image-keyboard-response,312,978400,learnblock1,725.7000000029802,img/planet15_right.png,15,Community 1,NA,TRUE,j,j,NA,NA,NA,1,6,"9,12,14,6,15,4,5,2,3,7,1,11,13,8,10"
15361,commdev-image-keyboard-response,313,979653,learnblock1,626.7999999970198,img/planet14_right.png,14,Community 1,NA,TRUE,j,j,NA,NA,NA,1,6,"9,12,14,6,15,4,5,2,3,7,1,11,13,8,10"
15361,commdev-image-keyboard-response,314,980906,learnblock1,543.7999999970198,img/planet6_right.png,6,Community 1,NA,TRUE,j,j,NA,NA,NA,1,6,"9,12,14,6,15,4,5,2,3,7,1,11,13,8,10"
15361,commdev-image-keyboard-response,315,982157,learnblock1,645.2000000029802,img/planet4_left.png,4,Community 2,NA,TRUE,f,f,NA,NA,NA,1,6,"9,12,14,6,15,4,5,2,3,7,1,11,13,8,10"
15361,commdev-image-keyboard-response,316,983409,learnblock1,674.5,img/planet5_right.png,5,Community 2,NA,TRUE,j,j,NA,NA,NA,1,6,"9,12,14,6,15,4,5,2,3,7,1,11,13,8,10"
15361,commdev-image-keyboard-response,317,984661,learnblock1,727.2000000029802,img/planet3_right.png,3,Community 2,NA,TRUE,j,j,NA,NA,NA,1,6,"9,12,14,6,15,4,5,2,3,7,1,11,13,8,10"
15361,commdev-image-keyboard-response,318,985914,learnblock1,594.4000000059605,img/planet4_left.png,4,Community 2,NA,TRUE,f,f,NA,NA,NA,1,6,"9,12,14,6,15,4,5,2,3,7,1,11,13,8,10"
15361,commdev-image-keyboard-response,319,987167,learnblock1,544.2999999970198,img/planet7_right.png,7,Community 2,NA,TRUE,j,j,NA,NA,NA,1,6,"9,12,14,6,15,4,5,2,3,7,1,11,13,8,10"
15361,commdev-image-keyboard-response,320,988418,learnblock1,576.1999999880791,img/planet2_right.png,2,Community 2,NA,TRUE,j,j,NA,NA,NA,1,6,"9,12,14,6,15,4,5,2,3,7,1,11,13,8,10"
15361,commdev-image-keyboard-response,321,989670,learnblock1,566.7000000029802,img/planet11_right.png,11,Community 3,NA,TRUE,j,j,NA,NA,NA,1,6,"9,12,14,6,15,4,5,2,3,7,1,11,13,8,10"
15361,commdev-image-keyboard-response,322,990923,learnblock1,583.7000000029802,img/planet10_left.png,10,Community 3,NA,TRUE,f,f,NA,NA,NA,1,6,"9,12,14,6,15,4,5,2,3,7,1,11,13,8,10"
15361,commdev-image-keyboard-response,323,992176,learnblock1,560.2999999970198,img/planet1_right.png,1,Community 3,NA,TRUE,j,j,NA,NA,NA,1,6,"9,12,14,6,15,4,5,2,3,7,1,11,13,8,10"
15361,commdev-image-keyboard-response,324,993428,learnblock1,601.5,img/planet13_left.png,13,Community 3,NA,TRUE,f,f,NA,NA,NA,1,6,"9,12,14,6,15,4,5,2,3,7,1,11,13,8,10"
15361,commdev-image-keyboard-response,325,994680,learnblock1,458.79999999701977,img/planet10_right.png,10,Community 3,NA,TRUE,j,j,NA,NA,NA,1,6,"9,12,14,6,15,4,5,2,3,7,1,11,13,8,10"
15361,commdev-image-keyboard-response,326,995933,learnblock1,610.7999999970198,img/planet11_right.png,11,Community 3,NA,FALSE,f,j,NA,NA,NA,1,6,"9,12,14,6,15,4,5,2,3,7,1,11,13,8,10"
15361,commdev-image-keyboard-response,327,997184,learnblock1,557.0999999940395,img/planet2_right.png,2,Community 2,NA,TRUE,j,j,NA,NA,NA,1,6,"9,12,14,6,15,4,5,2,3,7,1,11,13,8,10"
15361,commdev-image-keyboard-response,328,998437,learnblock1,748,img/planet7_right.png,7,Community 2,NA,FALSE,f,j,NA,NA,NA,1,6,"9,12,14,6,15,4,5,2,3,7,1,11,13,8,10"
15361,commdev-image-keyboard-response,329,999688,learnblock1,875.8999999910593,img/planet5_left.png,5,Community 2,NA,TRUE,f,f,NA,NA,NA,1,6,"9,12,14,6,15,4,5,2,3,7,1,11,13,8,10"
15361,commdev-image-keyboard-response,330,1000941,learnblock1,559.2000000029802,img/planet2_right.png,2,Community 2,NA,TRUE,j,j,NA,NA,NA,1,6,"9,12,14,6,15,4,5,2,3,7,1,11,13,8,10"
15361,commdev-image-keyboard-response,331,1002193,learnblock1,627.2999999970198,img/planet7_left.png,7,Community 2,NA,TRUE,f,f,NA,NA,NA,1,6,"9,12,14,6,15,4,5,2,3,7,1,11,13,8,10"
15361,commdev-image-keyboard-response,332,1003446,learnblock1,580.9000000059605,img/planet3_right.png,3,Community 2,NA,TRUE,j,j,NA,NA,NA,1,6,"9,12,14,6,15,4,5,2,3,7,1,11,13,8,10"
15361,commdev-image-keyboard-response,333,1004699,learnblock1,637.6000000089407,img/planet7_left.png,7,Community 2,NA,TRUE,f,f,NA,NA,NA,1,6,"9,12,14,6,15,4,5,2,3,7,1,11,13,8,10"
15361,commdev-image-keyboard-response,334,1005952,learnblock1,484,img/planet4_right.png,4,Community 2,NA,TRUE,j,j,NA,NA,NA,1,6,"9,12,14,6,15,4,5,2,3,7,1,11,13,8,10"
15361,commdev-image-keyboard-response,335,1007204,learnblock1,692.1999999880791,img/planet6_left.png,6,Community 1,NA,TRUE,f,f,NA,NA,NA,1,6,"9,12,14,6,15,4,5,2,3,7,1,11,13,8,10"
15361,commdev-image-keyboard-response,336,1008455,learnblock1,596.2999999970198,img/planet12_right.png,12,Community 1,NA,TRUE,j,j,NA,NA,NA,1,6,"9,12,14,6,15,4,5,2,3,7,1,11,13,8,10"
15361,commdev-image-keyboard-response,337,1009709,learnblock1,612.9000000059605,img/planet9_right.png,9,Community 1,NA,TRUE,j,j,NA,NA,NA,1,6,"9,12,14,6,15,4,5,2,3,7,1,11,13,8,10"
15361,commdev-image-keyboard-response,338,1010961,learnblock1,529.2999999970198,img/planet6_left.png,6,Community 1,NA,TRUE,f,f,NA,NA,NA,1,6,"9,12,14,6,15,4,5,2,3,7,1,11,13,8,10"
15361,commdev-image-keyboard-response,339,1012213,learnblock1,715.0999999940395,img/planet14_left.png,14,Community 1,NA,FALSE,j,f,NA,NA,NA,1,6,"9,12,14,6,15,4,5,2,3,7,1,11,13,8,10"
15361,commdev-image-keyboard-response,340,1013466,learnblock1,537.5999999940395,img/planet6_right.png,6,Community 1,NA,TRUE,j,j,NA,NA,NA,1,6,"9,12,14,6,15,4,5,2,3,7,1,11,13,8,10"
15361,commdev-image-keyboard-response,341,1014719,learnblock1,557.2000000029802,img/planet4_left.png,4,Community 2,NA,TRUE,f,f,NA,NA,NA,1,6,"9,12,14,6,15,4,5,2,3,7,1,11,13,8,10"
15361,commdev-image-keyboard-response,342,1015971,learnblock1,629.7999999970198,img/planet7_right.png,7,Community 2,NA,FALSE,f,j,NA,NA,NA,1,6,"9,12,14,6,15,4,5,2,3,7,1,11,13,8,10"
15361,commdev-image-keyboard-response,343,1017223,learnblock1,765.2999999970198,img/planet4_right.png,4,Community 2,NA,FALSE,f,j,NA,NA,NA,1,6,"9,12,14,6,15,4,5,2,3,7,1,11,13,8,10"
15361,commdev-image-keyboard-response,344,1018476,learnblock1,880.2999999970198,img/planet7_left.png,7,Community 2,NA,TRUE,f,f,NA,NA,NA,1,6,"9,12,14,6,15,4,5,2,3,7,1,11,13,8,10"
15361,commdev-image-keyboard-response,345,1019729,learnblock1,676.7999999970198,img/planet2_left.png,2,Community 2,NA,FALSE,j,f,NA,NA,NA,1,6,"9,12,14,6,15,4,5,2,3,7,1,11,13,8,10"
15361,commdev-image-keyboard-response,346,1020982,learnblock1,1042.5,img/planet5_right.png,5,Community 2,NA,TRUE,j,j,NA,NA,NA,1,6,"9,12,14,6,15,4,5,2,3,7,1,11,13,8,10"
15361,commdev-image-keyboard-response,347,1022234,learnblock1,750.5999999940395,img/planet7_left.png,7,Community 2,NA,TRUE,f,f,NA,NA,NA,1,6,"9,12,14,6,15,4,5,2,3,7,1,11,13,8,10"
15361,commdev-image-keyboard-response,348,1023486,learnblock1,863.5999999940395,img/planet4_left.png,4,Community 2,NA,TRUE,f,f,NA,NA,NA,1,6,"9,12,14,6,15,4,5,2,3,7,1,11,13,8,10"
15361,commdev-image-keyboard-response,349,1024738,learnblock1,1012.2999999970198,img/planet7_left.png,7,Community 2,NA,TRUE,f,f,NA,NA,NA,1,6,"9,12,14,6,15,4,5,2,3,7,1,11,13,8,10"
15361,commdev-image-keyboard-response,350,1025990,learnblock1,992.1000000089407,img/planet3_left.png,3,Community 2,NA,TRUE,f,f,NA,NA,NA,1,6,"9,12,14,6,15,4,5,2,3,7,1,11,13,8,10"
15361,commdev-image-keyboard-response,351,1027243,learnblock1,724.2000000029802,img/planet2_left.png,2,Community 2,NA,TRUE,f,f,NA,NA,NA,1,6,"9,12,14,6,15,4,5,2,3,7,1,11,13,8,10"
15361,commdev-image-keyboard-response,352,1028497,learnblock1,610.7000000029802,img/planet3_left.png,3,Community 2,NA,TRUE,f,f,NA,NA,NA,1,6,"9,12,14,6,15,4,5,2,3,7,1,11,13,8,10"
15361,commdev-image-keyboard-response,353,1029749,learnblock1,595.8999999910593,img/planet2_left.png,2,Community 2,NA,TRUE,f,f,NA,NA,NA,1,6,"9,12,14,6,15,4,5,2,3,7,1,11,13,8,10"
15361,commdev-image-keyboard-response,354,1031001,learnblock1,705.8999999910593,img/planet11_left.png,11,Community 3,NA,TRUE,f,f,NA,NA,NA,1,6,"9,12,14,6,15,4,5,2,3,7,1,11,13,8,10"
15361,commdev-image-keyboard-response,355,1032252,learnblock1,665.8999999910593,img/planet10_left.png,10,Community 3,NA,TRUE,f,f,NA,NA,NA,1,6,"9,12,14,6,15,4,5,2,3,7,1,11,13,8,10"
15361,commdev-image-keyboard-response,356,1033505,learnblock1,762.0999999940395,img/planet8_left.png,8,Community 3,NA,TRUE,f,f,NA,NA,NA,1,6,"9,12,14,6,15,4,5,2,3,7,1,11,13,8,10"
15361,commdev-image-keyboard-response,357,1034758,learnblock1,707.1000000089407,img/planet13_left.png,13,Community 3,NA,TRUE,f,f,NA,NA,NA,1,6,"9,12,14,6,15,4,5,2,3,7,1,11,13,8,10"
15361,commdev-image-keyboard-response,358,1036010,learnblock1,794.6000000089407,img/planet11_right.png,11,Community 3,NA,TRUE,j,j,NA,NA,NA,1,6,"9,12,14,6,15,4,5,2,3,7,1,11,13,8,10"
15361,commdev-image-keyboard-response,359,1037263,learnblock1,660.5999999940395,img/planet8_right.png,8,Community 3,NA,TRUE,j,j,NA,NA,NA,1,6,"9,12,14,6,15,4,5,2,3,7,1,11,13,8,10"
15361,commdev-image-keyboard-response,360,1038516,learnblock1,500.79999999701977,img/planet10_right.png,10,Community 3,NA,TRUE,j,j,NA,NA,NA,1,6,"9,12,14,6,15,4,5,2,3,7,1,11,13,8,10"
15361,commdev-image-keyboard-response,361,1039769,learnblock1,651.5,img/planet13_right.png,13,Community 3,NA,TRUE,j,j,NA,NA,NA,1,6,"9,12,14,6,15,4,5,2,3,7,1,11,13,8,10"
15361,commdev-image-keyboard-response,362,1041022,learnblock1,690.7999999970198,img/planet11_right.png,11,Community 3,NA,TRUE,j,j,NA,NA,NA,1,6,"9,12,14,6,15,4,5,2,3,7,1,11,13,8,10"
15361,commdev-image-keyboard-response,363,1042274,learnblock1,539.2000000029802,img/planet13_right.png,13,Community 3,NA,TRUE,j,j,NA,NA,NA,1,6,"9,12,14,6,15,4,5,2,3,7,1,11,13,8,10"
15361,commdev-image-keyboard-response,364,1043527,learnblock1,550.3999999910593,img/planet1_left.png,1,Community 3,NA,TRUE,f,f,NA,NA,NA,1,6,"9,12,14,6,15,4,5,2,3,7,1,11,13,8,10"
15361,commdev-image-keyboard-response,365,1044780,learnblock1,595.2999999970198,img/planet13_right.png,13,Community 3,NA,TRUE,j,j,NA,NA,NA,1,6,"9,12,14,6,15,4,5,2,3,7,1,11,13,8,10"
15361,commdev-image-keyboard-response,366,1046032,learnblock1,562.2999999970198,img/planet8_right.png,8,Community 3,NA,TRUE,j,j,NA,NA,NA,1,6,"9,12,14,6,15,4,5,2,3,7,1,11,13,8,10"
15361,commdev-image-keyboard-response,367,1047285,learnblock1,623.2000000029802,img/planet10_left.png,10,Community 3,NA,TRUE,f,f,NA,NA,NA,1,6,"9,12,14,6,15,4,5,2,3,7,1,11,13,8,10"
15361,commdev-image-keyboard-response,368,1048536,learnblock1,607.3999999910593,img/planet1_right.png,1,Community 3,NA,TRUE,j,j,NA,NA,NA,1,6,"9,12,14,6,15,4,5,2,3,7,1,11,13,8,10"
15361,commdev-image-keyboard-response,369,1049788,learnblock1,561.2000000029802,img/planet15_left.png,15,Community 1,NA,TRUE,f,f,NA,NA,NA,1,6,"9,12,14,6,15,4,5,2,3,7,1,11,13,8,10"
15361,commdev-image-keyboard-response,370,1051041,learnblock1,481.8999999910593,img/planet14_right.png,14,Community 1,NA,TRUE,j,j,NA,NA,NA,1,6,"9,12,14,6,15,4,5,2,3,7,1,11,13,8,10"
15361,commdev-image-keyboard-response,371,1052294,learnblock1,684.2000000029802,img/planet12_right.png,12,Community 1,NA,TRUE,j,j,NA,NA,NA,1,6,"9,12,14,6,15,4,5,2,3,7,1,11,13,8,10"
15361,commdev-image-keyboard-response,372,1053547,learnblock1,549.5,img/planet9_left.png,9,Community 1,NA,TRUE,f,f,NA,NA,NA,1,6,"9,12,14,6,15,4,5,2,3,7,1,11,13,8,10"
15361,commdev-image-keyboard-response,373,1054800,learnblock1,725,img/planet15_left.png,15,Community 1,NA,TRUE,f,f,NA,NA,NA,1,6,"9,12,14,6,15,4,5,2,3,7,1,11,13,8,10"
15361,commdev-image-keyboard-response,374,1056052,learnblock1,790.2000000029802,img/planet12_left.png,12,Community 1,NA,TRUE,f,f,NA,NA,NA,1,6,"9,12,14,6,15,4,5,2,3,7,1,11,13,8,10"
15361,commdev-image-keyboard-response,375,1057305,learnblock1,610.9000000059605,img/planet15_left.png,15,Community 1,NA,TRUE,f,f,NA,NA,NA,1,6,"9,12,14,6,15,4,5,2,3,7,1,11,13,8,10"
15361,commdev-image-keyboard-response,376,1058556,learnblock1,651.3999999910593,img/planet1_left.png,1,Community 3,NA,TRUE,f,f,NA,NA,NA,1,6,"9,12,14,6,15,4,5,2,3,7,1,11,13,8,10"
15361,commdev-image-keyboard-response,377,1059809,learnblock1,661.3000000119209,img/planet8_left.png,8,Community 3,NA,TRUE,f,f,NA,NA,NA,1,6,"9,12,14,6,15,4,5,2,3,7,1,11,13,8,10"
15361,commdev-image-keyboard-response,378,1061061,learnblock1,677.7000000029802,img/planet11_left.png,11,Community 3,NA,TRUE,f,f,NA,NA,NA,1,6,"9,12,14,6,15,4,5,2,3,7,1,11,13,8,10"
15361,commdev-image-keyboard-response,379,1062314,learnblock1,630,img/planet13_left.png,13,Community 3,NA,TRUE,f,f,NA,NA,NA,1,6,"9,12,14,6,15,4,5,2,3,7,1,11,13,8,10"
15361,commdev-image-keyboard-response,380,1063566,learnblock1,546.5999999940395,img/planet1_right.png,1,Community 3,NA,TRUE,j,j,NA,NA,NA,1,6,"9,12,14,6,15,4,5,2,3,7,1,11,13,8,10"
15361,commdev-image-keyboard-response,381,1064819,learnblock1,575.1999999880791,img/planet13_left.png,13,Community 3,NA,FALSE,j,f,NA,NA,NA,1,6,"9,12,14,6,15,4,5,2,3,7,1,11,13,8,10"
15361,commdev-image-keyboard-response,382,1066071,learnblock1,625,img/planet11_right.png,11,Community 3,NA,TRUE,j,j,NA,NA,NA,1,6,"9,12,14,6,15,4,5,2,3,7,1,11,13,8,10"
15361,commdev-image-keyboard-response,383,1067324,learnblock1,675,img/planet10_left.png,10,Community 3,NA,TRUE,f,f,NA,NA,NA,1,6,"9,12,14,6,15,4,5,2,3,7,1,11,13,8,10"
15361,commdev-image-keyboard-response,384,1068577,learnblock1,706.7000000029802,img/planet8_left.png,8,Community 3,NA,TRUE,f,f,NA,NA,NA,1,6,"9,12,14,6,15,4,5,2,3,7,1,11,13,8,10"
15361,commdev-image-keyboard-response,385,1069829,learnblock1,574.5,img/planet11_right.png,11,Community 3,NA,FALSE,f,j,NA,NA,NA,1,6,"9,12,14,6,15,4,5,2,3,7,1,11,13,8,10"
15361,commdev-image-keyboard-response,386,1071081,learnblock1,851,img/planet8_right.png,8,Community 3,NA,TRUE,j,j,NA,NA,NA,1,6,"9,12,14,6,15,4,5,2,3,7,1,11,13,8,10"
15361,commdev-image-keyboard-response,387,1072334,learnblock1,474.59999999403954,img/planet10_left.png,10,Community 3,NA,TRUE,f,f,NA,NA,NA,1,6,"9,12,14,6,15,4,5,2,3,7,1,11,13,8,10"
15361,commdev-image-keyboard-response,388,1073587,learnblock1,668.9000000059605,img/planet11_right.png,11,Community 3,NA,TRUE,j,j,NA,NA,NA,1,6,"9,12,14,6,15,4,5,2,3,7,1,11,13,8,10"
15361,commdev-image-keyboard-response,389,1074839,learnblock1,575.7999999970198,img/planet10_left.png,10,Community 3,NA,TRUE,f,f,NA,NA,NA,1,6,"9,12,14,6,15,4,5,2,3,7,1,11,13,8,10"
15361,commdev-image-keyboard-response,390,1076091,learnblock1,611.2000000029802,img/planet11_right.png,11,Community 3,NA,TRUE,j,j,NA,NA,NA,1,6,"9,12,14,6,15,4,5,2,3,7,1,11,13,8,10"
15361,commdev-image-keyboard-response,391,1077343,learnblock1,586.5999999940395,img/planet8_right.png,8,Community 3,NA,TRUE,j,j,NA,NA,NA,1,6,"9,12,14,6,15,4,5,2,3,7,1,11,13,8,10"
15361,commdev-image-keyboard-response,392,1078596,learnblock1,528.9000000059605,img/planet13_right.png,13,Community 3,NA,TRUE,j,j,NA,NA,NA,1,6,"9,12,14,6,15,4,5,2,3,7,1,11,13,8,10"
15361,commdev-image-keyboard-response,393,1079848,learnblock1,671.2000000029802,img/planet8_right.png,8,Community 3,NA,TRUE,j,j,NA,NA,NA,1,6,"9,12,14,6,15,4,5,2,3,7,1,11,13,8,10"
15361,commdev-image-keyboard-response,394,1081100,learnblock1,643.5999999940395,img/planet13_left.png,13,Community 3,NA,TRUE,f,f,NA,NA,NA,1,6,"9,12,14,6,15,4,5,2,3,7,1,11,13,8,10"
15361,commdev-image-keyboard-response,395,1082353,learnblock1,794.6000000089407,img/planet10_right.png,10,Community 3,NA,TRUE,j,j,NA,NA,NA,1,6,"9,12,14,6,15,4,5,2,3,7,1,11,13,8,10"
15361,commdev-image-keyboard-response,396,1083606,learnblock1,759.6999999880791,img/planet11_left.png,11,Community 3,NA,TRUE,f,f,NA,NA,NA,1,6,"9,12,14,6,15,4,5,2,3,7,1,11,13,8,10"
15361,commdev-image-keyboard-response,397,1084858,learnblock1,565.2999999970198,img/planet8_right.png,8,Community 3,NA,TRUE,j,j,NA,NA,NA,1,6,"9,12,14,6,15,4,5,2,3,7,1,11,13,8,10"
15361,commdev-image-keyboard-response,398,1086111,learnblock1,568.2999999970198,img/planet10_right.png,10,Community 3,NA,TRUE,j,j,NA,NA,NA,1,6,"9,12,14,6,15,4,5,2,3,7,1,11,13,8,10"
15361,commdev-image-keyboard-response,399,1087364,learnblock1,661.5,img/planet11_left.png,11,Community 3,NA,TRUE,f,f,NA,NA,NA,1,6,"9,12,14,6,15,4,5,2,3,7,1,11,13,8,10"
15361,commdev-image-keyboard-response,400,1088616,learnblock1,854.7999999970198,img/planet8_right.png,8,Community 3,NA,TRUE,j,j,NA,NA,NA,1,6,"9,12,14,6,15,4,5,2,3,7,1,11,13,8,10"
15361,commdev-image-keyboard-response,401,1089870,learnblock1,778.8000000119209,img/planet11_left.png,11,Community 3,NA,TRUE,f,f,NA,NA,NA,1,6,"9,12,14,6,15,4,5,2,3,7,1,11,13,8,10"
15361,commdev-image-keyboard-response,402,1091121,learnblock1,514.8999999910593,img/planet10_left.png,10,Community 3,NA,TRUE,f,f,NA,NA,NA,1,6,"9,12,14,6,15,4,5,2,3,7,1,11,13,8,10"
15361,commdev-image-keyboard-response,403,1092373,learnblock1,530.4000000059605,img/planet1_right.png,1,Community 3,NA,TRUE,j,j,NA,NA,NA,1,6,"9,12,14,6,15,4,5,2,3,7,1,11,13,8,10"
15361,commdev-image-keyboard-response,404,1093626,learnblock1,809.9000000059605,img/planet8_left.png,8,Community 3,NA,TRUE,f,f,NA,NA,NA,1,6,"9,12,14,6,15,4,5,2,3,7,1,11,13,8,10"
15361,commdev-image-keyboard-response,405,1094878,learnblock1,585.5,img/planet10_left.png,10,Community 3,NA,TRUE,f,f,NA,NA,NA,1,6,"9,12,14,6,15,4,5,2,3,7,1,11,13,8,10"
15361,commdev-image-keyboard-response,406,1096131,learnblock1,906.5,img/planet8_left.png,8,Community 3,NA,TRUE,f,f,NA,NA,NA,1,6,"9,12,14,6,15,4,5,2,3,7,1,11,13,8,10"
15361,commdev-image-keyboard-response,407,1097382,learnblock1,598.4000000059605,img/planet10_left.png,10,Community 3,NA,TRUE,f,f,NA,NA,NA,1,6,"9,12,14,6,15,4,5,2,3,7,1,11,13,8,10"
15361,commdev-image-keyboard-response,408,1098635,learnblock1,606,img/planet1_left.png,1,Community 3,NA,TRUE,f,f,NA,NA,NA,1,6,"9,12,14,6,15,4,5,2,3,7,1,11,13,8,10"
15361,commdev-image-keyboard-response,409,1099888,learnblock1,691.2000000029802,img/planet8_left.png,8,Community 3,NA,TRUE,f,f,NA,NA,NA,1,6,"9,12,14,6,15,4,5,2,3,7,1,11,13,8,10"
15361,commdev-image-keyboard-response,410,1101141,learnblock1,669.2000000029802,img/planet10_right.png,10,Community 3,NA,TRUE,j,j,NA,NA,NA,1,6,"9,12,14,6,15,4,5,2,3,7,1,11,13,8,10"
15361,commdev-image-keyboard-response,411,1102395,learnblock1,715.7000000029802,img/planet8_right.png,8,Community 3,NA,TRUE,j,j,NA,NA,NA,1,6,"9,12,14,6,15,4,5,2,3,7,1,11,13,8,10"
15361,commdev-image-keyboard-response,412,1103647,learnblock1,720.4000000059605,img/planet1_left.png,1,Community 3,NA,TRUE,f,f,NA,NA,NA,1,6,"9,12,14,6,15,4,5,2,3,7,1,11,13,8,10"
15361,commdev-image-keyboard-response,413,1104899,learnblock1,672.7999999970198,img/planet10_right.png,10,Community 3,NA,TRUE,j,j,NA,NA,NA,1,6,"9,12,14,6,15,4,5,2,3,7,1,11,13,8,10"
15361,commdev-image-keyboard-response,414,1106151,learnblock1,715.7999999970198,img/planet11_left.png,11,Community 3,NA,TRUE,f,f,NA,NA,NA,1,6,"9,12,14,6,15,4,5,2,3,7,1,11,13,8,10"
15361,commdev-image-keyboard-response,415,1107404,learnblock1,731.2999999970198,img/planet10_left.png,10,Community 3,NA,FALSE,j,f,NA,NA,NA,1,6,"9,12,14,6,15,4,5,2,3,7,1,11,13,8,10"
15361,commdev-image-keyboard-response,416,1108657,learnblock1,925.3999999910593,img/planet8_left.png,8,Community 3,NA,TRUE,f,f,NA,NA,NA,1,6,"9,12,14,6,15,4,5,2,3,7,1,11,13,8,10"
15361,commdev-image-keyboard-response,417,1109909,learnblock1,760,img/planet1_right.png,1,Community 3,NA,TRUE,j,j,NA,NA,NA,1,6,"9,12,14,6,15,4,5,2,3,7,1,11,13,8,10"
15361,commdev-image-keyboard-response,418,1111161,learnblock1,608.2000000029802,img/planet10_left.png,10,Community 3,NA,TRUE,f,f,NA,NA,NA,1,6,"9,12,14,6,15,4,5,2,3,7,1,11,13,8,10"
15361,commdev-image-keyboard-response,419,1112414,learnblock1,814.3999999910593,img/planet8_left.png,8,Community 3,NA,TRUE,f,f,NA,NA,NA,1,6,"9,12,14,6,15,4,5,2,3,7,1,11,13,8,10"
15361,commdev-image-keyboard-response,420,1113666,learnblock1,563.4000000059605,img/planet10_left.png,10,Community 3,NA,TRUE,f,f,NA,NA,NA,1,6,"9,12,14,6,15,4,5,2,3,7,1,11,13,8,10"
15361,commdev-image-keyboard-response,421,1114919,learnblock1,859.9000000059605,img/planet8_left.png,8,Community 3,NA,TRUE,f,f,NA,NA,NA,1,6,"9,12,14,6,15,4,5,2,3,7,1,11,13,8,10"
15361,commdev-image-keyboard-response,422,1116172,learnblock1,628.8999999910593,img/planet1_right.png,1,Community 3,NA,TRUE,j,j,NA,NA,NA,1,6,"9,12,14,6,15,4,5,2,3,7,1,11,13,8,10"
15361,commdev-image-keyboard-response,423,1117423,learnblock1,669.7000000029802,img/planet15_left.png,15,Community 1,NA,TRUE,f,f,NA,NA,NA,1,6,"9,12,14,6,15,4,5,2,3,7,1,11,13,8,10"
15361,commdev-image-keyboard-response,424,1118676,learnblock1,1093.9000000059605,img/planet9_left.png,9,Community 1,NA,TRUE,f,f,NA,NA,NA,1,6,"9,12,14,6,15,4,5,2,3,7,1,11,13,8,10"
15361,commdev-image-keyboard-response,425,1119929,learnblock1,714.9000000059605,img/planet15_left.png,15,Community 1,NA,TRUE,f,f,NA,NA,NA,1,6,"9,12,14,6,15,4,5,2,3,7,1,11,13,8,10"
15361,commdev-image-keyboard-response,426,1121182,learnblock1,675,img/planet14_right.png,14,Community 1,NA,TRUE,j,j,NA,NA,NA,1,6,"9,12,14,6,15,4,5,2,3,7,1,11,13,8,10"
15361,commdev-image-keyboard-response,427,1122434,learnblock1,755.7000000029802,img/planet9_left.png,9,Community 1,NA,TRUE,f,f,NA,NA,NA,1,6,"9,12,14,6,15,4,5,2,3,7,1,11,13,8,10"
15361,commdev-image-keyboard-response,428,1123687,learnblock1,655.9000000059605,img/planet6_left.png,6,Community 1,NA,TRUE,f,f,NA,NA,NA,1,6,"9,12,14,6,15,4,5,2,3,7,1,11,13,8,10"
15361,commdev-image-keyboard-response,429,1124939,learnblock1,643.4000000059605,img/planet14_left.png,14,Community 1,NA,TRUE,f,f,NA,NA,NA,1,6,"9,12,14,6,15,4,5,2,3,7,1,11,13,8,10"
15361,commdev-image-keyboard-response,430,1126192,learnblock1,766.0999999940395,img/planet15_right.png,15,Community 1,NA,TRUE,j,j,NA,NA,NA,1,6,"9,12,14,6,15,4,5,2,3,7,1,11,13,8,10"
15361,commdev-image-keyboard-response,431,1127444,learnblock1,809.8999999910593,img/planet12_right.png,12,Community 1,NA,TRUE,j,j,NA,NA,NA,1,6,"9,12,14,6,15,4,5,2,3,7,1,11,13,8,10"
15361,commdev-image-keyboard-response,432,1128697,learnblock1,658.8000000119209,img/planet9_right.png,9,Community 1,NA,TRUE,j,j,NA,NA,NA,1,6,"9,12,14,6,15,4,5,2,3,7,1,11,13,8,10"
15361,commdev-image-keyboard-response,433,1129949,learnblock1,741.3999999910593,img/planet6_left.png,6,Community 1,NA,TRUE,f,f,NA,NA,NA,1,6,"9,12,14,6,15,4,5,2,3,7,1,11,13,8,10"
15361,commdev-image-keyboard-response,434,1131200,learnblock1,717.3999999910593,img/planet9_left.png,9,Community 1,NA,TRUE,f,f,NA,NA,NA,1,6,"9,12,14,6,15,4,5,2,3,7,1,11,13,8,10"
15361,commdev-image-keyboard-response,435,1132453,learnblock1,670.9000000059605,img/planet15_right.png,15,Community 1,NA,TRUE,j,j,NA,NA,NA,1,6,"9,12,14,6,15,4,5,2,3,7,1,11,13,8,10"
15361,commdev-image-keyboard-response,436,1133706,learnblock1,595.9000000059605,img/planet1_left.png,1,Community 3,NA,TRUE,f,f,NA,NA,NA,1,6,"9,12,14,6,15,4,5,2,3,7,1,11,13,8,10"
15361,commdev-image-keyboard-response,437,1134958,learnblock1,540.8999999910593,img/planet10_left.png,10,Community 3,NA,TRUE,f,f,NA,NA,NA,1,6,"9,12,14,6,15,4,5,2,3,7,1,11,13,8,10"
15361,commdev-image-keyboard-response,438,1136211,learnblock1,647.5,img/planet11_right.png,11,Community 3,NA,TRUE,j,j,NA,NA,NA,1,6,"9,12,14,6,15,4,5,2,3,7,1,11,13,8,10"
15361,commdev-image-keyboard-response,439,1137462,learnblock1,609.9000000059605,img/planet13_left.png,13,Community 3,NA,FALSE,j,f,NA,NA,NA,1,6,"9,12,14,6,15,4,5,2,3,7,1,11,13,8,10"
15361,commdev-image-keyboard-response,440,1138714,learnblock1,753.4000000059605,img/planet11_left.png,11,Community 3,NA,TRUE,f,f,NA,NA,NA,1,6,"9,12,14,6,15,4,5,2,3,7,1,11,13,8,10"
15361,commdev-image-keyboard-response,441,1139967,learnblock1,565.7999999970198,img/planet10_right.png,10,Community 3,NA,TRUE,j,j,NA,NA,NA,1,6,"9,12,14,6,15,4,5,2,3,7,1,11,13,8,10"
15361,commdev-image-keyboard-response,442,1141219,learnblock1,698.1000000089407,img/planet1_left.png,1,Community 3,NA,FALSE,j,f,NA,NA,NA,1,6,"9,12,14,6,15,4,5,2,3,7,1,11,13,8,10"
15361,commdev-image-keyboard-response,443,1142472,learnblock1,604,img/planet13_right.png,13,Community 3,NA,TRUE,j,j,NA,NA,NA,1,6,"9,12,14,6,15,4,5,2,3,7,1,11,13,8,10"
15361,commdev-image-keyboard-response,444,1143724,learnblock1,745,img/planet11_left.png,11,Community 3,NA,TRUE,f,f,NA,NA,NA,1,6,"9,12,14,6,15,4,5,2,3,7,1,11,13,8,10"
15361,commdev-image-keyboard-response,445,1144976,learnblock1,645.2999999970198,img/planet13_right.png,13,Community 3,NA,TRUE,j,j,NA,NA,NA,1,6,"9,12,14,6,15,4,5,2,3,7,1,11,13,8,10"
15361,commdev-image-keyboard-response,446,1146228,learnblock1,892.9000000059605,img/planet11_right.png,11,Community 3,NA,TRUE,j,j,NA,NA,NA,1,6,"9,12,14,6,15,4,5,2,3,7,1,11,13,8,10"
15361,commdev-image-keyboard-response,447,1147480,learnblock1,798.2000000029802,img/planet8_left.png,8,Community 3,NA,TRUE,f,f,NA,NA,NA,1,6,"9,12,14,6,15,4,5,2,3,7,1,11,13,8,10"
15361,commdev-image-keyboard-response,448,1148733,learnblock1,698.9000000059605,img/planet10_right.png,10,Community 3,NA,TRUE,j,j,NA,NA,NA,1,6,"9,12,14,6,15,4,5,2,3,7,1,11,13,8,10"
15361,commdev-image-keyboard-response,449,1149984,learnblock1,648.6000000089407,img/planet13_right.png,13,Community 3,NA,TRUE,j,j,NA,NA,NA,1,6,"9,12,14,6,15,4,5,2,3,7,1,11,13,8,10"
15361,commdev-image-keyboard-response,450,1151238,learnblock1,546.8999999910593,img/planet10_left.png,10,Community 3,NA,TRUE,f,f,NA,NA,NA,1,6,"9,12,14,6,15,4,5,2,3,7,1,11,13,8,10"
15361,commdev-image-keyboard-response,451,1152490,learnblock1,653.1000000089407,img/planet13_left.png,13,Community 3,NA,TRUE,f,f,NA,NA,NA,1,6,"9,12,14,6,15,4,5,2,3,7,1,11,13,8,10"
15361,commdev-image-keyboard-response,452,1153743,learnblock1,673,img/planet11_right.png,11,Community 3,NA,TRUE,j,j,NA,NA,NA,1,6,"9,12,14,6,15,4,5,2,3,7,1,11,13,8,10"
15361,commdev-image-keyboard-response,453,1154995,learnblock1,560.1999999880791,img/planet2_right.png,2,Community 2,NA,TRUE,j,j,NA,NA,NA,1,6,"9,12,14,6,15,4,5,2,3,7,1,11,13,8,10"
15361,commdev-image-keyboard-response,454,1156247,learnblock1,749.5,img/planet7_left.png,7,Community 2,NA,TRUE,f,f,NA,NA,NA,1,6,"9,12,14,6,15,4,5,2,3,7,1,11,13,8,10"
15361,commdev-image-keyboard-response,455,1157500,learnblock1,667.0999999940395,img/planet3_right.png,3,Community 2,NA,TRUE,j,j,NA,NA,NA,1,6,"9,12,14,6,15,4,5,2,3,7,1,11,13,8,10"
15361,commdev-image-keyboard-response,456,1158752,learnblock1,716.9000000059605,img/planet2_left.png,2,Community 2,NA,TRUE,f,f,NA,NA,NA,1,6,"9,12,14,6,15,4,5,2,3,7,1,11,13,8,10"
15361,commdev-image-keyboard-response,457,1160005,learnblock1,784.7999999970198,img/planet5_left.png,5,Community 2,NA,TRUE,f,f,NA,NA,NA,1,6,"9,12,14,6,15,4,5,2,3,7,1,11,13,8,10"
15361,commdev-image-keyboard-response,458,1161258,learnblock1,665.7000000029802,img/planet7_left.png,7,Community 2,NA,TRUE,f,f,NA,NA,NA,1,6,"9,12,14,6,15,4,5,2,3,7,1,11,13,8,10"
15361,commdev-image-keyboard-response,459,1162510,learnblock1,583.6000000089407,img/planet4_right.png,4,Community 2,NA,TRUE,j,j,NA,NA,NA,1,6,"9,12,14,6,15,4,5,2,3,7,1,11,13,8,10"
15361,commdev-image-keyboard-response,460,1163763,learnblock1,719.0999999940395,img/planet6_right.png,6,Community 1,NA,FALSE,f,j,NA,NA,NA,1,6,"9,12,14,6,15,4,5,2,3,7,1,11,13,8,10"
15361,commdev-image-keyboard-response,461,1165016,learnblock1,836.6999999880791,img/planet12_right.png,12,Community 1,NA,TRUE,j,j,NA,NA,NA,1,6,"9,12,14,6,15,4,5,2,3,7,1,11,13,8,10"
15361,commdev-image-keyboard-response,462,1166268,learnblock1,905.7000000029802,img/planet6_right.png,6,Community 1,NA,TRUE,j,j,NA,NA,NA,1,6,"9,12,14,6,15,4,5,2,3,7,1,11,13,8,10"
15361,commdev-image-keyboard-response,463,1167520,learnblock1,null,img/planet12_left.png,12,Community 1,NA,FALSE,null,f,NA,NA,NA,1,6,"9,12,14,6,15,4,5,2,3,7,1,11,13,8,10"
15361,commdev-image-keyboard-response,464,1168773,learnblock1,72.8999999910593,img/planet15_right.png,15,Community 1,NA,FALSE,f,j,NA,NA,NA,1,6,"9,12,14,6,15,4,5,2,3,7,1,11,13,8,10"
15361,commdev-image-keyboard-response,465,1170026,learnblock1,669.0999999940395,img/planet9_right.png,9,Community 1,NA,TRUE,j,j,NA,NA,NA,1,6,"9,12,14,6,15,4,5,2,3,7,1,11,13,8,10"
15361,commdev-image-keyboard-response,466,1171278,learnblock1,807.2999999970198,img/planet12_left.png,12,Community 1,NA,TRUE,f,f,NA,NA,NA,1,6,"9,12,14,6,15,4,5,2,3,7,1,11,13,8,10"
15361,commdev-image-keyboard-response,467,1172531,learnblock1,649.0999999940395,img/planet15_right.png,15,Community 1,NA,TRUE,j,j,NA,NA,NA,1,6,"9,12,14,6,15,4,5,2,3,7,1,11,13,8,10"
15361,commdev-image-keyboard-response,468,1173784,learnblock1,859.3000000119209,img/planet12_right.png,12,Community 1,NA,FALSE,f,j,NA,NA,NA,1,6,"9,12,14,6,15,4,5,2,3,7,1,11,13,8,10"
15361,commdev-image-keyboard-response,469,1175036,learnblock1,899.7000000029802,img/planet6_right.png,6,Community 1,NA,FALSE,f,j,NA,NA,NA,1,6,"9,12,14,6,15,4,5,2,3,7,1,11,13,8,10"
15361,commdev-image-keyboard-response,473,1241667,learnblock2,770.5,img/planet14_right.png,14,Community 1,NA,TRUE,j,j,NA,NA,NA,1,6,"9,12,14,6,15,4,5,2,3,7,1,11,13,8,10"
15361,commdev-image-keyboard-response,474,1242920,learnblock2,778.7000000029802,img/planet9_right.png,9,Community 1,NA,TRUE,j,j,NA,NA,NA,1,6,"9,12,14,6,15,4,5,2,3,7,1,11,13,8,10"
15361,commdev-image-keyboard-response,475,1244173,learnblock2,643.7999999970198,img/planet6_right.png,6,Community 1,NA,TRUE,j,j,NA,NA,NA,1,6,"9,12,14,6,15,4,5,2,3,7,1,11,13,8,10"
15361,commdev-image-keyboard-response,476,1245426,learnblock2,728,img/planet9_right.png,9,Community 1,NA,TRUE,j,j,NA,NA,NA,1,6,"9,12,14,6,15,4,5,2,3,7,1,11,13,8,10"
15361,commdev-image-keyboard-response,477,1246679,learnblock2,1057.1000000089407,img/planet14_right.png,14,Community 1,NA,TRUE,j,j,NA,NA,NA,1,6,"9,12,14,6,15,4,5,2,3,7,1,11,13,8,10"
15361,commdev-image-keyboard-response,478,1247932,learnblock2,749.7999999970198,img/planet12_left.png,12,Community 1,NA,TRUE,f,f,NA,NA,NA,1,6,"9,12,14,6,15,4,5,2,3,7,1,11,13,8,10"
15361,commdev-image-keyboard-response,479,1249183,learnblock2,1019.5,img/planet6_left.png,6,Community 1,NA,TRUE,f,f,NA,NA,NA,1,6,"9,12,14,6,15,4,5,2,3,7,1,11,13,8,10"
15361,commdev-image-keyboard-response,480,1250435,learnblock2,882.3999999910593,img/planet4_left.png,4,Community 2,NA,TRUE,f,f,NA,NA,NA,1,6,"9,12,14,6,15,4,5,2,3,7,1,11,13,8,10"
15361,commdev-image-keyboard-response,481,1251688,learnblock2,667.4000000059605,img/planet7_left.png,7,Community 2,NA,TRUE,f,f,NA,NA,NA,1,6,"9,12,14,6,15,4,5,2,3,7,1,11,13,8,10"
15361,commdev-image-keyboard-response,482,1252940,learnblock2,723.5,img/planet3_left.png,3,Community 2,NA,TRUE,f,f,NA,NA,NA,1,6,"9,12,14,6,15,4,5,2,3,7,1,11,13,8,10"
15361,commdev-image-keyboard-response,483,1254192,learnblock2,701.5,img/planet4_right.png,4,Community 2,NA,TRUE,j,j,NA,NA,NA,1,6,"9,12,14,6,15,4,5,2,3,7,1,11,13,8,10"
15361,commdev-image-keyboard-response,484,1255444,learnblock2,785.9000000059605,img/planet5_left.png,5,Community 2,NA,TRUE,f,f,NA,NA,NA,1,6,"9,12,14,6,15,4,5,2,3,7,1,11,13,8,10"
15361,commdev-image-keyboard-response,485,1256696,learnblock2,601,img/planet4_right.png,4,Community 2,NA,TRUE,j,j,NA,NA,NA,1,6,"9,12,14,6,15,4,5,2,3,7,1,11,13,8,10"
15361,commdev-image-keyboard-response,486,1257948,learnblock2,613,img/planet5_right.png,5,Community 2,NA,TRUE,j,j,NA,NA,NA,1,6,"9,12,14,6,15,4,5,2,3,7,1,11,13,8,10"
15361,commdev-image-keyboard-response,487,1259201,learnblock2,560.2000000029802,img/planet7_right.png,7,Community 2,NA,TRUE,j,j,NA,NA,NA,1,6,"9,12,14,6,15,4,5,2,3,7,1,11,13,8,10"
15361,commdev-image-keyboard-response,488,1260453,learnblock2,597.8000000119209,img/planet3_right.png,3,Community 2,NA,TRUE,j,j,NA,NA,NA,1,6,"9,12,14,6,15,4,5,2,3,7,1,11,13,8,10"
15361,commdev-image-keyboard-response,489,1261705,learnblock2,611.9000000059605,img/planet5_right.png,5,Community 2,NA,TRUE,j,j,NA,NA,NA,1,6,"9,12,14,6,15,4,5,2,3,7,1,11,13,8,10"
15361,commdev-image-keyboard-response,490,1262958,learnblock2,704.7000000029802,img/planet3_right.png,3,Community 2,NA,TRUE,j,j,NA,NA,NA,1,6,"9,12,14,6,15,4,5,2,3,7,1,11,13,8,10"
15361,commdev-image-keyboard-response,491,1264211,learnblock2,772.0999999940395,img/planet7_right.png,7,Community 2,NA,TRUE,j,j,NA,NA,NA,1,6,"9,12,14,6,15,4,5,2,3,7,1,11,13,8,10"
15361,commdev-image-keyboard-response,492,1265464,learnblock2,569.2999999970198,img/planet4_left.png,4,Community 2,NA,TRUE,f,f,NA,NA,NA,1,6,"9,12,14,6,15,4,5,2,3,7,1,11,13,8,10"
15361,commdev-image-keyboard-response,493,1266717,learnblock2,629,img/planet5_right.png,5,Community 2,NA,TRUE,j,j,NA,NA,NA,1,6,"9,12,14,6,15,4,5,2,3,7,1,11,13,8,10"
15361,commdev-image-keyboard-response,494,1267968,learnblock2,584.9000000059605,img/planet2_right.png,2,Community 2,NA,TRUE,j,j,NA,NA,NA,1,6,"9,12,14,6,15,4,5,2,3,7,1,11,13,8,10"
15361,commdev-image-keyboard-response,495,1269220,learnblock2,611.3000000119209,img/planet5_left.png,5,Community 2,NA,TRUE,f,f,NA,NA,NA,1,6,"9,12,14,6,15,4,5,2,3,7,1,11,13,8,10"
15361,commdev-image-keyboard-response,496,1270473,learnblock2,538.7999999970198,img/planet4_right.png,4,Community 2,NA,TRUE,j,j,NA,NA,NA,1,6,"9,12,14,6,15,4,5,2,3,7,1,11,13,8,10"
15361,commdev-image-keyboard-response,497,1271725,learnblock2,519.2000000029802,img/planet6_right.png,6,Community 1,NA,TRUE,j,j,NA,NA,NA,1,6,"9,12,14,6,15,4,5,2,3,7,1,11,13,8,10"
15361,commdev-image-keyboard-response,498,1272978,learnblock2,588.5,img/planet14_right.png,14,Community 1,NA,TRUE,j,j,NA,NA,NA,1,6,"9,12,14,6,15,4,5,2,3,7,1,11,13,8,10"
15361,commdev-image-keyboard-response,499,1274231,learnblock2,723.0999999940395,img/planet15_right.png,15,Community 1,NA,TRUE,j,j,NA,NA,NA,1,6,"9,12,14,6,15,4,5,2,3,7,1,11,13,8,10"
15361,commdev-image-keyboard-response,500,1275484,learnblock2,639.5,img/planet12_right.png,12,Community 1,NA,TRUE,j,j,NA,NA,NA,1,6,"9,12,14,6,15,4,5,2,3,7,1,11,13,8,10"
15361,commdev-image-keyboard-response,501,1276736,learnblock2,595.2999999970198,img/planet9_left.png,9,Community 1,NA,TRUE,f,f,NA,NA,NA,1,6,"9,12,14,6,15,4,5,2,3,7,1,11,13,8,10"
15361,commdev-image-keyboard-response,502,1277988,learnblock2,549.5,img/planet6_right.png,6,Community 1,NA,TRUE,j,j,NA,NA,NA,1,6,"9,12,14,6,15,4,5,2,3,7,1,11,13,8,10"
15361,commdev-image-keyboard-response,503,1279241,learnblock2,672.6000000089407,img/planet9_left.png,9,Community 1,NA,TRUE,f,f,NA,NA,NA,1,6,"9,12,14,6,15,4,5,2,3,7,1,11,13,8,10"
15361,commdev-image-keyboard-response,504,1280494,learnblock2,624.5999999940395,img/planet6_right.png,6,Community 1,NA,TRUE,j,j,NA,NA,NA,1,6,"9,12,14,6,15,4,5,2,3,7,1,11,13,8,10"
15361,commdev-image-keyboard-response,505,1281747,learnblock2,584.2999999970198,img/planet9_left.png,9,Community 1,NA,TRUE,f,f,NA,NA,NA,1,6,"9,12,14,6,15,4,5,2,3,7,1,11,13,8,10"
15361,commdev-image-keyboard-response,506,1283000,learnblock2,737,img/planet14_left.png,14,Community 1,NA,TRUE,f,f,NA,NA,NA,1,6,"9,12,14,6,15,4,5,2,3,7,1,11,13,8,10"
15361,commdev-image-keyboard-response,507,1284252,learnblock2,676,img/planet15_left.png,15,Community 1,NA,TRUE,f,f,NA,NA,NA,1,6,"9,12,14,6,15,4,5,2,3,7,1,11,13,8,10"
15361,commdev-image-keyboard-response,508,1285504,learnblock2,518.2999999970198,img/planet9_right.png,9,Community 1,NA,TRUE,j,j,NA,NA,NA,1,6,"9,12,14,6,15,4,5,2,3,7,1,11,13,8,10"
15361,commdev-image-keyboard-response,509,1286757,learnblock2,669.7000000029802,img/planet12_right.png,12,Community 1,NA,TRUE,j,j,NA,NA,NA,1,6,"9,12,14,6,15,4,5,2,3,7,1,11,13,8,10"
15361,commdev-image-keyboard-response,510,1288009,learnblock2,630.2000000029802,img/planet14_right.png,14,Community 1,NA,TRUE,j,j,NA,NA,NA,1,6,"9,12,14,6,15,4,5,2,3,7,1,11,13,8,10"
15361,commdev-image-keyboard-response,511,1289262,learnblock2,769.6000000089407,img/planet15_right.png,15,Community 1,NA,TRUE,j,j,NA,NA,NA,1,6,"9,12,14,6,15,4,5,2,3,7,1,11,13,8,10"
15361,commdev-image-keyboard-response,512,1290515,learnblock2,682.3000000119209,img/planet1_right.png,1,Community 3,NA,TRUE,j,j,NA,NA,NA,1,6,"9,12,14,6,15,4,5,2,3,7,1,11,13,8,10"
15361,commdev-image-keyboard-response,513,1291768,learnblock2,574.3000000119209,img/planet13_left.png,13,Community 3,NA,TRUE,f,f,NA,NA,NA,1,6,"9,12,14,6,15,4,5,2,3,7,1,11,13,8,10"
15361,commdev-image-keyboard-response,514,1293021,learnblock2,637.8999999910593,img/planet11_left.png,11,Community 3,NA,TRUE,f,f,NA,NA,NA,1,6,"9,12,14,6,15,4,5,2,3,7,1,11,13,8,10"
15361,commdev-image-keyboard-response,515,1294274,learnblock2,538.5,img/planet10_left.png,10,Community 3,NA,TRUE,f,f,NA,NA,NA,1,6,"9,12,14,6,15,4,5,2,3,7,1,11,13,8,10"
15361,commdev-image-keyboard-response,516,1295527,learnblock2,538.6999999880791,img/planet11_left.png,11,Community 3,NA,TRUE,f,f,NA,NA,NA,1,6,"9,12,14,6,15,4,5,2,3,7,1,11,13,8,10"
15361,commdev-image-keyboard-response,517,1296780,learnblock2,782.7000000029802,img/planet2_left.png,2,Community 2,NA,TRUE,f,f,NA,NA,NA,1,6,"9,12,14,6,15,4,5,2,3,7,1,11,13,8,10"
15361,commdev-image-keyboard-response,518,1298033,learnblock2,659.5,img/planet3_left.png,3,Community 2,NA,TRUE,f,f,NA,NA,NA,1,6,"9,12,14,6,15,4,5,2,3,7,1,11,13,8,10"
15361,commdev-image-keyboard-response,519,1299285,learnblock2,731.2999999970198,img/planet5_left.png,5,Community 2,NA,TRUE,f,f,NA,NA,NA,1,6,"9,12,14,6,15,4,5,2,3,7,1,11,13,8,10"
15361,commdev-image-keyboard-response,520,1300537,learnblock2,770.8999999910593,img/planet3_right.png,3,Community 2,NA,TRUE,j,j,NA,NA,NA,1,6,"9,12,14,6,15,4,5,2,3,7,1,11,13,8,10"
15361,commdev-image-keyboard-response,521,1301790,learnblock2,691,img/planet7_left.png,7,Community 2,NA,TRUE,f,f,NA,NA,NA,1,6,"9,12,14,6,15,4,5,2,3,7,1,11,13,8,10"
15361,commdev-image-keyboard-response,522,1303042,learnblock2,663.8999999910593,img/planet3_right.png,3,Community 2,NA,TRUE,j,j,NA,NA,NA,1,6,"9,12,14,6,15,4,5,2,3,7,1,11,13,8,10"
15361,commdev-image-keyboard-response,523,1304295,learnblock2,552.8999999910593,img/planet4_left.png,4,Community 2,NA,TRUE,f,f,NA,NA,NA,1,6,"9,12,14,6,15,4,5,2,3,7,1,11,13,8,10"
15361,commdev-image-keyboard-response,524,1305548,learnblock2,621.7999999970198,img/planet6_left.png,6,Community 1,NA,TRUE,f,f,NA,NA,NA,1,6,"9,12,14,6,15,4,5,2,3,7,1,11,13,8,10"
15361,commdev-image-keyboard-response,525,1306801,learnblock2,623.2999999970198,img/planet9_left.png,9,Community 1,NA,TRUE,f,f,NA,NA,NA,1,6,"9,12,14,6,15,4,5,2,3,7,1,11,13,8,10"
15361,commdev-image-keyboard-response,526,1308053,learnblock2,479.79999999701977,img/planet12_right.png,12,Community 1,NA,TRUE,j,j,NA,NA,NA,1,6,"9,12,14,6,15,4,5,2,3,7,1,11,13,8,10"
15361,commdev-image-keyboard-response,527,1309306,learnblock2,668.8999999910593,img/planet15_right.png,15,Community 1,NA,TRUE,j,j,NA,NA,NA,1,6,"9,12,14,6,15,4,5,2,3,7,1,11,13,8,10"
15361,commdev-image-keyboard-response,528,1310558,learnblock2,654.1000000089407,img/planet12_right.png,12,Community 1,NA,TRUE,j,j,NA,NA,NA,1,6,"9,12,14,6,15,4,5,2,3,7,1,11,13,8,10"
15361,commdev-image-keyboard-response,529,1311811,learnblock2,638.3000000119209,img/planet6_left.png,6,Community 1,NA,TRUE,f,f,NA,NA,NA,1,6,"9,12,14,6,15,4,5,2,3,7,1,11,13,8,10"
15361,commdev-image-keyboard-response,530,1313064,learnblock2,552.5999999940395,img/planet12_right.png,12,Community 1,NA,TRUE,j,j,NA,NA,NA,1,6,"9,12,14,6,15,4,5,2,3,7,1,11,13,8,10"
15361,commdev-image-keyboard-response,531,1314317,learnblock2,760.7999999970198,img/planet6_left.png,6,Community 1,NA,TRUE,f,f,NA,NA,NA,1,6,"9,12,14,6,15,4,5,2,3,7,1,11,13,8,10"
15361,commdev-image-keyboard-response,532,1315569,learnblock2,675,img/planet12_left.png,12,Community 1,NA,TRUE,f,f,NA,NA,NA,1,6,"9,12,14,6,15,4,5,2,3,7,1,11,13,8,10"
15361,commdev-image-keyboard-response,533,1316822,learnblock2,599.4000000059605,img/planet9_left.png,9,Community 1,NA,TRUE,f,f,NA,NA,NA,1,6,"9,12,14,6,15,4,5,2,3,7,1,11,13,8,10"
15361,commdev-image-keyboard-response,534,1318074,learnblock2,531.3999999910593,img/planet6_right.png,6,Community 1,NA,TRUE,j,j,NA,NA,NA,1,6,"9,12,14,6,15,4,5,2,3,7,1,11,13,8,10"
15361,commdev-image-keyboard-response,535,1319326,learnblock2,567,img/planet4_left.png,4,Community 2,NA,TRUE,f,f,NA,NA,NA,1,6,"9,12,14,6,15,4,5,2,3,7,1,11,13,8,10"
15361,commdev-image-keyboard-response,536,1320578,learnblock2,514.5,img/planet6_right.png,6,Community 1,NA,TRUE,j,j,NA,NA,NA,1,6,"9,12,14,6,15,4,5,2,3,7,1,11,13,8,10"
15361,commdev-image-keyboard-response,537,1321831,learnblock2,531.5,img/planet9_left.png,9,Community 1,NA,TRUE,f,f,NA,NA,NA,1,6,"9,12,14,6,15,4,5,2,3,7,1,11,13,8,10"
15361,commdev-image-keyboard-response,538,1323083,learnblock2,626.2000000029802,img/planet6_left.png,6,Community 1,NA,TRUE,f,f,NA,NA,NA,1,6,"9,12,14,6,15,4,5,2,3,7,1,11,13,8,10"
15361,commdev-image-keyboard-response,539,1324336,learnblock2,576,img/planet9_left.png,9,Community 1,NA,TRUE,f,f,NA,NA,NA,1,6,"9,12,14,6,15,4,5,2,3,7,1,11,13,8,10"
15361,commdev-image-keyboard-response,540,1325587,learnblock2,607.5,img/planet15_right.png,15,Community 1,NA,TRUE,j,j,NA,NA,NA,1,6,"9,12,14,6,15,4,5,2,3,7,1,11,13,8,10"
15361,commdev-image-keyboard-response,541,1326840,learnblock2,598.3000000119209,img/planet9_right.png,9,Community 1,NA,TRUE,j,j,NA,NA,NA,1,6,"9,12,14,6,15,4,5,2,3,7,1,11,13,8,10"
15361,commdev-image-keyboard-response,542,1328093,learnblock2,782.2000000029802,img/planet15_left.png,15,Community 1,NA,TRUE,f,f,NA,NA,NA,1,6,"9,12,14,6,15,4,5,2,3,7,1,11,13,8,10"
15361,commdev-image-keyboard-response,543,1329346,learnblock2,862.5,img/planet12_left.png,12,Community 1,NA,TRUE,f,f,NA,NA,NA,1,6,"9,12,14,6,15,4,5,2,3,7,1,11,13,8,10"
15361,commdev-image-keyboard-response,544,1330597,learnblock2,642.7000000029802,img/planet14_right.png,14,Community 1,NA,TRUE,j,j,NA,NA,NA,1,6,"9,12,14,6,15,4,5,2,3,7,1,11,13,8,10"
15361,commdev-image-keyboard-response,545,1331848,learnblock2,539.2000000029802,img/planet6_right.png,6,Community 1,NA,TRUE,j,j,NA,NA,NA,1,6,"9,12,14,6,15,4,5,2,3,7,1,11,13,8,10"
15361,commdev-image-keyboard-response,546,1333101,learnblock2,579.7000000029802,img/planet9_left.png,9,Community 1,NA,TRUE,f,f,NA,NA,NA,1,6,"9,12,14,6,15,4,5,2,3,7,1,11,13,8,10"
15361,commdev-image-keyboard-response,547,1334354,learnblock2,722.7000000029802,img/planet6_left.png,6,Community 1,NA,TRUE,f,f,NA,NA,NA,1,6,"9,12,14,6,15,4,5,2,3,7,1,11,13,8,10"
15361,commdev-image-keyboard-response,548,1335606,learnblock2,659.5,img/planet4_left.png,4,Community 2,NA,TRUE,f,f,NA,NA,NA,1,6,"9,12,14,6,15,4,5,2,3,7,1,11,13,8,10"
15361,commdev-image-keyboard-response,549,1336860,learnblock2,660.6999999880791,img/planet5_left.png,5,Community 2,NA,TRUE,f,f,NA,NA,NA,1,6,"9,12,14,6,15,4,5,2,3,7,1,11,13,8,10"
15361,commdev-image-keyboard-response,550,1338113,learnblock2,713.9000000059605,img/planet7_right.png,7,Community 2,NA,TRUE,j,j,NA,NA,NA,1,6,"9,12,14,6,15,4,5,2,3,7,1,11,13,8,10"
15361,commdev-image-keyboard-response,551,1339366,learnblock2,755.7000000029802,img/planet2_left.png,2,Community 2,NA,TRUE,f,f,NA,NA,NA,1,6,"9,12,14,6,15,4,5,2,3,7,1,11,13,8,10"
15361,commdev-image-keyboard-response,552,1340618,learnblock2,784.0999999940395,img/planet5_right.png,5,Community 2,NA,TRUE,j,j,NA,NA,NA,1,6,"9,12,14,6,15,4,5,2,3,7,1,11,13,8,10"
15361,commdev-image-keyboard-response,553,1341870,learnblock2,663.7999999970198,img/planet3_left.png,3,Community 2,NA,TRUE,f,f,NA,NA,NA,1,6,"9,12,14,6,15,4,5,2,3,7,1,11,13,8,10"
15361,commdev-image-keyboard-response,554,1343122,learnblock2,642.6999999880791,img/planet5_right.png,5,Community 2,NA,TRUE,j,j,NA,NA,NA,1,6,"9,12,14,6,15,4,5,2,3,7,1,11,13,8,10"
15361,commdev-image-keyboard-response,555,1344375,learnblock2,683.8999999910593,img/planet3_right.png,3,Community 2,NA,TRUE,j,j,NA,NA,NA,1,6,"9,12,14,6,15,4,5,2,3,7,1,11,13,8,10"
15361,commdev-image-keyboard-response,556,1345627,learnblock2,692.7999999970198,img/planet7_right.png,7,Community 2,NA,TRUE,j,j,NA,NA,NA,1,6,"9,12,14,6,15,4,5,2,3,7,1,11,13,8,10"
15361,commdev-image-keyboard-response,557,1346880,learnblock2,757,img/planet5_right.png,5,Community 2,NA,TRUE,j,j,NA,NA,NA,1,6,"9,12,14,6,15,4,5,2,3,7,1,11,13,8,10"
15361,commdev-image-keyboard-response,558,1348133,learnblock2,681.8999999910593,img/planet7_right.png,7,Community 2,NA,TRUE,j,j,NA,NA,NA,1,6,"9,12,14,6,15,4,5,2,3,7,1,11,13,8,10"
15361,commdev-image-keyboard-response,559,1349384,learnblock2,650.0999999940395,img/planet4_left.png,4,Community 2,NA,TRUE,f,f,NA,NA,NA,1,6,"9,12,14,6,15,4,5,2,3,7,1,11,13,8,10"
15361,commdev-image-keyboard-response,560,1350637,learnblock2,710.1000000089407,img/planet7_right.png,7,Community 2,NA,TRUE,j,j,NA,NA,NA,1,6,"9,12,14,6,15,4,5,2,3,7,1,11,13,8,10"
15361,commdev-image-keyboard-response,561,1351891,learnblock2,921.7000000029802,img/planet5_left.png,5,Community 2,NA,TRUE,f,f,NA,NA,NA,1,6,"9,12,14,6,15,4,5,2,3,7,1,11,13,8,10"
15361,commdev-image-keyboard-response,562,1353143,learnblock2,650.9000000059605,img/planet3_left.png,3,Community 2,NA,TRUE,f,f,NA,NA,NA,1,6,"9,12,14,6,15,4,5,2,3,7,1,11,13,8,10"
15361,commdev-image-keyboard-response,563,1354396,learnblock2,750.5,img/planet2_left.png,2,Community 2,NA,TRUE,f,f,NA,NA,NA,1,6,"9,12,14,6,15,4,5,2,3,7,1,11,13,8,10"
15361,commdev-image-keyboard-response,564,1355647,learnblock2,658.2000000029802,img/planet7_right.png,7,Community 2,NA,TRUE,j,j,NA,NA,NA,1,6,"9,12,14,6,15,4,5,2,3,7,1,11,13,8,10"
15361,commdev-image-keyboard-response,565,1356899,learnblock2,811.1000000089407,img/planet4_right.png,4,Community 2,NA,TRUE,j,j,NA,NA,NA,1,6,"9,12,14,6,15,4,5,2,3,7,1,11,13,8,10"
15361,commdev-image-keyboard-response,566,1358152,learnblock2,591.7000000029802,img/planet3_right.png,3,Community 2,NA,TRUE,j,j,NA,NA,NA,1,6,"9,12,14,6,15,4,5,2,3,7,1,11,13,8,10"
15361,commdev-image-keyboard-response,567,1359404,learnblock2,486.20000000298023,img/planet4_right.png,4,Community 2,NA,TRUE,j,j,NA,NA,NA,1,6,"9,12,14,6,15,4,5,2,3,7,1,11,13,8,10"
15361,commdev-image-keyboard-response,568,1360657,learnblock2,556.5,img/planet5_left.png,5,Community 2,NA,TRUE,f,f,NA,NA,NA,1,6,"9,12,14,6,15,4,5,2,3,7,1,11,13,8,10"
15361,commdev-image-keyboard-response,569,1361909,learnblock2,675.6000000089407,img/planet7_left.png,7,Community 2,NA,TRUE,f,f,NA,NA,NA,1,6,"9,12,14,6,15,4,5,2,3,7,1,11,13,8,10"
15361,commdev-image-keyboard-response,570,1363162,learnblock2,849.7999999970198,img/planet5_left.png,5,Community 2,NA,TRUE,f,f,NA,NA,NA,1,6,"9,12,14,6,15,4,5,2,3,7,1,11,13,8,10"
15361,commdev-image-keyboard-response,571,1364415,learnblock2,649.5,img/planet3_left.png,3,Community 2,NA,TRUE,f,f,NA,NA,NA,1,6,"9,12,14,6,15,4,5,2,3,7,1,11,13,8,10"
15361,commdev-image-keyboard-response,572,1365668,learnblock2,618.2999999970198,img/planet2_right.png,2,Community 2,NA,TRUE,j,j,NA,NA,NA,1,6,"9,12,14,6,15,4,5,2,3,7,1,11,13,8,10"
15361,commdev-image-keyboard-response,573,1366920,learnblock2,722,img/planet7_left.png,7,Community 2,NA,TRUE,f,f,NA,NA,NA,1,6,"9,12,14,6,15,4,5,2,3,7,1,11,13,8,10"
15361,commdev-image-keyboard-response,574,1368172,learnblock2,610.5,img/planet3_right.png,3,Community 2,NA,TRUE,j,j,NA,NA,NA,1,6,"9,12,14,6,15,4,5,2,3,7,1,11,13,8,10"
15361,commdev-image-keyboard-response,575,1369425,learnblock2,637.0999999940395,img/planet4_right.png,4,Community 2,NA,TRUE,j,j,NA,NA,NA,1,6,"9,12,14,6,15,4,5,2,3,7,1,11,13,8,10"
15361,commdev-image-keyboard-response,576,1370677,learnblock2,678.3999999910593,img/planet7_left.png,7,Community 2,NA,TRUE,f,f,NA,NA,NA,1,6,"9,12,14,6,15,4,5,2,3,7,1,11,13,8,10"
15361,commdev-image-keyboard-response,577,1371930,learnblock2,533.8000000119209,img/planet5_right.png,5,Community 2,NA,TRUE,j,j,NA,NA,NA,1,6,"9,12,14,6,15,4,5,2,3,7,1,11,13,8,10"
15361,commdev-image-keyboard-response,578,1373182,learnblock2,612,img/planet4_left.png,4,Community 2,NA,TRUE,f,f,NA,NA,NA,1,6,"9,12,14,6,15,4,5,2,3,7,1,11,13,8,10"
15361,commdev-image-keyboard-response,579,1374434,learnblock2,806,img/planet5_left.png,5,Community 2,NA,TRUE,f,f,NA,NA,NA,1,6,"9,12,14,6,15,4,5,2,3,7,1,11,13,8,10"
15361,commdev-image-keyboard-response,580,1375686,learnblock2,639.4000000059605,img/planet2_left.png,2,Community 2,NA,FALSE,j,f,NA,NA,NA,1,6,"9,12,14,6,15,4,5,2,3,7,1,11,13,8,10"
15361,commdev-image-keyboard-response,581,1376939,learnblock2,626,img/planet5_right.png,5,Community 2,NA,TRUE,j,j,NA,NA,NA,1,6,"9,12,14,6,15,4,5,2,3,7,1,11,13,8,10"
15361,commdev-image-keyboard-response,582,1378191,learnblock2,729.4000000059605,img/planet4_right.png,4,Community 2,NA,TRUE,j,j,NA,NA,NA,1,6,"9,12,14,6,15,4,5,2,3,7,1,11,13,8,10"
15361,commdev-image-keyboard-response,583,1379444,learnblock2,707.5,img/planet7_left.png,7,Community 2,NA,TRUE,f,f,NA,NA,NA,1,6,"9,12,14,6,15,4,5,2,3,7,1,11,13,8,10"
15361,commdev-image-keyboard-response,584,1380696,learnblock2,736.3999999910593,img/planet2_left.png,2,Community 2,NA,TRUE,f,f,NA,NA,NA,1,6,"9,12,14,6,15,4,5,2,3,7,1,11,13,8,10"
15361,commdev-image-keyboard-response,585,1381949,learnblock2,619.2000000029802,img/planet11_left.png,11,Community 3,NA,TRUE,f,f,NA,NA,NA,1,6,"9,12,14,6,15,4,5,2,3,7,1,11,13,8,10"
15361,commdev-image-keyboard-response,586,1383202,learnblock2,775.5,img/planet8_right.png,8,Community 3,NA,TRUE,j,j,NA,NA,NA,1,6,"9,12,14,6,15,4,5,2,3,7,1,11,13,8,10"
15361,commdev-image-keyboard-response,587,1384454,learnblock2,734.4000000059605,img/planet11_right.png,11,Community 3,NA,TRUE,j,j,NA,NA,NA,1,6,"9,12,14,6,15,4,5,2,3,7,1,11,13,8,10"
15361,commdev-image-keyboard-response,588,1385706,learnblock2,637.4000000059605,img/planet8_right.png,8,Community 3,NA,TRUE,j,j,NA,NA,NA,1,6,"9,12,14,6,15,4,5,2,3,7,1,11,13,8,10"
15361,commdev-image-keyboard-response,589,1386959,learnblock2,664.8999999910593,img/planet13_right.png,13,Community 3,NA,TRUE,j,j,NA,NA,NA,1,6,"9,12,14,6,15,4,5,2,3,7,1,11,13,8,10"
15361,commdev-image-keyboard-response,590,1388212,learnblock2,793,img/planet10_right.png,10,Community 3,NA,TRUE,j,j,NA,NA,NA,1,6,"9,12,14,6,15,4,5,2,3,7,1,11,13,8,10"
15361,commdev-image-keyboard-response,591,1389464,learnblock2,673.4000000059605,img/planet8_right.png,8,Community 3,NA,TRUE,j,j,NA,NA,NA,1,6,"9,12,14,6,15,4,5,2,3,7,1,11,13,8,10"
15361,commdev-image-keyboard-response,592,1390717,learnblock2,596.0999999940395,img/planet1_right.png,1,Community 3,NA,TRUE,j,j,NA,NA,NA,1,6,"9,12,14,6,15,4,5,2,3,7,1,11,13,8,10"
15361,commdev-image-keyboard-response,593,1391969,learnblock2,520.6999999880791,img/planet10_left.png,10,Community 3,NA,TRUE,f,f,NA,NA,NA,1,6,"9,12,14,6,15,4,5,2,3,7,1,11,13,8,10"
15361,commdev-image-keyboard-response,594,1393222,learnblock2,549.2999999970198,img/planet1_right.png,1,Community 3,NA,TRUE,j,j,NA,NA,NA,1,6,"9,12,14,6,15,4,5,2,3,7,1,11,13,8,10"
15361,commdev-image-keyboard-response,595,1394475,learnblock2,768.4000000059605,img/planet15_right.png,15,Community 1,NA,TRUE,j,j,NA,NA,NA,1,6,"9,12,14,6,15,4,5,2,3,7,1,11,13,8,10"
15361,commdev-image-keyboard-response,596,1395728,learnblock2,633.2999999970198,img/planet14_right.png,14,Community 1,NA,TRUE,j,j,NA,NA,NA,1,6,"9,12,14,6,15,4,5,2,3,7,1,11,13,8,10"
15361,commdev-image-keyboard-response,597,1396981,learnblock2,704.6999999880791,img/planet12_right.png,12,Community 1,NA,TRUE,j,j,NA,NA,NA,1,6,"9,12,14,6,15,4,5,2,3,7,1,11,13,8,10"
15361,commdev-image-keyboard-response,598,1398233,learnblock2,733.8000000119209,img/planet15_right.png,15,Community 1,NA,TRUE,j,j,NA,NA,NA,1,6,"9,12,14,6,15,4,5,2,3,7,1,11,13,8,10"
15361,commdev-image-keyboard-response,599,1399485,learnblock2,613.9000000059605,img/planet14_left.png,14,Community 1,NA,TRUE,f,f,NA,NA,NA,1,6,"9,12,14,6,15,4,5,2,3,7,1,11,13,8,10"
15361,commdev-image-keyboard-response,600,1400737,learnblock2,651.6999999880791,img/planet6_left.png,6,Community 1,NA,TRUE,f,f,NA,NA,NA,1,6,"9,12,14,6,15,4,5,2,3,7,1,11,13,8,10"
15361,commdev-image-keyboard-response,601,1401991,learnblock2,667.5,img/planet14_right.png,14,Community 1,NA,TRUE,j,j,NA,NA,NA,1,6,"9,12,14,6,15,4,5,2,3,7,1,11,13,8,10"
15361,commdev-image-keyboard-response,602,1403243,learnblock2,590.1000000089407,img/planet9_right.png,9,Community 1,NA,TRUE,j,j,NA,NA,NA,1,6,"9,12,14,6,15,4,5,2,3,7,1,11,13,8,10"
15361,commdev-image-keyboard-response,603,1404495,learnblock2,689.9000000059605,img/planet12_left.png,12,Community 1,NA,TRUE,f,f,NA,NA,NA,1,6,"9,12,14,6,15,4,5,2,3,7,1,11,13,8,10"
15361,commdev-image-keyboard-response,604,1405748,learnblock2,682.6000000089407,img/planet6_left.png,6,Community 1,NA,TRUE,f,f,NA,NA,NA,1,6,"9,12,14,6,15,4,5,2,3,7,1,11,13,8,10"
15361,commdev-image-keyboard-response,605,1406999,learnblock2,682.5,img/planet14_right.png,14,Community 1,NA,TRUE,j,j,NA,NA,NA,1,6,"9,12,14,6,15,4,5,2,3,7,1,11,13,8,10"
15361,commdev-image-keyboard-response,606,1408252,learnblock2,552.5,img/planet9_right.png,9,Community 1,NA,TRUE,j,j,NA,NA,NA,1,6,"9,12,14,6,15,4,5,2,3,7,1,11,13,8,10"
15361,commdev-image-keyboard-response,607,1409505,learnblock2,607,img/planet12_right.png,12,Community 1,NA,TRUE,j,j,NA,NA,NA,1,6,"9,12,14,6,15,4,5,2,3,7,1,11,13,8,10"
15361,commdev-image-keyboard-response,608,1410758,learnblock2,553.6000000089407,img/planet9_left.png,9,Community 1,NA,TRUE,f,f,NA,NA,NA,1,6,"9,12,14,6,15,4,5,2,3,7,1,11,13,8,10"
15361,commdev-image-keyboard-response,609,1412011,learnblock2,654.7999999970198,img/planet6_left.png,6,Community 1,NA,TRUE,f,f,NA,NA,NA,1,6,"9,12,14,6,15,4,5,2,3,7,1,11,13,8,10"
15361,commdev-image-keyboard-response,610,1413263,learnblock2,780.0999999940395,img/planet12_right.png,12,Community 1,NA,TRUE,j,j,NA,NA,NA,1,6,"9,12,14,6,15,4,5,2,3,7,1,11,13,8,10"
15361,commdev-image-keyboard-response,611,1414515,learnblock2,717.3999999910593,img/planet14_right.png,14,Community 1,NA,TRUE,j,j,NA,NA,NA,1,6,"9,12,14,6,15,4,5,2,3,7,1,11,13,8,10"
15361,commdev-image-keyboard-response,612,1415767,learnblock2,712,img/planet12_left.png,12,Community 1,NA,TRUE,f,f,NA,NA,NA,1,6,"9,12,14,6,15,4,5,2,3,7,1,11,13,8,10"
15361,commdev-image-keyboard-response,613,1417019,learnblock2,572.9000000059605,img/planet14_right.png,14,Community 1,NA,TRUE,j,j,NA,NA,NA,1,6,"9,12,14,6,15,4,5,2,3,7,1,11,13,8,10"
15361,commdev-image-keyboard-response,614,1418272,learnblock2,598.1000000089407,img/planet12_right.png,12,Community 1,NA,TRUE,j,j,NA,NA,NA,1,6,"9,12,14,6,15,4,5,2,3,7,1,11,13,8,10"
15361,commdev-image-keyboard-response,615,1419525,learnblock2,506.20000000298023,img/planet6_left.png,6,Community 1,NA,TRUE,f,f,NA,NA,NA,1,6,"9,12,14,6,15,4,5,2,3,7,1,11,13,8,10"
15361,commdev-image-keyboard-response,616,1420778,learnblock2,634.7999999970198,img/planet4_left.png,4,Community 2,NA,TRUE,f,f,NA,NA,NA,1,6,"9,12,14,6,15,4,5,2,3,7,1,11,13,8,10"
15361,commdev-image-keyboard-response,617,1422030,learnblock2,671.4000000059605,img/planet7_left.png,7,Community 2,NA,TRUE,f,f,NA,NA,NA,1,6,"9,12,14,6,15,4,5,2,3,7,1,11,13,8,10"
15361,commdev-image-keyboard-response,618,1423282,learnblock2,733.9000000059605,img/planet5_left.png,5,Community 2,NA,TRUE,f,f,NA,NA,NA,1,6,"9,12,14,6,15,4,5,2,3,7,1,11,13,8,10"
15361,commdev-image-keyboard-response,619,1424535,learnblock2,566.0999999940395,img/planet2_right.png,2,Community 2,NA,TRUE,j,j,NA,NA,NA,1,6,"9,12,14,6,15,4,5,2,3,7,1,11,13,8,10"
15361,commdev-image-keyboard-response,620,1425788,learnblock2,823.8999999910593,img/planet7_left.png,7,Community 2,NA,TRUE,f,f,NA,NA,NA,1,6,"9,12,14,6,15,4,5,2,3,7,1,11,13,8,10"
15361,commdev-image-keyboard-response,621,1427041,learnblock2,735.7999999970198,img/planet3_left.png,3,Community 2,NA,TRUE,f,f,NA,NA,NA,1,6,"9,12,14,6,15,4,5,2,3,7,1,11,13,8,10"
15361,commdev-image-keyboard-response,622,1428294,learnblock2,582.2999999970198,img/planet2_left.png,2,Community 2,NA,TRUE,f,f,NA,NA,NA,1,6,"9,12,14,6,15,4,5,2,3,7,1,11,13,8,10"
15361,commdev-image-keyboard-response,623,1429547,learnblock2,646.0999999940395,img/planet7_right.png,7,Community 2,NA,TRUE,j,j,NA,NA,NA,1,6,"9,12,14,6,15,4,5,2,3,7,1,11,13,8,10"
15361,commdev-image-keyboard-response,624,1430799,learnblock2,660.5,img/planet3_right.png,3,Community 2,NA,TRUE,j,j,NA,NA,NA,1,6,"9,12,14,6,15,4,5,2,3,7,1,11,13,8,10"
15361,commdev-image-keyboard-response,625,1432051,learnblock2,612.5,img/planet4_left.png,4,Community 2,NA,TRUE,f,f,NA,NA,NA,1,6,"9,12,14,6,15,4,5,2,3,7,1,11,13,8,10"
15361,commdev-image-keyboard-response,626,1433304,learnblock2,594.6999999880791,img/planet5_left.png,5,Community 2,NA,TRUE,f,f,NA,NA,NA,1,6,"9,12,14,6,15,4,5,2,3,7,1,11,13,8,10"
15361,commdev-image-keyboard-response,627,1434556,learnblock2,709,img/planet7_left.png,7,Community 2,NA,TRUE,f,f,NA,NA,NA,1,6,"9,12,14,6,15,4,5,2,3,7,1,11,13,8,10"
15361,commdev-image-keyboard-response,628,1435810,learnblock2,587.0999999940395,img/planet2_right.png,2,Community 2,NA,TRUE,j,j,NA,NA,NA,1,6,"9,12,14,6,15,4,5,2,3,7,1,11,13,8,10"
15361,commdev-image-keyboard-response,629,1437062,learnblock2,877.7999999970198,img/planet11_right.png,11,Community 3,NA,TRUE,j,j,NA,NA,NA,1,6,"9,12,14,6,15,4,5,2,3,7,1,11,13,8,10"
15361,commdev-image-keyboard-response,630,1438315,learnblock2,805,img/planet2_left.png,2,Community 2,NA,TRUE,f,f,NA,NA,NA,1,6,"9,12,14,6,15,4,5,2,3,7,1,11,13,8,10"
15361,commdev-image-keyboard-response,631,1439567,learnblock2,562.4000000059605,img/planet3_right.png,3,Community 2,NA,TRUE,j,j,NA,NA,NA,1,6,"9,12,14,6,15,4,5,2,3,7,1,11,13,8,10"
15361,commdev-image-keyboard-response,632,1440820,learnblock2,567.5,img/planet4_right.png,4,Community 2,NA,TRUE,j,j,NA,NA,NA,1,6,"9,12,14,6,15,4,5,2,3,7,1,11,13,8,10"
15361,commdev-image-keyboard-response,633,1442072,learnblock2,697,img/planet5_left.png,5,Community 2,NA,TRUE,f,f,NA,NA,NA,1,6,"9,12,14,6,15,4,5,2,3,7,1,11,13,8,10"
15361,commdev-image-keyboard-response,634,1443324,learnblock2,536.6000000089407,img/planet4_right.png,4,Community 2,NA,TRUE,j,j,NA,NA,NA,1,6,"9,12,14,6,15,4,5,2,3,7,1,11,13,8,10"
15361,commdev-image-keyboard-response,635,1444577,learnblock2,658.7000000029802,img/planet6_left.png,6,Community 1,NA,TRUE,f,f,NA,NA,NA,1,6,"9,12,14,6,15,4,5,2,3,7,1,11,13,8,10"
15361,commdev-image-keyboard-response,636,1445829,learnblock2,693.0999999940395,img/planet14_right.png,14,Community 1,NA,TRUE,j,j,NA,NA,NA,1,6,"9,12,14,6,15,4,5,2,3,7,1,11,13,8,10"
15361,commdev-image-keyboard-response,637,1447082,learnblock2,696.5999999940395,img/planet12_right.png,12,Community 1,NA,TRUE,j,j,NA,NA,NA,1,6,"9,12,14,6,15,4,5,2,3,7,1,11,13,8,10"
15361,commdev-image-keyboard-response,638,1448335,learnblock2,811.6000000089407,img/planet15_right.png,15,Community 1,NA,TRUE,j,j,NA,NA,NA,1,6,"9,12,14,6,15,4,5,2,3,7,1,11,13,8,10"
15361,commdev-image-keyboard-response,639,1449589,learnblock2,685.3000000119209,img/planet14_left.png,14,Community 1,NA,TRUE,f,f,NA,NA,NA,1,6,"9,12,14,6,15,4,5,2,3,7,1,11,13,8,10"
15361,commdev-image-keyboard-response,640,1450840,learnblock2,637,img/planet9_right.png,9,Community 1,NA,TRUE,j,j,NA,NA,NA,1,6,"9,12,14,6,15,4,5,2,3,7,1,11,13,8,10"
15361,commdev-image-keyboard-response,641,1452092,learnblock2,631.1999999880791,img/planet6_left.png,6,Community 1,NA,TRUE,f,f,NA,NA,NA,1,6,"9,12,14,6,15,4,5,2,3,7,1,11,13,8,10"
15361,commdev-image-keyboard-response,642,1453345,learnblock2,509.5,img/planet9_right.png,9,Community 1,NA,TRUE,j,j,NA,NA,NA,1,6,"9,12,14,6,15,4,5,2,3,7,1,11,13,8,10"
15361,commdev-image-keyboard-response,643,1454598,learnblock2,543.4000000059605,img/planet12_left.png,12,Community 1,NA,TRUE,f,f,NA,NA,NA,1,6,"9,12,14,6,15,4,5,2,3,7,1,11,13,8,10"
15361,commdev-image-keyboard-response,644,1455851,learnblock2,715.9000000059605,img/planet14_left.png,14,Community 1,NA,TRUE,f,f,NA,NA,NA,1,6,"9,12,14,6,15,4,5,2,3,7,1,11,13,8,10"
15361,commdev-image-keyboard-response,645,1457104,learnblock2,496.6000000089407,img/planet15_left.png,15,Community 1,NA,TRUE,f,f,NA,NA,NA,1,6,"9,12,14,6,15,4,5,2,3,7,1,11,13,8,10"
15361,commdev-image-keyboard-response,646,1458356,learnblock2,585.6000000089407,img/planet14_right.png,14,Community 1,NA,TRUE,j,j,NA,NA,NA,1,6,"9,12,14,6,15,4,5,2,3,7,1,11,13,8,10"
15361,commdev-image-keyboard-response,647,1459609,learnblock2,647.5,img/planet6_right.png,6,Community 1,NA,TRUE,j,j,NA,NA,NA,1,6,"9,12,14,6,15,4,5,2,3,7,1,11,13,8,10"
15361,commdev-image-keyboard-response,648,1460860,learnblock2,550.7999999970198,img/planet4_left.png,4,Community 2,NA,TRUE,f,f,NA,NA,NA,1,6,"9,12,14,6,15,4,5,2,3,7,1,11,13,8,10"
15361,commdev-image-keyboard-response,649,1462113,learnblock2,511.29999999701977,img/planet5_right.png,5,Community 2,NA,TRUE,j,j,NA,NA,NA,1,6,"9,12,14,6,15,4,5,2,3,7,1,11,13,8,10"
15361,commdev-image-keyboard-response,650,1463366,learnblock2,580.0999999940395,img/planet3_left.png,3,Community 2,NA,TRUE,f,f,NA,NA,NA,1,6,"9,12,14,6,15,4,5,2,3,7,1,11,13,8,10"
15361,commdev-image-keyboard-response,651,1464618,learnblock2,539.5,img/planet5_right.png,5,Community 2,NA,FALSE,f,j,NA,NA,NA,1,6,"9,12,14,6,15,4,5,2,3,7,1,11,13,8,10"
15361,commdev-image-keyboard-response,652,1465871,learnblock2,527.2999999970198,img/planet2_left.png,2,Community 2,NA,TRUE,f,f,NA,NA,NA,1,6,"9,12,14,6,15,4,5,2,3,7,1,11,13,8,10"
15361,commdev-image-keyboard-response,653,1467124,learnblock2,703.5,img/planet11_right.png,11,Community 3,NA,TRUE,j,j,NA,NA,NA,1,6,"9,12,14,6,15,4,5,2,3,7,1,11,13,8,10"
15361,commdev-image-keyboard-response,654,1468377,learnblock2,754.2999999970198,img/planet13_left.png,13,Community 3,NA,TRUE,f,f,NA,NA,NA,1,6,"9,12,14,6,15,4,5,2,3,7,1,11,13,8,10"
15361,commdev-image-keyboard-response,655,1469630,learnblock2,554.1000000089407,img/planet11_right.png,11,Community 3,NA,TRUE,j,j,NA,NA,NA,1,6,"9,12,14,6,15,4,5,2,3,7,1,11,13,8,10"
15361,commdev-image-keyboard-response,656,1470882,learnblock2,538.5999999940395,img/planet2_left.png,2,Community 2,NA,TRUE,f,f,NA,NA,NA,1,6,"9,12,14,6,15,4,5,2,3,7,1,11,13,8,10"
15361,commdev-image-keyboard-response,657,1472135,learnblock2,653.7999999970198,img/planet7_left.png,7,Community 2,NA,TRUE,f,f,NA,NA,NA,1,6,"9,12,14,6,15,4,5,2,3,7,1,11,13,8,10"
15361,commdev-image-keyboard-response,658,1473387,learnblock2,733.5,img/planet2_left.png,2,Community 2,NA,TRUE,f,f,NA,NA,NA,1,6,"9,12,14,6,15,4,5,2,3,7,1,11,13,8,10"
15361,commdev-image-keyboard-response,659,1474639,learnblock2,584.2999999970198,img/planet5_right.png,5,Community 2,NA,TRUE,j,j,NA,NA,NA,1,6,"9,12,14,6,15,4,5,2,3,7,1,11,13,8,10"
15361,commdev-image-keyboard-response,660,1475890,learnblock2,749.7000000029802,img/planet4_right.png,4,Community 2,NA,TRUE,j,j,NA,NA,NA,1,6,"9,12,14,6,15,4,5,2,3,7,1,11,13,8,10"
15361,commdev-image-keyboard-response,661,1477142,learnblock2,679.4000000059605,img/planet5_left.png,5,Community 2,NA,TRUE,f,f,NA,NA,NA,1,6,"9,12,14,6,15,4,5,2,3,7,1,11,13,8,10"
15361,commdev-image-keyboard-response,662,1478395,learnblock2,768.0999999940395,img/planet7_right.png,7,Community 2,NA,TRUE,j,j,NA,NA,NA,1,6,"9,12,14,6,15,4,5,2,3,7,1,11,13,8,10"
15361,commdev-image-keyboard-response,663,1479648,learnblock2,653.5999999940395,img/planet5_left.png,5,Community 2,NA,TRUE,f,f,NA,NA,NA,1,6,"9,12,14,6,15,4,5,2,3,7,1,11,13,8,10"
15361,commdev-image-keyboard-response,664,1480900,learnblock2,754.5999999940395,img/planet4_left.png,4,Community 2,NA,TRUE,f,f,NA,NA,NA,1,6,"9,12,14,6,15,4,5,2,3,7,1,11,13,8,10"
15361,commdev-image-keyboard-response,665,1482153,learnblock2,733.2000000029802,img/planet5_right.png,5,Community 2,NA,TRUE,j,j,NA,NA,NA,1,6,"9,12,14,6,15,4,5,2,3,7,1,11,13,8,10"
15361,commdev-image-keyboard-response,666,1483405,learnblock2,748,img/planet2_right.png,2,Community 2,NA,TRUE,j,j,NA,NA,NA,1,6,"9,12,14,6,15,4,5,2,3,7,1,11,13,8,10"
15361,commdev-image-keyboard-response,667,1484657,learnblock2,694.9000000059605,img/planet11_right.png,11,Community 3,NA,TRUE,j,j,NA,NA,NA,1,6,"9,12,14,6,15,4,5,2,3,7,1,11,13,8,10"
15361,commdev-image-keyboard-response,668,1485910,learnblock2,582.9000000059605,img/planet2_right.png,2,Community 2,NA,TRUE,j,j,NA,NA,NA,1,6,"9,12,14,6,15,4,5,2,3,7,1,11,13,8,10"
15361,commdev-image-keyboard-response,669,1487163,learnblock2,635.7999999970198,img/planet3_right.png,3,Community 2,NA,TRUE,j,j,NA,NA,NA,1,6,"9,12,14,6,15,4,5,2,3,7,1,11,13,8,10"
15361,commdev-image-keyboard-response,670,1488415,learnblock2,535.5,img/planet2_right.png,2,Community 2,NA,TRUE,j,j,NA,NA,NA,1,6,"9,12,14,6,15,4,5,2,3,7,1,11,13,8,10"
15361,commdev-image-keyboard-response,671,1489668,learnblock2,681.7000000029802,img/planet11_right.png,11,Community 3,NA,TRUE,j,j,NA,NA,NA,1,6,"9,12,14,6,15,4,5,2,3,7,1,11,13,8,10"
15361,commdev-image-keyboard-response,672,1490921,learnblock2,618.2000000029802,img/planet13_left.png,13,Community 3,NA,TRUE,f,f,NA,NA,NA,1,6,"9,12,14,6,15,4,5,2,3,7,1,11,13,8,10"
15361,commdev-image-keyboard-response,673,1492174,learnblock2,570.1999999880791,img/planet11_right.png,11,Community 3,NA,TRUE,j,j,NA,NA,NA,1,6,"9,12,14,6,15,4,5,2,3,7,1,11,13,8,10"
15361,commdev-image-keyboard-response,674,1493426,learnblock2,642.8000000119209,img/planet8_left.png,8,Community 3,NA,TRUE,f,f,NA,NA,NA,1,6,"9,12,14,6,15,4,5,2,3,7,1,11,13,8,10"
15361,commdev-image-keyboard-response,675,1494679,learnblock2,540.7000000029802,img/planet13_left.png,13,Community 3,NA,FALSE,j,f,NA,NA,NA,1,6,"9,12,14,6,15,4,5,2,3,7,1,11,13,8,10"
15361,commdev-image-keyboard-response,676,1495931,learnblock2,778.9000000059605,img/planet8_left.png,8,Community 3,NA,TRUE,f,f,NA,NA,NA,1,6,"9,12,14,6,15,4,5,2,3,7,1,11,13,8,10"
15361,commdev-image-keyboard-response,677,1497183,learnblock2,581.9000000059605,img/planet11_right.png,11,Community 3,NA,TRUE,j,j,NA,NA,NA,1,6,"9,12,14,6,15,4,5,2,3,7,1,11,13,8,10"
15361,commdev-image-keyboard-response,678,1498436,learnblock2,613.7999999970198,img/planet13_right.png,13,Community 3,NA,TRUE,j,j,NA,NA,NA,1,6,"9,12,14,6,15,4,5,2,3,7,1,11,13,8,10"
15361,commdev-image-keyboard-response,679,1499689,learnblock2,629.9000000059605,img/planet10_left.png,10,Community 3,NA,TRUE,f,f,NA,NA,NA,1,6,"9,12,14,6,15,4,5,2,3,7,1,11,13,8,10"
15361,commdev-image-keyboard-response,680,1500940,learnblock2,542.6000000089407,img/planet13_left.png,13,Community 3,NA,TRUE,f,f,NA,NA,NA,1,6,"9,12,14,6,15,4,5,2,3,7,1,11,13,8,10"
15361,commdev-image-keyboard-response,681,1502193,learnblock2,581.0999999940395,img/planet8_right.png,8,Community 3,NA,TRUE,j,j,NA,NA,NA,1,6,"9,12,14,6,15,4,5,2,3,7,1,11,13,8,10"
15361,commdev-image-keyboard-response,682,1503445,learnblock2,708.6000000089407,img/planet13_right.png,13,Community 3,NA,TRUE,j,j,NA,NA,NA,1,6,"9,12,14,6,15,4,5,2,3,7,1,11,13,8,10"
15361,commdev-image-keyboard-response,683,1504697,learnblock2,623.4000000059605,img/planet10_left.png,10,Community 3,NA,TRUE,f,f,NA,NA,NA,1,6,"9,12,14,6,15,4,5,2,3,7,1,11,13,8,10"
15361,commdev-image-keyboard-response,684,1505950,learnblock2,626.2000000029802,img/planet13_right.png,13,Community 3,NA,TRUE,j,j,NA,NA,NA,1,6,"9,12,14,6,15,4,5,2,3,7,1,11,13,8,10"
15361,commdev-image-keyboard-response,685,1507203,learnblock2,675.5,img/planet1_right.png,1,Community 3,NA,TRUE,j,j,NA,NA,NA,1,6,"9,12,14,6,15,4,5,2,3,7,1,11,13,8,10"
15361,commdev-image-keyboard-response,686,1508456,learnblock2,568.2000000029802,img/planet10_left.png,10,Community 3,NA,TRUE,f,f,NA,NA,NA,1,6,"9,12,14,6,15,4,5,2,3,7,1,11,13,8,10"
15361,commdev-image-keyboard-response,687,1509709,learnblock2,489,img/planet13_right.png,13,Community 3,NA,TRUE,j,j,NA,NA,NA,1,6,"9,12,14,6,15,4,5,2,3,7,1,11,13,8,10"
15361,commdev-image-keyboard-response,688,1510962,learnblock2,579.0999999940395,img/planet1_left.png,1,Community 3,NA,TRUE,f,f,NA,NA,NA,1,6,"9,12,14,6,15,4,5,2,3,7,1,11,13,8,10"
15361,commdev-image-keyboard-response,689,1512214,learnblock2,529.5,img/planet8_right.png,8,Community 3,NA,TRUE,j,j,NA,NA,NA,1,6,"9,12,14,6,15,4,5,2,3,7,1,11,13,8,10"
15361,commdev-image-keyboard-response,690,1513467,learnblock2,533,img/planet13_left.png,13,Community 3,NA,TRUE,f,f,NA,NA,NA,1,6,"9,12,14,6,15,4,5,2,3,7,1,11,13,8,10"
15361,commdev-image-keyboard-response,691,1514720,learnblock2,551.4000000059605,img/planet8_right.png,8,Community 3,NA,TRUE,j,j,NA,NA,NA,1,6,"9,12,14,6,15,4,5,2,3,7,1,11,13,8,10"
15361,commdev-image-keyboard-response,692,1515972,learnblock2,606.1000000089407,img/planet13_left.png,13,Community 3,NA,TRUE,f,f,NA,NA,NA,1,6,"9,12,14,6,15,4,5,2,3,7,1,11,13,8,10"
15361,commdev-image-keyboard-response,693,1517227,learnblock2,566.3999999910593,img/planet11_right.png,11,Community 3,NA,FALSE,f,j,NA,NA,NA,1,6,"9,12,14,6,15,4,5,2,3,7,1,11,13,8,10"
15361,commdev-image-keyboard-response,694,1518482,learnblock2,645.4000000059605,img/planet13_left.png,13,Community 3,NA,TRUE,f,f,NA,NA,NA,1,6,"9,12,14,6,15,4,5,2,3,7,1,11,13,8,10"
15361,commdev-image-keyboard-response,695,1519737,learnblock2,507.90000000596046,img/planet11_right.png,11,Community 3,NA,TRUE,j,j,NA,NA,NA,1,6,"9,12,14,6,15,4,5,2,3,7,1,11,13,8,10"
15361,commdev-image-keyboard-response,696,1520991,learnblock2,710,img/planet8_left.png,8,Community 3,NA,TRUE,f,f,NA,NA,NA,1,6,"9,12,14,6,15,4,5,2,3,7,1,11,13,8,10"
15361,commdev-image-keyboard-response,697,1522245,learnblock2,584.5999999940395,img/planet13_right.png,13,Community 3,NA,TRUE,j,j,NA,NA,NA,1,6,"9,12,14,6,15,4,5,2,3,7,1,11,13,8,10"
15361,commdev-image-keyboard-response,698,1523499,learnblock2,628.2000000029802,img/planet10_right.png,10,Community 3,NA,TRUE,j,j,NA,NA,NA,1,6,"9,12,14,6,15,4,5,2,3,7,1,11,13,8,10"
15361,commdev-image-keyboard-response,699,1524753,learnblock2,593.6999999880791,img/planet1_right.png,1,Community 3,NA,TRUE,j,j,NA,NA,NA,1,6,"9,12,14,6,15,4,5,2,3,7,1,11,13,8,10"
