subject_id,trial_type,trial_index,time_elapsed,block,rt,stimulus,planet,community,response,correct,key_press,learning_correct_response,parse,init_locations,final_locations,browser_interactions,num_comp,planet_map
14267,commdev-instructions,7,29881,NA,2159.9000000059605,"<p>In this game, you will be shown a 3x3 grid of patterns.</p> <p>The last one in the bottom right-hand corner, <strong>will be missing:</strong></p> <div style='width: 700px;'><div style='float: top;'><img style='width: 200px;' src='practice/p1_M1.png'></img><p class='small'>You need to select<strong> which of the four possible patterns </strong>along the bottom<strong> fits into the gap:</strong></p></div><div style='float: top;'><img style='width: 300px;' src='practice/p1_T1.png'></img></div><br>",NA,NA,NA,NA,NA,NA,NA,NA,NA,1,6,"12,7,3,6,10,4,2,11,9,15,13,8,5,14,1"
14267,commdev-instructions,8,48495,NA,684.5,"<p>Try to be as fast and as accurate as you can be.</p> <p>If you cannot solve the puzzle then you should guess - you will not be penalised for an incorrect answer.</p> <p>The task contains a shuffled mix of easy, medium and hard puzzles.</p> <p>You will have <strong>30 seconds</strong> to complete each puzzle.</p><br>",NA,NA,NA,NA,NA,NA,NA,NA,NA,1,6,"12,7,3,6,10,4,2,11,9,15,13,8,5,14,1"
14267,commdev-instructions,15,68638,NA,498,<p><strong>Success!</strong></p> <p>You seem to be getting the hang of this...</p> <p>Let's move on to the real trials.</p><br>,NA,NA,NA,NA,NA,NA,NA,NA,NA,1,6,"12,7,3,6,10,4,2,11,9,15,13,8,5,14,1"
14267,commdev-instructions,87,561950,NA,1401,"<p>In this game, you are a scientist on board a space shuttle. </p><p> On each mission, you will visit planets all across the universe.</p><img src=""img/controlroom.jpg"" width=300vw>",NA,NA,NA,NA,NA,NA,NA,NA,NA,1,6,"12,7,3,6,10,4,2,11,9,15,13,8,5,14,1"
14267,commdev-instructions,88,564710,NA,690.2999999970198,"<p>Here are a few planets you might see:</p><img src=""img/practice1.png"" width=200vw><img src=""img/practice2.png"" width=200vw><img src=""img/practice3.png"" width=200vw>",NA,NA,NA,NA,NA,NA,NA,NA,NA,1,6,"12,7,3,6,10,4,2,11,9,15,13,8,5,14,1"
14267,commdev-instructions,89,577705,NA,5595.20000000298,"<p>Your job as a scientist is to record which direction the winds are moving on each planet.</p><p>There are two types of wind directions:</p><img src=""img/practice1_left.png"" width=200vw><img src=""img/practice1_right.png"" width=200vw>",NA,NA,NA,NA,NA,NA,NA,NA,NA,1,6,"12,7,3,6,10,4,2,11,9,15,13,8,5,14,1"
14267,commdev-instructions,90,583604,NA,1014.8000000119209,"<p>If the winds are moving this way, press the letter <strong>F</strong> on the keyboard as fast as you can.</p><img src=""img/leftwind.png"" width=250vw>",NA,NA,NA,NA,NA,NA,NA,NA,NA,1,6,"12,7,3,6,10,4,2,11,9,15,13,8,5,14,1"
14267,commdev-instructions,91,588478,NA,379.90000000596046,"<p>If the winds are moving this way, press the letter <strong>J</strong> on the keyboard as fast as you can.</p><img src=""img/rightwind.png"" width=350vw>",NA,NA,NA,NA,NA,NA,NA,NA,NA,1,6,"12,7,3,6,10,4,2,11,9,15,13,8,5,14,1"
14267,commdev-instructions,92,594504,NA,1604.9000000059605,<p>You will have 1 second to respond. Try to respond before the time runs out!,NA,NA,NA,NA,NA,NA,NA,NA,NA,1,6,"12,7,3,6,10,4,2,11,9,15,13,8,5,14,1"
14267,commdev-instructions,93,601246,NA,1297.7000000029802,<p>The planets you will visit will look different from each other.</p><p>You should respond <strong>only</strong> based on wind direction.,NA,NA,NA,NA,NA,NA,NA,NA,NA,1,6,"12,7,3,6,10,4,2,11,9,15,13,8,5,14,1"
14267,commdev-instructions,94,608108,NA,1690.2000000029802,"<p> Ready to start the practice round? </p><p> Remember, press <strong>F</strong> or <strong>J</strong> depending on the wind direction.<br><img src=""img/categorize_planet_example.png""",NA,NA,NA,NA,NA,NA,NA,NA,NA,1,6,"12,7,3,6,10,4,2,11,9,15,13,8,5,14,1"
14267,commdev-instructions,106,658229,NA,932.2000000029802,"<p>Great, now try a short practice mission. </p><p> This time, you will have 1 second to respond and you won't know whether you pressed the right or wrong key for each planet.</p>",NA,NA,NA,NA,NA,NA,NA,NA,NA,1,6,"12,7,3,6,10,4,2,11,9,15,13,8,5,14,1"
14267,commdev-image-keyboard-response,107,659604,practice,866.6000000089407,img/practice3_right.png,NA,Number not found in mappings,NA,TRUE,j,j,NA,NA,NA,1,6,"12,7,3,6,10,4,2,11,9,15,13,8,5,14,1"
14267,commdev-image-keyboard-response,108,660862,practice,594.2000000029802,img/practice2_left.png,NA,Number not found in mappings,NA,TRUE,f,f,NA,NA,NA,1,6,"12,7,3,6,10,4,2,11,9,15,13,8,5,14,1"
14267,commdev-image-keyboard-response,109,662121,practice,481.40000000596046,img/practice4_right.png,NA,Number not found in mappings,NA,TRUE,j,j,NA,NA,NA,1,6,"12,7,3,6,10,4,2,11,9,15,13,8,5,14,1"
14267,commdev-image-keyboard-response,110,663375,practice,514.4000000059605,img/practice2_right.png,NA,Number not found in mappings,NA,TRUE,j,j,NA,NA,NA,1,6,"12,7,3,6,10,4,2,11,9,15,13,8,5,14,1"
14267,commdev-image-keyboard-response,111,664634,practice,444.8999999910593,img/practice4_left.png,NA,Number not found in mappings,NA,TRUE,f,f,NA,NA,NA,1,6,"12,7,3,6,10,4,2,11,9,15,13,8,5,14,1"
14267,commdev-image-keyboard-response,112,665893,practice,563.2000000029802,img/practice1_left.png,NA,Number not found in mappings,NA,TRUE,f,f,NA,NA,NA,1,6,"12,7,3,6,10,4,2,11,9,15,13,8,5,14,1"
14267,commdev-image-keyboard-response,113,667156,practice,538.4000000059605,img/practice4_left.png,NA,Number not found in mappings,NA,TRUE,f,f,NA,NA,NA,1,6,"12,7,3,6,10,4,2,11,9,15,13,8,5,14,1"
14267,commdev-image-keyboard-response,114,668415,practice,503.59999999403954,img/practice1_left.png,NA,Number not found in mappings,NA,TRUE,f,f,NA,NA,NA,1,6,"12,7,3,6,10,4,2,11,9,15,13,8,5,14,1"
14267,commdev-instructions,115,678492,NA,515.7999999970198,"<p>Great job with the practice round.</p><p>During real missions, you won't know whether you pressed the right or wrong key for each planet.</p><p>But between missions, we will tell you how you did overall.</p>",NA,NA,NA,NA,NA,NA,NA,NA,NA,1,6,"12,7,3,6,10,4,2,11,9,15,13,8,5,14,1"
14267,commdev-instructions,116,688061,NA,1314.7999999970198,<p>Try your best! You will be paid a bonus based on how many correct responses you make!</p><p>Responses that are too slow will not count toward your bonus.</p>,NA,NA,NA,NA,NA,NA,NA,NA,NA,1,6,"12,7,3,6,10,4,2,11,9,15,13,8,5,14,1"
14267,commdev-instructions,117,695049,NA,793.3000000119209,"<p>You are almost ready to start the real game.</p><p> First, we are going to ask you some questions about how the game works.</p>",NA,NA,NA,NA,NA,NA,NA,NA,NA,1,6,"12,7,3,6,10,4,2,11,9,15,13,8,5,14,1"
14267,commdev-instructions,126,776594,NA,490.59999999403954,"<p> Nice work! It is now time to start the real game.<p></p>You will go on two missions to record wind directions of different planets.<p></p>Each one will take about 5 minutes. You will get to take a break between missions.<p><p> Remember, press <strong>F</strong> or <strong>J</strong> depending on the wind direction. Good luck!<br><img src=""img/categorize_planet_example.png""",NA,NA,NA,NA,NA,NA,NA,NA,NA,1,6,"12,7,3,6,10,4,2,11,9,15,13,8,5,14,1"
14267,commdev-image-keyboard-response,128,780744,learnblock1,653.1999999880791,img/planet5_left.png,5,Community 3,NA,TRUE,f,f,NA,NA,NA,1,6,"12,7,3,6,10,4,2,11,9,15,13,8,5,14,1"
14267,commdev-image-keyboard-response,129,782002,learnblock1,579.8999999910593,img/planet13_left.png,13,Community 3,NA,TRUE,f,f,NA,NA,NA,1,6,"12,7,3,6,10,4,2,11,9,15,13,8,5,14,1"
14267,commdev-image-keyboard-response,130,783261,learnblock1,601.7000000029802,img/planet14_right.png,14,Community 3,NA,FALSE,f,j,NA,NA,NA,1,6,"12,7,3,6,10,4,2,11,9,15,13,8,5,14,1"
14267,commdev-image-keyboard-response,131,784523,learnblock1,558.5,img/planet1_right.png,1,Community 3,NA,TRUE,j,j,NA,NA,NA,1,6,"12,7,3,6,10,4,2,11,9,15,13,8,5,14,1"
14267,commdev-image-keyboard-response,132,785783,learnblock1,527.3999999910593,img/planet5_right.png,5,Community 3,NA,TRUE,j,j,NA,NA,NA,1,6,"12,7,3,6,10,4,2,11,9,15,13,8,5,14,1"
14267,commdev-image-keyboard-response,133,787036,learnblock1,447.09999999403954,img/planet1_left.png,1,Community 3,NA,TRUE,f,f,NA,NA,NA,1,6,"12,7,3,6,10,4,2,11,9,15,13,8,5,14,1"
14267,commdev-image-keyboard-response,134,788297,learnblock1,452.40000000596046,img/planet13_left.png,13,Community 3,NA,TRUE,f,f,NA,NA,NA,1,6,"12,7,3,6,10,4,2,11,9,15,13,8,5,14,1"
14267,commdev-image-keyboard-response,135,789556,learnblock1,418.90000000596046,img/planet1_right.png,1,Community 3,NA,TRUE,j,j,NA,NA,NA,1,6,"12,7,3,6,10,4,2,11,9,15,13,8,5,14,1"
14267,commdev-image-keyboard-response,136,790814,learnblock1,336.59999999403954,img/planet13_left.png,13,Community 3,NA,TRUE,f,f,NA,NA,NA,1,6,"12,7,3,6,10,4,2,11,9,15,13,8,5,14,1"
14267,commdev-image-keyboard-response,137,792081,learnblock1,415.20000000298023,img/planet5_left.png,5,Community 3,NA,TRUE,f,f,NA,NA,NA,1,6,"12,7,3,6,10,4,2,11,9,15,13,8,5,14,1"
14267,commdev-image-keyboard-response,138,793340,learnblock1,399.29999999701977,img/planet8_right.png,8,Community 3,NA,FALSE,f,j,NA,NA,NA,1,6,"12,7,3,6,10,4,2,11,9,15,13,8,5,14,1"
14267,commdev-image-keyboard-response,139,794601,learnblock1,408.69999998807907,img/planet5_left.png,5,Community 3,NA,TRUE,f,f,NA,NA,NA,1,6,"12,7,3,6,10,4,2,11,9,15,13,8,5,14,1"
14267,commdev-image-keyboard-response,140,795864,learnblock1,439.6000000089407,img/planet1_right.png,1,Community 3,NA,TRUE,j,j,NA,NA,NA,1,6,"12,7,3,6,10,4,2,11,9,15,13,8,5,14,1"
14267,commdev-image-keyboard-response,141,797122,learnblock1,555.2000000029802,img/planet5_left.png,5,Community 3,NA,TRUE,f,f,NA,NA,NA,1,6,"12,7,3,6,10,4,2,11,9,15,13,8,5,14,1"
14267,commdev-image-keyboard-response,142,798377,learnblock1,522,img/planet14_right.png,14,Community 3,NA,TRUE,j,j,NA,NA,NA,1,6,"12,7,3,6,10,4,2,11,9,15,13,8,5,14,1"
14267,commdev-image-keyboard-response,143,799637,learnblock1,558,img/planet8_left.png,8,Community 3,NA,TRUE,f,f,NA,NA,NA,1,6,"12,7,3,6,10,4,2,11,9,15,13,8,5,14,1"
14267,commdev-image-keyboard-response,144,800904,learnblock1,594.7999999970198,img/planet1_right.png,1,Community 3,NA,TRUE,j,j,NA,NA,NA,1,6,"12,7,3,6,10,4,2,11,9,15,13,8,5,14,1"
14267,commdev-image-keyboard-response,145,802164,learnblock1,570.2999999970198,img/planet5_right.png,5,Community 3,NA,TRUE,j,j,NA,NA,NA,1,6,"12,7,3,6,10,4,2,11,9,15,13,8,5,14,1"
14267,commdev-image-keyboard-response,146,803420,learnblock1,518.7999999970198,img/planet14_right.png,14,Community 3,NA,TRUE,j,j,NA,NA,NA,1,6,"12,7,3,6,10,4,2,11,9,15,13,8,5,14,1"
14267,commdev-image-keyboard-response,147,804684,learnblock1,536.4000000059605,img/planet13_left.png,13,Community 3,NA,TRUE,f,f,NA,NA,NA,1,6,"12,7,3,6,10,4,2,11,9,15,13,8,5,14,1"
14267,commdev-image-keyboard-response,148,805940,learnblock1,442.5,img/planet1_right.png,1,Community 3,NA,TRUE,j,j,NA,NA,NA,1,6,"12,7,3,6,10,4,2,11,9,15,13,8,5,14,1"
14267,commdev-image-keyboard-response,149,807192,learnblock1,483.40000000596046,img/planet13_left.png,13,Community 3,NA,TRUE,f,f,NA,NA,NA,1,6,"12,7,3,6,10,4,2,11,9,15,13,8,5,14,1"
14267,commdev-image-keyboard-response,150,808452,learnblock1,469.3999999910593,img/planet1_left.png,1,Community 3,NA,TRUE,f,f,NA,NA,NA,1,6,"12,7,3,6,10,4,2,11,9,15,13,8,5,14,1"
14267,commdev-image-keyboard-response,151,809704,learnblock1,604.2000000029802,img/planet8_right.png,8,Community 3,NA,TRUE,j,j,NA,NA,NA,1,6,"12,7,3,6,10,4,2,11,9,15,13,8,5,14,1"
14267,commdev-image-keyboard-response,152,810956,learnblock1,465.70000000298023,img/planet1_left.png,1,Community 3,NA,TRUE,f,f,NA,NA,NA,1,6,"12,7,3,6,10,4,2,11,9,15,13,8,5,14,1"
14267,commdev-image-keyboard-response,153,812207,learnblock1,534.2000000029802,img/planet13_right.png,13,Community 3,NA,TRUE,j,j,NA,NA,NA,1,6,"12,7,3,6,10,4,2,11,9,15,13,8,5,14,1"
14267,commdev-image-keyboard-response,154,813465,learnblock1,425.1000000089407,img/planet5_left.png,5,Community 3,NA,TRUE,f,f,NA,NA,NA,1,6,"12,7,3,6,10,4,2,11,9,15,13,8,5,14,1"
14267,commdev-image-keyboard-response,155,814717,learnblock1,372.29999999701977,img/planet1_left.png,1,Community 3,NA,TRUE,f,f,NA,NA,NA,1,6,"12,7,3,6,10,4,2,11,9,15,13,8,5,14,1"
14267,commdev-image-keyboard-response,156,815969,learnblock1,458.59999999403954,img/planet8_left.png,8,Community 3,NA,TRUE,f,f,NA,NA,NA,1,6,"12,7,3,6,10,4,2,11,9,15,13,8,5,14,1"
14267,commdev-image-keyboard-response,157,817221,learnblock1,488.29999999701977,img/planet11_right.png,11,Community 2,NA,TRUE,j,j,NA,NA,NA,1,6,"12,7,3,6,10,4,2,11,9,15,13,8,5,14,1"
14267,commdev-image-keyboard-response,158,818474,learnblock1,646.4000000059605,img/planet8_left.png,8,Community 3,NA,TRUE,f,f,NA,NA,NA,1,6,"12,7,3,6,10,4,2,11,9,15,13,8,5,14,1"
14267,commdev-image-keyboard-response,159,819727,learnblock1,557,img/planet14_right.png,14,Community 3,NA,TRUE,j,j,NA,NA,NA,1,6,"12,7,3,6,10,4,2,11,9,15,13,8,5,14,1"
14267,commdev-image-keyboard-response,160,820980,learnblock1,425.59999999403954,img/planet1_left.png,1,Community 3,NA,TRUE,f,f,NA,NA,NA,1,6,"12,7,3,6,10,4,2,11,9,15,13,8,5,14,1"
14267,commdev-image-keyboard-response,161,822232,learnblock1,411.29999999701977,img/planet5_left.png,5,Community 3,NA,TRUE,f,f,NA,NA,NA,1,6,"12,7,3,6,10,4,2,11,9,15,13,8,5,14,1"
14267,commdev-image-keyboard-response,162,823483,learnblock1,381.90000000596046,img/planet13_right.png,13,Community 3,NA,TRUE,j,j,NA,NA,NA,1,6,"12,7,3,6,10,4,2,11,9,15,13,8,5,14,1"
14267,commdev-image-keyboard-response,163,824735,learnblock1,545.5,img/planet14_left.png,14,Community 3,NA,TRUE,f,f,NA,NA,NA,1,6,"12,7,3,6,10,4,2,11,9,15,13,8,5,14,1"
14267,commdev-image-keyboard-response,164,825987,learnblock1,483,img/planet13_left.png,13,Community 3,NA,TRUE,f,f,NA,NA,NA,1,6,"12,7,3,6,10,4,2,11,9,15,13,8,5,14,1"
14267,commdev-image-keyboard-response,165,827239,learnblock1,460.70000000298023,img/planet10_left.png,10,Community 1,NA,TRUE,f,f,NA,NA,NA,1,6,"12,7,3,6,10,4,2,11,9,15,13,8,5,14,1"
14267,commdev-image-keyboard-response,166,828491,learnblock1,487.29999999701977,img/planet3_right.png,3,Community 1,NA,TRUE,j,j,NA,NA,NA,1,6,"12,7,3,6,10,4,2,11,9,15,13,8,5,14,1"
14267,commdev-image-keyboard-response,167,829742,learnblock1,418.3999999910593,img/planet12_left.png,12,Community 1,NA,TRUE,f,f,NA,NA,NA,1,6,"12,7,3,6,10,4,2,11,9,15,13,8,5,14,1"
14267,commdev-image-keyboard-response,168,830996,learnblock1,407.79999999701977,img/planet6_right.png,6,Community 1,NA,TRUE,j,j,NA,NA,NA,1,6,"12,7,3,6,10,4,2,11,9,15,13,8,5,14,1"
14267,commdev-image-keyboard-response,169,832248,learnblock1,522.7000000029802,img/planet3_right.png,3,Community 1,NA,TRUE,j,j,NA,NA,NA,1,6,"12,7,3,6,10,4,2,11,9,15,13,8,5,14,1"
14267,commdev-image-keyboard-response,170,833499,learnblock1,411.20000000298023,img/planet7_left.png,7,Community 1,NA,TRUE,f,f,NA,NA,NA,1,6,"12,7,3,6,10,4,2,11,9,15,13,8,5,14,1"
14267,commdev-image-keyboard-response,171,834751,learnblock1,445.59999999403954,img/planet3_left.png,3,Community 1,NA,TRUE,f,f,NA,NA,NA,1,6,"12,7,3,6,10,4,2,11,9,15,13,8,5,14,1"
14267,commdev-image-keyboard-response,172,836003,learnblock1,529.5,img/planet12_left.png,12,Community 1,NA,TRUE,f,f,NA,NA,NA,1,6,"12,7,3,6,10,4,2,11,9,15,13,8,5,14,1"
14267,commdev-image-keyboard-response,173,837255,learnblock1,530.5999999940395,img/planet7_right.png,7,Community 1,NA,TRUE,j,j,NA,NA,NA,1,6,"12,7,3,6,10,4,2,11,9,15,13,8,5,14,1"
14267,commdev-image-keyboard-response,174,838506,learnblock1,501.30000001192093,img/planet3_right.png,3,Community 1,NA,FALSE,f,j,NA,NA,NA,1,6,"12,7,3,6,10,4,2,11,9,15,13,8,5,14,1"
14267,commdev-image-keyboard-response,175,839758,learnblock1,531.9000000059605,img/planet10_right.png,10,Community 1,NA,FALSE,f,j,NA,NA,NA,1,6,"12,7,3,6,10,4,2,11,9,15,13,8,5,14,1"
14267,commdev-image-keyboard-response,176,841009,learnblock1,623.9000000059605,img/planet3_left.png,3,Community 1,NA,TRUE,f,f,NA,NA,NA,1,6,"12,7,3,6,10,4,2,11,9,15,13,8,5,14,1"
14267,commdev-image-keyboard-response,177,842264,learnblock1,514.2999999970198,img/planet12_left.png,12,Community 1,NA,TRUE,f,f,NA,NA,NA,1,6,"12,7,3,6,10,4,2,11,9,15,13,8,5,14,1"
14267,commdev-image-keyboard-response,178,843517,learnblock1,459.5,img/planet7_right.png,7,Community 1,NA,TRUE,j,j,NA,NA,NA,1,6,"12,7,3,6,10,4,2,11,9,15,13,8,5,14,1"
14267,commdev-image-keyboard-response,179,844768,learnblock1,424.79999999701977,img/planet3_left.png,3,Community 1,NA,TRUE,f,f,NA,NA,NA,1,6,"12,7,3,6,10,4,2,11,9,15,13,8,5,14,1"
14267,commdev-image-keyboard-response,180,846020,learnblock1,409.30000001192093,img/planet6_right.png,6,Community 1,NA,TRUE,j,j,NA,NA,NA,1,6,"12,7,3,6,10,4,2,11,9,15,13,8,5,14,1"
14267,commdev-image-keyboard-response,181,847272,learnblock1,451.5,img/planet12_right.png,12,Community 1,NA,TRUE,j,j,NA,NA,NA,1,6,"12,7,3,6,10,4,2,11,9,15,13,8,5,14,1"
14267,commdev-image-keyboard-response,182,848524,learnblock1,475.90000000596046,img/planet6_right.png,6,Community 1,NA,TRUE,j,j,NA,NA,NA,1,6,"12,7,3,6,10,4,2,11,9,15,13,8,5,14,1"
14267,commdev-image-keyboard-response,183,849775,learnblock1,552.5,img/planet7_left.png,7,Community 1,NA,TRUE,f,f,NA,NA,NA,1,6,"12,7,3,6,10,4,2,11,9,15,13,8,5,14,1"
14267,commdev-image-keyboard-response,184,851026,learnblock1,644.9000000059605,img/planet12_left.png,12,Community 1,NA,FALSE,j,f,NA,NA,NA,1,6,"12,7,3,6,10,4,2,11,9,15,13,8,5,14,1"
14267,commdev-image-keyboard-response,185,852278,learnblock1,659.7000000029802,img/planet6_left.png,6,Community 1,NA,TRUE,f,f,NA,NA,NA,1,6,"12,7,3,6,10,4,2,11,9,15,13,8,5,14,1"
14267,commdev-image-keyboard-response,186,853530,learnblock1,531.2999999970198,img/planet12_left.png,12,Community 1,NA,TRUE,f,f,NA,NA,NA,1,6,"12,7,3,6,10,4,2,11,9,15,13,8,5,14,1"
14267,commdev-image-keyboard-response,187,854782,learnblock1,484.29999999701977,img/planet6_right.png,6,Community 1,NA,TRUE,j,j,NA,NA,NA,1,6,"12,7,3,6,10,4,2,11,9,15,13,8,5,14,1"
14267,commdev-image-keyboard-response,188,856034,learnblock1,556.5,img/planet12_right.png,12,Community 1,NA,TRUE,j,j,NA,NA,NA,1,6,"12,7,3,6,10,4,2,11,9,15,13,8,5,14,1"
14267,commdev-image-keyboard-response,189,857286,learnblock1,527.3999999910593,img/planet10_left.png,10,Community 1,NA,TRUE,f,f,NA,NA,NA,1,6,"12,7,3,6,10,4,2,11,9,15,13,8,5,14,1"
14267,commdev-image-keyboard-response,190,858538,learnblock1,462.20000000298023,img/planet13_left.png,13,Community 3,NA,TRUE,f,f,NA,NA,NA,1,6,"12,7,3,6,10,4,2,11,9,15,13,8,5,14,1"
14267,commdev-image-keyboard-response,191,859790,learnblock1,459.29999999701977,img/planet10_left.png,10,Community 1,NA,TRUE,f,f,NA,NA,NA,1,6,"12,7,3,6,10,4,2,11,9,15,13,8,5,14,1"
14267,commdev-image-keyboard-response,192,861042,learnblock1,442.1000000089407,img/planet7_right.png,7,Community 1,NA,FALSE,f,j,NA,NA,NA,1,6,"12,7,3,6,10,4,2,11,9,15,13,8,5,14,1"
14267,commdev-image-keyboard-response,193,862293,learnblock1,392,img/planet12_left.png,12,Community 1,NA,TRUE,f,f,NA,NA,NA,1,6,"12,7,3,6,10,4,2,11,9,15,13,8,5,14,1"
14267,commdev-image-keyboard-response,194,863545,learnblock1,406.09999999403954,img/planet10_left.png,10,Community 1,NA,TRUE,f,f,NA,NA,NA,1,6,"12,7,3,6,10,4,2,11,9,15,13,8,5,14,1"
14267,commdev-image-keyboard-response,195,864798,learnblock1,411,img/planet3_left.png,3,Community 1,NA,FALSE,j,f,NA,NA,NA,1,6,"12,7,3,6,10,4,2,11,9,15,13,8,5,14,1"
14267,commdev-image-keyboard-response,196,866049,learnblock1,562.2999999970198,img/planet6_left.png,6,Community 1,NA,TRUE,f,f,NA,NA,NA,1,6,"12,7,3,6,10,4,2,11,9,15,13,8,5,14,1"
14267,commdev-image-keyboard-response,197,867301,learnblock1,662.5,img/planet3_left.png,3,Community 1,NA,TRUE,f,f,NA,NA,NA,1,6,"12,7,3,6,10,4,2,11,9,15,13,8,5,14,1"
14267,commdev-image-keyboard-response,198,868552,learnblock1,658.1000000089407,img/planet6_left.png,6,Community 1,NA,TRUE,f,f,NA,NA,NA,1,6,"12,7,3,6,10,4,2,11,9,15,13,8,5,14,1"
14267,commdev-image-keyboard-response,199,869804,learnblock1,617.4000000059605,img/planet7_left.png,7,Community 1,NA,TRUE,f,f,NA,NA,NA,1,6,"12,7,3,6,10,4,2,11,9,15,13,8,5,14,1"
14267,commdev-image-keyboard-response,200,871056,learnblock1,585.5999999940395,img/planet6_right.png,6,Community 1,NA,TRUE,j,j,NA,NA,NA,1,6,"12,7,3,6,10,4,2,11,9,15,13,8,5,14,1"
14267,commdev-image-keyboard-response,201,872307,learnblock1,519.0999999940395,img/planet3_right.png,3,Community 1,NA,TRUE,j,j,NA,NA,NA,1,6,"12,7,3,6,10,4,2,11,9,15,13,8,5,14,1"
14267,commdev-image-keyboard-response,202,873559,learnblock1,610.4000000059605,img/planet7_left.png,7,Community 1,NA,TRUE,f,f,NA,NA,NA,1,6,"12,7,3,6,10,4,2,11,9,15,13,8,5,14,1"
14267,commdev-image-keyboard-response,203,874812,learnblock1,571.5,img/planet12_left.png,12,Community 1,NA,TRUE,f,f,NA,NA,NA,1,6,"12,7,3,6,10,4,2,11,9,15,13,8,5,14,1"
14267,commdev-image-keyboard-response,204,876065,learnblock1,511.6000000089407,img/planet3_left.png,3,Community 1,NA,TRUE,f,f,NA,NA,NA,1,6,"12,7,3,6,10,4,2,11,9,15,13,8,5,14,1"
14267,commdev-image-keyboard-response,205,877317,learnblock1,439.80000001192093,img/planet10_left.png,10,Community 1,NA,TRUE,f,f,NA,NA,NA,1,6,"12,7,3,6,10,4,2,11,9,15,13,8,5,14,1"
14267,commdev-image-keyboard-response,206,878569,learnblock1,440,img/planet3_left.png,3,Community 1,NA,TRUE,f,f,NA,NA,NA,1,6,"12,7,3,6,10,4,2,11,9,15,13,8,5,14,1"
14267,commdev-image-keyboard-response,207,879822,learnblock1,408.29999999701977,img/planet12_left.png,12,Community 1,NA,TRUE,f,f,NA,NA,NA,1,6,"12,7,3,6,10,4,2,11,9,15,13,8,5,14,1"
14267,commdev-image-keyboard-response,208,881073,learnblock1,549.7999999970198,img/planet6_left.png,6,Community 1,NA,TRUE,f,f,NA,NA,NA,1,6,"12,7,3,6,10,4,2,11,9,15,13,8,5,14,1"
14267,commdev-image-keyboard-response,209,882324,learnblock1,441.1000000089407,img/planet3_left.png,3,Community 1,NA,TRUE,f,f,NA,NA,NA,1,6,"12,7,3,6,10,4,2,11,9,15,13,8,5,14,1"
14267,commdev-image-keyboard-response,210,883576,learnblock1,484.1000000089407,img/planet6_right.png,6,Community 1,NA,TRUE,j,j,NA,NA,NA,1,6,"12,7,3,6,10,4,2,11,9,15,13,8,5,14,1"
14267,commdev-image-keyboard-response,211,884828,learnblock1,486.09999999403954,img/planet12_right.png,12,Community 1,NA,TRUE,j,j,NA,NA,NA,1,6,"12,7,3,6,10,4,2,11,9,15,13,8,5,14,1"
14267,commdev-image-keyboard-response,212,886080,learnblock1,496.29999999701977,img/planet3_right.png,3,Community 1,NA,TRUE,j,j,NA,NA,NA,1,6,"12,7,3,6,10,4,2,11,9,15,13,8,5,14,1"
14267,commdev-image-keyboard-response,213,887344,learnblock1,452.40000000596046,img/planet12_left.png,12,Community 1,NA,TRUE,f,f,NA,NA,NA,1,6,"12,7,3,6,10,4,2,11,9,15,13,8,5,14,1"
14267,commdev-image-keyboard-response,214,888596,learnblock1,416.19999998807907,img/planet7_left.png,7,Community 1,NA,TRUE,f,f,NA,NA,NA,1,6,"12,7,3,6,10,4,2,11,9,15,13,8,5,14,1"
14267,commdev-image-keyboard-response,215,889847,learnblock1,422.40000000596046,img/planet3_right.png,3,Community 1,NA,TRUE,j,j,NA,NA,NA,1,6,"12,7,3,6,10,4,2,11,9,15,13,8,5,14,1"
14267,commdev-image-keyboard-response,216,891100,learnblock1,456.20000000298023,img/planet7_right.png,7,Community 1,NA,TRUE,j,j,NA,NA,NA,1,6,"12,7,3,6,10,4,2,11,9,15,13,8,5,14,1"
14267,commdev-image-keyboard-response,217,892351,learnblock1,372.30000001192093,img/planet3_left.png,3,Community 1,NA,TRUE,f,f,NA,NA,NA,1,6,"12,7,3,6,10,4,2,11,9,15,13,8,5,14,1"
14267,commdev-image-keyboard-response,218,893603,learnblock1,421.59999999403954,img/planet10_right.png,10,Community 1,NA,TRUE,j,j,NA,NA,NA,1,6,"12,7,3,6,10,4,2,11,9,15,13,8,5,14,1"
14267,commdev-image-keyboard-response,219,894855,learnblock1,481.19999998807907,img/planet3_left.png,3,Community 1,NA,TRUE,f,f,NA,NA,NA,1,6,"12,7,3,6,10,4,2,11,9,15,13,8,5,14,1"
14267,commdev-image-keyboard-response,220,896107,learnblock1,438.59999999403954,img/planet12_right.png,12,Community 1,NA,TRUE,j,j,NA,NA,NA,1,6,"12,7,3,6,10,4,2,11,9,15,13,8,5,14,1"
14267,commdev-image-keyboard-response,221,897358,learnblock1,435.5,img/planet10_right.png,10,Community 1,NA,TRUE,j,j,NA,NA,NA,1,6,"12,7,3,6,10,4,2,11,9,15,13,8,5,14,1"
14267,commdev-image-keyboard-response,222,898609,learnblock1,389.6000000089407,img/planet12_left.png,12,Community 1,NA,TRUE,f,f,NA,NA,NA,1,6,"12,7,3,6,10,4,2,11,9,15,13,8,5,14,1"
14267,commdev-image-keyboard-response,223,899864,learnblock1,426.1000000089407,img/planet6_left.png,6,Community 1,NA,TRUE,f,f,NA,NA,NA,1,6,"12,7,3,6,10,4,2,11,9,15,13,8,5,14,1"
14267,commdev-image-keyboard-response,224,901117,learnblock1,424.20000000298023,img/planet12_left.png,12,Community 1,NA,TRUE,f,f,NA,NA,NA,1,6,"12,7,3,6,10,4,2,11,9,15,13,8,5,14,1"
14267,commdev-image-keyboard-response,225,902369,learnblock1,450.40000000596046,img/planet6_right.png,6,Community 1,NA,TRUE,j,j,NA,NA,NA,1,6,"12,7,3,6,10,4,2,11,9,15,13,8,5,14,1"
14267,commdev-image-keyboard-response,226,903620,learnblock1,489.20000000298023,img/planet12_right.png,12,Community 1,NA,FALSE,f,j,NA,NA,NA,1,6,"12,7,3,6,10,4,2,11,9,15,13,8,5,14,1"
14267,commdev-image-keyboard-response,227,904871,learnblock1,580.4000000059605,img/planet10_left.png,10,Community 1,NA,TRUE,f,f,NA,NA,NA,1,6,"12,7,3,6,10,4,2,11,9,15,13,8,5,14,1"
14267,commdev-image-keyboard-response,228,906122,learnblock1,561.1999999880791,img/planet12_right.png,12,Community 1,NA,TRUE,j,j,NA,NA,NA,1,6,"12,7,3,6,10,4,2,11,9,15,13,8,5,14,1"
14267,commdev-image-keyboard-response,229,907374,learnblock1,418.70000000298023,img/planet10_left.png,10,Community 1,NA,TRUE,f,f,NA,NA,NA,1,6,"12,7,3,6,10,4,2,11,9,15,13,8,5,14,1"
14267,commdev-image-keyboard-response,230,908626,learnblock1,441.40000000596046,img/planet13_left.png,13,Community 3,NA,TRUE,f,f,NA,NA,NA,1,6,"12,7,3,6,10,4,2,11,9,15,13,8,5,14,1"
14267,commdev-image-keyboard-response,231,909879,learnblock1,428.40000000596046,img/planet10_left.png,10,Community 1,NA,TRUE,f,f,NA,NA,NA,1,6,"12,7,3,6,10,4,2,11,9,15,13,8,5,14,1"
14267,commdev-image-keyboard-response,232,911131,learnblock1,484,img/planet7_left.png,7,Community 1,NA,TRUE,f,f,NA,NA,NA,1,6,"12,7,3,6,10,4,2,11,9,15,13,8,5,14,1"
14267,commdev-image-keyboard-response,233,912382,learnblock1,444.70000000298023,img/planet10_left.png,10,Community 1,NA,TRUE,f,f,NA,NA,NA,1,6,"12,7,3,6,10,4,2,11,9,15,13,8,5,14,1"
14267,commdev-image-keyboard-response,234,913634,learnblock1,475.69999998807907,img/planet13_left.png,13,Community 3,NA,TRUE,f,f,NA,NA,NA,1,6,"12,7,3,6,10,4,2,11,9,15,13,8,5,14,1"
14267,commdev-image-keyboard-response,235,914886,learnblock1,513.3000000119209,img/planet14_left.png,14,Community 3,NA,TRUE,f,f,NA,NA,NA,1,6,"12,7,3,6,10,4,2,11,9,15,13,8,5,14,1"
14267,commdev-image-keyboard-response,236,916138,learnblock1,531.7000000029802,img/planet5_left.png,5,Community 3,NA,TRUE,f,f,NA,NA,NA,1,6,"12,7,3,6,10,4,2,11,9,15,13,8,5,14,1"
14267,commdev-image-keyboard-response,237,917388,learnblock1,496.20000000298023,img/planet8_left.png,8,Community 3,NA,TRUE,f,f,NA,NA,NA,1,6,"12,7,3,6,10,4,2,11,9,15,13,8,5,14,1"
14267,commdev-image-keyboard-response,238,918640,learnblock1,370.3999999910593,img/planet5_left.png,5,Community 3,NA,TRUE,f,f,NA,NA,NA,1,6,"12,7,3,6,10,4,2,11,9,15,13,8,5,14,1"
14267,commdev-image-keyboard-response,239,919891,learnblock1,367.40000000596046,img/planet13_right.png,13,Community 3,NA,FALSE,f,j,NA,NA,NA,1,6,"12,7,3,6,10,4,2,11,9,15,13,8,5,14,1"
14267,commdev-image-keyboard-response,240,921143,learnblock1,326,img/planet1_left.png,1,Community 3,NA,TRUE,f,f,NA,NA,NA,1,6,"12,7,3,6,10,4,2,11,9,15,13,8,5,14,1"
14267,commdev-image-keyboard-response,241,922395,learnblock1,386,img/planet14_left.png,14,Community 3,NA,TRUE,f,f,NA,NA,NA,1,6,"12,7,3,6,10,4,2,11,9,15,13,8,5,14,1"
14267,commdev-image-keyboard-response,242,923647,learnblock1,431.20000000298023,img/planet1_right.png,1,Community 3,NA,FALSE,f,j,NA,NA,NA,1,6,"12,7,3,6,10,4,2,11,9,15,13,8,5,14,1"
14267,commdev-image-keyboard-response,243,924900,learnblock1,393,img/planet13_left.png,13,Community 3,NA,TRUE,f,f,NA,NA,NA,1,6,"12,7,3,6,10,4,2,11,9,15,13,8,5,14,1"
14267,commdev-image-keyboard-response,244,926152,learnblock1,611.7000000029802,img/planet1_right.png,1,Community 3,NA,TRUE,j,j,NA,NA,NA,1,6,"12,7,3,6,10,4,2,11,9,15,13,8,5,14,1"
14267,commdev-image-keyboard-response,245,927404,learnblock1,584.9000000059605,img/planet5_right.png,5,Community 3,NA,TRUE,j,j,NA,NA,NA,1,6,"12,7,3,6,10,4,2,11,9,15,13,8,5,14,1"
14267,commdev-image-keyboard-response,246,928655,learnblock1,509.5,img/planet8_left.png,8,Community 3,NA,TRUE,f,f,NA,NA,NA,1,6,"12,7,3,6,10,4,2,11,9,15,13,8,5,14,1"
14267,commdev-image-keyboard-response,247,929906,learnblock1,451,img/planet1_left.png,1,Community 3,NA,TRUE,f,f,NA,NA,NA,1,6,"12,7,3,6,10,4,2,11,9,15,13,8,5,14,1"
14267,commdev-image-keyboard-response,248,931159,learnblock1,771.1000000089407,img/planet8_left.png,8,Community 3,NA,TRUE,f,f,NA,NA,NA,1,6,"12,7,3,6,10,4,2,11,9,15,13,8,5,14,1"
14267,commdev-image-keyboard-response,249,932411,learnblock1,600.5,img/planet11_right.png,11,Community 2,NA,TRUE,j,j,NA,NA,NA,1,6,"12,7,3,6,10,4,2,11,9,15,13,8,5,14,1"
14267,commdev-image-keyboard-response,250,933663,learnblock1,573.7000000029802,img/planet2_right.png,2,Community 2,NA,TRUE,j,j,NA,NA,NA,1,6,"12,7,3,6,10,4,2,11,9,15,13,8,5,14,1"
14267,commdev-image-keyboard-response,251,934915,learnblock1,574.9000000059605,img/planet15_right.png,15,Community 2,NA,TRUE,j,j,NA,NA,NA,1,6,"12,7,3,6,10,4,2,11,9,15,13,8,5,14,1"
14267,commdev-image-keyboard-response,252,936167,learnblock1,516.9000000059605,img/planet4_left.png,4,Community 2,NA,TRUE,f,f,NA,NA,NA,1,6,"12,7,3,6,10,4,2,11,9,15,13,8,5,14,1"
14267,commdev-image-keyboard-response,253,937419,learnblock1,463.1000000089407,img/planet2_right.png,2,Community 2,NA,TRUE,j,j,NA,NA,NA,1,6,"12,7,3,6,10,4,2,11,9,15,13,8,5,14,1"
14267,commdev-image-keyboard-response,254,938670,learnblock1,519.5,img/planet15_right.png,15,Community 2,NA,TRUE,j,j,NA,NA,NA,1,6,"12,7,3,6,10,4,2,11,9,15,13,8,5,14,1"
14267,commdev-image-keyboard-response,255,939922,learnblock1,509.29999999701977,img/planet11_left.png,11,Community 2,NA,TRUE,f,f,NA,NA,NA,1,6,"12,7,3,6,10,4,2,11,9,15,13,8,5,14,1"
14267,commdev-image-keyboard-response,256,941174,learnblock1,717,img/planet8_left.png,8,Community 3,NA,TRUE,f,f,NA,NA,NA,1,6,"12,7,3,6,10,4,2,11,9,15,13,8,5,14,1"
14267,commdev-image-keyboard-response,257,942426,learnblock1,568.8999999910593,img/planet1_left.png,1,Community 3,NA,TRUE,f,f,NA,NA,NA,1,6,"12,7,3,6,10,4,2,11,9,15,13,8,5,14,1"
14267,commdev-image-keyboard-response,258,943678,learnblock1,566.7999999970198,img/planet14_right.png,14,Community 3,NA,FALSE,f,j,NA,NA,NA,1,6,"12,7,3,6,10,4,2,11,9,15,13,8,5,14,1"
14267,commdev-image-keyboard-response,259,944931,learnblock1,540.0999999940395,img/planet1_left.png,1,Community 3,NA,TRUE,f,f,NA,NA,NA,1,6,"12,7,3,6,10,4,2,11,9,15,13,8,5,14,1"
14267,commdev-image-keyboard-response,260,946183,learnblock1,531.7999999970198,img/planet13_left.png,13,Community 3,NA,TRUE,f,f,NA,NA,NA,1,6,"12,7,3,6,10,4,2,11,9,15,13,8,5,14,1"
14267,commdev-image-keyboard-response,261,947435,learnblock1,532.6000000089407,img/planet14_right.png,14,Community 3,NA,TRUE,j,j,NA,NA,NA,1,6,"12,7,3,6,10,4,2,11,9,15,13,8,5,14,1"
14267,commdev-image-keyboard-response,262,948688,learnblock1,406.8999999910593,img/planet13_left.png,13,Community 3,NA,TRUE,f,f,NA,NA,NA,1,6,"12,7,3,6,10,4,2,11,9,15,13,8,5,14,1"
14267,commdev-image-keyboard-response,263,949939,learnblock1,455.09999999403954,img/planet14_right.png,14,Community 3,NA,FALSE,f,j,NA,NA,NA,1,6,"12,7,3,6,10,4,2,11,9,15,13,8,5,14,1"
14267,commdev-image-keyboard-response,264,951191,learnblock1,696.7999999970198,img/planet13_right.png,13,Community 3,NA,TRUE,j,j,NA,NA,NA,1,6,"12,7,3,6,10,4,2,11,9,15,13,8,5,14,1"
14267,commdev-image-keyboard-response,265,952452,learnblock1,590.5,img/planet14_right.png,14,Community 3,NA,TRUE,j,j,NA,NA,NA,1,6,"12,7,3,6,10,4,2,11,9,15,13,8,5,14,1"
14267,commdev-image-keyboard-response,266,953704,learnblock1,552,img/planet8_left.png,8,Community 3,NA,TRUE,f,f,NA,NA,NA,1,6,"12,7,3,6,10,4,2,11,9,15,13,8,5,14,1"
14267,commdev-image-keyboard-response,267,954956,learnblock1,567.8999999910593,img/planet11_right.png,11,Community 2,NA,TRUE,j,j,NA,NA,NA,1,6,"12,7,3,6,10,4,2,11,9,15,13,8,5,14,1"
14267,commdev-image-keyboard-response,268,956208,learnblock1,648.5,img/planet15_right.png,15,Community 2,NA,TRUE,j,j,NA,NA,NA,1,6,"12,7,3,6,10,4,2,11,9,15,13,8,5,14,1"
14267,commdev-image-keyboard-response,269,957461,learnblock1,639,img/planet4_left.png,4,Community 2,NA,TRUE,f,f,NA,NA,NA,1,6,"12,7,3,6,10,4,2,11,9,15,13,8,5,14,1"
14267,commdev-image-keyboard-response,270,958713,learnblock1,641.9000000059605,img/planet9_left.png,9,Community 2,NA,TRUE,f,f,NA,NA,NA,1,6,"12,7,3,6,10,4,2,11,9,15,13,8,5,14,1"
14267,commdev-image-keyboard-response,271,959980,learnblock1,548.6999999880791,img/planet4_right.png,4,Community 2,NA,TRUE,j,j,NA,NA,NA,1,6,"12,7,3,6,10,4,2,11,9,15,13,8,5,14,1"
14267,commdev-image-keyboard-response,272,961231,learnblock1,535.2000000029802,img/planet9_right.png,9,Community 2,NA,TRUE,j,j,NA,NA,NA,1,6,"12,7,3,6,10,4,2,11,9,15,13,8,5,14,1"
14267,commdev-image-keyboard-response,273,962482,learnblock1,504,img/planet4_right.png,4,Community 2,NA,TRUE,j,j,NA,NA,NA,1,6,"12,7,3,6,10,4,2,11,9,15,13,8,5,14,1"
14267,commdev-image-keyboard-response,274,963734,learnblock1,483,img/planet9_left.png,9,Community 2,NA,TRUE,f,f,NA,NA,NA,1,6,"12,7,3,6,10,4,2,11,9,15,13,8,5,14,1"
14267,commdev-image-keyboard-response,275,964985,learnblock1,581.0999999940395,img/planet15_right.png,15,Community 2,NA,TRUE,j,j,NA,NA,NA,1,6,"12,7,3,6,10,4,2,11,9,15,13,8,5,14,1"
14267,commdev-image-keyboard-response,276,966237,learnblock1,490.29999999701977,img/planet2_left.png,2,Community 2,NA,TRUE,f,f,NA,NA,NA,1,6,"12,7,3,6,10,4,2,11,9,15,13,8,5,14,1"
14267,commdev-image-keyboard-response,277,967488,learnblock1,458.90000000596046,img/planet4_right.png,4,Community 2,NA,TRUE,j,j,NA,NA,NA,1,6,"12,7,3,6,10,4,2,11,9,15,13,8,5,14,1"
14267,commdev-image-keyboard-response,278,968740,learnblock1,472,img/planet9_right.png,9,Community 2,NA,TRUE,j,j,NA,NA,NA,1,6,"12,7,3,6,10,4,2,11,9,15,13,8,5,14,1"
14267,commdev-image-keyboard-response,279,969991,learnblock1,496.29999999701977,img/planet11_left.png,11,Community 2,NA,TRUE,f,f,NA,NA,NA,1,6,"12,7,3,6,10,4,2,11,9,15,13,8,5,14,1"
14267,commdev-image-keyboard-response,280,971243,learnblock1,558.2000000029802,img/planet8_right.png,8,Community 3,NA,TRUE,j,j,NA,NA,NA,1,6,"12,7,3,6,10,4,2,11,9,15,13,8,5,14,1"
14267,commdev-image-keyboard-response,281,972496,learnblock1,537.3000000119209,img/planet5_left.png,5,Community 3,NA,TRUE,f,f,NA,NA,NA,1,6,"12,7,3,6,10,4,2,11,9,15,13,8,5,14,1"
14267,commdev-image-keyboard-response,282,973748,learnblock1,505.79999999701977,img/planet1_right.png,1,Community 3,NA,TRUE,j,j,NA,NA,NA,1,6,"12,7,3,6,10,4,2,11,9,15,13,8,5,14,1"
14267,commdev-image-keyboard-response,283,975000,learnblock1,523.5999999940395,img/planet13_right.png,13,Community 3,NA,TRUE,j,j,NA,NA,NA,1,6,"12,7,3,6,10,4,2,11,9,15,13,8,5,14,1"
14267,commdev-image-keyboard-response,284,976252,learnblock1,490.70000000298023,img/planet1_right.png,1,Community 3,NA,TRUE,j,j,NA,NA,NA,1,6,"12,7,3,6,10,4,2,11,9,15,13,8,5,14,1"
14267,commdev-image-keyboard-response,285,977504,learnblock1,595.5999999940395,img/planet8_right.png,8,Community 3,NA,TRUE,j,j,NA,NA,NA,1,6,"12,7,3,6,10,4,2,11,9,15,13,8,5,14,1"
14267,commdev-image-keyboard-response,286,978756,learnblock1,499.40000000596046,img/planet1_right.png,1,Community 3,NA,TRUE,j,j,NA,NA,NA,1,6,"12,7,3,6,10,4,2,11,9,15,13,8,5,14,1"
14267,commdev-image-keyboard-response,287,980008,learnblock1,458,img/planet13_right.png,13,Community 3,NA,TRUE,j,j,NA,NA,NA,1,6,"12,7,3,6,10,4,2,11,9,15,13,8,5,14,1"
14267,commdev-image-keyboard-response,288,981259,learnblock1,443.29999999701977,img/planet5_right.png,5,Community 3,NA,TRUE,j,j,NA,NA,NA,1,6,"12,7,3,6,10,4,2,11,9,15,13,8,5,14,1"
14267,commdev-image-keyboard-response,289,982512,learnblock1,434.90000000596046,img/planet8_right.png,8,Community 3,NA,TRUE,j,j,NA,NA,NA,1,6,"12,7,3,6,10,4,2,11,9,15,13,8,5,14,1"
14267,commdev-image-keyboard-response,290,983764,learnblock1,540.3999999910593,img/planet14_left.png,14,Community 3,NA,TRUE,f,f,NA,NA,NA,1,6,"12,7,3,6,10,4,2,11,9,15,13,8,5,14,1"
14267,commdev-image-keyboard-response,291,985017,learnblock1,488.30000001192093,img/planet1_right.png,1,Community 3,NA,TRUE,j,j,NA,NA,NA,1,6,"12,7,3,6,10,4,2,11,9,15,13,8,5,14,1"
14267,commdev-image-keyboard-response,292,986268,learnblock1,537.2000000029802,img/planet14_right.png,14,Community 3,NA,TRUE,j,j,NA,NA,NA,1,6,"12,7,3,6,10,4,2,11,9,15,13,8,5,14,1"
14267,commdev-image-keyboard-response,293,987520,learnblock1,516.7999999970198,img/planet13_left.png,13,Community 3,NA,TRUE,f,f,NA,NA,NA,1,6,"12,7,3,6,10,4,2,11,9,15,13,8,5,14,1"
14267,commdev-image-keyboard-response,294,988771,learnblock1,443.5,img/planet10_left.png,10,Community 1,NA,TRUE,f,f,NA,NA,NA,1,6,"12,7,3,6,10,4,2,11,9,15,13,8,5,14,1"
14267,commdev-image-keyboard-response,295,990023,learnblock1,486,img/planet7_right.png,7,Community 1,NA,TRUE,j,j,NA,NA,NA,1,6,"12,7,3,6,10,4,2,11,9,15,13,8,5,14,1"
14267,commdev-image-keyboard-response,296,991273,learnblock1,520.7999999970198,img/planet12_right.png,12,Community 1,NA,TRUE,j,j,NA,NA,NA,1,6,"12,7,3,6,10,4,2,11,9,15,13,8,5,14,1"
14267,commdev-image-keyboard-response,297,992524,learnblock1,578.9000000059605,img/planet3_left.png,3,Community 1,NA,TRUE,f,f,NA,NA,NA,1,6,"12,7,3,6,10,4,2,11,9,15,13,8,5,14,1"
14267,commdev-image-keyboard-response,298,993776,learnblock1,517.6000000089407,img/planet12_left.png,12,Community 1,NA,TRUE,f,f,NA,NA,NA,1,6,"12,7,3,6,10,4,2,11,9,15,13,8,5,14,1"
14267,commdev-image-keyboard-response,299,995028,learnblock1,487.09999999403954,img/planet3_right.png,3,Community 1,NA,TRUE,j,j,NA,NA,NA,1,6,"12,7,3,6,10,4,2,11,9,15,13,8,5,14,1"
14267,commdev-image-keyboard-response,300,996278,learnblock1,572.7999999970198,img/planet6_left.png,6,Community 1,NA,TRUE,f,f,NA,NA,NA,1,6,"12,7,3,6,10,4,2,11,9,15,13,8,5,14,1"
14267,commdev-image-keyboard-response,301,997529,learnblock1,499.69999998807907,img/planet12_left.png,12,Community 1,NA,TRUE,f,f,NA,NA,NA,1,6,"12,7,3,6,10,4,2,11,9,15,13,8,5,14,1"
14267,commdev-image-keyboard-response,302,998781,learnblock1,551.7000000029802,img/planet3_left.png,3,Community 1,NA,TRUE,f,f,NA,NA,NA,1,6,"12,7,3,6,10,4,2,11,9,15,13,8,5,14,1"
14267,commdev-image-keyboard-response,303,1000034,learnblock1,474.1000000089407,img/planet12_right.png,12,Community 1,NA,TRUE,j,j,NA,NA,NA,1,6,"12,7,3,6,10,4,2,11,9,15,13,8,5,14,1"
14267,commdev-image-keyboard-response,304,1001287,learnblock1,680.7000000029802,img/planet3_right.png,3,Community 1,NA,FALSE,f,j,NA,NA,NA,1,6,"12,7,3,6,10,4,2,11,9,15,13,8,5,14,1"
14267,commdev-image-keyboard-response,305,1002543,learnblock1,725.0999999940395,img/planet6_right.png,6,Community 1,NA,TRUE,j,j,NA,NA,NA,1,6,"12,7,3,6,10,4,2,11,9,15,13,8,5,14,1"
14267,commdev-image-keyboard-response,306,1003795,learnblock1,597.7000000029802,img/planet4_right.png,4,Community 2,NA,TRUE,j,j,NA,NA,NA,1,6,"12,7,3,6,10,4,2,11,9,15,13,8,5,14,1"
14267,commdev-image-keyboard-response,307,1005047,learnblock1,587.5,img/planet15_right.png,15,Community 2,NA,TRUE,j,j,NA,NA,NA,1,6,"12,7,3,6,10,4,2,11,9,15,13,8,5,14,1"
14267,commdev-image-keyboard-response,308,1006300,learnblock1,516.1000000089407,img/planet2_left.png,2,Community 2,NA,TRUE,f,f,NA,NA,NA,1,6,"12,7,3,6,10,4,2,11,9,15,13,8,5,14,1"
14267,commdev-image-keyboard-response,309,1007552,learnblock1,475.69999998807907,img/planet11_left.png,11,Community 2,NA,TRUE,f,f,NA,NA,NA,1,6,"12,7,3,6,10,4,2,11,9,15,13,8,5,14,1"
14267,commdev-image-keyboard-response,310,1008804,learnblock1,589.4000000059605,img/planet8_left.png,8,Community 3,NA,TRUE,f,f,NA,NA,NA,1,6,"12,7,3,6,10,4,2,11,9,15,13,8,5,14,1"
14267,commdev-image-keyboard-response,311,1010055,learnblock1,479.70000000298023,img/planet1_left.png,1,Community 3,NA,TRUE,f,f,NA,NA,NA,1,6,"12,7,3,6,10,4,2,11,9,15,13,8,5,14,1"
14267,commdev-image-keyboard-response,312,1011306,learnblock1,406.20000000298023,img/planet5_left.png,5,Community 3,NA,TRUE,f,f,NA,NA,NA,1,6,"12,7,3,6,10,4,2,11,9,15,13,8,5,14,1"
14267,commdev-image-keyboard-response,313,1012558,learnblock1,502.29999999701977,img/planet14_left.png,14,Community 3,NA,TRUE,f,f,NA,NA,NA,1,6,"12,7,3,6,10,4,2,11,9,15,13,8,5,14,1"
14267,commdev-image-keyboard-response,314,1013821,learnblock1,522.5999999940395,img/planet13_right.png,13,Community 3,NA,TRUE,j,j,NA,NA,NA,1,6,"12,7,3,6,10,4,2,11,9,15,13,8,5,14,1"
14267,commdev-image-keyboard-response,315,1015072,learnblock1,557.1999999880791,img/planet10_left.png,10,Community 1,NA,TRUE,f,f,NA,NA,NA,1,6,"12,7,3,6,10,4,2,11,9,15,13,8,5,14,1"
14267,commdev-image-keyboard-response,316,1016328,learnblock1,569,img/planet3_right.png,3,Community 1,NA,TRUE,j,j,NA,NA,NA,1,6,"12,7,3,6,10,4,2,11,9,15,13,8,5,14,1"
14267,commdev-image-keyboard-response,317,1017580,learnblock1,539.7000000029802,img/planet6_right.png,6,Community 1,NA,TRUE,j,j,NA,NA,NA,1,6,"12,7,3,6,10,4,2,11,9,15,13,8,5,14,1"
14267,commdev-image-keyboard-response,318,1018833,learnblock1,558.7999999970198,img/planet4_left.png,4,Community 2,NA,TRUE,f,f,NA,NA,NA,1,6,"12,7,3,6,10,4,2,11,9,15,13,8,5,14,1"
14267,commdev-image-keyboard-response,319,1020084,learnblock1,617.7999999970198,img/planet6_right.png,6,Community 1,NA,TRUE,j,j,NA,NA,NA,1,6,"12,7,3,6,10,4,2,11,9,15,13,8,5,14,1"
14267,commdev-image-keyboard-response,320,1021335,learnblock1,545.4000000059605,img/planet7_right.png,7,Community 1,NA,TRUE,j,j,NA,NA,NA,1,6,"12,7,3,6,10,4,2,11,9,15,13,8,5,14,1"
14267,commdev-image-keyboard-response,321,1022586,learnblock1,588.5,img/planet10_right.png,10,Community 1,NA,TRUE,j,j,NA,NA,NA,1,6,"12,7,3,6,10,4,2,11,9,15,13,8,5,14,1"
14267,commdev-image-keyboard-response,322,1023837,learnblock1,501.1000000089407,img/planet12_right.png,12,Community 1,NA,TRUE,j,j,NA,NA,NA,1,6,"12,7,3,6,10,4,2,11,9,15,13,8,5,14,1"
14267,commdev-image-keyboard-response,323,1025088,learnblock1,589.2000000029802,img/planet6_right.png,6,Community 1,NA,TRUE,j,j,NA,NA,NA,1,6,"12,7,3,6,10,4,2,11,9,15,13,8,5,14,1"
14267,commdev-image-keyboard-response,324,1026339,learnblock1,647.3999999910593,img/planet7_left.png,7,Community 1,NA,TRUE,f,f,NA,NA,NA,1,6,"12,7,3,6,10,4,2,11,9,15,13,8,5,14,1"
14267,commdev-image-keyboard-response,325,1027591,learnblock1,600.6000000089407,img/planet3_left.png,3,Community 1,NA,TRUE,f,f,NA,NA,NA,1,6,"12,7,3,6,10,4,2,11,9,15,13,8,5,14,1"
14267,commdev-image-keyboard-response,326,1028843,learnblock1,432.3999999910593,img/planet12_left.png,12,Community 1,NA,TRUE,f,f,NA,NA,NA,1,6,"12,7,3,6,10,4,2,11,9,15,13,8,5,14,1"
14267,commdev-image-keyboard-response,327,1030096,learnblock1,461.8999999910593,img/planet6_left.png,6,Community 1,NA,TRUE,f,f,NA,NA,NA,1,6,"12,7,3,6,10,4,2,11,9,15,13,8,5,14,1"
14267,commdev-image-keyboard-response,328,1031347,learnblock1,349.5,img/planet12_right.png,12,Community 1,NA,FALSE,f,j,NA,NA,NA,1,6,"12,7,3,6,10,4,2,11,9,15,13,8,5,14,1"
14267,commdev-image-keyboard-response,329,1032599,learnblock1,544,img/planet6_right.png,6,Community 1,NA,TRUE,j,j,NA,NA,NA,1,6,"12,7,3,6,10,4,2,11,9,15,13,8,5,14,1"
14267,commdev-image-keyboard-response,330,1033851,learnblock1,516.4000000059605,img/planet3_left.png,3,Community 1,NA,TRUE,f,f,NA,NA,NA,1,6,"12,7,3,6,10,4,2,11,9,15,13,8,5,14,1"
14267,commdev-image-keyboard-response,331,1035103,learnblock1,556.7000000029802,img/planet12_left.png,12,Community 1,NA,TRUE,f,f,NA,NA,NA,1,6,"12,7,3,6,10,4,2,11,9,15,13,8,5,14,1"
14267,commdev-image-keyboard-response,332,1036354,learnblock1,476,img/planet6_right.png,6,Community 1,NA,TRUE,j,j,NA,NA,NA,1,6,"12,7,3,6,10,4,2,11,9,15,13,8,5,14,1"
14267,commdev-image-keyboard-response,333,1037606,learnblock1,560.2000000029802,img/planet7_right.png,7,Community 1,NA,TRUE,j,j,NA,NA,NA,1,6,"12,7,3,6,10,4,2,11,9,15,13,8,5,14,1"
14267,commdev-image-keyboard-response,334,1038858,learnblock1,584.2000000029802,img/planet12_right.png,12,Community 1,NA,TRUE,j,j,NA,NA,NA,1,6,"12,7,3,6,10,4,2,11,9,15,13,8,5,14,1"
14267,commdev-image-keyboard-response,335,1040109,learnblock1,558,img/planet7_left.png,7,Community 1,NA,TRUE,f,f,NA,NA,NA,1,6,"12,7,3,6,10,4,2,11,9,15,13,8,5,14,1"
14267,commdev-image-keyboard-response,336,1041361,learnblock1,515.5999999940395,img/planet12_left.png,12,Community 1,NA,TRUE,f,f,NA,NA,NA,1,6,"12,7,3,6,10,4,2,11,9,15,13,8,5,14,1"
14267,commdev-image-keyboard-response,337,1042612,learnblock1,525.9000000059605,img/planet3_right.png,3,Community 1,NA,TRUE,j,j,NA,NA,NA,1,6,"12,7,3,6,10,4,2,11,9,15,13,8,5,14,1"
14267,commdev-image-keyboard-response,338,1043864,learnblock1,485.79999999701977,img/planet6_left.png,6,Community 1,NA,TRUE,f,f,NA,NA,NA,1,6,"12,7,3,6,10,4,2,11,9,15,13,8,5,14,1"
14267,commdev-image-keyboard-response,339,1045115,learnblock1,583.5999999940395,img/planet7_right.png,7,Community 1,NA,TRUE,j,j,NA,NA,NA,1,6,"12,7,3,6,10,4,2,11,9,15,13,8,5,14,1"
14267,commdev-image-keyboard-response,340,1046366,learnblock1,612.2000000029802,img/planet3_right.png,3,Community 1,NA,TRUE,j,j,NA,NA,NA,1,6,"12,7,3,6,10,4,2,11,9,15,13,8,5,14,1"
14267,commdev-image-keyboard-response,341,1047618,learnblock1,567,img/planet7_left.png,7,Community 1,NA,TRUE,f,f,NA,NA,NA,1,6,"12,7,3,6,10,4,2,11,9,15,13,8,5,14,1"
14267,commdev-image-keyboard-response,342,1048871,learnblock1,631.1000000089407,img/planet10_right.png,10,Community 1,NA,TRUE,j,j,NA,NA,NA,1,6,"12,7,3,6,10,4,2,11,9,15,13,8,5,14,1"
14267,commdev-image-keyboard-response,343,1050123,learnblock1,653.9000000059605,img/planet13_right.png,13,Community 3,NA,TRUE,j,j,NA,NA,NA,1,6,"12,7,3,6,10,4,2,11,9,15,13,8,5,14,1"
14267,commdev-image-keyboard-response,344,1051375,learnblock1,648.4000000059605,img/planet14_left.png,14,Community 3,NA,TRUE,f,f,NA,NA,NA,1,6,"12,7,3,6,10,4,2,11,9,15,13,8,5,14,1"
14267,commdev-image-keyboard-response,345,1052627,learnblock1,569.2000000029802,img/planet1_right.png,1,Community 3,NA,TRUE,j,j,NA,NA,NA,1,6,"12,7,3,6,10,4,2,11,9,15,13,8,5,14,1"
14267,commdev-image-keyboard-response,346,1053886,learnblock1,531.7000000029802,img/planet13_right.png,13,Community 3,NA,FALSE,f,j,NA,NA,NA,1,6,"12,7,3,6,10,4,2,11,9,15,13,8,5,14,1"
14267,commdev-image-keyboard-response,347,1055137,learnblock1,506.09999999403954,img/planet14_left.png,14,Community 3,NA,FALSE,j,f,NA,NA,NA,1,6,"12,7,3,6,10,4,2,11,9,15,13,8,5,14,1"
14267,commdev-image-keyboard-response,348,1056389,learnblock1,650.9000000059605,img/planet8_left.png,8,Community 3,NA,FALSE,j,f,NA,NA,NA,1,6,"12,7,3,6,10,4,2,11,9,15,13,8,5,14,1"
14267,commdev-image-keyboard-response,349,1057641,learnblock1,839.7999999970198,img/planet14_right.png,14,Community 3,NA,FALSE,f,j,NA,NA,NA,1,6,"12,7,3,6,10,4,2,11,9,15,13,8,5,14,1"
14267,commdev-image-keyboard-response,350,1058894,learnblock1,699.3999999910593,img/planet13_left.png,13,Community 3,NA,TRUE,f,f,NA,NA,NA,1,6,"12,7,3,6,10,4,2,11,9,15,13,8,5,14,1"
14267,commdev-image-keyboard-response,351,1060146,learnblock1,505.09999999403954,img/planet1_right.png,1,Community 3,NA,TRUE,j,j,NA,NA,NA,1,6,"12,7,3,6,10,4,2,11,9,15,13,8,5,14,1"
14267,commdev-image-keyboard-response,352,1061399,learnblock1,483.1000000089407,img/planet5_right.png,5,Community 3,NA,FALSE,f,j,NA,NA,NA,1,6,"12,7,3,6,10,4,2,11,9,15,13,8,5,14,1"
14267,commdev-image-keyboard-response,353,1062650,learnblock1,439.3999999910593,img/planet1_left.png,1,Community 3,NA,TRUE,f,f,NA,NA,NA,1,6,"12,7,3,6,10,4,2,11,9,15,13,8,5,14,1"
14267,commdev-image-keyboard-response,354,1063902,learnblock1,528.6000000089407,img/planet14_right.png,14,Community 3,NA,TRUE,j,j,NA,NA,NA,1,6,"12,7,3,6,10,4,2,11,9,15,13,8,5,14,1"
14267,commdev-image-keyboard-response,355,1065154,learnblock1,583.3999999910593,img/planet13_right.png,13,Community 3,NA,TRUE,j,j,NA,NA,NA,1,6,"12,7,3,6,10,4,2,11,9,15,13,8,5,14,1"
14267,commdev-image-keyboard-response,356,1066407,learnblock1,566,img/planet10_right.png,10,Community 1,NA,TRUE,j,j,NA,NA,NA,1,6,"12,7,3,6,10,4,2,11,9,15,13,8,5,14,1"
14267,commdev-image-keyboard-response,357,1067658,learnblock1,554.1000000089407,img/planet3_right.png,3,Community 1,NA,TRUE,j,j,NA,NA,NA,1,6,"12,7,3,6,10,4,2,11,9,15,13,8,5,14,1"
14267,commdev-image-keyboard-response,358,1068911,learnblock1,598.6000000089407,img/planet12_left.png,12,Community 1,NA,TRUE,f,f,NA,NA,NA,1,6,"12,7,3,6,10,4,2,11,9,15,13,8,5,14,1"
14267,commdev-image-keyboard-response,359,1070163,learnblock1,766,img/planet7_right.png,7,Community 1,NA,TRUE,j,j,NA,NA,NA,1,6,"12,7,3,6,10,4,2,11,9,15,13,8,5,14,1"
14267,commdev-image-keyboard-response,360,1071415,learnblock1,781.5999999940395,img/planet12_right.png,12,Community 1,NA,TRUE,j,j,NA,NA,NA,1,6,"12,7,3,6,10,4,2,11,9,15,13,8,5,14,1"
14267,commdev-image-keyboard-response,361,1072667,learnblock1,622.2999999970198,img/planet6_left.png,6,Community 1,NA,TRUE,f,f,NA,NA,NA,1,6,"12,7,3,6,10,4,2,11,9,15,13,8,5,14,1"
14267,commdev-image-keyboard-response,362,1073920,learnblock1,596.9000000059605,img/planet7_left.png,7,Community 1,NA,TRUE,f,f,NA,NA,NA,1,6,"12,7,3,6,10,4,2,11,9,15,13,8,5,14,1"
14267,commdev-image-keyboard-response,363,1075172,learnblock1,579.5,img/planet6_right.png,6,Community 1,NA,TRUE,j,j,NA,NA,NA,1,6,"12,7,3,6,10,4,2,11,9,15,13,8,5,14,1"
14267,commdev-image-keyboard-response,364,1076423,learnblock1,633.5999999940395,img/planet12_left.png,12,Community 1,NA,TRUE,f,f,NA,NA,NA,1,6,"12,7,3,6,10,4,2,11,9,15,13,8,5,14,1"
14267,commdev-image-keyboard-response,365,1077682,learnblock1,579.5,img/planet10_left.png,10,Community 1,NA,TRUE,f,f,NA,NA,NA,1,6,"12,7,3,6,10,4,2,11,9,15,13,8,5,14,1"
14267,commdev-image-keyboard-response,366,1078934,learnblock1,450.79999999701977,img/planet13_right.png,13,Community 3,NA,TRUE,j,j,NA,NA,NA,1,6,"12,7,3,6,10,4,2,11,9,15,13,8,5,14,1"
14267,commdev-image-keyboard-response,367,1080186,learnblock1,431.20000000298023,img/planet10_right.png,10,Community 1,NA,TRUE,j,j,NA,NA,NA,1,6,"12,7,3,6,10,4,2,11,9,15,13,8,5,14,1"
14267,commdev-image-keyboard-response,368,1081439,learnblock1,491.90000000596046,img/planet13_right.png,13,Community 3,NA,TRUE,j,j,NA,NA,NA,1,6,"12,7,3,6,10,4,2,11,9,15,13,8,5,14,1"
14267,commdev-image-keyboard-response,369,1082691,learnblock1,444.09999999403954,img/planet1_right.png,1,Community 3,NA,TRUE,j,j,NA,NA,NA,1,6,"12,7,3,6,10,4,2,11,9,15,13,8,5,14,1"
14267,commdev-image-keyboard-response,370,1083943,learnblock1,488.90000000596046,img/planet5_right.png,5,Community 3,NA,TRUE,j,j,NA,NA,NA,1,6,"12,7,3,6,10,4,2,11,9,15,13,8,5,14,1"
14267,commdev-image-keyboard-response,371,1085195,learnblock1,546.7000000029802,img/planet14_right.png,14,Community 3,NA,TRUE,j,j,NA,NA,NA,1,6,"12,7,3,6,10,4,2,11,9,15,13,8,5,14,1"
14267,commdev-image-keyboard-response,372,1086447,learnblock1,760.0999999940395,img/planet8_left.png,8,Community 3,NA,TRUE,f,f,NA,NA,NA,1,6,"12,7,3,6,10,4,2,11,9,15,13,8,5,14,1"
14267,commdev-image-keyboard-response,373,1087699,learnblock1,667.4000000059605,img/planet14_left.png,14,Community 3,NA,TRUE,f,f,NA,NA,NA,1,6,"12,7,3,6,10,4,2,11,9,15,13,8,5,14,1"
14267,commdev-image-keyboard-response,374,1088950,learnblock1,561,img/planet13_left.png,13,Community 3,NA,TRUE,f,f,NA,NA,NA,1,6,"12,7,3,6,10,4,2,11,9,15,13,8,5,14,1"
14267,commdev-image-keyboard-response,375,1090203,learnblock1,1031.199999988079,img/planet14_right.png,14,Community 3,NA,TRUE,j,j,NA,NA,NA,1,6,"12,7,3,6,10,4,2,11,9,15,13,8,5,14,1"
14267,commdev-image-keyboard-response,376,1091454,learnblock1,774.7000000029802,img/planet1_right.png,1,Community 3,NA,TRUE,j,j,NA,NA,NA,1,6,"12,7,3,6,10,4,2,11,9,15,13,8,5,14,1"
14267,commdev-image-keyboard-response,377,1092705,learnblock1,730.2000000029802,img/planet14_left.png,14,Community 3,NA,TRUE,f,f,NA,NA,NA,1,6,"12,7,3,6,10,4,2,11,9,15,13,8,5,14,1"
14267,commdev-image-keyboard-response,378,1093957,learnblock1,629.8999999910593,img/planet8_left.png,8,Community 3,NA,FALSE,j,f,NA,NA,NA,1,6,"12,7,3,6,10,4,2,11,9,15,13,8,5,14,1"
14267,commdev-image-keyboard-response,379,1095209,learnblock1,505.29999999701977,img/planet14_right.png,14,Community 3,NA,TRUE,j,j,NA,NA,NA,1,6,"12,7,3,6,10,4,2,11,9,15,13,8,5,14,1"
14267,commdev-image-keyboard-response,380,1096460,learnblock1,505.29999999701977,img/planet13_right.png,13,Community 3,NA,TRUE,j,j,NA,NA,NA,1,6,"12,7,3,6,10,4,2,11,9,15,13,8,5,14,1"
14267,commdev-image-keyboard-response,381,1097711,learnblock1,464.79999999701977,img/planet10_right.png,10,Community 1,NA,TRUE,j,j,NA,NA,NA,1,6,"12,7,3,6,10,4,2,11,9,15,13,8,5,14,1"
14267,commdev-image-keyboard-response,382,1098963,learnblock1,489.5,img/planet13_right.png,13,Community 3,NA,TRUE,j,j,NA,NA,NA,1,6,"12,7,3,6,10,4,2,11,9,15,13,8,5,14,1"
14267,commdev-image-keyboard-response,383,1100215,learnblock1,510.59999999403954,img/planet10_left.png,10,Community 1,NA,TRUE,f,f,NA,NA,NA,1,6,"12,7,3,6,10,4,2,11,9,15,13,8,5,14,1"
14267,commdev-image-keyboard-response,384,1101466,learnblock1,540.8999999910593,img/planet12_left.png,12,Community 1,NA,TRUE,f,f,NA,NA,NA,1,6,"12,7,3,6,10,4,2,11,9,15,13,8,5,14,1"
14267,commdev-image-keyboard-response,385,1102718,learnblock1,503.8999999910593,img/planet7_right.png,7,Community 1,NA,TRUE,j,j,NA,NA,NA,1,6,"12,7,3,6,10,4,2,11,9,15,13,8,5,14,1"
14267,commdev-image-keyboard-response,386,1103969,learnblock1,474.6000000089407,img/planet6_right.png,6,Community 1,NA,TRUE,j,j,NA,NA,NA,1,6,"12,7,3,6,10,4,2,11,9,15,13,8,5,14,1"
14267,commdev-image-keyboard-response,387,1105220,learnblock1,464.70000000298023,img/planet12_right.png,12,Community 1,NA,TRUE,j,j,NA,NA,NA,1,6,"12,7,3,6,10,4,2,11,9,15,13,8,5,14,1"
14267,commdev-image-keyboard-response,388,1106472,learnblock1,442.70000000298023,img/planet10_right.png,10,Community 1,NA,TRUE,j,j,NA,NA,NA,1,6,"12,7,3,6,10,4,2,11,9,15,13,8,5,14,1"
14267,commdev-image-keyboard-response,389,1107724,learnblock1,569.2999999970198,img/planet13_left.png,13,Community 3,NA,TRUE,f,f,NA,NA,NA,1,6,"12,7,3,6,10,4,2,11,9,15,13,8,5,14,1"
14267,commdev-image-keyboard-response,390,1108977,learnblock1,474.59999999403954,img/planet10_left.png,10,Community 1,NA,TRUE,f,f,NA,NA,NA,1,6,"12,7,3,6,10,4,2,11,9,15,13,8,5,14,1"
14267,commdev-image-keyboard-response,391,1110228,learnblock1,503,img/planet3_right.png,3,Community 1,NA,TRUE,j,j,NA,NA,NA,1,6,"12,7,3,6,10,4,2,11,9,15,13,8,5,14,1"
14267,commdev-image-keyboard-response,392,1111481,learnblock1,456.70000000298023,img/planet10_left.png,10,Community 1,NA,TRUE,f,f,NA,NA,NA,1,6,"12,7,3,6,10,4,2,11,9,15,13,8,5,14,1"
14267,commdev-image-keyboard-response,393,1112732,learnblock1,448.3999999910593,img/planet7_left.png,7,Community 1,NA,TRUE,f,f,NA,NA,NA,1,6,"12,7,3,6,10,4,2,11,9,15,13,8,5,14,1"
14267,commdev-image-keyboard-response,394,1113984,learnblock1,447.1000000089407,img/planet3_right.png,3,Community 1,NA,FALSE,f,j,NA,NA,NA,1,6,"12,7,3,6,10,4,2,11,9,15,13,8,5,14,1"
14267,commdev-image-keyboard-response,395,1115236,learnblock1,525.7999999970198,img/planet6_right.png,6,Community 1,NA,TRUE,j,j,NA,NA,NA,1,6,"12,7,3,6,10,4,2,11,9,15,13,8,5,14,1"
14267,commdev-image-keyboard-response,396,1116489,learnblock1,611.5999999940395,img/planet12_left.png,12,Community 1,NA,FALSE,j,f,NA,NA,NA,1,6,"12,7,3,6,10,4,2,11,9,15,13,8,5,14,1"
14267,commdev-image-keyboard-response,397,1117740,learnblock1,674.2000000029802,img/planet7_left.png,7,Community 1,NA,TRUE,f,f,NA,NA,NA,1,6,"12,7,3,6,10,4,2,11,9,15,13,8,5,14,1"
14267,commdev-image-keyboard-response,398,1118992,learnblock1,622.2999999970198,img/planet3_right.png,3,Community 1,NA,TRUE,j,j,NA,NA,NA,1,6,"12,7,3,6,10,4,2,11,9,15,13,8,5,14,1"
14267,commdev-image-keyboard-response,399,1120245,learnblock1,1061.5999999940395,img/planet12_right.png,12,Community 1,NA,TRUE,j,j,NA,NA,NA,1,6,"12,7,3,6,10,4,2,11,9,15,13,8,5,14,1"
14267,commdev-image-keyboard-response,400,1121496,learnblock1,752,img/planet3_right.png,3,Community 1,NA,TRUE,j,j,NA,NA,NA,1,6,"12,7,3,6,10,4,2,11,9,15,13,8,5,14,1"
14267,commdev-image-keyboard-response,401,1122748,learnblock1,607.1000000089407,img/planet7_right.png,7,Community 1,NA,TRUE,j,j,NA,NA,NA,1,6,"12,7,3,6,10,4,2,11,9,15,13,8,5,14,1"
14267,commdev-image-keyboard-response,402,1124000,learnblock1,537.9000000059605,img/planet6_left.png,6,Community 1,NA,TRUE,f,f,NA,NA,NA,1,6,"12,7,3,6,10,4,2,11,9,15,13,8,5,14,1"
14267,commdev-image-keyboard-response,403,1125252,learnblock1,510.90000000596046,img/planet4_right.png,4,Community 2,NA,TRUE,j,j,NA,NA,NA,1,6,"12,7,3,6,10,4,2,11,9,15,13,8,5,14,1"
14267,commdev-image-keyboard-response,404,1126504,learnblock1,518.8999999910593,img/planet6_right.png,6,Community 1,NA,TRUE,j,j,NA,NA,NA,1,6,"12,7,3,6,10,4,2,11,9,15,13,8,5,14,1"
14267,commdev-image-keyboard-response,405,1127756,learnblock1,587.5,img/planet3_left.png,3,Community 1,NA,TRUE,f,f,NA,NA,NA,1,6,"12,7,3,6,10,4,2,11,9,15,13,8,5,14,1"
14267,commdev-image-keyboard-response,406,1129008,learnblock1,950.2999999970198,img/planet12_left.png,12,Community 1,NA,TRUE,f,f,NA,NA,NA,1,6,"12,7,3,6,10,4,2,11,9,15,13,8,5,14,1"
14267,commdev-image-keyboard-response,407,1130260,learnblock1,626.2999999970198,img/planet3_left.png,3,Community 1,NA,TRUE,f,f,NA,NA,NA,1,6,"12,7,3,6,10,4,2,11,9,15,13,8,5,14,1"
14267,commdev-image-keyboard-response,408,1131512,learnblock1,517.2000000029802,img/planet10_right.png,10,Community 1,NA,TRUE,j,j,NA,NA,NA,1,6,"12,7,3,6,10,4,2,11,9,15,13,8,5,14,1"
14267,commdev-image-keyboard-response,409,1132763,learnblock1,466,img/planet7_left.png,7,Community 1,NA,TRUE,f,f,NA,NA,NA,1,6,"12,7,3,6,10,4,2,11,9,15,13,8,5,14,1"
14267,commdev-image-keyboard-response,410,1134015,learnblock1,444.70000000298023,img/planet10_right.png,10,Community 1,NA,TRUE,j,j,NA,NA,NA,1,6,"12,7,3,6,10,4,2,11,9,15,13,8,5,14,1"
14267,commdev-image-keyboard-response,411,1135267,learnblock1,518.4000000059605,img/planet12_right.png,12,Community 1,NA,TRUE,j,j,NA,NA,NA,1,6,"12,7,3,6,10,4,2,11,9,15,13,8,5,14,1"
14267,commdev-image-keyboard-response,412,1136519,learnblock1,629.0999999940395,img/planet6_right.png,6,Community 1,NA,TRUE,j,j,NA,NA,NA,1,6,"12,7,3,6,10,4,2,11,9,15,13,8,5,14,1"
14267,commdev-image-keyboard-response,413,1137772,learnblock1,569.2999999970198,img/planet12_right.png,12,Community 1,NA,TRUE,j,j,NA,NA,NA,1,6,"12,7,3,6,10,4,2,11,9,15,13,8,5,14,1"
14267,commdev-image-keyboard-response,414,1139030,learnblock1,520.8000000119209,img/planet6_right.png,6,Community 1,NA,TRUE,j,j,NA,NA,NA,1,6,"12,7,3,6,10,4,2,11,9,15,13,8,5,14,1"
14267,commdev-image-keyboard-response,415,1140283,learnblock1,525,img/planet12_left.png,12,Community 1,NA,TRUE,f,f,NA,NA,NA,1,6,"12,7,3,6,10,4,2,11,9,15,13,8,5,14,1"
14267,commdev-image-keyboard-response,416,1141535,learnblock1,460.59999999403954,img/planet10_right.png,10,Community 1,NA,TRUE,j,j,NA,NA,NA,1,6,"12,7,3,6,10,4,2,11,9,15,13,8,5,14,1"
14267,commdev-image-keyboard-response,417,1142787,learnblock1,450.6000000089407,img/planet12_right.png,12,Community 1,NA,TRUE,j,j,NA,NA,NA,1,6,"12,7,3,6,10,4,2,11,9,15,13,8,5,14,1"
14267,commdev-image-keyboard-response,418,1144040,learnblock1,616.2999999970198,img/planet3_left.png,3,Community 1,NA,TRUE,f,f,NA,NA,NA,1,6,"12,7,3,6,10,4,2,11,9,15,13,8,5,14,1"
14267,commdev-image-keyboard-response,419,1145291,learnblock1,474.30000001192093,img/planet12_right.png,12,Community 1,NA,TRUE,j,j,NA,NA,NA,1,6,"12,7,3,6,10,4,2,11,9,15,13,8,5,14,1"
14267,commdev-image-keyboard-response,420,1146543,learnblock1,622,img/planet3_left.png,3,Community 1,NA,TRUE,f,f,NA,NA,NA,1,6,"12,7,3,6,10,4,2,11,9,15,13,8,5,14,1"
14267,commdev-image-keyboard-response,421,1147795,learnblock1,568.0999999940395,img/planet6_left.png,6,Community 1,NA,TRUE,f,f,NA,NA,NA,1,6,"12,7,3,6,10,4,2,11,9,15,13,8,5,14,1"
14267,commdev-image-keyboard-response,422,1149047,learnblock1,573.8000000119209,img/planet3_left.png,3,Community 1,NA,TRUE,f,f,NA,NA,NA,1,6,"12,7,3,6,10,4,2,11,9,15,13,8,5,14,1"
14267,commdev-image-keyboard-response,423,1150299,learnblock1,524.1999999880791,img/planet12_right.png,12,Community 1,NA,TRUE,j,j,NA,NA,NA,1,6,"12,7,3,6,10,4,2,11,9,15,13,8,5,14,1"
14267,commdev-image-keyboard-response,424,1151551,learnblock1,609.1000000089407,img/planet7_right.png,7,Community 1,NA,TRUE,j,j,NA,NA,NA,1,6,"12,7,3,6,10,4,2,11,9,15,13,8,5,14,1"
14267,commdev-image-keyboard-response,425,1152804,learnblock1,639.6000000089407,img/planet3_right.png,3,Community 1,NA,TRUE,j,j,NA,NA,NA,1,6,"12,7,3,6,10,4,2,11,9,15,13,8,5,14,1"
14267,commdev-image-keyboard-response,426,1154055,learnblock1,591,img/planet12_right.png,12,Community 1,NA,FALSE,f,j,NA,NA,NA,1,6,"12,7,3,6,10,4,2,11,9,15,13,8,5,14,1"
14267,commdev-image-keyboard-response,427,1155307,learnblock1,602,img/planet3_left.png,3,Community 1,NA,TRUE,f,f,NA,NA,NA,1,6,"12,7,3,6,10,4,2,11,9,15,13,8,5,14,1"
14267,commdev-image-keyboard-response,431,1240571,learnblock2,758.1000000089407,img/planet4_left.png,4,Community 2,NA,TRUE,f,f,NA,NA,NA,1,6,"12,7,3,6,10,4,2,11,9,15,13,8,5,14,1"
14267,commdev-image-keyboard-response,432,1241823,learnblock2,545.3999999910593,img/planet15_left.png,15,Community 2,NA,TRUE,f,f,NA,NA,NA,1,6,"12,7,3,6,10,4,2,11,9,15,13,8,5,14,1"
14267,commdev-image-keyboard-response,433,1243074,learnblock2,514.7000000029802,img/planet9_right.png,9,Community 2,NA,TRUE,j,j,NA,NA,NA,1,6,"12,7,3,6,10,4,2,11,9,15,13,8,5,14,1"
14267,commdev-image-keyboard-response,434,1244325,learnblock2,556.7999999970198,img/planet15_right.png,15,Community 2,NA,TRUE,j,j,NA,NA,NA,1,6,"12,7,3,6,10,4,2,11,9,15,13,8,5,14,1"
14267,commdev-image-keyboard-response,435,1245577,learnblock2,559.0999999940395,img/planet2_left.png,2,Community 2,NA,TRUE,f,f,NA,NA,NA,1,6,"12,7,3,6,10,4,2,11,9,15,13,8,5,14,1"
14267,commdev-image-keyboard-response,436,1246828,learnblock2,589.5999999940395,img/planet11_right.png,11,Community 2,NA,TRUE,j,j,NA,NA,NA,1,6,"12,7,3,6,10,4,2,11,9,15,13,8,5,14,1"
14267,commdev-image-keyboard-response,437,1248080,learnblock2,521,img/planet2_right.png,2,Community 2,NA,TRUE,j,j,NA,NA,NA,1,6,"12,7,3,6,10,4,2,11,9,15,13,8,5,14,1"
14267,commdev-image-keyboard-response,438,1249331,learnblock2,567.3999999910593,img/planet15_left.png,15,Community 2,NA,TRUE,f,f,NA,NA,NA,1,6,"12,7,3,6,10,4,2,11,9,15,13,8,5,14,1"
14267,commdev-image-keyboard-response,439,1250582,learnblock2,377.8999999910593,img/planet4_right.png,4,Community 2,NA,TRUE,j,j,NA,NA,NA,1,6,"12,7,3,6,10,4,2,11,9,15,13,8,5,14,1"
14267,commdev-image-keyboard-response,440,1251835,learnblock2,385.29999999701977,img/planet9_left.png,9,Community 2,NA,TRUE,f,f,NA,NA,NA,1,6,"12,7,3,6,10,4,2,11,9,15,13,8,5,14,1"
14267,commdev-image-keyboard-response,441,1253097,learnblock2,458.5,img/planet15_right.png,15,Community 2,NA,FALSE,f,j,NA,NA,NA,1,6,"12,7,3,6,10,4,2,11,9,15,13,8,5,14,1"
14267,commdev-image-keyboard-response,442,1254349,learnblock2,433.3999999910593,img/planet4_left.png,4,Community 2,NA,TRUE,f,f,NA,NA,NA,1,6,"12,7,3,6,10,4,2,11,9,15,13,8,5,14,1"
14267,commdev-image-keyboard-response,443,1255602,learnblock2,485.5,img/planet15_right.png,15,Community 2,NA,TRUE,j,j,NA,NA,NA,1,6,"12,7,3,6,10,4,2,11,9,15,13,8,5,14,1"
14267,commdev-image-keyboard-response,444,1256854,learnblock2,446.59999999403954,img/planet11_left.png,11,Community 2,NA,TRUE,f,f,NA,NA,NA,1,6,"12,7,3,6,10,4,2,11,9,15,13,8,5,14,1"
14267,commdev-image-keyboard-response,445,1258105,learnblock2,477.79999999701977,img/planet8_right.png,8,Community 3,NA,TRUE,j,j,NA,NA,NA,1,6,"12,7,3,6,10,4,2,11,9,15,13,8,5,14,1"
14267,commdev-image-keyboard-response,446,1259356,learnblock2,495,img/planet14_right.png,14,Community 3,NA,TRUE,j,j,NA,NA,NA,1,6,"12,7,3,6,10,4,2,11,9,15,13,8,5,14,1"
14267,commdev-image-keyboard-response,447,1260607,learnblock2,528.5999999940395,img/planet1_right.png,1,Community 3,NA,TRUE,j,j,NA,NA,NA,1,6,"12,7,3,6,10,4,2,11,9,15,13,8,5,14,1"
14267,commdev-image-keyboard-response,448,1261859,learnblock2,505.59999999403954,img/planet5_left.png,5,Community 3,NA,TRUE,f,f,NA,NA,NA,1,6,"12,7,3,6,10,4,2,11,9,15,13,8,5,14,1"
14267,commdev-image-keyboard-response,449,1263111,learnblock2,475.29999999701977,img/planet8_right.png,8,Community 3,NA,TRUE,j,j,NA,NA,NA,1,6,"12,7,3,6,10,4,2,11,9,15,13,8,5,14,1"
14267,commdev-image-keyboard-response,450,1264362,learnblock2,551.9000000059605,img/planet5_right.png,5,Community 3,NA,TRUE,j,j,NA,NA,NA,1,6,"12,7,3,6,10,4,2,11,9,15,13,8,5,14,1"
14267,commdev-image-keyboard-response,451,1265613,learnblock2,553.7999999970198,img/planet13_right.png,13,Community 3,NA,TRUE,j,j,NA,NA,NA,1,6,"12,7,3,6,10,4,2,11,9,15,13,8,5,14,1"
14267,commdev-image-keyboard-response,452,1266866,learnblock2,537.6000000089407,img/planet5_right.png,5,Community 3,NA,TRUE,j,j,NA,NA,NA,1,6,"12,7,3,6,10,4,2,11,9,15,13,8,5,14,1"
14267,commdev-image-keyboard-response,453,1268118,learnblock2,460.69999998807907,img/planet1_right.png,1,Community 3,NA,TRUE,j,j,NA,NA,NA,1,6,"12,7,3,6,10,4,2,11,9,15,13,8,5,14,1"
14267,commdev-image-keyboard-response,454,1269370,learnblock2,425.3999999910593,img/planet5_right.png,5,Community 3,NA,TRUE,j,j,NA,NA,NA,1,6,"12,7,3,6,10,4,2,11,9,15,13,8,5,14,1"
14267,commdev-image-keyboard-response,455,1270623,learnblock2,419.5,img/planet13_right.png,13,Community 3,NA,TRUE,j,j,NA,NA,NA,1,6,"12,7,3,6,10,4,2,11,9,15,13,8,5,14,1"
14267,commdev-image-keyboard-response,456,1271875,learnblock2,503.09999999403954,img/planet5_left.png,5,Community 3,NA,TRUE,f,f,NA,NA,NA,1,6,"12,7,3,6,10,4,2,11,9,15,13,8,5,14,1"
14267,commdev-image-keyboard-response,457,1273127,learnblock2,471.20000000298023,img/planet1_left.png,1,Community 3,NA,TRUE,f,f,NA,NA,NA,1,6,"12,7,3,6,10,4,2,11,9,15,13,8,5,14,1"
14267,commdev-image-keyboard-response,458,1274380,learnblock2,476.19999998807907,img/planet14_right.png,14,Community 3,NA,TRUE,j,j,NA,NA,NA,1,6,"12,7,3,6,10,4,2,11,9,15,13,8,5,14,1"
14267,commdev-image-keyboard-response,459,1275632,learnblock2,447.09999999403954,img/planet13_right.png,13,Community 3,NA,TRUE,j,j,NA,NA,NA,1,6,"12,7,3,6,10,4,2,11,9,15,13,8,5,14,1"
14267,commdev-image-keyboard-response,460,1276883,learnblock2,397.79999999701977,img/planet10_right.png,10,Community 1,NA,TRUE,j,j,NA,NA,NA,1,6,"12,7,3,6,10,4,2,11,9,15,13,8,5,14,1"
14267,commdev-image-keyboard-response,461,1278135,learnblock2,374.59999999403954,img/planet13_right.png,13,Community 3,NA,TRUE,j,j,NA,NA,NA,1,6,"12,7,3,6,10,4,2,11,9,15,13,8,5,14,1"
14267,commdev-image-keyboard-response,462,1279387,learnblock2,351.59999999403954,img/planet10_right.png,10,Community 1,NA,TRUE,j,j,NA,NA,NA,1,6,"12,7,3,6,10,4,2,11,9,15,13,8,5,14,1"
14267,commdev-image-keyboard-response,463,1280639,learnblock2,350.79999999701977,img/planet13_right.png,13,Community 3,NA,TRUE,j,j,NA,NA,NA,1,6,"12,7,3,6,10,4,2,11,9,15,13,8,5,14,1"
14267,commdev-image-keyboard-response,464,1281891,learnblock2,390.20000000298023,img/planet5_left.png,5,Community 3,NA,TRUE,f,f,NA,NA,NA,1,6,"12,7,3,6,10,4,2,11,9,15,13,8,5,14,1"
14267,commdev-image-keyboard-response,465,1283143,learnblock2,400.5,img/planet1_right.png,1,Community 3,NA,FALSE,f,j,NA,NA,NA,1,6,"12,7,3,6,10,4,2,11,9,15,13,8,5,14,1"
14267,commdev-image-keyboard-response,466,1284395,learnblock2,491.80000001192093,img/planet14_right.png,14,Community 3,NA,TRUE,j,j,NA,NA,NA,1,6,"12,7,3,6,10,4,2,11,9,15,13,8,5,14,1"
14267,commdev-image-keyboard-response,467,1285646,learnblock2,573.2000000029802,img/planet1_left.png,1,Community 3,NA,TRUE,f,f,NA,NA,NA,1,6,"12,7,3,6,10,4,2,11,9,15,13,8,5,14,1"
14267,commdev-image-keyboard-response,468,1286898,learnblock2,451,img/planet5_right.png,5,Community 3,NA,FALSE,f,j,NA,NA,NA,1,6,"12,7,3,6,10,4,2,11,9,15,13,8,5,14,1"
14267,commdev-image-keyboard-response,469,1288150,learnblock2,491.20000000298023,img/planet8_right.png,8,Community 3,NA,TRUE,j,j,NA,NA,NA,1,6,"12,7,3,6,10,4,2,11,9,15,13,8,5,14,1"
14267,commdev-image-keyboard-response,470,1289401,learnblock2,380.29999999701977,img/planet1_right.png,1,Community 3,NA,TRUE,j,j,NA,NA,NA,1,6,"12,7,3,6,10,4,2,11,9,15,13,8,5,14,1"
14267,commdev-image-keyboard-response,471,1290653,learnblock2,482.79999999701977,img/planet13_left.png,13,Community 3,NA,TRUE,f,f,NA,NA,NA,1,6,"12,7,3,6,10,4,2,11,9,15,13,8,5,14,1"
14267,commdev-image-keyboard-response,472,1291905,learnblock2,462.80000001192093,img/planet14_left.png,14,Community 3,NA,TRUE,f,f,NA,NA,NA,1,6,"12,7,3,6,10,4,2,11,9,15,13,8,5,14,1"
14267,commdev-image-keyboard-response,473,1293157,learnblock2,542.4000000059605,img/planet8_left.png,8,Community 3,NA,TRUE,f,f,NA,NA,NA,1,6,"12,7,3,6,10,4,2,11,9,15,13,8,5,14,1"
14267,commdev-image-keyboard-response,474,1294409,learnblock2,494.1000000089407,img/planet5_left.png,5,Community 3,NA,TRUE,f,f,NA,NA,NA,1,6,"12,7,3,6,10,4,2,11,9,15,13,8,5,14,1"
14267,commdev-image-keyboard-response,475,1295660,learnblock2,489.09999999403954,img/planet14_right.png,14,Community 3,NA,TRUE,j,j,NA,NA,NA,1,6,"12,7,3,6,10,4,2,11,9,15,13,8,5,14,1"
14267,commdev-image-keyboard-response,476,1296912,learnblock2,551.5,img/planet8_right.png,8,Community 3,NA,TRUE,j,j,NA,NA,NA,1,6,"12,7,3,6,10,4,2,11,9,15,13,8,5,14,1"
14267,commdev-image-keyboard-response,477,1298164,learnblock2,579.3000000119209,img/planet1_right.png,1,Community 3,NA,TRUE,j,j,NA,NA,NA,1,6,"12,7,3,6,10,4,2,11,9,15,13,8,5,14,1"
14267,commdev-image-keyboard-response,478,1299415,learnblock2,479,img/planet13_right.png,13,Community 3,NA,TRUE,j,j,NA,NA,NA,1,6,"12,7,3,6,10,4,2,11,9,15,13,8,5,14,1"
14267,commdev-image-keyboard-response,479,1300668,learnblock2,510.09999999403954,img/planet1_left.png,1,Community 3,NA,TRUE,f,f,NA,NA,NA,1,6,"12,7,3,6,10,4,2,11,9,15,13,8,5,14,1"
14267,commdev-image-keyboard-response,480,1301921,learnblock2,484.8999999910593,img/planet13_right.png,13,Community 3,NA,TRUE,j,j,NA,NA,NA,1,6,"12,7,3,6,10,4,2,11,9,15,13,8,5,14,1"
14267,commdev-image-keyboard-response,481,1303173,learnblock2,574.9000000059605,img/planet10_left.png,10,Community 1,NA,TRUE,f,f,NA,NA,NA,1,6,"12,7,3,6,10,4,2,11,9,15,13,8,5,14,1"
14267,commdev-image-keyboard-response,482,1304426,learnblock2,442.90000000596046,img/planet12_left.png,12,Community 1,NA,TRUE,f,f,NA,NA,NA,1,6,"12,7,3,6,10,4,2,11,9,15,13,8,5,14,1"
14267,commdev-image-keyboard-response,483,1305677,learnblock2,412,img/planet10_left.png,10,Community 1,NA,TRUE,f,f,NA,NA,NA,1,6,"12,7,3,6,10,4,2,11,9,15,13,8,5,14,1"
14267,commdev-image-keyboard-response,484,1306929,learnblock2,484.3999999910593,img/planet13_right.png,13,Community 3,NA,TRUE,j,j,NA,NA,NA,1,6,"12,7,3,6,10,4,2,11,9,15,13,8,5,14,1"
14267,commdev-image-keyboard-response,485,1308180,learnblock2,451.90000000596046,img/planet14_right.png,14,Community 3,NA,TRUE,j,j,NA,NA,NA,1,6,"12,7,3,6,10,4,2,11,9,15,13,8,5,14,1"
14267,commdev-image-keyboard-response,486,1309432,learnblock2,465.79999999701977,img/planet13_left.png,13,Community 3,NA,TRUE,f,f,NA,NA,NA,1,6,"12,7,3,6,10,4,2,11,9,15,13,8,5,14,1"
14267,commdev-image-keyboard-response,487,1310684,learnblock2,518.3999999910593,img/planet14_right.png,14,Community 3,NA,TRUE,j,j,NA,NA,NA,1,6,"12,7,3,6,10,4,2,11,9,15,13,8,5,14,1"
14267,commdev-image-keyboard-response,488,1311937,learnblock2,421.79999999701977,img/planet5_left.png,5,Community 3,NA,TRUE,f,f,NA,NA,NA,1,6,"12,7,3,6,10,4,2,11,9,15,13,8,5,14,1"
14267,commdev-image-keyboard-response,489,1313188,learnblock2,465.59999999403954,img/planet1_right.png,1,Community 3,NA,TRUE,j,j,NA,NA,NA,1,6,"12,7,3,6,10,4,2,11,9,15,13,8,5,14,1"
14267,commdev-image-keyboard-response,490,1314440,learnblock2,551.5999999940395,img/planet8_right.png,8,Community 3,NA,TRUE,j,j,NA,NA,NA,1,6,"12,7,3,6,10,4,2,11,9,15,13,8,5,14,1"
14267,commdev-image-keyboard-response,491,1315692,learnblock2,419.79999999701977,img/planet11_right.png,11,Community 2,NA,TRUE,j,j,NA,NA,NA,1,6,"12,7,3,6,10,4,2,11,9,15,13,8,5,14,1"
14267,commdev-image-keyboard-response,492,1316943,learnblock2,387.3999999910593,img/planet9_right.png,9,Community 2,NA,TRUE,j,j,NA,NA,NA,1,6,"12,7,3,6,10,4,2,11,9,15,13,8,5,14,1"
14267,commdev-image-keyboard-response,493,1318198,learnblock2,482.59999999403954,img/planet2_left.png,2,Community 2,NA,TRUE,f,f,NA,NA,NA,1,6,"12,7,3,6,10,4,2,11,9,15,13,8,5,14,1"
14267,commdev-image-keyboard-response,494,1319450,learnblock2,385.70000000298023,img/planet4_left.png,4,Community 2,NA,TRUE,f,f,NA,NA,NA,1,6,"12,7,3,6,10,4,2,11,9,15,13,8,5,14,1"
14267,commdev-image-keyboard-response,495,1320714,learnblock2,250,img/planet2_right.png,2,Community 2,NA,FALSE,f,j,NA,NA,NA,1,6,"12,7,3,6,10,4,2,11,9,15,13,8,5,14,1"
14267,commdev-image-keyboard-response,496,1321966,learnblock2,514.7999999970198,img/planet11_right.png,11,Community 2,NA,TRUE,j,j,NA,NA,NA,1,6,"12,7,3,6,10,4,2,11,9,15,13,8,5,14,1"
14267,commdev-image-keyboard-response,497,1323217,learnblock2,499.09999999403954,img/planet8_left.png,8,Community 3,NA,TRUE,f,f,NA,NA,NA,1,6,"12,7,3,6,10,4,2,11,9,15,13,8,5,14,1"
14267,commdev-image-keyboard-response,498,1324470,learnblock2,420.1000000089407,img/planet11_right.png,11,Community 2,NA,TRUE,j,j,NA,NA,NA,1,6,"12,7,3,6,10,4,2,11,9,15,13,8,5,14,1"
14267,commdev-image-keyboard-response,499,1325721,learnblock2,404,img/planet9_right.png,9,Community 2,NA,TRUE,j,j,NA,NA,NA,1,6,"12,7,3,6,10,4,2,11,9,15,13,8,5,14,1"
14267,commdev-image-keyboard-response,500,1326974,learnblock2,377.19999998807907,img/planet4_right.png,4,Community 2,NA,TRUE,j,j,NA,NA,NA,1,6,"12,7,3,6,10,4,2,11,9,15,13,8,5,14,1"
14267,commdev-image-keyboard-response,501,1328226,learnblock2,423.79999999701977,img/planet9_right.png,9,Community 2,NA,TRUE,j,j,NA,NA,NA,1,6,"12,7,3,6,10,4,2,11,9,15,13,8,5,14,1"
14267,commdev-image-keyboard-response,502,1329478,learnblock2,402.59999999403954,img/planet4_right.png,4,Community 2,NA,TRUE,j,j,NA,NA,NA,1,6,"12,7,3,6,10,4,2,11,9,15,13,8,5,14,1"
14267,commdev-image-keyboard-response,503,1330731,learnblock2,333.6000000089407,img/planet9_left.png,9,Community 2,NA,FALSE,j,f,NA,NA,NA,1,6,"12,7,3,6,10,4,2,11,9,15,13,8,5,14,1"
14267,commdev-image-keyboard-response,504,1331983,learnblock2,460.40000000596046,img/planet15_right.png,15,Community 2,NA,FALSE,f,j,NA,NA,NA,1,6,"12,7,3,6,10,4,2,11,9,15,13,8,5,14,1"
14267,commdev-image-keyboard-response,505,1333236,learnblock2,674.8999999910593,img/planet9_right.png,9,Community 2,NA,TRUE,j,j,NA,NA,NA,1,6,"12,7,3,6,10,4,2,11,9,15,13,8,5,14,1"
14267,commdev-image-keyboard-response,506,1334488,learnblock2,517.7999999970198,img/planet11_left.png,11,Community 2,NA,TRUE,f,f,NA,NA,NA,1,6,"12,7,3,6,10,4,2,11,9,15,13,8,5,14,1"
14267,commdev-image-keyboard-response,507,1335738,learnblock2,506.59999999403954,img/planet8_right.png,8,Community 3,NA,TRUE,j,j,NA,NA,NA,1,6,"12,7,3,6,10,4,2,11,9,15,13,8,5,14,1"
14267,commdev-image-keyboard-response,508,1336991,learnblock2,315.70000000298023,img/planet11_right.png,11,Community 2,NA,FALSE,f,j,NA,NA,NA,1,6,"12,7,3,6,10,4,2,11,9,15,13,8,5,14,1"
14267,commdev-image-keyboard-response,509,1338252,learnblock2,258.90000000596046,img/planet15_left.png,15,Community 2,NA,FALSE,j,f,NA,NA,NA,1,6,"12,7,3,6,10,4,2,11,9,15,13,8,5,14,1"
14267,commdev-image-keyboard-response,510,1339505,learnblock2,648.9000000059605,img/planet9_left.png,9,Community 2,NA,TRUE,f,f,NA,NA,NA,1,6,"12,7,3,6,10,4,2,11,9,15,13,8,5,14,1"
14267,commdev-image-keyboard-response,511,1340757,learnblock2,502.5,img/planet15_right.png,15,Community 2,NA,TRUE,j,j,NA,NA,NA,1,6,"12,7,3,6,10,4,2,11,9,15,13,8,5,14,1"
14267,commdev-image-keyboard-response,512,1342009,learnblock2,509.90000000596046,img/planet9_right.png,9,Community 2,NA,TRUE,j,j,NA,NA,NA,1,6,"12,7,3,6,10,4,2,11,9,15,13,8,5,14,1"
14267,commdev-image-keyboard-response,513,1343261,learnblock2,608.7999999970198,img/planet2_right.png,2,Community 2,NA,TRUE,j,j,NA,NA,NA,1,6,"12,7,3,6,10,4,2,11,9,15,13,8,5,14,1"
14267,commdev-image-keyboard-response,514,1344513,learnblock2,546.6000000089407,img/planet11_left.png,11,Community 2,NA,TRUE,f,f,NA,NA,NA,1,6,"12,7,3,6,10,4,2,11,9,15,13,8,5,14,1"
14267,commdev-image-keyboard-response,515,1345766,learnblock2,412.29999999701977,img/planet2_right.png,2,Community 2,NA,TRUE,j,j,NA,NA,NA,1,6,"12,7,3,6,10,4,2,11,9,15,13,8,5,14,1"
14267,commdev-image-keyboard-response,516,1347018,learnblock2,494.29999999701977,img/planet9_right.png,9,Community 2,NA,TRUE,j,j,NA,NA,NA,1,6,"12,7,3,6,10,4,2,11,9,15,13,8,5,14,1"
14267,commdev-image-keyboard-response,517,1348270,learnblock2,462.40000000596046,img/planet4_right.png,4,Community 2,NA,TRUE,j,j,NA,NA,NA,1,6,"12,7,3,6,10,4,2,11,9,15,13,8,5,14,1"
14267,commdev-image-keyboard-response,518,1349521,learnblock2,523.4000000059605,img/planet15_right.png,15,Community 2,NA,FALSE,f,j,NA,NA,NA,1,6,"12,7,3,6,10,4,2,11,9,15,13,8,5,14,1"
14267,commdev-image-keyboard-response,519,1350774,learnblock2,449.8999999910593,img/planet2_left.png,2,Community 2,NA,TRUE,f,f,NA,NA,NA,1,6,"12,7,3,6,10,4,2,11,9,15,13,8,5,14,1"
14267,commdev-image-keyboard-response,520,1352026,learnblock2,494.40000000596046,img/planet9_right.png,9,Community 2,NA,TRUE,j,j,NA,NA,NA,1,6,"12,7,3,6,10,4,2,11,9,15,13,8,5,14,1"
14267,commdev-image-keyboard-response,521,1353279,learnblock2,447.20000000298023,img/planet2_right.png,2,Community 2,NA,TRUE,j,j,NA,NA,NA,1,6,"12,7,3,6,10,4,2,11,9,15,13,8,5,14,1"
14267,commdev-image-keyboard-response,522,1354530,learnblock2,501.6000000089407,img/planet15_right.png,15,Community 2,NA,TRUE,j,j,NA,NA,NA,1,6,"12,7,3,6,10,4,2,11,9,15,13,8,5,14,1"
14267,commdev-image-keyboard-response,523,1355782,learnblock2,458.20000000298023,img/planet9_right.png,9,Community 2,NA,TRUE,j,j,NA,NA,NA,1,6,"12,7,3,6,10,4,2,11,9,15,13,8,5,14,1"
14267,commdev-image-keyboard-response,524,1357035,learnblock2,413,img/planet15_left.png,15,Community 2,NA,FALSE,j,f,NA,NA,NA,1,6,"12,7,3,6,10,4,2,11,9,15,13,8,5,14,1"
14267,commdev-image-keyboard-response,525,1358294,learnblock2,259.29999999701977,img/planet9_right.png,9,Community 2,NA,TRUE,j,j,NA,NA,NA,1,6,"12,7,3,6,10,4,2,11,9,15,13,8,5,14,1"
14267,commdev-image-keyboard-response,526,1359547,learnblock2,373.59999999403954,img/planet2_right.png,2,Community 2,NA,TRUE,j,j,NA,NA,NA,1,6,"12,7,3,6,10,4,2,11,9,15,13,8,5,14,1"
14267,commdev-image-keyboard-response,527,1360799,learnblock2,513.1999999880791,img/planet15_right.png,15,Community 2,NA,TRUE,j,j,NA,NA,NA,1,6,"12,7,3,6,10,4,2,11,9,15,13,8,5,14,1"
14267,commdev-image-keyboard-response,528,1362051,learnblock2,456.20000000298023,img/planet9_right.png,9,Community 2,NA,TRUE,j,j,NA,NA,NA,1,6,"12,7,3,6,10,4,2,11,9,15,13,8,5,14,1"
14267,commdev-image-keyboard-response,529,1363303,learnblock2,529.7999999970198,img/planet15_right.png,15,Community 2,NA,TRUE,j,j,NA,NA,NA,1,6,"12,7,3,6,10,4,2,11,9,15,13,8,5,14,1"
14267,commdev-image-keyboard-response,530,1364554,learnblock2,528.9000000059605,img/planet2_left.png,2,Community 2,NA,TRUE,f,f,NA,NA,NA,1,6,"12,7,3,6,10,4,2,11,9,15,13,8,5,14,1"
14267,commdev-image-keyboard-response,531,1365807,learnblock2,480.59999999403954,img/planet15_right.png,15,Community 2,NA,TRUE,j,j,NA,NA,NA,1,6,"12,7,3,6,10,4,2,11,9,15,13,8,5,14,1"
14267,commdev-image-keyboard-response,532,1367059,learnblock2,477.6000000089407,img/planet11_right.png,11,Community 2,NA,TRUE,j,j,NA,NA,NA,1,6,"12,7,3,6,10,4,2,11,9,15,13,8,5,14,1"
14267,commdev-image-keyboard-response,533,1368312,learnblock2,443.5,img/planet15_left.png,15,Community 2,NA,FALSE,j,f,NA,NA,NA,1,6,"12,7,3,6,10,4,2,11,9,15,13,8,5,14,1"
14267,commdev-image-keyboard-response,534,1369563,learnblock2,362.80000001192093,img/planet9_right.png,9,Community 2,NA,TRUE,j,j,NA,NA,NA,1,6,"12,7,3,6,10,4,2,11,9,15,13,8,5,14,1"
14267,commdev-image-keyboard-response,535,1370815,learnblock2,391.1000000089407,img/planet2_right.png,2,Community 2,NA,TRUE,j,j,NA,NA,NA,1,6,"12,7,3,6,10,4,2,11,9,15,13,8,5,14,1"
14267,commdev-image-keyboard-response,536,1372067,learnblock2,425.19999998807907,img/planet4_right.png,4,Community 2,NA,TRUE,j,j,NA,NA,NA,1,6,"12,7,3,6,10,4,2,11,9,15,13,8,5,14,1"
14267,commdev-image-keyboard-response,537,1373319,learnblock2,413.6000000089407,img/planet9_right.png,9,Community 2,NA,TRUE,j,j,NA,NA,NA,1,6,"12,7,3,6,10,4,2,11,9,15,13,8,5,14,1"
14267,commdev-image-keyboard-response,538,1374572,learnblock2,458.09999999403954,img/planet11_left.png,11,Community 2,NA,TRUE,f,f,NA,NA,NA,1,6,"12,7,3,6,10,4,2,11,9,15,13,8,5,14,1"
14267,commdev-image-keyboard-response,539,1375824,learnblock2,484.59999999403954,img/planet15_right.png,15,Community 2,NA,TRUE,j,j,NA,NA,NA,1,6,"12,7,3,6,10,4,2,11,9,15,13,8,5,14,1"
14267,commdev-image-keyboard-response,540,1377075,learnblock2,465.1000000089407,img/planet9_right.png,9,Community 2,NA,TRUE,j,j,NA,NA,NA,1,6,"12,7,3,6,10,4,2,11,9,15,13,8,5,14,1"
14267,commdev-image-keyboard-response,541,1378327,learnblock2,435.79999999701977,img/planet2_right.png,2,Community 2,NA,TRUE,j,j,NA,NA,NA,1,6,"12,7,3,6,10,4,2,11,9,15,13,8,5,14,1"
14267,commdev-image-keyboard-response,542,1379578,learnblock2,499.5,img/planet4_right.png,4,Community 2,NA,TRUE,j,j,NA,NA,NA,1,6,"12,7,3,6,10,4,2,11,9,15,13,8,5,14,1"
14267,commdev-image-keyboard-response,543,1380829,learnblock2,435.70000000298023,img/planet2_right.png,2,Community 2,NA,TRUE,j,j,NA,NA,NA,1,6,"12,7,3,6,10,4,2,11,9,15,13,8,5,14,1"
14267,commdev-image-keyboard-response,544,1382081,learnblock2,423.29999999701977,img/planet4_right.png,4,Community 2,NA,TRUE,j,j,NA,NA,NA,1,6,"12,7,3,6,10,4,2,11,9,15,13,8,5,14,1"
14267,commdev-image-keyboard-response,545,1383333,learnblock2,428.69999998807907,img/planet6_left.png,6,Community 1,NA,FALSE,j,f,NA,NA,NA,1,6,"12,7,3,6,10,4,2,11,9,15,13,8,5,14,1"
14267,commdev-image-keyboard-response,546,1384585,learnblock2,516.2999999970198,img/planet3_right.png,3,Community 1,NA,FALSE,f,j,NA,NA,NA,1,6,"12,7,3,6,10,4,2,11,9,15,13,8,5,14,1"
14267,commdev-image-keyboard-response,547,1385835,learnblock2,970.3999999910593,img/planet12_right.png,12,Community 1,NA,TRUE,j,j,NA,NA,NA,1,6,"12,7,3,6,10,4,2,11,9,15,13,8,5,14,1"
14267,commdev-image-keyboard-response,548,1387087,learnblock2,593.2000000029802,img/planet7_left.png,7,Community 1,NA,TRUE,f,f,NA,NA,NA,1,6,"12,7,3,6,10,4,2,11,9,15,13,8,5,14,1"
14267,commdev-image-keyboard-response,549,1388338,learnblock2,446.79999999701977,img/planet6_right.png,6,Community 1,NA,TRUE,j,j,NA,NA,NA,1,6,"12,7,3,6,10,4,2,11,9,15,13,8,5,14,1"
14267,commdev-image-keyboard-response,550,1389591,learnblock2,550.6000000089407,img/planet12_left.png,12,Community 1,NA,TRUE,f,f,NA,NA,NA,1,6,"12,7,3,6,10,4,2,11,9,15,13,8,5,14,1"
14267,commdev-image-keyboard-response,551,1390856,learnblock2,424.20000000298023,img/planet3_right.png,3,Community 1,NA,TRUE,j,j,NA,NA,NA,1,6,"12,7,3,6,10,4,2,11,9,15,13,8,5,14,1"
14267,commdev-image-keyboard-response,552,1392108,learnblock2,588.7999999970198,img/planet10_left.png,10,Community 1,NA,TRUE,f,f,NA,NA,NA,1,6,"12,7,3,6,10,4,2,11,9,15,13,8,5,14,1"
14267,commdev-image-keyboard-response,553,1393359,learnblock2,438.59999999403954,img/planet13_right.png,13,Community 3,NA,TRUE,j,j,NA,NA,NA,1,6,"12,7,3,6,10,4,2,11,9,15,13,8,5,14,1"
14267,commdev-image-keyboard-response,554,1394610,learnblock2,570.3999999910593,img/planet5_right.png,5,Community 3,NA,TRUE,j,j,NA,NA,NA,1,6,"12,7,3,6,10,4,2,11,9,15,13,8,5,14,1"
14267,commdev-image-keyboard-response,555,1395862,learnblock2,473.09999999403954,img/planet14_right.png,14,Community 3,NA,FALSE,f,j,NA,NA,NA,1,6,"12,7,3,6,10,4,2,11,9,15,13,8,5,14,1"
14267,commdev-image-keyboard-response,556,1397113,learnblock2,651.2999999970198,img/planet13_left.png,13,Community 3,NA,TRUE,f,f,NA,NA,NA,1,6,"12,7,3,6,10,4,2,11,9,15,13,8,5,14,1"
14267,commdev-image-keyboard-response,557,1398364,learnblock2,601.5999999940395,img/planet1_right.png,1,Community 3,NA,FALSE,f,j,NA,NA,NA,1,6,"12,7,3,6,10,4,2,11,9,15,13,8,5,14,1"
14267,commdev-image-keyboard-response,558,1399615,learnblock2,524.5,img/planet14_right.png,14,Community 3,NA,TRUE,j,j,NA,NA,NA,1,6,"12,7,3,6,10,4,2,11,9,15,13,8,5,14,1"
14267,commdev-image-keyboard-response,559,1400867,learnblock2,594,img/planet5_left.png,5,Community 3,NA,TRUE,f,f,NA,NA,NA,1,6,"12,7,3,6,10,4,2,11,9,15,13,8,5,14,1"
14267,commdev-image-keyboard-response,560,1402119,learnblock2,613.7000000029802,img/planet1_left.png,1,Community 3,NA,TRUE,f,f,NA,NA,NA,1,6,"12,7,3,6,10,4,2,11,9,15,13,8,5,14,1"
14267,commdev-image-keyboard-response,561,1403372,learnblock2,471.40000000596046,img/planet14_left.png,14,Community 3,NA,TRUE,f,f,NA,NA,NA,1,6,"12,7,3,6,10,4,2,11,9,15,13,8,5,14,1"
14267,commdev-image-keyboard-response,562,1404624,learnblock2,569,img/planet5_right.png,5,Community 3,NA,TRUE,j,j,NA,NA,NA,1,6,"12,7,3,6,10,4,2,11,9,15,13,8,5,14,1"
14267,commdev-image-keyboard-response,563,1405875,learnblock2,495.59999999403954,img/planet14_right.png,14,Community 3,NA,TRUE,j,j,NA,NA,NA,1,6,"12,7,3,6,10,4,2,11,9,15,13,8,5,14,1"
14267,commdev-image-keyboard-response,564,1407126,learnblock2,585.8000000119209,img/planet5_right.png,5,Community 3,NA,TRUE,j,j,NA,NA,NA,1,6,"12,7,3,6,10,4,2,11,9,15,13,8,5,14,1"
14267,commdev-image-keyboard-response,565,1408378,learnblock2,520.1000000089407,img/planet1_left.png,1,Community 3,NA,TRUE,f,f,NA,NA,NA,1,6,"12,7,3,6,10,4,2,11,9,15,13,8,5,14,1"
14267,commdev-image-keyboard-response,566,1409630,learnblock2,473.79999999701977,img/planet13_right.png,13,Community 3,NA,TRUE,j,j,NA,NA,NA,1,6,"12,7,3,6,10,4,2,11,9,15,13,8,5,14,1"
14267,commdev-image-keyboard-response,567,1410882,learnblock2,495.40000000596046,img/planet14_right.png,14,Community 3,NA,TRUE,j,j,NA,NA,NA,1,6,"12,7,3,6,10,4,2,11,9,15,13,8,5,14,1"
14267,commdev-image-keyboard-response,568,1412136,learnblock2,486.69999998807907,img/planet1_left.png,1,Community 3,NA,TRUE,f,f,NA,NA,NA,1,6,"12,7,3,6,10,4,2,11,9,15,13,8,5,14,1"
14267,commdev-image-keyboard-response,569,1413401,learnblock2,487.20000000298023,img/planet14_right.png,14,Community 3,NA,TRUE,j,j,NA,NA,NA,1,6,"12,7,3,6,10,4,2,11,9,15,13,8,5,14,1"
14267,commdev-image-keyboard-response,570,1414652,learnblock2,487.70000000298023,img/planet13_right.png,13,Community 3,NA,TRUE,j,j,NA,NA,NA,1,6,"12,7,3,6,10,4,2,11,9,15,13,8,5,14,1"
14267,commdev-image-keyboard-response,571,1415903,learnblock2,455.70000000298023,img/planet10_right.png,10,Community 1,NA,TRUE,j,j,NA,NA,NA,1,6,"12,7,3,6,10,4,2,11,9,15,13,8,5,14,1"
14267,commdev-image-keyboard-response,572,1417155,learnblock2,772.7999999970198,img/planet12_right.png,12,Community 1,NA,TRUE,j,j,NA,NA,NA,1,6,"12,7,3,6,10,4,2,11,9,15,13,8,5,14,1"
14267,commdev-image-keyboard-response,573,1418408,learnblock2,617.2999999970198,img/planet3_left.png,3,Community 1,NA,TRUE,f,f,NA,NA,NA,1,6,"12,7,3,6,10,4,2,11,9,15,13,8,5,14,1"
14267,commdev-image-keyboard-response,574,1419668,learnblock2,595.7999999970198,img/planet10_right.png,10,Community 1,NA,TRUE,j,j,NA,NA,NA,1,6,"12,7,3,6,10,4,2,11,9,15,13,8,5,14,1"
14267,commdev-image-keyboard-response,575,1420919,learnblock2,639.7999999970198,img/planet3_right.png,3,Community 1,NA,TRUE,j,j,NA,NA,NA,1,6,"12,7,3,6,10,4,2,11,9,15,13,8,5,14,1"
14267,commdev-image-keyboard-response,576,1422170,learnblock2,589.8999999910593,img/planet7_right.png,7,Community 1,NA,TRUE,j,j,NA,NA,NA,1,6,"12,7,3,6,10,4,2,11,9,15,13,8,5,14,1"
14267,commdev-image-keyboard-response,577,1423421,learnblock2,491.8999999910593,img/planet6_left.png,6,Community 1,NA,TRUE,f,f,NA,NA,NA,1,6,"12,7,3,6,10,4,2,11,9,15,13,8,5,14,1"
14267,commdev-image-keyboard-response,578,1424672,learnblock2,554.7000000029802,img/planet12_left.png,12,Community 1,NA,TRUE,f,f,NA,NA,NA,1,6,"12,7,3,6,10,4,2,11,9,15,13,8,5,14,1"
14267,commdev-image-keyboard-response,579,1425925,learnblock2,486.3999999910593,img/planet7_right.png,7,Community 1,NA,TRUE,j,j,NA,NA,NA,1,6,"12,7,3,6,10,4,2,11,9,15,13,8,5,14,1"
14267,commdev-image-keyboard-response,580,1427176,learnblock2,458.20000000298023,img/planet3_right.png,3,Community 1,NA,TRUE,j,j,NA,NA,NA,1,6,"12,7,3,6,10,4,2,11,9,15,13,8,5,14,1"
14267,commdev-image-keyboard-response,581,1428429,learnblock2,422.70000000298023,img/planet6_left.png,6,Community 1,NA,TRUE,f,f,NA,NA,NA,1,6,"12,7,3,6,10,4,2,11,9,15,13,8,5,14,1"
14267,commdev-image-keyboard-response,582,1429680,learnblock2,517.2999999970198,img/planet7_right.png,7,Community 1,NA,TRUE,j,j,NA,NA,NA,1,6,"12,7,3,6,10,4,2,11,9,15,13,8,5,14,1"
14267,commdev-image-keyboard-response,583,1430933,learnblock2,580,img/planet6_left.png,6,Community 1,NA,TRUE,f,f,NA,NA,NA,1,6,"12,7,3,6,10,4,2,11,9,15,13,8,5,14,1"
14267,commdev-image-keyboard-response,584,1432195,learnblock2,489.29999999701977,img/planet12_left.png,12,Community 1,NA,FALSE,j,f,NA,NA,NA,1,6,"12,7,3,6,10,4,2,11,9,15,13,8,5,14,1"
14267,commdev-image-keyboard-response,585,1433447,learnblock2,411.40000000596046,img/planet10_right.png,10,Community 1,NA,TRUE,j,j,NA,NA,NA,1,6,"12,7,3,6,10,4,2,11,9,15,13,8,5,14,1"
14267,commdev-image-keyboard-response,586,1434698,learnblock2,385.70000000298023,img/planet12_right.png,12,Community 1,NA,TRUE,j,j,NA,NA,NA,1,6,"12,7,3,6,10,4,2,11,9,15,13,8,5,14,1"
14267,commdev-image-keyboard-response,587,1435949,learnblock2,456.5,img/planet6_left.png,6,Community 1,NA,TRUE,f,f,NA,NA,NA,1,6,"12,7,3,6,10,4,2,11,9,15,13,8,5,14,1"
14267,commdev-image-keyboard-response,588,1437210,learnblock2,483.20000000298023,img/planet3_right.png,3,Community 1,NA,TRUE,j,j,NA,NA,NA,1,6,"12,7,3,6,10,4,2,11,9,15,13,8,5,14,1"
14267,commdev-image-keyboard-response,589,1438468,learnblock2,436.79999999701977,img/planet10_right.png,10,Community 1,NA,FALSE,f,j,NA,NA,NA,1,6,"12,7,3,6,10,4,2,11,9,15,13,8,5,14,1"
14267,commdev-image-keyboard-response,590,1439720,learnblock2,351.5,img/planet13_left.png,13,Community 3,NA,TRUE,f,f,NA,NA,NA,1,6,"12,7,3,6,10,4,2,11,9,15,13,8,5,14,1"
14267,commdev-image-keyboard-response,591,1440971,learnblock2,381.80000001192093,img/planet5_left.png,5,Community 3,NA,TRUE,f,f,NA,NA,NA,1,6,"12,7,3,6,10,4,2,11,9,15,13,8,5,14,1"
14267,commdev-image-keyboard-response,592,1442223,learnblock2,553.5,img/planet8_right.png,8,Community 3,NA,TRUE,j,j,NA,NA,NA,1,6,"12,7,3,6,10,4,2,11,9,15,13,8,5,14,1"
14267,commdev-image-keyboard-response,593,1443475,learnblock2,572.2999999970198,img/planet11_right.png,11,Community 2,NA,TRUE,j,j,NA,NA,NA,1,6,"12,7,3,6,10,4,2,11,9,15,13,8,5,14,1"
14267,commdev-image-keyboard-response,594,1444726,learnblock2,615.2999999970198,img/planet9_left.png,9,Community 2,NA,TRUE,f,f,NA,NA,NA,1,6,"12,7,3,6,10,4,2,11,9,15,13,8,5,14,1"
14267,commdev-image-keyboard-response,595,1445978,learnblock2,550.2999999970198,img/planet2_left.png,2,Community 2,NA,TRUE,f,f,NA,NA,NA,1,6,"12,7,3,6,10,4,2,11,9,15,13,8,5,14,1"
14267,commdev-image-keyboard-response,596,1447230,learnblock2,468.59999999403954,img/planet15_left.png,15,Community 2,NA,FALSE,j,f,NA,NA,NA,1,6,"12,7,3,6,10,4,2,11,9,15,13,8,5,14,1"
14267,commdev-image-keyboard-response,597,1448482,learnblock2,667,img/planet4_left.png,4,Community 2,NA,TRUE,f,f,NA,NA,NA,1,6,"12,7,3,6,10,4,2,11,9,15,13,8,5,14,1"
14267,commdev-image-keyboard-response,598,1449733,learnblock2,472.79999999701977,img/planet9_left.png,9,Community 2,NA,TRUE,f,f,NA,NA,NA,1,6,"12,7,3,6,10,4,2,11,9,15,13,8,5,14,1"
14267,commdev-image-keyboard-response,599,1450985,learnblock2,524.1000000089407,img/planet2_right.png,2,Community 2,NA,TRUE,j,j,NA,NA,NA,1,6,"12,7,3,6,10,4,2,11,9,15,13,8,5,14,1"
14267,commdev-image-keyboard-response,600,1452237,learnblock2,522.1000000089407,img/planet15_left.png,15,Community 2,NA,TRUE,f,f,NA,NA,NA,1,6,"12,7,3,6,10,4,2,11,9,15,13,8,5,14,1"
14267,commdev-image-keyboard-response,601,1453490,learnblock2,401.69999998807907,img/planet2_left.png,2,Community 2,NA,TRUE,f,f,NA,NA,NA,1,6,"12,7,3,6,10,4,2,11,9,15,13,8,5,14,1"
14267,commdev-image-keyboard-response,602,1454742,learnblock2,398.1000000089407,img/planet4_left.png,4,Community 2,NA,TRUE,f,f,NA,NA,NA,1,6,"12,7,3,6,10,4,2,11,9,15,13,8,5,14,1"
14267,commdev-image-keyboard-response,603,1455993,learnblock2,345.40000000596046,img/planet9_left.png,9,Community 2,NA,TRUE,f,f,NA,NA,NA,1,6,"12,7,3,6,10,4,2,11,9,15,13,8,5,14,1"
14267,commdev-image-keyboard-response,604,1457245,learnblock2,571,img/planet11_left.png,11,Community 2,NA,TRUE,f,f,NA,NA,NA,1,6,"12,7,3,6,10,4,2,11,9,15,13,8,5,14,1"
14267,commdev-image-keyboard-response,605,1458502,learnblock2,496.90000000596046,img/planet2_right.png,2,Community 2,NA,FALSE,f,j,NA,NA,NA,1,6,"12,7,3,6,10,4,2,11,9,15,13,8,5,14,1"
14267,commdev-image-keyboard-response,606,1459753,learnblock2,433.5,img/planet15_left.png,15,Community 2,NA,TRUE,f,f,NA,NA,NA,1,6,"12,7,3,6,10,4,2,11,9,15,13,8,5,14,1"
14267,commdev-image-keyboard-response,607,1461006,learnblock2,485.59999999403954,img/planet4_left.png,4,Community 2,NA,TRUE,f,f,NA,NA,NA,1,6,"12,7,3,6,10,4,2,11,9,15,13,8,5,14,1"
14267,commdev-image-keyboard-response,608,1462258,learnblock2,555,img/planet6_left.png,6,Community 1,NA,TRUE,f,f,NA,NA,NA,1,6,"12,7,3,6,10,4,2,11,9,15,13,8,5,14,1"
14267,commdev-image-keyboard-response,609,1463510,learnblock2,565,img/planet12_right.png,12,Community 1,NA,TRUE,j,j,NA,NA,NA,1,6,"12,7,3,6,10,4,2,11,9,15,13,8,5,14,1"
14267,commdev-image-keyboard-response,610,1464763,learnblock2,549.9000000059605,img/planet7_right.png,7,Community 1,NA,TRUE,j,j,NA,NA,NA,1,6,"12,7,3,6,10,4,2,11,9,15,13,8,5,14,1"
14267,commdev-image-keyboard-response,611,1466015,learnblock2,487.5,img/planet12_left.png,12,Community 1,NA,TRUE,f,f,NA,NA,NA,1,6,"12,7,3,6,10,4,2,11,9,15,13,8,5,14,1"
14267,commdev-image-keyboard-response,612,1467267,learnblock2,638.9000000059605,img/planet6_right.png,6,Community 1,NA,TRUE,j,j,NA,NA,NA,1,6,"12,7,3,6,10,4,2,11,9,15,13,8,5,14,1"
14267,commdev-image-keyboard-response,613,1468526,learnblock2,536.8000000119209,img/planet4_right.png,4,Community 2,NA,TRUE,j,j,NA,NA,NA,1,6,"12,7,3,6,10,4,2,11,9,15,13,8,5,14,1"
14267,commdev-image-keyboard-response,614,1469777,learnblock2,494.79999999701977,img/planet2_left.png,2,Community 2,NA,TRUE,f,f,NA,NA,NA,1,6,"12,7,3,6,10,4,2,11,9,15,13,8,5,14,1"
14267,commdev-image-keyboard-response,615,1471029,learnblock2,447.5,img/planet11_right.png,11,Community 2,NA,TRUE,j,j,NA,NA,NA,1,6,"12,7,3,6,10,4,2,11,9,15,13,8,5,14,1"
14267,commdev-image-keyboard-response,616,1472282,learnblock2,541.2000000029802,img/planet15_right.png,15,Community 2,NA,FALSE,f,j,NA,NA,NA,1,6,"12,7,3,6,10,4,2,11,9,15,13,8,5,14,1"
14267,commdev-image-keyboard-response,617,1473534,learnblock2,502.29999999701977,img/planet2_right.png,2,Community 2,NA,TRUE,j,j,NA,NA,NA,1,6,"12,7,3,6,10,4,2,11,9,15,13,8,5,14,1"
14267,commdev-image-keyboard-response,618,1474786,learnblock2,551.5999999940395,img/planet4_left.png,4,Community 2,NA,TRUE,f,f,NA,NA,NA,1,6,"12,7,3,6,10,4,2,11,9,15,13,8,5,14,1"
14267,commdev-image-keyboard-response,619,1476038,learnblock2,727.7000000029802,img/planet6_left.png,6,Community 1,NA,FALSE,j,f,NA,NA,NA,1,6,"12,7,3,6,10,4,2,11,9,15,13,8,5,14,1"
14267,commdev-image-keyboard-response,620,1477290,learnblock2,591,img/planet7_right.png,7,Community 1,NA,TRUE,j,j,NA,NA,NA,1,6,"12,7,3,6,10,4,2,11,9,15,13,8,5,14,1"
14267,commdev-image-keyboard-response,621,1478543,learnblock2,475.3999999910593,img/planet10_right.png,10,Community 1,NA,TRUE,j,j,NA,NA,NA,1,6,"12,7,3,6,10,4,2,11,9,15,13,8,5,14,1"
14267,commdev-image-keyboard-response,622,1479794,learnblock2,513,img/planet13_left.png,13,Community 3,NA,FALSE,j,f,NA,NA,NA,1,6,"12,7,3,6,10,4,2,11,9,15,13,8,5,14,1"
14267,commdev-image-keyboard-response,623,1481047,learnblock2,473.70000000298023,img/planet10_left.png,10,Community 1,NA,TRUE,f,f,NA,NA,NA,1,6,"12,7,3,6,10,4,2,11,9,15,13,8,5,14,1"
14267,commdev-image-keyboard-response,624,1482299,learnblock2,543.4000000059605,img/planet7_left.png,7,Community 1,NA,TRUE,f,f,NA,NA,NA,1,6,"12,7,3,6,10,4,2,11,9,15,13,8,5,14,1"
14267,commdev-image-keyboard-response,625,1483551,learnblock2,460.80000001192093,img/planet12_left.png,12,Community 1,NA,TRUE,f,f,NA,NA,NA,1,6,"12,7,3,6,10,4,2,11,9,15,13,8,5,14,1"
14267,commdev-image-keyboard-response,626,1484804,learnblock2,597.7000000029802,img/planet7_right.png,7,Community 1,NA,TRUE,j,j,NA,NA,NA,1,6,"12,7,3,6,10,4,2,11,9,15,13,8,5,14,1"
14267,commdev-image-keyboard-response,627,1486057,learnblock2,855,img/planet12_left.png,12,Community 1,NA,TRUE,f,f,NA,NA,NA,1,6,"12,7,3,6,10,4,2,11,9,15,13,8,5,14,1"
14267,commdev-image-keyboard-response,628,1487309,learnblock2,530.3999999910593,img/planet7_right.png,7,Community 1,NA,TRUE,j,j,NA,NA,NA,1,6,"12,7,3,6,10,4,2,11,9,15,13,8,5,14,1"
14267,commdev-image-keyboard-response,629,1488561,learnblock2,470.6000000089407,img/planet12_right.png,12,Community 1,NA,FALSE,f,j,NA,NA,NA,1,6,"12,7,3,6,10,4,2,11,9,15,13,8,5,14,1"
14267,commdev-image-keyboard-response,630,1489814,learnblock2,520.9000000059605,img/planet10_right.png,10,Community 1,NA,TRUE,j,j,NA,NA,NA,1,6,"12,7,3,6,10,4,2,11,9,15,13,8,5,14,1"
14267,commdev-image-keyboard-response,631,1491065,learnblock2,536.6999999880791,img/planet7_left.png,7,Community 1,NA,TRUE,f,f,NA,NA,NA,1,6,"12,7,3,6,10,4,2,11,9,15,13,8,5,14,1"
14267,commdev-image-keyboard-response,632,1492318,learnblock2,516.7000000029802,img/planet12_left.png,12,Community 1,NA,TRUE,f,f,NA,NA,NA,1,6,"12,7,3,6,10,4,2,11,9,15,13,8,5,14,1"
14267,commdev-image-keyboard-response,633,1493569,learnblock2,482.70000000298023,img/planet6_right.png,6,Community 1,NA,TRUE,j,j,NA,NA,NA,1,6,"12,7,3,6,10,4,2,11,9,15,13,8,5,14,1"
14267,commdev-image-keyboard-response,634,1494822,learnblock2,549.2000000029802,img/planet7_left.png,7,Community 1,NA,TRUE,f,f,NA,NA,NA,1,6,"12,7,3,6,10,4,2,11,9,15,13,8,5,14,1"
14267,commdev-image-keyboard-response,635,1496074,learnblock2,424.30000001192093,img/planet12_right.png,12,Community 1,NA,TRUE,j,j,NA,NA,NA,1,6,"12,7,3,6,10,4,2,11,9,15,13,8,5,14,1"
14267,commdev-image-keyboard-response,636,1497326,learnblock2,400.19999998807907,img/planet3_left.png,3,Community 1,NA,TRUE,f,f,NA,NA,NA,1,6,"12,7,3,6,10,4,2,11,9,15,13,8,5,14,1"
14267,commdev-image-keyboard-response,637,1498578,learnblock2,372.79999999701977,img/planet12_right.png,12,Community 1,NA,TRUE,j,j,NA,NA,NA,1,6,"12,7,3,6,10,4,2,11,9,15,13,8,5,14,1"
14267,commdev-image-keyboard-response,638,1499831,learnblock2,416.40000000596046,img/planet10_right.png,10,Community 1,NA,TRUE,j,j,NA,NA,NA,1,6,"12,7,3,6,10,4,2,11,9,15,13,8,5,14,1"
14267,commdev-image-keyboard-response,639,1501082,learnblock2,497.8999999910593,img/planet12_left.png,12,Community 1,NA,TRUE,f,f,NA,NA,NA,1,6,"12,7,3,6,10,4,2,11,9,15,13,8,5,14,1"
14267,commdev-image-keyboard-response,640,1502334,learnblock2,556.9000000059605,img/planet3_left.png,3,Community 1,NA,TRUE,f,f,NA,NA,NA,1,6,"12,7,3,6,10,4,2,11,9,15,13,8,5,14,1"
14267,commdev-image-keyboard-response,641,1503586,learnblock2,493.3999999910593,img/planet12_left.png,12,Community 1,NA,TRUE,f,f,NA,NA,NA,1,6,"12,7,3,6,10,4,2,11,9,15,13,8,5,14,1"
14267,commdev-image-keyboard-response,642,1504839,learnblock2,391.19999998807907,img/planet10_right.png,10,Community 1,NA,TRUE,j,j,NA,NA,NA,1,6,"12,7,3,6,10,4,2,11,9,15,13,8,5,14,1"
14267,commdev-image-keyboard-response,643,1506090,learnblock2,442.09999999403954,img/planet3_left.png,3,Community 1,NA,TRUE,f,f,NA,NA,NA,1,6,"12,7,3,6,10,4,2,11,9,15,13,8,5,14,1"
14267,commdev-image-keyboard-response,644,1507341,learnblock2,424.09999999403954,img/planet12_right.png,12,Community 1,NA,TRUE,j,j,NA,NA,NA,1,6,"12,7,3,6,10,4,2,11,9,15,13,8,5,14,1"
14267,commdev-image-keyboard-response,645,1508601,learnblock2,500.5,img/planet7_left.png,7,Community 1,NA,TRUE,f,f,NA,NA,NA,1,6,"12,7,3,6,10,4,2,11,9,15,13,8,5,14,1"
14267,commdev-image-keyboard-response,646,1509853,learnblock2,439.09999999403954,img/planet12_right.png,12,Community 1,NA,TRUE,j,j,NA,NA,NA,1,6,"12,7,3,6,10,4,2,11,9,15,13,8,5,14,1"
14267,commdev-image-keyboard-response,647,1511106,learnblock2,345,img/planet10_right.png,10,Community 1,NA,TRUE,j,j,NA,NA,NA,1,6,"12,7,3,6,10,4,2,11,9,15,13,8,5,14,1"
14267,commdev-image-keyboard-response,648,1512358,learnblock2,353.09999999403954,img/planet12_right.png,12,Community 1,NA,TRUE,j,j,NA,NA,NA,1,6,"12,7,3,6,10,4,2,11,9,15,13,8,5,14,1"
14267,commdev-image-keyboard-response,649,1513610,learnblock2,439.20000000298023,img/planet10_right.png,10,Community 1,NA,TRUE,j,j,NA,NA,NA,1,6,"12,7,3,6,10,4,2,11,9,15,13,8,5,14,1"
14267,commdev-image-keyboard-response,650,1514863,learnblock2,560.3000000119209,img/planet7_left.png,7,Community 1,NA,TRUE,f,f,NA,NA,NA,1,6,"12,7,3,6,10,4,2,11,9,15,13,8,5,14,1"
14267,commdev-image-keyboard-response,651,1516115,learnblock2,555.8999999910593,img/planet6_right.png,6,Community 1,NA,TRUE,j,j,NA,NA,NA,1,6,"12,7,3,6,10,4,2,11,9,15,13,8,5,14,1"
14267,commdev-image-keyboard-response,652,1517367,learnblock2,460.40000000596046,img/planet7_left.png,7,Community 1,NA,TRUE,f,f,NA,NA,NA,1,6,"12,7,3,6,10,4,2,11,9,15,13,8,5,14,1"
14267,commdev-image-keyboard-response,653,1518619,learnblock2,531.2000000029802,img/planet10_left.png,10,Community 1,NA,TRUE,f,f,NA,NA,NA,1,6,"12,7,3,6,10,4,2,11,9,15,13,8,5,14,1"
14267,commdev-image-keyboard-response,654,1519871,learnblock2,464.70000000298023,img/planet3_right.png,3,Community 1,NA,TRUE,j,j,NA,NA,NA,1,6,"12,7,3,6,10,4,2,11,9,15,13,8,5,14,1"
