subject_id,trial_type,trial_index,time_elapsed,block,rt,stimulus,planet,community,response,correct,key_press,learning_correct_response,parse,init_locations,final_locations,browser_interactions,num_comp,planet_map
14412,commdev-instructions,7,40966,NA,1617.199999999255,"<p>In this game, you will be shown a 3x3 grid of patterns.</p> <p>The last one in the bottom right-hand corner, <strong>will be missing:</strong></p> <div style='width: 700px;'><div style='float: top;'><img style='width: 200px;' src='practice/p1_M1.png'></img><p class='small'>You need to select<strong> which of the four possible patterns </strong>along the bottom<strong> fits into the gap:</strong></p></div><div style='float: top;'><img style='width: 300px;' src='practice/p1_T1.png'></img></div><br>",NA,NA,NA,NA,NA,NA,NA,NA,NA,3,6,"5,15,13,12,14,6,10,7,1,11,3,9,2,8,4"
14412,commdev-instructions,8,64332,NA,5166.70000000298,"<p>Try to be as fast and as accurate as you can be.</p> <p>If you cannot solve the puzzle then you should guess - you will not be penalised for an incorrect answer.</p> <p>The task contains a shuffled mix of easy, medium and hard puzzles.</p> <p>You will have <strong>30 seconds</strong> to complete each puzzle.</p><br>",NA,NA,NA,NA,NA,NA,NA,NA,NA,3,6,"5,15,13,12,14,6,10,7,1,11,3,9,2,8,4"
14412,commdev-instructions,15,94155,NA,2542,<p><strong>Success!</strong></p> <p>You seem to be getting the hang of this...</p> <p>Let's move on to the real trials.</p><br>,NA,NA,NA,NA,NA,NA,NA,NA,NA,3,6,"5,15,13,12,14,6,10,7,1,11,3,9,2,8,4"
14412,commdev-instructions,87,612323,NA,26176.199999999255,"<p>In this game, you are a scientist on board a space shuttle. </p><p> On each mission, you will visit planets all across the universe.</p><img src=""img/controlroom.jpg"" width=300vw>",NA,NA,NA,NA,NA,NA,NA,NA,NA,3,6,"5,15,13,12,14,6,10,7,1,11,3,9,2,8,4"
14412,commdev-instructions,88,615912,NA,1509.4000000022352,"<p>Here are a few planets you might see:</p><img src=""img/practice1.png"" width=200vw><img src=""img/practice2.png"" width=200vw><img src=""img/practice3.png"" width=200vw>",NA,NA,NA,NA,NA,NA,NA,NA,NA,3,6,"5,15,13,12,14,6,10,7,1,11,3,9,2,8,4"
14412,commdev-instructions,89,626774,NA,3463.60000000149,"<p>Your job as a scientist is to record which direction the winds are moving on each planet.</p><p>There are two types of wind directions:</p><img src=""img/practice1_left.png"" width=200vw><img src=""img/practice1_right.png"" width=200vw>",NA,NA,NA,NA,NA,NA,NA,NA,NA,3,6,"5,15,13,12,14,6,10,7,1,11,3,9,2,8,4"
14412,commdev-instructions,90,636663,NA,5012.39999999851,"<p>If the winds are moving this way, press the letter <strong>F</strong> on the keyboard as fast as you can.</p><img src=""img/leftwind.png"" width=250vw>",NA,NA,NA,NA,NA,NA,NA,NA,NA,3,6,"5,15,13,12,14,6,10,7,1,11,3,9,2,8,4"
14412,commdev-instructions,91,646112,NA,4955.60000000149,"<p>If the winds are moving this way, press the letter <strong>J</strong> on the keyboard as fast as you can.</p><img src=""img/rightwind.png"" width=350vw>",NA,NA,NA,NA,NA,NA,NA,NA,NA,3,6,"5,15,13,12,14,6,10,7,1,11,3,9,2,8,4"
14412,commdev-instructions,92,655351,NA,4821.099999997765,<p>You will have 1 second to respond. Try to respond before the time runs out!,NA,NA,NA,NA,NA,NA,NA,NA,NA,3,6,"5,15,13,12,14,6,10,7,1,11,3,9,2,8,4"
14412,commdev-instructions,93,663474,NA,2693.199999999255,<p>The planets you will visit will look different from each other.</p><p>You should respond <strong>only</strong> based on wind direction.,NA,NA,NA,NA,NA,NA,NA,NA,NA,3,6,"5,15,13,12,14,6,10,7,1,11,3,9,2,8,4"
14412,commdev-instructions,94,674389,NA,5746.10000000149,"<p> Ready to start the practice round? </p><p> Remember, press <strong>F</strong> or <strong>J</strong> depending on the wind direction.<br><img src=""img/categorize_planet_example.png""",NA,NA,NA,NA,NA,NA,NA,NA,NA,3,6,"5,15,13,12,14,6,10,7,1,11,3,9,2,8,4"
14412,commdev-instructions,106,762757,NA,7233,"<p>Great, now try a short practice mission. </p><p> This time, you will have 1 second to respond and you won't know whether you pressed the right or wrong key for each planet.</p>",NA,NA,NA,NA,NA,NA,NA,NA,NA,3,6,"5,15,13,12,14,6,10,7,1,11,3,9,2,8,4"
14412,commdev-image-keyboard-response,107,764114,practice,949.2000000029802,img/practice2_left.png,NA,Number not found in mappings,NA,TRUE,f,f,NA,NA,NA,3,6,"5,15,13,12,14,6,10,7,1,11,3,9,2,8,4"
14412,commdev-image-keyboard-response,108,765368,practice,789.1000000014901,img/practice4_left.png,NA,Number not found in mappings,NA,TRUE,f,f,NA,NA,NA,3,6,"5,15,13,12,14,6,10,7,1,11,3,9,2,8,4"
14412,commdev-image-keyboard-response,109,766620,practice,null,img/practice2_left.png,NA,Number not found in mappings,NA,FALSE,null,f,NA,NA,NA,3,6,"5,15,13,12,14,6,10,7,1,11,3,9,2,8,4"
14412,commdev-image-keyboard-response,110,767874,practice,1133.8999999985099,img/practice3_left.png,NA,Number not found in mappings,NA,TRUE,f,f,NA,NA,NA,3,6,"5,15,13,12,14,6,10,7,1,11,3,9,2,8,4"
14412,commdev-image-keyboard-response,111,769127,practice,830.3000000007451,img/practice1_right.png,NA,Number not found in mappings,NA,TRUE,j,j,NA,NA,NA,3,6,"5,15,13,12,14,6,10,7,1,11,3,9,2,8,4"
14412,commdev-image-keyboard-response,112,770380,practice,639.0999999977648,img/practice4_right.png,NA,Number not found in mappings,NA,TRUE,j,j,NA,NA,NA,3,6,"5,15,13,12,14,6,10,7,1,11,3,9,2,8,4"
14412,commdev-image-keyboard-response,113,771633,practice,656.6999999992549,img/practice3_right.png,NA,Number not found in mappings,NA,TRUE,j,j,NA,NA,NA,3,6,"5,15,13,12,14,6,10,7,1,11,3,9,2,8,4"
14412,commdev-image-keyboard-response,114,772885,practice,689.8000000007451,img/practice1_left.png,NA,Number not found in mappings,NA,TRUE,f,f,NA,NA,NA,3,6,"5,15,13,12,14,6,10,7,1,11,3,9,2,8,4"
14412,commdev-instructions,115,786194,NA,3756.900000002235,"<p>Great job with the practice round.</p><p>During real missions, you won't know whether you pressed the right or wrong key for each planet.</p><p>But between missions, we will tell you how you did overall.</p>",NA,NA,NA,NA,NA,NA,NA,NA,NA,3,6,"5,15,13,12,14,6,10,7,1,11,3,9,2,8,4"
14412,commdev-instructions,116,796845,NA,2409.400000002235,<p>Try your best! You will be paid a bonus based on how many correct responses you make!</p><p>Responses that are too slow will not count toward your bonus.</p>,NA,NA,NA,NA,NA,NA,NA,NA,NA,3,6,"5,15,13,12,14,6,10,7,1,11,3,9,2,8,4"
14412,commdev-instructions,117,806656,NA,3612.5,"<p>You are almost ready to start the real game.</p><p> First, we are going to ask you some questions about how the game works.</p>",NA,NA,NA,NA,NA,NA,NA,NA,NA,3,6,"5,15,13,12,14,6,10,7,1,11,3,9,2,8,4"
14412,commdev-instructions,126,956788,NA,7593.39999999851,"<p> Nice work! It is now time to start the real game.<p></p>You will go on two missions to record wind directions of different planets.<p></p>Each one will take about 5 minutes. You will get to take a break between missions.<p><p> Remember, press <strong>F</strong> or <strong>J</strong> depending on the wind direction. Good luck!<br><img src=""img/categorize_planet_example.png""",NA,NA,NA,NA,NA,NA,NA,NA,NA,3,6,"5,15,13,12,14,6,10,7,1,11,3,9,2,8,4"
14412,commdev-image-keyboard-response,128,960466,learnblock1,990.6000000014901,img/planet10_left.png,10,Community 2,NA,TRUE,f,f,NA,NA,NA,3,6,"5,15,13,12,14,6,10,7,1,11,3,9,2,8,4"
14412,commdev-image-keyboard-response,129,961718,learnblock1,975.1999999992549,img/planet6_left.png,6,Community 2,NA,TRUE,f,f,NA,NA,NA,3,6,"5,15,13,12,14,6,10,7,1,11,3,9,2,8,4"
14412,commdev-image-keyboard-response,130,962972,learnblock1,839.1000000014901,img/planet11_left.png,11,Community 2,NA,TRUE,f,f,NA,NA,NA,3,6,"5,15,13,12,14,6,10,7,1,11,3,9,2,8,4"
14412,commdev-image-keyboard-response,131,964224,learnblock1,906.0999999977648,img/planet6_right.png,6,Community 2,NA,TRUE,j,j,NA,NA,NA,3,6,"5,15,13,12,14,6,10,7,1,11,3,9,2,8,4"
14412,commdev-image-keyboard-response,132,965476,learnblock1,733.1000000014901,img/planet10_right.png,10,Community 2,NA,TRUE,j,j,NA,NA,NA,3,6,"5,15,13,12,14,6,10,7,1,11,3,9,2,8,4"
14412,commdev-image-keyboard-response,133,966729,learnblock1,767.8999999985099,img/planet1_right.png,1,Community 2,NA,TRUE,j,j,NA,NA,NA,3,6,"5,15,13,12,14,6,10,7,1,11,3,9,2,8,4"
14412,commdev-image-keyboard-response,134,967981,learnblock1,598.8999999985099,img/planet10_left.png,10,Community 2,NA,TRUE,f,f,NA,NA,NA,3,6,"5,15,13,12,14,6,10,7,1,11,3,9,2,8,4"
14412,commdev-image-keyboard-response,135,969234,learnblock1,861,img/planet6_right.png,6,Community 2,NA,FALSE,f,j,NA,NA,NA,3,6,"5,15,13,12,14,6,10,7,1,11,3,9,2,8,4"
14412,commdev-image-keyboard-response,136,970486,learnblock1,885.6000000014901,img/planet10_right.png,10,Community 2,NA,TRUE,j,j,NA,NA,NA,3,6,"5,15,13,12,14,6,10,7,1,11,3,9,2,8,4"
14412,commdev-image-keyboard-response,137,971740,learnblock1,908.7000000029802,img/planet6_right.png,6,Community 2,NA,TRUE,j,j,NA,NA,NA,3,6,"5,15,13,12,14,6,10,7,1,11,3,9,2,8,4"
14412,commdev-image-keyboard-response,138,972992,learnblock1,833.7999999970198,img/planet10_right.png,10,Community 2,NA,TRUE,j,j,NA,NA,NA,3,6,"5,15,13,12,14,6,10,7,1,11,3,9,2,8,4"
14412,commdev-image-keyboard-response,139,974244,learnblock1,891.8000000007451,img/planet1_right.png,1,Community 2,NA,TRUE,j,j,NA,NA,NA,3,6,"5,15,13,12,14,6,10,7,1,11,3,9,2,8,4"
14412,commdev-image-keyboard-response,140,975497,learnblock1,963.2000000029802,img/planet7_left.png,7,Community 2,NA,TRUE,f,f,NA,NA,NA,3,6,"5,15,13,12,14,6,10,7,1,11,3,9,2,8,4"
14412,commdev-image-keyboard-response,141,976749,learnblock1,1106.1000000014901,img/planet1_left.png,1,Community 2,NA,TRUE,f,f,NA,NA,NA,3,6,"5,15,13,12,14,6,10,7,1,11,3,9,2,8,4"
14412,commdev-image-keyboard-response,142,978003,learnblock1,981.1000000014901,img/planet10_right.png,10,Community 2,NA,TRUE,j,j,NA,NA,NA,3,6,"5,15,13,12,14,6,10,7,1,11,3,9,2,8,4"
14412,commdev-image-keyboard-response,143,979256,learnblock1,1131,img/planet1_right.png,1,Community 2,NA,TRUE,j,j,NA,NA,NA,3,6,"5,15,13,12,14,6,10,7,1,11,3,9,2,8,4"
14412,commdev-image-keyboard-response,144,980509,learnblock1,914,img/planet6_left.png,6,Community 2,NA,TRUE,f,f,NA,NA,NA,3,6,"5,15,13,12,14,6,10,7,1,11,3,9,2,8,4"
14412,commdev-image-keyboard-response,145,981762,learnblock1,905.0999999977648,img/planet12_right.png,12,Community 1,NA,TRUE,j,j,NA,NA,NA,3,6,"5,15,13,12,14,6,10,7,1,11,3,9,2,8,4"
14412,commdev-image-keyboard-response,146,983015,learnblock1,847.6999999992549,img/planet6_right.png,6,Community 2,NA,TRUE,j,j,NA,NA,NA,3,6,"5,15,13,12,14,6,10,7,1,11,3,9,2,8,4"
14412,commdev-image-keyboard-response,147,984268,learnblock1,898.4000000022352,img/planet1_right.png,1,Community 2,NA,TRUE,j,j,NA,NA,NA,3,6,"5,15,13,12,14,6,10,7,1,11,3,9,2,8,4"
14412,commdev-image-keyboard-response,148,985521,learnblock1,1019.1999999992549,img/planet6_right.png,6,Community 2,NA,TRUE,j,j,NA,NA,NA,3,6,"5,15,13,12,14,6,10,7,1,11,3,9,2,8,4"
14412,commdev-image-keyboard-response,149,986774,learnblock1,1003.5999999977648,img/planet12_left.png,12,Community 1,NA,TRUE,f,f,NA,NA,NA,3,6,"5,15,13,12,14,6,10,7,1,11,3,9,2,8,4"
14412,commdev-image-keyboard-response,150,988027,learnblock1,null,img/planet15_left.png,15,Community 1,NA,FALSE,null,f,NA,NA,NA,3,6,"5,15,13,12,14,6,10,7,1,11,3,9,2,8,4"
14412,commdev-image-keyboard-response,151,989281,learnblock1,104.60000000149012,img/planet12_right.png,12,Community 1,NA,FALSE,f,j,NA,NA,NA,3,6,"5,15,13,12,14,6,10,7,1,11,3,9,2,8,4"
14412,commdev-image-keyboard-response,152,990535,learnblock1,null,img/planet5_right.png,5,Community 1,NA,FALSE,null,j,NA,NA,NA,3,6,"5,15,13,12,14,6,10,7,1,11,3,9,2,8,4"
14412,commdev-image-keyboard-response,153,991789,learnblock1,1250.800000000745,img/planet13_left.png,13,Community 1,NA,TRUE,f,f,NA,NA,NA,3,6,"5,15,13,12,14,6,10,7,1,11,3,9,2,8,4"
14412,commdev-image-keyboard-response,154,993042,learnblock1,1233.8999999985099,img/planet15_left.png,15,Community 1,NA,FALSE,j,f,NA,NA,NA,3,6,"5,15,13,12,14,6,10,7,1,11,3,9,2,8,4"
14412,commdev-image-keyboard-response,155,994294,learnblock1,278,img/planet12_right.png,12,Community 1,NA,FALSE,f,j,NA,NA,NA,3,6,"5,15,13,12,14,6,10,7,1,11,3,9,2,8,4"
14412,commdev-image-keyboard-response,156,995547,learnblock1,null,img/planet13_right.png,13,Community 1,NA,FALSE,null,j,NA,NA,NA,3,6,"5,15,13,12,14,6,10,7,1,11,3,9,2,8,4"
14412,commdev-image-keyboard-response,157,996801,learnblock1,945.2999999970198,img/planet12_left.png,12,Community 1,NA,TRUE,f,f,NA,NA,NA,3,6,"5,15,13,12,14,6,10,7,1,11,3,9,2,8,4"
14412,commdev-image-keyboard-response,158,998053,learnblock1,520.6999999992549,img/planet6_left.png,6,Community 2,NA,TRUE,f,f,NA,NA,NA,3,6,"5,15,13,12,14,6,10,7,1,11,3,9,2,8,4"
14412,commdev-image-keyboard-response,159,999306,learnblock1,null,img/planet1_left.png,1,Community 2,NA,FALSE,null,f,NA,NA,NA,3,6,"5,15,13,12,14,6,10,7,1,11,3,9,2,8,4"
14412,commdev-image-keyboard-response,160,1000560,learnblock1,1188.3999999985099,img/planet10_left.png,10,Community 2,NA,TRUE,f,f,NA,NA,NA,3,6,"5,15,13,12,14,6,10,7,1,11,3,9,2,8,4"
14412,commdev-image-keyboard-response,161,1001813,learnblock1,951.6000000014901,img/planet6_right.png,6,Community 2,NA,TRUE,j,j,NA,NA,NA,3,6,"5,15,13,12,14,6,10,7,1,11,3,9,2,8,4"
14412,commdev-image-keyboard-response,162,1003066,learnblock1,964.8000000007451,img/planet10_right.png,10,Community 2,NA,TRUE,j,j,NA,NA,NA,3,6,"5,15,13,12,14,6,10,7,1,11,3,9,2,8,4"
14412,commdev-image-keyboard-response,163,1004319,learnblock1,797.5,img/planet1_left.png,1,Community 2,NA,TRUE,f,f,NA,NA,NA,3,6,"5,15,13,12,14,6,10,7,1,11,3,9,2,8,4"
14412,commdev-image-keyboard-response,164,1005571,learnblock1,987.1999999992549,img/planet6_left.png,6,Community 2,NA,TRUE,f,f,NA,NA,NA,3,6,"5,15,13,12,14,6,10,7,1,11,3,9,2,8,4"
14412,commdev-image-keyboard-response,165,1006825,learnblock1,899.6999999992549,img/planet1_right.png,1,Community 2,NA,TRUE,j,j,NA,NA,NA,3,6,"5,15,13,12,14,6,10,7,1,11,3,9,2,8,4"
14412,commdev-image-keyboard-response,166,1008079,learnblock1,1017.5999999977648,img/planet11_left.png,11,Community 2,NA,TRUE,f,f,NA,NA,NA,3,6,"5,15,13,12,14,6,10,7,1,11,3,9,2,8,4"
14412,commdev-image-keyboard-response,167,1009333,learnblock1,981.5999999977648,img/planet10_left.png,10,Community 2,NA,TRUE,f,f,NA,NA,NA,3,6,"5,15,13,12,14,6,10,7,1,11,3,9,2,8,4"
14412,commdev-image-keyboard-response,168,1010586,learnblock1,964.5,img/planet6_left.png,6,Community 2,NA,TRUE,f,f,NA,NA,NA,3,6,"5,15,13,12,14,6,10,7,1,11,3,9,2,8,4"
14412,commdev-image-keyboard-response,169,1011839,learnblock1,775.6999999992549,img/planet10_right.png,10,Community 2,NA,TRUE,j,j,NA,NA,NA,3,6,"5,15,13,12,14,6,10,7,1,11,3,9,2,8,4"
14412,commdev-image-keyboard-response,170,1013091,learnblock1,1010.3999999985099,img/planet7_right.png,7,Community 2,NA,TRUE,j,j,NA,NA,NA,3,6,"5,15,13,12,14,6,10,7,1,11,3,9,2,8,4"
14412,commdev-image-keyboard-response,171,1014344,learnblock1,null,img/planet10_left.png,10,Community 2,NA,FALSE,null,f,NA,NA,NA,3,6,"5,15,13,12,14,6,10,7,1,11,3,9,2,8,4"
14412,commdev-image-keyboard-response,172,1015597,learnblock1,868.9000000022352,img/planet6_left.png,6,Community 2,NA,TRUE,f,f,NA,NA,NA,3,6,"5,15,13,12,14,6,10,7,1,11,3,9,2,8,4"
14412,commdev-image-keyboard-response,173,1016851,learnblock1,null,img/planet11_right.png,11,Community 2,NA,FALSE,null,j,NA,NA,NA,3,6,"5,15,13,12,14,6,10,7,1,11,3,9,2,8,4"
14412,commdev-image-keyboard-response,174,1018103,learnblock1,1235.4000000022352,img/planet7_left.png,7,Community 2,NA,TRUE,f,f,NA,NA,NA,3,6,"5,15,13,12,14,6,10,7,1,11,3,9,2,8,4"
14412,commdev-image-keyboard-response,175,1019356,learnblock1,null,img/planet11_left.png,11,Community 2,NA,FALSE,null,f,NA,NA,NA,3,6,"5,15,13,12,14,6,10,7,1,11,3,9,2,8,4"
14412,commdev-image-keyboard-response,176,1020609,learnblock1,30,img/planet6_right.png,6,Community 2,NA,FALSE,f,j,NA,NA,NA,3,6,"5,15,13,12,14,6,10,7,1,11,3,9,2,8,4"
14412,commdev-image-keyboard-response,177,1021863,learnblock1,1136.300000000745,img/planet12_right.png,12,Community 1,NA,TRUE,j,j,NA,NA,NA,3,6,"5,15,13,12,14,6,10,7,1,11,3,9,2,8,4"
14412,commdev-image-keyboard-response,178,1023115,learnblock1,1010.1999999992549,img/planet5_left.png,5,Community 1,NA,TRUE,f,f,NA,NA,NA,3,6,"5,15,13,12,14,6,10,7,1,11,3,9,2,8,4"
14412,commdev-image-keyboard-response,179,1024368,learnblock1,1049.5,img/planet13_left.png,13,Community 1,NA,TRUE,f,f,NA,NA,NA,3,6,"5,15,13,12,14,6,10,7,1,11,3,9,2,8,4"
14412,commdev-image-keyboard-response,180,1025622,learnblock1,826.1999999992549,img/planet12_left.png,12,Community 1,NA,TRUE,f,f,NA,NA,NA,3,6,"5,15,13,12,14,6,10,7,1,11,3,9,2,8,4"
14412,commdev-image-keyboard-response,181,1026875,learnblock1,855.8000000007451,img/planet15_right.png,15,Community 1,NA,TRUE,j,j,NA,NA,NA,3,6,"5,15,13,12,14,6,10,7,1,11,3,9,2,8,4"
14412,commdev-image-keyboard-response,182,1028128,learnblock1,911.5,img/planet14_left.png,14,Community 1,NA,TRUE,f,f,NA,NA,NA,3,6,"5,15,13,12,14,6,10,7,1,11,3,9,2,8,4"
14412,commdev-image-keyboard-response,183,1029381,learnblock1,1088.9000000022352,img/planet3_left.png,3,Community 3,NA,TRUE,f,f,NA,NA,NA,3,6,"5,15,13,12,14,6,10,7,1,11,3,9,2,8,4"
14412,commdev-image-keyboard-response,184,1030635,learnblock1,1013.2000000029802,img/planet8_right.png,8,Community 3,NA,TRUE,j,j,NA,NA,NA,3,6,"5,15,13,12,14,6,10,7,1,11,3,9,2,8,4"
14412,commdev-image-keyboard-response,185,1031892,learnblock1,null,img/planet4_left.png,4,Community 3,NA,FALSE,null,f,NA,NA,NA,3,6,"5,15,13,12,14,6,10,7,1,11,3,9,2,8,4"
14412,commdev-image-keyboard-response,186,1033145,learnblock1,689.6999999992549,img/planet2_left.png,2,Community 3,NA,TRUE,f,f,NA,NA,NA,3,6,"5,15,13,12,14,6,10,7,1,11,3,9,2,8,4"
14412,commdev-image-keyboard-response,187,1034399,learnblock1,836.7999999970198,img/planet9_right.png,9,Community 3,NA,TRUE,j,j,NA,NA,NA,3,6,"5,15,13,12,14,6,10,7,1,11,3,9,2,8,4"
14412,commdev-image-keyboard-response,188,1035652,learnblock1,956.6999999992549,img/planet4_right.png,4,Community 3,NA,TRUE,j,j,NA,NA,NA,3,6,"5,15,13,12,14,6,10,7,1,11,3,9,2,8,4"
14412,commdev-image-keyboard-response,189,1036905,learnblock1,911,img/planet8_right.png,8,Community 3,NA,TRUE,j,j,NA,NA,NA,3,6,"5,15,13,12,14,6,10,7,1,11,3,9,2,8,4"
14412,commdev-image-keyboard-response,190,1038158,learnblock1,833.9000000022352,img/planet9_left.png,9,Community 3,NA,TRUE,f,f,NA,NA,NA,3,6,"5,15,13,12,14,6,10,7,1,11,3,9,2,8,4"
14412,commdev-image-keyboard-response,191,1039412,learnblock1,902.8999999985099,img/planet2_left.png,2,Community 3,NA,TRUE,f,f,NA,NA,NA,3,6,"5,15,13,12,14,6,10,7,1,11,3,9,2,8,4"
14412,commdev-image-keyboard-response,192,1040665,learnblock1,902.8000000007451,img/planet3_left.png,3,Community 3,NA,TRUE,f,f,NA,NA,NA,3,6,"5,15,13,12,14,6,10,7,1,11,3,9,2,8,4"
14412,commdev-image-keyboard-response,193,1041918,learnblock1,930.5,img/planet8_left.png,8,Community 3,NA,TRUE,f,f,NA,NA,NA,3,6,"5,15,13,12,14,6,10,7,1,11,3,9,2,8,4"
14412,commdev-image-keyboard-response,194,1043171,learnblock1,904.6000000014901,img/planet3_right.png,3,Community 3,NA,TRUE,j,j,NA,NA,NA,3,6,"5,15,13,12,14,6,10,7,1,11,3,9,2,8,4"
14412,commdev-image-keyboard-response,195,1044424,learnblock1,1103.7000000029802,img/planet14_left.png,14,Community 1,NA,TRUE,f,f,NA,NA,NA,3,6,"5,15,13,12,14,6,10,7,1,11,3,9,2,8,4"
14412,commdev-image-keyboard-response,196,1045677,learnblock1,932.3999999985099,img/planet5_left.png,5,Community 1,NA,TRUE,f,f,NA,NA,NA,3,6,"5,15,13,12,14,6,10,7,1,11,3,9,2,8,4"
14412,commdev-image-keyboard-response,197,1046930,learnblock1,863.5,img/planet14_left.png,14,Community 1,NA,FALSE,j,f,NA,NA,NA,3,6,"5,15,13,12,14,6,10,7,1,11,3,9,2,8,4"
14412,commdev-image-keyboard-response,198,1048183,learnblock1,null,img/planet3_right.png,3,Community 3,NA,FALSE,null,j,NA,NA,NA,3,6,"5,15,13,12,14,6,10,7,1,11,3,9,2,8,4"
14412,commdev-image-keyboard-response,199,1049437,learnblock1,389.5,img/planet2_left.png,2,Community 3,NA,TRUE,f,f,NA,NA,NA,3,6,"5,15,13,12,14,6,10,7,1,11,3,9,2,8,4"
14412,commdev-image-keyboard-response,200,1050690,learnblock1,368.1000000014901,img/planet3_right.png,3,Community 3,NA,FALSE,f,j,NA,NA,NA,3,6,"5,15,13,12,14,6,10,7,1,11,3,9,2,8,4"
14412,commdev-image-keyboard-response,201,1051944,learnblock1,606.8000000007451,img/planet14_right.png,14,Community 1,NA,FALSE,f,j,NA,NA,NA,3,6,"5,15,13,12,14,6,10,7,1,11,3,9,2,8,4"
14412,commdev-image-keyboard-response,202,1053197,learnblock1,143.70000000298023,img/planet5_left.png,5,Community 1,NA,FALSE,j,f,NA,NA,NA,3,6,"5,15,13,12,14,6,10,7,1,11,3,9,2,8,4"
14412,commdev-image-keyboard-response,203,1054450,learnblock1,48.70000000298023,img/planet12_left.png,12,Community 1,NA,TRUE,f,f,NA,NA,NA,3,6,"5,15,13,12,14,6,10,7,1,11,3,9,2,8,4"
14412,commdev-image-keyboard-response,204,1055702,learnblock1,847.3000000007451,img/planet15_left.png,15,Community 1,NA,TRUE,f,f,NA,NA,NA,3,6,"5,15,13,12,14,6,10,7,1,11,3,9,2,8,4"
14412,commdev-image-keyboard-response,205,1056955,learnblock1,null,img/planet13_left.png,13,Community 1,NA,FALSE,null,f,NA,NA,NA,3,6,"5,15,13,12,14,6,10,7,1,11,3,9,2,8,4"
14412,commdev-image-keyboard-response,206,1058208,learnblock1,852.3000000007451,img/planet12_right.png,12,Community 1,NA,TRUE,j,j,NA,NA,NA,3,6,"5,15,13,12,14,6,10,7,1,11,3,9,2,8,4"
14412,commdev-image-keyboard-response,207,1059462,learnblock1,840.9000000022352,img/planet15_left.png,15,Community 1,NA,FALSE,j,f,NA,NA,NA,3,6,"5,15,13,12,14,6,10,7,1,11,3,9,2,8,4"
14412,commdev-image-keyboard-response,208,1060715,learnblock1,null,img/planet13_right.png,13,Community 1,NA,FALSE,null,j,NA,NA,NA,3,6,"5,15,13,12,14,6,10,7,1,11,3,9,2,8,4"
14412,commdev-image-keyboard-response,209,1061968,learnblock1,1040.9000000022352,img/planet15_left.png,15,Community 1,NA,TRUE,f,f,NA,NA,NA,3,6,"5,15,13,12,14,6,10,7,1,11,3,9,2,8,4"
14412,commdev-image-keyboard-response,210,1063221,learnblock1,null,img/planet5_right.png,5,Community 1,NA,FALSE,null,j,NA,NA,NA,3,6,"5,15,13,12,14,6,10,7,1,11,3,9,2,8,4"
14412,commdev-image-keyboard-response,211,1064474,learnblock1,966.1000000014901,img/planet15_left.png,15,Community 1,NA,TRUE,f,f,NA,NA,NA,3,6,"5,15,13,12,14,6,10,7,1,11,3,9,2,8,4"
14412,commdev-image-keyboard-response,212,1065726,learnblock1,null,img/planet12_right.png,12,Community 1,NA,FALSE,null,j,NA,NA,NA,3,6,"5,15,13,12,14,6,10,7,1,11,3,9,2,8,4"
14412,commdev-image-keyboard-response,213,1066979,learnblock1,44.29999999701977,img/planet13_left.png,13,Community 1,NA,FALSE,j,f,NA,NA,NA,3,6,"5,15,13,12,14,6,10,7,1,11,3,9,2,8,4"
14412,commdev-image-keyboard-response,214,1068233,learnblock1,1226.0999999977648,img/planet14_right.png,14,Community 1,NA,FALSE,f,j,NA,NA,NA,3,6,"5,15,13,12,14,6,10,7,1,11,3,9,2,8,4"
14412,commdev-image-keyboard-response,215,1069486,learnblock1,1028.8999999985099,img/planet5_left.png,5,Community 1,NA,TRUE,f,f,NA,NA,NA,3,6,"5,15,13,12,14,6,10,7,1,11,3,9,2,8,4"
14412,commdev-image-keyboard-response,216,1070740,learnblock1,751.4000000022352,img/planet15_left.png,15,Community 1,NA,TRUE,f,f,NA,NA,NA,3,6,"5,15,13,12,14,6,10,7,1,11,3,9,2,8,4"
14412,commdev-image-keyboard-response,217,1071993,learnblock1,842.3000000007451,img/planet12_left.png,12,Community 1,NA,TRUE,f,f,NA,NA,NA,3,6,"5,15,13,12,14,6,10,7,1,11,3,9,2,8,4"
14412,commdev-image-keyboard-response,218,1073246,learnblock1,833.4000000022352,img/planet6_left.png,6,Community 2,NA,TRUE,f,f,NA,NA,NA,3,6,"5,15,13,12,14,6,10,7,1,11,3,9,2,8,4"
14412,commdev-image-keyboard-response,219,1074500,learnblock1,863.6999999992549,img/planet11_left.png,11,Community 2,NA,TRUE,f,f,NA,NA,NA,3,6,"5,15,13,12,14,6,10,7,1,11,3,9,2,8,4"
14412,commdev-image-keyboard-response,220,1075753,learnblock1,690.3999999985099,img/planet7_right.png,7,Community 2,NA,TRUE,j,j,NA,NA,NA,3,6,"5,15,13,12,14,6,10,7,1,11,3,9,2,8,4"
14412,commdev-image-keyboard-response,221,1077005,learnblock1,563.8000000007451,img/planet9_left.png,9,Community 3,NA,FALSE,j,f,NA,NA,NA,3,6,"5,15,13,12,14,6,10,7,1,11,3,9,2,8,4"
14412,commdev-image-keyboard-response,222,1078258,learnblock1,830.8000000007451,img/planet7_right.png,7,Community 2,NA,TRUE,j,j,NA,NA,NA,3,6,"5,15,13,12,14,6,10,7,1,11,3,9,2,8,4"
14412,commdev-image-keyboard-response,223,1079512,learnblock1,681.8999999985099,img/planet10_left.png,10,Community 2,NA,TRUE,f,f,NA,NA,NA,3,6,"5,15,13,12,14,6,10,7,1,11,3,9,2,8,4"
14412,commdev-image-keyboard-response,224,1080765,learnblock1,732.9000000022352,img/planet6_left.png,6,Community 2,NA,TRUE,f,f,NA,NA,NA,3,6,"5,15,13,12,14,6,10,7,1,11,3,9,2,8,4"
14412,commdev-image-keyboard-response,225,1082018,learnblock1,631,img/planet12_right.png,12,Community 1,NA,FALSE,f,j,NA,NA,NA,3,6,"5,15,13,12,14,6,10,7,1,11,3,9,2,8,4"
14412,commdev-image-keyboard-response,226,1083271,learnblock1,814.0999999977648,img/planet13_left.png,13,Community 1,NA,TRUE,f,f,NA,NA,NA,3,6,"5,15,13,12,14,6,10,7,1,11,3,9,2,8,4"
14412,commdev-image-keyboard-response,227,1084523,learnblock1,813,img/planet14_left.png,14,Community 1,NA,TRUE,f,f,NA,NA,NA,3,6,"5,15,13,12,14,6,10,7,1,11,3,9,2,8,4"
14412,commdev-image-keyboard-response,228,1085776,learnblock1,790.8000000007451,img/planet3_right.png,3,Community 3,NA,TRUE,j,j,NA,NA,NA,3,6,"5,15,13,12,14,6,10,7,1,11,3,9,2,8,4"
14412,commdev-image-keyboard-response,229,1087028,learnblock1,919.1999999992549,img/planet2_right.png,2,Community 3,NA,TRUE,j,j,NA,NA,NA,3,6,"5,15,13,12,14,6,10,7,1,11,3,9,2,8,4"
14412,commdev-image-keyboard-response,230,1088281,learnblock1,898.9000000022352,img/planet4_left.png,4,Community 3,NA,TRUE,f,f,NA,NA,NA,3,6,"5,15,13,12,14,6,10,7,1,11,3,9,2,8,4"
14412,commdev-image-keyboard-response,231,1089534,learnblock1,991.9000000022352,img/planet8_right.png,8,Community 3,NA,TRUE,j,j,NA,NA,NA,3,6,"5,15,13,12,14,6,10,7,1,11,3,9,2,8,4"
14412,commdev-image-keyboard-response,232,1090787,learnblock1,1132.8999999985099,img/planet9_right.png,9,Community 3,NA,TRUE,j,j,NA,NA,NA,3,6,"5,15,13,12,14,6,10,7,1,11,3,9,2,8,4"
14412,commdev-image-keyboard-response,233,1092040,learnblock1,928.5,img/planet8_right.png,8,Community 3,NA,TRUE,j,j,NA,NA,NA,3,6,"5,15,13,12,14,6,10,7,1,11,3,9,2,8,4"
14412,commdev-image-keyboard-response,234,1093292,learnblock1,1051.699999999255,img/planet4_right.png,4,Community 3,NA,TRUE,j,j,NA,NA,NA,3,6,"5,15,13,12,14,6,10,7,1,11,3,9,2,8,4"
14412,commdev-image-keyboard-response,235,1094546,learnblock1,1007.8999999985099,img/planet2_right.png,2,Community 3,NA,TRUE,j,j,NA,NA,NA,3,6,"5,15,13,12,14,6,10,7,1,11,3,9,2,8,4"
14412,commdev-image-keyboard-response,236,1095799,learnblock1,879.4000000022352,img/planet9_right.png,9,Community 3,NA,TRUE,j,j,NA,NA,NA,3,6,"5,15,13,12,14,6,10,7,1,11,3,9,2,8,4"
14412,commdev-image-keyboard-response,237,1097053,learnblock1,819.5,img/planet7_left.png,7,Community 2,NA,TRUE,f,f,NA,NA,NA,3,6,"5,15,13,12,14,6,10,7,1,11,3,9,2,8,4"
14412,commdev-image-keyboard-response,238,1098306,learnblock1,863.2000000029802,img/planet9_right.png,9,Community 3,NA,TRUE,j,j,NA,NA,NA,3,6,"5,15,13,12,14,6,10,7,1,11,3,9,2,8,4"
14412,commdev-image-keyboard-response,239,1099560,learnblock1,826.8999999985099,img/planet2_right.png,2,Community 3,NA,TRUE,j,j,NA,NA,NA,3,6,"5,15,13,12,14,6,10,7,1,11,3,9,2,8,4"
14412,commdev-image-keyboard-response,240,1100813,learnblock1,935.1999999992549,img/planet4_left.png,4,Community 3,NA,TRUE,f,f,NA,NA,NA,3,6,"5,15,13,12,14,6,10,7,1,11,3,9,2,8,4"
14412,commdev-image-keyboard-response,241,1102066,learnblock1,869.6999999992549,img/planet2_left.png,2,Community 3,NA,TRUE,f,f,NA,NA,NA,3,6,"5,15,13,12,14,6,10,7,1,11,3,9,2,8,4"
14412,commdev-image-keyboard-response,242,1103319,learnblock1,889.6999999992549,img/planet9_right.png,9,Community 3,NA,TRUE,j,j,NA,NA,NA,3,6,"5,15,13,12,14,6,10,7,1,11,3,9,2,8,4"
14412,commdev-image-keyboard-response,243,1104572,learnblock1,873.6999999992549,img/planet2_left.png,2,Community 3,NA,TRUE,f,f,NA,NA,NA,3,6,"5,15,13,12,14,6,10,7,1,11,3,9,2,8,4"
14412,commdev-image-keyboard-response,244,1105825,learnblock1,873.1999999992549,img/planet9_left.png,9,Community 3,NA,TRUE,f,f,NA,NA,NA,3,6,"5,15,13,12,14,6,10,7,1,11,3,9,2,8,4"
14412,commdev-image-keyboard-response,245,1107078,learnblock1,949.3000000007451,img/planet8_left.png,8,Community 3,NA,TRUE,f,f,NA,NA,NA,3,6,"5,15,13,12,14,6,10,7,1,11,3,9,2,8,4"
14412,commdev-image-keyboard-response,246,1108331,learnblock1,996.6000000014901,img/planet3_left.png,3,Community 3,NA,TRUE,f,f,NA,NA,NA,3,6,"5,15,13,12,14,6,10,7,1,11,3,9,2,8,4"
14412,commdev-image-keyboard-response,247,1109583,learnblock1,552.1000000014901,img/planet2_right.png,2,Community 3,NA,TRUE,j,j,NA,NA,NA,3,6,"5,15,13,12,14,6,10,7,1,11,3,9,2,8,4"
14412,commdev-image-keyboard-response,248,1110836,learnblock1,683,img/planet9_right.png,9,Community 3,NA,TRUE,j,j,NA,NA,NA,3,6,"5,15,13,12,14,6,10,7,1,11,3,9,2,8,4"
14412,commdev-image-keyboard-response,249,1112089,learnblock1,696.8000000007451,img/planet8_right.png,8,Community 3,NA,TRUE,j,j,NA,NA,NA,3,6,"5,15,13,12,14,6,10,7,1,11,3,9,2,8,4"
14412,commdev-image-keyboard-response,250,1113342,learnblock1,841.8000000007451,img/planet2_left.png,2,Community 3,NA,TRUE,f,f,NA,NA,NA,3,6,"5,15,13,12,14,6,10,7,1,11,3,9,2,8,4"
14412,commdev-image-keyboard-response,251,1114595,learnblock1,680.3000000007451,img/planet8_right.png,8,Community 3,NA,TRUE,j,j,NA,NA,NA,3,6,"5,15,13,12,14,6,10,7,1,11,3,9,2,8,4"
14412,commdev-image-keyboard-response,252,1115848,learnblock1,1057.5,img/planet3_right.png,3,Community 3,NA,TRUE,j,j,NA,NA,NA,3,6,"5,15,13,12,14,6,10,7,1,11,3,9,2,8,4"
14412,commdev-image-keyboard-response,253,1117101,learnblock1,null,img/planet4_left.png,4,Community 3,NA,FALSE,null,f,NA,NA,NA,3,6,"5,15,13,12,14,6,10,7,1,11,3,9,2,8,4"
14412,commdev-image-keyboard-response,254,1118354,learnblock1,80.69999999925494,img/planet3_right.png,3,Community 3,NA,FALSE,f,j,NA,NA,NA,3,6,"5,15,13,12,14,6,10,7,1,11,3,9,2,8,4"
14412,commdev-image-keyboard-response,255,1119606,learnblock1,null,img/planet8_right.png,8,Community 3,NA,FALSE,null,j,NA,NA,NA,3,6,"5,15,13,12,14,6,10,7,1,11,3,9,2,8,4"
14412,commdev-image-keyboard-response,256,1120859,learnblock1,101.5,img/planet9_left.png,9,Community 3,NA,FALSE,j,f,NA,NA,NA,3,6,"5,15,13,12,14,6,10,7,1,11,3,9,2,8,4"
14412,commdev-image-keyboard-response,257,1122112,learnblock1,1018.8000000007451,img/planet7_left.png,7,Community 2,NA,TRUE,f,f,NA,NA,NA,3,6,"5,15,13,12,14,6,10,7,1,11,3,9,2,8,4"
14412,commdev-image-keyboard-response,258,1123365,learnblock1,null,img/planet11_right.png,11,Community 2,NA,FALSE,null,j,NA,NA,NA,3,6,"5,15,13,12,14,6,10,7,1,11,3,9,2,8,4"
14412,commdev-image-keyboard-response,259,1124618,learnblock1,46.5,img/planet10_right.png,10,Community 2,NA,FALSE,f,j,NA,NA,NA,3,6,"5,15,13,12,14,6,10,7,1,11,3,9,2,8,4"
14412,commdev-image-keyboard-response,260,1125871,learnblock1,743.8000000007451,img/planet7_right.png,7,Community 2,NA,TRUE,j,j,NA,NA,NA,3,6,"5,15,13,12,14,6,10,7,1,11,3,9,2,8,4"
14412,commdev-image-keyboard-response,261,1127124,learnblock1,null,img/planet11_left.png,11,Community 2,NA,FALSE,null,f,NA,NA,NA,3,6,"5,15,13,12,14,6,10,7,1,11,3,9,2,8,4"
14412,commdev-image-keyboard-response,262,1128379,learnblock1,84.19999999925494,img/planet7_right.png,7,Community 2,NA,FALSE,f,j,NA,NA,NA,3,6,"5,15,13,12,14,6,10,7,1,11,3,9,2,8,4"
14412,commdev-image-keyboard-response,263,1129632,learnblock1,82.5,img/planet9_right.png,9,Community 3,NA,TRUE,j,j,NA,NA,NA,3,6,"5,15,13,12,14,6,10,7,1,11,3,9,2,8,4"
14412,commdev-image-keyboard-response,264,1130885,learnblock1,1173.8999999985099,img/planet4_left.png,4,Community 3,NA,TRUE,f,f,NA,NA,NA,3,6,"5,15,13,12,14,6,10,7,1,11,3,9,2,8,4"
14412,commdev-image-keyboard-response,265,1132138,learnblock1,848.6999999992549,img/planet2_left.png,2,Community 3,NA,TRUE,f,f,NA,NA,NA,3,6,"5,15,13,12,14,6,10,7,1,11,3,9,2,8,4"
14412,commdev-image-keyboard-response,266,1133391,learnblock1,694.3000000007451,img/planet8_right.png,8,Community 3,NA,FALSE,f,j,NA,NA,NA,3,6,"5,15,13,12,14,6,10,7,1,11,3,9,2,8,4"
14412,commdev-image-keyboard-response,267,1134645,learnblock1,715,img/planet9_left.png,9,Community 3,NA,TRUE,f,f,NA,NA,NA,3,6,"5,15,13,12,14,6,10,7,1,11,3,9,2,8,4"
14412,commdev-image-keyboard-response,268,1135898,learnblock1,1024.800000000745,img/planet2_right.png,2,Community 3,NA,TRUE,j,j,NA,NA,NA,3,6,"5,15,13,12,14,6,10,7,1,11,3,9,2,8,4"
14412,commdev-image-keyboard-response,269,1137151,learnblock1,661.9000000022352,img/planet3_right.png,3,Community 3,NA,FALSE,f,j,NA,NA,NA,3,6,"5,15,13,12,14,6,10,7,1,11,3,9,2,8,4"
14412,commdev-image-keyboard-response,270,1138404,learnblock1,1094.7000000029802,img/planet4_left.png,4,Community 3,NA,TRUE,f,f,NA,NA,NA,3,6,"5,15,13,12,14,6,10,7,1,11,3,9,2,8,4"
14412,commdev-image-keyboard-response,271,1139657,learnblock1,null,img/planet9_right.png,9,Community 3,NA,FALSE,null,j,NA,NA,NA,3,6,"5,15,13,12,14,6,10,7,1,11,3,9,2,8,4"
14412,commdev-image-keyboard-response,272,1140911,learnblock1,363.19999999925494,img/planet8_right.png,8,Community 3,NA,TRUE,j,j,NA,NA,NA,3,6,"5,15,13,12,14,6,10,7,1,11,3,9,2,8,4"
14412,commdev-image-keyboard-response,273,1142164,learnblock1,342,img/planet3_right.png,3,Community 3,NA,FALSE,f,j,NA,NA,NA,3,6,"5,15,13,12,14,6,10,7,1,11,3,9,2,8,4"
14412,commdev-image-keyboard-response,274,1143417,learnblock1,821.8999999985099,img/planet2_right.png,2,Community 3,NA,TRUE,j,j,NA,NA,NA,3,6,"5,15,13,12,14,6,10,7,1,11,3,9,2,8,4"
14412,commdev-image-keyboard-response,275,1144670,learnblock1,902.6000000014901,img/planet3_right.png,3,Community 3,NA,TRUE,j,j,NA,NA,NA,3,6,"5,15,13,12,14,6,10,7,1,11,3,9,2,8,4"
14412,commdev-image-keyboard-response,276,1145923,learnblock1,768.5,img/planet4_left.png,4,Community 3,NA,TRUE,f,f,NA,NA,NA,3,6,"5,15,13,12,14,6,10,7,1,11,3,9,2,8,4"
14412,commdev-image-keyboard-response,277,1147175,learnblock1,797.6000000014901,img/planet2_left.png,2,Community 3,NA,TRUE,f,f,NA,NA,NA,3,6,"5,15,13,12,14,6,10,7,1,11,3,9,2,8,4"
14412,commdev-image-keyboard-response,278,1148427,learnblock1,796,img/planet8_left.png,8,Community 3,NA,TRUE,f,f,NA,NA,NA,3,6,"5,15,13,12,14,6,10,7,1,11,3,9,2,8,4"
14412,commdev-image-keyboard-response,279,1149680,learnblock1,719.7999999970198,img/planet3_left.png,3,Community 3,NA,TRUE,f,f,NA,NA,NA,3,6,"5,15,13,12,14,6,10,7,1,11,3,9,2,8,4"
14412,commdev-image-keyboard-response,280,1150932,learnblock1,621.5,img/planet8_left.png,8,Community 3,NA,TRUE,f,f,NA,NA,NA,3,6,"5,15,13,12,14,6,10,7,1,11,3,9,2,8,4"
14412,commdev-image-keyboard-response,281,1152185,learnblock1,1011.1000000014901,img/planet3_left.png,3,Community 3,NA,TRUE,f,f,NA,NA,NA,3,6,"5,15,13,12,14,6,10,7,1,11,3,9,2,8,4"
14412,commdev-image-keyboard-response,282,1153438,learnblock1,null,img/planet14_right.png,14,Community 1,NA,FALSE,null,j,NA,NA,NA,3,6,"5,15,13,12,14,6,10,7,1,11,3,9,2,8,4"
14412,commdev-image-keyboard-response,283,1154692,learnblock1,73.19999999925494,img/planet3_left.png,3,Community 3,NA,FALSE,j,f,NA,NA,NA,3,6,"5,15,13,12,14,6,10,7,1,11,3,9,2,8,4"
14412,commdev-image-keyboard-response,284,1155945,learnblock1,1127,img/planet8_right.png,8,Community 3,NA,TRUE,j,j,NA,NA,NA,3,6,"5,15,13,12,14,6,10,7,1,11,3,9,2,8,4"
14412,commdev-image-keyboard-response,285,1157198,learnblock1,868.1000000014901,img/planet9_right.png,9,Community 3,NA,FALSE,f,j,NA,NA,NA,3,6,"5,15,13,12,14,6,10,7,1,11,3,9,2,8,4"
14412,commdev-image-keyboard-response,286,1158451,learnblock1,395.30000000074506,img/planet2_left.png,2,Community 3,NA,TRUE,f,f,NA,NA,NA,3,6,"5,15,13,12,14,6,10,7,1,11,3,9,2,8,4"
14412,commdev-image-keyboard-response,287,1159704,learnblock1,1141.199999999255,img/planet4_right.png,4,Community 3,NA,FALSE,f,j,NA,NA,NA,3,6,"5,15,13,12,14,6,10,7,1,11,3,9,2,8,4"
14412,commdev-image-keyboard-response,288,1160957,learnblock1,996.3000000007451,img/planet3_right.png,3,Community 3,NA,TRUE,j,j,NA,NA,NA,3,6,"5,15,13,12,14,6,10,7,1,11,3,9,2,8,4"
14412,commdev-image-keyboard-response,289,1162210,learnblock1,1135.199999999255,img/planet2_right.png,2,Community 3,NA,TRUE,j,j,NA,NA,NA,3,6,"5,15,13,12,14,6,10,7,1,11,3,9,2,8,4"
14412,commdev-image-keyboard-response,290,1163463,learnblock1,1180.0999999977648,img/planet9_right.png,9,Community 3,NA,FALSE,f,j,NA,NA,NA,3,6,"5,15,13,12,14,6,10,7,1,11,3,9,2,8,4"
14412,commdev-image-keyboard-response,291,1164716,learnblock1,1079.7000000029802,img/planet7_left.png,7,Community 2,NA,TRUE,f,f,NA,NA,NA,3,6,"5,15,13,12,14,6,10,7,1,11,3,9,2,8,4"
14412,commdev-image-keyboard-response,292,1165970,learnblock1,958.8000000007451,img/planet11_left.png,11,Community 2,NA,TRUE,f,f,NA,NA,NA,3,6,"5,15,13,12,14,6,10,7,1,11,3,9,2,8,4"
14412,commdev-image-keyboard-response,293,1167223,learnblock1,1038.800000000745,img/planet7_right.png,7,Community 2,NA,FALSE,f,j,NA,NA,NA,3,6,"5,15,13,12,14,6,10,7,1,11,3,9,2,8,4"
14412,commdev-image-keyboard-response,294,1168475,learnblock1,880.5,img/planet1_right.png,1,Community 2,NA,TRUE,j,j,NA,NA,NA,3,6,"5,15,13,12,14,6,10,7,1,11,3,9,2,8,4"
14412,commdev-image-keyboard-response,295,1169728,learnblock1,884.5999999977648,img/planet6_left.png,6,Community 2,NA,TRUE,f,f,NA,NA,NA,3,6,"5,15,13,12,14,6,10,7,1,11,3,9,2,8,4"
14412,commdev-image-keyboard-response,296,1170981,learnblock1,null,img/planet11_left.png,11,Community 2,NA,FALSE,null,f,NA,NA,NA,3,6,"5,15,13,12,14,6,10,7,1,11,3,9,2,8,4"
14412,commdev-image-keyboard-response,297,1172234,learnblock1,717.5999999977648,img/planet10_right.png,10,Community 2,NA,TRUE,j,j,NA,NA,NA,3,6,"5,15,13,12,14,6,10,7,1,11,3,9,2,8,4"
14412,commdev-image-keyboard-response,298,1173487,learnblock1,null,img/planet11_right.png,11,Community 2,NA,FALSE,null,j,NA,NA,NA,3,6,"5,15,13,12,14,6,10,7,1,11,3,9,2,8,4"
14412,commdev-image-keyboard-response,299,1174740,learnblock1,469.30000000074506,img/planet6_left.png,6,Community 2,NA,TRUE,f,f,NA,NA,NA,3,6,"5,15,13,12,14,6,10,7,1,11,3,9,2,8,4"
14412,commdev-image-keyboard-response,300,1175992,learnblock1,566.6000000014901,img/planet11_right.png,11,Community 2,NA,FALSE,f,j,NA,NA,NA,3,6,"5,15,13,12,14,6,10,7,1,11,3,9,2,8,4"
14412,commdev-image-keyboard-response,301,1177245,learnblock1,750.5,img/planet1_left.png,1,Community 2,NA,TRUE,f,f,NA,NA,NA,3,6,"5,15,13,12,14,6,10,7,1,11,3,9,2,8,4"
14412,commdev-image-keyboard-response,302,1178498,learnblock1,822.3000000007451,img/planet7_left.png,7,Community 2,NA,TRUE,f,f,NA,NA,NA,3,6,"5,15,13,12,14,6,10,7,1,11,3,9,2,8,4"
14412,commdev-image-keyboard-response,303,1179752,learnblock1,141.80000000074506,img/planet9_right.png,9,Community 3,NA,FALSE,f,j,NA,NA,NA,3,6,"5,15,13,12,14,6,10,7,1,11,3,9,2,8,4"
14412,commdev-image-keyboard-response,304,1181005,learnblock1,831.8999999985099,img/planet2_right.png,2,Community 3,NA,TRUE,j,j,NA,NA,NA,3,6,"5,15,13,12,14,6,10,7,1,11,3,9,2,8,4"
14412,commdev-image-keyboard-response,305,1182258,learnblock1,846.7000000029802,img/planet4_left.png,4,Community 3,NA,TRUE,f,f,NA,NA,NA,3,6,"5,15,13,12,14,6,10,7,1,11,3,9,2,8,4"
14412,commdev-image-keyboard-response,306,1183513,learnblock1,1044.1000000014901,img/planet3_right.png,3,Community 3,NA,TRUE,j,j,NA,NA,NA,3,6,"5,15,13,12,14,6,10,7,1,11,3,9,2,8,4"
14412,commdev-image-keyboard-response,307,1184767,learnblock1,1160,img/planet4_left.png,4,Community 3,NA,TRUE,f,f,NA,NA,NA,3,6,"5,15,13,12,14,6,10,7,1,11,3,9,2,8,4"
14412,commdev-image-keyboard-response,308,1186020,learnblock1,1147.1000000014901,img/planet3_right.png,3,Community 3,NA,TRUE,j,j,NA,NA,NA,3,6,"5,15,13,12,14,6,10,7,1,11,3,9,2,8,4"
14412,commdev-image-keyboard-response,309,1187272,learnblock1,1031,img/planet2_right.png,2,Community 3,NA,TRUE,j,j,NA,NA,NA,3,6,"5,15,13,12,14,6,10,7,1,11,3,9,2,8,4"
14412,commdev-image-keyboard-response,310,1188525,learnblock1,665.2999999970198,img/planet8_right.png,8,Community 3,NA,TRUE,j,j,NA,NA,NA,3,6,"5,15,13,12,14,6,10,7,1,11,3,9,2,8,4"
14412,commdev-image-keyboard-response,311,1189779,learnblock1,618.3999999985099,img/planet2_left.png,2,Community 3,NA,FALSE,j,f,NA,NA,NA,3,6,"5,15,13,12,14,6,10,7,1,11,3,9,2,8,4"
14412,commdev-image-keyboard-response,312,1191032,learnblock1,85.59999999776483,img/planet8_left.png,8,Community 3,NA,TRUE,f,f,NA,NA,NA,3,6,"5,15,13,12,14,6,10,7,1,11,3,9,2,8,4"
14412,commdev-image-keyboard-response,313,1192285,learnblock1,null,img/planet4_left.png,4,Community 3,NA,FALSE,null,f,NA,NA,NA,3,6,"5,15,13,12,14,6,10,7,1,11,3,9,2,8,4"
14412,commdev-image-keyboard-response,314,1193538,learnblock1,80.39999999850988,img/planet9_left.png,9,Community 3,NA,TRUE,f,f,NA,NA,NA,3,6,"5,15,13,12,14,6,10,7,1,11,3,9,2,8,4"
14412,commdev-image-keyboard-response,315,1194791,learnblock1,809.2999999970198,img/planet4_left.png,4,Community 3,NA,TRUE,f,f,NA,NA,NA,3,6,"5,15,13,12,14,6,10,7,1,11,3,9,2,8,4"
14412,commdev-image-keyboard-response,316,1196044,learnblock1,649.3000000007451,img/planet8_left.png,8,Community 3,NA,TRUE,f,f,NA,NA,NA,3,6,"5,15,13,12,14,6,10,7,1,11,3,9,2,8,4"
14412,commdev-image-keyboard-response,317,1197297,learnblock1,564.0999999977648,img/planet2_right.png,2,Community 3,NA,FALSE,f,j,NA,NA,NA,3,6,"5,15,13,12,14,6,10,7,1,11,3,9,2,8,4"
14412,commdev-image-keyboard-response,318,1198549,learnblock1,897.8000000007451,img/planet9_left.png,9,Community 3,NA,TRUE,f,f,NA,NA,NA,3,6,"5,15,13,12,14,6,10,7,1,11,3,9,2,8,4"
14412,commdev-image-keyboard-response,319,1199803,learnblock1,940.6000000014901,img/planet4_left.png,4,Community 3,NA,TRUE,f,f,NA,NA,NA,3,6,"5,15,13,12,14,6,10,7,1,11,3,9,2,8,4"
14412,commdev-image-keyboard-response,320,1201056,learnblock1,914.1999999992549,img/planet9_left.png,9,Community 3,NA,TRUE,f,f,NA,NA,NA,3,6,"5,15,13,12,14,6,10,7,1,11,3,9,2,8,4"
14412,commdev-image-keyboard-response,321,1202309,learnblock1,832.2999999970198,img/planet4_left.png,4,Community 3,NA,TRUE,f,f,NA,NA,NA,3,6,"5,15,13,12,14,6,10,7,1,11,3,9,2,8,4"
14412,commdev-image-keyboard-response,322,1203562,learnblock1,830.2999999970198,img/planet9_left.png,9,Community 3,NA,TRUE,f,f,NA,NA,NA,3,6,"5,15,13,12,14,6,10,7,1,11,3,9,2,8,4"
14412,commdev-image-keyboard-response,323,1204815,learnblock1,615.1999999992549,img/planet8_right.png,8,Community 3,NA,TRUE,j,j,NA,NA,NA,3,6,"5,15,13,12,14,6,10,7,1,11,3,9,2,8,4"
14412,commdev-image-keyboard-response,324,1206068,learnblock1,866.3999999985099,img/planet9_left.png,9,Community 3,NA,TRUE,f,f,NA,NA,NA,3,6,"5,15,13,12,14,6,10,7,1,11,3,9,2,8,4"
14412,commdev-image-keyboard-response,325,1207321,learnblock1,854.8000000007451,img/planet8_left.png,8,Community 3,NA,TRUE,f,f,NA,NA,NA,3,6,"5,15,13,12,14,6,10,7,1,11,3,9,2,8,4"
14412,commdev-image-keyboard-response,326,1208575,learnblock1,805.1999999992549,img/planet2_right.png,2,Community 3,NA,TRUE,j,j,NA,NA,NA,3,6,"5,15,13,12,14,6,10,7,1,11,3,9,2,8,4"
14412,commdev-image-keyboard-response,327,1209827,learnblock1,887.1000000014901,img/planet3_left.png,3,Community 3,NA,TRUE,f,f,NA,NA,NA,3,6,"5,15,13,12,14,6,10,7,1,11,3,9,2,8,4"
14412,commdev-image-keyboard-response,328,1211080,learnblock1,868.6000000014901,img/planet14_right.png,14,Community 1,NA,TRUE,j,j,NA,NA,NA,3,6,"5,15,13,12,14,6,10,7,1,11,3,9,2,8,4"
14412,commdev-image-keyboard-response,329,1212334,learnblock1,927.6000000014901,img/planet13_left.png,13,Community 1,NA,TRUE,f,f,NA,NA,NA,3,6,"5,15,13,12,14,6,10,7,1,11,3,9,2,8,4"
14412,commdev-image-keyboard-response,330,1213588,learnblock1,948.6000000014901,img/planet14_left.png,14,Community 1,NA,TRUE,f,f,NA,NA,NA,3,6,"5,15,13,12,14,6,10,7,1,11,3,9,2,8,4"
14412,commdev-image-keyboard-response,331,1214841,learnblock1,944.1999999992549,img/planet5_left.png,5,Community 1,NA,TRUE,f,f,NA,NA,NA,3,6,"5,15,13,12,14,6,10,7,1,11,3,9,2,8,4"
14412,commdev-image-keyboard-response,332,1216094,learnblock1,1112.5,img/planet15_left.png,15,Community 1,NA,TRUE,f,f,NA,NA,NA,3,6,"5,15,13,12,14,6,10,7,1,11,3,9,2,8,4"
14412,commdev-image-keyboard-response,333,1217347,learnblock1,null,img/planet14_right.png,14,Community 1,NA,FALSE,null,j,NA,NA,NA,3,6,"5,15,13,12,14,6,10,7,1,11,3,9,2,8,4"
14412,commdev-image-keyboard-response,334,1218601,learnblock1,28.800000000745058,img/planet13_right.png,13,Community 1,NA,TRUE,j,j,NA,NA,NA,3,6,"5,15,13,12,14,6,10,7,1,11,3,9,2,8,4"
14412,commdev-image-keyboard-response,335,1219854,learnblock1,196.10000000149012,img/planet5_left.png,5,Community 1,NA,FALSE,j,f,NA,NA,NA,3,6,"5,15,13,12,14,6,10,7,1,11,3,9,2,8,4"
14412,commdev-image-keyboard-response,336,1221109,learnblock1,1.9000000022351742,img/planet14_left.png,14,Community 1,NA,TRUE,f,f,NA,NA,NA,3,6,"5,15,13,12,14,6,10,7,1,11,3,9,2,8,4"
14412,commdev-image-keyboard-response,337,1222362,learnblock1,113.59999999776483,img/planet5_right.png,5,Community 1,NA,TRUE,j,j,NA,NA,NA,3,6,"5,15,13,12,14,6,10,7,1,11,3,9,2,8,4"
14412,commdev-image-keyboard-response,338,1223615,learnblock1,1205.5,img/planet13_left.png,13,Community 1,NA,TRUE,f,f,NA,NA,NA,3,6,"5,15,13,12,14,6,10,7,1,11,3,9,2,8,4"
14412,commdev-image-keyboard-response,339,1224868,learnblock1,null,img/planet14_right.png,14,Community 1,NA,FALSE,null,j,NA,NA,NA,3,6,"5,15,13,12,14,6,10,7,1,11,3,9,2,8,4"
14412,commdev-image-keyboard-response,340,1226121,learnblock1,1003,img/planet5_right.png,5,Community 1,NA,FALSE,f,j,NA,NA,NA,3,6,"5,15,13,12,14,6,10,7,1,11,3,9,2,8,4"
14412,commdev-image-keyboard-response,341,1227375,learnblock1,906.3000000007451,img/planet13_left.png,13,Community 1,NA,TRUE,f,f,NA,NA,NA,3,6,"5,15,13,12,14,6,10,7,1,11,3,9,2,8,4"
14412,commdev-image-keyboard-response,342,1228628,learnblock1,null,img/planet5_left.png,5,Community 1,NA,FALSE,null,f,NA,NA,NA,3,6,"5,15,13,12,14,6,10,7,1,11,3,9,2,8,4"
14412,commdev-image-keyboard-response,343,1229881,learnblock1,22.300000000745058,img/planet15_left.png,15,Community 1,NA,TRUE,f,f,NA,NA,NA,3,6,"5,15,13,12,14,6,10,7,1,11,3,9,2,8,4"
14412,commdev-image-keyboard-response,344,1231135,learnblock1,611.5999999977648,img/planet5_right.png,5,Community 1,NA,TRUE,j,j,NA,NA,NA,3,6,"5,15,13,12,14,6,10,7,1,11,3,9,2,8,4"
14412,commdev-image-keyboard-response,345,1232388,learnblock1,779.3000000007451,img/planet13_right.png,13,Community 1,NA,TRUE,j,j,NA,NA,NA,3,6,"5,15,13,12,14,6,10,7,1,11,3,9,2,8,4"
14412,commdev-image-keyboard-response,346,1233641,learnblock1,830.8000000007451,img/planet5_right.png,5,Community 1,NA,TRUE,j,j,NA,NA,NA,3,6,"5,15,13,12,14,6,10,7,1,11,3,9,2,8,4"
14412,commdev-image-keyboard-response,347,1234893,learnblock1,888.3999999985099,img/planet13_left.png,13,Community 1,NA,TRUE,f,f,NA,NA,NA,3,6,"5,15,13,12,14,6,10,7,1,11,3,9,2,8,4"
14412,commdev-image-keyboard-response,348,1236145,learnblock1,1208.699999999255,img/planet14_right.png,14,Community 1,NA,FALSE,f,j,NA,NA,NA,3,6,"5,15,13,12,14,6,10,7,1,11,3,9,2,8,4"
14412,commdev-image-keyboard-response,349,1237397,learnblock1,984.3000000007451,img/planet15_left.png,15,Community 1,NA,TRUE,f,f,NA,NA,NA,3,6,"5,15,13,12,14,6,10,7,1,11,3,9,2,8,4"
14412,commdev-image-keyboard-response,350,1238650,learnblock1,null,img/planet14_right.png,14,Community 1,NA,FALSE,null,j,NA,NA,NA,3,6,"5,15,13,12,14,6,10,7,1,11,3,9,2,8,4"
14412,commdev-image-keyboard-response,351,1239903,learnblock1,175.19999999925494,img/planet3_left.png,3,Community 3,NA,TRUE,f,f,NA,NA,NA,3,6,"5,15,13,12,14,6,10,7,1,11,3,9,2,8,4"
14412,commdev-image-keyboard-response,352,1241156,learnblock1,1237.4000000022352,img/planet8_right.png,8,Community 3,NA,FALSE,f,j,NA,NA,NA,3,6,"5,15,13,12,14,6,10,7,1,11,3,9,2,8,4"
14412,commdev-image-keyboard-response,353,1242409,learnblock1,274.3999999985099,img/planet4_left.png,4,Community 3,NA,FALSE,j,f,NA,NA,NA,3,6,"5,15,13,12,14,6,10,7,1,11,3,9,2,8,4"
14412,commdev-image-keyboard-response,354,1243662,learnblock1,743,img/planet8_left.png,8,Community 3,NA,FALSE,j,f,NA,NA,NA,3,6,"5,15,13,12,14,6,10,7,1,11,3,9,2,8,4"
14412,commdev-image-keyboard-response,355,1244915,learnblock1,724.3999999985099,img/planet4_left.png,4,Community 3,NA,FALSE,j,f,NA,NA,NA,3,6,"5,15,13,12,14,6,10,7,1,11,3,9,2,8,4"
14412,commdev-image-keyboard-response,356,1246168,learnblock1,122.60000000149012,img/planet9_left.png,9,Community 3,NA,TRUE,f,f,NA,NA,NA,3,6,"5,15,13,12,14,6,10,7,1,11,3,9,2,8,4"
14412,commdev-image-keyboard-response,357,1247420,learnblock1,null,img/planet8_right.png,8,Community 3,NA,FALSE,null,j,NA,NA,NA,3,6,"5,15,13,12,14,6,10,7,1,11,3,9,2,8,4"
14412,commdev-image-keyboard-response,358,1248674,learnblock1,827.2999999970198,img/planet9_right.png,9,Community 3,NA,TRUE,j,j,NA,NA,NA,3,6,"5,15,13,12,14,6,10,7,1,11,3,9,2,8,4"
14412,commdev-image-keyboard-response,359,1249928,learnblock1,614.5999999977648,img/planet8_right.png,8,Community 3,NA,TRUE,j,j,NA,NA,NA,3,6,"5,15,13,12,14,6,10,7,1,11,3,9,2,8,4"
14412,commdev-image-keyboard-response,360,1251181,learnblock1,864.5999999977648,img/planet2_right.png,2,Community 3,NA,FALSE,f,j,NA,NA,NA,3,6,"5,15,13,12,14,6,10,7,1,11,3,9,2,8,4"
14412,commdev-image-keyboard-response,361,1252434,learnblock1,30.599999997764826,img/planet4_right.png,4,Community 3,NA,TRUE,j,j,NA,NA,NA,3,6,"5,15,13,12,14,6,10,7,1,11,3,9,2,8,4"
14412,commdev-image-keyboard-response,362,1253687,learnblock1,548.5,img/planet2_right.png,2,Community 3,NA,TRUE,j,j,NA,NA,NA,3,6,"5,15,13,12,14,6,10,7,1,11,3,9,2,8,4"
14412,commdev-image-keyboard-response,363,1254940,learnblock1,760.6999999992549,img/planet9_right.png,9,Community 3,NA,TRUE,j,j,NA,NA,NA,3,6,"5,15,13,12,14,6,10,7,1,11,3,9,2,8,4"
14412,commdev-image-keyboard-response,364,1256193,learnblock1,856.6999999992549,img/planet7_right.png,7,Community 2,NA,TRUE,j,j,NA,NA,NA,3,6,"5,15,13,12,14,6,10,7,1,11,3,9,2,8,4"
14412,commdev-image-keyboard-response,365,1257446,learnblock1,796.1000000014901,img/planet10_left.png,10,Community 2,NA,TRUE,f,f,NA,NA,NA,3,6,"5,15,13,12,14,6,10,7,1,11,3,9,2,8,4"
14412,commdev-image-keyboard-response,366,1258698,learnblock1,726.6999999992549,img/planet6_left.png,6,Community 2,NA,FALSE,j,f,NA,NA,NA,3,6,"5,15,13,12,14,6,10,7,1,11,3,9,2,8,4"
14412,commdev-image-keyboard-response,367,1259951,learnblock1,1214,img/planet12_right.png,12,Community 1,NA,TRUE,j,j,NA,NA,NA,3,6,"5,15,13,12,14,6,10,7,1,11,3,9,2,8,4"
14412,commdev-image-keyboard-response,368,1261204,learnblock1,1015.6999999992549,img/planet5_right.png,5,Community 1,NA,TRUE,j,j,NA,NA,NA,3,6,"5,15,13,12,14,6,10,7,1,11,3,9,2,8,4"
14412,commdev-image-keyboard-response,369,1262457,learnblock1,null,img/planet14_right.png,14,Community 1,NA,FALSE,null,j,NA,NA,NA,3,6,"5,15,13,12,14,6,10,7,1,11,3,9,2,8,4"
14412,commdev-image-keyboard-response,370,1263710,learnblock1,null,img/planet15_left.png,15,Community 1,NA,FALSE,null,f,NA,NA,NA,3,6,"5,15,13,12,14,6,10,7,1,11,3,9,2,8,4"
14412,commdev-image-keyboard-response,371,1264963,learnblock1,637.8000000007451,img/planet12_left.png,12,Community 1,NA,TRUE,f,f,NA,NA,NA,3,6,"5,15,13,12,14,6,10,7,1,11,3,9,2,8,4"
14412,commdev-image-keyboard-response,372,1266216,learnblock1,59.5,img/planet6_left.png,6,Community 2,NA,FALSE,j,f,NA,NA,NA,3,6,"5,15,13,12,14,6,10,7,1,11,3,9,2,8,4"
14412,commdev-image-keyboard-response,373,1267469,learnblock1,null,img/planet11_right.png,11,Community 2,NA,FALSE,null,j,NA,NA,NA,3,6,"5,15,13,12,14,6,10,7,1,11,3,9,2,8,4"
14412,commdev-image-keyboard-response,374,1268723,learnblock1,348.79999999701977,img/planet1_left.png,1,Community 2,NA,FALSE,j,f,NA,NA,NA,3,6,"5,15,13,12,14,6,10,7,1,11,3,9,2,8,4"
14412,commdev-image-keyboard-response,375,1269976,learnblock1,72.10000000149012,img/planet7_right.png,7,Community 2,NA,FALSE,f,j,NA,NA,NA,3,6,"5,15,13,12,14,6,10,7,1,11,3,9,2,8,4"
14412,commdev-image-keyboard-response,376,1271230,learnblock1,1144.300000000745,img/planet1_right.png,1,Community 2,NA,TRUE,j,j,NA,NA,NA,3,6,"5,15,13,12,14,6,10,7,1,11,3,9,2,8,4"
14412,commdev-image-keyboard-response,377,1272483,learnblock1,710.5,img/planet7_right.png,7,Community 2,NA,TRUE,j,j,NA,NA,NA,3,6,"5,15,13,12,14,6,10,7,1,11,3,9,2,8,4"
14412,commdev-image-keyboard-response,378,1273736,learnblock1,54.80000000074506,img/planet1_left.png,1,Community 2,NA,FALSE,j,f,NA,NA,NA,3,6,"5,15,13,12,14,6,10,7,1,11,3,9,2,8,4"
14412,commdev-image-keyboard-response,379,1274989,learnblock1,null,img/planet6_left.png,6,Community 2,NA,FALSE,null,f,NA,NA,NA,3,6,"5,15,13,12,14,6,10,7,1,11,3,9,2,8,4"
14412,commdev-image-keyboard-response,380,1276242,learnblock1,88.5,img/planet1_left.png,1,Community 2,NA,TRUE,f,f,NA,NA,NA,3,6,"5,15,13,12,14,6,10,7,1,11,3,9,2,8,4"
14412,commdev-image-keyboard-response,381,1277496,learnblock1,101.10000000149012,img/planet6_right.png,6,Community 2,NA,FALSE,f,j,NA,NA,NA,3,6,"5,15,13,12,14,6,10,7,1,11,3,9,2,8,4"
14412,commdev-image-keyboard-response,382,1278748,learnblock1,78.10000000149012,img/planet11_right.png,11,Community 2,NA,TRUE,j,j,NA,NA,NA,3,6,"5,15,13,12,14,6,10,7,1,11,3,9,2,8,4"
14412,commdev-image-keyboard-response,383,1280001,learnblock1,43.899999998509884,img/planet6_right.png,6,Community 2,NA,TRUE,j,j,NA,NA,NA,3,6,"5,15,13,12,14,6,10,7,1,11,3,9,2,8,4"
14412,commdev-image-keyboard-response,384,1281254,learnblock1,61.69999999925494,img/planet10_right.png,10,Community 2,NA,FALSE,f,j,NA,NA,NA,3,6,"5,15,13,12,14,6,10,7,1,11,3,9,2,8,4"
14412,commdev-image-keyboard-response,385,1282507,learnblock1,213.10000000149012,img/planet1_right.png,1,Community 2,NA,TRUE,j,j,NA,NA,NA,3,6,"5,15,13,12,14,6,10,7,1,11,3,9,2,8,4"
14412,commdev-image-keyboard-response,386,1283760,learnblock1,214.5,img/planet7_left.png,7,Community 2,NA,FALSE,j,f,NA,NA,NA,3,6,"5,15,13,12,14,6,10,7,1,11,3,9,2,8,4"
14412,commdev-image-keyboard-response,387,1285013,learnblock1,793.3000000007451,img/planet10_right.png,10,Community 2,NA,TRUE,j,j,NA,NA,NA,3,6,"5,15,13,12,14,6,10,7,1,11,3,9,2,8,4"
14412,commdev-image-keyboard-response,388,1286265,learnblock1,null,img/planet6_left.png,6,Community 2,NA,FALSE,null,f,NA,NA,NA,3,6,"5,15,13,12,14,6,10,7,1,11,3,9,2,8,4"
14412,commdev-image-keyboard-response,389,1287517,learnblock1,680.7000000029802,img/planet10_left.png,10,Community 2,NA,TRUE,f,f,NA,NA,NA,3,6,"5,15,13,12,14,6,10,7,1,11,3,9,2,8,4"
14412,commdev-image-keyboard-response,390,1288770,learnblock1,376.1000000014901,img/planet7_right.png,7,Community 2,NA,TRUE,j,j,NA,NA,NA,3,6,"5,15,13,12,14,6,10,7,1,11,3,9,2,8,4"
14412,commdev-image-keyboard-response,391,1290024,learnblock1,68.59999999776483,img/planet10_left.png,10,Community 2,NA,FALSE,j,f,NA,NA,NA,3,6,"5,15,13,12,14,6,10,7,1,11,3,9,2,8,4"
14412,commdev-image-keyboard-response,392,1291277,learnblock1,138.60000000149012,img/planet1_right.png,1,Community 2,NA,FALSE,f,j,NA,NA,NA,3,6,"5,15,13,12,14,6,10,7,1,11,3,9,2,8,4"
14412,commdev-image-keyboard-response,393,1292530,learnblock1,946.8999999985099,img/planet7_left.png,7,Community 2,NA,TRUE,f,f,NA,NA,NA,3,6,"5,15,13,12,14,6,10,7,1,11,3,9,2,8,4"
14412,commdev-image-keyboard-response,394,1293783,learnblock1,863.3999999985099,img/planet10_left.png,10,Community 2,NA,FALSE,j,f,NA,NA,NA,3,6,"5,15,13,12,14,6,10,7,1,11,3,9,2,8,4"
14412,commdev-image-keyboard-response,395,1295036,learnblock1,869.8999999985099,img/planet7_right.png,7,Community 2,NA,TRUE,j,j,NA,NA,NA,3,6,"5,15,13,12,14,6,10,7,1,11,3,9,2,8,4"
14412,commdev-image-keyboard-response,396,1296289,learnblock1,826.8999999985099,img/planet11_left.png,11,Community 2,NA,TRUE,f,f,NA,NA,NA,3,6,"5,15,13,12,14,6,10,7,1,11,3,9,2,8,4"
14412,commdev-image-keyboard-response,397,1297542,learnblock1,798.2999999970198,img/planet10_left.png,10,Community 2,NA,TRUE,f,f,NA,NA,NA,3,6,"5,15,13,12,14,6,10,7,1,11,3,9,2,8,4"
14412,commdev-image-keyboard-response,398,1298795,learnblock1,842.5,img/planet11_left.png,11,Community 2,NA,TRUE,f,f,NA,NA,NA,3,6,"5,15,13,12,14,6,10,7,1,11,3,9,2,8,4"
14412,commdev-image-keyboard-response,399,1300048,learnblock1,646.1999999992549,img/planet10_right.png,10,Community 2,NA,TRUE,j,j,NA,NA,NA,3,6,"5,15,13,12,14,6,10,7,1,11,3,9,2,8,4"
14412,commdev-image-keyboard-response,400,1301301,learnblock1,954.1999999992549,img/planet1_left.png,1,Community 2,NA,TRUE,f,f,NA,NA,NA,3,6,"5,15,13,12,14,6,10,7,1,11,3,9,2,8,4"
14412,commdev-image-keyboard-response,401,1302555,learnblock1,628.0999999977648,img/planet11_right.png,11,Community 2,NA,TRUE,j,j,NA,NA,NA,3,6,"5,15,13,12,14,6,10,7,1,11,3,9,2,8,4"
14412,commdev-image-keyboard-response,402,1303809,learnblock1,1173.5,img/planet7_left.png,7,Community 2,NA,TRUE,f,f,NA,NA,NA,3,6,"5,15,13,12,14,6,10,7,1,11,3,9,2,8,4"
14412,commdev-image-keyboard-response,403,1305062,learnblock1,886.3000000007451,img/planet1_left.png,1,Community 2,NA,TRUE,f,f,NA,NA,NA,3,6,"5,15,13,12,14,6,10,7,1,11,3,9,2,8,4"
14412,commdev-image-keyboard-response,404,1306315,learnblock1,705.4000000022352,img/planet10_left.png,10,Community 2,NA,TRUE,f,f,NA,NA,NA,3,6,"5,15,13,12,14,6,10,7,1,11,3,9,2,8,4"
14412,commdev-image-keyboard-response,405,1307568,learnblock1,783.8000000007451,img/planet6_right.png,6,Community 2,NA,TRUE,j,j,NA,NA,NA,3,6,"5,15,13,12,14,6,10,7,1,11,3,9,2,8,4"
14412,commdev-image-keyboard-response,406,1308820,learnblock1,804.5999999977648,img/planet1_right.png,1,Community 2,NA,TRUE,j,j,NA,NA,NA,3,6,"5,15,13,12,14,6,10,7,1,11,3,9,2,8,4"
14412,commdev-image-keyboard-response,407,1310073,learnblock1,982.9000000022352,img/planet11_right.png,11,Community 2,NA,FALSE,f,j,NA,NA,NA,3,6,"5,15,13,12,14,6,10,7,1,11,3,9,2,8,4"
14412,commdev-image-keyboard-response,408,1311327,learnblock1,1196.3999999985099,img/planet7_left.png,7,Community 2,NA,TRUE,f,f,NA,NA,NA,3,6,"5,15,13,12,14,6,10,7,1,11,3,9,2,8,4"
14412,commdev-image-keyboard-response,409,1312580,learnblock1,1030.300000000745,img/planet1_right.png,1,Community 2,NA,TRUE,j,j,NA,NA,NA,3,6,"5,15,13,12,14,6,10,7,1,11,3,9,2,8,4"
14412,commdev-image-keyboard-response,410,1313834,learnblock1,1013.2999999970198,img/planet11_left.png,11,Community 2,NA,TRUE,f,f,NA,NA,NA,3,6,"5,15,13,12,14,6,10,7,1,11,3,9,2,8,4"
14412,commdev-image-keyboard-response,411,1315086,learnblock1,1019.3000000007451,img/planet7_right.png,7,Community 2,NA,TRUE,j,j,NA,NA,NA,3,6,"5,15,13,12,14,6,10,7,1,11,3,9,2,8,4"
14412,commdev-image-keyboard-response,412,1316339,learnblock1,964.3999999985099,img/planet10_left.png,10,Community 2,NA,TRUE,f,f,NA,NA,NA,3,6,"5,15,13,12,14,6,10,7,1,11,3,9,2,8,4"
14412,commdev-image-keyboard-response,413,1317593,learnblock1,942,img/planet1_right.png,1,Community 2,NA,TRUE,j,j,NA,NA,NA,3,6,"5,15,13,12,14,6,10,7,1,11,3,9,2,8,4"
14412,commdev-image-keyboard-response,414,1318845,learnblock1,929.1000000014901,img/planet10_right.png,10,Community 2,NA,FALSE,f,j,NA,NA,NA,3,6,"5,15,13,12,14,6,10,7,1,11,3,9,2,8,4"
14412,commdev-image-keyboard-response,415,1320097,learnblock1,941.3000000007451,img/planet7_left.png,7,Community 2,NA,TRUE,f,f,NA,NA,NA,3,6,"5,15,13,12,14,6,10,7,1,11,3,9,2,8,4"
14412,commdev-image-keyboard-response,416,1321349,learnblock1,1240,img/planet11_right.png,11,Community 2,NA,TRUE,j,j,NA,NA,NA,3,6,"5,15,13,12,14,6,10,7,1,11,3,9,2,8,4"
14412,commdev-image-keyboard-response,417,1322601,learnblock1,null,img/planet6_right.png,6,Community 2,NA,FALSE,null,j,NA,NA,NA,3,6,"5,15,13,12,14,6,10,7,1,11,3,9,2,8,4"
14412,commdev-image-keyboard-response,418,1323854,learnblock1,379.0999999977648,img/planet10_left.png,10,Community 2,NA,TRUE,f,f,NA,NA,NA,3,6,"5,15,13,12,14,6,10,7,1,11,3,9,2,8,4"
14412,commdev-image-keyboard-response,419,1325108,learnblock1,1072.1000000014901,img/planet1_right.png,1,Community 2,NA,TRUE,j,j,NA,NA,NA,3,6,"5,15,13,12,14,6,10,7,1,11,3,9,2,8,4"
14412,commdev-image-keyboard-response,420,1326361,learnblock1,1061.6000000014901,img/planet11_right.png,11,Community 2,NA,FALSE,f,j,NA,NA,NA,3,6,"5,15,13,12,14,6,10,7,1,11,3,9,2,8,4"
14412,commdev-image-keyboard-response,421,1327615,learnblock1,null,img/planet7_right.png,7,Community 2,NA,FALSE,null,j,NA,NA,NA,3,6,"5,15,13,12,14,6,10,7,1,11,3,9,2,8,4"
14412,commdev-image-keyboard-response,422,1328868,learnblock1,62.5,img/planet1_left.png,1,Community 2,NA,TRUE,f,f,NA,NA,NA,3,6,"5,15,13,12,14,6,10,7,1,11,3,9,2,8,4"
14412,commdev-image-keyboard-response,423,1330120,learnblock1,67.60000000149012,img/planet11_left.png,11,Community 2,NA,FALSE,j,f,NA,NA,NA,3,6,"5,15,13,12,14,6,10,7,1,11,3,9,2,8,4"
14412,commdev-image-keyboard-response,424,1331373,learnblock1,44.30000000074506,img/planet10_left.png,10,Community 2,NA,FALSE,j,f,NA,NA,NA,3,6,"5,15,13,12,14,6,10,7,1,11,3,9,2,8,4"
14412,commdev-image-keyboard-response,425,1332627,learnblock1,865.9000000022352,img/planet11_right.png,11,Community 2,NA,FALSE,f,j,NA,NA,NA,3,6,"5,15,13,12,14,6,10,7,1,11,3,9,2,8,4"
14412,commdev-image-keyboard-response,426,1333880,learnblock1,682.3000000007451,img/planet7_left.png,7,Community 2,NA,FALSE,j,f,NA,NA,NA,3,6,"5,15,13,12,14,6,10,7,1,11,3,9,2,8,4"
14412,commdev-image-keyboard-response,427,1335133,learnblock1,95.30000000074506,img/planet10_left.png,10,Community 2,NA,TRUE,f,f,NA,NA,NA,3,6,"5,15,13,12,14,6,10,7,1,11,3,9,2,8,4"
14412,commdev-image-keyboard-response,431,1947623,learnblock2,null,img/planet8_right.png,8,Community 3,NA,FALSE,null,j,NA,NA,NA,3,6,"5,15,13,12,14,6,10,7,1,11,3,9,2,8,4"
14412,commdev-image-keyboard-response,432,1948876,learnblock2,110.70000000298023,img/planet2_right.png,2,Community 3,NA,TRUE,j,j,NA,NA,NA,3,6,"5,15,13,12,14,6,10,7,1,11,3,9,2,8,4"
14412,commdev-image-keyboard-response,433,1950129,learnblock2,795.9000000022352,img/planet9_left.png,9,Community 3,NA,TRUE,f,f,NA,NA,NA,3,6,"5,15,13,12,14,6,10,7,1,11,3,9,2,8,4"
14412,commdev-image-keyboard-response,434,1951382,learnblock2,675.5,img/planet2_right.png,2,Community 3,NA,FALSE,f,j,NA,NA,NA,3,6,"5,15,13,12,14,6,10,7,1,11,3,9,2,8,4"
14412,commdev-image-keyboard-response,435,1952636,learnblock2,782.5,img/planet3_left.png,3,Community 3,NA,TRUE,f,f,NA,NA,NA,3,6,"5,15,13,12,14,6,10,7,1,11,3,9,2,8,4"
14412,commdev-image-keyboard-response,436,1953889,learnblock2,834.7999999970198,img/planet8_left.png,8,Community 3,NA,TRUE,f,f,NA,NA,NA,3,6,"5,15,13,12,14,6,10,7,1,11,3,9,2,8,4"
14412,commdev-image-keyboard-response,437,1955142,learnblock2,855.6000000014901,img/planet2_right.png,2,Community 3,NA,TRUE,j,j,NA,NA,NA,3,6,"5,15,13,12,14,6,10,7,1,11,3,9,2,8,4"
14412,commdev-image-keyboard-response,438,1956397,learnblock2,691,img/planet9_right.png,9,Community 3,NA,TRUE,j,j,NA,NA,NA,3,6,"5,15,13,12,14,6,10,7,1,11,3,9,2,8,4"
14412,commdev-image-keyboard-response,439,1957651,learnblock2,761.4000000022352,img/planet8_right.png,8,Community 3,NA,FALSE,f,j,NA,NA,NA,3,6,"5,15,13,12,14,6,10,7,1,11,3,9,2,8,4"
14412,commdev-image-keyboard-response,440,1958905,learnblock2,849.8999999985099,img/planet4_left.png,4,Community 3,NA,TRUE,f,f,NA,NA,NA,3,6,"5,15,13,12,14,6,10,7,1,11,3,9,2,8,4"
14412,commdev-image-keyboard-response,441,1960159,learnblock2,780.5999999977648,img/planet8_left.png,8,Community 3,NA,TRUE,f,f,NA,NA,NA,3,6,"5,15,13,12,14,6,10,7,1,11,3,9,2,8,4"
14412,commdev-image-keyboard-response,442,1961413,learnblock2,603.4000000022352,img/planet2_right.png,2,Community 3,NA,TRUE,j,j,NA,NA,NA,3,6,"5,15,13,12,14,6,10,7,1,11,3,9,2,8,4"
14412,commdev-image-keyboard-response,443,1962666,learnblock2,928,img/planet9_left.png,9,Community 3,NA,TRUE,f,f,NA,NA,NA,3,6,"5,15,13,12,14,6,10,7,1,11,3,9,2,8,4"
14412,commdev-image-keyboard-response,444,1963919,learnblock2,815.5,img/planet8_left.png,8,Community 3,NA,TRUE,f,f,NA,NA,NA,3,6,"5,15,13,12,14,6,10,7,1,11,3,9,2,8,4"
14412,commdev-image-keyboard-response,445,1965172,learnblock2,626.9000000022352,img/planet2_right.png,2,Community 3,NA,TRUE,j,j,NA,NA,NA,3,6,"5,15,13,12,14,6,10,7,1,11,3,9,2,8,4"
14412,commdev-image-keyboard-response,446,1966425,learnblock2,833.0999999977648,img/planet4_right.png,4,Community 3,NA,TRUE,j,j,NA,NA,NA,3,6,"5,15,13,12,14,6,10,7,1,11,3,9,2,8,4"
14412,commdev-image-keyboard-response,447,1967677,learnblock2,811.2999999970198,img/planet2_right.png,2,Community 3,NA,TRUE,j,j,NA,NA,NA,3,6,"5,15,13,12,14,6,10,7,1,11,3,9,2,8,4"
14412,commdev-image-keyboard-response,448,1968930,learnblock2,679,img/planet8_right.png,8,Community 3,NA,TRUE,j,j,NA,NA,NA,3,6,"5,15,13,12,14,6,10,7,1,11,3,9,2,8,4"
14412,commdev-image-keyboard-response,449,1970183,learnblock2,755.7000000029802,img/planet4_right.png,4,Community 3,NA,TRUE,j,j,NA,NA,NA,3,6,"5,15,13,12,14,6,10,7,1,11,3,9,2,8,4"
14412,commdev-image-keyboard-response,450,1971436,learnblock2,586.5,img/planet2_left.png,2,Community 3,NA,TRUE,f,f,NA,NA,NA,3,6,"5,15,13,12,14,6,10,7,1,11,3,9,2,8,4"
14412,commdev-image-keyboard-response,451,1972690,learnblock2,634.8999999985099,img/planet4_right.png,4,Community 3,NA,TRUE,j,j,NA,NA,NA,3,6,"5,15,13,12,14,6,10,7,1,11,3,9,2,8,4"
14412,commdev-image-keyboard-response,452,1973944,learnblock2,573.7999999970198,img/planet8_right.png,8,Community 3,NA,TRUE,j,j,NA,NA,NA,3,6,"5,15,13,12,14,6,10,7,1,11,3,9,2,8,4"
14412,commdev-image-keyboard-response,453,1975197,learnblock2,792.5999999977648,img/planet4_right.png,4,Community 3,NA,TRUE,j,j,NA,NA,NA,3,6,"5,15,13,12,14,6,10,7,1,11,3,9,2,8,4"
14412,commdev-image-keyboard-response,454,1976450,learnblock2,732.3999999985099,img/planet9_left.png,9,Community 3,NA,TRUE,f,f,NA,NA,NA,3,6,"5,15,13,12,14,6,10,7,1,11,3,9,2,8,4"
14412,commdev-image-keyboard-response,455,1977703,learnblock2,658.8999999985099,img/planet2_left.png,2,Community 3,NA,TRUE,f,f,NA,NA,NA,3,6,"5,15,13,12,14,6,10,7,1,11,3,9,2,8,4"
14412,commdev-image-keyboard-response,456,1978957,learnblock2,657.8000000007451,img/planet4_right.png,4,Community 3,NA,TRUE,j,j,NA,NA,NA,3,6,"5,15,13,12,14,6,10,7,1,11,3,9,2,8,4"
14412,commdev-image-keyboard-response,457,1980210,learnblock2,724.5,img/planet2_left.png,2,Community 3,NA,TRUE,f,f,NA,NA,NA,3,6,"5,15,13,12,14,6,10,7,1,11,3,9,2,8,4"
14412,commdev-image-keyboard-response,458,1981463,learnblock2,694,img/planet4_right.png,4,Community 3,NA,TRUE,j,j,NA,NA,NA,3,6,"5,15,13,12,14,6,10,7,1,11,3,9,2,8,4"
14412,commdev-image-keyboard-response,459,1982716,learnblock2,944.1000000014901,img/planet3_left.png,3,Community 3,NA,TRUE,f,f,NA,NA,NA,3,6,"5,15,13,12,14,6,10,7,1,11,3,9,2,8,4"
14412,commdev-image-keyboard-response,460,1983970,learnblock2,767.8000000007451,img/planet14_left.png,14,Community 1,NA,TRUE,f,f,NA,NA,NA,3,6,"5,15,13,12,14,6,10,7,1,11,3,9,2,8,4"
14412,commdev-image-keyboard-response,461,1985223,learnblock2,973.0999999977648,img/planet13_right.png,13,Community 1,NA,TRUE,j,j,NA,NA,NA,3,6,"5,15,13,12,14,6,10,7,1,11,3,9,2,8,4"
14412,commdev-image-keyboard-response,462,1986476,learnblock2,852.1000000014901,img/planet5_right.png,5,Community 1,NA,TRUE,j,j,NA,NA,NA,3,6,"5,15,13,12,14,6,10,7,1,11,3,9,2,8,4"
14412,commdev-image-keyboard-response,463,1987729,learnblock2,983.5,img/planet15_right.png,15,Community 1,NA,TRUE,j,j,NA,NA,NA,3,6,"5,15,13,12,14,6,10,7,1,11,3,9,2,8,4"
14412,commdev-image-keyboard-response,464,1988983,learnblock2,834.8000000007451,img/planet14_left.png,14,Community 1,NA,TRUE,f,f,NA,NA,NA,3,6,"5,15,13,12,14,6,10,7,1,11,3,9,2,8,4"
14412,commdev-image-keyboard-response,465,1990236,learnblock2,740.3000000007451,img/planet5_left.png,5,Community 1,NA,TRUE,f,f,NA,NA,NA,3,6,"5,15,13,12,14,6,10,7,1,11,3,9,2,8,4"
14412,commdev-image-keyboard-response,466,1991489,learnblock2,876.8999999985099,img/planet13_left.png,13,Community 1,NA,TRUE,f,f,NA,NA,NA,3,6,"5,15,13,12,14,6,10,7,1,11,3,9,2,8,4"
14412,commdev-image-keyboard-response,467,1992742,learnblock2,810,img/planet14_left.png,14,Community 1,NA,TRUE,f,f,NA,NA,NA,3,6,"5,15,13,12,14,6,10,7,1,11,3,9,2,8,4"
14412,commdev-image-keyboard-response,468,1993996,learnblock2,879.8999999985099,img/planet15_left.png,15,Community 1,NA,TRUE,f,f,NA,NA,NA,3,6,"5,15,13,12,14,6,10,7,1,11,3,9,2,8,4"
14412,commdev-image-keyboard-response,469,1995249,learnblock2,958.1999999992549,img/planet14_right.png,14,Community 1,NA,FALSE,f,j,NA,NA,NA,3,6,"5,15,13,12,14,6,10,7,1,11,3,9,2,8,4"
14412,commdev-image-keyboard-response,470,1996501,learnblock2,null,img/planet3_right.png,3,Community 3,NA,FALSE,null,j,NA,NA,NA,3,6,"5,15,13,12,14,6,10,7,1,11,3,9,2,8,4"
14412,commdev-image-keyboard-response,471,1997756,learnblock2,1141.199999999255,img/planet8_right.png,8,Community 3,NA,TRUE,j,j,NA,NA,NA,3,6,"5,15,13,12,14,6,10,7,1,11,3,9,2,8,4"
14412,commdev-image-keyboard-response,472,1999009,learnblock2,750.9000000022352,img/planet9_left.png,9,Community 3,NA,TRUE,f,f,NA,NA,NA,3,6,"5,15,13,12,14,6,10,7,1,11,3,9,2,8,4"
14412,commdev-image-keyboard-response,473,2000262,learnblock2,1087,img/planet4_left.png,4,Community 3,NA,TRUE,f,f,NA,NA,NA,3,6,"5,15,13,12,14,6,10,7,1,11,3,9,2,8,4"
14412,commdev-image-keyboard-response,474,2001515,learnblock2,797.6999999992549,img/planet2_left.png,2,Community 3,NA,TRUE,f,f,NA,NA,NA,3,6,"5,15,13,12,14,6,10,7,1,11,3,9,2,8,4"
14412,commdev-image-keyboard-response,475,2002768,learnblock2,704.2000000029802,img/planet4_right.png,4,Community 3,NA,TRUE,j,j,NA,NA,NA,3,6,"5,15,13,12,14,6,10,7,1,11,3,9,2,8,4"
14412,commdev-image-keyboard-response,476,2004021,learnblock2,651,img/planet9_right.png,9,Community 3,NA,TRUE,j,j,NA,NA,NA,3,6,"5,15,13,12,14,6,10,7,1,11,3,9,2,8,4"
14412,commdev-image-keyboard-response,477,2005274,learnblock2,1153.199999999255,img/planet7_right.png,7,Community 2,NA,FALSE,f,j,NA,NA,NA,3,6,"5,15,13,12,14,6,10,7,1,11,3,9,2,8,4"
14412,commdev-image-keyboard-response,478,2006527,learnblock2,123.5,img/planet11_left.png,11,Community 2,NA,FALSE,j,f,NA,NA,NA,3,6,"5,15,13,12,14,6,10,7,1,11,3,9,2,8,4"
14412,commdev-image-keyboard-response,479,2007780,learnblock2,971.1999999992549,img/planet7_right.png,7,Community 2,NA,TRUE,j,j,NA,NA,NA,3,6,"5,15,13,12,14,6,10,7,1,11,3,9,2,8,4"
14412,commdev-image-keyboard-response,480,2009034,learnblock2,665.5,img/planet10_right.png,10,Community 2,NA,TRUE,j,j,NA,NA,NA,3,6,"5,15,13,12,14,6,10,7,1,11,3,9,2,8,4"
14412,commdev-image-keyboard-response,481,2010287,learnblock2,719.5,img/planet11_left.png,11,Community 2,NA,TRUE,f,f,NA,NA,NA,3,6,"5,15,13,12,14,6,10,7,1,11,3,9,2,8,4"
14412,commdev-image-keyboard-response,482,2011541,learnblock2,782,img/planet1_left.png,1,Community 2,NA,TRUE,f,f,NA,NA,NA,3,6,"5,15,13,12,14,6,10,7,1,11,3,9,2,8,4"
14412,commdev-image-keyboard-response,483,2012794,learnblock2,710.3999999985099,img/planet11_right.png,11,Community 2,NA,TRUE,j,j,NA,NA,NA,3,6,"5,15,13,12,14,6,10,7,1,11,3,9,2,8,4"
14412,commdev-image-keyboard-response,484,2014047,learnblock2,720.5,img/planet7_right.png,7,Community 2,NA,TRUE,j,j,NA,NA,NA,3,6,"5,15,13,12,14,6,10,7,1,11,3,9,2,8,4"
14412,commdev-image-keyboard-response,485,2015300,learnblock2,770.4000000022352,img/planet11_left.png,11,Community 2,NA,TRUE,f,f,NA,NA,NA,3,6,"5,15,13,12,14,6,10,7,1,11,3,9,2,8,4"
14412,commdev-image-keyboard-response,486,2016555,learnblock2,589.6999999992549,img/planet10_right.png,10,Community 2,NA,TRUE,j,j,NA,NA,NA,3,6,"5,15,13,12,14,6,10,7,1,11,3,9,2,8,4"
14412,commdev-image-keyboard-response,487,2017808,learnblock2,null,img/planet1_right.png,1,Community 2,NA,FALSE,null,j,NA,NA,NA,3,6,"5,15,13,12,14,6,10,7,1,11,3,9,2,8,4"
14412,commdev-image-keyboard-response,488,2019061,learnblock2,718.6999999992549,img/planet11_left.png,11,Community 2,NA,TRUE,f,f,NA,NA,NA,3,6,"5,15,13,12,14,6,10,7,1,11,3,9,2,8,4"
14412,commdev-image-keyboard-response,489,2020314,learnblock2,744,img/planet6_right.png,6,Community 2,NA,TRUE,j,j,NA,NA,NA,3,6,"5,15,13,12,14,6,10,7,1,11,3,9,2,8,4"
14412,commdev-image-keyboard-response,490,2021567,learnblock2,944.1000000014901,img/planet11_right.png,11,Community 2,NA,TRUE,j,j,NA,NA,NA,3,6,"5,15,13,12,14,6,10,7,1,11,3,9,2,8,4"
14412,commdev-image-keyboard-response,491,2022820,learnblock2,671.1000000014901,img/planet10_right.png,10,Community 2,NA,TRUE,j,j,NA,NA,NA,3,6,"5,15,13,12,14,6,10,7,1,11,3,9,2,8,4"
14412,commdev-image-keyboard-response,492,2024073,learnblock2,655.2999999970198,img/planet11_left.png,11,Community 2,NA,TRUE,f,f,NA,NA,NA,3,6,"5,15,13,12,14,6,10,7,1,11,3,9,2,8,4"
14412,commdev-image-keyboard-response,493,2025326,learnblock2,950.8999999985099,img/planet7_left.png,7,Community 2,NA,TRUE,f,f,NA,NA,NA,3,6,"5,15,13,12,14,6,10,7,1,11,3,9,2,8,4"
14412,commdev-image-keyboard-response,494,2026579,learnblock2,816.6000000014901,img/planet11_left.png,11,Community 2,NA,TRUE,f,f,NA,NA,NA,3,6,"5,15,13,12,14,6,10,7,1,11,3,9,2,8,4"
14412,commdev-image-keyboard-response,495,2027833,learnblock2,813.1000000014901,img/planet7_left.png,7,Community 2,NA,TRUE,f,f,NA,NA,NA,3,6,"5,15,13,12,14,6,10,7,1,11,3,9,2,8,4"
14412,commdev-image-keyboard-response,496,2029088,learnblock2,707.1000000014901,img/planet9_right.png,9,Community 3,NA,TRUE,j,j,NA,NA,NA,3,6,"5,15,13,12,14,6,10,7,1,11,3,9,2,8,4"
14412,commdev-image-keyboard-response,497,2030341,learnblock2,749.8999999985099,img/planet7_right.png,7,Community 2,NA,TRUE,j,j,NA,NA,NA,3,6,"5,15,13,12,14,6,10,7,1,11,3,9,2,8,4"
14412,commdev-image-keyboard-response,498,2031594,learnblock2,null,img/planet10_right.png,10,Community 2,NA,FALSE,null,j,NA,NA,NA,3,6,"5,15,13,12,14,6,10,7,1,11,3,9,2,8,4"
14412,commdev-image-keyboard-response,499,2032847,learnblock2,699.7000000029802,img/planet11_left.png,11,Community 2,NA,TRUE,f,f,NA,NA,NA,3,6,"5,15,13,12,14,6,10,7,1,11,3,9,2,8,4"
14412,commdev-image-keyboard-response,500,2034101,learnblock2,717.2000000029802,img/planet10_left.png,10,Community 2,NA,TRUE,f,f,NA,NA,NA,3,6,"5,15,13,12,14,6,10,7,1,11,3,9,2,8,4"
14412,commdev-image-keyboard-response,501,2035354,learnblock2,793.3000000007451,img/planet6_left.png,6,Community 2,NA,TRUE,f,f,NA,NA,NA,3,6,"5,15,13,12,14,6,10,7,1,11,3,9,2,8,4"
14412,commdev-image-keyboard-response,502,2036607,learnblock2,877.8000000007451,img/planet11_right.png,11,Community 2,NA,TRUE,j,j,NA,NA,NA,3,6,"5,15,13,12,14,6,10,7,1,11,3,9,2,8,4"
14412,commdev-image-keyboard-response,503,2037860,learnblock2,871.3999999985099,img/planet1_left.png,1,Community 2,NA,TRUE,f,f,NA,NA,NA,3,6,"5,15,13,12,14,6,10,7,1,11,3,9,2,8,4"
14412,commdev-image-keyboard-response,504,2039113,learnblock2,805.5,img/planet10_left.png,10,Community 2,NA,TRUE,f,f,NA,NA,NA,3,6,"5,15,13,12,14,6,10,7,1,11,3,9,2,8,4"
14412,commdev-image-keyboard-response,505,2040367,learnblock2,891,img/planet1_right.png,1,Community 2,NA,TRUE,j,j,NA,NA,NA,3,6,"5,15,13,12,14,6,10,7,1,11,3,9,2,8,4"
14412,commdev-image-keyboard-response,506,2041620,learnblock2,866,img/planet6_right.png,6,Community 2,NA,TRUE,j,j,NA,NA,NA,3,6,"5,15,13,12,14,6,10,7,1,11,3,9,2,8,4"
14412,commdev-image-keyboard-response,507,2042874,learnblock2,644.1999999992549,img/planet11_left.png,11,Community 2,NA,TRUE,f,f,NA,NA,NA,3,6,"5,15,13,12,14,6,10,7,1,11,3,9,2,8,4"
14412,commdev-image-keyboard-response,508,2044127,learnblock2,1052.300000000745,img/planet1_left.png,1,Community 2,NA,FALSE,j,f,NA,NA,NA,3,6,"5,15,13,12,14,6,10,7,1,11,3,9,2,8,4"
14412,commdev-image-keyboard-response,509,2045380,learnblock2,null,img/planet11_left.png,11,Community 2,NA,FALSE,null,f,NA,NA,NA,3,6,"5,15,13,12,14,6,10,7,1,11,3,9,2,8,4"
14412,commdev-image-keyboard-response,510,2046634,learnblock2,397.0999999977648,img/planet6_right.png,6,Community 2,NA,TRUE,j,j,NA,NA,NA,3,6,"5,15,13,12,14,6,10,7,1,11,3,9,2,8,4"
14412,commdev-image-keyboard-response,511,2047887,learnblock2,907.5,img/planet12_left.png,12,Community 1,NA,TRUE,f,f,NA,NA,NA,3,6,"5,15,13,12,14,6,10,7,1,11,3,9,2,8,4"
14412,commdev-image-keyboard-response,512,2049139,learnblock2,null,img/planet5_left.png,5,Community 1,NA,FALSE,null,f,NA,NA,NA,3,6,"5,15,13,12,14,6,10,7,1,11,3,9,2,8,4"
14412,commdev-image-keyboard-response,513,2050394,learnblock2,44.79999999701977,img/planet14_left.png,14,Community 1,NA,TRUE,f,f,NA,NA,NA,3,6,"5,15,13,12,14,6,10,7,1,11,3,9,2,8,4"
14412,commdev-image-keyboard-response,514,2051648,learnblock2,1003.8000000007451,img/planet13_left.png,13,Community 1,NA,TRUE,f,f,NA,NA,NA,3,6,"5,15,13,12,14,6,10,7,1,11,3,9,2,8,4"
14412,commdev-image-keyboard-response,515,2052901,learnblock2,798.1000000014901,img/planet15_right.png,15,Community 1,NA,TRUE,j,j,NA,NA,NA,3,6,"5,15,13,12,14,6,10,7,1,11,3,9,2,8,4"
14412,commdev-image-keyboard-response,516,2054154,learnblock2,1160.5,img/planet12_right.png,12,Community 1,NA,TRUE,j,j,NA,NA,NA,3,6,"5,15,13,12,14,6,10,7,1,11,3,9,2,8,4"
14412,commdev-image-keyboard-response,517,2055408,learnblock2,944.8000000007451,img/planet15_left.png,15,Community 1,NA,TRUE,f,f,NA,NA,NA,3,6,"5,15,13,12,14,6,10,7,1,11,3,9,2,8,4"
14412,commdev-image-keyboard-response,518,2056661,learnblock2,1049.199999999255,img/planet5_right.png,5,Community 1,NA,FALSE,f,j,NA,NA,NA,3,6,"5,15,13,12,14,6,10,7,1,11,3,9,2,8,4"
14412,commdev-image-keyboard-response,519,2057914,learnblock2,1092.9000000022352,img/planet15_left.png,15,Community 1,NA,TRUE,f,f,NA,NA,NA,3,6,"5,15,13,12,14,6,10,7,1,11,3,9,2,8,4"
14412,commdev-image-keyboard-response,520,2059166,learnblock2,null,img/planet5_left.png,5,Community 1,NA,FALSE,null,f,NA,NA,NA,3,6,"5,15,13,12,14,6,10,7,1,11,3,9,2,8,4"
14412,commdev-image-keyboard-response,521,2060419,learnblock2,382.69999999925494,img/planet12_left.png,12,Community 1,NA,TRUE,f,f,NA,NA,NA,3,6,"5,15,13,12,14,6,10,7,1,11,3,9,2,8,4"
14412,commdev-image-keyboard-response,522,2061672,learnblock2,1051.300000000745,img/planet15_right.png,15,Community 1,NA,FALSE,f,j,NA,NA,NA,3,6,"5,15,13,12,14,6,10,7,1,11,3,9,2,8,4"
14412,commdev-image-keyboard-response,523,2062926,learnblock2,1037.9000000022352,img/planet12_right.png,12,Community 1,NA,TRUE,j,j,NA,NA,NA,3,6,"5,15,13,12,14,6,10,7,1,11,3,9,2,8,4"
14412,commdev-image-keyboard-response,524,2064179,learnblock2,null,img/planet15_left.png,15,Community 1,NA,FALSE,null,f,NA,NA,NA,3,6,"5,15,13,12,14,6,10,7,1,11,3,9,2,8,4"
14412,commdev-image-keyboard-response,525,2065432,learnblock2,504.5,img/planet12_right.png,12,Community 1,NA,TRUE,j,j,NA,NA,NA,3,6,"5,15,13,12,14,6,10,7,1,11,3,9,2,8,4"
14412,commdev-image-keyboard-response,526,2066686,learnblock2,756.3000000007451,img/planet13_left.png,13,Community 1,NA,TRUE,f,f,NA,NA,NA,3,6,"5,15,13,12,14,6,10,7,1,11,3,9,2,8,4"
14412,commdev-image-keyboard-response,527,2067939,learnblock2,810.5,img/planet15_left.png,15,Community 1,NA,TRUE,f,f,NA,NA,NA,3,6,"5,15,13,12,14,6,10,7,1,11,3,9,2,8,4"
14412,commdev-image-keyboard-response,528,2069192,learnblock2,786.6999999992549,img/planet13_left.png,13,Community 1,NA,TRUE,f,f,NA,NA,NA,3,6,"5,15,13,12,14,6,10,7,1,11,3,9,2,8,4"
14412,commdev-image-keyboard-response,529,2070446,learnblock2,724.0999999977648,img/planet12_right.png,12,Community 1,NA,TRUE,j,j,NA,NA,NA,3,6,"5,15,13,12,14,6,10,7,1,11,3,9,2,8,4"
14412,commdev-image-keyboard-response,530,2071699,learnblock2,1038.300000000745,img/planet6_right.png,6,Community 2,NA,TRUE,j,j,NA,NA,NA,3,6,"5,15,13,12,14,6,10,7,1,11,3,9,2,8,4"
14412,commdev-image-keyboard-response,531,2072952,learnblock2,744.8999999985099,img/planet10_left.png,10,Community 2,NA,TRUE,f,f,NA,NA,NA,3,6,"5,15,13,12,14,6,10,7,1,11,3,9,2,8,4"
14412,commdev-image-keyboard-response,532,2074205,learnblock2,876.4000000022352,img/planet1_left.png,1,Community 2,NA,TRUE,f,f,NA,NA,NA,3,6,"5,15,13,12,14,6,10,7,1,11,3,9,2,8,4"
14412,commdev-image-keyboard-response,533,2075458,learnblock2,856.1999999992549,img/planet6_right.png,6,Community 2,NA,TRUE,j,j,NA,NA,NA,3,6,"5,15,13,12,14,6,10,7,1,11,3,9,2,8,4"
14412,commdev-image-keyboard-response,534,2076712,learnblock2,959.9000000022352,img/planet1_left.png,1,Community 2,NA,TRUE,f,f,NA,NA,NA,3,6,"5,15,13,12,14,6,10,7,1,11,3,9,2,8,4"
14412,commdev-image-keyboard-response,535,2077965,learnblock2,823.5,img/planet11_left.png,11,Community 2,NA,TRUE,f,f,NA,NA,NA,3,6,"5,15,13,12,14,6,10,7,1,11,3,9,2,8,4"
14412,commdev-image-keyboard-response,536,2079218,learnblock2,786.2000000029802,img/planet1_left.png,1,Community 2,NA,TRUE,f,f,NA,NA,NA,3,6,"5,15,13,12,14,6,10,7,1,11,3,9,2,8,4"
14412,commdev-image-keyboard-response,537,2080471,learnblock2,944,img/planet10_right.png,10,Community 2,NA,TRUE,j,j,NA,NA,NA,3,6,"5,15,13,12,14,6,10,7,1,11,3,9,2,8,4"
14412,commdev-image-keyboard-response,538,2081725,learnblock2,1145.300000000745,img/planet6_left.png,6,Community 2,NA,TRUE,f,f,NA,NA,NA,3,6,"5,15,13,12,14,6,10,7,1,11,3,9,2,8,4"
14412,commdev-image-keyboard-response,539,2082978,learnblock2,624.1999999992549,img/planet10_left.png,10,Community 2,NA,TRUE,f,f,NA,NA,NA,3,6,"5,15,13,12,14,6,10,7,1,11,3,9,2,8,4"
14412,commdev-image-keyboard-response,540,2084231,learnblock2,796.1000000014901,img/planet7_left.png,7,Community 2,NA,TRUE,f,f,NA,NA,NA,3,6,"5,15,13,12,14,6,10,7,1,11,3,9,2,8,4"
14412,commdev-image-keyboard-response,541,2085484,learnblock2,695.4000000022352,img/planet9_right.png,9,Community 3,NA,TRUE,j,j,NA,NA,NA,3,6,"5,15,13,12,14,6,10,7,1,11,3,9,2,8,4"
14412,commdev-image-keyboard-response,542,2086736,learnblock2,790.1000000014901,img/planet7_left.png,7,Community 2,NA,TRUE,f,f,NA,NA,NA,3,6,"5,15,13,12,14,6,10,7,1,11,3,9,2,8,4"
14412,commdev-image-keyboard-response,543,2087990,learnblock2,814.1999999992549,img/planet11_left.png,11,Community 2,NA,TRUE,f,f,NA,NA,NA,3,6,"5,15,13,12,14,6,10,7,1,11,3,9,2,8,4"
14412,commdev-image-keyboard-response,544,2089243,learnblock2,737.8000000007451,img/planet7_left.png,7,Community 2,NA,TRUE,f,f,NA,NA,NA,3,6,"5,15,13,12,14,6,10,7,1,11,3,9,2,8,4"
14412,commdev-image-keyboard-response,545,2090497,learnblock2,586.5,img/planet9_right.png,9,Community 3,NA,TRUE,j,j,NA,NA,NA,3,6,"5,15,13,12,14,6,10,7,1,11,3,9,2,8,4"
14412,commdev-image-keyboard-response,546,2091751,learnblock2,661.1999999992549,img/planet2_right.png,2,Community 3,NA,TRUE,j,j,NA,NA,NA,3,6,"5,15,13,12,14,6,10,7,1,11,3,9,2,8,4"
14412,commdev-image-keyboard-response,547,2093004,learnblock2,693.6999999992549,img/planet8_left.png,8,Community 3,NA,TRUE,f,f,NA,NA,NA,3,6,"5,15,13,12,14,6,10,7,1,11,3,9,2,8,4"
14412,commdev-image-keyboard-response,548,2094257,learnblock2,649,img/planet2_right.png,2,Community 3,NA,TRUE,j,j,NA,NA,NA,3,6,"5,15,13,12,14,6,10,7,1,11,3,9,2,8,4"
14412,commdev-image-keyboard-response,549,2095510,learnblock2,null,img/planet9_right.png,9,Community 3,NA,FALSE,null,j,NA,NA,NA,3,6,"5,15,13,12,14,6,10,7,1,11,3,9,2,8,4"
14412,commdev-image-keyboard-response,550,2096763,learnblock2,848.5999999977648,img/planet2_right.png,2,Community 3,NA,TRUE,j,j,NA,NA,NA,3,6,"5,15,13,12,14,6,10,7,1,11,3,9,2,8,4"
14412,commdev-image-keyboard-response,551,2098017,learnblock2,1072.5,img/planet9_right.png,9,Community 3,NA,TRUE,j,j,NA,NA,NA,3,6,"5,15,13,12,14,6,10,7,1,11,3,9,2,8,4"
14412,commdev-image-keyboard-response,552,2099270,learnblock2,826.3000000007451,img/planet8_right.png,8,Community 3,NA,TRUE,j,j,NA,NA,NA,3,6,"5,15,13,12,14,6,10,7,1,11,3,9,2,8,4"
14412,commdev-image-keyboard-response,553,2100524,learnblock2,701,img/planet2_right.png,2,Community 3,NA,TRUE,j,j,NA,NA,NA,3,6,"5,15,13,12,14,6,10,7,1,11,3,9,2,8,4"
14412,commdev-image-keyboard-response,554,2101778,learnblock2,764.8999999985099,img/planet8_right.png,8,Community 3,NA,TRUE,j,j,NA,NA,NA,3,6,"5,15,13,12,14,6,10,7,1,11,3,9,2,8,4"
14412,commdev-image-keyboard-response,555,2103031,learnblock2,701,img/planet4_left.png,4,Community 3,NA,TRUE,f,f,NA,NA,NA,3,6,"5,15,13,12,14,6,10,7,1,11,3,9,2,8,4"
14412,commdev-image-keyboard-response,556,2104284,learnblock2,693.6000000014901,img/planet2_left.png,2,Community 3,NA,TRUE,f,f,NA,NA,NA,3,6,"5,15,13,12,14,6,10,7,1,11,3,9,2,8,4"
14412,commdev-image-keyboard-response,557,2105538,learnblock2,629.5999999977648,img/planet4_right.png,4,Community 3,NA,TRUE,j,j,NA,NA,NA,3,6,"5,15,13,12,14,6,10,7,1,11,3,9,2,8,4"
14412,commdev-image-keyboard-response,558,2106792,learnblock2,678.1999999992549,img/planet8_right.png,8,Community 3,NA,TRUE,j,j,NA,NA,NA,3,6,"5,15,13,12,14,6,10,7,1,11,3,9,2,8,4"
14412,commdev-image-keyboard-response,559,2108045,learnblock2,683.1999999992549,img/planet3_left.png,3,Community 3,NA,TRUE,f,f,NA,NA,NA,3,6,"5,15,13,12,14,6,10,7,1,11,3,9,2,8,4"
14412,commdev-image-keyboard-response,560,2109299,learnblock2,753.8999999985099,img/planet14_left.png,14,Community 1,NA,TRUE,f,f,NA,NA,NA,3,6,"5,15,13,12,14,6,10,7,1,11,3,9,2,8,4"
14412,commdev-image-keyboard-response,561,2110553,learnblock2,708.5,img/planet15_right.png,15,Community 1,NA,TRUE,j,j,NA,NA,NA,3,6,"5,15,13,12,14,6,10,7,1,11,3,9,2,8,4"
14412,commdev-image-keyboard-response,562,2111806,learnblock2,766.8000000007451,img/planet14_left.png,14,Community 1,NA,TRUE,f,f,NA,NA,NA,3,6,"5,15,13,12,14,6,10,7,1,11,3,9,2,8,4"
14412,commdev-image-keyboard-response,563,2113059,learnblock2,712.5,img/planet13_right.png,13,Community 1,NA,TRUE,j,j,NA,NA,NA,3,6,"5,15,13,12,14,6,10,7,1,11,3,9,2,8,4"
14412,commdev-image-keyboard-response,564,2114313,learnblock2,790.8000000007451,img/planet12_left.png,12,Community 1,NA,TRUE,f,f,NA,NA,NA,3,6,"5,15,13,12,14,6,10,7,1,11,3,9,2,8,4"
14412,commdev-image-keyboard-response,565,2115566,learnblock2,705.6000000014901,img/planet15_right.png,15,Community 1,NA,TRUE,j,j,NA,NA,NA,3,6,"5,15,13,12,14,6,10,7,1,11,3,9,2,8,4"
14412,commdev-image-keyboard-response,566,2116819,learnblock2,763.9000000022352,img/planet14_left.png,14,Community 1,NA,TRUE,f,f,NA,NA,NA,3,6,"5,15,13,12,14,6,10,7,1,11,3,9,2,8,4"
14412,commdev-image-keyboard-response,567,2118072,learnblock2,865.6000000014901,img/planet13_left.png,13,Community 1,NA,TRUE,f,f,NA,NA,NA,3,6,"5,15,13,12,14,6,10,7,1,11,3,9,2,8,4"
14412,commdev-image-keyboard-response,568,2119326,learnblock2,762.1000000014901,img/planet5_left.png,5,Community 1,NA,TRUE,f,f,NA,NA,NA,3,6,"5,15,13,12,14,6,10,7,1,11,3,9,2,8,4"
14412,commdev-image-keyboard-response,569,2120579,learnblock2,677.1000000014901,img/planet13_right.png,13,Community 1,NA,TRUE,j,j,NA,NA,NA,3,6,"5,15,13,12,14,6,10,7,1,11,3,9,2,8,4"
14412,commdev-image-keyboard-response,570,2121832,learnblock2,674.5,img/planet12_left.png,12,Community 1,NA,TRUE,f,f,NA,NA,NA,3,6,"5,15,13,12,14,6,10,7,1,11,3,9,2,8,4"
14412,commdev-image-keyboard-response,571,2123086,learnblock2,762.5999999977648,img/planet13_left.png,13,Community 1,NA,TRUE,f,f,NA,NA,NA,3,6,"5,15,13,12,14,6,10,7,1,11,3,9,2,8,4"
14412,commdev-image-keyboard-response,572,2124339,learnblock2,724.3000000007451,img/planet15_right.png,15,Community 1,NA,TRUE,j,j,NA,NA,NA,3,6,"5,15,13,12,14,6,10,7,1,11,3,9,2,8,4"
14412,commdev-image-keyboard-response,573,2125593,learnblock2,779.6000000014901,img/planet14_left.png,14,Community 1,NA,TRUE,f,f,NA,NA,NA,3,6,"5,15,13,12,14,6,10,7,1,11,3,9,2,8,4"
14412,commdev-image-keyboard-response,574,2126846,learnblock2,858.5,img/planet3_right.png,3,Community 3,NA,TRUE,j,j,NA,NA,NA,3,6,"5,15,13,12,14,6,10,7,1,11,3,9,2,8,4"
14412,commdev-image-keyboard-response,575,2128099,learnblock2,722.6000000014901,img/planet14_left.png,14,Community 1,NA,TRUE,f,f,NA,NA,NA,3,6,"5,15,13,12,14,6,10,7,1,11,3,9,2,8,4"
14412,commdev-image-keyboard-response,576,2129352,learnblock2,745.3000000007451,img/planet5_right.png,5,Community 1,NA,TRUE,j,j,NA,NA,NA,3,6,"5,15,13,12,14,6,10,7,1,11,3,9,2,8,4"
14412,commdev-image-keyboard-response,577,2130607,learnblock2,672.0999999977648,img/planet15_left.png,15,Community 1,NA,TRUE,f,f,NA,NA,NA,3,6,"5,15,13,12,14,6,10,7,1,11,3,9,2,8,4"
14412,commdev-image-keyboard-response,578,2131861,learnblock2,648.0999999977648,img/planet5_right.png,5,Community 1,NA,TRUE,j,j,NA,NA,NA,3,6,"5,15,13,12,14,6,10,7,1,11,3,9,2,8,4"
14412,commdev-image-keyboard-response,579,2133114,learnblock2,1022.7000000029802,img/planet14_right.png,14,Community 1,NA,TRUE,j,j,NA,NA,NA,3,6,"5,15,13,12,14,6,10,7,1,11,3,9,2,8,4"
14412,commdev-image-keyboard-response,580,2134367,learnblock2,780.7000000029802,img/planet13_left.png,13,Community 1,NA,TRUE,f,f,NA,NA,NA,3,6,"5,15,13,12,14,6,10,7,1,11,3,9,2,8,4"
14412,commdev-image-keyboard-response,581,2135620,learnblock2,610.3000000007451,img/planet5_right.png,5,Community 1,NA,TRUE,j,j,NA,NA,NA,3,6,"5,15,13,12,14,6,10,7,1,11,3,9,2,8,4"
14412,commdev-image-keyboard-response,582,2136873,learnblock2,584.0999999977648,img/planet14_left.png,14,Community 1,NA,TRUE,f,f,NA,NA,NA,3,6,"5,15,13,12,14,6,10,7,1,11,3,9,2,8,4"
14412,commdev-image-keyboard-response,583,2138127,learnblock2,741.6000000014901,img/planet5_left.png,5,Community 1,NA,TRUE,f,f,NA,NA,NA,3,6,"5,15,13,12,14,6,10,7,1,11,3,9,2,8,4"
14412,commdev-image-keyboard-response,584,2139380,learnblock2,745.8999999985099,img/planet13_right.png,13,Community 1,NA,TRUE,j,j,NA,NA,NA,3,6,"5,15,13,12,14,6,10,7,1,11,3,9,2,8,4"
14412,commdev-image-keyboard-response,585,2140633,learnblock2,945.8000000007451,img/planet15_left.png,15,Community 1,NA,TRUE,f,f,NA,NA,NA,3,6,"5,15,13,12,14,6,10,7,1,11,3,9,2,8,4"
14412,commdev-image-keyboard-response,586,2141887,learnblock2,756.5999999977648,img/planet14_left.png,14,Community 1,NA,TRUE,f,f,NA,NA,NA,3,6,"5,15,13,12,14,6,10,7,1,11,3,9,2,8,4"
14412,commdev-image-keyboard-response,587,2143140,learnblock2,865.6999999992549,img/planet3_left.png,3,Community 3,NA,TRUE,f,f,NA,NA,NA,3,6,"5,15,13,12,14,6,10,7,1,11,3,9,2,8,4"
14412,commdev-image-keyboard-response,588,2144393,learnblock2,824,img/planet8_left.png,8,Community 3,NA,TRUE,f,f,NA,NA,NA,3,6,"5,15,13,12,14,6,10,7,1,11,3,9,2,8,4"
14412,commdev-image-keyboard-response,589,2145647,learnblock2,606.3999999985099,img/planet2_left.png,2,Community 3,NA,TRUE,f,f,NA,NA,NA,3,6,"5,15,13,12,14,6,10,7,1,11,3,9,2,8,4"
14412,commdev-image-keyboard-response,590,2146899,learnblock2,635.3999999985099,img/planet9_right.png,9,Community 3,NA,TRUE,j,j,NA,NA,NA,3,6,"5,15,13,12,14,6,10,7,1,11,3,9,2,8,4"
14412,commdev-image-keyboard-response,591,2148152,learnblock2,688.3999999985099,img/planet4_right.png,4,Community 3,NA,TRUE,j,j,NA,NA,NA,3,6,"5,15,13,12,14,6,10,7,1,11,3,9,2,8,4"
14412,commdev-image-keyboard-response,592,2149405,learnblock2,683.1999999992549,img/planet8_left.png,8,Community 3,NA,TRUE,f,f,NA,NA,NA,3,6,"5,15,13,12,14,6,10,7,1,11,3,9,2,8,4"
14412,commdev-image-keyboard-response,593,2150658,learnblock2,871.0999999977648,img/planet2_right.png,2,Community 3,NA,TRUE,j,j,NA,NA,NA,3,6,"5,15,13,12,14,6,10,7,1,11,3,9,2,8,4"
14412,commdev-image-keyboard-response,594,2151912,learnblock2,775.3000000007451,img/planet3_left.png,3,Community 3,NA,TRUE,f,f,NA,NA,NA,3,6,"5,15,13,12,14,6,10,7,1,11,3,9,2,8,4"
14412,commdev-image-keyboard-response,595,2153165,learnblock2,890.6999999992549,img/planet14_right.png,14,Community 1,NA,TRUE,j,j,NA,NA,NA,3,6,"5,15,13,12,14,6,10,7,1,11,3,9,2,8,4"
14412,commdev-image-keyboard-response,596,2154419,learnblock2,753.0999999977648,img/planet5_left.png,5,Community 1,NA,TRUE,f,f,NA,NA,NA,3,6,"5,15,13,12,14,6,10,7,1,11,3,9,2,8,4"
14412,commdev-image-keyboard-response,597,2155672,learnblock2,546.3999999985099,img/planet15_right.png,15,Community 1,NA,TRUE,j,j,NA,NA,NA,3,6,"5,15,13,12,14,6,10,7,1,11,3,9,2,8,4"
14412,commdev-image-keyboard-response,598,2156925,learnblock2,930.8000000007451,img/planet14_right.png,14,Community 1,NA,TRUE,j,j,NA,NA,NA,3,6,"5,15,13,12,14,6,10,7,1,11,3,9,2,8,4"
14412,commdev-image-keyboard-response,599,2158179,learnblock2,702.3000000007451,img/planet13_left.png,13,Community 1,NA,TRUE,f,f,NA,NA,NA,3,6,"5,15,13,12,14,6,10,7,1,11,3,9,2,8,4"
14412,commdev-image-keyboard-response,600,2159432,learnblock2,1230.300000000745,img/planet12_right.png,12,Community 1,NA,TRUE,j,j,NA,NA,NA,3,6,"5,15,13,12,14,6,10,7,1,11,3,9,2,8,4"
14412,commdev-image-keyboard-response,601,2160685,learnblock2,715.6999999992549,img/planet13_right.png,13,Community 1,NA,TRUE,j,j,NA,NA,NA,3,6,"5,15,13,12,14,6,10,7,1,11,3,9,2,8,4"
14412,commdev-image-keyboard-response,602,2161938,learnblock2,763.3999999985099,img/planet5_right.png,5,Community 1,NA,TRUE,j,j,NA,NA,NA,3,6,"5,15,13,12,14,6,10,7,1,11,3,9,2,8,4"
14412,commdev-image-keyboard-response,603,2163192,learnblock2,893.8000000007451,img/planet12_right.png,12,Community 1,NA,TRUE,j,j,NA,NA,NA,3,6,"5,15,13,12,14,6,10,7,1,11,3,9,2,8,4"
14412,commdev-image-keyboard-response,604,2164445,learnblock2,812.6999999992549,img/planet5_right.png,5,Community 1,NA,TRUE,j,j,NA,NA,NA,3,6,"5,15,13,12,14,6,10,7,1,11,3,9,2,8,4"
14412,commdev-image-keyboard-response,605,2165699,learnblock2,932.5,img/planet12_right.png,12,Community 1,NA,TRUE,j,j,NA,NA,NA,3,6,"5,15,13,12,14,6,10,7,1,11,3,9,2,8,4"
14412,commdev-image-keyboard-response,606,2166953,learnblock2,979.8000000007451,img/planet13_right.png,13,Community 1,NA,TRUE,j,j,NA,NA,NA,3,6,"5,15,13,12,14,6,10,7,1,11,3,9,2,8,4"
14412,commdev-image-keyboard-response,607,2168207,learnblock2,829.6000000014901,img/planet5_left.png,5,Community 1,NA,TRUE,f,f,NA,NA,NA,3,6,"5,15,13,12,14,6,10,7,1,11,3,9,2,8,4"
14412,commdev-image-keyboard-response,608,2169460,learnblock2,652.3000000007451,img/planet14_right.png,14,Community 1,NA,TRUE,j,j,NA,NA,NA,3,6,"5,15,13,12,14,6,10,7,1,11,3,9,2,8,4"
14412,commdev-image-keyboard-response,609,2170714,learnblock2,617.5,img/planet3_right.png,3,Community 3,NA,TRUE,j,j,NA,NA,NA,3,6,"5,15,13,12,14,6,10,7,1,11,3,9,2,8,4"
14412,commdev-image-keyboard-response,610,2171967,learnblock2,1210.800000000745,img/planet8_right.png,8,Community 3,NA,TRUE,j,j,NA,NA,NA,3,6,"5,15,13,12,14,6,10,7,1,11,3,9,2,8,4"
14412,commdev-image-keyboard-response,611,2173220,learnblock2,574.0999999977648,img/planet9_right.png,9,Community 3,NA,TRUE,j,j,NA,NA,NA,3,6,"5,15,13,12,14,6,10,7,1,11,3,9,2,8,4"
14412,commdev-image-keyboard-response,612,2174473,learnblock2,1029.5999999977648,img/planet7_left.png,7,Community 2,NA,TRUE,f,f,NA,NA,NA,3,6,"5,15,13,12,14,6,10,7,1,11,3,9,2,8,4"
14412,commdev-image-keyboard-response,613,2175726,learnblock2,840.8000000007451,img/planet11_left.png,11,Community 2,NA,TRUE,f,f,NA,NA,NA,3,6,"5,15,13,12,14,6,10,7,1,11,3,9,2,8,4"
14412,commdev-image-keyboard-response,614,2176979,learnblock2,1028.699999999255,img/planet1_left.png,1,Community 2,NA,TRUE,f,f,NA,NA,NA,3,6,"5,15,13,12,14,6,10,7,1,11,3,9,2,8,4"
14412,commdev-image-keyboard-response,615,2178233,learnblock2,694.4000000022352,img/planet7_left.png,7,Community 2,NA,TRUE,f,f,NA,NA,NA,3,6,"5,15,13,12,14,6,10,7,1,11,3,9,2,8,4"
14412,commdev-image-keyboard-response,616,2179486,learnblock2,697.6000000014901,img/planet9_left.png,9,Community 3,NA,TRUE,f,f,NA,NA,NA,3,6,"5,15,13,12,14,6,10,7,1,11,3,9,2,8,4"
14412,commdev-image-keyboard-response,617,2180739,learnblock2,754.4000000022352,img/planet8_right.png,8,Community 3,NA,TRUE,j,j,NA,NA,NA,3,6,"5,15,13,12,14,6,10,7,1,11,3,9,2,8,4"
14412,commdev-image-keyboard-response,618,2181993,learnblock2,627.8999999985099,img/planet9_left.png,9,Community 3,NA,TRUE,f,f,NA,NA,NA,3,6,"5,15,13,12,14,6,10,7,1,11,3,9,2,8,4"
14412,commdev-image-keyboard-response,619,2183246,learnblock2,651.3000000007451,img/planet7_right.png,7,Community 2,NA,TRUE,j,j,NA,NA,NA,3,6,"5,15,13,12,14,6,10,7,1,11,3,9,2,8,4"
14412,commdev-image-keyboard-response,620,2184499,learnblock2,716.2999999970198,img/planet1_right.png,1,Community 2,NA,TRUE,j,j,NA,NA,NA,3,6,"5,15,13,12,14,6,10,7,1,11,3,9,2,8,4"
14412,commdev-image-keyboard-response,621,2185752,learnblock2,666.8000000007451,img/planet11_right.png,11,Community 2,NA,TRUE,j,j,NA,NA,NA,3,6,"5,15,13,12,14,6,10,7,1,11,3,9,2,8,4"
14412,commdev-image-keyboard-response,622,2187006,learnblock2,733.9000000022352,img/planet1_left.png,1,Community 2,NA,TRUE,f,f,NA,NA,NA,3,6,"5,15,13,12,14,6,10,7,1,11,3,9,2,8,4"
14412,commdev-image-keyboard-response,623,2188259,learnblock2,745.9000000022352,img/planet11_left.png,11,Community 2,NA,TRUE,f,f,NA,NA,NA,3,6,"5,15,13,12,14,6,10,7,1,11,3,9,2,8,4"
14412,commdev-image-keyboard-response,624,2189513,learnblock2,687.7000000029802,img/planet10_right.png,10,Community 2,NA,TRUE,j,j,NA,NA,NA,3,6,"5,15,13,12,14,6,10,7,1,11,3,9,2,8,4"
14412,commdev-image-keyboard-response,625,2190766,learnblock2,660.1999999992549,img/planet1_right.png,1,Community 2,NA,TRUE,j,j,NA,NA,NA,3,6,"5,15,13,12,14,6,10,7,1,11,3,9,2,8,4"
14412,commdev-image-keyboard-response,626,2192019,learnblock2,860.1000000014901,img/planet7_left.png,7,Community 2,NA,TRUE,f,f,NA,NA,NA,3,6,"5,15,13,12,14,6,10,7,1,11,3,9,2,8,4"
14412,commdev-image-keyboard-response,627,2193272,learnblock2,953.8999999985099,img/planet11_right.png,11,Community 2,NA,TRUE,j,j,NA,NA,NA,3,6,"5,15,13,12,14,6,10,7,1,11,3,9,2,8,4"
14412,commdev-image-keyboard-response,628,2194525,learnblock2,793.8000000007451,img/planet7_right.png,7,Community 2,NA,TRUE,j,j,NA,NA,NA,3,6,"5,15,13,12,14,6,10,7,1,11,3,9,2,8,4"
14412,commdev-image-keyboard-response,629,2195779,learnblock2,742.3000000007451,img/planet9_left.png,9,Community 3,NA,TRUE,f,f,NA,NA,NA,3,6,"5,15,13,12,14,6,10,7,1,11,3,9,2,8,4"
14412,commdev-image-keyboard-response,630,2197032,learnblock2,866.6000000014901,img/planet4_right.png,4,Community 3,NA,TRUE,j,j,NA,NA,NA,3,6,"5,15,13,12,14,6,10,7,1,11,3,9,2,8,4"
14412,commdev-image-keyboard-response,631,2198285,learnblock2,1010.1999999992549,img/planet3_right.png,3,Community 3,NA,TRUE,j,j,NA,NA,NA,3,6,"5,15,13,12,14,6,10,7,1,11,3,9,2,8,4"
14412,commdev-image-keyboard-response,632,2199538,learnblock2,883.3000000007451,img/planet4_right.png,4,Community 3,NA,TRUE,j,j,NA,NA,NA,3,6,"5,15,13,12,14,6,10,7,1,11,3,9,2,8,4"
14412,commdev-image-keyboard-response,633,2200792,learnblock2,1227.6000000014901,img/planet3_right.png,3,Community 3,NA,TRUE,j,j,NA,NA,NA,3,6,"5,15,13,12,14,6,10,7,1,11,3,9,2,8,4"
14412,commdev-image-keyboard-response,634,2202045,learnblock2,750.4000000022352,img/planet2_left.png,2,Community 3,NA,TRUE,f,f,NA,NA,NA,3,6,"5,15,13,12,14,6,10,7,1,11,3,9,2,8,4"
14412,commdev-image-keyboard-response,635,2203299,learnblock2,685.6999999992549,img/planet8_left.png,8,Community 3,NA,TRUE,f,f,NA,NA,NA,3,6,"5,15,13,12,14,6,10,7,1,11,3,9,2,8,4"
14412,commdev-image-keyboard-response,636,2204552,learnblock2,558.1999999992549,img/planet9_left.png,9,Community 3,NA,TRUE,f,f,NA,NA,NA,3,6,"5,15,13,12,14,6,10,7,1,11,3,9,2,8,4"
14412,commdev-image-keyboard-response,637,2205805,learnblock2,662.6000000014901,img/planet8_right.png,8,Community 3,NA,TRUE,j,j,NA,NA,NA,3,6,"5,15,13,12,14,6,10,7,1,11,3,9,2,8,4"
14412,commdev-image-keyboard-response,638,2207059,learnblock2,685,img/planet9_right.png,9,Community 3,NA,TRUE,j,j,NA,NA,NA,3,6,"5,15,13,12,14,6,10,7,1,11,3,9,2,8,4"
14412,commdev-image-keyboard-response,639,2208311,learnblock2,781.8000000007451,img/planet2_right.png,2,Community 3,NA,TRUE,j,j,NA,NA,NA,3,6,"5,15,13,12,14,6,10,7,1,11,3,9,2,8,4"
14412,commdev-image-keyboard-response,640,2209565,learnblock2,767.2000000029802,img/planet4_right.png,4,Community 3,NA,TRUE,j,j,NA,NA,NA,3,6,"5,15,13,12,14,6,10,7,1,11,3,9,2,8,4"
14412,commdev-image-keyboard-response,641,2210818,learnblock2,701.3999999985099,img/planet8_right.png,8,Community 3,NA,TRUE,j,j,NA,NA,NA,3,6,"5,15,13,12,14,6,10,7,1,11,3,9,2,8,4"
14412,commdev-image-keyboard-response,642,2212072,learnblock2,746.6000000014901,img/planet2_left.png,2,Community 3,NA,FALSE,j,f,NA,NA,NA,3,6,"5,15,13,12,14,6,10,7,1,11,3,9,2,8,4"
14412,commdev-image-keyboard-response,643,2213326,learnblock2,1060.7999999970198,img/planet4_left.png,4,Community 3,NA,TRUE,f,f,NA,NA,NA,3,6,"5,15,13,12,14,6,10,7,1,11,3,9,2,8,4"
14412,commdev-image-keyboard-response,644,2214580,learnblock2,754.4000000022352,img/planet2_right.png,2,Community 3,NA,TRUE,j,j,NA,NA,NA,3,6,"5,15,13,12,14,6,10,7,1,11,3,9,2,8,4"
14412,commdev-image-keyboard-response,645,2215833,learnblock2,838.6999999992549,img/planet4_right.png,4,Community 3,NA,TRUE,j,j,NA,NA,NA,3,6,"5,15,13,12,14,6,10,7,1,11,3,9,2,8,4"
14412,commdev-image-keyboard-response,646,2217088,learnblock2,641.8999999985099,img/planet2_left.png,2,Community 3,NA,TRUE,f,f,NA,NA,NA,3,6,"5,15,13,12,14,6,10,7,1,11,3,9,2,8,4"
14412,commdev-image-keyboard-response,647,2218341,learnblock2,838,img/planet9_left.png,9,Community 3,NA,TRUE,f,f,NA,NA,NA,3,6,"5,15,13,12,14,6,10,7,1,11,3,9,2,8,4"
14412,commdev-image-keyboard-response,648,2219594,learnblock2,1099.800000000745,img/planet8_left.png,8,Community 3,NA,TRUE,f,f,NA,NA,NA,3,6,"5,15,13,12,14,6,10,7,1,11,3,9,2,8,4"
14412,commdev-image-keyboard-response,649,2220846,learnblock2,625,img/planet9_left.png,9,Community 3,NA,TRUE,f,f,NA,NA,NA,3,6,"5,15,13,12,14,6,10,7,1,11,3,9,2,8,4"
14412,commdev-image-keyboard-response,650,2222101,learnblock2,680.8000000007451,img/planet7_left.png,7,Community 2,NA,TRUE,f,f,NA,NA,NA,3,6,"5,15,13,12,14,6,10,7,1,11,3,9,2,8,4"
14412,commdev-image-keyboard-response,651,2223354,learnblock2,872.2999999970198,img/planet9_left.png,9,Community 3,NA,TRUE,f,f,NA,NA,NA,3,6,"5,15,13,12,14,6,10,7,1,11,3,9,2,8,4"
14412,commdev-image-keyboard-response,652,2224606,learnblock2,816.6999999992549,img/planet8_right.png,8,Community 3,NA,TRUE,j,j,NA,NA,NA,3,6,"5,15,13,12,14,6,10,7,1,11,3,9,2,8,4"
14412,commdev-image-keyboard-response,653,2225860,learnblock2,828.9000000022352,img/planet4_left.png,4,Community 3,NA,TRUE,f,f,NA,NA,NA,3,6,"5,15,13,12,14,6,10,7,1,11,3,9,2,8,4"
14412,commdev-image-keyboard-response,654,2227113,learnblock2,653.1000000014901,img/planet8_left.png,8,Community 3,NA,TRUE,f,f,NA,NA,NA,3,6,"5,15,13,12,14,6,10,7,1,11,3,9,2,8,4"
14412,commdev-image-keyboard-response,655,2228366,learnblock2,814.2999999970198,img/planet3_left.png,3,Community 3,NA,FALSE,j,f,NA,NA,NA,3,6,"5,15,13,12,14,6,10,7,1,11,3,9,2,8,4"
14412,commdev-image-keyboard-response,656,2229619,learnblock2,659.6000000014901,img/planet4_right.png,4,Community 3,NA,TRUE,j,j,NA,NA,NA,3,6,"5,15,13,12,14,6,10,7,1,11,3,9,2,8,4"
