subject_id,trial_type,trial_index,time_elapsed,block,rt,stimulus,planet,community,response,correct,key_press,learning_correct_response,parse,init_locations,final_locations,browser_interactions,num_comp,planet_map
14089,commdev-instructions,7,35495,NA,2356,"<p>In this game, you will be shown a 3x3 grid of patterns.</p> <p>The last one in the bottom right-hand corner, <strong>will be missing:</strong></p> <div style='width: 700px;'><div style='float: top;'><img style='width: 200px;' src='practice/p1_M1.png'></img><p class='small'>You need to select<strong> which of the four possible patterns </strong>along the bottom<strong> fits into the gap:</strong></p></div><div style='float: top;'><img style='width: 300px;' src='practice/p1_T1.png'></img></div><br>",NA,NA,NA,NA,NA,NA,NA,NA,NA,NA,6,"13,5,4,15,8,9,10,2,1,14,12,11,6,3,7"
14089,commdev-instructions,8,59727,NA,6311,"<p>Try to be as fast and as accurate as you can be.</p> <p>If you cannot solve the puzzle then you should guess - you will not be penalised for an incorrect answer.</p> <p>The task contains a shuffled mix of easy, medium and hard puzzles.</p> <p>You will have <strong>30 seconds</strong> to complete each puzzle.</p><br>",NA,NA,NA,NA,NA,NA,NA,NA,NA,NA,6,"13,5,4,15,8,9,10,2,1,14,12,11,6,3,7"
14089,commdev-instructions,15,85962,NA,1447,<p><strong>Success!</strong></p> <p>You seem to be getting the hang of this...</p> <p>Let's move on to the real trials.</p><br>,NA,NA,NA,NA,NA,NA,NA,NA,NA,NA,6,"13,5,4,15,8,9,10,2,1,14,12,11,6,3,7"
14089,commdev-instructions,178,526920,NA,5290,"<p>In this game, you are a scientist on board a space shuttle. </p><p> On each mission, you will visit planets all across the universe.</p><img src=""img/controlroom.jpg"" width=300vw>",NA,NA,NA,NA,NA,NA,NA,NA,NA,NA,6,"13,5,4,15,8,9,10,2,1,14,12,11,6,3,7"
14089,commdev-instructions,179,529669,NA,680,"<p>Here are a few planets you might see:</p><img src=""img/practice1.png"" width=200vw><img src=""img/practice2.png"" width=200vw><img src=""img/practice3.png"" width=200vw>",NA,NA,NA,NA,NA,NA,NA,NA,NA,NA,6,"13,5,4,15,8,9,10,2,1,14,12,11,6,3,7"
14089,commdev-instructions,180,538337,NA,1269,"<p>Your job as a scientist is to record which direction the winds are moving on each planet.</p><p>There are two types of wind directions:</p><img src=""img/practice1_left.png"" width=200vw><img src=""img/practice1_right.png"" width=200vw>",NA,NA,NA,NA,NA,NA,NA,NA,NA,NA,6,"13,5,4,15,8,9,10,2,1,14,12,11,6,3,7"
14089,commdev-instructions,181,545085,NA,1867,"<p>If the winds are moving this way, press the letter <strong>F</strong> on the keyboard as fast as you can.</p><img src=""img/leftwind.png"" width=250vw>",NA,NA,NA,NA,NA,NA,NA,NA,NA,NA,6,"13,5,4,15,8,9,10,2,1,14,12,11,6,3,7"
14089,commdev-instructions,182,550437,NA,857,"<p>If the winds are moving this way, press the letter <strong>J</strong> on the keyboard as fast as you can.</p><img src=""img/rightwind.png"" width=350vw>",NA,NA,NA,NA,NA,NA,NA,NA,NA,NA,6,"13,5,4,15,8,9,10,2,1,14,12,11,6,3,7"
14089,commdev-instructions,183,555754,NA,894,<p>You will have 1 second to respond. Try to respond before the time runs out!,NA,NA,NA,NA,NA,NA,NA,NA,NA,NA,6,"13,5,4,15,8,9,10,2,1,14,12,11,6,3,7"
14089,commdev-instructions,184,561753,NA,568,<p>The planets you will visit will look different from each other.</p><p>You should respond <strong>only</strong> based on wind direction.,NA,NA,NA,NA,NA,NA,NA,NA,NA,NA,6,"13,5,4,15,8,9,10,2,1,14,12,11,6,3,7"
14089,commdev-instructions,185,566062,NA,NA,NA,NA,NA,NA,NA,NA,NA,NA,NA,NA,NA,6,"13,5,4,15,8,9,10,2,1,14,12,11,6,3,7"
14089,commdev-instructions,197,624666,NA,769,"<p>Great, now try a short practice mission. </p><p> This time, you will have 1 second to respond and you won't know whether you pressed the right or wrong key for each planet.</p>",NA,NA,NA,NA,NA,NA,NA,NA,NA,NA,6,"13,5,4,15,8,9,10,2,1,14,12,11,6,3,7"
14089,commdev-image-keyboard-response,198,626020,practice,1020,img/practice2_right.png,NA,Number not found in mappings,NA,TRUE,j,j,NA,NA,NA,NA,6,"13,5,4,15,8,9,10,2,1,14,12,11,6,3,7"
14089,commdev-image-keyboard-response,199,627273,practice,1111,img/practice1_right.png,NA,Number not found in mappings,NA,TRUE,j,j,NA,NA,NA,NA,6,"13,5,4,15,8,9,10,2,1,14,12,11,6,3,7"
14089,commdev-image-keyboard-response,200,628524,practice,865,img/practice2_left.png,NA,Number not found in mappings,NA,FALSE,j,f,NA,NA,NA,NA,6,"13,5,4,15,8,9,10,2,1,14,12,11,6,3,7"
14089,commdev-image-keyboard-response,201,629776,practice,746,img/practice1_right.png,NA,Number not found in mappings,NA,TRUE,j,j,NA,NA,NA,NA,6,"13,5,4,15,8,9,10,2,1,14,12,11,6,3,7"
14089,commdev-image-keyboard-response,202,631029,practice,796,img/practice3_right.png,NA,Number not found in mappings,NA,TRUE,j,j,NA,NA,NA,NA,6,"13,5,4,15,8,9,10,2,1,14,12,11,6,3,7"
14089,commdev-image-keyboard-response,203,632281,practice,483,img/practice2_right.png,NA,Number not found in mappings,NA,TRUE,j,j,NA,NA,NA,NA,6,"13,5,4,15,8,9,10,2,1,14,12,11,6,3,7"
14089,commdev-image-keyboard-response,204,633534,practice,754,img/practice4_left.png,NA,Number not found in mappings,NA,TRUE,f,f,NA,NA,NA,NA,6,"13,5,4,15,8,9,10,2,1,14,12,11,6,3,7"
14089,commdev-image-keyboard-response,205,634786,practice,566,img/practice2_right.png,NA,Number not found in mappings,NA,TRUE,j,j,NA,NA,NA,NA,6,"13,5,4,15,8,9,10,2,1,14,12,11,6,3,7"
14089,commdev-instructions,206,644918,NA,582,"<p>Great job with the practice round.</p><p>During real missions, you won't know whether you pressed the right or wrong key for each planet.</p><p>But between missions, we will tell you how you did overall.</p>",NA,NA,NA,NA,NA,NA,NA,NA,NA,NA,6,"13,5,4,15,8,9,10,2,1,14,12,11,6,3,7"
14089,commdev-instructions,207,653684,NA,527,<p>Try your best! You will be paid a bonus based on how many correct responses you make!</p><p>Responses that are too slow will not count toward your bonus.</p>,NA,NA,NA,NA,NA,NA,NA,NA,NA,NA,6,"13,5,4,15,8,9,10,2,1,14,12,11,6,3,7"
14089,commdev-instructions,208,660333,NA,452,"<p>You are almost ready to start the real game.</p><p> First, we are going to ask you some questions about how the game works.</p>",NA,NA,NA,NA,NA,NA,NA,NA,NA,NA,6,"13,5,4,15,8,9,10,2,1,14,12,11,6,3,7"
14089,commdev-instructions,217,747014,NA,4905,"<p> Nice work! It is now time to start the real game.<p></p>You will go on two missions to record wind directions of different planets.<p></p>Each one will take about 5 minutes. You will get to take a break between missions.<p><p> Remember, press <strong>F</strong> or <strong>J</strong> depending on the wind direction. Good luck!<br><img src=""img/categorize_planet_example.png""",NA,NA,NA,NA,NA,NA,NA,NA,NA,NA,6,"13,5,4,15,8,9,10,2,1,14,12,11,6,3,7"
14089,commdev-image-keyboard-response,219,756988,learnblock1,857,img/planet14_left.png,14,Community 2,NA,TRUE,f,f,NA,NA,NA,NA,6,"13,5,4,15,8,9,10,2,1,14,12,11,6,3,7"
14089,commdev-image-keyboard-response,220,758240,learnblock1,774,img/planet2_left.png,2,Community 2,NA,TRUE,f,f,NA,NA,NA,NA,6,"13,5,4,15,8,9,10,2,1,14,12,11,6,3,7"
14089,commdev-image-keyboard-response,221,759493,learnblock1,619,img/planet10_left.png,10,Community 2,NA,TRUE,f,f,NA,NA,NA,NA,6,"13,5,4,15,8,9,10,2,1,14,12,11,6,3,7"
14089,commdev-image-keyboard-response,222,760744,learnblock1,597,img/planet2_left.png,2,Community 2,NA,TRUE,f,f,NA,NA,NA,NA,6,"13,5,4,15,8,9,10,2,1,14,12,11,6,3,7"
14089,commdev-image-keyboard-response,223,761996,learnblock1,636,img/planet1_left.png,1,Community 2,NA,TRUE,f,f,NA,NA,NA,NA,6,"13,5,4,15,8,9,10,2,1,14,12,11,6,3,7"
14089,commdev-image-keyboard-response,224,763248,learnblock1,694,img/planet9_right.png,9,Community 2,NA,TRUE,j,j,NA,NA,NA,NA,6,"13,5,4,15,8,9,10,2,1,14,12,11,6,3,7"
14089,commdev-image-keyboard-response,225,764500,learnblock1,790,img/planet15_left.png,15,Community 1,NA,TRUE,f,f,NA,NA,NA,NA,6,"13,5,4,15,8,9,10,2,1,14,12,11,6,3,7"
14089,commdev-image-keyboard-response,226,765752,learnblock1,758,img/planet13_left.png,13,Community 1,NA,TRUE,f,f,NA,NA,NA,NA,6,"13,5,4,15,8,9,10,2,1,14,12,11,6,3,7"
14089,commdev-image-keyboard-response,227,767005,learnblock1,809,img/planet5_left.png,5,Community 1,NA,TRUE,f,f,NA,NA,NA,NA,6,"13,5,4,15,8,9,10,2,1,14,12,11,6,3,7"
14089,commdev-image-keyboard-response,228,768257,learnblock1,741,img/planet8_left.png,8,Community 1,NA,TRUE,f,f,NA,NA,NA,NA,6,"13,5,4,15,8,9,10,2,1,14,12,11,6,3,7"
14089,commdev-image-keyboard-response,229,769509,learnblock1,724,img/planet13_right.png,13,Community 1,NA,TRUE,j,j,NA,NA,NA,NA,6,"13,5,4,15,8,9,10,2,1,14,12,11,6,3,7"
14089,commdev-image-keyboard-response,230,770762,learnblock1,658,img/planet15_left.png,15,Community 1,NA,TRUE,f,f,NA,NA,NA,NA,6,"13,5,4,15,8,9,10,2,1,14,12,11,6,3,7"
14089,commdev-image-keyboard-response,231,772014,learnblock1,857,img/planet13_left.png,13,Community 1,NA,TRUE,f,f,NA,NA,NA,NA,6,"13,5,4,15,8,9,10,2,1,14,12,11,6,3,7"
14089,commdev-image-keyboard-response,232,773267,learnblock1,658,img/planet5_right.png,5,Community 1,NA,TRUE,j,j,NA,NA,NA,NA,6,"13,5,4,15,8,9,10,2,1,14,12,11,6,3,7"
14089,commdev-image-keyboard-response,233,774519,learnblock1,627,img/planet13_right.png,13,Community 1,NA,FALSE,f,j,NA,NA,NA,NA,6,"13,5,4,15,8,9,10,2,1,14,12,11,6,3,7"
14089,commdev-image-keyboard-response,234,775772,learnblock1,757,img/planet8_right.png,8,Community 1,NA,TRUE,j,j,NA,NA,NA,NA,6,"13,5,4,15,8,9,10,2,1,14,12,11,6,3,7"
14089,commdev-image-keyboard-response,235,777025,learnblock1,659,img/planet12_left.png,12,Community 3,NA,TRUE,f,f,NA,NA,NA,NA,6,"13,5,4,15,8,9,10,2,1,14,12,11,6,3,7"
14089,commdev-image-keyboard-response,236,778278,learnblock1,701,img/planet3_right.png,3,Community 3,NA,TRUE,j,j,NA,NA,NA,NA,6,"13,5,4,15,8,9,10,2,1,14,12,11,6,3,7"
14089,commdev-image-keyboard-response,237,779531,learnblock1,858,img/planet11_right.png,11,Community 3,NA,TRUE,j,j,NA,NA,NA,NA,6,"13,5,4,15,8,9,10,2,1,14,12,11,6,3,7"
14089,commdev-image-keyboard-response,238,780782,learnblock1,764,img/planet2_right.png,2,Community 2,NA,TRUE,j,j,NA,NA,NA,NA,6,"13,5,4,15,8,9,10,2,1,14,12,11,6,3,7"
14089,commdev-image-keyboard-response,239,782035,learnblock1,741,img/planet14_right.png,14,Community 2,NA,TRUE,j,j,NA,NA,NA,NA,6,"13,5,4,15,8,9,10,2,1,14,12,11,6,3,7"
14089,commdev-image-keyboard-response,240,783287,learnblock1,675,img/planet9_left.png,9,Community 2,NA,TRUE,f,f,NA,NA,NA,NA,6,"13,5,4,15,8,9,10,2,1,14,12,11,6,3,7"
14089,commdev-image-keyboard-response,241,784539,learnblock1,1020,img/planet14_right.png,14,Community 2,NA,TRUE,j,j,NA,NA,NA,NA,6,"13,5,4,15,8,9,10,2,1,14,12,11,6,3,7"
14089,commdev-image-keyboard-response,242,785792,learnblock1,831,img/planet10_right.png,10,Community 2,NA,TRUE,j,j,NA,NA,NA,NA,6,"13,5,4,15,8,9,10,2,1,14,12,11,6,3,7"
14089,commdev-image-keyboard-response,243,787045,learnblock1,691,img/planet2_left.png,2,Community 2,NA,TRUE,f,f,NA,NA,NA,NA,6,"13,5,4,15,8,9,10,2,1,14,12,11,6,3,7"
14089,commdev-image-keyboard-response,244,788297,learnblock1,618,img/planet1_right.png,1,Community 2,NA,TRUE,j,j,NA,NA,NA,NA,6,"13,5,4,15,8,9,10,2,1,14,12,11,6,3,7"
14089,commdev-image-keyboard-response,245,789550,learnblock1,580,img/planet2_right.png,2,Community 2,NA,TRUE,j,j,NA,NA,NA,NA,6,"13,5,4,15,8,9,10,2,1,14,12,11,6,3,7"
14089,commdev-image-keyboard-response,246,790802,learnblock1,689,img/planet1_left.png,1,Community 2,NA,TRUE,f,f,NA,NA,NA,NA,6,"13,5,4,15,8,9,10,2,1,14,12,11,6,3,7"
14089,commdev-image-keyboard-response,247,792055,learnblock1,918,img/planet10_left.png,10,Community 2,NA,TRUE,f,f,NA,NA,NA,NA,6,"13,5,4,15,8,9,10,2,1,14,12,11,6,3,7"
14089,commdev-image-keyboard-response,248,793306,learnblock1,912,img/planet2_right.png,2,Community 2,NA,TRUE,j,j,NA,NA,NA,NA,6,"13,5,4,15,8,9,10,2,1,14,12,11,6,3,7"
14089,commdev-image-keyboard-response,249,794559,learnblock1,866,img/planet11_left.png,11,Community 3,NA,TRUE,f,f,NA,NA,NA,NA,6,"13,5,4,15,8,9,10,2,1,14,12,11,6,3,7"
14089,commdev-image-keyboard-response,250,795811,learnblock1,482,img/planet2_right.png,2,Community 2,NA,TRUE,j,j,NA,NA,NA,NA,6,"13,5,4,15,8,9,10,2,1,14,12,11,6,3,7"
14089,commdev-image-keyboard-response,251,797064,learnblock1,485,img/planet10_left.png,10,Community 2,NA,TRUE,f,f,NA,NA,NA,NA,6,"13,5,4,15,8,9,10,2,1,14,12,11,6,3,7"
14089,commdev-image-keyboard-response,252,798317,learnblock1,688,img/planet14_right.png,14,Community 2,NA,TRUE,j,j,NA,NA,NA,NA,6,"13,5,4,15,8,9,10,2,1,14,12,11,6,3,7"
14089,commdev-image-keyboard-response,253,799569,learnblock1,754,img/planet10_left.png,10,Community 2,NA,TRUE,f,f,NA,NA,NA,NA,6,"13,5,4,15,8,9,10,2,1,14,12,11,6,3,7"
14089,commdev-image-keyboard-response,254,800822,learnblock1,933,img/planet1_left.png,1,Community 2,NA,TRUE,f,f,NA,NA,NA,NA,6,"13,5,4,15,8,9,10,2,1,14,12,11,6,3,7"
14089,commdev-image-keyboard-response,255,802073,learnblock1,638,img/planet10_left.png,10,Community 2,NA,TRUE,f,f,NA,NA,NA,NA,6,"13,5,4,15,8,9,10,2,1,14,12,11,6,3,7"
14089,commdev-image-keyboard-response,256,803325,learnblock1,796,img/planet1_left.png,1,Community 2,NA,TRUE,f,f,NA,NA,NA,NA,6,"13,5,4,15,8,9,10,2,1,14,12,11,6,3,7"
14089,commdev-image-keyboard-response,257,804577,learnblock1,737,img/planet10_left.png,10,Community 2,NA,TRUE,f,f,NA,NA,NA,NA,6,"13,5,4,15,8,9,10,2,1,14,12,11,6,3,7"
14089,commdev-image-keyboard-response,258,805829,learnblock1,750,img/planet9_left.png,9,Community 2,NA,TRUE,f,f,NA,NA,NA,NA,6,"13,5,4,15,8,9,10,2,1,14,12,11,6,3,7"
14089,commdev-image-keyboard-response,259,807081,learnblock1,749,img/planet10_left.png,10,Community 2,NA,TRUE,f,f,NA,NA,NA,NA,6,"13,5,4,15,8,9,10,2,1,14,12,11,6,3,7"
14089,commdev-image-keyboard-response,260,808333,learnblock1,672,img/planet2_left.png,2,Community 2,NA,TRUE,f,f,NA,NA,NA,NA,6,"13,5,4,15,8,9,10,2,1,14,12,11,6,3,7"
14089,commdev-image-keyboard-response,261,809585,learnblock1,793,img/planet14_left.png,14,Community 2,NA,TRUE,f,f,NA,NA,NA,NA,6,"13,5,4,15,8,9,10,2,1,14,12,11,6,3,7"
14089,commdev-image-keyboard-response,262,810838,learnblock1,822,img/planet2_right.png,2,Community 2,NA,TRUE,j,j,NA,NA,NA,NA,6,"13,5,4,15,8,9,10,2,1,14,12,11,6,3,7"
14089,commdev-image-keyboard-response,263,812089,learnblock1,535,img/planet10_left.png,10,Community 2,NA,TRUE,f,f,NA,NA,NA,NA,6,"13,5,4,15,8,9,10,2,1,14,12,11,6,3,7"
14089,commdev-image-keyboard-response,264,813341,learnblock1,993,img/planet1_left.png,1,Community 2,NA,TRUE,f,f,NA,NA,NA,NA,6,"13,5,4,15,8,9,10,2,1,14,12,11,6,3,7"
14089,commdev-image-keyboard-response,265,814593,learnblock1,758,img/planet14_right.png,14,Community 2,NA,TRUE,j,j,NA,NA,NA,NA,6,"13,5,4,15,8,9,10,2,1,14,12,11,6,3,7"
14089,commdev-image-keyboard-response,266,815845,learnblock1,610,img/planet10_left.png,10,Community 2,NA,TRUE,f,f,NA,NA,NA,NA,6,"13,5,4,15,8,9,10,2,1,14,12,11,6,3,7"
14089,commdev-image-keyboard-response,267,817098,learnblock1,533,img/planet14_left.png,14,Community 2,NA,TRUE,f,f,NA,NA,NA,NA,6,"13,5,4,15,8,9,10,2,1,14,12,11,6,3,7"
14089,commdev-image-keyboard-response,268,818349,learnblock1,499,img/planet2_right.png,2,Community 2,NA,FALSE,f,j,NA,NA,NA,NA,6,"13,5,4,15,8,9,10,2,1,14,12,11,6,3,7"
14089,commdev-image-keyboard-response,269,819602,learnblock1,590,img/planet10_right.png,10,Community 2,NA,TRUE,j,j,NA,NA,NA,NA,6,"13,5,4,15,8,9,10,2,1,14,12,11,6,3,7"
14089,commdev-image-keyboard-response,270,820853,learnblock1,658,img/planet14_right.png,14,Community 2,NA,TRUE,j,j,NA,NA,NA,NA,6,"13,5,4,15,8,9,10,2,1,14,12,11,6,3,7"
14089,commdev-image-keyboard-response,271,822106,learnblock1,768,img/planet2_right.png,2,Community 2,NA,TRUE,j,j,NA,NA,NA,NA,6,"13,5,4,15,8,9,10,2,1,14,12,11,6,3,7"
14089,commdev-image-keyboard-response,272,823357,learnblock1,688,img/planet1_left.png,1,Community 2,NA,FALSE,j,f,NA,NA,NA,NA,6,"13,5,4,15,8,9,10,2,1,14,12,11,6,3,7"
14089,commdev-image-keyboard-response,273,824609,learnblock1,925,img/planet9_left.png,9,Community 2,NA,FALSE,j,f,NA,NA,NA,NA,6,"13,5,4,15,8,9,10,2,1,14,12,11,6,3,7"
14089,commdev-image-keyboard-response,274,825861,learnblock1,762,img/planet10_right.png,10,Community 2,NA,FALSE,f,j,NA,NA,NA,NA,6,"13,5,4,15,8,9,10,2,1,14,12,11,6,3,7"
14089,commdev-image-keyboard-response,275,827112,learnblock1,924,img/planet2_right.png,2,Community 2,NA,TRUE,j,j,NA,NA,NA,NA,6,"13,5,4,15,8,9,10,2,1,14,12,11,6,3,7"
14089,commdev-image-keyboard-response,276,828365,learnblock1,706,img/planet11_left.png,11,Community 3,NA,TRUE,f,f,NA,NA,NA,NA,6,"13,5,4,15,8,9,10,2,1,14,12,11,6,3,7"
14089,commdev-image-keyboard-response,277,829616,learnblock1,944,img/planet7_right.png,7,Community 3,NA,TRUE,j,j,NA,NA,NA,NA,6,"13,5,4,15,8,9,10,2,1,14,12,11,6,3,7"
14089,commdev-image-keyboard-response,278,830869,learnblock1,974,img/planet12_right.png,12,Community 3,NA,TRUE,j,j,NA,NA,NA,NA,6,"13,5,4,15,8,9,10,2,1,14,12,11,6,3,7"
14089,commdev-image-keyboard-response,279,832122,learnblock1,839,img/planet3_left.png,3,Community 3,NA,TRUE,f,f,NA,NA,NA,NA,6,"13,5,4,15,8,9,10,2,1,14,12,11,6,3,7"
14089,commdev-image-keyboard-response,280,833375,learnblock1,659,img/planet6_right.png,6,Community 3,NA,TRUE,j,j,NA,NA,NA,NA,6,"13,5,4,15,8,9,10,2,1,14,12,11,6,3,7"
14089,commdev-image-keyboard-response,281,834627,learnblock1,1076,img/planet3_right.png,3,Community 3,NA,TRUE,j,j,NA,NA,NA,NA,6,"13,5,4,15,8,9,10,2,1,14,12,11,6,3,7"
14089,commdev-image-keyboard-response,282,835879,learnblock1,947,img/planet6_right.png,6,Community 3,NA,TRUE,j,j,NA,NA,NA,NA,6,"13,5,4,15,8,9,10,2,1,14,12,11,6,3,7"
14089,commdev-image-keyboard-response,283,837131,learnblock1,798,img/planet3_right.png,3,Community 3,NA,TRUE,j,j,NA,NA,NA,NA,6,"13,5,4,15,8,9,10,2,1,14,12,11,6,3,7"
14089,commdev-image-keyboard-response,284,838384,learnblock1,783,img/planet6_left.png,6,Community 3,NA,TRUE,f,f,NA,NA,NA,NA,6,"13,5,4,15,8,9,10,2,1,14,12,11,6,3,7"
14089,commdev-image-keyboard-response,285,839636,learnblock1,745,img/planet7_right.png,7,Community 3,NA,TRUE,j,j,NA,NA,NA,NA,6,"13,5,4,15,8,9,10,2,1,14,12,11,6,3,7"
14089,commdev-image-keyboard-response,286,840887,learnblock1,1030,img/planet11_left.png,11,Community 3,NA,TRUE,f,f,NA,NA,NA,NA,6,"13,5,4,15,8,9,10,2,1,14,12,11,6,3,7"
14089,commdev-image-keyboard-response,287,842139,learnblock1,644,img/planet6_right.png,6,Community 3,NA,TRUE,j,j,NA,NA,NA,NA,6,"13,5,4,15,8,9,10,2,1,14,12,11,6,3,7"
14089,commdev-image-keyboard-response,288,843391,learnblock1,653,img/planet3_left.png,3,Community 3,NA,TRUE,f,f,NA,NA,NA,NA,6,"13,5,4,15,8,9,10,2,1,14,12,11,6,3,7"
14089,commdev-image-keyboard-response,289,844643,learnblock1,892,img/planet12_left.png,12,Community 3,NA,TRUE,f,f,NA,NA,NA,NA,6,"13,5,4,15,8,9,10,2,1,14,12,11,6,3,7"
14089,commdev-image-keyboard-response,290,845894,learnblock1,672,img/planet6_left.png,6,Community 3,NA,FALSE,j,f,NA,NA,NA,NA,6,"13,5,4,15,8,9,10,2,1,14,12,11,6,3,7"
14089,commdev-image-keyboard-response,291,847147,learnblock1,761,img/planet11_right.png,11,Community 3,NA,TRUE,j,j,NA,NA,NA,NA,6,"13,5,4,15,8,9,10,2,1,14,12,11,6,3,7"
14089,commdev-image-keyboard-response,292,848400,learnblock1,794,img/planet7_left.png,7,Community 3,NA,TRUE,f,f,NA,NA,NA,NA,6,"13,5,4,15,8,9,10,2,1,14,12,11,6,3,7"
14089,commdev-image-keyboard-response,293,849652,learnblock1,611,img/planet3_right.png,3,Community 3,NA,TRUE,j,j,NA,NA,NA,NA,6,"13,5,4,15,8,9,10,2,1,14,12,11,6,3,7"
14089,commdev-image-keyboard-response,294,850905,learnblock1,796,img/planet11_right.png,11,Community 3,NA,TRUE,j,j,NA,NA,NA,NA,6,"13,5,4,15,8,9,10,2,1,14,12,11,6,3,7"
14089,commdev-image-keyboard-response,295,852156,learnblock1,877,img/planet6_left.png,6,Community 3,NA,TRUE,f,f,NA,NA,NA,NA,6,"13,5,4,15,8,9,10,2,1,14,12,11,6,3,7"
14089,commdev-image-keyboard-response,296,853409,learnblock1,721,img/planet12_right.png,12,Community 3,NA,TRUE,j,j,NA,NA,NA,NA,6,"13,5,4,15,8,9,10,2,1,14,12,11,6,3,7"
14089,commdev-image-keyboard-response,297,854661,learnblock1,716,img/planet7_left.png,7,Community 3,NA,TRUE,f,f,NA,NA,NA,NA,6,"13,5,4,15,8,9,10,2,1,14,12,11,6,3,7"
14089,commdev-image-keyboard-response,298,855914,learnblock1,1126,img/planet6_left.png,6,Community 3,NA,TRUE,f,f,NA,NA,NA,NA,6,"13,5,4,15,8,9,10,2,1,14,12,11,6,3,7"
14089,commdev-image-keyboard-response,299,857166,learnblock1,822,img/planet12_left.png,12,Community 3,NA,TRUE,f,f,NA,NA,NA,NA,6,"13,5,4,15,8,9,10,2,1,14,12,11,6,3,7"
14089,commdev-image-keyboard-response,300,858417,learnblock1,836,img/planet8_left.png,8,Community 1,NA,TRUE,f,f,NA,NA,NA,NA,6,"13,5,4,15,8,9,10,2,1,14,12,11,6,3,7"
14089,commdev-image-keyboard-response,301,859670,learnblock1,769,img/planet13_left.png,13,Community 1,NA,TRUE,f,f,NA,NA,NA,NA,6,"13,5,4,15,8,9,10,2,1,14,12,11,6,3,7"
14089,commdev-image-keyboard-response,302,860921,learnblock1,759,img/planet4_left.png,4,Community 1,NA,TRUE,f,f,NA,NA,NA,NA,6,"13,5,4,15,8,9,10,2,1,14,12,11,6,3,7"
14089,commdev-image-keyboard-response,303,862173,learnblock1,601,img/planet5_right.png,5,Community 1,NA,FALSE,f,j,NA,NA,NA,NA,6,"13,5,4,15,8,9,10,2,1,14,12,11,6,3,7"
14089,commdev-image-keyboard-response,304,863425,learnblock1,703,img/planet8_right.png,8,Community 1,NA,TRUE,j,j,NA,NA,NA,NA,6,"13,5,4,15,8,9,10,2,1,14,12,11,6,3,7"
14089,commdev-image-keyboard-response,305,864677,learnblock1,888,img/planet4_right.png,4,Community 1,NA,TRUE,j,j,NA,NA,NA,NA,6,"13,5,4,15,8,9,10,2,1,14,12,11,6,3,7"
14089,commdev-image-keyboard-response,306,865928,learnblock1,911,img/planet15_right.png,15,Community 1,NA,TRUE,j,j,NA,NA,NA,NA,6,"13,5,4,15,8,9,10,2,1,14,12,11,6,3,7"
14089,commdev-image-keyboard-response,307,867181,learnblock1,877,img/planet9_left.png,9,Community 2,NA,TRUE,f,f,NA,NA,NA,NA,6,"13,5,4,15,8,9,10,2,1,14,12,11,6,3,7"
14089,commdev-image-keyboard-response,308,868433,learnblock1,1143,img/planet1_right.png,1,Community 2,NA,TRUE,j,j,NA,NA,NA,NA,6,"13,5,4,15,8,9,10,2,1,14,12,11,6,3,7"
14089,commdev-image-keyboard-response,309,869685,learnblock1,990,img/planet10_left.png,10,Community 2,NA,TRUE,f,f,NA,NA,NA,NA,6,"13,5,4,15,8,9,10,2,1,14,12,11,6,3,7"
14089,commdev-image-keyboard-response,310,870937,learnblock1,1185,img/planet1_left.png,1,Community 2,NA,TRUE,f,f,NA,NA,NA,NA,6,"13,5,4,15,8,9,10,2,1,14,12,11,6,3,7"
14089,commdev-image-keyboard-response,311,872188,learnblock1,890,img/planet14_left.png,14,Community 2,NA,TRUE,f,f,NA,NA,NA,NA,6,"13,5,4,15,8,9,10,2,1,14,12,11,6,3,7"
14089,commdev-image-keyboard-response,312,873440,learnblock1,823,img/planet10_right.png,10,Community 2,NA,FALSE,f,j,NA,NA,NA,NA,6,"13,5,4,15,8,9,10,2,1,14,12,11,6,3,7"
14089,commdev-image-keyboard-response,313,874691,learnblock1,21,img/planet1_left.png,1,Community 2,NA,FALSE,j,f,NA,NA,NA,NA,6,"13,5,4,15,8,9,10,2,1,14,12,11,6,3,7"
14089,commdev-image-keyboard-response,314,875943,learnblock1,776,img/planet9_left.png,9,Community 2,NA,TRUE,f,f,NA,NA,NA,NA,6,"13,5,4,15,8,9,10,2,1,14,12,11,6,3,7"
14089,commdev-image-keyboard-response,315,877195,learnblock1,831,img/planet15_left.png,15,Community 1,NA,TRUE,f,f,NA,NA,NA,NA,6,"13,5,4,15,8,9,10,2,1,14,12,11,6,3,7"
14089,commdev-image-keyboard-response,316,878447,learnblock1,750,img/planet5_right.png,5,Community 1,NA,TRUE,j,j,NA,NA,NA,NA,6,"13,5,4,15,8,9,10,2,1,14,12,11,6,3,7"
14089,commdev-image-keyboard-response,317,879699,learnblock1,777,img/planet13_left.png,13,Community 1,NA,TRUE,f,f,NA,NA,NA,NA,6,"13,5,4,15,8,9,10,2,1,14,12,11,6,3,7"
14089,commdev-image-keyboard-response,318,880952,learnblock1,728,img/planet15_right.png,15,Community 1,NA,TRUE,j,j,NA,NA,NA,NA,6,"13,5,4,15,8,9,10,2,1,14,12,11,6,3,7"
14089,commdev-image-keyboard-response,319,882204,learnblock1,883,img/planet4_left.png,4,Community 1,NA,TRUE,f,f,NA,NA,NA,NA,6,"13,5,4,15,8,9,10,2,1,14,12,11,6,3,7"
14089,commdev-image-keyboard-response,320,883456,learnblock1,803,img/planet5_right.png,5,Community 1,NA,TRUE,j,j,NA,NA,NA,NA,6,"13,5,4,15,8,9,10,2,1,14,12,11,6,3,7"
14089,commdev-image-keyboard-response,321,884707,learnblock1,1153,img/planet15_right.png,15,Community 1,NA,FALSE,f,j,NA,NA,NA,NA,6,"13,5,4,15,8,9,10,2,1,14,12,11,6,3,7"
14089,commdev-image-keyboard-response,322,885960,learnblock1,879,img/planet13_left.png,13,Community 1,NA,TRUE,f,f,NA,NA,NA,NA,6,"13,5,4,15,8,9,10,2,1,14,12,11,6,3,7"
14089,commdev-image-keyboard-response,323,887211,learnblock1,161,img/planet15_left.png,15,Community 1,NA,FALSE,j,f,NA,NA,NA,NA,6,"13,5,4,15,8,9,10,2,1,14,12,11,6,3,7"
14089,commdev-image-keyboard-response,324,888463,learnblock1,845,img/planet13_left.png,13,Community 1,NA,TRUE,f,f,NA,NA,NA,NA,6,"13,5,4,15,8,9,10,2,1,14,12,11,6,3,7"
14089,commdev-image-keyboard-response,325,889715,learnblock1,854,img/planet8_left.png,8,Community 1,NA,TRUE,f,f,NA,NA,NA,NA,6,"13,5,4,15,8,9,10,2,1,14,12,11,6,3,7"
14089,commdev-image-keyboard-response,326,890967,learnblock1,723,img/planet13_right.png,13,Community 1,NA,TRUE,j,j,NA,NA,NA,NA,6,"13,5,4,15,8,9,10,2,1,14,12,11,6,3,7"
14089,commdev-image-keyboard-response,327,892219,learnblock1,968,img/planet15_right.png,15,Community 1,NA,TRUE,j,j,NA,NA,NA,NA,6,"13,5,4,15,8,9,10,2,1,14,12,11,6,3,7"
14089,commdev-image-keyboard-response,328,893471,learnblock1,955,img/planet4_right.png,4,Community 1,NA,TRUE,j,j,NA,NA,NA,NA,6,"13,5,4,15,8,9,10,2,1,14,12,11,6,3,7"
14089,commdev-image-keyboard-response,329,894723,learnblock1,746,img/planet5_right.png,5,Community 1,NA,TRUE,j,j,NA,NA,NA,NA,6,"13,5,4,15,8,9,10,2,1,14,12,11,6,3,7"
14089,commdev-image-keyboard-response,330,895975,learnblock1,789,img/planet15_right.png,15,Community 1,NA,TRUE,j,j,NA,NA,NA,NA,6,"13,5,4,15,8,9,10,2,1,14,12,11,6,3,7"
14089,commdev-image-keyboard-response,331,897227,learnblock1,751,img/planet13_right.png,13,Community 1,NA,TRUE,j,j,NA,NA,NA,NA,6,"13,5,4,15,8,9,10,2,1,14,12,11,6,3,7"
14089,commdev-image-keyboard-response,332,898479,learnblock1,785,img/planet4_right.png,4,Community 1,NA,TRUE,j,j,NA,NA,NA,NA,6,"13,5,4,15,8,9,10,2,1,14,12,11,6,3,7"
14089,commdev-image-keyboard-response,333,899731,learnblock1,801,img/planet15_left.png,15,Community 1,NA,TRUE,f,f,NA,NA,NA,NA,6,"13,5,4,15,8,9,10,2,1,14,12,11,6,3,7"
14089,commdev-image-keyboard-response,334,900983,learnblock1,807,img/planet5_right.png,5,Community 1,NA,TRUE,j,j,NA,NA,NA,NA,6,"13,5,4,15,8,9,10,2,1,14,12,11,6,3,7"
14089,commdev-image-keyboard-response,335,902235,learnblock1,758,img/planet4_left.png,4,Community 1,NA,TRUE,f,f,NA,NA,NA,NA,6,"13,5,4,15,8,9,10,2,1,14,12,11,6,3,7"
14089,commdev-image-keyboard-response,336,903488,learnblock1,1037,img/planet8_right.png,8,Community 1,NA,TRUE,j,j,NA,NA,NA,NA,6,"13,5,4,15,8,9,10,2,1,14,12,11,6,3,7"
14089,commdev-image-keyboard-response,337,904740,learnblock1,687,img/planet12_right.png,12,Community 3,NA,TRUE,j,j,NA,NA,NA,NA,6,"13,5,4,15,8,9,10,2,1,14,12,11,6,3,7"
14089,commdev-image-keyboard-response,338,905992,learnblock1,637,img/planet6_left.png,6,Community 3,NA,TRUE,f,f,NA,NA,NA,NA,6,"13,5,4,15,8,9,10,2,1,14,12,11,6,3,7"
14089,commdev-image-keyboard-response,339,907244,learnblock1,869,img/planet7_left.png,7,Community 3,NA,FALSE,j,f,NA,NA,NA,NA,6,"13,5,4,15,8,9,10,2,1,14,12,11,6,3,7"
14089,commdev-image-keyboard-response,340,908496,learnblock1,800,img/planet3_right.png,3,Community 3,NA,TRUE,j,j,NA,NA,NA,NA,6,"13,5,4,15,8,9,10,2,1,14,12,11,6,3,7"
14089,commdev-image-keyboard-response,341,909748,learnblock1,681,img/planet6_left.png,6,Community 3,NA,TRUE,f,f,NA,NA,NA,NA,6,"13,5,4,15,8,9,10,2,1,14,12,11,6,3,7"
14089,commdev-image-keyboard-response,342,911000,learnblock1,701,img/planet12_right.png,12,Community 3,NA,TRUE,j,j,NA,NA,NA,NA,6,"13,5,4,15,8,9,10,2,1,14,12,11,6,3,7"
14089,commdev-image-keyboard-response,343,912252,learnblock1,625,img/planet6_left.png,6,Community 3,NA,TRUE,f,f,NA,NA,NA,NA,6,"13,5,4,15,8,9,10,2,1,14,12,11,6,3,7"
14089,commdev-image-keyboard-response,344,913504,learnblock1,737,img/planet11_left.png,11,Community 3,NA,TRUE,f,f,NA,NA,NA,NA,6,"13,5,4,15,8,9,10,2,1,14,12,11,6,3,7"
14089,commdev-image-keyboard-response,345,914755,learnblock1,779,img/planet3_left.png,3,Community 3,NA,TRUE,f,f,NA,NA,NA,NA,6,"13,5,4,15,8,9,10,2,1,14,12,11,6,3,7"
14089,commdev-image-keyboard-response,346,916008,learnblock1,740,img/planet7_left.png,7,Community 3,NA,TRUE,f,f,NA,NA,NA,NA,6,"13,5,4,15,8,9,10,2,1,14,12,11,6,3,7"
14089,commdev-image-keyboard-response,347,917260,learnblock1,587,img/planet12_left.png,12,Community 3,NA,TRUE,f,f,NA,NA,NA,NA,6,"13,5,4,15,8,9,10,2,1,14,12,11,6,3,7"
14089,commdev-image-keyboard-response,348,918512,learnblock1,748,img/planet7_right.png,7,Community 3,NA,TRUE,j,j,NA,NA,NA,NA,6,"13,5,4,15,8,9,10,2,1,14,12,11,6,3,7"
14089,commdev-image-keyboard-response,349,919764,learnblock1,889,img/planet12_right.png,12,Community 3,NA,TRUE,j,j,NA,NA,NA,NA,6,"13,5,4,15,8,9,10,2,1,14,12,11,6,3,7"
14089,commdev-image-keyboard-response,350,921016,learnblock1,878,img/planet6_left.png,6,Community 3,NA,TRUE,f,f,NA,NA,NA,NA,6,"13,5,4,15,8,9,10,2,1,14,12,11,6,3,7"
14089,commdev-image-keyboard-response,351,922269,learnblock1,818,img/planet12_right.png,12,Community 3,NA,TRUE,j,j,NA,NA,NA,NA,6,"13,5,4,15,8,9,10,2,1,14,12,11,6,3,7"
14089,commdev-image-keyboard-response,352,923521,learnblock1,798,img/planet7_right.png,7,Community 3,NA,TRUE,j,j,NA,NA,NA,NA,6,"13,5,4,15,8,9,10,2,1,14,12,11,6,3,7"
14089,commdev-image-keyboard-response,353,924774,learnblock1,675,img/planet11_left.png,11,Community 3,NA,TRUE,f,f,NA,NA,NA,NA,6,"13,5,4,15,8,9,10,2,1,14,12,11,6,3,7"
14089,commdev-image-keyboard-response,354,926027,learnblock1,607,img/planet2_right.png,2,Community 2,NA,TRUE,j,j,NA,NA,NA,NA,6,"13,5,4,15,8,9,10,2,1,14,12,11,6,3,7"
14089,commdev-image-keyboard-response,355,927279,learnblock1,912,img/planet1_right.png,1,Community 2,NA,TRUE,j,j,NA,NA,NA,NA,6,"13,5,4,15,8,9,10,2,1,14,12,11,6,3,7"
14089,commdev-image-keyboard-response,356,928532,learnblock1,755,img/planet14_right.png,14,Community 2,NA,TRUE,j,j,NA,NA,NA,NA,6,"13,5,4,15,8,9,10,2,1,14,12,11,6,3,7"
14089,commdev-image-keyboard-response,357,929784,learnblock1,699,img/planet10_right.png,10,Community 2,NA,TRUE,j,j,NA,NA,NA,NA,6,"13,5,4,15,8,9,10,2,1,14,12,11,6,3,7"
14089,commdev-image-keyboard-response,358,931036,learnblock1,858,img/planet2_left.png,2,Community 2,NA,TRUE,f,f,NA,NA,NA,NA,6,"13,5,4,15,8,9,10,2,1,14,12,11,6,3,7"
14089,commdev-image-keyboard-response,359,932289,learnblock1,880,img/planet10_right.png,10,Community 2,NA,TRUE,j,j,NA,NA,NA,NA,6,"13,5,4,15,8,9,10,2,1,14,12,11,6,3,7"
14089,commdev-image-keyboard-response,360,933541,learnblock1,955,img/planet9_right.png,9,Community 2,NA,TRUE,j,j,NA,NA,NA,NA,6,"13,5,4,15,8,9,10,2,1,14,12,11,6,3,7"
14089,commdev-image-keyboard-response,361,934794,learnblock1,863,img/planet1_right.png,1,Community 2,NA,TRUE,j,j,NA,NA,NA,NA,6,"13,5,4,15,8,9,10,2,1,14,12,11,6,3,7"
14089,commdev-image-keyboard-response,362,936047,learnblock1,770,img/planet2_left.png,2,Community 2,NA,TRUE,f,f,NA,NA,NA,NA,6,"13,5,4,15,8,9,10,2,1,14,12,11,6,3,7"
14089,commdev-image-keyboard-response,363,937299,learnblock1,750,img/planet10_right.png,10,Community 2,NA,TRUE,j,j,NA,NA,NA,NA,6,"13,5,4,15,8,9,10,2,1,14,12,11,6,3,7"
14089,commdev-image-keyboard-response,364,938551,learnblock1,694,img/planet14_left.png,14,Community 2,NA,TRUE,f,f,NA,NA,NA,NA,6,"13,5,4,15,8,9,10,2,1,14,12,11,6,3,7"
14089,commdev-image-keyboard-response,365,939803,learnblock1,595,img/planet2_right.png,2,Community 2,NA,TRUE,j,j,NA,NA,NA,NA,6,"13,5,4,15,8,9,10,2,1,14,12,11,6,3,7"
14089,commdev-image-keyboard-response,366,941056,learnblock1,346,img/planet11_left.png,11,Community 3,NA,FALSE,j,f,NA,NA,NA,NA,6,"13,5,4,15,8,9,10,2,1,14,12,11,6,3,7"
14089,commdev-image-keyboard-response,367,942307,learnblock1,380,img/planet3_right.png,3,Community 3,NA,TRUE,j,j,NA,NA,NA,NA,6,"13,5,4,15,8,9,10,2,1,14,12,11,6,3,7"
14089,commdev-image-keyboard-response,368,943559,learnblock1,802,img/planet11_left.png,11,Community 3,NA,TRUE,f,f,NA,NA,NA,NA,6,"13,5,4,15,8,9,10,2,1,14,12,11,6,3,7"
14089,commdev-image-keyboard-response,369,944812,learnblock1,528,img/planet2_right.png,2,Community 2,NA,TRUE,j,j,NA,NA,NA,NA,6,"13,5,4,15,8,9,10,2,1,14,12,11,6,3,7"
14089,commdev-image-keyboard-response,370,946065,learnblock1,457,img/planet10_left.png,10,Community 2,NA,TRUE,f,f,NA,NA,NA,NA,6,"13,5,4,15,8,9,10,2,1,14,12,11,6,3,7"
14089,commdev-image-keyboard-response,371,947316,learnblock1,1067,img/planet14_left.png,14,Community 2,NA,TRUE,f,f,NA,NA,NA,NA,6,"13,5,4,15,8,9,10,2,1,14,12,11,6,3,7"
14089,commdev-image-keyboard-response,372,948568,learnblock1,621,img/planet10_right.png,10,Community 2,NA,TRUE,j,j,NA,NA,NA,NA,6,"13,5,4,15,8,9,10,2,1,14,12,11,6,3,7"
14089,commdev-image-keyboard-response,373,949820,learnblock1,575,img/planet1_left.png,1,Community 2,NA,TRUE,f,f,NA,NA,NA,NA,6,"13,5,4,15,8,9,10,2,1,14,12,11,6,3,7"
14089,commdev-image-keyboard-response,374,951072,learnblock1,831,img/planet2_right.png,2,Community 2,NA,TRUE,j,j,NA,NA,NA,NA,6,"13,5,4,15,8,9,10,2,1,14,12,11,6,3,7"
14089,commdev-image-keyboard-response,375,952323,learnblock1,607,img/planet11_left.png,11,Community 3,NA,TRUE,f,f,NA,NA,NA,NA,6,"13,5,4,15,8,9,10,2,1,14,12,11,6,3,7"
14089,commdev-image-keyboard-response,376,953574,learnblock1,714,img/planet6_right.png,6,Community 3,NA,FALSE,f,j,NA,NA,NA,NA,6,"13,5,4,15,8,9,10,2,1,14,12,11,6,3,7"
14089,commdev-image-keyboard-response,377,954826,learnblock1,738,img/planet3_right.png,3,Community 3,NA,FALSE,f,j,NA,NA,NA,NA,6,"13,5,4,15,8,9,10,2,1,14,12,11,6,3,7"
14089,commdev-image-keyboard-response,378,956079,learnblock1,1045,img/planet12_right.png,12,Community 3,NA,FALSE,f,j,NA,NA,NA,NA,6,"13,5,4,15,8,9,10,2,1,14,12,11,6,3,7"
14089,commdev-image-keyboard-response,379,957330,learnblock1,622,img/planet3_right.png,3,Community 3,NA,TRUE,j,j,NA,NA,NA,NA,6,"13,5,4,15,8,9,10,2,1,14,12,11,6,3,7"
14089,commdev-image-keyboard-response,380,958583,learnblock1,906,img/planet11_right.png,11,Community 3,NA,TRUE,j,j,NA,NA,NA,NA,6,"13,5,4,15,8,9,10,2,1,14,12,11,6,3,7"
14089,commdev-image-keyboard-response,381,959836,learnblock1,737,img/planet6_left.png,6,Community 3,NA,TRUE,f,f,NA,NA,NA,NA,6,"13,5,4,15,8,9,10,2,1,14,12,11,6,3,7"
14089,commdev-image-keyboard-response,382,961088,learnblock1,625,img/planet12_right.png,12,Community 3,NA,TRUE,j,j,NA,NA,NA,NA,6,"13,5,4,15,8,9,10,2,1,14,12,11,6,3,7"
14089,commdev-image-keyboard-response,383,962341,learnblock1,948,img/planet7_right.png,7,Community 3,NA,TRUE,j,j,NA,NA,NA,NA,6,"13,5,4,15,8,9,10,2,1,14,12,11,6,3,7"
14089,commdev-image-keyboard-response,384,963592,learnblock1,1015,img/planet11_right.png,11,Community 3,NA,TRUE,j,j,NA,NA,NA,NA,6,"13,5,4,15,8,9,10,2,1,14,12,11,6,3,7"
14089,commdev-image-keyboard-response,385,964845,learnblock1,1177,img/planet7_left.png,7,Community 3,NA,TRUE,f,f,NA,NA,NA,NA,6,"13,5,4,15,8,9,10,2,1,14,12,11,6,3,7"
14089,commdev-image-keyboard-response,386,966097,learnblock1,951,img/planet11_left.png,11,Community 3,NA,TRUE,f,f,NA,NA,NA,NA,6,"13,5,4,15,8,9,10,2,1,14,12,11,6,3,7"
14089,commdev-image-keyboard-response,387,967350,learnblock1,650,img/planet2_right.png,2,Community 2,NA,TRUE,j,j,NA,NA,NA,NA,6,"13,5,4,15,8,9,10,2,1,14,12,11,6,3,7"
14089,commdev-image-keyboard-response,388,968601,learnblock1,1058,img/planet1_right.png,1,Community 2,NA,TRUE,j,j,NA,NA,NA,NA,6,"13,5,4,15,8,9,10,2,1,14,12,11,6,3,7"
14089,commdev-image-keyboard-response,389,969853,learnblock1,860,img/planet14_right.png,14,Community 2,NA,TRUE,j,j,NA,NA,NA,NA,6,"13,5,4,15,8,9,10,2,1,14,12,11,6,3,7"
14089,commdev-image-keyboard-response,390,971105,learnblock1,580,img/planet2_left.png,2,Community 2,NA,TRUE,f,f,NA,NA,NA,NA,6,"13,5,4,15,8,9,10,2,1,14,12,11,6,3,7"
14089,commdev-image-keyboard-response,391,972357,learnblock1,988,img/planet1_right.png,1,Community 2,NA,TRUE,j,j,NA,NA,NA,NA,6,"13,5,4,15,8,9,10,2,1,14,12,11,6,3,7"
14089,commdev-image-keyboard-response,392,973609,learnblock1,1134,img/planet2_right.png,2,Community 2,NA,TRUE,j,j,NA,NA,NA,NA,6,"13,5,4,15,8,9,10,2,1,14,12,11,6,3,7"
14089,commdev-image-keyboard-response,393,974861,learnblock1,752,img/planet10_left.png,10,Community 2,NA,FALSE,j,f,NA,NA,NA,NA,6,"13,5,4,15,8,9,10,2,1,14,12,11,6,3,7"
14089,commdev-image-keyboard-response,394,976113,learnblock1,895,img/planet9_right.png,9,Community 2,NA,TRUE,j,j,NA,NA,NA,NA,6,"13,5,4,15,8,9,10,2,1,14,12,11,6,3,7"
14089,commdev-image-keyboard-response,395,977365,learnblock1,1005,img/planet1_right.png,1,Community 2,NA,TRUE,j,j,NA,NA,NA,NA,6,"13,5,4,15,8,9,10,2,1,14,12,11,6,3,7"
14089,commdev-image-keyboard-response,396,978617,learnblock1,697,img/planet10_right.png,10,Community 2,NA,TRUE,j,j,NA,NA,NA,NA,6,"13,5,4,15,8,9,10,2,1,14,12,11,6,3,7"
14089,commdev-image-keyboard-response,397,979869,learnblock1,598,img/planet9_right.png,9,Community 2,NA,TRUE,j,j,NA,NA,NA,NA,6,"13,5,4,15,8,9,10,2,1,14,12,11,6,3,7"
14089,commdev-image-keyboard-response,398,981120,learnblock1,746,img/planet14_left.png,14,Community 2,NA,TRUE,f,f,NA,NA,NA,NA,6,"13,5,4,15,8,9,10,2,1,14,12,11,6,3,7"
14089,commdev-image-keyboard-response,399,982372,learnblock1,572,img/planet9_right.png,9,Community 2,NA,TRUE,j,j,NA,NA,NA,NA,6,"13,5,4,15,8,9,10,2,1,14,12,11,6,3,7"
14089,commdev-image-keyboard-response,400,983624,learnblock1,704,img/planet15_left.png,15,Community 1,NA,TRUE,f,f,NA,NA,NA,NA,6,"13,5,4,15,8,9,10,2,1,14,12,11,6,3,7"
14089,commdev-image-keyboard-response,401,984876,learnblock1,730,img/planet4_left.png,4,Community 1,NA,TRUE,f,f,NA,NA,NA,NA,6,"13,5,4,15,8,9,10,2,1,14,12,11,6,3,7"
14089,commdev-image-keyboard-response,402,986129,learnblock1,661,img/planet8_right.png,8,Community 1,NA,TRUE,j,j,NA,NA,NA,NA,6,"13,5,4,15,8,9,10,2,1,14,12,11,6,3,7"
14089,commdev-image-keyboard-response,403,987382,learnblock1,586,img/planet12_right.png,12,Community 3,NA,TRUE,j,j,NA,NA,NA,NA,6,"13,5,4,15,8,9,10,2,1,14,12,11,6,3,7"
14089,commdev-image-keyboard-response,404,988633,learnblock1,730,img/planet7_left.png,7,Community 3,NA,TRUE,f,f,NA,NA,NA,NA,6,"13,5,4,15,8,9,10,2,1,14,12,11,6,3,7"
14089,commdev-image-keyboard-response,405,989885,learnblock1,null,img/planet6_left.png,6,Community 3,NA,FALSE,null,f,NA,NA,NA,NA,6,"13,5,4,15,8,9,10,2,1,14,12,11,6,3,7"
14089,commdev-image-keyboard-response,406,991138,learnblock1,1191,img/planet11_right.png,11,Community 3,NA,TRUE,j,j,NA,NA,NA,NA,6,"13,5,4,15,8,9,10,2,1,14,12,11,6,3,7"
14089,commdev-image-keyboard-response,407,992391,learnblock1,784,img/planet2_left.png,2,Community 2,NA,TRUE,f,f,NA,NA,NA,NA,6,"13,5,4,15,8,9,10,2,1,14,12,11,6,3,7"
14089,commdev-image-keyboard-response,408,993643,learnblock1,572,img/planet11_right.png,11,Community 3,NA,TRUE,j,j,NA,NA,NA,NA,6,"13,5,4,15,8,9,10,2,1,14,12,11,6,3,7"
14089,commdev-image-keyboard-response,409,994896,learnblock1,762,img/planet3_right.png,3,Community 3,NA,TRUE,j,j,NA,NA,NA,NA,6,"13,5,4,15,8,9,10,2,1,14,12,11,6,3,7"
14089,commdev-image-keyboard-response,410,996148,learnblock1,683,img/planet11_left.png,11,Community 3,NA,TRUE,f,f,NA,NA,NA,NA,6,"13,5,4,15,8,9,10,2,1,14,12,11,6,3,7"
14089,commdev-image-keyboard-response,411,997399,learnblock1,553,img/planet3_left.png,3,Community 3,NA,FALSE,j,f,NA,NA,NA,NA,6,"13,5,4,15,8,9,10,2,1,14,12,11,6,3,7"
14089,commdev-image-keyboard-response,412,998651,learnblock1,557,img/planet12_right.png,12,Community 3,NA,TRUE,j,j,NA,NA,NA,NA,6,"13,5,4,15,8,9,10,2,1,14,12,11,6,3,7"
14089,commdev-image-keyboard-response,413,999902,learnblock1,797,img/planet6_left.png,6,Community 3,NA,TRUE,f,f,NA,NA,NA,NA,6,"13,5,4,15,8,9,10,2,1,14,12,11,6,3,7"
14089,commdev-image-keyboard-response,414,1001154,learnblock1,623,img/planet12_right.png,12,Community 3,NA,TRUE,j,j,NA,NA,NA,NA,6,"13,5,4,15,8,9,10,2,1,14,12,11,6,3,7"
14089,commdev-image-keyboard-response,415,1002406,learnblock1,806,img/planet3_left.png,3,Community 3,NA,TRUE,f,f,NA,NA,NA,NA,6,"13,5,4,15,8,9,10,2,1,14,12,11,6,3,7"
14089,commdev-image-keyboard-response,416,1003658,learnblock1,736,img/planet12_right.png,12,Community 3,NA,TRUE,j,j,NA,NA,NA,NA,6,"13,5,4,15,8,9,10,2,1,14,12,11,6,3,7"
14089,commdev-image-keyboard-response,417,1004909,learnblock1,841,img/planet8_left.png,8,Community 1,NA,TRUE,f,f,NA,NA,NA,NA,6,"13,5,4,15,8,9,10,2,1,14,12,11,6,3,7"
14089,commdev-image-keyboard-response,418,1006162,learnblock1,817,img/planet12_left.png,12,Community 3,NA,TRUE,f,f,NA,NA,NA,NA,6,"13,5,4,15,8,9,10,2,1,14,12,11,6,3,7"
14089,commdev-image-keyboard-response,419,1007414,learnblock1,1005,img/planet8_right.png,8,Community 1,NA,TRUE,j,j,NA,NA,NA,NA,6,"13,5,4,15,8,9,10,2,1,14,12,11,6,3,7"
14089,commdev-image-keyboard-response,420,1008667,learnblock1,797,img/planet13_left.png,13,Community 1,NA,TRUE,f,f,NA,NA,NA,NA,6,"13,5,4,15,8,9,10,2,1,14,12,11,6,3,7"
14089,commdev-image-keyboard-response,421,1009919,learnblock1,963,img/planet15_right.png,15,Community 1,NA,FALSE,f,j,NA,NA,NA,NA,6,"13,5,4,15,8,9,10,2,1,14,12,11,6,3,7"
14089,commdev-image-keyboard-response,422,1011170,learnblock1,671,img/planet9_left.png,9,Community 2,NA,TRUE,f,f,NA,NA,NA,NA,6,"13,5,4,15,8,9,10,2,1,14,12,11,6,3,7"
14089,commdev-image-keyboard-response,423,1012422,learnblock1,682,img/planet10_left.png,10,Community 2,NA,FALSE,j,f,NA,NA,NA,NA,6,"13,5,4,15,8,9,10,2,1,14,12,11,6,3,7"
14089,commdev-image-keyboard-response,424,1013674,learnblock1,null,img/planet1_left.png,1,Community 2,NA,FALSE,null,f,NA,NA,NA,NA,6,"13,5,4,15,8,9,10,2,1,14,12,11,6,3,7"
14089,commdev-image-keyboard-response,425,1014927,learnblock1,407,img/planet10_right.png,10,Community 2,NA,FALSE,f,j,NA,NA,NA,NA,6,"13,5,4,15,8,9,10,2,1,14,12,11,6,3,7"
14089,commdev-image-keyboard-response,426,1016179,learnblock1,932,img/planet14_right.png,14,Community 2,NA,TRUE,j,j,NA,NA,NA,NA,6,"13,5,4,15,8,9,10,2,1,14,12,11,6,3,7"
14089,commdev-image-keyboard-response,427,1017431,learnblock1,636,img/planet10_left.png,10,Community 2,NA,TRUE,f,f,NA,NA,NA,NA,6,"13,5,4,15,8,9,10,2,1,14,12,11,6,3,7"
14089,commdev-image-keyboard-response,428,1018683,learnblock1,797,img/planet2_left.png,2,Community 2,NA,TRUE,f,f,NA,NA,NA,NA,6,"13,5,4,15,8,9,10,2,1,14,12,11,6,3,7"
14089,commdev-image-keyboard-response,429,1019936,learnblock1,1067,img/planet1_left.png,1,Community 2,NA,TRUE,f,f,NA,NA,NA,NA,6,"13,5,4,15,8,9,10,2,1,14,12,11,6,3,7"
14089,commdev-image-keyboard-response,430,1021189,learnblock1,765,img/planet10_right.png,10,Community 2,NA,FALSE,f,j,NA,NA,NA,NA,6,"13,5,4,15,8,9,10,2,1,14,12,11,6,3,7"
14089,commdev-image-keyboard-response,431,1022441,learnblock1,757,img/planet2_right.png,2,Community 2,NA,FALSE,f,j,NA,NA,NA,NA,6,"13,5,4,15,8,9,10,2,1,14,12,11,6,3,7"
14089,commdev-image-keyboard-response,432,1023693,learnblock1,955,img/planet1_right.png,1,Community 2,NA,TRUE,j,j,NA,NA,NA,NA,6,"13,5,4,15,8,9,10,2,1,14,12,11,6,3,7"
14089,commdev-image-keyboard-response,433,1024946,learnblock1,837,img/planet10_left.png,10,Community 2,NA,TRUE,f,f,NA,NA,NA,NA,6,"13,5,4,15,8,9,10,2,1,14,12,11,6,3,7"
14089,commdev-image-keyboard-response,434,1026199,learnblock1,757,img/planet14_right.png,14,Community 2,NA,TRUE,j,j,NA,NA,NA,NA,6,"13,5,4,15,8,9,10,2,1,14,12,11,6,3,7"
14089,commdev-image-keyboard-response,435,1027451,learnblock1,703,img/planet2_left.png,2,Community 2,NA,FALSE,j,f,NA,NA,NA,NA,6,"13,5,4,15,8,9,10,2,1,14,12,11,6,3,7"
14089,commdev-image-keyboard-response,436,1028702,learnblock1,841,img/planet1_left.png,1,Community 2,NA,FALSE,j,f,NA,NA,NA,NA,6,"13,5,4,15,8,9,10,2,1,14,12,11,6,3,7"
14089,commdev-image-keyboard-response,437,1029954,learnblock1,707,img/planet2_right.png,2,Community 2,NA,TRUE,j,j,NA,NA,NA,NA,6,"13,5,4,15,8,9,10,2,1,14,12,11,6,3,7"
14089,commdev-image-keyboard-response,438,1031206,learnblock1,827,img/planet1_right.png,1,Community 2,NA,TRUE,j,j,NA,NA,NA,NA,6,"13,5,4,15,8,9,10,2,1,14,12,11,6,3,7"
14089,commdev-image-keyboard-response,439,1032458,learnblock1,613,img/planet2_right.png,2,Community 2,NA,TRUE,j,j,NA,NA,NA,NA,6,"13,5,4,15,8,9,10,2,1,14,12,11,6,3,7"
14089,commdev-image-keyboard-response,440,1033710,learnblock1,654,img/planet11_right.png,11,Community 3,NA,TRUE,j,j,NA,NA,NA,NA,6,"13,5,4,15,8,9,10,2,1,14,12,11,6,3,7"
14089,commdev-image-keyboard-response,441,1034962,learnblock1,682,img/planet3_left.png,3,Community 3,NA,TRUE,f,f,NA,NA,NA,NA,6,"13,5,4,15,8,9,10,2,1,14,12,11,6,3,7"
14089,commdev-image-keyboard-response,442,1036214,learnblock1,930,img/planet12_right.png,12,Community 3,NA,TRUE,j,j,NA,NA,NA,NA,6,"13,5,4,15,8,9,10,2,1,14,12,11,6,3,7"
14089,commdev-image-keyboard-response,443,1037466,learnblock1,811,img/planet6_right.png,6,Community 3,NA,TRUE,j,j,NA,NA,NA,NA,6,"13,5,4,15,8,9,10,2,1,14,12,11,6,3,7"
14089,commdev-image-keyboard-response,444,1038718,learnblock1,814,img/planet3_left.png,3,Community 3,NA,TRUE,f,f,NA,NA,NA,NA,6,"13,5,4,15,8,9,10,2,1,14,12,11,6,3,7"
14089,commdev-image-keyboard-response,445,1039971,learnblock1,876,img/planet7_left.png,7,Community 3,NA,TRUE,f,f,NA,NA,NA,NA,6,"13,5,4,15,8,9,10,2,1,14,12,11,6,3,7"
14089,commdev-image-keyboard-response,446,1041224,learnblock1,1045,img/planet11_right.png,11,Community 3,NA,TRUE,j,j,NA,NA,NA,NA,6,"13,5,4,15,8,9,10,2,1,14,12,11,6,3,7"
14089,commdev-image-keyboard-response,447,1042476,learnblock1,861,img/planet7_left.png,7,Community 3,NA,TRUE,f,f,NA,NA,NA,NA,6,"13,5,4,15,8,9,10,2,1,14,12,11,6,3,7"
14089,commdev-image-keyboard-response,448,1043729,learnblock1,692,img/planet12_right.png,12,Community 3,NA,TRUE,j,j,NA,NA,NA,NA,6,"13,5,4,15,8,9,10,2,1,14,12,11,6,3,7"
14089,commdev-image-keyboard-response,449,1044981,learnblock1,586,img/planet7_right.png,7,Community 3,NA,FALSE,f,j,NA,NA,NA,NA,6,"13,5,4,15,8,9,10,2,1,14,12,11,6,3,7"
14089,commdev-image-keyboard-response,450,1046234,learnblock1,907,img/planet3_right.png,3,Community 3,NA,TRUE,j,j,NA,NA,NA,NA,6,"13,5,4,15,8,9,10,2,1,14,12,11,6,3,7"
14089,commdev-image-keyboard-response,451,1047486,learnblock1,914,img/planet7_right.png,7,Community 3,NA,TRUE,j,j,NA,NA,NA,NA,6,"13,5,4,15,8,9,10,2,1,14,12,11,6,3,7"
14089,commdev-image-keyboard-response,452,1048738,learnblock1,837,img/planet3_left.png,3,Community 3,NA,TRUE,f,f,NA,NA,NA,NA,6,"13,5,4,15,8,9,10,2,1,14,12,11,6,3,7"
14089,commdev-image-keyboard-response,453,1049990,learnblock1,922,img/planet11_right.png,11,Community 3,NA,FALSE,f,j,NA,NA,NA,NA,6,"13,5,4,15,8,9,10,2,1,14,12,11,6,3,7"
14089,commdev-image-keyboard-response,454,1051242,learnblock1,107,img/planet6_right.png,6,Community 3,NA,TRUE,j,j,NA,NA,NA,NA,6,"13,5,4,15,8,9,10,2,1,14,12,11,6,3,7"
14089,commdev-image-keyboard-response,455,1052493,learnblock1,975,img/planet7_right.png,7,Community 3,NA,TRUE,j,j,NA,NA,NA,NA,6,"13,5,4,15,8,9,10,2,1,14,12,11,6,3,7"
14089,commdev-image-keyboard-response,456,1053744,learnblock1,734,img/planet12_right.png,12,Community 3,NA,TRUE,j,j,NA,NA,NA,NA,6,"13,5,4,15,8,9,10,2,1,14,12,11,6,3,7"
14089,commdev-image-keyboard-response,457,1054997,learnblock1,885,img/planet6_right.png,6,Community 3,NA,TRUE,j,j,NA,NA,NA,NA,6,"13,5,4,15,8,9,10,2,1,14,12,11,6,3,7"
14089,commdev-image-keyboard-response,458,1056249,learnblock1,647,img/planet7_left.png,7,Community 3,NA,FALSE,j,f,NA,NA,NA,NA,6,"13,5,4,15,8,9,10,2,1,14,12,11,6,3,7"
14089,commdev-image-keyboard-response,459,1057501,learnblock1,975,img/planet6_left.png,6,Community 3,NA,TRUE,f,f,NA,NA,NA,NA,6,"13,5,4,15,8,9,10,2,1,14,12,11,6,3,7"
14089,commdev-image-keyboard-response,460,1058753,learnblock1,1118,img/planet12_right.png,12,Community 3,NA,TRUE,j,j,NA,NA,NA,NA,6,"13,5,4,15,8,9,10,2,1,14,12,11,6,3,7"
14089,commdev-image-keyboard-response,461,1060005,learnblock1,763,img/planet6_left.png,6,Community 3,NA,TRUE,f,f,NA,NA,NA,NA,6,"13,5,4,15,8,9,10,2,1,14,12,11,6,3,7"
14089,commdev-image-keyboard-response,462,1061257,learnblock1,917,img/planet11_left.png,11,Community 3,NA,FALSE,j,f,NA,NA,NA,NA,6,"13,5,4,15,8,9,10,2,1,14,12,11,6,3,7"
14089,commdev-image-keyboard-response,463,1062509,learnblock1,1047,img/planet6_left.png,6,Community 3,NA,TRUE,f,f,NA,NA,NA,NA,6,"13,5,4,15,8,9,10,2,1,14,12,11,6,3,7"
14089,commdev-image-keyboard-response,464,1063761,learnblock1,724,img/planet12_right.png,12,Community 3,NA,FALSE,f,j,NA,NA,NA,NA,6,"13,5,4,15,8,9,10,2,1,14,12,11,6,3,7"
14089,commdev-image-keyboard-response,465,1065013,learnblock1,741,img/planet7_left.png,7,Community 3,NA,TRUE,f,f,NA,NA,NA,NA,6,"13,5,4,15,8,9,10,2,1,14,12,11,6,3,7"
14089,commdev-image-keyboard-response,466,1066266,learnblock1,1075,img/planet6_left.png,6,Community 3,NA,FALSE,j,f,NA,NA,NA,NA,6,"13,5,4,15,8,9,10,2,1,14,12,11,6,3,7"
14089,commdev-image-keyboard-response,467,1067518,learnblock1,1148,img/planet12_right.png,12,Community 3,NA,TRUE,j,j,NA,NA,NA,NA,6,"13,5,4,15,8,9,10,2,1,14,12,11,6,3,7"
14089,commdev-image-keyboard-response,468,1068770,learnblock1,1065,img/planet6_right.png,6,Community 3,NA,TRUE,j,j,NA,NA,NA,NA,6,"13,5,4,15,8,9,10,2,1,14,12,11,6,3,7"
14089,commdev-image-keyboard-response,469,1070022,learnblock1,882,img/planet7_left.png,7,Community 3,NA,TRUE,f,f,NA,NA,NA,NA,6,"13,5,4,15,8,9,10,2,1,14,12,11,6,3,7"
14089,commdev-image-keyboard-response,470,1071274,learnblock1,1142,img/planet3_left.png,3,Community 3,NA,TRUE,f,f,NA,NA,NA,NA,6,"13,5,4,15,8,9,10,2,1,14,12,11,6,3,7"
14089,commdev-image-keyboard-response,471,1072525,learnblock1,688,img/planet11_right.png,11,Community 3,NA,TRUE,j,j,NA,NA,NA,NA,6,"13,5,4,15,8,9,10,2,1,14,12,11,6,3,7"
14089,commdev-image-keyboard-response,472,1073777,learnblock1,912,img/planet3_right.png,3,Community 3,NA,FALSE,f,j,NA,NA,NA,NA,6,"13,5,4,15,8,9,10,2,1,14,12,11,6,3,7"
14089,commdev-image-keyboard-response,473,1075030,learnblock1,925,img/planet6_left.png,6,Community 3,NA,TRUE,f,f,NA,NA,NA,NA,6,"13,5,4,15,8,9,10,2,1,14,12,11,6,3,7"
14089,commdev-image-keyboard-response,474,1076281,learnblock1,900,img/planet7_right.png,7,Community 3,NA,TRUE,j,j,NA,NA,NA,NA,6,"13,5,4,15,8,9,10,2,1,14,12,11,6,3,7"
14089,commdev-image-keyboard-response,475,1077534,learnblock1,986,img/planet12_right.png,12,Community 3,NA,TRUE,j,j,NA,NA,NA,NA,6,"13,5,4,15,8,9,10,2,1,14,12,11,6,3,7"
14089,commdev-image-keyboard-response,476,1078786,learnblock1,730,img/planet8_right.png,8,Community 1,NA,TRUE,j,j,NA,NA,NA,NA,6,"13,5,4,15,8,9,10,2,1,14,12,11,6,3,7"
14089,commdev-image-keyboard-response,477,1080038,learnblock1,811,img/planet5_left.png,5,Community 1,NA,TRUE,f,f,NA,NA,NA,NA,6,"13,5,4,15,8,9,10,2,1,14,12,11,6,3,7"
14089,commdev-image-keyboard-response,478,1081290,learnblock1,1157,img/planet15_left.png,15,Community 1,NA,TRUE,f,f,NA,NA,NA,NA,6,"13,5,4,15,8,9,10,2,1,14,12,11,6,3,7"
14089,commdev-image-keyboard-response,479,1082542,learnblock1,800,img/planet5_left.png,5,Community 1,NA,TRUE,f,f,NA,NA,NA,NA,6,"13,5,4,15,8,9,10,2,1,14,12,11,6,3,7"
14089,commdev-image-keyboard-response,480,1083794,learnblock1,677,img/planet13_right.png,13,Community 1,NA,TRUE,j,j,NA,NA,NA,NA,6,"13,5,4,15,8,9,10,2,1,14,12,11,6,3,7"
14089,commdev-image-keyboard-response,481,1085046,learnblock1,null,img/planet4_right.png,4,Community 1,NA,FALSE,null,j,NA,NA,NA,NA,6,"13,5,4,15,8,9,10,2,1,14,12,11,6,3,7"
14089,commdev-image-keyboard-response,482,1086298,learnblock1,16,img/planet5_left.png,5,Community 1,NA,FALSE,j,f,NA,NA,NA,NA,6,"13,5,4,15,8,9,10,2,1,14,12,11,6,3,7"
14089,commdev-image-keyboard-response,483,1087551,learnblock1,1100,img/planet8_left.png,8,Community 1,NA,FALSE,j,f,NA,NA,NA,NA,6,"13,5,4,15,8,9,10,2,1,14,12,11,6,3,7"
14089,commdev-image-keyboard-response,484,1088804,learnblock1,1175,img/planet13_left.png,13,Community 1,NA,TRUE,f,f,NA,NA,NA,NA,6,"13,5,4,15,8,9,10,2,1,14,12,11,6,3,7"
14089,commdev-image-keyboard-response,485,1090057,learnblock1,838,img/planet15_right.png,15,Community 1,NA,TRUE,j,j,NA,NA,NA,NA,6,"13,5,4,15,8,9,10,2,1,14,12,11,6,3,7"
14089,commdev-image-keyboard-response,486,1091308,learnblock1,969,img/planet5_right.png,5,Community 1,NA,TRUE,j,j,NA,NA,NA,NA,6,"13,5,4,15,8,9,10,2,1,14,12,11,6,3,7"
14089,commdev-image-keyboard-response,487,1092561,learnblock1,900,img/planet8_right.png,8,Community 1,NA,TRUE,j,j,NA,NA,NA,NA,6,"13,5,4,15,8,9,10,2,1,14,12,11,6,3,7"
14089,commdev-image-keyboard-response,488,1093813,learnblock1,721,img/planet13_right.png,13,Community 1,NA,TRUE,j,j,NA,NA,NA,NA,6,"13,5,4,15,8,9,10,2,1,14,12,11,6,3,7"
14089,commdev-image-keyboard-response,489,1095066,learnblock1,589,img/planet15_left.png,15,Community 1,NA,TRUE,f,f,NA,NA,NA,NA,6,"13,5,4,15,8,9,10,2,1,14,12,11,6,3,7"
14089,commdev-image-keyboard-response,490,1096318,learnblock1,862,img/planet4_left.png,4,Community 1,NA,TRUE,f,f,NA,NA,NA,NA,6,"13,5,4,15,8,9,10,2,1,14,12,11,6,3,7"
14089,commdev-image-keyboard-response,491,1097570,learnblock1,930,img/planet5_right.png,5,Community 1,NA,TRUE,j,j,NA,NA,NA,NA,6,"13,5,4,15,8,9,10,2,1,14,12,11,6,3,7"
14089,commdev-image-keyboard-response,492,1098822,learnblock1,954,img/planet8_left.png,8,Community 1,NA,TRUE,f,f,NA,NA,NA,NA,6,"13,5,4,15,8,9,10,2,1,14,12,11,6,3,7"
14089,commdev-image-keyboard-response,493,1100074,learnblock1,663,img/planet13_right.png,13,Community 1,NA,TRUE,j,j,NA,NA,NA,NA,6,"13,5,4,15,8,9,10,2,1,14,12,11,6,3,7"
14089,commdev-image-keyboard-response,494,1101326,learnblock1,655,img/planet8_left.png,8,Community 1,NA,TRUE,f,f,NA,NA,NA,NA,6,"13,5,4,15,8,9,10,2,1,14,12,11,6,3,7"
14089,commdev-image-keyboard-response,495,1102578,learnblock1,746,img/planet5_right.png,5,Community 1,NA,TRUE,j,j,NA,NA,NA,NA,6,"13,5,4,15,8,9,10,2,1,14,12,11,6,3,7"
14089,commdev-image-keyboard-response,496,1103831,learnblock1,850,img/planet4_right.png,4,Community 1,NA,TRUE,j,j,NA,NA,NA,NA,6,"13,5,4,15,8,9,10,2,1,14,12,11,6,3,7"
14089,commdev-image-keyboard-response,497,1105082,learnblock1,892,img/planet13_right.png,13,Community 1,NA,TRUE,j,j,NA,NA,NA,NA,6,"13,5,4,15,8,9,10,2,1,14,12,11,6,3,7"
14089,commdev-image-keyboard-response,498,1106334,learnblock1,976,img/planet8_right.png,8,Community 1,NA,TRUE,j,j,NA,NA,NA,NA,6,"13,5,4,15,8,9,10,2,1,14,12,11,6,3,7"
14089,commdev-image-keyboard-response,499,1107587,learnblock1,734,img/planet5_right.png,5,Community 1,NA,TRUE,j,j,NA,NA,NA,NA,6,"13,5,4,15,8,9,10,2,1,14,12,11,6,3,7"
14089,commdev-image-keyboard-response,500,1108839,learnblock1,837,img/planet15_right.png,15,Community 1,NA,TRUE,j,j,NA,NA,NA,NA,6,"13,5,4,15,8,9,10,2,1,14,12,11,6,3,7"
14089,commdev-image-keyboard-response,501,1110092,learnblock1,1035,img/planet4_left.png,4,Community 1,NA,TRUE,f,f,NA,NA,NA,NA,6,"13,5,4,15,8,9,10,2,1,14,12,11,6,3,7"
14089,commdev-image-keyboard-response,502,1111343,learnblock1,794,img/planet13_right.png,13,Community 1,NA,TRUE,j,j,NA,NA,NA,NA,6,"13,5,4,15,8,9,10,2,1,14,12,11,6,3,7"
14089,commdev-image-keyboard-response,503,1112596,learnblock1,722,img/planet8_left.png,8,Community 1,NA,TRUE,f,f,NA,NA,NA,NA,6,"13,5,4,15,8,9,10,2,1,14,12,11,6,3,7"
14089,commdev-image-keyboard-response,504,1113848,learnblock1,817,img/planet13_left.png,13,Community 1,NA,TRUE,f,f,NA,NA,NA,NA,6,"13,5,4,15,8,9,10,2,1,14,12,11,6,3,7"
14089,commdev-image-keyboard-response,505,1115100,learnblock1,836,img/planet4_right.png,4,Community 1,NA,TRUE,j,j,NA,NA,NA,NA,6,"13,5,4,15,8,9,10,2,1,14,12,11,6,3,7"
14089,commdev-image-keyboard-response,506,1116352,learnblock1,604,img/planet15_right.png,15,Community 1,NA,FALSE,f,j,NA,NA,NA,NA,6,"13,5,4,15,8,9,10,2,1,14,12,11,6,3,7"
14089,commdev-image-keyboard-response,507,1117605,learnblock1,1104,img/planet4_right.png,4,Community 1,NA,TRUE,j,j,NA,NA,NA,NA,6,"13,5,4,15,8,9,10,2,1,14,12,11,6,3,7"
14089,commdev-image-keyboard-response,508,1118857,learnblock1,655,img/planet8_right.png,8,Community 1,NA,FALSE,f,j,NA,NA,NA,NA,6,"13,5,4,15,8,9,10,2,1,14,12,11,6,3,7"
14089,commdev-image-keyboard-response,509,1120110,learnblock1,1054,img/planet4_right.png,4,Community 1,NA,TRUE,j,j,NA,NA,NA,NA,6,"13,5,4,15,8,9,10,2,1,14,12,11,6,3,7"
14089,commdev-image-keyboard-response,510,1121362,learnblock1,1062,img/planet15_right.png,15,Community 1,NA,TRUE,j,j,NA,NA,NA,NA,6,"13,5,4,15,8,9,10,2,1,14,12,11,6,3,7"
14089,commdev-image-keyboard-response,511,1122615,learnblock1,821,img/planet9_right.png,9,Community 2,NA,TRUE,j,j,NA,NA,NA,NA,6,"13,5,4,15,8,9,10,2,1,14,12,11,6,3,7"
14089,commdev-image-keyboard-response,512,1123868,learnblock1,993,img/planet14_right.png,14,Community 2,NA,TRUE,j,j,NA,NA,NA,NA,6,"13,5,4,15,8,9,10,2,1,14,12,11,6,3,7"
14089,commdev-image-keyboard-response,513,1125120,learnblock1,694,img/planet9_right.png,9,Community 2,NA,TRUE,j,j,NA,NA,NA,NA,6,"13,5,4,15,8,9,10,2,1,14,12,11,6,3,7"
14089,commdev-image-keyboard-response,514,1126373,learnblock1,988,img/planet15_right.png,15,Community 1,NA,TRUE,j,j,NA,NA,NA,NA,6,"13,5,4,15,8,9,10,2,1,14,12,11,6,3,7"
14089,commdev-image-keyboard-response,515,1127625,learnblock1,843,img/planet5_right.png,5,Community 1,NA,TRUE,j,j,NA,NA,NA,NA,6,"13,5,4,15,8,9,10,2,1,14,12,11,6,3,7"
14089,commdev-image-keyboard-response,516,1128876,learnblock1,622,img/planet4_right.png,4,Community 1,NA,TRUE,j,j,NA,NA,NA,NA,6,"13,5,4,15,8,9,10,2,1,14,12,11,6,3,7"
14089,commdev-image-keyboard-response,517,1130129,learnblock1,446,img/planet13_right.png,13,Community 1,NA,TRUE,j,j,NA,NA,NA,NA,6,"13,5,4,15,8,9,10,2,1,14,12,11,6,3,7"
14089,commdev-image-keyboard-response,518,1131381,learnblock1,365,img/planet4_right.png,4,Community 1,NA,TRUE,j,j,NA,NA,NA,NA,6,"13,5,4,15,8,9,10,2,1,14,12,11,6,3,7"
14089,commdev-image-keyboard-response,522,2440398,learnblock2,756,img/planet6_right.png,6,Community 3,NA,TRUE,j,j,NA,NA,NA,NA,6,"13,5,4,15,8,9,10,2,1,14,12,11,6,3,7"
14089,commdev-image-keyboard-response,523,2441650,learnblock2,704,img/planet7_left.png,7,Community 3,NA,TRUE,f,f,NA,NA,NA,NA,6,"13,5,4,15,8,9,10,2,1,14,12,11,6,3,7"
14089,commdev-image-keyboard-response,524,2442902,learnblock2,912,img/planet12_left.png,12,Community 3,NA,TRUE,f,f,NA,NA,NA,NA,6,"13,5,4,15,8,9,10,2,1,14,12,11,6,3,7"
14089,commdev-image-keyboard-response,525,2444155,learnblock2,605,img/planet8_right.png,8,Community 1,NA,TRUE,j,j,NA,NA,NA,NA,6,"13,5,4,15,8,9,10,2,1,14,12,11,6,3,7"
14089,commdev-image-keyboard-response,526,2445407,learnblock2,642,img/planet13_left.png,13,Community 1,NA,TRUE,f,f,NA,NA,NA,NA,6,"13,5,4,15,8,9,10,2,1,14,12,11,6,3,7"
14089,commdev-image-keyboard-response,527,2446660,learnblock2,731,img/planet4_left.png,4,Community 1,NA,TRUE,f,f,NA,NA,NA,NA,6,"13,5,4,15,8,9,10,2,1,14,12,11,6,3,7"
14089,commdev-image-keyboard-response,528,2447911,learnblock2,647,img/planet8_left.png,8,Community 1,NA,TRUE,f,f,NA,NA,NA,NA,6,"13,5,4,15,8,9,10,2,1,14,12,11,6,3,7"
14089,commdev-image-keyboard-response,529,2449163,learnblock2,636,img/planet12_right.png,12,Community 3,NA,TRUE,j,j,NA,NA,NA,NA,6,"13,5,4,15,8,9,10,2,1,14,12,11,6,3,7"
14089,commdev-image-keyboard-response,530,2450415,learnblock2,503,img/planet7_right.png,7,Community 3,NA,TRUE,j,j,NA,NA,NA,NA,6,"13,5,4,15,8,9,10,2,1,14,12,11,6,3,7"
14089,commdev-image-keyboard-response,531,2451668,learnblock2,582,img/planet12_left.png,12,Community 3,NA,FALSE,j,f,NA,NA,NA,NA,6,"13,5,4,15,8,9,10,2,1,14,12,11,6,3,7"
14089,commdev-image-keyboard-response,532,2452919,learnblock2,901,img/planet3_left.png,3,Community 3,NA,TRUE,f,f,NA,NA,NA,NA,6,"13,5,4,15,8,9,10,2,1,14,12,11,6,3,7"
14089,commdev-image-keyboard-response,533,2454171,learnblock2,629,img/planet11_left.png,11,Community 3,NA,TRUE,f,f,NA,NA,NA,NA,6,"13,5,4,15,8,9,10,2,1,14,12,11,6,3,7"
14089,commdev-image-keyboard-response,534,2455422,learnblock2,545,img/planet6_right.png,6,Community 3,NA,TRUE,j,j,NA,NA,NA,NA,6,"13,5,4,15,8,9,10,2,1,14,12,11,6,3,7"
14089,commdev-image-keyboard-response,535,2456675,learnblock2,661,img/planet3_left.png,3,Community 3,NA,TRUE,f,f,NA,NA,NA,NA,6,"13,5,4,15,8,9,10,2,1,14,12,11,6,3,7"
14089,commdev-image-keyboard-response,536,2457926,learnblock2,588,img/planet6_left.png,6,Community 3,NA,TRUE,f,f,NA,NA,NA,NA,6,"13,5,4,15,8,9,10,2,1,14,12,11,6,3,7"
14089,commdev-image-keyboard-response,537,2459178,learnblock2,584,img/planet12_left.png,12,Community 3,NA,TRUE,f,f,NA,NA,NA,NA,6,"13,5,4,15,8,9,10,2,1,14,12,11,6,3,7"
14089,commdev-image-keyboard-response,538,2460430,learnblock2,656,img/planet6_left.png,6,Community 3,NA,TRUE,f,f,NA,NA,NA,NA,6,"13,5,4,15,8,9,10,2,1,14,12,11,6,3,7"
14089,commdev-image-keyboard-response,539,2461682,learnblock2,628,img/planet12_left.png,12,Community 3,NA,TRUE,f,f,NA,NA,NA,NA,6,"13,5,4,15,8,9,10,2,1,14,12,11,6,3,7"
14089,commdev-image-keyboard-response,540,2462933,learnblock2,754,img/planet3_left.png,3,Community 3,NA,TRUE,f,f,NA,NA,NA,NA,6,"13,5,4,15,8,9,10,2,1,14,12,11,6,3,7"
14089,commdev-image-keyboard-response,541,2464186,learnblock2,668,img/planet11_right.png,11,Community 3,NA,FALSE,f,j,NA,NA,NA,NA,6,"13,5,4,15,8,9,10,2,1,14,12,11,6,3,7"
14089,commdev-image-keyboard-response,542,2465438,learnblock2,569,img/planet2_right.png,2,Community 2,NA,TRUE,j,j,NA,NA,NA,NA,6,"13,5,4,15,8,9,10,2,1,14,12,11,6,3,7"
14089,commdev-image-keyboard-response,543,2466690,learnblock2,698,img/planet14_left.png,14,Community 2,NA,TRUE,f,f,NA,NA,NA,NA,6,"13,5,4,15,8,9,10,2,1,14,12,11,6,3,7"
14089,commdev-image-keyboard-response,544,2467942,learnblock2,1061,img/planet2_right.png,2,Community 2,NA,TRUE,j,j,NA,NA,NA,NA,6,"13,5,4,15,8,9,10,2,1,14,12,11,6,3,7"
14089,commdev-image-keyboard-response,545,2469194,learnblock2,1118,img/planet1_left.png,1,Community 2,NA,TRUE,f,f,NA,NA,NA,NA,6,"13,5,4,15,8,9,10,2,1,14,12,11,6,3,7"
14089,commdev-image-keyboard-response,546,2470445,learnblock2,null,img/planet9_left.png,9,Community 2,NA,FALSE,null,f,NA,NA,NA,NA,6,"13,5,4,15,8,9,10,2,1,14,12,11,6,3,7"
14089,commdev-image-keyboard-response,547,2471697,learnblock2,null,img/planet15_right.png,15,Community 1,NA,FALSE,null,j,NA,NA,NA,NA,6,"13,5,4,15,8,9,10,2,1,14,12,11,6,3,7"
14089,commdev-image-keyboard-response,548,2472949,learnblock2,null,img/planet4_left.png,4,Community 1,NA,FALSE,null,f,NA,NA,NA,NA,6,"13,5,4,15,8,9,10,2,1,14,12,11,6,3,7"
14089,commdev-image-keyboard-response,549,2474199,learnblock2,672,img/planet15_left.png,15,Community 1,NA,TRUE,f,f,NA,NA,NA,NA,6,"13,5,4,15,8,9,10,2,1,14,12,11,6,3,7"
14089,commdev-image-keyboard-response,550,2475451,learnblock2,726,img/planet4_left.png,4,Community 1,NA,TRUE,f,f,NA,NA,NA,NA,6,"13,5,4,15,8,9,10,2,1,14,12,11,6,3,7"
14089,commdev-image-keyboard-response,551,2476704,learnblock2,694,img/planet8_left.png,8,Community 1,NA,TRUE,f,f,NA,NA,NA,NA,6,"13,5,4,15,8,9,10,2,1,14,12,11,6,3,7"
14089,commdev-image-keyboard-response,552,2477955,learnblock2,515,img/planet4_right.png,4,Community 1,NA,TRUE,j,j,NA,NA,NA,NA,6,"13,5,4,15,8,9,10,2,1,14,12,11,6,3,7"
14089,commdev-image-keyboard-response,553,2479207,learnblock2,555,img/planet13_right.png,13,Community 1,NA,TRUE,j,j,NA,NA,NA,NA,6,"13,5,4,15,8,9,10,2,1,14,12,11,6,3,7"
14089,commdev-image-keyboard-response,554,2480459,learnblock2,620,img/planet8_left.png,8,Community 1,NA,TRUE,f,f,NA,NA,NA,NA,6,"13,5,4,15,8,9,10,2,1,14,12,11,6,3,7"
14089,commdev-image-keyboard-response,555,2481712,learnblock2,432,img/planet12_right.png,12,Community 3,NA,TRUE,j,j,NA,NA,NA,NA,6,"13,5,4,15,8,9,10,2,1,14,12,11,6,3,7"
14089,commdev-image-keyboard-response,556,2482963,learnblock2,498,img/planet6_left.png,6,Community 3,NA,TRUE,f,f,NA,NA,NA,NA,6,"13,5,4,15,8,9,10,2,1,14,12,11,6,3,7"
14089,commdev-image-keyboard-response,557,2484215,learnblock2,574,img/planet11_left.png,11,Community 3,NA,TRUE,f,f,NA,NA,NA,NA,6,"13,5,4,15,8,9,10,2,1,14,12,11,6,3,7"
14089,commdev-image-keyboard-response,558,2485467,learnblock2,819,img/planet6_left.png,6,Community 3,NA,TRUE,f,f,NA,NA,NA,NA,6,"13,5,4,15,8,9,10,2,1,14,12,11,6,3,7"
14089,commdev-image-keyboard-response,559,2486720,learnblock2,657,img/planet11_right.png,11,Community 3,NA,FALSE,f,j,NA,NA,NA,NA,6,"13,5,4,15,8,9,10,2,1,14,12,11,6,3,7"
14089,commdev-image-keyboard-response,560,2487972,learnblock2,583,img/planet7_right.png,7,Community 3,NA,FALSE,f,j,NA,NA,NA,NA,6,"13,5,4,15,8,9,10,2,1,14,12,11,6,3,7"
14089,commdev-image-keyboard-response,561,2489223,learnblock2,500,img/planet3_left.png,3,Community 3,NA,TRUE,f,f,NA,NA,NA,NA,6,"13,5,4,15,8,9,10,2,1,14,12,11,6,3,7"
14089,commdev-image-keyboard-response,562,2490475,learnblock2,480,img/planet12_right.png,12,Community 3,NA,FALSE,f,j,NA,NA,NA,NA,6,"13,5,4,15,8,9,10,2,1,14,12,11,6,3,7"
14089,commdev-image-keyboard-response,563,2491727,learnblock2,579,img/planet6_right.png,6,Community 3,NA,TRUE,j,j,NA,NA,NA,NA,6,"13,5,4,15,8,9,10,2,1,14,12,11,6,3,7"
14089,commdev-image-keyboard-response,564,2492979,learnblock2,495,img/planet3_left.png,3,Community 3,NA,FALSE,j,f,NA,NA,NA,NA,6,"13,5,4,15,8,9,10,2,1,14,12,11,6,3,7"
14089,commdev-image-keyboard-response,565,2494231,learnblock2,571,img/planet12_left.png,12,Community 3,NA,TRUE,f,f,NA,NA,NA,NA,6,"13,5,4,15,8,9,10,2,1,14,12,11,6,3,7"
14089,commdev-image-keyboard-response,566,2495483,learnblock2,541,img/planet3_left.png,3,Community 3,NA,TRUE,f,f,NA,NA,NA,NA,6,"13,5,4,15,8,9,10,2,1,14,12,11,6,3,7"
14089,commdev-image-keyboard-response,567,2496735,learnblock2,521,img/planet12_left.png,12,Community 3,NA,TRUE,f,f,NA,NA,NA,NA,6,"13,5,4,15,8,9,10,2,1,14,12,11,6,3,7"
14089,commdev-image-keyboard-response,568,2497986,learnblock2,605,img/planet3_left.png,3,Community 3,NA,TRUE,f,f,NA,NA,NA,NA,6,"13,5,4,15,8,9,10,2,1,14,12,11,6,3,7"
14089,commdev-image-keyboard-response,569,2499239,learnblock2,489,img/planet6_right.png,6,Community 3,NA,FALSE,f,j,NA,NA,NA,NA,6,"13,5,4,15,8,9,10,2,1,14,12,11,6,3,7"
14089,commdev-image-keyboard-response,570,2500492,learnblock2,566,img/planet12_right.png,12,Community 3,NA,TRUE,j,j,NA,NA,NA,NA,6,"13,5,4,15,8,9,10,2,1,14,12,11,6,3,7"
14089,commdev-image-keyboard-response,571,2501744,learnblock2,789,img/planet6_right.png,6,Community 3,NA,TRUE,j,j,NA,NA,NA,NA,6,"13,5,4,15,8,9,10,2,1,14,12,11,6,3,7"
14089,commdev-image-keyboard-response,572,2502995,learnblock2,606,img/planet3_right.png,3,Community 3,NA,TRUE,j,j,NA,NA,NA,NA,6,"13,5,4,15,8,9,10,2,1,14,12,11,6,3,7"
14089,commdev-image-keyboard-response,573,2504247,learnblock2,555,img/planet7_right.png,7,Community 3,NA,TRUE,j,j,NA,NA,NA,NA,6,"13,5,4,15,8,9,10,2,1,14,12,11,6,3,7"
14089,commdev-image-keyboard-response,574,2505499,learnblock2,488,img/planet3_right.png,3,Community 3,NA,TRUE,j,j,NA,NA,NA,NA,6,"13,5,4,15,8,9,10,2,1,14,12,11,6,3,7"
14089,commdev-image-keyboard-response,575,2506750,learnblock2,703,img/planet11_right.png,11,Community 3,NA,TRUE,j,j,NA,NA,NA,NA,6,"13,5,4,15,8,9,10,2,1,14,12,11,6,3,7"
14089,commdev-image-keyboard-response,576,2508002,learnblock2,444,img/planet3_left.png,3,Community 3,NA,FALSE,j,f,NA,NA,NA,NA,6,"13,5,4,15,8,9,10,2,1,14,12,11,6,3,7"
14089,commdev-image-keyboard-response,577,2509254,learnblock2,702,img/planet7_right.png,7,Community 3,NA,TRUE,j,j,NA,NA,NA,NA,6,"13,5,4,15,8,9,10,2,1,14,12,11,6,3,7"
14089,commdev-image-keyboard-response,578,2510506,learnblock2,641,img/planet11_right.png,11,Community 3,NA,TRUE,j,j,NA,NA,NA,NA,6,"13,5,4,15,8,9,10,2,1,14,12,11,6,3,7"
14089,commdev-image-keyboard-response,579,2511759,learnblock2,716,img/planet2_right.png,2,Community 2,NA,TRUE,j,j,NA,NA,NA,NA,6,"13,5,4,15,8,9,10,2,1,14,12,11,6,3,7"
14089,commdev-image-keyboard-response,580,2513010,learnblock2,502,img/planet10_left.png,10,Community 2,NA,TRUE,f,f,NA,NA,NA,NA,6,"13,5,4,15,8,9,10,2,1,14,12,11,6,3,7"
14089,commdev-image-keyboard-response,581,2514262,learnblock2,518,img/planet14_left.png,14,Community 2,NA,TRUE,f,f,NA,NA,NA,NA,6,"13,5,4,15,8,9,10,2,1,14,12,11,6,3,7"
14089,commdev-image-keyboard-response,582,2515515,learnblock2,546,img/planet1_right.png,1,Community 2,NA,FALSE,f,j,NA,NA,NA,NA,6,"13,5,4,15,8,9,10,2,1,14,12,11,6,3,7"
14089,commdev-image-keyboard-response,583,2516767,learnblock2,528,img/planet10_left.png,10,Community 2,NA,FALSE,j,f,NA,NA,NA,NA,6,"13,5,4,15,8,9,10,2,1,14,12,11,6,3,7"
14089,commdev-image-keyboard-response,584,2518019,learnblock2,787,img/planet14_left.png,14,Community 2,NA,FALSE,j,f,NA,NA,NA,NA,6,"13,5,4,15,8,9,10,2,1,14,12,11,6,3,7"
14089,commdev-image-keyboard-response,585,2519271,learnblock2,696,img/planet9_right.png,9,Community 2,NA,TRUE,j,j,NA,NA,NA,NA,6,"13,5,4,15,8,9,10,2,1,14,12,11,6,3,7"
14089,commdev-image-keyboard-response,586,2520524,learnblock2,598,img/planet1_right.png,1,Community 2,NA,TRUE,j,j,NA,NA,NA,NA,6,"13,5,4,15,8,9,10,2,1,14,12,11,6,3,7"
14089,commdev-image-keyboard-response,587,2521775,learnblock2,513,img/planet2_left.png,2,Community 2,NA,TRUE,f,f,NA,NA,NA,NA,6,"13,5,4,15,8,9,10,2,1,14,12,11,6,3,7"
14089,commdev-image-keyboard-response,588,2523026,learnblock2,607,img/planet11_left.png,11,Community 3,NA,TRUE,f,f,NA,NA,NA,NA,6,"13,5,4,15,8,9,10,2,1,14,12,11,6,3,7"
14089,commdev-image-keyboard-response,589,2524279,learnblock2,525,img/planet2_left.png,2,Community 2,NA,TRUE,f,f,NA,NA,NA,NA,6,"13,5,4,15,8,9,10,2,1,14,12,11,6,3,7"
14089,commdev-image-keyboard-response,590,2525532,learnblock2,484,img/planet11_left.png,11,Community 3,NA,TRUE,f,f,NA,NA,NA,NA,6,"13,5,4,15,8,9,10,2,1,14,12,11,6,3,7"
14089,commdev-image-keyboard-response,591,2526785,learnblock2,592,img/planet6_left.png,6,Community 3,NA,TRUE,f,f,NA,NA,NA,NA,6,"13,5,4,15,8,9,10,2,1,14,12,11,6,3,7"
14089,commdev-image-keyboard-response,592,2528037,learnblock2,641,img/planet12_right.png,12,Community 3,NA,TRUE,j,j,NA,NA,NA,NA,6,"13,5,4,15,8,9,10,2,1,14,12,11,6,3,7"
14089,commdev-image-keyboard-response,593,2529289,learnblock2,518,img/planet8_right.png,8,Community 1,NA,FALSE,f,j,NA,NA,NA,NA,6,"13,5,4,15,8,9,10,2,1,14,12,11,6,3,7"
14089,commdev-image-keyboard-response,594,2530540,learnblock2,608,img/planet13_left.png,13,Community 1,NA,TRUE,f,f,NA,NA,NA,NA,6,"13,5,4,15,8,9,10,2,1,14,12,11,6,3,7"
14089,commdev-image-keyboard-response,595,2531793,learnblock2,477,img/planet8_right.png,8,Community 1,NA,TRUE,j,j,NA,NA,NA,NA,6,"13,5,4,15,8,9,10,2,1,14,12,11,6,3,7"
14089,commdev-image-keyboard-response,596,2533045,learnblock2,470,img/planet13_left.png,13,Community 1,NA,TRUE,f,f,NA,NA,NA,NA,6,"13,5,4,15,8,9,10,2,1,14,12,11,6,3,7"
14089,commdev-image-keyboard-response,597,2534297,learnblock2,735,img/planet4_right.png,4,Community 1,NA,TRUE,j,j,NA,NA,NA,NA,6,"13,5,4,15,8,9,10,2,1,14,12,11,6,3,7"
14089,commdev-image-keyboard-response,598,2535550,learnblock2,570,img/planet13_left.png,13,Community 1,NA,TRUE,f,f,NA,NA,NA,NA,6,"13,5,4,15,8,9,10,2,1,14,12,11,6,3,7"
14089,commdev-image-keyboard-response,599,2536802,learnblock2,437,img/planet5_right.png,5,Community 1,NA,TRUE,j,j,NA,NA,NA,NA,6,"13,5,4,15,8,9,10,2,1,14,12,11,6,3,7"
14089,commdev-image-keyboard-response,600,2538054,learnblock2,666,img/planet4_right.png,4,Community 1,NA,TRUE,j,j,NA,NA,NA,NA,6,"13,5,4,15,8,9,10,2,1,14,12,11,6,3,7"
14089,commdev-image-keyboard-response,601,2539306,learnblock2,603,img/planet8_left.png,8,Community 1,NA,TRUE,f,f,NA,NA,NA,NA,6,"13,5,4,15,8,9,10,2,1,14,12,11,6,3,7"
14089,commdev-image-keyboard-response,602,2540558,learnblock2,671,img/planet4_left.png,4,Community 1,NA,FALSE,j,f,NA,NA,NA,NA,6,"13,5,4,15,8,9,10,2,1,14,12,11,6,3,7"
14089,commdev-image-keyboard-response,603,2541810,learnblock2,559,img/planet5_left.png,5,Community 1,NA,TRUE,f,f,NA,NA,NA,NA,6,"13,5,4,15,8,9,10,2,1,14,12,11,6,3,7"
14089,commdev-image-keyboard-response,604,2543063,learnblock2,702,img/planet15_right.png,15,Community 1,NA,TRUE,j,j,NA,NA,NA,NA,6,"13,5,4,15,8,9,10,2,1,14,12,11,6,3,7"
14089,commdev-image-keyboard-response,605,2544315,learnblock2,607,img/planet4_left.png,4,Community 1,NA,TRUE,f,f,NA,NA,NA,NA,6,"13,5,4,15,8,9,10,2,1,14,12,11,6,3,7"
14089,commdev-image-keyboard-response,606,2545568,learnblock2,510,img/planet13_left.png,13,Community 1,NA,FALSE,j,f,NA,NA,NA,NA,6,"13,5,4,15,8,9,10,2,1,14,12,11,6,3,7"
14089,commdev-image-keyboard-response,607,2546820,learnblock2,794,img/planet8_right.png,8,Community 1,NA,TRUE,j,j,NA,NA,NA,NA,6,"13,5,4,15,8,9,10,2,1,14,12,11,6,3,7"
14089,commdev-image-keyboard-response,608,2548073,learnblock2,689,img/planet12_left.png,12,Community 3,NA,TRUE,f,f,NA,NA,NA,NA,6,"13,5,4,15,8,9,10,2,1,14,12,11,6,3,7"
14089,commdev-image-keyboard-response,609,2549325,learnblock2,1235,img/planet6_right.png,6,Community 3,NA,TRUE,j,j,NA,NA,NA,NA,6,"13,5,4,15,8,9,10,2,1,14,12,11,6,3,7"
14089,commdev-image-keyboard-response,610,2550577,learnblock2,831,img/planet12_right.png,12,Community 3,NA,TRUE,j,j,NA,NA,NA,NA,6,"13,5,4,15,8,9,10,2,1,14,12,11,6,3,7"
14089,commdev-image-keyboard-response,611,2551830,learnblock2,891,img/planet7_right.png,7,Community 3,NA,TRUE,j,j,NA,NA,NA,NA,6,"13,5,4,15,8,9,10,2,1,14,12,11,6,3,7"
14089,commdev-image-keyboard-response,612,2553082,learnblock2,616,img/planet6_left.png,6,Community 3,NA,TRUE,f,f,NA,NA,NA,NA,6,"13,5,4,15,8,9,10,2,1,14,12,11,6,3,7"
14089,commdev-image-keyboard-response,613,2554335,learnblock2,1056,img/planet11_left.png,11,Community 3,NA,TRUE,f,f,NA,NA,NA,NA,6,"13,5,4,15,8,9,10,2,1,14,12,11,6,3,7"
14089,commdev-image-keyboard-response,614,2555586,learnblock2,959,img/planet7_right.png,7,Community 3,NA,FALSE,f,j,NA,NA,NA,NA,6,"13,5,4,15,8,9,10,2,1,14,12,11,6,3,7"
14089,commdev-image-keyboard-response,615,2556838,learnblock2,51,img/planet12_left.png,12,Community 3,NA,FALSE,j,f,NA,NA,NA,NA,6,"13,5,4,15,8,9,10,2,1,14,12,11,6,3,7"
14089,commdev-image-keyboard-response,616,2558091,learnblock2,722,img/planet6_left.png,6,Community 3,NA,TRUE,f,f,NA,NA,NA,NA,6,"13,5,4,15,8,9,10,2,1,14,12,11,6,3,7"
14089,commdev-image-keyboard-response,617,2559344,learnblock2,654,img/planet3_left.png,3,Community 3,NA,FALSE,j,f,NA,NA,NA,NA,6,"13,5,4,15,8,9,10,2,1,14,12,11,6,3,7"
14089,commdev-image-keyboard-response,618,2560596,learnblock2,640,img/planet12_left.png,12,Community 3,NA,TRUE,f,f,NA,NA,NA,NA,6,"13,5,4,15,8,9,10,2,1,14,12,11,6,3,7"
14089,commdev-image-keyboard-response,619,2561847,learnblock2,734,img/planet8_left.png,8,Community 1,NA,TRUE,f,f,NA,NA,NA,NA,6,"13,5,4,15,8,9,10,2,1,14,12,11,6,3,7"
14089,commdev-image-keyboard-response,620,2563099,learnblock2,922,img/planet12_right.png,12,Community 3,NA,TRUE,j,j,NA,NA,NA,NA,6,"13,5,4,15,8,9,10,2,1,14,12,11,6,3,7"
14089,commdev-image-keyboard-response,621,2564352,learnblock2,799,img/planet6_left.png,6,Community 3,NA,TRUE,f,f,NA,NA,NA,NA,6,"13,5,4,15,8,9,10,2,1,14,12,11,6,3,7"
14089,commdev-image-keyboard-response,622,2565605,learnblock2,687,img/planet11_right.png,11,Community 3,NA,TRUE,j,j,NA,NA,NA,NA,6,"13,5,4,15,8,9,10,2,1,14,12,11,6,3,7"
14089,commdev-image-keyboard-response,623,2566857,learnblock2,663,img/planet3_left.png,3,Community 3,NA,TRUE,f,f,NA,NA,NA,NA,6,"13,5,4,15,8,9,10,2,1,14,12,11,6,3,7"
14089,commdev-image-keyboard-response,624,2568110,learnblock2,711,img/planet7_right.png,7,Community 3,NA,TRUE,j,j,NA,NA,NA,NA,6,"13,5,4,15,8,9,10,2,1,14,12,11,6,3,7"
14089,commdev-image-keyboard-response,625,2569362,learnblock2,786,img/planet3_right.png,3,Community 3,NA,TRUE,j,j,NA,NA,NA,NA,6,"13,5,4,15,8,9,10,2,1,14,12,11,6,3,7"
14089,commdev-image-keyboard-response,626,2570615,learnblock2,740,img/planet12_right.png,12,Community 3,NA,TRUE,j,j,NA,NA,NA,NA,6,"13,5,4,15,8,9,10,2,1,14,12,11,6,3,7"
14089,commdev-image-keyboard-response,627,2571867,learnblock2,782,img/planet7_right.png,7,Community 3,NA,TRUE,j,j,NA,NA,NA,NA,6,"13,5,4,15,8,9,10,2,1,14,12,11,6,3,7"
14089,commdev-image-keyboard-response,628,2573119,learnblock2,943,img/planet3_left.png,3,Community 3,NA,FALSE,j,f,NA,NA,NA,NA,6,"13,5,4,15,8,9,10,2,1,14,12,11,6,3,7"
14089,commdev-image-keyboard-response,629,2574370,learnblock2,965,img/planet11_right.png,11,Community 3,NA,TRUE,j,j,NA,NA,NA,NA,6,"13,5,4,15,8,9,10,2,1,14,12,11,6,3,7"
14089,commdev-image-keyboard-response,630,2575622,learnblock2,953,img/planet2_left.png,2,Community 2,NA,FALSE,j,f,NA,NA,NA,NA,6,"13,5,4,15,8,9,10,2,1,14,12,11,6,3,7"
14089,commdev-image-keyboard-response,631,2576873,learnblock2,860,img/planet10_right.png,10,Community 2,NA,TRUE,j,j,NA,NA,NA,NA,6,"13,5,4,15,8,9,10,2,1,14,12,11,6,3,7"
14089,commdev-image-keyboard-response,632,2578126,learnblock2,644,img/planet2_left.png,2,Community 2,NA,TRUE,f,f,NA,NA,NA,NA,6,"13,5,4,15,8,9,10,2,1,14,12,11,6,3,7"
14089,commdev-image-keyboard-response,633,2579378,learnblock2,731,img/planet14_left.png,14,Community 2,NA,TRUE,f,f,NA,NA,NA,NA,6,"13,5,4,15,8,9,10,2,1,14,12,11,6,3,7"
14089,commdev-image-keyboard-response,634,2580629,learnblock2,693,img/planet1_left.png,1,Community 2,NA,TRUE,f,f,NA,NA,NA,NA,6,"13,5,4,15,8,9,10,2,1,14,12,11,6,3,7"
14089,commdev-image-keyboard-response,635,2581881,learnblock2,664,img/planet9_right.png,9,Community 2,NA,TRUE,j,j,NA,NA,NA,NA,6,"13,5,4,15,8,9,10,2,1,14,12,11,6,3,7"
14089,commdev-image-keyboard-response,636,2583132,learnblock2,532,img/planet15_right.png,15,Community 1,NA,FALSE,f,j,NA,NA,NA,NA,6,"13,5,4,15,8,9,10,2,1,14,12,11,6,3,7"
14089,commdev-image-keyboard-response,637,2584385,learnblock2,507,img/planet4_left.png,4,Community 1,NA,TRUE,f,f,NA,NA,NA,NA,6,"13,5,4,15,8,9,10,2,1,14,12,11,6,3,7"
14089,commdev-image-keyboard-response,638,2585638,learnblock2,659,img/planet5_left.png,5,Community 1,NA,TRUE,f,f,NA,NA,NA,NA,6,"13,5,4,15,8,9,10,2,1,14,12,11,6,3,7"
14089,commdev-image-keyboard-response,639,2586890,learnblock2,540,img/planet15_left.png,15,Community 1,NA,TRUE,f,f,NA,NA,NA,NA,6,"13,5,4,15,8,9,10,2,1,14,12,11,6,3,7"
14089,commdev-image-keyboard-response,640,2588143,learnblock2,569,img/planet5_right.png,5,Community 1,NA,TRUE,j,j,NA,NA,NA,NA,6,"13,5,4,15,8,9,10,2,1,14,12,11,6,3,7"
14089,commdev-image-keyboard-response,641,2589394,learnblock2,582,img/planet13_right.png,13,Community 1,NA,TRUE,j,j,NA,NA,NA,NA,6,"13,5,4,15,8,9,10,2,1,14,12,11,6,3,7"
14089,commdev-image-keyboard-response,642,2590647,learnblock2,1061,img/planet8_right.png,8,Community 1,NA,TRUE,j,j,NA,NA,NA,NA,6,"13,5,4,15,8,9,10,2,1,14,12,11,6,3,7"
14089,commdev-image-keyboard-response,643,2591899,learnblock2,798,img/planet12_left.png,12,Community 3,NA,TRUE,f,f,NA,NA,NA,NA,6,"13,5,4,15,8,9,10,2,1,14,12,11,6,3,7"
14089,commdev-image-keyboard-response,644,2593151,learnblock2,839,img/planet6_right.png,6,Community 3,NA,TRUE,j,j,NA,NA,NA,NA,6,"13,5,4,15,8,9,10,2,1,14,12,11,6,3,7"
14089,commdev-image-keyboard-response,645,2594404,learnblock2,669,img/planet3_left.png,3,Community 3,NA,TRUE,f,f,NA,NA,NA,NA,6,"13,5,4,15,8,9,10,2,1,14,12,11,6,3,7"
14089,commdev-image-keyboard-response,646,2595657,learnblock2,807,img/planet6_left.png,6,Community 3,NA,TRUE,f,f,NA,NA,NA,NA,6,"13,5,4,15,8,9,10,2,1,14,12,11,6,3,7"
14089,commdev-image-keyboard-response,647,2596908,learnblock2,650,img/planet11_left.png,11,Community 3,NA,TRUE,f,f,NA,NA,NA,NA,6,"13,5,4,15,8,9,10,2,1,14,12,11,6,3,7"
14089,commdev-image-keyboard-response,648,2598161,learnblock2,607,img/planet3_left.png,3,Community 3,NA,TRUE,f,f,NA,NA,NA,NA,6,"13,5,4,15,8,9,10,2,1,14,12,11,6,3,7"
14089,commdev-image-keyboard-response,649,2599413,learnblock2,492,img/planet12_left.png,12,Community 3,NA,TRUE,f,f,NA,NA,NA,NA,6,"13,5,4,15,8,9,10,2,1,14,12,11,6,3,7"
14089,commdev-image-keyboard-response,650,2600665,learnblock2,553,img/planet3_left.png,3,Community 3,NA,TRUE,f,f,NA,NA,NA,NA,6,"13,5,4,15,8,9,10,2,1,14,12,11,6,3,7"
14089,commdev-image-keyboard-response,651,2601918,learnblock2,412,img/planet12_right.png,12,Community 3,NA,FALSE,f,j,NA,NA,NA,NA,6,"13,5,4,15,8,9,10,2,1,14,12,11,6,3,7"
14089,commdev-image-keyboard-response,652,2603170,learnblock2,588,img/planet7_left.png,7,Community 3,NA,TRUE,f,f,NA,NA,NA,NA,6,"13,5,4,15,8,9,10,2,1,14,12,11,6,3,7"
14089,commdev-image-keyboard-response,653,2604422,learnblock2,571,img/planet6_left.png,6,Community 3,NA,FALSE,j,f,NA,NA,NA,NA,6,"13,5,4,15,8,9,10,2,1,14,12,11,6,3,7"
14089,commdev-image-keyboard-response,654,2605674,learnblock2,732,img/planet3_left.png,3,Community 3,NA,TRUE,f,f,NA,NA,NA,NA,6,"13,5,4,15,8,9,10,2,1,14,12,11,6,3,7"
14089,commdev-image-keyboard-response,655,2606927,learnblock2,527,img/planet6_left.png,6,Community 3,NA,TRUE,f,f,NA,NA,NA,NA,6,"13,5,4,15,8,9,10,2,1,14,12,11,6,3,7"
14089,commdev-image-keyboard-response,656,2608179,learnblock2,570,img/planet12_right.png,12,Community 3,NA,FALSE,f,j,NA,NA,NA,NA,6,"13,5,4,15,8,9,10,2,1,14,12,11,6,3,7"
14089,commdev-image-keyboard-response,657,2609431,learnblock2,621,img/planet3_left.png,3,Community 3,NA,TRUE,f,f,NA,NA,NA,NA,6,"13,5,4,15,8,9,10,2,1,14,12,11,6,3,7"
14089,commdev-image-keyboard-response,658,2610683,learnblock2,843,img/planet7_right.png,7,Community 3,NA,FALSE,f,j,NA,NA,NA,NA,6,"13,5,4,15,8,9,10,2,1,14,12,11,6,3,7"
14089,commdev-image-keyboard-response,659,2611936,learnblock2,60,img/planet6_left.png,6,Community 3,NA,FALSE,j,f,NA,NA,NA,NA,6,"13,5,4,15,8,9,10,2,1,14,12,11,6,3,7"
14089,commdev-image-keyboard-response,660,2613187,learnblock2,755,img/planet7_left.png,7,Community 3,NA,TRUE,f,f,NA,NA,NA,NA,6,"13,5,4,15,8,9,10,2,1,14,12,11,6,3,7"
14089,commdev-image-keyboard-response,661,2614439,learnblock2,729,img/planet12_left.png,12,Community 3,NA,TRUE,f,f,NA,NA,NA,NA,6,"13,5,4,15,8,9,10,2,1,14,12,11,6,3,7"
14089,commdev-image-keyboard-response,662,2615692,learnblock2,704,img/planet6_right.png,6,Community 3,NA,TRUE,j,j,NA,NA,NA,NA,6,"13,5,4,15,8,9,10,2,1,14,12,11,6,3,7"
14089,commdev-image-keyboard-response,663,2616944,learnblock2,586,img/planet7_left.png,7,Community 3,NA,TRUE,f,f,NA,NA,NA,NA,6,"13,5,4,15,8,9,10,2,1,14,12,11,6,3,7"
14089,commdev-image-keyboard-response,664,2618196,learnblock2,737,img/planet11_left.png,11,Community 3,NA,FALSE,j,f,NA,NA,NA,NA,6,"13,5,4,15,8,9,10,2,1,14,12,11,6,3,7"
14089,commdev-image-keyboard-response,665,2619447,learnblock2,26,img/planet2_right.png,2,Community 2,NA,FALSE,f,j,NA,NA,NA,NA,6,"13,5,4,15,8,9,10,2,1,14,12,11,6,3,7"
14089,commdev-image-keyboard-response,666,2620699,learnblock2,606,img/planet14_right.png,14,Community 2,NA,TRUE,j,j,NA,NA,NA,NA,6,"13,5,4,15,8,9,10,2,1,14,12,11,6,3,7"
14089,commdev-image-keyboard-response,667,2621951,learnblock2,616,img/planet9_right.png,9,Community 2,NA,TRUE,j,j,NA,NA,NA,NA,6,"13,5,4,15,8,9,10,2,1,14,12,11,6,3,7"
14089,commdev-image-keyboard-response,668,2623204,learnblock2,506,img/planet10_right.png,10,Community 2,NA,TRUE,j,j,NA,NA,NA,NA,6,"13,5,4,15,8,9,10,2,1,14,12,11,6,3,7"
14089,commdev-image-keyboard-response,669,2624456,learnblock2,463,img/planet14_left.png,14,Community 2,NA,FALSE,j,f,NA,NA,NA,NA,6,"13,5,4,15,8,9,10,2,1,14,12,11,6,3,7"
14089,commdev-image-keyboard-response,670,2625708,learnblock2,538,img/planet10_left.png,10,Community 2,NA,TRUE,f,f,NA,NA,NA,NA,6,"13,5,4,15,8,9,10,2,1,14,12,11,6,3,7"
14089,commdev-image-keyboard-response,671,2626961,learnblock2,441,img/planet2_left.png,2,Community 2,NA,TRUE,f,f,NA,NA,NA,NA,6,"13,5,4,15,8,9,10,2,1,14,12,11,6,3,7"
14089,commdev-image-keyboard-response,672,2628214,learnblock2,540,img/planet11_left.png,11,Community 3,NA,TRUE,f,f,NA,NA,NA,NA,6,"13,5,4,15,8,9,10,2,1,14,12,11,6,3,7"
14089,commdev-image-keyboard-response,673,2629465,learnblock2,492,img/planet2_right.png,2,Community 2,NA,TRUE,j,j,NA,NA,NA,NA,6,"13,5,4,15,8,9,10,2,1,14,12,11,6,3,7"
14089,commdev-image-keyboard-response,674,2630717,learnblock2,930,img/planet10_left.png,10,Community 2,NA,TRUE,f,f,NA,NA,NA,NA,6,"13,5,4,15,8,9,10,2,1,14,12,11,6,3,7"
14089,commdev-image-keyboard-response,675,2631969,learnblock2,756,img/planet1_left.png,1,Community 2,NA,FALSE,j,f,NA,NA,NA,NA,6,"13,5,4,15,8,9,10,2,1,14,12,11,6,3,7"
14089,commdev-image-keyboard-response,676,2633222,learnblock2,731,img/planet10_right.png,10,Community 2,NA,FALSE,f,j,NA,NA,NA,NA,6,"13,5,4,15,8,9,10,2,1,14,12,11,6,3,7"
14089,commdev-image-keyboard-response,677,2634474,learnblock2,814,img/planet2_right.png,2,Community 2,NA,TRUE,j,j,NA,NA,NA,NA,6,"13,5,4,15,8,9,10,2,1,14,12,11,6,3,7"
14089,commdev-image-keyboard-response,678,2635725,learnblock2,606,img/planet10_left.png,10,Community 2,NA,TRUE,f,f,NA,NA,NA,NA,6,"13,5,4,15,8,9,10,2,1,14,12,11,6,3,7"
14089,commdev-image-keyboard-response,679,2636977,learnblock2,522,img/planet2_left.png,2,Community 2,NA,TRUE,f,f,NA,NA,NA,NA,6,"13,5,4,15,8,9,10,2,1,14,12,11,6,3,7"
14089,commdev-image-keyboard-response,680,2638229,learnblock2,535,img/planet14_left.png,14,Community 2,NA,TRUE,f,f,NA,NA,NA,NA,6,"13,5,4,15,8,9,10,2,1,14,12,11,6,3,7"
14089,commdev-image-keyboard-response,681,2639481,learnblock2,481,img/planet2_right.png,2,Community 2,NA,FALSE,f,j,NA,NA,NA,NA,6,"13,5,4,15,8,9,10,2,1,14,12,11,6,3,7"
14089,commdev-image-keyboard-response,682,2640734,learnblock2,615,img/planet10_right.png,10,Community 2,NA,TRUE,j,j,NA,NA,NA,NA,6,"13,5,4,15,8,9,10,2,1,14,12,11,6,3,7"
14089,commdev-image-keyboard-response,683,2641986,learnblock2,505,img/planet14_right.png,14,Community 2,NA,TRUE,j,j,NA,NA,NA,NA,6,"13,5,4,15,8,9,10,2,1,14,12,11,6,3,7"
14089,commdev-image-keyboard-response,684,2643238,learnblock2,448,img/planet1_left.png,1,Community 2,NA,TRUE,f,f,NA,NA,NA,NA,6,"13,5,4,15,8,9,10,2,1,14,12,11,6,3,7"
14089,commdev-image-keyboard-response,685,2644490,learnblock2,578,img/planet14_right.png,14,Community 2,NA,FALSE,f,j,NA,NA,NA,NA,6,"13,5,4,15,8,9,10,2,1,14,12,11,6,3,7"
14089,commdev-image-keyboard-response,686,2645742,learnblock2,700,img/planet10_right.png,10,Community 2,NA,TRUE,j,j,NA,NA,NA,NA,6,"13,5,4,15,8,9,10,2,1,14,12,11,6,3,7"
14089,commdev-image-keyboard-response,687,2646994,learnblock2,550,img/planet1_left.png,1,Community 2,NA,TRUE,f,f,NA,NA,NA,NA,6,"13,5,4,15,8,9,10,2,1,14,12,11,6,3,7"
14089,commdev-image-keyboard-response,688,2648247,learnblock2,565,img/planet9_right.png,9,Community 2,NA,TRUE,j,j,NA,NA,NA,NA,6,"13,5,4,15,8,9,10,2,1,14,12,11,6,3,7"
14089,commdev-image-keyboard-response,689,2649498,learnblock2,654,img/planet14_right.png,14,Community 2,NA,TRUE,j,j,NA,NA,NA,NA,6,"13,5,4,15,8,9,10,2,1,14,12,11,6,3,7"
14089,commdev-image-keyboard-response,690,2650750,learnblock2,524,img/planet1_right.png,1,Community 2,NA,TRUE,j,j,NA,NA,NA,NA,6,"13,5,4,15,8,9,10,2,1,14,12,11,6,3,7"
14089,commdev-image-keyboard-response,691,2652002,learnblock2,463,img/planet2_right.png,2,Community 2,NA,TRUE,j,j,NA,NA,NA,NA,6,"13,5,4,15,8,9,10,2,1,14,12,11,6,3,7"
14089,commdev-image-keyboard-response,692,2653254,learnblock2,518,img/planet14_right.png,14,Community 2,NA,TRUE,j,j,NA,NA,NA,NA,6,"13,5,4,15,8,9,10,2,1,14,12,11,6,3,7"
14089,commdev-image-keyboard-response,693,2654507,learnblock2,523,img/planet10_right.png,10,Community 2,NA,TRUE,j,j,NA,NA,NA,NA,6,"13,5,4,15,8,9,10,2,1,14,12,11,6,3,7"
14089,commdev-image-keyboard-response,694,2655760,learnblock2,613,img/planet1_right.png,1,Community 2,NA,TRUE,j,j,NA,NA,NA,NA,6,"13,5,4,15,8,9,10,2,1,14,12,11,6,3,7"
14089,commdev-image-keyboard-response,695,2657011,learnblock2,471,img/planet10_left.png,10,Community 2,NA,FALSE,j,f,NA,NA,NA,NA,6,"13,5,4,15,8,9,10,2,1,14,12,11,6,3,7"
14089,commdev-image-keyboard-response,696,2658263,learnblock2,645,img/planet14_left.png,14,Community 2,NA,FALSE,j,f,NA,NA,NA,NA,6,"13,5,4,15,8,9,10,2,1,14,12,11,6,3,7"
14089,commdev-image-keyboard-response,697,2659515,learnblock2,864,img/planet10_right.png,10,Community 2,NA,TRUE,j,j,NA,NA,NA,NA,6,"13,5,4,15,8,9,10,2,1,14,12,11,6,3,7"
14089,commdev-image-keyboard-response,698,2660767,learnblock2,555,img/planet2_left.png,2,Community 2,NA,TRUE,f,f,NA,NA,NA,NA,6,"13,5,4,15,8,9,10,2,1,14,12,11,6,3,7"
14089,commdev-image-keyboard-response,699,2662020,learnblock2,669,img/planet1_left.png,1,Community 2,NA,TRUE,f,f,NA,NA,NA,NA,6,"13,5,4,15,8,9,10,2,1,14,12,11,6,3,7"
14089,commdev-image-keyboard-response,700,2663273,learnblock2,855,img/planet14_right.png,14,Community 2,NA,TRUE,j,j,NA,NA,NA,NA,6,"13,5,4,15,8,9,10,2,1,14,12,11,6,3,7"
14089,commdev-image-keyboard-response,701,2664525,learnblock2,1238,img/planet9_right.png,9,Community 2,NA,TRUE,j,j,NA,NA,NA,NA,6,"13,5,4,15,8,9,10,2,1,14,12,11,6,3,7"
14089,commdev-image-keyboard-response,702,2665777,learnblock2,920,img/planet15_left.png,15,Community 1,NA,TRUE,f,f,NA,NA,NA,NA,6,"13,5,4,15,8,9,10,2,1,14,12,11,6,3,7"
14089,commdev-image-keyboard-response,703,2667029,learnblock2,814,img/planet13_right.png,13,Community 1,NA,TRUE,j,j,NA,NA,NA,NA,6,"13,5,4,15,8,9,10,2,1,14,12,11,6,3,7"
14089,commdev-image-keyboard-response,704,2668281,learnblock2,688,img/planet8_right.png,8,Community 1,NA,TRUE,j,j,NA,NA,NA,NA,6,"13,5,4,15,8,9,10,2,1,14,12,11,6,3,7"
14089,commdev-image-keyboard-response,705,2669532,learnblock2,514,img/planet12_right.png,12,Community 3,NA,TRUE,j,j,NA,NA,NA,NA,6,"13,5,4,15,8,9,10,2,1,14,12,11,6,3,7"
14089,commdev-image-keyboard-response,706,2670785,learnblock2,264,img/planet3_right.png,3,Community 3,NA,TRUE,j,j,NA,NA,NA,NA,6,"13,5,4,15,8,9,10,2,1,14,12,11,6,3,7"
14089,commdev-image-keyboard-response,707,2672038,learnblock2,337,img/planet7_left.png,7,Community 3,NA,FALSE,j,f,NA,NA,NA,NA,6,"13,5,4,15,8,9,10,2,1,14,12,11,6,3,7"
14089,commdev-image-keyboard-response,708,2673291,learnblock2,475,img/planet6_left.png,6,Community 3,NA,TRUE,f,f,NA,NA,NA,NA,6,"13,5,4,15,8,9,10,2,1,14,12,11,6,3,7"
14089,commdev-image-keyboard-response,709,2674543,learnblock2,582,img/planet7_left.png,7,Community 3,NA,TRUE,f,f,NA,NA,NA,NA,6,"13,5,4,15,8,9,10,2,1,14,12,11,6,3,7"
14089,commdev-image-keyboard-response,710,2675795,learnblock2,549,img/planet11_right.png,11,Community 3,NA,FALSE,f,j,NA,NA,NA,NA,6,"13,5,4,15,8,9,10,2,1,14,12,11,6,3,7"
14089,commdev-image-keyboard-response,711,2677047,learnblock2,738,img/planet3_left.png,3,Community 3,NA,TRUE,f,f,NA,NA,NA,NA,6,"13,5,4,15,8,9,10,2,1,14,12,11,6,3,7"
14089,commdev-image-keyboard-response,712,2678298,learnblock2,610,img/planet12_left.png,12,Community 3,NA,TRUE,f,f,NA,NA,NA,NA,6,"13,5,4,15,8,9,10,2,1,14,12,11,6,3,7"
14089,commdev-image-keyboard-response,713,2679551,learnblock2,701,img/planet6_right.png,6,Community 3,NA,TRUE,j,j,NA,NA,NA,NA,6,"13,5,4,15,8,9,10,2,1,14,12,11,6,3,7"
14089,commdev-image-keyboard-response,714,2680804,learnblock2,728,img/planet11_right.png,11,Community 3,NA,TRUE,j,j,NA,NA,NA,NA,6,"13,5,4,15,8,9,10,2,1,14,12,11,6,3,7"
14089,commdev-image-keyboard-response,715,2682055,learnblock2,631,img/planet2_right.png,2,Community 2,NA,TRUE,j,j,NA,NA,NA,NA,6,"13,5,4,15,8,9,10,2,1,14,12,11,6,3,7"
14089,commdev-image-keyboard-response,716,2683306,learnblock2,614,img/planet10_right.png,10,Community 2,NA,TRUE,j,j,NA,NA,NA,NA,6,"13,5,4,15,8,9,10,2,1,14,12,11,6,3,7"
14089,commdev-image-keyboard-response,717,2684558,learnblock2,517,img/planet1_right.png,1,Community 2,NA,TRUE,j,j,NA,NA,NA,NA,6,"13,5,4,15,8,9,10,2,1,14,12,11,6,3,7"
14089,commdev-image-keyboard-response,718,2685810,learnblock2,579,img/planet14_right.png,14,Community 2,NA,TRUE,j,j,NA,NA,NA,NA,6,"13,5,4,15,8,9,10,2,1,14,12,11,6,3,7"
14089,commdev-image-keyboard-response,719,2687063,learnblock2,541,img/planet10_right.png,10,Community 2,NA,TRUE,j,j,NA,NA,NA,NA,6,"13,5,4,15,8,9,10,2,1,14,12,11,6,3,7"
14089,commdev-image-keyboard-response,720,2688314,learnblock2,466,img/planet1_left.png,1,Community 2,NA,TRUE,f,f,NA,NA,NA,NA,6,"13,5,4,15,8,9,10,2,1,14,12,11,6,3,7"
14089,commdev-image-keyboard-response,721,2689566,learnblock2,398,img/planet2_right.png,2,Community 2,NA,FALSE,f,j,NA,NA,NA,NA,6,"13,5,4,15,8,9,10,2,1,14,12,11,6,3,7"
14089,commdev-image-keyboard-response,722,2690818,learnblock2,614,img/planet11_right.png,11,Community 3,NA,FALSE,f,j,NA,NA,NA,NA,6,"13,5,4,15,8,9,10,2,1,14,12,11,6,3,7"
14089,commdev-image-keyboard-response,723,2692071,learnblock2,644,img/planet6_right.png,6,Community 3,NA,TRUE,j,j,NA,NA,NA,NA,6,"13,5,4,15,8,9,10,2,1,14,12,11,6,3,7"
14089,commdev-image-keyboard-response,724,2693323,learnblock2,648,img/planet12_right.png,12,Community 3,NA,TRUE,j,j,NA,NA,NA,NA,6,"13,5,4,15,8,9,10,2,1,14,12,11,6,3,7"
14089,commdev-image-keyboard-response,725,2694576,learnblock2,575,img/planet7_right.png,7,Community 3,NA,TRUE,j,j,NA,NA,NA,NA,6,"13,5,4,15,8,9,10,2,1,14,12,11,6,3,7"
14089,commdev-image-keyboard-response,726,2695829,learnblock2,657,img/planet11_left.png,11,Community 3,NA,TRUE,f,f,NA,NA,NA,NA,6,"13,5,4,15,8,9,10,2,1,14,12,11,6,3,7"
14089,commdev-image-keyboard-response,727,2697081,learnblock2,545,img/planet7_right.png,7,Community 3,NA,TRUE,j,j,NA,NA,NA,NA,6,"13,5,4,15,8,9,10,2,1,14,12,11,6,3,7"
14089,commdev-image-keyboard-response,728,2698332,learnblock2,870,img/planet3_left.png,3,Community 3,NA,TRUE,f,f,NA,NA,NA,NA,6,"13,5,4,15,8,9,10,2,1,14,12,11,6,3,7"
14089,commdev-image-keyboard-response,729,2699584,learnblock2,733,img/planet12_left.png,12,Community 3,NA,TRUE,f,f,NA,NA,NA,NA,6,"13,5,4,15,8,9,10,2,1,14,12,11,6,3,7"
14089,commdev-image-keyboard-response,730,2700836,learnblock2,657,img/planet6_left.png,6,Community 3,NA,TRUE,f,f,NA,NA,NA,NA,6,"13,5,4,15,8,9,10,2,1,14,12,11,6,3,7"
14089,commdev-image-keyboard-response,731,2702087,learnblock2,530,img/planet11_left.png,11,Community 3,NA,TRUE,f,f,NA,NA,NA,NA,6,"13,5,4,15,8,9,10,2,1,14,12,11,6,3,7"
14089,commdev-image-keyboard-response,732,2703340,learnblock2,423,img/planet3_right.png,3,Community 3,NA,TRUE,j,j,NA,NA,NA,NA,6,"13,5,4,15,8,9,10,2,1,14,12,11,6,3,7"
14089,commdev-image-keyboard-response,733,2704592,learnblock2,309,img/planet7_right.png,7,Community 3,NA,TRUE,j,j,NA,NA,NA,NA,6,"13,5,4,15,8,9,10,2,1,14,12,11,6,3,7"
14089,commdev-image-keyboard-response,734,2705845,learnblock2,398,img/planet12_left.png,12,Community 3,NA,TRUE,f,f,NA,NA,NA,NA,6,"13,5,4,15,8,9,10,2,1,14,12,11,6,3,7"
14089,commdev-image-keyboard-response,735,2707097,learnblock2,727,img/planet8_left.png,8,Community 1,NA,TRUE,f,f,NA,NA,NA,NA,6,"13,5,4,15,8,9,10,2,1,14,12,11,6,3,7"
14089,commdev-image-keyboard-response,736,2708348,learnblock2,597,img/planet13_left.png,13,Community 1,NA,TRUE,f,f,NA,NA,NA,NA,6,"13,5,4,15,8,9,10,2,1,14,12,11,6,3,7"
14089,commdev-image-keyboard-response,737,2709601,learnblock2,443,img/planet15_right.png,15,Community 1,NA,FALSE,f,j,NA,NA,NA,NA,6,"13,5,4,15,8,9,10,2,1,14,12,11,6,3,7"
14089,commdev-image-keyboard-response,738,2710854,learnblock2,519,img/planet5_right.png,5,Community 1,NA,TRUE,j,j,NA,NA,NA,NA,6,"13,5,4,15,8,9,10,2,1,14,12,11,6,3,7"
14089,commdev-image-keyboard-response,739,2712106,learnblock2,651,img/planet4_left.png,4,Community 1,NA,FALSE,j,f,NA,NA,NA,NA,6,"13,5,4,15,8,9,10,2,1,14,12,11,6,3,7"
14089,commdev-image-keyboard-response,740,2713358,learnblock2,682,img/planet8_left.png,8,Community 1,NA,FALSE,j,f,NA,NA,NA,NA,6,"13,5,4,15,8,9,10,2,1,14,12,11,6,3,7"
14089,commdev-image-keyboard-response,741,2714610,learnblock2,562,img/planet12_right.png,12,Community 3,NA,FALSE,f,j,NA,NA,NA,NA,6,"13,5,4,15,8,9,10,2,1,14,12,11,6,3,7"
14089,commdev-image-keyboard-response,742,2715863,learnblock2,837,img/planet3_right.png,3,Community 3,NA,FALSE,f,j,NA,NA,NA,NA,6,"13,5,4,15,8,9,10,2,1,14,12,11,6,3,7"
14089,commdev-image-keyboard-response,743,2717115,learnblock2,1201,img/planet7_left.png,7,Community 3,NA,TRUE,f,f,NA,NA,NA,NA,6,"13,5,4,15,8,9,10,2,1,14,12,11,6,3,7"
14089,commdev-image-keyboard-response,744,2718367,learnblock2,816,img/planet6_right.png,6,Community 3,NA,TRUE,j,j,NA,NA,NA,NA,6,"13,5,4,15,8,9,10,2,1,14,12,11,6,3,7"
14089,commdev-image-keyboard-response,745,2719619,learnblock2,675,img/planet11_right.png,11,Community 3,NA,TRUE,j,j,NA,NA,NA,NA,6,"13,5,4,15,8,9,10,2,1,14,12,11,6,3,7"
14089,commdev-image-keyboard-response,746,2720871,learnblock2,577,img/planet6_right.png,6,Community 3,NA,TRUE,j,j,NA,NA,NA,NA,6,"13,5,4,15,8,9,10,2,1,14,12,11,6,3,7"
14089,commdev-image-keyboard-response,747,2722123,learnblock2,469,img/planet11_right.png,11,Community 3,NA,TRUE,j,j,NA,NA,NA,NA,6,"13,5,4,15,8,9,10,2,1,14,12,11,6,3,7"
14089,commdev-image-keyboard-response,748,2723375,learnblock2,551,img/planet3_right.png,3,Community 3,NA,TRUE,j,j,NA,NA,NA,NA,6,"13,5,4,15,8,9,10,2,1,14,12,11,6,3,7"
14089,commdev-image-keyboard-response,749,2724627,learnblock2,508,img/planet11_left.png,11,Community 3,NA,FALSE,j,f,NA,NA,NA,NA,6,"13,5,4,15,8,9,10,2,1,14,12,11,6,3,7"
14089,commdev-image-keyboard-response,750,2725879,learnblock2,562,img/planet2_right.png,2,Community 2,NA,TRUE,j,j,NA,NA,NA,NA,6,"13,5,4,15,8,9,10,2,1,14,12,11,6,3,7"
14089,commdev-image-keyboard-response,751,2727130,learnblock2,873,img/planet10_right.png,10,Community 2,NA,FALSE,f,j,NA,NA,NA,NA,6,"13,5,4,15,8,9,10,2,1,14,12,11,6,3,7"
14089,commdev-image-keyboard-response,752,2728383,learnblock2,712,img/planet14_right.png,14,Community 2,NA,TRUE,j,j,NA,NA,NA,NA,6,"13,5,4,15,8,9,10,2,1,14,12,11,6,3,7"
14089,commdev-image-keyboard-response,753,2729636,learnblock2,525,img/planet9_right.png,9,Community 2,NA,TRUE,j,j,NA,NA,NA,NA,6,"13,5,4,15,8,9,10,2,1,14,12,11,6,3,7"
14089,commdev-image-keyboard-response,754,2730888,learnblock2,691,img/planet14_right.png,14,Community 2,NA,TRUE,j,j,NA,NA,NA,NA,6,"13,5,4,15,8,9,10,2,1,14,12,11,6,3,7"
14089,commdev-image-keyboard-response,755,2732140,learnblock2,584,img/planet1_left.png,1,Community 2,NA,FALSE,j,f,NA,NA,NA,NA,6,"13,5,4,15,8,9,10,2,1,14,12,11,6,3,7"
14089,commdev-image-keyboard-response,756,2733393,learnblock2,485,img/planet14_right.png,14,Community 2,NA,FALSE,f,j,NA,NA,NA,NA,6,"13,5,4,15,8,9,10,2,1,14,12,11,6,3,7"
14089,commdev-image-keyboard-response,757,2734645,learnblock2,674,img/planet10_right.png,10,Community 2,NA,TRUE,j,j,NA,NA,NA,NA,6,"13,5,4,15,8,9,10,2,1,14,12,11,6,3,7"
14089,commdev-image-keyboard-response,758,2735898,learnblock2,749,img/planet14_right.png,14,Community 2,NA,TRUE,j,j,NA,NA,NA,NA,6,"13,5,4,15,8,9,10,2,1,14,12,11,6,3,7"
14089,commdev-image-keyboard-response,759,2737150,learnblock2,537,img/planet1_left.png,1,Community 2,NA,FALSE,j,f,NA,NA,NA,NA,6,"13,5,4,15,8,9,10,2,1,14,12,11,6,3,7"
14089,commdev-image-keyboard-response,760,2738401,learnblock2,746,img/planet9_right.png,9,Community 2,NA,TRUE,j,j,NA,NA,NA,NA,6,"13,5,4,15,8,9,10,2,1,14,12,11,6,3,7"
14089,commdev-image-keyboard-response,761,2739653,learnblock2,1018,img/planet10_right.png,10,Community 2,NA,FALSE,f,j,NA,NA,NA,NA,6,"13,5,4,15,8,9,10,2,1,14,12,11,6,3,7"
14089,commdev-image-keyboard-response,762,2740906,learnblock2,869,img/planet2_right.png,2,Community 2,NA,TRUE,j,j,NA,NA,NA,NA,6,"13,5,4,15,8,9,10,2,1,14,12,11,6,3,7"
14089,commdev-image-keyboard-response,763,2742157,learnblock2,305,img/planet10_right.png,10,Community 2,NA,TRUE,j,j,NA,NA,NA,NA,6,"13,5,4,15,8,9,10,2,1,14,12,11,6,3,7"
14089,commdev-image-keyboard-response,764,2743409,learnblock2,658,img/planet9_right.png,9,Community 2,NA,TRUE,j,j,NA,NA,NA,NA,6,"13,5,4,15,8,9,10,2,1,14,12,11,6,3,7"
14089,commdev-image-keyboard-response,765,2744661,learnblock2,647,img/planet14_right.png,14,Community 2,NA,TRUE,j,j,NA,NA,NA,NA,6,"13,5,4,15,8,9,10,2,1,14,12,11,6,3,7"
14089,commdev-image-keyboard-response,766,2745912,learnblock2,626,img/planet9_left.png,9,Community 2,NA,TRUE,f,f,NA,NA,NA,NA,6,"13,5,4,15,8,9,10,2,1,14,12,11,6,3,7"
14089,commdev-image-keyboard-response,767,2747164,learnblock2,527,img/planet10_left.png,10,Community 2,NA,TRUE,f,f,NA,NA,NA,NA,6,"13,5,4,15,8,9,10,2,1,14,12,11,6,3,7"
14089,commdev-image-keyboard-response,768,2748416,learnblock2,550,img/planet9_left.png,9,Community 2,NA,TRUE,f,f,NA,NA,NA,NA,6,"13,5,4,15,8,9,10,2,1,14,12,11,6,3,7"
14089,commdev-image-keyboard-response,769,2749669,learnblock2,960,img/planet14_left.png,14,Community 2,NA,TRUE,f,f,NA,NA,NA,NA,6,"13,5,4,15,8,9,10,2,1,14,12,11,6,3,7"
14089,commdev-image-keyboard-response,770,2750920,learnblock2,585,img/planet2_left.png,2,Community 2,NA,TRUE,f,f,NA,NA,NA,NA,6,"13,5,4,15,8,9,10,2,1,14,12,11,6,3,7"
14089,commdev-image-keyboard-response,771,2752173,learnblock2,317,img/planet14_right.png,14,Community 2,NA,FALSE,f,j,NA,NA,NA,NA,6,"13,5,4,15,8,9,10,2,1,14,12,11,6,3,7"
14089,commdev-image-keyboard-response,772,2753426,learnblock2,669,img/planet2_left.png,2,Community 2,NA,TRUE,f,f,NA,NA,NA,NA,6,"13,5,4,15,8,9,10,2,1,14,12,11,6,3,7"
14089,commdev-image-keyboard-response,773,2754678,learnblock2,763,img/planet11_left.png,11,Community 3,NA,TRUE,f,f,NA,NA,NA,NA,6,"13,5,4,15,8,9,10,2,1,14,12,11,6,3,7"
14089,commdev-image-keyboard-response,774,2755929,learnblock2,728,img/planet2_left.png,2,Community 2,NA,TRUE,f,f,NA,NA,NA,NA,6,"13,5,4,15,8,9,10,2,1,14,12,11,6,3,7"
14089,commdev-image-keyboard-response,775,2757182,learnblock2,865,img/planet1_right.png,1,Community 2,NA,TRUE,j,j,NA,NA,NA,NA,6,"13,5,4,15,8,9,10,2,1,14,12,11,6,3,7"
14089,commdev-image-keyboard-response,776,2758433,learnblock2,914,img/planet14_right.png,14,Community 2,NA,TRUE,j,j,NA,NA,NA,NA,6,"13,5,4,15,8,9,10,2,1,14,12,11,6,3,7"
14089,commdev-image-keyboard-response,777,2759686,learnblock2,622,img/planet10_left.png,10,Community 2,NA,TRUE,f,f,NA,NA,NA,NA,6,"13,5,4,15,8,9,10,2,1,14,12,11,6,3,7"
14089,commdev-image-keyboard-response,778,2760938,learnblock2,938,img/planet2_left.png,2,Community 2,NA,TRUE,f,f,NA,NA,NA,NA,6,"13,5,4,15,8,9,10,2,1,14,12,11,6,3,7"
14089,commdev-image-keyboard-response,779,2762190,learnblock2,880,img/planet11_left.png,11,Community 3,NA,TRUE,f,f,NA,NA,NA,NA,6,"13,5,4,15,8,9,10,2,1,14,12,11,6,3,7"
14089,commdev-image-keyboard-response,780,2763443,learnblock2,683,img/planet3_left.png,3,Community 3,NA,TRUE,f,f,NA,NA,NA,NA,6,"13,5,4,15,8,9,10,2,1,14,12,11,6,3,7"
14089,commdev-image-keyboard-response,781,2764695,learnblock2,644,img/planet12_left.png,12,Community 3,NA,TRUE,f,f,NA,NA,NA,NA,6,"13,5,4,15,8,9,10,2,1,14,12,11,6,3,7"
14089,commdev-image-keyboard-response,782,2765948,learnblock2,693,img/planet8_right.png,8,Community 1,NA,TRUE,j,j,NA,NA,NA,NA,6,"13,5,4,15,8,9,10,2,1,14,12,11,6,3,7"
