subject_id,trial_type,trial_index,time_elapsed,block,rt,stimulus,planet,community,response,correct,key_press,learning_correct_response,parse,init_locations,final_locations,browser_interactions,num_comp,planet_map
14264,commdev-instructions,7,97035,NA,72460.10000014305,"<p>In this game, you are a scientist on board a space shuttle. </p><p> On each mission, you will visit planets all across the universe.</p><img src=""img/controlroom.jpg"" width=300vw>",NA,NA,NA,NA,NA,NA,NA,NA,NA,3,6,"9,3,8,7,13,4,1,14,5,15,11,10,12,6,2"
14264,commdev-instructions,8,100162,NA,755,"<p>Here are a few planets you might see:</p><img src=""img/practice1.png"" width=200vw><img src=""img/practice2.png"" width=200vw><img src=""img/practice3.png"" width=200vw>",NA,NA,NA,NA,NA,NA,NA,NA,NA,3,6,"9,3,8,7,13,4,1,14,5,15,11,10,12,6,2"
14264,commdev-instructions,9,108197,NA,630.9000000953674,"<p>Your job as a scientist is to record which direction the winds are moving on each planet.</p><p>There are two types of wind directions:</p><img src=""img/practice1_left.png"" width=200vw><img src=""img/practice1_right.png"" width=200vw>",NA,NA,NA,NA,NA,NA,NA,NA,NA,3,6,"9,3,8,7,13,4,1,14,5,15,11,10,12,6,2"
14264,commdev-instructions,10,114856,NA,1760.0999999046326,"<p>If the winds are moving this way, press the letter <strong>F</strong> on the keyboard as fast as you can.</p><img src=""img/leftwind.png"" width=250vw>",NA,NA,NA,NA,NA,NA,NA,NA,NA,3,6,"9,3,8,7,13,4,1,14,5,15,11,10,12,6,2"
14264,commdev-instructions,11,120818,NA,1461.2000000476837,"<p>If the winds are moving this way, press the letter <strong>J</strong> on the keyboard as fast as you can.</p><img src=""img/rightwind.png"" width=350vw>",NA,NA,NA,NA,NA,NA,NA,NA,NA,3,6,"9,3,8,7,13,4,1,14,5,15,11,10,12,6,2"
14264,commdev-instructions,12,127066,NA,1830.2999999523163,<p>You will have 1 second to respond. Try to respond before the time runs out!,NA,NA,NA,NA,NA,NA,NA,NA,NA,3,6,"9,3,8,7,13,4,1,14,5,15,11,10,12,6,2"
14264,commdev-instructions,13,133845,NA,1339.3999998569489,<p>The planets you will visit will look different from each other.</p><p>You should respond <strong>only</strong> based on wind direction.,NA,NA,NA,NA,NA,NA,NA,NA,NA,3,6,"9,3,8,7,13,4,1,14,5,15,11,10,12,6,2"
14264,commdev-instructions,14,141004,NA,1978.2999999523163,"<p> Ready to start the practice round? </p><p> Remember, press <strong>F</strong> or <strong>J</strong> depending on the wind direction.<br><img src=""img/categorize_planet_example.png""",NA,NA,NA,NA,NA,NA,NA,NA,NA,3,6,"9,3,8,7,13,4,1,14,5,15,11,10,12,6,2"
14264,commdev-instructions,26,208564,NA,1720.9000000953674,"<p>Great, now try a short practice mission. </p><p> This time, you will have 1 second to respond and you won't know whether you pressed the right or wrong key for each planet.</p>",NA,NA,NA,NA,NA,NA,NA,NA,NA,3,6,"9,3,8,7,13,4,1,14,5,15,11,10,12,6,2"
14264,commdev-image-keyboard-response,27,209937,practice,1020.7999999523163,img/practice2_right.png,NA,Number not found in mappings,NA,TRUE,j,j,NA,NA,NA,3,6,"9,3,8,7,13,4,1,14,5,15,11,10,12,6,2"
14264,commdev-image-keyboard-response,28,211193,practice,1015.6000001430511,img/practice3_left.png,NA,Number not found in mappings,NA,TRUE,f,f,NA,NA,NA,3,6,"9,3,8,7,13,4,1,14,5,15,11,10,12,6,2"
14264,commdev-image-keyboard-response,29,212455,practice,611.7000000476837,img/practice1_right.png,NA,Number not found in mappings,NA,TRUE,j,j,NA,NA,NA,3,6,"9,3,8,7,13,4,1,14,5,15,11,10,12,6,2"
14264,commdev-image-keyboard-response,30,213721,practice,591,img/practice4_right.png,NA,Number not found in mappings,NA,TRUE,j,j,NA,NA,NA,3,6,"9,3,8,7,13,4,1,14,5,15,11,10,12,6,2"
14264,commdev-image-keyboard-response,31,214974,practice,569.8999998569489,img/practice1_left.png,NA,Number not found in mappings,NA,TRUE,f,f,NA,NA,NA,3,6,"9,3,8,7,13,4,1,14,5,15,11,10,12,6,2"
14264,commdev-image-keyboard-response,32,216237,practice,630.1000001430511,img/practice4_right.png,NA,Number not found in mappings,NA,TRUE,j,j,NA,NA,NA,3,6,"9,3,8,7,13,4,1,14,5,15,11,10,12,6,2"
14264,commdev-image-keyboard-response,33,217505,practice,665.7999999523163,img/practice3_right.png,NA,Number not found in mappings,NA,TRUE,j,j,NA,NA,NA,3,6,"9,3,8,7,13,4,1,14,5,15,11,10,12,6,2"
14264,commdev-image-keyboard-response,34,218767,practice,796.1000001430511,img/practice2_left.png,NA,Number not found in mappings,NA,TRUE,f,f,NA,NA,NA,3,6,"9,3,8,7,13,4,1,14,5,15,11,10,12,6,2"
14264,commdev-instructions,35,229926,NA,1603.8000001907349,"<p>Great job with the practice round.</p><p>During real missions, you won't know whether you pressed the right or wrong key for each planet.</p><p>But between missions, we will tell you how you did overall.</p>",NA,NA,NA,NA,NA,NA,NA,NA,NA,3,6,"9,3,8,7,13,4,1,14,5,15,11,10,12,6,2"
14264,commdev-instructions,36,239364,NA,1181.5999999046326,<p>Try your best! You will be paid a bonus based on how many correct responses you make!</p><p>Responses that are too slow will not count toward your bonus.</p>,NA,NA,NA,NA,NA,NA,NA,NA,NA,3,6,"9,3,8,7,13,4,1,14,5,15,11,10,12,6,2"
14264,commdev-instructions,37,247836,NA,2273.2999999523163,"<p>You are almost ready to start the real game.</p><p> First, we are going to ask you some questions about how the game works.</p>",NA,NA,NA,NA,NA,NA,NA,NA,NA,3,6,"9,3,8,7,13,4,1,14,5,15,11,10,12,6,2"
14264,commdev-instructions,46,334659,NA,796.7999999523163,"<p> Nice work! It is now time to start the real game.<p></p>You will go on two missions to record wind directions of different planets.<p></p>Each one will take about 5 minutes. You will get to take a break between missions.<p><p> Remember, press <strong>F</strong> or <strong>J</strong> depending on the wind direction. Good luck!<br><img src=""img/categorize_planet_example.png""",NA,NA,NA,NA,NA,NA,NA,NA,NA,3,6,"9,3,8,7,13,4,1,14,5,15,11,10,12,6,2"
14264,commdev-image-keyboard-response,48,340544,learnblock1,1007.6000001430511,img/planet11_right.png,11,Community 3,NA,TRUE,j,j,NA,NA,NA,3,6,"9,3,8,7,13,4,1,14,5,15,11,10,12,6,2"
14264,commdev-image-keyboard-response,49,341811,learnblock1,865.5,img/planet12_right.png,12,Community 3,NA,TRUE,j,j,NA,NA,NA,3,6,"9,3,8,7,13,4,1,14,5,15,11,10,12,6,2"
14264,commdev-image-keyboard-response,50,343064,learnblock1,841.0999999046326,img/planet11_left.png,11,Community 3,NA,TRUE,f,f,NA,NA,NA,3,6,"9,3,8,7,13,4,1,14,5,15,11,10,12,6,2"
14264,commdev-image-keyboard-response,51,344324,learnblock1,850,img/planet12_right.png,12,Community 3,NA,TRUE,j,j,NA,NA,NA,3,6,"9,3,8,7,13,4,1,14,5,15,11,10,12,6,2"
14264,commdev-image-keyboard-response,52,345590,learnblock1,737.3000001907349,img/planet11_right.png,11,Community 3,NA,TRUE,j,j,NA,NA,NA,3,6,"9,3,8,7,13,4,1,14,5,15,11,10,12,6,2"
14264,commdev-image-keyboard-response,53,346856,learnblock1,679.1000001430511,img/planet12_left.png,12,Community 3,NA,TRUE,f,f,NA,NA,NA,3,6,"9,3,8,7,13,4,1,14,5,15,11,10,12,6,2"
14264,commdev-image-keyboard-response,54,348122,learnblock1,629.9000000953674,img/planet11_right.png,11,Community 3,NA,TRUE,j,j,NA,NA,NA,3,6,"9,3,8,7,13,4,1,14,5,15,11,10,12,6,2"
14264,commdev-image-keyboard-response,55,349386,learnblock1,1015.8000001907349,img/planet2_right.png,2,Community 3,NA,TRUE,j,j,NA,NA,NA,3,6,"9,3,8,7,13,4,1,14,5,15,11,10,12,6,2"
14264,commdev-image-keyboard-response,56,350652,learnblock1,979.8999998569489,img/planet10_right.png,10,Community 3,NA,TRUE,j,j,NA,NA,NA,3,6,"9,3,8,7,13,4,1,14,5,15,11,10,12,6,2"
14264,commdev-image-keyboard-response,57,351906,learnblock1,997.7999999523163,img/planet6_right.png,6,Community 3,NA,TRUE,j,j,NA,NA,NA,3,6,"9,3,8,7,13,4,1,14,5,15,11,10,12,6,2"
14264,commdev-image-keyboard-response,58,353167,learnblock1,663,img/planet10_right.png,10,Community 3,NA,TRUE,j,j,NA,NA,NA,3,6,"9,3,8,7,13,4,1,14,5,15,11,10,12,6,2"
14264,commdev-image-keyboard-response,59,354432,learnblock1,1177.2000000476837,img/planet14_right.png,14,Community 2,NA,TRUE,j,j,NA,NA,NA,3,6,"9,3,8,7,13,4,1,14,5,15,11,10,12,6,2"
14264,commdev-image-keyboard-response,60,355699,learnblock1,1064.5999999046326,img/planet1_right.png,1,Community 2,NA,TRUE,j,j,NA,NA,NA,3,6,"9,3,8,7,13,4,1,14,5,15,11,10,12,6,2"
14264,commdev-image-keyboard-response,61,356961,learnblock1,881.1000001430511,img/planet5_left.png,5,Community 2,NA,TRUE,f,f,NA,NA,NA,3,6,"9,3,8,7,13,4,1,14,5,15,11,10,12,6,2"
14264,commdev-image-keyboard-response,62,358214,learnblock1,743.2999999523163,img/planet14_left.png,14,Community 2,NA,TRUE,f,f,NA,NA,NA,3,6,"9,3,8,7,13,4,1,14,5,15,11,10,12,6,2"
14264,commdev-image-keyboard-response,63,359477,learnblock1,681.5,img/planet1_right.png,1,Community 2,NA,TRUE,j,j,NA,NA,NA,3,6,"9,3,8,7,13,4,1,14,5,15,11,10,12,6,2"
14264,commdev-image-keyboard-response,64,360742,learnblock1,715.5,img/planet4_left.png,4,Community 2,NA,TRUE,f,f,NA,NA,NA,3,6,"9,3,8,7,13,4,1,14,5,15,11,10,12,6,2"
14264,commdev-image-keyboard-response,65,362009,learnblock1,987.0999999046326,img/planet15_right.png,15,Community 2,NA,TRUE,j,j,NA,NA,NA,3,6,"9,3,8,7,13,4,1,14,5,15,11,10,12,6,2"
14264,commdev-image-keyboard-response,66,363270,learnblock1,745.2999999523163,img/planet4_left.png,4,Community 2,NA,TRUE,f,f,NA,NA,NA,3,6,"9,3,8,7,13,4,1,14,5,15,11,10,12,6,2"
14264,commdev-image-keyboard-response,67,364523,learnblock1,714.1000001430511,img/planet1_right.png,1,Community 2,NA,TRUE,j,j,NA,NA,NA,3,6,"9,3,8,7,13,4,1,14,5,15,11,10,12,6,2"
14264,commdev-image-keyboard-response,68,365774,learnblock1,1073.2999999523163,img/planet14_left.png,14,Community 2,NA,TRUE,f,f,NA,NA,NA,3,6,"9,3,8,7,13,4,1,14,5,15,11,10,12,6,2"
14264,commdev-image-keyboard-response,69,367025,learnblock1,830.7999999523163,img/planet10_left.png,10,Community 3,NA,TRUE,f,f,NA,NA,NA,3,6,"9,3,8,7,13,4,1,14,5,15,11,10,12,6,2"
14264,commdev-image-keyboard-response,70,368277,learnblock1,586.5,img/planet12_right.png,12,Community 3,NA,TRUE,j,j,NA,NA,NA,3,6,"9,3,8,7,13,4,1,14,5,15,11,10,12,6,2"
14264,commdev-image-keyboard-response,71,369527,learnblock1,712.7999999523163,img/planet10_right.png,10,Community 3,NA,TRUE,j,j,NA,NA,NA,3,6,"9,3,8,7,13,4,1,14,5,15,11,10,12,6,2"
14264,commdev-image-keyboard-response,72,370791,learnblock1,865.2999999523163,img/planet6_left.png,6,Community 3,NA,TRUE,f,f,NA,NA,NA,3,6,"9,3,8,7,13,4,1,14,5,15,11,10,12,6,2"
14264,commdev-image-keyboard-response,73,372043,learnblock1,632.7999999523163,img/planet11_right.png,11,Community 3,NA,TRUE,j,j,NA,NA,NA,3,6,"9,3,8,7,13,4,1,14,5,15,11,10,12,6,2"
14264,commdev-image-keyboard-response,74,373294,learnblock1,573.1000001430511,img/planet12_left.png,12,Community 3,NA,TRUE,f,f,NA,NA,NA,3,6,"9,3,8,7,13,4,1,14,5,15,11,10,12,6,2"
14264,commdev-image-keyboard-response,75,374545,learnblock1,805,img/planet6_left.png,6,Community 3,NA,TRUE,f,f,NA,NA,NA,3,6,"9,3,8,7,13,4,1,14,5,15,11,10,12,6,2"
14264,commdev-image-keyboard-response,76,375797,learnblock1,709.4000000953674,img/planet12_right.png,12,Community 3,NA,TRUE,j,j,NA,NA,NA,3,6,"9,3,8,7,13,4,1,14,5,15,11,10,12,6,2"
14264,commdev-image-keyboard-response,77,377048,learnblock1,1056.2999999523163,img/planet11_right.png,11,Community 3,NA,TRUE,j,j,NA,NA,NA,3,6,"9,3,8,7,13,4,1,14,5,15,11,10,12,6,2"
14264,commdev-image-keyboard-response,78,378299,learnblock1,1109.2999999523163,img/planet12_right.png,12,Community 3,NA,TRUE,j,j,NA,NA,NA,3,6,"9,3,8,7,13,4,1,14,5,15,11,10,12,6,2"
14264,commdev-image-keyboard-response,79,379551,learnblock1,837.2000000476837,img/planet2_right.png,2,Community 3,NA,TRUE,j,j,NA,NA,NA,3,6,"9,3,8,7,13,4,1,14,5,15,11,10,12,6,2"
14264,commdev-image-keyboard-response,80,380802,learnblock1,888.3000001907349,img/planet6_right.png,6,Community 3,NA,TRUE,j,j,NA,NA,NA,3,6,"9,3,8,7,13,4,1,14,5,15,11,10,12,6,2"
14264,commdev-image-keyboard-response,81,382055,learnblock1,897.2000000476837,img/planet2_left.png,2,Community 3,NA,TRUE,f,f,NA,NA,NA,3,6,"9,3,8,7,13,4,1,14,5,15,11,10,12,6,2"
14264,commdev-image-keyboard-response,82,383307,learnblock1,750.7000000476837,img/planet11_right.png,11,Community 3,NA,TRUE,j,j,NA,NA,NA,3,6,"9,3,8,7,13,4,1,14,5,15,11,10,12,6,2"
14264,commdev-image-keyboard-response,83,384558,learnblock1,866.0999999046326,img/planet13_right.png,13,Community 1,NA,TRUE,j,j,NA,NA,NA,3,6,"9,3,8,7,13,4,1,14,5,15,11,10,12,6,2"
14264,commdev-image-keyboard-response,84,385809,learnblock1,718.8999998569489,img/planet3_left.png,3,Community 1,NA,TRUE,f,f,NA,NA,NA,3,6,"9,3,8,7,13,4,1,14,5,15,11,10,12,6,2"
14264,commdev-image-keyboard-response,85,387060,learnblock1,794.1999998092651,img/planet7_right.png,7,Community 1,NA,TRUE,j,j,NA,NA,NA,3,6,"9,3,8,7,13,4,1,14,5,15,11,10,12,6,2"
14264,commdev-image-keyboard-response,86,388313,learnblock1,889.6000001430511,img/planet4_left.png,4,Community 2,NA,TRUE,f,f,NA,NA,NA,3,6,"9,3,8,7,13,4,1,14,5,15,11,10,12,6,2"
14264,commdev-image-keyboard-response,87,389564,learnblock1,753.7999999523163,img/planet15_right.png,15,Community 2,NA,TRUE,j,j,NA,NA,NA,3,6,"9,3,8,7,13,4,1,14,5,15,11,10,12,6,2"
14264,commdev-image-keyboard-response,88,390815,learnblock1,1210,img/planet4_right.png,4,Community 2,NA,TRUE,j,j,NA,NA,NA,3,6,"9,3,8,7,13,4,1,14,5,15,11,10,12,6,2"
14264,commdev-image-keyboard-response,89,392068,learnblock1,711.0999999046326,img/planet15_left.png,15,Community 2,NA,TRUE,f,f,NA,NA,NA,3,6,"9,3,8,7,13,4,1,14,5,15,11,10,12,6,2"
14264,commdev-image-keyboard-response,90,393320,learnblock1,804.7000000476837,img/planet1_left.png,1,Community 2,NA,TRUE,f,f,NA,NA,NA,3,6,"9,3,8,7,13,4,1,14,5,15,11,10,12,6,2"
14264,commdev-image-keyboard-response,91,394572,learnblock1,855.1000001430511,img/planet15_left.png,15,Community 2,NA,TRUE,f,f,NA,NA,NA,3,6,"9,3,8,7,13,4,1,14,5,15,11,10,12,6,2"
14264,commdev-image-keyboard-response,92,395823,learnblock1,698.3000001907349,img/planet4_left.png,4,Community 2,NA,TRUE,f,f,NA,NA,NA,3,6,"9,3,8,7,13,4,1,14,5,15,11,10,12,6,2"
14264,commdev-image-keyboard-response,93,397075,learnblock1,728.0999999046326,img/planet15_right.png,15,Community 2,NA,TRUE,j,j,NA,NA,NA,3,6,"9,3,8,7,13,4,1,14,5,15,11,10,12,6,2"
14264,commdev-image-keyboard-response,94,398327,learnblock1,1011.2000000476837,img/planet4_right.png,4,Community 2,NA,TRUE,j,j,NA,NA,NA,3,6,"9,3,8,7,13,4,1,14,5,15,11,10,12,6,2"
14264,commdev-image-keyboard-response,95,399579,learnblock1,663.9000000953674,img/planet15_left.png,15,Community 2,NA,TRUE,f,f,NA,NA,NA,3,6,"9,3,8,7,13,4,1,14,5,15,11,10,12,6,2"
14264,commdev-image-keyboard-response,96,400832,learnblock1,742.4000000953674,img/planet14_left.png,14,Community 2,NA,TRUE,f,f,NA,NA,NA,3,6,"9,3,8,7,13,4,1,14,5,15,11,10,12,6,2"
14264,commdev-image-keyboard-response,97,402084,learnblock1,944.7999999523163,img/planet1_right.png,1,Community 2,NA,TRUE,j,j,NA,NA,NA,3,6,"9,3,8,7,13,4,1,14,5,15,11,10,12,6,2"
14264,commdev-image-keyboard-response,98,403336,learnblock1,1139.2999999523163,img/planet14_left.png,14,Community 2,NA,FALSE,j,f,NA,NA,NA,3,6,"9,3,8,7,13,4,1,14,5,15,11,10,12,6,2"
14264,commdev-image-keyboard-response,99,404587,learnblock1,1206.7000000476837,img/planet5_right.png,5,Community 2,NA,TRUE,j,j,NA,NA,NA,3,6,"9,3,8,7,13,4,1,14,5,15,11,10,12,6,2"
14264,commdev-image-keyboard-response,100,405839,learnblock1,869.9000000953674,img/planet4_left.png,4,Community 2,NA,TRUE,f,f,NA,NA,NA,3,6,"9,3,8,7,13,4,1,14,5,15,11,10,12,6,2"
14264,commdev-image-keyboard-response,101,407090,learnblock1,766.8999998569489,img/planet5_left.png,5,Community 2,NA,TRUE,f,f,NA,NA,NA,3,6,"9,3,8,7,13,4,1,14,5,15,11,10,12,6,2"
14264,commdev-image-keyboard-response,102,408341,learnblock1,686.9000000953674,img/planet14_left.png,14,Community 2,NA,TRUE,f,f,NA,NA,NA,3,6,"9,3,8,7,13,4,1,14,5,15,11,10,12,6,2"
14264,commdev-image-keyboard-response,103,409592,learnblock1,681.7999999523163,img/planet15_left.png,15,Community 2,NA,TRUE,f,f,NA,NA,NA,3,6,"9,3,8,7,13,4,1,14,5,15,11,10,12,6,2"
14264,commdev-image-keyboard-response,104,410845,learnblock1,735.7999999523163,img/planet4_right.png,4,Community 2,NA,TRUE,j,j,NA,NA,NA,3,6,"9,3,8,7,13,4,1,14,5,15,11,10,12,6,2"
14264,commdev-image-keyboard-response,105,412096,learnblock1,836,img/planet1_left.png,1,Community 2,NA,TRUE,f,f,NA,NA,NA,3,6,"9,3,8,7,13,4,1,14,5,15,11,10,12,6,2"
14264,commdev-image-keyboard-response,106,413347,learnblock1,661.2000000476837,img/planet5_left.png,5,Community 2,NA,FALSE,j,f,NA,NA,NA,3,6,"9,3,8,7,13,4,1,14,5,15,11,10,12,6,2"
14264,commdev-image-keyboard-response,107,414599,learnblock1,707.6000001430511,img/planet15_right.png,15,Community 2,NA,TRUE,j,j,NA,NA,NA,3,6,"9,3,8,7,13,4,1,14,5,15,11,10,12,6,2"
14264,commdev-image-keyboard-response,108,415851,learnblock1,717,img/planet14_left.png,14,Community 2,NA,TRUE,f,f,NA,NA,NA,3,6,"9,3,8,7,13,4,1,14,5,15,11,10,12,6,2"
14264,commdev-image-keyboard-response,109,417103,learnblock1,993.2999999523163,img/planet1_left.png,1,Community 2,NA,TRUE,f,f,NA,NA,NA,3,6,"9,3,8,7,13,4,1,14,5,15,11,10,12,6,2"
14264,commdev-image-keyboard-response,110,418354,learnblock1,659.5,img/planet4_right.png,4,Community 2,NA,TRUE,j,j,NA,NA,NA,3,6,"9,3,8,7,13,4,1,14,5,15,11,10,12,6,2"
14264,commdev-image-keyboard-response,111,419606,learnblock1,600.5,img/planet5_left.png,5,Community 2,NA,TRUE,f,f,NA,NA,NA,3,6,"9,3,8,7,13,4,1,14,5,15,11,10,12,6,2"
14264,commdev-image-keyboard-response,112,420858,learnblock1,506.5,img/planet1_right.png,1,Community 2,NA,TRUE,j,j,NA,NA,NA,3,6,"9,3,8,7,13,4,1,14,5,15,11,10,12,6,2"
14264,commdev-image-keyboard-response,113,422109,learnblock1,674.0999999046326,img/planet5_left.png,5,Community 2,NA,FALSE,j,f,NA,NA,NA,3,6,"9,3,8,7,13,4,1,14,5,15,11,10,12,6,2"
14264,commdev-image-keyboard-response,114,423360,learnblock1,1061.5,img/planet15_left.png,15,Community 2,NA,TRUE,f,f,NA,NA,NA,3,6,"9,3,8,7,13,4,1,14,5,15,11,10,12,6,2"
14264,commdev-image-keyboard-response,115,424612,learnblock1,791,img/planet4_right.png,4,Community 2,NA,TRUE,j,j,NA,NA,NA,3,6,"9,3,8,7,13,4,1,14,5,15,11,10,12,6,2"
14264,commdev-image-keyboard-response,116,425864,learnblock1,1217.2999999523163,img/planet5_right.png,5,Community 2,NA,TRUE,j,j,NA,NA,NA,3,6,"9,3,8,7,13,4,1,14,5,15,11,10,12,6,2"
14264,commdev-image-keyboard-response,117,427116,learnblock1,980.4000000953674,img/planet1_right.png,1,Community 2,NA,TRUE,j,j,NA,NA,NA,3,6,"9,3,8,7,13,4,1,14,5,15,11,10,12,6,2"
14264,commdev-image-keyboard-response,118,428367,learnblock1,690.7999999523163,img/planet5_right.png,5,Community 2,NA,TRUE,j,j,NA,NA,NA,3,6,"9,3,8,7,13,4,1,14,5,15,11,10,12,6,2"
14264,commdev-image-keyboard-response,119,429619,learnblock1,643.1000001430511,img/planet14_left.png,14,Community 2,NA,TRUE,f,f,NA,NA,NA,3,6,"9,3,8,7,13,4,1,14,5,15,11,10,12,6,2"
14264,commdev-image-keyboard-response,120,430871,learnblock1,710,img/planet1_right.png,1,Community 2,NA,TRUE,j,j,NA,NA,NA,3,6,"9,3,8,7,13,4,1,14,5,15,11,10,12,6,2"
14264,commdev-image-keyboard-response,121,432122,learnblock1,769.5,img/planet5_right.png,5,Community 2,NA,TRUE,j,j,NA,NA,NA,3,6,"9,3,8,7,13,4,1,14,5,15,11,10,12,6,2"
14264,commdev-image-keyboard-response,122,433374,learnblock1,689.4000000953674,img/planet14_left.png,14,Community 2,NA,TRUE,f,f,NA,NA,NA,3,6,"9,3,8,7,13,4,1,14,5,15,11,10,12,6,2"
14264,commdev-image-keyboard-response,123,434625,learnblock1,701.5,img/planet10_left.png,10,Community 3,NA,TRUE,f,f,NA,NA,NA,3,6,"9,3,8,7,13,4,1,14,5,15,11,10,12,6,2"
14264,commdev-image-keyboard-response,124,435877,learnblock1,691.7999999523163,img/planet6_right.png,6,Community 3,NA,TRUE,j,j,NA,NA,NA,3,6,"9,3,8,7,13,4,1,14,5,15,11,10,12,6,2"
14264,commdev-image-keyboard-response,125,437128,learnblock1,611,img/planet2_left.png,2,Community 3,NA,TRUE,f,f,NA,NA,NA,3,6,"9,3,8,7,13,4,1,14,5,15,11,10,12,6,2"
14264,commdev-image-keyboard-response,126,438381,learnblock1,731.5,img/planet10_left.png,10,Community 3,NA,TRUE,f,f,NA,NA,NA,3,6,"9,3,8,7,13,4,1,14,5,15,11,10,12,6,2"
14264,commdev-image-keyboard-response,127,439632,learnblock1,987,img/planet2_right.png,2,Community 3,NA,TRUE,j,j,NA,NA,NA,3,6,"9,3,8,7,13,4,1,14,5,15,11,10,12,6,2"
14264,commdev-image-keyboard-response,128,440885,learnblock1,860.3999998569489,img/planet6_left.png,6,Community 3,NA,TRUE,f,f,NA,NA,NA,3,6,"9,3,8,7,13,4,1,14,5,15,11,10,12,6,2"
14264,commdev-image-keyboard-response,129,442136,learnblock1,1146.8999998569489,img/planet2_left.png,2,Community 3,NA,TRUE,f,f,NA,NA,NA,3,6,"9,3,8,7,13,4,1,14,5,15,11,10,12,6,2"
14264,commdev-image-keyboard-response,130,443388,learnblock1,930.3000001907349,img/planet6_left.png,6,Community 3,NA,TRUE,f,f,NA,NA,NA,3,6,"9,3,8,7,13,4,1,14,5,15,11,10,12,6,2"
14264,commdev-image-keyboard-response,131,444639,learnblock1,828.7000000476837,img/planet10_left.png,10,Community 3,NA,TRUE,f,f,NA,NA,NA,3,6,"9,3,8,7,13,4,1,14,5,15,11,10,12,6,2"
14264,commdev-image-keyboard-response,132,445891,learnblock1,561.3999998569489,img/planet14_right.png,14,Community 2,NA,FALSE,f,j,NA,NA,NA,3,6,"9,3,8,7,13,4,1,14,5,15,11,10,12,6,2"
14264,commdev-image-keyboard-response,133,447143,learnblock1,785.5999999046326,img/planet10_right.png,10,Community 3,NA,TRUE,j,j,NA,NA,NA,3,6,"9,3,8,7,13,4,1,14,5,15,11,10,12,6,2"
14264,commdev-image-keyboard-response,134,448394,learnblock1,814.7000000476837,img/planet12_right.png,12,Community 3,NA,TRUE,j,j,NA,NA,NA,3,6,"9,3,8,7,13,4,1,14,5,15,11,10,12,6,2"
14264,commdev-image-keyboard-response,135,449645,learnblock1,664.2999999523163,img/planet11_left.png,11,Community 3,NA,TRUE,f,f,NA,NA,NA,3,6,"9,3,8,7,13,4,1,14,5,15,11,10,12,6,2"
14264,commdev-image-keyboard-response,136,450896,learnblock1,854,img/planet2_left.png,2,Community 3,NA,TRUE,f,f,NA,NA,NA,3,6,"9,3,8,7,13,4,1,14,5,15,11,10,12,6,2"
14264,commdev-image-keyboard-response,137,452148,learnblock1,606,img/planet10_left.png,10,Community 3,NA,TRUE,f,f,NA,NA,NA,3,6,"9,3,8,7,13,4,1,14,5,15,11,10,12,6,2"
14264,commdev-image-keyboard-response,138,453401,learnblock1,632.6000001430511,img/planet14_right.png,14,Community 2,NA,TRUE,j,j,NA,NA,NA,3,6,"9,3,8,7,13,4,1,14,5,15,11,10,12,6,2"
14264,commdev-image-keyboard-response,139,454652,learnblock1,1034.6000001430511,img/planet1_right.png,1,Community 2,NA,TRUE,j,j,NA,NA,NA,3,6,"9,3,8,7,13,4,1,14,5,15,11,10,12,6,2"
14264,commdev-image-keyboard-response,140,455904,learnblock1,886.8000001907349,img/planet14_left.png,14,Community 2,NA,TRUE,f,f,NA,NA,NA,3,6,"9,3,8,7,13,4,1,14,5,15,11,10,12,6,2"
14264,commdev-image-keyboard-response,141,457156,learnblock1,780.7999999523163,img/planet5_left.png,5,Community 2,NA,TRUE,f,f,NA,NA,NA,3,6,"9,3,8,7,13,4,1,14,5,15,11,10,12,6,2"
14264,commdev-image-keyboard-response,142,458408,learnblock1,690.1000001430511,img/planet14_right.png,14,Community 2,NA,TRUE,j,j,NA,NA,NA,3,6,"9,3,8,7,13,4,1,14,5,15,11,10,12,6,2"
14264,commdev-image-keyboard-response,143,459659,learnblock1,740.3999998569489,img/planet10_right.png,10,Community 3,NA,TRUE,j,j,NA,NA,NA,3,6,"9,3,8,7,13,4,1,14,5,15,11,10,12,6,2"
14264,commdev-image-keyboard-response,144,460910,learnblock1,762.2000000476837,img/planet2_left.png,2,Community 3,NA,TRUE,f,f,NA,NA,NA,3,6,"9,3,8,7,13,4,1,14,5,15,11,10,12,6,2"
14264,commdev-image-keyboard-response,145,462161,learnblock1,669.7999999523163,img/planet10_left.png,10,Community 3,NA,TRUE,f,f,NA,NA,NA,3,6,"9,3,8,7,13,4,1,14,5,15,11,10,12,6,2"
14264,commdev-image-keyboard-response,146,463414,learnblock1,805.5999999046326,img/planet6_left.png,6,Community 3,NA,TRUE,f,f,NA,NA,NA,3,6,"9,3,8,7,13,4,1,14,5,15,11,10,12,6,2"
14264,commdev-image-keyboard-response,147,464667,learnblock1,null,img/planet12_left.png,12,Community 3,NA,FALSE,null,f,NA,NA,NA,3,6,"9,3,8,7,13,4,1,14,5,15,11,10,12,6,2"
14264,commdev-image-keyboard-response,148,465918,learnblock1,null,img/planet6_right.png,6,Community 3,NA,FALSE,null,j,NA,NA,NA,3,6,"9,3,8,7,13,4,1,14,5,15,11,10,12,6,2"
14264,commdev-image-keyboard-response,149,467169,learnblock1,603.5999999046326,img/planet10_left.png,10,Community 3,NA,FALSE,j,f,NA,NA,NA,3,6,"9,3,8,7,13,4,1,14,5,15,11,10,12,6,2"
14264,commdev-image-keyboard-response,150,468421,learnblock1,null,img/planet14_right.png,14,Community 2,NA,FALSE,null,j,NA,NA,NA,3,6,"9,3,8,7,13,4,1,14,5,15,11,10,12,6,2"
14264,commdev-image-keyboard-response,151,469673,learnblock1,626.6000001430511,img/planet1_right.png,1,Community 2,NA,TRUE,j,j,NA,NA,NA,3,6,"9,3,8,7,13,4,1,14,5,15,11,10,12,6,2"
14264,commdev-image-keyboard-response,152,470925,learnblock1,882.7000000476837,img/planet4_left.png,4,Community 2,NA,TRUE,f,f,NA,NA,NA,3,6,"9,3,8,7,13,4,1,14,5,15,11,10,12,6,2"
14264,commdev-image-keyboard-response,153,472177,learnblock1,728.7000000476837,img/planet1_right.png,1,Community 2,NA,TRUE,j,j,NA,NA,NA,3,6,"9,3,8,7,13,4,1,14,5,15,11,10,12,6,2"
14264,commdev-image-keyboard-response,154,473429,learnblock1,null,img/planet4_left.png,4,Community 2,NA,FALSE,null,f,NA,NA,NA,3,6,"9,3,8,7,13,4,1,14,5,15,11,10,12,6,2"
14264,commdev-image-keyboard-response,155,474681,learnblock1,636.4000000953674,img/planet15_right.png,15,Community 2,NA,FALSE,f,j,NA,NA,NA,3,6,"9,3,8,7,13,4,1,14,5,15,11,10,12,6,2"
14264,commdev-image-keyboard-response,156,475932,learnblock1,993.5999999046326,img/planet14_right.png,14,Community 2,NA,TRUE,j,j,NA,NA,NA,3,6,"9,3,8,7,13,4,1,14,5,15,11,10,12,6,2"
14264,commdev-image-keyboard-response,157,477184,learnblock1,null,img/planet1_left.png,1,Community 2,NA,FALSE,null,f,NA,NA,NA,3,6,"9,3,8,7,13,4,1,14,5,15,11,10,12,6,2"
14264,commdev-image-keyboard-response,158,478435,learnblock1,740.9000000953674,img/planet5_right.png,5,Community 2,NA,TRUE,j,j,NA,NA,NA,3,6,"9,3,8,7,13,4,1,14,5,15,11,10,12,6,2"
14264,commdev-image-keyboard-response,159,479688,learnblock1,709.5,img/planet1_left.png,1,Community 2,NA,TRUE,f,f,NA,NA,NA,3,6,"9,3,8,7,13,4,1,14,5,15,11,10,12,6,2"
14264,commdev-image-keyboard-response,160,480939,learnblock1,560.5,img/planet4_right.png,4,Community 2,NA,TRUE,j,j,NA,NA,NA,3,6,"9,3,8,7,13,4,1,14,5,15,11,10,12,6,2"
14264,commdev-image-keyboard-response,161,482191,learnblock1,718.7999999523163,img/planet15_left.png,15,Community 2,NA,TRUE,f,f,NA,NA,NA,3,6,"9,3,8,7,13,4,1,14,5,15,11,10,12,6,2"
14264,commdev-image-keyboard-response,162,483442,learnblock1,589.2000000476837,img/planet5_right.png,5,Community 2,NA,TRUE,j,j,NA,NA,NA,3,6,"9,3,8,7,13,4,1,14,5,15,11,10,12,6,2"
14264,commdev-image-keyboard-response,163,484696,learnblock1,738.7000000476837,img/planet15_left.png,15,Community 2,NA,FALSE,j,f,NA,NA,NA,3,6,"9,3,8,7,13,4,1,14,5,15,11,10,12,6,2"
14264,commdev-image-keyboard-response,164,485949,learnblock1,932.5,img/planet1_right.png,1,Community 2,NA,TRUE,j,j,NA,NA,NA,3,6,"9,3,8,7,13,4,1,14,5,15,11,10,12,6,2"
14264,commdev-image-keyboard-response,165,487200,learnblock1,672.0999999046326,img/planet15_left.png,15,Community 2,NA,TRUE,f,f,NA,NA,NA,3,6,"9,3,8,7,13,4,1,14,5,15,11,10,12,6,2"
14264,commdev-image-keyboard-response,166,488451,learnblock1,1162.0999999046326,img/planet14_left.png,14,Community 2,NA,FALSE,j,f,NA,NA,NA,3,6,"9,3,8,7,13,4,1,14,5,15,11,10,12,6,2"
14264,commdev-image-keyboard-response,167,489702,learnblock1,750.7000000476837,img/planet1_right.png,1,Community 2,NA,TRUE,j,j,NA,NA,NA,3,6,"9,3,8,7,13,4,1,14,5,15,11,10,12,6,2"
14264,commdev-image-keyboard-response,168,490954,learnblock1,688.6999998092651,img/planet5_right.png,5,Community 2,NA,FALSE,f,j,NA,NA,NA,3,6,"9,3,8,7,13,4,1,14,5,15,11,10,12,6,2"
14264,commdev-image-keyboard-response,169,492206,learnblock1,621.7999999523163,img/planet4_left.png,4,Community 2,NA,TRUE,f,f,NA,NA,NA,3,6,"9,3,8,7,13,4,1,14,5,15,11,10,12,6,2"
14264,commdev-image-keyboard-response,170,493457,learnblock1,568.3000001907349,img/planet5_right.png,5,Community 2,NA,TRUE,j,j,NA,NA,NA,3,6,"9,3,8,7,13,4,1,14,5,15,11,10,12,6,2"
14264,commdev-image-keyboard-response,171,494709,learnblock1,678.3000001907349,img/planet1_left.png,1,Community 2,NA,TRUE,f,f,NA,NA,NA,3,6,"9,3,8,7,13,4,1,14,5,15,11,10,12,6,2"
14264,commdev-image-keyboard-response,172,495960,learnblock1,632,img/planet5_right.png,5,Community 2,NA,TRUE,j,j,NA,NA,NA,3,6,"9,3,8,7,13,4,1,14,5,15,11,10,12,6,2"
14264,commdev-image-keyboard-response,173,497212,learnblock1,606,img/planet15_left.png,15,Community 2,NA,TRUE,f,f,NA,NA,NA,3,6,"9,3,8,7,13,4,1,14,5,15,11,10,12,6,2"
14264,commdev-image-keyboard-response,174,498463,learnblock1,677,img/planet4_right.png,4,Community 2,NA,TRUE,j,j,NA,NA,NA,3,6,"9,3,8,7,13,4,1,14,5,15,11,10,12,6,2"
14264,commdev-image-keyboard-response,175,499715,learnblock1,967.6999998092651,img/planet7_left.png,7,Community 1,NA,TRUE,f,f,NA,NA,NA,3,6,"9,3,8,7,13,4,1,14,5,15,11,10,12,6,2"
14264,commdev-image-keyboard-response,176,500966,learnblock1,608.9000000953674,img/planet4_right.png,4,Community 2,NA,TRUE,j,j,NA,NA,NA,3,6,"9,3,8,7,13,4,1,14,5,15,11,10,12,6,2"
14264,commdev-image-keyboard-response,177,502217,learnblock1,749.3999998569489,img/planet7_right.png,7,Community 1,NA,TRUE,j,j,NA,NA,NA,3,6,"9,3,8,7,13,4,1,14,5,15,11,10,12,6,2"
14264,commdev-image-keyboard-response,178,503468,learnblock1,690.7000000476837,img/planet9_left.png,9,Community 1,NA,TRUE,f,f,NA,NA,NA,3,6,"9,3,8,7,13,4,1,14,5,15,11,10,12,6,2"
14264,commdev-image-keyboard-response,179,504719,learnblock1,null,img/planet8_right.png,8,Community 1,NA,FALSE,null,j,NA,NA,NA,3,6,"9,3,8,7,13,4,1,14,5,15,11,10,12,6,2"
14264,commdev-image-keyboard-response,180,505972,learnblock1,null,img/planet13_left.png,13,Community 1,NA,FALSE,null,f,NA,NA,NA,3,6,"9,3,8,7,13,4,1,14,5,15,11,10,12,6,2"
14264,commdev-image-keyboard-response,181,507223,learnblock1,776.2000000476837,img/planet8_right.png,8,Community 1,NA,TRUE,j,j,NA,NA,NA,3,6,"9,3,8,7,13,4,1,14,5,15,11,10,12,6,2"
14264,commdev-image-keyboard-response,182,508475,learnblock1,null,img/planet9_right.png,9,Community 1,NA,FALSE,null,j,NA,NA,NA,3,6,"9,3,8,7,13,4,1,14,5,15,11,10,12,6,2"
14264,commdev-image-keyboard-response,183,509726,learnblock1,925.5,img/planet3_left.png,3,Community 1,NA,FALSE,j,f,NA,NA,NA,3,6,"9,3,8,7,13,4,1,14,5,15,11,10,12,6,2"
14264,commdev-image-keyboard-response,184,510977,learnblock1,550.7000000476837,img/planet9_left.png,9,Community 1,NA,TRUE,f,f,NA,NA,NA,3,6,"9,3,8,7,13,4,1,14,5,15,11,10,12,6,2"
14264,commdev-image-keyboard-response,185,512228,learnblock1,1027.0999999046326,img/planet7_left.png,7,Community 1,NA,FALSE,j,f,NA,NA,NA,3,6,"9,3,8,7,13,4,1,14,5,15,11,10,12,6,2"
14264,commdev-image-keyboard-response,186,513480,learnblock1,804.0999999046326,img/planet9_right.png,9,Community 1,NA,TRUE,j,j,NA,NA,NA,3,6,"9,3,8,7,13,4,1,14,5,15,11,10,12,6,2"
14264,commdev-image-keyboard-response,187,514732,learnblock1,877.7999999523163,img/planet3_right.png,3,Community 1,NA,TRUE,j,j,NA,NA,NA,3,6,"9,3,8,7,13,4,1,14,5,15,11,10,12,6,2"
14264,commdev-image-keyboard-response,188,515984,learnblock1,1240.6000001430511,img/planet7_left.png,7,Community 1,NA,TRUE,f,f,NA,NA,NA,3,6,"9,3,8,7,13,4,1,14,5,15,11,10,12,6,2"
14264,commdev-image-keyboard-response,189,517235,learnblock1,1022,img/planet3_left.png,3,Community 1,NA,TRUE,f,f,NA,NA,NA,3,6,"9,3,8,7,13,4,1,14,5,15,11,10,12,6,2"
14264,commdev-image-keyboard-response,190,518486,learnblock1,811.0999999046326,img/planet8_right.png,8,Community 1,NA,TRUE,j,j,NA,NA,NA,3,6,"9,3,8,7,13,4,1,14,5,15,11,10,12,6,2"
14264,commdev-image-keyboard-response,191,519737,learnblock1,776,img/planet13_left.png,13,Community 1,NA,TRUE,f,f,NA,NA,NA,3,6,"9,3,8,7,13,4,1,14,5,15,11,10,12,6,2"
14264,commdev-image-keyboard-response,192,520989,learnblock1,600.9000000953674,img/planet3_right.png,3,Community 1,NA,TRUE,j,j,NA,NA,NA,3,6,"9,3,8,7,13,4,1,14,5,15,11,10,12,6,2"
14264,commdev-image-keyboard-response,193,522240,learnblock1,633.9000000953674,img/planet13_left.png,13,Community 1,NA,TRUE,f,f,NA,NA,NA,3,6,"9,3,8,7,13,4,1,14,5,15,11,10,12,6,2"
14264,commdev-image-keyboard-response,194,523497,learnblock1,821.5999999046326,img/planet11_right.png,11,Community 3,NA,TRUE,j,j,NA,NA,NA,3,6,"9,3,8,7,13,4,1,14,5,15,11,10,12,6,2"
14264,commdev-image-keyboard-response,195,524749,learnblock1,644.1999998092651,img/planet13_left.png,13,Community 1,NA,TRUE,f,f,NA,NA,NA,3,6,"9,3,8,7,13,4,1,14,5,15,11,10,12,6,2"
14264,commdev-image-keyboard-response,196,526000,learnblock1,506.7999999523163,img/planet11_right.png,11,Community 3,NA,TRUE,j,j,NA,NA,NA,3,6,"9,3,8,7,13,4,1,14,5,15,11,10,12,6,2"
14264,commdev-image-keyboard-response,197,527251,learnblock1,460.10000014305115,img/planet13_left.png,13,Community 1,NA,TRUE,f,f,NA,NA,NA,3,6,"9,3,8,7,13,4,1,14,5,15,11,10,12,6,2"
14264,commdev-image-keyboard-response,198,528504,learnblock1,305,img/planet8_right.png,8,Community 1,NA,TRUE,j,j,NA,NA,NA,3,6,"9,3,8,7,13,4,1,14,5,15,11,10,12,6,2"
14264,commdev-image-keyboard-response,199,529754,learnblock1,589.7999999523163,img/planet3_left.png,3,Community 1,NA,TRUE,f,f,NA,NA,NA,3,6,"9,3,8,7,13,4,1,14,5,15,11,10,12,6,2"
14264,commdev-image-keyboard-response,200,531006,learnblock1,604.5,img/planet7_right.png,7,Community 1,NA,TRUE,j,j,NA,NA,NA,3,6,"9,3,8,7,13,4,1,14,5,15,11,10,12,6,2"
14264,commdev-image-keyboard-response,201,532257,learnblock1,541.9000000953674,img/planet8_left.png,8,Community 1,NA,TRUE,f,f,NA,NA,NA,3,6,"9,3,8,7,13,4,1,14,5,15,11,10,12,6,2"
14264,commdev-image-keyboard-response,202,533509,learnblock1,310.09999990463257,img/planet7_left.png,7,Community 1,NA,FALSE,j,f,NA,NA,NA,3,6,"9,3,8,7,13,4,1,14,5,15,11,10,12,6,2"
14264,commdev-image-keyboard-response,203,534760,learnblock1,1137.4000000953674,img/planet3_left.png,3,Community 1,NA,TRUE,f,f,NA,NA,NA,3,6,"9,3,8,7,13,4,1,14,5,15,11,10,12,6,2"
14264,commdev-image-keyboard-response,204,536012,learnblock1,796,img/planet9_right.png,9,Community 1,NA,TRUE,j,j,NA,NA,NA,3,6,"9,3,8,7,13,4,1,14,5,15,11,10,12,6,2"
14264,commdev-image-keyboard-response,205,537264,learnblock1,818.7999999523163,img/planet8_right.png,8,Community 1,NA,TRUE,j,j,NA,NA,NA,3,6,"9,3,8,7,13,4,1,14,5,15,11,10,12,6,2"
14264,commdev-image-keyboard-response,206,538516,learnblock1,685.2000000476837,img/planet13_left.png,13,Community 1,NA,TRUE,f,f,NA,NA,NA,3,6,"9,3,8,7,13,4,1,14,5,15,11,10,12,6,2"
14264,commdev-image-keyboard-response,207,539767,learnblock1,826.3999998569489,img/planet3_right.png,3,Community 1,NA,TRUE,j,j,NA,NA,NA,3,6,"9,3,8,7,13,4,1,14,5,15,11,10,12,6,2"
14264,commdev-image-keyboard-response,208,541019,learnblock1,978.5,img/planet7_right.png,7,Community 1,NA,TRUE,j,j,NA,NA,NA,3,6,"9,3,8,7,13,4,1,14,5,15,11,10,12,6,2"
14264,commdev-image-keyboard-response,209,542270,learnblock1,907.0999999046326,img/planet9_right.png,9,Community 1,NA,TRUE,j,j,NA,NA,NA,3,6,"9,3,8,7,13,4,1,14,5,15,11,10,12,6,2"
14264,commdev-image-keyboard-response,210,543523,learnblock1,821,img/planet8_left.png,8,Community 1,NA,TRUE,f,f,NA,NA,NA,3,6,"9,3,8,7,13,4,1,14,5,15,11,10,12,6,2"
14264,commdev-image-keyboard-response,211,544774,learnblock1,954.2000000476837,img/planet7_right.png,7,Community 1,NA,TRUE,j,j,NA,NA,NA,3,6,"9,3,8,7,13,4,1,14,5,15,11,10,12,6,2"
14264,commdev-image-keyboard-response,212,546027,learnblock1,931.2000000476837,img/planet3_left.png,3,Community 1,NA,TRUE,f,f,NA,NA,NA,3,6,"9,3,8,7,13,4,1,14,5,15,11,10,12,6,2"
14264,commdev-image-keyboard-response,213,547279,learnblock1,1238.2000000476837,img/planet8_right.png,8,Community 1,NA,TRUE,j,j,NA,NA,NA,3,6,"9,3,8,7,13,4,1,14,5,15,11,10,12,6,2"
14264,commdev-image-keyboard-response,214,548530,learnblock1,786.9000000953674,img/planet9_left.png,9,Community 1,NA,FALSE,j,f,NA,NA,NA,3,6,"9,3,8,7,13,4,1,14,5,15,11,10,12,6,2"
14264,commdev-image-keyboard-response,215,549781,learnblock1,563.7000000476837,img/planet8_left.png,8,Community 1,NA,FALSE,j,f,NA,NA,NA,3,6,"9,3,8,7,13,4,1,14,5,15,11,10,12,6,2"
14264,commdev-image-keyboard-response,216,551036,learnblock1,720.5999999046326,img/planet13_left.png,13,Community 1,NA,FALSE,j,f,NA,NA,NA,3,6,"9,3,8,7,13,4,1,14,5,15,11,10,12,6,2"
14264,commdev-image-keyboard-response,217,552288,learnblock1,760.7000000476837,img/planet11_right.png,11,Community 3,NA,TRUE,j,j,NA,NA,NA,3,6,"9,3,8,7,13,4,1,14,5,15,11,10,12,6,2"
14264,commdev-image-keyboard-response,218,553539,learnblock1,676.7999999523163,img/planet12_left.png,12,Community 3,NA,TRUE,f,f,NA,NA,NA,3,6,"9,3,8,7,13,4,1,14,5,15,11,10,12,6,2"
14264,commdev-image-keyboard-response,219,554790,learnblock1,644.9000000953674,img/planet2_right.png,2,Community 3,NA,TRUE,j,j,NA,NA,NA,3,6,"9,3,8,7,13,4,1,14,5,15,11,10,12,6,2"
14264,commdev-image-keyboard-response,220,556055,learnblock1,720.4000000953674,img/planet6_left.png,6,Community 3,NA,TRUE,f,f,NA,NA,NA,3,6,"9,3,8,7,13,4,1,14,5,15,11,10,12,6,2"
14264,commdev-image-keyboard-response,221,557306,learnblock1,719.1000001430511,img/planet11_right.png,11,Community 3,NA,TRUE,j,j,NA,NA,NA,3,6,"9,3,8,7,13,4,1,14,5,15,11,10,12,6,2"
14264,commdev-image-keyboard-response,222,558558,learnblock1,722.4000000953674,img/planet12_left.png,12,Community 3,NA,TRUE,f,f,NA,NA,NA,3,6,"9,3,8,7,13,4,1,14,5,15,11,10,12,6,2"
14264,commdev-image-keyboard-response,223,559810,learnblock1,916.1000001430511,img/planet10_left.png,10,Community 3,NA,TRUE,f,f,NA,NA,NA,3,6,"9,3,8,7,13,4,1,14,5,15,11,10,12,6,2"
14264,commdev-image-keyboard-response,224,561061,learnblock1,880.7999999523163,img/planet6_right.png,6,Community 3,NA,TRUE,j,j,NA,NA,NA,3,6,"9,3,8,7,13,4,1,14,5,15,11,10,12,6,2"
14264,commdev-image-keyboard-response,225,562312,learnblock1,1016,img/planet11_right.png,11,Community 3,NA,FALSE,f,j,NA,NA,NA,3,6,"9,3,8,7,13,4,1,14,5,15,11,10,12,6,2"
14264,commdev-image-keyboard-response,226,563564,learnblock1,623.1999998092651,img/planet13_right.png,13,Community 1,NA,TRUE,j,j,NA,NA,NA,3,6,"9,3,8,7,13,4,1,14,5,15,11,10,12,6,2"
14264,commdev-image-keyboard-response,227,564816,learnblock1,345.2999999523163,img/planet3_right.png,3,Community 1,NA,TRUE,j,j,NA,NA,NA,3,6,"9,3,8,7,13,4,1,14,5,15,11,10,12,6,2"
14264,commdev-image-keyboard-response,228,566067,learnblock1,null,img/planet8_left.png,8,Community 1,NA,FALSE,null,f,NA,NA,NA,3,6,"9,3,8,7,13,4,1,14,5,15,11,10,12,6,2"
14264,commdev-image-keyboard-response,229,567319,learnblock1,null,img/planet9_left.png,9,Community 1,NA,FALSE,null,f,NA,NA,NA,3,6,"9,3,8,7,13,4,1,14,5,15,11,10,12,6,2"
14264,commdev-image-keyboard-response,230,568570,learnblock1,null,img/planet13_left.png,13,Community 1,NA,FALSE,null,f,NA,NA,NA,3,6,"9,3,8,7,13,4,1,14,5,15,11,10,12,6,2"
14264,commdev-image-keyboard-response,231,569822,learnblock1,515.5,img/planet3_right.png,3,Community 1,NA,TRUE,j,j,NA,NA,NA,3,6,"9,3,8,7,13,4,1,14,5,15,11,10,12,6,2"
14264,commdev-image-keyboard-response,232,571073,learnblock1,407.19999980926514,img/planet7_left.png,7,Community 1,NA,FALSE,j,f,NA,NA,NA,3,6,"9,3,8,7,13,4,1,14,5,15,11,10,12,6,2"
14264,commdev-image-keyboard-response,233,572339,learnblock1,849.2999999523163,img/planet3_right.png,3,Community 1,NA,TRUE,j,j,NA,NA,NA,3,6,"9,3,8,7,13,4,1,14,5,15,11,10,12,6,2"
14264,commdev-image-keyboard-response,234,573591,learnblock1,717.3000001907349,img/planet9_left.png,9,Community 1,NA,TRUE,f,f,NA,NA,NA,3,6,"9,3,8,7,13,4,1,14,5,15,11,10,12,6,2"
14264,commdev-image-keyboard-response,235,574843,learnblock1,741.6999998092651,img/planet3_right.png,3,Community 1,NA,TRUE,j,j,NA,NA,NA,3,6,"9,3,8,7,13,4,1,14,5,15,11,10,12,6,2"
14264,commdev-image-keyboard-response,236,576095,learnblock1,597.6999998092651,img/planet13_left.png,13,Community 1,NA,TRUE,f,f,NA,NA,NA,3,6,"9,3,8,7,13,4,1,14,5,15,11,10,12,6,2"
14264,commdev-image-keyboard-response,237,577346,learnblock1,575.8999998569489,img/planet3_left.png,3,Community 1,NA,FALSE,j,f,NA,NA,NA,3,6,"9,3,8,7,13,4,1,14,5,15,11,10,12,6,2"
14264,commdev-image-keyboard-response,238,578597,learnblock1,491.5,img/planet8_right.png,8,Community 1,NA,FALSE,f,j,NA,NA,NA,3,6,"9,3,8,7,13,4,1,14,5,15,11,10,12,6,2"
14264,commdev-image-keyboard-response,239,579848,learnblock1,250.5,img/planet7_left.png,7,Community 1,NA,FALSE,j,f,NA,NA,NA,3,6,"9,3,8,7,13,4,1,14,5,15,11,10,12,6,2"
14264,commdev-image-keyboard-response,240,581099,learnblock1,220.29999995231628,img/planet9_left.png,9,Community 1,NA,TRUE,f,f,NA,NA,NA,3,6,"9,3,8,7,13,4,1,14,5,15,11,10,12,6,2"
14264,commdev-image-keyboard-response,241,582351,learnblock1,195.5,img/planet13_left.png,13,Community 1,NA,TRUE,f,f,NA,NA,NA,3,6,"9,3,8,7,13,4,1,14,5,15,11,10,12,6,2"
14264,commdev-image-keyboard-response,242,583602,learnblock1,890.9000000953674,img/planet11_right.png,11,Community 3,NA,TRUE,j,j,NA,NA,NA,3,6,"9,3,8,7,13,4,1,14,5,15,11,10,12,6,2"
14264,commdev-image-keyboard-response,243,584859,learnblock1,27.200000047683716,img/planet13_left.png,13,Community 1,NA,FALSE,j,f,NA,NA,NA,3,6,"9,3,8,7,13,4,1,14,5,15,11,10,12,6,2"
14264,commdev-image-keyboard-response,244,586110,learnblock1,815.2000000476837,img/planet3_left.png,3,Community 1,NA,TRUE,f,f,NA,NA,NA,3,6,"9,3,8,7,13,4,1,14,5,15,11,10,12,6,2"
14264,commdev-image-keyboard-response,245,587362,learnblock1,182.60000014305115,img/planet9_left.png,9,Community 1,NA,TRUE,f,f,NA,NA,NA,3,6,"9,3,8,7,13,4,1,14,5,15,11,10,12,6,2"
14264,commdev-image-keyboard-response,246,588613,learnblock1,698.5,img/planet8_right.png,8,Community 1,NA,TRUE,j,j,NA,NA,NA,3,6,"9,3,8,7,13,4,1,14,5,15,11,10,12,6,2"
14264,commdev-image-keyboard-response,247,589867,learnblock1,79.79999995231628,img/planet3_right.png,3,Community 1,NA,TRUE,j,j,NA,NA,NA,3,6,"9,3,8,7,13,4,1,14,5,15,11,10,12,6,2"
14264,commdev-image-keyboard-response,248,591119,learnblock1,816.2000000476837,img/planet7_left.png,7,Community 1,NA,TRUE,f,f,NA,NA,NA,3,6,"9,3,8,7,13,4,1,14,5,15,11,10,12,6,2"
14264,commdev-image-keyboard-response,249,592370,learnblock1,158.69999980926514,img/planet3_right.png,3,Community 1,NA,FALSE,f,j,NA,NA,NA,3,6,"9,3,8,7,13,4,1,14,5,15,11,10,12,6,2"
14264,commdev-image-keyboard-response,250,593622,learnblock1,170.09999990463257,img/planet7_left.png,7,Community 1,NA,FALSE,j,f,NA,NA,NA,3,6,"9,3,8,7,13,4,1,14,5,15,11,10,12,6,2"
14264,commdev-image-keyboard-response,251,594873,learnblock1,811.7000000476837,img/planet4_right.png,4,Community 2,NA,TRUE,j,j,NA,NA,NA,3,6,"9,3,8,7,13,4,1,14,5,15,11,10,12,6,2"
14264,commdev-image-keyboard-response,252,596124,learnblock1,788.5999999046326,img/planet15_right.png,15,Community 2,NA,TRUE,j,j,NA,NA,NA,3,6,"9,3,8,7,13,4,1,14,5,15,11,10,12,6,2"
14264,commdev-image-keyboard-response,253,597376,learnblock1,844.2999999523163,img/planet1_left.png,1,Community 2,NA,FALSE,j,f,NA,NA,NA,3,6,"9,3,8,7,13,4,1,14,5,15,11,10,12,6,2"
14264,commdev-image-keyboard-response,254,598628,learnblock1,635.4000000953674,img/planet14_left.png,14,Community 2,NA,FALSE,j,f,NA,NA,NA,3,6,"9,3,8,7,13,4,1,14,5,15,11,10,12,6,2"
14264,commdev-image-keyboard-response,255,599878,learnblock1,1042,img/planet15_right.png,15,Community 2,NA,TRUE,j,j,NA,NA,NA,3,6,"9,3,8,7,13,4,1,14,5,15,11,10,12,6,2"
14264,commdev-image-keyboard-response,256,601143,learnblock1,null,img/planet5_right.png,5,Community 2,NA,FALSE,null,j,NA,NA,NA,3,6,"9,3,8,7,13,4,1,14,5,15,11,10,12,6,2"
14264,commdev-image-keyboard-response,257,602395,learnblock1,211.20000004768372,img/planet14_left.png,14,Community 2,NA,FALSE,j,f,NA,NA,NA,3,6,"9,3,8,7,13,4,1,14,5,15,11,10,12,6,2"
14264,commdev-image-keyboard-response,258,603646,learnblock1,607.5999999046326,img/planet15_left.png,15,Community 2,NA,TRUE,f,f,NA,NA,NA,3,6,"9,3,8,7,13,4,1,14,5,15,11,10,12,6,2"
14264,commdev-image-keyboard-response,259,604902,learnblock1,876.6000001430511,img/planet4_left.png,4,Community 2,NA,TRUE,f,f,NA,NA,NA,3,6,"9,3,8,7,13,4,1,14,5,15,11,10,12,6,2"
14264,commdev-image-keyboard-response,260,606153,learnblock1,958.2999999523163,img/planet5_left.png,5,Community 2,NA,TRUE,f,f,NA,NA,NA,3,6,"9,3,8,7,13,4,1,14,5,15,11,10,12,6,2"
14264,commdev-image-keyboard-response,261,607405,learnblock1,1084.6000001430511,img/planet1_left.png,1,Community 2,NA,TRUE,f,f,NA,NA,NA,3,6,"9,3,8,7,13,4,1,14,5,15,11,10,12,6,2"
14264,commdev-image-keyboard-response,262,608656,learnblock1,754.2999999523163,img/planet4_right.png,4,Community 2,NA,TRUE,j,j,NA,NA,NA,3,6,"9,3,8,7,13,4,1,14,5,15,11,10,12,6,2"
14264,commdev-image-keyboard-response,263,609907,learnblock1,826.5999999046326,img/planet15_left.png,15,Community 2,NA,TRUE,f,f,NA,NA,NA,3,6,"9,3,8,7,13,4,1,14,5,15,11,10,12,6,2"
14264,commdev-image-keyboard-response,264,611158,learnblock1,1033.2000000476837,img/planet4_left.png,4,Community 2,NA,TRUE,f,f,NA,NA,NA,3,6,"9,3,8,7,13,4,1,14,5,15,11,10,12,6,2"
14264,commdev-image-keyboard-response,265,612410,learnblock1,695.6999998092651,img/planet1_right.png,1,Community 2,NA,FALSE,f,j,NA,NA,NA,3,6,"9,3,8,7,13,4,1,14,5,15,11,10,12,6,2"
14264,commdev-image-keyboard-response,266,613662,learnblock1,1104.5,img/planet4_right.png,4,Community 2,NA,TRUE,j,j,NA,NA,NA,3,6,"9,3,8,7,13,4,1,14,5,15,11,10,12,6,2"
14264,commdev-image-keyboard-response,267,614914,learnblock1,691.2999999523163,img/planet15_right.png,15,Community 2,NA,TRUE,j,j,NA,NA,NA,3,6,"9,3,8,7,13,4,1,14,5,15,11,10,12,6,2"
14264,commdev-image-keyboard-response,268,616165,learnblock1,687.5,img/planet14_right.png,14,Community 2,NA,TRUE,j,j,NA,NA,NA,3,6,"9,3,8,7,13,4,1,14,5,15,11,10,12,6,2"
14264,commdev-image-keyboard-response,269,617416,learnblock1,835.0999999046326,img/planet5_right.png,5,Community 2,NA,TRUE,j,j,NA,NA,NA,3,6,"9,3,8,7,13,4,1,14,5,15,11,10,12,6,2"
14264,commdev-image-keyboard-response,270,618667,learnblock1,993.2000000476837,img/planet15_right.png,15,Community 2,NA,TRUE,j,j,NA,NA,NA,3,6,"9,3,8,7,13,4,1,14,5,15,11,10,12,6,2"
14264,commdev-image-keyboard-response,271,619919,learnblock1,1036.2000000476837,img/planet1_right.png,1,Community 2,NA,TRUE,j,j,NA,NA,NA,3,6,"9,3,8,7,13,4,1,14,5,15,11,10,12,6,2"
14264,commdev-image-keyboard-response,272,621171,learnblock1,843.2000000476837,img/planet4_left.png,4,Community 2,NA,TRUE,f,f,NA,NA,NA,3,6,"9,3,8,7,13,4,1,14,5,15,11,10,12,6,2"
14264,commdev-image-keyboard-response,273,622421,learnblock1,1125.1000001430511,img/planet15_left.png,15,Community 2,NA,TRUE,f,f,NA,NA,NA,3,6,"9,3,8,7,13,4,1,14,5,15,11,10,12,6,2"
14264,commdev-image-keyboard-response,274,623673,learnblock1,null,img/planet14_left.png,14,Community 2,NA,FALSE,null,f,NA,NA,NA,3,6,"9,3,8,7,13,4,1,14,5,15,11,10,12,6,2"
14264,commdev-image-keyboard-response,275,624925,learnblock1,196.79999995231628,img/planet5_left.png,5,Community 2,NA,TRUE,f,f,NA,NA,NA,3,6,"9,3,8,7,13,4,1,14,5,15,11,10,12,6,2"
14264,commdev-image-keyboard-response,276,626177,learnblock1,38.09999990463257,img/planet15_left.png,15,Community 2,NA,TRUE,f,f,NA,NA,NA,3,6,"9,3,8,7,13,4,1,14,5,15,11,10,12,6,2"
14264,commdev-image-keyboard-response,277,627428,learnblock1,null,img/planet4_left.png,4,Community 2,NA,FALSE,null,f,NA,NA,NA,3,6,"9,3,8,7,13,4,1,14,5,15,11,10,12,6,2"
14264,commdev-image-keyboard-response,278,628680,learnblock1,47.799999952316284,img/planet5_left.png,5,Community 2,NA,TRUE,f,f,NA,NA,NA,3,6,"9,3,8,7,13,4,1,14,5,15,11,10,12,6,2"
14264,commdev-image-keyboard-response,279,629931,learnblock1,1235.3999998569489,img/planet14_right.png,14,Community 2,NA,TRUE,j,j,NA,NA,NA,3,6,"9,3,8,7,13,4,1,14,5,15,11,10,12,6,2"
14264,commdev-image-keyboard-response,280,631183,learnblock1,683.2000000476837,img/planet5_left.png,5,Community 2,NA,TRUE,f,f,NA,NA,NA,3,6,"9,3,8,7,13,4,1,14,5,15,11,10,12,6,2"
14264,commdev-image-keyboard-response,281,632438,learnblock1,908,img/planet15_left.png,15,Community 2,NA,TRUE,f,f,NA,NA,NA,3,6,"9,3,8,7,13,4,1,14,5,15,11,10,12,6,2"
14264,commdev-image-keyboard-response,282,633689,learnblock1,null,img/planet1_left.png,1,Community 2,NA,FALSE,null,f,NA,NA,NA,3,6,"9,3,8,7,13,4,1,14,5,15,11,10,12,6,2"
14264,commdev-image-keyboard-response,283,634941,learnblock1,263.7000000476837,img/planet5_left.png,5,Community 2,NA,TRUE,f,f,NA,NA,NA,3,6,"9,3,8,7,13,4,1,14,5,15,11,10,12,6,2"
14264,commdev-image-keyboard-response,284,636194,learnblock1,827.5999999046326,img/planet15_left.png,15,Community 2,NA,TRUE,f,f,NA,NA,NA,3,6,"9,3,8,7,13,4,1,14,5,15,11,10,12,6,2"
14264,commdev-image-keyboard-response,285,637446,learnblock1,828.2000000476837,img/planet1_left.png,1,Community 2,NA,TRUE,f,f,NA,NA,NA,3,6,"9,3,8,7,13,4,1,14,5,15,11,10,12,6,2"
14264,commdev-image-keyboard-response,286,638697,learnblock1,699.7999999523163,img/planet4_right.png,4,Community 2,NA,TRUE,j,j,NA,NA,NA,3,6,"9,3,8,7,13,4,1,14,5,15,11,10,12,6,2"
14264,commdev-image-keyboard-response,287,639949,learnblock1,878.5999999046326,img/planet7_right.png,7,Community 1,NA,TRUE,j,j,NA,NA,NA,3,6,"9,3,8,7,13,4,1,14,5,15,11,10,12,6,2"
14264,commdev-image-keyboard-response,288,641200,learnblock1,994.4000000953674,img/planet9_right.png,9,Community 1,NA,TRUE,j,j,NA,NA,NA,3,6,"9,3,8,7,13,4,1,14,5,15,11,10,12,6,2"
14264,commdev-image-keyboard-response,289,642452,learnblock1,878.5999999046326,img/planet7_right.png,7,Community 1,NA,TRUE,j,j,NA,NA,NA,3,6,"9,3,8,7,13,4,1,14,5,15,11,10,12,6,2"
14264,commdev-image-keyboard-response,290,643704,learnblock1,744.9000000953674,img/planet8_right.png,8,Community 1,NA,TRUE,j,j,NA,NA,NA,3,6,"9,3,8,7,13,4,1,14,5,15,11,10,12,6,2"
14264,commdev-image-keyboard-response,291,644956,learnblock1,1058.7999999523163,img/planet3_left.png,3,Community 1,NA,FALSE,j,f,NA,NA,NA,3,6,"9,3,8,7,13,4,1,14,5,15,11,10,12,6,2"
14264,commdev-image-keyboard-response,292,646207,learnblock1,826,img/planet13_left.png,13,Community 1,NA,TRUE,f,f,NA,NA,NA,3,6,"9,3,8,7,13,4,1,14,5,15,11,10,12,6,2"
14264,commdev-image-keyboard-response,293,647458,learnblock1,1101.5999999046326,img/planet11_left.png,11,Community 3,NA,TRUE,f,f,NA,NA,NA,3,6,"9,3,8,7,13,4,1,14,5,15,11,10,12,6,2"
14264,commdev-image-keyboard-response,294,648709,learnblock1,null,img/planet13_left.png,13,Community 1,NA,FALSE,null,f,NA,NA,NA,3,6,"9,3,8,7,13,4,1,14,5,15,11,10,12,6,2"
14264,commdev-image-keyboard-response,295,649960,learnblock1,66.20000004768372,img/planet9_right.png,9,Community 1,NA,FALSE,f,j,NA,NA,NA,3,6,"9,3,8,7,13,4,1,14,5,15,11,10,12,6,2"
14264,commdev-image-keyboard-response,296,651212,learnblock1,null,img/planet8_left.png,8,Community 1,NA,FALSE,null,f,NA,NA,NA,3,6,"9,3,8,7,13,4,1,14,5,15,11,10,12,6,2"
14264,commdev-image-keyboard-response,297,652463,learnblock1,118.19999980926514,img/planet9_right.png,9,Community 1,NA,TRUE,j,j,NA,NA,NA,3,6,"9,3,8,7,13,4,1,14,5,15,11,10,12,6,2"
14264,commdev-image-keyboard-response,298,653716,learnblock1,null,img/planet8_left.png,8,Community 1,NA,FALSE,null,f,NA,NA,NA,3,6,"9,3,8,7,13,4,1,14,5,15,11,10,12,6,2"
14264,commdev-image-keyboard-response,299,654967,learnblock1,21.59999990463257,img/planet9_right.png,9,Community 1,NA,FALSE,f,j,NA,NA,NA,3,6,"9,3,8,7,13,4,1,14,5,15,11,10,12,6,2"
14264,commdev-image-keyboard-response,300,656218,learnblock1,920.0999999046326,img/planet3_left.png,3,Community 1,NA,TRUE,f,f,NA,NA,NA,3,6,"9,3,8,7,13,4,1,14,5,15,11,10,12,6,2"
14264,commdev-image-keyboard-response,301,657470,learnblock1,706.6999998092651,img/planet7_right.png,7,Community 1,NA,TRUE,j,j,NA,NA,NA,3,6,"9,3,8,7,13,4,1,14,5,15,11,10,12,6,2"
14264,commdev-image-keyboard-response,302,658722,learnblock1,840,img/planet4_right.png,4,Community 2,NA,TRUE,j,j,NA,NA,NA,3,6,"9,3,8,7,13,4,1,14,5,15,11,10,12,6,2"
14264,commdev-image-keyboard-response,303,659974,learnblock1,1089.8000001907349,img/planet1_right.png,1,Community 2,NA,TRUE,j,j,NA,NA,NA,3,6,"9,3,8,7,13,4,1,14,5,15,11,10,12,6,2"
14264,commdev-image-keyboard-response,304,661226,learnblock1,997,img/planet5_left.png,5,Community 2,NA,TRUE,f,f,NA,NA,NA,3,6,"9,3,8,7,13,4,1,14,5,15,11,10,12,6,2"
14264,commdev-image-keyboard-response,305,662477,learnblock1,962.7999999523163,img/planet14_right.png,14,Community 2,NA,TRUE,j,j,NA,NA,NA,3,6,"9,3,8,7,13,4,1,14,5,15,11,10,12,6,2"
14264,commdev-image-keyboard-response,306,663729,learnblock1,null,img/planet10_right.png,10,Community 3,NA,FALSE,null,j,NA,NA,NA,3,6,"9,3,8,7,13,4,1,14,5,15,11,10,12,6,2"
14264,commdev-image-keyboard-response,307,664981,learnblock1,23.799999952316284,img/planet14_left.png,14,Community 2,NA,FALSE,j,f,NA,NA,NA,3,6,"9,3,8,7,13,4,1,14,5,15,11,10,12,6,2"
14264,commdev-image-keyboard-response,308,666241,learnblock1,925.9000000953674,img/planet5_right.png,5,Community 2,NA,TRUE,j,j,NA,NA,NA,3,6,"9,3,8,7,13,4,1,14,5,15,11,10,12,6,2"
14264,commdev-image-keyboard-response,309,667493,learnblock1,680.5,img/planet14_right.png,14,Community 2,NA,FALSE,f,j,NA,NA,NA,3,6,"9,3,8,7,13,4,1,14,5,15,11,10,12,6,2"
14264,commdev-image-keyboard-response,310,668744,learnblock1,null,img/planet15_right.png,15,Community 2,NA,FALSE,null,j,NA,NA,NA,3,6,"9,3,8,7,13,4,1,14,5,15,11,10,12,6,2"
14264,commdev-image-keyboard-response,311,669996,learnblock1,102.29999995231628,img/planet14_left.png,14,Community 2,NA,FALSE,j,f,NA,NA,NA,3,6,"9,3,8,7,13,4,1,14,5,15,11,10,12,6,2"
14264,commdev-image-keyboard-response,312,671247,learnblock1,178,img/planet5_left.png,5,Community 2,NA,TRUE,f,f,NA,NA,NA,3,6,"9,3,8,7,13,4,1,14,5,15,11,10,12,6,2"
14264,commdev-image-keyboard-response,313,672498,learnblock1,83.30000019073486,img/planet4_right.png,4,Community 2,NA,FALSE,f,j,NA,NA,NA,3,6,"9,3,8,7,13,4,1,14,5,15,11,10,12,6,2"
14264,commdev-image-keyboard-response,314,673749,learnblock1,4.400000095367432,img/planet15_left.png,15,Community 2,NA,FALSE,j,f,NA,NA,NA,3,6,"9,3,8,7,13,4,1,14,5,15,11,10,12,6,2"
14264,commdev-image-keyboard-response,315,675001,learnblock1,942.7000000476837,img/planet1_left.png,1,Community 2,NA,TRUE,f,f,NA,NA,NA,3,6,"9,3,8,7,13,4,1,14,5,15,11,10,12,6,2"
14264,commdev-image-keyboard-response,316,676253,learnblock1,617.5999999046326,img/planet4_right.png,4,Community 2,NA,TRUE,j,j,NA,NA,NA,3,6,"9,3,8,7,13,4,1,14,5,15,11,10,12,6,2"
14264,commdev-image-keyboard-response,317,677505,learnblock1,667.7000000476837,img/planet1_left.png,1,Community 2,NA,TRUE,f,f,NA,NA,NA,3,6,"9,3,8,7,13,4,1,14,5,15,11,10,12,6,2"
14264,commdev-image-keyboard-response,318,678757,learnblock1,null,img/planet15_left.png,15,Community 2,NA,FALSE,null,f,NA,NA,NA,3,6,"9,3,8,7,13,4,1,14,5,15,11,10,12,6,2"
14264,commdev-image-keyboard-response,319,680009,learnblock1,null,img/planet14_left.png,14,Community 2,NA,FALSE,null,f,NA,NA,NA,3,6,"9,3,8,7,13,4,1,14,5,15,11,10,12,6,2"
14264,commdev-image-keyboard-response,320,681261,learnblock1,882.3999998569489,img/planet5_left.png,5,Community 2,NA,TRUE,f,f,NA,NA,NA,3,6,"9,3,8,7,13,4,1,14,5,15,11,10,12,6,2"
14264,commdev-image-keyboard-response,321,682512,learnblock1,553.9000000953674,img/planet14_right.png,14,Community 2,NA,TRUE,j,j,NA,NA,NA,3,6,"9,3,8,7,13,4,1,14,5,15,11,10,12,6,2"
14264,commdev-image-keyboard-response,322,683764,learnblock1,1013.5999999046326,img/planet5_left.png,5,Community 2,NA,TRUE,f,f,NA,NA,NA,3,6,"9,3,8,7,13,4,1,14,5,15,11,10,12,6,2"
14264,commdev-image-keyboard-response,323,685016,learnblock1,604,img/planet15_right.png,15,Community 2,NA,TRUE,j,j,NA,NA,NA,3,6,"9,3,8,7,13,4,1,14,5,15,11,10,12,6,2"
14264,commdev-image-keyboard-response,324,686267,learnblock1,563.7000000476837,img/planet4_right.png,4,Community 2,NA,FALSE,f,j,NA,NA,NA,3,6,"9,3,8,7,13,4,1,14,5,15,11,10,12,6,2"
14264,commdev-image-keyboard-response,325,687519,learnblock1,55.700000047683716,img/planet1_right.png,1,Community 2,NA,TRUE,j,j,NA,NA,NA,3,6,"9,3,8,7,13,4,1,14,5,15,11,10,12,6,2"
14264,commdev-image-keyboard-response,326,688771,learnblock1,0.39999985694885254,img/planet4_right.png,4,Community 2,NA,TRUE,j,j,NA,NA,NA,3,6,"9,3,8,7,13,4,1,14,5,15,11,10,12,6,2"
14264,commdev-image-keyboard-response,327,690022,learnblock1,710.1000001430511,img/planet5_right.png,5,Community 2,NA,TRUE,j,j,NA,NA,NA,3,6,"9,3,8,7,13,4,1,14,5,15,11,10,12,6,2"
14264,commdev-image-keyboard-response,328,691273,learnblock1,109.59999990463257,img/planet15_right.png,15,Community 2,NA,TRUE,j,j,NA,NA,NA,3,6,"9,3,8,7,13,4,1,14,5,15,11,10,12,6,2"
14264,commdev-image-keyboard-response,329,692525,learnblock1,1007,img/planet4_right.png,4,Community 2,NA,TRUE,j,j,NA,NA,NA,3,6,"9,3,8,7,13,4,1,14,5,15,11,10,12,6,2"
14264,commdev-image-keyboard-response,330,693776,learnblock1,577.0999999046326,img/planet5_left.png,5,Community 2,NA,FALSE,j,f,NA,NA,NA,3,6,"9,3,8,7,13,4,1,14,5,15,11,10,12,6,2"
14264,commdev-image-keyboard-response,331,695028,learnblock1,293.59999990463257,img/planet15_left.png,15,Community 2,NA,TRUE,f,f,NA,NA,NA,3,6,"9,3,8,7,13,4,1,14,5,15,11,10,12,6,2"
14264,commdev-image-keyboard-response,332,696278,learnblock1,592.6000001430511,img/planet4_right.png,4,Community 2,NA,FALSE,f,j,NA,NA,NA,3,6,"9,3,8,7,13,4,1,14,5,15,11,10,12,6,2"
14264,commdev-image-keyboard-response,333,697530,learnblock1,167.29999995231628,img/planet5_right.png,5,Community 2,NA,TRUE,j,j,NA,NA,NA,3,6,"9,3,8,7,13,4,1,14,5,15,11,10,12,6,2"
14264,commdev-image-keyboard-response,334,698781,learnblock1,111.20000004768372,img/planet15_right.png,15,Community 2,NA,TRUE,j,j,NA,NA,NA,3,6,"9,3,8,7,13,4,1,14,5,15,11,10,12,6,2"
14264,commdev-image-keyboard-response,335,700033,learnblock1,438,img/planet5_right.png,5,Community 2,NA,TRUE,j,j,NA,NA,NA,3,6,"9,3,8,7,13,4,1,14,5,15,11,10,12,6,2"
14264,commdev-image-keyboard-response,336,701294,learnblock1,888.3000001907349,img/planet4_left.png,4,Community 2,NA,TRUE,f,f,NA,NA,NA,3,6,"9,3,8,7,13,4,1,14,5,15,11,10,12,6,2"
14264,commdev-image-keyboard-response,337,702546,learnblock1,682.3999998569489,img/planet5_right.png,5,Community 2,NA,TRUE,j,j,NA,NA,NA,3,6,"9,3,8,7,13,4,1,14,5,15,11,10,12,6,2"
14264,commdev-image-keyboard-response,338,703798,learnblock1,798.1000001430511,img/planet1_left.png,1,Community 2,NA,TRUE,f,f,NA,NA,NA,3,6,"9,3,8,7,13,4,1,14,5,15,11,10,12,6,2"
14264,commdev-image-keyboard-response,339,705049,learnblock1,559.1000001430511,img/planet4_right.png,4,Community 2,NA,TRUE,j,j,NA,NA,NA,3,6,"9,3,8,7,13,4,1,14,5,15,11,10,12,6,2"
14264,commdev-image-keyboard-response,340,706301,learnblock1,710.5999999046326,img/planet7_left.png,7,Community 1,NA,TRUE,f,f,NA,NA,NA,3,6,"9,3,8,7,13,4,1,14,5,15,11,10,12,6,2"
14264,commdev-image-keyboard-response,341,707554,learnblock1,580.2000000476837,img/planet9_right.png,9,Community 1,NA,TRUE,j,j,NA,NA,NA,3,6,"9,3,8,7,13,4,1,14,5,15,11,10,12,6,2"
14264,commdev-image-keyboard-response,342,708805,learnblock1,770.3999998569489,img/planet8_left.png,8,Community 1,NA,TRUE,f,f,NA,NA,NA,3,6,"9,3,8,7,13,4,1,14,5,15,11,10,12,6,2"
14264,commdev-image-keyboard-response,343,710057,learnblock1,557.2999999523163,img/planet13_right.png,13,Community 1,NA,TRUE,j,j,NA,NA,NA,3,6,"9,3,8,7,13,4,1,14,5,15,11,10,12,6,2"
14264,commdev-image-keyboard-response,344,711322,learnblock1,534.5999999046326,img/planet9_right.png,9,Community 1,NA,TRUE,j,j,NA,NA,NA,3,6,"9,3,8,7,13,4,1,14,5,15,11,10,12,6,2"
14264,commdev-image-keyboard-response,345,712573,learnblock1,685.7000000476837,img/planet8_right.png,8,Community 1,NA,TRUE,j,j,NA,NA,NA,3,6,"9,3,8,7,13,4,1,14,5,15,11,10,12,6,2"
14264,commdev-image-keyboard-response,346,713825,learnblock1,976.2000000476837,img/planet3_left.png,3,Community 1,NA,TRUE,f,f,NA,NA,NA,3,6,"9,3,8,7,13,4,1,14,5,15,11,10,12,6,2"
14264,commdev-image-keyboard-response,347,715076,learnblock1,1028.5,img/planet7_left.png,7,Community 1,NA,TRUE,f,f,NA,NA,NA,3,6,"9,3,8,7,13,4,1,14,5,15,11,10,12,6,2"
14264,commdev-image-keyboard-response,351,1034788,learnblock2,730.8999998569489,img/planet9_left.png,9,Community 1,NA,TRUE,f,f,NA,NA,NA,3,6,"9,3,8,7,13,4,1,14,5,15,11,10,12,6,2"
14264,commdev-image-keyboard-response,352,1036039,learnblock2,555.2999999523163,img/planet3_right.png,3,Community 1,NA,TRUE,j,j,NA,NA,NA,3,6,"9,3,8,7,13,4,1,14,5,15,11,10,12,6,2"
14264,commdev-image-keyboard-response,353,1037290,learnblock2,590,img/planet8_right.png,8,Community 1,NA,TRUE,j,j,NA,NA,NA,3,6,"9,3,8,7,13,4,1,14,5,15,11,10,12,6,2"
14264,commdev-image-keyboard-response,354,1038542,learnblock2,537.7000000476837,img/planet7_right.png,7,Community 1,NA,TRUE,j,j,NA,NA,NA,3,6,"9,3,8,7,13,4,1,14,5,15,11,10,12,6,2"
14264,commdev-image-keyboard-response,355,1039794,learnblock2,620.5999999046326,img/planet9_right.png,9,Community 1,NA,TRUE,j,j,NA,NA,NA,3,6,"9,3,8,7,13,4,1,14,5,15,11,10,12,6,2"
14264,commdev-image-keyboard-response,356,1041047,learnblock2,632,img/planet8_left.png,8,Community 1,NA,TRUE,f,f,NA,NA,NA,3,6,"9,3,8,7,13,4,1,14,5,15,11,10,12,6,2"
14264,commdev-image-keyboard-response,357,1042299,learnblock2,587.3999998569489,img/planet13_left.png,13,Community 1,NA,TRUE,f,f,NA,NA,NA,3,6,"9,3,8,7,13,4,1,14,5,15,11,10,12,6,2"
14264,commdev-image-keyboard-response,358,1043551,learnblock2,570.9000000953674,img/planet9_left.png,9,Community 1,NA,TRUE,f,f,NA,NA,NA,3,6,"9,3,8,7,13,4,1,14,5,15,11,10,12,6,2"
14264,commdev-image-keyboard-response,359,1044802,learnblock2,809.3999998569489,img/planet13_left.png,13,Community 1,NA,TRUE,f,f,NA,NA,NA,3,6,"9,3,8,7,13,4,1,14,5,15,11,10,12,6,2"
14264,commdev-image-keyboard-response,360,1046055,learnblock2,673.5999999046326,img/planet11_left.png,11,Community 3,NA,TRUE,f,f,NA,NA,NA,3,6,"9,3,8,7,13,4,1,14,5,15,11,10,12,6,2"
14264,commdev-image-keyboard-response,361,1047307,learnblock2,600.8999998569489,img/planet13_right.png,13,Community 1,NA,TRUE,j,j,NA,NA,NA,3,6,"9,3,8,7,13,4,1,14,5,15,11,10,12,6,2"
14264,commdev-image-keyboard-response,362,1048559,learnblock2,662.5,img/planet8_right.png,8,Community 1,NA,TRUE,j,j,NA,NA,NA,3,6,"9,3,8,7,13,4,1,14,5,15,11,10,12,6,2"
14264,commdev-image-keyboard-response,363,1049819,learnblock2,673.1000001430511,img/planet9_left.png,9,Community 1,NA,TRUE,f,f,NA,NA,NA,3,6,"9,3,8,7,13,4,1,14,5,15,11,10,12,6,2"
14264,commdev-image-keyboard-response,364,1051071,learnblock2,797.3999998569489,img/planet7_left.png,7,Community 1,NA,TRUE,f,f,NA,NA,NA,3,6,"9,3,8,7,13,4,1,14,5,15,11,10,12,6,2"
14264,commdev-image-keyboard-response,365,1052323,learnblock2,621.2999999523163,img/planet9_right.png,9,Community 1,NA,TRUE,j,j,NA,NA,NA,3,6,"9,3,8,7,13,4,1,14,5,15,11,10,12,6,2"
14264,commdev-image-keyboard-response,366,1053578,learnblock2,718.2000000476837,img/planet3_right.png,3,Community 1,NA,TRUE,j,j,NA,NA,NA,3,6,"9,3,8,7,13,4,1,14,5,15,11,10,12,6,2"
14264,commdev-image-keyboard-response,367,1054830,learnblock2,724.0999999046326,img/planet8_right.png,8,Community 1,NA,TRUE,j,j,NA,NA,NA,3,6,"9,3,8,7,13,4,1,14,5,15,11,10,12,6,2"
14264,commdev-image-keyboard-response,368,1056081,learnblock2,596.7999999523163,img/planet9_left.png,9,Community 1,NA,TRUE,f,f,NA,NA,NA,3,6,"9,3,8,7,13,4,1,14,5,15,11,10,12,6,2"
14264,commdev-image-keyboard-response,369,1057332,learnblock2,603.9000000953674,img/planet8_left.png,8,Community 1,NA,TRUE,f,f,NA,NA,NA,3,6,"9,3,8,7,13,4,1,14,5,15,11,10,12,6,2"
14264,commdev-image-keyboard-response,370,1058584,learnblock2,598,img/planet9_right.png,9,Community 1,NA,TRUE,j,j,NA,NA,NA,3,6,"9,3,8,7,13,4,1,14,5,15,11,10,12,6,2"
14264,commdev-image-keyboard-response,371,1059835,learnblock2,777.7999999523163,img/planet3_left.png,3,Community 1,NA,TRUE,f,f,NA,NA,NA,3,6,"9,3,8,7,13,4,1,14,5,15,11,10,12,6,2"
14264,commdev-image-keyboard-response,372,1061086,learnblock2,842.2000000476837,img/planet13_left.png,13,Community 1,NA,TRUE,f,f,NA,NA,NA,3,6,"9,3,8,7,13,4,1,14,5,15,11,10,12,6,2"
14264,commdev-image-keyboard-response,373,1062338,learnblock2,726.5,img/planet9_left.png,9,Community 1,NA,TRUE,f,f,NA,NA,NA,3,6,"9,3,8,7,13,4,1,14,5,15,11,10,12,6,2"
14264,commdev-image-keyboard-response,374,1063589,learnblock2,725.3999998569489,img/planet13_right.png,13,Community 1,NA,TRUE,j,j,NA,NA,NA,3,6,"9,3,8,7,13,4,1,14,5,15,11,10,12,6,2"
14264,commdev-image-keyboard-response,375,1064847,learnblock2,642.0999999046326,img/planet11_right.png,11,Community 3,NA,TRUE,j,j,NA,NA,NA,3,6,"9,3,8,7,13,4,1,14,5,15,11,10,12,6,2"
14264,commdev-image-keyboard-response,376,1066098,learnblock2,701.2000000476837,img/planet12_right.png,12,Community 3,NA,TRUE,j,j,NA,NA,NA,3,6,"9,3,8,7,13,4,1,14,5,15,11,10,12,6,2"
14264,commdev-image-keyboard-response,377,1067349,learnblock2,747.6999998092651,img/planet10_right.png,10,Community 3,NA,TRUE,j,j,NA,NA,NA,3,6,"9,3,8,7,13,4,1,14,5,15,11,10,12,6,2"
14264,commdev-image-keyboard-response,378,1068601,learnblock2,848.9000000953674,img/planet14_left.png,14,Community 2,NA,TRUE,f,f,NA,NA,NA,3,6,"9,3,8,7,13,4,1,14,5,15,11,10,12,6,2"
14264,commdev-image-keyboard-response,379,1069854,learnblock2,653.7000000476837,img/planet1_right.png,1,Community 2,NA,TRUE,j,j,NA,NA,NA,3,6,"9,3,8,7,13,4,1,14,5,15,11,10,12,6,2"
14264,commdev-image-keyboard-response,380,1071106,learnblock2,693,img/planet4_left.png,4,Community 2,NA,TRUE,f,f,NA,NA,NA,3,6,"9,3,8,7,13,4,1,14,5,15,11,10,12,6,2"
14264,commdev-image-keyboard-response,381,1072361,learnblock2,686.2000000476837,img/planet5_right.png,5,Community 2,NA,TRUE,j,j,NA,NA,NA,3,6,"9,3,8,7,13,4,1,14,5,15,11,10,12,6,2"
14264,commdev-image-keyboard-response,382,1073612,learnblock2,579.7000000476837,img/planet4_right.png,4,Community 2,NA,TRUE,j,j,NA,NA,NA,3,6,"9,3,8,7,13,4,1,14,5,15,11,10,12,6,2"
14264,commdev-image-keyboard-response,383,1074864,learnblock2,708.6000001430511,img/planet1_left.png,1,Community 2,NA,TRUE,f,f,NA,NA,NA,3,6,"9,3,8,7,13,4,1,14,5,15,11,10,12,6,2"
14264,commdev-image-keyboard-response,384,1076116,learnblock2,1022.2000000476837,img/planet5_right.png,5,Community 2,NA,TRUE,j,j,NA,NA,NA,3,6,"9,3,8,7,13,4,1,14,5,15,11,10,12,6,2"
14264,commdev-image-keyboard-response,385,1077367,learnblock2,null,img/planet15_left.png,15,Community 2,NA,FALSE,null,f,NA,NA,NA,3,6,"9,3,8,7,13,4,1,14,5,15,11,10,12,6,2"
14264,commdev-image-keyboard-response,386,1078619,learnblock2,64.90000009536743,img/planet5_right.png,5,Community 2,NA,FALSE,f,j,NA,NA,NA,3,6,"9,3,8,7,13,4,1,14,5,15,11,10,12,6,2"
14264,commdev-image-keyboard-response,387,1079872,learnblock2,646,img/planet15_left.png,15,Community 2,NA,TRUE,f,f,NA,NA,NA,3,6,"9,3,8,7,13,4,1,14,5,15,11,10,12,6,2"
14264,commdev-image-keyboard-response,388,1081123,learnblock2,533.5999999046326,img/planet4_right.png,4,Community 2,NA,TRUE,j,j,NA,NA,NA,3,6,"9,3,8,7,13,4,1,14,5,15,11,10,12,6,2"
14264,commdev-image-keyboard-response,389,1082375,learnblock2,827.2999999523163,img/planet1_left.png,1,Community 2,NA,FALSE,j,f,NA,NA,NA,3,6,"9,3,8,7,13,4,1,14,5,15,11,10,12,6,2"
14264,commdev-image-keyboard-response,390,1083626,learnblock2,989.8999998569489,img/planet4_left.png,4,Community 2,NA,TRUE,f,f,NA,NA,NA,3,6,"9,3,8,7,13,4,1,14,5,15,11,10,12,6,2"
14264,commdev-image-keyboard-response,391,1084877,learnblock2,467,img/planet1_right.png,1,Community 2,NA,TRUE,j,j,NA,NA,NA,3,6,"9,3,8,7,13,4,1,14,5,15,11,10,12,6,2"
14264,commdev-image-keyboard-response,392,1086129,learnblock2,594.2000000476837,img/planet5_right.png,5,Community 2,NA,TRUE,j,j,NA,NA,NA,3,6,"9,3,8,7,13,4,1,14,5,15,11,10,12,6,2"
14264,commdev-image-keyboard-response,393,1087380,learnblock2,640.7000000476837,img/planet1_right.png,1,Community 2,NA,TRUE,j,j,NA,NA,NA,3,6,"9,3,8,7,13,4,1,14,5,15,11,10,12,6,2"
14264,commdev-image-keyboard-response,394,1088632,learnblock2,604.5999999046326,img/planet15_right.png,15,Community 2,NA,TRUE,j,j,NA,NA,NA,3,6,"9,3,8,7,13,4,1,14,5,15,11,10,12,6,2"
14264,commdev-image-keyboard-response,395,1089885,learnblock2,823.5,img/planet14_right.png,14,Community 2,NA,TRUE,j,j,NA,NA,NA,3,6,"9,3,8,7,13,4,1,14,5,15,11,10,12,6,2"
14264,commdev-image-keyboard-response,396,1091138,learnblock2,606.4000000953674,img/planet1_right.png,1,Community 2,NA,TRUE,j,j,NA,NA,NA,3,6,"9,3,8,7,13,4,1,14,5,15,11,10,12,6,2"
14264,commdev-image-keyboard-response,397,1092390,learnblock2,656.2999999523163,img/planet4_left.png,4,Community 2,NA,TRUE,f,f,NA,NA,NA,3,6,"9,3,8,7,13,4,1,14,5,15,11,10,12,6,2"
14264,commdev-image-keyboard-response,398,1093642,learnblock2,767,img/planet5_left.png,5,Community 2,NA,TRUE,f,f,NA,NA,NA,3,6,"9,3,8,7,13,4,1,14,5,15,11,10,12,6,2"
14264,commdev-image-keyboard-response,399,1094893,learnblock2,786.1000001430511,img/planet1_left.png,1,Community 2,NA,TRUE,f,f,NA,NA,NA,3,6,"9,3,8,7,13,4,1,14,5,15,11,10,12,6,2"
14264,commdev-image-keyboard-response,400,1096145,learnblock2,732.5,img/planet14_right.png,14,Community 2,NA,TRUE,j,j,NA,NA,NA,3,6,"9,3,8,7,13,4,1,14,5,15,11,10,12,6,2"
14264,commdev-image-keyboard-response,401,1097397,learnblock2,687.3999998569489,img/planet1_right.png,1,Community 2,NA,TRUE,j,j,NA,NA,NA,3,6,"9,3,8,7,13,4,1,14,5,15,11,10,12,6,2"
14264,commdev-image-keyboard-response,402,1098649,learnblock2,614.9000000953674,img/planet4_right.png,4,Community 2,NA,TRUE,j,j,NA,NA,NA,3,6,"9,3,8,7,13,4,1,14,5,15,11,10,12,6,2"
14264,commdev-image-keyboard-response,403,1099901,learnblock2,691.5,img/planet15_right.png,15,Community 2,NA,FALSE,f,j,NA,NA,NA,3,6,"9,3,8,7,13,4,1,14,5,15,11,10,12,6,2"
14264,commdev-image-keyboard-response,404,1101153,learnblock2,477.2000000476837,img/planet1_left.png,1,Community 2,NA,FALSE,j,f,NA,NA,NA,3,6,"9,3,8,7,13,4,1,14,5,15,11,10,12,6,2"
14264,commdev-image-keyboard-response,405,1102414,learnblock2,578.7000000476837,img/planet15_right.png,15,Community 2,NA,TRUE,j,j,NA,NA,NA,3,6,"9,3,8,7,13,4,1,14,5,15,11,10,12,6,2"
14264,commdev-image-keyboard-response,406,1103667,learnblock2,1177.9000000953674,img/planet5_left.png,5,Community 2,NA,TRUE,f,f,NA,NA,NA,3,6,"9,3,8,7,13,4,1,14,5,15,11,10,12,6,2"
14264,commdev-image-keyboard-response,407,1104919,learnblock2,null,img/planet15_left.png,15,Community 2,NA,FALSE,null,f,NA,NA,NA,3,6,"9,3,8,7,13,4,1,14,5,15,11,10,12,6,2"
14264,commdev-image-keyboard-response,408,1106170,learnblock2,913.2999999523163,img/planet5_left.png,5,Community 2,NA,TRUE,f,f,NA,NA,NA,3,6,"9,3,8,7,13,4,1,14,5,15,11,10,12,6,2"
14264,commdev-image-keyboard-response,409,1107422,learnblock2,674.3000001907349,img/planet1_left.png,1,Community 2,NA,FALSE,j,f,NA,NA,NA,3,6,"9,3,8,7,13,4,1,14,5,15,11,10,12,6,2"
14264,commdev-image-keyboard-response,410,1108674,learnblock2,697,img/planet5_left.png,5,Community 2,NA,TRUE,f,f,NA,NA,NA,3,6,"9,3,8,7,13,4,1,14,5,15,11,10,12,6,2"
14264,commdev-image-keyboard-response,411,1109932,learnblock2,632.1000001430511,img/planet15_left.png,15,Community 2,NA,TRUE,f,f,NA,NA,NA,3,6,"9,3,8,7,13,4,1,14,5,15,11,10,12,6,2"
14264,commdev-image-keyboard-response,412,1111184,learnblock2,611.5,img/planet1_left.png,1,Community 2,NA,TRUE,f,f,NA,NA,NA,3,6,"9,3,8,7,13,4,1,14,5,15,11,10,12,6,2"
14264,commdev-image-keyboard-response,413,1112444,learnblock2,628.4000000953674,img/planet14_right.png,14,Community 2,NA,TRUE,j,j,NA,NA,NA,3,6,"9,3,8,7,13,4,1,14,5,15,11,10,12,6,2"
14264,commdev-image-keyboard-response,414,1113696,learnblock2,605.7999999523163,img/planet10_left.png,10,Community 3,NA,FALSE,j,f,NA,NA,NA,3,6,"9,3,8,7,13,4,1,14,5,15,11,10,12,6,2"
14264,commdev-image-keyboard-response,415,1114947,learnblock2,529.9000000953674,img/planet2_left.png,2,Community 3,NA,TRUE,f,f,NA,NA,NA,3,6,"9,3,8,7,13,4,1,14,5,15,11,10,12,6,2"
14264,commdev-image-keyboard-response,416,1116198,learnblock2,744.9000000953674,img/planet11_left.png,11,Community 3,NA,TRUE,f,f,NA,NA,NA,3,6,"9,3,8,7,13,4,1,14,5,15,11,10,12,6,2"
14264,commdev-image-keyboard-response,417,1117450,learnblock2,1223.1999998092651,img/planet6_right.png,6,Community 3,NA,TRUE,j,j,NA,NA,NA,3,6,"9,3,8,7,13,4,1,14,5,15,11,10,12,6,2"
14264,commdev-image-keyboard-response,418,1118702,learnblock2,568.7999999523163,img/planet10_left.png,10,Community 3,NA,TRUE,f,f,NA,NA,NA,3,6,"9,3,8,7,13,4,1,14,5,15,11,10,12,6,2"
14264,commdev-image-keyboard-response,419,1119955,learnblock2,830.0999999046326,img/planet12_right.png,12,Community 3,NA,TRUE,j,j,NA,NA,NA,3,6,"9,3,8,7,13,4,1,14,5,15,11,10,12,6,2"
14264,commdev-image-keyboard-response,420,1121206,learnblock2,906,img/planet6_right.png,6,Community 3,NA,TRUE,j,j,NA,NA,NA,3,6,"9,3,8,7,13,4,1,14,5,15,11,10,12,6,2"
14264,commdev-image-keyboard-response,421,1122466,learnblock2,990.7000000476837,img/planet2_left.png,2,Community 3,NA,TRUE,f,f,NA,NA,NA,3,6,"9,3,8,7,13,4,1,14,5,15,11,10,12,6,2"
14264,commdev-image-keyboard-response,422,1123718,learnblock2,642.5,img/planet10_right.png,10,Community 3,NA,TRUE,j,j,NA,NA,NA,3,6,"9,3,8,7,13,4,1,14,5,15,11,10,12,6,2"
14264,commdev-image-keyboard-response,423,1124970,learnblock2,757.6000001430511,img/planet14_right.png,14,Community 2,NA,TRUE,j,j,NA,NA,NA,3,6,"9,3,8,7,13,4,1,14,5,15,11,10,12,6,2"
14264,commdev-image-keyboard-response,424,1126223,learnblock2,615.0999999046326,img/planet5_right.png,5,Community 2,NA,TRUE,j,j,NA,NA,NA,3,6,"9,3,8,7,13,4,1,14,5,15,11,10,12,6,2"
14264,commdev-image-keyboard-response,425,1127475,learnblock2,1123.7999999523163,img/planet15_right.png,15,Community 2,NA,TRUE,j,j,NA,NA,NA,3,6,"9,3,8,7,13,4,1,14,5,15,11,10,12,6,2"
14264,commdev-image-keyboard-response,426,1128726,learnblock2,524.2999999523163,img/planet14_left.png,14,Community 2,NA,TRUE,f,f,NA,NA,NA,3,6,"9,3,8,7,13,4,1,14,5,15,11,10,12,6,2"
14264,commdev-image-keyboard-response,427,1129978,learnblock2,661.7999999523163,img/planet1_right.png,1,Community 2,NA,TRUE,j,j,NA,NA,NA,3,6,"9,3,8,7,13,4,1,14,5,15,11,10,12,6,2"
14264,commdev-image-keyboard-response,428,1131230,learnblock2,710.5,img/planet5_right.png,5,Community 2,NA,TRUE,j,j,NA,NA,NA,3,6,"9,3,8,7,13,4,1,14,5,15,11,10,12,6,2"
14264,commdev-image-keyboard-response,429,1132481,learnblock2,561.1000001430511,img/planet14_left.png,14,Community 2,NA,FALSE,j,f,NA,NA,NA,3,6,"9,3,8,7,13,4,1,14,5,15,11,10,12,6,2"
14264,commdev-image-keyboard-response,430,1133732,learnblock2,423.5,img/planet10_right.png,10,Community 3,NA,TRUE,j,j,NA,NA,NA,3,6,"9,3,8,7,13,4,1,14,5,15,11,10,12,6,2"
14264,commdev-image-keyboard-response,431,1134984,learnblock2,553.5,img/planet14_left.png,14,Community 2,NA,TRUE,f,f,NA,NA,NA,3,6,"9,3,8,7,13,4,1,14,5,15,11,10,12,6,2"
14264,commdev-image-keyboard-response,432,1136236,learnblock2,680.5,img/planet1_right.png,1,Community 2,NA,FALSE,f,j,NA,NA,NA,3,6,"9,3,8,7,13,4,1,14,5,15,11,10,12,6,2"
14264,commdev-image-keyboard-response,433,1137487,learnblock2,610,img/planet4_right.png,4,Community 2,NA,TRUE,j,j,NA,NA,NA,3,6,"9,3,8,7,13,4,1,14,5,15,11,10,12,6,2"
14264,commdev-image-keyboard-response,434,1138739,learnblock2,773.2000000476837,img/planet7_right.png,7,Community 1,NA,TRUE,j,j,NA,NA,NA,3,6,"9,3,8,7,13,4,1,14,5,15,11,10,12,6,2"
14264,commdev-image-keyboard-response,435,1139991,learnblock2,925.9000000953674,img/planet9_left.png,9,Community 1,NA,TRUE,f,f,NA,NA,NA,3,6,"9,3,8,7,13,4,1,14,5,15,11,10,12,6,2"
14264,commdev-image-keyboard-response,436,1141242,learnblock2,784.5999999046326,img/planet7_left.png,7,Community 1,NA,TRUE,f,f,NA,NA,NA,3,6,"9,3,8,7,13,4,1,14,5,15,11,10,12,6,2"
14264,commdev-image-keyboard-response,437,1142494,learnblock2,940.5999999046326,img/planet4_left.png,4,Community 2,NA,TRUE,f,f,NA,NA,NA,3,6,"9,3,8,7,13,4,1,14,5,15,11,10,12,6,2"
14264,commdev-image-keyboard-response,438,1143746,learnblock2,691.8999998569489,img/planet15_right.png,15,Community 2,NA,TRUE,j,j,NA,NA,NA,3,6,"9,3,8,7,13,4,1,14,5,15,11,10,12,6,2"
14264,commdev-image-keyboard-response,439,1144998,learnblock2,1090.2999999523163,img/planet1_left.png,1,Community 2,NA,TRUE,f,f,NA,NA,NA,3,6,"9,3,8,7,13,4,1,14,5,15,11,10,12,6,2"
14264,commdev-image-keyboard-response,440,1146250,learnblock2,594.5999999046326,img/planet15_right.png,15,Community 2,NA,TRUE,j,j,NA,NA,NA,3,6,"9,3,8,7,13,4,1,14,5,15,11,10,12,6,2"
14264,commdev-image-keyboard-response,441,1147502,learnblock2,604.5999999046326,img/planet4_left.png,4,Community 2,NA,TRUE,f,f,NA,NA,NA,3,6,"9,3,8,7,13,4,1,14,5,15,11,10,12,6,2"
14264,commdev-image-keyboard-response,442,1148754,learnblock2,761,img/planet5_left.png,5,Community 2,NA,TRUE,f,f,NA,NA,NA,3,6,"9,3,8,7,13,4,1,14,5,15,11,10,12,6,2"
14264,commdev-image-keyboard-response,443,1150006,learnblock2,611,img/planet1_right.png,1,Community 2,NA,TRUE,j,j,NA,NA,NA,3,6,"9,3,8,7,13,4,1,14,5,15,11,10,12,6,2"
14264,commdev-image-keyboard-response,444,1151257,learnblock2,596.8999998569489,img/planet5_left.png,5,Community 2,NA,TRUE,f,f,NA,NA,NA,3,6,"9,3,8,7,13,4,1,14,5,15,11,10,12,6,2"
14264,commdev-image-keyboard-response,445,1152509,learnblock2,714.9000000953674,img/planet14_left.png,14,Community 2,NA,FALSE,j,f,NA,NA,NA,3,6,"9,3,8,7,13,4,1,14,5,15,11,10,12,6,2"
14264,commdev-image-keyboard-response,446,1153760,learnblock2,992.5,img/planet15_left.png,15,Community 2,NA,TRUE,f,f,NA,NA,NA,3,6,"9,3,8,7,13,4,1,14,5,15,11,10,12,6,2"
14264,commdev-image-keyboard-response,447,1155012,learnblock2,495.2000000476837,img/planet5_left.png,5,Community 2,NA,FALSE,j,f,NA,NA,NA,3,6,"9,3,8,7,13,4,1,14,5,15,11,10,12,6,2"
14264,commdev-image-keyboard-response,448,1156264,learnblock2,550.5999999046326,img/planet1_right.png,1,Community 2,NA,TRUE,j,j,NA,NA,NA,3,6,"9,3,8,7,13,4,1,14,5,15,11,10,12,6,2"
14264,commdev-image-keyboard-response,449,1157515,learnblock2,517.2000000476837,img/planet5_right.png,5,Community 2,NA,TRUE,j,j,NA,NA,NA,3,6,"9,3,8,7,13,4,1,14,5,15,11,10,12,6,2"
14264,commdev-image-keyboard-response,450,1158767,learnblock2,681.2000000476837,img/planet14_right.png,14,Community 2,NA,TRUE,j,j,NA,NA,NA,3,6,"9,3,8,7,13,4,1,14,5,15,11,10,12,6,2"
14264,commdev-image-keyboard-response,451,1160019,learnblock2,642,img/planet15_left.png,15,Community 2,NA,TRUE,f,f,NA,NA,NA,3,6,"9,3,8,7,13,4,1,14,5,15,11,10,12,6,2"
14264,commdev-image-keyboard-response,452,1161271,learnblock2,675.3999998569489,img/planet5_right.png,5,Community 2,NA,FALSE,f,j,NA,NA,NA,3,6,"9,3,8,7,13,4,1,14,5,15,11,10,12,6,2"
14264,commdev-image-keyboard-response,453,1162522,learnblock2,628.3000001907349,img/planet15_left.png,15,Community 2,NA,TRUE,f,f,NA,NA,NA,3,6,"9,3,8,7,13,4,1,14,5,15,11,10,12,6,2"
14264,commdev-image-keyboard-response,454,1163774,learnblock2,409.2999999523163,img/planet1_left.png,1,Community 2,NA,TRUE,f,f,NA,NA,NA,3,6,"9,3,8,7,13,4,1,14,5,15,11,10,12,6,2"
14264,commdev-image-keyboard-response,455,1165026,learnblock2,776,img/planet4_right.png,4,Community 2,NA,TRUE,j,j,NA,NA,NA,3,6,"9,3,8,7,13,4,1,14,5,15,11,10,12,6,2"
14264,commdev-image-keyboard-response,456,1166278,learnblock2,725.7000000476837,img/planet15_right.png,15,Community 2,NA,TRUE,j,j,NA,NA,NA,3,6,"9,3,8,7,13,4,1,14,5,15,11,10,12,6,2"
14264,commdev-image-keyboard-response,457,1167530,learnblock2,796.2000000476837,img/planet4_right.png,4,Community 2,NA,TRUE,j,j,NA,NA,NA,3,6,"9,3,8,7,13,4,1,14,5,15,11,10,12,6,2"
14264,commdev-image-keyboard-response,458,1168781,learnblock2,698.5999999046326,img/planet5_right.png,5,Community 2,NA,TRUE,j,j,NA,NA,NA,3,6,"9,3,8,7,13,4,1,14,5,15,11,10,12,6,2"
14264,commdev-image-keyboard-response,459,1170033,learnblock2,669.8999998569489,img/planet14_left.png,14,Community 2,NA,TRUE,f,f,NA,NA,NA,3,6,"9,3,8,7,13,4,1,14,5,15,11,10,12,6,2"
14264,commdev-image-keyboard-response,460,1171285,learnblock2,530.7000000476837,img/planet5_right.png,5,Community 2,NA,TRUE,j,j,NA,NA,NA,3,6,"9,3,8,7,13,4,1,14,5,15,11,10,12,6,2"
14264,commdev-image-keyboard-response,461,1172536,learnblock2,778.2999999523163,img/planet4_right.png,4,Community 2,NA,TRUE,j,j,NA,NA,NA,3,6,"9,3,8,7,13,4,1,14,5,15,11,10,12,6,2"
14264,commdev-image-keyboard-response,462,1173788,learnblock2,754.0999999046326,img/planet15_left.png,15,Community 2,NA,TRUE,f,f,NA,NA,NA,3,6,"9,3,8,7,13,4,1,14,5,15,11,10,12,6,2"
14264,commdev-image-keyboard-response,463,1175040,learnblock2,852.3999998569489,img/planet4_left.png,4,Community 2,NA,FALSE,j,f,NA,NA,NA,3,6,"9,3,8,7,13,4,1,14,5,15,11,10,12,6,2"
14264,commdev-image-keyboard-response,464,1176292,learnblock2,1039.2999999523163,img/planet7_left.png,7,Community 1,NA,TRUE,f,f,NA,NA,NA,3,6,"9,3,8,7,13,4,1,14,5,15,11,10,12,6,2"
14264,commdev-image-keyboard-response,465,1177543,learnblock2,687.4000000953674,img/planet9_left.png,9,Community 1,NA,TRUE,f,f,NA,NA,NA,3,6,"9,3,8,7,13,4,1,14,5,15,11,10,12,6,2"
14264,commdev-image-keyboard-response,466,1178795,learnblock2,632.7000000476837,img/planet8_right.png,8,Community 1,NA,TRUE,j,j,NA,NA,NA,3,6,"9,3,8,7,13,4,1,14,5,15,11,10,12,6,2"
14264,commdev-image-keyboard-response,467,1180046,learnblock2,666.7000000476837,img/planet9_left.png,9,Community 1,NA,TRUE,f,f,NA,NA,NA,3,6,"9,3,8,7,13,4,1,14,5,15,11,10,12,6,2"
14264,commdev-image-keyboard-response,468,1181298,learnblock2,538.4000000953674,img/planet13_right.png,13,Community 1,NA,TRUE,j,j,NA,NA,NA,3,6,"9,3,8,7,13,4,1,14,5,15,11,10,12,6,2"
14264,commdev-image-keyboard-response,469,1182549,learnblock2,689.2999999523163,img/planet3_left.png,3,Community 1,NA,TRUE,f,f,NA,NA,NA,3,6,"9,3,8,7,13,4,1,14,5,15,11,10,12,6,2"
14264,commdev-image-keyboard-response,470,1183800,learnblock2,536,img/planet13_right.png,13,Community 1,NA,TRUE,j,j,NA,NA,NA,3,6,"9,3,8,7,13,4,1,14,5,15,11,10,12,6,2"
14264,commdev-image-keyboard-response,471,1185053,learnblock2,629.2999999523163,img/planet11_left.png,11,Community 3,NA,TRUE,f,f,NA,NA,NA,3,6,"9,3,8,7,13,4,1,14,5,15,11,10,12,6,2"
14264,commdev-image-keyboard-response,472,1186304,learnblock2,741.2000000476837,img/planet2_left.png,2,Community 3,NA,TRUE,f,f,NA,NA,NA,3,6,"9,3,8,7,13,4,1,14,5,15,11,10,12,6,2"
14264,commdev-image-keyboard-response,473,1187555,learnblock2,null,img/planet12_left.png,12,Community 3,NA,FALSE,null,f,NA,NA,NA,3,6,"9,3,8,7,13,4,1,14,5,15,11,10,12,6,2"
14264,commdev-image-keyboard-response,474,1188808,learnblock2,11.700000047683716,img/planet10_left.png,10,Community 3,NA,TRUE,f,f,NA,NA,NA,3,6,"9,3,8,7,13,4,1,14,5,15,11,10,12,6,2"
14264,commdev-image-keyboard-response,475,1190060,learnblock2,682.7999999523163,img/planet6_left.png,6,Community 3,NA,TRUE,f,f,NA,NA,NA,3,6,"9,3,8,7,13,4,1,14,5,15,11,10,12,6,2"
14264,commdev-image-keyboard-response,476,1191312,learnblock2,544.9000000953674,img/planet12_left.png,12,Community 3,NA,TRUE,f,f,NA,NA,NA,3,6,"9,3,8,7,13,4,1,14,5,15,11,10,12,6,2"
14264,commdev-image-keyboard-response,477,1192562,learnblock2,595.6000001430511,img/planet10_right.png,10,Community 3,NA,TRUE,j,j,NA,NA,NA,3,6,"9,3,8,7,13,4,1,14,5,15,11,10,12,6,2"
14264,commdev-image-keyboard-response,478,1193814,learnblock2,893.2000000476837,img/planet14_right.png,14,Community 2,NA,TRUE,j,j,NA,NA,NA,3,6,"9,3,8,7,13,4,1,14,5,15,11,10,12,6,2"
14264,commdev-image-keyboard-response,479,1195066,learnblock2,807.3999998569489,img/planet5_left.png,5,Community 2,NA,TRUE,f,f,NA,NA,NA,3,6,"9,3,8,7,13,4,1,14,5,15,11,10,12,6,2"
14264,commdev-image-keyboard-response,480,1196318,learnblock2,1076.5,img/planet14_right.png,14,Community 2,NA,TRUE,j,j,NA,NA,NA,3,6,"9,3,8,7,13,4,1,14,5,15,11,10,12,6,2"
14264,commdev-image-keyboard-response,481,1197570,learnblock2,811,img/planet10_left.png,10,Community 3,NA,TRUE,f,f,NA,NA,NA,3,6,"9,3,8,7,13,4,1,14,5,15,11,10,12,6,2"
14264,commdev-image-keyboard-response,482,1198821,learnblock2,null,img/planet6_left.png,6,Community 3,NA,FALSE,null,f,NA,NA,NA,3,6,"9,3,8,7,13,4,1,14,5,15,11,10,12,6,2"
14264,commdev-image-keyboard-response,483,1200072,learnblock2,196.59999990463257,img/planet10_left.png,10,Community 3,NA,TRUE,f,f,NA,NA,NA,3,6,"9,3,8,7,13,4,1,14,5,15,11,10,12,6,2"
14264,commdev-image-keyboard-response,484,1201323,learnblock2,629.7999999523163,img/planet12_left.png,12,Community 3,NA,TRUE,f,f,NA,NA,NA,3,6,"9,3,8,7,13,4,1,14,5,15,11,10,12,6,2"
14264,commdev-image-keyboard-response,485,1202575,learnblock2,667.2000000476837,img/planet11_left.png,11,Community 3,NA,TRUE,f,f,NA,NA,NA,3,6,"9,3,8,7,13,4,1,14,5,15,11,10,12,6,2"
14264,commdev-image-keyboard-response,486,1203826,learnblock2,533.4000000953674,img/planet12_right.png,12,Community 3,NA,TRUE,j,j,NA,NA,NA,3,6,"9,3,8,7,13,4,1,14,5,15,11,10,12,6,2"
14264,commdev-image-keyboard-response,487,1205078,learnblock2,726.7000000476837,img/planet11_left.png,11,Community 3,NA,TRUE,f,f,NA,NA,NA,3,6,"9,3,8,7,13,4,1,14,5,15,11,10,12,6,2"
14264,commdev-image-keyboard-response,488,1206330,learnblock2,687.5999999046326,img/planet2_right.png,2,Community 3,NA,TRUE,j,j,NA,NA,NA,3,6,"9,3,8,7,13,4,1,14,5,15,11,10,12,6,2"
14264,commdev-image-keyboard-response,489,1207581,learnblock2,709.1000001430511,img/planet6_left.png,6,Community 3,NA,TRUE,f,f,NA,NA,NA,3,6,"9,3,8,7,13,4,1,14,5,15,11,10,12,6,2"
14264,commdev-image-keyboard-response,490,1208833,learnblock2,724.3999998569489,img/planet2_left.png,2,Community 3,NA,TRUE,f,f,NA,NA,NA,3,6,"9,3,8,7,13,4,1,14,5,15,11,10,12,6,2"
14264,commdev-image-keyboard-response,491,1210084,learnblock2,1023.3999998569489,img/planet12_left.png,12,Community 3,NA,TRUE,f,f,NA,NA,NA,3,6,"9,3,8,7,13,4,1,14,5,15,11,10,12,6,2"
14264,commdev-image-keyboard-response,492,1211335,learnblock2,633.2000000476837,img/planet2_right.png,2,Community 3,NA,TRUE,j,j,NA,NA,NA,3,6,"9,3,8,7,13,4,1,14,5,15,11,10,12,6,2"
14264,commdev-image-keyboard-response,493,1212587,learnblock2,707.2999999523163,img/planet6_left.png,6,Community 3,NA,TRUE,f,f,NA,NA,NA,3,6,"9,3,8,7,13,4,1,14,5,15,11,10,12,6,2"
14264,commdev-image-keyboard-response,494,1213838,learnblock2,939.3999998569489,img/planet2_left.png,2,Community 3,NA,TRUE,f,f,NA,NA,NA,3,6,"9,3,8,7,13,4,1,14,5,15,11,10,12,6,2"
14264,commdev-image-keyboard-response,495,1215090,learnblock2,721.7999999523163,img/planet6_right.png,6,Community 3,NA,TRUE,j,j,NA,NA,NA,3,6,"9,3,8,7,13,4,1,14,5,15,11,10,12,6,2"
14264,commdev-image-keyboard-response,496,1216341,learnblock2,605.4000000953674,img/planet2_right.png,2,Community 3,NA,TRUE,j,j,NA,NA,NA,3,6,"9,3,8,7,13,4,1,14,5,15,11,10,12,6,2"
14264,commdev-image-keyboard-response,497,1217592,learnblock2,628.9000000953674,img/planet11_right.png,11,Community 3,NA,TRUE,j,j,NA,NA,NA,3,6,"9,3,8,7,13,4,1,14,5,15,11,10,12,6,2"
14264,commdev-image-keyboard-response,498,1218844,learnblock2,936.7000000476837,img/planet12_left.png,12,Community 3,NA,TRUE,f,f,NA,NA,NA,3,6,"9,3,8,7,13,4,1,14,5,15,11,10,12,6,2"
14264,commdev-image-keyboard-response,499,1220096,learnblock2,855.7000000476837,img/planet10_right.png,10,Community 3,NA,TRUE,j,j,NA,NA,NA,3,6,"9,3,8,7,13,4,1,14,5,15,11,10,12,6,2"
14264,commdev-image-keyboard-response,500,1221347,learnblock2,987.4000000953674,img/planet6_right.png,6,Community 3,NA,TRUE,j,j,NA,NA,NA,3,6,"9,3,8,7,13,4,1,14,5,15,11,10,12,6,2"
14264,commdev-image-keyboard-response,501,1222598,learnblock2,null,img/planet2_right.png,2,Community 3,NA,FALSE,null,j,NA,NA,NA,3,6,"9,3,8,7,13,4,1,14,5,15,11,10,12,6,2"
14264,commdev-image-keyboard-response,502,1223849,learnblock2,915.6000001430511,img/planet12_right.png,12,Community 3,NA,TRUE,j,j,NA,NA,NA,3,6,"9,3,8,7,13,4,1,14,5,15,11,10,12,6,2"
14264,commdev-image-keyboard-response,503,1225101,learnblock2,648.8000001907349,img/planet6_right.png,6,Community 3,NA,TRUE,j,j,NA,NA,NA,3,6,"9,3,8,7,13,4,1,14,5,15,11,10,12,6,2"
14264,commdev-image-keyboard-response,504,1226352,learnblock2,100.40000009536743,img/planet10_left.png,10,Community 3,NA,FALSE,j,f,NA,NA,NA,3,6,"9,3,8,7,13,4,1,14,5,15,11,10,12,6,2"
14264,commdev-image-keyboard-response,505,1227609,learnblock2,480,img/planet2_right.png,2,Community 3,NA,TRUE,j,j,NA,NA,NA,3,6,"9,3,8,7,13,4,1,14,5,15,11,10,12,6,2"
14264,commdev-image-keyboard-response,506,1228866,learnblock2,622.1000001430511,img/planet10_left.png,10,Community 3,NA,TRUE,f,f,NA,NA,NA,3,6,"9,3,8,7,13,4,1,14,5,15,11,10,12,6,2"
14264,commdev-image-keyboard-response,507,1230117,learnblock2,809.1999998092651,img/planet14_left.png,14,Community 2,NA,FALSE,j,f,NA,NA,NA,3,6,"9,3,8,7,13,4,1,14,5,15,11,10,12,6,2"
14264,commdev-image-keyboard-response,508,1231369,learnblock2,619.5,img/planet10_right.png,10,Community 3,NA,TRUE,j,j,NA,NA,NA,3,6,"9,3,8,7,13,4,1,14,5,15,11,10,12,6,2"
14264,commdev-image-keyboard-response,509,1232621,learnblock2,614.7999999523163,img/planet14_right.png,14,Community 2,NA,TRUE,j,j,NA,NA,NA,3,6,"9,3,8,7,13,4,1,14,5,15,11,10,12,6,2"
14264,commdev-image-keyboard-response,510,1233872,learnblock2,581,img/planet1_right.png,1,Community 2,NA,TRUE,j,j,NA,NA,NA,3,6,"9,3,8,7,13,4,1,14,5,15,11,10,12,6,2"
14264,commdev-image-keyboard-response,511,1235124,learnblock2,827.7000000476837,img/planet4_right.png,4,Community 2,NA,TRUE,j,j,NA,NA,NA,3,6,"9,3,8,7,13,4,1,14,5,15,11,10,12,6,2"
14264,commdev-image-keyboard-response,512,1236376,learnblock2,721.9000000953674,img/planet1_left.png,1,Community 2,NA,TRUE,f,f,NA,NA,NA,3,6,"9,3,8,7,13,4,1,14,5,15,11,10,12,6,2"
14264,commdev-image-keyboard-response,513,1237627,learnblock2,561.6000001430511,img/planet14_right.png,14,Community 2,NA,TRUE,j,j,NA,NA,NA,3,6,"9,3,8,7,13,4,1,14,5,15,11,10,12,6,2"
14264,commdev-image-keyboard-response,514,1238879,learnblock2,709.3999998569489,img/planet15_left.png,15,Community 2,NA,TRUE,f,f,NA,NA,NA,3,6,"9,3,8,7,13,4,1,14,5,15,11,10,12,6,2"
14264,commdev-image-keyboard-response,515,1240131,learnblock2,942.4000000953674,img/planet1_left.png,1,Community 2,NA,TRUE,f,f,NA,NA,NA,3,6,"9,3,8,7,13,4,1,14,5,15,11,10,12,6,2"
14264,commdev-image-keyboard-response,516,1241382,learnblock2,765.3999998569489,img/planet15_right.png,15,Community 2,NA,TRUE,j,j,NA,NA,NA,3,6,"9,3,8,7,13,4,1,14,5,15,11,10,12,6,2"
14264,commdev-image-keyboard-response,517,1242634,learnblock2,642.5999999046326,img/planet4_right.png,4,Community 2,NA,TRUE,j,j,NA,NA,NA,3,6,"9,3,8,7,13,4,1,14,5,15,11,10,12,6,2"
14264,commdev-image-keyboard-response,518,1243885,learnblock2,723.0999999046326,img/planet15_right.png,15,Community 2,NA,TRUE,j,j,NA,NA,NA,3,6,"9,3,8,7,13,4,1,14,5,15,11,10,12,6,2"
14264,commdev-image-keyboard-response,519,1245137,learnblock2,699.9000000953674,img/planet4_left.png,4,Community 2,NA,TRUE,f,f,NA,NA,NA,3,6,"9,3,8,7,13,4,1,14,5,15,11,10,12,6,2"
14264,commdev-image-keyboard-response,520,1246388,learnblock2,624.8000001907349,img/planet15_right.png,15,Community 2,NA,TRUE,j,j,NA,NA,NA,3,6,"9,3,8,7,13,4,1,14,5,15,11,10,12,6,2"
14264,commdev-image-keyboard-response,521,1247640,learnblock2,638.7000000476837,img/planet4_left.png,4,Community 2,NA,TRUE,f,f,NA,NA,NA,3,6,"9,3,8,7,13,4,1,14,5,15,11,10,12,6,2"
14264,commdev-image-keyboard-response,522,1248891,learnblock2,391.7999999523163,img/planet5_right.png,5,Community 2,NA,TRUE,j,j,NA,NA,NA,3,6,"9,3,8,7,13,4,1,14,5,15,11,10,12,6,2"
14264,commdev-image-keyboard-response,523,1250144,learnblock2,585.7000000476837,img/planet1_left.png,1,Community 2,NA,TRUE,f,f,NA,NA,NA,3,6,"9,3,8,7,13,4,1,14,5,15,11,10,12,6,2"
14264,commdev-image-keyboard-response,524,1251395,learnblock2,415.2999999523163,img/planet15_left.png,15,Community 2,NA,FALSE,j,f,NA,NA,NA,3,6,"9,3,8,7,13,4,1,14,5,15,11,10,12,6,2"
14264,commdev-image-keyboard-response,525,1252647,learnblock2,260.5,img/planet5_right.png,5,Community 2,NA,TRUE,j,j,NA,NA,NA,3,6,"9,3,8,7,13,4,1,14,5,15,11,10,12,6,2"
14264,commdev-image-keyboard-response,526,1253899,learnblock2,491.60000014305115,img/planet1_right.png,1,Community 2,NA,TRUE,j,j,NA,NA,NA,3,6,"9,3,8,7,13,4,1,14,5,15,11,10,12,6,2"
14264,commdev-image-keyboard-response,527,1255150,learnblock2,576.1000001430511,img/planet14_left.png,14,Community 2,NA,TRUE,f,f,NA,NA,NA,3,6,"9,3,8,7,13,4,1,14,5,15,11,10,12,6,2"
14264,commdev-image-keyboard-response,528,1256402,learnblock2,616.2000000476837,img/planet15_right.png,15,Community 2,NA,TRUE,j,j,NA,NA,NA,3,6,"9,3,8,7,13,4,1,14,5,15,11,10,12,6,2"
14264,commdev-image-keyboard-response,529,1257655,learnblock2,711.0999999046326,img/planet14_right.png,14,Community 2,NA,TRUE,j,j,NA,NA,NA,3,6,"9,3,8,7,13,4,1,14,5,15,11,10,12,6,2"
14264,commdev-image-keyboard-response,530,1258907,learnblock2,752,img/planet10_right.png,10,Community 3,NA,TRUE,j,j,NA,NA,NA,3,6,"9,3,8,7,13,4,1,14,5,15,11,10,12,6,2"
14264,commdev-image-keyboard-response,531,1260158,learnblock2,394.59999990463257,img/planet2_right.png,2,Community 3,NA,TRUE,j,j,NA,NA,NA,3,6,"9,3,8,7,13,4,1,14,5,15,11,10,12,6,2"
14264,commdev-image-keyboard-response,532,1261409,learnblock2,944.6999998092651,img/planet12_right.png,12,Community 3,NA,TRUE,j,j,NA,NA,NA,3,6,"9,3,8,7,13,4,1,14,5,15,11,10,12,6,2"
14264,commdev-image-keyboard-response,533,1262673,learnblock2,798.1999998092651,img/planet10_left.png,10,Community 3,NA,TRUE,f,f,NA,NA,NA,3,6,"9,3,8,7,13,4,1,14,5,15,11,10,12,6,2"
14264,commdev-image-keyboard-response,534,1263924,learnblock2,793.3000001907349,img/planet14_left.png,14,Community 2,NA,TRUE,f,f,NA,NA,NA,3,6,"9,3,8,7,13,4,1,14,5,15,11,10,12,6,2"
14264,commdev-image-keyboard-response,535,1265177,learnblock2,867.5999999046326,img/planet1_right.png,1,Community 2,NA,TRUE,j,j,NA,NA,NA,3,6,"9,3,8,7,13,4,1,14,5,15,11,10,12,6,2"
14264,commdev-image-keyboard-response,536,1266429,learnblock2,859.8000001907349,img/planet14_right.png,14,Community 2,NA,TRUE,j,j,NA,NA,NA,3,6,"9,3,8,7,13,4,1,14,5,15,11,10,12,6,2"
14264,commdev-image-keyboard-response,537,1267680,learnblock2,1083.8000001907349,img/planet15_left.png,15,Community 2,NA,TRUE,f,f,NA,NA,NA,3,6,"9,3,8,7,13,4,1,14,5,15,11,10,12,6,2"
14264,commdev-image-keyboard-response,538,1268931,learnblock2,1088.5999999046326,img/planet14_left.png,14,Community 2,NA,TRUE,f,f,NA,NA,NA,3,6,"9,3,8,7,13,4,1,14,5,15,11,10,12,6,2"
14264,commdev-image-keyboard-response,539,1270183,learnblock2,null,img/planet5_right.png,5,Community 2,NA,FALSE,null,j,NA,NA,NA,3,6,"9,3,8,7,13,4,1,14,5,15,11,10,12,6,2"
14264,commdev-image-keyboard-response,540,1271434,learnblock2,69.70000004768372,img/planet1_right.png,1,Community 2,NA,TRUE,j,j,NA,NA,NA,3,6,"9,3,8,7,13,4,1,14,5,15,11,10,12,6,2"
14264,commdev-image-keyboard-response,541,1272687,learnblock2,95.5,img/planet4_left.png,4,Community 2,NA,FALSE,j,f,NA,NA,NA,3,6,"9,3,8,7,13,4,1,14,5,15,11,10,12,6,2"
14264,commdev-image-keyboard-response,542,1273938,learnblock2,1105.0999999046326,img/planet7_right.png,7,Community 1,NA,TRUE,j,j,NA,NA,NA,3,6,"9,3,8,7,13,4,1,14,5,15,11,10,12,6,2"
14264,commdev-image-keyboard-response,543,1275189,learnblock2,765.2000000476837,img/planet4_left.png,4,Community 2,NA,TRUE,f,f,NA,NA,NA,3,6,"9,3,8,7,13,4,1,14,5,15,11,10,12,6,2"
14264,commdev-image-keyboard-response,544,1276441,learnblock2,821.7999999523163,img/planet5_right.png,5,Community 2,NA,TRUE,j,j,NA,NA,NA,3,6,"9,3,8,7,13,4,1,14,5,15,11,10,12,6,2"
14264,commdev-image-keyboard-response,545,1277693,learnblock2,null,img/planet4_right.png,4,Community 2,NA,FALSE,null,j,NA,NA,NA,3,6,"9,3,8,7,13,4,1,14,5,15,11,10,12,6,2"
14264,commdev-image-keyboard-response,546,1278944,learnblock2,23.59999990463257,img/planet15_right.png,15,Community 2,NA,TRUE,j,j,NA,NA,NA,3,6,"9,3,8,7,13,4,1,14,5,15,11,10,12,6,2"
14264,commdev-image-keyboard-response,547,1280197,learnblock2,45.700000047683716,img/planet5_left.png,5,Community 2,NA,FALSE,j,f,NA,NA,NA,3,6,"9,3,8,7,13,4,1,14,5,15,11,10,12,6,2"
14264,commdev-image-keyboard-response,548,1281460,learnblock2,null,img/planet14_left.png,14,Community 2,NA,FALSE,null,f,NA,NA,NA,3,6,"9,3,8,7,13,4,1,14,5,15,11,10,12,6,2"
14264,commdev-image-keyboard-response,549,1282712,learnblock2,39.700000047683716,img/planet15_right.png,15,Community 2,NA,FALSE,f,j,NA,NA,NA,3,6,"9,3,8,7,13,4,1,14,5,15,11,10,12,6,2"
14264,commdev-image-keyboard-response,550,1283963,learnblock2,76.20000004768372,img/planet1_left.png,1,Community 2,NA,FALSE,j,f,NA,NA,NA,3,6,"9,3,8,7,13,4,1,14,5,15,11,10,12,6,2"
14264,commdev-image-keyboard-response,551,1285216,learnblock2,999.4000000953674,img/planet14_left.png,14,Community 2,NA,TRUE,f,f,NA,NA,NA,3,6,"9,3,8,7,13,4,1,14,5,15,11,10,12,6,2"
14264,commdev-image-keyboard-response,552,1286468,learnblock2,null,img/planet15_left.png,15,Community 2,NA,FALSE,null,f,NA,NA,NA,3,6,"9,3,8,7,13,4,1,14,5,15,11,10,12,6,2"
14264,commdev-image-keyboard-response,553,1287719,learnblock2,63.799999952316284,img/planet1_left.png,1,Community 2,NA,TRUE,f,f,NA,NA,NA,3,6,"9,3,8,7,13,4,1,14,5,15,11,10,12,6,2"
14264,commdev-image-keyboard-response,554,1288971,learnblock2,627.5,img/planet15_right.png,15,Community 2,NA,TRUE,j,j,NA,NA,NA,3,6,"9,3,8,7,13,4,1,14,5,15,11,10,12,6,2"
14264,commdev-image-keyboard-response,555,1290224,learnblock2,951.3999998569489,img/planet14_left.png,14,Community 2,NA,TRUE,f,f,NA,NA,NA,3,6,"9,3,8,7,13,4,1,14,5,15,11,10,12,6,2"
14264,commdev-image-keyboard-response,556,1291475,learnblock2,678.7999999523163,img/planet5_left.png,5,Community 2,NA,FALSE,j,f,NA,NA,NA,3,6,"9,3,8,7,13,4,1,14,5,15,11,10,12,6,2"
14264,commdev-image-keyboard-response,557,1292727,learnblock2,1206.5999999046326,img/planet1_left.png,1,Community 2,NA,TRUE,f,f,NA,NA,NA,3,6,"9,3,8,7,13,4,1,14,5,15,11,10,12,6,2"
14264,commdev-image-keyboard-response,558,1293979,learnblock2,991.0999999046326,img/planet4_left.png,4,Community 2,NA,TRUE,f,f,NA,NA,NA,3,6,"9,3,8,7,13,4,1,14,5,15,11,10,12,6,2"
14264,commdev-image-keyboard-response,559,1295232,learnblock2,967.2999999523163,img/planet7_left.png,7,Community 1,NA,TRUE,f,f,NA,NA,NA,3,6,"9,3,8,7,13,4,1,14,5,15,11,10,12,6,2"
14264,commdev-image-keyboard-response,560,1296484,learnblock2,892.2000000476837,img/planet4_right.png,4,Community 2,NA,TRUE,j,j,NA,NA,NA,3,6,"9,3,8,7,13,4,1,14,5,15,11,10,12,6,2"
14264,commdev-image-keyboard-response,561,1297737,learnblock2,null,img/planet5_right.png,5,Community 2,NA,FALSE,null,j,NA,NA,NA,3,6,"9,3,8,7,13,4,1,14,5,15,11,10,12,6,2"
14264,commdev-image-keyboard-response,562,1298988,learnblock2,4.599999904632568,img/planet14_left.png,14,Community 2,NA,FALSE,j,f,NA,NA,NA,3,6,"9,3,8,7,13,4,1,14,5,15,11,10,12,6,2"
14264,commdev-image-keyboard-response,563,1300251,learnblock2,null,img/planet15_right.png,15,Community 2,NA,FALSE,null,j,NA,NA,NA,3,6,"9,3,8,7,13,4,1,14,5,15,11,10,12,6,2"
14264,commdev-image-keyboard-response,564,1301502,learnblock2,null,img/planet5_left.png,5,Community 2,NA,FALSE,null,f,NA,NA,NA,3,6,"9,3,8,7,13,4,1,14,5,15,11,10,12,6,2"
14264,commdev-image-keyboard-response,565,1302754,learnblock2,null,img/planet15_left.png,15,Community 2,NA,FALSE,null,f,NA,NA,NA,3,6,"9,3,8,7,13,4,1,14,5,15,11,10,12,6,2"
14264,commdev-image-keyboard-response,566,1304006,learnblock2,702.7999999523163,img/planet5_right.png,5,Community 2,NA,TRUE,j,j,NA,NA,NA,3,6,"9,3,8,7,13,4,1,14,5,15,11,10,12,6,2"
14264,commdev-image-keyboard-response,567,1305257,learnblock2,855.2999999523163,img/planet4_left.png,4,Community 2,NA,TRUE,f,f,NA,NA,NA,3,6,"9,3,8,7,13,4,1,14,5,15,11,10,12,6,2"
14264,commdev-image-keyboard-response,568,1306510,learnblock2,817.2000000476837,img/planet1_left.png,1,Community 2,NA,FALSE,j,f,NA,NA,NA,3,6,"9,3,8,7,13,4,1,14,5,15,11,10,12,6,2"
14264,commdev-image-keyboard-response,569,1307761,learnblock2,null,img/planet15_left.png,15,Community 2,NA,FALSE,null,f,NA,NA,NA,3,6,"9,3,8,7,13,4,1,14,5,15,11,10,12,6,2"
14264,commdev-image-keyboard-response,570,1309014,learnblock2,null,img/planet5_right.png,5,Community 2,NA,FALSE,null,j,NA,NA,NA,3,6,"9,3,8,7,13,4,1,14,5,15,11,10,12,6,2"
14264,commdev-image-keyboard-response,571,1310265,learnblock2,540.7000000476837,img/planet1_left.png,1,Community 2,NA,TRUE,f,f,NA,NA,NA,3,6,"9,3,8,7,13,4,1,14,5,15,11,10,12,6,2"
14264,commdev-image-keyboard-response,572,1311517,learnblock2,416,img/planet5_right.png,5,Community 2,NA,TRUE,j,j,NA,NA,NA,3,6,"9,3,8,7,13,4,1,14,5,15,11,10,12,6,2"
14264,commdev-image-keyboard-response,573,1312768,learnblock2,636.9000000953674,img/planet14_left.png,14,Community 2,NA,TRUE,f,f,NA,NA,NA,3,6,"9,3,8,7,13,4,1,14,5,15,11,10,12,6,2"
14264,commdev-image-keyboard-response,574,1314033,learnblock2,750.5,img/planet5_left.png,5,Community 2,NA,TRUE,f,f,NA,NA,NA,3,6,"9,3,8,7,13,4,1,14,5,15,11,10,12,6,2"
14264,commdev-image-keyboard-response,575,1315284,learnblock2,732.7999999523163,img/planet14_left.png,14,Community 2,NA,TRUE,f,f,NA,NA,NA,3,6,"9,3,8,7,13,4,1,14,5,15,11,10,12,6,2"
14264,commdev-image-keyboard-response,576,1316536,learnblock2,653.2999999523163,img/planet10_right.png,10,Community 3,NA,TRUE,j,j,NA,NA,NA,3,6,"9,3,8,7,13,4,1,14,5,15,11,10,12,6,2"
14264,commdev-image-keyboard-response,577,1317787,learnblock2,737.7999999523163,img/planet14_left.png,14,Community 2,NA,TRUE,f,f,NA,NA,NA,3,6,"9,3,8,7,13,4,1,14,5,15,11,10,12,6,2"
14264,commdev-image-keyboard-response,578,1319038,learnblock2,819.9000000953674,img/planet15_right.png,15,Community 2,NA,TRUE,j,j,NA,NA,NA,3,6,"9,3,8,7,13,4,1,14,5,15,11,10,12,6,2"
14264,commdev-image-keyboard-response,579,1320290,learnblock2,732.5,img/planet1_left.png,1,Community 2,NA,TRUE,f,f,NA,NA,NA,3,6,"9,3,8,7,13,4,1,14,5,15,11,10,12,6,2"
14264,commdev-image-keyboard-response,580,1321543,learnblock2,663.6000001430511,img/planet14_right.png,14,Community 2,NA,TRUE,j,j,NA,NA,NA,3,6,"9,3,8,7,13,4,1,14,5,15,11,10,12,6,2"
14264,commdev-image-keyboard-response,581,1322794,learnblock2,653.9000000953674,img/planet10_right.png,10,Community 3,NA,TRUE,j,j,NA,NA,NA,3,6,"9,3,8,7,13,4,1,14,5,15,11,10,12,6,2"
14264,commdev-image-keyboard-response,582,1324046,learnblock2,565.7000000476837,img/planet2_right.png,2,Community 3,NA,TRUE,j,j,NA,NA,NA,3,6,"9,3,8,7,13,4,1,14,5,15,11,10,12,6,2"
14264,commdev-image-keyboard-response,583,1325297,learnblock2,737.2999999523163,img/planet12_left.png,12,Community 3,NA,TRUE,f,f,NA,NA,NA,3,6,"9,3,8,7,13,4,1,14,5,15,11,10,12,6,2"
14264,commdev-image-keyboard-response,584,1326549,learnblock2,833.5999999046326,img/planet6_left.png,6,Community 3,NA,TRUE,f,f,NA,NA,NA,3,6,"9,3,8,7,13,4,1,14,5,15,11,10,12,6,2"
14264,commdev-image-keyboard-response,585,1327801,learnblock2,965.1000001430511,img/planet12_right.png,12,Community 3,NA,TRUE,j,j,NA,NA,NA,3,6,"9,3,8,7,13,4,1,14,5,15,11,10,12,6,2"
