subject_id,trial_type,trial_index,time_elapsed,block,rt,stimulus,planet,community,response,correct,key_press,learning_correct_response,parse,init_locations,final_locations,browser_interactions,num_comp,planet_map
15141,commdev-instructions,7,33313,NA,1052.6999998092651,"<p>In this game, you will be shown a 3x3 grid of patterns.</p> <p>The last one in the bottom right-hand corner, <strong>will be missing:</strong></p> <div style='width: 700px;'><div style='float: top;'><img style='width: 200px;' src='practice/p1_M1.png'></img><p class='small'>You need to select<strong> which of the four possible patterns </strong>along the bottom<strong> fits into the gap:</strong></p></div><div style='float: top;'><img style='width: 300px;' src='practice/p1_T1.png'></img></div><br>",NA,NA,NA,NA,NA,NA,NA,NA,NA,1,6,"15,14,7,4,3,1,2,9,10,11,8,13,12,5,6"
15141,commdev-instructions,8,52129,NA,610,"<p>Try to be as fast and as accurate as you can be.</p> <p>If you cannot solve the puzzle then you should guess - you will not be penalised for an incorrect answer.</p> <p>The task contains a shuffled mix of easy, medium and hard puzzles.</p> <p>You will have <strong>30 seconds</strong> to complete each puzzle.</p><br>",NA,NA,NA,NA,NA,NA,NA,NA,NA,1,6,"15,14,7,4,3,1,2,9,10,11,8,13,12,5,6"
15141,commdev-instructions,15,75284,NA,1344.7000007629395,<p><strong>Success!</strong></p> <p>You seem to be getting the hang of this...</p> <p>Let's move on to the real trials.</p><br>,NA,NA,NA,NA,NA,NA,NA,NA,NA,1,6,"15,14,7,4,3,1,2,9,10,11,8,13,12,5,6"
15141,commdev-instructions,91,568927,NA,1217,"<p>In this game, you are a scientist on board a space shuttle. </p><p> On each mission, you will visit planets all across the universe.</p><img src=""img/controlroom.jpg"" width=300vw>",NA,NA,NA,NA,NA,NA,NA,NA,NA,1,6,"15,14,7,4,3,1,2,9,10,11,8,13,12,5,6"
15141,commdev-instructions,92,572133,NA,1133.1999998092651,"<p>Here are a few planets you might see:</p><img src=""img/practice1.png"" width=200vw><img src=""img/practice2.png"" width=200vw><img src=""img/practice3.png"" width=200vw>",NA,NA,NA,NA,NA,NA,NA,NA,NA,1,6,"15,14,7,4,3,1,2,9,10,11,8,13,12,5,6"
15141,commdev-instructions,93,580518,NA,977.8999996185303,"<p>Your job as a scientist is to record which direction the winds are moving on each planet.</p><p>There are two types of wind directions:</p><img src=""img/practice1_left.png"" width=200vw><img src=""img/practice1_right.png"" width=200vw>",NA,NA,NA,NA,NA,NA,NA,NA,NA,1,6,"15,14,7,4,3,1,2,9,10,11,8,13,12,5,6"
15141,commdev-instructions,94,586729,NA,1318.8999996185303,"<p>If the winds are moving this way, press the letter <strong>F</strong> on the keyboard as fast as you can.</p><img src=""img/leftwind.png"" width=250vw>",NA,NA,NA,NA,NA,NA,NA,NA,NA,1,6,"15,14,7,4,3,1,2,9,10,11,8,13,12,5,6"
15141,commdev-instructions,95,592863,NA,1632.7000007629395,"<p>If the winds are moving this way, press the letter <strong>J</strong> on the keyboard as fast as you can.</p><img src=""img/rightwind.png"" width=350vw>",NA,NA,NA,NA,NA,NA,NA,NA,NA,1,6,"15,14,7,4,3,1,2,9,10,11,8,13,12,5,6"
15141,commdev-instructions,96,598542,NA,1262.1999998092651,<p>You will have 1 second to respond. Try to respond before the time runs out!,NA,NA,NA,NA,NA,NA,NA,NA,NA,1,6,"15,14,7,4,3,1,2,9,10,11,8,13,12,5,6"
15141,commdev-instructions,97,605024,NA,1044,<p>The planets you will visit will look different from each other.</p><p>You should respond <strong>only</strong> based on wind direction.,NA,NA,NA,NA,NA,NA,NA,NA,NA,1,6,"15,14,7,4,3,1,2,9,10,11,8,13,12,5,6"
15141,commdev-instructions,98,611197,NA,1007.3000001907349,"<p> Ready to start the practice round? </p><p> Remember, press <strong>F</strong> or <strong>J</strong> depending on the wind direction.<br><img src=""img/categorize_planet_example.png""",NA,NA,NA,NA,NA,NA,NA,NA,NA,1,6,"15,14,7,4,3,1,2,9,10,11,8,13,12,5,6"
15141,commdev-instructions,110,663403,NA,687.4000005722046,"<p>Great, now try a short practice mission. </p><p> This time, you will have 1 second to respond and you won't know whether you pressed the right or wrong key for each planet.</p>",NA,NA,NA,NA,NA,NA,NA,NA,NA,1,6,"15,14,7,4,3,1,2,9,10,11,8,13,12,5,6"
15141,commdev-image-keyboard-response,111,664765,practice,846.3999996185303,img/practice3_left.png,NA,Number not found in mappings,NA,TRUE,f,f,NA,NA,NA,1,6,"15,14,7,4,3,1,2,9,10,11,8,13,12,5,6"
15141,commdev-image-keyboard-response,112,666024,practice,747.6000003814697,img/practice4_right.png,NA,Number not found in mappings,NA,TRUE,j,j,NA,NA,NA,1,6,"15,14,7,4,3,1,2,9,10,11,8,13,12,5,6"
15141,commdev-image-keyboard-response,113,667282,practice,688.5999994277954,img/practice3_left.png,NA,Number not found in mappings,NA,TRUE,f,f,NA,NA,NA,1,6,"15,14,7,4,3,1,2,9,10,11,8,13,12,5,6"
15141,commdev-image-keyboard-response,114,668542,practice,734.1999998092651,img/practice1_left.png,NA,Number not found in mappings,NA,TRUE,f,f,NA,NA,NA,1,6,"15,14,7,4,3,1,2,9,10,11,8,13,12,5,6"
15141,commdev-image-keyboard-response,115,669804,practice,691.2999992370605,img/practice3_left.png,NA,Number not found in mappings,NA,TRUE,f,f,NA,NA,NA,1,6,"15,14,7,4,3,1,2,9,10,11,8,13,12,5,6"
15141,commdev-image-keyboard-response,116,671058,practice,639,img/practice1_right.png,NA,Number not found in mappings,NA,TRUE,j,j,NA,NA,NA,1,6,"15,14,7,4,3,1,2,9,10,11,8,13,12,5,6"
15141,commdev-image-keyboard-response,117,672317,practice,654.7999992370605,img/practice4_right.png,NA,Number not found in mappings,NA,TRUE,j,j,NA,NA,NA,1,6,"15,14,7,4,3,1,2,9,10,11,8,13,12,5,6"
15141,commdev-image-keyboard-response,118,673575,practice,646.5999994277954,img/practice1_left.png,NA,Number not found in mappings,NA,TRUE,f,f,NA,NA,NA,1,6,"15,14,7,4,3,1,2,9,10,11,8,13,12,5,6"
15141,commdev-instructions,119,684616,NA,1480.3999996185303,"<p>Great job with the practice round.</p><p>During real missions, you won't know whether you pressed the right or wrong key for each planet.</p><p>But between missions, we will tell you how you did overall.</p>",NA,NA,NA,NA,NA,NA,NA,NA,NA,1,6,"15,14,7,4,3,1,2,9,10,11,8,13,12,5,6"
15141,commdev-instructions,120,698267,NA,5401.400000572205,<p>Try your best! You will be paid a bonus based on how many correct responses you make!</p><p>Responses that are too slow will not count toward your bonus.</p>,NA,NA,NA,NA,NA,NA,NA,NA,NA,1,6,"15,14,7,4,3,1,2,9,10,11,8,13,12,5,6"
15141,commdev-instructions,121,705383,NA,907,"<p>You are almost ready to start the real game.</p><p> First, we are going to ask you some questions about how the game works.</p>",NA,NA,NA,NA,NA,NA,NA,NA,NA,1,6,"15,14,7,4,3,1,2,9,10,11,8,13,12,5,6"
15141,commdev-instructions,130,780523,NA,846.1999998092651,"<p> Nice work! It is now time to start the real game.<p></p>You will go on two missions to record wind directions of different planets.<p></p>Each one will take about 5 minutes. You will get to take a break between missions.<p><p> Remember, press <strong>F</strong> or <strong>J</strong> depending on the wind direction. Good luck!<br><img src=""img/categorize_planet_example.png""",NA,NA,NA,NA,NA,NA,NA,NA,NA,1,6,"15,14,7,4,3,1,2,9,10,11,8,13,12,5,6"
15141,commdev-image-keyboard-response,132,783670,learnblock1,1055.6999998092651,img/planet4_left.png,4,Community 1,NA,TRUE,f,f,NA,NA,NA,1,6,"15,14,7,4,3,1,2,9,10,11,8,13,12,5,6"
15141,commdev-image-keyboard-response,133,784933,learnblock1,843.8999996185303,img/planet1_right.png,1,Community 2,NA,TRUE,j,j,NA,NA,NA,1,6,"15,14,7,4,3,1,2,9,10,11,8,13,12,5,6"
15141,commdev-image-keyboard-response,134,786195,learnblock1,812.8000001907349,img/planet2_right.png,2,Community 2,NA,TRUE,j,j,NA,NA,NA,1,6,"15,14,7,4,3,1,2,9,10,11,8,13,12,5,6"
15141,commdev-image-keyboard-response,135,787449,learnblock1,698.7999992370605,img/planet10_left.png,10,Community 2,NA,TRUE,f,f,NA,NA,NA,1,6,"15,14,7,4,3,1,2,9,10,11,8,13,12,5,6"
15141,commdev-image-keyboard-response,136,788707,learnblock1,635.3000001907349,img/planet9_right.png,9,Community 2,NA,TRUE,j,j,NA,NA,NA,1,6,"15,14,7,4,3,1,2,9,10,11,8,13,12,5,6"
15141,commdev-image-keyboard-response,137,789968,learnblock1,687.1000003814697,img/planet11_left.png,11,Community 2,NA,TRUE,f,f,NA,NA,NA,1,6,"15,14,7,4,3,1,2,9,10,11,8,13,12,5,6"
15141,commdev-image-keyboard-response,138,791219,learnblock1,1136.8000001907349,img/planet9_left.png,9,Community 2,NA,TRUE,f,f,NA,NA,NA,1,6,"15,14,7,4,3,1,2,9,10,11,8,13,12,5,6"
15141,commdev-image-keyboard-response,139,792485,learnblock1,775.3000001907349,img/planet11_right.png,11,Community 2,NA,TRUE,j,j,NA,NA,NA,1,6,"15,14,7,4,3,1,2,9,10,11,8,13,12,5,6"
15141,commdev-image-keyboard-response,140,793744,learnblock1,839.1000003814697,img/planet2_right.png,2,Community 2,NA,TRUE,j,j,NA,NA,NA,1,6,"15,14,7,4,3,1,2,9,10,11,8,13,12,5,6"
15141,commdev-image-keyboard-response,141,795002,learnblock1,649.5,img/planet9_left.png,9,Community 2,NA,TRUE,f,f,NA,NA,NA,1,6,"15,14,7,4,3,1,2,9,10,11,8,13,12,5,6"
15141,commdev-image-keyboard-response,142,796261,learnblock1,802.6999998092651,img/planet10_left.png,10,Community 2,NA,TRUE,f,f,NA,NA,NA,1,6,"15,14,7,4,3,1,2,9,10,11,8,13,12,5,6"
15141,commdev-image-keyboard-response,143,797525,learnblock1,823.8000001907349,img/planet2_left.png,2,Community 2,NA,TRUE,f,f,NA,NA,NA,1,6,"15,14,7,4,3,1,2,9,10,11,8,13,12,5,6"
15141,commdev-image-keyboard-response,144,798780,learnblock1,669.3000001907349,img/planet11_right.png,11,Community 2,NA,TRUE,j,j,NA,NA,NA,1,6,"15,14,7,4,3,1,2,9,10,11,8,13,12,5,6"
15141,commdev-image-keyboard-response,145,800034,learnblock1,814.3000001907349,img/planet2_left.png,2,Community 2,NA,TRUE,f,f,NA,NA,NA,1,6,"15,14,7,4,3,1,2,9,10,11,8,13,12,5,6"
15141,commdev-image-keyboard-response,146,801289,learnblock1,770.1999998092651,img/planet1_right.png,1,Community 2,NA,TRUE,j,j,NA,NA,NA,1,6,"15,14,7,4,3,1,2,9,10,11,8,13,12,5,6"
15141,commdev-image-keyboard-response,147,802545,learnblock1,795.3000001907349,img/planet10_right.png,10,Community 2,NA,TRUE,j,j,NA,NA,NA,1,6,"15,14,7,4,3,1,2,9,10,11,8,13,12,5,6"
15141,commdev-image-keyboard-response,148,803807,learnblock1,789,img/planet2_right.png,2,Community 2,NA,TRUE,j,j,NA,NA,NA,1,6,"15,14,7,4,3,1,2,9,10,11,8,13,12,5,6"
15141,commdev-image-keyboard-response,149,805063,learnblock1,561,img/planet10_left.png,10,Community 2,NA,TRUE,f,f,NA,NA,NA,1,6,"15,14,7,4,3,1,2,9,10,11,8,13,12,5,6"
15141,commdev-image-keyboard-response,150,806320,learnblock1,831.6000003814697,img/planet11_right.png,11,Community 2,NA,TRUE,j,j,NA,NA,NA,1,6,"15,14,7,4,3,1,2,9,10,11,8,13,12,5,6"
15141,commdev-image-keyboard-response,151,807580,learnblock1,724.5,img/planet2_right.png,2,Community 2,NA,TRUE,j,j,NA,NA,NA,1,6,"15,14,7,4,3,1,2,9,10,11,8,13,12,5,6"
15141,commdev-image-keyboard-response,152,808838,learnblock1,694.8000001907349,img/planet1_left.png,1,Community 2,NA,TRUE,f,f,NA,NA,NA,1,6,"15,14,7,4,3,1,2,9,10,11,8,13,12,5,6"
15141,commdev-image-keyboard-response,153,810090,learnblock1,726.1999998092651,img/planet4_left.png,4,Community 1,NA,TRUE,f,f,NA,NA,NA,1,6,"15,14,7,4,3,1,2,9,10,11,8,13,12,5,6"
15141,commdev-image-keyboard-response,154,811343,learnblock1,574.6999998092651,img/planet7_left.png,7,Community 1,NA,TRUE,f,f,NA,NA,NA,1,6,"15,14,7,4,3,1,2,9,10,11,8,13,12,5,6"
15141,commdev-image-keyboard-response,155,812594,learnblock1,602.0999994277954,img/planet4_right.png,4,Community 1,NA,TRUE,j,j,NA,NA,NA,1,6,"15,14,7,4,3,1,2,9,10,11,8,13,12,5,6"
15141,commdev-image-keyboard-response,156,813845,learnblock1,860.6999998092651,img/planet7_left.png,7,Community 1,NA,TRUE,f,f,NA,NA,NA,1,6,"15,14,7,4,3,1,2,9,10,11,8,13,12,5,6"
15141,commdev-image-keyboard-response,157,815097,learnblock1,589.3999996185303,img/planet4_left.png,4,Community 1,NA,TRUE,f,f,NA,NA,NA,1,6,"15,14,7,4,3,1,2,9,10,11,8,13,12,5,6"
15141,commdev-image-keyboard-response,158,816349,learnblock1,687.4000005722046,img/planet7_left.png,7,Community 1,NA,TRUE,f,f,NA,NA,NA,1,6,"15,14,7,4,3,1,2,9,10,11,8,13,12,5,6"
15141,commdev-image-keyboard-response,159,817601,learnblock1,1236.5,img/planet3_left.png,3,Community 1,NA,TRUE,f,f,NA,NA,NA,1,6,"15,14,7,4,3,1,2,9,10,11,8,13,12,5,6"
15141,commdev-image-keyboard-response,160,818853,learnblock1,1233.6999998092651,img/planet7_left.png,7,Community 1,NA,TRUE,f,f,NA,NA,NA,1,6,"15,14,7,4,3,1,2,9,10,11,8,13,12,5,6"
15141,commdev-image-keyboard-response,161,820105,learnblock1,693.7999992370605,img/planet14_right.png,14,Community 1,NA,FALSE,f,j,NA,NA,NA,1,6,"15,14,7,4,3,1,2,9,10,11,8,13,12,5,6"
15141,commdev-image-keyboard-response,162,821357,learnblock1,450.19999980926514,img/planet7_left.png,7,Community 1,NA,TRUE,f,f,NA,NA,NA,1,6,"15,14,7,4,3,1,2,9,10,11,8,13,12,5,6"
15141,commdev-image-keyboard-response,163,822610,learnblock1,646.7999992370605,img/planet15_right.png,15,Community 1,NA,TRUE,j,j,NA,NA,NA,1,6,"15,14,7,4,3,1,2,9,10,11,8,13,12,5,6"
15141,commdev-image-keyboard-response,164,823862,learnblock1,604.6999998092651,img/planet14_left.png,14,Community 1,NA,TRUE,f,f,NA,NA,NA,1,6,"15,14,7,4,3,1,2,9,10,11,8,13,12,5,6"
15141,commdev-image-keyboard-response,165,825113,learnblock1,532.9000005722046,img/planet7_right.png,7,Community 1,NA,TRUE,j,j,NA,NA,NA,1,6,"15,14,7,4,3,1,2,9,10,11,8,13,12,5,6"
15141,commdev-image-keyboard-response,166,826365,learnblock1,382.0999994277954,img/planet3_left.png,3,Community 1,NA,TRUE,f,f,NA,NA,NA,1,6,"15,14,7,4,3,1,2,9,10,11,8,13,12,5,6"
15141,commdev-image-keyboard-response,167,827617,learnblock1,152.60000038146973,img/planet8_right.png,8,Community 3,NA,TRUE,j,j,NA,NA,NA,1,6,"15,14,7,4,3,1,2,9,10,11,8,13,12,5,6"
15141,commdev-image-keyboard-response,168,828869,learnblock1,77.39999961853027,img/planet5_right.png,5,Community 3,NA,TRUE,j,j,NA,NA,NA,1,6,"15,14,7,4,3,1,2,9,10,11,8,13,12,5,6"
15141,commdev-image-keyboard-response,169,830121,learnblock1,835.4000005722046,img/planet8_right.png,8,Community 3,NA,FALSE,f,j,NA,NA,NA,1,6,"15,14,7,4,3,1,2,9,10,11,8,13,12,5,6"
15141,commdev-image-keyboard-response,170,831373,learnblock1,714,img/planet6_left.png,6,Community 3,NA,FALSE,j,f,NA,NA,NA,1,6,"15,14,7,4,3,1,2,9,10,11,8,13,12,5,6"
15141,commdev-image-keyboard-response,171,832625,learnblock1,712,img/planet12_right.png,12,Community 3,NA,TRUE,j,j,NA,NA,NA,1,6,"15,14,7,4,3,1,2,9,10,11,8,13,12,5,6"
15141,commdev-image-keyboard-response,172,833877,learnblock1,869.6000003814697,img/planet6_right.png,6,Community 3,NA,TRUE,j,j,NA,NA,NA,1,6,"15,14,7,4,3,1,2,9,10,11,8,13,12,5,6"
15141,commdev-image-keyboard-response,173,835129,learnblock1,688.2999992370605,img/planet12_left.png,12,Community 3,NA,TRUE,f,f,NA,NA,NA,1,6,"15,14,7,4,3,1,2,9,10,11,8,13,12,5,6"
15141,commdev-image-keyboard-response,174,836389,learnblock1,636.4000005722046,img/planet5_right.png,5,Community 3,NA,TRUE,j,j,NA,NA,NA,1,6,"15,14,7,4,3,1,2,9,10,11,8,13,12,5,6"
15141,commdev-image-keyboard-response,175,837641,learnblock1,675.1999998092651,img/planet6_left.png,6,Community 3,NA,TRUE,f,f,NA,NA,NA,1,6,"15,14,7,4,3,1,2,9,10,11,8,13,12,5,6"
15141,commdev-image-keyboard-response,176,838893,learnblock1,603.3999996185303,img/planet12_right.png,12,Community 3,NA,TRUE,j,j,NA,NA,NA,1,6,"15,14,7,4,3,1,2,9,10,11,8,13,12,5,6"
15141,commdev-image-keyboard-response,177,840145,learnblock1,641.3000001907349,img/planet13_right.png,13,Community 3,NA,FALSE,f,j,NA,NA,NA,1,6,"15,14,7,4,3,1,2,9,10,11,8,13,12,5,6"
15141,commdev-image-keyboard-response,178,841397,learnblock1,1100.1000003814697,img/planet12_right.png,12,Community 3,NA,FALSE,f,j,NA,NA,NA,1,6,"15,14,7,4,3,1,2,9,10,11,8,13,12,5,6"
15141,commdev-image-keyboard-response,179,842649,learnblock1,27.899999618530273,img/planet6_right.png,6,Community 3,NA,TRUE,j,j,NA,NA,NA,1,6,"15,14,7,4,3,1,2,9,10,11,8,13,12,5,6"
15141,commdev-image-keyboard-response,180,843910,learnblock1,665.8000001907349,img/planet12_left.png,12,Community 3,NA,TRUE,f,f,NA,NA,NA,1,6,"15,14,7,4,3,1,2,9,10,11,8,13,12,5,6"
15141,commdev-image-keyboard-response,181,845163,learnblock1,717.5,img/planet8_right.png,8,Community 3,NA,TRUE,j,j,NA,NA,NA,1,6,"15,14,7,4,3,1,2,9,10,11,8,13,12,5,6"
15141,commdev-image-keyboard-response,182,846414,learnblock1,762.5,img/planet3_left.png,3,Community 1,NA,TRUE,f,f,NA,NA,NA,1,6,"15,14,7,4,3,1,2,9,10,11,8,13,12,5,6"
15141,commdev-image-keyboard-response,183,847666,learnblock1,614.8000001907349,img/planet7_right.png,7,Community 1,NA,TRUE,j,j,NA,NA,NA,1,6,"15,14,7,4,3,1,2,9,10,11,8,13,12,5,6"
15141,commdev-image-keyboard-response,184,848926,learnblock1,609.8000001907349,img/planet4_left.png,4,Community 1,NA,TRUE,f,f,NA,NA,NA,1,6,"15,14,7,4,3,1,2,9,10,11,8,13,12,5,6"
15141,commdev-image-keyboard-response,185,850179,learnblock1,959.0999994277954,img/planet15_left.png,15,Community 1,NA,TRUE,f,f,NA,NA,NA,1,6,"15,14,7,4,3,1,2,9,10,11,8,13,12,5,6"
15141,commdev-image-keyboard-response,186,851432,learnblock1,678.1999998092651,img/planet4_right.png,4,Community 1,NA,TRUE,j,j,NA,NA,NA,1,6,"15,14,7,4,3,1,2,9,10,11,8,13,12,5,6"
15141,commdev-image-keyboard-response,187,852684,learnblock1,746,img/planet14_left.png,14,Community 1,NA,TRUE,f,f,NA,NA,NA,1,6,"15,14,7,4,3,1,2,9,10,11,8,13,12,5,6"
15141,commdev-image-keyboard-response,188,853936,learnblock1,671.3999996185303,img/planet7_left.png,7,Community 1,NA,TRUE,f,f,NA,NA,NA,1,6,"15,14,7,4,3,1,2,9,10,11,8,13,12,5,6"
15141,commdev-image-keyboard-response,189,855189,learnblock1,878.5999994277954,img/planet3_left.png,3,Community 1,NA,TRUE,f,f,NA,NA,NA,1,6,"15,14,7,4,3,1,2,9,10,11,8,13,12,5,6"
15141,commdev-image-keyboard-response,190,856440,learnblock1,747.1000003814697,img/planet14_left.png,14,Community 1,NA,TRUE,f,f,NA,NA,NA,1,6,"15,14,7,4,3,1,2,9,10,11,8,13,12,5,6"
15141,commdev-image-keyboard-response,191,857692,learnblock1,604.8000001907349,img/planet15_right.png,15,Community 1,NA,TRUE,j,j,NA,NA,NA,1,6,"15,14,7,4,3,1,2,9,10,11,8,13,12,5,6"
15141,commdev-image-keyboard-response,192,858943,learnblock1,662.6999998092651,img/planet14_right.png,14,Community 1,NA,TRUE,j,j,NA,NA,NA,1,6,"15,14,7,4,3,1,2,9,10,11,8,13,12,5,6"
15141,commdev-image-keyboard-response,193,860195,learnblock1,801.4000005722046,img/planet7_right.png,7,Community 1,NA,TRUE,j,j,NA,NA,NA,1,6,"15,14,7,4,3,1,2,9,10,11,8,13,12,5,6"
15141,commdev-image-keyboard-response,194,861448,learnblock1,null,img/planet14_right.png,14,Community 1,NA,FALSE,null,j,NA,NA,NA,1,6,"15,14,7,4,3,1,2,9,10,11,8,13,12,5,6"
15141,commdev-image-keyboard-response,195,862700,learnblock1,27,img/planet7_right.png,7,Community 1,NA,TRUE,j,j,NA,NA,NA,1,6,"15,14,7,4,3,1,2,9,10,11,8,13,12,5,6"
15141,commdev-image-keyboard-response,196,863954,learnblock1,735.2000007629395,img/planet15_right.png,15,Community 1,NA,TRUE,j,j,NA,NA,NA,1,6,"15,14,7,4,3,1,2,9,10,11,8,13,12,5,6"
15141,commdev-image-keyboard-response,197,865206,learnblock1,710.5,img/planet4_right.png,4,Community 1,NA,TRUE,j,j,NA,NA,NA,1,6,"15,14,7,4,3,1,2,9,10,11,8,13,12,5,6"
15141,commdev-image-keyboard-response,198,866473,learnblock1,688.6999998092651,img/planet14_right.png,14,Community 1,NA,TRUE,j,j,NA,NA,NA,1,6,"15,14,7,4,3,1,2,9,10,11,8,13,12,5,6"
15141,commdev-image-keyboard-response,199,867725,learnblock1,682,img/planet4_right.png,4,Community 1,NA,TRUE,j,j,NA,NA,NA,1,6,"15,14,7,4,3,1,2,9,10,11,8,13,12,5,6"
15141,commdev-image-keyboard-response,200,868982,learnblock1,690.3000001907349,img/planet1_left.png,1,Community 2,NA,FALSE,j,f,NA,NA,NA,1,6,"15,14,7,4,3,1,2,9,10,11,8,13,12,5,6"
15141,commdev-image-keyboard-response,201,870235,learnblock1,672.3999996185303,img/planet2_right.png,2,Community 2,NA,TRUE,j,j,NA,NA,NA,1,6,"15,14,7,4,3,1,2,9,10,11,8,13,12,5,6"
15141,commdev-image-keyboard-response,202,871501,learnblock1,870.6000003814697,img/planet10_right.png,10,Community 2,NA,TRUE,j,j,NA,NA,NA,1,6,"15,14,7,4,3,1,2,9,10,11,8,13,12,5,6"
15141,commdev-image-keyboard-response,203,872753,learnblock1,574.1000003814697,img/planet1_left.png,1,Community 2,NA,TRUE,f,f,NA,NA,NA,1,6,"15,14,7,4,3,1,2,9,10,11,8,13,12,5,6"
15141,commdev-image-keyboard-response,204,874004,learnblock1,715.7999992370605,img/planet11_right.png,11,Community 2,NA,TRUE,j,j,NA,NA,NA,1,6,"15,14,7,4,3,1,2,9,10,11,8,13,12,5,6"
15141,commdev-image-keyboard-response,205,875255,learnblock1,751.4000005722046,img/planet1_left.png,1,Community 2,NA,TRUE,f,f,NA,NA,NA,1,6,"15,14,7,4,3,1,2,9,10,11,8,13,12,5,6"
15141,commdev-image-keyboard-response,206,876507,learnblock1,670.1999998092651,img/planet11_left.png,11,Community 2,NA,TRUE,f,f,NA,NA,NA,1,6,"15,14,7,4,3,1,2,9,10,11,8,13,12,5,6"
15141,commdev-image-keyboard-response,207,877759,learnblock1,678.5,img/planet10_right.png,10,Community 2,NA,TRUE,j,j,NA,NA,NA,1,6,"15,14,7,4,3,1,2,9,10,11,8,13,12,5,6"
15141,commdev-image-keyboard-response,208,879011,learnblock1,638.8999996185303,img/planet11_left.png,11,Community 2,NA,TRUE,f,f,NA,NA,NA,1,6,"15,14,7,4,3,1,2,9,10,11,8,13,12,5,6"
15141,commdev-image-keyboard-response,209,880264,learnblock1,533.6999998092651,img/planet2_right.png,2,Community 2,NA,TRUE,j,j,NA,NA,NA,1,6,"15,14,7,4,3,1,2,9,10,11,8,13,12,5,6"
15141,commdev-image-keyboard-response,210,881516,learnblock1,701.0999994277954,img/planet1_right.png,1,Community 2,NA,TRUE,j,j,NA,NA,NA,1,6,"15,14,7,4,3,1,2,9,10,11,8,13,12,5,6"
15141,commdev-image-keyboard-response,211,882769,learnblock1,599.3999996185303,img/planet4_left.png,4,Community 1,NA,TRUE,f,f,NA,NA,NA,1,6,"15,14,7,4,3,1,2,9,10,11,8,13,12,5,6"
15141,commdev-image-keyboard-response,212,884020,learnblock1,726.6999998092651,img/planet1_left.png,1,Community 2,NA,TRUE,f,f,NA,NA,NA,1,6,"15,14,7,4,3,1,2,9,10,11,8,13,12,5,6"
15141,commdev-image-keyboard-response,213,885279,learnblock1,715.2999992370605,img/planet4_right.png,4,Community 1,NA,TRUE,j,j,NA,NA,NA,1,6,"15,14,7,4,3,1,2,9,10,11,8,13,12,5,6"
15141,commdev-image-keyboard-response,214,886531,learnblock1,606.7999992370605,img/planet1_left.png,1,Community 2,NA,TRUE,f,f,NA,NA,NA,1,6,"15,14,7,4,3,1,2,9,10,11,8,13,12,5,6"
15141,commdev-image-keyboard-response,215,887783,learnblock1,593.8999996185303,img/planet2_right.png,2,Community 2,NA,TRUE,j,j,NA,NA,NA,1,6,"15,14,7,4,3,1,2,9,10,11,8,13,12,5,6"
15141,commdev-image-keyboard-response,216,889035,learnblock1,737.1999998092651,img/planet9_right.png,9,Community 2,NA,TRUE,j,j,NA,NA,NA,1,6,"15,14,7,4,3,1,2,9,10,11,8,13,12,5,6"
15141,commdev-image-keyboard-response,217,890287,learnblock1,700.3000001907349,img/planet13_right.png,13,Community 3,NA,TRUE,j,j,NA,NA,NA,1,6,"15,14,7,4,3,1,2,9,10,11,8,13,12,5,6"
15141,commdev-image-keyboard-response,218,891539,learnblock1,648.5,img/planet6_right.png,6,Community 3,NA,TRUE,j,j,NA,NA,NA,1,6,"15,14,7,4,3,1,2,9,10,11,8,13,12,5,6"
15141,commdev-image-keyboard-response,219,892790,learnblock1,626.6999998092651,img/planet5_right.png,5,Community 3,NA,TRUE,j,j,NA,NA,NA,1,6,"15,14,7,4,3,1,2,9,10,11,8,13,12,5,6"
15141,commdev-image-keyboard-response,220,894057,learnblock1,485.69999980926514,img/planet6_left.png,6,Community 3,NA,TRUE,f,f,NA,NA,NA,1,6,"15,14,7,4,3,1,2,9,10,11,8,13,12,5,6"
15141,commdev-image-keyboard-response,221,895308,learnblock1,698.8999996185303,img/planet12_left.png,12,Community 3,NA,TRUE,f,f,NA,NA,NA,1,6,"15,14,7,4,3,1,2,9,10,11,8,13,12,5,6"
15141,commdev-image-keyboard-response,222,896561,learnblock1,676.2999992370605,img/planet8_right.png,8,Community 3,NA,TRUE,j,j,NA,NA,NA,1,6,"15,14,7,4,3,1,2,9,10,11,8,13,12,5,6"
15141,commdev-image-keyboard-response,223,897813,learnblock1,654,img/planet12_right.png,12,Community 3,NA,FALSE,f,j,NA,NA,NA,1,6,"15,14,7,4,3,1,2,9,10,11,8,13,12,5,6"
15141,commdev-image-keyboard-response,224,899065,learnblock1,892.5999994277954,img/planet5_right.png,5,Community 3,NA,TRUE,j,j,NA,NA,NA,1,6,"15,14,7,4,3,1,2,9,10,11,8,13,12,5,6"
15141,commdev-image-keyboard-response,225,900318,learnblock1,629.6999998092651,img/planet13_left.png,13,Community 3,NA,TRUE,f,f,NA,NA,NA,1,6,"15,14,7,4,3,1,2,9,10,11,8,13,12,5,6"
15141,commdev-image-keyboard-response,226,901570,learnblock1,588,img/planet5_right.png,5,Community 3,NA,TRUE,j,j,NA,NA,NA,1,6,"15,14,7,4,3,1,2,9,10,11,8,13,12,5,6"
15141,commdev-image-keyboard-response,227,902826,learnblock1,595.3999996185303,img/planet6_left.png,6,Community 3,NA,TRUE,f,f,NA,NA,NA,1,6,"15,14,7,4,3,1,2,9,10,11,8,13,12,5,6"
15141,commdev-image-keyboard-response,228,904078,learnblock1,589,img/planet12_right.png,12,Community 3,NA,TRUE,j,j,NA,NA,NA,1,6,"15,14,7,4,3,1,2,9,10,11,8,13,12,5,6"
15141,commdev-image-keyboard-response,229,905330,learnblock1,586.5,img/planet6_left.png,6,Community 3,NA,TRUE,f,f,NA,NA,NA,1,6,"15,14,7,4,3,1,2,9,10,11,8,13,12,5,6"
15141,commdev-image-keyboard-response,230,906595,learnblock1,654.8999996185303,img/planet12_left.png,12,Community 3,NA,TRUE,f,f,NA,NA,NA,1,6,"15,14,7,4,3,1,2,9,10,11,8,13,12,5,6"
15141,commdev-image-keyboard-response,231,907847,learnblock1,700,img/planet6_left.png,6,Community 3,NA,TRUE,f,f,NA,NA,NA,1,6,"15,14,7,4,3,1,2,9,10,11,8,13,12,5,6"
15141,commdev-image-keyboard-response,232,909099,learnblock1,628.6000003814697,img/planet5_right.png,5,Community 3,NA,TRUE,j,j,NA,NA,NA,1,6,"15,14,7,4,3,1,2,9,10,11,8,13,12,5,6"
15141,commdev-image-keyboard-response,233,910360,learnblock1,617,img/planet13_left.png,13,Community 3,NA,TRUE,f,f,NA,NA,NA,1,6,"15,14,7,4,3,1,2,9,10,11,8,13,12,5,6"
15141,commdev-image-keyboard-response,234,911612,learnblock1,595.1000003814697,img/planet9_left.png,9,Community 2,NA,TRUE,f,f,NA,NA,NA,1,6,"15,14,7,4,3,1,2,9,10,11,8,13,12,5,6"
15141,commdev-image-keyboard-response,235,912865,learnblock1,615.8000001907349,img/planet10_right.png,10,Community 2,NA,TRUE,j,j,NA,NA,NA,1,6,"15,14,7,4,3,1,2,9,10,11,8,13,12,5,6"
15141,commdev-image-keyboard-response,236,914117,learnblock1,600.6000003814697,img/planet1_left.png,1,Community 2,NA,TRUE,f,f,NA,NA,NA,1,6,"15,14,7,4,3,1,2,9,10,11,8,13,12,5,6"
15141,commdev-image-keyboard-response,237,915368,learnblock1,631.6000003814697,img/planet4_right.png,4,Community 1,NA,TRUE,j,j,NA,NA,NA,1,6,"15,14,7,4,3,1,2,9,10,11,8,13,12,5,6"
15141,commdev-image-keyboard-response,238,916620,learnblock1,567.3999996185303,img/planet1_left.png,1,Community 2,NA,TRUE,f,f,NA,NA,NA,1,6,"15,14,7,4,3,1,2,9,10,11,8,13,12,5,6"
15141,commdev-image-keyboard-response,239,917882,learnblock1,635.6000003814697,img/planet10_left.png,10,Community 2,NA,TRUE,f,f,NA,NA,NA,1,6,"15,14,7,4,3,1,2,9,10,11,8,13,12,5,6"
15141,commdev-image-keyboard-response,240,919134,learnblock1,642.6999998092651,img/planet2_right.png,2,Community 2,NA,TRUE,j,j,NA,NA,NA,1,6,"15,14,7,4,3,1,2,9,10,11,8,13,12,5,6"
15141,commdev-image-keyboard-response,241,920393,learnblock1,601,img/planet11_left.png,11,Community 2,NA,TRUE,f,f,NA,NA,NA,1,6,"15,14,7,4,3,1,2,9,10,11,8,13,12,5,6"
15141,commdev-image-keyboard-response,242,921645,learnblock1,623.8999996185303,img/planet10_right.png,10,Community 2,NA,TRUE,j,j,NA,NA,NA,1,6,"15,14,7,4,3,1,2,9,10,11,8,13,12,5,6"
15141,commdev-image-keyboard-response,243,922898,learnblock1,602.4000005722046,img/planet2_left.png,2,Community 2,NA,TRUE,f,f,NA,NA,NA,1,6,"15,14,7,4,3,1,2,9,10,11,8,13,12,5,6"
15141,commdev-image-keyboard-response,244,924150,learnblock1,657.3999996185303,img/planet10_right.png,10,Community 2,NA,TRUE,j,j,NA,NA,NA,1,6,"15,14,7,4,3,1,2,9,10,11,8,13,12,5,6"
15141,commdev-image-keyboard-response,245,925403,learnblock1,785.2999992370605,img/planet1_right.png,1,Community 2,NA,TRUE,j,j,NA,NA,NA,1,6,"15,14,7,4,3,1,2,9,10,11,8,13,12,5,6"
15141,commdev-image-keyboard-response,246,926654,learnblock1,622.5999994277954,img/planet10_right.png,10,Community 2,NA,TRUE,j,j,NA,NA,NA,1,6,"15,14,7,4,3,1,2,9,10,11,8,13,12,5,6"
15141,commdev-image-keyboard-response,247,927906,learnblock1,761.3000001907349,img/planet11_left.png,11,Community 2,NA,TRUE,f,f,NA,NA,NA,1,6,"15,14,7,4,3,1,2,9,10,11,8,13,12,5,6"
15141,commdev-image-keyboard-response,248,929158,learnblock1,700.8999996185303,img/planet2_right.png,2,Community 2,NA,TRUE,j,j,NA,NA,NA,1,6,"15,14,7,4,3,1,2,9,10,11,8,13,12,5,6"
15141,commdev-image-keyboard-response,249,930410,learnblock1,718.1000003814697,img/planet9_right.png,9,Community 2,NA,TRUE,j,j,NA,NA,NA,1,6,"15,14,7,4,3,1,2,9,10,11,8,13,12,5,6"
15141,commdev-image-keyboard-response,250,931670,learnblock1,694.7000007629395,img/planet10_right.png,10,Community 2,NA,TRUE,j,j,NA,NA,NA,1,6,"15,14,7,4,3,1,2,9,10,11,8,13,12,5,6"
15141,commdev-image-keyboard-response,251,932922,learnblock1,685.7999992370605,img/planet9_right.png,9,Community 2,NA,TRUE,j,j,NA,NA,NA,1,6,"15,14,7,4,3,1,2,9,10,11,8,13,12,5,6"
15141,commdev-image-keyboard-response,252,934175,learnblock1,683.3000001907349,img/planet11_left.png,11,Community 2,NA,TRUE,f,f,NA,NA,NA,1,6,"15,14,7,4,3,1,2,9,10,11,8,13,12,5,6"
15141,commdev-image-keyboard-response,253,935427,learnblock1,621.1999998092651,img/planet2_left.png,2,Community 2,NA,TRUE,f,f,NA,NA,NA,1,6,"15,14,7,4,3,1,2,9,10,11,8,13,12,5,6"
15141,commdev-image-keyboard-response,254,936680,learnblock1,589.3999996185303,img/planet1_left.png,1,Community 2,NA,TRUE,f,f,NA,NA,NA,1,6,"15,14,7,4,3,1,2,9,10,11,8,13,12,5,6"
15141,commdev-image-keyboard-response,255,937932,learnblock1,665.6999998092651,img/planet10_left.png,10,Community 2,NA,TRUE,f,f,NA,NA,NA,1,6,"15,14,7,4,3,1,2,9,10,11,8,13,12,5,6"
15141,commdev-image-keyboard-response,256,939183,learnblock1,604.3000001907349,img/planet11_right.png,11,Community 2,NA,TRUE,j,j,NA,NA,NA,1,6,"15,14,7,4,3,1,2,9,10,11,8,13,12,5,6"
15141,commdev-image-keyboard-response,257,940435,learnblock1,574.5,img/planet10_left.png,10,Community 2,NA,TRUE,f,f,NA,NA,NA,1,6,"15,14,7,4,3,1,2,9,10,11,8,13,12,5,6"
15141,commdev-image-keyboard-response,258,941687,learnblock1,750.6999998092651,img/planet11_left.png,11,Community 2,NA,TRUE,f,f,NA,NA,NA,1,6,"15,14,7,4,3,1,2,9,10,11,8,13,12,5,6"
15141,commdev-image-keyboard-response,259,942939,learnblock1,797.9000005722046,img/planet1_left.png,1,Community 2,NA,TRUE,f,f,NA,NA,NA,1,6,"15,14,7,4,3,1,2,9,10,11,8,13,12,5,6"
15141,commdev-image-keyboard-response,260,944190,learnblock1,787.3000001907349,img/planet2_right.png,2,Community 2,NA,TRUE,j,j,NA,NA,NA,1,6,"15,14,7,4,3,1,2,9,10,11,8,13,12,5,6"
15141,commdev-image-keyboard-response,261,945442,learnblock1,646.6999998092651,img/planet9_left.png,9,Community 2,NA,TRUE,f,f,NA,NA,NA,1,6,"15,14,7,4,3,1,2,9,10,11,8,13,12,5,6"
15141,commdev-image-keyboard-response,262,946693,learnblock1,714.3999996185303,img/planet13_right.png,13,Community 3,NA,TRUE,j,j,NA,NA,NA,1,6,"15,14,7,4,3,1,2,9,10,11,8,13,12,5,6"
15141,commdev-image-keyboard-response,263,947946,learnblock1,623.0999994277954,img/planet9_left.png,9,Community 2,NA,TRUE,f,f,NA,NA,NA,1,6,"15,14,7,4,3,1,2,9,10,11,8,13,12,5,6"
15141,commdev-image-keyboard-response,264,949209,learnblock1,750.9000005722046,img/planet13_right.png,13,Community 3,NA,TRUE,j,j,NA,NA,NA,1,6,"15,14,7,4,3,1,2,9,10,11,8,13,12,5,6"
15141,commdev-image-keyboard-response,265,950471,learnblock1,757,img/planet5_left.png,5,Community 3,NA,TRUE,f,f,NA,NA,NA,1,6,"15,14,7,4,3,1,2,9,10,11,8,13,12,5,6"
15141,commdev-image-keyboard-response,266,951722,learnblock1,794.5,img/planet6_right.png,6,Community 3,NA,FALSE,f,j,NA,NA,NA,1,6,"15,14,7,4,3,1,2,9,10,11,8,13,12,5,6"
15141,commdev-image-keyboard-response,267,952974,learnblock1,675.3000001907349,img/planet13_left.png,13,Community 3,NA,TRUE,f,f,NA,NA,NA,1,6,"15,14,7,4,3,1,2,9,10,11,8,13,12,5,6"
15141,commdev-image-keyboard-response,268,954226,learnblock1,1002.1999998092651,img/planet12_left.png,12,Community 3,NA,FALSE,j,f,NA,NA,NA,1,6,"15,14,7,4,3,1,2,9,10,11,8,13,12,5,6"
15141,commdev-image-keyboard-response,269,955492,learnblock1,1138.5,img/planet5_right.png,5,Community 3,NA,TRUE,j,j,NA,NA,NA,1,6,"15,14,7,4,3,1,2,9,10,11,8,13,12,5,6"
15141,commdev-image-keyboard-response,270,956744,learnblock1,1033.4000005722046,img/planet12_right.png,12,Community 3,NA,TRUE,j,j,NA,NA,NA,1,6,"15,14,7,4,3,1,2,9,10,11,8,13,12,5,6"
15141,commdev-image-keyboard-response,271,957996,learnblock1,672.8000001907349,img/planet6_left.png,6,Community 3,NA,TRUE,f,f,NA,NA,NA,1,6,"15,14,7,4,3,1,2,9,10,11,8,13,12,5,6"
15141,commdev-image-keyboard-response,272,959248,learnblock1,1150.6999998092651,img/planet8_left.png,8,Community 3,NA,TRUE,f,f,NA,NA,NA,1,6,"15,14,7,4,3,1,2,9,10,11,8,13,12,5,6"
15141,commdev-image-keyboard-response,273,960503,learnblock1,949.3999996185303,img/planet3_right.png,3,Community 1,NA,TRUE,j,j,NA,NA,NA,1,6,"15,14,7,4,3,1,2,9,10,11,8,13,12,5,6"
15141,commdev-image-keyboard-response,274,961755,learnblock1,844.4000005722046,img/planet7_right.png,7,Community 1,NA,TRUE,j,j,NA,NA,NA,1,6,"15,14,7,4,3,1,2,9,10,11,8,13,12,5,6"
15141,commdev-image-keyboard-response,275,963007,learnblock1,864.0999994277954,img/planet15_left.png,15,Community 1,NA,TRUE,f,f,NA,NA,NA,1,6,"15,14,7,4,3,1,2,9,10,11,8,13,12,5,6"
15141,commdev-image-keyboard-response,276,964259,learnblock1,779.5999994277954,img/planet3_right.png,3,Community 1,NA,TRUE,j,j,NA,NA,NA,1,6,"15,14,7,4,3,1,2,9,10,11,8,13,12,5,6"
15141,commdev-image-keyboard-response,277,965511,learnblock1,887.9000005722046,img/planet15_right.png,15,Community 1,NA,TRUE,j,j,NA,NA,NA,1,6,"15,14,7,4,3,1,2,9,10,11,8,13,12,5,6"
15141,commdev-image-keyboard-response,278,966762,learnblock1,928.0999994277954,img/planet7_right.png,7,Community 1,NA,TRUE,j,j,NA,NA,NA,1,6,"15,14,7,4,3,1,2,9,10,11,8,13,12,5,6"
15141,commdev-image-keyboard-response,279,968015,learnblock1,null,img/planet14_right.png,14,Community 1,NA,FALSE,null,j,NA,NA,NA,1,6,"15,14,7,4,3,1,2,9,10,11,8,13,12,5,6"
15141,commdev-image-keyboard-response,280,969267,learnblock1,45.80000019073486,img/planet15_right.png,15,Community 1,NA,TRUE,j,j,NA,NA,NA,1,6,"15,14,7,4,3,1,2,9,10,11,8,13,12,5,6"
15141,commdev-image-keyboard-response,281,970519,learnblock1,189.5999994277954,img/planet4_left.png,4,Community 1,NA,FALSE,j,f,NA,NA,NA,1,6,"15,14,7,4,3,1,2,9,10,11,8,13,12,5,6"
15141,commdev-image-keyboard-response,282,971770,learnblock1,907.9000005722046,img/planet7_left.png,7,Community 1,NA,TRUE,f,f,NA,NA,NA,1,6,"15,14,7,4,3,1,2,9,10,11,8,13,12,5,6"
15141,commdev-image-keyboard-response,283,973022,learnblock1,716.3999996185303,img/planet3_right.png,3,Community 1,NA,TRUE,j,j,NA,NA,NA,1,6,"15,14,7,4,3,1,2,9,10,11,8,13,12,5,6"
15141,commdev-image-keyboard-response,284,974274,learnblock1,724.2000007629395,img/planet8_right.png,8,Community 3,NA,TRUE,j,j,NA,NA,NA,1,6,"15,14,7,4,3,1,2,9,10,11,8,13,12,5,6"
15141,commdev-image-keyboard-response,285,975527,learnblock1,692.1999998092651,img/planet3_left.png,3,Community 1,NA,TRUE,f,f,NA,NA,NA,1,6,"15,14,7,4,3,1,2,9,10,11,8,13,12,5,6"
15141,commdev-image-keyboard-response,286,976779,learnblock1,629.3999996185303,img/planet15_left.png,15,Community 1,NA,TRUE,f,f,NA,NA,NA,1,6,"15,14,7,4,3,1,2,9,10,11,8,13,12,5,6"
15141,commdev-image-keyboard-response,287,978031,learnblock1,827.5999994277954,img/planet7_right.png,7,Community 1,NA,TRUE,j,j,NA,NA,NA,1,6,"15,14,7,4,3,1,2,9,10,11,8,13,12,5,6"
15141,commdev-image-keyboard-response,288,979282,learnblock1,746.1000003814697,img/planet3_right.png,3,Community 1,NA,TRUE,j,j,NA,NA,NA,1,6,"15,14,7,4,3,1,2,9,10,11,8,13,12,5,6"
15141,commdev-image-keyboard-response,289,980534,learnblock1,915.6999998092651,img/planet15_left.png,15,Community 1,NA,TRUE,f,f,NA,NA,NA,1,6,"15,14,7,4,3,1,2,9,10,11,8,13,12,5,6"
15141,commdev-image-keyboard-response,290,981786,learnblock1,643.2000007629395,img/planet7_right.png,7,Community 1,NA,TRUE,j,j,NA,NA,NA,1,6,"15,14,7,4,3,1,2,9,10,11,8,13,12,5,6"
15141,commdev-image-keyboard-response,291,983049,learnblock1,671,img/planet14_left.png,14,Community 1,NA,TRUE,f,f,NA,NA,NA,1,6,"15,14,7,4,3,1,2,9,10,11,8,13,12,5,6"
15141,commdev-image-keyboard-response,292,984300,learnblock1,728.0999994277954,img/planet3_left.png,3,Community 1,NA,TRUE,f,f,NA,NA,NA,1,6,"15,14,7,4,3,1,2,9,10,11,8,13,12,5,6"
15141,commdev-image-keyboard-response,293,985553,learnblock1,736.3000001907349,img/planet15_left.png,15,Community 1,NA,TRUE,f,f,NA,NA,NA,1,6,"15,14,7,4,3,1,2,9,10,11,8,13,12,5,6"
15141,commdev-image-keyboard-response,294,986804,learnblock1,733.5,img/planet7_left.png,7,Community 1,NA,TRUE,f,f,NA,NA,NA,1,6,"15,14,7,4,3,1,2,9,10,11,8,13,12,5,6"
15141,commdev-image-keyboard-response,295,988056,learnblock1,602.2999992370605,img/planet4_right.png,4,Community 1,NA,TRUE,j,j,NA,NA,NA,1,6,"15,14,7,4,3,1,2,9,10,11,8,13,12,5,6"
15141,commdev-image-keyboard-response,296,989308,learnblock1,671,img/planet7_left.png,7,Community 1,NA,TRUE,f,f,NA,NA,NA,1,6,"15,14,7,4,3,1,2,9,10,11,8,13,12,5,6"
15141,commdev-image-keyboard-response,297,990573,learnblock1,718.4000005722046,img/planet3_right.png,3,Community 1,NA,TRUE,j,j,NA,NA,NA,1,6,"15,14,7,4,3,1,2,9,10,11,8,13,12,5,6"
15141,commdev-image-keyboard-response,298,991825,learnblock1,765.9000005722046,img/planet14_right.png,14,Community 1,NA,TRUE,j,j,NA,NA,NA,1,6,"15,14,7,4,3,1,2,9,10,11,8,13,12,5,6"
15141,commdev-image-keyboard-response,299,993077,learnblock1,721.6000003814697,img/planet3_left.png,3,Community 1,NA,TRUE,f,f,NA,NA,NA,1,6,"15,14,7,4,3,1,2,9,10,11,8,13,12,5,6"
15141,commdev-image-keyboard-response,300,994328,learnblock1,764,img/planet8_left.png,8,Community 3,NA,TRUE,f,f,NA,NA,NA,1,6,"15,14,7,4,3,1,2,9,10,11,8,13,12,5,6"
15141,commdev-image-keyboard-response,301,995580,learnblock1,668.5,img/planet5_right.png,5,Community 3,NA,TRUE,j,j,NA,NA,NA,1,6,"15,14,7,4,3,1,2,9,10,11,8,13,12,5,6"
15141,commdev-image-keyboard-response,302,996831,learnblock1,776.7000007629395,img/planet13_right.png,13,Community 3,NA,FALSE,f,j,NA,NA,NA,1,6,"15,14,7,4,3,1,2,9,10,11,8,13,12,5,6"
15141,commdev-image-keyboard-response,303,998084,learnblock1,566.1000003814697,img/planet12_right.png,12,Community 3,NA,FALSE,f,j,NA,NA,NA,1,6,"15,14,7,4,3,1,2,9,10,11,8,13,12,5,6"
15141,commdev-image-keyboard-response,304,999340,learnblock1,823,img/planet5_right.png,5,Community 3,NA,TRUE,j,j,NA,NA,NA,1,6,"15,14,7,4,3,1,2,9,10,11,8,13,12,5,6"
15141,commdev-image-keyboard-response,305,1000591,learnblock1,817,img/planet13_left.png,13,Community 3,NA,TRUE,f,f,NA,NA,NA,1,6,"15,14,7,4,3,1,2,9,10,11,8,13,12,5,6"
15141,commdev-image-keyboard-response,306,1001843,learnblock1,865.8000001907349,img/planet5_left.png,5,Community 3,NA,TRUE,f,f,NA,NA,NA,1,6,"15,14,7,4,3,1,2,9,10,11,8,13,12,5,6"
15141,commdev-image-keyboard-response,307,1003095,learnblock1,744.6000003814697,img/planet8_right.png,8,Community 3,NA,TRUE,j,j,NA,NA,NA,1,6,"15,14,7,4,3,1,2,9,10,11,8,13,12,5,6"
15141,commdev-image-keyboard-response,308,1004350,learnblock1,802,img/planet3_left.png,3,Community 1,NA,TRUE,f,f,NA,NA,NA,1,6,"15,14,7,4,3,1,2,9,10,11,8,13,12,5,6"
15141,commdev-image-keyboard-response,309,1005603,learnblock1,718.7999992370605,img/planet8_right.png,8,Community 3,NA,TRUE,j,j,NA,NA,NA,1,6,"15,14,7,4,3,1,2,9,10,11,8,13,12,5,6"
15141,commdev-image-keyboard-response,310,1006854,learnblock1,724.1999998092651,img/planet3_right.png,3,Community 1,NA,TRUE,j,j,NA,NA,NA,1,6,"15,14,7,4,3,1,2,9,10,11,8,13,12,5,6"
15141,commdev-image-keyboard-response,311,1008106,learnblock1,762.0999994277954,img/planet7_right.png,7,Community 1,NA,TRUE,j,j,NA,NA,NA,1,6,"15,14,7,4,3,1,2,9,10,11,8,13,12,5,6"
15141,commdev-image-keyboard-response,312,1009358,learnblock1,774.6999998092651,img/planet4_right.png,4,Community 1,NA,TRUE,j,j,NA,NA,NA,1,6,"15,14,7,4,3,1,2,9,10,11,8,13,12,5,6"
15141,commdev-image-keyboard-response,313,1010609,learnblock1,699.1999998092651,img/planet7_left.png,7,Community 1,NA,TRUE,f,f,NA,NA,NA,1,6,"15,14,7,4,3,1,2,9,10,11,8,13,12,5,6"
15141,commdev-image-keyboard-response,314,1011861,learnblock1,907.3999996185303,img/planet3_left.png,3,Community 1,NA,TRUE,f,f,NA,NA,NA,1,6,"15,14,7,4,3,1,2,9,10,11,8,13,12,5,6"
15141,commdev-image-keyboard-response,315,1013113,learnblock1,786.3999996185303,img/planet15_right.png,15,Community 1,NA,TRUE,j,j,NA,NA,NA,1,6,"15,14,7,4,3,1,2,9,10,11,8,13,12,5,6"
15141,commdev-image-keyboard-response,316,1014365,learnblock1,824,img/planet7_left.png,7,Community 1,NA,TRUE,f,f,NA,NA,NA,1,6,"15,14,7,4,3,1,2,9,10,11,8,13,12,5,6"
15141,commdev-image-keyboard-response,317,1015618,learnblock1,921.9000005722046,img/planet4_left.png,4,Community 1,NA,TRUE,f,f,NA,NA,NA,1,6,"15,14,7,4,3,1,2,9,10,11,8,13,12,5,6"
15141,commdev-image-keyboard-response,318,1016869,learnblock1,838.5999994277954,img/planet14_right.png,14,Community 1,NA,TRUE,j,j,NA,NA,NA,1,6,"15,14,7,4,3,1,2,9,10,11,8,13,12,5,6"
15141,commdev-image-keyboard-response,319,1018120,learnblock1,889.0999994277954,img/planet4_right.png,4,Community 1,NA,TRUE,j,j,NA,NA,NA,1,6,"15,14,7,4,3,1,2,9,10,11,8,13,12,5,6"
15141,commdev-image-keyboard-response,320,1019372,learnblock1,826.7999992370605,img/planet14_left.png,14,Community 1,NA,TRUE,f,f,NA,NA,NA,1,6,"15,14,7,4,3,1,2,9,10,11,8,13,12,5,6"
15141,commdev-image-keyboard-response,321,1020624,learnblock1,913.6999998092651,img/planet7_left.png,7,Community 1,NA,TRUE,f,f,NA,NA,NA,1,6,"15,14,7,4,3,1,2,9,10,11,8,13,12,5,6"
15141,commdev-image-keyboard-response,322,1021876,learnblock1,852.8000001907349,img/planet3_right.png,3,Community 1,NA,TRUE,j,j,NA,NA,NA,1,6,"15,14,7,4,3,1,2,9,10,11,8,13,12,5,6"
15141,commdev-image-keyboard-response,323,1023128,learnblock1,821.7000007629395,img/planet8_right.png,8,Community 3,NA,TRUE,j,j,NA,NA,NA,1,6,"15,14,7,4,3,1,2,9,10,11,8,13,12,5,6"
15141,commdev-image-keyboard-response,324,1024381,learnblock1,830.1000003814697,img/planet12_left.png,12,Community 3,NA,TRUE,f,f,NA,NA,NA,1,6,"15,14,7,4,3,1,2,9,10,11,8,13,12,5,6"
15141,commdev-image-keyboard-response,325,1025632,learnblock1,837.7999992370605,img/planet13_left.png,13,Community 3,NA,TRUE,f,f,NA,NA,NA,1,6,"15,14,7,4,3,1,2,9,10,11,8,13,12,5,6"
15141,commdev-image-keyboard-response,326,1026884,learnblock1,605,img/planet12_right.png,12,Community 3,NA,TRUE,j,j,NA,NA,NA,1,6,"15,14,7,4,3,1,2,9,10,11,8,13,12,5,6"
15141,commdev-image-keyboard-response,327,1028136,learnblock1,582.7000007629395,img/planet6_right.png,6,Community 3,NA,TRUE,j,j,NA,NA,NA,1,6,"15,14,7,4,3,1,2,9,10,11,8,13,12,5,6"
15141,commdev-image-keyboard-response,328,1029389,learnblock1,630.2999992370605,img/planet13_right.png,13,Community 3,NA,TRUE,j,j,NA,NA,NA,1,6,"15,14,7,4,3,1,2,9,10,11,8,13,12,5,6"
15141,commdev-image-keyboard-response,329,1030641,learnblock1,638.1999998092651,img/planet9_left.png,9,Community 2,NA,TRUE,f,f,NA,NA,NA,1,6,"15,14,7,4,3,1,2,9,10,11,8,13,12,5,6"
15141,commdev-image-keyboard-response,330,1031893,learnblock1,675.3999996185303,img/planet13_left.png,13,Community 3,NA,TRUE,f,f,NA,NA,NA,1,6,"15,14,7,4,3,1,2,9,10,11,8,13,12,5,6"
15141,commdev-image-keyboard-response,331,1033145,learnblock1,684.0999994277954,img/planet5_left.png,5,Community 3,NA,TRUE,f,f,NA,NA,NA,1,6,"15,14,7,4,3,1,2,9,10,11,8,13,12,5,6"
15141,commdev-image-keyboard-response,332,1034398,learnblock1,752.1000003814697,img/planet6_right.png,6,Community 3,NA,TRUE,j,j,NA,NA,NA,1,6,"15,14,7,4,3,1,2,9,10,11,8,13,12,5,6"
15141,commdev-image-keyboard-response,333,1035649,learnblock1,818.8000001907349,img/planet5_left.png,5,Community 3,NA,TRUE,f,f,NA,NA,NA,1,6,"15,14,7,4,3,1,2,9,10,11,8,13,12,5,6"
15141,commdev-image-keyboard-response,334,1036901,learnblock1,927.8999996185303,img/planet8_left.png,8,Community 3,NA,FALSE,j,f,NA,NA,NA,1,6,"15,14,7,4,3,1,2,9,10,11,8,13,12,5,6"
15141,commdev-image-keyboard-response,335,1038153,learnblock1,888.6999998092651,img/planet12_right.png,12,Community 3,NA,TRUE,j,j,NA,NA,NA,1,6,"15,14,7,4,3,1,2,9,10,11,8,13,12,5,6"
15141,commdev-image-keyboard-response,336,1039405,learnblock1,863.8999996185303,img/planet13_left.png,13,Community 3,NA,TRUE,f,f,NA,NA,NA,1,6,"15,14,7,4,3,1,2,9,10,11,8,13,12,5,6"
15141,commdev-image-keyboard-response,337,1040657,learnblock1,733.3000001907349,img/planet9_left.png,9,Community 2,NA,TRUE,f,f,NA,NA,NA,1,6,"15,14,7,4,3,1,2,9,10,11,8,13,12,5,6"
15141,commdev-image-keyboard-response,338,1041909,learnblock1,891.6000003814697,img/planet11_left.png,11,Community 2,NA,TRUE,f,f,NA,NA,NA,1,6,"15,14,7,4,3,1,2,9,10,11,8,13,12,5,6"
15141,commdev-image-keyboard-response,339,1043161,learnblock1,667.8999996185303,img/planet10_left.png,10,Community 2,NA,TRUE,f,f,NA,NA,NA,1,6,"15,14,7,4,3,1,2,9,10,11,8,13,12,5,6"
15141,commdev-image-keyboard-response,340,1044412,learnblock1,716.4000005722046,img/planet2_right.png,2,Community 2,NA,TRUE,j,j,NA,NA,NA,1,6,"15,14,7,4,3,1,2,9,10,11,8,13,12,5,6"
15141,commdev-image-keyboard-response,341,1045663,learnblock1,605.6999998092651,img/planet1_left.png,1,Community 2,NA,TRUE,f,f,NA,NA,NA,1,6,"15,14,7,4,3,1,2,9,10,11,8,13,12,5,6"
15141,commdev-image-keyboard-response,342,1046915,learnblock1,744,img/planet11_right.png,11,Community 2,NA,TRUE,j,j,NA,NA,NA,1,6,"15,14,7,4,3,1,2,9,10,11,8,13,12,5,6"
15141,commdev-image-keyboard-response,343,1048167,learnblock1,702,img/planet2_right.png,2,Community 2,NA,TRUE,j,j,NA,NA,NA,1,6,"15,14,7,4,3,1,2,9,10,11,8,13,12,5,6"
15141,commdev-image-keyboard-response,344,1049419,learnblock1,730.6999998092651,img/planet10_right.png,10,Community 2,NA,TRUE,j,j,NA,NA,NA,1,6,"15,14,7,4,3,1,2,9,10,11,8,13,12,5,6"
15141,commdev-image-keyboard-response,345,1050671,learnblock1,857.6000003814697,img/planet1_left.png,1,Community 2,NA,TRUE,f,f,NA,NA,NA,1,6,"15,14,7,4,3,1,2,9,10,11,8,13,12,5,6"
15141,commdev-image-keyboard-response,346,1051923,learnblock1,1048.8000001907349,img/planet2_left.png,2,Community 2,NA,TRUE,f,f,NA,NA,NA,1,6,"15,14,7,4,3,1,2,9,10,11,8,13,12,5,6"
15141,commdev-image-keyboard-response,347,1053175,learnblock1,1214.8000001907349,img/planet11_right.png,11,Community 2,NA,TRUE,j,j,NA,NA,NA,1,6,"15,14,7,4,3,1,2,9,10,11,8,13,12,5,6"
15141,commdev-image-keyboard-response,348,1054427,learnblock1,882.3000001907349,img/planet2_left.png,2,Community 2,NA,TRUE,f,f,NA,NA,NA,1,6,"15,14,7,4,3,1,2,9,10,11,8,13,12,5,6"
15141,commdev-image-keyboard-response,349,1055679,learnblock1,730.6999998092651,img/planet11_left.png,11,Community 2,NA,FALSE,j,f,NA,NA,NA,1,6,"15,14,7,4,3,1,2,9,10,11,8,13,12,5,6"
15141,commdev-image-keyboard-response,350,1056932,learnblock1,78,img/planet10_right.png,10,Community 2,NA,FALSE,f,j,NA,NA,NA,1,6,"15,14,7,4,3,1,2,9,10,11,8,13,12,5,6"
15141,commdev-image-keyboard-response,351,1058183,learnblock1,935.1999998092651,img/planet2_right.png,2,Community 2,NA,FALSE,f,j,NA,NA,NA,1,6,"15,14,7,4,3,1,2,9,10,11,8,13,12,5,6"
15141,commdev-image-keyboard-response,352,1059435,learnblock1,854.8999996185303,img/planet11_left.png,11,Community 2,NA,TRUE,f,f,NA,NA,NA,1,6,"15,14,7,4,3,1,2,9,10,11,8,13,12,5,6"
15141,commdev-image-keyboard-response,353,1060686,learnblock1,522.7000007629395,img/planet10_right.png,10,Community 2,NA,TRUE,j,j,NA,NA,NA,1,6,"15,14,7,4,3,1,2,9,10,11,8,13,12,5,6"
15141,commdev-image-keyboard-response,354,1061939,learnblock1,863.5999994277954,img/planet2_left.png,2,Community 2,NA,TRUE,f,f,NA,NA,NA,1,6,"15,14,7,4,3,1,2,9,10,11,8,13,12,5,6"
15141,commdev-image-keyboard-response,355,1063192,learnblock1,928,img/planet11_right.png,11,Community 2,NA,TRUE,j,j,NA,NA,NA,1,6,"15,14,7,4,3,1,2,9,10,11,8,13,12,5,6"
15141,commdev-image-keyboard-response,356,1064444,learnblock1,755.5,img/planet1_left.png,1,Community 2,NA,TRUE,f,f,NA,NA,NA,1,6,"15,14,7,4,3,1,2,9,10,11,8,13,12,5,6"
15141,commdev-image-keyboard-response,357,1065695,learnblock1,1043.5999994277954,img/planet2_right.png,2,Community 2,NA,TRUE,j,j,NA,NA,NA,1,6,"15,14,7,4,3,1,2,9,10,11,8,13,12,5,6"
15141,commdev-image-keyboard-response,358,1066947,learnblock1,907.4000005722046,img/planet10_right.png,10,Community 2,NA,TRUE,j,j,NA,NA,NA,1,6,"15,14,7,4,3,1,2,9,10,11,8,13,12,5,6"
15141,commdev-image-keyboard-response,359,1068199,learnblock1,663.0999994277954,img/planet1_left.png,1,Community 2,NA,TRUE,f,f,NA,NA,NA,1,6,"15,14,7,4,3,1,2,9,10,11,8,13,12,5,6"
15141,commdev-image-keyboard-response,360,1069451,learnblock1,918.1999998092651,img/planet4_right.png,4,Community 1,NA,TRUE,j,j,NA,NA,NA,1,6,"15,14,7,4,3,1,2,9,10,11,8,13,12,5,6"
15141,commdev-image-keyboard-response,361,1070703,learnblock1,856.3999996185303,img/planet7_right.png,7,Community 1,NA,TRUE,j,j,NA,NA,NA,1,6,"15,14,7,4,3,1,2,9,10,11,8,13,12,5,6"
15141,commdev-image-keyboard-response,362,1071955,learnblock1,694,img/planet4_left.png,4,Community 1,NA,TRUE,f,f,NA,NA,NA,1,6,"15,14,7,4,3,1,2,9,10,11,8,13,12,5,6"
15141,commdev-image-keyboard-response,363,1073207,learnblock1,755.3999996185303,img/planet15_left.png,15,Community 1,NA,TRUE,f,f,NA,NA,NA,1,6,"15,14,7,4,3,1,2,9,10,11,8,13,12,5,6"
15141,commdev-image-keyboard-response,364,1074460,learnblock1,820.1999998092651,img/planet14_right.png,14,Community 1,NA,TRUE,j,j,NA,NA,NA,1,6,"15,14,7,4,3,1,2,9,10,11,8,13,12,5,6"
15141,commdev-image-keyboard-response,365,1075711,learnblock1,706.8999996185303,img/planet3_left.png,3,Community 1,NA,TRUE,f,f,NA,NA,NA,1,6,"15,14,7,4,3,1,2,9,10,11,8,13,12,5,6"
15141,commdev-image-keyboard-response,366,1076963,learnblock1,537.3000001907349,img/planet8_left.png,8,Community 3,NA,FALSE,j,f,NA,NA,NA,1,6,"15,14,7,4,3,1,2,9,10,11,8,13,12,5,6"
15141,commdev-image-keyboard-response,367,1078216,learnblock1,716.8000001907349,img/planet6_right.png,6,Community 3,NA,TRUE,j,j,NA,NA,NA,1,6,"15,14,7,4,3,1,2,9,10,11,8,13,12,5,6"
15141,commdev-image-keyboard-response,368,1079469,learnblock1,825,img/planet8_left.png,8,Community 3,NA,TRUE,f,f,NA,NA,NA,1,6,"15,14,7,4,3,1,2,9,10,11,8,13,12,5,6"
15141,commdev-image-keyboard-response,369,1080722,learnblock1,639.2000007629395,img/planet12_right.png,12,Community 3,NA,TRUE,j,j,NA,NA,NA,1,6,"15,14,7,4,3,1,2,9,10,11,8,13,12,5,6"
15141,commdev-image-keyboard-response,370,1081973,learnblock1,565.1999998092651,img/planet5_left.png,5,Community 3,NA,TRUE,f,f,NA,NA,NA,1,6,"15,14,7,4,3,1,2,9,10,11,8,13,12,5,6"
15141,commdev-image-keyboard-response,371,1083225,learnblock1,697.6000003814697,img/planet13_left.png,13,Community 3,NA,TRUE,f,f,NA,NA,NA,1,6,"15,14,7,4,3,1,2,9,10,11,8,13,12,5,6"
15141,commdev-image-keyboard-response,372,1084478,learnblock1,812.1999998092651,img/planet12_right.png,12,Community 3,NA,TRUE,j,j,NA,NA,NA,1,6,"15,14,7,4,3,1,2,9,10,11,8,13,12,5,6"
15141,commdev-image-keyboard-response,373,1085729,learnblock1,629.5999994277954,img/planet8_left.png,8,Community 3,NA,TRUE,f,f,NA,NA,NA,1,6,"15,14,7,4,3,1,2,9,10,11,8,13,12,5,6"
15141,commdev-image-keyboard-response,374,1086982,learnblock1,838.1000003814697,img/planet3_left.png,3,Community 1,NA,TRUE,f,f,NA,NA,NA,1,6,"15,14,7,4,3,1,2,9,10,11,8,13,12,5,6"
15141,commdev-image-keyboard-response,375,1088234,learnblock1,785.1000003814697,img/planet15_left.png,15,Community 1,NA,TRUE,f,f,NA,NA,NA,1,6,"15,14,7,4,3,1,2,9,10,11,8,13,12,5,6"
15141,commdev-image-keyboard-response,376,1089486,learnblock1,663.5999994277954,img/planet4_left.png,4,Community 1,NA,TRUE,f,f,NA,NA,NA,1,6,"15,14,7,4,3,1,2,9,10,11,8,13,12,5,6"
15141,commdev-image-keyboard-response,377,1090739,learnblock1,1111.3999996185303,img/planet1_left.png,1,Community 2,NA,TRUE,f,f,NA,NA,NA,1,6,"15,14,7,4,3,1,2,9,10,11,8,13,12,5,6"
15141,commdev-image-keyboard-response,378,1091992,learnblock1,717.6999998092651,img/planet4_left.png,4,Community 1,NA,TRUE,f,f,NA,NA,NA,1,6,"15,14,7,4,3,1,2,9,10,11,8,13,12,5,6"
15141,commdev-image-keyboard-response,379,1093253,learnblock1,null,img/planet14_left.png,14,Community 1,NA,FALSE,null,f,NA,NA,NA,1,6,"15,14,7,4,3,1,2,9,10,11,8,13,12,5,6"
15141,commdev-image-keyboard-response,380,1094504,learnblock1,104.19999980926514,img/planet4_left.png,4,Community 1,NA,TRUE,f,f,NA,NA,NA,1,6,"15,14,7,4,3,1,2,9,10,11,8,13,12,5,6"
15141,commdev-image-keyboard-response,381,1095756,learnblock1,513.2000007629395,img/planet7_right.png,7,Community 1,NA,TRUE,j,j,NA,NA,NA,1,6,"15,14,7,4,3,1,2,9,10,11,8,13,12,5,6"
15141,commdev-image-keyboard-response,382,1097008,learnblock1,366.30000019073486,img/planet4_left.png,4,Community 1,NA,TRUE,f,f,NA,NA,NA,1,6,"15,14,7,4,3,1,2,9,10,11,8,13,12,5,6"
15141,commdev-image-keyboard-response,383,1098260,learnblock1,809.8000001907349,img/planet7_left.png,7,Community 1,NA,TRUE,f,f,NA,NA,NA,1,6,"15,14,7,4,3,1,2,9,10,11,8,13,12,5,6"
15141,commdev-image-keyboard-response,384,1099513,learnblock1,857.1000003814697,img/planet15_left.png,15,Community 1,NA,FALSE,j,f,NA,NA,NA,1,6,"15,14,7,4,3,1,2,9,10,11,8,13,12,5,6"
15141,commdev-image-keyboard-response,385,1100765,learnblock1,23.5,img/planet4_left.png,4,Community 1,NA,TRUE,f,f,NA,NA,NA,1,6,"15,14,7,4,3,1,2,9,10,11,8,13,12,5,6"
15141,commdev-image-keyboard-response,386,1102017,learnblock1,705.1000003814697,img/planet14_left.png,14,Community 1,NA,TRUE,f,f,NA,NA,NA,1,6,"15,14,7,4,3,1,2,9,10,11,8,13,12,5,6"
15141,commdev-image-keyboard-response,387,1103271,learnblock1,699.6000003814697,img/planet4_right.png,4,Community 1,NA,TRUE,j,j,NA,NA,NA,1,6,"15,14,7,4,3,1,2,9,10,11,8,13,12,5,6"
15141,commdev-image-keyboard-response,388,1104523,learnblock1,626.6000003814697,img/planet14_left.png,14,Community 1,NA,TRUE,f,f,NA,NA,NA,1,6,"15,14,7,4,3,1,2,9,10,11,8,13,12,5,6"
15141,commdev-image-keyboard-response,389,1105775,learnblock1,534.3999996185303,img/planet7_right.png,7,Community 1,NA,TRUE,j,j,NA,NA,NA,1,6,"15,14,7,4,3,1,2,9,10,11,8,13,12,5,6"
15141,commdev-image-keyboard-response,390,1107028,learnblock1,896.3999996185303,img/planet14_right.png,14,Community 1,NA,TRUE,j,j,NA,NA,NA,1,6,"15,14,7,4,3,1,2,9,10,11,8,13,12,5,6"
15141,commdev-image-keyboard-response,391,1108280,learnblock1,760.7999992370605,img/planet15_left.png,15,Community 1,NA,TRUE,f,f,NA,NA,NA,1,6,"15,14,7,4,3,1,2,9,10,11,8,13,12,5,6"
15141,commdev-image-keyboard-response,392,1109532,learnblock1,707.2999992370605,img/planet4_right.png,4,Community 1,NA,TRUE,j,j,NA,NA,NA,1,6,"15,14,7,4,3,1,2,9,10,11,8,13,12,5,6"
15141,commdev-image-keyboard-response,393,1110785,learnblock1,757.6999998092651,img/planet7_right.png,7,Community 1,NA,TRUE,j,j,NA,NA,NA,1,6,"15,14,7,4,3,1,2,9,10,11,8,13,12,5,6"
15141,commdev-image-keyboard-response,394,1112036,learnblock1,702.8000001907349,img/planet14_right.png,14,Community 1,NA,TRUE,j,j,NA,NA,NA,1,6,"15,14,7,4,3,1,2,9,10,11,8,13,12,5,6"
15141,commdev-image-keyboard-response,395,1113288,learnblock1,711.5,img/planet4_right.png,4,Community 1,NA,TRUE,j,j,NA,NA,NA,1,6,"15,14,7,4,3,1,2,9,10,11,8,13,12,5,6"
15141,commdev-image-keyboard-response,396,1114540,learnblock1,1009.1999998092651,img/planet1_right.png,1,Community 2,NA,TRUE,j,j,NA,NA,NA,1,6,"15,14,7,4,3,1,2,9,10,11,8,13,12,5,6"
15141,commdev-image-keyboard-response,397,1115792,learnblock1,778.1000003814697,img/planet4_right.png,4,Community 1,NA,TRUE,j,j,NA,NA,NA,1,6,"15,14,7,4,3,1,2,9,10,11,8,13,12,5,6"
15141,commdev-image-keyboard-response,398,1117059,learnblock1,805.6000003814697,img/planet14_right.png,14,Community 1,NA,TRUE,j,j,NA,NA,NA,1,6,"15,14,7,4,3,1,2,9,10,11,8,13,12,5,6"
15141,commdev-image-keyboard-response,399,1118310,learnblock1,609,img/planet4_left.png,4,Community 1,NA,FALSE,j,f,NA,NA,NA,1,6,"15,14,7,4,3,1,2,9,10,11,8,13,12,5,6"
15141,commdev-image-keyboard-response,400,1119562,learnblock1,737.9000005722046,img/planet7_right.png,7,Community 1,NA,TRUE,j,j,NA,NA,NA,1,6,"15,14,7,4,3,1,2,9,10,11,8,13,12,5,6"
15141,commdev-image-keyboard-response,401,1120813,learnblock1,565.9000005722046,img/planet15_right.png,15,Community 1,NA,FALSE,f,j,NA,NA,NA,1,6,"15,14,7,4,3,1,2,9,10,11,8,13,12,5,6"
15141,commdev-image-keyboard-response,402,1122066,learnblock1,55.39999961853027,img/planet3_right.png,3,Community 1,NA,TRUE,j,j,NA,NA,NA,1,6,"15,14,7,4,3,1,2,9,10,11,8,13,12,5,6"
15141,commdev-image-keyboard-response,403,1123318,learnblock1,831.4000005722046,img/planet7_left.png,7,Community 1,NA,TRUE,f,f,NA,NA,NA,1,6,"15,14,7,4,3,1,2,9,10,11,8,13,12,5,6"
15141,commdev-image-keyboard-response,404,1124570,learnblock1,801.8000001907349,img/planet4_right.png,4,Community 1,NA,FALSE,f,j,NA,NA,NA,1,6,"15,14,7,4,3,1,2,9,10,11,8,13,12,5,6"
15141,commdev-image-keyboard-response,405,1125823,learnblock1,1016.9000005722046,img/planet14_right.png,14,Community 1,NA,TRUE,j,j,NA,NA,NA,1,6,"15,14,7,4,3,1,2,9,10,11,8,13,12,5,6"
15141,commdev-image-keyboard-response,406,1127076,learnblock1,878.6000003814697,img/planet7_left.png,7,Community 1,NA,TRUE,f,f,NA,NA,NA,1,6,"15,14,7,4,3,1,2,9,10,11,8,13,12,5,6"
15141,commdev-image-keyboard-response,407,1128328,learnblock1,713.5999994277954,img/planet15_left.png,15,Community 1,NA,TRUE,f,f,NA,NA,NA,1,6,"15,14,7,4,3,1,2,9,10,11,8,13,12,5,6"
15141,commdev-image-keyboard-response,408,1129580,learnblock1,749.5,img/planet14_right.png,14,Community 1,NA,TRUE,j,j,NA,NA,NA,1,6,"15,14,7,4,3,1,2,9,10,11,8,13,12,5,6"
15141,commdev-image-keyboard-response,409,1130831,learnblock1,617.6000003814697,img/planet4_left.png,4,Community 1,NA,TRUE,f,f,NA,NA,NA,1,6,"15,14,7,4,3,1,2,9,10,11,8,13,12,5,6"
15141,commdev-image-keyboard-response,410,1132084,learnblock1,806.9000005722046,img/planet7_right.png,7,Community 1,NA,FALSE,f,j,NA,NA,NA,1,6,"15,14,7,4,3,1,2,9,10,11,8,13,12,5,6"
15141,commdev-image-keyboard-response,411,1133336,learnblock1,1033.3999996185303,img/planet14_left.png,14,Community 1,NA,TRUE,f,f,NA,NA,NA,1,6,"15,14,7,4,3,1,2,9,10,11,8,13,12,5,6"
15141,commdev-image-keyboard-response,412,1134589,learnblock1,911.3000001907349,img/planet3_left.png,3,Community 1,NA,TRUE,f,f,NA,NA,NA,1,6,"15,14,7,4,3,1,2,9,10,11,8,13,12,5,6"
15141,commdev-image-keyboard-response,413,1135840,learnblock1,528.8000001907349,img/planet14_right.png,14,Community 1,NA,FALSE,f,j,NA,NA,NA,1,6,"15,14,7,4,3,1,2,9,10,11,8,13,12,5,6"
15141,commdev-image-keyboard-response,414,1137092,learnblock1,677.1999998092651,img/planet15_left.png,15,Community 1,NA,FALSE,j,f,NA,NA,NA,1,6,"15,14,7,4,3,1,2,9,10,11,8,13,12,5,6"
15141,commdev-image-keyboard-response,415,1138345,learnblock1,695.1999998092651,img/planet3_left.png,3,Community 1,NA,TRUE,f,f,NA,NA,NA,1,6,"15,14,7,4,3,1,2,9,10,11,8,13,12,5,6"
15141,commdev-image-keyboard-response,416,1139597,learnblock1,783.0999994277954,img/planet14_left.png,14,Community 1,NA,TRUE,f,f,NA,NA,NA,1,6,"15,14,7,4,3,1,2,9,10,11,8,13,12,5,6"
15141,commdev-image-keyboard-response,417,1140850,learnblock1,1150,img/planet7_left.png,7,Community 1,NA,TRUE,f,f,NA,NA,NA,1,6,"15,14,7,4,3,1,2,9,10,11,8,13,12,5,6"
15141,commdev-image-keyboard-response,418,1142101,learnblock1,872.9000005722046,img/planet15_right.png,15,Community 1,NA,TRUE,j,j,NA,NA,NA,1,6,"15,14,7,4,3,1,2,9,10,11,8,13,12,5,6"
15141,commdev-image-keyboard-response,419,1143353,learnblock1,956.1999998092651,img/planet3_right.png,3,Community 1,NA,FALSE,f,j,NA,NA,NA,1,6,"15,14,7,4,3,1,2,9,10,11,8,13,12,5,6"
15141,commdev-image-keyboard-response,420,1144605,learnblock1,587.0999994277954,img/planet8_right.png,8,Community 3,NA,FALSE,f,j,NA,NA,NA,1,6,"15,14,7,4,3,1,2,9,10,11,8,13,12,5,6"
15141,commdev-image-keyboard-response,421,1145858,learnblock1,752.1000003814697,img/planet12_right.png,12,Community 3,NA,FALSE,f,j,NA,NA,NA,1,6,"15,14,7,4,3,1,2,9,10,11,8,13,12,5,6"
15141,commdev-image-keyboard-response,422,1147110,learnblock1,929.6999998092651,img/planet5_left.png,5,Community 3,NA,TRUE,f,f,NA,NA,NA,1,6,"15,14,7,4,3,1,2,9,10,11,8,13,12,5,6"
15141,commdev-image-keyboard-response,423,1148363,learnblock1,787.3999996185303,img/planet6_left.png,6,Community 3,NA,TRUE,f,f,NA,NA,NA,1,6,"15,14,7,4,3,1,2,9,10,11,8,13,12,5,6"
15141,commdev-image-keyboard-response,424,1149615,learnblock1,707,img/planet5_right.png,5,Community 3,NA,TRUE,j,j,NA,NA,NA,1,6,"15,14,7,4,3,1,2,9,10,11,8,13,12,5,6"
15141,commdev-image-keyboard-response,425,1150866,learnblock1,863.5999994277954,img/planet6_right.png,6,Community 3,NA,FALSE,f,j,NA,NA,NA,1,6,"15,14,7,4,3,1,2,9,10,11,8,13,12,5,6"
15141,commdev-image-keyboard-response,426,1152118,learnblock1,31.700000762939453,img/planet5_left.png,5,Community 3,NA,FALSE,j,f,NA,NA,NA,1,6,"15,14,7,4,3,1,2,9,10,11,8,13,12,5,6"
15141,commdev-image-keyboard-response,427,1153370,learnblock1,839.6999998092651,img/planet6_left.png,6,Community 3,NA,TRUE,f,f,NA,NA,NA,1,6,"15,14,7,4,3,1,2,9,10,11,8,13,12,5,6"
15141,commdev-image-keyboard-response,428,1154622,learnblock1,618,img/planet5_right.png,5,Community 3,NA,TRUE,j,j,NA,NA,NA,1,6,"15,14,7,4,3,1,2,9,10,11,8,13,12,5,6"
15141,commdev-image-keyboard-response,429,1155873,learnblock1,796.1999998092651,img/planet6_right.png,6,Community 3,NA,TRUE,j,j,NA,NA,NA,1,6,"15,14,7,4,3,1,2,9,10,11,8,13,12,5,6"
15141,commdev-image-keyboard-response,430,1157126,learnblock1,924.8000001907349,img/planet13_right.png,13,Community 3,NA,TRUE,j,j,NA,NA,NA,1,6,"15,14,7,4,3,1,2,9,10,11,8,13,12,5,6"
15141,commdev-image-keyboard-response,431,1158378,learnblock1,833,img/planet6_left.png,6,Community 3,NA,TRUE,f,f,NA,NA,NA,1,6,"15,14,7,4,3,1,2,9,10,11,8,13,12,5,6"
15141,commdev-image-keyboard-response,435,1183013,learnblock2,778.6999998092651,img/planet5_left.png,5,Community 3,NA,TRUE,f,f,NA,NA,NA,1,6,"15,14,7,4,3,1,2,9,10,11,8,13,12,5,6"
15141,commdev-image-keyboard-response,436,1184265,learnblock2,675,img/planet6_left.png,6,Community 3,NA,TRUE,f,f,NA,NA,NA,1,6,"15,14,7,4,3,1,2,9,10,11,8,13,12,5,6"
15141,commdev-image-keyboard-response,437,1185517,learnblock2,882.5,img/planet8_left.png,8,Community 3,NA,TRUE,f,f,NA,NA,NA,1,6,"15,14,7,4,3,1,2,9,10,11,8,13,12,5,6"
15141,commdev-image-keyboard-response,438,1186769,learnblock2,700.8999996185303,img/planet12_left.png,12,Community 3,NA,TRUE,f,f,NA,NA,NA,1,6,"15,14,7,4,3,1,2,9,10,11,8,13,12,5,6"
15141,commdev-image-keyboard-response,439,1188021,learnblock2,613.1000003814697,img/planet13_left.png,13,Community 3,NA,TRUE,f,f,NA,NA,NA,1,6,"15,14,7,4,3,1,2,9,10,11,8,13,12,5,6"
15141,commdev-image-keyboard-response,440,1189274,learnblock2,656.5,img/planet12_right.png,12,Community 3,NA,TRUE,j,j,NA,NA,NA,1,6,"15,14,7,4,3,1,2,9,10,11,8,13,12,5,6"
15141,commdev-image-keyboard-response,441,1190526,learnblock2,584.1999998092651,img/planet8_left.png,8,Community 3,NA,TRUE,f,f,NA,NA,NA,1,6,"15,14,7,4,3,1,2,9,10,11,8,13,12,5,6"
15141,commdev-image-keyboard-response,442,1191778,learnblock2,615.5,img/planet5_left.png,5,Community 3,NA,TRUE,f,f,NA,NA,NA,1,6,"15,14,7,4,3,1,2,9,10,11,8,13,12,5,6"
15141,commdev-image-keyboard-response,443,1193031,learnblock2,629.6000003814697,img/planet13_right.png,13,Community 3,NA,TRUE,j,j,NA,NA,NA,1,6,"15,14,7,4,3,1,2,9,10,11,8,13,12,5,6"
15141,commdev-image-keyboard-response,444,1194283,learnblock2,537,img/planet12_left.png,12,Community 3,NA,TRUE,f,f,NA,NA,NA,1,6,"15,14,7,4,3,1,2,9,10,11,8,13,12,5,6"
15141,commdev-image-keyboard-response,445,1195534,learnblock2,516,img/planet13_left.png,13,Community 3,NA,TRUE,f,f,NA,NA,NA,1,6,"15,14,7,4,3,1,2,9,10,11,8,13,12,5,6"
15141,commdev-image-keyboard-response,446,1196786,learnblock2,574,img/planet6_left.png,6,Community 3,NA,TRUE,f,f,NA,NA,NA,1,6,"15,14,7,4,3,1,2,9,10,11,8,13,12,5,6"
15141,commdev-image-keyboard-response,447,1198039,learnblock2,661.9000005722046,img/planet8_left.png,8,Community 3,NA,TRUE,f,f,NA,NA,NA,1,6,"15,14,7,4,3,1,2,9,10,11,8,13,12,5,6"
15141,commdev-image-keyboard-response,448,1199290,learnblock2,519.5,img/planet5_left.png,5,Community 3,NA,TRUE,f,f,NA,NA,NA,1,6,"15,14,7,4,3,1,2,9,10,11,8,13,12,5,6"
15141,commdev-image-keyboard-response,449,1200542,learnblock2,687.5,img/planet13_right.png,13,Community 3,NA,TRUE,j,j,NA,NA,NA,1,6,"15,14,7,4,3,1,2,9,10,11,8,13,12,5,6"
15141,commdev-image-keyboard-response,450,1201794,learnblock2,686.5,img/planet12_left.png,12,Community 3,NA,TRUE,f,f,NA,NA,NA,1,6,"15,14,7,4,3,1,2,9,10,11,8,13,12,5,6"
15141,commdev-image-keyboard-response,451,1203045,learnblock2,843.8999996185303,img/planet8_right.png,8,Community 3,NA,TRUE,j,j,NA,NA,NA,1,6,"15,14,7,4,3,1,2,9,10,11,8,13,12,5,6"
15141,commdev-image-keyboard-response,452,1204297,learnblock2,502.30000019073486,img/planet12_left.png,12,Community 3,NA,TRUE,f,f,NA,NA,NA,1,6,"15,14,7,4,3,1,2,9,10,11,8,13,12,5,6"
15141,commdev-image-keyboard-response,453,1205549,learnblock2,691,img/planet13_left.png,13,Community 3,NA,FALSE,j,f,NA,NA,NA,1,6,"15,14,7,4,3,1,2,9,10,11,8,13,12,5,6"
15141,commdev-image-keyboard-response,454,1206801,learnblock2,721.3000001907349,img/planet6_right.png,6,Community 3,NA,TRUE,j,j,NA,NA,NA,1,6,"15,14,7,4,3,1,2,9,10,11,8,13,12,5,6"
15141,commdev-image-keyboard-response,455,1208054,learnblock2,547,img/planet13_left.png,13,Community 3,NA,TRUE,f,f,NA,NA,NA,1,6,"15,14,7,4,3,1,2,9,10,11,8,13,12,5,6"
15141,commdev-image-keyboard-response,456,1209306,learnblock2,420.1000003814697,img/planet9_left.png,9,Community 2,NA,FALSE,j,f,NA,NA,NA,1,6,"15,14,7,4,3,1,2,9,10,11,8,13,12,5,6"
15141,commdev-image-keyboard-response,457,1210558,learnblock2,712.3000001907349,img/planet13_left.png,13,Community 3,NA,TRUE,f,f,NA,NA,NA,1,6,"15,14,7,4,3,1,2,9,10,11,8,13,12,5,6"
15141,commdev-image-keyboard-response,458,1211810,learnblock2,1030.4000005722046,img/planet12_right.png,12,Community 3,NA,TRUE,j,j,NA,NA,NA,1,6,"15,14,7,4,3,1,2,9,10,11,8,13,12,5,6"
15141,commdev-image-keyboard-response,459,1213062,learnblock2,658.2999992370605,img/planet13_left.png,13,Community 3,NA,TRUE,f,f,NA,NA,NA,1,6,"15,14,7,4,3,1,2,9,10,11,8,13,12,5,6"
15141,commdev-image-keyboard-response,460,1214315,learnblock2,597,img/planet5_left.png,5,Community 3,NA,TRUE,f,f,NA,NA,NA,1,6,"15,14,7,4,3,1,2,9,10,11,8,13,12,5,6"
15141,commdev-image-keyboard-response,461,1215568,learnblock2,643.5,img/planet6_left.png,6,Community 3,NA,TRUE,f,f,NA,NA,NA,1,6,"15,14,7,4,3,1,2,9,10,11,8,13,12,5,6"
15141,commdev-image-keyboard-response,462,1216820,learnblock2,710.4000005722046,img/planet5_right.png,5,Community 3,NA,TRUE,j,j,NA,NA,NA,1,6,"15,14,7,4,3,1,2,9,10,11,8,13,12,5,6"
15141,commdev-image-keyboard-response,463,1218072,learnblock2,578.8000001907349,img/planet13_left.png,13,Community 3,NA,TRUE,f,f,NA,NA,NA,1,6,"15,14,7,4,3,1,2,9,10,11,8,13,12,5,6"
15141,commdev-image-keyboard-response,464,1219324,learnblock2,719.9000005722046,img/planet9_right.png,9,Community 2,NA,TRUE,j,j,NA,NA,NA,1,6,"15,14,7,4,3,1,2,9,10,11,8,13,12,5,6"
15141,commdev-image-keyboard-response,465,1220575,learnblock2,null,img/planet2_left.png,2,Community 2,NA,FALSE,null,f,NA,NA,NA,1,6,"15,14,7,4,3,1,2,9,10,11,8,13,12,5,6"
15141,commdev-image-keyboard-response,466,1221827,learnblock2,863.3999996185303,img/planet9_left.png,9,Community 2,NA,TRUE,f,f,NA,NA,NA,1,6,"15,14,7,4,3,1,2,9,10,11,8,13,12,5,6"
15141,commdev-image-keyboard-response,467,1223078,learnblock2,744,img/planet13_left.png,13,Community 3,NA,TRUE,f,f,NA,NA,NA,1,6,"15,14,7,4,3,1,2,9,10,11,8,13,12,5,6"
15141,commdev-image-keyboard-response,468,1224330,learnblock2,613.1000003814697,img/planet9_left.png,9,Community 2,NA,TRUE,f,f,NA,NA,NA,1,6,"15,14,7,4,3,1,2,9,10,11,8,13,12,5,6"
15141,commdev-image-keyboard-response,469,1225581,learnblock2,560.8000001907349,img/planet11_right.png,11,Community 2,NA,TRUE,j,j,NA,NA,NA,1,6,"15,14,7,4,3,1,2,9,10,11,8,13,12,5,6"
15141,commdev-image-keyboard-response,470,1226833,learnblock2,656.8999996185303,img/planet10_right.png,10,Community 2,NA,TRUE,j,j,NA,NA,NA,1,6,"15,14,7,4,3,1,2,9,10,11,8,13,12,5,6"
15141,commdev-image-keyboard-response,471,1228086,learnblock2,814.6999998092651,img/planet2_right.png,2,Community 2,NA,TRUE,j,j,NA,NA,NA,1,6,"15,14,7,4,3,1,2,9,10,11,8,13,12,5,6"
15141,commdev-image-keyboard-response,472,1229338,learnblock2,932.7000007629395,img/planet11_left.png,11,Community 2,NA,TRUE,f,f,NA,NA,NA,1,6,"15,14,7,4,3,1,2,9,10,11,8,13,12,5,6"
15141,commdev-image-keyboard-response,473,1230591,learnblock2,839.5,img/planet9_left.png,9,Community 2,NA,TRUE,f,f,NA,NA,NA,1,6,"15,14,7,4,3,1,2,9,10,11,8,13,12,5,6"
15141,commdev-image-keyboard-response,474,1231843,learnblock2,707.5,img/planet13_left.png,13,Community 3,NA,TRUE,f,f,NA,NA,NA,1,6,"15,14,7,4,3,1,2,9,10,11,8,13,12,5,6"
15141,commdev-image-keyboard-response,475,1233095,learnblock2,565.5,img/planet9_left.png,9,Community 2,NA,TRUE,f,f,NA,NA,NA,1,6,"15,14,7,4,3,1,2,9,10,11,8,13,12,5,6"
15141,commdev-image-keyboard-response,476,1234348,learnblock2,796.3000001907349,img/planet13_left.png,13,Community 3,NA,TRUE,f,f,NA,NA,NA,1,6,"15,14,7,4,3,1,2,9,10,11,8,13,12,5,6"
15141,commdev-image-keyboard-response,477,1235600,learnblock2,810.6000003814697,img/planet12_left.png,12,Community 3,NA,TRUE,f,f,NA,NA,NA,1,6,"15,14,7,4,3,1,2,9,10,11,8,13,12,5,6"
15141,commdev-image-keyboard-response,478,1236852,learnblock2,792.7999992370605,img/planet13_right.png,13,Community 3,NA,TRUE,j,j,NA,NA,NA,1,6,"15,14,7,4,3,1,2,9,10,11,8,13,12,5,6"
15141,commdev-image-keyboard-response,479,1238103,learnblock2,687,img/planet6_right.png,6,Community 3,NA,TRUE,j,j,NA,NA,NA,1,6,"15,14,7,4,3,1,2,9,10,11,8,13,12,5,6"
15141,commdev-image-keyboard-response,480,1239355,learnblock2,755,img/planet12_right.png,12,Community 3,NA,TRUE,j,j,NA,NA,NA,1,6,"15,14,7,4,3,1,2,9,10,11,8,13,12,5,6"
15141,commdev-image-keyboard-response,481,1240606,learnblock2,623.9000005722046,img/planet6_left.png,6,Community 3,NA,FALSE,j,f,NA,NA,NA,1,6,"15,14,7,4,3,1,2,9,10,11,8,13,12,5,6"
15141,commdev-image-keyboard-response,482,1241858,learnblock2,863.8000001907349,img/planet8_left.png,8,Community 3,NA,TRUE,f,f,NA,NA,NA,1,6,"15,14,7,4,3,1,2,9,10,11,8,13,12,5,6"
15141,commdev-image-keyboard-response,483,1243110,learnblock2,699.5,img/planet6_left.png,6,Community 3,NA,TRUE,f,f,NA,NA,NA,1,6,"15,14,7,4,3,1,2,9,10,11,8,13,12,5,6"
15141,commdev-image-keyboard-response,484,1244362,learnblock2,808.6000003814697,img/planet8_right.png,8,Community 3,NA,TRUE,j,j,NA,NA,NA,1,6,"15,14,7,4,3,1,2,9,10,11,8,13,12,5,6"
15141,commdev-image-keyboard-response,485,1245615,learnblock2,915.8000001907349,img/planet6_right.png,6,Community 3,NA,TRUE,j,j,NA,NA,NA,1,6,"15,14,7,4,3,1,2,9,10,11,8,13,12,5,6"
15141,commdev-image-keyboard-response,486,1246867,learnblock2,857,img/planet5_left.png,5,Community 3,NA,TRUE,f,f,NA,NA,NA,1,6,"15,14,7,4,3,1,2,9,10,11,8,13,12,5,6"
15141,commdev-image-keyboard-response,487,1248120,learnblock2,1101.1000003814697,img/planet6_left.png,6,Community 3,NA,TRUE,f,f,NA,NA,NA,1,6,"15,14,7,4,3,1,2,9,10,11,8,13,12,5,6"
15141,commdev-image-keyboard-response,488,1249372,learnblock2,889.1000003814697,img/planet5_left.png,5,Community 3,NA,TRUE,f,f,NA,NA,NA,1,6,"15,14,7,4,3,1,2,9,10,11,8,13,12,5,6"
15141,commdev-image-keyboard-response,489,1250624,learnblock2,706.2999992370605,img/planet6_right.png,6,Community 3,NA,TRUE,j,j,NA,NA,NA,1,6,"15,14,7,4,3,1,2,9,10,11,8,13,12,5,6"
15141,commdev-image-keyboard-response,490,1251875,learnblock2,874.1999998092651,img/planet12_right.png,12,Community 3,NA,TRUE,j,j,NA,NA,NA,1,6,"15,14,7,4,3,1,2,9,10,11,8,13,12,5,6"
15141,commdev-image-keyboard-response,491,1253126,learnblock2,753.2000007629395,img/planet6_right.png,6,Community 3,NA,TRUE,j,j,NA,NA,NA,1,6,"15,14,7,4,3,1,2,9,10,11,8,13,12,5,6"
15141,commdev-image-keyboard-response,492,1254379,learnblock2,742.1999998092651,img/planet12_right.png,12,Community 3,NA,TRUE,j,j,NA,NA,NA,1,6,"15,14,7,4,3,1,2,9,10,11,8,13,12,5,6"
15141,commdev-image-keyboard-response,493,1255631,learnblock2,760.1999998092651,img/planet6_left.png,6,Community 3,NA,TRUE,f,f,NA,NA,NA,1,6,"15,14,7,4,3,1,2,9,10,11,8,13,12,5,6"
15141,commdev-image-keyboard-response,494,1256882,learnblock2,887.6999998092651,img/planet12_left.png,12,Community 3,NA,TRUE,f,f,NA,NA,NA,1,6,"15,14,7,4,3,1,2,9,10,11,8,13,12,5,6"
15141,commdev-image-keyboard-response,495,1258135,learnblock2,706.5,img/planet13_left.png,13,Community 3,NA,TRUE,f,f,NA,NA,NA,1,6,"15,14,7,4,3,1,2,9,10,11,8,13,12,5,6"
15141,commdev-image-keyboard-response,496,1259387,learnblock2,683.8000001907349,img/planet6_left.png,6,Community 3,NA,TRUE,f,f,NA,NA,NA,1,6,"15,14,7,4,3,1,2,9,10,11,8,13,12,5,6"
15141,commdev-image-keyboard-response,497,1260639,learnblock2,680.8999996185303,img/planet5_left.png,5,Community 3,NA,TRUE,f,f,NA,NA,NA,1,6,"15,14,7,4,3,1,2,9,10,11,8,13,12,5,6"
15141,commdev-image-keyboard-response,498,1261890,learnblock2,750.6999998092651,img/planet13_right.png,13,Community 3,NA,TRUE,j,j,NA,NA,NA,1,6,"15,14,7,4,3,1,2,9,10,11,8,13,12,5,6"
15141,commdev-image-keyboard-response,499,1263144,learnblock2,611.3000001907349,img/planet9_right.png,9,Community 2,NA,TRUE,j,j,NA,NA,NA,1,6,"15,14,7,4,3,1,2,9,10,11,8,13,12,5,6"
15141,commdev-image-keyboard-response,500,1264396,learnblock2,706.1999998092651,img/planet10_right.png,10,Community 2,NA,TRUE,j,j,NA,NA,NA,1,6,"15,14,7,4,3,1,2,9,10,11,8,13,12,5,6"
15141,commdev-image-keyboard-response,501,1265648,learnblock2,983.1999998092651,img/planet1_right.png,1,Community 2,NA,TRUE,j,j,NA,NA,NA,1,6,"15,14,7,4,3,1,2,9,10,11,8,13,12,5,6"
15141,commdev-image-keyboard-response,502,1266901,learnblock2,855.7999992370605,img/planet11_right.png,11,Community 2,NA,TRUE,j,j,NA,NA,NA,1,6,"15,14,7,4,3,1,2,9,10,11,8,13,12,5,6"
15141,commdev-image-keyboard-response,503,1268152,learnblock2,553,img/planet2_right.png,2,Community 2,NA,TRUE,j,j,NA,NA,NA,1,6,"15,14,7,4,3,1,2,9,10,11,8,13,12,5,6"
15141,commdev-image-keyboard-response,504,1269404,learnblock2,720.4000005722046,img/planet11_right.png,11,Community 2,NA,TRUE,j,j,NA,NA,NA,1,6,"15,14,7,4,3,1,2,9,10,11,8,13,12,5,6"
15141,commdev-image-keyboard-response,505,1270655,learnblock2,746.1999998092651,img/planet9_right.png,9,Community 2,NA,TRUE,j,j,NA,NA,NA,1,6,"15,14,7,4,3,1,2,9,10,11,8,13,12,5,6"
15141,commdev-image-keyboard-response,506,1271907,learnblock2,935,img/planet11_right.png,11,Community 2,NA,TRUE,j,j,NA,NA,NA,1,6,"15,14,7,4,3,1,2,9,10,11,8,13,12,5,6"
15141,commdev-image-keyboard-response,507,1273159,learnblock2,791.8999996185303,img/planet2_right.png,2,Community 2,NA,TRUE,j,j,NA,NA,NA,1,6,"15,14,7,4,3,1,2,9,10,11,8,13,12,5,6"
15141,commdev-image-keyboard-response,508,1274410,learnblock2,564.2000007629395,img/planet1_left.png,1,Community 2,NA,FALSE,j,f,NA,NA,NA,1,6,"15,14,7,4,3,1,2,9,10,11,8,13,12,5,6"
15141,commdev-image-keyboard-response,509,1275662,learnblock2,728.1999998092651,img/planet4_right.png,4,Community 1,NA,TRUE,j,j,NA,NA,NA,1,6,"15,14,7,4,3,1,2,9,10,11,8,13,12,5,6"
15141,commdev-image-keyboard-response,510,1276914,learnblock2,941.3999996185303,img/planet14_right.png,14,Community 1,NA,TRUE,j,j,NA,NA,NA,1,6,"15,14,7,4,3,1,2,9,10,11,8,13,12,5,6"
15141,commdev-image-keyboard-response,511,1278167,learnblock2,795.5,img/planet15_right.png,15,Community 1,NA,TRUE,j,j,NA,NA,NA,1,6,"15,14,7,4,3,1,2,9,10,11,8,13,12,5,6"
15141,commdev-image-keyboard-response,512,1279420,learnblock2,1098.6999998092651,img/planet14_right.png,14,Community 1,NA,TRUE,j,j,NA,NA,NA,1,6,"15,14,7,4,3,1,2,9,10,11,8,13,12,5,6"
15141,commdev-image-keyboard-response,513,1280672,learnblock2,959.8000001907349,img/planet3_right.png,3,Community 1,NA,TRUE,j,j,NA,NA,NA,1,6,"15,14,7,4,3,1,2,9,10,11,8,13,12,5,6"
15141,commdev-image-keyboard-response,514,1281924,learnblock2,936.5,img/planet7_right.png,7,Community 1,NA,TRUE,j,j,NA,NA,NA,1,6,"15,14,7,4,3,1,2,9,10,11,8,13,12,5,6"
15141,commdev-image-keyboard-response,515,1283175,learnblock2,976.1999998092651,img/planet4_right.png,4,Community 1,NA,TRUE,j,j,NA,NA,NA,1,6,"15,14,7,4,3,1,2,9,10,11,8,13,12,5,6"
15141,commdev-image-keyboard-response,516,1284427,learnblock2,null,img/planet14_right.png,14,Community 1,NA,FALSE,null,j,NA,NA,NA,1,6,"15,14,7,4,3,1,2,9,10,11,8,13,12,5,6"
15141,commdev-image-keyboard-response,517,1285679,learnblock2,126,img/planet3_right.png,3,Community 1,NA,FALSE,f,j,NA,NA,NA,1,6,"15,14,7,4,3,1,2,9,10,11,8,13,12,5,6"
15141,commdev-image-keyboard-response,518,1286932,learnblock2,821.2000007629395,img/planet14_right.png,14,Community 1,NA,FALSE,f,j,NA,NA,NA,1,6,"15,14,7,4,3,1,2,9,10,11,8,13,12,5,6"
15141,commdev-image-keyboard-response,519,1288183,learnblock2,1069,img/planet4_right.png,4,Community 1,NA,TRUE,j,j,NA,NA,NA,1,6,"15,14,7,4,3,1,2,9,10,11,8,13,12,5,6"
15141,commdev-image-keyboard-response,520,1289436,learnblock2,836.6999998092651,img/planet7_left.png,7,Community 1,NA,TRUE,f,f,NA,NA,NA,1,6,"15,14,7,4,3,1,2,9,10,11,8,13,12,5,6"
15141,commdev-image-keyboard-response,521,1290702,learnblock2,1067.5,img/planet14_right.png,14,Community 1,NA,FALSE,f,j,NA,NA,NA,1,6,"15,14,7,4,3,1,2,9,10,11,8,13,12,5,6"
15141,commdev-image-keyboard-response,522,1291954,learnblock2,957.7999992370605,img/planet3_left.png,3,Community 1,NA,TRUE,f,f,NA,NA,NA,1,6,"15,14,7,4,3,1,2,9,10,11,8,13,12,5,6"
15141,commdev-image-keyboard-response,523,1293206,learnblock2,896.3000001907349,img/planet15_left.png,15,Community 1,NA,TRUE,f,f,NA,NA,NA,1,6,"15,14,7,4,3,1,2,9,10,11,8,13,12,5,6"
15141,commdev-image-keyboard-response,524,1294459,learnblock2,873.8999996185303,img/planet3_left.png,3,Community 1,NA,TRUE,f,f,NA,NA,NA,1,6,"15,14,7,4,3,1,2,9,10,11,8,13,12,5,6"
15141,commdev-image-keyboard-response,525,1295710,learnblock2,551.6999998092651,img/planet15_left.png,15,Community 1,NA,TRUE,f,f,NA,NA,NA,1,6,"15,14,7,4,3,1,2,9,10,11,8,13,12,5,6"
15141,commdev-image-keyboard-response,526,1296962,learnblock2,679.4000005722046,img/planet7_right.png,7,Community 1,NA,TRUE,j,j,NA,NA,NA,1,6,"15,14,7,4,3,1,2,9,10,11,8,13,12,5,6"
15141,commdev-image-keyboard-response,527,1298214,learnblock2,768,img/planet3_right.png,3,Community 1,NA,TRUE,j,j,NA,NA,NA,1,6,"15,14,7,4,3,1,2,9,10,11,8,13,12,5,6"
15141,commdev-image-keyboard-response,528,1299465,learnblock2,769.7999992370605,img/planet14_right.png,14,Community 1,NA,TRUE,j,j,NA,NA,NA,1,6,"15,14,7,4,3,1,2,9,10,11,8,13,12,5,6"
15141,commdev-image-keyboard-response,529,1300717,learnblock2,974.6999998092651,img/planet7_right.png,7,Community 1,NA,TRUE,j,j,NA,NA,NA,1,6,"15,14,7,4,3,1,2,9,10,11,8,13,12,5,6"
15141,commdev-image-keyboard-response,530,1301969,learnblock2,942.9000005722046,img/planet14_right.png,14,Community 1,NA,TRUE,j,j,NA,NA,NA,1,6,"15,14,7,4,3,1,2,9,10,11,8,13,12,5,6"
15141,commdev-image-keyboard-response,531,1303220,learnblock2,661.6999998092651,img/planet4_left.png,4,Community 1,NA,TRUE,f,f,NA,NA,NA,1,6,"15,14,7,4,3,1,2,9,10,11,8,13,12,5,6"
15141,commdev-image-keyboard-response,532,1304472,learnblock2,600.0999994277954,img/planet1_left.png,1,Community 2,NA,TRUE,f,f,NA,NA,NA,1,6,"15,14,7,4,3,1,2,9,10,11,8,13,12,5,6"
15141,commdev-image-keyboard-response,533,1305725,learnblock2,508,img/planet4_left.png,4,Community 1,NA,TRUE,f,f,NA,NA,NA,1,6,"15,14,7,4,3,1,2,9,10,11,8,13,12,5,6"
15141,commdev-image-keyboard-response,534,1306978,learnblock2,656.8999996185303,img/planet15_right.png,15,Community 1,NA,TRUE,j,j,NA,NA,NA,1,6,"15,14,7,4,3,1,2,9,10,11,8,13,12,5,6"
15141,commdev-image-keyboard-response,535,1308230,learnblock2,732.1999998092651,img/planet4_right.png,4,Community 1,NA,TRUE,j,j,NA,NA,NA,1,6,"15,14,7,4,3,1,2,9,10,11,8,13,12,5,6"
15141,commdev-image-keyboard-response,536,1309481,learnblock2,960.8000001907349,img/planet7_right.png,7,Community 1,NA,TRUE,j,j,NA,NA,NA,1,6,"15,14,7,4,3,1,2,9,10,11,8,13,12,5,6"
15141,commdev-image-keyboard-response,537,1310733,learnblock2,991.3000001907349,img/planet14_right.png,14,Community 1,NA,FALSE,f,j,NA,NA,NA,1,6,"15,14,7,4,3,1,2,9,10,11,8,13,12,5,6"
15141,commdev-image-keyboard-response,538,1311984,learnblock2,737,img/planet7_right.png,7,Community 1,NA,TRUE,j,j,NA,NA,NA,1,6,"15,14,7,4,3,1,2,9,10,11,8,13,12,5,6"
15141,commdev-image-keyboard-response,539,1313236,learnblock2,666.1000003814697,img/planet3_right.png,3,Community 1,NA,TRUE,j,j,NA,NA,NA,1,6,"15,14,7,4,3,1,2,9,10,11,8,13,12,5,6"
15141,commdev-image-keyboard-response,540,1314488,learnblock2,1114.4000005722046,img/planet7_right.png,7,Community 1,NA,TRUE,j,j,NA,NA,NA,1,6,"15,14,7,4,3,1,2,9,10,11,8,13,12,5,6"
15141,commdev-image-keyboard-response,541,1315740,learnblock2,746.6000003814697,img/planet15_left.png,15,Community 1,NA,TRUE,f,f,NA,NA,NA,1,6,"15,14,7,4,3,1,2,9,10,11,8,13,12,5,6"
15141,commdev-image-keyboard-response,542,1316991,learnblock2,633.4000005722046,img/planet7_left.png,7,Community 1,NA,TRUE,f,f,NA,NA,NA,1,6,"15,14,7,4,3,1,2,9,10,11,8,13,12,5,6"
15141,commdev-image-keyboard-response,543,1318243,learnblock2,860.0999994277954,img/planet3_right.png,3,Community 1,NA,TRUE,j,j,NA,NA,NA,1,6,"15,14,7,4,3,1,2,9,10,11,8,13,12,5,6"
15141,commdev-image-keyboard-response,544,1319495,learnblock2,797.6999998092651,img/planet7_left.png,7,Community 1,NA,TRUE,f,f,NA,NA,NA,1,6,"15,14,7,4,3,1,2,9,10,11,8,13,12,5,6"
15141,commdev-image-keyboard-response,545,1320746,learnblock2,659.5999994277954,img/planet3_right.png,3,Community 1,NA,TRUE,j,j,NA,NA,NA,1,6,"15,14,7,4,3,1,2,9,10,11,8,13,12,5,6"
15141,commdev-image-keyboard-response,546,1321999,learnblock2,853.6000003814697,img/planet14_right.png,14,Community 1,NA,TRUE,j,j,NA,NA,NA,1,6,"15,14,7,4,3,1,2,9,10,11,8,13,12,5,6"
15141,commdev-image-keyboard-response,547,1323251,learnblock2,783.5,img/planet4_right.png,4,Community 1,NA,TRUE,j,j,NA,NA,NA,1,6,"15,14,7,4,3,1,2,9,10,11,8,13,12,5,6"
15141,commdev-image-keyboard-response,548,1324502,learnblock2,649.3999996185303,img/planet1_left.png,1,Community 2,NA,TRUE,f,f,NA,NA,NA,1,6,"15,14,7,4,3,1,2,9,10,11,8,13,12,5,6"
15141,commdev-image-keyboard-response,549,1325754,learnblock2,728.1999998092651,img/planet11_right.png,11,Community 2,NA,TRUE,j,j,NA,NA,NA,1,6,"15,14,7,4,3,1,2,9,10,11,8,13,12,5,6"
15141,commdev-image-keyboard-response,550,1327016,learnblock2,641,img/planet2_left.png,2,Community 2,NA,TRUE,f,f,NA,NA,NA,1,6,"15,14,7,4,3,1,2,9,10,11,8,13,12,5,6"
15141,commdev-image-keyboard-response,551,1328268,learnblock2,704.5999994277954,img/planet11_right.png,11,Community 2,NA,TRUE,j,j,NA,NA,NA,1,6,"15,14,7,4,3,1,2,9,10,11,8,13,12,5,6"
15141,commdev-image-keyboard-response,552,1329520,learnblock2,635.3000001907349,img/planet2_right.png,2,Community 2,NA,TRUE,j,j,NA,NA,NA,1,6,"15,14,7,4,3,1,2,9,10,11,8,13,12,5,6"
15141,commdev-image-keyboard-response,553,1330772,learnblock2,700.6000003814697,img/planet10_right.png,10,Community 2,NA,TRUE,j,j,NA,NA,NA,1,6,"15,14,7,4,3,1,2,9,10,11,8,13,12,5,6"
15141,commdev-image-keyboard-response,554,1332025,learnblock2,597.5,img/planet2_right.png,2,Community 2,NA,TRUE,j,j,NA,NA,NA,1,6,"15,14,7,4,3,1,2,9,10,11,8,13,12,5,6"
15141,commdev-image-keyboard-response,555,1333277,learnblock2,735.6999998092651,img/planet1_left.png,1,Community 2,NA,TRUE,f,f,NA,NA,NA,1,6,"15,14,7,4,3,1,2,9,10,11,8,13,12,5,6"
15141,commdev-image-keyboard-response,556,1334529,learnblock2,707.6999998092651,img/planet10_left.png,10,Community 2,NA,TRUE,f,f,NA,NA,NA,1,6,"15,14,7,4,3,1,2,9,10,11,8,13,12,5,6"
15141,commdev-image-keyboard-response,557,1335781,learnblock2,801.8000001907349,img/planet2_left.png,2,Community 2,NA,TRUE,f,f,NA,NA,NA,1,6,"15,14,7,4,3,1,2,9,10,11,8,13,12,5,6"
15141,commdev-image-keyboard-response,558,1337033,learnblock2,629.7000007629395,img/planet9_left.png,9,Community 2,NA,TRUE,f,f,NA,NA,NA,1,6,"15,14,7,4,3,1,2,9,10,11,8,13,12,5,6"
15141,commdev-image-keyboard-response,559,1338285,learnblock2,767.5,img/planet2_right.png,2,Community 2,NA,TRUE,j,j,NA,NA,NA,1,6,"15,14,7,4,3,1,2,9,10,11,8,13,12,5,6"
15141,commdev-image-keyboard-response,560,1339537,learnblock2,725.5,img/planet1_left.png,1,Community 2,NA,TRUE,f,f,NA,NA,NA,1,6,"15,14,7,4,3,1,2,9,10,11,8,13,12,5,6"
15141,commdev-image-keyboard-response,561,1340790,learnblock2,592.6999998092651,img/planet10_left.png,10,Community 2,NA,TRUE,f,f,NA,NA,NA,1,6,"15,14,7,4,3,1,2,9,10,11,8,13,12,5,6"
15141,commdev-image-keyboard-response,562,1342041,learnblock2,941.0999994277954,img/planet2_left.png,2,Community 2,NA,TRUE,f,f,NA,NA,NA,1,6,"15,14,7,4,3,1,2,9,10,11,8,13,12,5,6"
15141,commdev-image-keyboard-response,563,1343293,learnblock2,793.1999998092651,img/planet10_left.png,10,Community 2,NA,TRUE,f,f,NA,NA,NA,1,6,"15,14,7,4,3,1,2,9,10,11,8,13,12,5,6"
15141,commdev-image-keyboard-response,564,1344545,learnblock2,667.4000005722046,img/planet1_left.png,1,Community 2,NA,TRUE,f,f,NA,NA,NA,1,6,"15,14,7,4,3,1,2,9,10,11,8,13,12,5,6"
15141,commdev-image-keyboard-response,565,1345798,learnblock2,764.9000005722046,img/planet11_left.png,11,Community 2,NA,TRUE,f,f,NA,NA,NA,1,6,"15,14,7,4,3,1,2,9,10,11,8,13,12,5,6"
15141,commdev-image-keyboard-response,566,1347050,learnblock2,662.6000003814697,img/planet9_left.png,9,Community 2,NA,TRUE,f,f,NA,NA,NA,1,6,"15,14,7,4,3,1,2,9,10,11,8,13,12,5,6"
15141,commdev-image-keyboard-response,567,1348302,learnblock2,584.5,img/planet2_left.png,2,Community 2,NA,TRUE,f,f,NA,NA,NA,1,6,"15,14,7,4,3,1,2,9,10,11,8,13,12,5,6"
15141,commdev-image-keyboard-response,568,1349554,learnblock2,488.5,img/planet10_left.png,10,Community 2,NA,TRUE,f,f,NA,NA,NA,1,6,"15,14,7,4,3,1,2,9,10,11,8,13,12,5,6"
15141,commdev-image-keyboard-response,569,1350807,learnblock2,685.8000001907349,img/planet2_left.png,2,Community 2,NA,TRUE,f,f,NA,NA,NA,1,6,"15,14,7,4,3,1,2,9,10,11,8,13,12,5,6"
15141,commdev-image-keyboard-response,570,1352058,learnblock2,574.3000001907349,img/planet1_right.png,1,Community 2,NA,TRUE,j,j,NA,NA,NA,1,6,"15,14,7,4,3,1,2,9,10,11,8,13,12,5,6"
15141,commdev-image-keyboard-response,571,1353310,learnblock2,792.8000001907349,img/planet10_right.png,10,Community 2,NA,TRUE,j,j,NA,NA,NA,1,6,"15,14,7,4,3,1,2,9,10,11,8,13,12,5,6"
15141,commdev-image-keyboard-response,572,1354562,learnblock2,470.6000003814697,img/planet2_right.png,2,Community 2,NA,TRUE,j,j,NA,NA,NA,1,6,"15,14,7,4,3,1,2,9,10,11,8,13,12,5,6"
15141,commdev-image-keyboard-response,573,1355814,learnblock2,489.30000019073486,img/planet1_right.png,1,Community 2,NA,TRUE,j,j,NA,NA,NA,1,6,"15,14,7,4,3,1,2,9,10,11,8,13,12,5,6"
15141,commdev-image-keyboard-response,574,1357065,learnblock2,686.8999996185303,img/planet4_left.png,4,Community 1,NA,TRUE,f,f,NA,NA,NA,1,6,"15,14,7,4,3,1,2,9,10,11,8,13,12,5,6"
15141,commdev-image-keyboard-response,575,1358318,learnblock2,644.7999992370605,img/planet7_right.png,7,Community 1,NA,TRUE,j,j,NA,NA,NA,1,6,"15,14,7,4,3,1,2,9,10,11,8,13,12,5,6"
15141,commdev-image-keyboard-response,576,1359571,learnblock2,682.6000003814697,img/planet3_left.png,3,Community 1,NA,TRUE,f,f,NA,NA,NA,1,6,"15,14,7,4,3,1,2,9,10,11,8,13,12,5,6"
15141,commdev-image-keyboard-response,577,1360823,learnblock2,889.5,img/planet8_left.png,8,Community 3,NA,TRUE,f,f,NA,NA,NA,1,6,"15,14,7,4,3,1,2,9,10,11,8,13,12,5,6"
15141,commdev-image-keyboard-response,578,1362075,learnblock2,788.1000003814697,img/planet5_right.png,5,Community 3,NA,TRUE,j,j,NA,NA,NA,1,6,"15,14,7,4,3,1,2,9,10,11,8,13,12,5,6"
15141,commdev-image-keyboard-response,579,1363327,learnblock2,936.1000003814697,img/planet13_right.png,13,Community 3,NA,TRUE,j,j,NA,NA,NA,1,6,"15,14,7,4,3,1,2,9,10,11,8,13,12,5,6"
15141,commdev-image-keyboard-response,580,1364579,learnblock2,834.0999994277954,img/planet12_right.png,12,Community 3,NA,TRUE,j,j,NA,NA,NA,1,6,"15,14,7,4,3,1,2,9,10,11,8,13,12,5,6"
15141,commdev-image-keyboard-response,581,1365830,learnblock2,765.1000003814697,img/planet13_right.png,13,Community 3,NA,TRUE,j,j,NA,NA,NA,1,6,"15,14,7,4,3,1,2,9,10,11,8,13,12,5,6"
15141,commdev-image-keyboard-response,582,1367083,learnblock2,590.3000001907349,img/planet5_right.png,5,Community 3,NA,TRUE,j,j,NA,NA,NA,1,6,"15,14,7,4,3,1,2,9,10,11,8,13,12,5,6"
15141,commdev-image-keyboard-response,583,1368335,learnblock2,738.1999998092651,img/planet8_left.png,8,Community 3,NA,TRUE,f,f,NA,NA,NA,1,6,"15,14,7,4,3,1,2,9,10,11,8,13,12,5,6"
15141,commdev-image-keyboard-response,584,1369586,learnblock2,755.7999992370605,img/planet6_right.png,6,Community 3,NA,TRUE,j,j,NA,NA,NA,1,6,"15,14,7,4,3,1,2,9,10,11,8,13,12,5,6"
15141,commdev-image-keyboard-response,585,1370839,learnblock2,754.7999992370605,img/planet5_left.png,5,Community 3,NA,TRUE,f,f,NA,NA,NA,1,6,"15,14,7,4,3,1,2,9,10,11,8,13,12,5,6"
15141,commdev-image-keyboard-response,586,1372091,learnblock2,781.6999998092651,img/planet8_left.png,8,Community 3,NA,TRUE,f,f,NA,NA,NA,1,6,"15,14,7,4,3,1,2,9,10,11,8,13,12,5,6"
15141,commdev-image-keyboard-response,587,1373343,learnblock2,980.1000003814697,img/planet3_left.png,3,Community 1,NA,TRUE,f,f,NA,NA,NA,1,6,"15,14,7,4,3,1,2,9,10,11,8,13,12,5,6"
15141,commdev-image-keyboard-response,588,1374595,learnblock2,791.3000001907349,img/planet8_right.png,8,Community 3,NA,TRUE,j,j,NA,NA,NA,1,6,"15,14,7,4,3,1,2,9,10,11,8,13,12,5,6"
15141,commdev-image-keyboard-response,589,1375846,learnblock2,726,img/planet3_left.png,3,Community 1,NA,TRUE,f,f,NA,NA,NA,1,6,"15,14,7,4,3,1,2,9,10,11,8,13,12,5,6"
15141,commdev-image-keyboard-response,590,1377099,learnblock2,534.5,img/planet8_right.png,8,Community 3,NA,TRUE,j,j,NA,NA,NA,1,6,"15,14,7,4,3,1,2,9,10,11,8,13,12,5,6"
15141,commdev-image-keyboard-response,591,1378351,learnblock2,815.1999998092651,img/planet3_left.png,3,Community 1,NA,TRUE,f,f,NA,NA,NA,1,6,"15,14,7,4,3,1,2,9,10,11,8,13,12,5,6"
15141,commdev-image-keyboard-response,592,1379603,learnblock2,630,img/planet8_right.png,8,Community 3,NA,TRUE,j,j,NA,NA,NA,1,6,"15,14,7,4,3,1,2,9,10,11,8,13,12,5,6"
15141,commdev-image-keyboard-response,593,1380855,learnblock2,897.6000003814697,img/planet5_right.png,5,Community 3,NA,TRUE,j,j,NA,NA,NA,1,6,"15,14,7,4,3,1,2,9,10,11,8,13,12,5,6"
15141,commdev-image-keyboard-response,594,1382106,learnblock2,1205.8000001907349,img/planet12_right.png,12,Community 3,NA,TRUE,j,j,NA,NA,NA,1,6,"15,14,7,4,3,1,2,9,10,11,8,13,12,5,6"
15141,commdev-image-keyboard-response,595,1383358,learnblock2,635.2000007629395,img/planet8_left.png,8,Community 3,NA,TRUE,f,f,NA,NA,NA,1,6,"15,14,7,4,3,1,2,9,10,11,8,13,12,5,6"
15141,commdev-image-keyboard-response,596,1384609,learnblock2,743.1999998092651,img/planet5_left.png,5,Community 3,NA,TRUE,f,f,NA,NA,NA,1,6,"15,14,7,4,3,1,2,9,10,11,8,13,12,5,6"
15141,commdev-image-keyboard-response,597,1385861,learnblock2,601.5,img/planet8_right.png,8,Community 3,NA,TRUE,j,j,NA,NA,NA,1,6,"15,14,7,4,3,1,2,9,10,11,8,13,12,5,6"
15141,commdev-image-keyboard-response,598,1387114,learnblock2,809.2999992370605,img/planet3_right.png,3,Community 1,NA,TRUE,j,j,NA,NA,NA,1,6,"15,14,7,4,3,1,2,9,10,11,8,13,12,5,6"
15141,commdev-image-keyboard-response,599,1388366,learnblock2,696.3000001907349,img/planet7_left.png,7,Community 1,NA,TRUE,f,f,NA,NA,NA,1,6,"15,14,7,4,3,1,2,9,10,11,8,13,12,5,6"
15141,commdev-image-keyboard-response,600,1389618,learnblock2,683.8000001907349,img/planet4_right.png,4,Community 1,NA,TRUE,j,j,NA,NA,NA,1,6,"15,14,7,4,3,1,2,9,10,11,8,13,12,5,6"
15141,commdev-image-keyboard-response,601,1390870,learnblock2,592.2999992370605,img/planet1_left.png,1,Community 2,NA,TRUE,f,f,NA,NA,NA,1,6,"15,14,7,4,3,1,2,9,10,11,8,13,12,5,6"
15141,commdev-image-keyboard-response,602,1392122,learnblock2,640.3999996185303,img/planet11_left.png,11,Community 2,NA,TRUE,f,f,NA,NA,NA,1,6,"15,14,7,4,3,1,2,9,10,11,8,13,12,5,6"
15141,commdev-image-keyboard-response,603,1393375,learnblock2,698.5,img/planet1_left.png,1,Community 2,NA,TRUE,f,f,NA,NA,NA,1,6,"15,14,7,4,3,1,2,9,10,11,8,13,12,5,6"
15141,commdev-image-keyboard-response,604,1394626,learnblock2,656,img/planet10_right.png,10,Community 2,NA,TRUE,j,j,NA,NA,NA,1,6,"15,14,7,4,3,1,2,9,10,11,8,13,12,5,6"
15141,commdev-image-keyboard-response,605,1395878,learnblock2,744.3999996185303,img/planet2_right.png,2,Community 2,NA,TRUE,j,j,NA,NA,NA,1,6,"15,14,7,4,3,1,2,9,10,11,8,13,12,5,6"
15141,commdev-image-keyboard-response,606,1397130,learnblock2,642.0999994277954,img/planet11_left.png,11,Community 2,NA,TRUE,f,f,NA,NA,NA,1,6,"15,14,7,4,3,1,2,9,10,11,8,13,12,5,6"
15141,commdev-image-keyboard-response,607,1398382,learnblock2,540.8000001907349,img/planet2_left.png,2,Community 2,NA,TRUE,f,f,NA,NA,NA,1,6,"15,14,7,4,3,1,2,9,10,11,8,13,12,5,6"
15141,commdev-image-keyboard-response,608,1399634,learnblock2,608.5,img/planet10_right.png,10,Community 2,NA,TRUE,j,j,NA,NA,NA,1,6,"15,14,7,4,3,1,2,9,10,11,8,13,12,5,6"
15141,commdev-image-keyboard-response,609,1400886,learnblock2,1186.5,img/planet1_right.png,1,Community 2,NA,TRUE,j,j,NA,NA,NA,1,6,"15,14,7,4,3,1,2,9,10,11,8,13,12,5,6"
15141,commdev-image-keyboard-response,610,1402137,learnblock2,665,img/planet2_right.png,2,Community 2,NA,FALSE,f,j,NA,NA,NA,1,6,"15,14,7,4,3,1,2,9,10,11,8,13,12,5,6"
15141,commdev-image-keyboard-response,611,1403389,learnblock2,783.6000003814697,img/planet1_right.png,1,Community 2,NA,TRUE,j,j,NA,NA,NA,1,6,"15,14,7,4,3,1,2,9,10,11,8,13,12,5,6"
15141,commdev-image-keyboard-response,612,1404640,learnblock2,731.8999996185303,img/planet10_left.png,10,Community 2,NA,TRUE,f,f,NA,NA,NA,1,6,"15,14,7,4,3,1,2,9,10,11,8,13,12,5,6"
15141,commdev-image-keyboard-response,613,1405892,learnblock2,1170.6000003814697,img/planet2_left.png,2,Community 2,NA,TRUE,f,f,NA,NA,NA,1,6,"15,14,7,4,3,1,2,9,10,11,8,13,12,5,6"
15141,commdev-image-keyboard-response,614,1407143,learnblock2,778.7999992370605,img/planet10_right.png,10,Community 2,NA,TRUE,j,j,NA,NA,NA,1,6,"15,14,7,4,3,1,2,9,10,11,8,13,12,5,6"
15141,commdev-image-keyboard-response,615,1408396,learnblock2,677.5,img/planet11_right.png,11,Community 2,NA,TRUE,j,j,NA,NA,NA,1,6,"15,14,7,4,3,1,2,9,10,11,8,13,12,5,6"
15141,commdev-image-keyboard-response,616,1409648,learnblock2,624.1000003814697,img/planet1_left.png,1,Community 2,NA,TRUE,f,f,NA,NA,NA,1,6,"15,14,7,4,3,1,2,9,10,11,8,13,12,5,6"
15141,commdev-image-keyboard-response,617,1410900,learnblock2,482.5999994277954,img/planet2_right.png,2,Community 2,NA,TRUE,j,j,NA,NA,NA,1,6,"15,14,7,4,3,1,2,9,10,11,8,13,12,5,6"
15141,commdev-image-keyboard-response,618,1412152,learnblock2,450.5,img/planet10_left.png,10,Community 2,NA,TRUE,f,f,NA,NA,NA,1,6,"15,14,7,4,3,1,2,9,10,11,8,13,12,5,6"
15141,commdev-image-keyboard-response,619,1413404,learnblock2,478.5,img/planet11_right.png,11,Community 2,NA,FALSE,f,j,NA,NA,NA,1,6,"15,14,7,4,3,1,2,9,10,11,8,13,12,5,6"
15141,commdev-image-keyboard-response,620,1414656,learnblock2,576.3999996185303,img/planet1_right.png,1,Community 2,NA,TRUE,j,j,NA,NA,NA,1,6,"15,14,7,4,3,1,2,9,10,11,8,13,12,5,6"
15141,commdev-image-keyboard-response,621,1415907,learnblock2,764.8000001907349,img/planet10_right.png,10,Community 2,NA,TRUE,j,j,NA,NA,NA,1,6,"15,14,7,4,3,1,2,9,10,11,8,13,12,5,6"
15141,commdev-image-keyboard-response,622,1417159,learnblock2,783.7999992370605,img/planet11_left.png,11,Community 2,NA,TRUE,f,f,NA,NA,NA,1,6,"15,14,7,4,3,1,2,9,10,11,8,13,12,5,6"
15141,commdev-image-keyboard-response,623,1418412,learnblock2,801.5999994277954,img/planet9_right.png,9,Community 2,NA,TRUE,j,j,NA,NA,NA,1,6,"15,14,7,4,3,1,2,9,10,11,8,13,12,5,6"
15141,commdev-image-keyboard-response,624,1419664,learnblock2,809.4000005722046,img/planet2_left.png,2,Community 2,NA,TRUE,f,f,NA,NA,NA,1,6,"15,14,7,4,3,1,2,9,10,11,8,13,12,5,6"
15141,commdev-image-keyboard-response,625,1420916,learnblock2,687.8000001907349,img/planet10_left.png,10,Community 2,NA,TRUE,f,f,NA,NA,NA,1,6,"15,14,7,4,3,1,2,9,10,11,8,13,12,5,6"
15141,commdev-image-keyboard-response,626,1422168,learnblock2,685.4000005722046,img/planet11_right.png,11,Community 2,NA,TRUE,j,j,NA,NA,NA,1,6,"15,14,7,4,3,1,2,9,10,11,8,13,12,5,6"
15141,commdev-image-keyboard-response,627,1423419,learnblock2,562.8999996185303,img/planet2_left.png,2,Community 2,NA,TRUE,f,f,NA,NA,NA,1,6,"15,14,7,4,3,1,2,9,10,11,8,13,12,5,6"
15141,commdev-image-keyboard-response,628,1424671,learnblock2,771.5999994277954,img/planet11_left.png,11,Community 2,NA,TRUE,f,f,NA,NA,NA,1,6,"15,14,7,4,3,1,2,9,10,11,8,13,12,5,6"
15141,commdev-image-keyboard-response,629,1425939,learnblock2,573.1999998092651,img/planet2_right.png,2,Community 2,NA,TRUE,j,j,NA,NA,NA,1,6,"15,14,7,4,3,1,2,9,10,11,8,13,12,5,6"
15141,commdev-image-keyboard-response,630,1427191,learnblock2,751.3999996185303,img/planet1_right.png,1,Community 2,NA,FALSE,f,j,NA,NA,NA,1,6,"15,14,7,4,3,1,2,9,10,11,8,13,12,5,6"
15141,commdev-image-keyboard-response,631,1428443,learnblock2,554.8000001907349,img/planet2_left.png,2,Community 2,NA,FALSE,j,f,NA,NA,NA,1,6,"15,14,7,4,3,1,2,9,10,11,8,13,12,5,6"
15141,commdev-image-keyboard-response,632,1429695,learnblock2,677.8000001907349,img/planet1_left.png,1,Community 2,NA,TRUE,f,f,NA,NA,NA,1,6,"15,14,7,4,3,1,2,9,10,11,8,13,12,5,6"
15141,commdev-image-keyboard-response,633,1430946,learnblock2,686.1000003814697,img/planet11_left.png,11,Community 2,NA,TRUE,f,f,NA,NA,NA,1,6,"15,14,7,4,3,1,2,9,10,11,8,13,12,5,6"
15141,commdev-image-keyboard-response,634,1432199,learnblock2,614.3000001907349,img/planet1_left.png,1,Community 2,NA,TRUE,f,f,NA,NA,NA,1,6,"15,14,7,4,3,1,2,9,10,11,8,13,12,5,6"
15141,commdev-image-keyboard-response,635,1433452,learnblock2,551.3000001907349,img/planet2_right.png,2,Community 2,NA,TRUE,j,j,NA,NA,NA,1,6,"15,14,7,4,3,1,2,9,10,11,8,13,12,5,6"
15141,commdev-image-keyboard-response,636,1434704,learnblock2,1008.5,img/planet1_right.png,1,Community 2,NA,TRUE,j,j,NA,NA,NA,1,6,"15,14,7,4,3,1,2,9,10,11,8,13,12,5,6"
15141,commdev-image-keyboard-response,637,1435956,learnblock2,866.6000003814697,img/planet11_right.png,11,Community 2,NA,TRUE,j,j,NA,NA,NA,1,6,"15,14,7,4,3,1,2,9,10,11,8,13,12,5,6"
15141,commdev-image-keyboard-response,638,1437208,learnblock2,705.4000005722046,img/planet2_right.png,2,Community 2,NA,TRUE,j,j,NA,NA,NA,1,6,"15,14,7,4,3,1,2,9,10,11,8,13,12,5,6"
15141,commdev-image-keyboard-response,639,1438460,learnblock2,813.1999998092651,img/planet10_right.png,10,Community 2,NA,TRUE,j,j,NA,NA,NA,1,6,"15,14,7,4,3,1,2,9,10,11,8,13,12,5,6"
15141,commdev-image-keyboard-response,640,1439717,learnblock2,690.8000001907349,img/planet9_right.png,9,Community 2,NA,TRUE,j,j,NA,NA,NA,1,6,"15,14,7,4,3,1,2,9,10,11,8,13,12,5,6"
15141,commdev-image-keyboard-response,641,1440980,learnblock2,743.1999998092651,img/planet13_right.png,13,Community 3,NA,TRUE,j,j,NA,NA,NA,1,6,"15,14,7,4,3,1,2,9,10,11,8,13,12,5,6"
15141,commdev-image-keyboard-response,642,1442234,learnblock2,null,img/planet6_right.png,6,Community 3,NA,FALSE,null,j,NA,NA,NA,1,6,"15,14,7,4,3,1,2,9,10,11,8,13,12,5,6"
15141,commdev-image-keyboard-response,643,1443509,learnblock2,null,img/planet13_left.png,13,Community 3,NA,FALSE,null,f,NA,NA,NA,1,6,"15,14,7,4,3,1,2,9,10,11,8,13,12,5,6"
15141,commdev-image-keyboard-response,644,1444762,learnblock2,null,img/planet6_left.png,6,Community 3,NA,FALSE,null,f,NA,NA,NA,1,6,"15,14,7,4,3,1,2,9,10,11,8,13,12,5,6"
15141,commdev-image-keyboard-response,645,1446022,learnblock2,null,img/planet5_left.png,5,Community 3,NA,FALSE,null,f,NA,NA,NA,1,6,"15,14,7,4,3,1,2,9,10,11,8,13,12,5,6"
15141,commdev-image-keyboard-response,646,1447289,learnblock2,114.70000076293945,img/planet13_right.png,13,Community 3,NA,FALSE,f,j,NA,NA,NA,1,6,"15,14,7,4,3,1,2,9,10,11,8,13,12,5,6"
15141,commdev-image-keyboard-response,647,1448545,learnblock2,893.1000003814697,img/planet9_right.png,9,Community 2,NA,TRUE,j,j,NA,NA,NA,1,6,"15,14,7,4,3,1,2,9,10,11,8,13,12,5,6"
15141,commdev-image-keyboard-response,648,1449799,learnblock2,685.4000005722046,img/planet11_left.png,11,Community 2,NA,TRUE,f,f,NA,NA,NA,1,6,"15,14,7,4,3,1,2,9,10,11,8,13,12,5,6"
15141,commdev-image-keyboard-response,649,1451061,learnblock2,741.5,img/planet1_right.png,1,Community 2,NA,TRUE,j,j,NA,NA,NA,1,6,"15,14,7,4,3,1,2,9,10,11,8,13,12,5,6"
15141,commdev-image-keyboard-response,650,1452327,learnblock2,839.8999996185303,img/planet4_left.png,4,Community 1,NA,TRUE,f,f,NA,NA,NA,1,6,"15,14,7,4,3,1,2,9,10,11,8,13,12,5,6"
15141,commdev-image-keyboard-response,651,1453582,learnblock2,903.6999998092651,img/planet1_left.png,1,Community 2,NA,TRUE,f,f,NA,NA,NA,1,6,"15,14,7,4,3,1,2,9,10,11,8,13,12,5,6"
15141,commdev-image-keyboard-response,652,1454841,learnblock2,881.5,img/planet10_left.png,10,Community 2,NA,TRUE,f,f,NA,NA,NA,1,6,"15,14,7,4,3,1,2,9,10,11,8,13,12,5,6"
15141,commdev-image-keyboard-response,653,1456101,learnblock2,670,img/planet9_left.png,9,Community 2,NA,TRUE,f,f,NA,NA,NA,1,6,"15,14,7,4,3,1,2,9,10,11,8,13,12,5,6"
15141,commdev-image-keyboard-response,654,1457359,learnblock2,680,img/planet13_left.png,13,Community 3,NA,TRUE,f,f,NA,NA,NA,1,6,"15,14,7,4,3,1,2,9,10,11,8,13,12,5,6"
15141,commdev-image-keyboard-response,655,1458623,learnblock2,672.5,img/planet12_right.png,12,Community 3,NA,TRUE,j,j,NA,NA,NA,1,6,"15,14,7,4,3,1,2,9,10,11,8,13,12,5,6"
15141,commdev-image-keyboard-response,656,1459877,learnblock2,572.8000001907349,img/planet13_left.png,13,Community 3,NA,TRUE,f,f,NA,NA,NA,1,6,"15,14,7,4,3,1,2,9,10,11,8,13,12,5,6"
15141,commdev-image-keyboard-response,657,1461131,learnblock2,653.6000003814697,img/planet9_right.png,9,Community 2,NA,TRUE,j,j,NA,NA,NA,1,6,"15,14,7,4,3,1,2,9,10,11,8,13,12,5,6"
15141,commdev-image-keyboard-response,658,1462384,learnblock2,701.1999998092651,img/planet10_right.png,10,Community 2,NA,TRUE,j,j,NA,NA,NA,1,6,"15,14,7,4,3,1,2,9,10,11,8,13,12,5,6"
15141,commdev-image-keyboard-response,659,1463637,learnblock2,647.1999998092651,img/planet2_right.png,2,Community 2,NA,TRUE,j,j,NA,NA,NA,1,6,"15,14,7,4,3,1,2,9,10,11,8,13,12,5,6"
15141,commdev-image-keyboard-response,660,1464903,learnblock2,543.2999992370605,img/planet10_right.png,10,Community 2,NA,TRUE,j,j,NA,NA,NA,1,6,"15,14,7,4,3,1,2,9,10,11,8,13,12,5,6"
15141,commdev-image-keyboard-response,661,1466160,learnblock2,711.5999994277954,img/planet1_left.png,1,Community 2,NA,TRUE,f,f,NA,NA,NA,1,6,"15,14,7,4,3,1,2,9,10,11,8,13,12,5,6"
