subject_id,trial_type,trial_index,time_elapsed,block,rt,stimulus,planet,community,response,correct,key_press,learning_correct_response,parse,init_locations,final_locations,browser_interactions,num_comp,planet_map
15000,commdev-instructions,7,50744,NA,6189.200000047684,"<p>In this game, you are a scientist on board a space shuttle. </p><p> On each mission, you will visit planets all across the universe.</p><img src=""img/controlroom.jpg"" width=300vw>",NA,NA,NA,NA,NA,NA,NA,NA,NA,3,6,"2,13,5,10,7,14,6,15,4,8,12,3,11,1,9"
15000,commdev-instructions,8,54281,NA,1460.3999999761581,"<p>Here are a few planets you might see:</p><img src=""img/practice1.png"" width=200vw><img src=""img/practice2.png"" width=200vw><img src=""img/practice3.png"" width=200vw>",NA,NA,NA,NA,NA,NA,NA,NA,NA,3,6,"2,13,5,10,7,14,6,15,4,8,12,3,11,1,9"
15000,commdev-instructions,9,62817,NA,1137,"<p>Your job as a scientist is to record which direction the winds are moving on each planet.</p><p>There are two types of wind directions:</p><img src=""img/practice1_left.png"" width=200vw><img src=""img/practice1_right.png"" width=200vw>",NA,NA,NA,NA,NA,NA,NA,NA,NA,3,6,"2,13,5,10,7,14,6,15,4,8,12,3,11,1,9"
15000,commdev-instructions,10,68862,NA,1161.6999999284744,"<p>If the winds are moving this way, press the letter <strong>F</strong> on the keyboard as fast as you can.</p><img src=""img/leftwind.png"" width=250vw>",NA,NA,NA,NA,NA,NA,NA,NA,NA,3,6,"2,13,5,10,7,14,6,15,4,8,12,3,11,1,9"
15000,commdev-instructions,11,74633,NA,1260.7999999523163,"<p>If the winds are moving this way, press the letter <strong>J</strong> on the keyboard as fast as you can.</p><img src=""img/rightwind.png"" width=350vw>",NA,NA,NA,NA,NA,NA,NA,NA,NA,3,6,"2,13,5,10,7,14,6,15,4,8,12,3,11,1,9"
15000,commdev-instructions,12,80239,NA,1179.6000000238419,<p>You will have 1 second to respond. Try to respond before the time runs out!,NA,NA,NA,NA,NA,NA,NA,NA,NA,3,6,"2,13,5,10,7,14,6,15,4,8,12,3,11,1,9"
15000,commdev-instructions,13,86540,NA,860.4000000953674,<p>The planets you will visit will look different from each other.</p><p>You should respond <strong>only</strong> based on wind direction.,NA,NA,NA,NA,NA,NA,NA,NA,NA,3,6,"2,13,5,10,7,14,6,15,4,8,12,3,11,1,9"
15000,commdev-instructions,14,93470,NA,1749.5999999046326,"<p> Ready to start the practice round? </p><p> Remember, press <strong>F</strong> or <strong>J</strong> depending on the wind direction.<br><img src=""img/categorize_planet_example.png""",NA,NA,NA,NA,NA,NA,NA,NA,NA,3,6,"2,13,5,10,7,14,6,15,4,8,12,3,11,1,9"
15000,commdev-instructions,26,143684,NA,2057.1999999284744,"<p>Great, now try a short practice mission. </p><p> This time, you will have 1 second to respond and you won't know whether you pressed the right or wrong key for each planet.</p>",NA,NA,NA,NA,NA,NA,NA,NA,NA,3,6,"2,13,5,10,7,14,6,15,4,8,12,3,11,1,9"
15000,commdev-image-keyboard-response,27,145056,practice,564,img/practice3_left.png,NA,Number not found in mappings,NA,TRUE,f,f,NA,NA,NA,3,6,"2,13,5,10,7,14,6,15,4,8,12,3,11,1,9"
15000,commdev-image-keyboard-response,28,146316,practice,598.3999999761581,img/practice1_right.png,NA,Number not found in mappings,NA,TRUE,j,j,NA,NA,NA,3,6,"2,13,5,10,7,14,6,15,4,8,12,3,11,1,9"
15000,commdev-image-keyboard-response,29,147577,practice,1078.5,img/practice2_left.png,NA,Number not found in mappings,NA,TRUE,f,f,NA,NA,NA,3,6,"2,13,5,10,7,14,6,15,4,8,12,3,11,1,9"
15000,commdev-image-keyboard-response,30,148843,practice,590.8999999761581,img/practice4_left.png,NA,Number not found in mappings,NA,TRUE,f,f,NA,NA,NA,3,6,"2,13,5,10,7,14,6,15,4,8,12,3,11,1,9"
15000,commdev-image-keyboard-response,31,150096,practice,623.2999999523163,img/practice2_right.png,NA,Number not found in mappings,NA,TRUE,j,j,NA,NA,NA,3,6,"2,13,5,10,7,14,6,15,4,8,12,3,11,1,9"
15000,commdev-image-keyboard-response,32,151352,practice,560.3000000715256,img/practice1_right.png,NA,Number not found in mappings,NA,TRUE,j,j,NA,NA,NA,3,6,"2,13,5,10,7,14,6,15,4,8,12,3,11,1,9"
15000,commdev-image-keyboard-response,33,152615,practice,635.5,img/practice3_right.png,NA,Number not found in mappings,NA,TRUE,j,j,NA,NA,NA,3,6,"2,13,5,10,7,14,6,15,4,8,12,3,11,1,9"
15000,commdev-image-keyboard-response,34,153873,practice,466.6999999284744,img/practice1_right.png,NA,Number not found in mappings,NA,TRUE,j,j,NA,NA,NA,3,6,"2,13,5,10,7,14,6,15,4,8,12,3,11,1,9"
15000,commdev-instructions,35,165096,NA,1668.6000000238419,"<p>Great job with the practice round.</p><p>During real missions, you won't know whether you pressed the right or wrong key for each planet.</p><p>But between missions, we will tell you how you did overall.</p>",NA,NA,NA,NA,NA,NA,NA,NA,NA,3,6,"2,13,5,10,7,14,6,15,4,8,12,3,11,1,9"
15000,commdev-instructions,36,174812,NA,1455.3999999761581,<p>Try your best! You will be paid a bonus based on how many correct responses you make!</p><p>Responses that are too slow will not count toward your bonus.</p>,NA,NA,NA,NA,NA,NA,NA,NA,NA,3,6,"2,13,5,10,7,14,6,15,4,8,12,3,11,1,9"
15000,commdev-instructions,37,182259,NA,1243.5999999046326,"<p>You are almost ready to start the real game.</p><p> First, we are going to ask you some questions about how the game works.</p>",NA,NA,NA,NA,NA,NA,NA,NA,NA,3,6,"2,13,5,10,7,14,6,15,4,8,12,3,11,1,9"
15000,commdev-instructions,46,262434,NA,1422.8999999761581,"<p> Nice work! It is now time to start the real game.<p></p>You will go on two missions to record wind directions of different planets.<p></p>Each one will take about 5 minutes. You will get to take a break between missions.<p><p> Remember, press <strong>F</strong> or <strong>J</strong> depending on the wind direction. Good luck!<br><img src=""img/categorize_planet_example.png""",NA,NA,NA,NA,NA,NA,NA,NA,NA,3,6,"2,13,5,10,7,14,6,15,4,8,12,3,11,1,9"
15000,commdev-image-keyboard-response,48,272489,learnblock1,857.7999999523163,img/planet8_left.png,8,Community 2,NA,TRUE,f,f,NA,NA,NA,3,6,"2,13,5,10,7,14,6,15,4,8,12,3,11,1,9"
15000,commdev-image-keyboard-response,49,273746,learnblock1,565.8000000715256,img/planet6_left.png,6,Community 2,NA,TRUE,f,f,NA,NA,NA,3,6,"2,13,5,10,7,14,6,15,4,8,12,3,11,1,9"
15000,commdev-image-keyboard-response,50,275000,learnblock1,716,img/planet8_right.png,8,Community 2,NA,TRUE,j,j,NA,NA,NA,3,6,"2,13,5,10,7,14,6,15,4,8,12,3,11,1,9"
15000,commdev-image-keyboard-response,51,276257,learnblock1,571,img/planet14_right.png,14,Community 2,NA,TRUE,j,j,NA,NA,NA,3,6,"2,13,5,10,7,14,6,15,4,8,12,3,11,1,9"
15000,commdev-image-keyboard-response,52,277517,learnblock1,464.5,img/planet6_right.png,6,Community 2,NA,TRUE,j,j,NA,NA,NA,3,6,"2,13,5,10,7,14,6,15,4,8,12,3,11,1,9"
15000,commdev-image-keyboard-response,53,278781,learnblock1,564.5,img/planet4_right.png,4,Community 2,NA,TRUE,j,j,NA,NA,NA,3,6,"2,13,5,10,7,14,6,15,4,8,12,3,11,1,9"
15000,commdev-image-keyboard-response,54,280036,learnblock1,542.3000000715256,img/planet8_left.png,8,Community 2,NA,TRUE,f,f,NA,NA,NA,3,6,"2,13,5,10,7,14,6,15,4,8,12,3,11,1,9"
15000,commdev-image-keyboard-response,55,281296,learnblock1,608.1000000238419,img/planet14_left.png,14,Community 2,NA,TRUE,f,f,NA,NA,NA,3,6,"2,13,5,10,7,14,6,15,4,8,12,3,11,1,9"
15000,commdev-image-keyboard-response,56,282559,learnblock1,706.2000000476837,img/planet8_left.png,8,Community 2,NA,TRUE,f,f,NA,NA,NA,3,6,"2,13,5,10,7,14,6,15,4,8,12,3,11,1,9"
15000,commdev-image-keyboard-response,57,283817,learnblock1,671.5,img/planet4_right.png,4,Community 2,NA,TRUE,j,j,NA,NA,NA,3,6,"2,13,5,10,7,14,6,15,4,8,12,3,11,1,9"
15000,commdev-image-keyboard-response,58,285074,learnblock1,691.8999999761581,img/planet6_left.png,6,Community 2,NA,TRUE,f,f,NA,NA,NA,3,6,"2,13,5,10,7,14,6,15,4,8,12,3,11,1,9"
15000,commdev-image-keyboard-response,59,286341,learnblock1,737.7999999523163,img/planet8_left.png,8,Community 2,NA,TRUE,f,f,NA,NA,NA,3,6,"2,13,5,10,7,14,6,15,4,8,12,3,11,1,9"
15000,commdev-image-keyboard-response,60,287606,learnblock1,641.2000000476837,img/planet15_right.png,15,Community 2,NA,TRUE,j,j,NA,NA,NA,3,6,"2,13,5,10,7,14,6,15,4,8,12,3,11,1,9"
15000,commdev-image-keyboard-response,61,288859,learnblock1,685.3999999761581,img/planet6_right.png,6,Community 2,NA,TRUE,j,j,NA,NA,NA,3,6,"2,13,5,10,7,14,6,15,4,8,12,3,11,1,9"
15000,commdev-image-keyboard-response,62,290119,learnblock1,609.6000000238419,img/planet15_left.png,15,Community 2,NA,TRUE,f,f,NA,NA,NA,3,6,"2,13,5,10,7,14,6,15,4,8,12,3,11,1,9"
15000,commdev-image-keyboard-response,63,291379,learnblock1,750.9000000953674,img/planet4_right.png,4,Community 2,NA,TRUE,j,j,NA,NA,NA,3,6,"2,13,5,10,7,14,6,15,4,8,12,3,11,1,9"
15000,commdev-image-keyboard-response,64,292634,learnblock1,677.8999999761581,img/planet6_right.png,6,Community 2,NA,TRUE,j,j,NA,NA,NA,3,6,"2,13,5,10,7,14,6,15,4,8,12,3,11,1,9"
15000,commdev-image-keyboard-response,65,293930,learnblock1,711.7999999523163,img/planet8_right.png,8,Community 2,NA,TRUE,j,j,NA,NA,NA,3,6,"2,13,5,10,7,14,6,15,4,8,12,3,11,1,9"
15000,commdev-image-keyboard-response,66,295197,learnblock1,606,img/planet4_right.png,4,Community 2,NA,TRUE,j,j,NA,NA,NA,3,6,"2,13,5,10,7,14,6,15,4,8,12,3,11,1,9"
15000,commdev-image-keyboard-response,67,296452,learnblock1,657,img/planet14_right.png,14,Community 2,NA,TRUE,j,j,NA,NA,NA,3,6,"2,13,5,10,7,14,6,15,4,8,12,3,11,1,9"
15000,commdev-image-keyboard-response,68,297711,learnblock1,496.2000000476837,img/planet10_right.png,10,Community 1,NA,TRUE,j,j,NA,NA,NA,3,6,"2,13,5,10,7,14,6,15,4,8,12,3,11,1,9"
15000,commdev-image-keyboard-response,69,298964,learnblock1,686,img/planet14_right.png,14,Community 2,NA,TRUE,j,j,NA,NA,NA,3,6,"2,13,5,10,7,14,6,15,4,8,12,3,11,1,9"
15000,commdev-image-keyboard-response,70,300219,learnblock1,526.3999999761581,img/planet10_right.png,10,Community 1,NA,TRUE,j,j,NA,NA,NA,3,6,"2,13,5,10,7,14,6,15,4,8,12,3,11,1,9"
15000,commdev-image-keyboard-response,71,301472,learnblock1,556,img/planet2_left.png,2,Community 1,NA,TRUE,f,f,NA,NA,NA,3,6,"2,13,5,10,7,14,6,15,4,8,12,3,11,1,9"
15000,commdev-image-keyboard-response,72,302732,learnblock1,652.4000000953674,img/planet13_right.png,13,Community 1,NA,TRUE,j,j,NA,NA,NA,3,6,"2,13,5,10,7,14,6,15,4,8,12,3,11,1,9"
15000,commdev-image-keyboard-response,73,303988,learnblock1,576.2999999523163,img/planet10_right.png,10,Community 1,NA,TRUE,j,j,NA,NA,NA,3,6,"2,13,5,10,7,14,6,15,4,8,12,3,11,1,9"
15000,commdev-image-keyboard-response,74,305246,learnblock1,562.1999999284744,img/planet2_left.png,2,Community 1,NA,TRUE,f,f,NA,NA,NA,3,6,"2,13,5,10,7,14,6,15,4,8,12,3,11,1,9"
15000,commdev-image-keyboard-response,75,306500,learnblock1,595.3999999761581,img/planet7_right.png,7,Community 1,NA,TRUE,j,j,NA,NA,NA,3,6,"2,13,5,10,7,14,6,15,4,8,12,3,11,1,9"
15000,commdev-image-keyboard-response,76,307756,learnblock1,445.3000000715256,img/planet2_right.png,2,Community 1,NA,TRUE,j,j,NA,NA,NA,3,6,"2,13,5,10,7,14,6,15,4,8,12,3,11,1,9"
15000,commdev-image-keyboard-response,77,309008,learnblock1,542.6999999284744,img/planet5_left.png,5,Community 1,NA,TRUE,f,f,NA,NA,NA,3,6,"2,13,5,10,7,14,6,15,4,8,12,3,11,1,9"
15000,commdev-image-keyboard-response,78,310262,learnblock1,570.8999999761581,img/planet13_right.png,13,Community 1,NA,TRUE,j,j,NA,NA,NA,3,6,"2,13,5,10,7,14,6,15,4,8,12,3,11,1,9"
15000,commdev-image-keyboard-response,79,311529,learnblock1,731.3000000715256,img/planet10_left.png,10,Community 1,NA,TRUE,f,f,NA,NA,NA,3,6,"2,13,5,10,7,14,6,15,4,8,12,3,11,1,9"
15000,commdev-image-keyboard-response,80,312783,learnblock1,689.3999999761581,img/planet14_left.png,14,Community 2,NA,TRUE,f,f,NA,NA,NA,3,6,"2,13,5,10,7,14,6,15,4,8,12,3,11,1,9"
15000,commdev-image-keyboard-response,81,314042,learnblock1,701.4000000953674,img/planet4_left.png,4,Community 2,NA,TRUE,f,f,NA,NA,NA,3,6,"2,13,5,10,7,14,6,15,4,8,12,3,11,1,9"
15000,commdev-image-keyboard-response,82,315301,learnblock1,596.2999999523163,img/planet6_right.png,6,Community 2,NA,TRUE,j,j,NA,NA,NA,3,6,"2,13,5,10,7,14,6,15,4,8,12,3,11,1,9"
15000,commdev-image-keyboard-response,83,316557,learnblock1,545.6000000238419,img/planet14_left.png,14,Community 2,NA,TRUE,f,f,NA,NA,NA,3,6,"2,13,5,10,7,14,6,15,4,8,12,3,11,1,9"
15000,commdev-image-keyboard-response,84,317813,learnblock1,525.2000000476837,img/planet4_left.png,4,Community 2,NA,TRUE,f,f,NA,NA,NA,3,6,"2,13,5,10,7,14,6,15,4,8,12,3,11,1,9"
15000,commdev-image-keyboard-response,85,319072,learnblock1,531.7000000476837,img/planet14_right.png,14,Community 2,NA,TRUE,j,j,NA,NA,NA,3,6,"2,13,5,10,7,14,6,15,4,8,12,3,11,1,9"
15000,commdev-image-keyboard-response,86,320339,learnblock1,593.0999999046326,img/planet4_right.png,4,Community 2,NA,TRUE,j,j,NA,NA,NA,3,6,"2,13,5,10,7,14,6,15,4,8,12,3,11,1,9"
15000,commdev-image-keyboard-response,87,321593,learnblock1,524.4000000953674,img/planet14_right.png,14,Community 2,NA,TRUE,j,j,NA,NA,NA,3,6,"2,13,5,10,7,14,6,15,4,8,12,3,11,1,9"
15000,commdev-image-keyboard-response,88,322851,learnblock1,1010.5,img/planet8_right.png,8,Community 2,NA,TRUE,j,j,NA,NA,NA,3,6,"2,13,5,10,7,14,6,15,4,8,12,3,11,1,9"
15000,commdev-image-keyboard-response,89,324112,learnblock1,530.6000000238419,img/planet6_right.png,6,Community 2,NA,TRUE,j,j,NA,NA,NA,3,6,"2,13,5,10,7,14,6,15,4,8,12,3,11,1,9"
15000,commdev-image-keyboard-response,90,325366,learnblock1,516.0999999046326,img/planet4_right.png,4,Community 2,NA,TRUE,j,j,NA,NA,NA,3,6,"2,13,5,10,7,14,6,15,4,8,12,3,11,1,9"
15000,commdev-image-keyboard-response,91,326625,learnblock1,443.8000000715256,img/planet15_left.png,15,Community 2,NA,FALSE,j,f,NA,NA,NA,3,6,"2,13,5,10,7,14,6,15,4,8,12,3,11,1,9"
15000,commdev-image-keyboard-response,92,327883,learnblock1,890.3999999761581,img/planet3_left.png,3,Community 3,NA,TRUE,f,f,NA,NA,NA,3,6,"2,13,5,10,7,14,6,15,4,8,12,3,11,1,9"
15000,commdev-image-keyboard-response,93,329137,learnblock1,684.7000000476837,img/planet15_right.png,15,Community 2,NA,TRUE,j,j,NA,NA,NA,3,6,"2,13,5,10,7,14,6,15,4,8,12,3,11,1,9"
15000,commdev-image-keyboard-response,94,330390,learnblock1,1115.5,img/planet4_left.png,4,Community 2,NA,TRUE,f,f,NA,NA,NA,3,6,"2,13,5,10,7,14,6,15,4,8,12,3,11,1,9"
15000,commdev-image-keyboard-response,95,331648,learnblock1,624.5,img/planet6_right.png,6,Community 2,NA,TRUE,j,j,NA,NA,NA,3,6,"2,13,5,10,7,14,6,15,4,8,12,3,11,1,9"
15000,commdev-image-keyboard-response,96,332913,learnblock1,660.1000000238419,img/planet8_right.png,8,Community 2,NA,TRUE,j,j,NA,NA,NA,3,6,"2,13,5,10,7,14,6,15,4,8,12,3,11,1,9"
15000,commdev-image-keyboard-response,97,334169,learnblock1,590.8000000715256,img/planet15_right.png,15,Community 2,NA,TRUE,j,j,NA,NA,NA,3,6,"2,13,5,10,7,14,6,15,4,8,12,3,11,1,9"
15000,commdev-image-keyboard-response,98,335431,learnblock1,563.6999999284744,img/planet6_right.png,6,Community 2,NA,TRUE,j,j,NA,NA,NA,3,6,"2,13,5,10,7,14,6,15,4,8,12,3,11,1,9"
15000,commdev-image-keyboard-response,99,336696,learnblock1,571.1000000238419,img/planet14_right.png,14,Community 2,NA,TRUE,j,j,NA,NA,NA,3,6,"2,13,5,10,7,14,6,15,4,8,12,3,11,1,9"
15000,commdev-image-keyboard-response,100,337950,learnblock1,634.7999999523163,img/planet10_left.png,10,Community 1,NA,TRUE,f,f,NA,NA,NA,3,6,"2,13,5,10,7,14,6,15,4,8,12,3,11,1,9"
15000,commdev-image-keyboard-response,101,339212,learnblock1,613.5999999046326,img/planet13_left.png,13,Community 1,NA,TRUE,f,f,NA,NA,NA,3,6,"2,13,5,10,7,14,6,15,4,8,12,3,11,1,9"
15000,commdev-image-keyboard-response,102,340465,learnblock1,514.2999999523163,img/planet5_left.png,5,Community 1,NA,TRUE,f,f,NA,NA,NA,3,6,"2,13,5,10,7,14,6,15,4,8,12,3,11,1,9"
15000,commdev-image-keyboard-response,103,341724,learnblock1,441.7999999523163,img/planet2_right.png,2,Community 1,NA,TRUE,j,j,NA,NA,NA,3,6,"2,13,5,10,7,14,6,15,4,8,12,3,11,1,9"
15000,commdev-image-keyboard-response,104,342989,learnblock1,618.1999999284744,img/planet10_right.png,10,Community 1,NA,TRUE,j,j,NA,NA,NA,3,6,"2,13,5,10,7,14,6,15,4,8,12,3,11,1,9"
15000,commdev-image-keyboard-response,105,344246,learnblock1,561,img/planet14_right.png,14,Community 2,NA,TRUE,j,j,NA,NA,NA,3,6,"2,13,5,10,7,14,6,15,4,8,12,3,11,1,9"
15000,commdev-image-keyboard-response,106,345502,learnblock1,671.9000000953674,img/planet8_right.png,8,Community 2,NA,TRUE,j,j,NA,NA,NA,3,6,"2,13,5,10,7,14,6,15,4,8,12,3,11,1,9"
15000,commdev-image-keyboard-response,107,346762,learnblock1,592.7999999523163,img/planet14_right.png,14,Community 2,NA,TRUE,j,j,NA,NA,NA,3,6,"2,13,5,10,7,14,6,15,4,8,12,3,11,1,9"
15000,commdev-image-keyboard-response,108,348028,learnblock1,619.6000000238419,img/planet8_right.png,8,Community 2,NA,TRUE,j,j,NA,NA,NA,3,6,"2,13,5,10,7,14,6,15,4,8,12,3,11,1,9"
15000,commdev-image-keyboard-response,109,349285,learnblock1,651.3999999761581,img/planet14_left.png,14,Community 2,NA,TRUE,f,f,NA,NA,NA,3,6,"2,13,5,10,7,14,6,15,4,8,12,3,11,1,9"
15000,commdev-image-keyboard-response,110,350541,learnblock1,888.6000000238419,img/planet8_left.png,8,Community 2,NA,TRUE,f,f,NA,NA,NA,3,6,"2,13,5,10,7,14,6,15,4,8,12,3,11,1,9"
15000,commdev-image-keyboard-response,111,351802,learnblock1,678.1000000238419,img/planet4_right.png,4,Community 2,NA,TRUE,j,j,NA,NA,NA,3,6,"2,13,5,10,7,14,6,15,4,8,12,3,11,1,9"
15000,commdev-image-keyboard-response,112,353067,learnblock1,560.7000000476837,img/planet15_right.png,15,Community 2,NA,TRUE,j,j,NA,NA,NA,3,6,"2,13,5,10,7,14,6,15,4,8,12,3,11,1,9"
15000,commdev-image-keyboard-response,113,354322,learnblock1,639.7999999523163,img/planet3_left.png,3,Community 3,NA,TRUE,f,f,NA,NA,NA,3,6,"2,13,5,10,7,14,6,15,4,8,12,3,11,1,9"
15000,commdev-image-keyboard-response,114,355582,learnblock1,679,img/planet1_right.png,1,Community 3,NA,TRUE,j,j,NA,NA,NA,3,6,"2,13,5,10,7,14,6,15,4,8,12,3,11,1,9"
15000,commdev-image-keyboard-response,115,356835,learnblock1,822.3000000715256,img/planet9_right.png,9,Community 3,NA,TRUE,j,j,NA,NA,NA,3,6,"2,13,5,10,7,14,6,15,4,8,12,3,11,1,9"
15000,commdev-image-keyboard-response,116,358103,learnblock1,569.7999999523163,img/planet1_right.png,1,Community 3,NA,TRUE,j,j,NA,NA,NA,3,6,"2,13,5,10,7,14,6,15,4,8,12,3,11,1,9"
15000,commdev-image-keyboard-response,117,359369,learnblock1,799.6000000238419,img/planet3_right.png,3,Community 3,NA,TRUE,j,j,NA,NA,NA,3,6,"2,13,5,10,7,14,6,15,4,8,12,3,11,1,9"
15000,commdev-image-keyboard-response,118,360628,learnblock1,570.3999999761581,img/planet1_right.png,1,Community 3,NA,TRUE,j,j,NA,NA,NA,3,6,"2,13,5,10,7,14,6,15,4,8,12,3,11,1,9"
15000,commdev-image-keyboard-response,119,361892,learnblock1,661.1999999284744,img/planet11_left.png,11,Community 3,NA,TRUE,f,f,NA,NA,NA,3,6,"2,13,5,10,7,14,6,15,4,8,12,3,11,1,9"
15000,commdev-image-keyboard-response,120,363147,learnblock1,630,img/planet3_right.png,3,Community 3,NA,FALSE,f,j,NA,NA,NA,3,6,"2,13,5,10,7,14,6,15,4,8,12,3,11,1,9"
15000,commdev-image-keyboard-response,121,364402,learnblock1,862.3000000715256,img/planet11_left.png,11,Community 3,NA,TRUE,f,f,NA,NA,NA,3,6,"2,13,5,10,7,14,6,15,4,8,12,3,11,1,9"
15000,commdev-image-keyboard-response,122,365659,learnblock1,778.6000000238419,img/planet3_left.png,3,Community 3,NA,TRUE,f,f,NA,NA,NA,3,6,"2,13,5,10,7,14,6,15,4,8,12,3,11,1,9"
15000,commdev-image-keyboard-response,123,366927,learnblock1,734.7000000476837,img/planet11_left.png,11,Community 3,NA,TRUE,f,f,NA,NA,NA,3,6,"2,13,5,10,7,14,6,15,4,8,12,3,11,1,9"
15000,commdev-image-keyboard-response,124,368184,learnblock1,697.6000000238419,img/planet1_right.png,1,Community 3,NA,TRUE,j,j,NA,NA,NA,3,6,"2,13,5,10,7,14,6,15,4,8,12,3,11,1,9"
15000,commdev-image-keyboard-response,125,369444,learnblock1,853.1999999284744,img/planet9_left.png,9,Community 3,NA,TRUE,f,f,NA,NA,NA,3,6,"2,13,5,10,7,14,6,15,4,8,12,3,11,1,9"
15000,commdev-image-keyboard-response,126,370704,learnblock1,844.2999999523163,img/planet11_left.png,11,Community 3,NA,TRUE,f,f,NA,NA,NA,3,6,"2,13,5,10,7,14,6,15,4,8,12,3,11,1,9"
15000,commdev-image-keyboard-response,127,371968,learnblock1,734.3000000715256,img/planet12_left.png,12,Community 3,NA,TRUE,f,f,NA,NA,NA,3,6,"2,13,5,10,7,14,6,15,4,8,12,3,11,1,9"
15000,commdev-image-keyboard-response,128,373220,learnblock1,921.7000000476837,img/planet9_right.png,9,Community 3,NA,TRUE,j,j,NA,NA,NA,3,6,"2,13,5,10,7,14,6,15,4,8,12,3,11,1,9"
15000,commdev-image-keyboard-response,129,374488,learnblock1,866.8999999761581,img/planet11_right.png,11,Community 3,NA,TRUE,j,j,NA,NA,NA,3,6,"2,13,5,10,7,14,6,15,4,8,12,3,11,1,9"
15000,commdev-image-keyboard-response,130,375744,learnblock1,585.3999999761581,img/planet1_right.png,1,Community 3,NA,TRUE,j,j,NA,NA,NA,3,6,"2,13,5,10,7,14,6,15,4,8,12,3,11,1,9"
15000,commdev-image-keyboard-response,131,377004,learnblock1,564,img/planet3_left.png,3,Community 3,NA,TRUE,f,f,NA,NA,NA,3,6,"2,13,5,10,7,14,6,15,4,8,12,3,11,1,9"
15000,commdev-image-keyboard-response,132,378268,learnblock1,592.8999999761581,img/planet9_left.png,9,Community 3,NA,TRUE,f,f,NA,NA,NA,3,6,"2,13,5,10,7,14,6,15,4,8,12,3,11,1,9"
15000,commdev-image-keyboard-response,133,379522,learnblock1,745.6000000238419,img/planet11_left.png,11,Community 3,NA,TRUE,f,f,NA,NA,NA,3,6,"2,13,5,10,7,14,6,15,4,8,12,3,11,1,9"
15000,commdev-image-keyboard-response,134,380780,learnblock1,674.5,img/planet12_left.png,12,Community 3,NA,TRUE,f,f,NA,NA,NA,3,6,"2,13,5,10,7,14,6,15,4,8,12,3,11,1,9"
15000,commdev-image-keyboard-response,135,382038,learnblock1,686.2000000476837,img/planet11_right.png,11,Community 3,NA,TRUE,j,j,NA,NA,NA,3,6,"2,13,5,10,7,14,6,15,4,8,12,3,11,1,9"
15000,commdev-image-keyboard-response,136,383299,learnblock1,626.2999999523163,img/planet1_right.png,1,Community 3,NA,TRUE,j,j,NA,NA,NA,3,6,"2,13,5,10,7,14,6,15,4,8,12,3,11,1,9"
15000,commdev-image-keyboard-response,137,384552,learnblock1,605.2000000476837,img/planet3_left.png,3,Community 3,NA,TRUE,f,f,NA,NA,NA,3,6,"2,13,5,10,7,14,6,15,4,8,12,3,11,1,9"
15000,commdev-image-keyboard-response,138,385811,learnblock1,494.2000000476837,img/planet15_right.png,15,Community 2,NA,TRUE,j,j,NA,NA,NA,3,6,"2,13,5,10,7,14,6,15,4,8,12,3,11,1,9"
15000,commdev-image-keyboard-response,139,387070,learnblock1,562,img/planet6_right.png,6,Community 2,NA,TRUE,j,j,NA,NA,NA,3,6,"2,13,5,10,7,14,6,15,4,8,12,3,11,1,9"
15000,commdev-image-keyboard-response,140,388331,learnblock1,785.7000000476837,img/planet15_right.png,15,Community 2,NA,TRUE,j,j,NA,NA,NA,3,6,"2,13,5,10,7,14,6,15,4,8,12,3,11,1,9"
15000,commdev-image-keyboard-response,141,389592,learnblock1,752,img/planet3_right.png,3,Community 3,NA,TRUE,j,j,NA,NA,NA,3,6,"2,13,5,10,7,14,6,15,4,8,12,3,11,1,9"
15000,commdev-image-keyboard-response,142,390857,learnblock1,540,img/planet15_left.png,15,Community 2,NA,TRUE,f,f,NA,NA,NA,3,6,"2,13,5,10,7,14,6,15,4,8,12,3,11,1,9"
15000,commdev-image-keyboard-response,143,392120,learnblock1,875.1999999284744,img/planet4_left.png,4,Community 2,NA,TRUE,f,f,NA,NA,NA,3,6,"2,13,5,10,7,14,6,15,4,8,12,3,11,1,9"
15000,commdev-image-keyboard-response,144,393382,learnblock1,608.5,img/planet15_left.png,15,Community 2,NA,TRUE,f,f,NA,NA,NA,3,6,"2,13,5,10,7,14,6,15,4,8,12,3,11,1,9"
15000,commdev-image-keyboard-response,145,394639,learnblock1,605,img/planet6_right.png,6,Community 2,NA,TRUE,j,j,NA,NA,NA,3,6,"2,13,5,10,7,14,6,15,4,8,12,3,11,1,9"
15000,commdev-image-keyboard-response,146,395896,learnblock1,685.8000000715256,img/planet4_right.png,4,Community 2,NA,TRUE,j,j,NA,NA,NA,3,6,"2,13,5,10,7,14,6,15,4,8,12,3,11,1,9"
15000,commdev-image-keyboard-response,147,397155,learnblock1,540.2999999523163,img/planet6_right.png,6,Community 2,NA,TRUE,j,j,NA,NA,NA,3,6,"2,13,5,10,7,14,6,15,4,8,12,3,11,1,9"
15000,commdev-image-keyboard-response,148,398412,learnblock1,693.5999999046326,img/planet8_left.png,8,Community 2,NA,TRUE,f,f,NA,NA,NA,3,6,"2,13,5,10,7,14,6,15,4,8,12,3,11,1,9"
15000,commdev-image-keyboard-response,149,399670,learnblock1,535.7999999523163,img/planet15_left.png,15,Community 2,NA,TRUE,f,f,NA,NA,NA,3,6,"2,13,5,10,7,14,6,15,4,8,12,3,11,1,9"
15000,commdev-image-keyboard-response,150,400937,learnblock1,737.6999999284744,img/planet3_left.png,3,Community 3,NA,TRUE,f,f,NA,NA,NA,3,6,"2,13,5,10,7,14,6,15,4,8,12,3,11,1,9"
15000,commdev-image-keyboard-response,151,402193,learnblock1,493.40000009536743,img/planet9_left.png,9,Community 3,NA,TRUE,f,f,NA,NA,NA,3,6,"2,13,5,10,7,14,6,15,4,8,12,3,11,1,9"
15000,commdev-image-keyboard-response,152,403463,learnblock1,709.8999999761581,img/planet3_left.png,3,Community 3,NA,TRUE,f,f,NA,NA,NA,3,6,"2,13,5,10,7,14,6,15,4,8,12,3,11,1,9"
15000,commdev-image-keyboard-response,153,404724,learnblock1,557.8000000715256,img/planet11_left.png,11,Community 3,NA,TRUE,f,f,NA,NA,NA,3,6,"2,13,5,10,7,14,6,15,4,8,12,3,11,1,9"
15000,commdev-image-keyboard-response,154,405980,learnblock1,699.6000000238419,img/planet9_right.png,9,Community 3,NA,TRUE,j,j,NA,NA,NA,3,6,"2,13,5,10,7,14,6,15,4,8,12,3,11,1,9"
15000,commdev-image-keyboard-response,155,407244,learnblock1,542.1000000238419,img/planet11_left.png,11,Community 3,NA,FALSE,j,f,NA,NA,NA,3,6,"2,13,5,10,7,14,6,15,4,8,12,3,11,1,9"
15000,commdev-image-keyboard-response,156,408500,learnblock1,635.6000000238419,img/planet9_left.png,9,Community 3,NA,TRUE,f,f,NA,NA,NA,3,6,"2,13,5,10,7,14,6,15,4,8,12,3,11,1,9"
15000,commdev-image-keyboard-response,157,409760,learnblock1,1001,img/planet3_left.png,3,Community 3,NA,FALSE,j,f,NA,NA,NA,3,6,"2,13,5,10,7,14,6,15,4,8,12,3,11,1,9"
15000,commdev-image-keyboard-response,158,411020,learnblock1,126.89999997615814,img/planet15_left.png,15,Community 2,NA,TRUE,f,f,NA,NA,NA,3,6,"2,13,5,10,7,14,6,15,4,8,12,3,11,1,9"
15000,commdev-image-keyboard-response,159,412283,learnblock1,779.6999999284744,img/planet3_left.png,3,Community 3,NA,TRUE,f,f,NA,NA,NA,3,6,"2,13,5,10,7,14,6,15,4,8,12,3,11,1,9"
15000,commdev-image-keyboard-response,160,413540,learnblock1,656.5999999046326,img/planet11_right.png,11,Community 3,NA,TRUE,j,j,NA,NA,NA,3,6,"2,13,5,10,7,14,6,15,4,8,12,3,11,1,9"
15000,commdev-image-keyboard-response,161,414808,learnblock1,708.3999999761581,img/planet9_right.png,9,Community 3,NA,TRUE,j,j,NA,NA,NA,3,6,"2,13,5,10,7,14,6,15,4,8,12,3,11,1,9"
15000,commdev-image-keyboard-response,162,416064,learnblock1,720.1000000238419,img/planet3_right.png,3,Community 3,NA,TRUE,j,j,NA,NA,NA,3,6,"2,13,5,10,7,14,6,15,4,8,12,3,11,1,9"
15000,commdev-image-keyboard-response,163,417321,learnblock1,617.1000000238419,img/planet1_left.png,1,Community 3,NA,TRUE,f,f,NA,NA,NA,3,6,"2,13,5,10,7,14,6,15,4,8,12,3,11,1,9"
15000,commdev-image-keyboard-response,164,418577,learnblock1,909.6000000238419,img/planet11_right.png,11,Community 3,NA,TRUE,j,j,NA,NA,NA,3,6,"2,13,5,10,7,14,6,15,4,8,12,3,11,1,9"
15000,commdev-image-keyboard-response,165,419836,learnblock1,744.6000000238419,img/planet1_left.png,1,Community 3,NA,TRUE,f,f,NA,NA,NA,3,6,"2,13,5,10,7,14,6,15,4,8,12,3,11,1,9"
15000,commdev-image-keyboard-response,166,421090,learnblock1,710.2000000476837,img/planet12_left.png,12,Community 3,NA,TRUE,f,f,NA,NA,NA,3,6,"2,13,5,10,7,14,6,15,4,8,12,3,11,1,9"
15000,commdev-image-keyboard-response,167,422351,learnblock1,561.7999999523163,img/planet11_left.png,11,Community 3,NA,TRUE,f,f,NA,NA,NA,3,6,"2,13,5,10,7,14,6,15,4,8,12,3,11,1,9"
15000,commdev-image-keyboard-response,168,423603,learnblock1,559.7999999523163,img/planet3_right.png,3,Community 3,NA,TRUE,j,j,NA,NA,NA,3,6,"2,13,5,10,7,14,6,15,4,8,12,3,11,1,9"
15000,commdev-image-keyboard-response,169,424864,learnblock1,601.7999999523163,img/planet1_left.png,1,Community 3,NA,TRUE,f,f,NA,NA,NA,3,6,"2,13,5,10,7,14,6,15,4,8,12,3,11,1,9"
15000,commdev-image-keyboard-response,170,426126,learnblock1,660.1000000238419,img/planet3_left.png,3,Community 3,NA,TRUE,f,f,NA,NA,NA,3,6,"2,13,5,10,7,14,6,15,4,8,12,3,11,1,9"
15000,commdev-image-keyboard-response,171,427379,learnblock1,568.7000000476837,img/planet11_right.png,11,Community 3,NA,TRUE,j,j,NA,NA,NA,3,6,"2,13,5,10,7,14,6,15,4,8,12,3,11,1,9"
15000,commdev-image-keyboard-response,172,428636,learnblock1,712.5,img/planet9_right.png,9,Community 3,NA,TRUE,j,j,NA,NA,NA,3,6,"2,13,5,10,7,14,6,15,4,8,12,3,11,1,9"
15000,commdev-image-keyboard-response,173,429898,learnblock1,599.4000000953674,img/planet11_left.png,11,Community 3,NA,TRUE,f,f,NA,NA,NA,3,6,"2,13,5,10,7,14,6,15,4,8,12,3,11,1,9"
15000,commdev-image-keyboard-response,174,431158,learnblock1,742.1000000238419,img/planet3_left.png,3,Community 3,NA,TRUE,f,f,NA,NA,NA,3,6,"2,13,5,10,7,14,6,15,4,8,12,3,11,1,9"
15000,commdev-image-keyboard-response,175,432413,learnblock1,711.6999999284744,img/planet9_right.png,9,Community 3,NA,TRUE,j,j,NA,NA,NA,3,6,"2,13,5,10,7,14,6,15,4,8,12,3,11,1,9"
15000,commdev-image-keyboard-response,176,433668,learnblock1,848.3999999761581,img/planet11_right.png,11,Community 3,NA,TRUE,j,j,NA,NA,NA,3,6,"2,13,5,10,7,14,6,15,4,8,12,3,11,1,9"
15000,commdev-image-keyboard-response,177,434920,learnblock1,877.5,img/planet1_right.png,1,Community 3,NA,TRUE,j,j,NA,NA,NA,3,6,"2,13,5,10,7,14,6,15,4,8,12,3,11,1,9"
15000,commdev-image-keyboard-response,178,436188,learnblock1,594.6999999284744,img/planet3_left.png,3,Community 3,NA,TRUE,f,f,NA,NA,NA,3,6,"2,13,5,10,7,14,6,15,4,8,12,3,11,1,9"
15000,commdev-image-keyboard-response,179,437446,learnblock1,632.7999999523163,img/planet9_right.png,9,Community 3,NA,TRUE,j,j,NA,NA,NA,3,6,"2,13,5,10,7,14,6,15,4,8,12,3,11,1,9"
15000,commdev-image-keyboard-response,180,438699,learnblock1,653.1999999284744,img/planet11_right.png,11,Community 3,NA,TRUE,j,j,NA,NA,NA,3,6,"2,13,5,10,7,14,6,15,4,8,12,3,11,1,9"
15000,commdev-image-keyboard-response,181,439955,learnblock1,792,img/planet9_left.png,9,Community 3,NA,TRUE,f,f,NA,NA,NA,3,6,"2,13,5,10,7,14,6,15,4,8,12,3,11,1,9"
15000,commdev-image-keyboard-response,182,441219,learnblock1,710.7999999523163,img/planet11_left.png,11,Community 3,NA,TRUE,f,f,NA,NA,NA,3,6,"2,13,5,10,7,14,6,15,4,8,12,3,11,1,9"
15000,commdev-image-keyboard-response,183,442476,learnblock1,708.1999999284744,img/planet9_right.png,9,Community 3,NA,TRUE,j,j,NA,NA,NA,3,6,"2,13,5,10,7,14,6,15,4,8,12,3,11,1,9"
15000,commdev-image-keyboard-response,184,443732,learnblock1,979.7000000476837,img/planet3_right.png,3,Community 3,NA,TRUE,j,j,NA,NA,NA,3,6,"2,13,5,10,7,14,6,15,4,8,12,3,11,1,9"
15000,commdev-image-keyboard-response,185,444990,learnblock1,807,img/planet15_right.png,15,Community 2,NA,TRUE,j,j,NA,NA,NA,3,6,"2,13,5,10,7,14,6,15,4,8,12,3,11,1,9"
15000,commdev-image-keyboard-response,186,446250,learnblock1,721.5,img/planet3_left.png,3,Community 3,NA,TRUE,f,f,NA,NA,NA,3,6,"2,13,5,10,7,14,6,15,4,8,12,3,11,1,9"
15000,commdev-image-keyboard-response,187,447507,learnblock1,1011.5,img/planet9_right.png,9,Community 3,NA,TRUE,j,j,NA,NA,NA,3,6,"2,13,5,10,7,14,6,15,4,8,12,3,11,1,9"
15000,commdev-image-keyboard-response,188,448769,learnblock1,730.3000000715256,img/planet12_right.png,12,Community 3,NA,TRUE,j,j,NA,NA,NA,3,6,"2,13,5,10,7,14,6,15,4,8,12,3,11,1,9"
15000,commdev-image-keyboard-response,189,450027,learnblock1,835.6000000238419,img/planet7_left.png,7,Community 1,NA,TRUE,f,f,NA,NA,NA,3,6,"2,13,5,10,7,14,6,15,4,8,12,3,11,1,9"
15000,commdev-image-keyboard-response,190,451282,learnblock1,941.1999999284744,img/planet5_right.png,5,Community 1,NA,TRUE,j,j,NA,NA,NA,3,6,"2,13,5,10,7,14,6,15,4,8,12,3,11,1,9"
15000,commdev-image-keyboard-response,191,452539,learnblock1,1225.7000000476837,img/planet7_right.png,7,Community 1,NA,TRUE,j,j,NA,NA,NA,3,6,"2,13,5,10,7,14,6,15,4,8,12,3,11,1,9"
15000,commdev-image-keyboard-response,192,453797,learnblock1,663.7000000476837,img/planet12_right.png,12,Community 3,NA,TRUE,j,j,NA,NA,NA,3,6,"2,13,5,10,7,14,6,15,4,8,12,3,11,1,9"
15000,commdev-image-keyboard-response,193,455056,learnblock1,923.6000000238419,img/planet7_left.png,7,Community 1,NA,TRUE,f,f,NA,NA,NA,3,6,"2,13,5,10,7,14,6,15,4,8,12,3,11,1,9"
15000,commdev-image-keyboard-response,194,456324,learnblock1,552.2000000476837,img/planet5_left.png,5,Community 1,NA,TRUE,f,f,NA,NA,NA,3,6,"2,13,5,10,7,14,6,15,4,8,12,3,11,1,9"
15000,commdev-image-keyboard-response,195,457582,learnblock1,725.7000000476837,img/planet7_right.png,7,Community 1,NA,TRUE,j,j,NA,NA,NA,3,6,"2,13,5,10,7,14,6,15,4,8,12,3,11,1,9"
15000,commdev-image-keyboard-response,196,458837,learnblock1,588.7999999523163,img/planet13_left.png,13,Community 1,NA,TRUE,f,f,NA,NA,NA,3,6,"2,13,5,10,7,14,6,15,4,8,12,3,11,1,9"
15000,commdev-image-keyboard-response,197,460088,learnblock1,794,img/planet5_left.png,5,Community 1,NA,TRUE,f,f,NA,NA,NA,3,6,"2,13,5,10,7,14,6,15,4,8,12,3,11,1,9"
15000,commdev-image-keyboard-response,198,461342,learnblock1,705.8999999761581,img/planet7_left.png,7,Community 1,NA,TRUE,f,f,NA,NA,NA,3,6,"2,13,5,10,7,14,6,15,4,8,12,3,11,1,9"
15000,commdev-image-keyboard-response,199,462602,learnblock1,505.60000002384186,img/planet2_left.png,2,Community 1,NA,TRUE,f,f,NA,NA,NA,3,6,"2,13,5,10,7,14,6,15,4,8,12,3,11,1,9"
15000,commdev-image-keyboard-response,200,463865,learnblock1,555.8999999761581,img/planet10_left.png,10,Community 1,NA,TRUE,f,f,NA,NA,NA,3,6,"2,13,5,10,7,14,6,15,4,8,12,3,11,1,9"
15000,commdev-image-keyboard-response,201,465129,learnblock1,682.8000000715256,img/planet2_left.png,2,Community 1,NA,TRUE,f,f,NA,NA,NA,3,6,"2,13,5,10,7,14,6,15,4,8,12,3,11,1,9"
15000,commdev-image-keyboard-response,202,466383,learnblock1,646.5,img/planet13_right.png,13,Community 1,NA,TRUE,j,j,NA,NA,NA,3,6,"2,13,5,10,7,14,6,15,4,8,12,3,11,1,9"
15000,commdev-image-keyboard-response,203,467638,learnblock1,568.6000000238419,img/planet5_left.png,5,Community 1,NA,TRUE,f,f,NA,NA,NA,3,6,"2,13,5,10,7,14,6,15,4,8,12,3,11,1,9"
15000,commdev-image-keyboard-response,204,468895,learnblock1,597.2000000476837,img/planet10_left.png,10,Community 1,NA,TRUE,f,f,NA,NA,NA,3,6,"2,13,5,10,7,14,6,15,4,8,12,3,11,1,9"
15000,commdev-image-keyboard-response,205,470151,learnblock1,1012.2000000476837,img/planet5_right.png,5,Community 1,NA,TRUE,j,j,NA,NA,NA,3,6,"2,13,5,10,7,14,6,15,4,8,12,3,11,1,9"
15000,commdev-image-keyboard-response,206,471413,learnblock1,645,img/planet13_left.png,13,Community 1,NA,TRUE,f,f,NA,NA,NA,3,6,"2,13,5,10,7,14,6,15,4,8,12,3,11,1,9"
15000,commdev-image-keyboard-response,207,472669,learnblock1,675.6000000238419,img/planet5_left.png,5,Community 1,NA,TRUE,f,f,NA,NA,NA,3,6,"2,13,5,10,7,14,6,15,4,8,12,3,11,1,9"
15000,commdev-image-keyboard-response,208,473924,learnblock1,519.8999999761581,img/planet10_right.png,10,Community 1,NA,FALSE,f,j,NA,NA,NA,3,6,"2,13,5,10,7,14,6,15,4,8,12,3,11,1,9"
15000,commdev-image-keyboard-response,209,475180,learnblock1,786.8999999761581,img/planet13_right.png,13,Community 1,NA,TRUE,j,j,NA,NA,NA,3,6,"2,13,5,10,7,14,6,15,4,8,12,3,11,1,9"
15000,commdev-image-keyboard-response,210,476432,learnblock1,769.3999999761581,img/planet5_right.png,5,Community 1,NA,TRUE,j,j,NA,NA,NA,3,6,"2,13,5,10,7,14,6,15,4,8,12,3,11,1,9"
15000,commdev-image-keyboard-response,211,477687,learnblock1,707,img/planet13_left.png,13,Community 1,NA,TRUE,f,f,NA,NA,NA,3,6,"2,13,5,10,7,14,6,15,4,8,12,3,11,1,9"
15000,commdev-image-keyboard-response,212,478943,learnblock1,668.3000000715256,img/planet10_left.png,10,Community 1,NA,TRUE,f,f,NA,NA,NA,3,6,"2,13,5,10,7,14,6,15,4,8,12,3,11,1,9"
15000,commdev-image-keyboard-response,213,480202,learnblock1,453.60000002384186,img/planet5_right.png,5,Community 1,NA,FALSE,f,j,NA,NA,NA,3,6,"2,13,5,10,7,14,6,15,4,8,12,3,11,1,9"
15000,commdev-image-keyboard-response,214,481467,learnblock1,642.7000000476837,img/planet13_right.png,13,Community 1,NA,TRUE,j,j,NA,NA,NA,3,6,"2,13,5,10,7,14,6,15,4,8,12,3,11,1,9"
15000,commdev-image-keyboard-response,215,482725,learnblock1,631,img/planet7_right.png,7,Community 1,NA,TRUE,j,j,NA,NA,NA,3,6,"2,13,5,10,7,14,6,15,4,8,12,3,11,1,9"
15000,commdev-image-keyboard-response,216,483982,learnblock1,547.8999999761581,img/planet2_right.png,2,Community 1,NA,TRUE,j,j,NA,NA,NA,3,6,"2,13,5,10,7,14,6,15,4,8,12,3,11,1,9"
15000,commdev-image-keyboard-response,217,485234,learnblock1,583.2999999523163,img/planet7_right.png,7,Community 1,NA,TRUE,j,j,NA,NA,NA,3,6,"2,13,5,10,7,14,6,15,4,8,12,3,11,1,9"
15000,commdev-image-keyboard-response,218,486487,learnblock1,498.3000000715256,img/planet2_left.png,2,Community 1,NA,FALSE,j,f,NA,NA,NA,3,6,"2,13,5,10,7,14,6,15,4,8,12,3,11,1,9"
15000,commdev-image-keyboard-response,219,487754,learnblock1,1041.1000000238419,img/planet13_left.png,13,Community 1,NA,TRUE,f,f,NA,NA,NA,3,6,"2,13,5,10,7,14,6,15,4,8,12,3,11,1,9"
15000,commdev-image-keyboard-response,220,489018,learnblock1,637.6999999284744,img/planet7_right.png,7,Community 1,NA,TRUE,j,j,NA,NA,NA,3,6,"2,13,5,10,7,14,6,15,4,8,12,3,11,1,9"
15000,commdev-image-keyboard-response,221,490270,learnblock1,743.5,img/planet12_left.png,12,Community 3,NA,TRUE,f,f,NA,NA,NA,3,6,"2,13,5,10,7,14,6,15,4,8,12,3,11,1,9"
15000,commdev-image-keyboard-response,222,491530,learnblock1,767,img/planet11_left.png,11,Community 3,NA,TRUE,f,f,NA,NA,NA,3,6,"2,13,5,10,7,14,6,15,4,8,12,3,11,1,9"
15000,commdev-image-keyboard-response,223,492793,learnblock1,559.7000000476837,img/planet1_left.png,1,Community 3,NA,TRUE,f,f,NA,NA,NA,3,6,"2,13,5,10,7,14,6,15,4,8,12,3,11,1,9"
15000,commdev-image-keyboard-response,224,494050,learnblock1,539.2000000476837,img/planet9_left.png,9,Community 3,NA,TRUE,f,f,NA,NA,NA,3,6,"2,13,5,10,7,14,6,15,4,8,12,3,11,1,9"
15000,commdev-image-keyboard-response,225,495303,learnblock1,695.5,img/planet12_left.png,12,Community 3,NA,TRUE,f,f,NA,NA,NA,3,6,"2,13,5,10,7,14,6,15,4,8,12,3,11,1,9"
15000,commdev-image-keyboard-response,226,496566,learnblock1,495.10000002384186,img/planet7_right.png,7,Community 1,NA,FALSE,f,j,NA,NA,NA,3,6,"2,13,5,10,7,14,6,15,4,8,12,3,11,1,9"
15000,commdev-image-keyboard-response,227,497820,learnblock1,1064.7999999523163,img/planet2_left.png,2,Community 1,NA,TRUE,f,f,NA,NA,NA,3,6,"2,13,5,10,7,14,6,15,4,8,12,3,11,1,9"
15000,commdev-image-keyboard-response,228,499088,learnblock1,591.1000000238419,img/planet5_left.png,5,Community 1,NA,TRUE,f,f,NA,NA,NA,3,6,"2,13,5,10,7,14,6,15,4,8,12,3,11,1,9"
15000,commdev-image-keyboard-response,229,500345,learnblock1,583.4000000953674,img/planet10_right.png,10,Community 1,NA,TRUE,j,j,NA,NA,NA,3,6,"2,13,5,10,7,14,6,15,4,8,12,3,11,1,9"
15000,commdev-image-keyboard-response,230,501601,learnblock1,704.3000000715256,img/planet5_right.png,5,Community 1,NA,TRUE,j,j,NA,NA,NA,3,6,"2,13,5,10,7,14,6,15,4,8,12,3,11,1,9"
15000,commdev-image-keyboard-response,231,502870,learnblock1,647.0999999046326,img/planet13_left.png,13,Community 1,NA,TRUE,f,f,NA,NA,NA,3,6,"2,13,5,10,7,14,6,15,4,8,12,3,11,1,9"
15000,commdev-image-keyboard-response,232,504129,learnblock1,1005.2999999523163,img/planet10_left.png,10,Community 1,NA,TRUE,f,f,NA,NA,NA,3,6,"2,13,5,10,7,14,6,15,4,8,12,3,11,1,9"
15000,commdev-image-keyboard-response,233,505387,learnblock1,562.5,img/planet2_right.png,2,Community 1,NA,TRUE,j,j,NA,NA,NA,3,6,"2,13,5,10,7,14,6,15,4,8,12,3,11,1,9"
15000,commdev-image-keyboard-response,234,506646,learnblock1,700,img/planet10_right.png,10,Community 1,NA,TRUE,j,j,NA,NA,NA,3,6,"2,13,5,10,7,14,6,15,4,8,12,3,11,1,9"
15000,commdev-image-keyboard-response,235,507900,learnblock1,784.7000000476837,img/planet5_left.png,5,Community 1,NA,TRUE,f,f,NA,NA,NA,3,6,"2,13,5,10,7,14,6,15,4,8,12,3,11,1,9"
15000,commdev-image-keyboard-response,236,509156,learnblock1,611.2999999523163,img/planet10_left.png,10,Community 1,NA,TRUE,f,f,NA,NA,NA,3,6,"2,13,5,10,7,14,6,15,4,8,12,3,11,1,9"
15000,commdev-image-keyboard-response,237,510409,learnblock1,632.6000000238419,img/planet13_left.png,13,Community 1,NA,TRUE,f,f,NA,NA,NA,3,6,"2,13,5,10,7,14,6,15,4,8,12,3,11,1,9"
15000,commdev-image-keyboard-response,238,511663,learnblock1,547.2999999523163,img/planet7_right.png,7,Community 1,NA,FALSE,f,j,NA,NA,NA,3,6,"2,13,5,10,7,14,6,15,4,8,12,3,11,1,9"
15000,commdev-image-keyboard-response,239,512918,learnblock1,816.6000000238419,img/planet5_right.png,5,Community 1,NA,TRUE,j,j,NA,NA,NA,3,6,"2,13,5,10,7,14,6,15,4,8,12,3,11,1,9"
15000,commdev-image-keyboard-response,240,514186,learnblock1,741.5,img/planet13_right.png,13,Community 1,NA,TRUE,j,j,NA,NA,NA,3,6,"2,13,5,10,7,14,6,15,4,8,12,3,11,1,9"
15000,commdev-image-keyboard-response,241,515446,learnblock1,940.3999999761581,img/planet5_right.png,5,Community 1,NA,TRUE,j,j,NA,NA,NA,3,6,"2,13,5,10,7,14,6,15,4,8,12,3,11,1,9"
15000,commdev-image-keyboard-response,242,516710,learnblock1,1009.7000000476837,img/planet10_left.png,10,Community 1,NA,TRUE,f,f,NA,NA,NA,3,6,"2,13,5,10,7,14,6,15,4,8,12,3,11,1,9"
15000,commdev-image-keyboard-response,243,517975,learnblock1,862.9000000953674,img/planet14_right.png,14,Community 2,NA,TRUE,j,j,NA,NA,NA,3,6,"2,13,5,10,7,14,6,15,4,8,12,3,11,1,9"
15000,commdev-image-keyboard-response,244,519234,learnblock1,1191.3000000715256,img/planet8_left.png,8,Community 2,NA,TRUE,f,f,NA,NA,NA,3,6,"2,13,5,10,7,14,6,15,4,8,12,3,11,1,9"
15000,commdev-image-keyboard-response,245,520489,learnblock1,623.2999999523163,img/planet6_left.png,6,Community 2,NA,TRUE,f,f,NA,NA,NA,3,6,"2,13,5,10,7,14,6,15,4,8,12,3,11,1,9"
15000,commdev-image-keyboard-response,246,521756,learnblock1,673.8000000715256,img/planet8_left.png,8,Community 2,NA,TRUE,f,f,NA,NA,NA,3,6,"2,13,5,10,7,14,6,15,4,8,12,3,11,1,9"
15000,commdev-image-keyboard-response,247,523012,learnblock1,768.3999999761581,img/planet15_right.png,15,Community 2,NA,TRUE,j,j,NA,NA,NA,3,6,"2,13,5,10,7,14,6,15,4,8,12,3,11,1,9"
15000,commdev-image-keyboard-response,248,524276,learnblock1,943.6000000238419,img/planet3_right.png,3,Community 3,NA,TRUE,j,j,NA,NA,NA,3,6,"2,13,5,10,7,14,6,15,4,8,12,3,11,1,9"
15000,commdev-image-keyboard-response,249,525537,learnblock1,540.3999999761581,img/planet11_right.png,11,Community 3,NA,TRUE,j,j,NA,NA,NA,3,6,"2,13,5,10,7,14,6,15,4,8,12,3,11,1,9"
15000,commdev-image-keyboard-response,250,526794,learnblock1,483.89999997615814,img/planet1_right.png,1,Community 3,NA,TRUE,j,j,NA,NA,NA,3,6,"2,13,5,10,7,14,6,15,4,8,12,3,11,1,9"
15000,commdev-image-keyboard-response,251,528049,learnblock1,505,img/planet9_left.png,9,Community 3,NA,TRUE,f,f,NA,NA,NA,3,6,"2,13,5,10,7,14,6,15,4,8,12,3,11,1,9"
15000,commdev-image-keyboard-response,252,529307,learnblock1,649.5,img/planet11_left.png,11,Community 3,NA,TRUE,f,f,NA,NA,NA,3,6,"2,13,5,10,7,14,6,15,4,8,12,3,11,1,9"
15000,commdev-image-keyboard-response,253,530563,learnblock1,735.5999999046326,img/planet1_right.png,1,Community 3,NA,TRUE,j,j,NA,NA,NA,3,6,"2,13,5,10,7,14,6,15,4,8,12,3,11,1,9"
15000,commdev-image-keyboard-response,254,531816,learnblock1,656,img/planet11_right.png,11,Community 3,NA,TRUE,j,j,NA,NA,NA,3,6,"2,13,5,10,7,14,6,15,4,8,12,3,11,1,9"
15000,commdev-image-keyboard-response,255,533083,learnblock1,761.2999999523163,img/planet3_left.png,3,Community 3,NA,TRUE,f,f,NA,NA,NA,3,6,"2,13,5,10,7,14,6,15,4,8,12,3,11,1,9"
15000,commdev-image-keyboard-response,256,534348,learnblock1,740.1999999284744,img/planet9_right.png,9,Community 3,NA,TRUE,j,j,NA,NA,NA,3,6,"2,13,5,10,7,14,6,15,4,8,12,3,11,1,9"
15000,commdev-image-keyboard-response,257,535603,learnblock1,750.1999999284744,img/planet11_left.png,11,Community 3,NA,TRUE,f,f,NA,NA,NA,3,6,"2,13,5,10,7,14,6,15,4,8,12,3,11,1,9"
15000,commdev-image-keyboard-response,258,536861,learnblock1,696.7999999523163,img/planet9_left.png,9,Community 3,NA,FALSE,j,f,NA,NA,NA,3,6,"2,13,5,10,7,14,6,15,4,8,12,3,11,1,9"
15000,commdev-image-keyboard-response,259,538114,learnblock1,696,img/planet12_left.png,12,Community 3,NA,TRUE,f,f,NA,NA,NA,3,6,"2,13,5,10,7,14,6,15,4,8,12,3,11,1,9"
15000,commdev-image-keyboard-response,260,539371,learnblock1,886.6999999284744,img/planet7_left.png,7,Community 1,NA,TRUE,f,f,NA,NA,NA,3,6,"2,13,5,10,7,14,6,15,4,8,12,3,11,1,9"
15000,commdev-image-keyboard-response,261,540632,learnblock1,793.9000000953674,img/planet2_right.png,2,Community 1,NA,TRUE,j,j,NA,NA,NA,3,6,"2,13,5,10,7,14,6,15,4,8,12,3,11,1,9"
15000,commdev-image-keyboard-response,262,541890,learnblock1,1068.2000000476837,img/planet5_left.png,5,Community 1,NA,TRUE,f,f,NA,NA,NA,3,6,"2,13,5,10,7,14,6,15,4,8,12,3,11,1,9"
15000,commdev-image-keyboard-response,263,543150,learnblock1,967.6000000238419,img/planet2_left.png,2,Community 1,NA,TRUE,f,f,NA,NA,NA,3,6,"2,13,5,10,7,14,6,15,4,8,12,3,11,1,9"
15000,commdev-image-keyboard-response,264,544404,learnblock1,766.7999999523163,img/planet10_left.png,10,Community 1,NA,TRUE,f,f,NA,NA,NA,3,6,"2,13,5,10,7,14,6,15,4,8,12,3,11,1,9"
15000,commdev-image-keyboard-response,265,545665,learnblock1,523.6000000238419,img/planet13_left.png,13,Community 1,NA,TRUE,f,f,NA,NA,NA,3,6,"2,13,5,10,7,14,6,15,4,8,12,3,11,1,9"
15000,commdev-image-keyboard-response,266,546919,learnblock1,529,img/planet7_right.png,7,Community 1,NA,FALSE,f,j,NA,NA,NA,3,6,"2,13,5,10,7,14,6,15,4,8,12,3,11,1,9"
15000,commdev-image-keyboard-response,267,548179,learnblock1,513.5999999046326,img/planet2_right.png,2,Community 1,NA,TRUE,j,j,NA,NA,NA,3,6,"2,13,5,10,7,14,6,15,4,8,12,3,11,1,9"
15000,commdev-image-keyboard-response,268,549433,learnblock1,602.5,img/planet13_left.png,13,Community 1,NA,TRUE,f,f,NA,NA,NA,3,6,"2,13,5,10,7,14,6,15,4,8,12,3,11,1,9"
15000,commdev-image-keyboard-response,269,550692,learnblock1,553.8000000715256,img/planet7_right.png,7,Community 1,NA,TRUE,j,j,NA,NA,NA,3,6,"2,13,5,10,7,14,6,15,4,8,12,3,11,1,9"
15000,commdev-image-keyboard-response,270,551948,learnblock1,637.2999999523163,img/planet5_right.png,5,Community 1,NA,TRUE,j,j,NA,NA,NA,3,6,"2,13,5,10,7,14,6,15,4,8,12,3,11,1,9"
15000,commdev-image-keyboard-response,271,553206,learnblock1,690.3999999761581,img/planet7_left.png,7,Community 1,NA,TRUE,f,f,NA,NA,NA,3,6,"2,13,5,10,7,14,6,15,4,8,12,3,11,1,9"
15000,commdev-image-keyboard-response,272,554466,learnblock1,635.0999999046326,img/planet5_right.png,5,Community 1,NA,FALSE,f,j,NA,NA,NA,3,6,"2,13,5,10,7,14,6,15,4,8,12,3,11,1,9"
15000,commdev-image-keyboard-response,273,555733,learnblock1,827.7000000476837,img/planet2_left.png,2,Community 1,NA,TRUE,f,f,NA,NA,NA,3,6,"2,13,5,10,7,14,6,15,4,8,12,3,11,1,9"
15000,commdev-image-keyboard-response,274,557001,learnblock1,535.8999999761581,img/planet13_right.png,13,Community 1,NA,TRUE,j,j,NA,NA,NA,3,6,"2,13,5,10,7,14,6,15,4,8,12,3,11,1,9"
15000,commdev-image-keyboard-response,275,558256,learnblock1,811.6000000238419,img/planet2_right.png,2,Community 1,NA,TRUE,j,j,NA,NA,NA,3,6,"2,13,5,10,7,14,6,15,4,8,12,3,11,1,9"
15000,commdev-image-keyboard-response,276,559520,learnblock1,628.1999999284744,img/planet7_left.png,7,Community 1,NA,TRUE,f,f,NA,NA,NA,3,6,"2,13,5,10,7,14,6,15,4,8,12,3,11,1,9"
15000,commdev-image-keyboard-response,277,560773,learnblock1,700.3999999761581,img/planet5_left.png,5,Community 1,NA,TRUE,f,f,NA,NA,NA,3,6,"2,13,5,10,7,14,6,15,4,8,12,3,11,1,9"
15000,commdev-image-keyboard-response,278,562039,learnblock1,642.5,img/planet10_left.png,10,Community 1,NA,TRUE,f,f,NA,NA,NA,3,6,"2,13,5,10,7,14,6,15,4,8,12,3,11,1,9"
15000,commdev-image-keyboard-response,279,563300,learnblock1,616.5,img/planet13_left.png,13,Community 1,NA,TRUE,f,f,NA,NA,NA,3,6,"2,13,5,10,7,14,6,15,4,8,12,3,11,1,9"
15000,commdev-image-keyboard-response,280,564554,learnblock1,561.2999999523163,img/planet2_left.png,2,Community 1,NA,TRUE,f,f,NA,NA,NA,3,6,"2,13,5,10,7,14,6,15,4,8,12,3,11,1,9"
15000,commdev-image-keyboard-response,281,565816,learnblock1,701.8000000715256,img/planet7_left.png,7,Community 1,NA,TRUE,f,f,NA,NA,NA,3,6,"2,13,5,10,7,14,6,15,4,8,12,3,11,1,9"
15000,commdev-image-keyboard-response,282,567069,learnblock1,603.3000000715256,img/planet2_left.png,2,Community 1,NA,TRUE,f,f,NA,NA,NA,3,6,"2,13,5,10,7,14,6,15,4,8,12,3,11,1,9"
15000,commdev-image-keyboard-response,283,568333,learnblock1,627.7999999523163,img/planet5_left.png,5,Community 1,NA,TRUE,f,f,NA,NA,NA,3,6,"2,13,5,10,7,14,6,15,4,8,12,3,11,1,9"
15000,commdev-image-keyboard-response,284,569593,learnblock1,458.5,img/planet2_left.png,2,Community 1,NA,TRUE,f,f,NA,NA,NA,3,6,"2,13,5,10,7,14,6,15,4,8,12,3,11,1,9"
15000,commdev-image-keyboard-response,285,570855,learnblock1,569.5,img/planet7_right.png,7,Community 1,NA,FALSE,f,j,NA,NA,NA,3,6,"2,13,5,10,7,14,6,15,4,8,12,3,11,1,9"
15000,commdev-image-keyboard-response,286,572111,learnblock1,669.3000000715256,img/planet12_left.png,12,Community 3,NA,TRUE,f,f,NA,NA,NA,3,6,"2,13,5,10,7,14,6,15,4,8,12,3,11,1,9"
15000,commdev-image-keyboard-response,287,573367,learnblock1,717.7000000476837,img/planet11_right.png,11,Community 3,NA,TRUE,j,j,NA,NA,NA,3,6,"2,13,5,10,7,14,6,15,4,8,12,3,11,1,9"
15000,commdev-image-keyboard-response,288,574625,learnblock1,806.1000000238419,img/planet1_left.png,1,Community 3,NA,TRUE,f,f,NA,NA,NA,3,6,"2,13,5,10,7,14,6,15,4,8,12,3,11,1,9"
15000,commdev-image-keyboard-response,289,575890,learnblock1,725.8000000715256,img/planet12_left.png,12,Community 3,NA,TRUE,f,f,NA,NA,NA,3,6,"2,13,5,10,7,14,6,15,4,8,12,3,11,1,9"
15000,commdev-image-keyboard-response,290,577150,learnblock1,649.7000000476837,img/planet11_right.png,11,Community 3,NA,TRUE,j,j,NA,NA,NA,3,6,"2,13,5,10,7,14,6,15,4,8,12,3,11,1,9"
15000,commdev-image-keyboard-response,291,578407,learnblock1,719.3000000715256,img/planet12_left.png,12,Community 3,NA,TRUE,f,f,NA,NA,NA,3,6,"2,13,5,10,7,14,6,15,4,8,12,3,11,1,9"
15000,commdev-image-keyboard-response,292,579660,learnblock1,701.1000000238419,img/planet9_left.png,9,Community 3,NA,TRUE,f,f,NA,NA,NA,3,6,"2,13,5,10,7,14,6,15,4,8,12,3,11,1,9"
15000,commdev-image-keyboard-response,293,580917,learnblock1,721.6000000238419,img/planet3_right.png,3,Community 3,NA,TRUE,j,j,NA,NA,NA,3,6,"2,13,5,10,7,14,6,15,4,8,12,3,11,1,9"
15000,commdev-image-keyboard-response,294,582183,learnblock1,646.8000000715256,img/planet9_right.png,9,Community 3,NA,TRUE,j,j,NA,NA,NA,3,6,"2,13,5,10,7,14,6,15,4,8,12,3,11,1,9"
15000,commdev-image-keyboard-response,295,583438,learnblock1,701.8999999761581,img/planet1_left.png,1,Community 3,NA,TRUE,f,f,NA,NA,NA,3,6,"2,13,5,10,7,14,6,15,4,8,12,3,11,1,9"
15000,commdev-image-keyboard-response,296,584691,learnblock1,649.3999999761581,img/planet11_right.png,11,Community 3,NA,TRUE,j,j,NA,NA,NA,3,6,"2,13,5,10,7,14,6,15,4,8,12,3,11,1,9"
15000,commdev-image-keyboard-response,297,585949,learnblock1,620.3999999761581,img/planet9_right.png,9,Community 3,NA,TRUE,j,j,NA,NA,NA,3,6,"2,13,5,10,7,14,6,15,4,8,12,3,11,1,9"
15000,commdev-image-keyboard-response,298,587203,learnblock1,655.6000000238419,img/planet1_left.png,1,Community 3,NA,TRUE,f,f,NA,NA,NA,3,6,"2,13,5,10,7,14,6,15,4,8,12,3,11,1,9"
15000,commdev-image-keyboard-response,299,588456,learnblock1,null,img/planet3_left.png,3,Community 3,NA,FALSE,null,f,NA,NA,NA,3,6,"2,13,5,10,7,14,6,15,4,8,12,3,11,1,9"
15000,commdev-image-keyboard-response,300,589716,learnblock1,153.5,img/planet1_right.png,1,Community 3,NA,FALSE,f,j,NA,NA,NA,3,6,"2,13,5,10,7,14,6,15,4,8,12,3,11,1,9"
15000,commdev-image-keyboard-response,301,590969,learnblock1,672.1000000238419,img/planet12_right.png,12,Community 3,NA,TRUE,j,j,NA,NA,NA,3,6,"2,13,5,10,7,14,6,15,4,8,12,3,11,1,9"
15000,commdev-image-keyboard-response,302,592226,learnblock1,859,img/planet7_right.png,7,Community 1,NA,TRUE,j,j,NA,NA,NA,3,6,"2,13,5,10,7,14,6,15,4,8,12,3,11,1,9"
15000,commdev-image-keyboard-response,303,593481,learnblock1,769.2000000476837,img/planet2_left.png,2,Community 1,NA,TRUE,f,f,NA,NA,NA,3,6,"2,13,5,10,7,14,6,15,4,8,12,3,11,1,9"
15000,commdev-image-keyboard-response,304,594740,learnblock1,722.8999999761581,img/planet13_left.png,13,Community 1,NA,TRUE,f,f,NA,NA,NA,3,6,"2,13,5,10,7,14,6,15,4,8,12,3,11,1,9"
15000,commdev-image-keyboard-response,305,595999,learnblock1,793.1000000238419,img/planet10_left.png,10,Community 1,NA,TRUE,f,f,NA,NA,NA,3,6,"2,13,5,10,7,14,6,15,4,8,12,3,11,1,9"
15000,commdev-image-keyboard-response,306,597252,learnblock1,552.6000000238419,img/planet2_right.png,2,Community 1,NA,TRUE,j,j,NA,NA,NA,3,6,"2,13,5,10,7,14,6,15,4,8,12,3,11,1,9"
15000,commdev-image-keyboard-response,307,598507,learnblock1,804.9000000953674,img/planet13_right.png,13,Community 1,NA,TRUE,j,j,NA,NA,NA,3,6,"2,13,5,10,7,14,6,15,4,8,12,3,11,1,9"
15000,commdev-image-keyboard-response,308,599762,learnblock1,572.8999999761581,img/planet7_right.png,7,Community 1,NA,TRUE,j,j,NA,NA,NA,3,6,"2,13,5,10,7,14,6,15,4,8,12,3,11,1,9"
15000,commdev-image-keyboard-response,309,601014,learnblock1,596.5,img/planet13_right.png,13,Community 1,NA,TRUE,j,j,NA,NA,NA,3,6,"2,13,5,10,7,14,6,15,4,8,12,3,11,1,9"
15000,commdev-image-keyboard-response,310,602278,learnblock1,588.7999999523163,img/planet2_left.png,2,Community 1,NA,TRUE,f,f,NA,NA,NA,3,6,"2,13,5,10,7,14,6,15,4,8,12,3,11,1,9"
15000,commdev-image-keyboard-response,311,603540,learnblock1,820.5,img/planet5_left.png,5,Community 1,NA,TRUE,f,f,NA,NA,NA,3,6,"2,13,5,10,7,14,6,15,4,8,12,3,11,1,9"
15000,commdev-image-keyboard-response,312,604793,learnblock1,702.8000000715256,img/planet10_left.png,10,Community 1,NA,TRUE,f,f,NA,NA,NA,3,6,"2,13,5,10,7,14,6,15,4,8,12,3,11,1,9"
15000,commdev-image-keyboard-response,313,606044,learnblock1,777.8999999761581,img/planet14_right.png,14,Community 2,NA,TRUE,j,j,NA,NA,NA,3,6,"2,13,5,10,7,14,6,15,4,8,12,3,11,1,9"
15000,commdev-image-keyboard-response,314,607297,learnblock1,709.6000000238419,img/planet4_left.png,4,Community 2,NA,TRUE,f,f,NA,NA,NA,3,6,"2,13,5,10,7,14,6,15,4,8,12,3,11,1,9"
15000,commdev-image-keyboard-response,315,608554,learnblock1,845.6999999284744,img/planet8_left.png,8,Community 2,NA,TRUE,f,f,NA,NA,NA,3,6,"2,13,5,10,7,14,6,15,4,8,12,3,11,1,9"
15000,commdev-image-keyboard-response,316,609813,learnblock1,656.1000000238419,img/planet14_right.png,14,Community 2,NA,TRUE,j,j,NA,NA,NA,3,6,"2,13,5,10,7,14,6,15,4,8,12,3,11,1,9"
15000,commdev-image-keyboard-response,317,611074,learnblock1,697.8000000715256,img/planet8_left.png,8,Community 2,NA,TRUE,f,f,NA,NA,NA,3,6,"2,13,5,10,7,14,6,15,4,8,12,3,11,1,9"
15000,commdev-image-keyboard-response,318,612332,learnblock1,576.6999999284744,img/planet15_left.png,15,Community 2,NA,TRUE,f,f,NA,NA,NA,3,6,"2,13,5,10,7,14,6,15,4,8,12,3,11,1,9"
15000,commdev-image-keyboard-response,319,613589,learnblock1,776.3999999761581,img/planet4_left.png,4,Community 2,NA,TRUE,f,f,NA,NA,NA,3,6,"2,13,5,10,7,14,6,15,4,8,12,3,11,1,9"
15000,commdev-image-keyboard-response,320,614843,learnblock1,614.6000000238419,img/planet6_right.png,6,Community 2,NA,FALSE,f,j,NA,NA,NA,3,6,"2,13,5,10,7,14,6,15,4,8,12,3,11,1,9"
15000,commdev-image-keyboard-response,321,616097,learnblock1,577.7000000476837,img/planet8_right.png,8,Community 2,NA,FALSE,f,j,NA,NA,NA,3,6,"2,13,5,10,7,14,6,15,4,8,12,3,11,1,9"
15000,commdev-image-keyboard-response,322,617351,learnblock1,763.7000000476837,img/planet4_right.png,4,Community 2,NA,TRUE,j,j,NA,NA,NA,3,6,"2,13,5,10,7,14,6,15,4,8,12,3,11,1,9"
15000,commdev-image-keyboard-response,323,618610,learnblock1,614.3999999761581,img/planet8_right.png,8,Community 2,NA,TRUE,j,j,NA,NA,NA,3,6,"2,13,5,10,7,14,6,15,4,8,12,3,11,1,9"
15000,commdev-image-keyboard-response,324,619870,learnblock1,744,img/planet15_left.png,15,Community 2,NA,TRUE,f,f,NA,NA,NA,3,6,"2,13,5,10,7,14,6,15,4,8,12,3,11,1,9"
15000,commdev-image-keyboard-response,325,621127,learnblock1,801.9000000953674,img/planet8_left.png,8,Community 2,NA,TRUE,f,f,NA,NA,NA,3,6,"2,13,5,10,7,14,6,15,4,8,12,3,11,1,9"
15000,commdev-image-keyboard-response,326,622381,learnblock1,889.5999999046326,img/planet14_left.png,14,Community 2,NA,TRUE,f,f,NA,NA,NA,3,6,"2,13,5,10,7,14,6,15,4,8,12,3,11,1,9"
15000,commdev-image-keyboard-response,327,623640,learnblock1,705.2000000476837,img/planet6_right.png,6,Community 2,NA,TRUE,j,j,NA,NA,NA,3,6,"2,13,5,10,7,14,6,15,4,8,12,3,11,1,9"
15000,commdev-image-keyboard-response,328,624896,learnblock1,750.5999999046326,img/planet15_left.png,15,Community 2,NA,TRUE,f,f,NA,NA,NA,3,6,"2,13,5,10,7,14,6,15,4,8,12,3,11,1,9"
15000,commdev-image-keyboard-response,329,626156,learnblock1,588.6000000238419,img/planet8_right.png,8,Community 2,NA,TRUE,j,j,NA,NA,NA,3,6,"2,13,5,10,7,14,6,15,4,8,12,3,11,1,9"
15000,commdev-image-keyboard-response,330,627409,learnblock1,714.2000000476837,img/planet15_left.png,15,Community 2,NA,TRUE,f,f,NA,NA,NA,3,6,"2,13,5,10,7,14,6,15,4,8,12,3,11,1,9"
15000,commdev-image-keyboard-response,331,628661,learnblock1,602.1000000238419,img/planet4_right.png,4,Community 2,NA,TRUE,j,j,NA,NA,NA,3,6,"2,13,5,10,7,14,6,15,4,8,12,3,11,1,9"
15000,commdev-image-keyboard-response,332,629919,learnblock1,710.6000000238419,img/planet6_left.png,6,Community 2,NA,TRUE,f,f,NA,NA,NA,3,6,"2,13,5,10,7,14,6,15,4,8,12,3,11,1,9"
15000,commdev-image-keyboard-response,333,631171,learnblock1,837.2999999523163,img/planet4_left.png,4,Community 2,NA,TRUE,f,f,NA,NA,NA,3,6,"2,13,5,10,7,14,6,15,4,8,12,3,11,1,9"
15000,commdev-image-keyboard-response,334,632428,learnblock1,802.7999999523163,img/planet15_left.png,15,Community 2,NA,TRUE,f,f,NA,NA,NA,3,6,"2,13,5,10,7,14,6,15,4,8,12,3,11,1,9"
15000,commdev-image-keyboard-response,335,633685,learnblock1,648.8000000715256,img/planet8_right.png,8,Community 2,NA,TRUE,j,j,NA,NA,NA,3,6,"2,13,5,10,7,14,6,15,4,8,12,3,11,1,9"
15000,commdev-image-keyboard-response,336,634944,learnblock1,912.6999999284744,img/planet6_left.png,6,Community 2,NA,TRUE,f,f,NA,NA,NA,3,6,"2,13,5,10,7,14,6,15,4,8,12,3,11,1,9"
15000,commdev-image-keyboard-response,337,636201,learnblock1,685.2999999523163,img/planet8_right.png,8,Community 2,NA,TRUE,j,j,NA,NA,NA,3,6,"2,13,5,10,7,14,6,15,4,8,12,3,11,1,9"
15000,commdev-image-keyboard-response,338,637456,learnblock1,592.1000000238419,img/planet14_right.png,14,Community 2,NA,TRUE,j,j,NA,NA,NA,3,6,"2,13,5,10,7,14,6,15,4,8,12,3,11,1,9"
15000,commdev-image-keyboard-response,339,638719,learnblock1,528.6999999284744,img/planet4_right.png,4,Community 2,NA,TRUE,j,j,NA,NA,NA,3,6,"2,13,5,10,7,14,6,15,4,8,12,3,11,1,9"
15000,commdev-image-keyboard-response,340,639977,learnblock1,539.8000000715256,img/planet6_left.png,6,Community 2,NA,TRUE,f,f,NA,NA,NA,3,6,"2,13,5,10,7,14,6,15,4,8,12,3,11,1,9"
15000,commdev-image-keyboard-response,341,641229,learnblock1,572.5,img/planet15_left.png,15,Community 2,NA,TRUE,f,f,NA,NA,NA,3,6,"2,13,5,10,7,14,6,15,4,8,12,3,11,1,9"
15000,commdev-image-keyboard-response,342,642483,learnblock1,715.5999999046326,img/planet6_left.png,6,Community 2,NA,TRUE,f,f,NA,NA,NA,3,6,"2,13,5,10,7,14,6,15,4,8,12,3,11,1,9"
15000,commdev-image-keyboard-response,343,643736,learnblock1,960.1000000238419,img/planet8_right.png,8,Community 2,NA,TRUE,j,j,NA,NA,NA,3,6,"2,13,5,10,7,14,6,15,4,8,12,3,11,1,9"
15000,commdev-image-keyboard-response,344,644991,learnblock1,531.6000000238419,img/planet6_left.png,6,Community 2,NA,TRUE,f,f,NA,NA,NA,3,6,"2,13,5,10,7,14,6,15,4,8,12,3,11,1,9"
15000,commdev-image-keyboard-response,345,646247,learnblock1,557,img/planet4_right.png,4,Community 2,NA,TRUE,j,j,NA,NA,NA,3,6,"2,13,5,10,7,14,6,15,4,8,12,3,11,1,9"
15000,commdev-image-keyboard-response,346,647509,learnblock1,564.3999999761581,img/planet14_right.png,14,Community 2,NA,TRUE,j,j,NA,NA,NA,3,6,"2,13,5,10,7,14,6,15,4,8,12,3,11,1,9"
15000,commdev-image-keyboard-response,347,648764,learnblock1,601.1000000238419,img/planet4_left.png,4,Community 2,NA,TRUE,f,f,NA,NA,NA,3,6,"2,13,5,10,7,14,6,15,4,8,12,3,11,1,9"
15000,commdev-image-keyboard-response,351,682431,learnblock2,792,img/planet8_right.png,8,Community 2,NA,TRUE,j,j,NA,NA,NA,3,6,"2,13,5,10,7,14,6,15,4,8,12,3,11,1,9"
15000,commdev-image-keyboard-response,352,683682,learnblock2,591.3000000715256,img/planet15_left.png,15,Community 2,NA,TRUE,f,f,NA,NA,NA,3,6,"2,13,5,10,7,14,6,15,4,8,12,3,11,1,9"
15000,commdev-image-keyboard-response,353,684942,learnblock2,619.1999999284744,img/planet8_right.png,8,Community 2,NA,TRUE,j,j,NA,NA,NA,3,6,"2,13,5,10,7,14,6,15,4,8,12,3,11,1,9"
15000,commdev-image-keyboard-response,354,686210,learnblock2,710.1000000238419,img/planet14_left.png,14,Community 2,NA,TRUE,f,f,NA,NA,NA,3,6,"2,13,5,10,7,14,6,15,4,8,12,3,11,1,9"
15000,commdev-image-keyboard-response,355,687466,learnblock2,579.2000000476837,img/planet4_left.png,4,Community 2,NA,TRUE,f,f,NA,NA,NA,3,6,"2,13,5,10,7,14,6,15,4,8,12,3,11,1,9"
15000,commdev-image-keyboard-response,356,688729,learnblock2,588.6000000238419,img/planet15_left.png,15,Community 2,NA,TRUE,f,f,NA,NA,NA,3,6,"2,13,5,10,7,14,6,15,4,8,12,3,11,1,9"
15000,commdev-image-keyboard-response,357,689986,learnblock2,497.3000000715256,img/planet8_right.png,8,Community 2,NA,TRUE,j,j,NA,NA,NA,3,6,"2,13,5,10,7,14,6,15,4,8,12,3,11,1,9"
15000,commdev-image-keyboard-response,358,691242,learnblock2,549.6000000238419,img/planet6_right.png,6,Community 2,NA,TRUE,j,j,NA,NA,NA,3,6,"2,13,5,10,7,14,6,15,4,8,12,3,11,1,9"
15000,commdev-image-keyboard-response,359,692501,learnblock2,645.7999999523163,img/planet4_left.png,4,Community 2,NA,TRUE,f,f,NA,NA,NA,3,6,"2,13,5,10,7,14,6,15,4,8,12,3,11,1,9"
15000,commdev-image-keyboard-response,360,693762,learnblock2,552.8000000715256,img/planet15_left.png,15,Community 2,NA,TRUE,f,f,NA,NA,NA,3,6,"2,13,5,10,7,14,6,15,4,8,12,3,11,1,9"
15000,commdev-image-keyboard-response,361,695019,learnblock2,736,img/planet8_left.png,8,Community 2,NA,TRUE,f,f,NA,NA,NA,3,6,"2,13,5,10,7,14,6,15,4,8,12,3,11,1,9"
15000,commdev-image-keyboard-response,362,696287,learnblock2,619.1000000238419,img/planet4_right.png,4,Community 2,NA,TRUE,j,j,NA,NA,NA,3,6,"2,13,5,10,7,14,6,15,4,8,12,3,11,1,9"
15000,commdev-image-keyboard-response,363,697550,learnblock2,726,img/planet14_right.png,14,Community 2,NA,TRUE,j,j,NA,NA,NA,3,6,"2,13,5,10,7,14,6,15,4,8,12,3,11,1,9"
15000,commdev-image-keyboard-response,364,698808,learnblock2,729.7000000476837,img/planet6_left.png,6,Community 2,NA,TRUE,f,f,NA,NA,NA,3,6,"2,13,5,10,7,14,6,15,4,8,12,3,11,1,9"
15000,commdev-image-keyboard-response,365,700062,learnblock2,667.6999999284744,img/planet8_left.png,8,Community 2,NA,TRUE,f,f,NA,NA,NA,3,6,"2,13,5,10,7,14,6,15,4,8,12,3,11,1,9"
15000,commdev-image-keyboard-response,366,701321,learnblock2,520.8000000715256,img/planet4_left.png,4,Community 2,NA,TRUE,f,f,NA,NA,NA,3,6,"2,13,5,10,7,14,6,15,4,8,12,3,11,1,9"
15000,commdev-image-keyboard-response,367,702581,learnblock2,765.7999999523163,img/planet15_right.png,15,Community 2,NA,TRUE,j,j,NA,NA,NA,3,6,"2,13,5,10,7,14,6,15,4,8,12,3,11,1,9"
15000,commdev-image-keyboard-response,368,703837,learnblock2,954.7000000476837,img/planet3_right.png,3,Community 3,NA,TRUE,j,j,NA,NA,NA,3,6,"2,13,5,10,7,14,6,15,4,8,12,3,11,1,9"
15000,commdev-image-keyboard-response,369,705095,learnblock2,739.3999999761581,img/planet15_right.png,15,Community 2,NA,TRUE,j,j,NA,NA,NA,3,6,"2,13,5,10,7,14,6,15,4,8,12,3,11,1,9"
15000,commdev-image-keyboard-response,370,706354,learnblock2,608,img/planet6_right.png,6,Community 2,NA,TRUE,j,j,NA,NA,NA,3,6,"2,13,5,10,7,14,6,15,4,8,12,3,11,1,9"
15000,commdev-image-keyboard-response,371,707613,learnblock2,700,img/planet14_right.png,14,Community 2,NA,TRUE,j,j,NA,NA,NA,3,6,"2,13,5,10,7,14,6,15,4,8,12,3,11,1,9"
15000,commdev-image-keyboard-response,372,708876,learnblock2,508.7000000476837,img/planet6_right.png,6,Community 2,NA,TRUE,j,j,NA,NA,NA,3,6,"2,13,5,10,7,14,6,15,4,8,12,3,11,1,9"
15000,commdev-image-keyboard-response,373,710134,learnblock2,706.5,img/planet15_left.png,15,Community 2,NA,TRUE,f,f,NA,NA,NA,3,6,"2,13,5,10,7,14,6,15,4,8,12,3,11,1,9"
15000,commdev-image-keyboard-response,374,711385,learnblock2,624.0999999046326,img/planet4_left.png,4,Community 2,NA,TRUE,f,f,NA,NA,NA,3,6,"2,13,5,10,7,14,6,15,4,8,12,3,11,1,9"
15000,commdev-image-keyboard-response,375,712640,learnblock2,658.1999999284744,img/planet14_right.png,14,Community 2,NA,TRUE,j,j,NA,NA,NA,3,6,"2,13,5,10,7,14,6,15,4,8,12,3,11,1,9"
15000,commdev-image-keyboard-response,376,713908,learnblock2,667.6999999284744,img/planet4_right.png,4,Community 2,NA,TRUE,j,j,NA,NA,NA,3,6,"2,13,5,10,7,14,6,15,4,8,12,3,11,1,9"
15000,commdev-image-keyboard-response,377,715166,learnblock2,647,img/planet14_right.png,14,Community 2,NA,TRUE,j,j,NA,NA,NA,3,6,"2,13,5,10,7,14,6,15,4,8,12,3,11,1,9"
15000,commdev-image-keyboard-response,378,716433,learnblock2,724.1999999284744,img/planet6_right.png,6,Community 2,NA,TRUE,j,j,NA,NA,NA,3,6,"2,13,5,10,7,14,6,15,4,8,12,3,11,1,9"
15000,commdev-image-keyboard-response,379,717692,learnblock2,691.3999999761581,img/planet14_left.png,14,Community 2,NA,TRUE,f,f,NA,NA,NA,3,6,"2,13,5,10,7,14,6,15,4,8,12,3,11,1,9"
15000,commdev-image-keyboard-response,380,718946,learnblock2,617.8999999761581,img/planet4_right.png,4,Community 2,NA,TRUE,j,j,NA,NA,NA,3,6,"2,13,5,10,7,14,6,15,4,8,12,3,11,1,9"
15000,commdev-image-keyboard-response,381,720199,learnblock2,581.8999999761581,img/planet14_left.png,14,Community 2,NA,TRUE,f,f,NA,NA,NA,3,6,"2,13,5,10,7,14,6,15,4,8,12,3,11,1,9"
15000,commdev-image-keyboard-response,382,721456,learnblock2,596,img/planet8_right.png,8,Community 2,NA,TRUE,j,j,NA,NA,NA,3,6,"2,13,5,10,7,14,6,15,4,8,12,3,11,1,9"
15000,commdev-image-keyboard-response,383,722711,learnblock2,652.3000000715256,img/planet14_right.png,14,Community 2,NA,TRUE,j,j,NA,NA,NA,3,6,"2,13,5,10,7,14,6,15,4,8,12,3,11,1,9"
15000,commdev-image-keyboard-response,384,723971,learnblock2,525.2000000476837,img/planet8_left.png,8,Community 2,NA,TRUE,f,f,NA,NA,NA,3,6,"2,13,5,10,7,14,6,15,4,8,12,3,11,1,9"
15000,commdev-image-keyboard-response,385,725225,learnblock2,666.6000000238419,img/planet15_right.png,15,Community 2,NA,TRUE,j,j,NA,NA,NA,3,6,"2,13,5,10,7,14,6,15,4,8,12,3,11,1,9"
15000,commdev-image-keyboard-response,386,726494,learnblock2,756,img/planet3_right.png,3,Community 3,NA,TRUE,j,j,NA,NA,NA,3,6,"2,13,5,10,7,14,6,15,4,8,12,3,11,1,9"
15000,commdev-image-keyboard-response,387,727758,learnblock2,610.6000000238419,img/planet15_left.png,15,Community 2,NA,TRUE,f,f,NA,NA,NA,3,6,"2,13,5,10,7,14,6,15,4,8,12,3,11,1,9"
15000,commdev-image-keyboard-response,388,729020,learnblock2,633.5,img/planet4_right.png,4,Community 2,NA,TRUE,j,j,NA,NA,NA,3,6,"2,13,5,10,7,14,6,15,4,8,12,3,11,1,9"
15000,commdev-image-keyboard-response,389,730285,learnblock2,525.1000000238419,img/planet6_right.png,6,Community 2,NA,TRUE,j,j,NA,NA,NA,3,6,"2,13,5,10,7,14,6,15,4,8,12,3,11,1,9"
15000,commdev-image-keyboard-response,390,731543,learnblock2,615.6000000238419,img/planet14_left.png,14,Community 2,NA,TRUE,f,f,NA,NA,NA,3,6,"2,13,5,10,7,14,6,15,4,8,12,3,11,1,9"
15000,commdev-image-keyboard-response,391,732801,learnblock2,636,img/planet6_right.png,6,Community 2,NA,TRUE,j,j,NA,NA,NA,3,6,"2,13,5,10,7,14,6,15,4,8,12,3,11,1,9"
15000,commdev-image-keyboard-response,392,734064,learnblock2,711.8999999761581,img/planet8_right.png,8,Community 2,NA,TRUE,j,j,NA,NA,NA,3,6,"2,13,5,10,7,14,6,15,4,8,12,3,11,1,9"
15000,commdev-image-keyboard-response,393,735317,learnblock2,622.3000000715256,img/planet6_right.png,6,Community 2,NA,TRUE,j,j,NA,NA,NA,3,6,"2,13,5,10,7,14,6,15,4,8,12,3,11,1,9"
15000,commdev-image-keyboard-response,394,736570,learnblock2,630.2999999523163,img/planet15_left.png,15,Community 2,NA,TRUE,f,f,NA,NA,NA,3,6,"2,13,5,10,7,14,6,15,4,8,12,3,11,1,9"
15000,commdev-image-keyboard-response,395,737835,learnblock2,751.8999999761581,img/planet3_left.png,3,Community 3,NA,TRUE,f,f,NA,NA,NA,3,6,"2,13,5,10,7,14,6,15,4,8,12,3,11,1,9"
15000,commdev-image-keyboard-response,396,739096,learnblock2,613.2999999523163,img/planet15_right.png,15,Community 2,NA,TRUE,j,j,NA,NA,NA,3,6,"2,13,5,10,7,14,6,15,4,8,12,3,11,1,9"
15000,commdev-image-keyboard-response,397,740347,learnblock2,683,img/planet4_right.png,4,Community 2,NA,TRUE,j,j,NA,NA,NA,3,6,"2,13,5,10,7,14,6,15,4,8,12,3,11,1,9"
15000,commdev-image-keyboard-response,398,741612,learnblock2,748.8000000715256,img/planet8_right.png,8,Community 2,NA,TRUE,j,j,NA,NA,NA,3,6,"2,13,5,10,7,14,6,15,4,8,12,3,11,1,9"
15000,commdev-image-keyboard-response,399,742869,learnblock2,631.6000000238419,img/planet14_right.png,14,Community 2,NA,TRUE,j,j,NA,NA,NA,3,6,"2,13,5,10,7,14,6,15,4,8,12,3,11,1,9"
15000,commdev-image-keyboard-response,400,744123,learnblock2,567.3999999761581,img/planet4_left.png,4,Community 2,NA,TRUE,f,f,NA,NA,NA,3,6,"2,13,5,10,7,14,6,15,4,8,12,3,11,1,9"
15000,commdev-image-keyboard-response,401,745381,learnblock2,576.3000000715256,img/planet8_right.png,8,Community 2,NA,TRUE,j,j,NA,NA,NA,3,6,"2,13,5,10,7,14,6,15,4,8,12,3,11,1,9"
15000,commdev-image-keyboard-response,402,746638,learnblock2,581.5,img/planet14_left.png,14,Community 2,NA,TRUE,f,f,NA,NA,NA,3,6,"2,13,5,10,7,14,6,15,4,8,12,3,11,1,9"
15000,commdev-image-keyboard-response,403,747897,learnblock2,618.6000000238419,img/planet8_left.png,8,Community 2,NA,TRUE,f,f,NA,NA,NA,3,6,"2,13,5,10,7,14,6,15,4,8,12,3,11,1,9"
15000,commdev-image-keyboard-response,404,749162,learnblock2,629.2000000476837,img/planet14_left.png,14,Community 2,NA,TRUE,f,f,NA,NA,NA,3,6,"2,13,5,10,7,14,6,15,4,8,12,3,11,1,9"
15000,commdev-image-keyboard-response,405,750421,learnblock2,667.0999999046326,img/planet4_left.png,4,Community 2,NA,TRUE,f,f,NA,NA,NA,3,6,"2,13,5,10,7,14,6,15,4,8,12,3,11,1,9"
15000,commdev-image-keyboard-response,406,751680,learnblock2,684.1000000238419,img/planet14_right.png,14,Community 2,NA,TRUE,j,j,NA,NA,NA,3,6,"2,13,5,10,7,14,6,15,4,8,12,3,11,1,9"
15000,commdev-image-keyboard-response,407,752933,learnblock2,764.6999999284744,img/planet8_left.png,8,Community 2,NA,TRUE,f,f,NA,NA,NA,3,6,"2,13,5,10,7,14,6,15,4,8,12,3,11,1,9"
15000,commdev-image-keyboard-response,408,754185,learnblock2,843.8999999761581,img/planet4_left.png,4,Community 2,NA,TRUE,f,f,NA,NA,NA,3,6,"2,13,5,10,7,14,6,15,4,8,12,3,11,1,9"
15000,commdev-image-keyboard-response,409,755439,learnblock2,687,img/planet6_right.png,6,Community 2,NA,TRUE,j,j,NA,NA,NA,3,6,"2,13,5,10,7,14,6,15,4,8,12,3,11,1,9"
15000,commdev-image-keyboard-response,410,756695,learnblock2,711.6000000238419,img/planet4_left.png,4,Community 2,NA,TRUE,f,f,NA,NA,NA,3,6,"2,13,5,10,7,14,6,15,4,8,12,3,11,1,9"
15000,commdev-image-keyboard-response,411,757954,learnblock2,514.3000000715256,img/planet15_right.png,15,Community 2,NA,TRUE,j,j,NA,NA,NA,3,6,"2,13,5,10,7,14,6,15,4,8,12,3,11,1,9"
15000,commdev-image-keyboard-response,412,759219,learnblock2,707.3999999761581,img/planet3_right.png,3,Community 3,NA,TRUE,j,j,NA,NA,NA,3,6,"2,13,5,10,7,14,6,15,4,8,12,3,11,1,9"
15000,commdev-image-keyboard-response,413,760485,learnblock2,726.3999999761581,img/planet9_left.png,9,Community 3,NA,TRUE,f,f,NA,NA,NA,3,6,"2,13,5,10,7,14,6,15,4,8,12,3,11,1,9"
15000,commdev-image-keyboard-response,414,761740,learnblock2,829.2000000476837,img/planet3_right.png,3,Community 3,NA,TRUE,j,j,NA,NA,NA,3,6,"2,13,5,10,7,14,6,15,4,8,12,3,11,1,9"
15000,commdev-image-keyboard-response,415,762994,learnblock2,722.2999999523163,img/planet9_left.png,9,Community 3,NA,TRUE,f,f,NA,NA,NA,3,6,"2,13,5,10,7,14,6,15,4,8,12,3,11,1,9"
15000,commdev-image-keyboard-response,416,764260,learnblock2,741.2000000476837,img/planet11_left.png,11,Community 3,NA,TRUE,f,f,NA,NA,NA,3,6,"2,13,5,10,7,14,6,15,4,8,12,3,11,1,9"
15000,commdev-image-keyboard-response,417,765517,learnblock2,786.2999999523163,img/planet3_right.png,3,Community 3,NA,TRUE,j,j,NA,NA,NA,3,6,"2,13,5,10,7,14,6,15,4,8,12,3,11,1,9"
15000,commdev-image-keyboard-response,418,766777,learnblock2,911.8000000715256,img/planet9_left.png,9,Community 3,NA,TRUE,f,f,NA,NA,NA,3,6,"2,13,5,10,7,14,6,15,4,8,12,3,11,1,9"
15000,commdev-image-keyboard-response,419,768034,learnblock2,752.3999999761581,img/planet3_left.png,3,Community 3,NA,TRUE,f,f,NA,NA,NA,3,6,"2,13,5,10,7,14,6,15,4,8,12,3,11,1,9"
15000,commdev-image-keyboard-response,420,769294,learnblock2,734.0999999046326,img/planet9_right.png,9,Community 3,NA,TRUE,j,j,NA,NA,NA,3,6,"2,13,5,10,7,14,6,15,4,8,12,3,11,1,9"
15000,commdev-image-keyboard-response,421,770556,learnblock2,673.3000000715256,img/planet11_left.png,11,Community 3,NA,TRUE,f,f,NA,NA,NA,3,6,"2,13,5,10,7,14,6,15,4,8,12,3,11,1,9"
15000,commdev-image-keyboard-response,422,771813,learnblock2,673.7000000476837,img/planet9_left.png,9,Community 3,NA,TRUE,f,f,NA,NA,NA,3,6,"2,13,5,10,7,14,6,15,4,8,12,3,11,1,9"
15000,commdev-image-keyboard-response,423,773076,learnblock2,700.2999999523163,img/planet3_right.png,3,Community 3,NA,TRUE,j,j,NA,NA,NA,3,6,"2,13,5,10,7,14,6,15,4,8,12,3,11,1,9"
15000,commdev-image-keyboard-response,424,774331,learnblock2,716.1999999284744,img/planet11_right.png,11,Community 3,NA,TRUE,j,j,NA,NA,NA,3,6,"2,13,5,10,7,14,6,15,4,8,12,3,11,1,9"
15000,commdev-image-keyboard-response,425,775592,learnblock2,1005.7000000476837,img/planet12_right.png,12,Community 3,NA,TRUE,j,j,NA,NA,NA,3,6,"2,13,5,10,7,14,6,15,4,8,12,3,11,1,9"
15000,commdev-image-keyboard-response,426,776850,learnblock2,911,img/planet9_left.png,9,Community 3,NA,TRUE,f,f,NA,NA,NA,3,6,"2,13,5,10,7,14,6,15,4,8,12,3,11,1,9"
15000,commdev-image-keyboard-response,427,778108,learnblock2,729.7000000476837,img/planet1_right.png,1,Community 3,NA,TRUE,j,j,NA,NA,NA,3,6,"2,13,5,10,7,14,6,15,4,8,12,3,11,1,9"
15000,commdev-image-keyboard-response,428,779367,learnblock2,502.39999997615814,img/planet11_left.png,11,Community 3,NA,TRUE,f,f,NA,NA,NA,3,6,"2,13,5,10,7,14,6,15,4,8,12,3,11,1,9"
15000,commdev-image-keyboard-response,429,780628,learnblock2,814.3999999761581,img/planet3_left.png,3,Community 3,NA,TRUE,f,f,NA,NA,NA,3,6,"2,13,5,10,7,14,6,15,4,8,12,3,11,1,9"
15000,commdev-image-keyboard-response,430,781881,learnblock2,610.2000000476837,img/planet15_right.png,15,Community 2,NA,TRUE,j,j,NA,NA,NA,3,6,"2,13,5,10,7,14,6,15,4,8,12,3,11,1,9"
15000,commdev-image-keyboard-response,431,783136,learnblock2,663.2999999523163,img/planet8_right.png,8,Community 2,NA,TRUE,j,j,NA,NA,NA,3,6,"2,13,5,10,7,14,6,15,4,8,12,3,11,1,9"
15000,commdev-image-keyboard-response,432,784394,learnblock2,636,img/planet6_left.png,6,Community 2,NA,TRUE,f,f,NA,NA,NA,3,6,"2,13,5,10,7,14,6,15,4,8,12,3,11,1,9"
15000,commdev-image-keyboard-response,433,785653,learnblock2,618.5,img/planet14_right.png,14,Community 2,NA,TRUE,j,j,NA,NA,NA,3,6,"2,13,5,10,7,14,6,15,4,8,12,3,11,1,9"
15000,commdev-image-keyboard-response,434,786913,learnblock2,532.5,img/planet6_right.png,6,Community 2,NA,TRUE,j,j,NA,NA,NA,3,6,"2,13,5,10,7,14,6,15,4,8,12,3,11,1,9"
15000,commdev-image-keyboard-response,435,788169,learnblock2,547.8000000715256,img/planet14_left.png,14,Community 2,NA,TRUE,f,f,NA,NA,NA,3,6,"2,13,5,10,7,14,6,15,4,8,12,3,11,1,9"
15000,commdev-image-keyboard-response,436,789428,learnblock2,768.9000000953674,img/planet8_left.png,8,Community 2,NA,TRUE,f,f,NA,NA,NA,3,6,"2,13,5,10,7,14,6,15,4,8,12,3,11,1,9"
15000,commdev-image-keyboard-response,437,790689,learnblock2,632.5,img/planet15_left.png,15,Community 2,NA,TRUE,f,f,NA,NA,NA,3,6,"2,13,5,10,7,14,6,15,4,8,12,3,11,1,9"
15000,commdev-image-keyboard-response,438,791951,learnblock2,753.3999999761581,img/planet8_left.png,8,Community 2,NA,TRUE,f,f,NA,NA,NA,3,6,"2,13,5,10,7,14,6,15,4,8,12,3,11,1,9"
15000,commdev-image-keyboard-response,439,793211,learnblock2,636.5,img/planet15_right.png,15,Community 2,NA,TRUE,j,j,NA,NA,NA,3,6,"2,13,5,10,7,14,6,15,4,8,12,3,11,1,9"
15000,commdev-image-keyboard-response,440,794470,learnblock2,671.1000000238419,img/planet4_right.png,4,Community 2,NA,TRUE,j,j,NA,NA,NA,3,6,"2,13,5,10,7,14,6,15,4,8,12,3,11,1,9"
15000,commdev-image-keyboard-response,441,795728,learnblock2,800.1000000238419,img/planet8_right.png,8,Community 2,NA,TRUE,j,j,NA,NA,NA,3,6,"2,13,5,10,7,14,6,15,4,8,12,3,11,1,9"
15000,commdev-image-keyboard-response,442,796987,learnblock2,702.1000000238419,img/planet15_right.png,15,Community 2,NA,TRUE,j,j,NA,NA,NA,3,6,"2,13,5,10,7,14,6,15,4,8,12,3,11,1,9"
15000,commdev-image-keyboard-response,443,798244,learnblock2,703.3999999761581,img/planet4_right.png,4,Community 2,NA,TRUE,j,j,NA,NA,NA,3,6,"2,13,5,10,7,14,6,15,4,8,12,3,11,1,9"
15000,commdev-image-keyboard-response,444,799503,learnblock2,766.7000000476837,img/planet8_right.png,8,Community 2,NA,TRUE,j,j,NA,NA,NA,3,6,"2,13,5,10,7,14,6,15,4,8,12,3,11,1,9"
15000,commdev-image-keyboard-response,445,800769,learnblock2,802.5,img/planet4_right.png,4,Community 2,NA,TRUE,j,j,NA,NA,NA,3,6,"2,13,5,10,7,14,6,15,4,8,12,3,11,1,9"
15000,commdev-image-keyboard-response,446,802023,learnblock2,640,img/planet14_right.png,14,Community 2,NA,TRUE,j,j,NA,NA,NA,3,6,"2,13,5,10,7,14,6,15,4,8,12,3,11,1,9"
15000,commdev-image-keyboard-response,447,803278,learnblock2,572,img/planet10_left.png,10,Community 1,NA,TRUE,f,f,NA,NA,NA,3,6,"2,13,5,10,7,14,6,15,4,8,12,3,11,1,9"
15000,commdev-image-keyboard-response,448,804536,learnblock2,644.7999999523163,img/planet13_left.png,13,Community 1,NA,TRUE,f,f,NA,NA,NA,3,6,"2,13,5,10,7,14,6,15,4,8,12,3,11,1,9"
15000,commdev-image-keyboard-response,449,805797,learnblock2,539.7000000476837,img/planet2_left.png,2,Community 1,NA,TRUE,f,f,NA,NA,NA,3,6,"2,13,5,10,7,14,6,15,4,8,12,3,11,1,9"
15000,commdev-image-keyboard-response,450,807052,learnblock2,521.2999999523163,img/planet13_left.png,13,Community 1,NA,TRUE,f,f,NA,NA,NA,3,6,"2,13,5,10,7,14,6,15,4,8,12,3,11,1,9"
15000,commdev-image-keyboard-response,451,808311,learnblock2,646.5,img/planet10_right.png,10,Community 1,NA,TRUE,j,j,NA,NA,NA,3,6,"2,13,5,10,7,14,6,15,4,8,12,3,11,1,9"
15000,commdev-image-keyboard-response,452,809567,learnblock2,563.6999999284744,img/planet13_right.png,13,Community 1,NA,TRUE,j,j,NA,NA,NA,3,6,"2,13,5,10,7,14,6,15,4,8,12,3,11,1,9"
15000,commdev-image-keyboard-response,453,810835,learnblock2,626.2000000476837,img/planet2_left.png,2,Community 1,NA,TRUE,f,f,NA,NA,NA,3,6,"2,13,5,10,7,14,6,15,4,8,12,3,11,1,9"
15000,commdev-image-keyboard-response,454,812094,learnblock2,585.6000000238419,img/planet13_left.png,13,Community 1,NA,TRUE,f,f,NA,NA,NA,3,6,"2,13,5,10,7,14,6,15,4,8,12,3,11,1,9"
15000,commdev-image-keyboard-response,455,813351,learnblock2,650.2000000476837,img/planet10_left.png,10,Community 1,NA,TRUE,f,f,NA,NA,NA,3,6,"2,13,5,10,7,14,6,15,4,8,12,3,11,1,9"
15000,commdev-image-keyboard-response,456,814610,learnblock2,589.6000000238419,img/planet14_right.png,14,Community 2,NA,FALSE,f,j,NA,NA,NA,3,6,"2,13,5,10,7,14,6,15,4,8,12,3,11,1,9"
15000,commdev-image-keyboard-response,457,815864,learnblock2,753.0999999046326,img/planet10_left.png,10,Community 1,NA,TRUE,f,f,NA,NA,NA,3,6,"2,13,5,10,7,14,6,15,4,8,12,3,11,1,9"
15000,commdev-image-keyboard-response,458,817120,learnblock2,733.2000000476837,img/planet14_right.png,14,Community 2,NA,TRUE,j,j,NA,NA,NA,3,6,"2,13,5,10,7,14,6,15,4,8,12,3,11,1,9"
15000,commdev-image-keyboard-response,459,818378,learnblock2,582.2999999523163,img/planet8_left.png,8,Community 2,NA,TRUE,f,f,NA,NA,NA,3,6,"2,13,5,10,7,14,6,15,4,8,12,3,11,1,9"
15000,commdev-image-keyboard-response,460,819633,learnblock2,567.8999999761581,img/planet6_left.png,6,Community 2,NA,TRUE,f,f,NA,NA,NA,3,6,"2,13,5,10,7,14,6,15,4,8,12,3,11,1,9"
15000,commdev-image-keyboard-response,461,820891,learnblock2,859.3999999761581,img/planet8_right.png,8,Community 2,NA,TRUE,j,j,NA,NA,NA,3,6,"2,13,5,10,7,14,6,15,4,8,12,3,11,1,9"
15000,commdev-image-keyboard-response,462,822145,learnblock2,669.6999999284744,img/planet6_right.png,6,Community 2,NA,TRUE,j,j,NA,NA,NA,3,6,"2,13,5,10,7,14,6,15,4,8,12,3,11,1,9"
15000,commdev-image-keyboard-response,463,823412,learnblock2,813.5,img/planet4_right.png,4,Community 2,NA,TRUE,j,j,NA,NA,NA,3,6,"2,13,5,10,7,14,6,15,4,8,12,3,11,1,9"
15000,commdev-image-keyboard-response,464,824667,learnblock2,635.2000000476837,img/planet6_right.png,6,Community 2,NA,TRUE,j,j,NA,NA,NA,3,6,"2,13,5,10,7,14,6,15,4,8,12,3,11,1,9"
15000,commdev-image-keyboard-response,465,825925,learnblock2,696.2000000476837,img/planet8_right.png,8,Community 2,NA,TRUE,j,j,NA,NA,NA,3,6,"2,13,5,10,7,14,6,15,4,8,12,3,11,1,9"
15000,commdev-image-keyboard-response,466,827180,learnblock2,622.3000000715256,img/planet4_left.png,4,Community 2,NA,TRUE,f,f,NA,NA,NA,3,6,"2,13,5,10,7,14,6,15,4,8,12,3,11,1,9"
15000,commdev-image-keyboard-response,467,828439,learnblock2,1046.5,img/planet15_left.png,15,Community 2,NA,TRUE,f,f,NA,NA,NA,3,6,"2,13,5,10,7,14,6,15,4,8,12,3,11,1,9"
15000,commdev-image-keyboard-response,468,829692,learnblock2,543.2999999523163,img/planet6_right.png,6,Community 2,NA,TRUE,j,j,NA,NA,NA,3,6,"2,13,5,10,7,14,6,15,4,8,12,3,11,1,9"
15000,commdev-image-keyboard-response,469,830950,learnblock2,716.2000000476837,img/planet15_right.png,15,Community 2,NA,TRUE,j,j,NA,NA,NA,3,6,"2,13,5,10,7,14,6,15,4,8,12,3,11,1,9"
15000,commdev-image-keyboard-response,470,832221,learnblock2,733,img/planet8_right.png,8,Community 2,NA,TRUE,j,j,NA,NA,NA,3,6,"2,13,5,10,7,14,6,15,4,8,12,3,11,1,9"
15000,commdev-image-keyboard-response,471,833480,learnblock2,583.7000000476837,img/planet4_right.png,4,Community 2,NA,TRUE,j,j,NA,NA,NA,3,6,"2,13,5,10,7,14,6,15,4,8,12,3,11,1,9"
15000,commdev-image-keyboard-response,472,834737,learnblock2,469.39999997615814,img/planet15_right.png,15,Community 2,NA,TRUE,j,j,NA,NA,NA,3,6,"2,13,5,10,7,14,6,15,4,8,12,3,11,1,9"
15000,commdev-image-keyboard-response,473,835995,learnblock2,465.3000000715256,img/planet8_left.png,8,Community 2,NA,TRUE,f,f,NA,NA,NA,3,6,"2,13,5,10,7,14,6,15,4,8,12,3,11,1,9"
15000,commdev-image-keyboard-response,474,837254,learnblock2,498.1999999284744,img/planet4_left.png,4,Community 2,NA,TRUE,f,f,NA,NA,NA,3,6,"2,13,5,10,7,14,6,15,4,8,12,3,11,1,9"
15000,commdev-image-keyboard-response,475,838512,learnblock2,669.3999999761581,img/planet15_right.png,15,Community 2,NA,FALSE,f,j,NA,NA,NA,3,6,"2,13,5,10,7,14,6,15,4,8,12,3,11,1,9"
15000,commdev-image-keyboard-response,476,839768,learnblock2,717.3000000715256,img/planet4_left.png,4,Community 2,NA,TRUE,f,f,NA,NA,NA,3,6,"2,13,5,10,7,14,6,15,4,8,12,3,11,1,9"
15000,commdev-image-keyboard-response,477,841023,learnblock2,726.8999999761581,img/planet8_left.png,8,Community 2,NA,TRUE,f,f,NA,NA,NA,3,6,"2,13,5,10,7,14,6,15,4,8,12,3,11,1,9"
15000,commdev-image-keyboard-response,478,842278,learnblock2,915.2999999523163,img/planet15_left.png,15,Community 2,NA,TRUE,f,f,NA,NA,NA,3,6,"2,13,5,10,7,14,6,15,4,8,12,3,11,1,9"
15000,commdev-image-keyboard-response,479,843531,learnblock2,689.7000000476837,img/planet8_left.png,8,Community 2,NA,TRUE,f,f,NA,NA,NA,3,6,"2,13,5,10,7,14,6,15,4,8,12,3,11,1,9"
15000,commdev-image-keyboard-response,480,844787,learnblock2,577.3999999761581,img/planet15_left.png,15,Community 2,NA,TRUE,f,f,NA,NA,NA,3,6,"2,13,5,10,7,14,6,15,4,8,12,3,11,1,9"
15000,commdev-image-keyboard-response,481,846040,learnblock2,628,img/planet8_right.png,8,Community 2,NA,TRUE,j,j,NA,NA,NA,3,6,"2,13,5,10,7,14,6,15,4,8,12,3,11,1,9"
15000,commdev-image-keyboard-response,482,847295,learnblock2,701.1999999284744,img/planet6_right.png,6,Community 2,NA,TRUE,j,j,NA,NA,NA,3,6,"2,13,5,10,7,14,6,15,4,8,12,3,11,1,9"
15000,commdev-image-keyboard-response,483,848549,learnblock2,734.6000000238419,img/planet15_right.png,15,Community 2,NA,TRUE,j,j,NA,NA,NA,3,6,"2,13,5,10,7,14,6,15,4,8,12,3,11,1,9"
15000,commdev-image-keyboard-response,484,849813,learnblock2,713.8999999761581,img/planet3_left.png,3,Community 3,NA,TRUE,f,f,NA,NA,NA,3,6,"2,13,5,10,7,14,6,15,4,8,12,3,11,1,9"
15000,commdev-image-keyboard-response,485,851073,learnblock2,710.3999999761581,img/planet1_left.png,1,Community 3,NA,TRUE,f,f,NA,NA,NA,3,6,"2,13,5,10,7,14,6,15,4,8,12,3,11,1,9"
15000,commdev-image-keyboard-response,486,852329,learnblock2,840.7999999523163,img/planet12_left.png,12,Community 3,NA,TRUE,f,f,NA,NA,NA,3,6,"2,13,5,10,7,14,6,15,4,8,12,3,11,1,9"
15000,commdev-image-keyboard-response,487,853584,learnblock2,970.8999999761581,img/planet11_right.png,11,Community 3,NA,FALSE,f,j,NA,NA,NA,3,6,"2,13,5,10,7,14,6,15,4,8,12,3,11,1,9"
15000,commdev-image-keyboard-response,488,854837,learnblock2,77.19999992847443,img/planet1_left.png,1,Community 3,NA,FALSE,j,f,NA,NA,NA,3,6,"2,13,5,10,7,14,6,15,4,8,12,3,11,1,9"
15000,commdev-image-keyboard-response,489,856092,learnblock2,867.7000000476837,img/planet12_left.png,12,Community 3,NA,TRUE,f,f,NA,NA,NA,3,6,"2,13,5,10,7,14,6,15,4,8,12,3,11,1,9"
15000,commdev-image-keyboard-response,490,857356,learnblock2,718.1000000238419,img/planet11_right.png,11,Community 3,NA,TRUE,j,j,NA,NA,NA,3,6,"2,13,5,10,7,14,6,15,4,8,12,3,11,1,9"
15000,commdev-image-keyboard-response,491,858621,learnblock2,750.2999999523163,img/planet12_right.png,12,Community 3,NA,TRUE,j,j,NA,NA,NA,3,6,"2,13,5,10,7,14,6,15,4,8,12,3,11,1,9"
15000,commdev-image-keyboard-response,492,859875,learnblock2,859.1999999284744,img/planet9_left.png,9,Community 3,NA,TRUE,f,f,NA,NA,NA,3,6,"2,13,5,10,7,14,6,15,4,8,12,3,11,1,9"
15000,commdev-image-keyboard-response,493,861129,learnblock2,1086.5,img/planet1_left.png,1,Community 3,NA,TRUE,f,f,NA,NA,NA,3,6,"2,13,5,10,7,14,6,15,4,8,12,3,11,1,9"
15000,commdev-image-keyboard-response,494,862385,learnblock2,647,img/planet3_right.png,3,Community 3,NA,TRUE,j,j,NA,NA,NA,3,6,"2,13,5,10,7,14,6,15,4,8,12,3,11,1,9"
15000,commdev-image-keyboard-response,495,863643,learnblock2,790.7999999523163,img/planet11_left.png,11,Community 3,NA,TRUE,f,f,NA,NA,NA,3,6,"2,13,5,10,7,14,6,15,4,8,12,3,11,1,9"
15000,commdev-image-keyboard-response,496,864909,learnblock2,666.3000000715256,img/planet9_right.png,9,Community 3,NA,TRUE,j,j,NA,NA,NA,3,6,"2,13,5,10,7,14,6,15,4,8,12,3,11,1,9"
15000,commdev-image-keyboard-response,497,866168,learnblock2,501.8000000715256,img/planet1_right.png,1,Community 3,NA,TRUE,j,j,NA,NA,NA,3,6,"2,13,5,10,7,14,6,15,4,8,12,3,11,1,9"
15000,commdev-image-keyboard-response,498,867421,learnblock2,561,img/planet11_right.png,11,Community 3,NA,TRUE,j,j,NA,NA,NA,3,6,"2,13,5,10,7,14,6,15,4,8,12,3,11,1,9"
15000,commdev-image-keyboard-response,499,868677,learnblock2,580.3999999761581,img/planet9_left.png,9,Community 3,NA,TRUE,f,f,NA,NA,NA,3,6,"2,13,5,10,7,14,6,15,4,8,12,3,11,1,9"
15000,commdev-image-keyboard-response,500,869932,learnblock2,806.8999999761581,img/planet3_right.png,3,Community 3,NA,TRUE,j,j,NA,NA,NA,3,6,"2,13,5,10,7,14,6,15,4,8,12,3,11,1,9"
15000,commdev-image-keyboard-response,501,871198,learnblock2,689.1000000238419,img/planet9_right.png,9,Community 3,NA,TRUE,j,j,NA,NA,NA,3,6,"2,13,5,10,7,14,6,15,4,8,12,3,11,1,9"
15000,commdev-image-keyboard-response,502,872456,learnblock2,782,img/planet11_left.png,11,Community 3,NA,TRUE,f,f,NA,NA,NA,3,6,"2,13,5,10,7,14,6,15,4,8,12,3,11,1,9"
15000,commdev-image-keyboard-response,503,873714,learnblock2,571.5999999046326,img/planet9_right.png,9,Community 3,NA,TRUE,j,j,NA,NA,NA,3,6,"2,13,5,10,7,14,6,15,4,8,12,3,11,1,9"
15000,commdev-image-keyboard-response,504,874971,learnblock2,664.5999999046326,img/planet12_right.png,12,Community 3,NA,TRUE,j,j,NA,NA,NA,3,6,"2,13,5,10,7,14,6,15,4,8,12,3,11,1,9"
15000,commdev-image-keyboard-response,505,876233,learnblock2,820.2000000476837,img/planet7_left.png,7,Community 1,NA,TRUE,f,f,NA,NA,NA,3,6,"2,13,5,10,7,14,6,15,4,8,12,3,11,1,9"
15000,commdev-image-keyboard-response,506,877493,learnblock2,747.1000000238419,img/planet5_right.png,5,Community 1,NA,TRUE,j,j,NA,NA,NA,3,6,"2,13,5,10,7,14,6,15,4,8,12,3,11,1,9"
15000,commdev-image-keyboard-response,507,878754,learnblock2,659.3999999761581,img/planet7_left.png,7,Community 1,NA,TRUE,f,f,NA,NA,NA,3,6,"2,13,5,10,7,14,6,15,4,8,12,3,11,1,9"
15000,commdev-image-keyboard-response,508,880006,learnblock2,624.5,img/planet13_left.png,13,Community 1,NA,TRUE,f,f,NA,NA,NA,3,6,"2,13,5,10,7,14,6,15,4,8,12,3,11,1,9"
15000,commdev-image-keyboard-response,509,881271,learnblock2,579.1000000238419,img/planet10_left.png,10,Community 1,NA,TRUE,f,f,NA,NA,NA,3,6,"2,13,5,10,7,14,6,15,4,8,12,3,11,1,9"
15000,commdev-image-keyboard-response,510,882525,learnblock2,542.7000000476837,img/planet2_left.png,2,Community 1,NA,TRUE,f,f,NA,NA,NA,3,6,"2,13,5,10,7,14,6,15,4,8,12,3,11,1,9"
15000,commdev-image-keyboard-response,511,883789,learnblock2,613.3000000715256,img/planet13_left.png,13,Community 1,NA,TRUE,f,f,NA,NA,NA,3,6,"2,13,5,10,7,14,6,15,4,8,12,3,11,1,9"
15000,commdev-image-keyboard-response,512,885058,learnblock2,704.1000000238419,img/planet2_right.png,2,Community 1,NA,TRUE,j,j,NA,NA,NA,3,6,"2,13,5,10,7,14,6,15,4,8,12,3,11,1,9"
15000,commdev-image-keyboard-response,513,886319,learnblock2,494.89999997615814,img/planet13_left.png,13,Community 1,NA,TRUE,f,f,NA,NA,NA,3,6,"2,13,5,10,7,14,6,15,4,8,12,3,11,1,9"
15000,commdev-image-keyboard-response,514,887574,learnblock2,441.7999999523163,img/planet10_left.png,10,Community 1,NA,TRUE,f,f,NA,NA,NA,3,6,"2,13,5,10,7,14,6,15,4,8,12,3,11,1,9"
15000,commdev-image-keyboard-response,515,888836,learnblock2,500.09999990463257,img/planet13_right.png,13,Community 1,NA,FALSE,f,j,NA,NA,NA,3,6,"2,13,5,10,7,14,6,15,4,8,12,3,11,1,9"
15000,commdev-image-keyboard-response,516,890096,learnblock2,875.7999999523163,img/planet7_right.png,7,Community 1,NA,TRUE,j,j,NA,NA,NA,3,6,"2,13,5,10,7,14,6,15,4,8,12,3,11,1,9"
15000,commdev-image-keyboard-response,517,891348,learnblock2,783,img/planet13_left.png,13,Community 1,NA,TRUE,f,f,NA,NA,NA,3,6,"2,13,5,10,7,14,6,15,4,8,12,3,11,1,9"
15000,commdev-image-keyboard-response,518,892607,learnblock2,567.8000000715256,img/planet10_right.png,10,Community 1,NA,TRUE,j,j,NA,NA,NA,3,6,"2,13,5,10,7,14,6,15,4,8,12,3,11,1,9"
15000,commdev-image-keyboard-response,519,893872,learnblock2,1061.3999999761581,img/planet5_left.png,5,Community 1,NA,TRUE,f,f,NA,NA,NA,3,6,"2,13,5,10,7,14,6,15,4,8,12,3,11,1,9"
15000,commdev-image-keyboard-response,520,895132,learnblock2,602,img/planet10_right.png,10,Community 1,NA,TRUE,j,j,NA,NA,NA,3,6,"2,13,5,10,7,14,6,15,4,8,12,3,11,1,9"
15000,commdev-image-keyboard-response,521,896388,learnblock2,826.7000000476837,img/planet14_left.png,14,Community 2,NA,TRUE,f,f,NA,NA,NA,3,6,"2,13,5,10,7,14,6,15,4,8,12,3,11,1,9"
15000,commdev-image-keyboard-response,522,897642,learnblock2,677.7999999523163,img/planet8_left.png,8,Community 2,NA,TRUE,f,f,NA,NA,NA,3,6,"2,13,5,10,7,14,6,15,4,8,12,3,11,1,9"
15000,commdev-image-keyboard-response,523,898903,learnblock2,730.6000000238419,img/planet6_right.png,6,Community 2,NA,TRUE,j,j,NA,NA,NA,3,6,"2,13,5,10,7,14,6,15,4,8,12,3,11,1,9"
15000,commdev-image-keyboard-response,524,900160,learnblock2,640.2999999523163,img/planet14_left.png,14,Community 2,NA,TRUE,f,f,NA,NA,NA,3,6,"2,13,5,10,7,14,6,15,4,8,12,3,11,1,9"
15000,commdev-image-keyboard-response,525,901413,learnblock2,734.2000000476837,img/planet4_left.png,4,Community 2,NA,TRUE,f,f,NA,NA,NA,3,6,"2,13,5,10,7,14,6,15,4,8,12,3,11,1,9"
15000,commdev-image-keyboard-response,526,902670,learnblock2,735.5999999046326,img/planet6_left.png,6,Community 2,NA,TRUE,f,f,NA,NA,NA,3,6,"2,13,5,10,7,14,6,15,4,8,12,3,11,1,9"
15000,commdev-image-keyboard-response,527,903929,learnblock2,768.2000000476837,img/planet4_left.png,4,Community 2,NA,TRUE,f,f,NA,NA,NA,3,6,"2,13,5,10,7,14,6,15,4,8,12,3,11,1,9"
15000,commdev-image-keyboard-response,528,905182,learnblock2,683.2999999523163,img/planet6_right.png,6,Community 2,NA,TRUE,j,j,NA,NA,NA,3,6,"2,13,5,10,7,14,6,15,4,8,12,3,11,1,9"
15000,commdev-image-keyboard-response,529,906439,learnblock2,670.2000000476837,img/planet15_right.png,15,Community 2,NA,TRUE,j,j,NA,NA,NA,3,6,"2,13,5,10,7,14,6,15,4,8,12,3,11,1,9"
15000,commdev-image-keyboard-response,530,907691,learnblock2,739.3000000715256,img/planet6_right.png,6,Community 2,NA,TRUE,j,j,NA,NA,NA,3,6,"2,13,5,10,7,14,6,15,4,8,12,3,11,1,9"
15000,commdev-image-keyboard-response,531,908946,learnblock2,632.7000000476837,img/planet4_right.png,4,Community 2,NA,TRUE,j,j,NA,NA,NA,3,6,"2,13,5,10,7,14,6,15,4,8,12,3,11,1,9"
15000,commdev-image-keyboard-response,532,910204,learnblock2,775.3999999761581,img/planet8_right.png,8,Community 2,NA,TRUE,j,j,NA,NA,NA,3,6,"2,13,5,10,7,14,6,15,4,8,12,3,11,1,9"
15000,commdev-image-keyboard-response,533,911463,learnblock2,762.5,img/planet4_right.png,4,Community 2,NA,TRUE,j,j,NA,NA,NA,3,6,"2,13,5,10,7,14,6,15,4,8,12,3,11,1,9"
15000,commdev-image-keyboard-response,534,912727,learnblock2,590.1999999284744,img/planet15_left.png,15,Community 2,NA,TRUE,f,f,NA,NA,NA,3,6,"2,13,5,10,7,14,6,15,4,8,12,3,11,1,9"
15000,commdev-image-keyboard-response,535,913984,learnblock2,622.7999999523163,img/planet3_right.png,3,Community 3,NA,TRUE,j,j,NA,NA,NA,3,6,"2,13,5,10,7,14,6,15,4,8,12,3,11,1,9"
15000,commdev-image-keyboard-response,536,915244,learnblock2,665.0999999046326,img/planet11_left.png,11,Community 3,NA,TRUE,f,f,NA,NA,NA,3,6,"2,13,5,10,7,14,6,15,4,8,12,3,11,1,9"
15000,commdev-image-keyboard-response,537,916502,learnblock2,612,img/planet1_right.png,1,Community 3,NA,TRUE,j,j,NA,NA,NA,3,6,"2,13,5,10,7,14,6,15,4,8,12,3,11,1,9"
15000,commdev-image-keyboard-response,538,917760,learnblock2,640.2999999523163,img/planet9_left.png,9,Community 3,NA,TRUE,f,f,NA,NA,NA,3,6,"2,13,5,10,7,14,6,15,4,8,12,3,11,1,9"
15000,commdev-image-keyboard-response,539,919017,learnblock2,711.8999999761581,img/planet1_left.png,1,Community 3,NA,TRUE,f,f,NA,NA,NA,3,6,"2,13,5,10,7,14,6,15,4,8,12,3,11,1,9"
15000,commdev-image-keyboard-response,540,920283,learnblock2,653.7999999523163,img/planet9_right.png,9,Community 3,NA,TRUE,j,j,NA,NA,NA,3,6,"2,13,5,10,7,14,6,15,4,8,12,3,11,1,9"
15000,commdev-image-keyboard-response,541,921544,learnblock2,673.7999999523163,img/planet3_left.png,3,Community 3,NA,TRUE,f,f,NA,NA,NA,3,6,"2,13,5,10,7,14,6,15,4,8,12,3,11,1,9"
15000,commdev-image-keyboard-response,542,922800,learnblock2,811.6000000238419,img/planet15_left.png,15,Community 2,NA,TRUE,f,f,NA,NA,NA,3,6,"2,13,5,10,7,14,6,15,4,8,12,3,11,1,9"
15000,commdev-image-keyboard-response,543,924053,learnblock2,1007.2000000476837,img/planet6_left.png,6,Community 2,NA,TRUE,f,f,NA,NA,NA,3,6,"2,13,5,10,7,14,6,15,4,8,12,3,11,1,9"
15000,commdev-image-keyboard-response,544,925336,learnblock2,652.2999999523163,img/planet8_left.png,8,Community 2,NA,TRUE,f,f,NA,NA,NA,3,6,"2,13,5,10,7,14,6,15,4,8,12,3,11,1,9"
15000,commdev-image-keyboard-response,545,926597,learnblock2,605.5,img/planet4_right.png,4,Community 2,NA,TRUE,j,j,NA,NA,NA,3,6,"2,13,5,10,7,14,6,15,4,8,12,3,11,1,9"
15000,commdev-image-keyboard-response,546,927853,learnblock2,593.2000000476837,img/planet6_right.png,6,Community 2,NA,TRUE,j,j,NA,NA,NA,3,6,"2,13,5,10,7,14,6,15,4,8,12,3,11,1,9"
15000,commdev-image-keyboard-response,547,929111,learnblock2,658,img/planet15_right.png,15,Community 2,NA,TRUE,j,j,NA,NA,NA,3,6,"2,13,5,10,7,14,6,15,4,8,12,3,11,1,9"
15000,commdev-image-keyboard-response,548,930365,learnblock2,786.3000000715256,img/planet8_right.png,8,Community 2,NA,TRUE,j,j,NA,NA,NA,3,6,"2,13,5,10,7,14,6,15,4,8,12,3,11,1,9"
15000,commdev-image-keyboard-response,549,931626,learnblock2,566.1000000238419,img/planet6_left.png,6,Community 2,NA,FALSE,j,f,NA,NA,NA,3,6,"2,13,5,10,7,14,6,15,4,8,12,3,11,1,9"
15000,commdev-image-keyboard-response,550,932887,learnblock2,726.3999999761581,img/planet4_left.png,4,Community 2,NA,TRUE,f,f,NA,NA,NA,3,6,"2,13,5,10,7,14,6,15,4,8,12,3,11,1,9"
15000,commdev-image-keyboard-response,551,934142,learnblock2,616.6000000238419,img/planet6_left.png,6,Community 2,NA,TRUE,f,f,NA,NA,NA,3,6,"2,13,5,10,7,14,6,15,4,8,12,3,11,1,9"
15000,commdev-image-keyboard-response,552,935397,learnblock2,670.5,img/planet14_right.png,14,Community 2,NA,TRUE,j,j,NA,NA,NA,3,6,"2,13,5,10,7,14,6,15,4,8,12,3,11,1,9"
15000,commdev-image-keyboard-response,553,936656,learnblock2,587.1999999284744,img/planet4_right.png,4,Community 2,NA,TRUE,j,j,NA,NA,NA,3,6,"2,13,5,10,7,14,6,15,4,8,12,3,11,1,9"
15000,commdev-image-keyboard-response,554,937911,learnblock2,439.60000002384186,img/planet14_right.png,14,Community 2,NA,TRUE,j,j,NA,NA,NA,3,6,"2,13,5,10,7,14,6,15,4,8,12,3,11,1,9"
15000,commdev-image-keyboard-response,555,939169,learnblock2,529.6000000238419,img/planet6_right.png,6,Community 2,NA,TRUE,j,j,NA,NA,NA,3,6,"2,13,5,10,7,14,6,15,4,8,12,3,11,1,9"
15000,commdev-image-keyboard-response,556,940428,learnblock2,561.9000000953674,img/planet14_right.png,14,Community 2,NA,TRUE,j,j,NA,NA,NA,3,6,"2,13,5,10,7,14,6,15,4,8,12,3,11,1,9"
15000,commdev-image-keyboard-response,557,941680,learnblock2,607.6000000238419,img/planet10_right.png,10,Community 1,NA,TRUE,j,j,NA,NA,NA,3,6,"2,13,5,10,7,14,6,15,4,8,12,3,11,1,9"
15000,commdev-image-keyboard-response,558,942937,learnblock2,508.60000002384186,img/planet14_right.png,14,Community 2,NA,TRUE,j,j,NA,NA,NA,3,6,"2,13,5,10,7,14,6,15,4,8,12,3,11,1,9"
15000,commdev-image-keyboard-response,559,944195,learnblock2,567.5,img/planet4_right.png,4,Community 2,NA,TRUE,j,j,NA,NA,NA,3,6,"2,13,5,10,7,14,6,15,4,8,12,3,11,1,9"
15000,commdev-image-keyboard-response,560,945449,learnblock2,525.8999999761581,img/planet14_left.png,14,Community 2,NA,TRUE,f,f,NA,NA,NA,3,6,"2,13,5,10,7,14,6,15,4,8,12,3,11,1,9"
15000,commdev-image-keyboard-response,561,946702,learnblock2,770.6000000238419,img/planet4_right.png,4,Community 2,NA,TRUE,j,j,NA,NA,NA,3,6,"2,13,5,10,7,14,6,15,4,8,12,3,11,1,9"
15000,commdev-image-keyboard-response,562,947961,learnblock2,617.3999999761581,img/planet6_left.png,6,Community 2,NA,TRUE,f,f,NA,NA,NA,3,6,"2,13,5,10,7,14,6,15,4,8,12,3,11,1,9"
15000,commdev-image-keyboard-response,563,949217,learnblock2,668.8000000715256,img/planet4_right.png,4,Community 2,NA,TRUE,j,j,NA,NA,NA,3,6,"2,13,5,10,7,14,6,15,4,8,12,3,11,1,9"
15000,commdev-image-keyboard-response,564,950478,learnblock2,608.5,img/planet6_right.png,6,Community 2,NA,TRUE,j,j,NA,NA,NA,3,6,"2,13,5,10,7,14,6,15,4,8,12,3,11,1,9"
15000,commdev-image-keyboard-response,565,951736,learnblock2,661,img/planet8_left.png,8,Community 2,NA,TRUE,f,f,NA,NA,NA,3,6,"2,13,5,10,7,14,6,15,4,8,12,3,11,1,9"
15000,commdev-image-keyboard-response,566,952995,learnblock2,875.1999999284744,img/planet15_right.png,15,Community 2,NA,TRUE,j,j,NA,NA,NA,3,6,"2,13,5,10,7,14,6,15,4,8,12,3,11,1,9"
15000,commdev-image-keyboard-response,567,954259,learnblock2,763.0999999046326,img/planet3_right.png,3,Community 3,NA,TRUE,j,j,NA,NA,NA,3,6,"2,13,5,10,7,14,6,15,4,8,12,3,11,1,9"
15000,commdev-image-keyboard-response,568,955512,learnblock2,668,img/planet1_right.png,1,Community 3,NA,TRUE,j,j,NA,NA,NA,3,6,"2,13,5,10,7,14,6,15,4,8,12,3,11,1,9"
15000,commdev-image-keyboard-response,569,956770,learnblock2,887.6999999284744,img/planet12_right.png,12,Community 3,NA,TRUE,j,j,NA,NA,NA,3,6,"2,13,5,10,7,14,6,15,4,8,12,3,11,1,9"
15000,commdev-image-keyboard-response,570,958023,learnblock2,645.7000000476837,img/planet1_right.png,1,Community 3,NA,TRUE,j,j,NA,NA,NA,3,6,"2,13,5,10,7,14,6,15,4,8,12,3,11,1,9"
15000,commdev-image-keyboard-response,571,959281,learnblock2,635,img/planet12_left.png,12,Community 3,NA,TRUE,f,f,NA,NA,NA,3,6,"2,13,5,10,7,14,6,15,4,8,12,3,11,1,9"
15000,commdev-image-keyboard-response,572,960539,learnblock2,694.7999999523163,img/planet1_left.png,1,Community 3,NA,TRUE,f,f,NA,NA,NA,3,6,"2,13,5,10,7,14,6,15,4,8,12,3,11,1,9"
15000,commdev-image-keyboard-response,573,961793,learnblock2,722.8000000715256,img/planet9_right.png,9,Community 3,NA,TRUE,j,j,NA,NA,NA,3,6,"2,13,5,10,7,14,6,15,4,8,12,3,11,1,9"
15000,commdev-image-keyboard-response,574,963059,learnblock2,737.1000000238419,img/planet3_left.png,3,Community 3,NA,TRUE,f,f,NA,NA,NA,3,6,"2,13,5,10,7,14,6,15,4,8,12,3,11,1,9"
15000,commdev-image-keyboard-response,575,964311,learnblock2,679.5999999046326,img/planet15_right.png,15,Community 2,NA,TRUE,j,j,NA,NA,NA,3,6,"2,13,5,10,7,14,6,15,4,8,12,3,11,1,9"
15000,commdev-image-keyboard-response,576,965567,learnblock2,831,img/planet8_right.png,8,Community 2,NA,TRUE,j,j,NA,NA,NA,3,6,"2,13,5,10,7,14,6,15,4,8,12,3,11,1,9"
15000,commdev-image-keyboard-response,577,966824,learnblock2,684.8999999761581,img/planet6_right.png,6,Community 2,NA,TRUE,j,j,NA,NA,NA,3,6,"2,13,5,10,7,14,6,15,4,8,12,3,11,1,9"
15000,commdev-image-keyboard-response,578,968079,learnblock2,605.6999999284744,img/planet4_right.png,4,Community 2,NA,TRUE,j,j,NA,NA,NA,3,6,"2,13,5,10,7,14,6,15,4,8,12,3,11,1,9"
15000,commdev-image-keyboard-response,579,969347,learnblock2,814.1000000238419,img/planet8_right.png,8,Community 2,NA,TRUE,j,j,NA,NA,NA,3,6,"2,13,5,10,7,14,6,15,4,8,12,3,11,1,9"
15000,commdev-image-keyboard-response,580,970605,learnblock2,764.1000000238419,img/planet4_left.png,4,Community 2,NA,TRUE,f,f,NA,NA,NA,3,6,"2,13,5,10,7,14,6,15,4,8,12,3,11,1,9"
15000,commdev-image-keyboard-response,581,971865,learnblock2,694.2999999523163,img/planet6_left.png,6,Community 2,NA,TRUE,f,f,NA,NA,NA,3,6,"2,13,5,10,7,14,6,15,4,8,12,3,11,1,9"
15000,commdev-image-keyboard-response,582,973127,learnblock2,694,img/planet8_right.png,8,Community 2,NA,TRUE,j,j,NA,NA,NA,3,6,"2,13,5,10,7,14,6,15,4,8,12,3,11,1,9"
15000,commdev-image-keyboard-response,583,974409,learnblock2,728.9000000953674,img/planet15_left.png,15,Community 2,NA,TRUE,f,f,NA,NA,NA,3,6,"2,13,5,10,7,14,6,15,4,8,12,3,11,1,9"
15000,commdev-image-keyboard-response,584,975665,learnblock2,587.5,img/planet6_right.png,6,Community 2,NA,TRUE,j,j,NA,NA,NA,3,6,"2,13,5,10,7,14,6,15,4,8,12,3,11,1,9"
15000,commdev-image-keyboard-response,585,976921,learnblock2,613.7999999523163,img/planet4_right.png,4,Community 2,NA,TRUE,j,j,NA,NA,NA,3,6,"2,13,5,10,7,14,6,15,4,8,12,3,11,1,9"
15000,commdev-image-keyboard-response,586,978179,learnblock2,622.2000000476837,img/planet15_left.png,15,Community 2,NA,TRUE,f,f,NA,NA,NA,3,6,"2,13,5,10,7,14,6,15,4,8,12,3,11,1,9"
