subject_id,trial_type,trial_index,time_elapsed,block,rt,stimulus,planet,community,response,correct,key_press,learning_correct_response,parse,init_locations,final_locations,browser_interactions,num_comp,planet_map
15001,commdev-instructions,7,59455,NA,4014.7999999523163,"<p>In this game, you are a scientist on board a space shuttle. </p><p> On each mission, you will visit planets all across the universe.</p><img src=""img/controlroom.jpg"" width=300vw>",NA,NA,NA,NA,NA,NA,NA,NA,NA,5,7,"12,8,5,15,4,9,2,10,14,1,7,13,6,3,11"
15001,commdev-instructions,8,78558,NA,17031.799999952316,"<p>Here are a few planets you might see:</p><img src=""img/practice1.png"" width=200vw><img src=""img/practice2.png"" width=200vw><img src=""img/practice3.png"" width=200vw>",NA,NA,NA,NA,NA,NA,NA,NA,NA,5,7,"12,8,5,15,4,9,2,10,14,1,7,13,6,3,11"
15001,commdev-instructions,9,87924,NA,1965.2000000476837,"<p>Your job as a scientist is to record which direction the winds are moving on each planet.</p><p>There are two types of wind directions:</p><img src=""img/practice1_left.png"" width=200vw><img src=""img/practice1_right.png"" width=200vw>",NA,NA,NA,NA,NA,NA,NA,NA,NA,5,7,"12,8,5,15,4,9,2,10,14,1,7,13,6,3,11"
15001,commdev-instructions,10,94045,NA,1233.0999999046326,"<p>If the winds are moving this way, press the letter <strong>F</strong> on the keyboard as fast as you can.</p><img src=""img/leftwind.png"" width=250vw>",NA,NA,NA,NA,NA,NA,NA,NA,NA,5,7,"12,8,5,15,4,9,2,10,14,1,7,13,6,3,11"
15001,commdev-instructions,11,100252,NA,1708.2000000476837,"<p>If the winds are moving this way, press the letter <strong>J</strong> on the keyboard as fast as you can.</p><img src=""img/rightwind.png"" width=350vw>",NA,NA,NA,NA,NA,NA,NA,NA,NA,5,7,"12,8,5,15,4,9,2,10,14,1,7,13,6,3,11"
15001,commdev-instructions,12,106241,NA,1563.5,<p>You will have 1 second to respond. Try to respond before the time runs out!,NA,NA,NA,NA,NA,NA,NA,NA,NA,5,7,"12,8,5,15,4,9,2,10,14,1,7,13,6,3,11"
15001,commdev-instructions,13,198442,NA,86765.10000014305,<p>The planets you will visit will look different from each other.</p><p>You should respond <strong>only</strong> based on wind direction.,NA,NA,NA,NA,NA,NA,NA,NA,NA,5,7,"12,8,5,15,4,9,2,10,14,1,7,13,6,3,11"
15001,commdev-instructions,14,284309,NA,80658.30000019073,"<p> Ready to start the practice round? </p><p> Remember, press <strong>F</strong> or <strong>J</strong> depending on the wind direction.<br><img src=""img/categorize_planet_example.png""",NA,NA,NA,NA,NA,NA,NA,NA,NA,5,7,"12,8,5,15,4,9,2,10,14,1,7,13,6,3,11"
15001,commdev-instructions,26,523166,NA,128470.29999995232,"<p>Great, now try a short practice mission. </p><p> This time, you will have 1 second to respond and you won't know whether you pressed the right or wrong key for each planet.</p>",NA,NA,NA,NA,NA,NA,NA,NA,NA,5,7,"12,8,5,15,4,9,2,10,14,1,7,13,6,3,11"
15001,commdev-image-keyboard-response,27,524531,practice,1222.7999999523163,img/practice1_left.png,NA,Number not found in mappings,NA,TRUE,f,f,NA,NA,NA,5,7,"12,8,5,15,4,9,2,10,14,1,7,13,6,3,11"
15001,commdev-image-keyboard-response,28,525785,practice,1010.4000000953674,img/practice2_right.png,NA,Number not found in mappings,NA,TRUE,j,j,NA,NA,NA,5,7,"12,8,5,15,4,9,2,10,14,1,7,13,6,3,11"
15001,commdev-image-keyboard-response,29,527039,practice,632.3999998569489,img/practice3_left.png,NA,Number not found in mappings,NA,FALSE,j,f,NA,NA,NA,5,7,"12,8,5,15,4,9,2,10,14,1,7,13,6,3,11"
15001,commdev-image-keyboard-response,30,528296,practice,690.4000000953674,img/practice2_left.png,NA,Number not found in mappings,NA,TRUE,f,f,NA,NA,NA,5,7,"12,8,5,15,4,9,2,10,14,1,7,13,6,3,11"
15001,commdev-image-keyboard-response,31,529554,practice,533.7999999523163,img/practice1_left.png,NA,Number not found in mappings,NA,TRUE,f,f,NA,NA,NA,5,7,"12,8,5,15,4,9,2,10,14,1,7,13,6,3,11"
15001,commdev-image-keyboard-response,32,530812,practice,473.40000009536743,img/practice4_left.png,NA,Number not found in mappings,NA,TRUE,f,f,NA,NA,NA,5,7,"12,8,5,15,4,9,2,10,14,1,7,13,6,3,11"
15001,commdev-image-keyboard-response,33,532071,practice,573.5999999046326,img/practice3_right.png,NA,Number not found in mappings,NA,TRUE,j,j,NA,NA,NA,5,7,"12,8,5,15,4,9,2,10,14,1,7,13,6,3,11"
15001,commdev-image-keyboard-response,34,533329,practice,677.5,img/practice1_left.png,NA,Number not found in mappings,NA,TRUE,f,f,NA,NA,NA,5,7,"12,8,5,15,4,9,2,10,14,1,7,13,6,3,11"
15001,commdev-instructions,35,543562,NA,646.9000000953674,"<p>Great job with the practice round.</p><p>During real missions, you won't know whether you pressed the right or wrong key for each planet.</p><p>But between missions, we will tell you how you did overall.</p>",NA,NA,NA,NA,NA,NA,NA,NA,NA,5,7,"12,8,5,15,4,9,2,10,14,1,7,13,6,3,11"
15001,commdev-instructions,36,560934,NA,9126.400000095367,<p>Try your best! You will be paid a bonus based on how many correct responses you make!</p><p>Responses that are too slow will not count toward your bonus.</p>,NA,NA,NA,NA,NA,NA,NA,NA,NA,5,7,"12,8,5,15,4,9,2,10,14,1,7,13,6,3,11"
15001,commdev-instructions,37,567996,NA,862.6000001430511,"<p>You are almost ready to start the real game.</p><p> First, we are going to ask you some questions about how the game works.</p>",NA,NA,NA,NA,NA,NA,NA,NA,NA,5,7,"12,8,5,15,4,9,2,10,14,1,7,13,6,3,11"
15001,commdev-instructions,48,692118,NA,1041.2999999523163,"<p> Nice work! It is now time to start the real game.<p></p>You will go on two missions to record wind directions of different planets.<p></p>Each one will take about 5 minutes. You will get to take a break between missions.<p><p> Remember, press <strong>F</strong> or <strong>J</strong> depending on the wind direction. Good luck!<br><img src=""img/categorize_planet_example.png""",NA,NA,NA,NA,NA,NA,NA,NA,NA,5,7,"12,8,5,15,4,9,2,10,14,1,7,13,6,3,11"
15001,commdev-image-keyboard-response,50,696508,learnblock1,null,img/planet14_left.png,14,Community 2,NA,FALSE,null,f,NA,NA,NA,5,7,"12,8,5,15,4,9,2,10,14,1,7,13,6,3,11"
15001,commdev-image-keyboard-response,51,697765,learnblock1,575.1999998092651,img/planet1_right.png,1,Community 2,NA,TRUE,j,j,NA,NA,NA,5,7,"12,8,5,15,4,9,2,10,14,1,7,13,6,3,11"
15001,commdev-image-keyboard-response,52,699022,learnblock1,430,img/planet9_right.png,9,Community 2,NA,FALSE,f,j,NA,NA,NA,5,7,"12,8,5,15,4,9,2,10,14,1,7,13,6,3,11"
15001,commdev-image-keyboard-response,53,700277,learnblock1,233.79999995231628,img/planet15_left.png,15,Community 1,NA,FALSE,j,f,NA,NA,NA,5,7,"12,8,5,15,4,9,2,10,14,1,7,13,6,3,11"
15001,commdev-image-keyboard-response,54,701534,learnblock1,1023.6000001430511,img/planet12_left.png,12,Community 1,NA,TRUE,f,f,NA,NA,NA,5,7,"12,8,5,15,4,9,2,10,14,1,7,13,6,3,11"
15001,commdev-image-keyboard-response,55,702792,learnblock1,270.2999999523163,img/planet8_right.png,8,Community 1,NA,TRUE,j,j,NA,NA,NA,5,7,"12,8,5,15,4,9,2,10,14,1,7,13,6,3,11"
15001,commdev-image-keyboard-response,56,704047,learnblock1,645.3999998569489,img/planet12_left.png,12,Community 1,NA,TRUE,f,f,NA,NA,NA,5,7,"12,8,5,15,4,9,2,10,14,1,7,13,6,3,11"
15001,commdev-image-keyboard-response,57,705305,learnblock1,71.90000009536743,img/planet5_left.png,5,Community 1,NA,FALSE,j,f,NA,NA,NA,5,7,"12,8,5,15,4,9,2,10,14,1,7,13,6,3,11"
15001,commdev-image-keyboard-response,58,706563,learnblock1,310.60000014305115,img/planet15_left.png,15,Community 1,NA,TRUE,f,f,NA,NA,NA,5,7,"12,8,5,15,4,9,2,10,14,1,7,13,6,3,11"
15001,commdev-image-keyboard-response,59,707827,learnblock1,109.70000004768372,img/planet5_left.png,5,Community 1,NA,FALSE,j,f,NA,NA,NA,5,7,"12,8,5,15,4,9,2,10,14,1,7,13,6,3,11"
15001,commdev-image-keyboard-response,60,709082,learnblock1,1103.1999998092651,img/planet12_right.png,12,Community 1,NA,TRUE,j,j,NA,NA,NA,5,7,"12,8,5,15,4,9,2,10,14,1,7,13,6,3,11"
15001,commdev-image-keyboard-response,61,710334,learnblock1,1148.1999998092651,img/planet5_right.png,5,Community 1,NA,TRUE,j,j,NA,NA,NA,5,7,"12,8,5,15,4,9,2,10,14,1,7,13,6,3,11"
15001,commdev-image-keyboard-response,62,711592,learnblock1,1202,img/planet12_right.png,12,Community 1,NA,FALSE,f,j,NA,NA,NA,5,7,"12,8,5,15,4,9,2,10,14,1,7,13,6,3,11"
15001,commdev-image-keyboard-response,63,712850,learnblock1,null,img/planet15_left.png,15,Community 1,NA,FALSE,null,f,NA,NA,NA,5,7,"12,8,5,15,4,9,2,10,14,1,7,13,6,3,11"
15001,commdev-image-keyboard-response,64,714109,learnblock1,273.2000000476837,img/planet8_left.png,8,Community 1,NA,FALSE,j,f,NA,NA,NA,5,7,"12,8,5,15,4,9,2,10,14,1,7,13,6,3,11"
15001,commdev-image-keyboard-response,65,715362,learnblock1,309.2999999523163,img/planet15_left.png,15,Community 1,NA,TRUE,f,f,NA,NA,NA,5,7,"12,8,5,15,4,9,2,10,14,1,7,13,6,3,11"
15001,commdev-image-keyboard-response,66,716626,learnblock1,480.39999985694885,img/planet5_right.png,5,Community 1,NA,TRUE,j,j,NA,NA,NA,5,7,"12,8,5,15,4,9,2,10,14,1,7,13,6,3,11"
15001,commdev-image-keyboard-response,67,717883,learnblock1,376.90000009536743,img/planet15_left.png,15,Community 1,NA,TRUE,f,f,NA,NA,NA,5,7,"12,8,5,15,4,9,2,10,14,1,7,13,6,3,11"
15001,commdev-image-keyboard-response,68,719143,learnblock1,701.6999998092651,img/planet9_left.png,9,Community 2,NA,FALSE,j,f,NA,NA,NA,5,7,"12,8,5,15,4,9,2,10,14,1,7,13,6,3,11"
15001,commdev-image-keyboard-response,69,720396,learnblock1,400.90000009536743,img/planet1_left.png,1,Community 2,NA,TRUE,f,f,NA,NA,NA,5,7,"12,8,5,15,4,9,2,10,14,1,7,13,6,3,11"
15001,commdev-image-keyboard-response,70,721656,learnblock1,273.7000000476837,img/planet2_right.png,2,Community 2,NA,TRUE,j,j,NA,NA,NA,5,7,"12,8,5,15,4,9,2,10,14,1,7,13,6,3,11"
15001,commdev-image-keyboard-response,71,722910,learnblock1,201.79999995231628,img/planet14_left.png,14,Community 2,NA,TRUE,f,f,NA,NA,NA,5,7,"12,8,5,15,4,9,2,10,14,1,7,13,6,3,11"
15001,commdev-image-keyboard-response,72,724168,learnblock1,457.39999985694885,img/planet2_left.png,2,Community 2,NA,FALSE,j,f,NA,NA,NA,5,7,"12,8,5,15,4,9,2,10,14,1,7,13,6,3,11"
15001,commdev-image-keyboard-response,73,725421,learnblock1,273.09999990463257,img/planet1_left.png,1,Community 2,NA,FALSE,j,f,NA,NA,NA,5,7,"12,8,5,15,4,9,2,10,14,1,7,13,6,3,11"
15001,commdev-image-keyboard-response,74,726675,learnblock1,1200.2000000476837,img/planet10_left.png,10,Community 2,NA,FALSE,j,f,NA,NA,NA,5,7,"12,8,5,15,4,9,2,10,14,1,7,13,6,3,11"
15001,commdev-image-keyboard-response,75,727933,learnblock1,null,img/planet14_left.png,14,Community 2,NA,FALSE,null,f,NA,NA,NA,5,7,"12,8,5,15,4,9,2,10,14,1,7,13,6,3,11"
15001,commdev-image-keyboard-response,76,729191,learnblock1,91.09999990463257,img/planet10_left.png,10,Community 2,NA,TRUE,f,f,NA,NA,NA,5,7,"12,8,5,15,4,9,2,10,14,1,7,13,6,3,11"
15001,commdev-image-keyboard-response,77,730445,learnblock1,139.59999990463257,img/planet1_left.png,1,Community 2,NA,FALSE,j,f,NA,NA,NA,5,7,"12,8,5,15,4,9,2,10,14,1,7,13,6,3,11"
15001,commdev-image-keyboard-response,78,731701,learnblock1,1027.2999999523163,img/planet14_left.png,14,Community 2,NA,TRUE,f,f,NA,NA,NA,5,7,"12,8,5,15,4,9,2,10,14,1,7,13,6,3,11"
15001,commdev-image-keyboard-response,79,732958,learnblock1,484.40000009536743,img/planet2_left.png,2,Community 2,NA,FALSE,j,f,NA,NA,NA,5,7,"12,8,5,15,4,9,2,10,14,1,7,13,6,3,11"
15001,commdev-image-keyboard-response,80,734211,learnblock1,110,img/planet1_left.png,1,Community 2,NA,TRUE,f,f,NA,NA,NA,5,7,"12,8,5,15,4,9,2,10,14,1,7,13,6,3,11"
15001,commdev-image-keyboard-response,81,735464,learnblock1,34.40000009536743,img/planet10_right.png,10,Community 2,NA,TRUE,j,j,NA,NA,NA,5,7,"12,8,5,15,4,9,2,10,14,1,7,13,6,3,11"
15001,commdev-image-keyboard-response,82,736717,learnblock1,0.5999999046325684,img/planet1_right.png,1,Community 2,NA,TRUE,j,j,NA,NA,NA,5,7,"12,8,5,15,4,9,2,10,14,1,7,13,6,3,11"
15001,commdev-image-keyboard-response,83,737975,learnblock1,255.59999990463257,img/planet10_right.png,10,Community 2,NA,FALSE,f,j,NA,NA,NA,5,7,"12,8,5,15,4,9,2,10,14,1,7,13,6,3,11"
15001,commdev-image-keyboard-response,84,739233,learnblock1,48.60000014305115,img/planet14_right.png,14,Community 2,NA,TRUE,j,j,NA,NA,NA,5,7,"12,8,5,15,4,9,2,10,14,1,7,13,6,3,11"
15001,commdev-image-keyboard-response,85,740493,learnblock1,77.90000009536743,img/planet10_left.png,10,Community 2,NA,TRUE,f,f,NA,NA,NA,5,7,"12,8,5,15,4,9,2,10,14,1,7,13,6,3,11"
15001,commdev-image-keyboard-response,86,741747,learnblock1,43.40000009536743,img/planet2_right.png,2,Community 2,NA,TRUE,j,j,NA,NA,NA,5,7,"12,8,5,15,4,9,2,10,14,1,7,13,6,3,11"
15001,commdev-image-keyboard-response,87,743004,learnblock1,51.5,img/planet9_left.png,9,Community 2,NA,TRUE,f,f,NA,NA,NA,5,7,"12,8,5,15,4,9,2,10,14,1,7,13,6,3,11"
15001,commdev-image-keyboard-response,88,744266,learnblock1,1164.7999999523163,img/planet1_left.png,1,Community 2,NA,TRUE,f,f,NA,NA,NA,5,7,"12,8,5,15,4,9,2,10,14,1,7,13,6,3,11"
15001,commdev-image-keyboard-response,89,745522,learnblock1,1189.6999998092651,img/planet10_right.png,10,Community 2,NA,TRUE,j,j,NA,NA,NA,5,7,"12,8,5,15,4,9,2,10,14,1,7,13,6,3,11"
15001,commdev-image-keyboard-response,90,746777,learnblock1,1166.1000001430511,img/planet14_right.png,14,Community 2,NA,FALSE,f,j,NA,NA,NA,5,7,"12,8,5,15,4,9,2,10,14,1,7,13,6,3,11"
15001,commdev-image-keyboard-response,91,748034,learnblock1,null,img/planet9_left.png,9,Community 2,NA,FALSE,null,f,NA,NA,NA,5,7,"12,8,5,15,4,9,2,10,14,1,7,13,6,3,11"
15001,commdev-image-keyboard-response,92,749289,learnblock1,8.900000095367432,img/planet2_left.png,2,Community 2,NA,FALSE,j,f,NA,NA,NA,5,7,"12,8,5,15,4,9,2,10,14,1,7,13,6,3,11"
15001,commdev-image-keyboard-response,93,750543,learnblock1,null,img/planet10_left.png,10,Community 2,NA,FALSE,null,f,NA,NA,NA,5,7,"12,8,5,15,4,9,2,10,14,1,7,13,6,3,11"
15001,commdev-image-keyboard-response,94,751800,learnblock1,43.5,img/planet13_left.png,13,Community 3,NA,FALSE,j,f,NA,NA,NA,5,7,"12,8,5,15,4,9,2,10,14,1,7,13,6,3,11"
15001,commdev-image-keyboard-response,95,753059,learnblock1,141.90000009536743,img/planet6_left.png,6,Community 3,NA,TRUE,f,f,NA,NA,NA,5,7,"12,8,5,15,4,9,2,10,14,1,7,13,6,3,11"
15001,commdev-image-keyboard-response,96,754317,learnblock1,50.19999980926514,img/planet11_right.png,11,Community 3,NA,TRUE,j,j,NA,NA,NA,5,7,"12,8,5,15,4,9,2,10,14,1,7,13,6,3,11"
15001,commdev-image-keyboard-response,97,755574,learnblock1,95.5,img/planet3_right.png,3,Community 3,NA,TRUE,j,j,NA,NA,NA,5,7,"12,8,5,15,4,9,2,10,14,1,7,13,6,3,11"
15001,commdev-image-keyboard-response,98,756832,learnblock1,92.79999995231628,img/planet13_right.png,13,Community 3,NA,FALSE,f,j,NA,NA,NA,5,7,"12,8,5,15,4,9,2,10,14,1,7,13,6,3,11"
15001,commdev-image-keyboard-response,99,758086,learnblock1,947.7999999523163,img/planet11_left.png,11,Community 3,NA,FALSE,j,f,NA,NA,NA,5,7,"12,8,5,15,4,9,2,10,14,1,7,13,6,3,11"
15001,commdev-image-keyboard-response,100,759343,learnblock1,1118.3000001907349,img/planet7_left.png,7,Community 3,NA,FALSE,j,f,NA,NA,NA,5,7,"12,8,5,15,4,9,2,10,14,1,7,13,6,3,11"
15001,commdev-image-keyboard-response,101,760600,learnblock1,1227.7000000476837,img/planet6_left.png,6,Community 3,NA,TRUE,f,f,NA,NA,NA,5,7,"12,8,5,15,4,9,2,10,14,1,7,13,6,3,11"
15001,commdev-image-keyboard-response,102,761859,learnblock1,1026.4000000953674,img/planet13_left.png,13,Community 3,NA,FALSE,j,f,NA,NA,NA,5,7,"12,8,5,15,4,9,2,10,14,1,7,13,6,3,11"
15001,commdev-image-keyboard-response,103,763111,learnblock1,1240.7000000476837,img/planet6_left.png,6,Community 3,NA,TRUE,f,f,NA,NA,NA,5,7,"12,8,5,15,4,9,2,10,14,1,7,13,6,3,11"
15001,commdev-image-keyboard-response,104,764366,learnblock1,1215.7999999523163,img/planet3_left.png,3,Community 3,NA,FALSE,j,f,NA,NA,NA,5,7,"12,8,5,15,4,9,2,10,14,1,7,13,6,3,11"
15001,commdev-image-keyboard-response,105,765622,learnblock1,1024.5,img/planet6_right.png,6,Community 3,NA,FALSE,f,j,NA,NA,NA,5,7,"12,8,5,15,4,9,2,10,14,1,7,13,6,3,11"
15001,commdev-image-keyboard-response,106,766877,learnblock1,527.7000000476837,img/planet7_right.png,7,Community 3,NA,TRUE,j,j,NA,NA,NA,5,7,"12,8,5,15,4,9,2,10,14,1,7,13,6,3,11"
15001,commdev-image-keyboard-response,107,768132,learnblock1,257.7999999523163,img/planet11_right.png,11,Community 3,NA,TRUE,j,j,NA,NA,NA,5,7,"12,8,5,15,4,9,2,10,14,1,7,13,6,3,11"
15001,commdev-image-keyboard-response,108,769383,learnblock1,64.79999995231628,img/planet7_right.png,7,Community 3,NA,TRUE,j,j,NA,NA,NA,5,7,"12,8,5,15,4,9,2,10,14,1,7,13,6,3,11"
15001,commdev-image-keyboard-response,109,770642,learnblock1,1086.8999998569489,img/planet3_left.png,3,Community 3,NA,TRUE,f,f,NA,NA,NA,5,7,"12,8,5,15,4,9,2,10,14,1,7,13,6,3,11"
15001,commdev-image-keyboard-response,110,771898,learnblock1,844.9000000953674,img/planet6_left.png,6,Community 3,NA,FALSE,j,f,NA,NA,NA,5,7,"12,8,5,15,4,9,2,10,14,1,7,13,6,3,11"
15001,commdev-image-keyboard-response,111,773159,learnblock1,614.6000001430511,img/planet3_left.png,3,Community 3,NA,TRUE,f,f,NA,NA,NA,5,7,"12,8,5,15,4,9,2,10,14,1,7,13,6,3,11"
15001,commdev-image-keyboard-response,112,774417,learnblock1,null,img/planet7_left.png,7,Community 3,NA,FALSE,null,f,NA,NA,NA,5,7,"12,8,5,15,4,9,2,10,14,1,7,13,6,3,11"
15001,commdev-image-keyboard-response,113,775669,learnblock1,44.40000009536743,img/planet11_left.png,11,Community 3,NA,FALSE,j,f,NA,NA,NA,5,7,"12,8,5,15,4,9,2,10,14,1,7,13,6,3,11"
15001,commdev-image-keyboard-response,114,776925,learnblock1,552.7000000476837,img/planet6_left.png,6,Community 3,NA,FALSE,j,f,NA,NA,NA,5,7,"12,8,5,15,4,9,2,10,14,1,7,13,6,3,11"
15001,commdev-image-keyboard-response,115,778184,learnblock1,148,img/planet3_left.png,3,Community 3,NA,TRUE,f,f,NA,NA,NA,5,7,"12,8,5,15,4,9,2,10,14,1,7,13,6,3,11"
15001,commdev-image-keyboard-response,116,779443,learnblock1,1055.7000000476837,img/planet7_left.png,7,Community 3,NA,TRUE,f,f,NA,NA,NA,5,7,"12,8,5,15,4,9,2,10,14,1,7,13,6,3,11"
15001,commdev-image-keyboard-response,117,780694,learnblock1,601.2000000476837,img/planet4_right.png,4,Community 1,NA,FALSE,f,j,NA,NA,NA,5,7,"12,8,5,15,4,9,2,10,14,1,7,13,6,3,11"
15001,commdev-image-keyboard-response,118,781950,learnblock1,239.5,img/planet8_left.png,8,Community 1,NA,FALSE,j,f,NA,NA,NA,5,7,"12,8,5,15,4,9,2,10,14,1,7,13,6,3,11"
15001,commdev-image-keyboard-response,119,783202,learnblock1,1248,img/planet15_left.png,15,Community 1,NA,FALSE,j,f,NA,NA,NA,5,7,"12,8,5,15,4,9,2,10,14,1,7,13,6,3,11"
15001,commdev-image-keyboard-response,120,784460,learnblock1,1179.3999998569489,img/planet8_right.png,8,Community 1,NA,FALSE,f,j,NA,NA,NA,5,7,"12,8,5,15,4,9,2,10,14,1,7,13,6,3,11"
15001,commdev-image-keyboard-response,121,785712,learnblock1,1196,img/planet12_left.png,12,Community 1,NA,FALSE,j,f,NA,NA,NA,5,7,"12,8,5,15,4,9,2,10,14,1,7,13,6,3,11"
15001,commdev-image-keyboard-response,122,786969,learnblock1,1095.0999999046326,img/planet4_left.png,4,Community 1,NA,FALSE,j,f,NA,NA,NA,5,7,"12,8,5,15,4,9,2,10,14,1,7,13,6,3,11"
15001,commdev-image-keyboard-response,123,788223,learnblock1,1200.8000001907349,img/planet5_left.png,5,Community 1,NA,TRUE,f,f,NA,NA,NA,5,7,"12,8,5,15,4,9,2,10,14,1,7,13,6,3,11"
15001,commdev-image-keyboard-response,124,789480,learnblock1,1173,img/planet15_left.png,15,Community 1,NA,FALSE,j,f,NA,NA,NA,5,7,"12,8,5,15,4,9,2,10,14,1,7,13,6,3,11"
15001,commdev-image-keyboard-response,125,790736,learnblock1,1019.7999999523163,img/planet5_right.png,5,Community 1,NA,FALSE,f,j,NA,NA,NA,5,7,"12,8,5,15,4,9,2,10,14,1,7,13,6,3,11"
15001,commdev-image-keyboard-response,126,791994,learnblock1,831.8999998569489,img/planet15_left.png,15,Community 1,NA,FALSE,j,f,NA,NA,NA,5,7,"12,8,5,15,4,9,2,10,14,1,7,13,6,3,11"
15001,commdev-image-keyboard-response,127,793252,learnblock1,764.8000001907349,img/planet12_left.png,12,Community 1,NA,FALSE,j,f,NA,NA,NA,5,7,"12,8,5,15,4,9,2,10,14,1,7,13,6,3,11"
15001,commdev-image-keyboard-response,128,794508,learnblock1,653.2000000476837,img/planet4_right.png,4,Community 1,NA,FALSE,f,j,NA,NA,NA,5,7,"12,8,5,15,4,9,2,10,14,1,7,13,6,3,11"
15001,commdev-image-keyboard-response,129,795763,learnblock1,348.09999990463257,img/planet8_right.png,8,Community 1,NA,TRUE,j,j,NA,NA,NA,5,7,"12,8,5,15,4,9,2,10,14,1,7,13,6,3,11"
15001,commdev-image-keyboard-response,130,797018,learnblock1,71.20000004768372,img/planet4_right.png,4,Community 1,NA,TRUE,j,j,NA,NA,NA,5,7,"12,8,5,15,4,9,2,10,14,1,7,13,6,3,11"
15001,commdev-image-keyboard-response,131,798273,learnblock1,612.8999998569489,img/planet5_right.png,5,Community 1,NA,TRUE,j,j,NA,NA,NA,5,7,"12,8,5,15,4,9,2,10,14,1,7,13,6,3,11"
15001,commdev-image-keyboard-response,132,799527,learnblock1,302.40000009536743,img/planet15_right.png,15,Community 1,NA,TRUE,j,j,NA,NA,NA,5,7,"12,8,5,15,4,9,2,10,14,1,7,13,6,3,11"
15001,commdev-image-keyboard-response,133,800784,learnblock1,558.3999998569489,img/planet12_left.png,12,Community 1,NA,FALSE,j,f,NA,NA,NA,5,7,"12,8,5,15,4,9,2,10,14,1,7,13,6,3,11"
15001,commdev-image-keyboard-response,134,802042,learnblock1,231.60000014305115,img/planet5_right.png,5,Community 1,NA,TRUE,j,j,NA,NA,NA,5,7,"12,8,5,15,4,9,2,10,14,1,7,13,6,3,11"
15001,commdev-image-keyboard-response,135,803300,learnblock1,555.7000000476837,img/planet4_right.png,4,Community 1,NA,TRUE,j,j,NA,NA,NA,5,7,"12,8,5,15,4,9,2,10,14,1,7,13,6,3,11"
15001,commdev-image-keyboard-response,136,804554,learnblock1,297.40000009536743,img/planet8_right.png,8,Community 1,NA,TRUE,j,j,NA,NA,NA,5,7,"12,8,5,15,4,9,2,10,14,1,7,13,6,3,11"
15001,commdev-image-keyboard-response,137,805812,learnblock1,54.40000009536743,img/planet5_left.png,5,Community 1,NA,FALSE,j,f,NA,NA,NA,5,7,"12,8,5,15,4,9,2,10,14,1,7,13,6,3,11"
15001,commdev-image-keyboard-response,138,807066,learnblock1,582.4000000953674,img/planet15_right.png,15,Community 1,NA,FALSE,f,j,NA,NA,NA,5,7,"12,8,5,15,4,9,2,10,14,1,7,13,6,3,11"
15001,commdev-image-keyboard-response,139,808323,learnblock1,55.90000009536743,img/planet12_right.png,12,Community 1,NA,TRUE,j,j,NA,NA,NA,5,7,"12,8,5,15,4,9,2,10,14,1,7,13,6,3,11"
15001,commdev-image-keyboard-response,140,809584,learnblock1,814.0999999046326,img/planet15_left.png,15,Community 1,NA,FALSE,j,f,NA,NA,NA,5,7,"12,8,5,15,4,9,2,10,14,1,7,13,6,3,11"
15001,commdev-image-keyboard-response,141,810836,learnblock1,281.7999999523163,img/planet5_left.png,5,Community 1,NA,FALSE,j,f,NA,NA,NA,5,7,"12,8,5,15,4,9,2,10,14,1,7,13,6,3,11"
15001,commdev-image-keyboard-response,142,812092,learnblock1,716.7999999523163,img/planet12_left.png,12,Community 1,NA,FALSE,j,f,NA,NA,NA,5,7,"12,8,5,15,4,9,2,10,14,1,7,13,6,3,11"
15001,commdev-image-keyboard-response,143,813350,learnblock1,568.9000000953674,img/planet5_left.png,5,Community 1,NA,TRUE,f,f,NA,NA,NA,5,7,"12,8,5,15,4,9,2,10,14,1,7,13,6,3,11"
15001,commdev-image-keyboard-response,144,814611,learnblock1,306.7000000476837,img/planet4_left.png,4,Community 1,NA,FALSE,j,f,NA,NA,NA,5,7,"12,8,5,15,4,9,2,10,14,1,7,13,6,3,11"
15001,commdev-image-keyboard-response,145,815862,learnblock1,409,img/planet8_left.png,8,Community 1,NA,FALSE,j,f,NA,NA,NA,5,7,"12,8,5,15,4,9,2,10,14,1,7,13,6,3,11"
15001,commdev-image-keyboard-response,146,817119,learnblock1,1132.4000000953674,img/planet5_right.png,5,Community 1,NA,TRUE,j,j,NA,NA,NA,5,7,"12,8,5,15,4,9,2,10,14,1,7,13,6,3,11"
15001,commdev-image-keyboard-response,147,818375,learnblock1,938.8000001907349,img/planet15_left.png,15,Community 1,NA,FALSE,j,f,NA,NA,NA,5,7,"12,8,5,15,4,9,2,10,14,1,7,13,6,3,11"
15001,commdev-image-keyboard-response,148,819630,learnblock1,302.2000000476837,img/planet12_left.png,12,Community 1,NA,FALSE,j,f,NA,NA,NA,5,7,"12,8,5,15,4,9,2,10,14,1,7,13,6,3,11"
15001,commdev-image-keyboard-response,149,820883,learnblock1,300,img/planet15_left.png,15,Community 1,NA,FALSE,j,f,NA,NA,NA,5,7,"12,8,5,15,4,9,2,10,14,1,7,13,6,3,11"
15001,commdev-image-keyboard-response,150,822138,learnblock1,450.2000000476837,img/planet8_left.png,8,Community 1,NA,TRUE,f,f,NA,NA,NA,5,7,"12,8,5,15,4,9,2,10,14,1,7,13,6,3,11"
15001,commdev-image-keyboard-response,151,823395,learnblock1,null,img/planet5_left.png,5,Community 1,NA,FALSE,null,f,NA,NA,NA,5,7,"12,8,5,15,4,9,2,10,14,1,7,13,6,3,11"
15001,commdev-image-keyboard-response,152,824651,learnblock1,29,img/planet12_left.png,12,Community 1,NA,TRUE,f,f,NA,NA,NA,5,7,"12,8,5,15,4,9,2,10,14,1,7,13,6,3,11"
15001,commdev-image-keyboard-response,153,825905,learnblock1,64,img/planet8_left.png,8,Community 1,NA,FALSE,j,f,NA,NA,NA,5,7,"12,8,5,15,4,9,2,10,14,1,7,13,6,3,11"
15001,commdev-image-keyboard-response,154,827159,learnblock1,0.2999999523162842,img/planet5_left.png,5,Community 1,NA,TRUE,f,f,NA,NA,NA,5,7,"12,8,5,15,4,9,2,10,14,1,7,13,6,3,11"
15001,commdev-image-keyboard-response,155,828416,learnblock1,452.2999999523163,img/planet15_right.png,15,Community 1,NA,TRUE,j,j,NA,NA,NA,5,7,"12,8,5,15,4,9,2,10,14,1,7,13,6,3,11"
15001,commdev-image-keyboard-response,156,829670,learnblock1,307.2000000476837,img/planet12_right.png,12,Community 1,NA,FALSE,f,j,NA,NA,NA,5,7,"12,8,5,15,4,9,2,10,14,1,7,13,6,3,11"
15001,commdev-image-keyboard-response,157,830927,learnblock1,62.299999952316284,img/planet15_left.png,15,Community 1,NA,FALSE,j,f,NA,NA,NA,5,7,"12,8,5,15,4,9,2,10,14,1,7,13,6,3,11"
15001,commdev-image-keyboard-response,158,832179,learnblock1,355.2000000476837,img/planet12_left.png,12,Community 1,NA,TRUE,f,f,NA,NA,NA,5,7,"12,8,5,15,4,9,2,10,14,1,7,13,6,3,11"
15001,commdev-image-keyboard-response,159,833431,learnblock1,945.4000000953674,img/planet5_left.png,5,Community 1,NA,TRUE,f,f,NA,NA,NA,5,7,"12,8,5,15,4,9,2,10,14,1,7,13,6,3,11"
15001,commdev-image-keyboard-response,160,834688,learnblock1,934.0999999046326,img/planet4_left.png,4,Community 1,NA,TRUE,f,f,NA,NA,NA,5,7,"12,8,5,15,4,9,2,10,14,1,7,13,6,3,11"
15001,commdev-image-keyboard-response,161,835942,learnblock1,638.8000001907349,img/planet7_right.png,7,Community 3,NA,TRUE,j,j,NA,NA,NA,5,7,"12,8,5,15,4,9,2,10,14,1,7,13,6,3,11"
15001,commdev-image-keyboard-response,162,837195,learnblock1,677.7999999523163,img/planet3_left.png,3,Community 3,NA,TRUE,f,f,NA,NA,NA,5,7,"12,8,5,15,4,9,2,10,14,1,7,13,6,3,11"
15001,commdev-image-keyboard-response,163,838450,learnblock1,456.19999980926514,img/planet6_right.png,6,Community 3,NA,TRUE,j,j,NA,NA,NA,5,7,"12,8,5,15,4,9,2,10,14,1,7,13,6,3,11"
15001,commdev-image-keyboard-response,164,839707,learnblock1,715.3000001907349,img/planet13_right.png,13,Community 3,NA,TRUE,j,j,NA,NA,NA,5,7,"12,8,5,15,4,9,2,10,14,1,7,13,6,3,11"
15001,commdev-image-keyboard-response,165,840960,learnblock1,688.8999998569489,img/planet6_left.png,6,Community 3,NA,TRUE,f,f,NA,NA,NA,5,7,"12,8,5,15,4,9,2,10,14,1,7,13,6,3,11"
15001,commdev-image-keyboard-response,166,842217,learnblock1,642.2000000476837,img/planet11_right.png,11,Community 3,NA,TRUE,j,j,NA,NA,NA,5,7,"12,8,5,15,4,9,2,10,14,1,7,13,6,3,11"
15001,commdev-image-keyboard-response,167,843475,learnblock1,498.59999990463257,img/planet13_left.png,13,Community 3,NA,TRUE,f,f,NA,NA,NA,5,7,"12,8,5,15,4,9,2,10,14,1,7,13,6,3,11"
15001,commdev-image-keyboard-response,168,844734,learnblock1,781.7000000476837,img/planet6_left.png,6,Community 3,NA,TRUE,f,f,NA,NA,NA,5,7,"12,8,5,15,4,9,2,10,14,1,7,13,6,3,11"
15001,commdev-image-keyboard-response,169,845993,learnblock1,555.0999999046326,img/planet13_right.png,13,Community 3,NA,TRUE,j,j,NA,NA,NA,5,7,"12,8,5,15,4,9,2,10,14,1,7,13,6,3,11"
15001,commdev-image-keyboard-response,170,847245,learnblock1,530.2999999523163,img/planet6_left.png,6,Community 3,NA,TRUE,f,f,NA,NA,NA,5,7,"12,8,5,15,4,9,2,10,14,1,7,13,6,3,11"
15001,commdev-image-keyboard-response,171,848511,learnblock1,262.10000014305115,img/planet3_left.png,3,Community 3,NA,FALSE,j,f,NA,NA,NA,5,7,"12,8,5,15,4,9,2,10,14,1,7,13,6,3,11"
15001,commdev-image-keyboard-response,172,849765,learnblock1,507.7000000476837,img/planet11_left.png,11,Community 3,NA,TRUE,f,f,NA,NA,NA,5,7,"12,8,5,15,4,9,2,10,14,1,7,13,6,3,11"
15001,commdev-image-keyboard-response,173,851019,learnblock1,519.2999999523163,img/planet6_right.png,6,Community 3,NA,TRUE,j,j,NA,NA,NA,5,7,"12,8,5,15,4,9,2,10,14,1,7,13,6,3,11"
15001,commdev-image-keyboard-response,174,852272,learnblock1,517.5,img/planet13_left.png,13,Community 3,NA,FALSE,j,f,NA,NA,NA,5,7,"12,8,5,15,4,9,2,10,14,1,7,13,6,3,11"
15001,commdev-image-keyboard-response,175,853531,learnblock1,721.2000000476837,img/planet3_right.png,3,Community 3,NA,TRUE,j,j,NA,NA,NA,5,7,"12,8,5,15,4,9,2,10,14,1,7,13,6,3,11"
15001,commdev-image-keyboard-response,176,854792,learnblock1,645.2999999523163,img/planet13_right.png,13,Community 3,NA,TRUE,j,j,NA,NA,NA,5,7,"12,8,5,15,4,9,2,10,14,1,7,13,6,3,11"
15001,commdev-image-keyboard-response,177,856052,learnblock1,515.0999999046326,img/planet3_right.png,3,Community 3,NA,TRUE,j,j,NA,NA,NA,5,7,"12,8,5,15,4,9,2,10,14,1,7,13,6,3,11"
15001,commdev-image-keyboard-response,178,857305,learnblock1,431.2999999523163,img/planet11_left.png,11,Community 3,NA,TRUE,f,f,NA,NA,NA,5,7,"12,8,5,15,4,9,2,10,14,1,7,13,6,3,11"
15001,commdev-image-keyboard-response,179,858561,learnblock1,579.5999999046326,img/planet13_right.png,13,Community 3,NA,TRUE,j,j,NA,NA,NA,5,7,"12,8,5,15,4,9,2,10,14,1,7,13,6,3,11"
15001,commdev-image-keyboard-response,180,859818,learnblock1,704.2999999523163,img/planet3_right.png,3,Community 3,NA,TRUE,j,j,NA,NA,NA,5,7,"12,8,5,15,4,9,2,10,14,1,7,13,6,3,11"
15001,commdev-image-keyboard-response,181,861077,learnblock1,582.2000000476837,img/planet7_right.png,7,Community 3,NA,TRUE,j,j,NA,NA,NA,5,7,"12,8,5,15,4,9,2,10,14,1,7,13,6,3,11"
15001,commdev-image-keyboard-response,182,862331,learnblock1,550.7999999523163,img/planet11_left.png,11,Community 3,NA,TRUE,f,f,NA,NA,NA,5,7,"12,8,5,15,4,9,2,10,14,1,7,13,6,3,11"
15001,commdev-image-keyboard-response,183,863588,learnblock1,608,img/planet13_left.png,13,Community 3,NA,TRUE,f,f,NA,NA,NA,5,7,"12,8,5,15,4,9,2,10,14,1,7,13,6,3,11"
15001,commdev-image-keyboard-response,184,864843,learnblock1,639.6999998092651,img/planet6_left.png,6,Community 3,NA,TRUE,f,f,NA,NA,NA,5,7,"12,8,5,15,4,9,2,10,14,1,7,13,6,3,11"
15001,commdev-image-keyboard-response,185,866102,learnblock1,563.7000000476837,img/planet11_left.png,11,Community 3,NA,TRUE,f,f,NA,NA,NA,5,7,"12,8,5,15,4,9,2,10,14,1,7,13,6,3,11"
15001,commdev-image-keyboard-response,186,867354,learnblock1,589.0999999046326,img/planet13_left.png,13,Community 3,NA,TRUE,f,f,NA,NA,NA,5,7,"12,8,5,15,4,9,2,10,14,1,7,13,6,3,11"
15001,commdev-image-keyboard-response,187,868610,learnblock1,993.5,img/planet10_right.png,10,Community 2,NA,TRUE,j,j,NA,NA,NA,5,7,"12,8,5,15,4,9,2,10,14,1,7,13,6,3,11"
15001,commdev-image-keyboard-response,188,869869,learnblock1,941.5,img/planet13_right.png,13,Community 3,NA,TRUE,j,j,NA,NA,NA,5,7,"12,8,5,15,4,9,2,10,14,1,7,13,6,3,11"
15001,commdev-image-keyboard-response,189,871126,learnblock1,863,img/planet3_right.png,3,Community 3,NA,TRUE,j,j,NA,NA,NA,5,7,"12,8,5,15,4,9,2,10,14,1,7,13,6,3,11"
15001,commdev-image-keyboard-response,190,872379,learnblock1,525.9000000953674,img/planet13_right.png,13,Community 3,NA,FALSE,f,j,NA,NA,NA,5,7,"12,8,5,15,4,9,2,10,14,1,7,13,6,3,11"
15001,commdev-image-keyboard-response,191,873635,learnblock1,903.4000000953674,img/planet10_right.png,10,Community 2,NA,TRUE,j,j,NA,NA,NA,5,7,"12,8,5,15,4,9,2,10,14,1,7,13,6,3,11"
15001,commdev-image-keyboard-response,192,874892,learnblock1,497.2000000476837,img/planet1_right.png,1,Community 2,NA,TRUE,j,j,NA,NA,NA,5,7,"12,8,5,15,4,9,2,10,14,1,7,13,6,3,11"
15001,commdev-image-keyboard-response,193,876149,learnblock1,525,img/planet14_right.png,14,Community 2,NA,TRUE,j,j,NA,NA,NA,5,7,"12,8,5,15,4,9,2,10,14,1,7,13,6,3,11"
15001,commdev-image-keyboard-response,194,877404,learnblock1,636.7000000476837,img/planet1_left.png,1,Community 2,NA,TRUE,f,f,NA,NA,NA,5,7,"12,8,5,15,4,9,2,10,14,1,7,13,6,3,11"
15001,commdev-image-keyboard-response,195,878661,learnblock1,null,img/planet10_right.png,10,Community 2,NA,FALSE,null,j,NA,NA,NA,5,7,"12,8,5,15,4,9,2,10,14,1,7,13,6,3,11"
15001,commdev-image-keyboard-response,196,879917,learnblock1,83.80000019073486,img/planet2_left.png,2,Community 2,NA,FALSE,j,f,NA,NA,NA,5,7,"12,8,5,15,4,9,2,10,14,1,7,13,6,3,11"
15001,commdev-image-keyboard-response,197,881177,learnblock1,721,img/planet1_left.png,1,Community 2,NA,TRUE,f,f,NA,NA,NA,5,7,"12,8,5,15,4,9,2,10,14,1,7,13,6,3,11"
15001,commdev-image-keyboard-response,198,882432,learnblock1,762.7000000476837,img/planet14_right.png,14,Community 2,NA,TRUE,j,j,NA,NA,NA,5,7,"12,8,5,15,4,9,2,10,14,1,7,13,6,3,11"
15001,commdev-image-keyboard-response,199,883694,learnblock1,593.5999999046326,img/planet1_left.png,1,Community 2,NA,TRUE,f,f,NA,NA,NA,5,7,"12,8,5,15,4,9,2,10,14,1,7,13,6,3,11"
15001,commdev-image-keyboard-response,200,884951,learnblock1,637.1999998092651,img/planet9_right.png,9,Community 2,NA,TRUE,j,j,NA,NA,NA,5,7,"12,8,5,15,4,9,2,10,14,1,7,13,6,3,11"
15001,commdev-image-keyboard-response,201,886207,learnblock1,304.90000009536743,img/planet2_right.png,2,Community 2,NA,FALSE,f,j,NA,NA,NA,5,7,"12,8,5,15,4,9,2,10,14,1,7,13,6,3,11"
15001,commdev-image-keyboard-response,202,887460,learnblock1,643.3000001907349,img/planet10_left.png,10,Community 2,NA,TRUE,f,f,NA,NA,NA,5,7,"12,8,5,15,4,9,2,10,14,1,7,13,6,3,11"
15001,commdev-image-keyboard-response,203,888712,learnblock1,666.2999999523163,img/planet1_right.png,1,Community 2,NA,TRUE,j,j,NA,NA,NA,5,7,"12,8,5,15,4,9,2,10,14,1,7,13,6,3,11"
15001,commdev-image-keyboard-response,204,889969,learnblock1,678,img/planet9_right.png,9,Community 2,NA,TRUE,j,j,NA,NA,NA,5,7,"12,8,5,15,4,9,2,10,14,1,7,13,6,3,11"
15001,commdev-image-keyboard-response,205,891228,learnblock1,905.8000001907349,img/planet2_right.png,2,Community 2,NA,TRUE,j,j,NA,NA,NA,5,7,"12,8,5,15,4,9,2,10,14,1,7,13,6,3,11"
15001,commdev-image-keyboard-response,206,892485,learnblock1,511.2999999523163,img/planet1_left.png,1,Community 2,NA,TRUE,f,f,NA,NA,NA,5,7,"12,8,5,15,4,9,2,10,14,1,7,13,6,3,11"
15001,commdev-image-keyboard-response,207,893741,learnblock1,292.40000009536743,img/planet14_right.png,14,Community 2,NA,TRUE,j,j,NA,NA,NA,5,7,"12,8,5,15,4,9,2,10,14,1,7,13,6,3,11"
15001,commdev-image-keyboard-response,208,895001,learnblock1,271.7999999523163,img/planet10_left.png,10,Community 2,NA,TRUE,f,f,NA,NA,NA,5,7,"12,8,5,15,4,9,2,10,14,1,7,13,6,3,11"
15001,commdev-image-keyboard-response,209,896256,learnblock1,275.7999999523163,img/planet13_left.png,13,Community 3,NA,FALSE,j,f,NA,NA,NA,5,7,"12,8,5,15,4,9,2,10,14,1,7,13,6,3,11"
15001,commdev-image-keyboard-response,210,897511,learnblock1,284.90000009536743,img/planet6_left.png,6,Community 3,NA,TRUE,f,f,NA,NA,NA,5,7,"12,8,5,15,4,9,2,10,14,1,7,13,6,3,11"
15001,commdev-image-keyboard-response,211,898768,learnblock1,676.4000000953674,img/planet7_left.png,7,Community 3,NA,TRUE,f,f,NA,NA,NA,5,7,"12,8,5,15,4,9,2,10,14,1,7,13,6,3,11"
15001,commdev-image-keyboard-response,212,900026,learnblock1,606,img/planet6_right.png,6,Community 3,NA,TRUE,j,j,NA,NA,NA,5,7,"12,8,5,15,4,9,2,10,14,1,7,13,6,3,11"
15001,commdev-image-keyboard-response,213,901278,learnblock1,1099.7999999523163,img/planet11_left.png,11,Community 3,NA,TRUE,f,f,NA,NA,NA,5,7,"12,8,5,15,4,9,2,10,14,1,7,13,6,3,11"
15001,commdev-image-keyboard-response,214,902534,learnblock1,567,img/planet6_left.png,6,Community 3,NA,FALSE,j,f,NA,NA,NA,5,7,"12,8,5,15,4,9,2,10,14,1,7,13,6,3,11"
15001,commdev-image-keyboard-response,215,903788,learnblock1,470.7000000476837,img/planet13_right.png,13,Community 3,NA,TRUE,j,j,NA,NA,NA,5,7,"12,8,5,15,4,9,2,10,14,1,7,13,6,3,11"
15001,commdev-image-keyboard-response,216,905046,learnblock1,498.10000014305115,img/planet11_left.png,11,Community 3,NA,TRUE,f,f,NA,NA,NA,5,7,"12,8,5,15,4,9,2,10,14,1,7,13,6,3,11"
15001,commdev-image-keyboard-response,217,906302,learnblock1,732.4000000953674,img/planet13_left.png,13,Community 3,NA,TRUE,f,f,NA,NA,NA,5,7,"12,8,5,15,4,9,2,10,14,1,7,13,6,3,11"
15001,commdev-image-keyboard-response,218,907561,learnblock1,null,img/planet11_left.png,11,Community 3,NA,FALSE,null,f,NA,NA,NA,5,7,"12,8,5,15,4,9,2,10,14,1,7,13,6,3,11"
15001,commdev-image-keyboard-response,219,908817,learnblock1,987,img/planet6_left.png,6,Community 3,NA,TRUE,f,f,NA,NA,NA,5,7,"12,8,5,15,4,9,2,10,14,1,7,13,6,3,11"
15001,commdev-image-keyboard-response,220,910071,learnblock1,1093.4000000953674,img/planet3_left.png,3,Community 3,NA,TRUE,f,f,NA,NA,NA,5,7,"12,8,5,15,4,9,2,10,14,1,7,13,6,3,11"
15001,commdev-image-keyboard-response,221,911328,learnblock1,715.3999998569489,img/planet11_right.png,11,Community 3,NA,TRUE,j,j,NA,NA,NA,5,7,"12,8,5,15,4,9,2,10,14,1,7,13,6,3,11"
15001,commdev-image-keyboard-response,222,912585,learnblock1,892.7999999523163,img/planet7_right.png,7,Community 3,NA,TRUE,j,j,NA,NA,NA,5,7,"12,8,5,15,4,9,2,10,14,1,7,13,6,3,11"
15001,commdev-image-keyboard-response,223,913847,learnblock1,771.8999998569489,img/planet6_right.png,6,Community 3,NA,FALSE,f,j,NA,NA,NA,5,7,"12,8,5,15,4,9,2,10,14,1,7,13,6,3,11"
15001,commdev-image-keyboard-response,224,915101,learnblock1,858.5,img/planet7_right.png,7,Community 3,NA,TRUE,j,j,NA,NA,NA,5,7,"12,8,5,15,4,9,2,10,14,1,7,13,6,3,11"
15001,commdev-image-keyboard-response,225,916353,learnblock1,1250.6000001430511,img/planet4_right.png,4,Community 1,NA,TRUE,j,j,NA,NA,NA,5,7,"12,8,5,15,4,9,2,10,14,1,7,13,6,3,11"
15001,commdev-image-keyboard-response,226,917608,learnblock1,795,img/planet8_right.png,8,Community 1,NA,FALSE,f,j,NA,NA,NA,5,7,"12,8,5,15,4,9,2,10,14,1,7,13,6,3,11"
15001,commdev-image-keyboard-response,227,918868,learnblock1,877.5,img/planet5_left.png,5,Community 1,NA,TRUE,f,f,NA,NA,NA,5,7,"12,8,5,15,4,9,2,10,14,1,7,13,6,3,11"
15001,commdev-image-keyboard-response,228,920126,learnblock1,895.6999998092651,img/planet12_right.png,12,Community 1,NA,TRUE,j,j,NA,NA,NA,5,7,"12,8,5,15,4,9,2,10,14,1,7,13,6,3,11"
15001,commdev-image-keyboard-response,229,921385,learnblock1,919.1000001430511,img/planet15_left.png,15,Community 1,NA,FALSE,j,f,NA,NA,NA,5,7,"12,8,5,15,4,9,2,10,14,1,7,13,6,3,11"
15001,commdev-image-keyboard-response,230,922640,learnblock1,808.9000000953674,img/planet8_right.png,8,Community 1,NA,TRUE,j,j,NA,NA,NA,5,7,"12,8,5,15,4,9,2,10,14,1,7,13,6,3,11"
15001,commdev-image-keyboard-response,231,923899,learnblock1,694.7999999523163,img/planet5_right.png,5,Community 1,NA,TRUE,j,j,NA,NA,NA,5,7,"12,8,5,15,4,9,2,10,14,1,7,13,6,3,11"
15001,commdev-image-keyboard-response,232,925160,learnblock1,466.2000000476837,img/planet4_left.png,4,Community 1,NA,TRUE,f,f,NA,NA,NA,5,7,"12,8,5,15,4,9,2,10,14,1,7,13,6,3,11"
15001,commdev-image-keyboard-response,233,926420,learnblock1,689.3000001907349,img/planet7_left.png,7,Community 3,NA,TRUE,f,f,NA,NA,NA,5,7,"12,8,5,15,4,9,2,10,14,1,7,13,6,3,11"
15001,commdev-image-keyboard-response,234,927674,learnblock1,647.8999998569489,img/planet4_right.png,4,Community 1,NA,TRUE,j,j,NA,NA,NA,5,7,"12,8,5,15,4,9,2,10,14,1,7,13,6,3,11"
15001,commdev-image-keyboard-response,235,928930,learnblock1,668.5,img/planet7_left.png,7,Community 3,NA,TRUE,f,f,NA,NA,NA,5,7,"12,8,5,15,4,9,2,10,14,1,7,13,6,3,11"
15001,commdev-image-keyboard-response,236,930184,learnblock1,478.2000000476837,img/planet3_left.png,3,Community 3,NA,TRUE,f,f,NA,NA,NA,5,7,"12,8,5,15,4,9,2,10,14,1,7,13,6,3,11"
15001,commdev-image-keyboard-response,237,931441,learnblock1,956.5,img/planet13_right.png,13,Community 3,NA,TRUE,j,j,NA,NA,NA,5,7,"12,8,5,15,4,9,2,10,14,1,7,13,6,3,11"
15001,commdev-image-keyboard-response,238,932696,learnblock1,892.7999999523163,img/planet3_right.png,3,Community 3,NA,TRUE,j,j,NA,NA,NA,5,7,"12,8,5,15,4,9,2,10,14,1,7,13,6,3,11"
15001,commdev-image-keyboard-response,239,933953,learnblock1,694.6000001430511,img/planet7_right.png,7,Community 3,NA,TRUE,j,j,NA,NA,NA,5,7,"12,8,5,15,4,9,2,10,14,1,7,13,6,3,11"
15001,commdev-image-keyboard-response,240,935209,learnblock1,761.7999999523163,img/planet6_left.png,6,Community 3,NA,TRUE,f,f,NA,NA,NA,5,7,"12,8,5,15,4,9,2,10,14,1,7,13,6,3,11"
15001,commdev-image-keyboard-response,241,936467,learnblock1,866,img/planet11_left.png,11,Community 3,NA,TRUE,f,f,NA,NA,NA,5,7,"12,8,5,15,4,9,2,10,14,1,7,13,6,3,11"
15001,commdev-image-keyboard-response,242,937720,learnblock1,719.3999998569489,img/planet3_left.png,3,Community 3,NA,TRUE,f,f,NA,NA,NA,5,7,"12,8,5,15,4,9,2,10,14,1,7,13,6,3,11"
15001,commdev-image-keyboard-response,243,938977,learnblock1,982.7999999523163,img/planet6_left.png,6,Community 3,NA,TRUE,f,f,NA,NA,NA,5,7,"12,8,5,15,4,9,2,10,14,1,7,13,6,3,11"
15001,commdev-image-keyboard-response,244,940235,learnblock1,812.2000000476837,img/planet7_left.png,7,Community 3,NA,TRUE,f,f,NA,NA,NA,5,7,"12,8,5,15,4,9,2,10,14,1,7,13,6,3,11"
15001,commdev-image-keyboard-response,245,941494,learnblock1,null,img/planet6_left.png,6,Community 3,NA,FALSE,null,f,NA,NA,NA,5,7,"12,8,5,15,4,9,2,10,14,1,7,13,6,3,11"
15001,commdev-image-keyboard-response,246,942747,learnblock1,1163.5,img/planet7_right.png,7,Community 3,NA,TRUE,j,j,NA,NA,NA,5,7,"12,8,5,15,4,9,2,10,14,1,7,13,6,3,11"
15001,commdev-image-keyboard-response,247,944002,learnblock1,1087.7000000476837,img/planet11_right.png,11,Community 3,NA,TRUE,j,j,NA,NA,NA,5,7,"12,8,5,15,4,9,2,10,14,1,7,13,6,3,11"
15001,commdev-image-keyboard-response,248,945256,learnblock1,830.5999999046326,img/planet6_left.png,6,Community 3,NA,TRUE,f,f,NA,NA,NA,5,7,"12,8,5,15,4,9,2,10,14,1,7,13,6,3,11"
15001,commdev-image-keyboard-response,249,946513,learnblock1,1071.2999999523163,img/planet3_right.png,3,Community 3,NA,FALSE,f,j,NA,NA,NA,5,7,"12,8,5,15,4,9,2,10,14,1,7,13,6,3,11"
15001,commdev-image-keyboard-response,250,947770,learnblock1,null,img/planet6_left.png,6,Community 3,NA,FALSE,null,f,NA,NA,NA,5,7,"12,8,5,15,4,9,2,10,14,1,7,13,6,3,11"
15001,commdev-image-keyboard-response,251,949027,learnblock1,837.5,img/planet3_right.png,3,Community 3,NA,TRUE,j,j,NA,NA,NA,5,7,"12,8,5,15,4,9,2,10,14,1,7,13,6,3,11"
15001,commdev-image-keyboard-response,252,950285,learnblock1,898.2999999523163,img/planet6_right.png,6,Community 3,NA,FALSE,f,j,NA,NA,NA,5,7,"12,8,5,15,4,9,2,10,14,1,7,13,6,3,11"
15001,commdev-image-keyboard-response,253,951543,learnblock1,985.0999999046326,img/planet13_right.png,13,Community 3,NA,FALSE,f,j,NA,NA,NA,5,7,"12,8,5,15,4,9,2,10,14,1,7,13,6,3,11"
15001,commdev-image-keyboard-response,254,952796,learnblock1,817.8000001907349,img/planet10_left.png,10,Community 2,NA,TRUE,f,f,NA,NA,NA,5,7,"12,8,5,15,4,9,2,10,14,1,7,13,6,3,11"
15001,commdev-image-keyboard-response,255,954053,learnblock1,682,img/planet14_right.png,14,Community 2,NA,TRUE,j,j,NA,NA,NA,5,7,"12,8,5,15,4,9,2,10,14,1,7,13,6,3,11"
15001,commdev-image-keyboard-response,256,955310,learnblock1,574.1999998092651,img/planet2_right.png,2,Community 2,NA,TRUE,j,j,NA,NA,NA,5,7,"12,8,5,15,4,9,2,10,14,1,7,13,6,3,11"
15001,commdev-image-keyboard-response,257,956571,learnblock1,588.7999999523163,img/planet9_left.png,9,Community 2,NA,TRUE,f,f,NA,NA,NA,5,7,"12,8,5,15,4,9,2,10,14,1,7,13,6,3,11"
15001,commdev-image-keyboard-response,258,957824,learnblock1,690.5999999046326,img/planet1_left.png,1,Community 2,NA,TRUE,f,f,NA,NA,NA,5,7,"12,8,5,15,4,9,2,10,14,1,7,13,6,3,11"
15001,commdev-image-keyboard-response,259,959080,learnblock1,740.0999999046326,img/planet10_left.png,10,Community 2,NA,TRUE,f,f,NA,NA,NA,5,7,"12,8,5,15,4,9,2,10,14,1,7,13,6,3,11"
15001,commdev-image-keyboard-response,260,960335,learnblock1,778.2000000476837,img/planet2_right.png,2,Community 2,NA,TRUE,j,j,NA,NA,NA,5,7,"12,8,5,15,4,9,2,10,14,1,7,13,6,3,11"
15001,commdev-image-keyboard-response,261,961594,learnblock1,900.7000000476837,img/planet14_right.png,14,Community 2,NA,FALSE,f,j,NA,NA,NA,5,7,"12,8,5,15,4,9,2,10,14,1,7,13,6,3,11"
15001,commdev-image-keyboard-response,262,962850,learnblock1,533.6999998092651,img/planet9_left.png,9,Community 2,NA,TRUE,f,f,NA,NA,NA,5,7,"12,8,5,15,4,9,2,10,14,1,7,13,6,3,11"
15001,commdev-image-keyboard-response,263,964110,learnblock1,561.7999999523163,img/planet15_left.png,15,Community 1,NA,FALSE,j,f,NA,NA,NA,5,7,"12,8,5,15,4,9,2,10,14,1,7,13,6,3,11"
15001,commdev-image-keyboard-response,264,965368,learnblock1,952.5,img/planet5_right.png,5,Community 1,NA,FALSE,f,j,NA,NA,NA,5,7,"12,8,5,15,4,9,2,10,14,1,7,13,6,3,11"
15001,commdev-image-keyboard-response,265,966625,learnblock1,797.0999999046326,img/planet12_right.png,12,Community 1,NA,TRUE,j,j,NA,NA,NA,5,7,"12,8,5,15,4,9,2,10,14,1,7,13,6,3,11"
15001,commdev-image-keyboard-response,266,967878,learnblock1,849.5,img/planet4_right.png,4,Community 1,NA,TRUE,j,j,NA,NA,NA,5,7,"12,8,5,15,4,9,2,10,14,1,7,13,6,3,11"
15001,commdev-image-keyboard-response,267,969135,learnblock1,849.0999999046326,img/planet5_right.png,5,Community 1,NA,TRUE,j,j,NA,NA,NA,5,7,"12,8,5,15,4,9,2,10,14,1,7,13,6,3,11"
15001,commdev-image-keyboard-response,268,970392,learnblock1,623.2999999523163,img/planet12_left.png,12,Community 1,NA,FALSE,j,f,NA,NA,NA,5,7,"12,8,5,15,4,9,2,10,14,1,7,13,6,3,11"
15001,commdev-image-keyboard-response,269,971654,learnblock1,462.09999990463257,img/planet4_right.png,4,Community 1,NA,TRUE,j,j,NA,NA,NA,5,7,"12,8,5,15,4,9,2,10,14,1,7,13,6,3,11"
15001,commdev-image-keyboard-response,270,972908,learnblock1,512.7000000476837,img/planet5_right.png,5,Community 1,NA,TRUE,j,j,NA,NA,NA,5,7,"12,8,5,15,4,9,2,10,14,1,7,13,6,3,11"
15001,commdev-image-keyboard-response,271,974167,learnblock1,794.2000000476837,img/planet15_right.png,15,Community 1,NA,TRUE,j,j,NA,NA,NA,5,7,"12,8,5,15,4,9,2,10,14,1,7,13,6,3,11"
15001,commdev-image-keyboard-response,272,975427,learnblock1,712.7000000476837,img/planet9_right.png,9,Community 2,NA,TRUE,j,j,NA,NA,NA,5,7,"12,8,5,15,4,9,2,10,14,1,7,13,6,3,11"
15001,commdev-image-keyboard-response,273,976686,learnblock1,871.5,img/planet14_right.png,14,Community 2,NA,TRUE,j,j,NA,NA,NA,5,7,"12,8,5,15,4,9,2,10,14,1,7,13,6,3,11"
15001,commdev-image-keyboard-response,274,977945,learnblock1,null,img/planet1_left.png,1,Community 2,NA,FALSE,null,f,NA,NA,NA,5,7,"12,8,5,15,4,9,2,10,14,1,7,13,6,3,11"
15001,commdev-image-keyboard-response,275,979202,learnblock1,36.09999990463257,img/planet2_right.png,2,Community 2,NA,TRUE,j,j,NA,NA,NA,5,7,"12,8,5,15,4,9,2,10,14,1,7,13,6,3,11"
15001,commdev-image-keyboard-response,276,980456,learnblock1,681.5,img/planet1_right.png,1,Community 2,NA,FALSE,f,j,NA,NA,NA,5,7,"12,8,5,15,4,9,2,10,14,1,7,13,6,3,11"
15001,commdev-image-keyboard-response,277,981711,learnblock1,554.4000000953674,img/planet10_right.png,10,Community 2,NA,TRUE,j,j,NA,NA,NA,5,7,"12,8,5,15,4,9,2,10,14,1,7,13,6,3,11"
15001,commdev-image-keyboard-response,278,982969,learnblock1,713.9000000953674,img/planet14_right.png,14,Community 2,NA,TRUE,j,j,NA,NA,NA,5,7,"12,8,5,15,4,9,2,10,14,1,7,13,6,3,11"
15001,commdev-image-keyboard-response,279,984227,learnblock1,671.2999999523163,img/planet10_left.png,10,Community 2,NA,TRUE,f,f,NA,NA,NA,5,7,"12,8,5,15,4,9,2,10,14,1,7,13,6,3,11"
15001,commdev-image-keyboard-response,280,985486,learnblock1,950,img/planet13_left.png,13,Community 3,NA,FALSE,j,f,NA,NA,NA,5,7,"12,8,5,15,4,9,2,10,14,1,7,13,6,3,11"
15001,commdev-image-keyboard-response,281,986743,learnblock1,null,img/planet11_right.png,11,Community 3,NA,FALSE,null,j,NA,NA,NA,5,7,"12,8,5,15,4,9,2,10,14,1,7,13,6,3,11"
15001,commdev-image-keyboard-response,282,987998,learnblock1,923.6999998092651,img/planet13_right.png,13,Community 3,NA,FALSE,f,j,NA,NA,NA,5,7,"12,8,5,15,4,9,2,10,14,1,7,13,6,3,11"
15001,commdev-image-keyboard-response,283,989253,learnblock1,915.9000000953674,img/planet11_left.png,11,Community 3,NA,TRUE,f,f,NA,NA,NA,5,7,"12,8,5,15,4,9,2,10,14,1,7,13,6,3,11"
15001,commdev-image-keyboard-response,284,990511,learnblock1,null,img/planet13_left.png,13,Community 3,NA,FALSE,null,f,NA,NA,NA,5,7,"12,8,5,15,4,9,2,10,14,1,7,13,6,3,11"
15001,commdev-image-keyboard-response,285,991765,learnblock1,268.30000019073486,img/planet6_left.png,6,Community 3,NA,TRUE,f,f,NA,NA,NA,5,7,"12,8,5,15,4,9,2,10,14,1,7,13,6,3,11"
15001,commdev-image-keyboard-response,286,993021,learnblock1,771.7999999523163,img/planet3_left.png,3,Community 3,NA,TRUE,f,f,NA,NA,NA,5,7,"12,8,5,15,4,9,2,10,14,1,7,13,6,3,11"
15001,commdev-image-keyboard-response,287,994276,learnblock1,716.5,img/planet13_right.png,13,Community 3,NA,TRUE,j,j,NA,NA,NA,5,7,"12,8,5,15,4,9,2,10,14,1,7,13,6,3,11"
15001,commdev-image-keyboard-response,288,995531,learnblock1,564.7999999523163,img/planet10_left.png,10,Community 2,NA,TRUE,f,f,NA,NA,NA,5,7,"12,8,5,15,4,9,2,10,14,1,7,13,6,3,11"
15001,commdev-image-keyboard-response,289,996786,learnblock1,null,img/planet2_left.png,2,Community 2,NA,FALSE,null,f,NA,NA,NA,5,7,"12,8,5,15,4,9,2,10,14,1,7,13,6,3,11"
15001,commdev-image-keyboard-response,290,998043,learnblock1,null,img/planet1_left.png,1,Community 2,NA,FALSE,null,f,NA,NA,NA,5,7,"12,8,5,15,4,9,2,10,14,1,7,13,6,3,11"
15001,commdev-image-keyboard-response,291,999296,learnblock1,null,img/planet10_right.png,10,Community 2,NA,FALSE,null,j,NA,NA,NA,5,7,"12,8,5,15,4,9,2,10,14,1,7,13,6,3,11"
15001,commdev-image-keyboard-response,292,1000552,learnblock1,69.5,img/planet13_left.png,13,Community 3,NA,FALSE,j,f,NA,NA,NA,5,7,"12,8,5,15,4,9,2,10,14,1,7,13,6,3,11"
15001,commdev-image-keyboard-response,293,1001806,learnblock1,1004.9000000953674,img/planet11_left.png,11,Community 3,NA,FALSE,j,f,NA,NA,NA,5,7,"12,8,5,15,4,9,2,10,14,1,7,13,6,3,11"
15001,commdev-image-keyboard-response,294,1003065,learnblock1,566.7999999523163,img/planet6_left.png,6,Community 3,NA,FALSE,j,f,NA,NA,NA,5,7,"12,8,5,15,4,9,2,10,14,1,7,13,6,3,11"
15001,commdev-image-keyboard-response,295,1004320,learnblock1,756.2000000476837,img/planet13_right.png,13,Community 3,NA,FALSE,f,j,NA,NA,NA,5,7,"12,8,5,15,4,9,2,10,14,1,7,13,6,3,11"
15001,commdev-image-keyboard-response,296,1005578,learnblock1,831.8999998569489,img/planet10_right.png,10,Community 2,NA,FALSE,f,j,NA,NA,NA,5,7,"12,8,5,15,4,9,2,10,14,1,7,13,6,3,11"
15001,commdev-image-keyboard-response,297,1006837,learnblock1,1085.2000000476837,img/planet13_right.png,13,Community 3,NA,TRUE,j,j,NA,NA,NA,5,7,"12,8,5,15,4,9,2,10,14,1,7,13,6,3,11"
15001,commdev-image-keyboard-response,298,1008094,learnblock1,860.2999999523163,img/planet11_right.png,11,Community 3,NA,FALSE,f,j,NA,NA,NA,5,7,"12,8,5,15,4,9,2,10,14,1,7,13,6,3,11"
15001,commdev-image-keyboard-response,299,1009346,learnblock1,966.4000000953674,img/planet13_right.png,13,Community 3,NA,FALSE,f,j,NA,NA,NA,5,7,"12,8,5,15,4,9,2,10,14,1,7,13,6,3,11"
15001,commdev-image-keyboard-response,300,1010603,learnblock1,814.4000000953674,img/planet10_left.png,10,Community 2,NA,FALSE,j,f,NA,NA,NA,5,7,"12,8,5,15,4,9,2,10,14,1,7,13,6,3,11"
15001,commdev-image-keyboard-response,301,1011855,learnblock1,746.7999999523163,img/planet2_right.png,2,Community 2,NA,TRUE,j,j,NA,NA,NA,5,7,"12,8,5,15,4,9,2,10,14,1,7,13,6,3,11"
15001,commdev-image-keyboard-response,302,1013112,learnblock1,763.7000000476837,img/planet10_right.png,10,Community 2,NA,FALSE,f,j,NA,NA,NA,5,7,"12,8,5,15,4,9,2,10,14,1,7,13,6,3,11"
15001,commdev-image-keyboard-response,303,1014365,learnblock1,737.8999998569489,img/planet2_left.png,2,Community 2,NA,TRUE,f,f,NA,NA,NA,5,7,"12,8,5,15,4,9,2,10,14,1,7,13,6,3,11"
15001,commdev-image-keyboard-response,304,1015620,learnblock1,833.5,img/planet1_left.png,1,Community 2,NA,FALSE,j,f,NA,NA,NA,5,7,"12,8,5,15,4,9,2,10,14,1,7,13,6,3,11"
15001,commdev-image-keyboard-response,305,1016877,learnblock1,null,img/planet2_right.png,2,Community 2,NA,FALSE,null,j,NA,NA,NA,5,7,"12,8,5,15,4,9,2,10,14,1,7,13,6,3,11"
15001,commdev-image-keyboard-response,306,1018136,learnblock1,799,img/planet1_right.png,1,Community 2,NA,TRUE,j,j,NA,NA,NA,5,7,"12,8,5,15,4,9,2,10,14,1,7,13,6,3,11"
15001,commdev-image-keyboard-response,307,1019389,learnblock1,867.0999999046326,img/planet2_right.png,2,Community 2,NA,TRUE,j,j,NA,NA,NA,5,7,"12,8,5,15,4,9,2,10,14,1,7,13,6,3,11"
15001,commdev-image-keyboard-response,308,1020646,learnblock1,727.1999998092651,img/planet14_right.png,14,Community 2,NA,TRUE,j,j,NA,NA,NA,5,7,"12,8,5,15,4,9,2,10,14,1,7,13,6,3,11"
15001,commdev-image-keyboard-response,309,1021903,learnblock1,576.3000001907349,img/planet1_left.png,1,Community 2,NA,FALSE,j,f,NA,NA,NA,5,7,"12,8,5,15,4,9,2,10,14,1,7,13,6,3,11"
15001,commdev-image-keyboard-response,310,1023163,learnblock1,641.8000001907349,img/planet14_right.png,14,Community 2,NA,TRUE,j,j,NA,NA,NA,5,7,"12,8,5,15,4,9,2,10,14,1,7,13,6,3,11"
15001,commdev-image-keyboard-response,311,1024415,learnblock1,731.2000000476837,img/planet2_left.png,2,Community 2,NA,TRUE,f,f,NA,NA,NA,5,7,"12,8,5,15,4,9,2,10,14,1,7,13,6,3,11"
15001,commdev-image-keyboard-response,312,1025671,learnblock1,695,img/planet9_left.png,9,Community 2,NA,TRUE,f,f,NA,NA,NA,5,7,"12,8,5,15,4,9,2,10,14,1,7,13,6,3,11"
15001,commdev-image-keyboard-response,313,1026928,learnblock1,817.5999999046326,img/planet2_right.png,2,Community 2,NA,TRUE,j,j,NA,NA,NA,5,7,"12,8,5,15,4,9,2,10,14,1,7,13,6,3,11"
15001,commdev-image-keyboard-response,314,1028186,learnblock1,724.5999999046326,img/planet9_right.png,9,Community 2,NA,TRUE,j,j,NA,NA,NA,5,7,"12,8,5,15,4,9,2,10,14,1,7,13,6,3,11"
15001,commdev-image-keyboard-response,315,1029439,learnblock1,622.4000000953674,img/planet1_left.png,1,Community 2,NA,TRUE,f,f,NA,NA,NA,5,7,"12,8,5,15,4,9,2,10,14,1,7,13,6,3,11"
15001,commdev-image-keyboard-response,316,1030696,learnblock1,724.6999998092651,img/planet10_left.png,10,Community 2,NA,TRUE,f,f,NA,NA,NA,5,7,"12,8,5,15,4,9,2,10,14,1,7,13,6,3,11"
15001,commdev-image-keyboard-response,317,1031951,learnblock1,775.0999999046326,img/planet1_right.png,1,Community 2,NA,TRUE,j,j,NA,NA,NA,5,7,"12,8,5,15,4,9,2,10,14,1,7,13,6,3,11"
15001,commdev-image-keyboard-response,318,1033208,learnblock1,980.9000000953674,img/planet2_left.png,2,Community 2,NA,TRUE,f,f,NA,NA,NA,5,7,"12,8,5,15,4,9,2,10,14,1,7,13,6,3,11"
15001,commdev-image-keyboard-response,319,1034464,learnblock1,603.5,img/planet1_right.png,1,Community 2,NA,TRUE,j,j,NA,NA,NA,5,7,"12,8,5,15,4,9,2,10,14,1,7,13,6,3,11"
15001,commdev-image-keyboard-response,320,1035720,learnblock1,494.89999985694885,img/planet10_left.png,10,Community 2,NA,TRUE,f,f,NA,NA,NA,5,7,"12,8,5,15,4,9,2,10,14,1,7,13,6,3,11"
15001,commdev-image-keyboard-response,321,1036978,learnblock1,507.2999999523163,img/planet14_right.png,14,Community 2,NA,TRUE,j,j,NA,NA,NA,5,7,"12,8,5,15,4,9,2,10,14,1,7,13,6,3,11"
15001,commdev-image-keyboard-response,322,1038236,learnblock1,536.2999999523163,img/planet9_left.png,9,Community 2,NA,TRUE,f,f,NA,NA,NA,5,7,"12,8,5,15,4,9,2,10,14,1,7,13,6,3,11"
15001,commdev-image-keyboard-response,323,1039490,learnblock1,441.10000014305115,img/planet2_right.png,2,Community 2,NA,TRUE,j,j,NA,NA,NA,5,7,"12,8,5,15,4,9,2,10,14,1,7,13,6,3,11"
15001,commdev-image-keyboard-response,324,1040746,learnblock1,533.1999998092651,img/planet10_left.png,10,Community 2,NA,TRUE,f,f,NA,NA,NA,5,7,"12,8,5,15,4,9,2,10,14,1,7,13,6,3,11"
15001,commdev-image-keyboard-response,325,1042003,learnblock1,572.5999999046326,img/planet13_left.png,13,Community 3,NA,TRUE,f,f,NA,NA,NA,5,7,"12,8,5,15,4,9,2,10,14,1,7,13,6,3,11"
15001,commdev-image-keyboard-response,326,1043261,learnblock1,654.2000000476837,img/planet3_left.png,3,Community 3,NA,TRUE,f,f,NA,NA,NA,5,7,"12,8,5,15,4,9,2,10,14,1,7,13,6,3,11"
15001,commdev-image-keyboard-response,327,1044514,learnblock1,609.5,img/planet13_left.png,13,Community 3,NA,TRUE,f,f,NA,NA,NA,5,7,"12,8,5,15,4,9,2,10,14,1,7,13,6,3,11"
15001,commdev-image-keyboard-response,328,1045770,learnblock1,509.5,img/planet11_right.png,11,Community 3,NA,TRUE,j,j,NA,NA,NA,5,7,"12,8,5,15,4,9,2,10,14,1,7,13,6,3,11"
15001,commdev-image-keyboard-response,329,1047031,learnblock1,595.3999998569489,img/planet3_right.png,3,Community 3,NA,TRUE,j,j,NA,NA,NA,5,7,"12,8,5,15,4,9,2,10,14,1,7,13,6,3,11"
15001,commdev-image-keyboard-response,330,1048288,learnblock1,536.7000000476837,img/planet13_left.png,13,Community 3,NA,TRUE,f,f,NA,NA,NA,5,7,"12,8,5,15,4,9,2,10,14,1,7,13,6,3,11"
15001,commdev-image-keyboard-response,331,1049544,learnblock1,503,img/planet10_left.png,10,Community 2,NA,TRUE,f,f,NA,NA,NA,5,7,"12,8,5,15,4,9,2,10,14,1,7,13,6,3,11"
15001,commdev-image-keyboard-response,332,1050800,learnblock1,627.5999999046326,img/planet2_left.png,2,Community 2,NA,TRUE,f,f,NA,NA,NA,5,7,"12,8,5,15,4,9,2,10,14,1,7,13,6,3,11"
15001,commdev-image-keyboard-response,333,1052058,learnblock1,597.3999998569489,img/planet9_right.png,9,Community 2,NA,TRUE,j,j,NA,NA,NA,5,7,"12,8,5,15,4,9,2,10,14,1,7,13,6,3,11"
15001,commdev-image-keyboard-response,334,1053315,learnblock1,619.1000001430511,img/planet1_left.png,1,Community 2,NA,FALSE,j,f,NA,NA,NA,5,7,"12,8,5,15,4,9,2,10,14,1,7,13,6,3,11"
15001,commdev-image-keyboard-response,335,1054568,learnblock1,475,img/planet10_left.png,10,Community 2,NA,TRUE,f,f,NA,NA,NA,5,7,"12,8,5,15,4,9,2,10,14,1,7,13,6,3,11"
15001,commdev-image-keyboard-response,336,1055823,learnblock1,500.5,img/planet13_right.png,13,Community 3,NA,TRUE,j,j,NA,NA,NA,5,7,"12,8,5,15,4,9,2,10,14,1,7,13,6,3,11"
15001,commdev-image-keyboard-response,337,1057081,learnblock1,766.8000001907349,img/planet10_right.png,10,Community 2,NA,TRUE,j,j,NA,NA,NA,5,7,"12,8,5,15,4,9,2,10,14,1,7,13,6,3,11"
15001,commdev-image-keyboard-response,338,1058337,learnblock1,628.7000000476837,img/planet1_right.png,1,Community 2,NA,TRUE,j,j,NA,NA,NA,5,7,"12,8,5,15,4,9,2,10,14,1,7,13,6,3,11"
15001,commdev-image-keyboard-response,339,1059590,learnblock1,555.5999999046326,img/planet2_left.png,2,Community 2,NA,TRUE,f,f,NA,NA,NA,5,7,"12,8,5,15,4,9,2,10,14,1,7,13,6,3,11"
15001,commdev-image-keyboard-response,340,1060845,learnblock1,775.7999999523163,img/planet10_right.png,10,Community 2,NA,TRUE,j,j,NA,NA,NA,5,7,"12,8,5,15,4,9,2,10,14,1,7,13,6,3,11"
15001,commdev-image-keyboard-response,341,1062104,learnblock1,602.7000000476837,img/planet14_right.png,14,Community 2,NA,TRUE,j,j,NA,NA,NA,5,7,"12,8,5,15,4,9,2,10,14,1,7,13,6,3,11"
15001,commdev-image-keyboard-response,342,1063360,learnblock1,653.2999999523163,img/planet10_right.png,10,Community 2,NA,TRUE,j,j,NA,NA,NA,5,7,"12,8,5,15,4,9,2,10,14,1,7,13,6,3,11"
15001,commdev-image-keyboard-response,343,1064617,learnblock1,930.2999999523163,img/planet13_left.png,13,Community 3,NA,TRUE,f,f,NA,NA,NA,5,7,"12,8,5,15,4,9,2,10,14,1,7,13,6,3,11"
15001,commdev-image-keyboard-response,344,1065876,learnblock1,993,img/planet11_right.png,11,Community 3,NA,TRUE,j,j,NA,NA,NA,5,7,"12,8,5,15,4,9,2,10,14,1,7,13,6,3,11"
15001,commdev-image-keyboard-response,345,1067138,learnblock1,null,img/planet3_left.png,3,Community 3,NA,FALSE,null,f,NA,NA,NA,5,7,"12,8,5,15,4,9,2,10,14,1,7,13,6,3,11"
15001,commdev-image-keyboard-response,346,1068395,learnblock1,1045.3000001907349,img/planet11_left.png,11,Community 3,NA,FALSE,j,f,NA,NA,NA,5,7,"12,8,5,15,4,9,2,10,14,1,7,13,6,3,11"
15001,commdev-image-keyboard-response,347,1069648,learnblock1,587,img/planet7_left.png,7,Community 3,NA,FALSE,j,f,NA,NA,NA,5,7,"12,8,5,15,4,9,2,10,14,1,7,13,6,3,11"
15001,commdev-image-keyboard-response,348,1070905,learnblock1,478.59999990463257,img/planet11_right.png,11,Community 3,NA,FALSE,f,j,NA,NA,NA,5,7,"12,8,5,15,4,9,2,10,14,1,7,13,6,3,11"
15001,commdev-image-keyboard-response,349,1072162,learnblock1,552.9000000953674,img/planet7_right.png,7,Community 3,NA,TRUE,j,j,NA,NA,NA,5,7,"12,8,5,15,4,9,2,10,14,1,7,13,6,3,11"
15001,commdev-image-keyboard-response,353,1084919,learnblock2,824.7999999523163,img/planet8_left.png,8,Community 1,NA,TRUE,f,f,NA,NA,NA,5,7,"12,8,5,15,4,9,2,10,14,1,7,13,6,3,11"
15001,commdev-image-keyboard-response,354,1086178,learnblock2,764.7000000476837,img/planet4_right.png,4,Community 1,NA,TRUE,j,j,NA,NA,NA,5,7,"12,8,5,15,4,9,2,10,14,1,7,13,6,3,11"
15001,commdev-image-keyboard-response,355,1087437,learnblock2,727.6000001430511,img/planet12_right.png,12,Community 1,NA,TRUE,j,j,NA,NA,NA,5,7,"12,8,5,15,4,9,2,10,14,1,7,13,6,3,11"
15001,commdev-image-keyboard-response,356,1088693,learnblock2,820,img/planet5_right.png,5,Community 1,NA,TRUE,j,j,NA,NA,NA,5,7,"12,8,5,15,4,9,2,10,14,1,7,13,6,3,11"
15001,commdev-image-keyboard-response,357,1089947,learnblock2,941.5,img/planet15_right.png,15,Community 1,NA,TRUE,j,j,NA,NA,NA,5,7,"12,8,5,15,4,9,2,10,14,1,7,13,6,3,11"
15001,commdev-image-keyboard-response,358,1091205,learnblock2,645.5999999046326,img/planet9_right.png,9,Community 2,NA,TRUE,j,j,NA,NA,NA,5,7,"12,8,5,15,4,9,2,10,14,1,7,13,6,3,11"
15001,commdev-image-keyboard-response,359,1092463,learnblock2,545.2999999523163,img/planet2_right.png,2,Community 2,NA,TRUE,j,j,NA,NA,NA,5,7,"12,8,5,15,4,9,2,10,14,1,7,13,6,3,11"
15001,commdev-image-keyboard-response,360,1093716,learnblock2,699.5999999046326,img/planet9_left.png,9,Community 2,NA,TRUE,f,f,NA,NA,NA,5,7,"12,8,5,15,4,9,2,10,14,1,7,13,6,3,11"
15001,commdev-image-keyboard-response,361,1094972,learnblock2,1227.5999999046326,img/planet1_right.png,1,Community 2,NA,TRUE,j,j,NA,NA,NA,5,7,"12,8,5,15,4,9,2,10,14,1,7,13,6,3,11"
15001,commdev-image-keyboard-response,362,1096230,learnblock2,593.5999999046326,img/planet2_left.png,2,Community 2,NA,TRUE,f,f,NA,NA,NA,5,7,"12,8,5,15,4,9,2,10,14,1,7,13,6,3,11"
15001,commdev-image-keyboard-response,363,1097482,learnblock2,1013.2000000476837,img/planet14_left.png,14,Community 2,NA,TRUE,f,f,NA,NA,NA,5,7,"12,8,5,15,4,9,2,10,14,1,7,13,6,3,11"
15001,commdev-image-keyboard-response,364,1098738,learnblock2,541,img/planet9_right.png,9,Community 2,NA,TRUE,j,j,NA,NA,NA,5,7,"12,8,5,15,4,9,2,10,14,1,7,13,6,3,11"
15001,commdev-image-keyboard-response,365,1099996,learnblock2,591.4000000953674,img/planet14_right.png,14,Community 2,NA,TRUE,j,j,NA,NA,NA,5,7,"12,8,5,15,4,9,2,10,14,1,7,13,6,3,11"
15001,commdev-image-keyboard-response,366,1101254,learnblock2,636.8000001907349,img/planet10_right.png,10,Community 2,NA,TRUE,j,j,NA,NA,NA,5,7,"12,8,5,15,4,9,2,10,14,1,7,13,6,3,11"
15001,commdev-image-keyboard-response,367,1102513,learnblock2,684.8999998569489,img/planet1_right.png,1,Community 2,NA,TRUE,j,j,NA,NA,NA,5,7,"12,8,5,15,4,9,2,10,14,1,7,13,6,3,11"
15001,commdev-image-keyboard-response,368,1103766,learnblock2,553,img/planet14_right.png,14,Community 2,NA,TRUE,j,j,NA,NA,NA,5,7,"12,8,5,15,4,9,2,10,14,1,7,13,6,3,11"
15001,commdev-image-keyboard-response,369,1105023,learnblock2,419,img/planet9_right.png,9,Community 2,NA,TRUE,j,j,NA,NA,NA,5,7,"12,8,5,15,4,9,2,10,14,1,7,13,6,3,11"
15001,commdev-image-keyboard-response,370,1106279,learnblock2,544.2000000476837,img/planet14_right.png,14,Community 2,NA,TRUE,j,j,NA,NA,NA,5,7,"12,8,5,15,4,9,2,10,14,1,7,13,6,3,11"
15001,commdev-image-keyboard-response,371,1107539,learnblock2,451.59999990463257,img/planet2_right.png,2,Community 2,NA,TRUE,j,j,NA,NA,NA,5,7,"12,8,5,15,4,9,2,10,14,1,7,13,6,3,11"
15001,commdev-image-keyboard-response,372,1108792,learnblock2,554.5999999046326,img/planet10_right.png,10,Community 2,NA,TRUE,j,j,NA,NA,NA,5,7,"12,8,5,15,4,9,2,10,14,1,7,13,6,3,11"
15001,commdev-image-keyboard-response,373,1110049,learnblock2,931.7000000476837,img/planet13_right.png,13,Community 3,NA,TRUE,j,j,NA,NA,NA,5,7,"12,8,5,15,4,9,2,10,14,1,7,13,6,3,11"
15001,commdev-image-keyboard-response,374,1111306,learnblock2,910.5,img/planet11_right.png,11,Community 3,NA,TRUE,j,j,NA,NA,NA,5,7,"12,8,5,15,4,9,2,10,14,1,7,13,6,3,11"
15001,commdev-image-keyboard-response,375,1112564,learnblock2,646.5,img/planet6_left.png,6,Community 3,NA,FALSE,j,f,NA,NA,NA,5,7,"12,8,5,15,4,9,2,10,14,1,7,13,6,3,11"
15001,commdev-image-keyboard-response,376,1113821,learnblock2,691.5,img/planet11_right.png,11,Community 3,NA,TRUE,j,j,NA,NA,NA,5,7,"12,8,5,15,4,9,2,10,14,1,7,13,6,3,11"
15001,commdev-image-keyboard-response,377,1115079,learnblock2,929.7999999523163,img/planet7_left.png,7,Community 3,NA,TRUE,f,f,NA,NA,NA,5,7,"12,8,5,15,4,9,2,10,14,1,7,13,6,3,11"
15001,commdev-image-keyboard-response,378,1116337,learnblock2,940.3000001907349,img/planet6_left.png,6,Community 3,NA,TRUE,f,f,NA,NA,NA,5,7,"12,8,5,15,4,9,2,10,14,1,7,13,6,3,11"
15001,commdev-image-keyboard-response,379,1117596,learnblock2,988.7999999523163,img/planet3_right.png,3,Community 3,NA,TRUE,j,j,NA,NA,NA,5,7,"12,8,5,15,4,9,2,10,14,1,7,13,6,3,11"
15001,commdev-image-keyboard-response,380,1118850,learnblock2,1185,img/planet7_right.png,7,Community 3,NA,TRUE,j,j,NA,NA,NA,5,7,"12,8,5,15,4,9,2,10,14,1,7,13,6,3,11"
15001,commdev-image-keyboard-response,381,1120106,learnblock2,1083.4000000953674,img/planet6_left.png,6,Community 3,NA,FALSE,j,f,NA,NA,NA,5,7,"12,8,5,15,4,9,2,10,14,1,7,13,6,3,11"
15001,commdev-image-keyboard-response,382,1121365,learnblock2,575,img/planet13_right.png,13,Community 3,NA,TRUE,j,j,NA,NA,NA,5,7,"12,8,5,15,4,9,2,10,14,1,7,13,6,3,11"
15001,commdev-image-keyboard-response,383,1122621,learnblock2,570.7999999523163,img/planet11_left.png,11,Community 3,NA,TRUE,f,f,NA,NA,NA,5,7,"12,8,5,15,4,9,2,10,14,1,7,13,6,3,11"
15001,commdev-image-keyboard-response,384,1123879,learnblock2,641.7000000476837,img/planet6_left.png,6,Community 3,NA,TRUE,f,f,NA,NA,NA,5,7,"12,8,5,15,4,9,2,10,14,1,7,13,6,3,11"
15001,commdev-image-keyboard-response,385,1125138,learnblock2,987.7999999523163,img/planet3_right.png,3,Community 3,NA,TRUE,j,j,NA,NA,NA,5,7,"12,8,5,15,4,9,2,10,14,1,7,13,6,3,11"
15001,commdev-image-keyboard-response,386,1126396,learnblock2,835.5,img/planet7_right.png,7,Community 3,NA,TRUE,j,j,NA,NA,NA,5,7,"12,8,5,15,4,9,2,10,14,1,7,13,6,3,11"
15001,commdev-image-keyboard-response,387,1127655,learnblock2,764.2000000476837,img/planet11_left.png,11,Community 3,NA,TRUE,f,f,NA,NA,NA,5,7,"12,8,5,15,4,9,2,10,14,1,7,13,6,3,11"
15001,commdev-image-keyboard-response,388,1128907,learnblock2,620.3999998569489,img/planet7_left.png,7,Community 3,NA,TRUE,f,f,NA,NA,NA,5,7,"12,8,5,15,4,9,2,10,14,1,7,13,6,3,11"
15001,commdev-image-keyboard-response,389,1130167,learnblock2,1185.7000000476837,img/planet4_left.png,4,Community 1,NA,TRUE,f,f,NA,NA,NA,5,7,"12,8,5,15,4,9,2,10,14,1,7,13,6,3,11"
15001,commdev-image-keyboard-response,390,1131424,learnblock2,818,img/planet5_left.png,5,Community 1,NA,TRUE,f,f,NA,NA,NA,5,7,"12,8,5,15,4,9,2,10,14,1,7,13,6,3,11"
15001,commdev-image-keyboard-response,391,1132679,learnblock2,751.0999999046326,img/planet12_left.png,12,Community 1,NA,TRUE,f,f,NA,NA,NA,5,7,"12,8,5,15,4,9,2,10,14,1,7,13,6,3,11"
15001,commdev-image-keyboard-response,392,1133932,learnblock2,758.7999999523163,img/planet4_right.png,4,Community 1,NA,TRUE,j,j,NA,NA,NA,5,7,"12,8,5,15,4,9,2,10,14,1,7,13,6,3,11"
15001,commdev-image-keyboard-response,393,1135190,learnblock2,642.3999998569489,img/planet12_right.png,12,Community 1,NA,TRUE,j,j,NA,NA,NA,5,7,"12,8,5,15,4,9,2,10,14,1,7,13,6,3,11"
15001,commdev-image-keyboard-response,394,1136448,learnblock2,609.0999999046326,img/planet4_left.png,4,Community 1,NA,TRUE,f,f,NA,NA,NA,5,7,"12,8,5,15,4,9,2,10,14,1,7,13,6,3,11"
15001,commdev-image-keyboard-response,395,1137704,learnblock2,729.2000000476837,img/planet5_left.png,5,Community 1,NA,TRUE,f,f,NA,NA,NA,5,7,"12,8,5,15,4,9,2,10,14,1,7,13,6,3,11"
15001,commdev-image-keyboard-response,396,1138964,learnblock2,null,img/planet15_left.png,15,Community 1,NA,FALSE,null,f,NA,NA,NA,5,7,"12,8,5,15,4,9,2,10,14,1,7,13,6,3,11"
15001,commdev-image-keyboard-response,397,1140222,learnblock2,67.89999985694885,img/planet8_right.png,8,Community 1,NA,FALSE,f,j,NA,NA,NA,5,7,"12,8,5,15,4,9,2,10,14,1,7,13,6,3,11"
15001,commdev-image-keyboard-response,398,1141481,learnblock2,625.1000001430511,img/planet4_right.png,4,Community 1,NA,TRUE,j,j,NA,NA,NA,5,7,"12,8,5,15,4,9,2,10,14,1,7,13,6,3,11"
15001,commdev-image-keyboard-response,399,1142737,learnblock2,641.5999999046326,img/planet12_right.png,12,Community 1,NA,FALSE,f,j,NA,NA,NA,5,7,"12,8,5,15,4,9,2,10,14,1,7,13,6,3,11"
15001,commdev-image-keyboard-response,400,1143991,learnblock2,1098.1000001430511,img/planet5_right.png,5,Community 1,NA,FALSE,f,j,NA,NA,NA,5,7,"12,8,5,15,4,9,2,10,14,1,7,13,6,3,11"
15001,commdev-image-keyboard-response,401,1145249,learnblock2,847.3000001907349,img/planet8_left.png,8,Community 1,NA,FALSE,j,f,NA,NA,NA,5,7,"12,8,5,15,4,9,2,10,14,1,7,13,6,3,11"
15001,commdev-image-keyboard-response,402,1146505,learnblock2,668.5999999046326,img/planet15_left.png,15,Community 1,NA,FALSE,j,f,NA,NA,NA,5,7,"12,8,5,15,4,9,2,10,14,1,7,13,6,3,11"
15001,commdev-image-keyboard-response,403,1147763,learnblock2,1179.6000001430511,img/planet5_left.png,5,Community 1,NA,FALSE,j,f,NA,NA,NA,5,7,"12,8,5,15,4,9,2,10,14,1,7,13,6,3,11"
15001,commdev-image-keyboard-response,404,1149016,learnblock2,610.7999999523163,img/planet8_left.png,8,Community 1,NA,TRUE,f,f,NA,NA,NA,5,7,"12,8,5,15,4,9,2,10,14,1,7,13,6,3,11"
15001,commdev-image-keyboard-response,405,1150274,learnblock2,610.7000000476837,img/planet12_left.png,12,Community 1,NA,TRUE,f,f,NA,NA,NA,5,7,"12,8,5,15,4,9,2,10,14,1,7,13,6,3,11"
15001,commdev-image-keyboard-response,406,1151532,learnblock2,966.6000001430511,img/planet5_left.png,5,Community 1,NA,TRUE,f,f,NA,NA,NA,5,7,"12,8,5,15,4,9,2,10,14,1,7,13,6,3,11"
15001,commdev-image-keyboard-response,407,1152787,learnblock2,555.0999999046326,img/planet8_right.png,8,Community 1,NA,TRUE,j,j,NA,NA,NA,5,7,"12,8,5,15,4,9,2,10,14,1,7,13,6,3,11"
15001,commdev-image-keyboard-response,408,1154041,learnblock2,1050.3999998569489,img/planet15_right.png,15,Community 1,NA,TRUE,j,j,NA,NA,NA,5,7,"12,8,5,15,4,9,2,10,14,1,7,13,6,3,11"
15001,commdev-image-keyboard-response,409,1155298,learnblock2,578.1000001430511,img/planet9_left.png,9,Community 2,NA,TRUE,f,f,NA,NA,NA,5,7,"12,8,5,15,4,9,2,10,14,1,7,13,6,3,11"
15001,commdev-image-keyboard-response,410,1156551,learnblock2,744.9000000953674,img/planet15_left.png,15,Community 1,NA,TRUE,f,f,NA,NA,NA,5,7,"12,8,5,15,4,9,2,10,14,1,7,13,6,3,11"
15001,commdev-image-keyboard-response,411,1157805,learnblock2,1218,img/planet5_left.png,5,Community 1,NA,TRUE,f,f,NA,NA,NA,5,7,"12,8,5,15,4,9,2,10,14,1,7,13,6,3,11"
15001,commdev-image-keyboard-response,412,1159065,learnblock2,null,img/planet12_right.png,12,Community 1,NA,FALSE,null,j,NA,NA,NA,5,7,"12,8,5,15,4,9,2,10,14,1,7,13,6,3,11"
15001,commdev-image-keyboard-response,413,1160323,learnblock2,161.59999990463257,img/planet5_right.png,5,Community 1,NA,TRUE,j,j,NA,NA,NA,5,7,"12,8,5,15,4,9,2,10,14,1,7,13,6,3,11"
15001,commdev-image-keyboard-response,414,1161580,learnblock2,701.6000001430511,img/planet12_right.png,12,Community 1,NA,TRUE,j,j,NA,NA,NA,5,7,"12,8,5,15,4,9,2,10,14,1,7,13,6,3,11"
15001,commdev-image-keyboard-response,415,1162840,learnblock2,471.7000000476837,img/planet8_left.png,8,Community 1,NA,TRUE,f,f,NA,NA,NA,5,7,"12,8,5,15,4,9,2,10,14,1,7,13,6,3,11"
15001,commdev-image-keyboard-response,416,1164096,learnblock2,640.6000001430511,img/planet15_left.png,15,Community 1,NA,FALSE,j,f,NA,NA,NA,5,7,"12,8,5,15,4,9,2,10,14,1,7,13,6,3,11"
15001,commdev-image-keyboard-response,417,1165355,learnblock2,714,img/planet8_right.png,8,Community 1,NA,FALSE,f,j,NA,NA,NA,5,7,"12,8,5,15,4,9,2,10,14,1,7,13,6,3,11"
15001,commdev-image-keyboard-response,418,1166613,learnblock2,null,img/planet12_right.png,12,Community 1,NA,FALSE,null,j,NA,NA,NA,5,7,"12,8,5,15,4,9,2,10,14,1,7,13,6,3,11"
15001,commdev-image-keyboard-response,419,1167870,learnblock2,597.2999999523163,img/planet4_right.png,4,Community 1,NA,TRUE,j,j,NA,NA,NA,5,7,"12,8,5,15,4,9,2,10,14,1,7,13,6,3,11"
15001,commdev-image-keyboard-response,420,1169124,learnblock2,831.0999999046326,img/planet7_left.png,7,Community 3,NA,TRUE,f,f,NA,NA,NA,5,7,"12,8,5,15,4,9,2,10,14,1,7,13,6,3,11"
15001,commdev-image-keyboard-response,421,1170381,learnblock2,645.5999999046326,img/planet4_right.png,4,Community 1,NA,TRUE,j,j,NA,NA,NA,5,7,"12,8,5,15,4,9,2,10,14,1,7,13,6,3,11"
15001,commdev-image-keyboard-response,422,1171638,learnblock2,1147.7000000476837,img/planet7_right.png,7,Community 3,NA,TRUE,j,j,NA,NA,NA,5,7,"12,8,5,15,4,9,2,10,14,1,7,13,6,3,11"
15001,commdev-image-keyboard-response,423,1172896,learnblock2,892.4000000953674,img/planet11_right.png,11,Community 3,NA,FALSE,f,j,NA,NA,NA,5,7,"12,8,5,15,4,9,2,10,14,1,7,13,6,3,11"
15001,commdev-image-keyboard-response,424,1174150,learnblock2,648,img/planet3_left.png,3,Community 3,NA,TRUE,f,f,NA,NA,NA,5,7,"12,8,5,15,4,9,2,10,14,1,7,13,6,3,11"
15001,commdev-image-keyboard-response,425,1175405,learnblock2,652.4000000953674,img/planet6_left.png,6,Community 3,NA,TRUE,f,f,NA,NA,NA,5,7,"12,8,5,15,4,9,2,10,14,1,7,13,6,3,11"
15001,commdev-image-keyboard-response,426,1176663,learnblock2,850.7999999523163,img/planet13_left.png,13,Community 3,NA,TRUE,f,f,NA,NA,NA,5,7,"12,8,5,15,4,9,2,10,14,1,7,13,6,3,11"
15001,commdev-image-keyboard-response,427,1177922,learnblock2,749.3999998569489,img/planet11_left.png,11,Community 3,NA,TRUE,f,f,NA,NA,NA,5,7,"12,8,5,15,4,9,2,10,14,1,7,13,6,3,11"
15001,commdev-image-keyboard-response,428,1179175,learnblock2,671.7999999523163,img/planet7_left.png,7,Community 3,NA,TRUE,f,f,NA,NA,NA,5,7,"12,8,5,15,4,9,2,10,14,1,7,13,6,3,11"
15001,commdev-image-keyboard-response,429,1180433,learnblock2,667.1999998092651,img/planet4_right.png,4,Community 1,NA,TRUE,j,j,NA,NA,NA,5,7,"12,8,5,15,4,9,2,10,14,1,7,13,6,3,11"
15001,commdev-image-keyboard-response,430,1181691,learnblock2,622,img/planet5_left.png,5,Community 1,NA,TRUE,f,f,NA,NA,NA,5,7,"12,8,5,15,4,9,2,10,14,1,7,13,6,3,11"
15001,commdev-image-keyboard-response,431,1182947,learnblock2,561.2000000476837,img/planet4_right.png,4,Community 1,NA,TRUE,j,j,NA,NA,NA,5,7,"12,8,5,15,4,9,2,10,14,1,7,13,6,3,11"
15001,commdev-image-keyboard-response,432,1184205,learnblock2,771.2999999523163,img/planet8_right.png,8,Community 1,NA,FALSE,f,j,NA,NA,NA,5,7,"12,8,5,15,4,9,2,10,14,1,7,13,6,3,11"
15001,commdev-image-keyboard-response,433,1185459,learnblock2,739.2000000476837,img/planet4_right.png,4,Community 1,NA,TRUE,j,j,NA,NA,NA,5,7,"12,8,5,15,4,9,2,10,14,1,7,13,6,3,11"
15001,commdev-image-keyboard-response,434,1186715,learnblock2,700,img/planet5_left.png,5,Community 1,NA,TRUE,f,f,NA,NA,NA,5,7,"12,8,5,15,4,9,2,10,14,1,7,13,6,3,11"
15001,commdev-image-keyboard-response,435,1187972,learnblock2,850,img/planet15_right.png,15,Community 1,NA,TRUE,j,j,NA,NA,NA,5,7,"12,8,5,15,4,9,2,10,14,1,7,13,6,3,11"
15001,commdev-image-keyboard-response,436,1189225,learnblock2,999.0999999046326,img/planet9_right.png,9,Community 2,NA,TRUE,j,j,NA,NA,NA,5,7,"12,8,5,15,4,9,2,10,14,1,7,13,6,3,11"
15001,commdev-image-keyboard-response,437,1190481,learnblock2,771.2999999523163,img/planet14_right.png,14,Community 2,NA,TRUE,j,j,NA,NA,NA,5,7,"12,8,5,15,4,9,2,10,14,1,7,13,6,3,11"
15001,commdev-image-keyboard-response,438,1191738,learnblock2,451.89999985694885,img/planet9_left.png,9,Community 2,NA,TRUE,f,f,NA,NA,NA,5,7,"12,8,5,15,4,9,2,10,14,1,7,13,6,3,11"
15001,commdev-image-keyboard-response,439,1192999,learnblock2,963.5999999046326,img/planet1_left.png,1,Community 2,NA,TRUE,f,f,NA,NA,NA,5,7,"12,8,5,15,4,9,2,10,14,1,7,13,6,3,11"
15001,commdev-image-keyboard-response,440,1194252,learnblock2,799,img/planet2_left.png,2,Community 2,NA,TRUE,f,f,NA,NA,NA,5,7,"12,8,5,15,4,9,2,10,14,1,7,13,6,3,11"
15001,commdev-image-keyboard-response,441,1195511,learnblock2,804.6999998092651,img/planet14_left.png,14,Community 2,NA,TRUE,f,f,NA,NA,NA,5,7,"12,8,5,15,4,9,2,10,14,1,7,13,6,3,11"
15001,commdev-image-keyboard-response,442,1196773,learnblock2,796.2000000476837,img/planet9_right.png,9,Community 2,NA,TRUE,j,j,NA,NA,NA,5,7,"12,8,5,15,4,9,2,10,14,1,7,13,6,3,11"
15001,commdev-image-keyboard-response,443,1198030,learnblock2,566.5,img/planet1_right.png,1,Community 2,NA,TRUE,j,j,NA,NA,NA,5,7,"12,8,5,15,4,9,2,10,14,1,7,13,6,3,11"
15001,commdev-image-keyboard-response,444,1199283,learnblock2,716.5999999046326,img/planet14_left.png,14,Community 2,NA,TRUE,f,f,NA,NA,NA,5,7,"12,8,5,15,4,9,2,10,14,1,7,13,6,3,11"
15001,commdev-image-keyboard-response,445,1200540,learnblock2,771.5999999046326,img/planet2_left.png,2,Community 2,NA,TRUE,f,f,NA,NA,NA,5,7,"12,8,5,15,4,9,2,10,14,1,7,13,6,3,11"
15001,commdev-image-keyboard-response,446,1201799,learnblock2,608.8000001907349,img/planet9_left.png,9,Community 2,NA,TRUE,f,f,NA,NA,NA,5,7,"12,8,5,15,4,9,2,10,14,1,7,13,6,3,11"
15001,commdev-image-keyboard-response,447,1203054,learnblock2,618.5,img/planet2_right.png,2,Community 2,NA,FALSE,f,j,NA,NA,NA,5,7,"12,8,5,15,4,9,2,10,14,1,7,13,6,3,11"
15001,commdev-image-keyboard-response,448,1204306,learnblock2,518.1999998092651,img/planet1_right.png,1,Community 2,NA,TRUE,j,j,NA,NA,NA,5,7,"12,8,5,15,4,9,2,10,14,1,7,13,6,3,11"
15001,commdev-image-keyboard-response,449,1205563,learnblock2,645,img/planet14_left.png,14,Community 2,NA,TRUE,f,f,NA,NA,NA,5,7,"12,8,5,15,4,9,2,10,14,1,7,13,6,3,11"
15001,commdev-image-keyboard-response,450,1206822,learnblock2,705.2999999523163,img/planet2_left.png,2,Community 2,NA,TRUE,f,f,NA,NA,NA,5,7,"12,8,5,15,4,9,2,10,14,1,7,13,6,3,11"
15001,commdev-image-keyboard-response,451,1208082,learnblock2,655,img/planet14_right.png,14,Community 2,NA,TRUE,j,j,NA,NA,NA,5,7,"12,8,5,15,4,9,2,10,14,1,7,13,6,3,11"
15001,commdev-image-keyboard-response,452,1209339,learnblock2,603.6999998092651,img/planet9_right.png,9,Community 2,NA,TRUE,j,j,NA,NA,NA,5,7,"12,8,5,15,4,9,2,10,14,1,7,13,6,3,11"
15001,commdev-image-keyboard-response,453,1210597,learnblock2,578.9000000953674,img/planet2_left.png,2,Community 2,NA,TRUE,f,f,NA,NA,NA,5,7,"12,8,5,15,4,9,2,10,14,1,7,13,6,3,11"
15001,commdev-image-keyboard-response,454,1211855,learnblock2,764.6000001430511,img/planet10_left.png,10,Community 2,NA,TRUE,f,f,NA,NA,NA,5,7,"12,8,5,15,4,9,2,10,14,1,7,13,6,3,11"
15001,commdev-image-keyboard-response,455,1213114,learnblock2,681.0999999046326,img/planet2_right.png,2,Community 2,NA,TRUE,j,j,NA,NA,NA,5,7,"12,8,5,15,4,9,2,10,14,1,7,13,6,3,11"
15001,commdev-image-keyboard-response,456,1214368,learnblock2,585,img/planet10_right.png,10,Community 2,NA,TRUE,j,j,NA,NA,NA,5,7,"12,8,5,15,4,9,2,10,14,1,7,13,6,3,11"
15001,commdev-image-keyboard-response,457,1215625,learnblock2,675.9000000953674,img/planet13_right.png,13,Community 3,NA,TRUE,j,j,NA,NA,NA,5,7,"12,8,5,15,4,9,2,10,14,1,7,13,6,3,11"
15001,commdev-image-keyboard-response,458,1216882,learnblock2,824.8999998569489,img/planet10_left.png,10,Community 2,NA,TRUE,f,f,NA,NA,NA,5,7,"12,8,5,15,4,9,2,10,14,1,7,13,6,3,11"
15001,commdev-image-keyboard-response,459,1218138,learnblock2,713.4000000953674,img/planet1_right.png,1,Community 2,NA,TRUE,j,j,NA,NA,NA,5,7,"12,8,5,15,4,9,2,10,14,1,7,13,6,3,11"
15001,commdev-image-keyboard-response,460,1219397,learnblock2,509.5,img/planet14_right.png,14,Community 2,NA,TRUE,j,j,NA,NA,NA,5,7,"12,8,5,15,4,9,2,10,14,1,7,13,6,3,11"
15001,commdev-image-keyboard-response,461,1220654,learnblock2,648,img/planet2_left.png,2,Community 2,NA,TRUE,f,f,NA,NA,NA,5,7,"12,8,5,15,4,9,2,10,14,1,7,13,6,3,11"
15001,commdev-image-keyboard-response,462,1221911,learnblock2,729.1999998092651,img/planet10_right.png,10,Community 2,NA,TRUE,j,j,NA,NA,NA,5,7,"12,8,5,15,4,9,2,10,14,1,7,13,6,3,11"
15001,commdev-image-keyboard-response,463,1223170,learnblock2,617,img/planet13_left.png,13,Community 3,NA,TRUE,f,f,NA,NA,NA,5,7,"12,8,5,15,4,9,2,10,14,1,7,13,6,3,11"
15001,commdev-image-keyboard-response,464,1224425,learnblock2,708.4000000953674,img/planet11_right.png,11,Community 3,NA,TRUE,j,j,NA,NA,NA,5,7,"12,8,5,15,4,9,2,10,14,1,7,13,6,3,11"
15001,commdev-image-keyboard-response,465,1225683,learnblock2,1036.0999999046326,img/planet7_right.png,7,Community 3,NA,TRUE,j,j,NA,NA,NA,5,7,"12,8,5,15,4,9,2,10,14,1,7,13,6,3,11"
15001,commdev-image-keyboard-response,466,1226938,learnblock2,718.5999999046326,img/planet6_right.png,6,Community 3,NA,TRUE,j,j,NA,NA,NA,5,7,"12,8,5,15,4,9,2,10,14,1,7,13,6,3,11"
15001,commdev-image-keyboard-response,467,1228197,learnblock2,560.9000000953674,img/planet3_right.png,3,Community 3,NA,TRUE,j,j,NA,NA,NA,5,7,"12,8,5,15,4,9,2,10,14,1,7,13,6,3,11"
15001,commdev-image-keyboard-response,468,1229453,learnblock2,532,img/planet13_left.png,13,Community 3,NA,TRUE,f,f,NA,NA,NA,5,7,"12,8,5,15,4,9,2,10,14,1,7,13,6,3,11"
15001,commdev-image-keyboard-response,469,1230714,learnblock2,829.0999999046326,img/planet11_left.png,11,Community 3,NA,TRUE,f,f,NA,NA,NA,5,7,"12,8,5,15,4,9,2,10,14,1,7,13,6,3,11"
15001,commdev-image-keyboard-response,470,1231973,learnblock2,866.6999998092651,img/planet7_right.png,7,Community 3,NA,TRUE,j,j,NA,NA,NA,5,7,"12,8,5,15,4,9,2,10,14,1,7,13,6,3,11"
15001,commdev-image-keyboard-response,471,1233229,learnblock2,720.2999999523163,img/planet11_left.png,11,Community 3,NA,TRUE,f,f,NA,NA,NA,5,7,"12,8,5,15,4,9,2,10,14,1,7,13,6,3,11"
15001,commdev-image-keyboard-response,472,1234484,learnblock2,849.2000000476837,img/planet6_left.png,6,Community 3,NA,TRUE,f,f,NA,NA,NA,5,7,"12,8,5,15,4,9,2,10,14,1,7,13,6,3,11"
15001,commdev-image-keyboard-response,473,1235740,learnblock2,755.2999999523163,img/planet3_right.png,3,Community 3,NA,TRUE,j,j,NA,NA,NA,5,7,"12,8,5,15,4,9,2,10,14,1,7,13,6,3,11"
15001,commdev-image-keyboard-response,474,1236997,learnblock2,1045.7999999523163,img/planet7_right.png,7,Community 3,NA,TRUE,j,j,NA,NA,NA,5,7,"12,8,5,15,4,9,2,10,14,1,7,13,6,3,11"
15001,commdev-image-keyboard-response,475,1238254,learnblock2,685.4000000953674,img/planet6_left.png,6,Community 3,NA,TRUE,f,f,NA,NA,NA,5,7,"12,8,5,15,4,9,2,10,14,1,7,13,6,3,11"
15001,commdev-image-keyboard-response,476,1239507,learnblock2,791.6000001430511,img/planet13_left.png,13,Community 3,NA,TRUE,f,f,NA,NA,NA,5,7,"12,8,5,15,4,9,2,10,14,1,7,13,6,3,11"
15001,commdev-image-keyboard-response,477,1240763,learnblock2,749.2000000476837,img/planet11_left.png,11,Community 3,NA,TRUE,f,f,NA,NA,NA,5,7,"12,8,5,15,4,9,2,10,14,1,7,13,6,3,11"
15001,commdev-image-keyboard-response,478,1242020,learnblock2,815.7000000476837,img/planet13_right.png,13,Community 3,NA,TRUE,j,j,NA,NA,NA,5,7,"12,8,5,15,4,9,2,10,14,1,7,13,6,3,11"
15001,commdev-image-keyboard-response,479,1243279,learnblock2,810.5999999046326,img/planet10_right.png,10,Community 2,NA,TRUE,j,j,NA,NA,NA,5,7,"12,8,5,15,4,9,2,10,14,1,7,13,6,3,11"
15001,commdev-image-keyboard-response,480,1244530,learnblock2,858.1999998092651,img/planet14_right.png,14,Community 2,NA,TRUE,j,j,NA,NA,NA,5,7,"12,8,5,15,4,9,2,10,14,1,7,13,6,3,11"
15001,commdev-image-keyboard-response,481,1245785,learnblock2,945,img/planet2_right.png,2,Community 2,NA,TRUE,j,j,NA,NA,NA,5,7,"12,8,5,15,4,9,2,10,14,1,7,13,6,3,11"
15001,commdev-image-keyboard-response,482,1247044,learnblock2,649.2000000476837,img/planet14_left.png,14,Community 2,NA,TRUE,f,f,NA,NA,NA,5,7,"12,8,5,15,4,9,2,10,14,1,7,13,6,3,11"
15001,commdev-image-keyboard-response,483,1248305,learnblock2,1064.3999998569489,img/planet9_right.png,9,Community 2,NA,TRUE,j,j,NA,NA,NA,5,7,"12,8,5,15,4,9,2,10,14,1,7,13,6,3,11"
15001,commdev-image-keyboard-response,484,1249559,learnblock2,945.7000000476837,img/planet14_left.png,14,Community 2,NA,TRUE,f,f,NA,NA,NA,5,7,"12,8,5,15,4,9,2,10,14,1,7,13,6,3,11"
15001,commdev-image-keyboard-response,485,1250817,learnblock2,789,img/planet2_left.png,2,Community 2,NA,TRUE,f,f,NA,NA,NA,5,7,"12,8,5,15,4,9,2,10,14,1,7,13,6,3,11"
15001,commdev-image-keyboard-response,486,1252074,learnblock2,625.6999998092651,img/planet10_right.png,10,Community 2,NA,TRUE,j,j,NA,NA,NA,5,7,"12,8,5,15,4,9,2,10,14,1,7,13,6,3,11"
15001,commdev-image-keyboard-response,487,1253331,learnblock2,553.7999999523163,img/planet2_right.png,2,Community 2,NA,TRUE,j,j,NA,NA,NA,5,7,"12,8,5,15,4,9,2,10,14,1,7,13,6,3,11"
15001,commdev-image-keyboard-response,488,1254584,learnblock2,700.4000000953674,img/planet10_left.png,10,Community 2,NA,TRUE,f,f,NA,NA,NA,5,7,"12,8,5,15,4,9,2,10,14,1,7,13,6,3,11"
15001,commdev-image-keyboard-response,489,1255843,learnblock2,593.5,img/planet14_right.png,14,Community 2,NA,TRUE,j,j,NA,NA,NA,5,7,"12,8,5,15,4,9,2,10,14,1,7,13,6,3,11"
15001,commdev-image-keyboard-response,490,1257102,learnblock2,575.7000000476837,img/planet9_right.png,9,Community 2,NA,TRUE,j,j,NA,NA,NA,5,7,"12,8,5,15,4,9,2,10,14,1,7,13,6,3,11"
15001,commdev-image-keyboard-response,491,1258357,learnblock2,548.2000000476837,img/planet1_right.png,1,Community 2,NA,TRUE,j,j,NA,NA,NA,5,7,"12,8,5,15,4,9,2,10,14,1,7,13,6,3,11"
15001,commdev-image-keyboard-response,492,1259610,learnblock2,474.09999990463257,img/planet2_right.png,2,Community 2,NA,TRUE,j,j,NA,NA,NA,5,7,"12,8,5,15,4,9,2,10,14,1,7,13,6,3,11"
15001,commdev-image-keyboard-response,493,1260872,learnblock2,389.90000009536743,img/planet9_left.png,9,Community 2,NA,FALSE,j,f,NA,NA,NA,5,7,"12,8,5,15,4,9,2,10,14,1,7,13,6,3,11"
15001,commdev-image-keyboard-response,494,1262131,learnblock2,536.2999999523163,img/planet15_left.png,15,Community 1,NA,TRUE,f,f,NA,NA,NA,5,7,"12,8,5,15,4,9,2,10,14,1,7,13,6,3,11"
15001,commdev-image-keyboard-response,495,1263403,learnblock2,1170.5999999046326,img/planet12_left.png,12,Community 1,NA,TRUE,f,f,NA,NA,NA,5,7,"12,8,5,15,4,9,2,10,14,1,7,13,6,3,11"
15001,commdev-image-keyboard-response,496,1264659,learnblock2,683.2000000476837,img/planet5_left.png,5,Community 1,NA,TRUE,f,f,NA,NA,NA,5,7,"12,8,5,15,4,9,2,10,14,1,7,13,6,3,11"
15001,commdev-image-keyboard-response,497,1265915,learnblock2,615.5,img/planet15_right.png,15,Community 1,NA,TRUE,j,j,NA,NA,NA,5,7,"12,8,5,15,4,9,2,10,14,1,7,13,6,3,11"
15001,commdev-image-keyboard-response,498,1267170,learnblock2,null,img/planet12_right.png,12,Community 1,NA,FALSE,null,j,NA,NA,NA,5,7,"12,8,5,15,4,9,2,10,14,1,7,13,6,3,11"
15001,commdev-image-keyboard-response,499,1268429,learnblock2,85.5,img/planet15_right.png,15,Community 1,NA,TRUE,j,j,NA,NA,NA,5,7,"12,8,5,15,4,9,2,10,14,1,7,13,6,3,11"
15001,commdev-image-keyboard-response,500,1269683,learnblock2,632,img/planet8_left.png,8,Community 1,NA,TRUE,f,f,NA,NA,NA,5,7,"12,8,5,15,4,9,2,10,14,1,7,13,6,3,11"
15001,commdev-image-keyboard-response,501,1270937,learnblock2,834.6000001430511,img/planet4_left.png,4,Community 1,NA,TRUE,f,f,NA,NA,NA,5,7,"12,8,5,15,4,9,2,10,14,1,7,13,6,3,11"
15001,commdev-image-keyboard-response,502,1272195,learnblock2,572.1000001430511,img/planet12_right.png,12,Community 1,NA,TRUE,j,j,NA,NA,NA,5,7,"12,8,5,15,4,9,2,10,14,1,7,13,6,3,11"
15001,commdev-image-keyboard-response,503,1273450,learnblock2,711.4000000953674,img/planet4_left.png,4,Community 1,NA,FALSE,j,f,NA,NA,NA,5,7,"12,8,5,15,4,9,2,10,14,1,7,13,6,3,11"
15001,commdev-image-keyboard-response,504,1274701,learnblock2,739.0999999046326,img/planet12_right.png,12,Community 1,NA,TRUE,j,j,NA,NA,NA,5,7,"12,8,5,15,4,9,2,10,14,1,7,13,6,3,11"
15001,commdev-image-keyboard-response,505,1275956,learnblock2,674.8999998569489,img/planet4_right.png,4,Community 1,NA,TRUE,j,j,NA,NA,NA,5,7,"12,8,5,15,4,9,2,10,14,1,7,13,6,3,11"
15001,commdev-image-keyboard-response,506,1277212,learnblock2,709.2999999523163,img/planet12_right.png,12,Community 1,NA,TRUE,j,j,NA,NA,NA,5,7,"12,8,5,15,4,9,2,10,14,1,7,13,6,3,11"
15001,commdev-image-keyboard-response,507,1278468,learnblock2,629.4000000953674,img/planet4_right.png,4,Community 1,NA,TRUE,j,j,NA,NA,NA,5,7,"12,8,5,15,4,9,2,10,14,1,7,13,6,3,11"
15001,commdev-image-keyboard-response,508,1279721,learnblock2,null,img/planet12_right.png,12,Community 1,NA,FALSE,null,j,NA,NA,NA,5,7,"12,8,5,15,4,9,2,10,14,1,7,13,6,3,11"
15001,commdev-image-keyboard-response,509,1280975,learnblock2,14.099999904632568,img/planet4_left.png,4,Community 1,NA,FALSE,j,f,NA,NA,NA,5,7,"12,8,5,15,4,9,2,10,14,1,7,13,6,3,11"
15001,commdev-image-keyboard-response,510,1282229,learnblock2,698.9000000953674,img/planet7_left.png,7,Community 3,NA,TRUE,f,f,NA,NA,NA,5,7,"12,8,5,15,4,9,2,10,14,1,7,13,6,3,11"
15001,commdev-image-keyboard-response,511,1283485,learnblock2,708.2000000476837,img/planet6_left.png,6,Community 3,NA,TRUE,f,f,NA,NA,NA,5,7,"12,8,5,15,4,9,2,10,14,1,7,13,6,3,11"
15001,commdev-image-keyboard-response,512,1284737,learnblock2,757.5,img/planet13_right.png,13,Community 3,NA,TRUE,j,j,NA,NA,NA,5,7,"12,8,5,15,4,9,2,10,14,1,7,13,6,3,11"
15001,commdev-image-keyboard-response,513,1285994,learnblock2,703.7000000476837,img/planet3_left.png,3,Community 3,NA,TRUE,f,f,NA,NA,NA,5,7,"12,8,5,15,4,9,2,10,14,1,7,13,6,3,11"
15001,commdev-image-keyboard-response,514,1287257,learnblock2,869.7999999523163,img/planet11_left.png,11,Community 3,NA,TRUE,f,f,NA,NA,NA,5,7,"12,8,5,15,4,9,2,10,14,1,7,13,6,3,11"
15001,commdev-image-keyboard-response,515,1288514,learnblock2,568.8999998569489,img/planet13_left.png,13,Community 3,NA,TRUE,f,f,NA,NA,NA,5,7,"12,8,5,15,4,9,2,10,14,1,7,13,6,3,11"
15001,commdev-image-keyboard-response,516,1289769,learnblock2,643.6999998092651,img/planet6_left.png,6,Community 3,NA,TRUE,f,f,NA,NA,NA,5,7,"12,8,5,15,4,9,2,10,14,1,7,13,6,3,11"
15001,commdev-image-keyboard-response,517,1291029,learnblock2,678.6000001430511,img/planet3_right.png,3,Community 3,NA,TRUE,j,j,NA,NA,NA,5,7,"12,8,5,15,4,9,2,10,14,1,7,13,6,3,11"
15001,commdev-image-keyboard-response,518,1292283,learnblock2,null,img/planet11_left.png,11,Community 3,NA,FALSE,null,f,NA,NA,NA,5,7,"12,8,5,15,4,9,2,10,14,1,7,13,6,3,11"
15001,commdev-image-keyboard-response,519,1293542,learnblock2,716.2000000476837,img/planet3_right.png,3,Community 3,NA,FALSE,f,j,NA,NA,NA,5,7,"12,8,5,15,4,9,2,10,14,1,7,13,6,3,11"
15001,commdev-image-keyboard-response,520,1294799,learnblock2,879.2000000476837,img/planet11_left.png,11,Community 3,NA,TRUE,f,f,NA,NA,NA,5,7,"12,8,5,15,4,9,2,10,14,1,7,13,6,3,11"
15001,commdev-image-keyboard-response,521,1296057,learnblock2,null,img/planet6_left.png,6,Community 3,NA,FALSE,null,f,NA,NA,NA,5,7,"12,8,5,15,4,9,2,10,14,1,7,13,6,3,11"
15001,commdev-image-keyboard-response,522,1297316,learnblock2,128.40000009536743,img/planet7_left.png,7,Community 3,NA,TRUE,f,f,NA,NA,NA,5,7,"12,8,5,15,4,9,2,10,14,1,7,13,6,3,11"
15001,commdev-image-keyboard-response,523,1298571,learnblock2,1228.9000000953674,img/planet4_left.png,4,Community 1,NA,TRUE,f,f,NA,NA,NA,5,7,"12,8,5,15,4,9,2,10,14,1,7,13,6,3,11"
15001,commdev-image-keyboard-response,524,1299825,learnblock2,816.9000000953674,img/planet8_right.png,8,Community 1,NA,TRUE,j,j,NA,NA,NA,5,7,"12,8,5,15,4,9,2,10,14,1,7,13,6,3,11"
15001,commdev-image-keyboard-response,525,1301084,learnblock2,463.39999985694885,img/planet5_left.png,5,Community 1,NA,TRUE,f,f,NA,NA,NA,5,7,"12,8,5,15,4,9,2,10,14,1,7,13,6,3,11"
15001,commdev-image-keyboard-response,526,1302339,learnblock2,749.2999999523163,img/planet15_right.png,15,Community 1,NA,TRUE,j,j,NA,NA,NA,5,7,"12,8,5,15,4,9,2,10,14,1,7,13,6,3,11"
15001,commdev-image-keyboard-response,527,1303595,learnblock2,937.5999999046326,img/planet5_left.png,5,Community 1,NA,TRUE,f,f,NA,NA,NA,5,7,"12,8,5,15,4,9,2,10,14,1,7,13,6,3,11"
15001,commdev-image-keyboard-response,528,1304851,learnblock2,853.9000000953674,img/planet8_right.png,8,Community 1,NA,TRUE,j,j,NA,NA,NA,5,7,"12,8,5,15,4,9,2,10,14,1,7,13,6,3,11"
15001,commdev-image-keyboard-response,529,1306107,learnblock2,698.4000000953674,img/planet4_left.png,4,Community 1,NA,TRUE,f,f,NA,NA,NA,5,7,"12,8,5,15,4,9,2,10,14,1,7,13,6,3,11"
15001,commdev-image-keyboard-response,530,1307363,learnblock2,731,img/planet5_right.png,5,Community 1,NA,TRUE,j,j,NA,NA,NA,5,7,"12,8,5,15,4,9,2,10,14,1,7,13,6,3,11"
15001,commdev-image-keyboard-response,531,1308619,learnblock2,484.5,img/planet8_left.png,8,Community 1,NA,TRUE,f,f,NA,NA,NA,5,7,"12,8,5,15,4,9,2,10,14,1,7,13,6,3,11"
15001,commdev-image-keyboard-response,532,1309873,learnblock2,409,img/planet12_right.png,12,Community 1,NA,TRUE,j,j,NA,NA,NA,5,7,"12,8,5,15,4,9,2,10,14,1,7,13,6,3,11"
15001,commdev-image-keyboard-response,533,1311133,learnblock2,1164.7999999523163,img/planet15_right.png,15,Community 1,NA,TRUE,j,j,NA,NA,NA,5,7,"12,8,5,15,4,9,2,10,14,1,7,13,6,3,11"
15001,commdev-image-keyboard-response,534,1312391,learnblock2,534.4000000953674,img/planet8_left.png,8,Community 1,NA,TRUE,f,f,NA,NA,NA,5,7,"12,8,5,15,4,9,2,10,14,1,7,13,6,3,11"
15001,commdev-image-keyboard-response,535,1313650,learnblock2,629.2000000476837,img/planet5_left.png,5,Community 1,NA,FALSE,j,f,NA,NA,NA,5,7,"12,8,5,15,4,9,2,10,14,1,7,13,6,3,11"
15001,commdev-image-keyboard-response,536,1314907,learnblock2,975.5,img/planet15_left.png,15,Community 1,NA,TRUE,f,f,NA,NA,NA,5,7,"12,8,5,15,4,9,2,10,14,1,7,13,6,3,11"
15001,commdev-image-keyboard-response,537,1316167,learnblock2,642.3000001907349,img/planet12_right.png,12,Community 1,NA,TRUE,j,j,NA,NA,NA,5,7,"12,8,5,15,4,9,2,10,14,1,7,13,6,3,11"
15001,commdev-image-keyboard-response,538,1317422,learnblock2,658.3999998569489,img/planet8_left.png,8,Community 1,NA,TRUE,f,f,NA,NA,NA,5,7,"12,8,5,15,4,9,2,10,14,1,7,13,6,3,11"
15001,commdev-image-keyboard-response,539,1318677,learnblock2,1085,img/planet12_right.png,12,Community 1,NA,TRUE,j,j,NA,NA,NA,5,7,"12,8,5,15,4,9,2,10,14,1,7,13,6,3,11"
15001,commdev-image-keyboard-response,540,1319930,learnblock2,705.1000001430511,img/planet5_left.png,5,Community 1,NA,TRUE,f,f,NA,NA,NA,5,7,"12,8,5,15,4,9,2,10,14,1,7,13,6,3,11"
15001,commdev-image-keyboard-response,541,1321185,learnblock2,695,img/planet15_left.png,15,Community 1,NA,FALSE,j,f,NA,NA,NA,5,7,"12,8,5,15,4,9,2,10,14,1,7,13,6,3,11"
15001,commdev-image-keyboard-response,542,1322440,learnblock2,771.9000000953674,img/planet12_right.png,12,Community 1,NA,TRUE,j,j,NA,NA,NA,5,7,"12,8,5,15,4,9,2,10,14,1,7,13,6,3,11"
15001,commdev-image-keyboard-response,543,1323698,learnblock2,846,img/planet15_left.png,15,Community 1,NA,TRUE,f,f,NA,NA,NA,5,7,"12,8,5,15,4,9,2,10,14,1,7,13,6,3,11"
15001,commdev-image-keyboard-response,544,1324954,learnblock2,null,img/planet8_left.png,8,Community 1,NA,FALSE,null,f,NA,NA,NA,5,7,"12,8,5,15,4,9,2,10,14,1,7,13,6,3,11"
15001,commdev-image-keyboard-response,545,1326212,learnblock2,839.9000000953674,img/planet12_right.png,12,Community 1,NA,FALSE,f,j,NA,NA,NA,5,7,"12,8,5,15,4,9,2,10,14,1,7,13,6,3,11"
15001,commdev-image-keyboard-response,546,1327471,learnblock2,951.7000000476837,img/planet5_left.png,5,Community 1,NA,FALSE,j,f,NA,NA,NA,5,7,"12,8,5,15,4,9,2,10,14,1,7,13,6,3,11"
15001,commdev-image-keyboard-response,547,1328726,learnblock2,1133.6000001430511,img/planet12_left.png,12,Community 1,NA,TRUE,f,f,NA,NA,NA,5,7,"12,8,5,15,4,9,2,10,14,1,7,13,6,3,11"
15001,commdev-image-keyboard-response,548,1329982,learnblock2,null,img/planet5_left.png,5,Community 1,NA,FALSE,null,f,NA,NA,NA,5,7,"12,8,5,15,4,9,2,10,14,1,7,13,6,3,11"
15001,commdev-image-keyboard-response,549,1331240,learnblock2,635.4000000953674,img/planet4_left.png,4,Community 1,NA,TRUE,f,f,NA,NA,NA,5,7,"12,8,5,15,4,9,2,10,14,1,7,13,6,3,11"
15001,commdev-image-keyboard-response,550,1332496,learnblock2,683,img/planet8_left.png,8,Community 1,NA,TRUE,f,f,NA,NA,NA,5,7,"12,8,5,15,4,9,2,10,14,1,7,13,6,3,11"
15001,commdev-image-keyboard-response,551,1333750,learnblock2,665.0999999046326,img/planet5_left.png,5,Community 1,NA,TRUE,f,f,NA,NA,NA,5,7,"12,8,5,15,4,9,2,10,14,1,7,13,6,3,11"
15001,commdev-image-keyboard-response,552,1335007,learnblock2,921.2999999523163,img/planet15_left.png,15,Community 1,NA,TRUE,f,f,NA,NA,NA,5,7,"12,8,5,15,4,9,2,10,14,1,7,13,6,3,11"
15001,commdev-image-keyboard-response,553,1336264,learnblock2,621.8999998569489,img/planet9_left.png,9,Community 2,NA,TRUE,f,f,NA,NA,NA,5,7,"12,8,5,15,4,9,2,10,14,1,7,13,6,3,11"
15001,commdev-image-keyboard-response,554,1337523,learnblock2,605.6999998092651,img/planet2_left.png,2,Community 2,NA,TRUE,f,f,NA,NA,NA,5,7,"12,8,5,15,4,9,2,10,14,1,7,13,6,3,11"
15001,commdev-image-keyboard-response,555,1338781,learnblock2,583.8999998569489,img/planet1_left.png,1,Community 2,NA,TRUE,f,f,NA,NA,NA,5,7,"12,8,5,15,4,9,2,10,14,1,7,13,6,3,11"
15001,commdev-image-keyboard-response,556,1340035,learnblock2,811.5,img/planet2_right.png,2,Community 2,NA,TRUE,j,j,NA,NA,NA,5,7,"12,8,5,15,4,9,2,10,14,1,7,13,6,3,11"
15001,commdev-image-keyboard-response,557,1341291,learnblock2,566.4000000953674,img/planet10_left.png,10,Community 2,NA,FALSE,j,f,NA,NA,NA,5,7,"12,8,5,15,4,9,2,10,14,1,7,13,6,3,11"
15001,commdev-image-keyboard-response,558,1342548,learnblock2,637.7000000476837,img/planet13_right.png,13,Community 3,NA,FALSE,f,j,NA,NA,NA,5,7,"12,8,5,15,4,9,2,10,14,1,7,13,6,3,11"
15001,commdev-image-keyboard-response,559,1343805,learnblock2,710.7000000476837,img/planet3_left.png,3,Community 3,NA,TRUE,f,f,NA,NA,NA,5,7,"12,8,5,15,4,9,2,10,14,1,7,13,6,3,11"
15001,commdev-image-keyboard-response,560,1345060,learnblock2,964.7999999523163,img/planet11_right.png,11,Community 3,NA,TRUE,j,j,NA,NA,NA,5,7,"12,8,5,15,4,9,2,10,14,1,7,13,6,3,11"
15001,commdev-image-keyboard-response,561,1346315,learnblock2,677.5,img/planet13_left.png,13,Community 3,NA,TRUE,f,f,NA,NA,NA,5,7,"12,8,5,15,4,9,2,10,14,1,7,13,6,3,11"
15001,commdev-image-keyboard-response,562,1347572,learnblock2,540.7000000476837,img/planet11_left.png,11,Community 3,NA,TRUE,f,f,NA,NA,NA,5,7,"12,8,5,15,4,9,2,10,14,1,7,13,6,3,11"
15001,commdev-image-keyboard-response,563,1348830,learnblock2,926.8000001907349,img/planet3_left.png,3,Community 3,NA,TRUE,f,f,NA,NA,NA,5,7,"12,8,5,15,4,9,2,10,14,1,7,13,6,3,11"
15001,commdev-image-keyboard-response,564,1350088,learnblock2,723.8000001907349,img/planet6_left.png,6,Community 3,NA,TRUE,f,f,NA,NA,NA,5,7,"12,8,5,15,4,9,2,10,14,1,7,13,6,3,11"
15001,commdev-image-keyboard-response,565,1351343,learnblock2,588.3999998569489,img/planet13_left.png,13,Community 3,NA,TRUE,f,f,NA,NA,NA,5,7,"12,8,5,15,4,9,2,10,14,1,7,13,6,3,11"
15001,commdev-image-keyboard-response,566,1352598,learnblock2,502.2000000476837,img/planet10_right.png,10,Community 2,NA,TRUE,j,j,NA,NA,NA,5,7,"12,8,5,15,4,9,2,10,14,1,7,13,6,3,11"
15001,commdev-image-keyboard-response,567,1353855,learnblock2,615.9000000953674,img/planet1_left.png,1,Community 2,NA,TRUE,f,f,NA,NA,NA,5,7,"12,8,5,15,4,9,2,10,14,1,7,13,6,3,11"
15001,commdev-image-keyboard-response,568,1355110,learnblock2,737.0999999046326,img/planet2_right.png,2,Community 2,NA,TRUE,j,j,NA,NA,NA,5,7,"12,8,5,15,4,9,2,10,14,1,7,13,6,3,11"
15001,commdev-image-keyboard-response,569,1356367,learnblock2,656.2999999523163,img/planet14_left.png,14,Community 2,NA,TRUE,f,f,NA,NA,NA,5,7,"12,8,5,15,4,9,2,10,14,1,7,13,6,3,11"
15001,commdev-image-keyboard-response,570,1357624,learnblock2,812.1000001430511,img/planet1_left.png,1,Community 2,NA,FALSE,j,f,NA,NA,NA,5,7,"12,8,5,15,4,9,2,10,14,1,7,13,6,3,11"
15001,commdev-image-keyboard-response,571,1358884,learnblock2,870.9000000953674,img/planet14_left.png,14,Community 2,NA,TRUE,f,f,NA,NA,NA,5,7,"12,8,5,15,4,9,2,10,14,1,7,13,6,3,11"
15001,commdev-image-keyboard-response,572,1360137,learnblock2,820.2000000476837,img/planet2_left.png,2,Community 2,NA,TRUE,f,f,NA,NA,NA,5,7,"12,8,5,15,4,9,2,10,14,1,7,13,6,3,11"
15001,commdev-image-keyboard-response,573,1361393,learnblock2,null,img/planet14_right.png,14,Community 2,NA,FALSE,null,j,NA,NA,NA,5,7,"12,8,5,15,4,9,2,10,14,1,7,13,6,3,11"
15001,commdev-image-keyboard-response,574,1362651,learnblock2,616.2000000476837,img/planet2_right.png,2,Community 2,NA,TRUE,j,j,NA,NA,NA,5,7,"12,8,5,15,4,9,2,10,14,1,7,13,6,3,11"
15001,commdev-image-keyboard-response,575,1363908,learnblock2,509.69999980926514,img/planet10_left.png,10,Community 2,NA,TRUE,f,f,NA,NA,NA,5,7,"12,8,5,15,4,9,2,10,14,1,7,13,6,3,11"
15001,commdev-image-keyboard-response,576,1365163,learnblock2,593.5999999046326,img/planet1_right.png,1,Community 2,NA,TRUE,j,j,NA,NA,NA,5,7,"12,8,5,15,4,9,2,10,14,1,7,13,6,3,11"
15001,commdev-image-keyboard-response,577,1366418,learnblock2,688.7999999523163,img/planet10_right.png,10,Community 2,NA,TRUE,j,j,NA,NA,NA,5,7,"12,8,5,15,4,9,2,10,14,1,7,13,6,3,11"
15001,commdev-image-keyboard-response,578,1367674,learnblock2,526.1000001430511,img/planet1_right.png,1,Community 2,NA,TRUE,j,j,NA,NA,NA,5,7,"12,8,5,15,4,9,2,10,14,1,7,13,6,3,11"
15001,commdev-image-keyboard-response,579,1368932,learnblock2,522.9000000953674,img/planet2_right.png,2,Community 2,NA,TRUE,j,j,NA,NA,NA,5,7,"12,8,5,15,4,9,2,10,14,1,7,13,6,3,11"
15001,commdev-image-keyboard-response,580,1370184,learnblock2,388.59999990463257,img/planet9_right.png,9,Community 2,NA,TRUE,j,j,NA,NA,NA,5,7,"12,8,5,15,4,9,2,10,14,1,7,13,6,3,11"
15001,commdev-image-keyboard-response,581,1371441,learnblock2,385.10000014305115,img/planet14_right.png,14,Community 2,NA,TRUE,j,j,NA,NA,NA,5,7,"12,8,5,15,4,9,2,10,14,1,7,13,6,3,11"
15001,commdev-image-keyboard-response,582,1372694,learnblock2,706.9000000953674,img/planet9_right.png,9,Community 2,NA,TRUE,j,j,NA,NA,NA,5,7,"12,8,5,15,4,9,2,10,14,1,7,13,6,3,11"
15001,commdev-image-keyboard-response,583,1373952,learnblock2,652.9000000953674,img/planet15_left.png,15,Community 1,NA,TRUE,f,f,NA,NA,NA,5,7,"12,8,5,15,4,9,2,10,14,1,7,13,6,3,11"
15001,commdev-image-keyboard-response,584,1375205,learnblock2,null,img/planet9_right.png,9,Community 2,NA,FALSE,null,j,NA,NA,NA,5,7,"12,8,5,15,4,9,2,10,14,1,7,13,6,3,11"
15001,commdev-image-keyboard-response,585,1376460,learnblock2,138.90000009536743,img/planet2_left.png,2,Community 2,NA,FALSE,j,f,NA,NA,NA,5,7,"12,8,5,15,4,9,2,10,14,1,7,13,6,3,11"
15001,commdev-image-keyboard-response,586,1377717,learnblock2,496,img/planet1_right.png,1,Community 2,NA,TRUE,j,j,NA,NA,NA,5,7,"12,8,5,15,4,9,2,10,14,1,7,13,6,3,11"
