subject_id,trial_type,trial_index,time_elapsed,block,rt,stimulus,planet,community,response,correct,key_press,learning_correct_response,parse,init_locations,final_locations,browser_interactions,num_comp,planet_map
14091,commdev-instructions,7,56141,NA,2545.1999999955297,"<p>In this game, you will be shown a 3x3 grid of patterns.</p> <p>The last one in the bottom right-hand corner, <strong>will be missing:</strong></p> <div style='width: 700px;'><div style='float: top;'><img style='width: 200px;' src='practice/p1_M1.png'></img><p class='small'>You need to select<strong> which of the four possible patterns </strong>along the bottom<strong> fits into the gap:</strong></p></div><div style='float: top;'><img style='width: 300px;' src='practice/p1_T1.png'></img></div><br>",NA,NA,NA,NA,NA,NA,NA,NA,NA,NA,6,"14,13,12,11,2,10,15,8,6,7,3,4,1,5,9"
14091,commdev-instructions,8,77070,NA,2515,"<p>Try to be as fast and as accurate as you can be.</p> <p>If you cannot solve the puzzle then you should guess - you will not be penalised for an incorrect answer.</p> <p>The task contains a shuffled mix of easy, medium and hard puzzles.</p> <p>You will have <strong>30 seconds</strong> to complete each puzzle.</p><br>",NA,NA,NA,NA,NA,NA,NA,NA,NA,NA,6,"14,13,12,11,2,10,15,8,6,7,3,4,1,5,9"
14091,commdev-instructions,15,106311,NA,2262.39999999851,<p><strong>Success!</strong></p> <p>You seem to be getting the hang of this...</p> <p>Let's move on to the real trials.</p><br>,NA,NA,NA,NA,NA,NA,NA,NA,NA,NA,6,"14,13,12,11,2,10,15,8,6,7,3,4,1,5,9"
14091,commdev-instructions,177,601377,NA,3598,"<p>In this game, you are a scientist on board a space shuttle. </p><p> On each mission, you will visit planets all across the universe.</p><img src=""img/controlroom.jpg"" width=300vw>",NA,NA,NA,NA,NA,NA,NA,NA,NA,NA,6,"14,13,12,11,2,10,15,8,6,7,3,4,1,5,9"
14091,commdev-instructions,178,604426,NA,972.2999999970198,"<p>Here are a few planets you might see:</p><img src=""img/practice1.png"" width=200vw><img src=""img/practice2.png"" width=200vw><img src=""img/practice3.png"" width=200vw>",NA,NA,NA,NA,NA,NA,NA,NA,NA,NA,6,"14,13,12,11,2,10,15,8,6,7,3,4,1,5,9"
14091,commdev-instructions,179,612524,NA,708.5,"<p>Your job as a scientist is to record which direction the winds are moving on each planet.</p><p>There are two types of wind directions:</p><img src=""img/practice1_left.png"" width=200vw><img src=""img/practice1_right.png"" width=200vw>",NA,NA,NA,NA,NA,NA,NA,NA,NA,NA,6,"14,13,12,11,2,10,15,8,6,7,3,4,1,5,9"
14091,commdev-instructions,180,619249,NA,1843.7000000029802,"<p>If the winds are moving this way, press the letter <strong>F</strong> on the keyboard as fast as you can.</p><img src=""img/leftwind.png"" width=250vw>",NA,NA,NA,NA,NA,NA,NA,NA,NA,NA,6,"14,13,12,11,2,10,15,8,6,7,3,4,1,5,9"
14091,commdev-instructions,181,624690,NA,949.2999999970198,"<p>If the winds are moving this way, press the letter <strong>J</strong> on the keyboard as fast as you can.</p><img src=""img/rightwind.png"" width=350vw>",NA,NA,NA,NA,NA,NA,NA,NA,NA,NA,6,"14,13,12,11,2,10,15,8,6,7,3,4,1,5,9"
14091,commdev-instructions,182,631463,NA,2357.3000000044703,<p>You will have 1 second to respond. Try to respond before the time runs out!,NA,NA,NA,NA,NA,NA,NA,NA,NA,NA,6,"14,13,12,11,2,10,15,8,6,7,3,4,1,5,9"
14091,commdev-instructions,183,638505,NA,1611.5,<p>The planets you will visit will look different from each other.</p><p>You should respond <strong>only</strong> based on wind direction.,NA,NA,NA,NA,NA,NA,NA,NA,NA,NA,6,"14,13,12,11,2,10,15,8,6,7,3,4,1,5,9"
14091,commdev-instructions,184,645237,NA,1571,"<p> Ready to start the practice round? </p><p> Remember, press <strong>F</strong> or <strong>J</strong> depending on the wind direction.<br><img src=""img/categorize_planet_example.png""",NA,NA,NA,NA,NA,NA,NA,NA,NA,NA,6,"14,13,12,11,2,10,15,8,6,7,3,4,1,5,9"
14091,commdev-instructions,196,699371,NA,910.1999999955297,"<p>Great, now try a short practice mission. </p><p> This time, you will have 1 second to respond and you won't know whether you pressed the right or wrong key for each planet.</p>",NA,NA,NA,NA,NA,NA,NA,NA,NA,NA,6,"14,13,12,11,2,10,15,8,6,7,3,4,1,5,9"
14091,commdev-image-keyboard-response,197,700725,practice,808.9000000059605,img/practice1_left.png,NA,Number not found in mappings,NA,TRUE,f,f,NA,NA,NA,NA,6,"14,13,12,11,2,10,15,8,6,7,3,4,1,5,9"
14091,commdev-image-keyboard-response,198,701977,practice,772.5,img/practice2_left.png,NA,Number not found in mappings,NA,TRUE,f,f,NA,NA,NA,NA,6,"14,13,12,11,2,10,15,8,6,7,3,4,1,5,9"
14091,commdev-image-keyboard-response,199,703228,practice,498.70000000298023,img/practice1_left.png,NA,Number not found in mappings,NA,TRUE,f,f,NA,NA,NA,NA,6,"14,13,12,11,2,10,15,8,6,7,3,4,1,5,9"
14091,commdev-image-keyboard-response,200,704480,practice,547.2000000029802,img/practice2_left.png,NA,Number not found in mappings,NA,TRUE,f,f,NA,NA,NA,NA,6,"14,13,12,11,2,10,15,8,6,7,3,4,1,5,9"
14091,commdev-image-keyboard-response,201,705732,practice,706.9000000059605,img/practice3_left.png,NA,Number not found in mappings,NA,TRUE,f,f,NA,NA,NA,NA,6,"14,13,12,11,2,10,15,8,6,7,3,4,1,5,9"
14091,commdev-image-keyboard-response,202,706983,practice,521.4000000059605,img/practice4_right.png,NA,Number not found in mappings,NA,TRUE,j,j,NA,NA,NA,NA,6,"14,13,12,11,2,10,15,8,6,7,3,4,1,5,9"
14091,commdev-image-keyboard-response,203,708235,practice,1199.0999999940395,img/practice3_right.png,NA,Number not found in mappings,NA,TRUE,j,j,NA,NA,NA,NA,6,"14,13,12,11,2,10,15,8,6,7,3,4,1,5,9"
14091,commdev-image-keyboard-response,204,709486,practice,941.1000000014901,img/practice1_right.png,NA,Number not found in mappings,NA,TRUE,j,j,NA,NA,NA,NA,6,"14,13,12,11,2,10,15,8,6,7,3,4,1,5,9"
14091,commdev-instructions,205,719649,NA,612,"<p>Great job with the practice round.</p><p>During real missions, you won't know whether you pressed the right or wrong key for each planet.</p><p>But between missions, we will tell you how you did overall.</p>",NA,NA,NA,NA,NA,NA,NA,NA,NA,NA,6,"14,13,12,11,2,10,15,8,6,7,3,4,1,5,9"
14091,commdev-instructions,206,732697,NA,4805.70000000298,<p>Try your best! You will be paid a bonus based on how many correct responses you make!</p><p>Responses that are too slow will not count toward your bonus.</p>,NA,NA,NA,NA,NA,NA,NA,NA,NA,NA,6,"14,13,12,11,2,10,15,8,6,7,3,4,1,5,9"
14091,commdev-instructions,207,924289,NA,185390.3999999985,"<p>You are almost ready to start the real game.</p><p> First, we are going to ask you some questions about how the game works.</p>",NA,NA,NA,NA,NA,NA,NA,NA,NA,NA,6,"14,13,12,11,2,10,15,8,6,7,3,4,1,5,9"
14091,commdev-instructions,216,1034466,NA,964.3999999985099,"<p> Nice work! It is now time to start the real game.<p></p>You will go on two missions to record wind directions of different planets.<p></p>Each one will take about 5 minutes. You will get to take a break between missions.<p><p> Remember, press <strong>F</strong> or <strong>J</strong> depending on the wind direction. Good luck!<br><img src=""img/categorize_planet_example.png""",NA,NA,NA,NA,NA,NA,NA,NA,NA,NA,6,"14,13,12,11,2,10,15,8,6,7,3,4,1,5,9"
14091,commdev-image-keyboard-response,218,1038669,learnblock1,1068.6000000014901,img/planet11_right.png,11,Community 1,NA,TRUE,j,j,NA,NA,NA,NA,6,"14,13,12,11,2,10,15,8,6,7,3,4,1,5,9"
14091,commdev-image-keyboard-response,219,1039920,learnblock1,839.1000000014901,img/planet14_left.png,14,Community 1,NA,TRUE,f,f,NA,NA,NA,NA,6,"14,13,12,11,2,10,15,8,6,7,3,4,1,5,9"
14091,commdev-image-keyboard-response,220,1041172,learnblock1,574.7000000029802,img/planet2_right.png,2,Community 1,NA,TRUE,j,j,NA,NA,NA,NA,6,"14,13,12,11,2,10,15,8,6,7,3,4,1,5,9"
14091,commdev-image-keyboard-response,221,1042424,learnblock1,null,img/planet13_left.png,13,Community 1,NA,FALSE,null,f,NA,NA,NA,NA,6,"14,13,12,11,2,10,15,8,6,7,3,4,1,5,9"
14091,commdev-image-keyboard-response,222,1043676,learnblock1,53.399999998509884,img/planet2_left.png,2,Community 1,NA,TRUE,f,f,NA,NA,NA,NA,6,"14,13,12,11,2,10,15,8,6,7,3,4,1,5,9"
14091,commdev-image-keyboard-response,223,1044927,learnblock1,80.90000000596046,img/planet14_left.png,14,Community 1,NA,TRUE,f,f,NA,NA,NA,NA,6,"14,13,12,11,2,10,15,8,6,7,3,4,1,5,9"
14091,commdev-image-keyboard-response,224,1046179,learnblock1,752.0999999940395,img/planet11_left.png,11,Community 1,NA,TRUE,f,f,NA,NA,NA,NA,6,"14,13,12,11,2,10,15,8,6,7,3,4,1,5,9"
14091,commdev-image-keyboard-response,225,1047430,learnblock1,684.8999999985099,img/planet12_left.png,12,Community 1,NA,TRUE,f,f,NA,NA,NA,NA,6,"14,13,12,11,2,10,15,8,6,7,3,4,1,5,9"
14091,commdev-image-keyboard-response,226,1048682,learnblock1,892.3999999985099,img/planet14_right.png,14,Community 1,NA,TRUE,j,j,NA,NA,NA,NA,6,"14,13,12,11,2,10,15,8,6,7,3,4,1,5,9"
14091,commdev-image-keyboard-response,227,1049934,learnblock1,753.5,img/planet2_right.png,2,Community 1,NA,TRUE,j,j,NA,NA,NA,NA,6,"14,13,12,11,2,10,15,8,6,7,3,4,1,5,9"
14091,commdev-image-keyboard-response,228,1051186,learnblock1,732.8999999985099,img/planet14_left.png,14,Community 1,NA,TRUE,f,f,NA,NA,NA,NA,6,"14,13,12,11,2,10,15,8,6,7,3,4,1,5,9"
14091,commdev-image-keyboard-response,229,1052437,learnblock1,496,img/planet2_right.png,2,Community 1,NA,TRUE,j,j,NA,NA,NA,NA,6,"14,13,12,11,2,10,15,8,6,7,3,4,1,5,9"
14091,commdev-image-keyboard-response,230,1053688,learnblock1,721.0999999940395,img/planet3_left.png,3,Community 3,NA,TRUE,f,f,NA,NA,NA,NA,6,"14,13,12,11,2,10,15,8,6,7,3,4,1,5,9"
14091,commdev-image-keyboard-response,231,1054940,learnblock1,554.5,img/planet2_right.png,2,Community 1,NA,TRUE,j,j,NA,NA,NA,NA,6,"14,13,12,11,2,10,15,8,6,7,3,4,1,5,9"
14091,commdev-image-keyboard-response,232,1056192,learnblock1,711.6000000014901,img/planet13_right.png,13,Community 1,NA,TRUE,j,j,NA,NA,NA,NA,6,"14,13,12,11,2,10,15,8,6,7,3,4,1,5,9"
14091,commdev-image-keyboard-response,233,1057443,learnblock1,593.5,img/planet14_left.png,14,Community 1,NA,TRUE,f,f,NA,NA,NA,NA,6,"14,13,12,11,2,10,15,8,6,7,3,4,1,5,9"
14091,commdev-image-keyboard-response,234,1058695,learnblock1,456.1000000014901,img/planet2_right.png,2,Community 1,NA,TRUE,j,j,NA,NA,NA,NA,6,"14,13,12,11,2,10,15,8,6,7,3,4,1,5,9"
14091,commdev-image-keyboard-response,235,1059946,learnblock1,867.5,img/planet14_right.png,14,Community 1,NA,TRUE,j,j,NA,NA,NA,NA,6,"14,13,12,11,2,10,15,8,6,7,3,4,1,5,9"
14091,commdev-image-keyboard-response,236,1061198,learnblock1,468.5,img/planet2_left.png,2,Community 1,NA,TRUE,f,f,NA,NA,NA,NA,6,"14,13,12,11,2,10,15,8,6,7,3,4,1,5,9"
14091,commdev-image-keyboard-response,237,1062449,learnblock1,515,img/planet13_right.png,13,Community 1,NA,TRUE,j,j,NA,NA,NA,NA,6,"14,13,12,11,2,10,15,8,6,7,3,4,1,5,9"
14091,commdev-image-keyboard-response,238,1063701,learnblock1,402,img/planet2_right.png,2,Community 1,NA,FALSE,f,j,NA,NA,NA,NA,6,"14,13,12,11,2,10,15,8,6,7,3,4,1,5,9"
14091,commdev-image-keyboard-response,239,1064952,learnblock1,609.2999999970198,img/planet12_right.png,12,Community 1,NA,TRUE,j,j,NA,NA,NA,NA,6,"14,13,12,11,2,10,15,8,6,7,3,4,1,5,9"
14091,commdev-image-keyboard-response,240,1066204,learnblock1,611.2999999970198,img/planet14_left.png,14,Community 1,NA,TRUE,f,f,NA,NA,NA,NA,6,"14,13,12,11,2,10,15,8,6,7,3,4,1,5,9"
14091,commdev-image-keyboard-response,241,1067459,learnblock1,541.8999999985099,img/planet13_left.png,13,Community 1,NA,TRUE,f,f,NA,NA,NA,NA,6,"14,13,12,11,2,10,15,8,6,7,3,4,1,5,9"
14091,commdev-image-keyboard-response,242,1068710,learnblock1,453.80000000447035,img/planet14_right.png,14,Community 1,NA,TRUE,j,j,NA,NA,NA,NA,6,"14,13,12,11,2,10,15,8,6,7,3,4,1,5,9"
14091,commdev-image-keyboard-response,243,1069962,learnblock1,540.0999999940395,img/planet13_right.png,13,Community 1,NA,TRUE,j,j,NA,NA,NA,NA,6,"14,13,12,11,2,10,15,8,6,7,3,4,1,5,9"
14091,commdev-image-keyboard-response,244,1071213,learnblock1,586,img/planet11_right.png,11,Community 1,NA,TRUE,j,j,NA,NA,NA,NA,6,"14,13,12,11,2,10,15,8,6,7,3,4,1,5,9"
14091,commdev-image-keyboard-response,245,1072465,learnblock1,466.3999999985099,img/planet12_right.png,12,Community 1,NA,TRUE,j,j,NA,NA,NA,NA,6,"14,13,12,11,2,10,15,8,6,7,3,4,1,5,9"
14091,commdev-image-keyboard-response,246,1073716,learnblock1,487.40000000596046,img/planet14_right.png,14,Community 1,NA,TRUE,j,j,NA,NA,NA,NA,6,"14,13,12,11,2,10,15,8,6,7,3,4,1,5,9"
14091,commdev-image-keyboard-response,247,1074968,learnblock1,439.70000000298023,img/planet13_left.png,13,Community 1,NA,FALSE,j,f,NA,NA,NA,NA,6,"14,13,12,11,2,10,15,8,6,7,3,4,1,5,9"
14091,commdev-image-keyboard-response,248,1076219,learnblock1,528.3999999985099,img/planet11_right.png,11,Community 1,NA,TRUE,j,j,NA,NA,NA,NA,6,"14,13,12,11,2,10,15,8,6,7,3,4,1,5,9"
14091,commdev-image-keyboard-response,249,1077471,learnblock1,552.1999999955297,img/planet13_right.png,13,Community 1,NA,TRUE,j,j,NA,NA,NA,NA,6,"14,13,12,11,2,10,15,8,6,7,3,4,1,5,9"
14091,commdev-image-keyboard-response,250,1078722,learnblock1,543.8999999985099,img/planet14_left.png,14,Community 1,NA,TRUE,f,f,NA,NA,NA,NA,6,"14,13,12,11,2,10,15,8,6,7,3,4,1,5,9"
14091,commdev-image-keyboard-response,251,1079974,learnblock1,601.3999999985099,img/planet12_right.png,12,Community 1,NA,TRUE,j,j,NA,NA,NA,NA,6,"14,13,12,11,2,10,15,8,6,7,3,4,1,5,9"
14091,commdev-image-keyboard-response,252,1081226,learnblock1,544.4000000059605,img/planet14_right.png,14,Community 1,NA,TRUE,j,j,NA,NA,NA,NA,6,"14,13,12,11,2,10,15,8,6,7,3,4,1,5,9"
14091,commdev-image-keyboard-response,253,1082477,learnblock1,480.3999999985099,img/planet11_left.png,11,Community 1,NA,TRUE,f,f,NA,NA,NA,NA,6,"14,13,12,11,2,10,15,8,6,7,3,4,1,5,9"
14091,commdev-image-keyboard-response,254,1083728,learnblock1,496.29999999701977,img/planet14_left.png,14,Community 1,NA,TRUE,f,f,NA,NA,NA,NA,6,"14,13,12,11,2,10,15,8,6,7,3,4,1,5,9"
14091,commdev-image-keyboard-response,255,1084980,learnblock1,463.3999999985099,img/planet11_right.png,11,Community 1,NA,TRUE,j,j,NA,NA,NA,NA,6,"14,13,12,11,2,10,15,8,6,7,3,4,1,5,9"
14091,commdev-image-keyboard-response,256,1086231,learnblock1,545.1000000014901,img/planet13_right.png,13,Community 1,NA,TRUE,j,j,NA,NA,NA,NA,6,"14,13,12,11,2,10,15,8,6,7,3,4,1,5,9"
14091,commdev-image-keyboard-response,257,1087483,learnblock1,520.3999999985099,img/planet2_right.png,2,Community 1,NA,TRUE,j,j,NA,NA,NA,NA,6,"14,13,12,11,2,10,15,8,6,7,3,4,1,5,9"
14091,commdev-image-keyboard-response,258,1088734,learnblock1,549.9000000059605,img/planet12_right.png,12,Community 1,NA,TRUE,j,j,NA,NA,NA,NA,6,"14,13,12,11,2,10,15,8,6,7,3,4,1,5,9"
14091,commdev-image-keyboard-response,259,1089985,learnblock1,505.3999999985099,img/planet14_left.png,14,Community 1,NA,TRUE,f,f,NA,NA,NA,NA,6,"14,13,12,11,2,10,15,8,6,7,3,4,1,5,9"
14091,commdev-image-keyboard-response,260,1091237,learnblock1,484.5,img/planet13_right.png,13,Community 1,NA,TRUE,j,j,NA,NA,NA,NA,6,"14,13,12,11,2,10,15,8,6,7,3,4,1,5,9"
14091,commdev-image-keyboard-response,261,1092488,learnblock1,568.1000000014901,img/planet11_left.png,11,Community 1,NA,TRUE,f,f,NA,NA,NA,NA,6,"14,13,12,11,2,10,15,8,6,7,3,4,1,5,9"
14091,commdev-image-keyboard-response,262,1093740,learnblock1,555.6000000014901,img/planet13_left.png,13,Community 1,NA,TRUE,f,f,NA,NA,NA,NA,6,"14,13,12,11,2,10,15,8,6,7,3,4,1,5,9"
14091,commdev-image-keyboard-response,263,1094992,learnblock1,556.1000000014901,img/planet12_right.png,12,Community 1,NA,TRUE,j,j,NA,NA,NA,NA,6,"14,13,12,11,2,10,15,8,6,7,3,4,1,5,9"
14091,commdev-image-keyboard-response,264,1096243,learnblock1,596.4000000059605,img/planet13_right.png,13,Community 1,NA,TRUE,j,j,NA,NA,NA,NA,6,"14,13,12,11,2,10,15,8,6,7,3,4,1,5,9"
14091,commdev-image-keyboard-response,265,1097495,learnblock1,457.1000000014901,img/planet14_right.png,14,Community 1,NA,TRUE,j,j,NA,NA,NA,NA,6,"14,13,12,11,2,10,15,8,6,7,3,4,1,5,9"
14091,commdev-image-keyboard-response,266,1098746,learnblock1,470.69999999552965,img/planet12_left.png,12,Community 1,NA,TRUE,f,f,NA,NA,NA,NA,6,"14,13,12,11,2,10,15,8,6,7,3,4,1,5,9"
14091,commdev-image-keyboard-response,267,1099998,learnblock1,505.5,img/planet2_right.png,2,Community 1,NA,FALSE,f,j,NA,NA,NA,NA,6,"14,13,12,11,2,10,15,8,6,7,3,4,1,5,9"
14091,commdev-image-keyboard-response,268,1101249,learnblock1,715.2000000029802,img/planet3_left.png,3,Community 3,NA,TRUE,f,f,NA,NA,NA,NA,6,"14,13,12,11,2,10,15,8,6,7,3,4,1,5,9"
14091,commdev-image-keyboard-response,269,1102501,learnblock1,632.7000000029802,img/planet9_left.png,9,Community 3,NA,TRUE,f,f,NA,NA,NA,NA,6,"14,13,12,11,2,10,15,8,6,7,3,4,1,5,9"
14091,commdev-image-keyboard-response,270,1103753,learnblock1,581,img/planet3_right.png,3,Community 3,NA,TRUE,j,j,NA,NA,NA,NA,6,"14,13,12,11,2,10,15,8,6,7,3,4,1,5,9"
14091,commdev-image-keyboard-response,271,1105004,learnblock1,598.8999999985099,img/planet2_right.png,2,Community 1,NA,TRUE,j,j,NA,NA,NA,NA,6,"14,13,12,11,2,10,15,8,6,7,3,4,1,5,9"
14091,commdev-image-keyboard-response,272,1106255,learnblock1,546.1000000014901,img/planet13_right.png,13,Community 1,NA,TRUE,j,j,NA,NA,NA,NA,6,"14,13,12,11,2,10,15,8,6,7,3,4,1,5,9"
14091,commdev-image-keyboard-response,273,1107507,learnblock1,526.6000000014901,img/planet11_left.png,11,Community 1,NA,TRUE,f,f,NA,NA,NA,NA,6,"14,13,12,11,2,10,15,8,6,7,3,4,1,5,9"
14091,commdev-image-keyboard-response,274,1108758,learnblock1,671.1999999955297,img/planet14_right.png,14,Community 1,NA,TRUE,j,j,NA,NA,NA,NA,6,"14,13,12,11,2,10,15,8,6,7,3,4,1,5,9"
14091,commdev-image-keyboard-response,275,1110010,learnblock1,573.8999999985099,img/planet11_right.png,11,Community 1,NA,TRUE,j,j,NA,NA,NA,NA,6,"14,13,12,11,2,10,15,8,6,7,3,4,1,5,9"
14091,commdev-image-keyboard-response,276,1111261,learnblock1,637.7999999970198,img/planet10_left.png,10,Community 2,NA,TRUE,f,f,NA,NA,NA,NA,6,"14,13,12,11,2,10,15,8,6,7,3,4,1,5,9"
14091,commdev-image-keyboard-response,277,1112512,learnblock1,576.7999999970198,img/planet15_right.png,15,Community 2,NA,TRUE,j,j,NA,NA,NA,NA,6,"14,13,12,11,2,10,15,8,6,7,3,4,1,5,9"
14091,commdev-image-keyboard-response,278,1113764,learnblock1,554.2000000029802,img/planet10_right.png,10,Community 2,NA,TRUE,j,j,NA,NA,NA,NA,6,"14,13,12,11,2,10,15,8,6,7,3,4,1,5,9"
14091,commdev-image-keyboard-response,279,1115015,learnblock1,688.0999999940395,img/planet6_right.png,6,Community 2,NA,TRUE,j,j,NA,NA,NA,NA,6,"14,13,12,11,2,10,15,8,6,7,3,4,1,5,9"
14091,commdev-image-keyboard-response,280,1116266,learnblock1,693.3999999985099,img/planet15_left.png,15,Community 2,NA,TRUE,f,f,NA,NA,NA,NA,6,"14,13,12,11,2,10,15,8,6,7,3,4,1,5,9"
14091,commdev-image-keyboard-response,281,1117518,learnblock1,607.5,img/planet7_right.png,7,Community 2,NA,FALSE,f,j,NA,NA,NA,NA,6,"14,13,12,11,2,10,15,8,6,7,3,4,1,5,9"
14091,commdev-image-keyboard-response,282,1118769,learnblock1,696.1999999955297,img/planet15_right.png,15,Community 2,NA,FALSE,f,j,NA,NA,NA,NA,6,"14,13,12,11,2,10,15,8,6,7,3,4,1,5,9"
14091,commdev-image-keyboard-response,283,1120021,learnblock1,781.5,img/planet6_left.png,6,Community 2,NA,TRUE,f,f,NA,NA,NA,NA,6,"14,13,12,11,2,10,15,8,6,7,3,4,1,5,9"
14091,commdev-image-keyboard-response,284,1121272,learnblock1,612.8999999985099,img/planet8_left.png,8,Community 2,NA,FALSE,j,f,NA,NA,NA,NA,6,"14,13,12,11,2,10,15,8,6,7,3,4,1,5,9"
14091,commdev-image-keyboard-response,285,1122524,learnblock1,700.2000000029802,img/planet7_right.png,7,Community 2,NA,FALSE,f,j,NA,NA,NA,NA,6,"14,13,12,11,2,10,15,8,6,7,3,4,1,5,9"
14091,commdev-image-keyboard-response,286,1123776,learnblock1,740.5,img/planet15_right.png,15,Community 2,NA,TRUE,j,j,NA,NA,NA,NA,6,"14,13,12,11,2,10,15,8,6,7,3,4,1,5,9"
14091,commdev-image-keyboard-response,287,1125027,learnblock1,648.7999999970198,img/planet10_left.png,10,Community 2,NA,TRUE,f,f,NA,NA,NA,NA,6,"14,13,12,11,2,10,15,8,6,7,3,4,1,5,9"
14091,commdev-image-keyboard-response,288,1126279,learnblock1,612.2000000029802,img/planet7_left.png,7,Community 2,NA,TRUE,f,f,NA,NA,NA,NA,6,"14,13,12,11,2,10,15,8,6,7,3,4,1,5,9"
14091,commdev-image-keyboard-response,289,1127530,learnblock1,743.7999999970198,img/planet6_left.png,6,Community 2,NA,TRUE,f,f,NA,NA,NA,NA,6,"14,13,12,11,2,10,15,8,6,7,3,4,1,5,9"
14091,commdev-image-keyboard-response,290,1128782,learnblock1,530.6999999955297,img/planet10_right.png,10,Community 2,NA,TRUE,j,j,NA,NA,NA,NA,6,"14,13,12,11,2,10,15,8,6,7,3,4,1,5,9"
14091,commdev-image-keyboard-response,291,1130034,learnblock1,521.1999999955297,img/planet15_right.png,15,Community 2,NA,TRUE,j,j,NA,NA,NA,NA,6,"14,13,12,11,2,10,15,8,6,7,3,4,1,5,9"
14091,commdev-image-keyboard-response,292,1131285,learnblock1,669,img/planet6_left.png,6,Community 2,NA,TRUE,f,f,NA,NA,NA,NA,6,"14,13,12,11,2,10,15,8,6,7,3,4,1,5,9"
14091,commdev-image-keyboard-response,293,1132537,learnblock1,904.9000000059605,img/planet8_right.png,8,Community 2,NA,TRUE,j,j,NA,NA,NA,NA,6,"14,13,12,11,2,10,15,8,6,7,3,4,1,5,9"
14091,commdev-image-keyboard-response,294,1133788,learnblock1,702.2999999970198,img/planet15_left.png,15,Community 2,NA,TRUE,f,f,NA,NA,NA,NA,6,"14,13,12,11,2,10,15,8,6,7,3,4,1,5,9"
14091,commdev-image-keyboard-response,295,1135040,learnblock1,604.7000000029802,img/planet10_left.png,10,Community 2,NA,TRUE,f,f,NA,NA,NA,NA,6,"14,13,12,11,2,10,15,8,6,7,3,4,1,5,9"
14091,commdev-image-keyboard-response,296,1136291,learnblock1,511.3999999985099,img/planet11_right.png,11,Community 1,NA,TRUE,j,j,NA,NA,NA,NA,6,"14,13,12,11,2,10,15,8,6,7,3,4,1,5,9"
14091,commdev-image-keyboard-response,297,1137543,learnblock1,800.3999999985099,img/planet14_right.png,14,Community 1,NA,TRUE,j,j,NA,NA,NA,NA,6,"14,13,12,11,2,10,15,8,6,7,3,4,1,5,9"
14091,commdev-image-keyboard-response,298,1138794,learnblock1,592.5,img/planet12_left.png,12,Community 1,NA,TRUE,f,f,NA,NA,NA,NA,6,"14,13,12,11,2,10,15,8,6,7,3,4,1,5,9"
14091,commdev-image-keyboard-response,299,1140045,learnblock1,448.6000000014901,img/planet11_right.png,11,Community 1,NA,TRUE,j,j,NA,NA,NA,NA,6,"14,13,12,11,2,10,15,8,6,7,3,4,1,5,9"
14091,commdev-image-keyboard-response,300,1141297,learnblock1,556.2999999970198,img/planet14_left.png,14,Community 1,NA,TRUE,f,f,NA,NA,NA,NA,6,"14,13,12,11,2,10,15,8,6,7,3,4,1,5,9"
14091,commdev-image-keyboard-response,301,1142548,learnblock1,489.5,img/planet13_right.png,13,Community 1,NA,FALSE,f,j,NA,NA,NA,NA,6,"14,13,12,11,2,10,15,8,6,7,3,4,1,5,9"
14091,commdev-image-keyboard-response,302,1143800,learnblock1,673.3999999985099,img/planet14_left.png,14,Community 1,NA,TRUE,f,f,NA,NA,NA,NA,6,"14,13,12,11,2,10,15,8,6,7,3,4,1,5,9"
14091,commdev-image-keyboard-response,303,1145051,learnblock1,599.7000000029802,img/planet13_left.png,13,Community 1,NA,TRUE,f,f,NA,NA,NA,NA,6,"14,13,12,11,2,10,15,8,6,7,3,4,1,5,9"
14091,commdev-image-keyboard-response,304,1146303,learnblock1,553.8999999985099,img/planet12_left.png,12,Community 1,NA,TRUE,f,f,NA,NA,NA,NA,6,"14,13,12,11,2,10,15,8,6,7,3,4,1,5,9"
14091,commdev-image-keyboard-response,305,1147554,learnblock1,603.8999999985099,img/planet13_left.png,13,Community 1,NA,TRUE,f,f,NA,NA,NA,NA,6,"14,13,12,11,2,10,15,8,6,7,3,4,1,5,9"
14091,commdev-image-keyboard-response,306,1148806,learnblock1,405.8999999985099,img/planet2_right.png,2,Community 1,NA,TRUE,j,j,NA,NA,NA,NA,6,"14,13,12,11,2,10,15,8,6,7,3,4,1,5,9"
14091,commdev-image-keyboard-response,307,1150058,learnblock1,694.7999999970198,img/planet3_left.png,3,Community 3,NA,TRUE,f,f,NA,NA,NA,NA,6,"14,13,12,11,2,10,15,8,6,7,3,4,1,5,9"
14091,commdev-image-keyboard-response,308,1151309,learnblock1,608.3000000044703,img/planet9_right.png,9,Community 3,NA,TRUE,j,j,NA,NA,NA,NA,6,"14,13,12,11,2,10,15,8,6,7,3,4,1,5,9"
14091,commdev-image-keyboard-response,309,1152561,learnblock1,524.6000000014901,img/planet3_left.png,3,Community 3,NA,TRUE,f,f,NA,NA,NA,NA,6,"14,13,12,11,2,10,15,8,6,7,3,4,1,5,9"
14091,commdev-image-keyboard-response,310,1153812,learnblock1,772.3999999985099,img/planet5_left.png,5,Community 3,NA,TRUE,f,f,NA,NA,NA,NA,6,"14,13,12,11,2,10,15,8,6,7,3,4,1,5,9"
14091,commdev-image-keyboard-response,311,1155063,learnblock1,539.2000000029802,img/planet3_right.png,3,Community 3,NA,TRUE,j,j,NA,NA,NA,NA,6,"14,13,12,11,2,10,15,8,6,7,3,4,1,5,9"
14091,commdev-image-keyboard-response,312,1156315,learnblock1,599.8999999985099,img/planet9_left.png,9,Community 3,NA,TRUE,f,f,NA,NA,NA,NA,6,"14,13,12,11,2,10,15,8,6,7,3,4,1,5,9"
14091,commdev-image-keyboard-response,313,1157566,learnblock1,466.80000000447035,img/planet1_right.png,1,Community 3,NA,TRUE,j,j,NA,NA,NA,NA,6,"14,13,12,11,2,10,15,8,6,7,3,4,1,5,9"
14091,commdev-image-keyboard-response,314,1158818,learnblock1,493.6000000014901,img/planet3_left.png,3,Community 3,NA,TRUE,f,f,NA,NA,NA,NA,6,"14,13,12,11,2,10,15,8,6,7,3,4,1,5,9"
14091,commdev-image-keyboard-response,315,1160069,learnblock1,535.5,img/planet1_left.png,1,Community 3,NA,TRUE,f,f,NA,NA,NA,NA,6,"14,13,12,11,2,10,15,8,6,7,3,4,1,5,9"
14091,commdev-image-keyboard-response,316,1161321,learnblock1,542.3999999985099,img/planet9_left.png,9,Community 3,NA,TRUE,f,f,NA,NA,NA,NA,6,"14,13,12,11,2,10,15,8,6,7,3,4,1,5,9"
14091,commdev-image-keyboard-response,317,1162572,learnblock1,677.2999999970198,img/planet1_left.png,1,Community 3,NA,TRUE,f,f,NA,NA,NA,NA,6,"14,13,12,11,2,10,15,8,6,7,3,4,1,5,9"
14091,commdev-image-keyboard-response,318,1163824,learnblock1,596.6000000014901,img/planet5_left.png,5,Community 3,NA,TRUE,f,f,NA,NA,NA,NA,6,"14,13,12,11,2,10,15,8,6,7,3,4,1,5,9"
14091,commdev-image-keyboard-response,319,1165075,learnblock1,418,img/planet9_right.png,9,Community 3,NA,TRUE,j,j,NA,NA,NA,NA,6,"14,13,12,11,2,10,15,8,6,7,3,4,1,5,9"
14091,commdev-image-keyboard-response,320,1166327,learnblock1,515.3999999985099,img/planet4_left.png,4,Community 3,NA,TRUE,f,f,NA,NA,NA,NA,6,"14,13,12,11,2,10,15,8,6,7,3,4,1,5,9"
14091,commdev-image-keyboard-response,321,1167578,learnblock1,443.6000000014901,img/planet1_right.png,1,Community 3,NA,TRUE,j,j,NA,NA,NA,NA,6,"14,13,12,11,2,10,15,8,6,7,3,4,1,5,9"
14091,commdev-image-keyboard-response,322,1168830,learnblock1,853.5,img/planet9_right.png,9,Community 3,NA,TRUE,j,j,NA,NA,NA,NA,6,"14,13,12,11,2,10,15,8,6,7,3,4,1,5,9"
14091,commdev-image-keyboard-response,323,1170081,learnblock1,606.2000000029802,img/planet5_right.png,5,Community 3,NA,TRUE,j,j,NA,NA,NA,NA,6,"14,13,12,11,2,10,15,8,6,7,3,4,1,5,9"
14091,commdev-image-keyboard-response,324,1171333,learnblock1,728.6000000014901,img/planet4_right.png,4,Community 3,NA,TRUE,j,j,NA,NA,NA,NA,6,"14,13,12,11,2,10,15,8,6,7,3,4,1,5,9"
14091,commdev-image-keyboard-response,325,1172584,learnblock1,537.7999999970198,img/planet5_left.png,5,Community 3,NA,TRUE,f,f,NA,NA,NA,NA,6,"14,13,12,11,2,10,15,8,6,7,3,4,1,5,9"
14091,commdev-image-keyboard-response,326,1173836,learnblock1,700.3999999985099,img/planet9_left.png,9,Community 3,NA,TRUE,f,f,NA,NA,NA,NA,6,"14,13,12,11,2,10,15,8,6,7,3,4,1,5,9"
14091,commdev-image-keyboard-response,327,1175088,learnblock1,510.6000000014901,img/planet5_left.png,5,Community 3,NA,TRUE,f,f,NA,NA,NA,NA,6,"14,13,12,11,2,10,15,8,6,7,3,4,1,5,9"
14091,commdev-image-keyboard-response,328,1176339,learnblock1,471.8999999985099,img/planet9_left.png,9,Community 3,NA,TRUE,f,f,NA,NA,NA,NA,6,"14,13,12,11,2,10,15,8,6,7,3,4,1,5,9"
14091,commdev-image-keyboard-response,329,1177591,learnblock1,517.2999999970198,img/planet1_right.png,1,Community 3,NA,TRUE,j,j,NA,NA,NA,NA,6,"14,13,12,11,2,10,15,8,6,7,3,4,1,5,9"
14091,commdev-image-keyboard-response,330,1178842,learnblock1,641,img/planet4_right.png,4,Community 3,NA,TRUE,j,j,NA,NA,NA,NA,6,"14,13,12,11,2,10,15,8,6,7,3,4,1,5,9"
14091,commdev-image-keyboard-response,331,1180094,learnblock1,544,img/planet9_left.png,9,Community 3,NA,FALSE,j,f,NA,NA,NA,NA,6,"14,13,12,11,2,10,15,8,6,7,3,4,1,5,9"
14091,commdev-image-keyboard-response,332,1181346,learnblock1,672.7000000029802,img/planet5_left.png,5,Community 3,NA,FALSE,j,f,NA,NA,NA,NA,6,"14,13,12,11,2,10,15,8,6,7,3,4,1,5,9"
14091,commdev-image-keyboard-response,333,1182597,learnblock1,659.5999999940395,img/planet4_right.png,4,Community 3,NA,TRUE,j,j,NA,NA,NA,NA,6,"14,13,12,11,2,10,15,8,6,7,3,4,1,5,9"
14091,commdev-image-keyboard-response,334,1183848,learnblock1,591.7999999970198,img/planet1_right.png,1,Community 3,NA,FALSE,f,j,NA,NA,NA,NA,6,"14,13,12,11,2,10,15,8,6,7,3,4,1,5,9"
14091,commdev-image-keyboard-response,335,1185100,learnblock1,821.2000000029802,img/planet9_right.png,9,Community 3,NA,TRUE,j,j,NA,NA,NA,NA,6,"14,13,12,11,2,10,15,8,6,7,3,4,1,5,9"
14091,commdev-image-keyboard-response,336,1186351,learnblock1,526.3000000044703,img/planet4_left.png,4,Community 3,NA,TRUE,f,f,NA,NA,NA,NA,6,"14,13,12,11,2,10,15,8,6,7,3,4,1,5,9"
14091,commdev-image-keyboard-response,337,1187603,learnblock1,611.7999999970198,img/planet8_right.png,8,Community 2,NA,FALSE,f,j,NA,NA,NA,NA,6,"14,13,12,11,2,10,15,8,6,7,3,4,1,5,9"
14091,commdev-image-keyboard-response,338,1188854,learnblock1,702.7999999970198,img/planet7_right.png,7,Community 2,NA,TRUE,j,j,NA,NA,NA,NA,6,"14,13,12,11,2,10,15,8,6,7,3,4,1,5,9"
14091,commdev-image-keyboard-response,339,1190105,learnblock1,633,img/planet8_left.png,8,Community 2,NA,TRUE,f,f,NA,NA,NA,NA,6,"14,13,12,11,2,10,15,8,6,7,3,4,1,5,9"
14091,commdev-image-keyboard-response,340,1191357,learnblock1,663.7999999970198,img/planet15_right.png,15,Community 2,NA,TRUE,j,j,NA,NA,NA,NA,6,"14,13,12,11,2,10,15,8,6,7,3,4,1,5,9"
14091,commdev-image-keyboard-response,341,1192608,learnblock1,568.3999999985099,img/planet6_left.png,6,Community 2,NA,TRUE,f,f,NA,NA,NA,NA,6,"14,13,12,11,2,10,15,8,6,7,3,4,1,5,9"
14091,commdev-image-keyboard-response,342,1193860,learnblock1,526.7999999970198,img/planet15_right.png,15,Community 2,NA,TRUE,j,j,NA,NA,NA,NA,6,"14,13,12,11,2,10,15,8,6,7,3,4,1,5,9"
14091,commdev-image-keyboard-response,343,1195112,learnblock1,628,img/planet6_left.png,6,Community 2,NA,TRUE,f,f,NA,NA,NA,NA,6,"14,13,12,11,2,10,15,8,6,7,3,4,1,5,9"
14091,commdev-image-keyboard-response,344,1196363,learnblock1,1179.2000000029802,img/planet8_left.png,8,Community 2,NA,FALSE,j,f,NA,NA,NA,NA,6,"14,13,12,11,2,10,15,8,6,7,3,4,1,5,9"
14091,commdev-image-keyboard-response,345,1197614,learnblock1,700.6999999955297,img/planet15_left.png,15,Community 2,NA,FALSE,j,f,NA,NA,NA,NA,6,"14,13,12,11,2,10,15,8,6,7,3,4,1,5,9"
14091,commdev-image-keyboard-response,346,1198866,learnblock1,965,img/planet6_left.png,6,Community 2,NA,TRUE,f,f,NA,NA,NA,NA,6,"14,13,12,11,2,10,15,8,6,7,3,4,1,5,9"
14091,commdev-image-keyboard-response,347,1200117,learnblock1,539.2000000029802,img/planet8_left.png,8,Community 2,NA,TRUE,f,f,NA,NA,NA,NA,6,"14,13,12,11,2,10,15,8,6,7,3,4,1,5,9"
14091,commdev-image-keyboard-response,348,1201368,learnblock1,447.79999999701977,img/planet7_right.png,7,Community 2,NA,TRUE,j,j,NA,NA,NA,NA,6,"14,13,12,11,2,10,15,8,6,7,3,4,1,5,9"
14091,commdev-image-keyboard-response,349,1202620,learnblock1,663.3999999985099,img/planet10_right.png,10,Community 2,NA,TRUE,j,j,NA,NA,NA,NA,6,"14,13,12,11,2,10,15,8,6,7,3,4,1,5,9"
14091,commdev-image-keyboard-response,350,1203872,learnblock1,1161.6999999955297,img/planet15_right.png,15,Community 2,NA,TRUE,j,j,NA,NA,NA,NA,6,"14,13,12,11,2,10,15,8,6,7,3,4,1,5,9"
14091,commdev-image-keyboard-response,351,1205123,learnblock1,660.2000000029802,img/planet10_right.png,10,Community 2,NA,TRUE,j,j,NA,NA,NA,NA,6,"14,13,12,11,2,10,15,8,6,7,3,4,1,5,9"
14091,commdev-image-keyboard-response,352,1206375,learnblock1,462.6000000014901,img/planet11_left.png,11,Community 1,NA,TRUE,f,f,NA,NA,NA,NA,6,"14,13,12,11,2,10,15,8,6,7,3,4,1,5,9"
14091,commdev-image-keyboard-response,353,1207627,learnblock1,592.1999999955297,img/planet13_left.png,13,Community 1,NA,TRUE,f,f,NA,NA,NA,NA,6,"14,13,12,11,2,10,15,8,6,7,3,4,1,5,9"
14091,commdev-image-keyboard-response,354,1208878,learnblock1,513,img/planet11_right.png,11,Community 1,NA,TRUE,j,j,NA,NA,NA,NA,6,"14,13,12,11,2,10,15,8,6,7,3,4,1,5,9"
14091,commdev-image-keyboard-response,355,1210130,learnblock1,635.1999999955297,img/planet14_left.png,14,Community 1,NA,TRUE,f,f,NA,NA,NA,NA,6,"14,13,12,11,2,10,15,8,6,7,3,4,1,5,9"
14091,commdev-image-keyboard-response,356,1211381,learnblock1,570.7000000029802,img/planet12_right.png,12,Community 1,NA,FALSE,f,j,NA,NA,NA,NA,6,"14,13,12,11,2,10,15,8,6,7,3,4,1,5,9"
14091,commdev-image-keyboard-response,357,1212632,learnblock1,585.5999999940395,img/planet11_right.png,11,Community 1,NA,TRUE,j,j,NA,NA,NA,NA,6,"14,13,12,11,2,10,15,8,6,7,3,4,1,5,9"
14091,commdev-image-keyboard-response,358,1213884,learnblock1,714.2000000029802,img/planet12_left.png,12,Community 1,NA,TRUE,f,f,NA,NA,NA,NA,6,"14,13,12,11,2,10,15,8,6,7,3,4,1,5,9"
14091,commdev-image-keyboard-response,359,1215135,learnblock1,759.7999999970198,img/planet13_left.png,13,Community 1,NA,FALSE,j,f,NA,NA,NA,NA,6,"14,13,12,11,2,10,15,8,6,7,3,4,1,5,9"
14091,commdev-image-keyboard-response,360,1216387,learnblock1,605,img/planet2_left.png,2,Community 1,NA,FALSE,j,f,NA,NA,NA,NA,6,"14,13,12,11,2,10,15,8,6,7,3,4,1,5,9"
14091,commdev-image-keyboard-response,361,1217639,learnblock1,null,img/planet3_right.png,3,Community 3,NA,FALSE,null,j,NA,NA,NA,NA,6,"14,13,12,11,2,10,15,8,6,7,3,4,1,5,9"
14091,commdev-image-keyboard-response,362,1218891,learnblock1,null,img/planet2_right.png,2,Community 1,NA,FALSE,null,j,NA,NA,NA,NA,6,"14,13,12,11,2,10,15,8,6,7,3,4,1,5,9"
14091,commdev-image-keyboard-response,363,1220143,learnblock1,542.7000000029802,img/planet12_left.png,12,Community 1,NA,TRUE,f,f,NA,NA,NA,NA,6,"14,13,12,11,2,10,15,8,6,7,3,4,1,5,9"
14091,commdev-image-keyboard-response,364,1221394,learnblock1,606.2999999970198,img/planet14_left.png,14,Community 1,NA,FALSE,j,f,NA,NA,NA,NA,6,"14,13,12,11,2,10,15,8,6,7,3,4,1,5,9"
14091,commdev-image-keyboard-response,365,1222645,learnblock1,485.19999999552965,img/planet12_right.png,12,Community 1,NA,TRUE,j,j,NA,NA,NA,NA,6,"14,13,12,11,2,10,15,8,6,7,3,4,1,5,9"
14091,commdev-image-keyboard-response,366,1223897,learnblock1,505.70000000298023,img/planet11_right.png,11,Community 1,NA,TRUE,j,j,NA,NA,NA,NA,6,"14,13,12,11,2,10,15,8,6,7,3,4,1,5,9"
14091,commdev-image-keyboard-response,367,1225149,learnblock1,617.6000000014901,img/planet14_left.png,14,Community 1,NA,TRUE,f,f,NA,NA,NA,NA,6,"14,13,12,11,2,10,15,8,6,7,3,4,1,5,9"
14091,commdev-image-keyboard-response,368,1226400,learnblock1,708.7000000029802,img/planet11_right.png,11,Community 1,NA,TRUE,j,j,NA,NA,NA,NA,6,"14,13,12,11,2,10,15,8,6,7,3,4,1,5,9"
14091,commdev-image-keyboard-response,369,1227652,learnblock1,659.8999999985099,img/planet13_left.png,13,Community 1,NA,FALSE,j,f,NA,NA,NA,NA,6,"14,13,12,11,2,10,15,8,6,7,3,4,1,5,9"
14091,commdev-image-keyboard-response,370,1228903,learnblock1,854.8000000044703,img/planet12_right.png,12,Community 1,NA,FALSE,f,j,NA,NA,NA,NA,6,"14,13,12,11,2,10,15,8,6,7,3,4,1,5,9"
14091,commdev-image-keyboard-response,371,1230155,learnblock1,553.2000000029802,img/planet13_left.png,13,Community 1,NA,TRUE,f,f,NA,NA,NA,NA,6,"14,13,12,11,2,10,15,8,6,7,3,4,1,5,9"
14091,commdev-image-keyboard-response,372,1231406,learnblock1,437.80000000447035,img/planet14_right.png,14,Community 1,NA,TRUE,j,j,NA,NA,NA,NA,6,"14,13,12,11,2,10,15,8,6,7,3,4,1,5,9"
14091,commdev-image-keyboard-response,373,1232657,learnblock1,631.3000000044703,img/planet2_left.png,2,Community 1,NA,TRUE,f,f,NA,NA,NA,NA,6,"14,13,12,11,2,10,15,8,6,7,3,4,1,5,9"
14091,commdev-image-keyboard-response,374,1233909,learnblock1,670,img/planet14_left.png,14,Community 1,NA,FALSE,j,f,NA,NA,NA,NA,6,"14,13,12,11,2,10,15,8,6,7,3,4,1,5,9"
14091,commdev-image-keyboard-response,375,1235160,learnblock1,null,img/planet2_left.png,2,Community 1,NA,FALSE,null,f,NA,NA,NA,NA,6,"14,13,12,11,2,10,15,8,6,7,3,4,1,5,9"
14091,commdev-image-keyboard-response,376,1236412,learnblock1,693.5,img/planet3_right.png,3,Community 3,NA,TRUE,j,j,NA,NA,NA,NA,6,"14,13,12,11,2,10,15,8,6,7,3,4,1,5,9"
14091,commdev-image-keyboard-response,377,1237663,learnblock1,473,img/planet5_right.png,5,Community 3,NA,FALSE,f,j,NA,NA,NA,NA,6,"14,13,12,11,2,10,15,8,6,7,3,4,1,5,9"
14091,commdev-image-keyboard-response,378,1238915,learnblock1,589.3000000044703,img/planet3_right.png,3,Community 3,NA,TRUE,j,j,NA,NA,NA,NA,6,"14,13,12,11,2,10,15,8,6,7,3,4,1,5,9"
14091,commdev-image-keyboard-response,379,1240167,learnblock1,799.6000000014901,img/planet1_right.png,1,Community 3,NA,TRUE,j,j,NA,NA,NA,NA,6,"14,13,12,11,2,10,15,8,6,7,3,4,1,5,9"
14091,commdev-image-keyboard-response,380,1241418,learnblock1,421.30000000447035,img/planet3_left.png,3,Community 3,NA,TRUE,f,f,NA,NA,NA,NA,6,"14,13,12,11,2,10,15,8,6,7,3,4,1,5,9"
14091,commdev-image-keyboard-response,381,1242670,learnblock1,437.29999999701977,img/planet9_right.png,9,Community 3,NA,TRUE,j,j,NA,NA,NA,NA,6,"14,13,12,11,2,10,15,8,6,7,3,4,1,5,9"
14091,commdev-image-keyboard-response,382,1243922,learnblock1,609.8000000044703,img/planet3_right.png,3,Community 3,NA,TRUE,j,j,NA,NA,NA,NA,6,"14,13,12,11,2,10,15,8,6,7,3,4,1,5,9"
14091,commdev-image-keyboard-response,383,1245174,learnblock1,738.1000000014901,img/planet2_right.png,2,Community 1,NA,TRUE,j,j,NA,NA,NA,NA,6,"14,13,12,11,2,10,15,8,6,7,3,4,1,5,9"
14091,commdev-image-keyboard-response,384,1246425,learnblock1,586.5999999940395,img/planet3_left.png,3,Community 3,NA,TRUE,f,f,NA,NA,NA,NA,6,"14,13,12,11,2,10,15,8,6,7,3,4,1,5,9"
14091,commdev-image-keyboard-response,385,1247676,learnblock1,797.1999999955297,img/planet9_left.png,9,Community 3,NA,TRUE,f,f,NA,NA,NA,NA,6,"14,13,12,11,2,10,15,8,6,7,3,4,1,5,9"
14091,commdev-image-keyboard-response,386,1248928,learnblock1,706.2000000029802,img/planet4_left.png,4,Community 3,NA,TRUE,f,f,NA,NA,NA,NA,6,"14,13,12,11,2,10,15,8,6,7,3,4,1,5,9"
14091,commdev-image-keyboard-response,387,1250179,learnblock1,460.90000000596046,img/planet5_right.png,5,Community 3,NA,TRUE,j,j,NA,NA,NA,NA,6,"14,13,12,11,2,10,15,8,6,7,3,4,1,5,9"
14091,commdev-image-keyboard-response,388,1251431,learnblock1,562.3999999985099,img/planet3_left.png,3,Community 3,NA,TRUE,f,f,NA,NA,NA,NA,6,"14,13,12,11,2,10,15,8,6,7,3,4,1,5,9"
14091,commdev-image-keyboard-response,389,1252682,learnblock1,673.9000000059605,img/planet2_left.png,2,Community 1,NA,TRUE,f,f,NA,NA,NA,NA,6,"14,13,12,11,2,10,15,8,6,7,3,4,1,5,9"
14091,commdev-image-keyboard-response,390,1253933,learnblock1,550.0999999940395,img/planet12_right.png,12,Community 1,NA,TRUE,j,j,NA,NA,NA,NA,6,"14,13,12,11,2,10,15,8,6,7,3,4,1,5,9"
14091,commdev-image-keyboard-response,391,1255185,learnblock1,833.5,img/planet13_right.png,13,Community 1,NA,TRUE,j,j,NA,NA,NA,NA,6,"14,13,12,11,2,10,15,8,6,7,3,4,1,5,9"
14091,commdev-image-keyboard-response,392,1256437,learnblock1,466.70000000298023,img/planet2_left.png,2,Community 1,NA,TRUE,f,f,NA,NA,NA,NA,6,"14,13,12,11,2,10,15,8,6,7,3,4,1,5,9"
14091,commdev-image-keyboard-response,393,1257688,learnblock1,719,img/planet14_right.png,14,Community 1,NA,FALSE,f,j,NA,NA,NA,NA,6,"14,13,12,11,2,10,15,8,6,7,3,4,1,5,9"
14091,commdev-image-keyboard-response,394,1258939,learnblock1,638.7000000029802,img/planet11_left.png,11,Community 1,NA,TRUE,f,f,NA,NA,NA,NA,6,"14,13,12,11,2,10,15,8,6,7,3,4,1,5,9"
14091,commdev-image-keyboard-response,395,1260191,learnblock1,529.7000000029802,img/planet10_left.png,10,Community 2,NA,TRUE,f,f,NA,NA,NA,NA,6,"14,13,12,11,2,10,15,8,6,7,3,4,1,5,9"
14091,commdev-image-keyboard-response,396,1261443,learnblock1,581.8000000044703,img/planet7_left.png,7,Community 2,NA,TRUE,f,f,NA,NA,NA,NA,6,"14,13,12,11,2,10,15,8,6,7,3,4,1,5,9"
14091,commdev-image-keyboard-response,397,1262694,learnblock1,661.5,img/planet8_left.png,8,Community 2,NA,TRUE,f,f,NA,NA,NA,NA,6,"14,13,12,11,2,10,15,8,6,7,3,4,1,5,9"
14091,commdev-image-keyboard-response,398,1263946,learnblock1,476.8999999985099,img/planet15_left.png,15,Community 2,NA,TRUE,f,f,NA,NA,NA,NA,6,"14,13,12,11,2,10,15,8,6,7,3,4,1,5,9"
14091,commdev-image-keyboard-response,399,1265197,learnblock1,489.6000000014901,img/planet7_left.png,7,Community 2,NA,TRUE,f,f,NA,NA,NA,NA,6,"14,13,12,11,2,10,15,8,6,7,3,4,1,5,9"
14091,commdev-image-keyboard-response,400,1266449,learnblock1,493.29999999701977,img/planet15_left.png,15,Community 2,NA,TRUE,f,f,NA,NA,NA,NA,6,"14,13,12,11,2,10,15,8,6,7,3,4,1,5,9"
14091,commdev-image-keyboard-response,401,1267700,learnblock1,565.2000000029802,img/planet8_left.png,8,Community 2,NA,TRUE,f,f,NA,NA,NA,NA,6,"14,13,12,11,2,10,15,8,6,7,3,4,1,5,9"
14091,commdev-image-keyboard-response,402,1268952,learnblock1,458,img/planet15_left.png,15,Community 2,NA,TRUE,f,f,NA,NA,NA,NA,6,"14,13,12,11,2,10,15,8,6,7,3,4,1,5,9"
14091,commdev-image-keyboard-response,403,1270204,learnblock1,448.8999999985099,img/planet10_left.png,10,Community 2,NA,FALSE,j,f,NA,NA,NA,NA,6,"14,13,12,11,2,10,15,8,6,7,3,4,1,5,9"
14091,commdev-image-keyboard-response,404,1271455,learnblock1,473.3999999985099,img/planet7_left.png,7,Community 2,NA,TRUE,f,f,NA,NA,NA,NA,6,"14,13,12,11,2,10,15,8,6,7,3,4,1,5,9"
14091,commdev-image-keyboard-response,405,1272707,learnblock1,344.29999999701977,img/planet10_right.png,10,Community 2,NA,FALSE,f,j,NA,NA,NA,NA,6,"14,13,12,11,2,10,15,8,6,7,3,4,1,5,9"
14091,commdev-image-keyboard-response,406,1273958,learnblock1,589.1000000014901,img/planet11_left.png,11,Community 1,NA,TRUE,f,f,NA,NA,NA,NA,6,"14,13,12,11,2,10,15,8,6,7,3,4,1,5,9"
14091,commdev-image-keyboard-response,407,1275209,learnblock1,469.8999999985099,img/planet10_left.png,10,Community 2,NA,TRUE,f,f,NA,NA,NA,NA,6,"14,13,12,11,2,10,15,8,6,7,3,4,1,5,9"
14091,commdev-image-keyboard-response,408,1276461,learnblock1,535.7999999970198,img/planet7_left.png,7,Community 2,NA,TRUE,f,f,NA,NA,NA,NA,6,"14,13,12,11,2,10,15,8,6,7,3,4,1,5,9"
14091,commdev-image-keyboard-response,409,1277713,learnblock1,581.3999999985099,img/planet10_right.png,10,Community 2,NA,TRUE,j,j,NA,NA,NA,NA,6,"14,13,12,11,2,10,15,8,6,7,3,4,1,5,9"
14091,commdev-image-keyboard-response,410,1278964,learnblock1,665.5,img/planet15_left.png,15,Community 2,NA,TRUE,f,f,NA,NA,NA,NA,6,"14,13,12,11,2,10,15,8,6,7,3,4,1,5,9"
14091,commdev-image-keyboard-response,411,1280216,learnblock1,732.1000000014901,img/planet6_right.png,6,Community 2,NA,TRUE,j,j,NA,NA,NA,NA,6,"14,13,12,11,2,10,15,8,6,7,3,4,1,5,9"
14091,commdev-image-keyboard-response,412,1281468,learnblock1,687.3000000044703,img/planet8_right.png,8,Community 2,NA,TRUE,j,j,NA,NA,NA,NA,6,"14,13,12,11,2,10,15,8,6,7,3,4,1,5,9"
14091,commdev-image-keyboard-response,413,1282719,learnblock1,624.8999999985099,img/planet7_right.png,7,Community 2,NA,TRUE,j,j,NA,NA,NA,NA,6,"14,13,12,11,2,10,15,8,6,7,3,4,1,5,9"
14091,commdev-image-keyboard-response,414,1283970,learnblock1,769.3999999985099,img/planet10_right.png,10,Community 2,NA,FALSE,f,j,NA,NA,NA,NA,6,"14,13,12,11,2,10,15,8,6,7,3,4,1,5,9"
14091,commdev-image-keyboard-response,415,1285222,learnblock1,552.2000000029802,img/planet7_left.png,7,Community 2,NA,TRUE,f,f,NA,NA,NA,NA,6,"14,13,12,11,2,10,15,8,6,7,3,4,1,5,9"
14091,commdev-image-keyboard-response,416,1286473,learnblock1,564,img/planet6_left.png,6,Community 2,NA,FALSE,j,f,NA,NA,NA,NA,6,"14,13,12,11,2,10,15,8,6,7,3,4,1,5,9"
14091,commdev-image-keyboard-response,417,1287725,learnblock1,476.8999999985099,img/planet10_left.png,10,Community 2,NA,TRUE,f,f,NA,NA,NA,NA,6,"14,13,12,11,2,10,15,8,6,7,3,4,1,5,9"
14091,commdev-image-keyboard-response,418,1288976,learnblock1,442.19999999552965,img/planet7_left.png,7,Community 2,NA,TRUE,f,f,NA,NA,NA,NA,6,"14,13,12,11,2,10,15,8,6,7,3,4,1,5,9"
14091,commdev-image-keyboard-response,419,1290228,learnblock1,352.09999999403954,img/planet15_left.png,15,Community 2,NA,TRUE,f,f,NA,NA,NA,NA,6,"14,13,12,11,2,10,15,8,6,7,3,4,1,5,9"
14091,commdev-image-keyboard-response,420,1291480,learnblock1,593.8000000044703,img/planet8_right.png,8,Community 2,NA,TRUE,j,j,NA,NA,NA,NA,6,"14,13,12,11,2,10,15,8,6,7,3,4,1,5,9"
14091,commdev-image-keyboard-response,421,1292731,learnblock1,632.8000000044703,img/planet7_right.png,7,Community 2,NA,TRUE,j,j,NA,NA,NA,NA,6,"14,13,12,11,2,10,15,8,6,7,3,4,1,5,9"
14091,commdev-image-keyboard-response,422,1293983,learnblock1,714.1000000014901,img/planet8_right.png,8,Community 2,NA,TRUE,j,j,NA,NA,NA,NA,6,"14,13,12,11,2,10,15,8,6,7,3,4,1,5,9"
14091,commdev-image-keyboard-response,423,1295234,learnblock1,596,img/planet6_right.png,6,Community 2,NA,TRUE,j,j,NA,NA,NA,NA,6,"14,13,12,11,2,10,15,8,6,7,3,4,1,5,9"
14091,commdev-image-keyboard-response,424,1296487,learnblock1,520.3999999985099,img/planet15_left.png,15,Community 2,NA,TRUE,f,f,NA,NA,NA,NA,6,"14,13,12,11,2,10,15,8,6,7,3,4,1,5,9"
14091,commdev-image-keyboard-response,425,1297738,learnblock1,726.1000000014901,img/planet8_left.png,8,Community 2,NA,TRUE,f,f,NA,NA,NA,NA,6,"14,13,12,11,2,10,15,8,6,7,3,4,1,5,9"
14091,commdev-image-keyboard-response,426,1298990,learnblock1,508.1000000014901,img/planet7_left.png,7,Community 2,NA,TRUE,f,f,NA,NA,NA,NA,6,"14,13,12,11,2,10,15,8,6,7,3,4,1,5,9"
14091,commdev-image-keyboard-response,427,1300241,learnblock1,576.8999999985099,img/planet6_left.png,6,Community 2,NA,TRUE,f,f,NA,NA,NA,NA,6,"14,13,12,11,2,10,15,8,6,7,3,4,1,5,9"
14091,commdev-image-keyboard-response,428,1301493,learnblock1,458.69999999552965,img/planet15_left.png,15,Community 2,NA,TRUE,f,f,NA,NA,NA,NA,6,"14,13,12,11,2,10,15,8,6,7,3,4,1,5,9"
14091,commdev-image-keyboard-response,429,1302744,learnblock1,555,img/planet7_right.png,7,Community 2,NA,TRUE,j,j,NA,NA,NA,NA,6,"14,13,12,11,2,10,15,8,6,7,3,4,1,5,9"
14091,commdev-image-keyboard-response,430,1303996,learnblock1,456.19999999552965,img/planet15_left.png,15,Community 2,NA,FALSE,j,f,NA,NA,NA,NA,6,"14,13,12,11,2,10,15,8,6,7,3,4,1,5,9"
14091,commdev-image-keyboard-response,431,1305247,learnblock1,557.1999999955297,img/planet8_right.png,8,Community 2,NA,TRUE,j,j,NA,NA,NA,NA,6,"14,13,12,11,2,10,15,8,6,7,3,4,1,5,9"
14091,commdev-image-keyboard-response,432,1306499,learnblock1,490.6000000014901,img/planet6_left.png,6,Community 2,NA,TRUE,f,f,NA,NA,NA,NA,6,"14,13,12,11,2,10,15,8,6,7,3,4,1,5,9"
14091,commdev-image-keyboard-response,433,1307750,learnblock1,520.8999999985099,img/planet7_right.png,7,Community 2,NA,TRUE,j,j,NA,NA,NA,NA,6,"14,13,12,11,2,10,15,8,6,7,3,4,1,5,9"
14091,commdev-image-keyboard-response,434,1309002,learnblock1,707.7999999970198,img/planet6_right.png,6,Community 2,NA,FALSE,f,j,NA,NA,NA,NA,6,"14,13,12,11,2,10,15,8,6,7,3,4,1,5,9"
14091,commdev-image-keyboard-response,435,1310253,learnblock1,null,img/planet15_right.png,15,Community 2,NA,FALSE,null,j,NA,NA,NA,NA,6,"14,13,12,11,2,10,15,8,6,7,3,4,1,5,9"
14091,commdev-image-keyboard-response,436,1311505,learnblock1,null,img/planet10_left.png,10,Community 2,NA,FALSE,null,f,NA,NA,NA,NA,6,"14,13,12,11,2,10,15,8,6,7,3,4,1,5,9"
14091,commdev-image-keyboard-response,437,1312756,learnblock1,null,img/planet11_right.png,11,Community 1,NA,FALSE,null,j,NA,NA,NA,NA,6,"14,13,12,11,2,10,15,8,6,7,3,4,1,5,9"
14091,commdev-image-keyboard-response,438,1314008,learnblock1,611.7000000029802,img/planet12_left.png,12,Community 1,NA,FALSE,j,f,NA,NA,NA,NA,6,"14,13,12,11,2,10,15,8,6,7,3,4,1,5,9"
14091,commdev-image-keyboard-response,439,1315259,learnblock1,491.5,img/planet13_right.png,13,Community 1,NA,TRUE,j,j,NA,NA,NA,NA,6,"14,13,12,11,2,10,15,8,6,7,3,4,1,5,9"
14091,commdev-image-keyboard-response,440,1316511,learnblock1,653.7000000029802,img/planet14_right.png,14,Community 1,NA,TRUE,j,j,NA,NA,NA,NA,6,"14,13,12,11,2,10,15,8,6,7,3,4,1,5,9"
14091,commdev-image-keyboard-response,441,1317762,learnblock1,538.8999999985099,img/planet11_right.png,11,Community 1,NA,TRUE,j,j,NA,NA,NA,NA,6,"14,13,12,11,2,10,15,8,6,7,3,4,1,5,9"
14091,commdev-image-keyboard-response,442,1319014,learnblock1,634.2999999970198,img/planet13_left.png,13,Community 1,NA,TRUE,f,f,NA,NA,NA,NA,6,"14,13,12,11,2,10,15,8,6,7,3,4,1,5,9"
14091,commdev-image-keyboard-response,443,1320266,learnblock1,458.70000000298023,img/planet14_left.png,14,Community 1,NA,TRUE,f,f,NA,NA,NA,NA,6,"14,13,12,11,2,10,15,8,6,7,3,4,1,5,9"
14091,commdev-image-keyboard-response,444,1321517,learnblock1,482.09999999403954,img/planet13_left.png,13,Community 1,NA,TRUE,f,f,NA,NA,NA,NA,6,"14,13,12,11,2,10,15,8,6,7,3,4,1,5,9"
14091,commdev-image-keyboard-response,445,1322768,learnblock1,548.8999999985099,img/planet2_left.png,2,Community 1,NA,TRUE,f,f,NA,NA,NA,NA,6,"14,13,12,11,2,10,15,8,6,7,3,4,1,5,9"
14091,commdev-image-keyboard-response,446,1324020,learnblock1,553.5,img/planet3_left.png,3,Community 3,NA,TRUE,f,f,NA,NA,NA,NA,6,"14,13,12,11,2,10,15,8,6,7,3,4,1,5,9"
14091,commdev-image-keyboard-response,447,1325271,learnblock1,627.8000000044703,img/planet9_left.png,9,Community 3,NA,TRUE,f,f,NA,NA,NA,NA,6,"14,13,12,11,2,10,15,8,6,7,3,4,1,5,9"
14091,commdev-image-keyboard-response,448,1326523,learnblock1,688.1999999955297,img/planet1_left.png,1,Community 3,NA,TRUE,f,f,NA,NA,NA,NA,6,"14,13,12,11,2,10,15,8,6,7,3,4,1,5,9"
14091,commdev-image-keyboard-response,449,1327774,learnblock1,569.8999999985099,img/planet3_right.png,3,Community 3,NA,TRUE,j,j,NA,NA,NA,NA,6,"14,13,12,11,2,10,15,8,6,7,3,4,1,5,9"
14091,commdev-image-keyboard-response,450,1329026,learnblock1,446.5,img/planet5_right.png,5,Community 3,NA,TRUE,j,j,NA,NA,NA,NA,6,"14,13,12,11,2,10,15,8,6,7,3,4,1,5,9"
14091,commdev-image-keyboard-response,451,1330277,learnblock1,483,img/planet1_left.png,1,Community 3,NA,TRUE,f,f,NA,NA,NA,NA,6,"14,13,12,11,2,10,15,8,6,7,3,4,1,5,9"
14091,commdev-image-keyboard-response,452,1331529,learnblock1,635,img/planet9_right.png,9,Community 3,NA,TRUE,j,j,NA,NA,NA,NA,6,"14,13,12,11,2,10,15,8,6,7,3,4,1,5,9"
14091,commdev-image-keyboard-response,453,1332780,learnblock1,617.2999999970198,img/planet4_left.png,4,Community 3,NA,TRUE,f,f,NA,NA,NA,NA,6,"14,13,12,11,2,10,15,8,6,7,3,4,1,5,9"
14091,commdev-image-keyboard-response,454,1334031,learnblock1,528,img/planet8_right.png,8,Community 2,NA,TRUE,j,j,NA,NA,NA,NA,6,"14,13,12,11,2,10,15,8,6,7,3,4,1,5,9"
14091,commdev-image-keyboard-response,455,1335283,learnblock1,707.0999999940395,img/planet6_right.png,6,Community 2,NA,TRUE,j,j,NA,NA,NA,NA,6,"14,13,12,11,2,10,15,8,6,7,3,4,1,5,9"
14091,commdev-image-keyboard-response,456,1336534,learnblock1,677.1999999955297,img/planet8_right.png,8,Community 2,NA,TRUE,j,j,NA,NA,NA,NA,6,"14,13,12,11,2,10,15,8,6,7,3,4,1,5,9"
14091,commdev-image-keyboard-response,457,1337786,learnblock1,623.7999999970198,img/planet7_left.png,7,Community 2,NA,FALSE,j,f,NA,NA,NA,NA,6,"14,13,12,11,2,10,15,8,6,7,3,4,1,5,9"
14091,commdev-image-keyboard-response,458,1339037,learnblock1,736.4000000059605,img/planet8_left.png,8,Community 2,NA,TRUE,f,f,NA,NA,NA,NA,6,"14,13,12,11,2,10,15,8,6,7,3,4,1,5,9"
14091,commdev-image-keyboard-response,459,1340289,learnblock1,484.69999999552965,img/planet15_left.png,15,Community 2,NA,TRUE,f,f,NA,NA,NA,NA,6,"14,13,12,11,2,10,15,8,6,7,3,4,1,5,9"
14091,commdev-image-keyboard-response,460,1341540,learnblock1,625.9000000059605,img/planet6_right.png,6,Community 2,NA,TRUE,j,j,NA,NA,NA,NA,6,"14,13,12,11,2,10,15,8,6,7,3,4,1,5,9"
14091,commdev-image-keyboard-response,461,1342792,learnblock1,638.7999999970198,img/planet8_left.png,8,Community 2,NA,FALSE,j,f,NA,NA,NA,NA,6,"14,13,12,11,2,10,15,8,6,7,3,4,1,5,9"
14091,commdev-image-keyboard-response,462,1344043,learnblock1,607.5,img/planet15_right.png,15,Community 2,NA,TRUE,j,j,NA,NA,NA,NA,6,"14,13,12,11,2,10,15,8,6,7,3,4,1,5,9"
14091,commdev-image-keyboard-response,463,1345295,learnblock1,687.2000000029802,img/planet6_right.png,6,Community 2,NA,TRUE,j,j,NA,NA,NA,NA,6,"14,13,12,11,2,10,15,8,6,7,3,4,1,5,9"
14091,commdev-image-keyboard-response,464,1346547,learnblock1,620.7000000029802,img/planet15_right.png,15,Community 2,NA,TRUE,j,j,NA,NA,NA,NA,6,"14,13,12,11,2,10,15,8,6,7,3,4,1,5,9"
14091,commdev-image-keyboard-response,465,1347798,learnblock1,664.2999999970198,img/planet8_right.png,8,Community 2,NA,TRUE,j,j,NA,NA,NA,NA,6,"14,13,12,11,2,10,15,8,6,7,3,4,1,5,9"
14091,commdev-image-keyboard-response,466,1349050,learnblock1,573,img/planet15_left.png,15,Community 2,NA,TRUE,f,f,NA,NA,NA,NA,6,"14,13,12,11,2,10,15,8,6,7,3,4,1,5,9"
14091,commdev-image-keyboard-response,467,1350301,learnblock1,554.2000000029802,img/planet8_right.png,8,Community 2,NA,TRUE,j,j,NA,NA,NA,NA,6,"14,13,12,11,2,10,15,8,6,7,3,4,1,5,9"
14091,commdev-image-keyboard-response,468,1351553,learnblock1,511,img/planet4_left.png,4,Community 3,NA,FALSE,j,f,NA,NA,NA,NA,6,"14,13,12,11,2,10,15,8,6,7,3,4,1,5,9"
14091,commdev-image-keyboard-response,469,1352804,learnblock1,652.7999999970198,img/planet1_left.png,1,Community 3,NA,FALSE,j,f,NA,NA,NA,NA,6,"14,13,12,11,2,10,15,8,6,7,3,4,1,5,9"
14091,commdev-image-keyboard-response,470,1354056,learnblock1,780.5,img/planet4_left.png,4,Community 3,NA,TRUE,f,f,NA,NA,NA,NA,6,"14,13,12,11,2,10,15,8,6,7,3,4,1,5,9"
14091,commdev-image-keyboard-response,471,1355307,learnblock1,571.5,img/planet1_right.png,1,Community 3,NA,FALSE,f,j,NA,NA,NA,NA,6,"14,13,12,11,2,10,15,8,6,7,3,4,1,5,9"
14091,commdev-image-keyboard-response,472,1356559,learnblock1,872.6000000014901,img/planet4_right.png,4,Community 3,NA,TRUE,j,j,NA,NA,NA,NA,6,"14,13,12,11,2,10,15,8,6,7,3,4,1,5,9"
14091,commdev-image-keyboard-response,473,1357811,learnblock1,544.5,img/planet5_right.png,5,Community 3,NA,TRUE,j,j,NA,NA,NA,NA,6,"14,13,12,11,2,10,15,8,6,7,3,4,1,5,9"
14091,commdev-image-keyboard-response,474,1359063,learnblock1,393.29999999701977,img/planet4_right.png,4,Community 3,NA,TRUE,j,j,NA,NA,NA,NA,6,"14,13,12,11,2,10,15,8,6,7,3,4,1,5,9"
14091,commdev-image-keyboard-response,475,1360314,learnblock1,586.2999999970198,img/planet8_right.png,8,Community 2,NA,TRUE,j,j,NA,NA,NA,NA,6,"14,13,12,11,2,10,15,8,6,7,3,4,1,5,9"
14091,commdev-image-keyboard-response,476,1361566,learnblock1,546,img/planet15_right.png,15,Community 2,NA,TRUE,j,j,NA,NA,NA,NA,6,"14,13,12,11,2,10,15,8,6,7,3,4,1,5,9"
14091,commdev-image-keyboard-response,477,1362817,learnblock1,540,img/planet10_right.png,10,Community 2,NA,TRUE,j,j,NA,NA,NA,NA,6,"14,13,12,11,2,10,15,8,6,7,3,4,1,5,9"
14091,commdev-image-keyboard-response,478,1364069,learnblock1,554.8000000044703,img/planet7_right.png,7,Community 2,NA,TRUE,j,j,NA,NA,NA,NA,6,"14,13,12,11,2,10,15,8,6,7,3,4,1,5,9"
14091,commdev-image-keyboard-response,479,1365320,learnblock1,597.8999999985099,img/planet15_right.png,15,Community 2,NA,TRUE,j,j,NA,NA,NA,NA,6,"14,13,12,11,2,10,15,8,6,7,3,4,1,5,9"
14091,commdev-image-keyboard-response,480,1366571,learnblock1,669.7999999970198,img/planet8_left.png,8,Community 2,NA,TRUE,f,f,NA,NA,NA,NA,6,"14,13,12,11,2,10,15,8,6,7,3,4,1,5,9"
14091,commdev-image-keyboard-response,481,1367823,learnblock1,702.3999999985099,img/planet4_right.png,4,Community 3,NA,TRUE,j,j,NA,NA,NA,NA,6,"14,13,12,11,2,10,15,8,6,7,3,4,1,5,9"
14091,commdev-image-keyboard-response,482,1369074,learnblock1,600.7000000029802,img/planet1_left.png,1,Community 3,NA,TRUE,f,f,NA,NA,NA,NA,6,"14,13,12,11,2,10,15,8,6,7,3,4,1,5,9"
14091,commdev-image-keyboard-response,483,1370326,learnblock1,1047.5,img/planet3_left.png,3,Community 3,NA,TRUE,f,f,NA,NA,NA,NA,6,"14,13,12,11,2,10,15,8,6,7,3,4,1,5,9"
14091,commdev-image-keyboard-response,484,1371577,learnblock1,549.0999999940395,img/planet9_right.png,9,Community 3,NA,TRUE,j,j,NA,NA,NA,NA,6,"14,13,12,11,2,10,15,8,6,7,3,4,1,5,9"
14091,commdev-image-keyboard-response,485,1372828,learnblock1,606.5999999940395,img/planet5_left.png,5,Community 3,NA,TRUE,f,f,NA,NA,NA,NA,6,"14,13,12,11,2,10,15,8,6,7,3,4,1,5,9"
14091,commdev-image-keyboard-response,486,1374080,learnblock1,628.1000000014901,img/planet3_right.png,3,Community 3,NA,TRUE,j,j,NA,NA,NA,NA,6,"14,13,12,11,2,10,15,8,6,7,3,4,1,5,9"
14091,commdev-image-keyboard-response,487,1375332,learnblock1,814.6000000014901,img/planet2_left.png,2,Community 1,NA,TRUE,f,f,NA,NA,NA,NA,6,"14,13,12,11,2,10,15,8,6,7,3,4,1,5,9"
14091,commdev-image-keyboard-response,488,1376583,learnblock1,737,img/planet13_left.png,13,Community 1,NA,TRUE,f,f,NA,NA,NA,NA,6,"14,13,12,11,2,10,15,8,6,7,3,4,1,5,9"
14091,commdev-image-keyboard-response,489,1377835,learnblock1,732.2999999970198,img/planet12_left.png,12,Community 1,NA,TRUE,f,f,NA,NA,NA,NA,6,"14,13,12,11,2,10,15,8,6,7,3,4,1,5,9"
14091,commdev-image-keyboard-response,490,1379086,learnblock1,860.3999999985099,img/planet2_left.png,2,Community 1,NA,TRUE,f,f,NA,NA,NA,NA,6,"14,13,12,11,2,10,15,8,6,7,3,4,1,5,9"
14091,commdev-image-keyboard-response,491,1380338,learnblock1,526.7000000029802,img/planet13_right.png,13,Community 1,NA,TRUE,j,j,NA,NA,NA,NA,6,"14,13,12,11,2,10,15,8,6,7,3,4,1,5,9"
14091,commdev-image-keyboard-response,492,1381589,learnblock1,1034.3000000044703,img/planet14_right.png,14,Community 1,NA,TRUE,j,j,NA,NA,NA,NA,6,"14,13,12,11,2,10,15,8,6,7,3,4,1,5,9"
14091,commdev-image-keyboard-response,493,1382841,learnblock1,589.2999999970198,img/planet12_right.png,12,Community 1,NA,TRUE,j,j,NA,NA,NA,NA,6,"14,13,12,11,2,10,15,8,6,7,3,4,1,5,9"
14091,commdev-image-keyboard-response,494,1384092,learnblock1,482.69999999552965,img/planet13_right.png,13,Community 1,NA,TRUE,j,j,NA,NA,NA,NA,6,"14,13,12,11,2,10,15,8,6,7,3,4,1,5,9"
14091,commdev-image-keyboard-response,495,1385344,learnblock1,440.5,img/planet11_left.png,11,Community 1,NA,TRUE,f,f,NA,NA,NA,NA,6,"14,13,12,11,2,10,15,8,6,7,3,4,1,5,9"
14091,commdev-image-keyboard-response,496,1386595,learnblock1,715.5,img/planet13_left.png,13,Community 1,NA,TRUE,f,f,NA,NA,NA,NA,6,"14,13,12,11,2,10,15,8,6,7,3,4,1,5,9"
14091,commdev-image-keyboard-response,497,1387847,learnblock1,673.6000000014901,img/planet2_left.png,2,Community 1,NA,TRUE,f,f,NA,NA,NA,NA,6,"14,13,12,11,2,10,15,8,6,7,3,4,1,5,9"
14091,commdev-image-keyboard-response,498,1389098,learnblock1,678.3999999985099,img/planet14_left.png,14,Community 1,NA,TRUE,f,f,NA,NA,NA,NA,6,"14,13,12,11,2,10,15,8,6,7,3,4,1,5,9"
14091,commdev-image-keyboard-response,499,1390350,learnblock1,521.1000000014901,img/planet11_right.png,11,Community 1,NA,TRUE,j,j,NA,NA,NA,NA,6,"14,13,12,11,2,10,15,8,6,7,3,4,1,5,9"
14091,commdev-image-keyboard-response,500,1391601,learnblock1,758.7000000029802,img/planet12_right.png,12,Community 1,NA,FALSE,f,j,NA,NA,NA,NA,6,"14,13,12,11,2,10,15,8,6,7,3,4,1,5,9"
14091,commdev-image-keyboard-response,501,1392852,learnblock1,null,img/planet14_right.png,14,Community 1,NA,FALSE,null,j,NA,NA,NA,NA,6,"14,13,12,11,2,10,15,8,6,7,3,4,1,5,9"
14091,commdev-image-keyboard-response,502,1394104,learnblock1,985.5,img/planet12_left.png,12,Community 1,NA,FALSE,j,f,NA,NA,NA,NA,6,"14,13,12,11,2,10,15,8,6,7,3,4,1,5,9"
14091,commdev-image-keyboard-response,503,1395356,learnblock1,644.3000000044703,img/planet14_left.png,14,Community 1,NA,TRUE,f,f,NA,NA,NA,NA,6,"14,13,12,11,2,10,15,8,6,7,3,4,1,5,9"
14091,commdev-image-keyboard-response,504,1396607,learnblock1,548.4000000059605,img/planet11_right.png,11,Community 1,NA,TRUE,j,j,NA,NA,NA,NA,6,"14,13,12,11,2,10,15,8,6,7,3,4,1,5,9"
14091,commdev-image-keyboard-response,505,1397859,learnblock1,803,img/planet14_right.png,14,Community 1,NA,FALSE,f,j,NA,NA,NA,NA,6,"14,13,12,11,2,10,15,8,6,7,3,4,1,5,9"
14091,commdev-image-keyboard-response,506,1399110,learnblock1,628.2000000029802,img/planet13_right.png,13,Community 1,NA,TRUE,j,j,NA,NA,NA,NA,6,"14,13,12,11,2,10,15,8,6,7,3,4,1,5,9"
14091,commdev-image-keyboard-response,507,1400362,learnblock1,540.8000000044703,img/planet12_left.png,12,Community 1,NA,TRUE,f,f,NA,NA,NA,NA,6,"14,13,12,11,2,10,15,8,6,7,3,4,1,5,9"
14091,commdev-image-keyboard-response,508,1401613,learnblock1,631.8999999985099,img/planet14_right.png,14,Community 1,NA,TRUE,j,j,NA,NA,NA,NA,6,"14,13,12,11,2,10,15,8,6,7,3,4,1,5,9"
14091,commdev-image-keyboard-response,509,1402865,learnblock1,712.1000000014901,img/planet12_right.png,12,Community 1,NA,TRUE,j,j,NA,NA,NA,NA,6,"14,13,12,11,2,10,15,8,6,7,3,4,1,5,9"
14091,commdev-image-keyboard-response,510,1404116,learnblock1,519,img/planet13_left.png,13,Community 1,NA,TRUE,f,f,NA,NA,NA,NA,6,"14,13,12,11,2,10,15,8,6,7,3,4,1,5,9"
14091,commdev-image-keyboard-response,511,1405368,learnblock1,643.5,img/planet14_left.png,14,Community 1,NA,FALSE,j,f,NA,NA,NA,NA,6,"14,13,12,11,2,10,15,8,6,7,3,4,1,5,9"
14091,commdev-image-keyboard-response,512,1406620,learnblock1,721.9000000059605,img/planet2_right.png,2,Community 1,NA,TRUE,j,j,NA,NA,NA,NA,6,"14,13,12,11,2,10,15,8,6,7,3,4,1,5,9"
14091,commdev-image-keyboard-response,513,1407871,learnblock1,647.5999999940395,img/planet13_right.png,13,Community 1,NA,TRUE,j,j,NA,NA,NA,NA,6,"14,13,12,11,2,10,15,8,6,7,3,4,1,5,9"
14091,commdev-image-keyboard-response,514,1409122,learnblock1,644.6999999955297,img/planet2_left.png,2,Community 1,NA,TRUE,f,f,NA,NA,NA,NA,6,"14,13,12,11,2,10,15,8,6,7,3,4,1,5,9"
14091,commdev-image-keyboard-response,515,1410374,learnblock1,null,img/planet12_left.png,12,Community 1,NA,FALSE,null,f,NA,NA,NA,NA,6,"14,13,12,11,2,10,15,8,6,7,3,4,1,5,9"
14091,commdev-image-keyboard-response,516,1411625,learnblock1,816.1000000014901,img/planet14_left.png,14,Community 1,NA,TRUE,f,f,NA,NA,NA,NA,6,"14,13,12,11,2,10,15,8,6,7,3,4,1,5,9"
14091,commdev-image-keyboard-response,517,1412877,learnblock1,596.1000000014901,img/planet13_right.png,13,Community 1,NA,TRUE,j,j,NA,NA,NA,NA,6,"14,13,12,11,2,10,15,8,6,7,3,4,1,5,9"
14091,commdev-image-keyboard-response,521,1618335,learnblock2,882.7999999970198,img/planet2_right.png,2,Community 1,NA,TRUE,j,j,NA,NA,NA,NA,6,"14,13,12,11,2,10,15,8,6,7,3,4,1,5,9"
14091,commdev-image-keyboard-response,522,1619587,learnblock2,594,img/planet3_left.png,3,Community 3,NA,TRUE,f,f,NA,NA,NA,NA,6,"14,13,12,11,2,10,15,8,6,7,3,4,1,5,9"
14091,commdev-image-keyboard-response,523,1620838,learnblock2,572.6000000014901,img/planet1_right.png,1,Community 3,NA,TRUE,j,j,NA,NA,NA,NA,6,"14,13,12,11,2,10,15,8,6,7,3,4,1,5,9"
14091,commdev-image-keyboard-response,524,1622090,learnblock2,508.69999999552965,img/planet9_left.png,9,Community 3,NA,FALSE,j,f,NA,NA,NA,NA,6,"14,13,12,11,2,10,15,8,6,7,3,4,1,5,9"
14091,commdev-image-keyboard-response,525,1623342,learnblock2,675,img/planet5_left.png,5,Community 3,NA,TRUE,f,f,NA,NA,NA,NA,6,"14,13,12,11,2,10,15,8,6,7,3,4,1,5,9"
14091,commdev-image-keyboard-response,526,1624593,learnblock2,787.5,img/planet9_right.png,9,Community 3,NA,FALSE,f,j,NA,NA,NA,NA,6,"14,13,12,11,2,10,15,8,6,7,3,4,1,5,9"
14091,commdev-image-keyboard-response,527,1625845,learnblock2,717.6000000014901,img/planet1_right.png,1,Community 3,NA,TRUE,j,j,NA,NA,NA,NA,6,"14,13,12,11,2,10,15,8,6,7,3,4,1,5,9"
14091,commdev-image-keyboard-response,528,1627096,learnblock2,472.3999999985099,img/planet9_left.png,9,Community 3,NA,TRUE,f,f,NA,NA,NA,NA,6,"14,13,12,11,2,10,15,8,6,7,3,4,1,5,9"
14091,commdev-image-keyboard-response,529,1628348,learnblock2,430.3999999985099,img/planet1_right.png,1,Community 3,NA,TRUE,j,j,NA,NA,NA,NA,6,"14,13,12,11,2,10,15,8,6,7,3,4,1,5,9"
14091,commdev-image-keyboard-response,530,1629599,learnblock2,629.8999999985099,img/planet4_right.png,4,Community 3,NA,TRUE,j,j,NA,NA,NA,NA,6,"14,13,12,11,2,10,15,8,6,7,3,4,1,5,9"
14091,commdev-image-keyboard-response,531,1630851,learnblock2,615.8999999985099,img/planet9_right.png,9,Community 3,NA,TRUE,j,j,NA,NA,NA,NA,6,"14,13,12,11,2,10,15,8,6,7,3,4,1,5,9"
14091,commdev-image-keyboard-response,532,1632102,learnblock2,559.2999999970198,img/planet4_left.png,4,Community 3,NA,TRUE,f,f,NA,NA,NA,NA,6,"14,13,12,11,2,10,15,8,6,7,3,4,1,5,9"
14091,commdev-image-keyboard-response,533,1633354,learnblock2,548.5,img/planet1_right.png,1,Community 3,NA,TRUE,j,j,NA,NA,NA,NA,6,"14,13,12,11,2,10,15,8,6,7,3,4,1,5,9"
14091,commdev-image-keyboard-response,534,1634605,learnblock2,411.20000000298023,img/planet5_left.png,5,Community 3,NA,TRUE,f,f,NA,NA,NA,NA,6,"14,13,12,11,2,10,15,8,6,7,3,4,1,5,9"
14091,commdev-image-keyboard-response,535,1635857,learnblock2,578.6000000014901,img/planet3_right.png,3,Community 3,NA,FALSE,f,j,NA,NA,NA,NA,6,"14,13,12,11,2,10,15,8,6,7,3,4,1,5,9"
14091,commdev-image-keyboard-response,536,1637108,learnblock2,575.2999999970198,img/planet1_left.png,1,Community 3,NA,TRUE,f,f,NA,NA,NA,NA,6,"14,13,12,11,2,10,15,8,6,7,3,4,1,5,9"
14091,commdev-image-keyboard-response,537,1638359,learnblock2,527.9000000059605,img/planet3_right.png,3,Community 3,NA,TRUE,j,j,NA,NA,NA,NA,6,"14,13,12,11,2,10,15,8,6,7,3,4,1,5,9"
14091,commdev-image-keyboard-response,538,1639611,learnblock2,535.2999999970198,img/planet2_right.png,2,Community 1,NA,TRUE,j,j,NA,NA,NA,NA,6,"14,13,12,11,2,10,15,8,6,7,3,4,1,5,9"
14091,commdev-image-keyboard-response,539,1640862,learnblock2,889.6000000014901,img/planet12_left.png,12,Community 1,NA,TRUE,f,f,NA,NA,NA,NA,6,"14,13,12,11,2,10,15,8,6,7,3,4,1,5,9"
14091,commdev-image-keyboard-response,540,1642114,learnblock2,575.8999999985099,img/planet11_left.png,11,Community 1,NA,TRUE,f,f,NA,NA,NA,NA,6,"14,13,12,11,2,10,15,8,6,7,3,4,1,5,9"
14091,commdev-image-keyboard-response,541,1643366,learnblock2,466.70000000298023,img/planet10_left.png,10,Community 2,NA,TRUE,f,f,NA,NA,NA,NA,6,"14,13,12,11,2,10,15,8,6,7,3,4,1,5,9"
14091,commdev-image-keyboard-response,542,1644617,learnblock2,472.40000000596046,img/planet15_right.png,15,Community 2,NA,TRUE,j,j,NA,NA,NA,NA,6,"14,13,12,11,2,10,15,8,6,7,3,4,1,5,9"
14091,commdev-image-keyboard-response,543,1645869,learnblock2,475.1000000014901,img/planet6_right.png,6,Community 2,NA,TRUE,j,j,NA,NA,NA,NA,6,"14,13,12,11,2,10,15,8,6,7,3,4,1,5,9"
14091,commdev-image-keyboard-response,544,1647120,learnblock2,569.1999999955297,img/planet8_right.png,8,Community 2,NA,TRUE,j,j,NA,NA,NA,NA,6,"14,13,12,11,2,10,15,8,6,7,3,4,1,5,9"
14091,commdev-image-keyboard-response,545,1648371,learnblock2,499.1000000014901,img/planet4_right.png,4,Community 3,NA,TRUE,j,j,NA,NA,NA,NA,6,"14,13,12,11,2,10,15,8,6,7,3,4,1,5,9"
14091,commdev-image-keyboard-response,546,1649623,learnblock2,526.9000000059605,img/planet9_right.png,9,Community 3,NA,TRUE,j,j,NA,NA,NA,NA,6,"14,13,12,11,2,10,15,8,6,7,3,4,1,5,9"
14091,commdev-image-keyboard-response,547,1650874,learnblock2,546.9000000059605,img/planet1_right.png,1,Community 3,NA,TRUE,j,j,NA,NA,NA,NA,6,"14,13,12,11,2,10,15,8,6,7,3,4,1,5,9"
14091,commdev-image-keyboard-response,548,1652126,learnblock2,525.5999999940395,img/planet4_right.png,4,Community 3,NA,FALSE,f,j,NA,NA,NA,NA,6,"14,13,12,11,2,10,15,8,6,7,3,4,1,5,9"
14091,commdev-image-keyboard-response,549,1653378,learnblock2,569.2000000029802,img/planet9_right.png,9,Community 3,NA,TRUE,j,j,NA,NA,NA,NA,6,"14,13,12,11,2,10,15,8,6,7,3,4,1,5,9"
14091,commdev-image-keyboard-response,550,1654630,learnblock2,560.1000000014901,img/planet4_left.png,4,Community 3,NA,TRUE,f,f,NA,NA,NA,NA,6,"14,13,12,11,2,10,15,8,6,7,3,4,1,5,9"
14091,commdev-image-keyboard-response,551,1655881,learnblock2,608.5,img/planet1_right.png,1,Community 3,NA,TRUE,j,j,NA,NA,NA,NA,6,"14,13,12,11,2,10,15,8,6,7,3,4,1,5,9"
14091,commdev-image-keyboard-response,552,1657133,learnblock2,496.70000000298023,img/planet5_right.png,5,Community 3,NA,TRUE,j,j,NA,NA,NA,NA,6,"14,13,12,11,2,10,15,8,6,7,3,4,1,5,9"
14091,commdev-image-keyboard-response,553,1658384,learnblock2,558.0999999940395,img/planet9_left.png,9,Community 3,NA,TRUE,f,f,NA,NA,NA,NA,6,"14,13,12,11,2,10,15,8,6,7,3,4,1,5,9"
14091,commdev-image-keyboard-response,554,1659636,learnblock2,517.6000000014901,img/planet1_left.png,1,Community 3,NA,TRUE,f,f,NA,NA,NA,NA,6,"14,13,12,11,2,10,15,8,6,7,3,4,1,5,9"
14091,commdev-image-keyboard-response,555,1660888,learnblock2,452.8999999985099,img/planet3_right.png,3,Community 3,NA,TRUE,j,j,NA,NA,NA,NA,6,"14,13,12,11,2,10,15,8,6,7,3,4,1,5,9"
14091,commdev-image-keyboard-response,556,1662139,learnblock2,581.2999999970198,img/planet5_right.png,5,Community 3,NA,TRUE,j,j,NA,NA,NA,NA,6,"14,13,12,11,2,10,15,8,6,7,3,4,1,5,9"
14091,commdev-image-keyboard-response,557,1663390,learnblock2,873.7000000029802,img/planet9_left.png,9,Community 3,NA,TRUE,f,f,NA,NA,NA,NA,6,"14,13,12,11,2,10,15,8,6,7,3,4,1,5,9"
14091,commdev-image-keyboard-response,558,1664642,learnblock2,577.2999999970198,img/planet5_left.png,5,Community 3,NA,TRUE,f,f,NA,NA,NA,NA,6,"14,13,12,11,2,10,15,8,6,7,3,4,1,5,9"
14091,commdev-image-keyboard-response,559,1665893,learnblock2,627.6999999955297,img/planet3_left.png,3,Community 3,NA,TRUE,f,f,NA,NA,NA,NA,6,"14,13,12,11,2,10,15,8,6,7,3,4,1,5,9"
14091,commdev-image-keyboard-response,560,1667145,learnblock2,528,img/planet5_right.png,5,Community 3,NA,TRUE,j,j,NA,NA,NA,NA,6,"14,13,12,11,2,10,15,8,6,7,3,4,1,5,9"
14091,commdev-image-keyboard-response,561,1668397,learnblock2,701.2999999970198,img/planet3_left.png,3,Community 3,NA,FALSE,j,f,NA,NA,NA,NA,6,"14,13,12,11,2,10,15,8,6,7,3,4,1,5,9"
14091,commdev-image-keyboard-response,562,1669648,learnblock2,614,img/planet9_right.png,9,Community 3,NA,TRUE,j,j,NA,NA,NA,NA,6,"14,13,12,11,2,10,15,8,6,7,3,4,1,5,9"
14091,commdev-image-keyboard-response,563,1670899,learnblock2,736.1000000014901,img/planet3_right.png,3,Community 3,NA,TRUE,j,j,NA,NA,NA,NA,6,"14,13,12,11,2,10,15,8,6,7,3,4,1,5,9"
14091,commdev-image-keyboard-response,564,1672151,learnblock2,911,img/planet2_left.png,2,Community 1,NA,TRUE,f,f,NA,NA,NA,NA,6,"14,13,12,11,2,10,15,8,6,7,3,4,1,5,9"
14091,commdev-image-keyboard-response,565,1673403,learnblock2,587.7999999970198,img/planet12_left.png,12,Community 1,NA,TRUE,f,f,NA,NA,NA,NA,6,"14,13,12,11,2,10,15,8,6,7,3,4,1,5,9"
14091,commdev-image-keyboard-response,566,1674655,learnblock2,599.5,img/planet14_right.png,14,Community 1,NA,TRUE,j,j,NA,NA,NA,NA,6,"14,13,12,11,2,10,15,8,6,7,3,4,1,5,9"
14091,commdev-image-keyboard-response,567,1675906,learnblock2,519.8999999985099,img/planet11_right.png,11,Community 1,NA,TRUE,j,j,NA,NA,NA,NA,6,"14,13,12,11,2,10,15,8,6,7,3,4,1,5,9"
14091,commdev-image-keyboard-response,568,1677158,learnblock2,598.6000000014901,img/planet14_left.png,14,Community 1,NA,TRUE,f,f,NA,NA,NA,NA,6,"14,13,12,11,2,10,15,8,6,7,3,4,1,5,9"
14091,commdev-image-keyboard-response,569,1678409,learnblock2,678.6999999955297,img/planet12_right.png,12,Community 1,NA,FALSE,f,j,NA,NA,NA,NA,6,"14,13,12,11,2,10,15,8,6,7,3,4,1,5,9"
14091,commdev-image-keyboard-response,570,1679661,learnblock2,670.2000000029802,img/planet2_right.png,2,Community 1,NA,TRUE,j,j,NA,NA,NA,NA,6,"14,13,12,11,2,10,15,8,6,7,3,4,1,5,9"
14091,commdev-image-keyboard-response,571,1680912,learnblock2,774.6999999955297,img/planet12_right.png,12,Community 1,NA,TRUE,j,j,NA,NA,NA,NA,6,"14,13,12,11,2,10,15,8,6,7,3,4,1,5,9"
14091,commdev-image-keyboard-response,572,1682164,learnblock2,699.7999999970198,img/planet11_right.png,11,Community 1,NA,TRUE,j,j,NA,NA,NA,NA,6,"14,13,12,11,2,10,15,8,6,7,3,4,1,5,9"
14091,commdev-image-keyboard-response,573,1683416,learnblock2,742.3999999985099,img/planet13_right.png,13,Community 1,NA,TRUE,j,j,NA,NA,NA,NA,6,"14,13,12,11,2,10,15,8,6,7,3,4,1,5,9"
14091,commdev-image-keyboard-response,574,1684667,learnblock2,626.6999999955297,img/planet12_left.png,12,Community 1,NA,TRUE,f,f,NA,NA,NA,NA,6,"14,13,12,11,2,10,15,8,6,7,3,4,1,5,9"
14091,commdev-image-keyboard-response,575,1685919,learnblock2,1236,img/planet11_right.png,11,Community 1,NA,FALSE,f,j,NA,NA,NA,NA,6,"14,13,12,11,2,10,15,8,6,7,3,4,1,5,9"
14091,commdev-image-keyboard-response,576,1687171,learnblock2,null,img/planet10_left.png,10,Community 2,NA,FALSE,null,f,NA,NA,NA,NA,6,"14,13,12,11,2,10,15,8,6,7,3,4,1,5,9"
14091,commdev-image-keyboard-response,577,1688423,learnblock2,600.7000000029802,img/planet15_right.png,15,Community 2,NA,TRUE,j,j,NA,NA,NA,NA,6,"14,13,12,11,2,10,15,8,6,7,3,4,1,5,9"
14091,commdev-image-keyboard-response,578,1689674,learnblock2,914.3000000044703,img/planet8_left.png,8,Community 2,NA,TRUE,f,f,NA,NA,NA,NA,6,"14,13,12,11,2,10,15,8,6,7,3,4,1,5,9"
14091,commdev-image-keyboard-response,579,1690926,learnblock2,647,img/planet15_left.png,15,Community 2,NA,TRUE,f,f,NA,NA,NA,NA,6,"14,13,12,11,2,10,15,8,6,7,3,4,1,5,9"
14091,commdev-image-keyboard-response,580,1692177,learnblock2,1211.1000000014901,img/planet7_left.png,7,Community 2,NA,TRUE,f,f,NA,NA,NA,NA,6,"14,13,12,11,2,10,15,8,6,7,3,4,1,5,9"
14091,commdev-image-keyboard-response,581,1693429,learnblock2,880.6000000014901,img/planet10_left.png,10,Community 2,NA,TRUE,f,f,NA,NA,NA,NA,6,"14,13,12,11,2,10,15,8,6,7,3,4,1,5,9"
14091,commdev-image-keyboard-response,582,1694680,learnblock2,725.7999999970198,img/planet7_right.png,7,Community 2,NA,TRUE,j,j,NA,NA,NA,NA,6,"14,13,12,11,2,10,15,8,6,7,3,4,1,5,9"
14091,commdev-image-keyboard-response,583,1695932,learnblock2,615,img/planet15_left.png,15,Community 2,NA,FALSE,j,f,NA,NA,NA,NA,6,"14,13,12,11,2,10,15,8,6,7,3,4,1,5,9"
14091,commdev-image-keyboard-response,584,1697184,learnblock2,773.2000000029802,img/planet6_left.png,6,Community 2,NA,FALSE,j,f,NA,NA,NA,NA,6,"14,13,12,11,2,10,15,8,6,7,3,4,1,5,9"
14091,commdev-image-keyboard-response,585,1698435,learnblock2,881.3999999985099,img/planet10_left.png,10,Community 2,NA,TRUE,f,f,NA,NA,NA,NA,6,"14,13,12,11,2,10,15,8,6,7,3,4,1,5,9"
14091,commdev-image-keyboard-response,586,1699687,learnblock2,537.2999999970198,img/planet15_left.png,15,Community 2,NA,TRUE,f,f,NA,NA,NA,NA,6,"14,13,12,11,2,10,15,8,6,7,3,4,1,5,9"
14091,commdev-image-keyboard-response,587,1700938,learnblock2,546.9000000059605,img/planet8_right.png,8,Community 2,NA,TRUE,j,j,NA,NA,NA,NA,6,"14,13,12,11,2,10,15,8,6,7,3,4,1,5,9"
14091,commdev-image-keyboard-response,588,1702190,learnblock2,648.1000000014901,img/planet6_left.png,6,Community 2,NA,TRUE,f,f,NA,NA,NA,NA,6,"14,13,12,11,2,10,15,8,6,7,3,4,1,5,9"
14091,commdev-image-keyboard-response,589,1703441,learnblock2,618.9000000059605,img/planet7_right.png,7,Community 2,NA,TRUE,j,j,NA,NA,NA,NA,6,"14,13,12,11,2,10,15,8,6,7,3,4,1,5,9"
14091,commdev-image-keyboard-response,590,1704692,learnblock2,780.1000000014901,img/planet15_left.png,15,Community 2,NA,FALSE,j,f,NA,NA,NA,NA,6,"14,13,12,11,2,10,15,8,6,7,3,4,1,5,9"
14091,commdev-image-keyboard-response,591,1705944,learnblock2,765.1999999955297,img/planet10_left.png,10,Community 2,NA,TRUE,f,f,NA,NA,NA,NA,6,"14,13,12,11,2,10,15,8,6,7,3,4,1,5,9"
14091,commdev-image-keyboard-response,592,1707195,learnblock2,739.7000000029802,img/planet11_left.png,11,Community 1,NA,TRUE,f,f,NA,NA,NA,NA,6,"14,13,12,11,2,10,15,8,6,7,3,4,1,5,9"
14091,commdev-image-keyboard-response,593,1708447,learnblock2,723.8999999985099,img/planet10_right.png,10,Community 2,NA,TRUE,j,j,NA,NA,NA,NA,6,"14,13,12,11,2,10,15,8,6,7,3,4,1,5,9"
14091,commdev-image-keyboard-response,594,1709698,learnblock2,814.1000000014901,img/planet15_left.png,15,Community 2,NA,TRUE,f,f,NA,NA,NA,NA,6,"14,13,12,11,2,10,15,8,6,7,3,4,1,5,9"
14091,commdev-image-keyboard-response,595,1710950,learnblock2,581.1999999955297,img/planet8_right.png,8,Community 2,NA,TRUE,j,j,NA,NA,NA,NA,6,"14,13,12,11,2,10,15,8,6,7,3,4,1,5,9"
14091,commdev-image-keyboard-response,596,1712202,learnblock2,1088.9000000059605,img/planet4_right.png,4,Community 3,NA,TRUE,j,j,NA,NA,NA,NA,6,"14,13,12,11,2,10,15,8,6,7,3,4,1,5,9"
14091,commdev-image-keyboard-response,597,1713453,learnblock2,780.1999999955297,img/planet9_right.png,9,Community 3,NA,TRUE,j,j,NA,NA,NA,NA,6,"14,13,12,11,2,10,15,8,6,7,3,4,1,5,9"
14091,commdev-image-keyboard-response,598,1714704,learnblock2,621.0999999940395,img/planet1_left.png,1,Community 3,NA,TRUE,f,f,NA,NA,NA,NA,6,"14,13,12,11,2,10,15,8,6,7,3,4,1,5,9"
14091,commdev-image-keyboard-response,599,1715956,learnblock2,691.6999999955297,img/planet5_right.png,5,Community 3,NA,TRUE,j,j,NA,NA,NA,NA,6,"14,13,12,11,2,10,15,8,6,7,3,4,1,5,9"
14091,commdev-image-keyboard-response,600,1717207,learnblock2,583.8000000044703,img/planet9_right.png,9,Community 3,NA,TRUE,j,j,NA,NA,NA,NA,6,"14,13,12,11,2,10,15,8,6,7,3,4,1,5,9"
14091,commdev-image-keyboard-response,601,1718460,learnblock2,589.0999999940395,img/planet5_right.png,5,Community 3,NA,TRUE,j,j,NA,NA,NA,NA,6,"14,13,12,11,2,10,15,8,6,7,3,4,1,5,9"
14091,commdev-image-keyboard-response,602,1719711,learnblock2,733.6000000014901,img/planet3_right.png,3,Community 3,NA,TRUE,j,j,NA,NA,NA,NA,6,"14,13,12,11,2,10,15,8,6,7,3,4,1,5,9"
14091,commdev-image-keyboard-response,603,1720963,learnblock2,745.3999999985099,img/planet1_left.png,1,Community 3,NA,TRUE,f,f,NA,NA,NA,NA,6,"14,13,12,11,2,10,15,8,6,7,3,4,1,5,9"
14091,commdev-image-keyboard-response,604,1722214,learnblock2,776.9000000059605,img/planet3_right.png,3,Community 3,NA,FALSE,f,j,NA,NA,NA,NA,6,"14,13,12,11,2,10,15,8,6,7,3,4,1,5,9"
14091,commdev-image-keyboard-response,605,1723466,learnblock2,682.8999999985099,img/planet5_left.png,5,Community 3,NA,TRUE,f,f,NA,NA,NA,NA,6,"14,13,12,11,2,10,15,8,6,7,3,4,1,5,9"
14091,commdev-image-keyboard-response,606,1724718,learnblock2,514.2999999970198,img/planet9_right.png,9,Community 3,NA,TRUE,j,j,NA,NA,NA,NA,6,"14,13,12,11,2,10,15,8,6,7,3,4,1,5,9"
14091,commdev-image-keyboard-response,607,1725969,learnblock2,611,img/planet3_left.png,3,Community 3,NA,TRUE,f,f,NA,NA,NA,NA,6,"14,13,12,11,2,10,15,8,6,7,3,4,1,5,9"
14091,commdev-image-keyboard-response,608,1727221,learnblock2,540.8999999985099,img/planet2_right.png,2,Community 1,NA,TRUE,j,j,NA,NA,NA,NA,6,"14,13,12,11,2,10,15,8,6,7,3,4,1,5,9"
14091,commdev-image-keyboard-response,609,1728472,learnblock2,563.8999999985099,img/planet13_left.png,13,Community 1,NA,TRUE,f,f,NA,NA,NA,NA,6,"14,13,12,11,2,10,15,8,6,7,3,4,1,5,9"
14091,commdev-image-keyboard-response,610,1729724,learnblock2,589.3999999985099,img/planet11_right.png,11,Community 1,NA,FALSE,f,j,NA,NA,NA,NA,6,"14,13,12,11,2,10,15,8,6,7,3,4,1,5,9"
14091,commdev-image-keyboard-response,611,1730975,learnblock2,550.8000000044703,img/planet13_right.png,13,Community 1,NA,TRUE,j,j,NA,NA,NA,NA,6,"14,13,12,11,2,10,15,8,6,7,3,4,1,5,9"
14091,commdev-image-keyboard-response,612,1732227,learnblock2,660.1000000014901,img/planet14_right.png,14,Community 1,NA,TRUE,j,j,NA,NA,NA,NA,6,"14,13,12,11,2,10,15,8,6,7,3,4,1,5,9"
14091,commdev-image-keyboard-response,613,1733478,learnblock2,758.5999999940395,img/planet13_right.png,13,Community 1,NA,TRUE,j,j,NA,NA,NA,NA,6,"14,13,12,11,2,10,15,8,6,7,3,4,1,5,9"
14091,commdev-image-keyboard-response,614,1734730,learnblock2,910.5,img/planet14_right.png,14,Community 1,NA,TRUE,j,j,NA,NA,NA,NA,6,"14,13,12,11,2,10,15,8,6,7,3,4,1,5,9"
14091,commdev-image-keyboard-response,615,1735981,learnblock2,785.9000000059605,img/planet11_right.png,11,Community 1,NA,TRUE,j,j,NA,NA,NA,NA,6,"14,13,12,11,2,10,15,8,6,7,3,4,1,5,9"
14091,commdev-image-keyboard-response,616,1737233,learnblock2,567.1999999955297,img/planet12_left.png,12,Community 1,NA,TRUE,f,f,NA,NA,NA,NA,6,"14,13,12,11,2,10,15,8,6,7,3,4,1,5,9"
14091,commdev-image-keyboard-response,617,1738485,learnblock2,573.5,img/planet11_left.png,11,Community 1,NA,TRUE,f,f,NA,NA,NA,NA,6,"14,13,12,11,2,10,15,8,6,7,3,4,1,5,9"
14091,commdev-image-keyboard-response,618,1739736,learnblock2,630,img/planet10_right.png,10,Community 2,NA,TRUE,j,j,NA,NA,NA,NA,6,"14,13,12,11,2,10,15,8,6,7,3,4,1,5,9"
14091,commdev-image-keyboard-response,619,1740988,learnblock2,554.1000000014901,img/planet7_right.png,7,Community 2,NA,TRUE,j,j,NA,NA,NA,NA,6,"14,13,12,11,2,10,15,8,6,7,3,4,1,5,9"
14091,commdev-image-keyboard-response,620,1742240,learnblock2,513.6000000014901,img/planet8_left.png,8,Community 2,NA,TRUE,f,f,NA,NA,NA,NA,6,"14,13,12,11,2,10,15,8,6,7,3,4,1,5,9"
14091,commdev-image-keyboard-response,621,1743491,learnblock2,605.6000000014901,img/planet6_right.png,6,Community 2,NA,FALSE,f,j,NA,NA,NA,NA,6,"14,13,12,11,2,10,15,8,6,7,3,4,1,5,9"
14091,commdev-image-keyboard-response,622,1744743,learnblock2,594.1000000014901,img/planet7_left.png,7,Community 2,NA,TRUE,f,f,NA,NA,NA,NA,6,"14,13,12,11,2,10,15,8,6,7,3,4,1,5,9"
14091,commdev-image-keyboard-response,623,1745995,learnblock2,605,img/planet6_left.png,6,Community 2,NA,TRUE,f,f,NA,NA,NA,NA,6,"14,13,12,11,2,10,15,8,6,7,3,4,1,5,9"
14091,commdev-image-keyboard-response,624,1747246,learnblock2,453.70000000298023,img/planet15_right.png,15,Community 2,NA,TRUE,j,j,NA,NA,NA,NA,6,"14,13,12,11,2,10,15,8,6,7,3,4,1,5,9"
14091,commdev-image-keyboard-response,625,1748498,learnblock2,628.1999999955297,img/planet8_right.png,8,Community 2,NA,TRUE,j,j,NA,NA,NA,NA,6,"14,13,12,11,2,10,15,8,6,7,3,4,1,5,9"
14091,commdev-image-keyboard-response,626,1749750,learnblock2,570,img/planet6_left.png,6,Community 2,NA,TRUE,f,f,NA,NA,NA,NA,6,"14,13,12,11,2,10,15,8,6,7,3,4,1,5,9"
14091,commdev-image-keyboard-response,627,1751001,learnblock2,508.5,img/planet10_right.png,10,Community 2,NA,TRUE,j,j,NA,NA,NA,NA,6,"14,13,12,11,2,10,15,8,6,7,3,4,1,5,9"
14091,commdev-image-keyboard-response,628,1752253,learnblock2,563.8000000044703,img/planet15_left.png,15,Community 2,NA,TRUE,f,f,NA,NA,NA,NA,6,"14,13,12,11,2,10,15,8,6,7,3,4,1,5,9"
14091,commdev-image-keyboard-response,629,1753504,learnblock2,497.70000000298023,img/planet7_right.png,7,Community 2,NA,TRUE,j,j,NA,NA,NA,NA,6,"14,13,12,11,2,10,15,8,6,7,3,4,1,5,9"
14091,commdev-image-keyboard-response,630,1754756,learnblock2,648.7999999970198,img/planet10_left.png,10,Community 2,NA,TRUE,f,f,NA,NA,NA,NA,6,"14,13,12,11,2,10,15,8,6,7,3,4,1,5,9"
14091,commdev-image-keyboard-response,631,1756007,learnblock2,694.2999999970198,img/planet7_right.png,7,Community 2,NA,TRUE,j,j,NA,NA,NA,NA,6,"14,13,12,11,2,10,15,8,6,7,3,4,1,5,9"
14091,commdev-image-keyboard-response,632,1757259,learnblock2,933.2000000029802,img/planet6_left.png,6,Community 2,NA,FALSE,j,f,NA,NA,NA,NA,6,"14,13,12,11,2,10,15,8,6,7,3,4,1,5,9"
14091,commdev-image-keyboard-response,633,1758511,learnblock2,489.8999999985099,img/planet15_left.png,15,Community 2,NA,FALSE,j,f,NA,NA,NA,NA,6,"14,13,12,11,2,10,15,8,6,7,3,4,1,5,9"
14091,commdev-image-keyboard-response,634,1759762,learnblock2,612.6000000014901,img/planet7_right.png,7,Community 2,NA,TRUE,j,j,NA,NA,NA,NA,6,"14,13,12,11,2,10,15,8,6,7,3,4,1,5,9"
14091,commdev-image-keyboard-response,635,1761013,learnblock2,648.5999999940395,img/planet8_right.png,8,Community 2,NA,TRUE,j,j,NA,NA,NA,NA,6,"14,13,12,11,2,10,15,8,6,7,3,4,1,5,9"
14091,commdev-image-keyboard-response,636,1762265,learnblock2,572,img/planet6_left.png,6,Community 2,NA,TRUE,f,f,NA,NA,NA,NA,6,"14,13,12,11,2,10,15,8,6,7,3,4,1,5,9"
14091,commdev-image-keyboard-response,637,1763517,learnblock2,917.7000000029802,img/planet15_left.png,15,Community 2,NA,TRUE,f,f,NA,NA,NA,NA,6,"14,13,12,11,2,10,15,8,6,7,3,4,1,5,9"
14091,commdev-image-keyboard-response,638,1764768,learnblock2,634.3000000044703,img/planet8_right.png,8,Community 2,NA,TRUE,j,j,NA,NA,NA,NA,6,"14,13,12,11,2,10,15,8,6,7,3,4,1,5,9"
14091,commdev-image-keyboard-response,639,1766020,learnblock2,817.6000000014901,img/planet6_left.png,6,Community 2,NA,TRUE,f,f,NA,NA,NA,NA,6,"14,13,12,11,2,10,15,8,6,7,3,4,1,5,9"
14091,commdev-image-keyboard-response,640,1767271,learnblock2,732,img/planet10_left.png,10,Community 2,NA,TRUE,f,f,NA,NA,NA,NA,6,"14,13,12,11,2,10,15,8,6,7,3,4,1,5,9"
14091,commdev-image-keyboard-response,641,1768523,learnblock2,499.3999999985099,img/planet11_right.png,11,Community 1,NA,TRUE,j,j,NA,NA,NA,NA,6,"14,13,12,11,2,10,15,8,6,7,3,4,1,5,9"
14091,commdev-image-keyboard-response,642,1769774,learnblock2,632.8999999985099,img/planet10_left.png,10,Community 2,NA,FALSE,j,f,NA,NA,NA,NA,6,"14,13,12,11,2,10,15,8,6,7,3,4,1,5,9"
14091,commdev-image-keyboard-response,643,1771026,learnblock2,628.0999999940395,img/planet6_right.png,6,Community 2,NA,TRUE,j,j,NA,NA,NA,NA,6,"14,13,12,11,2,10,15,8,6,7,3,4,1,5,9"
14091,commdev-image-keyboard-response,644,1772277,learnblock2,703.8999999985099,img/planet7_left.png,7,Community 2,NA,TRUE,f,f,NA,NA,NA,NA,6,"14,13,12,11,2,10,15,8,6,7,3,4,1,5,9"
14091,commdev-image-keyboard-response,645,1773529,learnblock2,686.8999999985099,img/planet6_right.png,6,Community 2,NA,TRUE,j,j,NA,NA,NA,NA,6,"14,13,12,11,2,10,15,8,6,7,3,4,1,5,9"
14091,commdev-image-keyboard-response,646,1774780,learnblock2,766.7999999970198,img/planet10_left.png,10,Community 2,NA,TRUE,f,f,NA,NA,NA,NA,6,"14,13,12,11,2,10,15,8,6,7,3,4,1,5,9"
14091,commdev-image-keyboard-response,647,1776032,learnblock2,602.3000000044703,img/planet6_left.png,6,Community 2,NA,TRUE,f,f,NA,NA,NA,NA,6,"14,13,12,11,2,10,15,8,6,7,3,4,1,5,9"
14091,commdev-image-keyboard-response,648,1777283,learnblock2,643.8000000044703,img/planet10_right.png,10,Community 2,NA,TRUE,j,j,NA,NA,NA,NA,6,"14,13,12,11,2,10,15,8,6,7,3,4,1,5,9"
14091,commdev-image-keyboard-response,649,1778534,learnblock2,659.1000000014901,img/planet7_right.png,7,Community 2,NA,TRUE,j,j,NA,NA,NA,NA,6,"14,13,12,11,2,10,15,8,6,7,3,4,1,5,9"
14091,commdev-image-keyboard-response,650,1779786,learnblock2,553.6999999955297,img/planet10_right.png,10,Community 2,NA,TRUE,j,j,NA,NA,NA,NA,6,"14,13,12,11,2,10,15,8,6,7,3,4,1,5,9"
14091,commdev-image-keyboard-response,651,1781037,learnblock2,615.4000000059605,img/planet7_right.png,7,Community 2,NA,TRUE,j,j,NA,NA,NA,NA,6,"14,13,12,11,2,10,15,8,6,7,3,4,1,5,9"
14091,commdev-image-keyboard-response,652,1782289,learnblock2,855.5,img/planet8_left.png,8,Community 2,NA,TRUE,f,f,NA,NA,NA,NA,6,"14,13,12,11,2,10,15,8,6,7,3,4,1,5,9"
14091,commdev-image-keyboard-response,653,1783540,learnblock2,1059.0999999940395,img/planet4_left.png,4,Community 3,NA,TRUE,f,f,NA,NA,NA,NA,6,"14,13,12,11,2,10,15,8,6,7,3,4,1,5,9"
14091,commdev-image-keyboard-response,654,1784792,learnblock2,697.1999999955297,img/planet9_right.png,9,Community 3,NA,TRUE,j,j,NA,NA,NA,NA,6,"14,13,12,11,2,10,15,8,6,7,3,4,1,5,9"
14091,commdev-image-keyboard-response,655,1786044,learnblock2,740.3999999985099,img/planet5_right.png,5,Community 3,NA,FALSE,f,j,NA,NA,NA,NA,6,"14,13,12,11,2,10,15,8,6,7,3,4,1,5,9"
14091,commdev-image-keyboard-response,656,1787295,learnblock2,648.1000000014901,img/planet3_right.png,3,Community 3,NA,TRUE,j,j,NA,NA,NA,NA,6,"14,13,12,11,2,10,15,8,6,7,3,4,1,5,9"
14091,commdev-image-keyboard-response,657,1788547,learnblock2,720.2000000029802,img/planet9_right.png,9,Community 3,NA,TRUE,j,j,NA,NA,NA,NA,6,"14,13,12,11,2,10,15,8,6,7,3,4,1,5,9"
14091,commdev-image-keyboard-response,658,1789798,learnblock2,713.2000000029802,img/planet3_left.png,3,Community 3,NA,TRUE,f,f,NA,NA,NA,NA,6,"14,13,12,11,2,10,15,8,6,7,3,4,1,5,9"
14091,commdev-image-keyboard-response,659,1791050,learnblock2,555.1000000014901,img/planet9_right.png,9,Community 3,NA,TRUE,j,j,NA,NA,NA,NA,6,"14,13,12,11,2,10,15,8,6,7,3,4,1,5,9"
14091,commdev-image-keyboard-response,660,1792301,learnblock2,512.8999999985099,img/planet5_left.png,5,Community 3,NA,TRUE,f,f,NA,NA,NA,NA,6,"14,13,12,11,2,10,15,8,6,7,3,4,1,5,9"
14091,commdev-image-keyboard-response,661,1793553,learnblock2,484.8999999985099,img/planet3_right.png,3,Community 3,NA,FALSE,f,j,NA,NA,NA,NA,6,"14,13,12,11,2,10,15,8,6,7,3,4,1,5,9"
14091,commdev-image-keyboard-response,662,1794805,learnblock2,520.7000000029802,img/planet1_right.png,1,Community 3,NA,TRUE,j,j,NA,NA,NA,NA,6,"14,13,12,11,2,10,15,8,6,7,3,4,1,5,9"
14091,commdev-image-keyboard-response,663,1796056,learnblock2,727.8000000044703,img/planet4_right.png,4,Community 3,NA,TRUE,j,j,NA,NA,NA,NA,6,"14,13,12,11,2,10,15,8,6,7,3,4,1,5,9"
14091,commdev-image-keyboard-response,664,1797308,learnblock2,620.1000000014901,img/planet5_left.png,5,Community 3,NA,TRUE,f,f,NA,NA,NA,NA,6,"14,13,12,11,2,10,15,8,6,7,3,4,1,5,9"
14091,commdev-image-keyboard-response,665,1798559,learnblock2,984.5,img/planet1_left.png,1,Community 3,NA,TRUE,f,f,NA,NA,NA,NA,6,"14,13,12,11,2,10,15,8,6,7,3,4,1,5,9"
14091,commdev-image-keyboard-response,666,1799811,learnblock2,785.8999999985099,img/planet5_left.png,5,Community 3,NA,TRUE,f,f,NA,NA,NA,NA,6,"14,13,12,11,2,10,15,8,6,7,3,4,1,5,9"
14091,commdev-image-keyboard-response,667,1801063,learnblock2,578.8000000044703,img/planet4_right.png,4,Community 3,NA,TRUE,j,j,NA,NA,NA,NA,6,"14,13,12,11,2,10,15,8,6,7,3,4,1,5,9"
14091,commdev-image-keyboard-response,668,1802314,learnblock2,525.5,img/planet5_left.png,5,Community 3,NA,TRUE,f,f,NA,NA,NA,NA,6,"14,13,12,11,2,10,15,8,6,7,3,4,1,5,9"
14091,commdev-image-keyboard-response,669,1803566,learnblock2,536,img/planet3_right.png,3,Community 3,NA,TRUE,j,j,NA,NA,NA,NA,6,"14,13,12,11,2,10,15,8,6,7,3,4,1,5,9"
14091,commdev-image-keyboard-response,670,1804817,learnblock2,557.5,img/planet5_right.png,5,Community 3,NA,TRUE,j,j,NA,NA,NA,NA,6,"14,13,12,11,2,10,15,8,6,7,3,4,1,5,9"
14091,commdev-image-keyboard-response,671,1806068,learnblock2,479.79999999701977,img/planet4_right.png,4,Community 3,NA,TRUE,j,j,NA,NA,NA,NA,6,"14,13,12,11,2,10,15,8,6,7,3,4,1,5,9"
14091,commdev-image-keyboard-response,672,1807320,learnblock2,565.1999999955297,img/planet8_right.png,8,Community 2,NA,TRUE,j,j,NA,NA,NA,NA,6,"14,13,12,11,2,10,15,8,6,7,3,4,1,5,9"
14091,commdev-image-keyboard-response,673,1808572,learnblock2,548.2000000029802,img/planet15_left.png,15,Community 2,NA,TRUE,f,f,NA,NA,NA,NA,6,"14,13,12,11,2,10,15,8,6,7,3,4,1,5,9"
14091,commdev-image-keyboard-response,674,1809824,learnblock2,640.2000000029802,img/planet8_right.png,8,Community 2,NA,FALSE,f,j,NA,NA,NA,NA,6,"14,13,12,11,2,10,15,8,6,7,3,4,1,5,9"
14091,commdev-image-keyboard-response,675,1811075,learnblock2,660.1000000014901,img/planet6_right.png,6,Community 2,NA,TRUE,j,j,NA,NA,NA,NA,6,"14,13,12,11,2,10,15,8,6,7,3,4,1,5,9"
14091,commdev-image-keyboard-response,676,1812327,learnblock2,437.30000000447035,img/planet15_left.png,15,Community 2,NA,TRUE,f,f,NA,NA,NA,NA,6,"14,13,12,11,2,10,15,8,6,7,3,4,1,5,9"
14091,commdev-image-keyboard-response,677,1813578,learnblock2,530,img/planet10_left.png,10,Community 2,NA,TRUE,f,f,NA,NA,NA,NA,6,"14,13,12,11,2,10,15,8,6,7,3,4,1,5,9"
14091,commdev-image-keyboard-response,678,1814830,learnblock2,521.1999999955297,img/planet6_right.png,6,Community 2,NA,TRUE,j,j,NA,NA,NA,NA,6,"14,13,12,11,2,10,15,8,6,7,3,4,1,5,9"
14091,commdev-image-keyboard-response,679,1816082,learnblock2,480.20000000298023,img/planet8_right.png,8,Community 2,NA,TRUE,j,j,NA,NA,NA,NA,6,"14,13,12,11,2,10,15,8,6,7,3,4,1,5,9"
14091,commdev-image-keyboard-response,680,1817333,learnblock2,570.1000000014901,img/planet4_left.png,4,Community 3,NA,TRUE,f,f,NA,NA,NA,NA,6,"14,13,12,11,2,10,15,8,6,7,3,4,1,5,9"
14091,commdev-image-keyboard-response,681,1818585,learnblock2,604.2999999970198,img/planet8_right.png,8,Community 2,NA,TRUE,j,j,NA,NA,NA,NA,6,"14,13,12,11,2,10,15,8,6,7,3,4,1,5,9"
14091,commdev-image-keyboard-response,682,1819836,learnblock2,605,img/planet15_left.png,15,Community 2,NA,TRUE,f,f,NA,NA,NA,NA,6,"14,13,12,11,2,10,15,8,6,7,3,4,1,5,9"
14091,commdev-image-keyboard-response,683,1821088,learnblock2,763.1999999955297,img/planet6_left.png,6,Community 2,NA,TRUE,f,f,NA,NA,NA,NA,6,"14,13,12,11,2,10,15,8,6,7,3,4,1,5,9"
14091,commdev-image-keyboard-response,684,1822339,learnblock2,594.7999999970198,img/planet10_right.png,10,Community 2,NA,TRUE,j,j,NA,NA,NA,NA,6,"14,13,12,11,2,10,15,8,6,7,3,4,1,5,9"
14091,commdev-image-keyboard-response,685,1823591,learnblock2,724.5,img/planet11_left.png,11,Community 1,NA,TRUE,f,f,NA,NA,NA,NA,6,"14,13,12,11,2,10,15,8,6,7,3,4,1,5,9"
14091,commdev-image-keyboard-response,686,1824843,learnblock2,571,img/planet10_right.png,10,Community 2,NA,TRUE,j,j,NA,NA,NA,NA,6,"14,13,12,11,2,10,15,8,6,7,3,4,1,5,9"
14091,commdev-image-keyboard-response,687,1826094,learnblock2,701,img/planet7_right.png,7,Community 2,NA,TRUE,j,j,NA,NA,NA,NA,6,"14,13,12,11,2,10,15,8,6,7,3,4,1,5,9"
14091,commdev-image-keyboard-response,688,1827346,learnblock2,463.5,img/planet10_left.png,10,Community 2,NA,TRUE,f,f,NA,NA,NA,NA,6,"14,13,12,11,2,10,15,8,6,7,3,4,1,5,9"
14091,commdev-image-keyboard-response,689,1828597,learnblock2,684.1000000014901,img/planet7_left.png,7,Community 2,NA,TRUE,f,f,NA,NA,NA,NA,6,"14,13,12,11,2,10,15,8,6,7,3,4,1,5,9"
14091,commdev-image-keyboard-response,690,1829849,learnblock2,584.5,img/planet8_right.png,8,Community 2,NA,TRUE,j,j,NA,NA,NA,NA,6,"14,13,12,11,2,10,15,8,6,7,3,4,1,5,9"
14091,commdev-image-keyboard-response,691,1831100,learnblock2,597.8999999985099,img/planet7_right.png,7,Community 2,NA,TRUE,j,j,NA,NA,NA,NA,6,"14,13,12,11,2,10,15,8,6,7,3,4,1,5,9"
14091,commdev-image-keyboard-response,692,1832352,learnblock2,523.7999999970198,img/planet15_right.png,15,Community 2,NA,FALSE,f,j,NA,NA,NA,NA,6,"14,13,12,11,2,10,15,8,6,7,3,4,1,5,9"
14091,commdev-image-keyboard-response,693,1833603,learnblock2,null,img/planet10_right.png,10,Community 2,NA,FALSE,null,j,NA,NA,NA,NA,6,"14,13,12,11,2,10,15,8,6,7,3,4,1,5,9"
14091,commdev-image-keyboard-response,694,1834855,learnblock2,716.2999999970198,img/planet6_left.png,6,Community 2,NA,TRUE,f,f,NA,NA,NA,NA,6,"14,13,12,11,2,10,15,8,6,7,3,4,1,5,9"
14091,commdev-image-keyboard-response,695,1836106,learnblock2,511.6000000014901,img/planet10_left.png,10,Community 2,NA,FALSE,j,f,NA,NA,NA,NA,6,"14,13,12,11,2,10,15,8,6,7,3,4,1,5,9"
14091,commdev-image-keyboard-response,696,1837358,learnblock2,546.2999999970198,img/planet11_left.png,11,Community 1,NA,TRUE,f,f,NA,NA,NA,NA,6,"14,13,12,11,2,10,15,8,6,7,3,4,1,5,9"
14091,commdev-image-keyboard-response,697,1838609,learnblock2,628.7000000029802,img/planet12_right.png,12,Community 1,NA,TRUE,j,j,NA,NA,NA,NA,6,"14,13,12,11,2,10,15,8,6,7,3,4,1,5,9"
14091,commdev-image-keyboard-response,698,1839861,learnblock2,633.7000000029802,img/planet13_left.png,13,Community 1,NA,TRUE,f,f,NA,NA,NA,NA,6,"14,13,12,11,2,10,15,8,6,7,3,4,1,5,9"
14091,commdev-image-keyboard-response,699,1841112,learnblock2,590.7000000029802,img/planet2_left.png,2,Community 1,NA,TRUE,f,f,NA,NA,NA,NA,6,"14,13,12,11,2,10,15,8,6,7,3,4,1,5,9"
14091,commdev-image-keyboard-response,700,1842364,learnblock2,554.7000000029802,img/planet13_left.png,13,Community 1,NA,TRUE,f,f,NA,NA,NA,NA,6,"14,13,12,11,2,10,15,8,6,7,3,4,1,5,9"
14091,commdev-image-keyboard-response,701,1843615,learnblock2,586.7000000029802,img/planet14_right.png,14,Community 1,NA,TRUE,j,j,NA,NA,NA,NA,6,"14,13,12,11,2,10,15,8,6,7,3,4,1,5,9"
14091,commdev-image-keyboard-response,702,1844867,learnblock2,608.2000000029802,img/planet13_left.png,13,Community 1,NA,TRUE,f,f,NA,NA,NA,NA,6,"14,13,12,11,2,10,15,8,6,7,3,4,1,5,9"
14091,commdev-image-keyboard-response,703,1846118,learnblock2,860.7999999970198,img/planet14_right.png,14,Community 1,NA,FALSE,f,j,NA,NA,NA,NA,6,"14,13,12,11,2,10,15,8,6,7,3,4,1,5,9"
14091,commdev-image-keyboard-response,704,1847370,learnblock2,586.5,img/planet12_right.png,12,Community 1,NA,TRUE,j,j,NA,NA,NA,NA,6,"14,13,12,11,2,10,15,8,6,7,3,4,1,5,9"
14091,commdev-image-keyboard-response,705,1848621,learnblock2,1009.2999999970198,img/planet14_right.png,14,Community 1,NA,TRUE,j,j,NA,NA,NA,NA,6,"14,13,12,11,2,10,15,8,6,7,3,4,1,5,9"
14091,commdev-image-keyboard-response,706,1849873,learnblock2,829.3999999985099,img/planet2_right.png,2,Community 1,NA,TRUE,j,j,NA,NA,NA,NA,6,"14,13,12,11,2,10,15,8,6,7,3,4,1,5,9"
14091,commdev-image-keyboard-response,707,1851124,learnblock2,693.1999999955297,img/planet12_right.png,12,Community 1,NA,TRUE,j,j,NA,NA,NA,NA,6,"14,13,12,11,2,10,15,8,6,7,3,4,1,5,9"
14091,commdev-image-keyboard-response,708,1852376,learnblock2,584.3999999985099,img/planet13_left.png,13,Community 1,NA,TRUE,f,f,NA,NA,NA,NA,6,"14,13,12,11,2,10,15,8,6,7,3,4,1,5,9"
14091,commdev-image-keyboard-response,709,1853627,learnblock2,726,img/planet11_left.png,11,Community 1,NA,TRUE,f,f,NA,NA,NA,NA,6,"14,13,12,11,2,10,15,8,6,7,3,4,1,5,9"
14091,commdev-image-keyboard-response,710,1854879,learnblock2,596.5,img/planet10_right.png,10,Community 2,NA,TRUE,j,j,NA,NA,NA,NA,6,"14,13,12,11,2,10,15,8,6,7,3,4,1,5,9"
14091,commdev-image-keyboard-response,711,1856131,learnblock2,604.7000000029802,img/planet15_left.png,15,Community 2,NA,TRUE,f,f,NA,NA,NA,NA,6,"14,13,12,11,2,10,15,8,6,7,3,4,1,5,9"
14091,commdev-image-keyboard-response,712,1857382,learnblock2,584.6000000014901,img/planet7_left.png,7,Community 2,NA,TRUE,f,f,NA,NA,NA,NA,6,"14,13,12,11,2,10,15,8,6,7,3,4,1,5,9"
14091,commdev-image-keyboard-response,713,1858634,learnblock2,592.1000000014901,img/planet6_left.png,6,Community 2,NA,TRUE,f,f,NA,NA,NA,NA,6,"14,13,12,11,2,10,15,8,6,7,3,4,1,5,9"
14091,commdev-image-keyboard-response,714,1859885,learnblock2,543.6000000014901,img/planet7_left.png,7,Community 2,NA,TRUE,f,f,NA,NA,NA,NA,6,"14,13,12,11,2,10,15,8,6,7,3,4,1,5,9"
14091,commdev-image-keyboard-response,715,1861137,learnblock2,726.3000000044703,img/planet6_left.png,6,Community 2,NA,TRUE,f,f,NA,NA,NA,NA,6,"14,13,12,11,2,10,15,8,6,7,3,4,1,5,9"
14091,commdev-image-keyboard-response,716,1862388,learnblock2,564.7999999970198,img/planet8_right.png,8,Community 2,NA,TRUE,j,j,NA,NA,NA,NA,6,"14,13,12,11,2,10,15,8,6,7,3,4,1,5,9"
14091,commdev-image-keyboard-response,717,1863640,learnblock2,715.5,img/planet6_right.png,6,Community 2,NA,TRUE,j,j,NA,NA,NA,NA,6,"14,13,12,11,2,10,15,8,6,7,3,4,1,5,9"
14091,commdev-image-keyboard-response,718,1864892,learnblock2,518.6000000014901,img/planet10_right.png,10,Community 2,NA,TRUE,j,j,NA,NA,NA,NA,6,"14,13,12,11,2,10,15,8,6,7,3,4,1,5,9"
14091,commdev-image-keyboard-response,719,1866143,learnblock2,597.9000000059605,img/planet11_left.png,11,Community 1,NA,FALSE,j,f,NA,NA,NA,NA,6,"14,13,12,11,2,10,15,8,6,7,3,4,1,5,9"
14091,commdev-image-keyboard-response,720,1867395,learnblock2,580.8999999985099,img/planet10_left.png,10,Community 2,NA,TRUE,f,f,NA,NA,NA,NA,6,"14,13,12,11,2,10,15,8,6,7,3,4,1,5,9"
14091,commdev-image-keyboard-response,721,1868647,learnblock2,522.1000000014901,img/planet15_right.png,15,Community 2,NA,TRUE,j,j,NA,NA,NA,NA,6,"14,13,12,11,2,10,15,8,6,7,3,4,1,5,9"
14091,commdev-image-keyboard-response,722,1869898,learnblock2,727,img/planet8_left.png,8,Community 2,NA,FALSE,j,f,NA,NA,NA,NA,6,"14,13,12,11,2,10,15,8,6,7,3,4,1,5,9"
14091,commdev-image-keyboard-response,723,1871150,learnblock2,716,img/planet6_left.png,6,Community 2,NA,TRUE,f,f,NA,NA,NA,NA,6,"14,13,12,11,2,10,15,8,6,7,3,4,1,5,9"
14091,commdev-image-keyboard-response,724,1872401,learnblock2,504.6000000014901,img/planet7_right.png,7,Community 2,NA,TRUE,j,j,NA,NA,NA,NA,6,"14,13,12,11,2,10,15,8,6,7,3,4,1,5,9"
14091,commdev-image-keyboard-response,725,1873653,learnblock2,444.30000000447035,img/planet8_left.png,8,Community 2,NA,TRUE,f,f,NA,NA,NA,NA,6,"14,13,12,11,2,10,15,8,6,7,3,4,1,5,9"
14091,commdev-image-keyboard-response,726,1874904,learnblock2,494.30000000447035,img/planet6_left.png,6,Community 2,NA,TRUE,f,f,NA,NA,NA,NA,6,"14,13,12,11,2,10,15,8,6,7,3,4,1,5,9"
14091,commdev-image-keyboard-response,727,1876156,learnblock2,359.29999999701977,img/planet10_left.png,10,Community 2,NA,TRUE,f,f,NA,NA,NA,NA,6,"14,13,12,11,2,10,15,8,6,7,3,4,1,5,9"
14091,commdev-image-keyboard-response,728,1877407,learnblock2,493.79999999701977,img/planet7_left.png,7,Community 2,NA,TRUE,f,f,NA,NA,NA,NA,6,"14,13,12,11,2,10,15,8,6,7,3,4,1,5,9"
14091,commdev-image-keyboard-response,729,1878659,learnblock2,581.3999999985099,img/planet8_right.png,8,Community 2,NA,TRUE,j,j,NA,NA,NA,NA,6,"14,13,12,11,2,10,15,8,6,7,3,4,1,5,9"
14091,commdev-image-keyboard-response,730,1879911,learnblock2,572.7999999970198,img/planet15_left.png,15,Community 2,NA,FALSE,j,f,NA,NA,NA,NA,6,"14,13,12,11,2,10,15,8,6,7,3,4,1,5,9"
14091,commdev-image-keyboard-response,731,1881163,learnblock2,625.7999999970198,img/planet8_right.png,8,Community 2,NA,TRUE,j,j,NA,NA,NA,NA,6,"14,13,12,11,2,10,15,8,6,7,3,4,1,5,9"
14091,commdev-image-keyboard-response,732,1882414,learnblock2,553,img/planet15_right.png,15,Community 2,NA,FALSE,f,j,NA,NA,NA,NA,6,"14,13,12,11,2,10,15,8,6,7,3,4,1,5,9"
14091,commdev-image-keyboard-response,733,1883666,learnblock2,611.3999999985099,img/planet10_left.png,10,Community 2,NA,TRUE,f,f,NA,NA,NA,NA,6,"14,13,12,11,2,10,15,8,6,7,3,4,1,5,9"
14091,commdev-image-keyboard-response,734,1884918,learnblock2,716,img/planet11_right.png,11,Community 1,NA,TRUE,j,j,NA,NA,NA,NA,6,"14,13,12,11,2,10,15,8,6,7,3,4,1,5,9"
14091,commdev-image-keyboard-response,735,1886169,learnblock2,889,img/planet10_right.png,10,Community 2,NA,TRUE,j,j,NA,NA,NA,NA,6,"14,13,12,11,2,10,15,8,6,7,3,4,1,5,9"
14091,commdev-image-keyboard-response,736,1887421,learnblock2,660,img/planet6_right.png,6,Community 2,NA,TRUE,j,j,NA,NA,NA,NA,6,"14,13,12,11,2,10,15,8,6,7,3,4,1,5,9"
14091,commdev-image-keyboard-response,737,1888672,learnblock2,686.8999999985099,img/planet8_right.png,8,Community 2,NA,TRUE,j,j,NA,NA,NA,NA,6,"14,13,12,11,2,10,15,8,6,7,3,4,1,5,9"
14091,commdev-image-keyboard-response,738,1889924,learnblock2,532.7999999970198,img/planet15_left.png,15,Community 2,NA,TRUE,f,f,NA,NA,NA,NA,6,"14,13,12,11,2,10,15,8,6,7,3,4,1,5,9"
14091,commdev-image-keyboard-response,739,1891175,learnblock2,587.5999999940395,img/planet6_right.png,6,Community 2,NA,TRUE,j,j,NA,NA,NA,NA,6,"14,13,12,11,2,10,15,8,6,7,3,4,1,5,9"
14091,commdev-image-keyboard-response,740,1892427,learnblock2,565,img/planet7_right.png,7,Community 2,NA,TRUE,j,j,NA,NA,NA,NA,6,"14,13,12,11,2,10,15,8,6,7,3,4,1,5,9"
14091,commdev-image-keyboard-response,741,1893678,learnblock2,554.6999999955297,img/planet8_right.png,8,Community 2,NA,TRUE,j,j,NA,NA,NA,NA,6,"14,13,12,11,2,10,15,8,6,7,3,4,1,5,9"
14091,commdev-image-keyboard-response,742,1894930,learnblock2,581.1999999955297,img/planet6_right.png,6,Community 2,NA,TRUE,j,j,NA,NA,NA,NA,6,"14,13,12,11,2,10,15,8,6,7,3,4,1,5,9"
