subject_id,trial_type,trial_index,time_elapsed,block,rt,stimulus,planet,community,response,correct,key_press,learning_correct_response,parse,init_locations,final_locations,browser_interactions,num_comp,planet_map
14245,commdev-instructions,7,51669,NA,2159.5,"<p>In this game, you will be shown a 3x3 grid of patterns.</p> <p>The last one in the bottom right-hand corner, <strong>will be missing:</strong></p> <div style='width: 700px;'><div style='float: top;'><img style='width: 200px;' src='practice/p1_M1.png'></img><p class='small'>You need to select<strong> which of the four possible patterns </strong>along the bottom<strong> fits into the gap:</strong></p></div><div style='float: top;'><img style='width: 300px;' src='practice/p1_T1.png'></img></div><br>",NA,NA,NA,NA,NA,NA,NA,NA,NA,3,6,"3,12,7,6,2,11,4,10,8,5,9,13,15,1,14"
14245,commdev-instructions,8,78687,NA,5253.600000023842,"<p>Try to be as fast and as accurate as you can be.</p> <p>If you cannot solve the puzzle then you should guess - you will not be penalised for an incorrect answer.</p> <p>The task contains a shuffled mix of easy, medium and hard puzzles.</p> <p>You will have <strong>30 seconds</strong> to complete each puzzle.</p><br>",NA,NA,NA,NA,NA,NA,NA,NA,NA,3,6,"3,12,7,6,2,11,4,10,8,5,9,13,15,1,14"
14245,commdev-instructions,15,115937,NA,1040.5999999046326,<p><strong>Success!</strong></p> <p>You seem to be getting the hang of this...</p> <p>Let's move on to the real trials.</p><br>,NA,NA,NA,NA,NA,NA,NA,NA,NA,3,6,"3,12,7,6,2,11,4,10,8,5,9,13,15,1,14"
14245,commdev-instructions,75,612600,NA,4155.700000047684,"<p>In this game, you are a scientist on board a space shuttle. </p><p> On each mission, you will visit planets all across the universe.</p><img src=""img/controlroom.jpg"" width=300vw>",NA,NA,NA,NA,NA,NA,NA,NA,NA,3,6,"3,12,7,6,2,11,4,10,8,5,9,13,15,1,14"
14245,commdev-instructions,76,617785,NA,3101.100000023842,"<p>Here are a few planets you might see:</p><img src=""img/practice1.png"" width=200vw><img src=""img/practice2.png"" width=200vw><img src=""img/practice3.png"" width=200vw>",NA,NA,NA,NA,NA,NA,NA,NA,NA,3,6,"3,12,7,6,2,11,4,10,8,5,9,13,15,1,14"
14245,commdev-instructions,77,626525,NA,1334.8999999761581,"<p>Your job as a scientist is to record which direction the winds are moving on each planet.</p><p>There are two types of wind directions:</p><img src=""img/practice1_left.png"" width=200vw><img src=""img/practice1_right.png"" width=200vw>",NA,NA,NA,NA,NA,NA,NA,NA,NA,3,6,"3,12,7,6,2,11,4,10,8,5,9,13,15,1,14"
14245,commdev-instructions,78,634505,NA,3095.7999999523163,"<p>If the winds are moving this way, press the letter <strong>F</strong> on the keyboard as fast as you can.</p><img src=""img/leftwind.png"" width=250vw>",NA,NA,NA,NA,NA,NA,NA,NA,NA,3,6,"3,12,7,6,2,11,4,10,8,5,9,13,15,1,14"
14245,commdev-instructions,79,640705,NA,1700.6000000238419,"<p>If the winds are moving this way, press the letter <strong>J</strong> on the keyboard as fast as you can.</p><img src=""img/rightwind.png"" width=350vw>",NA,NA,NA,NA,NA,NA,NA,NA,NA,3,6,"3,12,7,6,2,11,4,10,8,5,9,13,15,1,14"
14245,commdev-instructions,80,650684,NA,5557.399999976158,<p>You will have 1 second to respond. Try to respond before the time runs out!,NA,NA,NA,NA,NA,NA,NA,NA,NA,3,6,"3,12,7,6,2,11,4,10,8,5,9,13,15,1,14"
14245,commdev-instructions,81,660932,NA,4807.600000023842,<p>The planets you will visit will look different from each other.</p><p>You should respond <strong>only</strong> based on wind direction.,NA,NA,NA,NA,NA,NA,NA,NA,NA,3,6,"3,12,7,6,2,11,4,10,8,5,9,13,15,1,14"
14245,commdev-instructions,82,671823,NA,5714.899999976158,"<p> Ready to start the practice round? </p><p> Remember, press <strong>F</strong> or <strong>J</strong> depending on the wind direction.<br><img src=""img/categorize_planet_example.png""",NA,NA,NA,NA,NA,NA,NA,NA,NA,3,6,"3,12,7,6,2,11,4,10,8,5,9,13,15,1,14"
14245,commdev-instructions,94,727146,NA,2119.7999999523163,"<p>Great, now try a short practice mission. </p><p> This time, you will have 1 second to respond and you won't know whether you pressed the right or wrong key for each planet.</p>",NA,NA,NA,NA,NA,NA,NA,NA,NA,3,6,"3,12,7,6,2,11,4,10,8,5,9,13,15,1,14"
14245,commdev-image-keyboard-response,95,728515,practice,1048.7000000476837,img/practice2_left.png,NA,Number not found in mappings,NA,TRUE,f,f,NA,NA,NA,3,6,"3,12,7,6,2,11,4,10,8,5,9,13,15,1,14"
14245,commdev-image-keyboard-response,96,729767,practice,700.0999999046326,img/practice1_right.png,NA,Number not found in mappings,NA,TRUE,j,j,NA,NA,NA,3,6,"3,12,7,6,2,11,4,10,8,5,9,13,15,1,14"
14245,commdev-image-keyboard-response,97,731033,practice,615.6000000238419,img/practice3_left.png,NA,Number not found in mappings,NA,TRUE,f,f,NA,NA,NA,3,6,"3,12,7,6,2,11,4,10,8,5,9,13,15,1,14"
14245,commdev-image-keyboard-response,98,732300,practice,629.2999999523163,img/practice1_right.png,NA,Number not found in mappings,NA,TRUE,j,j,NA,NA,NA,3,6,"3,12,7,6,2,11,4,10,8,5,9,13,15,1,14"
14245,commdev-image-keyboard-response,99,733555,practice,821.8999999761581,img/practice2_right.png,NA,Number not found in mappings,NA,TRUE,j,j,NA,NA,NA,3,6,"3,12,7,6,2,11,4,10,8,5,9,13,15,1,14"
14245,commdev-image-keyboard-response,100,734818,practice,604.2999999523163,img/practice4_left.png,NA,Number not found in mappings,NA,TRUE,f,f,NA,NA,NA,3,6,"3,12,7,6,2,11,4,10,8,5,9,13,15,1,14"
14245,commdev-image-keyboard-response,101,736070,practice,1078.8999999761581,img/practice2_left.png,NA,Number not found in mappings,NA,TRUE,f,f,NA,NA,NA,3,6,"3,12,7,6,2,11,4,10,8,5,9,13,15,1,14"
14245,commdev-image-keyboard-response,102,737337,practice,622.5999999046326,img/practice1_right.png,NA,Number not found in mappings,NA,TRUE,j,j,NA,NA,NA,3,6,"3,12,7,6,2,11,4,10,8,5,9,13,15,1,14"
14245,commdev-instructions,103,748650,NA,1757.1000000238419,"<p>Great job with the practice round.</p><p>During real missions, you won't know whether you pressed the right or wrong key for each planet.</p><p>But between missions, we will tell you how you did overall.</p>",NA,NA,NA,NA,NA,NA,NA,NA,NA,3,6,"3,12,7,6,2,11,4,10,8,5,9,13,15,1,14"
14245,commdev-instructions,104,757914,NA,1016.0999999046326,<p>Try your best! You will be paid a bonus based on how many correct responses you make!</p><p>Responses that are too slow will not count toward your bonus.</p>,NA,NA,NA,NA,NA,NA,NA,NA,NA,3,6,"3,12,7,6,2,11,4,10,8,5,9,13,15,1,14"
14245,commdev-instructions,105,765352,NA,1233.7000000476837,"<p>You are almost ready to start the real game.</p><p> First, we are going to ask you some questions about how the game works.</p>",NA,NA,NA,NA,NA,NA,NA,NA,NA,3,6,"3,12,7,6,2,11,4,10,8,5,9,13,15,1,14"
14245,commdev-instructions,114,856277,NA,1757.6999999284744,"<p> Nice work! It is now time to start the real game.<p></p>You will go on two missions to record wind directions of different planets.<p></p>Each one will take about 5 minutes. You will get to take a break between missions.<p><p> Remember, press <strong>F</strong> or <strong>J</strong> depending on the wind direction. Good luck!<br><img src=""img/categorize_planet_example.png""",NA,NA,NA,NA,NA,NA,NA,NA,NA,3,6,"3,12,7,6,2,11,4,10,8,5,9,13,15,1,14"
14245,commdev-image-keyboard-response,116,864900,learnblock1,109.80000007152557,img/planet7_left.png,7,Community 1,NA,TRUE,f,f,NA,NA,NA,3,6,"3,12,7,6,2,11,4,10,8,5,9,13,15,1,14"
14245,commdev-image-keyboard-response,117,866161,learnblock1,613.3000000715256,img/planet6_left.png,6,Community 1,NA,TRUE,f,f,NA,NA,NA,3,6,"3,12,7,6,2,11,4,10,8,5,9,13,15,1,14"
14245,commdev-image-keyboard-response,118,867417,learnblock1,1094.2999999523163,img/planet12_left.png,12,Community 1,NA,TRUE,f,f,NA,NA,NA,3,6,"3,12,7,6,2,11,4,10,8,5,9,13,15,1,14"
14245,commdev-image-keyboard-response,119,868671,learnblock1,681.6000000238419,img/planet2_right.png,2,Community 1,NA,TRUE,j,j,NA,NA,NA,3,6,"3,12,7,6,2,11,4,10,8,5,9,13,15,1,14"
14245,commdev-image-keyboard-response,120,869937,learnblock1,854.6999999284744,img/planet7_right.png,7,Community 1,NA,TRUE,j,j,NA,NA,NA,3,6,"3,12,7,6,2,11,4,10,8,5,9,13,15,1,14"
14245,commdev-image-keyboard-response,121,871197,learnblock1,822.1000000238419,img/planet6_right.png,6,Community 1,NA,TRUE,j,j,NA,NA,NA,3,6,"3,12,7,6,2,11,4,10,8,5,9,13,15,1,14"
14245,commdev-image-keyboard-response,122,872449,learnblock1,629.1000000238419,img/planet11_left.png,11,Community 2,NA,TRUE,f,f,NA,NA,NA,3,6,"3,12,7,6,2,11,4,10,8,5,9,13,15,1,14"
14245,commdev-image-keyboard-response,123,873704,learnblock1,1096.2000000476837,img/planet8_left.png,8,Community 2,NA,TRUE,f,f,NA,NA,NA,3,6,"3,12,7,6,2,11,4,10,8,5,9,13,15,1,14"
14245,commdev-image-keyboard-response,124,874962,learnblock1,619.5,img/planet4_right.png,4,Community 2,NA,TRUE,j,j,NA,NA,NA,3,6,"3,12,7,6,2,11,4,10,8,5,9,13,15,1,14"
14245,commdev-image-keyboard-response,125,876229,learnblock1,580,img/planet5_left.png,5,Community 2,NA,TRUE,f,f,NA,NA,NA,3,6,"3,12,7,6,2,11,4,10,8,5,9,13,15,1,14"
14245,commdev-image-keyboard-response,126,877482,learnblock1,700.0999999046326,img/planet11_left.png,11,Community 2,NA,TRUE,f,f,NA,NA,NA,3,6,"3,12,7,6,2,11,4,10,8,5,9,13,15,1,14"
14245,commdev-image-keyboard-response,127,878747,learnblock1,548.8999999761581,img/planet8_right.png,8,Community 2,NA,TRUE,j,j,NA,NA,NA,3,6,"3,12,7,6,2,11,4,10,8,5,9,13,15,1,14"
14245,commdev-image-keyboard-response,128,880014,learnblock1,662.2999999523163,img/planet5_right.png,5,Community 2,NA,TRUE,j,j,NA,NA,NA,3,6,"3,12,7,6,2,11,4,10,8,5,9,13,15,1,14"
14245,commdev-image-keyboard-response,129,881280,learnblock1,725,img/planet10_right.png,10,Community 2,NA,TRUE,j,j,NA,NA,NA,3,6,"3,12,7,6,2,11,4,10,8,5,9,13,15,1,14"
14245,commdev-image-keyboard-response,130,882535,learnblock1,610.5,img/planet13_left.png,13,Community 3,NA,TRUE,f,f,NA,NA,NA,3,6,"3,12,7,6,2,11,4,10,8,5,9,13,15,1,14"
14245,commdev-image-keyboard-response,131,883799,learnblock1,597.1000000238419,img/planet1_right.png,1,Community 3,NA,TRUE,j,j,NA,NA,NA,3,6,"3,12,7,6,2,11,4,10,8,5,9,13,15,1,14"
14245,commdev-image-keyboard-response,132,885051,learnblock1,675.6000000238419,img/planet13_right.png,13,Community 3,NA,TRUE,j,j,NA,NA,NA,3,6,"3,12,7,6,2,11,4,10,8,5,9,13,15,1,14"
14245,commdev-image-keyboard-response,133,886304,learnblock1,581,img/planet10_left.png,10,Community 2,NA,TRUE,f,f,NA,NA,NA,3,6,"3,12,7,6,2,11,4,10,8,5,9,13,15,1,14"
14245,commdev-image-keyboard-response,134,887557,learnblock1,635.8999999761581,img/planet8_left.png,8,Community 2,NA,TRUE,f,f,NA,NA,NA,3,6,"3,12,7,6,2,11,4,10,8,5,9,13,15,1,14"
14245,commdev-image-keyboard-response,135,888809,learnblock1,597.7999999523163,img/planet10_left.png,10,Community 2,NA,TRUE,f,f,NA,NA,NA,3,6,"3,12,7,6,2,11,4,10,8,5,9,13,15,1,14"
14245,commdev-image-keyboard-response,136,890062,learnblock1,633.5,img/planet13_left.png,13,Community 3,NA,TRUE,f,f,NA,NA,NA,3,6,"3,12,7,6,2,11,4,10,8,5,9,13,15,1,14"
14245,commdev-image-keyboard-response,137,891314,learnblock1,565.2000000476837,img/planet15_right.png,15,Community 3,NA,TRUE,j,j,NA,NA,NA,3,6,"3,12,7,6,2,11,4,10,8,5,9,13,15,1,14"
14245,commdev-image-keyboard-response,138,892567,learnblock1,590.3000000715256,img/planet9_left.png,9,Community 3,NA,TRUE,f,f,NA,NA,NA,3,6,"3,12,7,6,2,11,4,10,8,5,9,13,15,1,14"
14245,commdev-image-keyboard-response,139,893819,learnblock1,485.10000002384186,img/planet1_right.png,1,Community 3,NA,TRUE,j,j,NA,NA,NA,3,6,"3,12,7,6,2,11,4,10,8,5,9,13,15,1,14"
14245,commdev-image-keyboard-response,140,895072,learnblock1,599.6999999284744,img/planet15_left.png,15,Community 3,NA,TRUE,f,f,NA,NA,NA,3,6,"3,12,7,6,2,11,4,10,8,5,9,13,15,1,14"
14245,commdev-image-keyboard-response,141,896325,learnblock1,617.8999999761581,img/planet14_left.png,14,Community 3,NA,TRUE,f,f,NA,NA,NA,3,6,"3,12,7,6,2,11,4,10,8,5,9,13,15,1,14"
14245,commdev-image-keyboard-response,142,897578,learnblock1,517.7000000476837,img/planet15_left.png,15,Community 3,NA,TRUE,f,f,NA,NA,NA,3,6,"3,12,7,6,2,11,4,10,8,5,9,13,15,1,14"
14245,commdev-image-keyboard-response,143,898830,learnblock1,642,img/planet13_left.png,13,Community 3,NA,TRUE,f,f,NA,NA,NA,3,6,"3,12,7,6,2,11,4,10,8,5,9,13,15,1,14"
14245,commdev-image-keyboard-response,144,900083,learnblock1,605.4000000953674,img/planet10_right.png,10,Community 2,NA,TRUE,j,j,NA,NA,NA,3,6,"3,12,7,6,2,11,4,10,8,5,9,13,15,1,14"
14245,commdev-image-keyboard-response,145,901335,learnblock1,694,img/planet5_left.png,5,Community 2,NA,TRUE,f,f,NA,NA,NA,3,6,"3,12,7,6,2,11,4,10,8,5,9,13,15,1,14"
14245,commdev-image-keyboard-response,146,902588,learnblock1,749.2999999523163,img/planet8_right.png,8,Community 2,NA,TRUE,j,j,NA,NA,NA,3,6,"3,12,7,6,2,11,4,10,8,5,9,13,15,1,14"
14245,commdev-image-keyboard-response,147,903842,learnblock1,559.1000000238419,img/planet4_left.png,4,Community 2,NA,TRUE,f,f,NA,NA,NA,3,6,"3,12,7,6,2,11,4,10,8,5,9,13,15,1,14"
14245,commdev-image-keyboard-response,148,905095,learnblock1,469,img/planet8_right.png,8,Community 2,NA,TRUE,j,j,NA,NA,NA,3,6,"3,12,7,6,2,11,4,10,8,5,9,13,15,1,14"
14245,commdev-image-keyboard-response,149,906347,learnblock1,522.3999999761581,img/planet4_right.png,4,Community 2,NA,TRUE,j,j,NA,NA,NA,3,6,"3,12,7,6,2,11,4,10,8,5,9,13,15,1,14"
14245,commdev-image-keyboard-response,150,907600,learnblock1,606.6000000238419,img/planet11_left.png,11,Community 2,NA,TRUE,f,f,NA,NA,NA,3,6,"3,12,7,6,2,11,4,10,8,5,9,13,15,1,14"
14245,commdev-image-keyboard-response,151,908852,learnblock1,543.1000000238419,img/planet6_right.png,6,Community 1,NA,TRUE,j,j,NA,NA,NA,3,6,"3,12,7,6,2,11,4,10,8,5,9,13,15,1,14"
14245,commdev-image-keyboard-response,152,910103,learnblock1,444.39999997615814,img/planet11_right.png,11,Community 2,NA,FALSE,f,j,NA,NA,NA,3,6,"3,12,7,6,2,11,4,10,8,5,9,13,15,1,14"
14245,commdev-image-keyboard-response,153,911356,learnblock1,469.2000000476837,img/planet8_left.png,8,Community 2,NA,FALSE,j,f,NA,NA,NA,3,6,"3,12,7,6,2,11,4,10,8,5,9,13,15,1,14"
14245,commdev-image-keyboard-response,154,912609,learnblock1,595.7999999523163,img/planet4_left.png,4,Community 2,NA,TRUE,f,f,NA,NA,NA,3,6,"3,12,7,6,2,11,4,10,8,5,9,13,15,1,14"
14245,commdev-image-keyboard-response,155,913860,learnblock1,445.7999999523163,img/planet11_right.png,11,Community 2,NA,TRUE,j,j,NA,NA,NA,3,6,"3,12,7,6,2,11,4,10,8,5,9,13,15,1,14"
14245,commdev-image-keyboard-response,156,915122,learnblock1,531.2000000476837,img/planet4_left.png,4,Community 2,NA,TRUE,f,f,NA,NA,NA,3,6,"3,12,7,6,2,11,4,10,8,5,9,13,15,1,14"
14245,commdev-image-keyboard-response,157,916376,learnblock1,714.2999999523163,img/planet11_left.png,11,Community 2,NA,TRUE,f,f,NA,NA,NA,3,6,"3,12,7,6,2,11,4,10,8,5,9,13,15,1,14"
14245,commdev-image-keyboard-response,158,917629,learnblock1,687,img/planet4_left.png,4,Community 2,NA,TRUE,f,f,NA,NA,NA,3,6,"3,12,7,6,2,11,4,10,8,5,9,13,15,1,14"
14245,commdev-image-keyboard-response,159,918881,learnblock1,609.3000000715256,img/planet8_right.png,8,Community 2,NA,TRUE,j,j,NA,NA,NA,3,6,"3,12,7,6,2,11,4,10,8,5,9,13,15,1,14"
14245,commdev-image-keyboard-response,160,920144,learnblock1,576.1000000238419,img/planet11_right.png,11,Community 2,NA,TRUE,j,j,NA,NA,NA,3,6,"3,12,7,6,2,11,4,10,8,5,9,13,15,1,14"
14245,commdev-image-keyboard-response,161,921396,learnblock1,579.8999999761581,img/planet4_left.png,4,Community 2,NA,TRUE,f,f,NA,NA,NA,3,6,"3,12,7,6,2,11,4,10,8,5,9,13,15,1,14"
14245,commdev-image-keyboard-response,162,922649,learnblock1,612.7000000476837,img/planet11_left.png,11,Community 2,NA,TRUE,f,f,NA,NA,NA,3,6,"3,12,7,6,2,11,4,10,8,5,9,13,15,1,14"
14245,commdev-image-keyboard-response,163,923902,learnblock1,528.6999999284744,img/planet8_right.png,8,Community 2,NA,TRUE,j,j,NA,NA,NA,3,6,"3,12,7,6,2,11,4,10,8,5,9,13,15,1,14"
14245,commdev-image-keyboard-response,164,925155,learnblock1,594.2000000476837,img/planet10_left.png,10,Community 2,NA,TRUE,f,f,NA,NA,NA,3,6,"3,12,7,6,2,11,4,10,8,5,9,13,15,1,14"
14245,commdev-image-keyboard-response,165,926408,learnblock1,507.5,img/planet4_left.png,4,Community 2,NA,TRUE,f,f,NA,NA,NA,3,6,"3,12,7,6,2,11,4,10,8,5,9,13,15,1,14"
14245,commdev-image-keyboard-response,166,927661,learnblock1,465,img/planet11_right.png,11,Community 2,NA,TRUE,j,j,NA,NA,NA,3,6,"3,12,7,6,2,11,4,10,8,5,9,13,15,1,14"
14245,commdev-image-keyboard-response,167,928914,learnblock1,755.7000000476837,img/planet8_right.png,8,Community 2,NA,TRUE,j,j,NA,NA,NA,3,6,"3,12,7,6,2,11,4,10,8,5,9,13,15,1,14"
14245,commdev-image-keyboard-response,168,930166,learnblock1,589.6000000238419,img/planet5_right.png,5,Community 2,NA,TRUE,j,j,NA,NA,NA,3,6,"3,12,7,6,2,11,4,10,8,5,9,13,15,1,14"
14245,commdev-image-keyboard-response,169,931419,learnblock1,624.2000000476837,img/planet11_left.png,11,Community 2,NA,TRUE,f,f,NA,NA,NA,3,6,"3,12,7,6,2,11,4,10,8,5,9,13,15,1,14"
14245,commdev-image-keyboard-response,170,932672,learnblock1,548.3000000715256,img/planet8_left.png,8,Community 2,NA,TRUE,f,f,NA,NA,NA,3,6,"3,12,7,6,2,11,4,10,8,5,9,13,15,1,14"
14245,commdev-image-keyboard-response,171,933925,learnblock1,535.3000000715256,img/planet11_left.png,11,Community 2,NA,TRUE,f,f,NA,NA,NA,3,6,"3,12,7,6,2,11,4,10,8,5,9,13,15,1,14"
14245,commdev-image-keyboard-response,172,935177,learnblock1,548,img/planet6_right.png,6,Community 1,NA,TRUE,j,j,NA,NA,NA,3,6,"3,12,7,6,2,11,4,10,8,5,9,13,15,1,14"
14245,commdev-image-keyboard-response,173,936429,learnblock1,559.3999999761581,img/planet7_left.png,7,Community 1,NA,TRUE,f,f,NA,NA,NA,3,6,"3,12,7,6,2,11,4,10,8,5,9,13,15,1,14"
14245,commdev-image-keyboard-response,174,937682,learnblock1,646.6000000238419,img/planet12_left.png,12,Community 1,NA,TRUE,f,f,NA,NA,NA,3,6,"3,12,7,6,2,11,4,10,8,5,9,13,15,1,14"
14245,commdev-image-keyboard-response,175,938934,learnblock1,608,img/planet2_left.png,2,Community 1,NA,TRUE,f,f,NA,NA,NA,3,6,"3,12,7,6,2,11,4,10,8,5,9,13,15,1,14"
14245,commdev-image-keyboard-response,176,940188,learnblock1,458.7999999523163,img/planet12_right.png,12,Community 1,NA,TRUE,j,j,NA,NA,NA,3,6,"3,12,7,6,2,11,4,10,8,5,9,13,15,1,14"
14245,commdev-image-keyboard-response,177,941441,learnblock1,618.6000000238419,img/planet3_right.png,3,Community 1,NA,TRUE,j,j,NA,NA,NA,3,6,"3,12,7,6,2,11,4,10,8,5,9,13,15,1,14"
14245,commdev-image-keyboard-response,178,942693,learnblock1,509.7999999523163,img/planet12_right.png,12,Community 1,NA,TRUE,j,j,NA,NA,NA,3,6,"3,12,7,6,2,11,4,10,8,5,9,13,15,1,14"
14245,commdev-image-keyboard-response,179,943946,learnblock1,698.5,img/planet3_right.png,3,Community 1,NA,TRUE,j,j,NA,NA,NA,3,6,"3,12,7,6,2,11,4,10,8,5,9,13,15,1,14"
14245,commdev-image-keyboard-response,180,945198,learnblock1,636.7999999523163,img/planet7_left.png,7,Community 1,NA,TRUE,f,f,NA,NA,NA,3,6,"3,12,7,6,2,11,4,10,8,5,9,13,15,1,14"
14245,commdev-image-keyboard-response,181,946450,learnblock1,452.10000002384186,img/planet2_right.png,2,Community 1,NA,TRUE,j,j,NA,NA,NA,3,6,"3,12,7,6,2,11,4,10,8,5,9,13,15,1,14"
14245,commdev-image-keyboard-response,182,947701,learnblock1,501.90000009536743,img/planet3_left.png,3,Community 1,NA,TRUE,f,f,NA,NA,NA,3,6,"3,12,7,6,2,11,4,10,8,5,9,13,15,1,14"
14245,commdev-image-keyboard-response,183,948954,learnblock1,713.7000000476837,img/planet2_left.png,2,Community 1,NA,TRUE,f,f,NA,NA,NA,3,6,"3,12,7,6,2,11,4,10,8,5,9,13,15,1,14"
14245,commdev-image-keyboard-response,184,950207,learnblock1,629.0999999046326,img/planet9_left.png,9,Community 3,NA,TRUE,f,f,NA,NA,NA,3,6,"3,12,7,6,2,11,4,10,8,5,9,13,15,1,14"
14245,commdev-image-keyboard-response,185,951460,learnblock1,521.7000000476837,img/planet2_left.png,2,Community 1,NA,TRUE,f,f,NA,NA,NA,3,6,"3,12,7,6,2,11,4,10,8,5,9,13,15,1,14"
14245,commdev-image-keyboard-response,186,952712,learnblock1,483.7000000476837,img/planet12_right.png,12,Community 1,NA,TRUE,j,j,NA,NA,NA,3,6,"3,12,7,6,2,11,4,10,8,5,9,13,15,1,14"
14245,commdev-image-keyboard-response,187,953965,learnblock1,426.1999999284744,img/planet2_left.png,2,Community 1,NA,TRUE,f,f,NA,NA,NA,3,6,"3,12,7,6,2,11,4,10,8,5,9,13,15,1,14"
14245,commdev-image-keyboard-response,188,955225,learnblock1,541.2000000476837,img/planet7_left.png,7,Community 1,NA,TRUE,f,f,NA,NA,NA,3,6,"3,12,7,6,2,11,4,10,8,5,9,13,15,1,14"
14245,commdev-image-keyboard-response,189,956477,learnblock1,514,img/planet6_right.png,6,Community 1,NA,TRUE,j,j,NA,NA,NA,3,6,"3,12,7,6,2,11,4,10,8,5,9,13,15,1,14"
14245,commdev-image-keyboard-response,190,957737,learnblock1,310.6999999284744,img/planet11_right.png,11,Community 2,NA,FALSE,f,j,NA,NA,NA,3,6,"3,12,7,6,2,11,4,10,8,5,9,13,15,1,14"
14245,commdev-image-keyboard-response,191,958990,learnblock1,480.8000000715256,img/planet5_left.png,5,Community 2,NA,TRUE,f,f,NA,NA,NA,3,6,"3,12,7,6,2,11,4,10,8,5,9,13,15,1,14"
14245,commdev-image-keyboard-response,192,960242,learnblock1,514.6999999284744,img/planet8_right.png,8,Community 2,NA,TRUE,j,j,NA,NA,NA,3,6,"3,12,7,6,2,11,4,10,8,5,9,13,15,1,14"
14245,commdev-image-keyboard-response,193,961494,learnblock1,573.5999999046326,img/planet5_right.png,5,Community 2,NA,TRUE,j,j,NA,NA,NA,3,6,"3,12,7,6,2,11,4,10,8,5,9,13,15,1,14"
14245,commdev-image-keyboard-response,194,962746,learnblock1,500,img/planet11_left.png,11,Community 2,NA,TRUE,f,f,NA,NA,NA,3,6,"3,12,7,6,2,11,4,10,8,5,9,13,15,1,14"
14245,commdev-image-keyboard-response,195,963999,learnblock1,562.7999999523163,img/planet5_left.png,5,Community 2,NA,TRUE,f,f,NA,NA,NA,3,6,"3,12,7,6,2,11,4,10,8,5,9,13,15,1,14"
14245,commdev-image-keyboard-response,196,965251,learnblock1,480.60000002384186,img/planet10_right.png,10,Community 2,NA,TRUE,j,j,NA,NA,NA,3,6,"3,12,7,6,2,11,4,10,8,5,9,13,15,1,14"
14245,commdev-image-keyboard-response,197,966504,learnblock1,590.1000000238419,img/planet8_right.png,8,Community 2,NA,TRUE,j,j,NA,NA,NA,3,6,"3,12,7,6,2,11,4,10,8,5,9,13,15,1,14"
14245,commdev-image-keyboard-response,198,967756,learnblock1,460.2000000476837,img/planet10_left.png,10,Community 2,NA,TRUE,f,f,NA,NA,NA,3,6,"3,12,7,6,2,11,4,10,8,5,9,13,15,1,14"
14245,commdev-image-keyboard-response,199,969010,learnblock1,626.1000000238419,img/planet4_left.png,4,Community 2,NA,TRUE,f,f,NA,NA,NA,3,6,"3,12,7,6,2,11,4,10,8,5,9,13,15,1,14"
14245,commdev-image-keyboard-response,200,970262,learnblock1,474.6999999284744,img/planet11_right.png,11,Community 2,NA,TRUE,j,j,NA,NA,NA,3,6,"3,12,7,6,2,11,4,10,8,5,9,13,15,1,14"
14245,commdev-image-keyboard-response,201,971514,learnblock1,521.0999999046326,img/planet4_right.png,4,Community 2,NA,TRUE,j,j,NA,NA,NA,3,6,"3,12,7,6,2,11,4,10,8,5,9,13,15,1,14"
14245,commdev-image-keyboard-response,202,972766,learnblock1,585.2000000476837,img/planet5_right.png,5,Community 2,NA,TRUE,j,j,NA,NA,NA,3,6,"3,12,7,6,2,11,4,10,8,5,9,13,15,1,14"
14245,commdev-image-keyboard-response,203,974031,learnblock1,567.1000000238419,img/planet10_right.png,10,Community 2,NA,TRUE,j,j,NA,NA,NA,3,6,"3,12,7,6,2,11,4,10,8,5,9,13,15,1,14"
14245,commdev-image-keyboard-response,204,975283,learnblock1,568.6000000238419,img/planet8_left.png,8,Community 2,NA,TRUE,f,f,NA,NA,NA,3,6,"3,12,7,6,2,11,4,10,8,5,9,13,15,1,14"
14245,commdev-image-keyboard-response,205,976535,learnblock1,583.5,img/planet10_right.png,10,Community 2,NA,TRUE,j,j,NA,NA,NA,3,6,"3,12,7,6,2,11,4,10,8,5,9,13,15,1,14"
14245,commdev-image-keyboard-response,206,977788,learnblock1,562.9000000953674,img/planet13_right.png,13,Community 3,NA,TRUE,j,j,NA,NA,NA,3,6,"3,12,7,6,2,11,4,10,8,5,9,13,15,1,14"
14245,commdev-image-keyboard-response,207,979041,learnblock1,509.2000000476837,img/planet1_right.png,1,Community 3,NA,TRUE,j,j,NA,NA,NA,3,6,"3,12,7,6,2,11,4,10,8,5,9,13,15,1,14"
14245,commdev-image-keyboard-response,208,980293,learnblock1,603,img/planet13_left.png,13,Community 3,NA,TRUE,f,f,NA,NA,NA,3,6,"3,12,7,6,2,11,4,10,8,5,9,13,15,1,14"
14245,commdev-image-keyboard-response,209,981544,learnblock1,726.7000000476837,img/planet10_left.png,10,Community 2,NA,TRUE,f,f,NA,NA,NA,3,6,"3,12,7,6,2,11,4,10,8,5,9,13,15,1,14"
14245,commdev-image-keyboard-response,210,982797,learnblock1,934.6000000238419,img/planet5_right.png,5,Community 2,NA,TRUE,j,j,NA,NA,NA,3,6,"3,12,7,6,2,11,4,10,8,5,9,13,15,1,14"
14245,commdev-image-keyboard-response,211,984050,learnblock1,471.2000000476837,img/planet4_left.png,4,Community 2,NA,TRUE,f,f,NA,NA,NA,3,6,"3,12,7,6,2,11,4,10,8,5,9,13,15,1,14"
14245,commdev-image-keyboard-response,212,985302,learnblock1,638.7999999523163,img/planet8_left.png,8,Community 2,NA,TRUE,f,f,NA,NA,NA,3,6,"3,12,7,6,2,11,4,10,8,5,9,13,15,1,14"
14245,commdev-image-keyboard-response,213,986557,learnblock1,575.2999999523163,img/planet4_right.png,4,Community 2,NA,TRUE,j,j,NA,NA,NA,3,6,"3,12,7,6,2,11,4,10,8,5,9,13,15,1,14"
14245,commdev-image-keyboard-response,214,987810,learnblock1,495.8000000715256,img/planet11_left.png,11,Community 2,NA,TRUE,f,f,NA,NA,NA,3,6,"3,12,7,6,2,11,4,10,8,5,9,13,15,1,14"
14245,commdev-image-keyboard-response,215,989063,learnblock1,594.3999999761581,img/planet5_left.png,5,Community 2,NA,TRUE,f,f,NA,NA,NA,3,6,"3,12,7,6,2,11,4,10,8,5,9,13,15,1,14"
14245,commdev-image-keyboard-response,216,990321,learnblock1,547.2999999523163,img/planet4_right.png,4,Community 2,NA,FALSE,f,j,NA,NA,NA,3,6,"3,12,7,6,2,11,4,10,8,5,9,13,15,1,14"
14245,commdev-image-keyboard-response,217,991573,learnblock1,544.6000000238419,img/planet11_left.png,11,Community 2,NA,TRUE,f,f,NA,NA,NA,3,6,"3,12,7,6,2,11,4,10,8,5,9,13,15,1,14"
14245,commdev-image-keyboard-response,218,992826,learnblock1,589,img/planet8_right.png,8,Community 2,NA,TRUE,j,j,NA,NA,NA,3,6,"3,12,7,6,2,11,4,10,8,5,9,13,15,1,14"
14245,commdev-image-keyboard-response,219,994077,learnblock1,561.8999999761581,img/planet4_left.png,4,Community 2,NA,TRUE,f,f,NA,NA,NA,3,6,"3,12,7,6,2,11,4,10,8,5,9,13,15,1,14"
14245,commdev-image-keyboard-response,220,995330,learnblock1,null,img/planet5_left.png,5,Community 2,NA,FALSE,null,f,NA,NA,NA,3,6,"3,12,7,6,2,11,4,10,8,5,9,13,15,1,14"
14245,commdev-image-keyboard-response,221,996595,learnblock1,null,img/planet8_left.png,8,Community 2,NA,FALSE,null,f,NA,NA,NA,3,6,"3,12,7,6,2,11,4,10,8,5,9,13,15,1,14"
14245,commdev-image-keyboard-response,222,997848,learnblock1,null,img/planet11_right.png,11,Community 2,NA,FALSE,null,j,NA,NA,NA,3,6,"3,12,7,6,2,11,4,10,8,5,9,13,15,1,14"
14245,commdev-image-keyboard-response,223,999101,learnblock1,null,img/planet4_left.png,4,Community 2,NA,FALSE,null,f,NA,NA,NA,3,6,"3,12,7,6,2,11,4,10,8,5,9,13,15,1,14"
14245,commdev-image-keyboard-response,224,1000353,learnblock1,null,img/planet11_right.png,11,Community 2,NA,FALSE,null,j,NA,NA,NA,3,6,"3,12,7,6,2,11,4,10,8,5,9,13,15,1,14"
14245,commdev-image-keyboard-response,225,1001605,learnblock1,null,img/planet5_right.png,5,Community 2,NA,FALSE,null,j,NA,NA,NA,3,6,"3,12,7,6,2,11,4,10,8,5,9,13,15,1,14"
14245,commdev-image-keyboard-response,226,1002857,learnblock1,null,img/planet10_left.png,10,Community 2,NA,FALSE,null,f,NA,NA,NA,3,6,"3,12,7,6,2,11,4,10,8,5,9,13,15,1,14"
14245,commdev-image-keyboard-response,227,1004110,learnblock1,null,img/planet5_right.png,5,Community 2,NA,FALSE,null,j,NA,NA,NA,3,6,"3,12,7,6,2,11,4,10,8,5,9,13,15,1,14"
14245,commdev-image-keyboard-response,228,1005362,learnblock1,1189.1000000238419,img/planet4_left.png,4,Community 2,NA,TRUE,f,f,NA,NA,NA,3,6,"3,12,7,6,2,11,4,10,8,5,9,13,15,1,14"
14245,commdev-image-keyboard-response,229,1006615,learnblock1,453.5,img/planet8_right.png,8,Community 2,NA,TRUE,j,j,NA,NA,NA,3,6,"3,12,7,6,2,11,4,10,8,5,9,13,15,1,14"
14245,commdev-image-keyboard-response,230,1007868,learnblock1,538.7999999523163,img/planet4_left.png,4,Community 2,NA,TRUE,f,f,NA,NA,NA,3,6,"3,12,7,6,2,11,4,10,8,5,9,13,15,1,14"
14245,commdev-image-keyboard-response,231,1009120,learnblock1,569.1000000238419,img/planet10_left.png,10,Community 2,NA,TRUE,f,f,NA,NA,NA,3,6,"3,12,7,6,2,11,4,10,8,5,9,13,15,1,14"
14245,commdev-image-keyboard-response,232,1010373,learnblock1,807.4000000953674,img/planet4_left.png,4,Community 2,NA,TRUE,f,f,NA,NA,NA,3,6,"3,12,7,6,2,11,4,10,8,5,9,13,15,1,14"
14245,commdev-image-keyboard-response,233,1011634,learnblock1,843.7000000476837,img/planet8_left.png,8,Community 2,NA,TRUE,f,f,NA,NA,NA,3,6,"3,12,7,6,2,11,4,10,8,5,9,13,15,1,14"
14245,commdev-image-keyboard-response,234,1012886,learnblock1,478.6999999284744,img/planet10_left.png,10,Community 2,NA,TRUE,f,f,NA,NA,NA,3,6,"3,12,7,6,2,11,4,10,8,5,9,13,15,1,14"
14245,commdev-image-keyboard-response,235,1014138,learnblock1,555.8999999761581,img/planet8_left.png,8,Community 2,NA,TRUE,f,f,NA,NA,NA,3,6,"3,12,7,6,2,11,4,10,8,5,9,13,15,1,14"
14245,commdev-image-keyboard-response,236,1015391,learnblock1,679.7000000476837,img/planet11_right.png,11,Community 2,NA,TRUE,j,j,NA,NA,NA,3,6,"3,12,7,6,2,11,4,10,8,5,9,13,15,1,14"
14245,commdev-image-keyboard-response,237,1016642,learnblock1,493,img/planet5_left.png,5,Community 2,NA,TRUE,f,f,NA,NA,NA,3,6,"3,12,7,6,2,11,4,10,8,5,9,13,15,1,14"
14245,commdev-image-keyboard-response,238,1017895,learnblock1,696.7999999523163,img/planet4_left.png,4,Community 2,NA,TRUE,f,f,NA,NA,NA,3,6,"3,12,7,6,2,11,4,10,8,5,9,13,15,1,14"
14245,commdev-image-keyboard-response,239,1019146,learnblock1,566.3000000715256,img/planet8_left.png,8,Community 2,NA,TRUE,f,f,NA,NA,NA,3,6,"3,12,7,6,2,11,4,10,8,5,9,13,15,1,14"
14245,commdev-image-keyboard-response,240,1020399,learnblock1,596.5,img/planet4_left.png,4,Community 2,NA,TRUE,f,f,NA,NA,NA,3,6,"3,12,7,6,2,11,4,10,8,5,9,13,15,1,14"
14245,commdev-image-keyboard-response,241,1021653,learnblock1,549.6000000238419,img/planet5_left.png,5,Community 2,NA,TRUE,f,f,NA,NA,NA,3,6,"3,12,7,6,2,11,4,10,8,5,9,13,15,1,14"
14245,commdev-image-keyboard-response,242,1022905,learnblock1,481.60000002384186,img/planet10_left.png,10,Community 2,NA,TRUE,f,f,NA,NA,NA,3,6,"3,12,7,6,2,11,4,10,8,5,9,13,15,1,14"
14245,commdev-image-keyboard-response,243,1024157,learnblock1,551.2000000476837,img/planet13_right.png,13,Community 3,NA,FALSE,f,j,NA,NA,NA,3,6,"3,12,7,6,2,11,4,10,8,5,9,13,15,1,14"
14245,commdev-image-keyboard-response,244,1025409,learnblock1,609.7000000476837,img/planet1_right.png,1,Community 3,NA,TRUE,j,j,NA,NA,NA,3,6,"3,12,7,6,2,11,4,10,8,5,9,13,15,1,14"
14245,commdev-image-keyboard-response,245,1026662,learnblock1,606.3999999761581,img/planet13_right.png,13,Community 3,NA,TRUE,j,j,NA,NA,NA,3,6,"3,12,7,6,2,11,4,10,8,5,9,13,15,1,14"
14245,commdev-image-keyboard-response,246,1027914,learnblock1,464.39999997615814,img/planet1_right.png,1,Community 3,NA,TRUE,j,j,NA,NA,NA,3,6,"3,12,7,6,2,11,4,10,8,5,9,13,15,1,14"
14245,commdev-image-keyboard-response,247,1029166,learnblock1,920.5,img/planet13_right.png,13,Community 3,NA,TRUE,j,j,NA,NA,NA,3,6,"3,12,7,6,2,11,4,10,8,5,9,13,15,1,14"
14245,commdev-image-keyboard-response,248,1030419,learnblock1,601.1999999284744,img/planet10_left.png,10,Community 2,NA,TRUE,f,f,NA,NA,NA,3,6,"3,12,7,6,2,11,4,10,8,5,9,13,15,1,14"
14245,commdev-image-keyboard-response,249,1031671,learnblock1,585.2000000476837,img/planet8_left.png,8,Community 2,NA,FALSE,j,f,NA,NA,NA,3,6,"3,12,7,6,2,11,4,10,8,5,9,13,15,1,14"
14245,commdev-image-keyboard-response,250,1032924,learnblock1,508.39999997615814,img/planet11_left.png,11,Community 2,NA,FALSE,j,f,NA,NA,NA,3,6,"3,12,7,6,2,11,4,10,8,5,9,13,15,1,14"
14245,commdev-image-keyboard-response,251,1034176,learnblock1,804.5,img/planet4_left.png,4,Community 2,NA,TRUE,f,f,NA,NA,NA,3,6,"3,12,7,6,2,11,4,10,8,5,9,13,15,1,14"
14245,commdev-image-keyboard-response,252,1035428,learnblock1,639.0999999046326,img/planet8_right.png,8,Community 2,NA,TRUE,j,j,NA,NA,NA,3,6,"3,12,7,6,2,11,4,10,8,5,9,13,15,1,14"
14245,commdev-image-keyboard-response,253,1036681,learnblock1,586.1999999284744,img/planet10_right.png,10,Community 2,NA,TRUE,j,j,NA,NA,NA,3,6,"3,12,7,6,2,11,4,10,8,5,9,13,15,1,14"
14245,commdev-image-keyboard-response,254,1037933,learnblock1,599.0999999046326,img/planet4_left.png,4,Community 2,NA,TRUE,f,f,NA,NA,NA,3,6,"3,12,7,6,2,11,4,10,8,5,9,13,15,1,14"
14245,commdev-image-keyboard-response,255,1039185,learnblock1,452.60000002384186,img/planet5_right.png,5,Community 2,NA,TRUE,j,j,NA,NA,NA,3,6,"3,12,7,6,2,11,4,10,8,5,9,13,15,1,14"
14245,commdev-image-keyboard-response,256,1040437,learnblock1,510.09999990463257,img/planet4_left.png,4,Community 2,NA,TRUE,f,f,NA,NA,NA,3,6,"3,12,7,6,2,11,4,10,8,5,9,13,15,1,14"
14245,commdev-image-keyboard-response,257,1041690,learnblock1,567.6000000238419,img/planet10_left.png,10,Community 2,NA,TRUE,f,f,NA,NA,NA,3,6,"3,12,7,6,2,11,4,10,8,5,9,13,15,1,14"
14245,commdev-image-keyboard-response,258,1042943,learnblock1,479.60000002384186,img/planet5_right.png,5,Community 2,NA,TRUE,j,j,NA,NA,NA,3,6,"3,12,7,6,2,11,4,10,8,5,9,13,15,1,14"
14245,commdev-image-keyboard-response,259,1044200,learnblock1,421.5,img/planet4_left.png,4,Community 2,NA,TRUE,f,f,NA,NA,NA,3,6,"3,12,7,6,2,11,4,10,8,5,9,13,15,1,14"
14245,commdev-image-keyboard-response,260,1045452,learnblock1,497.5,img/planet10_left.png,10,Community 2,NA,TRUE,f,f,NA,NA,NA,3,6,"3,12,7,6,2,11,4,10,8,5,9,13,15,1,14"
14245,commdev-image-keyboard-response,261,1046705,learnblock1,440.40000009536743,img/planet4_right.png,4,Community 2,NA,TRUE,j,j,NA,NA,NA,3,6,"3,12,7,6,2,11,4,10,8,5,9,13,15,1,14"
14245,commdev-image-keyboard-response,262,1047957,learnblock1,513.1000000238419,img/planet8_left.png,8,Community 2,NA,TRUE,f,f,NA,NA,NA,3,6,"3,12,7,6,2,11,4,10,8,5,9,13,15,1,14"
14245,commdev-image-keyboard-response,263,1049209,learnblock1,618.4000000953674,img/planet5_left.png,5,Community 2,NA,TRUE,f,f,NA,NA,NA,3,6,"3,12,7,6,2,11,4,10,8,5,9,13,15,1,14"
14245,commdev-image-keyboard-response,264,1050462,learnblock1,598.1000000238419,img/planet8_left.png,8,Community 2,NA,TRUE,f,f,NA,NA,NA,3,6,"3,12,7,6,2,11,4,10,8,5,9,13,15,1,14"
14245,commdev-image-keyboard-response,265,1051714,learnblock1,474.7000000476837,img/planet10_right.png,10,Community 2,NA,TRUE,j,j,NA,NA,NA,3,6,"3,12,7,6,2,11,4,10,8,5,9,13,15,1,14"
14245,commdev-image-keyboard-response,266,1052967,learnblock1,646.1999999284744,img/planet4_right.png,4,Community 2,NA,TRUE,j,j,NA,NA,NA,3,6,"3,12,7,6,2,11,4,10,8,5,9,13,15,1,14"
14245,commdev-image-keyboard-response,267,1054219,learnblock1,753.2000000476837,img/planet8_right.png,8,Community 2,NA,TRUE,j,j,NA,NA,NA,3,6,"3,12,7,6,2,11,4,10,8,5,9,13,15,1,14"
14245,commdev-image-keyboard-response,268,1055473,learnblock1,744.7000000476837,img/planet4_right.png,4,Community 2,NA,TRUE,j,j,NA,NA,NA,3,6,"3,12,7,6,2,11,4,10,8,5,9,13,15,1,14"
14245,commdev-image-keyboard-response,269,1056726,learnblock1,898.7999999523163,img/planet11_right.png,11,Community 2,NA,FALSE,f,j,NA,NA,NA,3,6,"3,12,7,6,2,11,4,10,8,5,9,13,15,1,14"
14245,commdev-image-keyboard-response,270,1057978,learnblock1,702.2000000476837,img/planet4_right.png,4,Community 2,NA,TRUE,j,j,NA,NA,NA,3,6,"3,12,7,6,2,11,4,10,8,5,9,13,15,1,14"
14245,commdev-image-keyboard-response,271,1059237,learnblock1,593.6000000238419,img/planet5_right.png,5,Community 2,NA,TRUE,j,j,NA,NA,NA,3,6,"3,12,7,6,2,11,4,10,8,5,9,13,15,1,14"
14245,commdev-image-keyboard-response,272,1060491,learnblock1,810.7000000476837,img/planet8_right.png,8,Community 2,NA,TRUE,j,j,NA,NA,NA,3,6,"3,12,7,6,2,11,4,10,8,5,9,13,15,1,14"
14245,commdev-image-keyboard-response,273,1061742,learnblock1,480.5,img/planet11_left.png,11,Community 2,NA,FALSE,j,f,NA,NA,NA,3,6,"3,12,7,6,2,11,4,10,8,5,9,13,15,1,14"
14245,commdev-image-keyboard-response,274,1062995,learnblock1,672.2000000476837,img/planet8_left.png,8,Community 2,NA,FALSE,j,f,NA,NA,NA,3,6,"3,12,7,6,2,11,4,10,8,5,9,13,15,1,14"
14245,commdev-image-keyboard-response,275,1064247,learnblock1,95.90000009536743,img/planet5_left.png,5,Community 2,NA,FALSE,j,f,NA,NA,NA,3,6,"3,12,7,6,2,11,4,10,8,5,9,13,15,1,14"
14245,commdev-image-keyboard-response,276,1065500,learnblock1,44,img/planet11_left.png,11,Community 2,NA,TRUE,f,f,NA,NA,NA,3,6,"3,12,7,6,2,11,4,10,8,5,9,13,15,1,14"
14245,commdev-image-keyboard-response,277,1066752,learnblock1,562.3999999761581,img/planet8_right.png,8,Community 2,NA,TRUE,j,j,NA,NA,NA,3,6,"3,12,7,6,2,11,4,10,8,5,9,13,15,1,14"
14245,commdev-image-keyboard-response,278,1068004,learnblock1,531.2999999523163,img/planet5_left.png,5,Community 2,NA,TRUE,f,f,NA,NA,NA,3,6,"3,12,7,6,2,11,4,10,8,5,9,13,15,1,14"
14245,commdev-image-keyboard-response,279,1069256,learnblock1,809.5,img/planet11_left.png,11,Community 2,NA,TRUE,f,f,NA,NA,NA,3,6,"3,12,7,6,2,11,4,10,8,5,9,13,15,1,14"
14245,commdev-image-keyboard-response,280,1070508,learnblock1,631.1000000238419,img/planet4_left.png,4,Community 2,NA,TRUE,f,f,NA,NA,NA,3,6,"3,12,7,6,2,11,4,10,8,5,9,13,15,1,14"
14245,commdev-image-keyboard-response,281,1071760,learnblock1,578,img/planet5_left.png,5,Community 2,NA,TRUE,f,f,NA,NA,NA,3,6,"3,12,7,6,2,11,4,10,8,5,9,13,15,1,14"
14245,commdev-image-keyboard-response,282,1073013,learnblock1,543,img/planet4_left.png,4,Community 2,NA,TRUE,f,f,NA,NA,NA,3,6,"3,12,7,6,2,11,4,10,8,5,9,13,15,1,14"
14245,commdev-image-keyboard-response,283,1074265,learnblock1,545.2000000476837,img/planet11_right.png,11,Community 2,NA,TRUE,j,j,NA,NA,NA,3,6,"3,12,7,6,2,11,4,10,8,5,9,13,15,1,14"
14245,commdev-image-keyboard-response,284,1075518,learnblock1,566.3999999761581,img/planet8_left.png,8,Community 2,NA,TRUE,f,f,NA,NA,NA,3,6,"3,12,7,6,2,11,4,10,8,5,9,13,15,1,14"
14245,commdev-image-keyboard-response,285,1076770,learnblock1,541.5,img/planet4_left.png,4,Community 2,NA,TRUE,f,f,NA,NA,NA,3,6,"3,12,7,6,2,11,4,10,8,5,9,13,15,1,14"
14245,commdev-image-keyboard-response,286,1078022,learnblock1,507.8000000715256,img/planet10_right.png,10,Community 2,NA,TRUE,j,j,NA,NA,NA,3,6,"3,12,7,6,2,11,4,10,8,5,9,13,15,1,14"
14245,commdev-image-keyboard-response,287,1079275,learnblock1,578.8000000715256,img/planet13_right.png,13,Community 3,NA,TRUE,j,j,NA,NA,NA,3,6,"3,12,7,6,2,11,4,10,8,5,9,13,15,1,14"
14245,commdev-image-keyboard-response,288,1080527,learnblock1,634.2000000476837,img/planet14_left.png,14,Community 3,NA,TRUE,f,f,NA,NA,NA,3,6,"3,12,7,6,2,11,4,10,8,5,9,13,15,1,14"
14245,commdev-image-keyboard-response,289,1081780,learnblock1,735.2999999523163,img/planet13_left.png,13,Community 3,NA,TRUE,f,f,NA,NA,NA,3,6,"3,12,7,6,2,11,4,10,8,5,9,13,15,1,14"
14245,commdev-image-keyboard-response,290,1083032,learnblock1,618.5,img/planet10_left.png,10,Community 2,NA,TRUE,f,f,NA,NA,NA,3,6,"3,12,7,6,2,11,4,10,8,5,9,13,15,1,14"
14245,commdev-image-keyboard-response,291,1084285,learnblock1,576.6000000238419,img/planet4_right.png,4,Community 2,NA,TRUE,j,j,NA,NA,NA,3,6,"3,12,7,6,2,11,4,10,8,5,9,13,15,1,14"
14245,commdev-image-keyboard-response,292,1085538,learnblock1,529.6000000238419,img/planet5_left.png,5,Community 2,NA,TRUE,f,f,NA,NA,NA,3,6,"3,12,7,6,2,11,4,10,8,5,9,13,15,1,14"
14245,commdev-image-keyboard-response,293,1086791,learnblock1,447,img/planet4_right.png,4,Community 2,NA,TRUE,j,j,NA,NA,NA,3,6,"3,12,7,6,2,11,4,10,8,5,9,13,15,1,14"
14245,commdev-image-keyboard-response,294,1088043,learnblock1,465,img/planet5_left.png,5,Community 2,NA,TRUE,f,f,NA,NA,NA,3,6,"3,12,7,6,2,11,4,10,8,5,9,13,15,1,14"
14245,commdev-image-keyboard-response,295,1089299,learnblock1,497.7000000476837,img/planet11_left.png,11,Community 2,NA,FALSE,j,f,NA,NA,NA,3,6,"3,12,7,6,2,11,4,10,8,5,9,13,15,1,14"
14245,commdev-image-keyboard-response,296,1090551,learnblock1,587.1000000238419,img/planet8_right.png,8,Community 2,NA,TRUE,j,j,NA,NA,NA,3,6,"3,12,7,6,2,11,4,10,8,5,9,13,15,1,14"
14245,commdev-image-keyboard-response,297,1091803,learnblock1,338.5,img/planet11_right.png,11,Community 2,NA,FALSE,f,j,NA,NA,NA,3,6,"3,12,7,6,2,11,4,10,8,5,9,13,15,1,14"
14245,commdev-image-keyboard-response,298,1093055,learnblock1,921.8999999761581,img/planet8_right.png,8,Community 2,NA,TRUE,j,j,NA,NA,NA,3,6,"3,12,7,6,2,11,4,10,8,5,9,13,15,1,14"
14245,commdev-image-keyboard-response,299,1094307,learnblock1,593.2000000476837,img/planet4_left.png,4,Community 2,NA,TRUE,f,f,NA,NA,NA,3,6,"3,12,7,6,2,11,4,10,8,5,9,13,15,1,14"
14245,commdev-image-keyboard-response,300,1095574,learnblock1,815.6000000238419,img/planet8_left.png,8,Community 2,NA,TRUE,f,f,NA,NA,NA,3,6,"3,12,7,6,2,11,4,10,8,5,9,13,15,1,14"
14245,commdev-image-keyboard-response,301,1096827,learnblock1,632,img/planet11_left.png,11,Community 2,NA,TRUE,f,f,NA,NA,NA,3,6,"3,12,7,6,2,11,4,10,8,5,9,13,15,1,14"
14245,commdev-image-keyboard-response,302,1098079,learnblock1,610.8999999761581,img/planet6_right.png,6,Community 1,NA,TRUE,j,j,NA,NA,NA,3,6,"3,12,7,6,2,11,4,10,8,5,9,13,15,1,14"
14245,commdev-image-keyboard-response,303,1099331,learnblock1,892.2999999523163,img/planet12_left.png,12,Community 1,NA,TRUE,f,f,NA,NA,NA,3,6,"3,12,7,6,2,11,4,10,8,5,9,13,15,1,14"
14245,commdev-image-keyboard-response,304,1100585,learnblock1,530.2000000476837,img/planet2_right.png,2,Community 1,NA,TRUE,j,j,NA,NA,NA,3,6,"3,12,7,6,2,11,4,10,8,5,9,13,15,1,14"
14245,commdev-image-keyboard-response,305,1101838,learnblock1,823.7000000476837,img/planet12_right.png,12,Community 1,NA,TRUE,j,j,NA,NA,NA,3,6,"3,12,7,6,2,11,4,10,8,5,9,13,15,1,14"
14245,commdev-image-keyboard-response,306,1103089,learnblock1,476.3000000715256,img/planet2_left.png,2,Community 1,NA,TRUE,f,f,NA,NA,NA,3,6,"3,12,7,6,2,11,4,10,8,5,9,13,15,1,14"
14245,commdev-image-keyboard-response,307,1104342,learnblock1,713.7999999523163,img/planet3_right.png,3,Community 1,NA,TRUE,j,j,NA,NA,NA,3,6,"3,12,7,6,2,11,4,10,8,5,9,13,15,1,14"
14245,commdev-image-keyboard-response,308,1105598,learnblock1,522.7000000476837,img/planet7_left.png,7,Community 1,NA,TRUE,f,f,NA,NA,NA,3,6,"3,12,7,6,2,11,4,10,8,5,9,13,15,1,14"
14245,commdev-image-keyboard-response,309,1106851,learnblock1,472.39999997615814,img/planet12_right.png,12,Community 1,NA,TRUE,j,j,NA,NA,NA,3,6,"3,12,7,6,2,11,4,10,8,5,9,13,15,1,14"
14245,commdev-image-keyboard-response,310,1108103,learnblock1,657.7999999523163,img/planet6_left.png,6,Community 1,NA,TRUE,f,f,NA,NA,NA,3,6,"3,12,7,6,2,11,4,10,8,5,9,13,15,1,14"
14245,commdev-image-keyboard-response,311,1109355,learnblock1,753.2999999523163,img/planet7_left.png,7,Community 1,NA,TRUE,f,f,NA,NA,NA,3,6,"3,12,7,6,2,11,4,10,8,5,9,13,15,1,14"
14245,commdev-image-keyboard-response,312,1110606,learnblock1,572.2000000476837,img/planet6_right.png,6,Community 1,NA,TRUE,j,j,NA,NA,NA,3,6,"3,12,7,6,2,11,4,10,8,5,9,13,15,1,14"
14245,commdev-image-keyboard-response,313,1111858,learnblock1,631.7000000476837,img/planet12_right.png,12,Community 1,NA,TRUE,j,j,NA,NA,NA,3,6,"3,12,7,6,2,11,4,10,8,5,9,13,15,1,14"
14245,commdev-image-keyboard-response,314,1113112,learnblock1,728.1999999284744,img/planet7_right.png,7,Community 1,NA,TRUE,j,j,NA,NA,NA,3,6,"3,12,7,6,2,11,4,10,8,5,9,13,15,1,14"
14245,commdev-image-keyboard-response,315,1114364,learnblock1,620,img/planet12_left.png,12,Community 1,NA,TRUE,f,f,NA,NA,NA,3,6,"3,12,7,6,2,11,4,10,8,5,9,13,15,1,14"
14245,commdev-image-keyboard-response,316,1115616,learnblock1,1057.8000000715256,img/planet7_left.png,7,Community 1,NA,FALSE,j,f,NA,NA,NA,3,6,"3,12,7,6,2,11,4,10,8,5,9,13,15,1,14"
14245,commdev-image-keyboard-response,317,1116868,learnblock1,575.4000000953674,img/planet2_left.png,2,Community 1,NA,FALSE,j,f,NA,NA,NA,3,6,"3,12,7,6,2,11,4,10,8,5,9,13,15,1,14"
14245,commdev-image-keyboard-response,318,1118128,learnblock1,685.2999999523163,img/planet7_right.png,7,Community 1,NA,FALSE,f,j,NA,NA,NA,3,6,"3,12,7,6,2,11,4,10,8,5,9,13,15,1,14"
14245,commdev-image-keyboard-response,319,1119380,learnblock1,1000,img/planet3_right.png,3,Community 1,NA,TRUE,j,j,NA,NA,NA,3,6,"3,12,7,6,2,11,4,10,8,5,9,13,15,1,14"
14245,commdev-image-keyboard-response,320,1120632,learnblock1,654.6000000238419,img/planet2_left.png,2,Community 1,NA,TRUE,f,f,NA,NA,NA,3,6,"3,12,7,6,2,11,4,10,8,5,9,13,15,1,14"
14245,commdev-image-keyboard-response,321,1121884,learnblock1,868.5,img/planet12_left.png,12,Community 1,NA,TRUE,f,f,NA,NA,NA,3,6,"3,12,7,6,2,11,4,10,8,5,9,13,15,1,14"
14245,commdev-image-keyboard-response,322,1123137,learnblock1,910.1000000238419,img/planet2_right.png,2,Community 1,NA,TRUE,j,j,NA,NA,NA,3,6,"3,12,7,6,2,11,4,10,8,5,9,13,15,1,14"
14245,commdev-image-keyboard-response,323,1124389,learnblock1,790.2000000476837,img/planet7_left.png,7,Community 1,NA,TRUE,f,f,NA,NA,NA,3,6,"3,12,7,6,2,11,4,10,8,5,9,13,15,1,14"
14245,commdev-image-keyboard-response,324,1125643,learnblock1,808.2000000476837,img/planet12_left.png,12,Community 1,NA,TRUE,f,f,NA,NA,NA,3,6,"3,12,7,6,2,11,4,10,8,5,9,13,15,1,14"
14245,commdev-image-keyboard-response,325,1126895,learnblock1,657.4000000953674,img/planet6_right.png,6,Community 1,NA,TRUE,j,j,NA,NA,NA,3,6,"3,12,7,6,2,11,4,10,8,5,9,13,15,1,14"
14245,commdev-image-keyboard-response,326,1128155,learnblock1,667.7000000476837,img/planet11_left.png,11,Community 2,NA,TRUE,f,f,NA,NA,NA,3,6,"3,12,7,6,2,11,4,10,8,5,9,13,15,1,14"
14245,commdev-image-keyboard-response,327,1129408,learnblock1,664.3999999761581,img/planet8_right.png,8,Community 2,NA,TRUE,j,j,NA,NA,NA,3,6,"3,12,7,6,2,11,4,10,8,5,9,13,15,1,14"
14245,commdev-image-keyboard-response,328,1130659,learnblock1,583.5,img/planet10_left.png,10,Community 2,NA,TRUE,f,f,NA,NA,NA,3,6,"3,12,7,6,2,11,4,10,8,5,9,13,15,1,14"
14245,commdev-image-keyboard-response,329,1131912,learnblock1,646.8999999761581,img/planet4_left.png,4,Community 2,NA,TRUE,f,f,NA,NA,NA,3,6,"3,12,7,6,2,11,4,10,8,5,9,13,15,1,14"
14245,commdev-image-keyboard-response,330,1133164,learnblock1,628.6999999284744,img/planet5_left.png,5,Community 2,NA,TRUE,f,f,NA,NA,NA,3,6,"3,12,7,6,2,11,4,10,8,5,9,13,15,1,14"
14245,commdev-image-keyboard-response,331,1134416,learnblock1,653.2999999523163,img/planet11_left.png,11,Community 2,NA,TRUE,f,f,NA,NA,NA,3,6,"3,12,7,6,2,11,4,10,8,5,9,13,15,1,14"
14245,commdev-image-keyboard-response,332,1135668,learnblock1,660.1000000238419,img/planet5_left.png,5,Community 2,NA,TRUE,f,f,NA,NA,NA,3,6,"3,12,7,6,2,11,4,10,8,5,9,13,15,1,14"
14245,commdev-image-keyboard-response,333,1136920,learnblock1,424.7000000476837,img/planet11_right.png,11,Community 2,NA,FALSE,f,j,NA,NA,NA,3,6,"3,12,7,6,2,11,4,10,8,5,9,13,15,1,14"
14245,commdev-image-keyboard-response,334,1138173,learnblock1,664.3000000715256,img/planet8_left.png,8,Community 2,NA,TRUE,f,f,NA,NA,NA,3,6,"3,12,7,6,2,11,4,10,8,5,9,13,15,1,14"
14245,commdev-image-keyboard-response,335,1139426,learnblock1,667.1000000238419,img/planet5_left.png,5,Community 2,NA,TRUE,f,f,NA,NA,NA,3,6,"3,12,7,6,2,11,4,10,8,5,9,13,15,1,14"
14245,commdev-image-keyboard-response,336,1140679,learnblock1,656.6000000238419,img/planet8_left.png,8,Community 2,NA,TRUE,f,f,NA,NA,NA,3,6,"3,12,7,6,2,11,4,10,8,5,9,13,15,1,14"
14245,commdev-image-keyboard-response,337,1141932,learnblock1,647.9000000953674,img/planet11_right.png,11,Community 2,NA,TRUE,j,j,NA,NA,NA,3,6,"3,12,7,6,2,11,4,10,8,5,9,13,15,1,14"
14245,commdev-image-keyboard-response,338,1143184,learnblock1,656.1999999284744,img/planet4_left.png,4,Community 2,NA,TRUE,f,f,NA,NA,NA,3,6,"3,12,7,6,2,11,4,10,8,5,9,13,15,1,14"
14245,commdev-image-keyboard-response,339,1144436,learnblock1,817.1000000238419,img/planet8_left.png,8,Community 2,NA,TRUE,f,f,NA,NA,NA,3,6,"3,12,7,6,2,11,4,10,8,5,9,13,15,1,14"
14245,commdev-image-keyboard-response,340,1145688,learnblock1,511.89999997615814,img/planet5_right.png,5,Community 2,NA,FALSE,f,j,NA,NA,NA,3,6,"3,12,7,6,2,11,4,10,8,5,9,13,15,1,14"
14245,commdev-image-keyboard-response,341,1146941,learnblock1,707.6000000238419,img/planet8_right.png,8,Community 2,NA,TRUE,j,j,NA,NA,NA,3,6,"3,12,7,6,2,11,4,10,8,5,9,13,15,1,14"
14245,commdev-image-keyboard-response,342,1148193,learnblock1,821,img/planet10_left.png,10,Community 2,NA,TRUE,f,f,NA,NA,NA,3,6,"3,12,7,6,2,11,4,10,8,5,9,13,15,1,14"
14245,commdev-image-keyboard-response,343,1149447,learnblock1,678.1999999284744,img/planet8_right.png,8,Community 2,NA,TRUE,j,j,NA,NA,NA,3,6,"3,12,7,6,2,11,4,10,8,5,9,13,15,1,14"
14245,commdev-image-keyboard-response,344,1150698,learnblock1,664.5,img/planet10_right.png,10,Community 2,NA,TRUE,j,j,NA,NA,NA,3,6,"3,12,7,6,2,11,4,10,8,5,9,13,15,1,14"
14245,commdev-image-keyboard-response,345,1151951,learnblock1,706.1000000238419,img/planet5_left.png,5,Community 2,NA,FALSE,j,f,NA,NA,NA,3,6,"3,12,7,6,2,11,4,10,8,5,9,13,15,1,14"
14245,commdev-image-keyboard-response,346,1153218,learnblock1,null,img/planet8_right.png,8,Community 2,NA,FALSE,null,j,NA,NA,NA,3,6,"3,12,7,6,2,11,4,10,8,5,9,13,15,1,14"
14245,commdev-image-keyboard-response,347,1154470,learnblock1,777,img/planet5_left.png,5,Community 2,NA,TRUE,f,f,NA,NA,NA,3,6,"3,12,7,6,2,11,4,10,8,5,9,13,15,1,14"
14245,commdev-image-keyboard-response,348,1155721,learnblock1,801.6999999284744,img/planet4_left.png,4,Community 2,NA,TRUE,f,f,NA,NA,NA,3,6,"3,12,7,6,2,11,4,10,8,5,9,13,15,1,14"
14245,commdev-image-keyboard-response,349,1156974,learnblock1,667.3999999761581,img/planet10_left.png,10,Community 2,NA,TRUE,f,f,NA,NA,NA,3,6,"3,12,7,6,2,11,4,10,8,5,9,13,15,1,14"
14245,commdev-image-keyboard-response,350,1158233,learnblock1,637.2000000476837,img/planet13_left.png,13,Community 3,NA,TRUE,f,f,NA,NA,NA,3,6,"3,12,7,6,2,11,4,10,8,5,9,13,15,1,14"
14245,commdev-image-keyboard-response,351,1159487,learnblock1,560.2999999523163,img/planet15_left.png,15,Community 3,NA,TRUE,f,f,NA,NA,NA,3,6,"3,12,7,6,2,11,4,10,8,5,9,13,15,1,14"
14245,commdev-image-keyboard-response,352,1160741,learnblock1,564.5,img/planet13_left.png,13,Community 3,NA,TRUE,f,f,NA,NA,NA,3,6,"3,12,7,6,2,11,4,10,8,5,9,13,15,1,14"
14245,commdev-image-keyboard-response,353,1161993,learnblock1,561.6000000238419,img/planet10_right.png,10,Community 2,NA,TRUE,j,j,NA,NA,NA,3,6,"3,12,7,6,2,11,4,10,8,5,9,13,15,1,14"
14245,commdev-image-keyboard-response,354,1163245,learnblock1,685.3999999761581,img/planet4_left.png,4,Community 2,NA,TRUE,f,f,NA,NA,NA,3,6,"3,12,7,6,2,11,4,10,8,5,9,13,15,1,14"
14245,commdev-image-keyboard-response,355,1164496,learnblock1,655.2999999523163,img/planet11_right.png,11,Community 2,NA,TRUE,j,j,NA,NA,NA,3,6,"3,12,7,6,2,11,4,10,8,5,9,13,15,1,14"
14245,commdev-image-keyboard-response,356,1165748,learnblock1,606.3999999761581,img/planet4_right.png,4,Community 2,NA,TRUE,j,j,NA,NA,NA,3,6,"3,12,7,6,2,11,4,10,8,5,9,13,15,1,14"
14245,commdev-image-keyboard-response,357,1167000,learnblock1,733,img/planet10_left.png,10,Community 2,NA,TRUE,f,f,NA,NA,NA,3,6,"3,12,7,6,2,11,4,10,8,5,9,13,15,1,14"
14245,commdev-image-keyboard-response,358,1168253,learnblock1,665.2999999523163,img/planet8_left.png,8,Community 2,NA,TRUE,f,f,NA,NA,NA,3,6,"3,12,7,6,2,11,4,10,8,5,9,13,15,1,14"
14245,commdev-image-keyboard-response,359,1169506,learnblock1,549.5,img/planet5_right.png,5,Community 2,NA,TRUE,j,j,NA,NA,NA,3,6,"3,12,7,6,2,11,4,10,8,5,9,13,15,1,14"
14245,commdev-image-keyboard-response,360,1170758,learnblock1,515.5,img/planet4_left.png,4,Community 2,NA,TRUE,f,f,NA,NA,NA,3,6,"3,12,7,6,2,11,4,10,8,5,9,13,15,1,14"
14245,commdev-image-keyboard-response,361,1172010,learnblock1,563.1999999284744,img/planet8_right.png,8,Community 2,NA,TRUE,j,j,NA,NA,NA,3,6,"3,12,7,6,2,11,4,10,8,5,9,13,15,1,14"
14245,commdev-image-keyboard-response,362,1173262,learnblock1,746.5,img/planet10_right.png,10,Community 2,NA,TRUE,j,j,NA,NA,NA,3,6,"3,12,7,6,2,11,4,10,8,5,9,13,15,1,14"
14245,commdev-image-keyboard-response,363,1174513,learnblock1,630.8999999761581,img/planet8_right.png,8,Community 2,NA,TRUE,j,j,NA,NA,NA,3,6,"3,12,7,6,2,11,4,10,8,5,9,13,15,1,14"
14245,commdev-image-keyboard-response,364,1175777,learnblock1,527.8000000715256,img/planet10_right.png,10,Community 2,NA,TRUE,j,j,NA,NA,NA,3,6,"3,12,7,6,2,11,4,10,8,5,9,13,15,1,14"
14245,commdev-image-keyboard-response,365,1177034,learnblock1,617.6000000238419,img/planet13_right.png,13,Community 3,NA,TRUE,j,j,NA,NA,NA,3,6,"3,12,7,6,2,11,4,10,8,5,9,13,15,1,14"
14245,commdev-image-keyboard-response,366,1178286,learnblock1,548.6000000238419,img/planet1_right.png,1,Community 3,NA,TRUE,j,j,NA,NA,NA,3,6,"3,12,7,6,2,11,4,10,8,5,9,13,15,1,14"
14245,commdev-image-keyboard-response,367,1179538,learnblock1,611.1000000238419,img/planet13_left.png,13,Community 3,NA,TRUE,f,f,NA,NA,NA,3,6,"3,12,7,6,2,11,4,10,8,5,9,13,15,1,14"
14245,commdev-image-keyboard-response,368,1180789,learnblock1,593.6000000238419,img/planet1_left.png,1,Community 3,NA,TRUE,f,f,NA,NA,NA,3,6,"3,12,7,6,2,11,4,10,8,5,9,13,15,1,14"
14245,commdev-image-keyboard-response,369,1182042,learnblock1,531.5,img/planet15_right.png,15,Community 3,NA,TRUE,j,j,NA,NA,NA,3,6,"3,12,7,6,2,11,4,10,8,5,9,13,15,1,14"
14245,commdev-image-keyboard-response,370,1183294,learnblock1,540.8999999761581,img/planet13_left.png,13,Community 3,NA,TRUE,f,f,NA,NA,NA,3,6,"3,12,7,6,2,11,4,10,8,5,9,13,15,1,14"
14245,commdev-image-keyboard-response,371,1184546,learnblock1,483.1999999284744,img/planet10_right.png,10,Community 2,NA,TRUE,j,j,NA,NA,NA,3,6,"3,12,7,6,2,11,4,10,8,5,9,13,15,1,14"
14245,commdev-image-keyboard-response,372,1185799,learnblock1,453.6999999284744,img/planet13_right.png,13,Community 3,NA,TRUE,j,j,NA,NA,NA,3,6,"3,12,7,6,2,11,4,10,8,5,9,13,15,1,14"
14245,commdev-image-keyboard-response,373,1187051,learnblock1,562.3999999761581,img/planet15_left.png,15,Community 3,NA,TRUE,f,f,NA,NA,NA,3,6,"3,12,7,6,2,11,4,10,8,5,9,13,15,1,14"
14245,commdev-image-keyboard-response,374,1188304,learnblock1,580.1000000238419,img/planet1_left.png,1,Community 3,NA,TRUE,f,f,NA,NA,NA,3,6,"3,12,7,6,2,11,4,10,8,5,9,13,15,1,14"
14245,commdev-image-keyboard-response,375,1189557,learnblock1,504.90000009536743,img/planet15_right.png,15,Community 3,NA,TRUE,j,j,NA,NA,NA,3,6,"3,12,7,6,2,11,4,10,8,5,9,13,15,1,14"
14245,commdev-image-keyboard-response,376,1190809,learnblock1,464.3000000715256,img/planet9_left.png,9,Community 3,NA,TRUE,f,f,NA,NA,NA,3,6,"3,12,7,6,2,11,4,10,8,5,9,13,15,1,14"
14245,commdev-image-keyboard-response,377,1192061,learnblock1,612.1000000238419,img/planet14_right.png,14,Community 3,NA,TRUE,j,j,NA,NA,NA,3,6,"3,12,7,6,2,11,4,10,8,5,9,13,15,1,14"
14245,commdev-image-keyboard-response,378,1193313,learnblock1,531.7000000476837,img/planet13_left.png,13,Community 3,NA,TRUE,f,f,NA,NA,NA,3,6,"3,12,7,6,2,11,4,10,8,5,9,13,15,1,14"
14245,commdev-image-keyboard-response,379,1194565,learnblock1,617.5,img/planet1_left.png,1,Community 3,NA,TRUE,f,f,NA,NA,NA,3,6,"3,12,7,6,2,11,4,10,8,5,9,13,15,1,14"
14245,commdev-image-keyboard-response,380,1195818,learnblock1,513.5,img/planet14_right.png,14,Community 3,NA,TRUE,j,j,NA,NA,NA,3,6,"3,12,7,6,2,11,4,10,8,5,9,13,15,1,14"
14245,commdev-image-keyboard-response,381,1197070,learnblock1,854.5,img/planet1_right.png,1,Community 3,NA,TRUE,j,j,NA,NA,NA,3,6,"3,12,7,6,2,11,4,10,8,5,9,13,15,1,14"
14245,commdev-image-keyboard-response,382,1198322,learnblock1,493.5,img/planet14_right.png,14,Community 3,NA,FALSE,f,j,NA,NA,NA,3,6,"3,12,7,6,2,11,4,10,8,5,9,13,15,1,14"
14245,commdev-image-keyboard-response,383,1199574,learnblock1,562.1000000238419,img/planet9_left.png,9,Community 3,NA,TRUE,f,f,NA,NA,NA,3,6,"3,12,7,6,2,11,4,10,8,5,9,13,15,1,14"
14245,commdev-image-keyboard-response,384,1200827,learnblock1,947.5,img/planet14_right.png,14,Community 3,NA,TRUE,j,j,NA,NA,NA,3,6,"3,12,7,6,2,11,4,10,8,5,9,13,15,1,14"
14245,commdev-image-keyboard-response,385,1202080,learnblock1,813.2000000476837,img/planet15_right.png,15,Community 3,NA,TRUE,j,j,NA,NA,NA,3,6,"3,12,7,6,2,11,4,10,8,5,9,13,15,1,14"
14245,commdev-image-keyboard-response,386,1203332,learnblock1,921.1000000238419,img/planet9_left.png,9,Community 3,NA,TRUE,f,f,NA,NA,NA,3,6,"3,12,7,6,2,11,4,10,8,5,9,13,15,1,14"
14245,commdev-image-keyboard-response,387,1204584,learnblock1,1019.5,img/planet1_left.png,1,Community 3,NA,TRUE,f,f,NA,NA,NA,3,6,"3,12,7,6,2,11,4,10,8,5,9,13,15,1,14"
14245,commdev-image-keyboard-response,388,1205836,learnblock1,704.6000000238419,img/planet13_left.png,13,Community 3,NA,TRUE,f,f,NA,NA,NA,3,6,"3,12,7,6,2,11,4,10,8,5,9,13,15,1,14"
14245,commdev-image-keyboard-response,389,1207089,learnblock1,722.1000000238419,img/planet1_left.png,1,Community 3,NA,FALSE,j,f,NA,NA,NA,3,6,"3,12,7,6,2,11,4,10,8,5,9,13,15,1,14"
14245,commdev-image-keyboard-response,390,1208341,learnblock1,711.2999999523163,img/planet15_right.png,15,Community 3,NA,TRUE,j,j,NA,NA,NA,3,6,"3,12,7,6,2,11,4,10,8,5,9,13,15,1,14"
14245,commdev-image-keyboard-response,391,1209594,learnblock1,1064.9000000953674,img/planet9_right.png,9,Community 3,NA,TRUE,j,j,NA,NA,NA,3,6,"3,12,7,6,2,11,4,10,8,5,9,13,15,1,14"
14245,commdev-image-keyboard-response,392,1210845,learnblock1,494.5,img/planet2_right.png,2,Community 1,NA,TRUE,j,j,NA,NA,NA,3,6,"3,12,7,6,2,11,4,10,8,5,9,13,15,1,14"
14245,commdev-image-keyboard-response,393,1212098,learnblock1,548.9000000953674,img/planet12_left.png,12,Community 1,NA,TRUE,f,f,NA,NA,NA,3,6,"3,12,7,6,2,11,4,10,8,5,9,13,15,1,14"
14245,commdev-image-keyboard-response,394,1213350,learnblock1,666.7000000476837,img/planet6_right.png,6,Community 1,NA,TRUE,j,j,NA,NA,NA,3,6,"3,12,7,6,2,11,4,10,8,5,9,13,15,1,14"
14245,commdev-image-keyboard-response,395,1214603,learnblock1,558.4000000953674,img/planet11_right.png,11,Community 2,NA,TRUE,j,j,NA,NA,NA,3,6,"3,12,7,6,2,11,4,10,8,5,9,13,15,1,14"
14245,commdev-image-keyboard-response,396,1215855,learnblock1,664.3999999761581,img/planet4_right.png,4,Community 2,NA,TRUE,j,j,NA,NA,NA,3,6,"3,12,7,6,2,11,4,10,8,5,9,13,15,1,14"
14245,commdev-image-keyboard-response,397,1217107,learnblock1,560.3999999761581,img/planet8_right.png,8,Community 2,NA,TRUE,j,j,NA,NA,NA,3,6,"3,12,7,6,2,11,4,10,8,5,9,13,15,1,14"
14245,commdev-image-keyboard-response,398,1218360,learnblock1,634,img/planet4_left.png,4,Community 2,NA,TRUE,f,f,NA,NA,NA,3,6,"3,12,7,6,2,11,4,10,8,5,9,13,15,1,14"
14245,commdev-image-keyboard-response,399,1219622,learnblock1,602.3999999761581,img/planet11_left.png,11,Community 2,NA,TRUE,f,f,NA,NA,NA,3,6,"3,12,7,6,2,11,4,10,8,5,9,13,15,1,14"
14245,commdev-image-keyboard-response,400,1220873,learnblock1,478.5,img/planet4_left.png,4,Community 2,NA,TRUE,f,f,NA,NA,NA,3,6,"3,12,7,6,2,11,4,10,8,5,9,13,15,1,14"
14245,commdev-image-keyboard-response,401,1222125,learnblock1,693.5,img/planet8_left.png,8,Community 2,NA,TRUE,f,f,NA,NA,NA,3,6,"3,12,7,6,2,11,4,10,8,5,9,13,15,1,14"
14245,commdev-image-keyboard-response,402,1223377,learnblock1,457.7999999523163,img/planet4_left.png,4,Community 2,NA,TRUE,f,f,NA,NA,NA,3,6,"3,12,7,6,2,11,4,10,8,5,9,13,15,1,14"
14245,commdev-image-keyboard-response,403,1224630,learnblock1,948.8999999761581,img/planet8_left.png,8,Community 2,NA,TRUE,f,f,NA,NA,NA,3,6,"3,12,7,6,2,11,4,10,8,5,9,13,15,1,14"
14245,commdev-image-keyboard-response,404,1225884,learnblock1,527.5,img/planet4_left.png,4,Community 2,NA,TRUE,f,f,NA,NA,NA,3,6,"3,12,7,6,2,11,4,10,8,5,9,13,15,1,14"
14245,commdev-image-keyboard-response,405,1227136,learnblock1,697.6000000238419,img/planet8_left.png,8,Community 2,NA,TRUE,f,f,NA,NA,NA,3,6,"3,12,7,6,2,11,4,10,8,5,9,13,15,1,14"
14245,commdev-image-keyboard-response,406,1228388,learnblock1,681.3000000715256,img/planet5_left.png,5,Community 2,NA,TRUE,f,f,NA,NA,NA,3,6,"3,12,7,6,2,11,4,10,8,5,9,13,15,1,14"
14245,commdev-image-keyboard-response,407,1229640,learnblock1,648.1000000238419,img/planet8_right.png,8,Community 2,NA,TRUE,j,j,NA,NA,NA,3,6,"3,12,7,6,2,11,4,10,8,5,9,13,15,1,14"
14245,commdev-image-keyboard-response,408,1230892,learnblock1,626.7000000476837,img/planet11_left.png,11,Community 2,NA,TRUE,f,f,NA,NA,NA,3,6,"3,12,7,6,2,11,4,10,8,5,9,13,15,1,14"
14245,commdev-image-keyboard-response,409,1232145,learnblock1,618.1000000238419,img/planet5_right.png,5,Community 2,NA,TRUE,j,j,NA,NA,NA,3,6,"3,12,7,6,2,11,4,10,8,5,9,13,15,1,14"
14245,commdev-image-keyboard-response,410,1233396,learnblock1,523.6000000238419,img/planet8_right.png,8,Community 2,NA,TRUE,j,j,NA,NA,NA,3,6,"3,12,7,6,2,11,4,10,8,5,9,13,15,1,14"
14245,commdev-image-keyboard-response,411,1234650,learnblock1,453.60000002384186,img/planet10_left.png,10,Community 2,NA,TRUE,f,f,NA,NA,NA,3,6,"3,12,7,6,2,11,4,10,8,5,9,13,15,1,14"
14245,commdev-image-keyboard-response,412,1235903,learnblock1,647.6999999284744,img/planet5_left.png,5,Community 2,NA,TRUE,f,f,NA,NA,NA,3,6,"3,12,7,6,2,11,4,10,8,5,9,13,15,1,14"
14245,commdev-image-keyboard-response,413,1237155,learnblock1,683,img/planet4_left.png,4,Community 2,NA,TRUE,f,f,NA,NA,NA,3,6,"3,12,7,6,2,11,4,10,8,5,9,13,15,1,14"
14245,commdev-image-keyboard-response,414,1238409,learnblock1,481.8000000715256,img/planet11_right.png,11,Community 2,NA,TRUE,j,j,NA,NA,NA,3,6,"3,12,7,6,2,11,4,10,8,5,9,13,15,1,14"
14245,commdev-image-keyboard-response,415,1239662,learnblock1,624.5,img/planet6_right.png,6,Community 1,NA,TRUE,j,j,NA,NA,NA,3,6,"3,12,7,6,2,11,4,10,8,5,9,13,15,1,14"
14245,commdev-image-keyboard-response,419,1304282,learnblock2,908,img/planet9_left.png,9,Community 3,NA,TRUE,f,f,NA,NA,NA,3,6,"3,12,7,6,2,11,4,10,8,5,9,13,15,1,14"
14245,commdev-image-keyboard-response,420,1305533,learnblock2,991.8000000715256,img/planet15_right.png,15,Community 3,NA,TRUE,j,j,NA,NA,NA,3,6,"3,12,7,6,2,11,4,10,8,5,9,13,15,1,14"
14245,commdev-image-keyboard-response,421,1306785,learnblock2,660.8999999761581,img/planet9_left.png,9,Community 3,NA,TRUE,f,f,NA,NA,NA,3,6,"3,12,7,6,2,11,4,10,8,5,9,13,15,1,14"
14245,commdev-image-keyboard-response,422,1308037,learnblock2,572.7000000476837,img/planet15_right.png,15,Community 3,NA,TRUE,j,j,NA,NA,NA,3,6,"3,12,7,6,2,11,4,10,8,5,9,13,15,1,14"
14245,commdev-image-keyboard-response,423,1309289,learnblock2,582.8000000715256,img/planet9_right.png,9,Community 3,NA,TRUE,j,j,NA,NA,NA,3,6,"3,12,7,6,2,11,4,10,8,5,9,13,15,1,14"
14245,commdev-image-keyboard-response,424,1310543,learnblock2,587.2000000476837,img/planet1_right.png,1,Community 3,NA,TRUE,j,j,NA,NA,NA,3,6,"3,12,7,6,2,11,4,10,8,5,9,13,15,1,14"
14245,commdev-image-keyboard-response,425,1311795,learnblock2,558.7999999523163,img/planet15_right.png,15,Community 3,NA,TRUE,j,j,NA,NA,NA,3,6,"3,12,7,6,2,11,4,10,8,5,9,13,15,1,14"
14245,commdev-image-keyboard-response,426,1313048,learnblock2,517.1000000238419,img/planet13_right.png,13,Community 3,NA,TRUE,j,j,NA,NA,NA,3,6,"3,12,7,6,2,11,4,10,8,5,9,13,15,1,14"
14245,commdev-image-keyboard-response,427,1314300,learnblock2,612.8000000715256,img/planet10_left.png,10,Community 2,NA,TRUE,f,f,NA,NA,NA,3,6,"3,12,7,6,2,11,4,10,8,5,9,13,15,1,14"
14245,commdev-image-keyboard-response,428,1315552,learnblock2,604.1000000238419,img/planet5_left.png,5,Community 2,NA,TRUE,f,f,NA,NA,NA,3,6,"3,12,7,6,2,11,4,10,8,5,9,13,15,1,14"
14245,commdev-image-keyboard-response,429,1316804,learnblock2,594.3000000715256,img/planet11_left.png,11,Community 2,NA,TRUE,f,f,NA,NA,NA,3,6,"3,12,7,6,2,11,4,10,8,5,9,13,15,1,14"
14245,commdev-image-keyboard-response,430,1318066,learnblock2,614.3999999761581,img/planet8_left.png,8,Community 2,NA,TRUE,f,f,NA,NA,NA,3,6,"3,12,7,6,2,11,4,10,8,5,9,13,15,1,14"
14245,commdev-image-keyboard-response,431,1319317,learnblock2,535.0999999046326,img/planet10_right.png,10,Community 2,NA,TRUE,j,j,NA,NA,NA,3,6,"3,12,7,6,2,11,4,10,8,5,9,13,15,1,14"
14245,commdev-image-keyboard-response,432,1320569,learnblock2,674.4000000953674,img/planet4_left.png,4,Community 2,NA,TRUE,f,f,NA,NA,NA,3,6,"3,12,7,6,2,11,4,10,8,5,9,13,15,1,14"
14245,commdev-image-keyboard-response,433,1321822,learnblock2,601.4000000953674,img/planet10_left.png,10,Community 2,NA,TRUE,f,f,NA,NA,NA,3,6,"3,12,7,6,2,11,4,10,8,5,9,13,15,1,14"
14245,commdev-image-keyboard-response,434,1323075,learnblock2,572.2999999523163,img/planet13_right.png,13,Community 3,NA,TRUE,j,j,NA,NA,NA,3,6,"3,12,7,6,2,11,4,10,8,5,9,13,15,1,14"
14245,commdev-image-keyboard-response,435,1324327,learnblock2,578,img/planet1_right.png,1,Community 3,NA,TRUE,j,j,NA,NA,NA,3,6,"3,12,7,6,2,11,4,10,8,5,9,13,15,1,14"
14245,commdev-image-keyboard-response,436,1325580,learnblock2,605,img/planet13_right.png,13,Community 3,NA,TRUE,j,j,NA,NA,NA,3,6,"3,12,7,6,2,11,4,10,8,5,9,13,15,1,14"
14245,commdev-image-keyboard-response,437,1326832,learnblock2,578.3999999761581,img/planet14_left.png,14,Community 3,NA,TRUE,f,f,NA,NA,NA,3,6,"3,12,7,6,2,11,4,10,8,5,9,13,15,1,14"
14245,commdev-image-keyboard-response,438,1328084,learnblock2,590.6999999284744,img/planet13_right.png,13,Community 3,NA,TRUE,j,j,NA,NA,NA,3,6,"3,12,7,6,2,11,4,10,8,5,9,13,15,1,14"
14245,commdev-image-keyboard-response,439,1329336,learnblock2,620.1999999284744,img/planet1_left.png,1,Community 3,NA,TRUE,f,f,NA,NA,NA,3,6,"3,12,7,6,2,11,4,10,8,5,9,13,15,1,14"
14245,commdev-image-keyboard-response,440,1330593,learnblock2,689.9000000953674,img/planet13_left.png,13,Community 3,NA,TRUE,f,f,NA,NA,NA,3,6,"3,12,7,6,2,11,4,10,8,5,9,13,15,1,14"
14245,commdev-image-keyboard-response,441,1331847,learnblock2,685.7000000476837,img/planet1_left.png,1,Community 3,NA,TRUE,f,f,NA,NA,NA,3,6,"3,12,7,6,2,11,4,10,8,5,9,13,15,1,14"
14245,commdev-image-keyboard-response,442,1333100,learnblock2,657.5999999046326,img/planet13_right.png,13,Community 3,NA,TRUE,j,j,NA,NA,NA,3,6,"3,12,7,6,2,11,4,10,8,5,9,13,15,1,14"
14245,commdev-image-keyboard-response,443,1334352,learnblock2,670.1999999284744,img/planet15_right.png,15,Community 3,NA,TRUE,j,j,NA,NA,NA,3,6,"3,12,7,6,2,11,4,10,8,5,9,13,15,1,14"
14245,commdev-image-keyboard-response,444,1335605,learnblock2,677.1000000238419,img/planet14_left.png,14,Community 3,NA,TRUE,f,f,NA,NA,NA,3,6,"3,12,7,6,2,11,4,10,8,5,9,13,15,1,14"
14245,commdev-image-keyboard-response,445,1336857,learnblock2,710.2000000476837,img/planet15_right.png,15,Community 3,NA,TRUE,j,j,NA,NA,NA,3,6,"3,12,7,6,2,11,4,10,8,5,9,13,15,1,14"
14245,commdev-image-keyboard-response,446,1338110,learnblock2,666.7000000476837,img/planet13_right.png,13,Community 3,NA,TRUE,j,j,NA,NA,NA,3,6,"3,12,7,6,2,11,4,10,8,5,9,13,15,1,14"
14245,commdev-image-keyboard-response,447,1339363,learnblock2,575.4000000953674,img/planet15_left.png,15,Community 3,NA,TRUE,f,f,NA,NA,NA,3,6,"3,12,7,6,2,11,4,10,8,5,9,13,15,1,14"
14245,commdev-image-keyboard-response,448,1340615,learnblock2,601,img/planet14_right.png,14,Community 3,NA,TRUE,j,j,NA,NA,NA,3,6,"3,12,7,6,2,11,4,10,8,5,9,13,15,1,14"
14245,commdev-image-keyboard-response,449,1341867,learnblock2,639.2000000476837,img/planet1_left.png,1,Community 3,NA,TRUE,f,f,NA,NA,NA,3,6,"3,12,7,6,2,11,4,10,8,5,9,13,15,1,14"
14245,commdev-image-keyboard-response,450,1343120,learnblock2,919.7000000476837,img/planet9_left.png,9,Community 3,NA,TRUE,f,f,NA,NA,NA,3,6,"3,12,7,6,2,11,4,10,8,5,9,13,15,1,14"
14245,commdev-image-keyboard-response,451,1344373,learnblock2,659,img/planet1_left.png,1,Community 3,NA,TRUE,f,f,NA,NA,NA,3,6,"3,12,7,6,2,11,4,10,8,5,9,13,15,1,14"
14245,commdev-image-keyboard-response,452,1345626,learnblock2,560.5,img/planet13_right.png,13,Community 3,NA,TRUE,j,j,NA,NA,NA,3,6,"3,12,7,6,2,11,4,10,8,5,9,13,15,1,14"
14245,commdev-image-keyboard-response,453,1346878,learnblock2,539.5,img/planet1_left.png,1,Community 3,NA,TRUE,f,f,NA,NA,NA,3,6,"3,12,7,6,2,11,4,10,8,5,9,13,15,1,14"
14245,commdev-image-keyboard-response,454,1348130,learnblock2,498.39999997615814,img/planet15_right.png,15,Community 3,NA,TRUE,j,j,NA,NA,NA,3,6,"3,12,7,6,2,11,4,10,8,5,9,13,15,1,14"
14245,commdev-image-keyboard-response,455,1349382,learnblock2,638.1000000238419,img/planet1_right.png,1,Community 3,NA,TRUE,j,j,NA,NA,NA,3,6,"3,12,7,6,2,11,4,10,8,5,9,13,15,1,14"
14245,commdev-image-keyboard-response,456,1350635,learnblock2,653.5,img/planet14_left.png,14,Community 3,NA,TRUE,f,f,NA,NA,NA,3,6,"3,12,7,6,2,11,4,10,8,5,9,13,15,1,14"
14245,commdev-image-keyboard-response,457,1351887,learnblock2,695.3999999761581,img/planet9_left.png,9,Community 3,NA,TRUE,f,f,NA,NA,NA,3,6,"3,12,7,6,2,11,4,10,8,5,9,13,15,1,14"
14245,commdev-image-keyboard-response,458,1353140,learnblock2,667.5999999046326,img/planet15_left.png,15,Community 3,NA,TRUE,f,f,NA,NA,NA,3,6,"3,12,7,6,2,11,4,10,8,5,9,13,15,1,14"
14245,commdev-image-keyboard-response,459,1354392,learnblock2,572.7999999523163,img/planet13_right.png,13,Community 3,NA,TRUE,j,j,NA,NA,NA,3,6,"3,12,7,6,2,11,4,10,8,5,9,13,15,1,14"
14245,commdev-image-keyboard-response,460,1355645,learnblock2,495,img/planet10_left.png,10,Community 2,NA,TRUE,f,f,NA,NA,NA,3,6,"3,12,7,6,2,11,4,10,8,5,9,13,15,1,14"
14245,commdev-image-keyboard-response,461,1356898,learnblock2,644.6999999284744,img/planet5_right.png,5,Community 2,NA,TRUE,j,j,NA,NA,NA,3,6,"3,12,7,6,2,11,4,10,8,5,9,13,15,1,14"
14245,commdev-image-keyboard-response,462,1358150,learnblock2,531.7000000476837,img/planet10_left.png,10,Community 2,NA,TRUE,f,f,NA,NA,NA,3,6,"3,12,7,6,2,11,4,10,8,5,9,13,15,1,14"
14245,commdev-image-keyboard-response,463,1359402,learnblock2,542.6999999284744,img/planet13_right.png,13,Community 3,NA,TRUE,j,j,NA,NA,NA,3,6,"3,12,7,6,2,11,4,10,8,5,9,13,15,1,14"
14245,commdev-image-keyboard-response,464,1360655,learnblock2,492.5,img/planet1_left.png,1,Community 3,NA,TRUE,f,f,NA,NA,NA,3,6,"3,12,7,6,2,11,4,10,8,5,9,13,15,1,14"
14245,commdev-image-keyboard-response,465,1361921,learnblock2,583,img/planet15_left.png,15,Community 3,NA,TRUE,f,f,NA,NA,NA,3,6,"3,12,7,6,2,11,4,10,8,5,9,13,15,1,14"
14245,commdev-image-keyboard-response,466,1363174,learnblock2,564.1000000238419,img/planet13_right.png,13,Community 3,NA,TRUE,j,j,NA,NA,NA,3,6,"3,12,7,6,2,11,4,10,8,5,9,13,15,1,14"
14245,commdev-image-keyboard-response,467,1364427,learnblock2,625.2000000476837,img/planet1_right.png,1,Community 3,NA,TRUE,j,j,NA,NA,NA,3,6,"3,12,7,6,2,11,4,10,8,5,9,13,15,1,14"
14245,commdev-image-keyboard-response,468,1365679,learnblock2,671.1000000238419,img/planet14_left.png,14,Community 3,NA,TRUE,f,f,NA,NA,NA,3,6,"3,12,7,6,2,11,4,10,8,5,9,13,15,1,14"
14245,commdev-image-keyboard-response,469,1366931,learnblock2,580.1000000238419,img/planet9_left.png,9,Community 3,NA,TRUE,f,f,NA,NA,NA,3,6,"3,12,7,6,2,11,4,10,8,5,9,13,15,1,14"
14245,commdev-image-keyboard-response,470,1368183,learnblock2,577.8999999761581,img/planet2_right.png,2,Community 1,NA,TRUE,j,j,NA,NA,NA,3,6,"3,12,7,6,2,11,4,10,8,5,9,13,15,1,14"
14245,commdev-image-keyboard-response,471,1369436,learnblock2,581,img/planet9_left.png,9,Community 3,NA,TRUE,f,f,NA,NA,NA,3,6,"3,12,7,6,2,11,4,10,8,5,9,13,15,1,14"
14245,commdev-image-keyboard-response,472,1370689,learnblock2,613.4000000953674,img/planet15_left.png,15,Community 3,NA,TRUE,f,f,NA,NA,NA,3,6,"3,12,7,6,2,11,4,10,8,5,9,13,15,1,14"
14245,commdev-image-keyboard-response,473,1371942,learnblock2,572.0999999046326,img/planet9_left.png,9,Community 3,NA,TRUE,f,f,NA,NA,NA,3,6,"3,12,7,6,2,11,4,10,8,5,9,13,15,1,14"
14245,commdev-image-keyboard-response,474,1373194,learnblock2,567.7000000476837,img/planet14_right.png,14,Community 3,NA,TRUE,j,j,NA,NA,NA,3,6,"3,12,7,6,2,11,4,10,8,5,9,13,15,1,14"
14245,commdev-image-keyboard-response,475,1374446,learnblock2,617.1000000238419,img/planet1_right.png,1,Community 3,NA,TRUE,j,j,NA,NA,NA,3,6,"3,12,7,6,2,11,4,10,8,5,9,13,15,1,14"
14245,commdev-image-keyboard-response,476,1375699,learnblock2,681.3999999761581,img/planet13_left.png,13,Community 3,NA,TRUE,f,f,NA,NA,NA,3,6,"3,12,7,6,2,11,4,10,8,5,9,13,15,1,14"
14245,commdev-image-keyboard-response,477,1376963,learnblock2,600.6000000238419,img/planet15_right.png,15,Community 3,NA,TRUE,j,j,NA,NA,NA,3,6,"3,12,7,6,2,11,4,10,8,5,9,13,15,1,14"
14245,commdev-image-keyboard-response,478,1378215,learnblock2,685,img/planet14_right.png,14,Community 3,NA,TRUE,j,j,NA,NA,NA,3,6,"3,12,7,6,2,11,4,10,8,5,9,13,15,1,14"
14245,commdev-image-keyboard-response,479,1379468,learnblock2,464.7000000476837,img/planet9_left.png,9,Community 3,NA,TRUE,f,f,NA,NA,NA,3,6,"3,12,7,6,2,11,4,10,8,5,9,13,15,1,14"
14245,commdev-image-keyboard-response,480,1380720,learnblock2,568.8000000715256,img/planet1_right.png,1,Community 3,NA,TRUE,j,j,NA,NA,NA,3,6,"3,12,7,6,2,11,4,10,8,5,9,13,15,1,14"
14245,commdev-image-keyboard-response,481,1381977,learnblock2,486,img/planet15_left.png,15,Community 3,NA,TRUE,f,f,NA,NA,NA,3,6,"3,12,7,6,2,11,4,10,8,5,9,13,15,1,14"
14245,commdev-image-keyboard-response,482,1383230,learnblock2,513.1000000238419,img/planet13_right.png,13,Community 3,NA,TRUE,j,j,NA,NA,NA,3,6,"3,12,7,6,2,11,4,10,8,5,9,13,15,1,14"
14245,commdev-image-keyboard-response,483,1384482,learnblock2,448.5,img/planet15_left.png,15,Community 3,NA,TRUE,f,f,NA,NA,NA,3,6,"3,12,7,6,2,11,4,10,8,5,9,13,15,1,14"
14245,commdev-image-keyboard-response,484,1385735,learnblock2,643.1000000238419,img/planet1_left.png,1,Community 3,NA,TRUE,f,f,NA,NA,NA,3,6,"3,12,7,6,2,11,4,10,8,5,9,13,15,1,14"
14245,commdev-image-keyboard-response,485,1386987,learnblock2,725.8000000715256,img/planet9_right.png,9,Community 3,NA,TRUE,j,j,NA,NA,NA,3,6,"3,12,7,6,2,11,4,10,8,5,9,13,15,1,14"
14245,commdev-image-keyboard-response,486,1388240,learnblock2,674.6999999284744,img/planet15_right.png,15,Community 3,NA,TRUE,j,j,NA,NA,NA,3,6,"3,12,7,6,2,11,4,10,8,5,9,13,15,1,14"
14245,commdev-image-keyboard-response,487,1389493,learnblock2,794.6999999284744,img/planet14_right.png,14,Community 3,NA,TRUE,j,j,NA,NA,NA,3,6,"3,12,7,6,2,11,4,10,8,5,9,13,15,1,14"
14245,commdev-image-keyboard-response,488,1390745,learnblock2,497.39999997615814,img/planet1_left.png,1,Community 3,NA,FALSE,j,f,NA,NA,NA,3,6,"3,12,7,6,2,11,4,10,8,5,9,13,15,1,14"
14245,commdev-image-keyboard-response,489,1391997,learnblock2,400,img/planet14_right.png,14,Community 3,NA,TRUE,j,j,NA,NA,NA,3,6,"3,12,7,6,2,11,4,10,8,5,9,13,15,1,14"
14245,commdev-image-keyboard-response,490,1393252,learnblock2,686.8999999761581,img/planet9_left.png,9,Community 3,NA,TRUE,f,f,NA,NA,NA,3,6,"3,12,7,6,2,11,4,10,8,5,9,13,15,1,14"
14245,commdev-image-keyboard-response,491,1394505,learnblock2,463.2999999523163,img/planet2_right.png,2,Community 1,NA,TRUE,j,j,NA,NA,NA,3,6,"3,12,7,6,2,11,4,10,8,5,9,13,15,1,14"
14245,commdev-image-keyboard-response,492,1395760,learnblock2,642,img/planet12_left.png,12,Community 1,NA,TRUE,f,f,NA,NA,NA,3,6,"3,12,7,6,2,11,4,10,8,5,9,13,15,1,14"
14245,commdev-image-keyboard-response,493,1397012,learnblock2,477.39999997615814,img/planet2_right.png,2,Community 1,NA,TRUE,j,j,NA,NA,NA,3,6,"3,12,7,6,2,11,4,10,8,5,9,13,15,1,14"
14245,commdev-image-keyboard-response,494,1398264,learnblock2,606.7999999523163,img/planet9_right.png,9,Community 3,NA,TRUE,j,j,NA,NA,NA,3,6,"3,12,7,6,2,11,4,10,8,5,9,13,15,1,14"
14245,commdev-image-keyboard-response,495,1399517,learnblock2,418.7000000476837,img/planet2_right.png,2,Community 1,NA,TRUE,j,j,NA,NA,NA,3,6,"3,12,7,6,2,11,4,10,8,5,9,13,15,1,14"
14245,commdev-image-keyboard-response,496,1400769,learnblock2,573.1000000238419,img/planet7_right.png,7,Community 1,NA,TRUE,j,j,NA,NA,NA,3,6,"3,12,7,6,2,11,4,10,8,5,9,13,15,1,14"
14245,commdev-image-keyboard-response,497,1402022,learnblock2,661.2000000476837,img/planet6_left.png,6,Community 1,NA,TRUE,f,f,NA,NA,NA,3,6,"3,12,7,6,2,11,4,10,8,5,9,13,15,1,14"
14245,commdev-image-keyboard-response,498,1403274,learnblock2,547.2999999523163,img/planet3_right.png,3,Community 1,NA,TRUE,j,j,NA,NA,NA,3,6,"3,12,7,6,2,11,4,10,8,5,9,13,15,1,14"
14245,commdev-image-keyboard-response,499,1404527,learnblock2,617,img/planet2_left.png,2,Community 1,NA,TRUE,f,f,NA,NA,NA,3,6,"3,12,7,6,2,11,4,10,8,5,9,13,15,1,14"
14245,commdev-image-keyboard-response,500,1405780,learnblock2,572.6000000238419,img/planet7_right.png,7,Community 1,NA,TRUE,j,j,NA,NA,NA,3,6,"3,12,7,6,2,11,4,10,8,5,9,13,15,1,14"
14245,commdev-image-keyboard-response,501,1407033,learnblock2,623.6000000238419,img/planet2_left.png,2,Community 1,NA,TRUE,f,f,NA,NA,NA,3,6,"3,12,7,6,2,11,4,10,8,5,9,13,15,1,14"
14245,commdev-image-keyboard-response,502,1408284,learnblock2,707.2000000476837,img/planet7_left.png,7,Community 1,NA,FALSE,j,f,NA,NA,NA,3,6,"3,12,7,6,2,11,4,10,8,5,9,13,15,1,14"
14245,commdev-image-keyboard-response,503,1409537,learnblock2,855.4000000953674,img/planet3_left.png,3,Community 1,NA,TRUE,f,f,NA,NA,NA,3,6,"3,12,7,6,2,11,4,10,8,5,9,13,15,1,14"
14245,commdev-image-keyboard-response,504,1410790,learnblock2,582.5,img/planet7_left.png,7,Community 1,NA,TRUE,f,f,NA,NA,NA,3,6,"3,12,7,6,2,11,4,10,8,5,9,13,15,1,14"
14245,commdev-image-keyboard-response,505,1412042,learnblock2,557.1999999284744,img/planet6_right.png,6,Community 1,NA,TRUE,j,j,NA,NA,NA,3,6,"3,12,7,6,2,11,4,10,8,5,9,13,15,1,14"
14245,commdev-image-keyboard-response,506,1413303,learnblock2,768.6000000238419,img/planet11_right.png,11,Community 2,NA,TRUE,j,j,NA,NA,NA,3,6,"3,12,7,6,2,11,4,10,8,5,9,13,15,1,14"
14245,commdev-image-keyboard-response,507,1414556,learnblock2,546.2999999523163,img/planet8_left.png,8,Community 2,NA,TRUE,f,f,NA,NA,NA,3,6,"3,12,7,6,2,11,4,10,8,5,9,13,15,1,14"
14245,commdev-image-keyboard-response,508,1415816,learnblock2,423,img/planet10_right.png,10,Community 2,NA,TRUE,j,j,NA,NA,NA,3,6,"3,12,7,6,2,11,4,10,8,5,9,13,15,1,14"
14245,commdev-image-keyboard-response,509,1417070,learnblock2,570.6999999284744,img/planet4_right.png,4,Community 2,NA,TRUE,j,j,NA,NA,NA,3,6,"3,12,7,6,2,11,4,10,8,5,9,13,15,1,14"
14245,commdev-image-keyboard-response,510,1418322,learnblock2,616.5999999046326,img/planet5_left.png,5,Community 2,NA,TRUE,f,f,NA,NA,NA,3,6,"3,12,7,6,2,11,4,10,8,5,9,13,15,1,14"
14245,commdev-image-keyboard-response,511,1419575,learnblock2,759.8999999761581,img/planet8_left.png,8,Community 2,NA,TRUE,f,f,NA,NA,NA,3,6,"3,12,7,6,2,11,4,10,8,5,9,13,15,1,14"
14245,commdev-image-keyboard-response,512,1420827,learnblock2,502.2000000476837,img/planet10_right.png,10,Community 2,NA,TRUE,j,j,NA,NA,NA,3,6,"3,12,7,6,2,11,4,10,8,5,9,13,15,1,14"
14245,commdev-image-keyboard-response,513,1422083,learnblock2,787.7999999523163,img/planet5_left.png,5,Community 2,NA,TRUE,f,f,NA,NA,NA,3,6,"3,12,7,6,2,11,4,10,8,5,9,13,15,1,14"
14245,commdev-image-keyboard-response,514,1423336,learnblock2,611.6000000238419,img/planet11_left.png,11,Community 2,NA,TRUE,f,f,NA,NA,NA,3,6,"3,12,7,6,2,11,4,10,8,5,9,13,15,1,14"
14245,commdev-image-keyboard-response,515,1424589,learnblock2,557.5,img/planet6_right.png,6,Community 1,NA,TRUE,j,j,NA,NA,NA,3,6,"3,12,7,6,2,11,4,10,8,5,9,13,15,1,14"
14245,commdev-image-keyboard-response,516,1425842,learnblock2,692.6000000238419,img/planet12_right.png,12,Community 1,NA,TRUE,j,j,NA,NA,NA,3,6,"3,12,7,6,2,11,4,10,8,5,9,13,15,1,14"
14245,commdev-image-keyboard-response,517,1427097,learnblock2,739.2999999523163,img/planet3_left.png,3,Community 1,NA,TRUE,f,f,NA,NA,NA,3,6,"3,12,7,6,2,11,4,10,8,5,9,13,15,1,14"
14245,commdev-image-keyboard-response,518,1428349,learnblock2,749.6999999284744,img/planet12_right.png,12,Community 1,NA,TRUE,j,j,NA,NA,NA,3,6,"3,12,7,6,2,11,4,10,8,5,9,13,15,1,14"
14245,commdev-image-keyboard-response,519,1429601,learnblock2,649.7999999523163,img/planet6_left.png,6,Community 1,NA,TRUE,f,f,NA,NA,NA,3,6,"3,12,7,6,2,11,4,10,8,5,9,13,15,1,14"
14245,commdev-image-keyboard-response,520,1430852,learnblock2,16.5,img/planet11_right.png,11,Community 2,NA,TRUE,j,j,NA,NA,NA,3,6,"3,12,7,6,2,11,4,10,8,5,9,13,15,1,14"
14245,commdev-image-keyboard-response,521,1432105,learnblock2,652.5,img/planet4_right.png,4,Community 2,NA,TRUE,j,j,NA,NA,NA,3,6,"3,12,7,6,2,11,4,10,8,5,9,13,15,1,14"
14245,commdev-image-keyboard-response,522,1433357,learnblock2,600.5,img/planet10_left.png,10,Community 2,NA,TRUE,f,f,NA,NA,NA,3,6,"3,12,7,6,2,11,4,10,8,5,9,13,15,1,14"
14245,commdev-image-keyboard-response,523,1434609,learnblock2,643.9000000953674,img/planet8_left.png,8,Community 2,NA,TRUE,f,f,NA,NA,NA,3,6,"3,12,7,6,2,11,4,10,8,5,9,13,15,1,14"
14245,commdev-image-keyboard-response,524,1435862,learnblock2,605.1000000238419,img/planet4_right.png,4,Community 2,NA,TRUE,j,j,NA,NA,NA,3,6,"3,12,7,6,2,11,4,10,8,5,9,13,15,1,14"
14245,commdev-image-keyboard-response,525,1437114,learnblock2,601.3999999761581,img/planet10_left.png,10,Community 2,NA,TRUE,f,f,NA,NA,NA,3,6,"3,12,7,6,2,11,4,10,8,5,9,13,15,1,14"
14245,commdev-image-keyboard-response,526,1438367,learnblock2,579.4000000953674,img/planet5_right.png,5,Community 2,NA,TRUE,j,j,NA,NA,NA,3,6,"3,12,7,6,2,11,4,10,8,5,9,13,15,1,14"
14245,commdev-image-keyboard-response,527,1439620,learnblock2,611.5,img/planet11_left.png,11,Community 2,NA,TRUE,f,f,NA,NA,NA,3,6,"3,12,7,6,2,11,4,10,8,5,9,13,15,1,14"
14245,commdev-image-keyboard-response,528,1440873,learnblock2,585.1000000238419,img/planet6_right.png,6,Community 1,NA,TRUE,j,j,NA,NA,NA,3,6,"3,12,7,6,2,11,4,10,8,5,9,13,15,1,14"
14245,commdev-image-keyboard-response,529,1442124,learnblock2,671.3999999761581,img/planet11_left.png,11,Community 2,NA,TRUE,f,f,NA,NA,NA,3,6,"3,12,7,6,2,11,4,10,8,5,9,13,15,1,14"
14245,commdev-image-keyboard-response,530,1443377,learnblock2,620,img/planet6_right.png,6,Community 1,NA,TRUE,j,j,NA,NA,NA,3,6,"3,12,7,6,2,11,4,10,8,5,9,13,15,1,14"
14245,commdev-image-keyboard-response,531,1444630,learnblock2,675.8000000715256,img/planet12_right.png,12,Community 1,NA,TRUE,j,j,NA,NA,NA,3,6,"3,12,7,6,2,11,4,10,8,5,9,13,15,1,14"
14245,commdev-image-keyboard-response,532,1445882,learnblock2,665.3000000715256,img/planet6_left.png,6,Community 1,NA,TRUE,f,f,NA,NA,NA,3,6,"3,12,7,6,2,11,4,10,8,5,9,13,15,1,14"
14245,commdev-image-keyboard-response,533,1447135,learnblock2,695.3999999761581,img/planet12_right.png,12,Community 1,NA,FALSE,f,j,NA,NA,NA,3,6,"3,12,7,6,2,11,4,10,8,5,9,13,15,1,14"
14245,commdev-image-keyboard-response,534,1448388,learnblock2,549.5,img/planet6_right.png,6,Community 1,NA,TRUE,j,j,NA,NA,NA,3,6,"3,12,7,6,2,11,4,10,8,5,9,13,15,1,14"
14245,commdev-image-keyboard-response,535,1449643,learnblock2,624.2000000476837,img/planet3_left.png,3,Community 1,NA,TRUE,f,f,NA,NA,NA,3,6,"3,12,7,6,2,11,4,10,8,5,9,13,15,1,14"
14245,commdev-image-keyboard-response,536,1450896,learnblock2,652.3999999761581,img/planet12_left.png,12,Community 1,NA,TRUE,f,f,NA,NA,NA,3,6,"3,12,7,6,2,11,4,10,8,5,9,13,15,1,14"
14245,commdev-image-keyboard-response,537,1452148,learnblock2,747.2999999523163,img/planet7_right.png,7,Community 1,NA,TRUE,j,j,NA,NA,NA,3,6,"3,12,7,6,2,11,4,10,8,5,9,13,15,1,14"
14245,commdev-image-keyboard-response,538,1453400,learnblock2,830.7999999523163,img/planet2_right.png,2,Community 1,NA,TRUE,j,j,NA,NA,NA,3,6,"3,12,7,6,2,11,4,10,8,5,9,13,15,1,14"
14245,commdev-image-keyboard-response,539,1454652,learnblock2,589.4000000953674,img/planet9_left.png,9,Community 3,NA,TRUE,f,f,NA,NA,NA,3,6,"3,12,7,6,2,11,4,10,8,5,9,13,15,1,14"
14245,commdev-image-keyboard-response,540,1455906,learnblock2,699.7000000476837,img/planet14_left.png,14,Community 3,NA,TRUE,f,f,NA,NA,NA,3,6,"3,12,7,6,2,11,4,10,8,5,9,13,15,1,14"
14245,commdev-image-keyboard-response,541,1457159,learnblock2,672,img/planet15_left.png,15,Community 3,NA,TRUE,f,f,NA,NA,NA,3,6,"3,12,7,6,2,11,4,10,8,5,9,13,15,1,14"
14245,commdev-image-keyboard-response,542,1458421,learnblock2,655.2999999523163,img/planet1_right.png,1,Community 3,NA,TRUE,j,j,NA,NA,NA,3,6,"3,12,7,6,2,11,4,10,8,5,9,13,15,1,14"
14245,commdev-image-keyboard-response,543,1459673,learnblock2,1030.6000000238419,img/planet13_right.png,13,Community 3,NA,FALSE,f,j,NA,NA,NA,3,6,"3,12,7,6,2,11,4,10,8,5,9,13,15,1,14"
14245,commdev-image-keyboard-response,544,1460925,learnblock2,704.3999999761581,img/planet1_left.png,1,Community 3,NA,TRUE,f,f,NA,NA,NA,3,6,"3,12,7,6,2,11,4,10,8,5,9,13,15,1,14"
14245,commdev-image-keyboard-response,545,1462177,learnblock2,693.3999999761581,img/planet13_left.png,13,Community 3,NA,TRUE,f,f,NA,NA,NA,3,6,"3,12,7,6,2,11,4,10,8,5,9,13,15,1,14"
14245,commdev-image-keyboard-response,546,1463430,learnblock2,697.9000000953674,img/planet1_left.png,1,Community 3,NA,TRUE,f,f,NA,NA,NA,3,6,"3,12,7,6,2,11,4,10,8,5,9,13,15,1,14"
14245,commdev-image-keyboard-response,547,1464683,learnblock2,664.1999999284744,img/planet13_right.png,13,Community 3,NA,TRUE,j,j,NA,NA,NA,3,6,"3,12,7,6,2,11,4,10,8,5,9,13,15,1,14"
14245,commdev-image-keyboard-response,548,1465936,learnblock2,637.5,img/planet10_left.png,10,Community 2,NA,TRUE,f,f,NA,NA,NA,3,6,"3,12,7,6,2,11,4,10,8,5,9,13,15,1,14"
14245,commdev-image-keyboard-response,549,1467189,learnblock2,569.4000000953674,img/planet8_left.png,8,Community 2,NA,TRUE,f,f,NA,NA,NA,3,6,"3,12,7,6,2,11,4,10,8,5,9,13,15,1,14"
14245,commdev-image-keyboard-response,550,1468442,learnblock2,557.2999999523163,img/planet5_left.png,5,Community 2,NA,TRUE,f,f,NA,NA,NA,3,6,"3,12,7,6,2,11,4,10,8,5,9,13,15,1,14"
14245,commdev-image-keyboard-response,551,1469694,learnblock2,607.8999999761581,img/planet10_right.png,10,Community 2,NA,TRUE,j,j,NA,NA,NA,3,6,"3,12,7,6,2,11,4,10,8,5,9,13,15,1,14"
14245,commdev-image-keyboard-response,552,1470946,learnblock2,565.5,img/planet4_left.png,4,Community 2,NA,TRUE,f,f,NA,NA,NA,3,6,"3,12,7,6,2,11,4,10,8,5,9,13,15,1,14"
14245,commdev-image-keyboard-response,553,1472200,learnblock2,443.39999997615814,img/planet5_right.png,5,Community 2,NA,TRUE,j,j,NA,NA,NA,3,6,"3,12,7,6,2,11,4,10,8,5,9,13,15,1,14"
14245,commdev-image-keyboard-response,554,1473452,learnblock2,475.1999999284744,img/planet11_right.png,11,Community 2,NA,TRUE,j,j,NA,NA,NA,3,6,"3,12,7,6,2,11,4,10,8,5,9,13,15,1,14"
14245,commdev-image-keyboard-response,555,1474704,learnblock2,481.8000000715256,img/planet4_left.png,4,Community 2,NA,TRUE,f,f,NA,NA,NA,3,6,"3,12,7,6,2,11,4,10,8,5,9,13,15,1,14"
14245,commdev-image-keyboard-response,556,1475959,learnblock2,485.3000000715256,img/planet8_left.png,8,Community 2,NA,FALSE,j,f,NA,NA,NA,3,6,"3,12,7,6,2,11,4,10,8,5,9,13,15,1,14"
14245,commdev-image-keyboard-response,557,1477211,learnblock2,540.6999999284744,img/planet5_right.png,5,Community 2,NA,TRUE,j,j,NA,NA,NA,3,6,"3,12,7,6,2,11,4,10,8,5,9,13,15,1,14"
14245,commdev-image-keyboard-response,558,1478463,learnblock2,568,img/planet11_right.png,11,Community 2,NA,TRUE,j,j,NA,NA,NA,3,6,"3,12,7,6,2,11,4,10,8,5,9,13,15,1,14"
14245,commdev-image-keyboard-response,559,1479716,learnblock2,538,img/planet5_left.png,5,Community 2,NA,TRUE,f,f,NA,NA,NA,3,6,"3,12,7,6,2,11,4,10,8,5,9,13,15,1,14"
14245,commdev-image-keyboard-response,560,1480969,learnblock2,613.1000000238419,img/planet11_left.png,11,Community 2,NA,TRUE,f,f,NA,NA,NA,3,6,"3,12,7,6,2,11,4,10,8,5,9,13,15,1,14"
14245,commdev-image-keyboard-response,561,1482221,learnblock2,629.2000000476837,img/planet6_left.png,6,Community 1,NA,TRUE,f,f,NA,NA,NA,3,6,"3,12,7,6,2,11,4,10,8,5,9,13,15,1,14"
14245,commdev-image-keyboard-response,562,1483473,learnblock2,673.1000000238419,img/planet3_left.png,3,Community 1,NA,TRUE,f,f,NA,NA,NA,3,6,"3,12,7,6,2,11,4,10,8,5,9,13,15,1,14"
14245,commdev-image-keyboard-response,563,1484724,learnblock2,654.5,img/planet7_left.png,7,Community 1,NA,TRUE,f,f,NA,NA,NA,3,6,"3,12,7,6,2,11,4,10,8,5,9,13,15,1,14"
14245,commdev-image-keyboard-response,564,1485977,learnblock2,554.4000000953674,img/planet2_right.png,2,Community 1,NA,TRUE,j,j,NA,NA,NA,3,6,"3,12,7,6,2,11,4,10,8,5,9,13,15,1,14"
14245,commdev-image-keyboard-response,565,1487230,learnblock2,677.3999999761581,img/planet7_right.png,7,Community 1,NA,TRUE,j,j,NA,NA,NA,3,6,"3,12,7,6,2,11,4,10,8,5,9,13,15,1,14"
14245,commdev-image-keyboard-response,566,1488482,learnblock2,548,img/planet2_right.png,2,Community 1,NA,FALSE,f,j,NA,NA,NA,3,6,"3,12,7,6,2,11,4,10,8,5,9,13,15,1,14"
14245,commdev-image-keyboard-response,567,1489748,learnblock2,902.1000000238419,img/planet3_left.png,3,Community 1,NA,TRUE,f,f,NA,NA,NA,3,6,"3,12,7,6,2,11,4,10,8,5,9,13,15,1,14"
14245,commdev-image-keyboard-response,568,1491001,learnblock2,836.5,img/planet7_left.png,7,Community 1,NA,TRUE,f,f,NA,NA,NA,3,6,"3,12,7,6,2,11,4,10,8,5,9,13,15,1,14"
14245,commdev-image-keyboard-response,569,1492254,learnblock2,552.9000000953674,img/planet2_right.png,2,Community 1,NA,TRUE,j,j,NA,NA,NA,3,6,"3,12,7,6,2,11,4,10,8,5,9,13,15,1,14"
14245,commdev-image-keyboard-response,570,1493506,learnblock2,628.2000000476837,img/planet3_left.png,3,Community 1,NA,TRUE,f,f,NA,NA,NA,3,6,"3,12,7,6,2,11,4,10,8,5,9,13,15,1,14"
14245,commdev-image-keyboard-response,571,1494758,learnblock2,529.8999999761581,img/planet6_right.png,6,Community 1,NA,TRUE,j,j,NA,NA,NA,3,6,"3,12,7,6,2,11,4,10,8,5,9,13,15,1,14"
14245,commdev-image-keyboard-response,572,1496010,learnblock2,625.8999999761581,img/planet11_right.png,11,Community 2,NA,TRUE,j,j,NA,NA,NA,3,6,"3,12,7,6,2,11,4,10,8,5,9,13,15,1,14"
14245,commdev-image-keyboard-response,573,1497263,learnblock2,727.6000000238419,img/planet8_right.png,8,Community 2,NA,FALSE,f,j,NA,NA,NA,3,6,"3,12,7,6,2,11,4,10,8,5,9,13,15,1,14"
14245,commdev-image-keyboard-response,574,1498514,learnblock2,1163.9000000953674,img/planet11_right.png,11,Community 2,NA,TRUE,j,j,NA,NA,NA,3,6,"3,12,7,6,2,11,4,10,8,5,9,13,15,1,14"
14245,commdev-image-keyboard-response,575,1499767,learnblock2,776,img/planet5_right.png,5,Community 2,NA,TRUE,j,j,NA,NA,NA,3,6,"3,12,7,6,2,11,4,10,8,5,9,13,15,1,14"
14245,commdev-image-keyboard-response,576,1501020,learnblock2,653.7999999523163,img/planet8_left.png,8,Community 2,NA,TRUE,f,f,NA,NA,NA,3,6,"3,12,7,6,2,11,4,10,8,5,9,13,15,1,14"
14245,commdev-image-keyboard-response,577,1502272,learnblock2,518.2000000476837,img/planet11_right.png,11,Community 2,NA,TRUE,j,j,NA,NA,NA,3,6,"3,12,7,6,2,11,4,10,8,5,9,13,15,1,14"
14245,commdev-image-keyboard-response,578,1503524,learnblock2,629.1999999284744,img/planet4_left.png,4,Community 2,NA,TRUE,f,f,NA,NA,NA,3,6,"3,12,7,6,2,11,4,10,8,5,9,13,15,1,14"
14245,commdev-image-keyboard-response,579,1504776,learnblock2,495.60000002384186,img/planet11_right.png,11,Community 2,NA,TRUE,j,j,NA,NA,NA,3,6,"3,12,7,6,2,11,4,10,8,5,9,13,15,1,14"
14245,commdev-image-keyboard-response,580,1506036,learnblock2,706.9000000953674,img/planet5_right.png,5,Community 2,NA,TRUE,j,j,NA,NA,NA,3,6,"3,12,7,6,2,11,4,10,8,5,9,13,15,1,14"
14245,commdev-image-keyboard-response,581,1507288,learnblock2,1077.7000000476837,img/planet8_right.png,8,Community 2,NA,TRUE,j,j,NA,NA,NA,3,6,"3,12,7,6,2,11,4,10,8,5,9,13,15,1,14"
14245,commdev-image-keyboard-response,582,1508541,learnblock2,452.2000000476837,img/planet10_right.png,10,Community 2,NA,TRUE,j,j,NA,NA,NA,3,6,"3,12,7,6,2,11,4,10,8,5,9,13,15,1,14"
14245,commdev-image-keyboard-response,583,1509794,learnblock2,687.6000000238419,img/planet13_right.png,13,Community 3,NA,TRUE,j,j,NA,NA,NA,3,6,"3,12,7,6,2,11,4,10,8,5,9,13,15,1,14"
14245,commdev-image-keyboard-response,584,1511047,learnblock2,718.1000000238419,img/planet10_left.png,10,Community 2,NA,TRUE,f,f,NA,NA,NA,3,6,"3,12,7,6,2,11,4,10,8,5,9,13,15,1,14"
14245,commdev-image-keyboard-response,585,1512299,learnblock2,218.60000002384186,img/planet13_right.png,13,Community 3,NA,TRUE,j,j,NA,NA,NA,3,6,"3,12,7,6,2,11,4,10,8,5,9,13,15,1,14"
14245,commdev-image-keyboard-response,586,1513552,learnblock2,772.8000000715256,img/planet14_left.png,14,Community 3,NA,TRUE,f,f,NA,NA,NA,3,6,"3,12,7,6,2,11,4,10,8,5,9,13,15,1,14"
14245,commdev-image-keyboard-response,587,1514812,learnblock2,560.6999999284744,img/planet13_right.png,13,Community 3,NA,TRUE,j,j,NA,NA,NA,3,6,"3,12,7,6,2,11,4,10,8,5,9,13,15,1,14"
14245,commdev-image-keyboard-response,588,1516077,learnblock2,634.2000000476837,img/planet10_left.png,10,Community 2,NA,TRUE,f,f,NA,NA,NA,3,6,"3,12,7,6,2,11,4,10,8,5,9,13,15,1,14"
14245,commdev-image-keyboard-response,589,1517329,learnblock2,535.7999999523163,img/planet5_right.png,5,Community 2,NA,TRUE,j,j,NA,NA,NA,3,6,"3,12,7,6,2,11,4,10,8,5,9,13,15,1,14"
14245,commdev-image-keyboard-response,590,1518588,learnblock2,742.1000000238419,img/planet4_right.png,4,Community 2,NA,TRUE,j,j,NA,NA,NA,3,6,"3,12,7,6,2,11,4,10,8,5,9,13,15,1,14"
14245,commdev-image-keyboard-response,591,1519841,learnblock2,604.3999999761581,img/planet5_right.png,5,Community 2,NA,TRUE,j,j,NA,NA,NA,3,6,"3,12,7,6,2,11,4,10,8,5,9,13,15,1,14"
14245,commdev-image-keyboard-response,592,1521107,learnblock2,849.8999999761581,img/planet8_right.png,8,Community 2,NA,TRUE,j,j,NA,NA,NA,3,6,"3,12,7,6,2,11,4,10,8,5,9,13,15,1,14"
14245,commdev-image-keyboard-response,593,1522359,learnblock2,686.3999999761581,img/planet4_right.png,4,Community 2,NA,TRUE,j,j,NA,NA,NA,3,6,"3,12,7,6,2,11,4,10,8,5,9,13,15,1,14"
14245,commdev-image-keyboard-response,594,1523611,learnblock2,534.7000000476837,img/planet5_right.png,5,Community 2,NA,TRUE,j,j,NA,NA,NA,3,6,"3,12,7,6,2,11,4,10,8,5,9,13,15,1,14"
14245,commdev-image-keyboard-response,595,1524864,learnblock2,547.3000000715256,img/planet10_right.png,10,Community 2,NA,TRUE,j,j,NA,NA,NA,3,6,"3,12,7,6,2,11,4,10,8,5,9,13,15,1,14"
14245,commdev-image-keyboard-response,596,1526116,learnblock2,400.10000002384186,img/planet5_right.png,5,Community 2,NA,TRUE,j,j,NA,NA,NA,3,6,"3,12,7,6,2,11,4,10,8,5,9,13,15,1,14"
14245,commdev-image-keyboard-response,597,1527368,learnblock2,536.9000000953674,img/planet10_right.png,10,Community 2,NA,TRUE,j,j,NA,NA,NA,3,6,"3,12,7,6,2,11,4,10,8,5,9,13,15,1,14"
14245,commdev-image-keyboard-response,598,1528620,learnblock2,787.7999999523163,img/planet8_left.png,8,Community 2,NA,TRUE,f,f,NA,NA,NA,3,6,"3,12,7,6,2,11,4,10,8,5,9,13,15,1,14"
14245,commdev-image-keyboard-response,599,1529874,learnblock2,662.6999999284744,img/planet10_right.png,10,Community 2,NA,TRUE,j,j,NA,NA,NA,3,6,"3,12,7,6,2,11,4,10,8,5,9,13,15,1,14"
14245,commdev-image-keyboard-response,600,1531125,learnblock2,673.8999999761581,img/planet4_left.png,4,Community 2,NA,TRUE,f,f,NA,NA,NA,3,6,"3,12,7,6,2,11,4,10,8,5,9,13,15,1,14"
14245,commdev-image-keyboard-response,601,1532378,learnblock2,570.9000000953674,img/planet11_right.png,11,Community 2,NA,TRUE,j,j,NA,NA,NA,3,6,"3,12,7,6,2,11,4,10,8,5,9,13,15,1,14"
14245,commdev-image-keyboard-response,602,1533630,learnblock2,566.7999999523163,img/planet4_right.png,4,Community 2,NA,TRUE,j,j,NA,NA,NA,3,6,"3,12,7,6,2,11,4,10,8,5,9,13,15,1,14"
14245,commdev-image-keyboard-response,603,1534882,learnblock2,517.1999999284744,img/planet10_left.png,10,Community 2,NA,TRUE,f,f,NA,NA,NA,3,6,"3,12,7,6,2,11,4,10,8,5,9,13,15,1,14"
14245,commdev-image-keyboard-response,604,1536147,learnblock2,668.8999999761581,img/planet8_left.png,8,Community 2,NA,TRUE,f,f,NA,NA,NA,3,6,"3,12,7,6,2,11,4,10,8,5,9,13,15,1,14"
14245,commdev-image-keyboard-response,605,1537400,learnblock2,585.7999999523163,img/planet10_left.png,10,Community 2,NA,TRUE,f,f,NA,NA,NA,3,6,"3,12,7,6,2,11,4,10,8,5,9,13,15,1,14"
14245,commdev-image-keyboard-response,606,1538652,learnblock2,575.2000000476837,img/planet8_right.png,8,Community 2,NA,TRUE,j,j,NA,NA,NA,3,6,"3,12,7,6,2,11,4,10,8,5,9,13,15,1,14"
14245,commdev-image-keyboard-response,607,1539912,learnblock2,600.7999999523163,img/planet5_right.png,5,Community 2,NA,TRUE,j,j,NA,NA,NA,3,6,"3,12,7,6,2,11,4,10,8,5,9,13,15,1,14"
14245,commdev-image-keyboard-response,608,1541164,learnblock2,564.1000000238419,img/planet4_left.png,4,Community 2,NA,FALSE,j,f,NA,NA,NA,3,6,"3,12,7,6,2,11,4,10,8,5,9,13,15,1,14"
14245,commdev-image-keyboard-response,609,1542427,learnblock2,943.6999999284744,img/planet8_right.png,8,Community 2,NA,TRUE,j,j,NA,NA,NA,3,6,"3,12,7,6,2,11,4,10,8,5,9,13,15,1,14"
14245,commdev-image-keyboard-response,610,1543680,learnblock2,543.8000000715256,img/planet11_right.png,11,Community 2,NA,TRUE,j,j,NA,NA,NA,3,6,"3,12,7,6,2,11,4,10,8,5,9,13,15,1,14"
14245,commdev-image-keyboard-response,611,1544932,learnblock2,681.1000000238419,img/planet8_left.png,8,Community 2,NA,TRUE,f,f,NA,NA,NA,3,6,"3,12,7,6,2,11,4,10,8,5,9,13,15,1,14"
14245,commdev-image-keyboard-response,612,1546199,learnblock2,868.7000000476837,img/planet5_left.png,5,Community 2,NA,TRUE,f,f,NA,NA,NA,3,6,"3,12,7,6,2,11,4,10,8,5,9,13,15,1,14"
14245,commdev-image-keyboard-response,613,1547451,learnblock2,830,img/planet4_left.png,4,Community 2,NA,TRUE,f,f,NA,NA,NA,3,6,"3,12,7,6,2,11,4,10,8,5,9,13,15,1,14"
14245,commdev-image-keyboard-response,614,1548704,learnblock2,754.8999999761581,img/planet5_left.png,5,Community 2,NA,TRUE,f,f,NA,NA,NA,3,6,"3,12,7,6,2,11,4,10,8,5,9,13,15,1,14"
14245,commdev-image-keyboard-response,615,1549970,learnblock2,608.5,img/planet8_right.png,8,Community 2,NA,TRUE,j,j,NA,NA,NA,3,6,"3,12,7,6,2,11,4,10,8,5,9,13,15,1,14"
14245,commdev-image-keyboard-response,616,1551223,learnblock2,591.8000000715256,img/planet11_left.png,11,Community 2,NA,TRUE,f,f,NA,NA,NA,3,6,"3,12,7,6,2,11,4,10,8,5,9,13,15,1,14"
14245,commdev-image-keyboard-response,617,1552475,learnblock2,598.6999999284744,img/planet5_left.png,5,Community 2,NA,TRUE,f,f,NA,NA,NA,3,6,"3,12,7,6,2,11,4,10,8,5,9,13,15,1,14"
14245,commdev-image-keyboard-response,618,1553727,learnblock2,552.8999999761581,img/planet4_right.png,4,Community 2,NA,TRUE,j,j,NA,NA,NA,3,6,"3,12,7,6,2,11,4,10,8,5,9,13,15,1,14"
14245,commdev-image-keyboard-response,619,1554978,learnblock2,553.5,img/planet10_left.png,10,Community 2,NA,TRUE,f,f,NA,NA,NA,3,6,"3,12,7,6,2,11,4,10,8,5,9,13,15,1,14"
14245,commdev-image-keyboard-response,620,1556231,learnblock2,589,img/planet4_left.png,4,Community 2,NA,TRUE,f,f,NA,NA,NA,3,6,"3,12,7,6,2,11,4,10,8,5,9,13,15,1,14"
14245,commdev-image-keyboard-response,621,1557483,learnblock2,566.2000000476837,img/planet8_right.png,8,Community 2,NA,TRUE,j,j,NA,NA,NA,3,6,"3,12,7,6,2,11,4,10,8,5,9,13,15,1,14"
14245,commdev-image-keyboard-response,622,1558735,learnblock2,521.5,img/planet4_left.png,4,Community 2,NA,TRUE,f,f,NA,NA,NA,3,6,"3,12,7,6,2,11,4,10,8,5,9,13,15,1,14"
14245,commdev-image-keyboard-response,623,1559987,learnblock2,461.7999999523163,img/planet8_right.png,8,Community 2,NA,TRUE,j,j,NA,NA,NA,3,6,"3,12,7,6,2,11,4,10,8,5,9,13,15,1,14"
14245,commdev-image-keyboard-response,624,1561239,learnblock2,609.5,img/planet5_right.png,5,Community 2,NA,TRUE,j,j,NA,NA,NA,3,6,"3,12,7,6,2,11,4,10,8,5,9,13,15,1,14"
14245,commdev-image-keyboard-response,625,1562492,learnblock2,524.2999999523163,img/planet8_left.png,8,Community 2,NA,TRUE,f,f,NA,NA,NA,3,6,"3,12,7,6,2,11,4,10,8,5,9,13,15,1,14"
14245,commdev-image-keyboard-response,626,1563745,learnblock2,512.7999999523163,img/planet10_left.png,10,Community 2,NA,TRUE,f,f,NA,NA,NA,3,6,"3,12,7,6,2,11,4,10,8,5,9,13,15,1,14"
14245,commdev-image-keyboard-response,627,1564996,learnblock2,392.6999999284744,img/planet13_right.png,13,Community 3,NA,TRUE,j,j,NA,NA,NA,3,6,"3,12,7,6,2,11,4,10,8,5,9,13,15,1,14"
14245,commdev-image-keyboard-response,628,1566249,learnblock2,546.0999999046326,img/planet1_left.png,1,Community 3,NA,FALSE,j,f,NA,NA,NA,3,6,"3,12,7,6,2,11,4,10,8,5,9,13,15,1,14"
14245,commdev-image-keyboard-response,629,1567500,learnblock2,701.8999999761581,img/planet15_left.png,15,Community 3,NA,TRUE,f,f,NA,NA,NA,3,6,"3,12,7,6,2,11,4,10,8,5,9,13,15,1,14"
14245,commdev-image-keyboard-response,630,1568753,learnblock2,708.3999999761581,img/planet9_left.png,9,Community 3,NA,TRUE,f,f,NA,NA,NA,3,6,"3,12,7,6,2,11,4,10,8,5,9,13,15,1,14"
14245,commdev-image-keyboard-response,631,1570004,learnblock2,625.5,img/planet15_right.png,15,Community 3,NA,FALSE,f,j,NA,NA,NA,3,6,"3,12,7,6,2,11,4,10,8,5,9,13,15,1,14"
14245,commdev-image-keyboard-response,632,1571256,learnblock2,517.3999999761581,img/planet1_left.png,1,Community 3,NA,TRUE,f,f,NA,NA,NA,3,6,"3,12,7,6,2,11,4,10,8,5,9,13,15,1,14"
14245,commdev-image-keyboard-response,633,1572508,learnblock2,492.89999997615814,img/planet13_right.png,13,Community 3,NA,TRUE,j,j,NA,NA,NA,3,6,"3,12,7,6,2,11,4,10,8,5,9,13,15,1,14"
14245,commdev-image-keyboard-response,634,1573760,learnblock2,575.5,img/planet1_right.png,1,Community 3,NA,TRUE,j,j,NA,NA,NA,3,6,"3,12,7,6,2,11,4,10,8,5,9,13,15,1,14"
14245,commdev-image-keyboard-response,635,1575013,learnblock2,776.5,img/planet13_right.png,13,Community 3,NA,TRUE,j,j,NA,NA,NA,3,6,"3,12,7,6,2,11,4,10,8,5,9,13,15,1,14"
14245,commdev-image-keyboard-response,636,1576265,learnblock2,745.3000000715256,img/planet14_right.png,14,Community 3,NA,TRUE,j,j,NA,NA,NA,3,6,"3,12,7,6,2,11,4,10,8,5,9,13,15,1,14"
14245,commdev-image-keyboard-response,637,1577518,learnblock2,702.6000000238419,img/planet9_right.png,9,Community 3,NA,TRUE,j,j,NA,NA,NA,3,6,"3,12,7,6,2,11,4,10,8,5,9,13,15,1,14"
14245,commdev-image-keyboard-response,638,1578769,learnblock2,525.1999999284744,img/planet1_left.png,1,Community 3,NA,TRUE,f,f,NA,NA,NA,3,6,"3,12,7,6,2,11,4,10,8,5,9,13,15,1,14"
14245,commdev-image-keyboard-response,639,1580027,learnblock2,546.8999999761581,img/planet9_right.png,9,Community 3,NA,TRUE,j,j,NA,NA,NA,3,6,"3,12,7,6,2,11,4,10,8,5,9,13,15,1,14"
14245,commdev-image-keyboard-response,640,1581279,learnblock2,542.8000000715256,img/planet1_right.png,1,Community 3,NA,TRUE,j,j,NA,NA,NA,3,6,"3,12,7,6,2,11,4,10,8,5,9,13,15,1,14"
14245,commdev-image-keyboard-response,641,1582531,learnblock2,788.6999999284744,img/planet15_right.png,15,Community 3,NA,FALSE,f,j,NA,NA,NA,3,6,"3,12,7,6,2,11,4,10,8,5,9,13,15,1,14"
14245,commdev-image-keyboard-response,642,1583783,learnblock2,54.5,img/planet14_left.png,14,Community 3,NA,FALSE,j,f,NA,NA,NA,3,6,"3,12,7,6,2,11,4,10,8,5,9,13,15,1,14"
14245,commdev-image-keyboard-response,643,1585036,learnblock2,null,img/planet9_left.png,9,Community 3,NA,FALSE,null,f,NA,NA,NA,3,6,"3,12,7,6,2,11,4,10,8,5,9,13,15,1,14"
14245,commdev-image-keyboard-response,644,1586288,learnblock2,null,img/planet2_left.png,2,Community 1,NA,FALSE,null,f,NA,NA,NA,3,6,"3,12,7,6,2,11,4,10,8,5,9,13,15,1,14"
