subject_id,trial_type,trial_index,time_elapsed,block,rt,stimulus,planet,community,response,correct,key_press,learning_correct_response,parse,init_locations,final_locations,browser_interactions,num_comp,planet_map
14093,commdev-instructions,7,157050,NA,2296.0999999996275,"<p>In this game, you are a scientist on board a space shuttle. </p><p> On each mission, you will visit planets all across the universe.</p><img src=""img/controlroom.jpg"" width=300vw>",NA,NA,NA,NA,NA,NA,NA,NA,NA,4,6,"10,13,7,9,1,11,14,6,8,2,5,15,3,4,12"
14093,commdev-instructions,8,160000,NA,884.2999999998137,"<p>Here are a few planets you might see:</p><img src=""img/practice1.png"" width=200vw><img src=""img/practice2.png"" width=200vw><img src=""img/practice3.png"" width=200vw>",NA,NA,NA,NA,NA,NA,NA,NA,NA,4,6,"10,13,7,9,1,11,14,6,8,2,5,15,3,4,12"
14093,commdev-instructions,9,167853,NA,455,"<p>Your job as a scientist is to record which direction the winds are moving on each planet.</p><p>There are two types of wind directions:</p><img src=""img/practice1_left.png"" width=200vw><img src=""img/practice1_right.png"" width=200vw>",NA,NA,NA,NA,NA,NA,NA,NA,NA,4,6,"10,13,7,9,1,11,14,6,8,2,5,15,3,4,12"
14093,commdev-instructions,10,173537,NA,806.0999999996275,"<p>If the winds are moving this way, press the letter <strong>F</strong> on the keyboard as fast as you can.</p><img src=""img/leftwind.png"" width=250vw>",NA,NA,NA,NA,NA,NA,NA,NA,NA,4,6,"10,13,7,9,1,11,14,6,8,2,5,15,3,4,12"
14093,commdev-instructions,11,178805,NA,773.2000000001863,"<p>If the winds are moving this way, press the letter <strong>J</strong> on the keyboard as fast as you can.</p><img src=""img/rightwind.png"" width=350vw>",NA,NA,NA,NA,NA,NA,NA,NA,NA,4,6,"10,13,7,9,1,11,14,6,8,2,5,15,3,4,12"
14093,commdev-instructions,12,184357,NA,1130.7000000001863,<p>You will have 1 second to respond. Try to respond before the time runs out!,NA,NA,NA,NA,NA,NA,NA,NA,NA,4,6,"10,13,7,9,1,11,14,6,8,2,5,15,3,4,12"
14093,commdev-instructions,13,190725,NA,939.1000000005588,<p>The planets you will visit will look different from each other.</p><p>You should respond <strong>only</strong> based on wind direction.,NA,NA,NA,NA,NA,NA,NA,NA,NA,4,6,"10,13,7,9,1,11,14,6,8,2,5,15,3,4,12"
14093,commdev-instructions,14,197710,NA,1818.199999999255,"<p> Ready to start the practice round? </p><p> Remember, press <strong>F</strong> or <strong>J</strong> depending on the wind direction.<br><img src=""img/categorize_planet_example.png""",NA,NA,NA,NA,NA,NA,NA,NA,NA,4,6,"10,13,7,9,1,11,14,6,8,2,5,15,3,4,12"
14093,commdev-instructions,26,253741,NA,1844.4000000003725,"<p>Great, now try a short practice mission. </p><p> This time, you will have 1 second to respond and you won't know whether you pressed the right or wrong key for each planet.</p>",NA,NA,NA,NA,NA,NA,NA,NA,NA,4,6,"10,13,7,9,1,11,14,6,8,2,5,15,3,4,12"
14093,commdev-image-keyboard-response,27,255096,practice,null,img/practice1_right.png,NA,Number not found in mappings,NA,FALSE,null,j,NA,NA,NA,4,6,"10,13,7,9,1,11,14,6,8,2,5,15,3,4,12"
14093,commdev-image-keyboard-response,28,256348,practice,null,img/practice4_left.png,NA,Number not found in mappings,NA,FALSE,null,f,NA,NA,NA,4,6,"10,13,7,9,1,11,14,6,8,2,5,15,3,4,12"
14093,commdev-image-keyboard-response,29,257601,practice,996.4000000003725,img/practice2_right.png,NA,Number not found in mappings,NA,TRUE,j,j,NA,NA,NA,4,6,"10,13,7,9,1,11,14,6,8,2,5,15,3,4,12"
14093,commdev-image-keyboard-response,30,258853,practice,799.7999999998137,img/practice4_right.png,NA,Number not found in mappings,NA,FALSE,f,j,NA,NA,NA,4,6,"10,13,7,9,1,11,14,6,8,2,5,15,3,4,12"
14093,commdev-image-keyboard-response,31,260105,practice,851.3999999994412,img/practice2_right.png,NA,Number not found in mappings,NA,TRUE,j,j,NA,NA,NA,4,6,"10,13,7,9,1,11,14,6,8,2,5,15,3,4,12"
14093,commdev-image-keyboard-response,32,261356,practice,599.7999999998137,img/practice1_right.png,NA,Number not found in mappings,NA,TRUE,j,j,NA,NA,NA,4,6,"10,13,7,9,1,11,14,6,8,2,5,15,3,4,12"
14093,commdev-image-keyboard-response,33,262608,practice,764.0999999996275,img/practice2_left.png,NA,Number not found in mappings,NA,TRUE,f,f,NA,NA,NA,4,6,"10,13,7,9,1,11,14,6,8,2,5,15,3,4,12"
14093,commdev-image-keyboard-response,34,263859,practice,480.19999999925494,img/practice1_right.png,NA,Number not found in mappings,NA,TRUE,j,j,NA,NA,NA,4,6,"10,13,7,9,1,11,14,6,8,2,5,15,3,4,12"
14093,commdev-instructions,35,304320,NA,30911.799999999814,"<p>Great job with the practice round.</p><p>During real missions, you won't know whether you pressed the right or wrong key for each planet.</p><p>But between missions, we will tell you how you did overall.</p>",NA,NA,NA,NA,NA,NA,NA,NA,NA,4,6,"10,13,7,9,1,11,14,6,8,2,5,15,3,4,12"
14093,commdev-instructions,36,316973,NA,4374,<p>Try your best! You will be paid a bonus based on how many correct responses you make!</p><p>Responses that are too slow will not count toward your bonus.</p>,NA,NA,NA,NA,NA,NA,NA,NA,NA,4,6,"10,13,7,9,1,11,14,6,8,2,5,15,3,4,12"
14093,commdev-instructions,37,328260,NA,5091,"<p>You are almost ready to start the real game.</p><p> First, we are going to ask you some questions about how the game works.</p>",NA,NA,NA,NA,NA,NA,NA,NA,NA,4,6,"10,13,7,9,1,11,14,6,8,2,5,15,3,4,12"
14093,commdev-instructions,46,414165,NA,2046.9000000003725,"<p> Nice work! It is now time to start the real game.<p></p>You will go on two missions to record wind directions of different planets.<p></p>Each one will take about 5 minutes. You will get to take a break between missions.<p><p> Remember, press <strong>F</strong> or <strong>J</strong> depending on the wind direction. Good luck!<br><img src=""img/categorize_planet_example.png""",NA,NA,NA,NA,NA,NA,NA,NA,NA,4,6,"10,13,7,9,1,11,14,6,8,2,5,15,3,4,12"
14093,commdev-image-keyboard-response,48,418536,learnblock1,null,img/planet8_right.png,8,Community 2,NA,FALSE,null,j,NA,NA,NA,4,6,"10,13,7,9,1,11,14,6,8,2,5,15,3,4,12"
14093,commdev-image-keyboard-response,49,419788,learnblock1,10.599999999627471,img/planet14_right.png,14,Community 2,NA,FALSE,f,j,NA,NA,NA,4,6,"10,13,7,9,1,11,14,6,8,2,5,15,3,4,12"
14093,commdev-image-keyboard-response,50,421040,learnblock1,23.799999999813735,img/planet11_right.png,11,Community 2,NA,TRUE,j,j,NA,NA,NA,4,6,"10,13,7,9,1,11,14,6,8,2,5,15,3,4,12"
14093,commdev-image-keyboard-response,51,422291,learnblock1,683.4000000003725,img/planet2_left.png,2,Community 2,NA,TRUE,f,f,NA,NA,NA,4,6,"10,13,7,9,1,11,14,6,8,2,5,15,3,4,12"
14093,commdev-image-keyboard-response,52,423544,learnblock1,623.6000000005588,img/planet11_right.png,11,Community 2,NA,TRUE,j,j,NA,NA,NA,4,6,"10,13,7,9,1,11,14,6,8,2,5,15,3,4,12"
14093,commdev-image-keyboard-response,53,424795,learnblock1,555.5,img/planet2_right.png,2,Community 2,NA,TRUE,j,j,NA,NA,NA,4,6,"10,13,7,9,1,11,14,6,8,2,5,15,3,4,12"
14093,commdev-image-keyboard-response,54,426047,learnblock1,839.5999999996275,img/planet8_left.png,8,Community 2,NA,TRUE,f,f,NA,NA,NA,4,6,"10,13,7,9,1,11,14,6,8,2,5,15,3,4,12"
14093,commdev-image-keyboard-response,55,427300,learnblock1,619.4000000003725,img/planet2_right.png,2,Community 2,NA,TRUE,j,j,NA,NA,NA,4,6,"10,13,7,9,1,11,14,6,8,2,5,15,3,4,12"
14093,commdev-image-keyboard-response,56,428552,learnblock1,606.7999999998137,img/planet14_left.png,14,Community 2,NA,TRUE,f,f,NA,NA,NA,4,6,"10,13,7,9,1,11,14,6,8,2,5,15,3,4,12"
14093,commdev-image-keyboard-response,57,429805,learnblock1,762.3999999994412,img/planet8_left.png,8,Community 2,NA,TRUE,f,f,NA,NA,NA,4,6,"10,13,7,9,1,11,14,6,8,2,5,15,3,4,12"
14093,commdev-image-keyboard-response,58,431057,learnblock1,758,img/planet11_right.png,11,Community 2,NA,TRUE,j,j,NA,NA,NA,4,6,"10,13,7,9,1,11,14,6,8,2,5,15,3,4,12"
14093,commdev-image-keyboard-response,59,432309,learnblock1,657.7000000001863,img/planet9_right.png,9,Community 1,NA,TRUE,j,j,NA,NA,NA,4,6,"10,13,7,9,1,11,14,6,8,2,5,15,3,4,12"
14093,commdev-image-keyboard-response,60,433561,learnblock1,757.7000000001863,img/planet11_left.png,11,Community 2,NA,TRUE,f,f,NA,NA,NA,4,6,"10,13,7,9,1,11,14,6,8,2,5,15,3,4,12"
14093,commdev-image-keyboard-response,61,434813,learnblock1,761.7000000001863,img/planet2_left.png,2,Community 2,NA,TRUE,f,f,NA,NA,NA,4,6,"10,13,7,9,1,11,14,6,8,2,5,15,3,4,12"
14093,commdev-image-keyboard-response,62,436064,learnblock1,645.5999999996275,img/planet14_right.png,14,Community 2,NA,TRUE,j,j,NA,NA,NA,4,6,"10,13,7,9,1,11,14,6,8,2,5,15,3,4,12"
14093,commdev-image-keyboard-response,63,437316,learnblock1,658.0999999996275,img/planet11_left.png,11,Community 2,NA,TRUE,f,f,NA,NA,NA,4,6,"10,13,7,9,1,11,14,6,8,2,5,15,3,4,12"
14093,commdev-image-keyboard-response,64,438569,learnblock1,718,img/planet14_right.png,14,Community 2,NA,TRUE,j,j,NA,NA,NA,4,6,"10,13,7,9,1,11,14,6,8,2,5,15,3,4,12"
14093,commdev-image-keyboard-response,65,439821,learnblock1,609.5,img/planet2_left.png,2,Community 2,NA,TRUE,f,f,NA,NA,NA,4,6,"10,13,7,9,1,11,14,6,8,2,5,15,3,4,12"
14093,commdev-image-keyboard-response,66,441073,learnblock1,733.4000000003725,img/planet6_right.png,6,Community 2,NA,TRUE,j,j,NA,NA,NA,4,6,"10,13,7,9,1,11,14,6,8,2,5,15,3,4,12"
14093,commdev-image-keyboard-response,67,442324,learnblock1,696.8999999994412,img/planet2_right.png,2,Community 2,NA,TRUE,j,j,NA,NA,NA,4,6,"10,13,7,9,1,11,14,6,8,2,5,15,3,4,12"
14093,commdev-image-keyboard-response,68,443576,learnblock1,837.7999999998137,img/planet14_right.png,14,Community 2,NA,TRUE,j,j,NA,NA,NA,4,6,"10,13,7,9,1,11,14,6,8,2,5,15,3,4,12"
14093,commdev-image-keyboard-response,69,444828,learnblock1,626,img/planet2_left.png,2,Community 2,NA,TRUE,f,f,NA,NA,NA,4,6,"10,13,7,9,1,11,14,6,8,2,5,15,3,4,12"
14093,commdev-image-keyboard-response,70,446081,learnblock1,653.7999999998137,img/planet8_right.png,8,Community 2,NA,TRUE,j,j,NA,NA,NA,4,6,"10,13,7,9,1,11,14,6,8,2,5,15,3,4,12"
14093,commdev-image-keyboard-response,71,447333,learnblock1,609.2999999998137,img/planet14_right.png,14,Community 2,NA,TRUE,j,j,NA,NA,NA,4,6,"10,13,7,9,1,11,14,6,8,2,5,15,3,4,12"
14093,commdev-image-keyboard-response,72,448584,learnblock1,613.2999999998137,img/planet11_left.png,11,Community 2,NA,TRUE,f,f,NA,NA,NA,4,6,"10,13,7,9,1,11,14,6,8,2,5,15,3,4,12"
14093,commdev-image-keyboard-response,73,449836,learnblock1,721.5999999996275,img/planet8_left.png,8,Community 2,NA,TRUE,f,f,NA,NA,NA,4,6,"10,13,7,9,1,11,14,6,8,2,5,15,3,4,12"
14093,commdev-image-keyboard-response,74,451087,learnblock1,717.7000000001863,img/planet14_left.png,14,Community 2,NA,TRUE,f,f,NA,NA,NA,4,6,"10,13,7,9,1,11,14,6,8,2,5,15,3,4,12"
14093,commdev-image-keyboard-response,75,452339,learnblock1,850.7999999998137,img/planet2_right.png,2,Community 2,NA,TRUE,j,j,NA,NA,NA,4,6,"10,13,7,9,1,11,14,6,8,2,5,15,3,4,12"
14093,commdev-image-keyboard-response,76,453591,learnblock1,767,img/planet14_left.png,14,Community 2,NA,TRUE,f,f,NA,NA,NA,4,6,"10,13,7,9,1,11,14,6,8,2,5,15,3,4,12"
14093,commdev-image-keyboard-response,77,454843,learnblock1,706.5999999996275,img/planet11_right.png,11,Community 2,NA,TRUE,j,j,NA,NA,NA,4,6,"10,13,7,9,1,11,14,6,8,2,5,15,3,4,12"
14093,commdev-image-keyboard-response,78,456094,learnblock1,822.2000000001863,img/planet9_right.png,9,Community 1,NA,TRUE,j,j,NA,NA,NA,4,6,"10,13,7,9,1,11,14,6,8,2,5,15,3,4,12"
14093,commdev-image-keyboard-response,79,457346,learnblock1,779.7000000001863,img/planet7_right.png,7,Community 1,NA,TRUE,j,j,NA,NA,NA,4,6,"10,13,7,9,1,11,14,6,8,2,5,15,3,4,12"
14093,commdev-image-keyboard-response,80,458598,learnblock1,704,img/planet13_left.png,13,Community 1,NA,TRUE,f,f,NA,NA,NA,4,6,"10,13,7,9,1,11,14,6,8,2,5,15,3,4,12"
14093,commdev-image-keyboard-response,81,459849,learnblock1,891.7000000001863,img/planet9_left.png,9,Community 1,NA,TRUE,f,f,NA,NA,NA,4,6,"10,13,7,9,1,11,14,6,8,2,5,15,3,4,12"
14093,commdev-image-keyboard-response,82,461102,learnblock1,880.2000000001863,img/planet11_right.png,11,Community 2,NA,TRUE,j,j,NA,NA,NA,4,6,"10,13,7,9,1,11,14,6,8,2,5,15,3,4,12"
14093,commdev-image-keyboard-response,83,462353,learnblock1,875.7000000001863,img/planet2_right.png,2,Community 2,NA,TRUE,j,j,NA,NA,NA,4,6,"10,13,7,9,1,11,14,6,8,2,5,15,3,4,12"
14093,commdev-image-keyboard-response,84,463605,learnblock1,752.0999999996275,img/planet6_right.png,6,Community 2,NA,TRUE,j,j,NA,NA,NA,4,6,"10,13,7,9,1,11,14,6,8,2,5,15,3,4,12"
14093,commdev-image-keyboard-response,85,464857,learnblock1,852.5999999996275,img/planet14_right.png,14,Community 2,NA,TRUE,j,j,NA,NA,NA,4,6,"10,13,7,9,1,11,14,6,8,2,5,15,3,4,12"
14093,commdev-image-keyboard-response,86,466109,learnblock1,696.6999999992549,img/planet2_left.png,2,Community 2,NA,TRUE,f,f,NA,NA,NA,4,6,"10,13,7,9,1,11,14,6,8,2,5,15,3,4,12"
14093,commdev-image-keyboard-response,87,467362,learnblock1,676.2000000001863,img/planet8_left.png,8,Community 2,NA,TRUE,f,f,NA,NA,NA,4,6,"10,13,7,9,1,11,14,6,8,2,5,15,3,4,12"
14093,commdev-image-keyboard-response,88,468614,learnblock1,694.8999999994412,img/planet6_left.png,6,Community 2,NA,TRUE,f,f,NA,NA,NA,4,6,"10,13,7,9,1,11,14,6,8,2,5,15,3,4,12"
14093,commdev-image-keyboard-response,89,469865,learnblock1,707,img/planet14_left.png,14,Community 2,NA,TRUE,f,f,NA,NA,NA,4,6,"10,13,7,9,1,11,14,6,8,2,5,15,3,4,12"
14093,commdev-image-keyboard-response,90,471116,learnblock1,648.1000000005588,img/planet11_left.png,11,Community 2,NA,TRUE,f,f,NA,NA,NA,4,6,"10,13,7,9,1,11,14,6,8,2,5,15,3,4,12"
14093,commdev-image-keyboard-response,91,472368,learnblock1,805,img/planet14_left.png,14,Community 2,NA,TRUE,f,f,NA,NA,NA,4,6,"10,13,7,9,1,11,14,6,8,2,5,15,3,4,12"
14093,commdev-image-keyboard-response,92,473620,learnblock1,712.5999999996275,img/planet2_right.png,2,Community 2,NA,TRUE,j,j,NA,NA,NA,4,6,"10,13,7,9,1,11,14,6,8,2,5,15,3,4,12"
14093,commdev-image-keyboard-response,93,474872,learnblock1,653.3999999994412,img/planet14_right.png,14,Community 2,NA,TRUE,j,j,NA,NA,NA,4,6,"10,13,7,9,1,11,14,6,8,2,5,15,3,4,12"
14093,commdev-image-keyboard-response,94,476124,learnblock1,513.5,img/planet11_left.png,11,Community 2,NA,FALSE,j,f,NA,NA,NA,4,6,"10,13,7,9,1,11,14,6,8,2,5,15,3,4,12"
14093,commdev-image-keyboard-response,95,477375,learnblock1,901.2999999998137,img/planet9_left.png,9,Community 1,NA,TRUE,f,f,NA,NA,NA,4,6,"10,13,7,9,1,11,14,6,8,2,5,15,3,4,12"
14093,commdev-image-keyboard-response,96,478627,learnblock1,778.0999999996275,img/planet13_right.png,13,Community 1,NA,TRUE,j,j,NA,NA,NA,4,6,"10,13,7,9,1,11,14,6,8,2,5,15,3,4,12"
14093,commdev-image-keyboard-response,97,479879,learnblock1,677.5999999996275,img/planet9_right.png,9,Community 1,NA,TRUE,j,j,NA,NA,NA,4,6,"10,13,7,9,1,11,14,6,8,2,5,15,3,4,12"
14093,commdev-image-keyboard-response,98,481130,learnblock1,585.6999999992549,img/planet10_right.png,10,Community 1,NA,TRUE,j,j,NA,NA,NA,4,6,"10,13,7,9,1,11,14,6,8,2,5,15,3,4,12"
14093,commdev-image-keyboard-response,99,482382,learnblock1,710.5,img/planet7_left.png,7,Community 1,NA,TRUE,f,f,NA,NA,NA,4,6,"10,13,7,9,1,11,14,6,8,2,5,15,3,4,12"
14093,commdev-image-keyboard-response,100,483634,learnblock1,610.8999999994412,img/planet10_left.png,10,Community 1,NA,TRUE,f,f,NA,NA,NA,4,6,"10,13,7,9,1,11,14,6,8,2,5,15,3,4,12"
14093,commdev-image-keyboard-response,101,484886,learnblock1,534.7000000001863,img/planet13_left.png,13,Community 1,NA,TRUE,f,f,NA,NA,NA,4,6,"10,13,7,9,1,11,14,6,8,2,5,15,3,4,12"
14093,commdev-image-keyboard-response,102,486138,learnblock1,666.6000000005588,img/planet9_right.png,9,Community 1,NA,TRUE,j,j,NA,NA,NA,4,6,"10,13,7,9,1,11,14,6,8,2,5,15,3,4,12"
14093,commdev-image-keyboard-response,103,487390,learnblock1,542.6999999992549,img/planet10_right.png,10,Community 1,NA,TRUE,j,j,NA,NA,NA,4,6,"10,13,7,9,1,11,14,6,8,2,5,15,3,4,12"
14093,commdev-image-keyboard-response,104,488642,learnblock1,530.7000000001863,img/planet9_right.png,9,Community 1,NA,TRUE,j,j,NA,NA,NA,4,6,"10,13,7,9,1,11,14,6,8,2,5,15,3,4,12"
14093,commdev-image-keyboard-response,105,489895,learnblock1,470.6000000005588,img/planet10_right.png,10,Community 1,NA,TRUE,j,j,NA,NA,NA,4,6,"10,13,7,9,1,11,14,6,8,2,5,15,3,4,12"
14093,commdev-image-keyboard-response,106,491146,learnblock1,746.1000000005588,img/planet9_left.png,9,Community 1,NA,TRUE,f,f,NA,NA,NA,4,6,"10,13,7,9,1,11,14,6,8,2,5,15,3,4,12"
14093,commdev-image-keyboard-response,107,492398,learnblock1,566.1999999992549,img/planet13_right.png,13,Community 1,NA,TRUE,j,j,NA,NA,NA,4,6,"10,13,7,9,1,11,14,6,8,2,5,15,3,4,12"
14093,commdev-image-keyboard-response,108,493650,learnblock1,706.7999999998137,img/planet1_right.png,1,Community 1,NA,TRUE,j,j,NA,NA,NA,4,6,"10,13,7,9,1,11,14,6,8,2,5,15,3,4,12"
14093,commdev-image-keyboard-response,109,494902,learnblock1,606.5999999996275,img/planet10_left.png,10,Community 1,NA,TRUE,f,f,NA,NA,NA,4,6,"10,13,7,9,1,11,14,6,8,2,5,15,3,4,12"
14093,commdev-image-keyboard-response,110,496154,learnblock1,642.5,img/planet13_right.png,13,Community 1,NA,TRUE,j,j,NA,NA,NA,4,6,"10,13,7,9,1,11,14,6,8,2,5,15,3,4,12"
14093,commdev-image-keyboard-response,111,497406,learnblock1,917.8000000007451,img/planet10_left.png,10,Community 1,NA,TRUE,f,f,NA,NA,NA,4,6,"10,13,7,9,1,11,14,6,8,2,5,15,3,4,12"
14093,commdev-image-keyboard-response,112,498658,learnblock1,834.9000000003725,img/planet9_left.png,9,Community 1,NA,TRUE,f,f,NA,NA,NA,4,6,"10,13,7,9,1,11,14,6,8,2,5,15,3,4,12"
14093,commdev-image-keyboard-response,113,499910,learnblock1,1110.699999999255,img/planet11_left.png,11,Community 2,NA,TRUE,f,f,NA,NA,NA,4,6,"10,13,7,9,1,11,14,6,8,2,5,15,3,4,12"
14093,commdev-image-keyboard-response,114,501162,learnblock1,690.2000000001863,img/planet2_right.png,2,Community 2,NA,TRUE,j,j,NA,NA,NA,4,6,"10,13,7,9,1,11,14,6,8,2,5,15,3,4,12"
14093,commdev-image-keyboard-response,115,502413,learnblock1,710.5999999996275,img/planet14_left.png,14,Community 2,NA,TRUE,f,f,NA,NA,NA,4,6,"10,13,7,9,1,11,14,6,8,2,5,15,3,4,12"
14093,commdev-image-keyboard-response,116,503665,learnblock1,610.7000000001863,img/planet11_left.png,11,Community 2,NA,TRUE,f,f,NA,NA,NA,4,6,"10,13,7,9,1,11,14,6,8,2,5,15,3,4,12"
14093,commdev-image-keyboard-response,117,504917,learnblock1,583.0999999996275,img/planet14_left.png,14,Community 2,NA,TRUE,f,f,NA,NA,NA,4,6,"10,13,7,9,1,11,14,6,8,2,5,15,3,4,12"
14093,commdev-image-keyboard-response,118,506169,learnblock1,659.1999999992549,img/planet8_right.png,8,Community 2,NA,TRUE,j,j,NA,NA,NA,4,6,"10,13,7,9,1,11,14,6,8,2,5,15,3,4,12"
14093,commdev-image-keyboard-response,119,507421,learnblock1,630.5,img/planet11_right.png,11,Community 2,NA,TRUE,j,j,NA,NA,NA,4,6,"10,13,7,9,1,11,14,6,8,2,5,15,3,4,12"
14093,commdev-image-keyboard-response,120,508673,learnblock1,778.7999999998137,img/planet8_right.png,8,Community 2,NA,TRUE,j,j,NA,NA,NA,4,6,"10,13,7,9,1,11,14,6,8,2,5,15,3,4,12"
14093,commdev-image-keyboard-response,121,509926,learnblock1,750.6999999992549,img/planet11_left.png,11,Community 2,NA,TRUE,f,f,NA,NA,NA,4,6,"10,13,7,9,1,11,14,6,8,2,5,15,3,4,12"
14093,commdev-image-keyboard-response,122,511178,learnblock1,578.2999999998137,img/planet2_left.png,2,Community 2,NA,TRUE,f,f,NA,NA,NA,4,6,"10,13,7,9,1,11,14,6,8,2,5,15,3,4,12"
14093,commdev-image-keyboard-response,123,512429,learnblock1,709.6999999992549,img/planet8_left.png,8,Community 2,NA,TRUE,f,f,NA,NA,NA,4,6,"10,13,7,9,1,11,14,6,8,2,5,15,3,4,12"
14093,commdev-image-keyboard-response,124,513681,learnblock1,650.6999999992549,img/planet11_left.png,11,Community 2,NA,TRUE,f,f,NA,NA,NA,4,6,"10,13,7,9,1,11,14,6,8,2,5,15,3,4,12"
14093,commdev-image-keyboard-response,125,514933,learnblock1,718.2999999998137,img/planet9_right.png,9,Community 1,NA,TRUE,j,j,NA,NA,NA,4,6,"10,13,7,9,1,11,14,6,8,2,5,15,3,4,12"
14093,commdev-image-keyboard-response,126,516185,learnblock1,738.3999999994412,img/planet10_left.png,10,Community 1,NA,TRUE,f,f,NA,NA,NA,4,6,"10,13,7,9,1,11,14,6,8,2,5,15,3,4,12"
14093,commdev-image-keyboard-response,127,517437,learnblock1,718.8999999994412,img/planet7_right.png,7,Community 1,NA,TRUE,j,j,NA,NA,NA,4,6,"10,13,7,9,1,11,14,6,8,2,5,15,3,4,12"
14093,commdev-image-keyboard-response,128,518689,learnblock1,594.7999999998137,img/planet10_right.png,10,Community 1,NA,TRUE,j,j,NA,NA,NA,4,6,"10,13,7,9,1,11,14,6,8,2,5,15,3,4,12"
14093,commdev-image-keyboard-response,129,519941,learnblock1,662.5999999996275,img/planet13_left.png,13,Community 1,NA,TRUE,f,f,NA,NA,NA,4,6,"10,13,7,9,1,11,14,6,8,2,5,15,3,4,12"
14093,commdev-image-keyboard-response,130,521193,learnblock1,914.7000000001863,img/planet7_left.png,7,Community 1,NA,TRUE,f,f,NA,NA,NA,4,6,"10,13,7,9,1,11,14,6,8,2,5,15,3,4,12"
14093,commdev-image-keyboard-response,131,522445,learnblock1,622.5999999996275,img/planet13_right.png,13,Community 1,NA,TRUE,j,j,NA,NA,NA,4,6,"10,13,7,9,1,11,14,6,8,2,5,15,3,4,12"
14093,commdev-image-keyboard-response,132,523697,learnblock1,866.7999999998137,img/planet9_right.png,9,Community 1,NA,TRUE,j,j,NA,NA,NA,4,6,"10,13,7,9,1,11,14,6,8,2,5,15,3,4,12"
14093,commdev-image-keyboard-response,133,524949,learnblock1,894.6999999992549,img/planet13_right.png,13,Community 1,NA,TRUE,j,j,NA,NA,NA,4,6,"10,13,7,9,1,11,14,6,8,2,5,15,3,4,12"
14093,commdev-image-keyboard-response,134,526201,learnblock1,738.7999999998137,img/planet10_left.png,10,Community 1,NA,TRUE,f,f,NA,NA,NA,4,6,"10,13,7,9,1,11,14,6,8,2,5,15,3,4,12"
14093,commdev-image-keyboard-response,135,527452,learnblock1,630.5,img/planet7_right.png,7,Community 1,NA,TRUE,j,j,NA,NA,NA,4,6,"10,13,7,9,1,11,14,6,8,2,5,15,3,4,12"
14093,commdev-image-keyboard-response,136,528705,learnblock1,578.2999999998137,img/planet10_right.png,10,Community 1,NA,TRUE,j,j,NA,NA,NA,4,6,"10,13,7,9,1,11,14,6,8,2,5,15,3,4,12"
14093,commdev-image-keyboard-response,137,529956,learnblock1,574.5999999996275,img/planet9_left.png,9,Community 1,NA,TRUE,f,f,NA,NA,NA,4,6,"10,13,7,9,1,11,14,6,8,2,5,15,3,4,12"
14093,commdev-image-keyboard-response,138,531209,learnblock1,587,img/planet11_right.png,11,Community 2,NA,TRUE,j,j,NA,NA,NA,4,6,"10,13,7,9,1,11,14,6,8,2,5,15,3,4,12"
14093,commdev-image-keyboard-response,139,532460,learnblock1,549.9000000003725,img/planet2_left.png,2,Community 2,NA,TRUE,f,f,NA,NA,NA,4,6,"10,13,7,9,1,11,14,6,8,2,5,15,3,4,12"
14093,commdev-image-keyboard-response,140,533713,learnblock1,666.4000000003725,img/planet6_right.png,6,Community 2,NA,TRUE,j,j,NA,NA,NA,4,6,"10,13,7,9,1,11,14,6,8,2,5,15,3,4,12"
14093,commdev-image-keyboard-response,141,534964,learnblock1,637.6000000005588,img/planet14_left.png,14,Community 2,NA,TRUE,f,f,NA,NA,NA,4,6,"10,13,7,9,1,11,14,6,8,2,5,15,3,4,12"
14093,commdev-image-keyboard-response,142,536217,learnblock1,650.5,img/planet11_left.png,11,Community 2,NA,TRUE,f,f,NA,NA,NA,4,6,"10,13,7,9,1,11,14,6,8,2,5,15,3,4,12"
14093,commdev-image-keyboard-response,143,537468,learnblock1,582.1000000005588,img/planet2_left.png,2,Community 2,NA,TRUE,f,f,NA,NA,NA,4,6,"10,13,7,9,1,11,14,6,8,2,5,15,3,4,12"
14093,commdev-image-keyboard-response,144,538720,learnblock1,674.7999999998137,img/planet8_right.png,8,Community 2,NA,TRUE,j,j,NA,NA,NA,4,6,"10,13,7,9,1,11,14,6,8,2,5,15,3,4,12"
14093,commdev-image-keyboard-response,145,539972,learnblock1,686.5,img/planet14_left.png,14,Community 2,NA,TRUE,f,f,NA,NA,NA,4,6,"10,13,7,9,1,11,14,6,8,2,5,15,3,4,12"
14093,commdev-image-keyboard-response,146,541224,learnblock1,546.5999999996275,img/planet8_right.png,8,Community 2,NA,TRUE,j,j,NA,NA,NA,4,6,"10,13,7,9,1,11,14,6,8,2,5,15,3,4,12"
14093,commdev-image-keyboard-response,147,542476,learnblock1,1006.7000000001863,img/planet2_right.png,2,Community 2,NA,TRUE,j,j,NA,NA,NA,4,6,"10,13,7,9,1,11,14,6,8,2,5,15,3,4,12"
14093,commdev-image-keyboard-response,148,543728,learnblock1,762.7999999998137,img/planet14_left.png,14,Community 2,NA,TRUE,f,f,NA,NA,NA,4,6,"10,13,7,9,1,11,14,6,8,2,5,15,3,4,12"
14093,commdev-image-keyboard-response,149,544980,learnblock1,750.5999999996275,img/planet8_left.png,8,Community 2,NA,TRUE,f,f,NA,NA,NA,4,6,"10,13,7,9,1,11,14,6,8,2,5,15,3,4,12"
14093,commdev-image-keyboard-response,150,546232,learnblock1,707,img/planet14_right.png,14,Community 2,NA,TRUE,j,j,NA,NA,NA,4,6,"10,13,7,9,1,11,14,6,8,2,5,15,3,4,12"
14093,commdev-image-keyboard-response,151,547483,learnblock1,670.6999999992549,img/planet2_right.png,2,Community 2,NA,TRUE,j,j,NA,NA,NA,4,6,"10,13,7,9,1,11,14,6,8,2,5,15,3,4,12"
14093,commdev-image-keyboard-response,152,548735,learnblock1,715.5,img/planet8_right.png,8,Community 2,NA,TRUE,j,j,NA,NA,NA,4,6,"10,13,7,9,1,11,14,6,8,2,5,15,3,4,12"
14093,commdev-image-keyboard-response,153,549986,learnblock1,727.3999999994412,img/planet6_right.png,6,Community 2,NA,TRUE,j,j,NA,NA,NA,4,6,"10,13,7,9,1,11,14,6,8,2,5,15,3,4,12"
14093,commdev-image-keyboard-response,154,551238,learnblock1,812,img/planet2_left.png,2,Community 2,NA,TRUE,f,f,NA,NA,NA,4,6,"10,13,7,9,1,11,14,6,8,2,5,15,3,4,12"
14093,commdev-image-keyboard-response,155,552491,learnblock1,680.0999999996275,img/planet6_left.png,6,Community 2,NA,TRUE,f,f,NA,NA,NA,4,6,"10,13,7,9,1,11,14,6,8,2,5,15,3,4,12"
14093,commdev-image-keyboard-response,156,553743,learnblock1,843.7000000001863,img/planet15_left.png,15,Community 3,NA,TRUE,f,f,NA,NA,NA,4,6,"10,13,7,9,1,11,14,6,8,2,5,15,3,4,12"
14093,commdev-image-keyboard-response,157,554994,learnblock1,775.5999999996275,img/planet3_right.png,3,Community 3,NA,TRUE,j,j,NA,NA,NA,4,6,"10,13,7,9,1,11,14,6,8,2,5,15,3,4,12"
14093,commdev-image-keyboard-response,158,556246,learnblock1,795.6999999992549,img/planet15_left.png,15,Community 3,NA,TRUE,f,f,NA,NA,NA,4,6,"10,13,7,9,1,11,14,6,8,2,5,15,3,4,12"
14093,commdev-image-keyboard-response,159,557499,learnblock1,944.0999999996275,img/planet12_left.png,12,Community 3,NA,TRUE,f,f,NA,NA,NA,4,6,"10,13,7,9,1,11,14,6,8,2,5,15,3,4,12"
14093,commdev-image-keyboard-response,160,558751,learnblock1,763.5999999996275,img/planet5_left.png,5,Community 3,NA,TRUE,f,f,NA,NA,NA,4,6,"10,13,7,9,1,11,14,6,8,2,5,15,3,4,12"
14093,commdev-image-keyboard-response,161,560003,learnblock1,679.5999999996275,img/planet1_right.png,1,Community 1,NA,TRUE,j,j,NA,NA,NA,4,6,"10,13,7,9,1,11,14,6,8,2,5,15,3,4,12"
14093,commdev-image-keyboard-response,162,561254,learnblock1,707.6999999992549,img/planet5_left.png,5,Community 3,NA,TRUE,f,f,NA,NA,NA,4,6,"10,13,7,9,1,11,14,6,8,2,5,15,3,4,12"
14093,commdev-image-keyboard-response,163,562507,learnblock1,608.0999999996275,img/planet1_left.png,1,Community 1,NA,TRUE,f,f,NA,NA,NA,4,6,"10,13,7,9,1,11,14,6,8,2,5,15,3,4,12"
14093,commdev-image-keyboard-response,164,563758,learnblock1,667.6000000005588,img/planet5_left.png,5,Community 3,NA,TRUE,f,f,NA,NA,NA,4,6,"10,13,7,9,1,11,14,6,8,2,5,15,3,4,12"
14093,commdev-image-keyboard-response,165,565010,learnblock1,983.8999999994412,img/planet1_left.png,1,Community 1,NA,TRUE,f,f,NA,NA,NA,4,6,"10,13,7,9,1,11,14,6,8,2,5,15,3,4,12"
14093,commdev-image-keyboard-response,166,566262,learnblock1,1011.5,img/planet7_left.png,7,Community 1,NA,TRUE,f,f,NA,NA,NA,4,6,"10,13,7,9,1,11,14,6,8,2,5,15,3,4,12"
14093,commdev-image-keyboard-response,167,567514,learnblock1,720.1999999992549,img/planet9_right.png,9,Community 1,NA,TRUE,j,j,NA,NA,NA,4,6,"10,13,7,9,1,11,14,6,8,2,5,15,3,4,12"
14093,commdev-image-keyboard-response,168,568766,learnblock1,772.3999999994412,img/planet10_left.png,10,Community 1,NA,TRUE,f,f,NA,NA,NA,4,6,"10,13,7,9,1,11,14,6,8,2,5,15,3,4,12"
14093,commdev-image-keyboard-response,169,570018,learnblock1,567.7999999998137,img/planet13_right.png,13,Community 1,NA,TRUE,j,j,NA,NA,NA,4,6,"10,13,7,9,1,11,14,6,8,2,5,15,3,4,12"
14093,commdev-image-keyboard-response,170,571270,learnblock1,931.4000000003725,img/planet7_right.png,7,Community 1,NA,TRUE,j,j,NA,NA,NA,4,6,"10,13,7,9,1,11,14,6,8,2,5,15,3,4,12"
14093,commdev-image-keyboard-response,171,572522,learnblock1,664.2999999998137,img/planet9_right.png,9,Community 1,NA,TRUE,j,j,NA,NA,NA,4,6,"10,13,7,9,1,11,14,6,8,2,5,15,3,4,12"
14093,commdev-image-keyboard-response,172,573774,learnblock1,540,img/planet10_right.png,10,Community 1,NA,TRUE,j,j,NA,NA,NA,4,6,"10,13,7,9,1,11,14,6,8,2,5,15,3,4,12"
14093,commdev-image-keyboard-response,173,575026,learnblock1,687.5999999996275,img/planet13_left.png,13,Community 1,NA,TRUE,f,f,NA,NA,NA,4,6,"10,13,7,9,1,11,14,6,8,2,5,15,3,4,12"
14093,commdev-image-keyboard-response,174,576278,learnblock1,819.6000000005588,img/planet9_left.png,9,Community 1,NA,TRUE,f,f,NA,NA,NA,4,6,"10,13,7,9,1,11,14,6,8,2,5,15,3,4,12"
14093,commdev-image-keyboard-response,175,577530,learnblock1,1135.9000000003725,img/planet13_right.png,13,Community 1,NA,TRUE,j,j,NA,NA,NA,4,6,"10,13,7,9,1,11,14,6,8,2,5,15,3,4,12"
14093,commdev-image-keyboard-response,176,578783,learnblock1,779.2000000001863,img/planet10_left.png,10,Community 1,NA,TRUE,f,f,NA,NA,NA,4,6,"10,13,7,9,1,11,14,6,8,2,5,15,3,4,12"
14093,commdev-image-keyboard-response,177,580034,learnblock1,630.5999999996275,img/planet7_right.png,7,Community 1,NA,TRUE,j,j,NA,NA,NA,4,6,"10,13,7,9,1,11,14,6,8,2,5,15,3,4,12"
14093,commdev-image-keyboard-response,178,581285,learnblock1,619.2999999998137,img/planet1_right.png,1,Community 1,NA,TRUE,j,j,NA,NA,NA,4,6,"10,13,7,9,1,11,14,6,8,2,5,15,3,4,12"
14093,commdev-image-keyboard-response,179,582538,learnblock1,544.0999999996275,img/planet10_left.png,10,Community 1,NA,TRUE,f,f,NA,NA,NA,4,6,"10,13,7,9,1,11,14,6,8,2,5,15,3,4,12"
14093,commdev-image-keyboard-response,180,583790,learnblock1,579.5999999996275,img/planet9_right.png,9,Community 1,NA,TRUE,j,j,NA,NA,NA,4,6,"10,13,7,9,1,11,14,6,8,2,5,15,3,4,12"
14093,commdev-image-keyboard-response,181,585041,learnblock1,743.3999999994412,img/planet10_right.png,10,Community 1,NA,TRUE,j,j,NA,NA,NA,4,6,"10,13,7,9,1,11,14,6,8,2,5,15,3,4,12"
14093,commdev-image-keyboard-response,182,586293,learnblock1,659.7999999998137,img/planet1_right.png,1,Community 1,NA,TRUE,j,j,NA,NA,NA,4,6,"10,13,7,9,1,11,14,6,8,2,5,15,3,4,12"
14093,commdev-image-keyboard-response,183,587545,learnblock1,696.5,img/planet13_right.png,13,Community 1,NA,TRUE,j,j,NA,NA,NA,4,6,"10,13,7,9,1,11,14,6,8,2,5,15,3,4,12"
14093,commdev-image-keyboard-response,184,588796,learnblock1,580.0999999996275,img/planet10_left.png,10,Community 1,NA,TRUE,f,f,NA,NA,NA,4,6,"10,13,7,9,1,11,14,6,8,2,5,15,3,4,12"
14093,commdev-image-keyboard-response,185,590048,learnblock1,640.4000000003725,img/planet7_right.png,7,Community 1,NA,TRUE,j,j,NA,NA,NA,4,6,"10,13,7,9,1,11,14,6,8,2,5,15,3,4,12"
14093,commdev-image-keyboard-response,186,591300,learnblock1,669.6999999992549,img/planet9_left.png,9,Community 1,NA,TRUE,f,f,NA,NA,NA,4,6,"10,13,7,9,1,11,14,6,8,2,5,15,3,4,12"
14093,commdev-image-keyboard-response,187,592551,learnblock1,561.5999999996275,img/planet13_right.png,13,Community 1,NA,TRUE,j,j,NA,NA,NA,4,6,"10,13,7,9,1,11,14,6,8,2,5,15,3,4,12"
14093,commdev-image-keyboard-response,188,593802,learnblock1,949.7000000001863,img/planet7_left.png,7,Community 1,NA,TRUE,f,f,NA,NA,NA,4,6,"10,13,7,9,1,11,14,6,8,2,5,15,3,4,12"
14093,commdev-image-keyboard-response,189,595054,learnblock1,746.9000000003725,img/planet10_left.png,10,Community 1,NA,TRUE,f,f,NA,NA,NA,4,6,"10,13,7,9,1,11,14,6,8,2,5,15,3,4,12"
14093,commdev-image-keyboard-response,190,596305,learnblock1,1007,img/planet1_left.png,1,Community 1,NA,TRUE,f,f,NA,NA,NA,4,6,"10,13,7,9,1,11,14,6,8,2,5,15,3,4,12"
14093,commdev-image-keyboard-response,191,597557,learnblock1,939.7999999998137,img/planet5_left.png,5,Community 3,NA,TRUE,f,f,NA,NA,NA,4,6,"10,13,7,9,1,11,14,6,8,2,5,15,3,4,12"
14093,commdev-image-keyboard-response,192,598808,learnblock1,640.1999999992549,img/planet1_left.png,1,Community 1,NA,TRUE,f,f,NA,NA,NA,4,6,"10,13,7,9,1,11,14,6,8,2,5,15,3,4,12"
14093,commdev-image-keyboard-response,193,600060,learnblock1,540.5,img/planet5_right.png,5,Community 3,NA,TRUE,j,j,NA,NA,NA,4,6,"10,13,7,9,1,11,14,6,8,2,5,15,3,4,12"
14093,commdev-image-keyboard-response,194,601311,learnblock1,728.5999999996275,img/planet3_left.png,3,Community 3,NA,TRUE,f,f,NA,NA,NA,4,6,"10,13,7,9,1,11,14,6,8,2,5,15,3,4,12"
14093,commdev-image-keyboard-response,195,602563,learnblock1,557.5999999996275,img/planet5_left.png,5,Community 3,NA,TRUE,f,f,NA,NA,NA,4,6,"10,13,7,9,1,11,14,6,8,2,5,15,3,4,12"
14093,commdev-image-keyboard-response,196,603815,learnblock1,721.6999999992549,img/planet1_right.png,1,Community 1,NA,TRUE,j,j,NA,NA,NA,4,6,"10,13,7,9,1,11,14,6,8,2,5,15,3,4,12"
14093,commdev-image-keyboard-response,197,605066,learnblock1,741.7000000001863,img/planet7_left.png,7,Community 1,NA,TRUE,f,f,NA,NA,NA,4,6,"10,13,7,9,1,11,14,6,8,2,5,15,3,4,12"
14093,commdev-image-keyboard-response,198,606318,learnblock1,602.7000000001863,img/planet10_right.png,10,Community 1,NA,TRUE,j,j,NA,NA,NA,4,6,"10,13,7,9,1,11,14,6,8,2,5,15,3,4,12"
14093,commdev-image-keyboard-response,199,607570,learnblock1,542.4000000003725,img/planet13_left.png,13,Community 1,NA,TRUE,f,f,NA,NA,NA,4,6,"10,13,7,9,1,11,14,6,8,2,5,15,3,4,12"
14093,commdev-image-keyboard-response,200,608821,learnblock1,474.5,img/planet10_right.png,10,Community 1,NA,TRUE,j,j,NA,NA,NA,4,6,"10,13,7,9,1,11,14,6,8,2,5,15,3,4,12"
14093,commdev-image-keyboard-response,201,610073,learnblock1,575.4000000003725,img/planet1_left.png,1,Community 1,NA,TRUE,f,f,NA,NA,NA,4,6,"10,13,7,9,1,11,14,6,8,2,5,15,3,4,12"
14093,commdev-image-keyboard-response,202,611325,learnblock1,467.70000000018626,img/planet13_right.png,13,Community 1,NA,TRUE,j,j,NA,NA,NA,4,6,"10,13,7,9,1,11,14,6,8,2,5,15,3,4,12"
14093,commdev-image-keyboard-response,203,612577,learnblock1,647.5,img/planet10_right.png,10,Community 1,NA,TRUE,j,j,NA,NA,NA,4,6,"10,13,7,9,1,11,14,6,8,2,5,15,3,4,12"
14093,commdev-image-keyboard-response,204,613828,learnblock1,651.3999999994412,img/planet7_left.png,7,Community 1,NA,TRUE,f,f,NA,NA,NA,4,6,"10,13,7,9,1,11,14,6,8,2,5,15,3,4,12"
14093,commdev-image-keyboard-response,205,615081,learnblock1,840,img/planet1_right.png,1,Community 1,NA,TRUE,j,j,NA,NA,NA,4,6,"10,13,7,9,1,11,14,6,8,2,5,15,3,4,12"
14093,commdev-image-keyboard-response,206,616332,learnblock1,731.6999999992549,img/planet7_left.png,7,Community 1,NA,TRUE,f,f,NA,NA,NA,4,6,"10,13,7,9,1,11,14,6,8,2,5,15,3,4,12"
14093,commdev-image-keyboard-response,207,617585,learnblock1,624.0999999996275,img/planet13_right.png,13,Community 1,NA,TRUE,j,j,NA,NA,NA,4,6,"10,13,7,9,1,11,14,6,8,2,5,15,3,4,12"
14093,commdev-image-keyboard-response,208,618836,learnblock1,691.8999999994412,img/planet1_right.png,1,Community 1,NA,TRUE,j,j,NA,NA,NA,4,6,"10,13,7,9,1,11,14,6,8,2,5,15,3,4,12"
14093,commdev-image-keyboard-response,209,620089,learnblock1,536,img/planet7_left.png,7,Community 1,NA,TRUE,f,f,NA,NA,NA,4,6,"10,13,7,9,1,11,14,6,8,2,5,15,3,4,12"
14093,commdev-image-keyboard-response,210,621341,learnblock1,603.5999999996275,img/planet13_left.png,13,Community 1,NA,FALSE,j,f,NA,NA,NA,4,6,"10,13,7,9,1,11,14,6,8,2,5,15,3,4,12"
14093,commdev-image-keyboard-response,211,622592,learnblock1,367.59999999962747,img/planet10_right.png,10,Community 1,NA,FALSE,f,j,NA,NA,NA,4,6,"10,13,7,9,1,11,14,6,8,2,5,15,3,4,12"
14093,commdev-image-keyboard-response,212,623844,learnblock1,1051.7999999998137,img/planet9_right.png,9,Community 1,NA,TRUE,j,j,NA,NA,NA,4,6,"10,13,7,9,1,11,14,6,8,2,5,15,3,4,12"
14093,commdev-image-keyboard-response,213,625096,learnblock1,735.8999999994412,img/planet13_left.png,13,Community 1,NA,TRUE,f,f,NA,NA,NA,4,6,"10,13,7,9,1,11,14,6,8,2,5,15,3,4,12"
14093,commdev-image-keyboard-response,214,626347,learnblock1,492.29999999981374,img/planet10_right.png,10,Community 1,NA,TRUE,j,j,NA,NA,NA,4,6,"10,13,7,9,1,11,14,6,8,2,5,15,3,4,12"
14093,commdev-image-keyboard-response,215,627599,learnblock1,664.4000000003725,img/planet9_left.png,9,Community 1,NA,TRUE,f,f,NA,NA,NA,4,6,"10,13,7,9,1,11,14,6,8,2,5,15,3,4,12"
14093,commdev-image-keyboard-response,216,628851,learnblock1,733,img/planet11_left.png,11,Community 2,NA,TRUE,f,f,NA,NA,NA,4,6,"10,13,7,9,1,11,14,6,8,2,5,15,3,4,12"
14093,commdev-image-keyboard-response,217,630103,learnblock1,993,img/planet8_left.png,8,Community 2,NA,TRUE,f,f,NA,NA,NA,4,6,"10,13,7,9,1,11,14,6,8,2,5,15,3,4,12"
14093,commdev-image-keyboard-response,218,631356,learnblock1,932.7999999998137,img/planet11_right.png,11,Community 2,NA,TRUE,j,j,NA,NA,NA,4,6,"10,13,7,9,1,11,14,6,8,2,5,15,3,4,12"
14093,commdev-image-keyboard-response,219,632606,learnblock1,null,img/planet9_right.png,9,Community 1,NA,FALSE,null,j,NA,NA,NA,4,6,"10,13,7,9,1,11,14,6,8,2,5,15,3,4,12"
14093,commdev-image-keyboard-response,220,633859,learnblock1,69.3999999994412,img/planet10_left.png,10,Community 1,NA,FALSE,j,f,NA,NA,NA,4,6,"10,13,7,9,1,11,14,6,8,2,5,15,3,4,12"
14093,commdev-image-keyboard-response,221,635111,learnblock1,648.7999999998137,img/planet7_right.png,7,Community 1,NA,TRUE,j,j,NA,NA,NA,4,6,"10,13,7,9,1,11,14,6,8,2,5,15,3,4,12"
14093,commdev-image-keyboard-response,222,636362,learnblock1,899.8000000007451,img/planet13_right.png,13,Community 1,NA,TRUE,j,j,NA,NA,NA,4,6,"10,13,7,9,1,11,14,6,8,2,5,15,3,4,12"
14093,commdev-image-keyboard-response,223,637614,learnblock1,721.2999999998137,img/planet9_right.png,9,Community 1,NA,TRUE,j,j,NA,NA,NA,4,6,"10,13,7,9,1,11,14,6,8,2,5,15,3,4,12"
14093,commdev-image-keyboard-response,224,638866,learnblock1,533.4000000003725,img/planet10_left.png,10,Community 1,NA,TRUE,f,f,NA,NA,NA,4,6,"10,13,7,9,1,11,14,6,8,2,5,15,3,4,12"
14093,commdev-image-keyboard-response,225,640118,learnblock1,825.7999999998137,img/planet1_left.png,1,Community 1,NA,TRUE,f,f,NA,NA,NA,4,6,"10,13,7,9,1,11,14,6,8,2,5,15,3,4,12"
14093,commdev-image-keyboard-response,226,641369,learnblock1,757.6999999992549,img/planet10_left.png,10,Community 1,NA,TRUE,f,f,NA,NA,NA,4,6,"10,13,7,9,1,11,14,6,8,2,5,15,3,4,12"
14093,commdev-image-keyboard-response,227,642620,learnblock1,626.8999999994412,img/planet1_right.png,1,Community 1,NA,FALSE,f,j,NA,NA,NA,4,6,"10,13,7,9,1,11,14,6,8,2,5,15,3,4,12"
14093,commdev-image-keyboard-response,228,643873,learnblock1,743,img/planet13_right.png,13,Community 1,NA,TRUE,j,j,NA,NA,NA,4,6,"10,13,7,9,1,11,14,6,8,2,5,15,3,4,12"
14093,commdev-image-keyboard-response,229,645125,learnblock1,498.90000000037253,img/planet10_right.png,10,Community 1,NA,TRUE,j,j,NA,NA,NA,4,6,"10,13,7,9,1,11,14,6,8,2,5,15,3,4,12"
14093,commdev-image-keyboard-response,230,646376,learnblock1,670.6999999992549,img/planet1_left.png,1,Community 1,NA,TRUE,f,f,NA,NA,NA,4,6,"10,13,7,9,1,11,14,6,8,2,5,15,3,4,12"
14093,commdev-image-keyboard-response,231,647628,learnblock1,762.1999999992549,img/planet7_left.png,7,Community 1,NA,FALSE,j,f,NA,NA,NA,4,6,"10,13,7,9,1,11,14,6,8,2,5,15,3,4,12"
14093,commdev-image-keyboard-response,232,648880,learnblock1,559.3999999994412,img/planet10_right.png,10,Community 1,NA,TRUE,j,j,NA,NA,NA,4,6,"10,13,7,9,1,11,14,6,8,2,5,15,3,4,12"
14093,commdev-image-keyboard-response,233,650131,learnblock1,691.5999999996275,img/planet1_left.png,1,Community 1,NA,FALSE,j,f,NA,NA,NA,4,6,"10,13,7,9,1,11,14,6,8,2,5,15,3,4,12"
14093,commdev-image-keyboard-response,234,651383,learnblock1,752.2999999998137,img/planet13_left.png,13,Community 1,NA,TRUE,f,f,NA,NA,NA,4,6,"10,13,7,9,1,11,14,6,8,2,5,15,3,4,12"
14093,commdev-image-keyboard-response,235,652635,learnblock1,675.1999999992549,img/planet1_left.png,1,Community 1,NA,TRUE,f,f,NA,NA,NA,4,6,"10,13,7,9,1,11,14,6,8,2,5,15,3,4,12"
14093,commdev-image-keyboard-response,236,653887,learnblock1,615.7999999998137,img/planet13_left.png,13,Community 1,NA,TRUE,f,f,NA,NA,NA,4,6,"10,13,7,9,1,11,14,6,8,2,5,15,3,4,12"
14093,commdev-image-keyboard-response,237,655138,learnblock1,611.6999999992549,img/planet7_left.png,7,Community 1,NA,TRUE,f,f,NA,NA,NA,4,6,"10,13,7,9,1,11,14,6,8,2,5,15,3,4,12"
14093,commdev-image-keyboard-response,238,656390,learnblock1,480.59999999962747,img/planet1_right.png,1,Community 1,NA,TRUE,j,j,NA,NA,NA,4,6,"10,13,7,9,1,11,14,6,8,2,5,15,3,4,12"
14093,commdev-image-keyboard-response,239,657643,learnblock1,548.5,img/planet10_left.png,10,Community 1,NA,TRUE,f,f,NA,NA,NA,4,6,"10,13,7,9,1,11,14,6,8,2,5,15,3,4,12"
14093,commdev-image-keyboard-response,240,658894,learnblock1,632.1999999992549,img/planet7_right.png,7,Community 1,NA,TRUE,j,j,NA,NA,NA,4,6,"10,13,7,9,1,11,14,6,8,2,5,15,3,4,12"
14093,commdev-image-keyboard-response,241,660145,learnblock1,637.2000000001863,img/planet1_right.png,1,Community 1,NA,TRUE,j,j,NA,NA,NA,4,6,"10,13,7,9,1,11,14,6,8,2,5,15,3,4,12"
14093,commdev-image-keyboard-response,242,661397,learnblock1,641.3999999994412,img/planet10_left.png,10,Community 1,NA,TRUE,f,f,NA,NA,NA,4,6,"10,13,7,9,1,11,14,6,8,2,5,15,3,4,12"
14093,commdev-image-keyboard-response,243,662648,learnblock1,597.9000000003725,img/planet9_right.png,9,Community 1,NA,FALSE,f,j,NA,NA,NA,4,6,"10,13,7,9,1,11,14,6,8,2,5,15,3,4,12"
14093,commdev-image-keyboard-response,244,663900,learnblock1,698.7999999998137,img/planet10_right.png,10,Community 1,NA,TRUE,j,j,NA,NA,NA,4,6,"10,13,7,9,1,11,14,6,8,2,5,15,3,4,12"
14093,commdev-image-keyboard-response,245,665152,learnblock1,622.5999999996275,img/planet7_left.png,7,Community 1,NA,TRUE,f,f,NA,NA,NA,4,6,"10,13,7,9,1,11,14,6,8,2,5,15,3,4,12"
14093,commdev-image-keyboard-response,246,666404,learnblock1,450.5,img/planet10_right.png,10,Community 1,NA,TRUE,j,j,NA,NA,NA,4,6,"10,13,7,9,1,11,14,6,8,2,5,15,3,4,12"
14093,commdev-image-keyboard-response,247,667656,learnblock1,1046.5,img/planet13_right.png,13,Community 1,NA,TRUE,j,j,NA,NA,NA,4,6,"10,13,7,9,1,11,14,6,8,2,5,15,3,4,12"
14093,commdev-image-keyboard-response,248,668908,learnblock1,722.7999999998137,img/planet1_right.png,1,Community 1,NA,TRUE,j,j,NA,NA,NA,4,6,"10,13,7,9,1,11,14,6,8,2,5,15,3,4,12"
14093,commdev-image-keyboard-response,249,670160,learnblock1,574.5999999996275,img/planet13_right.png,13,Community 1,NA,TRUE,j,j,NA,NA,NA,4,6,"10,13,7,9,1,11,14,6,8,2,5,15,3,4,12"
14093,commdev-image-keyboard-response,250,671412,learnblock1,554.5999999996275,img/planet7_right.png,7,Community 1,NA,TRUE,j,j,NA,NA,NA,4,6,"10,13,7,9,1,11,14,6,8,2,5,15,3,4,12"
14093,commdev-image-keyboard-response,251,672664,learnblock1,502.59999999962747,img/planet9_left.png,9,Community 1,NA,TRUE,f,f,NA,NA,NA,4,6,"10,13,7,9,1,11,14,6,8,2,5,15,3,4,12"
14093,commdev-image-keyboard-response,252,673916,learnblock1,882.8999999994412,img/planet11_left.png,11,Community 2,NA,TRUE,f,f,NA,NA,NA,4,6,"10,13,7,9,1,11,14,6,8,2,5,15,3,4,12"
14093,commdev-image-keyboard-response,253,675168,learnblock1,574.7999999998137,img/planet9_right.png,9,Community 1,NA,TRUE,j,j,NA,NA,NA,4,6,"10,13,7,9,1,11,14,6,8,2,5,15,3,4,12"
14093,commdev-image-keyboard-response,254,676420,learnblock1,714.5,img/planet11_left.png,11,Community 2,NA,TRUE,f,f,NA,NA,NA,4,6,"10,13,7,9,1,11,14,6,8,2,5,15,3,4,12"
14093,commdev-image-keyboard-response,255,677672,learnblock1,710,img/planet14_left.png,14,Community 2,NA,TRUE,f,f,NA,NA,NA,4,6,"10,13,7,9,1,11,14,6,8,2,5,15,3,4,12"
14093,commdev-image-keyboard-response,256,678924,learnblock1,730.2999999998137,img/planet8_right.png,8,Community 2,NA,TRUE,j,j,NA,NA,NA,4,6,"10,13,7,9,1,11,14,6,8,2,5,15,3,4,12"
14093,commdev-image-keyboard-response,257,680176,learnblock1,590.5,img/planet6_left.png,6,Community 2,NA,TRUE,f,f,NA,NA,NA,4,6,"10,13,7,9,1,11,14,6,8,2,5,15,3,4,12"
14093,commdev-image-keyboard-response,258,681427,learnblock1,441.79999999981374,img/planet8_right.png,8,Community 2,NA,TRUE,j,j,NA,NA,NA,4,6,"10,13,7,9,1,11,14,6,8,2,5,15,3,4,12"
14093,commdev-image-keyboard-response,259,682678,learnblock1,638.7999999998137,img/planet2_right.png,2,Community 2,NA,FALSE,f,j,NA,NA,NA,4,6,"10,13,7,9,1,11,14,6,8,2,5,15,3,4,12"
14093,commdev-image-keyboard-response,260,683930,learnblock1,611.7999999998137,img/planet14_left.png,14,Community 2,NA,TRUE,f,f,NA,NA,NA,4,6,"10,13,7,9,1,11,14,6,8,2,5,15,3,4,12"
14093,commdev-image-keyboard-response,261,685182,learnblock1,551.8000000007451,img/planet8_right.png,8,Community 2,NA,TRUE,j,j,NA,NA,NA,4,6,"10,13,7,9,1,11,14,6,8,2,5,15,3,4,12"
14093,commdev-image-keyboard-response,262,686434,learnblock1,707.7999999998137,img/planet14_right.png,14,Community 2,NA,TRUE,j,j,NA,NA,NA,4,6,"10,13,7,9,1,11,14,6,8,2,5,15,3,4,12"
14093,commdev-image-keyboard-response,263,687685,learnblock1,672.0999999996275,img/planet2_left.png,2,Community 2,NA,TRUE,f,f,NA,NA,NA,4,6,"10,13,7,9,1,11,14,6,8,2,5,15,3,4,12"
14093,commdev-image-keyboard-response,264,688937,learnblock1,637,img/planet14_left.png,14,Community 2,NA,TRUE,f,f,NA,NA,NA,4,6,"10,13,7,9,1,11,14,6,8,2,5,15,3,4,12"
14093,commdev-image-keyboard-response,265,690188,learnblock1,592.3999999994412,img/planet8_right.png,8,Community 2,NA,TRUE,j,j,NA,NA,NA,4,6,"10,13,7,9,1,11,14,6,8,2,5,15,3,4,12"
14093,commdev-image-keyboard-response,266,691440,learnblock1,685.5,img/planet6_right.png,6,Community 2,NA,TRUE,j,j,NA,NA,NA,4,6,"10,13,7,9,1,11,14,6,8,2,5,15,3,4,12"
14093,commdev-image-keyboard-response,267,692692,learnblock1,657.6999999992549,img/planet15_left.png,15,Community 3,NA,TRUE,f,f,NA,NA,NA,4,6,"10,13,7,9,1,11,14,6,8,2,5,15,3,4,12"
14093,commdev-image-keyboard-response,268,693945,learnblock1,613.7999999998137,img/planet12_right.png,12,Community 3,NA,TRUE,j,j,NA,NA,NA,4,6,"10,13,7,9,1,11,14,6,8,2,5,15,3,4,12"
14093,commdev-image-keyboard-response,269,695196,learnblock1,577.2000000001863,img/planet4_left.png,4,Community 3,NA,TRUE,f,f,NA,NA,NA,4,6,"10,13,7,9,1,11,14,6,8,2,5,15,3,4,12"
14093,commdev-image-keyboard-response,270,696448,learnblock1,773.3999999994412,img/planet15_left.png,15,Community 3,NA,TRUE,f,f,NA,NA,NA,4,6,"10,13,7,9,1,11,14,6,8,2,5,15,3,4,12"
14093,commdev-image-keyboard-response,271,697700,learnblock1,473.5,img/planet4_right.png,4,Community 3,NA,TRUE,j,j,NA,NA,NA,4,6,"10,13,7,9,1,11,14,6,8,2,5,15,3,4,12"
14093,commdev-image-keyboard-response,272,698952,learnblock1,581.2999999998137,img/planet15_left.png,15,Community 3,NA,TRUE,f,f,NA,NA,NA,4,6,"10,13,7,9,1,11,14,6,8,2,5,15,3,4,12"
14093,commdev-image-keyboard-response,273,700204,learnblock1,785.0999999996275,img/planet6_left.png,6,Community 2,NA,TRUE,f,f,NA,NA,NA,4,6,"10,13,7,9,1,11,14,6,8,2,5,15,3,4,12"
14093,commdev-image-keyboard-response,274,701456,learnblock1,677.3999999994412,img/planet8_right.png,8,Community 2,NA,TRUE,j,j,NA,NA,NA,4,6,"10,13,7,9,1,11,14,6,8,2,5,15,3,4,12"
14093,commdev-image-keyboard-response,275,702708,learnblock1,657.5,img/planet6_right.png,6,Community 2,NA,TRUE,j,j,NA,NA,NA,4,6,"10,13,7,9,1,11,14,6,8,2,5,15,3,4,12"
14093,commdev-image-keyboard-response,276,703960,learnblock1,677.6000000005588,img/planet14_right.png,14,Community 2,NA,TRUE,j,j,NA,NA,NA,4,6,"10,13,7,9,1,11,14,6,8,2,5,15,3,4,12"
14093,commdev-image-keyboard-response,277,705212,learnblock1,449.5,img/planet8_right.png,8,Community 2,NA,TRUE,j,j,NA,NA,NA,4,6,"10,13,7,9,1,11,14,6,8,2,5,15,3,4,12"
14093,commdev-image-keyboard-response,278,706464,learnblock1,365.8999999994412,img/planet14_left.png,14,Community 2,NA,FALSE,j,f,NA,NA,NA,4,6,"10,13,7,9,1,11,14,6,8,2,5,15,3,4,12"
14093,commdev-image-keyboard-response,279,707715,learnblock1,777.6999999992549,img/planet8_left.png,8,Community 2,NA,TRUE,f,f,NA,NA,NA,4,6,"10,13,7,9,1,11,14,6,8,2,5,15,3,4,12"
14093,commdev-image-keyboard-response,280,708966,learnblock1,501.8999999994412,img/planet2_right.png,2,Community 2,NA,TRUE,j,j,NA,NA,NA,4,6,"10,13,7,9,1,11,14,6,8,2,5,15,3,4,12"
14093,commdev-image-keyboard-response,281,710217,learnblock1,594.6999999992549,img/planet8_left.png,8,Community 2,NA,TRUE,f,f,NA,NA,NA,4,6,"10,13,7,9,1,11,14,6,8,2,5,15,3,4,12"
14093,commdev-image-keyboard-response,282,711469,learnblock1,511.8999999994412,img/planet2_left.png,2,Community 2,NA,FALSE,j,f,NA,NA,NA,4,6,"10,13,7,9,1,11,14,6,8,2,5,15,3,4,12"
14093,commdev-image-keyboard-response,283,712721,learnblock1,699.6999999992549,img/planet11_right.png,11,Community 2,NA,TRUE,j,j,NA,NA,NA,4,6,"10,13,7,9,1,11,14,6,8,2,5,15,3,4,12"
14093,commdev-image-keyboard-response,284,713973,learnblock1,840.3999999994412,img/planet8_right.png,8,Community 2,NA,TRUE,j,j,NA,NA,NA,4,6,"10,13,7,9,1,11,14,6,8,2,5,15,3,4,12"
14093,commdev-image-keyboard-response,285,715225,learnblock1,716.2000000001863,img/planet11_left.png,11,Community 2,NA,TRUE,f,f,NA,NA,NA,4,6,"10,13,7,9,1,11,14,6,8,2,5,15,3,4,12"
14093,commdev-image-keyboard-response,286,716477,learnblock1,655.6000000005588,img/planet9_right.png,9,Community 1,NA,TRUE,j,j,NA,NA,NA,4,6,"10,13,7,9,1,11,14,6,8,2,5,15,3,4,12"
14093,commdev-image-keyboard-response,287,717730,learnblock1,707.5,img/planet10_right.png,10,Community 1,NA,TRUE,j,j,NA,NA,NA,4,6,"10,13,7,9,1,11,14,6,8,2,5,15,3,4,12"
14093,commdev-image-keyboard-response,288,718981,learnblock1,855,img/planet9_right.png,9,Community 1,NA,TRUE,j,j,NA,NA,NA,4,6,"10,13,7,9,1,11,14,6,8,2,5,15,3,4,12"
14093,commdev-image-keyboard-response,289,720233,learnblock1,803.7000000001863,img/planet13_right.png,13,Community 1,NA,TRUE,j,j,NA,NA,NA,4,6,"10,13,7,9,1,11,14,6,8,2,5,15,3,4,12"
14093,commdev-image-keyboard-response,290,721485,learnblock1,719.5999999996275,img/planet1_left.png,1,Community 1,NA,TRUE,f,f,NA,NA,NA,4,6,"10,13,7,9,1,11,14,6,8,2,5,15,3,4,12"
14093,commdev-image-keyboard-response,291,722737,learnblock1,795.0999999996275,img/planet7_right.png,7,Community 1,NA,TRUE,j,j,NA,NA,NA,4,6,"10,13,7,9,1,11,14,6,8,2,5,15,3,4,12"
14093,commdev-image-keyboard-response,292,723989,learnblock1,600.0999999996275,img/planet10_right.png,10,Community 1,NA,TRUE,j,j,NA,NA,NA,4,6,"10,13,7,9,1,11,14,6,8,2,5,15,3,4,12"
14093,commdev-image-keyboard-response,293,725241,learnblock1,571.5,img/planet13_left.png,13,Community 1,NA,TRUE,f,f,NA,NA,NA,4,6,"10,13,7,9,1,11,14,6,8,2,5,15,3,4,12"
14093,commdev-image-keyboard-response,294,726493,learnblock1,607.0999999996275,img/planet1_right.png,1,Community 1,NA,TRUE,j,j,NA,NA,NA,4,6,"10,13,7,9,1,11,14,6,8,2,5,15,3,4,12"
14093,commdev-image-keyboard-response,295,727744,learnblock1,643.7999999998137,img/planet7_right.png,7,Community 1,NA,TRUE,j,j,NA,NA,NA,4,6,"10,13,7,9,1,11,14,6,8,2,5,15,3,4,12"
14093,commdev-image-keyboard-response,296,728996,learnblock1,600.1999999992549,img/planet13_right.png,13,Community 1,NA,TRUE,j,j,NA,NA,NA,4,6,"10,13,7,9,1,11,14,6,8,2,5,15,3,4,12"
14093,commdev-image-keyboard-response,297,730248,learnblock1,580.5,img/planet9_right.png,9,Community 1,NA,TRUE,j,j,NA,NA,NA,4,6,"10,13,7,9,1,11,14,6,8,2,5,15,3,4,12"
14093,commdev-image-keyboard-response,298,731499,learnblock1,712.5,img/planet11_left.png,11,Community 2,NA,TRUE,f,f,NA,NA,NA,4,6,"10,13,7,9,1,11,14,6,8,2,5,15,3,4,12"
14093,commdev-image-keyboard-response,299,732751,learnblock1,853.0999999996275,img/planet14_right.png,14,Community 2,NA,TRUE,j,j,NA,NA,NA,4,6,"10,13,7,9,1,11,14,6,8,2,5,15,3,4,12"
14093,commdev-image-keyboard-response,300,734003,learnblock1,625.4000000003725,img/planet6_left.png,6,Community 2,NA,TRUE,f,f,NA,NA,NA,4,6,"10,13,7,9,1,11,14,6,8,2,5,15,3,4,12"
14093,commdev-image-keyboard-response,301,735255,learnblock1,661.5,img/planet2_left.png,2,Community 2,NA,FALSE,j,f,NA,NA,NA,4,6,"10,13,7,9,1,11,14,6,8,2,5,15,3,4,12"
14093,commdev-image-keyboard-response,302,736507,learnblock1,81.09999999962747,img/planet6_left.png,6,Community 2,NA,TRUE,f,f,NA,NA,NA,4,6,"10,13,7,9,1,11,14,6,8,2,5,15,3,4,12"
14093,commdev-image-keyboard-response,303,737758,learnblock1,733.5,img/planet2_left.png,2,Community 2,NA,TRUE,f,f,NA,NA,NA,4,6,"10,13,7,9,1,11,14,6,8,2,5,15,3,4,12"
14093,commdev-image-keyboard-response,304,739009,learnblock1,770.7000000001863,img/planet11_left.png,11,Community 2,NA,TRUE,f,f,NA,NA,NA,4,6,"10,13,7,9,1,11,14,6,8,2,5,15,3,4,12"
14093,commdev-image-keyboard-response,305,740261,learnblock1,662.7999999998137,img/planet14_left.png,14,Community 2,NA,TRUE,f,f,NA,NA,NA,4,6,"10,13,7,9,1,11,14,6,8,2,5,15,3,4,12"
14093,commdev-image-keyboard-response,306,741514,learnblock1,571,img/planet6_right.png,6,Community 2,NA,TRUE,j,j,NA,NA,NA,4,6,"10,13,7,9,1,11,14,6,8,2,5,15,3,4,12"
14093,commdev-image-keyboard-response,307,742765,learnblock1,638.3999999994412,img/planet14_left.png,14,Community 2,NA,TRUE,f,f,NA,NA,NA,4,6,"10,13,7,9,1,11,14,6,8,2,5,15,3,4,12"
14093,commdev-image-keyboard-response,308,744016,learnblock1,795.2999999998137,img/planet6_left.png,6,Community 2,NA,TRUE,f,f,NA,NA,NA,4,6,"10,13,7,9,1,11,14,6,8,2,5,15,3,4,12"
14093,commdev-image-keyboard-response,309,745268,learnblock1,696.2999999998137,img/planet15_right.png,15,Community 3,NA,TRUE,j,j,NA,NA,NA,4,6,"10,13,7,9,1,11,14,6,8,2,5,15,3,4,12"
14093,commdev-image-keyboard-response,310,746520,learnblock1,555.2999999998137,img/planet6_left.png,6,Community 2,NA,TRUE,f,f,NA,NA,NA,4,6,"10,13,7,9,1,11,14,6,8,2,5,15,3,4,12"
14093,commdev-image-keyboard-response,311,747772,learnblock1,975.7999999998137,img/planet15_left.png,15,Community 3,NA,TRUE,f,f,NA,NA,NA,4,6,"10,13,7,9,1,11,14,6,8,2,5,15,3,4,12"
14093,commdev-image-keyboard-response,312,749024,learnblock1,675.6999999992549,img/planet3_left.png,3,Community 3,NA,TRUE,f,f,NA,NA,NA,4,6,"10,13,7,9,1,11,14,6,8,2,5,15,3,4,12"
14093,commdev-image-keyboard-response,313,750275,learnblock1,680.0999999996275,img/planet4_right.png,4,Community 3,NA,TRUE,j,j,NA,NA,NA,4,6,"10,13,7,9,1,11,14,6,8,2,5,15,3,4,12"
14093,commdev-image-keyboard-response,314,751527,learnblock1,516.3999999994412,img/planet3_right.png,3,Community 3,NA,FALSE,f,j,NA,NA,NA,4,6,"10,13,7,9,1,11,14,6,8,2,5,15,3,4,12"
14093,commdev-image-keyboard-response,315,752779,learnblock1,760.5999999996275,img/planet15_left.png,15,Community 3,NA,TRUE,f,f,NA,NA,NA,4,6,"10,13,7,9,1,11,14,6,8,2,5,15,3,4,12"
14093,commdev-image-keyboard-response,316,754030,learnblock1,748.6999999992549,img/planet3_left.png,3,Community 3,NA,TRUE,f,f,NA,NA,NA,4,6,"10,13,7,9,1,11,14,6,8,2,5,15,3,4,12"
14093,commdev-image-keyboard-response,317,755283,learnblock1,633.3999999994412,img/planet4_right.png,4,Community 3,NA,TRUE,j,j,NA,NA,NA,4,6,"10,13,7,9,1,11,14,6,8,2,5,15,3,4,12"
14093,commdev-image-keyboard-response,318,756535,learnblock1,781.2000000001863,img/planet3_right.png,3,Community 3,NA,TRUE,j,j,NA,NA,NA,4,6,"10,13,7,9,1,11,14,6,8,2,5,15,3,4,12"
14093,commdev-image-keyboard-response,319,757786,learnblock1,808.9000000003725,img/planet15_right.png,15,Community 3,NA,TRUE,j,j,NA,NA,NA,4,6,"10,13,7,9,1,11,14,6,8,2,5,15,3,4,12"
14093,commdev-image-keyboard-response,320,759038,learnblock1,581.0999999996275,img/planet4_left.png,4,Community 3,NA,TRUE,f,f,NA,NA,NA,4,6,"10,13,7,9,1,11,14,6,8,2,5,15,3,4,12"
14093,commdev-image-keyboard-response,321,760290,learnblock1,593.5,img/planet15_right.png,15,Community 3,NA,TRUE,j,j,NA,NA,NA,4,6,"10,13,7,9,1,11,14,6,8,2,5,15,3,4,12"
14093,commdev-image-keyboard-response,322,761541,learnblock1,901.5999999996275,img/planet12_left.png,12,Community 3,NA,TRUE,f,f,NA,NA,NA,4,6,"10,13,7,9,1,11,14,6,8,2,5,15,3,4,12"
14093,commdev-image-keyboard-response,323,762792,learnblock1,706.6999999992549,img/planet5_left.png,5,Community 3,NA,TRUE,f,f,NA,NA,NA,4,6,"10,13,7,9,1,11,14,6,8,2,5,15,3,4,12"
14093,commdev-image-keyboard-response,324,764044,learnblock1,799,img/planet12_left.png,12,Community 3,NA,TRUE,f,f,NA,NA,NA,4,6,"10,13,7,9,1,11,14,6,8,2,5,15,3,4,12"
14093,commdev-image-keyboard-response,325,765296,learnblock1,746.7999999998137,img/planet3_right.png,3,Community 3,NA,TRUE,j,j,NA,NA,NA,4,6,"10,13,7,9,1,11,14,6,8,2,5,15,3,4,12"
14093,commdev-image-keyboard-response,326,766548,learnblock1,863,img/planet5_right.png,5,Community 3,NA,TRUE,j,j,NA,NA,NA,4,6,"10,13,7,9,1,11,14,6,8,2,5,15,3,4,12"
14093,commdev-image-keyboard-response,327,767801,learnblock1,787,img/planet3_left.png,3,Community 3,NA,TRUE,f,f,NA,NA,NA,4,6,"10,13,7,9,1,11,14,6,8,2,5,15,3,4,12"
14093,commdev-image-keyboard-response,328,769052,learnblock1,686.7999999998137,img/planet4_right.png,4,Community 3,NA,TRUE,j,j,NA,NA,NA,4,6,"10,13,7,9,1,11,14,6,8,2,5,15,3,4,12"
14093,commdev-image-keyboard-response,329,770303,learnblock1,659.5,img/planet12_left.png,12,Community 3,NA,TRUE,f,f,NA,NA,NA,4,6,"10,13,7,9,1,11,14,6,8,2,5,15,3,4,12"
14093,commdev-image-keyboard-response,330,771556,learnblock1,608.1999999992549,img/planet5_right.png,5,Community 3,NA,TRUE,j,j,NA,NA,NA,4,6,"10,13,7,9,1,11,14,6,8,2,5,15,3,4,12"
14093,commdev-image-keyboard-response,331,772807,learnblock1,659.5,img/planet4_left.png,4,Community 3,NA,TRUE,f,f,NA,NA,NA,4,6,"10,13,7,9,1,11,14,6,8,2,5,15,3,4,12"
14093,commdev-image-keyboard-response,332,774058,learnblock1,408.3999999994412,img/planet15_right.png,15,Community 3,NA,TRUE,j,j,NA,NA,NA,4,6,"10,13,7,9,1,11,14,6,8,2,5,15,3,4,12"
14093,commdev-image-keyboard-response,333,775309,learnblock1,764.6999999992549,img/planet12_right.png,12,Community 3,NA,TRUE,j,j,NA,NA,NA,4,6,"10,13,7,9,1,11,14,6,8,2,5,15,3,4,12"
14093,commdev-image-keyboard-response,334,776561,learnblock1,625.5999999996275,img/planet4_left.png,4,Community 3,NA,TRUE,f,f,NA,NA,NA,4,6,"10,13,7,9,1,11,14,6,8,2,5,15,3,4,12"
14093,commdev-image-keyboard-response,335,777812,learnblock1,821.6000000005588,img/planet12_left.png,12,Community 3,NA,TRUE,f,f,NA,NA,NA,4,6,"10,13,7,9,1,11,14,6,8,2,5,15,3,4,12"
14093,commdev-image-keyboard-response,336,779064,learnblock1,810.7999999998137,img/planet15_right.png,15,Community 3,NA,TRUE,j,j,NA,NA,NA,4,6,"10,13,7,9,1,11,14,6,8,2,5,15,3,4,12"
14093,commdev-image-keyboard-response,337,780316,learnblock1,830.7000000001863,img/planet12_right.png,12,Community 3,NA,TRUE,j,j,NA,NA,NA,4,6,"10,13,7,9,1,11,14,6,8,2,5,15,3,4,12"
14093,commdev-image-keyboard-response,338,781568,learnblock1,914.5,img/planet5_right.png,5,Community 3,NA,TRUE,j,j,NA,NA,NA,4,6,"10,13,7,9,1,11,14,6,8,2,5,15,3,4,12"
14093,commdev-image-keyboard-response,339,782819,learnblock1,735,img/planet4_left.png,4,Community 3,NA,TRUE,f,f,NA,NA,NA,4,6,"10,13,7,9,1,11,14,6,8,2,5,15,3,4,12"
14093,commdev-image-keyboard-response,340,784071,learnblock1,699.7999999998137,img/planet5_left.png,5,Community 3,NA,FALSE,j,f,NA,NA,NA,4,6,"10,13,7,9,1,11,14,6,8,2,5,15,3,4,12"
14093,commdev-image-keyboard-response,341,785323,learnblock1,727.5,img/planet4_right.png,4,Community 3,NA,TRUE,j,j,NA,NA,NA,4,6,"10,13,7,9,1,11,14,6,8,2,5,15,3,4,12"
14093,commdev-image-keyboard-response,342,786574,learnblock1,579.6999999992549,img/planet12_left.png,12,Community 3,NA,TRUE,f,f,NA,NA,NA,4,6,"10,13,7,9,1,11,14,6,8,2,5,15,3,4,12"
14093,commdev-image-keyboard-response,343,787826,learnblock1,752.1999999992549,img/planet3_left.png,3,Community 3,NA,TRUE,f,f,NA,NA,NA,4,6,"10,13,7,9,1,11,14,6,8,2,5,15,3,4,12"
14093,commdev-image-keyboard-response,344,789079,learnblock1,604.1999999992549,img/planet5_right.png,5,Community 3,NA,TRUE,j,j,NA,NA,NA,4,6,"10,13,7,9,1,11,14,6,8,2,5,15,3,4,12"
14093,commdev-image-keyboard-response,345,790331,learnblock1,519.7999999998137,img/planet3_left.png,3,Community 3,NA,TRUE,f,f,NA,NA,NA,4,6,"10,13,7,9,1,11,14,6,8,2,5,15,3,4,12"
14093,commdev-image-keyboard-response,346,791582,learnblock1,627.6999999992549,img/planet15_left.png,15,Community 3,NA,TRUE,f,f,NA,NA,NA,4,6,"10,13,7,9,1,11,14,6,8,2,5,15,3,4,12"
14093,commdev-image-keyboard-response,347,792833,learnblock1,784.5,img/planet3_left.png,3,Community 3,NA,TRUE,f,f,NA,NA,NA,4,6,"10,13,7,9,1,11,14,6,8,2,5,15,3,4,12"
14093,commdev-image-keyboard-response,351,1220652,learnblock2,631.0999999996275,img/planet15_left.png,15,Community 3,NA,TRUE,f,f,NA,NA,NA,4,6,"10,13,7,9,1,11,14,6,8,2,5,15,3,4,12"
14093,commdev-image-keyboard-response,352,1221904,learnblock2,196,img/planet4_left.png,4,Community 3,NA,TRUE,f,f,NA,NA,NA,4,6,"10,13,7,9,1,11,14,6,8,2,5,15,3,4,12"
14093,commdev-image-keyboard-response,353,1223156,learnblock2,752.0999999996275,img/planet12_right.png,12,Community 3,NA,TRUE,j,j,NA,NA,NA,4,6,"10,13,7,9,1,11,14,6,8,2,5,15,3,4,12"
14093,commdev-image-keyboard-response,354,1224408,learnblock2,571.6999999992549,img/planet4_left.png,4,Community 3,NA,TRUE,f,f,NA,NA,NA,4,6,"10,13,7,9,1,11,14,6,8,2,5,15,3,4,12"
14093,commdev-image-keyboard-response,355,1225660,learnblock2,495.80000000074506,img/planet15_right.png,15,Community 3,NA,TRUE,j,j,NA,NA,NA,4,6,"10,13,7,9,1,11,14,6,8,2,5,15,3,4,12"
14093,commdev-image-keyboard-response,356,1226912,learnblock2,571.6999999992549,img/planet12_right.png,12,Community 3,NA,TRUE,j,j,NA,NA,NA,4,6,"10,13,7,9,1,11,14,6,8,2,5,15,3,4,12"
14093,commdev-image-keyboard-response,357,1228164,learnblock2,519.9000000003725,img/planet3_left.png,3,Community 3,NA,TRUE,f,f,NA,NA,NA,4,6,"10,13,7,9,1,11,14,6,8,2,5,15,3,4,12"
14093,commdev-image-keyboard-response,358,1229415,learnblock2,491.59999999962747,img/planet15_left.png,15,Community 3,NA,TRUE,f,f,NA,NA,NA,4,6,"10,13,7,9,1,11,14,6,8,2,5,15,3,4,12"
14093,commdev-image-keyboard-response,359,1230667,learnblock2,568.2999999988824,img/planet3_right.png,3,Community 3,NA,TRUE,j,j,NA,NA,NA,4,6,"10,13,7,9,1,11,14,6,8,2,5,15,3,4,12"
14093,commdev-image-keyboard-response,360,1231919,learnblock2,652.5,img/planet15_right.png,15,Community 3,NA,TRUE,j,j,NA,NA,NA,4,6,"10,13,7,9,1,11,14,6,8,2,5,15,3,4,12"
14093,commdev-image-keyboard-response,361,1233171,learnblock2,584.5999999996275,img/planet3_left.png,3,Community 3,NA,TRUE,f,f,NA,NA,NA,4,6,"10,13,7,9,1,11,14,6,8,2,5,15,3,4,12"
14093,commdev-image-keyboard-response,362,1234423,learnblock2,724.6999999992549,img/planet4_left.png,4,Community 3,NA,TRUE,f,f,NA,NA,NA,4,6,"10,13,7,9,1,11,14,6,8,2,5,15,3,4,12"
14093,commdev-image-keyboard-response,363,1235674,learnblock2,624.8000000007451,img/planet12_right.png,12,Community 3,NA,TRUE,j,j,NA,NA,NA,4,6,"10,13,7,9,1,11,14,6,8,2,5,15,3,4,12"
14093,commdev-image-keyboard-response,364,1236926,learnblock2,701,img/planet3_right.png,3,Community 3,NA,TRUE,j,j,NA,NA,NA,4,6,"10,13,7,9,1,11,14,6,8,2,5,15,3,4,12"
14093,commdev-image-keyboard-response,365,1238177,learnblock2,745.4000000003725,img/planet4_left.png,4,Community 3,NA,TRUE,f,f,NA,NA,NA,4,6,"10,13,7,9,1,11,14,6,8,2,5,15,3,4,12"
14093,commdev-image-keyboard-response,366,1239430,learnblock2,613.9000000003725,img/planet3_right.png,3,Community 3,NA,TRUE,j,j,NA,NA,NA,4,6,"10,13,7,9,1,11,14,6,8,2,5,15,3,4,12"
14093,commdev-image-keyboard-response,367,1240682,learnblock2,649.6999999992549,img/planet5_left.png,5,Community 3,NA,TRUE,f,f,NA,NA,NA,4,6,"10,13,7,9,1,11,14,6,8,2,5,15,3,4,12"
14093,commdev-image-keyboard-response,368,1241934,learnblock2,749.5999999996275,img/planet4_left.png,4,Community 3,NA,TRUE,f,f,NA,NA,NA,4,6,"10,13,7,9,1,11,14,6,8,2,5,15,3,4,12"
14093,commdev-image-keyboard-response,369,1243185,learnblock2,585.5999999996275,img/planet3_right.png,3,Community 3,NA,TRUE,j,j,NA,NA,NA,4,6,"10,13,7,9,1,11,14,6,8,2,5,15,3,4,12"
14093,commdev-image-keyboard-response,370,1244437,learnblock2,781.6999999992549,img/planet15_right.png,15,Community 3,NA,FALSE,f,j,NA,NA,NA,4,6,"10,13,7,9,1,11,14,6,8,2,5,15,3,4,12"
14093,commdev-image-keyboard-response,371,1245689,learnblock2,866.1000000014901,img/planet6_left.png,6,Community 2,NA,TRUE,f,f,NA,NA,NA,4,6,"10,13,7,9,1,11,14,6,8,2,5,15,3,4,12"
14093,commdev-image-keyboard-response,372,1246941,learnblock2,765.6999999992549,img/planet8_left.png,8,Community 2,NA,TRUE,f,f,NA,NA,NA,4,6,"10,13,7,9,1,11,14,6,8,2,5,15,3,4,12"
14093,commdev-image-keyboard-response,373,1248193,learnblock2,705.5999999996275,img/planet14_left.png,14,Community 2,NA,TRUE,f,f,NA,NA,NA,4,6,"10,13,7,9,1,11,14,6,8,2,5,15,3,4,12"
14093,commdev-image-keyboard-response,374,1249444,learnblock2,565.6999999992549,img/planet6_right.png,6,Community 2,NA,TRUE,j,j,NA,NA,NA,4,6,"10,13,7,9,1,11,14,6,8,2,5,15,3,4,12"
14093,commdev-image-keyboard-response,375,1250696,learnblock2,994.8999999985099,img/planet15_right.png,15,Community 3,NA,TRUE,j,j,NA,NA,NA,4,6,"10,13,7,9,1,11,14,6,8,2,5,15,3,4,12"
14093,commdev-image-keyboard-response,376,1251948,learnblock2,846.8000000007451,img/planet4_right.png,4,Community 3,NA,TRUE,j,j,NA,NA,NA,4,6,"10,13,7,9,1,11,14,6,8,2,5,15,3,4,12"
14093,commdev-image-keyboard-response,377,1253200,learnblock2,594.7999999988824,img/planet15_left.png,15,Community 3,NA,TRUE,f,f,NA,NA,NA,4,6,"10,13,7,9,1,11,14,6,8,2,5,15,3,4,12"
14093,commdev-image-keyboard-response,378,1254451,learnblock2,766.5,img/planet4_left.png,4,Community 3,NA,TRUE,f,f,NA,NA,NA,4,6,"10,13,7,9,1,11,14,6,8,2,5,15,3,4,12"
14093,commdev-image-keyboard-response,379,1255702,learnblock2,571.5999999996275,img/planet15_left.png,15,Community 3,NA,TRUE,f,f,NA,NA,NA,4,6,"10,13,7,9,1,11,14,6,8,2,5,15,3,4,12"
14093,commdev-image-keyboard-response,380,1256953,learnblock2,728.5999999996275,img/planet6_right.png,6,Community 2,NA,TRUE,j,j,NA,NA,NA,4,6,"10,13,7,9,1,11,14,6,8,2,5,15,3,4,12"
14093,commdev-image-keyboard-response,381,1258205,learnblock2,757.4000000003725,img/planet8_left.png,8,Community 2,NA,TRUE,f,f,NA,NA,NA,4,6,"10,13,7,9,1,11,14,6,8,2,5,15,3,4,12"
14093,commdev-image-keyboard-response,382,1259456,learnblock2,633.6999999992549,img/planet2_left.png,2,Community 2,NA,TRUE,f,f,NA,NA,NA,4,6,"10,13,7,9,1,11,14,6,8,2,5,15,3,4,12"
14093,commdev-image-keyboard-response,383,1260709,learnblock2,822.0999999996275,img/planet6_left.png,6,Community 2,NA,TRUE,f,f,NA,NA,NA,4,6,"10,13,7,9,1,11,14,6,8,2,5,15,3,4,12"
14093,commdev-image-keyboard-response,384,1261961,learnblock2,577.5999999996275,img/planet2_left.png,2,Community 2,NA,TRUE,f,f,NA,NA,NA,4,6,"10,13,7,9,1,11,14,6,8,2,5,15,3,4,12"
14093,commdev-image-keyboard-response,385,1263213,learnblock2,733.6999999992549,img/planet14_right.png,14,Community 2,NA,TRUE,j,j,NA,NA,NA,4,6,"10,13,7,9,1,11,14,6,8,2,5,15,3,4,12"
14093,commdev-image-keyboard-response,386,1264465,learnblock2,713.5999999996275,img/planet6_left.png,6,Community 2,NA,TRUE,f,f,NA,NA,NA,4,6,"10,13,7,9,1,11,14,6,8,2,5,15,3,4,12"
14093,commdev-image-keyboard-response,387,1265718,learnblock2,589.0999999996275,img/planet15_right.png,15,Community 3,NA,TRUE,j,j,NA,NA,NA,4,6,"10,13,7,9,1,11,14,6,8,2,5,15,3,4,12"
14093,commdev-image-keyboard-response,388,1266969,learnblock2,480.59999999962747,img/planet3_right.png,3,Community 3,NA,TRUE,j,j,NA,NA,NA,4,6,"10,13,7,9,1,11,14,6,8,2,5,15,3,4,12"
14093,commdev-image-keyboard-response,389,1268221,learnblock2,525.6000000014901,img/planet15_right.png,15,Community 3,NA,FALSE,f,j,NA,NA,NA,4,6,"10,13,7,9,1,11,14,6,8,2,5,15,3,4,12"
14093,commdev-image-keyboard-response,390,1269474,learnblock2,513.0999999996275,img/planet4_left.png,4,Community 3,NA,TRUE,f,f,NA,NA,NA,4,6,"10,13,7,9,1,11,14,6,8,2,5,15,3,4,12"
14093,commdev-image-keyboard-response,391,1270726,learnblock2,540.5,img/planet5_left.png,5,Community 3,NA,TRUE,f,f,NA,NA,NA,4,6,"10,13,7,9,1,11,14,6,8,2,5,15,3,4,12"
14093,commdev-image-keyboard-response,392,1271977,learnblock2,688.5,img/planet12_right.png,12,Community 3,NA,TRUE,j,j,NA,NA,NA,4,6,"10,13,7,9,1,11,14,6,8,2,5,15,3,4,12"
14093,commdev-image-keyboard-response,393,1273229,learnblock2,533.2999999988824,img/planet4_right.png,4,Community 3,NA,TRUE,j,j,NA,NA,NA,4,6,"10,13,7,9,1,11,14,6,8,2,5,15,3,4,12"
14093,commdev-image-keyboard-response,394,1274480,learnblock2,481.59999999962747,img/planet12_right.png,12,Community 3,NA,TRUE,j,j,NA,NA,NA,4,6,"10,13,7,9,1,11,14,6,8,2,5,15,3,4,12"
14093,commdev-image-keyboard-response,395,1275731,learnblock2,733.5999999996275,img/planet15_left.png,15,Community 3,NA,TRUE,f,f,NA,NA,NA,4,6,"10,13,7,9,1,11,14,6,8,2,5,15,3,4,12"
14093,commdev-image-keyboard-response,396,1276982,learnblock2,818.6999999992549,img/planet3_left.png,3,Community 3,NA,TRUE,f,f,NA,NA,NA,4,6,"10,13,7,9,1,11,14,6,8,2,5,15,3,4,12"
14093,commdev-image-keyboard-response,397,1278234,learnblock2,783.7999999988824,img/planet4_right.png,4,Community 3,NA,TRUE,j,j,NA,NA,NA,4,6,"10,13,7,9,1,11,14,6,8,2,5,15,3,4,12"
14093,commdev-image-keyboard-response,398,1279486,learnblock2,627.5999999996275,img/planet15_left.png,15,Community 3,NA,TRUE,f,f,NA,NA,NA,4,6,"10,13,7,9,1,11,14,6,8,2,5,15,3,4,12"
14093,commdev-image-keyboard-response,399,1280737,learnblock2,720.0999999996275,img/planet6_right.png,6,Community 2,NA,TRUE,j,j,NA,NA,NA,4,6,"10,13,7,9,1,11,14,6,8,2,5,15,3,4,12"
14093,commdev-image-keyboard-response,400,1281989,learnblock2,748.4000000003725,img/planet2_right.png,2,Community 2,NA,TRUE,j,j,NA,NA,NA,4,6,"10,13,7,9,1,11,14,6,8,2,5,15,3,4,12"
14093,commdev-image-keyboard-response,401,1283240,learnblock2,984.2000000011176,img/planet8_right.png,8,Community 2,NA,TRUE,j,j,NA,NA,NA,4,6,"10,13,7,9,1,11,14,6,8,2,5,15,3,4,12"
14093,commdev-image-keyboard-response,402,1284493,learnblock2,909.5,img/planet6_right.png,6,Community 2,NA,TRUE,j,j,NA,NA,NA,4,6,"10,13,7,9,1,11,14,6,8,2,5,15,3,4,12"
14093,commdev-image-keyboard-response,403,1285745,learnblock2,936.7999999988824,img/planet15_left.png,15,Community 3,NA,TRUE,f,f,NA,NA,NA,4,6,"10,13,7,9,1,11,14,6,8,2,5,15,3,4,12"
14093,commdev-image-keyboard-response,404,1286997,learnblock2,604.7999999988824,img/planet3_right.png,3,Community 3,NA,TRUE,j,j,NA,NA,NA,4,6,"10,13,7,9,1,11,14,6,8,2,5,15,3,4,12"
14093,commdev-image-keyboard-response,405,1288248,learnblock2,449.09999999962747,img/planet15_right.png,15,Community 3,NA,FALSE,f,j,NA,NA,NA,4,6,"10,13,7,9,1,11,14,6,8,2,5,15,3,4,12"
14093,commdev-image-keyboard-response,406,1289500,learnblock2,509.5,img/planet6_left.png,6,Community 2,NA,TRUE,f,f,NA,NA,NA,4,6,"10,13,7,9,1,11,14,6,8,2,5,15,3,4,12"
14093,commdev-image-keyboard-response,407,1290753,learnblock2,809.4000000003725,img/planet15_right.png,15,Community 3,NA,TRUE,j,j,NA,NA,NA,4,6,"10,13,7,9,1,11,14,6,8,2,5,15,3,4,12"
14093,commdev-image-keyboard-response,408,1292005,learnblock2,708.5999999996275,img/planet6_left.png,6,Community 2,NA,TRUE,f,f,NA,NA,NA,4,6,"10,13,7,9,1,11,14,6,8,2,5,15,3,4,12"
14093,commdev-image-keyboard-response,409,1293256,learnblock2,944.5,img/planet14_left.png,14,Community 2,NA,TRUE,f,f,NA,NA,NA,4,6,"10,13,7,9,1,11,14,6,8,2,5,15,3,4,12"
14093,commdev-image-keyboard-response,410,1294508,learnblock2,613.1999999992549,img/planet6_right.png,6,Community 2,NA,TRUE,j,j,NA,NA,NA,4,6,"10,13,7,9,1,11,14,6,8,2,5,15,3,4,12"
14093,commdev-image-keyboard-response,411,1295759,learnblock2,673.5,img/planet8_left.png,8,Community 2,NA,TRUE,f,f,NA,NA,NA,4,6,"10,13,7,9,1,11,14,6,8,2,5,15,3,4,12"
14093,commdev-image-keyboard-response,412,1297010,learnblock2,486.5,img/planet2_right.png,2,Community 2,NA,TRUE,j,j,NA,NA,NA,4,6,"10,13,7,9,1,11,14,6,8,2,5,15,3,4,12"
14093,commdev-image-keyboard-response,413,1298263,learnblock2,618.8999999985099,img/planet11_right.png,11,Community 2,NA,TRUE,j,j,NA,NA,NA,4,6,"10,13,7,9,1,11,14,6,8,2,5,15,3,4,12"
14093,commdev-image-keyboard-response,414,1299515,learnblock2,590.6999999992549,img/planet8_right.png,8,Community 2,NA,TRUE,j,j,NA,NA,NA,4,6,"10,13,7,9,1,11,14,6,8,2,5,15,3,4,12"
14093,commdev-image-keyboard-response,415,1300767,learnblock2,553.9000000003725,img/planet6_right.png,6,Community 2,NA,TRUE,j,j,NA,NA,NA,4,6,"10,13,7,9,1,11,14,6,8,2,5,15,3,4,12"
14093,commdev-image-keyboard-response,416,1302018,learnblock2,630.5,img/planet2_left.png,2,Community 2,NA,TRUE,f,f,NA,NA,NA,4,6,"10,13,7,9,1,11,14,6,8,2,5,15,3,4,12"
14093,commdev-image-keyboard-response,417,1303270,learnblock2,834.6999999992549,img/planet8_right.png,8,Community 2,NA,TRUE,j,j,NA,NA,NA,4,6,"10,13,7,9,1,11,14,6,8,2,5,15,3,4,12"
14093,commdev-image-keyboard-response,418,1304522,learnblock2,742.5999999996275,img/planet6_left.png,6,Community 2,NA,TRUE,f,f,NA,NA,NA,4,6,"10,13,7,9,1,11,14,6,8,2,5,15,3,4,12"
14093,commdev-image-keyboard-response,419,1305774,learnblock2,706.5999999996275,img/planet8_right.png,8,Community 2,NA,TRUE,j,j,NA,NA,NA,4,6,"10,13,7,9,1,11,14,6,8,2,5,15,3,4,12"
14093,commdev-image-keyboard-response,420,1307026,learnblock2,838.5,img/planet14_right.png,14,Community 2,NA,TRUE,j,j,NA,NA,NA,4,6,"10,13,7,9,1,11,14,6,8,2,5,15,3,4,12"
14093,commdev-image-keyboard-response,421,1308279,learnblock2,738.2999999988824,img/planet6_left.png,6,Community 2,NA,TRUE,f,f,NA,NA,NA,4,6,"10,13,7,9,1,11,14,6,8,2,5,15,3,4,12"
14093,commdev-image-keyboard-response,422,1309531,learnblock2,1038.6000000014901,img/planet8_left.png,8,Community 2,NA,TRUE,f,f,NA,NA,NA,4,6,"10,13,7,9,1,11,14,6,8,2,5,15,3,4,12"
14093,commdev-image-keyboard-response,423,1310783,learnblock2,601.6999999992549,img/planet14_right.png,14,Community 2,NA,TRUE,j,j,NA,NA,NA,4,6,"10,13,7,9,1,11,14,6,8,2,5,15,3,4,12"
14093,commdev-image-keyboard-response,424,1312035,learnblock2,685.5,img/planet8_right.png,8,Community 2,NA,TRUE,j,j,NA,NA,NA,4,6,"10,13,7,9,1,11,14,6,8,2,5,15,3,4,12"
14093,commdev-image-keyboard-response,425,1313287,learnblock2,753.5999999996275,img/planet2_right.png,2,Community 2,NA,TRUE,j,j,NA,NA,NA,4,6,"10,13,7,9,1,11,14,6,8,2,5,15,3,4,12"
14093,commdev-image-keyboard-response,426,1314539,learnblock2,606,img/planet14_left.png,14,Community 2,NA,TRUE,f,f,NA,NA,NA,4,6,"10,13,7,9,1,11,14,6,8,2,5,15,3,4,12"
14093,commdev-image-keyboard-response,427,1315791,learnblock2,593.9000000003725,img/planet6_right.png,6,Community 2,NA,TRUE,j,j,NA,NA,NA,4,6,"10,13,7,9,1,11,14,6,8,2,5,15,3,4,12"
14093,commdev-image-keyboard-response,428,1317043,learnblock2,613.6999999992549,img/planet14_right.png,14,Community 2,NA,TRUE,j,j,NA,NA,NA,4,6,"10,13,7,9,1,11,14,6,8,2,5,15,3,4,12"
14093,commdev-image-keyboard-response,429,1318294,learnblock2,721.4000000003725,img/planet6_left.png,6,Community 2,NA,TRUE,f,f,NA,NA,NA,4,6,"10,13,7,9,1,11,14,6,8,2,5,15,3,4,12"
14093,commdev-image-keyboard-response,430,1319547,learnblock2,661.7000000011176,img/planet2_left.png,2,Community 2,NA,TRUE,f,f,NA,NA,NA,4,6,"10,13,7,9,1,11,14,6,8,2,5,15,3,4,12"
14093,commdev-image-keyboard-response,431,1320798,learnblock2,657.9000000003725,img/planet8_right.png,8,Community 2,NA,TRUE,j,j,NA,NA,NA,4,6,"10,13,7,9,1,11,14,6,8,2,5,15,3,4,12"
14093,commdev-image-keyboard-response,432,1322050,learnblock2,613.3999999985099,img/planet11_left.png,11,Community 2,NA,TRUE,f,f,NA,NA,NA,4,6,"10,13,7,9,1,11,14,6,8,2,5,15,3,4,12"
14093,commdev-image-keyboard-response,433,1323302,learnblock2,554.1999999992549,img/planet2_right.png,2,Community 2,NA,TRUE,j,j,NA,NA,NA,4,6,"10,13,7,9,1,11,14,6,8,2,5,15,3,4,12"
14093,commdev-image-keyboard-response,434,1324554,learnblock2,622.5,img/planet11_right.png,11,Community 2,NA,TRUE,j,j,NA,NA,NA,4,6,"10,13,7,9,1,11,14,6,8,2,5,15,3,4,12"
14093,commdev-image-keyboard-response,435,1325806,learnblock2,706.5999999996275,img/planet8_left.png,8,Community 2,NA,TRUE,f,f,NA,NA,NA,4,6,"10,13,7,9,1,11,14,6,8,2,5,15,3,4,12"
14093,commdev-image-keyboard-response,436,1327058,learnblock2,646.5999999996275,img/planet11_right.png,11,Community 2,NA,TRUE,j,j,NA,NA,NA,4,6,"10,13,7,9,1,11,14,6,8,2,5,15,3,4,12"
14093,commdev-image-keyboard-response,437,1328310,learnblock2,618.4000000003725,img/planet2_left.png,2,Community 2,NA,TRUE,f,f,NA,NA,NA,4,6,"10,13,7,9,1,11,14,6,8,2,5,15,3,4,12"
14093,commdev-image-keyboard-response,438,1329562,learnblock2,710.5,img/planet6_left.png,6,Community 2,NA,TRUE,f,f,NA,NA,NA,4,6,"10,13,7,9,1,11,14,6,8,2,5,15,3,4,12"
14093,commdev-image-keyboard-response,439,1330814,learnblock2,682.7000000011176,img/planet14_left.png,14,Community 2,NA,TRUE,f,f,NA,NA,NA,4,6,"10,13,7,9,1,11,14,6,8,2,5,15,3,4,12"
14093,commdev-image-keyboard-response,440,1332065,learnblock2,630.2999999988824,img/planet6_right.png,6,Community 2,NA,TRUE,j,j,NA,NA,NA,4,6,"10,13,7,9,1,11,14,6,8,2,5,15,3,4,12"
14093,commdev-image-keyboard-response,441,1333317,learnblock2,698.6999999992549,img/planet2_right.png,2,Community 2,NA,TRUE,j,j,NA,NA,NA,4,6,"10,13,7,9,1,11,14,6,8,2,5,15,3,4,12"
14093,commdev-image-keyboard-response,442,1334569,learnblock2,552.8000000007451,img/planet6_left.png,6,Community 2,NA,TRUE,f,f,NA,NA,NA,4,6,"10,13,7,9,1,11,14,6,8,2,5,15,3,4,12"
14093,commdev-image-keyboard-response,443,1335820,learnblock2,523.1999999992549,img/planet8_right.png,8,Community 2,NA,TRUE,j,j,NA,NA,NA,4,6,"10,13,7,9,1,11,14,6,8,2,5,15,3,4,12"
14093,commdev-image-keyboard-response,444,1337072,learnblock2,616.1999999992549,img/planet2_right.png,2,Community 2,NA,TRUE,j,j,NA,NA,NA,4,6,"10,13,7,9,1,11,14,6,8,2,5,15,3,4,12"
14093,commdev-image-keyboard-response,445,1338324,learnblock2,700.1999999992549,img/planet11_left.png,11,Community 2,NA,TRUE,f,f,NA,NA,NA,4,6,"10,13,7,9,1,11,14,6,8,2,5,15,3,4,12"
14093,commdev-image-keyboard-response,446,1339576,learnblock2,535.6999999992549,img/planet9_right.png,9,Community 1,NA,TRUE,j,j,NA,NA,NA,4,6,"10,13,7,9,1,11,14,6,8,2,5,15,3,4,12"
14093,commdev-image-keyboard-response,447,1340828,learnblock2,611.6999999992549,img/planet13_right.png,13,Community 1,NA,TRUE,j,j,NA,NA,NA,4,6,"10,13,7,9,1,11,14,6,8,2,5,15,3,4,12"
14093,commdev-image-keyboard-response,448,1342080,learnblock2,624.1999999992549,img/planet7_left.png,7,Community 1,NA,TRUE,f,f,NA,NA,NA,4,6,"10,13,7,9,1,11,14,6,8,2,5,15,3,4,12"
14093,commdev-image-keyboard-response,449,1343331,learnblock2,539.5,img/planet10_right.png,10,Community 1,NA,TRUE,j,j,NA,NA,NA,4,6,"10,13,7,9,1,11,14,6,8,2,5,15,3,4,12"
14093,commdev-image-keyboard-response,450,1344582,learnblock2,528.4000000003725,img/planet13_left.png,13,Community 1,NA,TRUE,f,f,NA,NA,NA,4,6,"10,13,7,9,1,11,14,6,8,2,5,15,3,4,12"
14093,commdev-image-keyboard-response,451,1345834,learnblock2,565.5,img/planet10_right.png,10,Community 1,NA,TRUE,j,j,NA,NA,NA,4,6,"10,13,7,9,1,11,14,6,8,2,5,15,3,4,12"
14093,commdev-image-keyboard-response,452,1347086,learnblock2,561.8000000007451,img/planet13_right.png,13,Community 1,NA,TRUE,j,j,NA,NA,NA,4,6,"10,13,7,9,1,11,14,6,8,2,5,15,3,4,12"
14093,commdev-image-keyboard-response,453,1348337,learnblock2,662,img/planet1_right.png,1,Community 1,NA,TRUE,j,j,NA,NA,NA,4,6,"10,13,7,9,1,11,14,6,8,2,5,15,3,4,12"
14093,commdev-image-keyboard-response,454,1349589,learnblock2,666.5999999996275,img/planet7_right.png,7,Community 1,NA,TRUE,j,j,NA,NA,NA,4,6,"10,13,7,9,1,11,14,6,8,2,5,15,3,4,12"
14093,commdev-image-keyboard-response,455,1350841,learnblock2,894.4000000003725,img/planet9_right.png,9,Community 1,NA,TRUE,j,j,NA,NA,NA,4,6,"10,13,7,9,1,11,14,6,8,2,5,15,3,4,12"
14093,commdev-image-keyboard-response,456,1352094,learnblock2,586.4000000003725,img/planet11_left.png,11,Community 2,NA,TRUE,f,f,NA,NA,NA,4,6,"10,13,7,9,1,11,14,6,8,2,5,15,3,4,12"
14093,commdev-image-keyboard-response,457,1353345,learnblock2,653.9000000003725,img/planet8_right.png,8,Community 2,NA,TRUE,j,j,NA,NA,NA,4,6,"10,13,7,9,1,11,14,6,8,2,5,15,3,4,12"
14093,commdev-image-keyboard-response,458,1354597,learnblock2,658.6999999992549,img/planet6_right.png,6,Community 2,NA,TRUE,j,j,NA,NA,NA,4,6,"10,13,7,9,1,11,14,6,8,2,5,15,3,4,12"
14093,commdev-image-keyboard-response,459,1355849,learnblock2,590.5,img/planet2_right.png,2,Community 2,NA,TRUE,j,j,NA,NA,NA,4,6,"10,13,7,9,1,11,14,6,8,2,5,15,3,4,12"
14093,commdev-image-keyboard-response,460,1357101,learnblock2,650.5999999996275,img/planet8_right.png,8,Community 2,NA,TRUE,j,j,NA,NA,NA,4,6,"10,13,7,9,1,11,14,6,8,2,5,15,3,4,12"
14093,commdev-image-keyboard-response,461,1358353,learnblock2,613.9000000003725,img/planet6_left.png,6,Community 2,NA,FALSE,j,f,NA,NA,NA,4,6,"10,13,7,9,1,11,14,6,8,2,5,15,3,4,12"
14093,commdev-image-keyboard-response,462,1359605,learnblock2,554.6999999992549,img/planet2_right.png,2,Community 2,NA,TRUE,j,j,NA,NA,NA,4,6,"10,13,7,9,1,11,14,6,8,2,5,15,3,4,12"
14093,commdev-image-keyboard-response,463,1360857,learnblock2,838.5999999996275,img/planet6_right.png,6,Community 2,NA,TRUE,j,j,NA,NA,NA,4,6,"10,13,7,9,1,11,14,6,8,2,5,15,3,4,12"
14093,commdev-image-keyboard-response,464,1362109,learnblock2,610.5,img/planet15_left.png,15,Community 3,NA,TRUE,f,f,NA,NA,NA,4,6,"10,13,7,9,1,11,14,6,8,2,5,15,3,4,12"
14093,commdev-image-keyboard-response,465,1363360,learnblock2,638.4000000003725,img/planet12_left.png,12,Community 3,NA,TRUE,f,f,NA,NA,NA,4,6,"10,13,7,9,1,11,14,6,8,2,5,15,3,4,12"
14093,commdev-image-keyboard-response,466,1364613,learnblock2,554.7999999988824,img/planet5_right.png,5,Community 3,NA,TRUE,j,j,NA,NA,NA,4,6,"10,13,7,9,1,11,14,6,8,2,5,15,3,4,12"
14093,commdev-image-keyboard-response,467,1365864,learnblock2,654.5,img/planet12_left.png,12,Community 3,NA,TRUE,f,f,NA,NA,NA,4,6,"10,13,7,9,1,11,14,6,8,2,5,15,3,4,12"
14093,commdev-image-keyboard-response,468,1367116,learnblock2,1114.7999999988824,img/planet4_right.png,4,Community 3,NA,TRUE,j,j,NA,NA,NA,4,6,"10,13,7,9,1,11,14,6,8,2,5,15,3,4,12"
14093,commdev-image-keyboard-response,469,1368367,learnblock2,623,img/planet15_left.png,15,Community 3,NA,TRUE,f,f,NA,NA,NA,4,6,"10,13,7,9,1,11,14,6,8,2,5,15,3,4,12"
14093,commdev-image-keyboard-response,470,1369619,learnblock2,683.2999999988824,img/planet6_left.png,6,Community 2,NA,TRUE,f,f,NA,NA,NA,4,6,"10,13,7,9,1,11,14,6,8,2,5,15,3,4,12"
14093,commdev-image-keyboard-response,471,1370872,learnblock2,783.5,img/planet15_left.png,15,Community 3,NA,TRUE,f,f,NA,NA,NA,4,6,"10,13,7,9,1,11,14,6,8,2,5,15,3,4,12"
14093,commdev-image-keyboard-response,472,1372124,learnblock2,531,img/planet3_right.png,3,Community 3,NA,TRUE,j,j,NA,NA,NA,4,6,"10,13,7,9,1,11,14,6,8,2,5,15,3,4,12"
14093,commdev-image-keyboard-response,473,1373376,learnblock2,822.5,img/planet4_right.png,4,Community 3,NA,TRUE,j,j,NA,NA,NA,4,6,"10,13,7,9,1,11,14,6,8,2,5,15,3,4,12"
14093,commdev-image-keyboard-response,474,1374628,learnblock2,715.3000000007451,img/planet15_right.png,15,Community 3,NA,TRUE,j,j,NA,NA,NA,4,6,"10,13,7,9,1,11,14,6,8,2,5,15,3,4,12"
14093,commdev-image-keyboard-response,475,1375880,learnblock2,638.5999999996275,img/planet12_right.png,12,Community 3,NA,TRUE,j,j,NA,NA,NA,4,6,"10,13,7,9,1,11,14,6,8,2,5,15,3,4,12"
14093,commdev-image-keyboard-response,476,1377132,learnblock2,586.4000000003725,img/planet3_right.png,3,Community 3,NA,TRUE,j,j,NA,NA,NA,4,6,"10,13,7,9,1,11,14,6,8,2,5,15,3,4,12"
14093,commdev-image-keyboard-response,477,1378384,learnblock2,750.6999999992549,img/planet15_right.png,15,Community 3,NA,TRUE,j,j,NA,NA,NA,4,6,"10,13,7,9,1,11,14,6,8,2,5,15,3,4,12"
14093,commdev-image-keyboard-response,478,1379636,learnblock2,634.6999999992549,img/planet12_left.png,12,Community 3,NA,TRUE,f,f,NA,NA,NA,4,6,"10,13,7,9,1,11,14,6,8,2,5,15,3,4,12"
14093,commdev-image-keyboard-response,479,1380887,learnblock2,630.7999999988824,img/planet5_right.png,5,Community 3,NA,TRUE,j,j,NA,NA,NA,4,6,"10,13,7,9,1,11,14,6,8,2,5,15,3,4,12"
14093,commdev-image-keyboard-response,480,1382138,learnblock2,691.2999999988824,img/planet3_right.png,3,Community 3,NA,TRUE,j,j,NA,NA,NA,4,6,"10,13,7,9,1,11,14,6,8,2,5,15,3,4,12"
14093,commdev-image-keyboard-response,481,1383391,learnblock2,560,img/planet15_left.png,15,Community 3,NA,TRUE,f,f,NA,NA,NA,4,6,"10,13,7,9,1,11,14,6,8,2,5,15,3,4,12"
14093,commdev-image-keyboard-response,482,1384642,learnblock2,635.6999999992549,img/planet3_left.png,3,Community 3,NA,TRUE,f,f,NA,NA,NA,4,6,"10,13,7,9,1,11,14,6,8,2,5,15,3,4,12"
14093,commdev-image-keyboard-response,483,1385894,learnblock2,696.5999999996275,img/planet4_left.png,4,Community 3,NA,TRUE,f,f,NA,NA,NA,4,6,"10,13,7,9,1,11,14,6,8,2,5,15,3,4,12"
14093,commdev-image-keyboard-response,484,1387146,learnblock2,732,img/planet12_left.png,12,Community 3,NA,TRUE,f,f,NA,NA,NA,4,6,"10,13,7,9,1,11,14,6,8,2,5,15,3,4,12"
14093,commdev-image-keyboard-response,485,1388398,learnblock2,712.4000000003725,img/planet15_right.png,15,Community 3,NA,TRUE,j,j,NA,NA,NA,4,6,"10,13,7,9,1,11,14,6,8,2,5,15,3,4,12"
14093,commdev-image-keyboard-response,486,1389651,learnblock2,660.0999999996275,img/planet4_left.png,4,Community 3,NA,TRUE,f,f,NA,NA,NA,4,6,"10,13,7,9,1,11,14,6,8,2,5,15,3,4,12"
14093,commdev-image-keyboard-response,487,1390903,learnblock2,567.5999999996275,img/planet5_right.png,5,Community 3,NA,TRUE,j,j,NA,NA,NA,4,6,"10,13,7,9,1,11,14,6,8,2,5,15,3,4,12"
14093,commdev-image-keyboard-response,488,1392155,learnblock2,811.5,img/planet3_right.png,3,Community 3,NA,TRUE,j,j,NA,NA,NA,4,6,"10,13,7,9,1,11,14,6,8,2,5,15,3,4,12"
14093,commdev-image-keyboard-response,489,1393407,learnblock2,558.6999999992549,img/planet15_left.png,15,Community 3,NA,TRUE,f,f,NA,NA,NA,4,6,"10,13,7,9,1,11,14,6,8,2,5,15,3,4,12"
14093,commdev-image-keyboard-response,490,1394658,learnblock2,771.5999999996275,img/planet3_left.png,3,Community 3,NA,TRUE,f,f,NA,NA,NA,4,6,"10,13,7,9,1,11,14,6,8,2,5,15,3,4,12"
14093,commdev-image-keyboard-response,491,1395909,learnblock2,544.3000000007451,img/planet12_right.png,12,Community 3,NA,TRUE,j,j,NA,NA,NA,4,6,"10,13,7,9,1,11,14,6,8,2,5,15,3,4,12"
14093,commdev-image-keyboard-response,492,1397160,learnblock2,813.5,img/planet3_left.png,3,Community 3,NA,TRUE,f,f,NA,NA,NA,4,6,"10,13,7,9,1,11,14,6,8,2,5,15,3,4,12"
14093,commdev-image-keyboard-response,493,1398413,learnblock2,593.5,img/planet15_left.png,15,Community 3,NA,TRUE,f,f,NA,NA,NA,4,6,"10,13,7,9,1,11,14,6,8,2,5,15,3,4,12"
14093,commdev-image-keyboard-response,494,1399665,learnblock2,932.9000000003725,img/planet12_left.png,12,Community 3,NA,TRUE,f,f,NA,NA,NA,4,6,"10,13,7,9,1,11,14,6,8,2,5,15,3,4,12"
14093,commdev-image-keyboard-response,495,1400918,learnblock2,984.3000000007451,img/planet3_left.png,3,Community 3,NA,TRUE,f,f,NA,NA,NA,4,6,"10,13,7,9,1,11,14,6,8,2,5,15,3,4,12"
14093,commdev-image-keyboard-response,496,1402170,learnblock2,811.9000000003725,img/planet12_left.png,12,Community 3,NA,TRUE,f,f,NA,NA,NA,4,6,"10,13,7,9,1,11,14,6,8,2,5,15,3,4,12"
14093,commdev-image-keyboard-response,497,1403422,learnblock2,704.0999999996275,img/planet3_left.png,3,Community 3,NA,TRUE,f,f,NA,NA,NA,4,6,"10,13,7,9,1,11,14,6,8,2,5,15,3,4,12"
14093,commdev-image-keyboard-response,498,1404674,learnblock2,675.5999999996275,img/planet15_right.png,15,Community 3,NA,TRUE,j,j,NA,NA,NA,4,6,"10,13,7,9,1,11,14,6,8,2,5,15,3,4,12"
14093,commdev-image-keyboard-response,499,1405926,learnblock2,600.2999999988824,img/planet3_right.png,3,Community 3,NA,TRUE,j,j,NA,NA,NA,4,6,"10,13,7,9,1,11,14,6,8,2,5,15,3,4,12"
14093,commdev-image-keyboard-response,500,1407177,learnblock2,635.5999999996275,img/planet4_right.png,4,Community 3,NA,TRUE,j,j,NA,NA,NA,4,6,"10,13,7,9,1,11,14,6,8,2,5,15,3,4,12"
14093,commdev-image-keyboard-response,501,1408429,learnblock2,648.6999999992549,img/planet12_left.png,12,Community 3,NA,TRUE,f,f,NA,NA,NA,4,6,"10,13,7,9,1,11,14,6,8,2,5,15,3,4,12"
14093,commdev-image-keyboard-response,502,1409681,learnblock2,716.1999999992549,img/planet3_left.png,3,Community 3,NA,TRUE,f,f,NA,NA,NA,4,6,"10,13,7,9,1,11,14,6,8,2,5,15,3,4,12"
14093,commdev-image-keyboard-response,503,1410934,learnblock2,616.3000000007451,img/planet15_right.png,15,Community 3,NA,TRUE,j,j,NA,NA,NA,4,6,"10,13,7,9,1,11,14,6,8,2,5,15,3,4,12"
14093,commdev-image-keyboard-response,504,1412185,learnblock2,908,img/planet6_right.png,6,Community 2,NA,TRUE,j,j,NA,NA,NA,4,6,"10,13,7,9,1,11,14,6,8,2,5,15,3,4,12"
14093,commdev-image-keyboard-response,505,1413437,learnblock2,1128.5999999996275,img/planet2_right.png,2,Community 2,NA,TRUE,j,j,NA,NA,NA,4,6,"10,13,7,9,1,11,14,6,8,2,5,15,3,4,12"
14093,commdev-image-keyboard-response,506,1414690,learnblock2,900.1999999992549,img/planet14_right.png,14,Community 2,NA,TRUE,j,j,NA,NA,NA,4,6,"10,13,7,9,1,11,14,6,8,2,5,15,3,4,12"
14093,commdev-image-keyboard-response,507,1415942,learnblock2,719.5,img/planet8_right.png,8,Community 2,NA,TRUE,j,j,NA,NA,NA,4,6,"10,13,7,9,1,11,14,6,8,2,5,15,3,4,12"
14093,commdev-image-keyboard-response,508,1417193,learnblock2,554.9000000003725,img/planet2_right.png,2,Community 2,NA,TRUE,j,j,NA,NA,NA,4,6,"10,13,7,9,1,11,14,6,8,2,5,15,3,4,12"
14093,commdev-image-keyboard-response,509,1418446,learnblock2,600,img/planet8_left.png,8,Community 2,NA,TRUE,f,f,NA,NA,NA,4,6,"10,13,7,9,1,11,14,6,8,2,5,15,3,4,12"
14093,commdev-image-keyboard-response,510,1419697,learnblock2,523.5999999996275,img/planet2_right.png,2,Community 2,NA,TRUE,j,j,NA,NA,NA,4,6,"10,13,7,9,1,11,14,6,8,2,5,15,3,4,12"
14093,commdev-image-keyboard-response,511,1420949,learnblock2,600.2999999988824,img/planet6_right.png,6,Community 2,NA,TRUE,j,j,NA,NA,NA,4,6,"10,13,7,9,1,11,14,6,8,2,5,15,3,4,12"
14093,commdev-image-keyboard-response,512,1422201,learnblock2,724.2999999988824,img/planet8_left.png,8,Community 2,NA,TRUE,f,f,NA,NA,NA,4,6,"10,13,7,9,1,11,14,6,8,2,5,15,3,4,12"
14093,commdev-image-keyboard-response,513,1423453,learnblock2,600.0999999996275,img/planet14_left.png,14,Community 2,NA,TRUE,f,f,NA,NA,NA,4,6,"10,13,7,9,1,11,14,6,8,2,5,15,3,4,12"
14093,commdev-image-keyboard-response,514,1424706,learnblock2,523.6999999992549,img/planet6_left.png,6,Community 2,NA,TRUE,f,f,NA,NA,NA,4,6,"10,13,7,9,1,11,14,6,8,2,5,15,3,4,12"
14093,commdev-image-keyboard-response,515,1425957,learnblock2,623.1999999992549,img/planet8_left.png,8,Community 2,NA,TRUE,f,f,NA,NA,NA,4,6,"10,13,7,9,1,11,14,6,8,2,5,15,3,4,12"
14093,commdev-image-keyboard-response,516,1427209,learnblock2,547.5,img/planet14_right.png,14,Community 2,NA,FALSE,f,j,NA,NA,NA,4,6,"10,13,7,9,1,11,14,6,8,2,5,15,3,4,12"
14093,commdev-image-keyboard-response,517,1428461,learnblock2,576.0999999996275,img/planet6_left.png,6,Community 2,NA,TRUE,f,f,NA,NA,NA,4,6,"10,13,7,9,1,11,14,6,8,2,5,15,3,4,12"
14093,commdev-image-keyboard-response,518,1429713,learnblock2,835.9000000003725,img/planet2_left.png,2,Community 2,NA,TRUE,f,f,NA,NA,NA,4,6,"10,13,7,9,1,11,14,6,8,2,5,15,3,4,12"
14093,commdev-image-keyboard-response,519,1430964,learnblock2,863.5,img/planet11_left.png,11,Community 2,NA,TRUE,f,f,NA,NA,NA,4,6,"10,13,7,9,1,11,14,6,8,2,5,15,3,4,12"
14093,commdev-image-keyboard-response,520,1432215,learnblock2,645.0999999996275,img/planet9_right.png,9,Community 1,NA,TRUE,j,j,NA,NA,NA,4,6,"10,13,7,9,1,11,14,6,8,2,5,15,3,4,12"
14093,commdev-image-keyboard-response,521,1433467,learnblock2,657.6999999992549,img/planet11_right.png,11,Community 2,NA,TRUE,j,j,NA,NA,NA,4,6,"10,13,7,9,1,11,14,6,8,2,5,15,3,4,12"
14093,commdev-image-keyboard-response,522,1434719,learnblock2,621.6999999992549,img/planet2_left.png,2,Community 2,NA,TRUE,f,f,NA,NA,NA,4,6,"10,13,7,9,1,11,14,6,8,2,5,15,3,4,12"
14093,commdev-image-keyboard-response,523,1435971,learnblock2,625.5,img/planet14_right.png,14,Community 2,NA,TRUE,j,j,NA,NA,NA,4,6,"10,13,7,9,1,11,14,6,8,2,5,15,3,4,12"
14093,commdev-image-keyboard-response,524,1437223,learnblock2,597.4000000003725,img/planet11_left.png,11,Community 2,NA,TRUE,f,f,NA,NA,NA,4,6,"10,13,7,9,1,11,14,6,8,2,5,15,3,4,12"
14093,commdev-image-keyboard-response,525,1438475,learnblock2,681.7999999988824,img/planet9_left.png,9,Community 1,NA,TRUE,f,f,NA,NA,NA,4,6,"10,13,7,9,1,11,14,6,8,2,5,15,3,4,12"
14093,commdev-image-keyboard-response,526,1439728,learnblock2,869.3999999985099,img/planet11_left.png,11,Community 2,NA,TRUE,f,f,NA,NA,NA,4,6,"10,13,7,9,1,11,14,6,8,2,5,15,3,4,12"
14093,commdev-image-keyboard-response,527,1440979,learnblock2,640.6999999992549,img/planet9_right.png,9,Community 1,NA,TRUE,j,j,NA,NA,NA,4,6,"10,13,7,9,1,11,14,6,8,2,5,15,3,4,12"
14093,commdev-image-keyboard-response,528,1442231,learnblock2,725.2999999988824,img/planet7_right.png,7,Community 1,NA,TRUE,j,j,NA,NA,NA,4,6,"10,13,7,9,1,11,14,6,8,2,5,15,3,4,12"
14093,commdev-image-keyboard-response,529,1443483,learnblock2,593.5999999996275,img/planet9_left.png,9,Community 1,NA,TRUE,f,f,NA,NA,NA,4,6,"10,13,7,9,1,11,14,6,8,2,5,15,3,4,12"
14093,commdev-image-keyboard-response,530,1444734,learnblock2,637.5,img/planet7_right.png,7,Community 1,NA,TRUE,j,j,NA,NA,NA,4,6,"10,13,7,9,1,11,14,6,8,2,5,15,3,4,12"
14093,commdev-image-keyboard-response,531,1445986,learnblock2,858.6999999992549,img/planet13_right.png,13,Community 1,NA,TRUE,j,j,NA,NA,NA,4,6,"10,13,7,9,1,11,14,6,8,2,5,15,3,4,12"
14093,commdev-image-keyboard-response,532,1447237,learnblock2,934.6999999992549,img/planet1_left.png,1,Community 1,NA,TRUE,f,f,NA,NA,NA,4,6,"10,13,7,9,1,11,14,6,8,2,5,15,3,4,12"
14093,commdev-image-keyboard-response,533,1448490,learnblock2,539.0999999996275,img/planet13_right.png,13,Community 1,NA,TRUE,j,j,NA,NA,NA,4,6,"10,13,7,9,1,11,14,6,8,2,5,15,3,4,12"
14093,commdev-image-keyboard-response,534,1449741,learnblock2,678.5,img/planet10_left.png,10,Community 1,NA,TRUE,f,f,NA,NA,NA,4,6,"10,13,7,9,1,11,14,6,8,2,5,15,3,4,12"
14093,commdev-image-keyboard-response,535,1450992,learnblock2,594.8999999985099,img/planet13_left.png,13,Community 1,NA,TRUE,f,f,NA,NA,NA,4,6,"10,13,7,9,1,11,14,6,8,2,5,15,3,4,12"
14093,commdev-image-keyboard-response,536,1452243,learnblock2,568,img/planet1_left.png,1,Community 1,NA,TRUE,f,f,NA,NA,NA,4,6,"10,13,7,9,1,11,14,6,8,2,5,15,3,4,12"
14093,commdev-image-keyboard-response,537,1453495,learnblock2,765.1999999992549,img/planet5_right.png,5,Community 3,NA,TRUE,j,j,NA,NA,NA,4,6,"10,13,7,9,1,11,14,6,8,2,5,15,3,4,12"
14093,commdev-image-keyboard-response,538,1454747,learnblock2,832.5999999996275,img/planet4_left.png,4,Community 3,NA,TRUE,f,f,NA,NA,NA,4,6,"10,13,7,9,1,11,14,6,8,2,5,15,3,4,12"
14093,commdev-image-keyboard-response,539,1455999,learnblock2,932.5999999996275,img/planet5_left.png,5,Community 3,NA,TRUE,f,f,NA,NA,NA,4,6,"10,13,7,9,1,11,14,6,8,2,5,15,3,4,12"
14093,commdev-image-keyboard-response,540,1457250,learnblock2,817,img/planet3_right.png,3,Community 3,NA,TRUE,j,j,NA,NA,NA,4,6,"10,13,7,9,1,11,14,6,8,2,5,15,3,4,12"
14093,commdev-image-keyboard-response,541,1458502,learnblock2,772.6000000014901,img/planet4_left.png,4,Community 3,NA,TRUE,f,f,NA,NA,NA,4,6,"10,13,7,9,1,11,14,6,8,2,5,15,3,4,12"
14093,commdev-image-keyboard-response,542,1459754,learnblock2,689.6999999992549,img/planet15_right.png,15,Community 3,NA,TRUE,j,j,NA,NA,NA,4,6,"10,13,7,9,1,11,14,6,8,2,5,15,3,4,12"
14093,commdev-image-keyboard-response,543,1461006,learnblock2,597.6999999992549,img/planet4_left.png,4,Community 3,NA,TRUE,f,f,NA,NA,NA,4,6,"10,13,7,9,1,11,14,6,8,2,5,15,3,4,12"
14093,commdev-image-keyboard-response,544,1462257,learnblock2,657.5999999996275,img/planet15_left.png,15,Community 3,NA,TRUE,f,f,NA,NA,NA,4,6,"10,13,7,9,1,11,14,6,8,2,5,15,3,4,12"
14093,commdev-image-keyboard-response,545,1463509,learnblock2,662.5999999996275,img/planet3_right.png,3,Community 3,NA,TRUE,j,j,NA,NA,NA,4,6,"10,13,7,9,1,11,14,6,8,2,5,15,3,4,12"
14093,commdev-image-keyboard-response,546,1464761,learnblock2,666.4000000003725,img/planet15_left.png,15,Community 3,NA,TRUE,f,f,NA,NA,NA,4,6,"10,13,7,9,1,11,14,6,8,2,5,15,3,4,12"
14093,commdev-image-keyboard-response,547,1466013,learnblock2,678.4000000003725,img/planet6_right.png,6,Community 2,NA,TRUE,j,j,NA,NA,NA,4,6,"10,13,7,9,1,11,14,6,8,2,5,15,3,4,12"
14093,commdev-image-keyboard-response,548,1467264,learnblock2,754.6999999992549,img/planet8_left.png,8,Community 2,NA,TRUE,f,f,NA,NA,NA,4,6,"10,13,7,9,1,11,14,6,8,2,5,15,3,4,12"
14093,commdev-image-keyboard-response,549,1468517,learnblock2,750.9000000003725,img/planet6_left.png,6,Community 2,NA,TRUE,f,f,NA,NA,NA,4,6,"10,13,7,9,1,11,14,6,8,2,5,15,3,4,12"
14093,commdev-image-keyboard-response,550,1469769,learnblock2,1090.699999999255,img/planet8_left.png,8,Community 2,NA,TRUE,f,f,NA,NA,NA,4,6,"10,13,7,9,1,11,14,6,8,2,5,15,3,4,12"
14093,commdev-image-keyboard-response,551,1471021,learnblock2,902.9000000003725,img/planet6_left.png,6,Community 2,NA,TRUE,f,f,NA,NA,NA,4,6,"10,13,7,9,1,11,14,6,8,2,5,15,3,4,12"
14093,commdev-image-keyboard-response,552,1472273,learnblock2,890.7999999988824,img/planet2_right.png,2,Community 2,NA,TRUE,j,j,NA,NA,NA,4,6,"10,13,7,9,1,11,14,6,8,2,5,15,3,4,12"
14093,commdev-image-keyboard-response,553,1473525,learnblock2,758.6999999992549,img/planet11_left.png,11,Community 2,NA,TRUE,f,f,NA,NA,NA,4,6,"10,13,7,9,1,11,14,6,8,2,5,15,3,4,12"
14093,commdev-image-keyboard-response,554,1474777,learnblock2,866.6999999992549,img/planet2_left.png,2,Community 2,NA,TRUE,f,f,NA,NA,NA,4,6,"10,13,7,9,1,11,14,6,8,2,5,15,3,4,12"
14093,commdev-image-keyboard-response,555,1476028,learnblock2,974.6999999992549,img/planet11_left.png,11,Community 2,NA,TRUE,f,f,NA,NA,NA,4,6,"10,13,7,9,1,11,14,6,8,2,5,15,3,4,12"
14093,commdev-image-keyboard-response,556,1477280,learnblock2,819.3000000007451,img/planet14_right.png,14,Community 2,NA,TRUE,j,j,NA,NA,NA,4,6,"10,13,7,9,1,11,14,6,8,2,5,15,3,4,12"
14093,commdev-image-keyboard-response,557,1478532,learnblock2,879.7999999988824,img/planet2_right.png,2,Community 2,NA,TRUE,j,j,NA,NA,NA,4,6,"10,13,7,9,1,11,14,6,8,2,5,15,3,4,12"
14093,commdev-image-keyboard-response,558,1479785,learnblock2,635.1999999992549,img/planet8_right.png,8,Community 2,NA,TRUE,j,j,NA,NA,NA,4,6,"10,13,7,9,1,11,14,6,8,2,5,15,3,4,12"
14093,commdev-image-keyboard-response,559,1481036,learnblock2,590.1999999992549,img/planet14_left.png,14,Community 2,NA,TRUE,f,f,NA,NA,NA,4,6,"10,13,7,9,1,11,14,6,8,2,5,15,3,4,12"
14093,commdev-image-keyboard-response,560,1482288,learnblock2,707,img/planet6_left.png,6,Community 2,NA,TRUE,f,f,NA,NA,NA,4,6,"10,13,7,9,1,11,14,6,8,2,5,15,3,4,12"
14093,commdev-image-keyboard-response,561,1483539,learnblock2,559,img/planet8_right.png,8,Community 2,NA,TRUE,j,j,NA,NA,NA,4,6,"10,13,7,9,1,11,14,6,8,2,5,15,3,4,12"
14093,commdev-image-keyboard-response,562,1484791,learnblock2,516.0999999996275,img/planet6_right.png,6,Community 2,NA,FALSE,f,j,NA,NA,NA,4,6,"10,13,7,9,1,11,14,6,8,2,5,15,3,4,12"
14093,commdev-image-keyboard-response,563,1486043,learnblock2,536.0999999996275,img/planet2_left.png,2,Community 2,NA,TRUE,f,f,NA,NA,NA,4,6,"10,13,7,9,1,11,14,6,8,2,5,15,3,4,12"
14093,commdev-image-keyboard-response,564,1487295,learnblock2,699.5999999996275,img/planet14_right.png,14,Community 2,NA,TRUE,j,j,NA,NA,NA,4,6,"10,13,7,9,1,11,14,6,8,2,5,15,3,4,12"
14093,commdev-image-keyboard-response,565,1488547,learnblock2,767.5999999996275,img/planet6_left.png,6,Community 2,NA,TRUE,f,f,NA,NA,NA,4,6,"10,13,7,9,1,11,14,6,8,2,5,15,3,4,12"
14093,commdev-image-keyboard-response,566,1489799,learnblock2,763.5999999996275,img/planet2_left.png,2,Community 2,NA,TRUE,f,f,NA,NA,NA,4,6,"10,13,7,9,1,11,14,6,8,2,5,15,3,4,12"
14093,commdev-image-keyboard-response,567,1491051,learnblock2,672,img/planet11_left.png,11,Community 2,NA,TRUE,f,f,NA,NA,NA,4,6,"10,13,7,9,1,11,14,6,8,2,5,15,3,4,12"
14093,commdev-image-keyboard-response,568,1492302,learnblock2,635.4000000003725,img/planet8_left.png,8,Community 2,NA,TRUE,f,f,NA,NA,NA,4,6,"10,13,7,9,1,11,14,6,8,2,5,15,3,4,12"
14093,commdev-image-keyboard-response,569,1493553,learnblock2,512.6999999992549,img/planet14_left.png,14,Community 2,NA,TRUE,f,f,NA,NA,NA,4,6,"10,13,7,9,1,11,14,6,8,2,5,15,3,4,12"
14093,commdev-image-keyboard-response,570,1494805,learnblock2,685.5,img/planet8_left.png,8,Community 2,NA,TRUE,f,f,NA,NA,NA,4,6,"10,13,7,9,1,11,14,6,8,2,5,15,3,4,12"
14093,commdev-image-keyboard-response,571,1496057,learnblock2,593.9000000003725,img/planet6_right.png,6,Community 2,NA,TRUE,j,j,NA,NA,NA,4,6,"10,13,7,9,1,11,14,6,8,2,5,15,3,4,12"
14093,commdev-image-keyboard-response,572,1497308,learnblock2,757.5999999996275,img/planet15_right.png,15,Community 3,NA,TRUE,j,j,NA,NA,NA,4,6,"10,13,7,9,1,11,14,6,8,2,5,15,3,4,12"
14093,commdev-image-keyboard-response,573,1498560,learnblock2,770.7999999988824,img/planet4_left.png,4,Community 3,NA,TRUE,f,f,NA,NA,NA,4,6,"10,13,7,9,1,11,14,6,8,2,5,15,3,4,12"
14093,commdev-image-keyboard-response,574,1499812,learnblock2,606.5999999996275,img/planet5_left.png,5,Community 3,NA,TRUE,f,f,NA,NA,NA,4,6,"10,13,7,9,1,11,14,6,8,2,5,15,3,4,12"
14093,commdev-image-keyboard-response,575,1501064,learnblock2,737.7000000011176,img/planet3_right.png,3,Community 3,NA,TRUE,j,j,NA,NA,NA,4,6,"10,13,7,9,1,11,14,6,8,2,5,15,3,4,12"
14093,commdev-image-keyboard-response,576,1502316,learnblock2,774,img/planet5_right.png,5,Community 3,NA,TRUE,j,j,NA,NA,NA,4,6,"10,13,7,9,1,11,14,6,8,2,5,15,3,4,12"
14093,commdev-image-keyboard-response,577,1503568,learnblock2,930.8999999985099,img/planet4_right.png,4,Community 3,NA,FALSE,f,j,NA,NA,NA,4,6,"10,13,7,9,1,11,14,6,8,2,5,15,3,4,12"
14093,commdev-image-keyboard-response,578,1504820,learnblock2,622.5,img/planet3_left.png,3,Community 3,NA,TRUE,f,f,NA,NA,NA,4,6,"10,13,7,9,1,11,14,6,8,2,5,15,3,4,12"
14093,commdev-image-keyboard-response,579,1506072,learnblock2,650.5999999996275,img/planet15_left.png,15,Community 3,NA,TRUE,f,f,NA,NA,NA,4,6,"10,13,7,9,1,11,14,6,8,2,5,15,3,4,12"
14093,commdev-image-keyboard-response,580,1507323,learnblock2,614.5,img/planet3_left.png,3,Community 3,NA,TRUE,f,f,NA,NA,NA,4,6,"10,13,7,9,1,11,14,6,8,2,5,15,3,4,12"
14093,commdev-image-keyboard-response,581,1508575,learnblock2,554.7999999988824,img/planet15_left.png,15,Community 3,NA,TRUE,f,f,NA,NA,NA,4,6,"10,13,7,9,1,11,14,6,8,2,5,15,3,4,12"
14093,commdev-image-keyboard-response,582,1509828,learnblock2,695,img/planet3_left.png,3,Community 3,NA,TRUE,f,f,NA,NA,NA,4,6,"10,13,7,9,1,11,14,6,8,2,5,15,3,4,12"
14093,commdev-image-keyboard-response,583,1511080,learnblock2,722.1999999992549,img/planet15_left.png,15,Community 3,NA,TRUE,f,f,NA,NA,NA,4,6,"10,13,7,9,1,11,14,6,8,2,5,15,3,4,12"
14093,commdev-image-keyboard-response,584,1512331,learnblock2,725.7999999988824,img/planet3_left.png,3,Community 3,NA,TRUE,f,f,NA,NA,NA,4,6,"10,13,7,9,1,11,14,6,8,2,5,15,3,4,12"
14093,commdev-image-keyboard-response,585,1513583,learnblock2,778.6999999992549,img/planet5_left.png,5,Community 3,NA,TRUE,f,f,NA,NA,NA,4,6,"10,13,7,9,1,11,14,6,8,2,5,15,3,4,12"
