subject_id,trial_type,trial_index,time_elapsed,block,rt,stimulus,planet,community,response,correct,key_press,learning_correct_response,parse,init_locations,final_locations,browser_interactions,num_comp,planet_map
15208,commdev-instructions,7,70163,NA,9318.199999928474,"<p>In this game, you will be shown a 3x3 grid of patterns.</p> <p>The last one in the bottom right-hand corner, <strong>will be missing:</strong></p> <div style='width: 700px;'><div style='float: top;'><img style='width: 200px;' src='practice/p1_M1.png'></img><p class='small'>You need to select<strong> which of the four possible patterns </strong>along the bottom<strong> fits into the gap:</strong></p></div><div style='float: top;'><img style='width: 300px;' src='practice/p1_T1.png'></img></div><br>",NA,NA,NA,NA,NA,NA,NA,NA,NA,4,7,"5,9,13,3,7,12,10,14,8,2,6,11,1,15,4"
15208,commdev-instructions,8,217682,NA,128980.19999992847,"<p>Try to be as fast and as accurate as you can be.</p> <p>If you cannot solve the puzzle then you should guess - you will not be penalised for an incorrect answer.</p> <p>The task contains a shuffled mix of easy, medium and hard puzzles.</p> <p>You will have <strong>30 seconds</strong> to complete each puzzle.</p><br>",NA,NA,NA,NA,NA,NA,NA,NA,NA,4,7,"5,9,13,3,7,12,10,14,8,2,6,11,1,15,4"
15208,commdev-instructions,15,259441,NA,18816,<p><strong>Success!</strong></p> <p>You seem to be getting the hang of this...</p> <p>Let's move on to the real trials.</p><br>,NA,NA,NA,NA,NA,NA,NA,NA,NA,4,7,"5,9,13,3,7,12,10,14,8,2,6,11,1,15,4"
15208,commdev-instructions,178,614224,NA,2856.5,"<p>In this game, you are a scientist on board a space shuttle. </p><p> On each mission, you will visit planets all across the universe.</p><img src=""img/controlroom.jpg"" width=300vw>",NA,NA,NA,NA,NA,NA,NA,NA,NA,4,7,"5,9,13,3,7,12,10,14,8,2,6,11,1,15,4"
15208,commdev-instructions,179,621176,NA,4876,"<p>Here are a few planets you might see:</p><img src=""img/practice1.png"" width=200vw><img src=""img/practice2.png"" width=200vw><img src=""img/practice3.png"" width=200vw>",NA,NA,NA,NA,NA,NA,NA,NA,NA,4,7,"5,9,13,3,7,12,10,14,8,2,6,11,1,15,4"
15208,commdev-instructions,180,632503,NA,3914.3000000715256,"<p>Your job as a scientist is to record which direction the winds are moving on each planet.</p><p>There are two types of wind directions:</p><img src=""img/practice1_left.png"" width=200vw><img src=""img/practice1_right.png"" width=200vw>",NA,NA,NA,NA,NA,NA,NA,NA,NA,4,7,"5,9,13,3,7,12,10,14,8,2,6,11,1,15,4"
15208,commdev-instructions,181,639579,NA,2183.3000000715256,"<p>If the winds are moving this way, press the letter <strong>F</strong> on the keyboard as fast as you can.</p><img src=""img/leftwind.png"" width=250vw>",NA,NA,NA,NA,NA,NA,NA,NA,NA,4,7,"5,9,13,3,7,12,10,14,8,2,6,11,1,15,4"
15208,commdev-instructions,182,645351,NA,1262.7000000476837,"<p>If the winds are moving this way, press the letter <strong>J</strong> on the keyboard as fast as you can.</p><img src=""img/rightwind.png"" width=350vw>",NA,NA,NA,NA,NA,NA,NA,NA,NA,4,7,"5,9,13,3,7,12,10,14,8,2,6,11,1,15,4"
15208,commdev-instructions,183,651745,NA,1957.8999999761581,<p>You will have 1 second to respond. Try to respond before the time runs out!,NA,NA,NA,NA,NA,NA,NA,NA,NA,4,7,"5,9,13,3,7,12,10,14,8,2,6,11,1,15,4"
15208,commdev-instructions,184,658309,NA,1131.3999999761581,<p>The planets you will visit will look different from each other.</p><p>You should respond <strong>only</strong> based on wind direction.,NA,NA,NA,NA,NA,NA,NA,NA,NA,4,7,"5,9,13,3,7,12,10,14,8,2,6,11,1,15,4"
15208,commdev-instructions,185,664525,NA,1036.6000000238419,"<p> Ready to start the practice round? </p><p> Remember, press <strong>F</strong> or <strong>J</strong> depending on the wind direction.<br><img src=""img/categorize_planet_example.png""",NA,NA,NA,NA,NA,NA,NA,NA,NA,4,7,"5,9,13,3,7,12,10,14,8,2,6,11,1,15,4"
15208,commdev-instructions,197,739556,NA,NA,NA,NA,NA,NA,NA,NA,NA,NA,NA,NA,4,7,"5,9,13,3,7,12,10,14,8,2,6,11,1,15,4"
15208,commdev-image-keyboard-response,198,740932,practice,null,img/practice2_right.png,NA,Number not found in mappings,NA,FALSE,null,j,NA,NA,NA,4,7,"5,9,13,3,7,12,10,14,8,2,6,11,1,15,4"
15208,commdev-image-keyboard-response,199,742197,practice,null,img/practice1_left.png,NA,Number not found in mappings,NA,FALSE,null,f,NA,NA,NA,4,7,"5,9,13,3,7,12,10,14,8,2,6,11,1,15,4"
15208,commdev-image-keyboard-response,200,743467,practice,null,img/practice2_left.png,NA,Number not found in mappings,NA,FALSE,null,f,NA,NA,NA,4,7,"5,9,13,3,7,12,10,14,8,2,6,11,1,15,4"
15208,commdev-image-keyboard-response,201,744727,practice,null,img/practice3_left.png,NA,Number not found in mappings,NA,FALSE,null,f,NA,NA,NA,4,7,"5,9,13,3,7,12,10,14,8,2,6,11,1,15,4"
15208,commdev-image-keyboard-response,202,745985,practice,null,img/practice1_right.png,NA,Number not found in mappings,NA,FALSE,null,j,NA,NA,NA,4,7,"5,9,13,3,7,12,10,14,8,2,6,11,1,15,4"
15208,commdev-image-keyboard-response,203,747241,practice,null,img/practice2_left.png,NA,Number not found in mappings,NA,FALSE,null,f,NA,NA,NA,4,7,"5,9,13,3,7,12,10,14,8,2,6,11,1,15,4"
15208,commdev-image-keyboard-response,204,748495,practice,null,img/practice4_right.png,NA,Number not found in mappings,NA,FALSE,null,j,NA,NA,NA,4,7,"5,9,13,3,7,12,10,14,8,2,6,11,1,15,4"
15208,commdev-image-keyboard-response,205,749749,practice,null,img/practice3_right.png,NA,Number not found in mappings,NA,FALSE,null,j,NA,NA,NA,4,7,"5,9,13,3,7,12,10,14,8,2,6,11,1,15,4"
15208,commdev-instructions,206,809406,NA,50105.200000047684,"<p>Great job with the practice round.</p><p>During real missions, you won't know whether you pressed the right or wrong key for each planet.</p><p>But between missions, we will tell you how you did overall.</p>",NA,NA,NA,NA,NA,NA,NA,NA,NA,4,7,"5,9,13,3,7,12,10,14,8,2,6,11,1,15,4"
15208,commdev-instructions,207,821463,NA,3683.7999999523163,<p>Try your best! You will be paid a bonus based on how many correct responses you make!</p><p>Responses that are too slow will not count toward your bonus.</p>,NA,NA,NA,NA,NA,NA,NA,NA,NA,4,7,"5,9,13,3,7,12,10,14,8,2,6,11,1,15,4"
15208,commdev-instructions,208,896667,NA,68986.60000002384,"<p>You are almost ready to start the real game.</p><p> First, we are going to ask you some questions about how the game works.</p>",NA,NA,NA,NA,NA,NA,NA,NA,NA,4,7,"5,9,13,3,7,12,10,14,8,2,6,11,1,15,4"
15208,commdev-instructions,217,991416,NA,3200.600000023842,"<p> Nice work! It is now time to start the real game.<p></p>You will go on two missions to record wind directions of different planets.<p></p>Each one will take about 5 minutes. You will get to take a break between missions.<p><p> Remember, press <strong>F</strong> or <strong>J</strong> depending on the wind direction. Good luck!<br><img src=""img/categorize_planet_example.png""",NA,NA,NA,NA,NA,NA,NA,NA,NA,4,7,"5,9,13,3,7,12,10,14,8,2,6,11,1,15,4"
15208,commdev-image-keyboard-response,219,1049681,learnblock1,1257.6000000238419,img/planet7_right.png,7,Community 1,NA,TRUE,j,j,NA,NA,NA,4,7,"5,9,13,3,7,12,10,14,8,2,6,11,1,15,4"
15208,commdev-image-keyboard-response,220,1050934,learnblock1,910,img/planet13_left.png,13,Community 1,NA,TRUE,f,f,NA,NA,NA,4,7,"5,9,13,3,7,12,10,14,8,2,6,11,1,15,4"
15208,commdev-image-keyboard-response,221,1052186,learnblock1,256,img/planet5_right.png,5,Community 1,NA,FALSE,f,j,NA,NA,NA,4,7,"5,9,13,3,7,12,10,14,8,2,6,11,1,15,4"
15208,commdev-image-keyboard-response,222,1053440,learnblock1,905.1999999284744,img/planet13_left.png,13,Community 1,NA,TRUE,f,f,NA,NA,NA,4,7,"5,9,13,3,7,12,10,14,8,2,6,11,1,15,4"
15208,commdev-image-keyboard-response,223,1054694,learnblock1,848.3999999761581,img/planet3_left.png,3,Community 1,NA,TRUE,f,f,NA,NA,NA,4,7,"5,9,13,3,7,12,10,14,8,2,6,11,1,15,4"
15208,commdev-image-keyboard-response,224,1055948,learnblock1,808.1000000238419,img/planet12_left.png,12,Community 2,NA,TRUE,f,f,NA,NA,NA,4,7,"5,9,13,3,7,12,10,14,8,2,6,11,1,15,4"
15208,commdev-image-keyboard-response,225,1057202,learnblock1,889.3999999761581,img/planet10_right.png,10,Community 2,NA,TRUE,j,j,NA,NA,NA,4,7,"5,9,13,3,7,12,10,14,8,2,6,11,1,15,4"
15208,commdev-image-keyboard-response,226,1058455,learnblock1,910,img/planet8_right.png,8,Community 2,NA,TRUE,j,j,NA,NA,NA,4,7,"5,9,13,3,7,12,10,14,8,2,6,11,1,15,4"
15208,commdev-image-keyboard-response,227,1059714,learnblock1,734.7000000476837,img/planet2_left.png,2,Community 2,NA,TRUE,f,f,NA,NA,NA,4,7,"5,9,13,3,7,12,10,14,8,2,6,11,1,15,4"
15208,commdev-image-keyboard-response,228,1060966,learnblock1,887.2000000476837,img/planet12_right.png,12,Community 2,NA,TRUE,j,j,NA,NA,NA,4,7,"5,9,13,3,7,12,10,14,8,2,6,11,1,15,4"
15208,commdev-image-keyboard-response,229,1062227,learnblock1,830.8999999761581,img/planet8_left.png,8,Community 2,NA,TRUE,f,f,NA,NA,NA,4,7,"5,9,13,3,7,12,10,14,8,2,6,11,1,15,4"
15208,commdev-image-keyboard-response,230,1063481,learnblock1,792.2999999523163,img/planet12_right.png,12,Community 2,NA,TRUE,j,j,NA,NA,NA,4,7,"5,9,13,3,7,12,10,14,8,2,6,11,1,15,4"
15208,commdev-image-keyboard-response,231,1064734,learnblock1,725.3999999761581,img/planet2_right.png,2,Community 2,NA,TRUE,j,j,NA,NA,NA,4,7,"5,9,13,3,7,12,10,14,8,2,6,11,1,15,4"
15208,commdev-image-keyboard-response,232,1065987,learnblock1,728.6999999284744,img/planet14_left.png,14,Community 2,NA,TRUE,f,f,NA,NA,NA,4,7,"5,9,13,3,7,12,10,14,8,2,6,11,1,15,4"
15208,commdev-image-keyboard-response,233,1067241,learnblock1,824.6000000238419,img/planet8_right.png,8,Community 2,NA,TRUE,j,j,NA,NA,NA,4,7,"5,9,13,3,7,12,10,14,8,2,6,11,1,15,4"
15208,commdev-image-keyboard-response,234,1068494,learnblock1,null,img/planet2_right.png,2,Community 2,NA,FALSE,null,j,NA,NA,NA,4,7,"5,9,13,3,7,12,10,14,8,2,6,11,1,15,4"
15208,commdev-image-keyboard-response,235,1069745,learnblock1,0.2999999523162842,img/planet14_left.png,14,Community 2,NA,FALSE,j,f,NA,NA,NA,4,7,"5,9,13,3,7,12,10,14,8,2,6,11,1,15,4"
15208,commdev-image-keyboard-response,236,1070998,learnblock1,799.2999999523163,img/planet2_left.png,2,Community 2,NA,FALSE,j,f,NA,NA,NA,4,7,"5,9,13,3,7,12,10,14,8,2,6,11,1,15,4"
15208,commdev-image-keyboard-response,237,1072251,learnblock1,897.2000000476837,img/planet8_right.png,8,Community 2,NA,TRUE,j,j,NA,NA,NA,4,7,"5,9,13,3,7,12,10,14,8,2,6,11,1,15,4"
15208,commdev-image-keyboard-response,238,1073505,learnblock1,890.7000000476837,img/planet14_right.png,14,Community 2,NA,TRUE,j,j,NA,NA,NA,4,7,"5,9,13,3,7,12,10,14,8,2,6,11,1,15,4"
15208,commdev-image-keyboard-response,239,1074760,learnblock1,684.6000000238419,img/planet2_left.png,2,Community 2,NA,TRUE,f,f,NA,NA,NA,4,7,"5,9,13,3,7,12,10,14,8,2,6,11,1,15,4"
15208,commdev-image-keyboard-response,240,1076013,learnblock1,680.6000000238419,img/planet10_right.png,10,Community 2,NA,TRUE,j,j,NA,NA,NA,4,7,"5,9,13,3,7,12,10,14,8,2,6,11,1,15,4"
15208,commdev-image-keyboard-response,241,1077268,learnblock1,905.5,img/planet14_left.png,14,Community 2,NA,TRUE,f,f,NA,NA,NA,4,7,"5,9,13,3,7,12,10,14,8,2,6,11,1,15,4"
15208,commdev-image-keyboard-response,242,1078521,learnblock1,802.3999999761581,img/planet10_left.png,10,Community 2,NA,TRUE,f,f,NA,NA,NA,4,7,"5,9,13,3,7,12,10,14,8,2,6,11,1,15,4"
15208,commdev-image-keyboard-response,243,1079774,learnblock1,733.2000000476837,img/planet2_right.png,2,Community 2,NA,TRUE,j,j,NA,NA,NA,4,7,"5,9,13,3,7,12,10,14,8,2,6,11,1,15,4"
15208,commdev-image-keyboard-response,244,1081026,learnblock1,1064.2000000476837,img/planet12_left.png,12,Community 2,NA,TRUE,f,f,NA,NA,NA,4,7,"5,9,13,3,7,12,10,14,8,2,6,11,1,15,4"
15208,commdev-image-keyboard-response,245,1082279,learnblock1,831.5,img/planet8_left.png,8,Community 2,NA,TRUE,f,f,NA,NA,NA,4,7,"5,9,13,3,7,12,10,14,8,2,6,11,1,15,4"
15208,commdev-image-keyboard-response,246,1083534,learnblock1,692.5,img/planet12_left.png,12,Community 2,NA,TRUE,f,f,NA,NA,NA,4,7,"5,9,13,3,7,12,10,14,8,2,6,11,1,15,4"
15208,commdev-image-keyboard-response,247,1084787,learnblock1,671.1999999284744,img/planet10_left.png,10,Community 2,NA,TRUE,f,f,NA,NA,NA,4,7,"5,9,13,3,7,12,10,14,8,2,6,11,1,15,4"
15208,commdev-image-keyboard-response,248,1086040,learnblock1,822.5,img/planet12_right.png,12,Community 2,NA,TRUE,j,j,NA,NA,NA,4,7,"5,9,13,3,7,12,10,14,8,2,6,11,1,15,4"
15208,commdev-image-keyboard-response,249,1087294,learnblock1,825.1000000238419,img/planet3_right.png,3,Community 1,NA,TRUE,j,j,NA,NA,NA,4,7,"5,9,13,3,7,12,10,14,8,2,6,11,1,15,4"
15208,commdev-image-keyboard-response,250,1088562,learnblock1,828.8000000715256,img/planet9_right.png,9,Community 1,NA,TRUE,j,j,NA,NA,NA,4,7,"5,9,13,3,7,12,10,14,8,2,6,11,1,15,4"
15208,commdev-image-keyboard-response,251,1089814,learnblock1,870.7999999523163,img/planet7_left.png,7,Community 1,NA,TRUE,f,f,NA,NA,NA,4,7,"5,9,13,3,7,12,10,14,8,2,6,11,1,15,4"
15208,commdev-image-keyboard-response,252,1091066,learnblock1,769.3999999761581,img/planet13_left.png,13,Community 1,NA,TRUE,f,f,NA,NA,NA,4,7,"5,9,13,3,7,12,10,14,8,2,6,11,1,15,4"
15208,commdev-image-keyboard-response,253,1092320,learnblock1,876,img/planet3_left.png,3,Community 1,NA,TRUE,f,f,NA,NA,NA,4,7,"5,9,13,3,7,12,10,14,8,2,6,11,1,15,4"
15208,commdev-image-keyboard-response,254,1093574,learnblock1,812.7999999523163,img/planet9_right.png,9,Community 1,NA,TRUE,j,j,NA,NA,NA,4,7,"5,9,13,3,7,12,10,14,8,2,6,11,1,15,4"
15208,commdev-image-keyboard-response,255,1094827,learnblock1,929.7999999523163,img/planet3_right.png,3,Community 1,NA,TRUE,j,j,NA,NA,NA,4,7,"5,9,13,3,7,12,10,14,8,2,6,11,1,15,4"
15208,commdev-image-keyboard-response,256,1096081,learnblock1,843.7999999523163,img/planet9_right.png,9,Community 1,NA,TRUE,j,j,NA,NA,NA,4,7,"5,9,13,3,7,12,10,14,8,2,6,11,1,15,4"
15208,commdev-image-keyboard-response,257,1097333,learnblock1,774.3999999761581,img/planet5_right.png,5,Community 1,NA,TRUE,j,j,NA,NA,NA,4,7,"5,9,13,3,7,12,10,14,8,2,6,11,1,15,4"
15208,commdev-image-keyboard-response,258,1098588,learnblock1,553.2999999523163,img/planet7_left.png,7,Community 1,NA,TRUE,f,f,NA,NA,NA,4,7,"5,9,13,3,7,12,10,14,8,2,6,11,1,15,4"
15208,commdev-image-keyboard-response,259,1099841,learnblock1,752.8000000715256,img/planet6_left.png,6,Community 3,NA,TRUE,f,f,NA,NA,NA,4,7,"5,9,13,3,7,12,10,14,8,2,6,11,1,15,4"
15208,commdev-image-keyboard-response,260,1101094,learnblock1,606.2999999523163,img/planet1_right.png,1,Community 3,NA,TRUE,j,j,NA,NA,NA,4,7,"5,9,13,3,7,12,10,14,8,2,6,11,1,15,4"
15208,commdev-image-keyboard-response,261,1102347,learnblock1,876.8999999761581,img/planet6_right.png,6,Community 3,NA,FALSE,f,j,NA,NA,NA,4,7,"5,9,13,3,7,12,10,14,8,2,6,11,1,15,4"
15208,commdev-image-keyboard-response,262,1103601,learnblock1,null,img/planet1_right.png,1,Community 3,NA,FALSE,null,j,NA,NA,NA,4,7,"5,9,13,3,7,12,10,14,8,2,6,11,1,15,4"
15208,commdev-image-keyboard-response,263,1104855,learnblock1,628.5,img/planet11_right.png,11,Community 3,NA,TRUE,j,j,NA,NA,NA,4,7,"5,9,13,3,7,12,10,14,8,2,6,11,1,15,4"
15208,commdev-image-keyboard-response,264,1106108,learnblock1,752.9000000953674,img/planet15_left.png,15,Community 3,NA,TRUE,f,f,NA,NA,NA,4,7,"5,9,13,3,7,12,10,14,8,2,6,11,1,15,4"
15208,commdev-image-keyboard-response,265,1107362,learnblock1,856.3000000715256,img/planet6_left.png,6,Community 3,NA,TRUE,f,f,NA,NA,NA,4,7,"5,9,13,3,7,12,10,14,8,2,6,11,1,15,4"
15208,commdev-image-keyboard-response,266,1108615,learnblock1,933.2000000476837,img/planet7_right.png,7,Community 1,NA,TRUE,j,j,NA,NA,NA,4,7,"5,9,13,3,7,12,10,14,8,2,6,11,1,15,4"
15208,commdev-image-keyboard-response,267,1109868,learnblock1,null,img/planet9_right.png,9,Community 1,NA,FALSE,null,j,NA,NA,NA,4,7,"5,9,13,3,7,12,10,14,8,2,6,11,1,15,4"
15208,commdev-image-keyboard-response,268,1111121,learnblock1,18.399999976158142,img/planet5_left.png,5,Community 1,NA,FALSE,j,f,NA,NA,NA,4,7,"5,9,13,3,7,12,10,14,8,2,6,11,1,15,4"
15208,commdev-image-keyboard-response,269,1112372,learnblock1,671.2000000476837,img/planet9_left.png,9,Community 1,NA,TRUE,f,f,NA,NA,NA,4,7,"5,9,13,3,7,12,10,14,8,2,6,11,1,15,4"
15208,commdev-image-keyboard-response,270,1113628,learnblock1,772.3999999761581,img/planet3_right.png,3,Community 1,NA,TRUE,j,j,NA,NA,NA,4,7,"5,9,13,3,7,12,10,14,8,2,6,11,1,15,4"
15208,commdev-image-keyboard-response,271,1114881,learnblock1,501.3000000715256,img/planet12_left.png,12,Community 2,NA,TRUE,f,f,NA,NA,NA,4,7,"5,9,13,3,7,12,10,14,8,2,6,11,1,15,4"
15208,commdev-image-keyboard-response,272,1116137,learnblock1,588.1999999284744,img/planet8_right.png,8,Community 2,NA,TRUE,j,j,NA,NA,NA,4,7,"5,9,13,3,7,12,10,14,8,2,6,11,1,15,4"
15208,commdev-image-keyboard-response,273,1117391,learnblock1,477.6999999284744,img/planet14_left.png,14,Community 2,NA,TRUE,f,f,NA,NA,NA,4,7,"5,9,13,3,7,12,10,14,8,2,6,11,1,15,4"
15208,commdev-image-keyboard-response,274,1118644,learnblock1,624,img/planet8_left.png,8,Community 2,NA,TRUE,f,f,NA,NA,NA,4,7,"5,9,13,3,7,12,10,14,8,2,6,11,1,15,4"
15208,commdev-image-keyboard-response,275,1119896,learnblock1,764.2999999523163,img/planet12_right.png,12,Community 2,NA,TRUE,j,j,NA,NA,NA,4,7,"5,9,13,3,7,12,10,14,8,2,6,11,1,15,4"
15208,commdev-image-keyboard-response,276,1121149,learnblock1,458.39999997615814,img/planet10_left.png,10,Community 2,NA,TRUE,f,f,NA,NA,NA,4,7,"5,9,13,3,7,12,10,14,8,2,6,11,1,15,4"
15208,commdev-image-keyboard-response,277,1122402,learnblock1,610.5,img/planet14_right.png,14,Community 2,NA,TRUE,j,j,NA,NA,NA,4,7,"5,9,13,3,7,12,10,14,8,2,6,11,1,15,4"
15208,commdev-image-keyboard-response,278,1123655,learnblock1,562.8999999761581,img/planet10_left.png,10,Community 2,NA,TRUE,f,f,NA,NA,NA,4,7,"5,9,13,3,7,12,10,14,8,2,6,11,1,15,4"
15208,commdev-image-keyboard-response,279,1124909,learnblock1,495.2999999523163,img/planet12_left.png,12,Community 2,NA,FALSE,j,f,NA,NA,NA,4,7,"5,9,13,3,7,12,10,14,8,2,6,11,1,15,4"
15208,commdev-image-keyboard-response,280,1126166,learnblock1,817.6999999284744,img/planet10_right.png,10,Community 2,NA,TRUE,j,j,NA,NA,NA,4,7,"5,9,13,3,7,12,10,14,8,2,6,11,1,15,4"
15208,commdev-image-keyboard-response,281,1127419,learnblock1,1170.8999999761581,img/planet12_left.png,12,Community 2,NA,TRUE,f,f,NA,NA,NA,4,7,"5,9,13,3,7,12,10,14,8,2,6,11,1,15,4"
15208,commdev-image-keyboard-response,282,1128673,learnblock1,634.6000000238419,img/planet2_right.png,2,Community 2,NA,TRUE,j,j,NA,NA,NA,4,7,"5,9,13,3,7,12,10,14,8,2,6,11,1,15,4"
15208,commdev-image-keyboard-response,283,1129927,learnblock1,613.3999999761581,img/planet12_left.png,12,Community 2,NA,TRUE,f,f,NA,NA,NA,4,7,"5,9,13,3,7,12,10,14,8,2,6,11,1,15,4"
15208,commdev-image-keyboard-response,284,1131181,learnblock1,650.5,img/planet8_left.png,8,Community 2,NA,TRUE,f,f,NA,NA,NA,4,7,"5,9,13,3,7,12,10,14,8,2,6,11,1,15,4"
15208,commdev-image-keyboard-response,285,1132436,learnblock1,761,img/planet10_right.png,10,Community 2,NA,TRUE,j,j,NA,NA,NA,4,7,"5,9,13,3,7,12,10,14,8,2,6,11,1,15,4"
15208,commdev-image-keyboard-response,286,1133689,learnblock1,552.8999999761581,img/planet14_left.png,14,Community 2,NA,TRUE,f,f,NA,NA,NA,4,7,"5,9,13,3,7,12,10,14,8,2,6,11,1,15,4"
15208,commdev-image-keyboard-response,287,1134944,learnblock1,541.7999999523163,img/planet10_right.png,10,Community 2,NA,TRUE,j,j,NA,NA,NA,4,7,"5,9,13,3,7,12,10,14,8,2,6,11,1,15,4"
15208,commdev-image-keyboard-response,288,1136199,learnblock1,710.3000000715256,img/planet8_left.png,8,Community 2,NA,TRUE,f,f,NA,NA,NA,4,7,"5,9,13,3,7,12,10,14,8,2,6,11,1,15,4"
15208,commdev-image-keyboard-response,289,1137454,learnblock1,703.3000000715256,img/planet12_left.png,12,Community 2,NA,TRUE,f,f,NA,NA,NA,4,7,"5,9,13,3,7,12,10,14,8,2,6,11,1,15,4"
15208,commdev-image-keyboard-response,290,1138711,learnblock1,736.7999999523163,img/planet3_right.png,3,Community 1,NA,TRUE,j,j,NA,NA,NA,4,7,"5,9,13,3,7,12,10,14,8,2,6,11,1,15,4"
15208,commdev-image-keyboard-response,291,1139965,learnblock1,832.2000000476837,img/planet13_right.png,13,Community 1,NA,TRUE,j,j,NA,NA,NA,4,7,"5,9,13,3,7,12,10,14,8,2,6,11,1,15,4"
15208,commdev-image-keyboard-response,292,1141218,learnblock1,609.7999999523163,img/planet9_right.png,9,Community 1,NA,TRUE,j,j,NA,NA,NA,4,7,"5,9,13,3,7,12,10,14,8,2,6,11,1,15,4"
15208,commdev-image-keyboard-response,293,1142483,learnblock1,796.5,img/planet7_left.png,7,Community 1,NA,TRUE,f,f,NA,NA,NA,4,7,"5,9,13,3,7,12,10,14,8,2,6,11,1,15,4"
15208,commdev-image-keyboard-response,294,1143736,learnblock1,854.1999999284744,img/planet6_left.png,6,Community 3,NA,TRUE,f,f,NA,NA,NA,4,7,"5,9,13,3,7,12,10,14,8,2,6,11,1,15,4"
15208,commdev-image-keyboard-response,295,1144989,learnblock1,671.6000000238419,img/planet7_left.png,7,Community 1,NA,TRUE,f,f,NA,NA,NA,4,7,"5,9,13,3,7,12,10,14,8,2,6,11,1,15,4"
15208,commdev-image-keyboard-response,296,1146241,learnblock1,602.1999999284744,img/planet13_right.png,13,Community 1,NA,TRUE,j,j,NA,NA,NA,4,7,"5,9,13,3,7,12,10,14,8,2,6,11,1,15,4"
15208,commdev-image-keyboard-response,297,1147495,learnblock1,1023.1000000238419,img/planet3_right.png,3,Community 1,NA,TRUE,j,j,NA,NA,NA,4,7,"5,9,13,3,7,12,10,14,8,2,6,11,1,15,4"
15208,commdev-image-keyboard-response,298,1148761,learnblock1,695,img/planet12_left.png,12,Community 2,NA,TRUE,f,f,NA,NA,NA,4,7,"5,9,13,3,7,12,10,14,8,2,6,11,1,15,4"
15208,commdev-image-keyboard-response,299,1150015,learnblock1,525.1999999284744,img/planet3_right.png,3,Community 1,NA,TRUE,j,j,NA,NA,NA,4,7,"5,9,13,3,7,12,10,14,8,2,6,11,1,15,4"
15208,commdev-image-keyboard-response,300,1151269,learnblock1,383,img/planet5_left.png,5,Community 1,NA,TRUE,f,f,NA,NA,NA,4,7,"5,9,13,3,7,12,10,14,8,2,6,11,1,15,4"
15208,commdev-image-keyboard-response,301,1152536,learnblock1,567.6000000238419,img/planet3_left.png,3,Community 1,NA,TRUE,f,f,NA,NA,NA,4,7,"5,9,13,3,7,12,10,14,8,2,6,11,1,15,4"
15208,commdev-image-keyboard-response,302,1153789,learnblock1,661.1000000238419,img/planet5_left.png,5,Community 1,NA,TRUE,f,f,NA,NA,NA,4,7,"5,9,13,3,7,12,10,14,8,2,6,11,1,15,4"
15208,commdev-image-keyboard-response,303,1155042,learnblock1,536.4000000953674,img/planet3_right.png,3,Community 1,NA,FALSE,f,j,NA,NA,NA,4,7,"5,9,13,3,7,12,10,14,8,2,6,11,1,15,4"
15208,commdev-image-keyboard-response,304,1156294,learnblock1,819.7999999523163,img/planet9_right.png,9,Community 1,NA,FALSE,f,j,NA,NA,NA,4,7,"5,9,13,3,7,12,10,14,8,2,6,11,1,15,4"
15208,commdev-image-keyboard-response,305,1157558,learnblock1,1007.1000000238419,img/planet5_right.png,5,Community 1,NA,TRUE,j,j,NA,NA,NA,4,7,"5,9,13,3,7,12,10,14,8,2,6,11,1,15,4"
15208,commdev-image-keyboard-response,306,1158810,learnblock1,791.7999999523163,img/planet9_right.png,9,Community 1,NA,TRUE,j,j,NA,NA,NA,4,7,"5,9,13,3,7,12,10,14,8,2,6,11,1,15,4"
15208,commdev-image-keyboard-response,307,1160063,learnblock1,706.8999999761581,img/planet3_left.png,3,Community 1,NA,TRUE,f,f,NA,NA,NA,4,7,"5,9,13,3,7,12,10,14,8,2,6,11,1,15,4"
15208,commdev-image-keyboard-response,308,1161317,learnblock1,null,img/planet5_right.png,5,Community 1,NA,FALSE,null,j,NA,NA,NA,4,7,"5,9,13,3,7,12,10,14,8,2,6,11,1,15,4"
15208,commdev-image-keyboard-response,309,1162571,learnblock1,0.7999999523162842,img/planet7_left.png,7,Community 1,NA,FALSE,j,f,NA,NA,NA,4,7,"5,9,13,3,7,12,10,14,8,2,6,11,1,15,4"
15208,commdev-image-keyboard-response,310,1163826,learnblock1,662,img/planet9_right.png,9,Community 1,NA,TRUE,j,j,NA,NA,NA,4,7,"5,9,13,3,7,12,10,14,8,2,6,11,1,15,4"
15208,commdev-image-keyboard-response,311,1165084,learnblock1,520.6999999284744,img/planet3_left.png,3,Community 1,NA,TRUE,f,f,NA,NA,NA,4,7,"5,9,13,3,7,12,10,14,8,2,6,11,1,15,4"
15208,commdev-image-keyboard-response,312,1166338,learnblock1,837.8999999761581,img/planet12_right.png,12,Community 2,NA,FALSE,f,j,NA,NA,NA,4,7,"5,9,13,3,7,12,10,14,8,2,6,11,1,15,4"
15208,commdev-image-keyboard-response,313,1167591,learnblock1,null,img/planet8_left.png,8,Community 2,NA,FALSE,null,f,NA,NA,NA,4,7,"5,9,13,3,7,12,10,14,8,2,6,11,1,15,4"
15208,commdev-image-keyboard-response,314,1168845,learnblock1,702.8000000715256,img/planet2_right.png,2,Community 2,NA,FALSE,f,j,NA,NA,NA,4,7,"5,9,13,3,7,12,10,14,8,2,6,11,1,15,4"
15208,commdev-image-keyboard-response,315,1170100,learnblock1,665.3999999761581,img/planet8_left.png,8,Community 2,NA,TRUE,f,f,NA,NA,NA,4,7,"5,9,13,3,7,12,10,14,8,2,6,11,1,15,4"
15208,commdev-image-keyboard-response,316,1171354,learnblock1,858.5999999046326,img/planet12_left.png,12,Community 2,NA,TRUE,f,f,NA,NA,NA,4,7,"5,9,13,3,7,12,10,14,8,2,6,11,1,15,4"
15208,commdev-image-keyboard-response,317,1172608,learnblock1,644.3000000715256,img/planet2_right.png,2,Community 2,NA,TRUE,j,j,NA,NA,NA,4,7,"5,9,13,3,7,12,10,14,8,2,6,11,1,15,4"
15208,commdev-image-keyboard-response,318,1173863,learnblock1,576.3999999761581,img/planet8_left.png,8,Community 2,NA,TRUE,f,f,NA,NA,NA,4,7,"5,9,13,3,7,12,10,14,8,2,6,11,1,15,4"
15208,commdev-image-keyboard-response,319,1175116,learnblock1,745.5999999046326,img/planet10_left.png,10,Community 2,NA,TRUE,f,f,NA,NA,NA,4,7,"5,9,13,3,7,12,10,14,8,2,6,11,1,15,4"
15208,commdev-image-keyboard-response,320,1176368,learnblock1,587.3000000715256,img/planet2_left.png,2,Community 2,NA,TRUE,f,f,NA,NA,NA,4,7,"5,9,13,3,7,12,10,14,8,2,6,11,1,15,4"
15208,commdev-image-keyboard-response,321,1177621,learnblock1,700.1999999284744,img/planet14_right.png,14,Community 2,NA,TRUE,j,j,NA,NA,NA,4,7,"5,9,13,3,7,12,10,14,8,2,6,11,1,15,4"
15208,commdev-image-keyboard-response,322,1178875,learnblock1,792.6999999284744,img/planet10_right.png,10,Community 2,NA,TRUE,j,j,NA,NA,NA,4,7,"5,9,13,3,7,12,10,14,8,2,6,11,1,15,4"
15208,commdev-image-keyboard-response,323,1180129,learnblock1,723.3999999761581,img/planet14_right.png,14,Community 2,NA,TRUE,j,j,NA,NA,NA,4,7,"5,9,13,3,7,12,10,14,8,2,6,11,1,15,4"
15208,commdev-image-keyboard-response,324,1181382,learnblock1,727.9000000953674,img/planet11_right.png,11,Community 3,NA,TRUE,j,j,NA,NA,NA,4,7,"5,9,13,3,7,12,10,14,8,2,6,11,1,15,4"
15208,commdev-image-keyboard-response,325,1182636,learnblock1,753.8999999761581,img/planet14_right.png,14,Community 2,NA,TRUE,j,j,NA,NA,NA,4,7,"5,9,13,3,7,12,10,14,8,2,6,11,1,15,4"
15208,commdev-image-keyboard-response,326,1183891,learnblock1,690.1000000238419,img/planet11_right.png,11,Community 3,NA,TRUE,j,j,NA,NA,NA,4,7,"5,9,13,3,7,12,10,14,8,2,6,11,1,15,4"
15208,commdev-image-keyboard-response,327,1185146,learnblock1,691.5999999046326,img/planet15_left.png,15,Community 3,NA,TRUE,f,f,NA,NA,NA,4,7,"5,9,13,3,7,12,10,14,8,2,6,11,1,15,4"
15208,commdev-image-keyboard-response,328,1186400,learnblock1,533.7000000476837,img/planet11_left.png,11,Community 3,NA,TRUE,f,f,NA,NA,NA,4,7,"5,9,13,3,7,12,10,14,8,2,6,11,1,15,4"
15208,commdev-image-keyboard-response,329,1187654,learnblock1,557,img/planet15_right.png,15,Community 3,NA,FALSE,f,j,NA,NA,NA,4,7,"5,9,13,3,7,12,10,14,8,2,6,11,1,15,4"
15208,commdev-image-keyboard-response,330,1188908,learnblock1,861.3999999761581,img/planet4_left.png,4,Community 3,NA,TRUE,f,f,NA,NA,NA,4,7,"5,9,13,3,7,12,10,14,8,2,6,11,1,15,4"
15208,commdev-image-keyboard-response,331,1190161,learnblock1,744.7000000476837,img/planet11_left.png,11,Community 3,NA,TRUE,f,f,NA,NA,NA,4,7,"5,9,13,3,7,12,10,14,8,2,6,11,1,15,4"
15208,commdev-image-keyboard-response,332,1191417,learnblock1,774.7000000476837,img/planet1_right.png,1,Community 3,NA,TRUE,j,j,NA,NA,NA,4,7,"5,9,13,3,7,12,10,14,8,2,6,11,1,15,4"
15208,commdev-image-keyboard-response,333,1192670,learnblock1,940.7999999523163,img/planet15_right.png,15,Community 3,NA,TRUE,j,j,NA,NA,NA,4,7,"5,9,13,3,7,12,10,14,8,2,6,11,1,15,4"
15208,commdev-image-keyboard-response,334,1193925,learnblock1,848.5,img/planet4_left.png,4,Community 3,NA,TRUE,f,f,NA,NA,NA,4,7,"5,9,13,3,7,12,10,14,8,2,6,11,1,15,4"
15208,commdev-image-keyboard-response,335,1195180,learnblock1,793,img/planet6_right.png,6,Community 3,NA,TRUE,j,j,NA,NA,NA,4,7,"5,9,13,3,7,12,10,14,8,2,6,11,1,15,4"
15208,commdev-image-keyboard-response,336,1196436,learnblock1,696.5,img/planet7_right.png,7,Community 1,NA,TRUE,j,j,NA,NA,NA,4,7,"5,9,13,3,7,12,10,14,8,2,6,11,1,15,4"
15208,commdev-image-keyboard-response,337,1197690,learnblock1,872.3999999761581,img/planet13_left.png,13,Community 1,NA,TRUE,f,f,NA,NA,NA,4,7,"5,9,13,3,7,12,10,14,8,2,6,11,1,15,4"
15208,commdev-image-keyboard-response,338,1198944,learnblock1,716.5,img/planet5_left.png,5,Community 1,NA,TRUE,f,f,NA,NA,NA,4,7,"5,9,13,3,7,12,10,14,8,2,6,11,1,15,4"
15208,commdev-image-keyboard-response,339,1200199,learnblock1,926.5,img/planet9_left.png,9,Community 1,NA,TRUE,f,f,NA,NA,NA,4,7,"5,9,13,3,7,12,10,14,8,2,6,11,1,15,4"
15208,commdev-image-keyboard-response,340,1201451,learnblock1,640.6000000238419,img/planet3_right.png,3,Community 1,NA,TRUE,j,j,NA,NA,NA,4,7,"5,9,13,3,7,12,10,14,8,2,6,11,1,15,4"
15208,commdev-image-keyboard-response,341,1202705,learnblock1,515.3999999761581,img/planet9_right.png,9,Community 1,NA,FALSE,f,j,NA,NA,NA,4,7,"5,9,13,3,7,12,10,14,8,2,6,11,1,15,4"
15208,commdev-image-keyboard-response,342,1203959,learnblock1,1131.2000000476837,img/planet3_left.png,3,Community 1,NA,TRUE,f,f,NA,NA,NA,4,7,"5,9,13,3,7,12,10,14,8,2,6,11,1,15,4"
15208,commdev-image-keyboard-response,343,1205213,learnblock1,729,img/planet12_left.png,12,Community 2,NA,TRUE,f,f,NA,NA,NA,4,7,"5,9,13,3,7,12,10,14,8,2,6,11,1,15,4"
15208,commdev-image-keyboard-response,344,1206467,learnblock1,921.5,img/planet3_left.png,3,Community 1,NA,TRUE,f,f,NA,NA,NA,4,7,"5,9,13,3,7,12,10,14,8,2,6,11,1,15,4"
15208,commdev-image-keyboard-response,345,1207722,learnblock1,576.6000000238419,img/planet9_left.png,9,Community 1,NA,TRUE,f,f,NA,NA,NA,4,7,"5,9,13,3,7,12,10,14,8,2,6,11,1,15,4"
15208,commdev-image-keyboard-response,346,1208976,learnblock1,554.1000000238419,img/planet13_left.png,13,Community 1,NA,TRUE,f,f,NA,NA,NA,4,7,"5,9,13,3,7,12,10,14,8,2,6,11,1,15,4"
15208,commdev-image-keyboard-response,347,1210229,learnblock1,726.7000000476837,img/planet7_left.png,7,Community 1,NA,TRUE,f,f,NA,NA,NA,4,7,"5,9,13,3,7,12,10,14,8,2,6,11,1,15,4"
15208,commdev-image-keyboard-response,348,1211482,learnblock1,736.3999999761581,img/planet5_left.png,5,Community 1,NA,TRUE,f,f,NA,NA,NA,4,7,"5,9,13,3,7,12,10,14,8,2,6,11,1,15,4"
15208,commdev-image-keyboard-response,349,1212735,learnblock1,635.5,img/planet13_right.png,13,Community 1,NA,TRUE,j,j,NA,NA,NA,4,7,"5,9,13,3,7,12,10,14,8,2,6,11,1,15,4"
15208,commdev-image-keyboard-response,350,1213990,learnblock1,822.6000000238419,img/planet9_left.png,9,Community 1,NA,TRUE,f,f,NA,NA,NA,4,7,"5,9,13,3,7,12,10,14,8,2,6,11,1,15,4"
15208,commdev-image-keyboard-response,351,1215244,learnblock1,694.7000000476837,img/planet5_right.png,5,Community 1,NA,TRUE,j,j,NA,NA,NA,4,7,"5,9,13,3,7,12,10,14,8,2,6,11,1,15,4"
15208,commdev-image-keyboard-response,352,1216497,learnblock1,1042.6999999284744,img/planet13_right.png,13,Community 1,NA,FALSE,f,j,NA,NA,NA,4,7,"5,9,13,3,7,12,10,14,8,2,6,11,1,15,4"
15208,commdev-image-keyboard-response,353,1217751,learnblock1,998.2999999523163,img/planet3_right.png,3,Community 1,NA,TRUE,j,j,NA,NA,NA,4,7,"5,9,13,3,7,12,10,14,8,2,6,11,1,15,4"
15208,commdev-image-keyboard-response,354,1219005,learnblock1,808.3000000715256,img/planet13_left.png,13,Community 1,NA,TRUE,f,f,NA,NA,NA,4,7,"5,9,13,3,7,12,10,14,8,2,6,11,1,15,4"
15208,commdev-image-keyboard-response,355,1220258,learnblock1,793.5999999046326,img/planet7_left.png,7,Community 1,NA,TRUE,f,f,NA,NA,NA,4,7,"5,9,13,3,7,12,10,14,8,2,6,11,1,15,4"
15208,commdev-image-keyboard-response,356,1221511,learnblock1,613.5,img/planet5_left.png,5,Community 1,NA,TRUE,f,f,NA,NA,NA,4,7,"5,9,13,3,7,12,10,14,8,2,6,11,1,15,4"
15208,commdev-image-keyboard-response,357,1222765,learnblock1,655.2000000476837,img/planet3_right.png,3,Community 1,NA,TRUE,j,j,NA,NA,NA,4,7,"5,9,13,3,7,12,10,14,8,2,6,11,1,15,4"
15208,commdev-image-keyboard-response,358,1224019,learnblock1,834.7000000476837,img/planet5_left.png,5,Community 1,NA,TRUE,f,f,NA,NA,NA,4,7,"5,9,13,3,7,12,10,14,8,2,6,11,1,15,4"
15208,commdev-image-keyboard-response,359,1225274,learnblock1,992.2999999523163,img/planet3_left.png,3,Community 1,NA,TRUE,f,f,NA,NA,NA,4,7,"5,9,13,3,7,12,10,14,8,2,6,11,1,15,4"
15208,commdev-image-keyboard-response,360,1226529,learnblock1,756.3999999761581,img/planet5_left.png,5,Community 1,NA,TRUE,f,f,NA,NA,NA,4,7,"5,9,13,3,7,12,10,14,8,2,6,11,1,15,4"
15208,commdev-image-keyboard-response,361,1227782,learnblock1,733.8999999761581,img/planet9_right.png,9,Community 1,NA,TRUE,j,j,NA,NA,NA,4,7,"5,9,13,3,7,12,10,14,8,2,6,11,1,15,4"
15208,commdev-image-keyboard-response,362,1229035,learnblock1,887.1999999284744,img/planet7_left.png,7,Community 1,NA,TRUE,f,f,NA,NA,NA,4,7,"5,9,13,3,7,12,10,14,8,2,6,11,1,15,4"
15208,commdev-image-keyboard-response,363,1230288,learnblock1,780.1999999284744,img/planet9_left.png,9,Community 1,NA,TRUE,f,f,NA,NA,NA,4,7,"5,9,13,3,7,12,10,14,8,2,6,11,1,15,4"
15208,commdev-image-keyboard-response,364,1231540,learnblock1,749.1999999284744,img/planet7_right.png,7,Community 1,NA,TRUE,j,j,NA,NA,NA,4,7,"5,9,13,3,7,12,10,14,8,2,6,11,1,15,4"
15208,commdev-image-keyboard-response,365,1232796,learnblock1,975.0999999046326,img/planet13_right.png,13,Community 1,NA,FALSE,f,j,NA,NA,NA,4,7,"5,9,13,3,7,12,10,14,8,2,6,11,1,15,4"
15208,commdev-image-keyboard-response,366,1234050,learnblock1,1154,img/planet3_left.png,3,Community 1,NA,TRUE,f,f,NA,NA,NA,4,7,"5,9,13,3,7,12,10,14,8,2,6,11,1,15,4"
15208,commdev-image-keyboard-response,367,1235307,learnblock1,590.1000000238419,img/planet5_right.png,5,Community 1,NA,TRUE,j,j,NA,NA,NA,4,7,"5,9,13,3,7,12,10,14,8,2,6,11,1,15,4"
15208,commdev-image-keyboard-response,368,1236561,learnblock1,618.3999999761581,img/planet7_left.png,7,Community 1,NA,TRUE,f,f,NA,NA,NA,4,7,"5,9,13,3,7,12,10,14,8,2,6,11,1,15,4"
15208,commdev-image-keyboard-response,369,1237814,learnblock1,507.89999997615814,img/planet13_left.png,13,Community 1,NA,TRUE,f,f,NA,NA,NA,4,7,"5,9,13,3,7,12,10,14,8,2,6,11,1,15,4"
15208,commdev-image-keyboard-response,370,1239067,learnblock1,600.5,img/planet5_right.png,5,Community 1,NA,FALSE,f,j,NA,NA,NA,4,7,"5,9,13,3,7,12,10,14,8,2,6,11,1,15,4"
15208,commdev-image-keyboard-response,371,1240320,learnblock1,684,img/planet13_left.png,13,Community 1,NA,TRUE,f,f,NA,NA,NA,4,7,"5,9,13,3,7,12,10,14,8,2,6,11,1,15,4"
15208,commdev-image-keyboard-response,372,1241574,learnblock1,844.8999999761581,img/planet9_right.png,9,Community 1,NA,TRUE,j,j,NA,NA,NA,4,7,"5,9,13,3,7,12,10,14,8,2,6,11,1,15,4"
15208,commdev-image-keyboard-response,373,1242827,learnblock1,1007.8999999761581,img/planet7_left.png,7,Community 1,NA,TRUE,f,f,NA,NA,NA,4,7,"5,9,13,3,7,12,10,14,8,2,6,11,1,15,4"
15208,commdev-image-keyboard-response,374,1244080,learnblock1,772.6999999284744,img/planet13_left.png,13,Community 1,NA,TRUE,f,f,NA,NA,NA,4,7,"5,9,13,3,7,12,10,14,8,2,6,11,1,15,4"
15208,commdev-image-keyboard-response,375,1245333,learnblock1,721.6999999284744,img/planet5_left.png,5,Community 1,NA,TRUE,f,f,NA,NA,NA,4,7,"5,9,13,3,7,12,10,14,8,2,6,11,1,15,4"
15208,commdev-image-keyboard-response,376,1246588,learnblock1,713.2000000476837,img/planet9_left.png,9,Community 1,NA,TRUE,f,f,NA,NA,NA,4,7,"5,9,13,3,7,12,10,14,8,2,6,11,1,15,4"
15208,commdev-image-keyboard-response,377,1247842,learnblock1,819.7000000476837,img/planet13_right.png,13,Community 1,NA,TRUE,j,j,NA,NA,NA,4,7,"5,9,13,3,7,12,10,14,8,2,6,11,1,15,4"
15208,commdev-image-keyboard-response,378,1249095,learnblock1,1005.5,img/planet3_left.png,3,Community 1,NA,TRUE,f,f,NA,NA,NA,4,7,"5,9,13,3,7,12,10,14,8,2,6,11,1,15,4"
15208,commdev-image-keyboard-response,379,1250348,learnblock1,1081.5,img/planet5_left.png,5,Community 1,NA,FALSE,j,f,NA,NA,NA,4,7,"5,9,13,3,7,12,10,14,8,2,6,11,1,15,4"
15208,commdev-image-keyboard-response,380,1251601,learnblock1,885.2000000476837,img/planet9_right.png,9,Community 1,NA,FALSE,f,j,NA,NA,NA,4,7,"5,9,13,3,7,12,10,14,8,2,6,11,1,15,4"
15208,commdev-image-keyboard-response,381,1252855,learnblock1,972.7000000476837,img/planet7_right.png,7,Community 1,NA,FALSE,f,j,NA,NA,NA,4,7,"5,9,13,3,7,12,10,14,8,2,6,11,1,15,4"
15208,commdev-image-keyboard-response,382,1254108,learnblock1,1214.9000000953674,img/planet13_left.png,13,Community 1,NA,TRUE,f,f,NA,NA,NA,4,7,"5,9,13,3,7,12,10,14,8,2,6,11,1,15,4"
15208,commdev-image-keyboard-response,383,1255363,learnblock1,844.2000000476837,img/planet5_right.png,5,Community 1,NA,TRUE,j,j,NA,NA,NA,4,7,"5,9,13,3,7,12,10,14,8,2,6,11,1,15,4"
15208,commdev-image-keyboard-response,384,1256616,learnblock1,989.8000000715256,img/planet3_right.png,3,Community 1,NA,TRUE,j,j,NA,NA,NA,4,7,"5,9,13,3,7,12,10,14,8,2,6,11,1,15,4"
15208,commdev-image-keyboard-response,385,1257875,learnblock1,734.0999999046326,img/planet12_left.png,12,Community 2,NA,TRUE,f,f,NA,NA,NA,4,7,"5,9,13,3,7,12,10,14,8,2,6,11,1,15,4"
15208,commdev-image-keyboard-response,386,1259128,learnblock1,579,img/planet10_left.png,10,Community 2,NA,TRUE,f,f,NA,NA,NA,4,7,"5,9,13,3,7,12,10,14,8,2,6,11,1,15,4"
15208,commdev-image-keyboard-response,387,1260381,learnblock1,761.5,img/planet8_right.png,8,Community 2,NA,TRUE,j,j,NA,NA,NA,4,7,"5,9,13,3,7,12,10,14,8,2,6,11,1,15,4"
15208,commdev-image-keyboard-response,388,1261634,learnblock1,662.3999999761581,img/planet10_left.png,10,Community 2,NA,TRUE,f,f,NA,NA,NA,4,7,"5,9,13,3,7,12,10,14,8,2,6,11,1,15,4"
15208,commdev-image-keyboard-response,389,1262889,learnblock1,689.3000000715256,img/planet8_right.png,8,Community 2,NA,TRUE,j,j,NA,NA,NA,4,7,"5,9,13,3,7,12,10,14,8,2,6,11,1,15,4"
15208,commdev-image-keyboard-response,390,1264148,learnblock1,690.3999999761581,img/planet12_left.png,12,Community 2,NA,TRUE,f,f,NA,NA,NA,4,7,"5,9,13,3,7,12,10,14,8,2,6,11,1,15,4"
15208,commdev-image-keyboard-response,391,1265405,learnblock1,723.5999999046326,img/planet2_right.png,2,Community 2,NA,TRUE,j,j,NA,NA,NA,4,7,"5,9,13,3,7,12,10,14,8,2,6,11,1,15,4"
15208,commdev-image-keyboard-response,392,1266658,learnblock1,602.2000000476837,img/planet14_left.png,14,Community 2,NA,TRUE,f,f,NA,NA,NA,4,7,"5,9,13,3,7,12,10,14,8,2,6,11,1,15,4"
15208,commdev-image-keyboard-response,393,1267911,learnblock1,709,img/planet2_left.png,2,Community 2,NA,TRUE,f,f,NA,NA,NA,4,7,"5,9,13,3,7,12,10,14,8,2,6,11,1,15,4"
15208,commdev-image-keyboard-response,394,1269165,learnblock1,1149.3999999761581,img/planet8_right.png,8,Community 2,NA,TRUE,j,j,NA,NA,NA,4,7,"5,9,13,3,7,12,10,14,8,2,6,11,1,15,4"
15208,commdev-image-keyboard-response,395,1270419,learnblock1,698,img/planet10_left.png,10,Community 2,NA,TRUE,f,f,NA,NA,NA,4,7,"5,9,13,3,7,12,10,14,8,2,6,11,1,15,4"
15208,commdev-image-keyboard-response,396,1271674,learnblock1,1203.1000000238419,img/planet14_left.png,14,Community 2,NA,TRUE,f,f,NA,NA,NA,4,7,"5,9,13,3,7,12,10,14,8,2,6,11,1,15,4"
15208,commdev-image-keyboard-response,397,1272928,learnblock1,971.9000000953674,img/planet8_right.png,8,Community 2,NA,TRUE,j,j,NA,NA,NA,4,7,"5,9,13,3,7,12,10,14,8,2,6,11,1,15,4"
15208,commdev-image-keyboard-response,398,1274182,learnblock1,726.5,img/planet12_left.png,12,Community 2,NA,TRUE,f,f,NA,NA,NA,4,7,"5,9,13,3,7,12,10,14,8,2,6,11,1,15,4"
15208,commdev-image-keyboard-response,399,1275446,learnblock1,639,img/planet10_left.png,10,Community 2,NA,TRUE,f,f,NA,NA,NA,4,7,"5,9,13,3,7,12,10,14,8,2,6,11,1,15,4"
15208,commdev-image-keyboard-response,400,1276700,learnblock1,881,img/planet12_right.png,12,Community 2,NA,TRUE,j,j,NA,NA,NA,4,7,"5,9,13,3,7,12,10,14,8,2,6,11,1,15,4"
15208,commdev-image-keyboard-response,401,1277954,learnblock1,616.4000000953674,img/planet2_right.png,2,Community 2,NA,TRUE,j,j,NA,NA,NA,4,7,"5,9,13,3,7,12,10,14,8,2,6,11,1,15,4"
15208,commdev-image-keyboard-response,402,1279210,learnblock1,887.6999999284744,img/planet14_left.png,14,Community 2,NA,TRUE,f,f,NA,NA,NA,4,7,"5,9,13,3,7,12,10,14,8,2,6,11,1,15,4"
15208,commdev-image-keyboard-response,403,1280464,learnblock1,734,img/planet10_right.png,10,Community 2,NA,TRUE,j,j,NA,NA,NA,4,7,"5,9,13,3,7,12,10,14,8,2,6,11,1,15,4"
15208,commdev-image-keyboard-response,404,1281717,learnblock1,912.5999999046326,img/planet8_right.png,8,Community 2,NA,TRUE,j,j,NA,NA,NA,4,7,"5,9,13,3,7,12,10,14,8,2,6,11,1,15,4"
15208,commdev-image-keyboard-response,405,1282971,learnblock1,779.8999999761581,img/planet14_left.png,14,Community 2,NA,TRUE,f,f,NA,NA,NA,4,7,"5,9,13,3,7,12,10,14,8,2,6,11,1,15,4"
15208,commdev-image-keyboard-response,406,1284224,learnblock1,820,img/planet11_right.png,11,Community 3,NA,TRUE,j,j,NA,NA,NA,4,7,"5,9,13,3,7,12,10,14,8,2,6,11,1,15,4"
15208,commdev-image-keyboard-response,407,1285479,learnblock1,742.4000000953674,img/planet15_right.png,15,Community 3,NA,TRUE,j,j,NA,NA,NA,4,7,"5,9,13,3,7,12,10,14,8,2,6,11,1,15,4"
15208,commdev-image-keyboard-response,408,1286733,learnblock1,935.7000000476837,img/planet11_right.png,11,Community 3,NA,TRUE,j,j,NA,NA,NA,4,7,"5,9,13,3,7,12,10,14,8,2,6,11,1,15,4"
15208,commdev-image-keyboard-response,409,1287987,learnblock1,889.5,img/planet14_right.png,14,Community 2,NA,TRUE,j,j,NA,NA,NA,4,7,"5,9,13,3,7,12,10,14,8,2,6,11,1,15,4"
15208,commdev-image-keyboard-response,410,1289242,learnblock1,611,img/planet2_left.png,2,Community 2,NA,FALSE,j,f,NA,NA,NA,4,7,"5,9,13,3,7,12,10,14,8,2,6,11,1,15,4"
15208,commdev-image-keyboard-response,411,1290496,learnblock1,820.7999999523163,img/planet8_left.png,8,Community 2,NA,TRUE,f,f,NA,NA,NA,4,7,"5,9,13,3,7,12,10,14,8,2,6,11,1,15,4"
15208,commdev-image-keyboard-response,412,1291749,learnblock1,572.3999999761581,img/planet10_left.png,10,Community 2,NA,TRUE,f,f,NA,NA,NA,4,7,"5,9,13,3,7,12,10,14,8,2,6,11,1,15,4"
15208,commdev-image-keyboard-response,413,1293002,learnblock1,793.7999999523163,img/planet2_right.png,2,Community 2,NA,TRUE,j,j,NA,NA,NA,4,7,"5,9,13,3,7,12,10,14,8,2,6,11,1,15,4"
15208,commdev-image-keyboard-response,414,1294255,learnblock1,null,img/planet12_left.png,12,Community 2,NA,FALSE,null,f,NA,NA,NA,4,7,"5,9,13,3,7,12,10,14,8,2,6,11,1,15,4"
15208,commdev-image-keyboard-response,415,1295522,learnblock1,78.70000004768372,img/planet3_right.png,3,Community 1,NA,FALSE,f,j,NA,NA,NA,4,7,"5,9,13,3,7,12,10,14,8,2,6,11,1,15,4"
15208,commdev-image-keyboard-response,416,1296776,learnblock1,316.5,img/planet13_left.png,13,Community 1,NA,TRUE,f,f,NA,NA,NA,4,7,"5,9,13,3,7,12,10,14,8,2,6,11,1,15,4"
15208,commdev-image-keyboard-response,417,1298030,learnblock1,542.7000000476837,img/planet3_right.png,3,Community 1,NA,TRUE,j,j,NA,NA,NA,4,7,"5,9,13,3,7,12,10,14,8,2,6,11,1,15,4"
15208,commdev-image-keyboard-response,418,1299283,learnblock1,673,img/planet5_left.png,5,Community 1,NA,TRUE,f,f,NA,NA,NA,4,7,"5,9,13,3,7,12,10,14,8,2,6,11,1,15,4"
15208,commdev-image-keyboard-response,419,1300537,learnblock1,739.5,img/planet13_right.png,13,Community 1,NA,TRUE,j,j,NA,NA,NA,4,7,"5,9,13,3,7,12,10,14,8,2,6,11,1,15,4"
15208,commdev-image-keyboard-response,420,1301791,learnblock1,676.6000000238419,img/planet7_right.png,7,Community 1,NA,FALSE,f,j,NA,NA,NA,4,7,"5,9,13,3,7,12,10,14,8,2,6,11,1,15,4"
15208,commdev-image-keyboard-response,421,1303045,learnblock1,880.3999999761581,img/planet9_left.png,9,Community 1,NA,FALSE,j,f,NA,NA,NA,4,7,"5,9,13,3,7,12,10,14,8,2,6,11,1,15,4"
15208,commdev-image-keyboard-response,422,1304298,learnblock1,811,img/planet5_right.png,5,Community 1,NA,TRUE,j,j,NA,NA,NA,4,7,"5,9,13,3,7,12,10,14,8,2,6,11,1,15,4"
15208,commdev-image-keyboard-response,423,1305552,learnblock1,662.6000000238419,img/planet7_right.png,7,Community 1,NA,TRUE,j,j,NA,NA,NA,4,7,"5,9,13,3,7,12,10,14,8,2,6,11,1,15,4"
15208,commdev-image-keyboard-response,424,1306807,learnblock1,726.7000000476837,img/planet9_left.png,9,Community 1,NA,TRUE,f,f,NA,NA,NA,4,7,"5,9,13,3,7,12,10,14,8,2,6,11,1,15,4"
15208,commdev-image-keyboard-response,425,1308060,learnblock1,1199.6000000238419,img/planet7_right.png,7,Community 1,NA,TRUE,j,j,NA,NA,NA,4,7,"5,9,13,3,7,12,10,14,8,2,6,11,1,15,4"
15208,commdev-image-keyboard-response,426,1309320,learnblock1,884.5,img/planet5_right.png,5,Community 1,NA,TRUE,j,j,NA,NA,NA,4,7,"5,9,13,3,7,12,10,14,8,2,6,11,1,15,4"
15208,commdev-image-keyboard-response,427,1310578,learnblock1,550.2999999523163,img/planet13_left.png,13,Community 1,NA,TRUE,f,f,NA,NA,NA,4,7,"5,9,13,3,7,12,10,14,8,2,6,11,1,15,4"
15208,commdev-image-keyboard-response,428,1311832,learnblock1,828.1000000238419,img/planet7_left.png,7,Community 1,NA,TRUE,f,f,NA,NA,NA,4,7,"5,9,13,3,7,12,10,14,8,2,6,11,1,15,4"
15208,commdev-image-keyboard-response,429,1313086,learnblock1,792.6000000238419,img/planet5_left.png,5,Community 1,NA,TRUE,f,f,NA,NA,NA,4,7,"5,9,13,3,7,12,10,14,8,2,6,11,1,15,4"
15208,commdev-image-keyboard-response,430,1314338,learnblock1,684.6000000238419,img/planet9_right.png,9,Community 1,NA,TRUE,j,j,NA,NA,NA,4,7,"5,9,13,3,7,12,10,14,8,2,6,11,1,15,4"
15208,commdev-image-keyboard-response,431,1315592,learnblock1,650.4000000953674,img/planet7_left.png,7,Community 1,NA,TRUE,f,f,NA,NA,NA,4,7,"5,9,13,3,7,12,10,14,8,2,6,11,1,15,4"
15208,commdev-image-keyboard-response,432,1316847,learnblock1,1198.2999999523163,img/planet5_left.png,5,Community 1,NA,TRUE,f,f,NA,NA,NA,4,7,"5,9,13,3,7,12,10,14,8,2,6,11,1,15,4"
15208,commdev-image-keyboard-response,433,1318100,learnblock1,559.3000000715256,img/planet7_right.png,7,Community 1,NA,TRUE,j,j,NA,NA,NA,4,7,"5,9,13,3,7,12,10,14,8,2,6,11,1,15,4"
15208,commdev-image-keyboard-response,434,1319354,learnblock1,657.8999999761581,img/planet5_left.png,5,Community 1,NA,TRUE,f,f,NA,NA,NA,4,7,"5,9,13,3,7,12,10,14,8,2,6,11,1,15,4"
15208,commdev-image-keyboard-response,435,1320607,learnblock1,null,img/planet3_left.png,3,Community 1,NA,FALSE,null,f,NA,NA,NA,4,7,"5,9,13,3,7,12,10,14,8,2,6,11,1,15,4"
15208,commdev-image-keyboard-response,436,1321862,learnblock1,206.60000002384186,img/planet5_right.png,5,Community 1,NA,TRUE,j,j,NA,NA,NA,4,7,"5,9,13,3,7,12,10,14,8,2,6,11,1,15,4"
15208,commdev-image-keyboard-response,437,1323115,learnblock1,994.3000000715256,img/planet9_left.png,9,Community 1,NA,TRUE,f,f,NA,NA,NA,4,7,"5,9,13,3,7,12,10,14,8,2,6,11,1,15,4"
15208,commdev-image-keyboard-response,438,1324366,learnblock1,654.5999999046326,img/planet5_right.png,5,Community 1,NA,TRUE,j,j,NA,NA,NA,4,7,"5,9,13,3,7,12,10,14,8,2,6,11,1,15,4"
15208,commdev-image-keyboard-response,439,1325620,learnblock1,701.2999999523163,img/planet9_left.png,9,Community 1,NA,TRUE,f,f,NA,NA,NA,4,7,"5,9,13,3,7,12,10,14,8,2,6,11,1,15,4"
15208,commdev-image-keyboard-response,440,1326874,learnblock1,777.7000000476837,img/planet5_left.png,5,Community 1,NA,TRUE,f,f,NA,NA,NA,4,7,"5,9,13,3,7,12,10,14,8,2,6,11,1,15,4"
15208,commdev-image-keyboard-response,441,1328128,learnblock1,1131.5,img/planet7_right.png,7,Community 1,NA,TRUE,j,j,NA,NA,NA,4,7,"5,9,13,3,7,12,10,14,8,2,6,11,1,15,4"
15208,commdev-image-keyboard-response,442,1329382,learnblock1,1085.1000000238419,img/planet13_right.png,13,Community 1,NA,TRUE,j,j,NA,NA,NA,4,7,"5,9,13,3,7,12,10,14,8,2,6,11,1,15,4"
15208,commdev-image-keyboard-response,443,1330636,learnblock1,743.7000000476837,img/planet9_left.png,9,Community 1,NA,TRUE,f,f,NA,NA,NA,4,7,"5,9,13,3,7,12,10,14,8,2,6,11,1,15,4"
15208,commdev-image-keyboard-response,444,1331890,learnblock1,992.9000000953674,img/planet7_right.png,7,Community 1,NA,FALSE,f,j,NA,NA,NA,4,7,"5,9,13,3,7,12,10,14,8,2,6,11,1,15,4"
15208,commdev-image-keyboard-response,445,1333142,learnblock1,1122.8000000715256,img/planet9_left.png,9,Community 1,NA,FALSE,j,f,NA,NA,NA,4,7,"5,9,13,3,7,12,10,14,8,2,6,11,1,15,4"
15208,commdev-image-keyboard-response,446,1334394,learnblock1,987.7999999523163,img/planet3_left.png,3,Community 1,NA,TRUE,f,f,NA,NA,NA,4,7,"5,9,13,3,7,12,10,14,8,2,6,11,1,15,4"
15208,commdev-image-keyboard-response,447,1335648,learnblock1,811.3999999761581,img/planet5_right.png,5,Community 1,NA,TRUE,j,j,NA,NA,NA,4,7,"5,9,13,3,7,12,10,14,8,2,6,11,1,15,4"
15208,commdev-image-keyboard-response,448,1336903,learnblock1,1157.3999999761581,img/planet3_right.png,3,Community 1,NA,TRUE,j,j,NA,NA,NA,4,7,"5,9,13,3,7,12,10,14,8,2,6,11,1,15,4"
15208,commdev-image-keyboard-response,449,1338165,learnblock1,809.0999999046326,img/planet5_right.png,5,Community 1,NA,TRUE,j,j,NA,NA,NA,4,7,"5,9,13,3,7,12,10,14,8,2,6,11,1,15,4"
15208,commdev-image-keyboard-response,450,1339419,learnblock1,918.9000000953674,img/planet3_right.png,3,Community 1,NA,TRUE,j,j,NA,NA,NA,4,7,"5,9,13,3,7,12,10,14,8,2,6,11,1,15,4"
15208,commdev-image-keyboard-response,451,1340672,learnblock1,651.3999999761581,img/planet12_left.png,12,Community 2,NA,TRUE,f,f,NA,NA,NA,4,7,"5,9,13,3,7,12,10,14,8,2,6,11,1,15,4"
15208,commdev-image-keyboard-response,452,1341926,learnblock1,693.5,img/planet3_left.png,3,Community 1,NA,TRUE,f,f,NA,NA,NA,4,7,"5,9,13,3,7,12,10,14,8,2,6,11,1,15,4"
15208,commdev-image-keyboard-response,453,1343181,learnblock1,735.7000000476837,img/planet9_right.png,9,Community 1,NA,TRUE,j,j,NA,NA,NA,4,7,"5,9,13,3,7,12,10,14,8,2,6,11,1,15,4"
15208,commdev-image-keyboard-response,454,1344435,learnblock1,736.8000000715256,img/planet3_right.png,3,Community 1,NA,TRUE,j,j,NA,NA,NA,4,7,"5,9,13,3,7,12,10,14,8,2,6,11,1,15,4"
15208,commdev-image-keyboard-response,455,1345689,learnblock1,560.3999999761581,img/planet12_left.png,12,Community 2,NA,TRUE,f,f,NA,NA,NA,4,7,"5,9,13,3,7,12,10,14,8,2,6,11,1,15,4"
15208,commdev-image-keyboard-response,456,1346944,learnblock1,661.5,img/planet10_left.png,10,Community 2,NA,TRUE,f,f,NA,NA,NA,4,7,"5,9,13,3,7,12,10,14,8,2,6,11,1,15,4"
15208,commdev-image-keyboard-response,457,1348199,learnblock1,931.8999999761581,img/planet2_right.png,2,Community 2,NA,TRUE,j,j,NA,NA,NA,4,7,"5,9,13,3,7,12,10,14,8,2,6,11,1,15,4"
15208,commdev-image-keyboard-response,458,1349452,learnblock1,1035.4000000953674,img/planet10_right.png,10,Community 2,NA,FALSE,f,j,NA,NA,NA,4,7,"5,9,13,3,7,12,10,14,8,2,6,11,1,15,4"
15208,commdev-image-keyboard-response,459,1350707,learnblock1,955.1000000238419,img/planet2_left.png,2,Community 2,NA,TRUE,f,f,NA,NA,NA,4,7,"5,9,13,3,7,12,10,14,8,2,6,11,1,15,4"
15208,commdev-image-keyboard-response,460,1351960,learnblock1,610.6999999284744,img/planet8_right.png,8,Community 2,NA,TRUE,j,j,NA,NA,NA,4,7,"5,9,13,3,7,12,10,14,8,2,6,11,1,15,4"
15208,commdev-image-keyboard-response,461,1353215,learnblock1,917.3999999761581,img/planet2_right.png,2,Community 2,NA,TRUE,j,j,NA,NA,NA,4,7,"5,9,13,3,7,12,10,14,8,2,6,11,1,15,4"
15208,commdev-image-keyboard-response,462,1354469,learnblock1,638.2000000476837,img/planet8_right.png,8,Community 2,NA,TRUE,j,j,NA,NA,NA,4,7,"5,9,13,3,7,12,10,14,8,2,6,11,1,15,4"
15208,commdev-image-keyboard-response,463,1355723,learnblock1,810.8999999761581,img/planet14_left.png,14,Community 2,NA,TRUE,f,f,NA,NA,NA,4,7,"5,9,13,3,7,12,10,14,8,2,6,11,1,15,4"
15208,commdev-image-keyboard-response,464,1356977,learnblock1,803.6000000238419,img/planet10_left.png,10,Community 2,NA,TRUE,f,f,NA,NA,NA,4,7,"5,9,13,3,7,12,10,14,8,2,6,11,1,15,4"
15208,commdev-image-keyboard-response,465,1358231,learnblock1,860.2999999523163,img/planet12_right.png,12,Community 2,NA,TRUE,j,j,NA,NA,NA,4,7,"5,9,13,3,7,12,10,14,8,2,6,11,1,15,4"
15208,commdev-image-keyboard-response,466,1359485,learnblock1,574.6000000238419,img/planet10_left.png,10,Community 2,NA,TRUE,f,f,NA,NA,NA,4,7,"5,9,13,3,7,12,10,14,8,2,6,11,1,15,4"
15208,commdev-image-keyboard-response,467,1360738,learnblock1,712.7999999523163,img/planet14_right.png,14,Community 2,NA,TRUE,j,j,NA,NA,NA,4,7,"5,9,13,3,7,12,10,14,8,2,6,11,1,15,4"
15208,commdev-image-keyboard-response,468,1361992,learnblock1,563.5999999046326,img/planet10_right.png,10,Community 2,NA,FALSE,f,j,NA,NA,NA,4,7,"5,9,13,3,7,12,10,14,8,2,6,11,1,15,4"
15208,commdev-image-keyboard-response,469,1363246,learnblock1,1052,img/planet14_right.png,14,Community 2,NA,TRUE,j,j,NA,NA,NA,4,7,"5,9,13,3,7,12,10,14,8,2,6,11,1,15,4"
15208,commdev-image-keyboard-response,470,1364500,learnblock1,null,img/planet10_left.png,10,Community 2,NA,FALSE,null,f,NA,NA,NA,4,7,"5,9,13,3,7,12,10,14,8,2,6,11,1,15,4"
15208,commdev-image-keyboard-response,471,1365753,learnblock1,79.60000002384186,img/planet2_left.png,2,Community 2,NA,FALSE,j,f,NA,NA,NA,4,7,"5,9,13,3,7,12,10,14,8,2,6,11,1,15,4"
15208,commdev-image-keyboard-response,472,1367007,learnblock1,1093,img/planet10_left.png,10,Community 2,NA,FALSE,j,f,NA,NA,NA,4,7,"5,9,13,3,7,12,10,14,8,2,6,11,1,15,4"
15208,commdev-image-keyboard-response,473,1368260,learnblock1,864.3000000715256,img/planet2_right.png,2,Community 2,NA,FALSE,f,j,NA,NA,NA,4,7,"5,9,13,3,7,12,10,14,8,2,6,11,1,15,4"
15208,commdev-image-keyboard-response,474,1369515,learnblock1,775.3999999761581,img/planet8_left.png,8,Community 2,NA,FALSE,j,f,NA,NA,NA,4,7,"5,9,13,3,7,12,10,14,8,2,6,11,1,15,4"
15208,commdev-image-keyboard-response,475,1370770,learnblock1,1088.8000000715256,img/planet12_left.png,12,Community 2,NA,TRUE,f,f,NA,NA,NA,4,7,"5,9,13,3,7,12,10,14,8,2,6,11,1,15,4"
15208,commdev-image-keyboard-response,476,1372024,learnblock1,1171.5,img/planet8_right.png,8,Community 2,NA,TRUE,j,j,NA,NA,NA,4,7,"5,9,13,3,7,12,10,14,8,2,6,11,1,15,4"
15208,commdev-image-keyboard-response,477,1373277,learnblock1,909.2000000476837,img/planet12_right.png,12,Community 2,NA,TRUE,j,j,NA,NA,NA,4,7,"5,9,13,3,7,12,10,14,8,2,6,11,1,15,4"
15208,commdev-image-keyboard-response,478,1374531,learnblock1,944.2999999523163,img/planet10_left.png,10,Community 2,NA,TRUE,f,f,NA,NA,NA,4,7,"5,9,13,3,7,12,10,14,8,2,6,11,1,15,4"
15208,commdev-image-keyboard-response,479,1375784,learnblock1,841.8999999761581,img/planet12_right.png,12,Community 2,NA,TRUE,j,j,NA,NA,NA,4,7,"5,9,13,3,7,12,10,14,8,2,6,11,1,15,4"
15208,commdev-image-keyboard-response,480,1377038,learnblock1,949.4000000953674,img/planet3_right.png,3,Community 1,NA,TRUE,j,j,NA,NA,NA,4,7,"5,9,13,3,7,12,10,14,8,2,6,11,1,15,4"
15208,commdev-image-keyboard-response,481,1378291,learnblock1,null,img/planet9_left.png,9,Community 1,NA,FALSE,null,f,NA,NA,NA,4,7,"5,9,13,3,7,12,10,14,8,2,6,11,1,15,4"
15208,commdev-image-keyboard-response,482,1379545,learnblock1,849.2000000476837,img/planet13_left.png,13,Community 1,NA,TRUE,f,f,NA,NA,NA,4,7,"5,9,13,3,7,12,10,14,8,2,6,11,1,15,4"
15208,commdev-image-keyboard-response,483,1380799,learnblock1,null,img/planet7_left.png,7,Community 1,NA,FALSE,null,f,NA,NA,NA,4,7,"5,9,13,3,7,12,10,14,8,2,6,11,1,15,4"
15208,commdev-image-keyboard-response,484,1382063,learnblock1,909.7999999523163,img/planet13_left.png,13,Community 1,NA,TRUE,f,f,NA,NA,NA,4,7,"5,9,13,3,7,12,10,14,8,2,6,11,1,15,4"
15208,commdev-image-keyboard-response,485,1383318,learnblock1,830.7000000476837,img/planet5_left.png,5,Community 1,NA,TRUE,f,f,NA,NA,NA,4,7,"5,9,13,3,7,12,10,14,8,2,6,11,1,15,4"
15208,commdev-image-keyboard-response,486,1384571,learnblock1,744.1000000238419,img/planet9_right.png,9,Community 1,NA,TRUE,j,j,NA,NA,NA,4,7,"5,9,13,3,7,12,10,14,8,2,6,11,1,15,4"
15208,commdev-image-keyboard-response,487,1385826,learnblock1,null,img/planet5_right.png,5,Community 1,NA,FALSE,null,j,NA,NA,NA,4,7,"5,9,13,3,7,12,10,14,8,2,6,11,1,15,4"
15208,commdev-image-keyboard-response,488,1387080,learnblock1,83.5,img/planet3_left.png,3,Community 1,NA,TRUE,f,f,NA,NA,NA,4,7,"5,9,13,3,7,12,10,14,8,2,6,11,1,15,4"
15208,commdev-image-keyboard-response,489,1388333,learnblock1,950.2000000476837,img/planet5_right.png,5,Community 1,NA,TRUE,j,j,NA,NA,NA,4,7,"5,9,13,3,7,12,10,14,8,2,6,11,1,15,4"
15208,commdev-image-keyboard-response,490,1389587,learnblock1,null,img/planet7_right.png,7,Community 1,NA,FALSE,null,j,NA,NA,NA,4,7,"5,9,13,3,7,12,10,14,8,2,6,11,1,15,4"
15208,commdev-image-keyboard-response,491,1390841,learnblock1,877.1999999284744,img/planet6_right.png,6,Community 3,NA,TRUE,j,j,NA,NA,NA,4,7,"5,9,13,3,7,12,10,14,8,2,6,11,1,15,4"
15208,commdev-image-keyboard-response,492,1392094,learnblock1,1034.5,img/planet1_right.png,1,Community 3,NA,TRUE,j,j,NA,NA,NA,4,7,"5,9,13,3,7,12,10,14,8,2,6,11,1,15,4"
15208,commdev-image-keyboard-response,493,1393348,learnblock1,754,img/planet6_left.png,6,Community 3,NA,TRUE,f,f,NA,NA,NA,4,7,"5,9,13,3,7,12,10,14,8,2,6,11,1,15,4"
15208,commdev-image-keyboard-response,494,1394603,learnblock1,794.2000000476837,img/planet7_right.png,7,Community 1,NA,TRUE,j,j,NA,NA,NA,4,7,"5,9,13,3,7,12,10,14,8,2,6,11,1,15,4"
15208,commdev-image-keyboard-response,495,1395856,learnblock1,674.8999999761581,img/planet13_right.png,13,Community 1,NA,FALSE,f,j,NA,NA,NA,4,7,"5,9,13,3,7,12,10,14,8,2,6,11,1,15,4"
15208,commdev-image-keyboard-response,496,1397110,learnblock1,587.8999999761581,img/planet5_left.png,5,Community 1,NA,FALSE,j,f,NA,NA,NA,4,7,"5,9,13,3,7,12,10,14,8,2,6,11,1,15,4"
15208,commdev-image-keyboard-response,497,1398362,learnblock1,815.1000000238419,img/planet13_left.png,13,Community 1,NA,TRUE,f,f,NA,NA,NA,4,7,"5,9,13,3,7,12,10,14,8,2,6,11,1,15,4"
15208,commdev-image-keyboard-response,498,1399615,learnblock1,673.9000000953674,img/planet7_right.png,7,Community 1,NA,TRUE,j,j,NA,NA,NA,4,7,"5,9,13,3,7,12,10,14,8,2,6,11,1,15,4"
15208,commdev-image-keyboard-response,499,1400870,learnblock1,881.2000000476837,img/planet9_left.png,9,Community 1,NA,FALSE,j,f,NA,NA,NA,4,7,"5,9,13,3,7,12,10,14,8,2,6,11,1,15,4"
15208,commdev-image-keyboard-response,500,1402123,learnblock1,552.2000000476837,img/planet7_left.png,7,Community 1,NA,TRUE,f,f,NA,NA,NA,4,7,"5,9,13,3,7,12,10,14,8,2,6,11,1,15,4"
15208,commdev-image-keyboard-response,501,1403378,learnblock1,668.7999999523163,img/planet5_right.png,5,Community 1,NA,TRUE,j,j,NA,NA,NA,4,7,"5,9,13,3,7,12,10,14,8,2,6,11,1,15,4"
15208,commdev-image-keyboard-response,502,1404632,learnblock1,628.1000000238419,img/planet13_left.png,13,Community 1,NA,TRUE,f,f,NA,NA,NA,4,7,"5,9,13,3,7,12,10,14,8,2,6,11,1,15,4"
15208,commdev-image-keyboard-response,503,1405887,learnblock1,403.7999999523163,img/planet7_left.png,7,Community 1,NA,FALSE,j,f,NA,NA,NA,4,7,"5,9,13,3,7,12,10,14,8,2,6,11,1,15,4"
15208,commdev-image-keyboard-response,504,1407141,learnblock1,1065.5,img/planet9_left.png,9,Community 1,NA,FALSE,j,f,NA,NA,NA,4,7,"5,9,13,3,7,12,10,14,8,2,6,11,1,15,4"
15208,commdev-image-keyboard-response,505,1408400,learnblock1,844,img/planet7_right.png,7,Community 1,NA,FALSE,f,j,NA,NA,NA,4,7,"5,9,13,3,7,12,10,14,8,2,6,11,1,15,4"
15208,commdev-image-keyboard-response,506,1409653,learnblock1,676.4000000953674,img/planet5_right.png,5,Community 1,NA,TRUE,j,j,NA,NA,NA,4,7,"5,9,13,3,7,12,10,14,8,2,6,11,1,15,4"
15208,commdev-image-keyboard-response,507,1410906,learnblock1,906.0999999046326,img/planet9_right.png,9,Community 1,NA,TRUE,j,j,NA,NA,NA,4,7,"5,9,13,3,7,12,10,14,8,2,6,11,1,15,4"
15208,commdev-image-keyboard-response,508,1412160,learnblock1,949.6999999284744,img/planet7_right.png,7,Community 1,NA,TRUE,j,j,NA,NA,NA,4,7,"5,9,13,3,7,12,10,14,8,2,6,11,1,15,4"
15208,commdev-image-keyboard-response,509,1413413,learnblock1,820.3999999761581,img/planet13_left.png,13,Community 1,NA,TRUE,f,f,NA,NA,NA,4,7,"5,9,13,3,7,12,10,14,8,2,6,11,1,15,4"
15208,commdev-image-keyboard-response,510,1414667,learnblock1,592.5,img/planet9_right.png,9,Community 1,NA,TRUE,j,j,NA,NA,NA,4,7,"5,9,13,3,7,12,10,14,8,2,6,11,1,15,4"
15208,commdev-image-keyboard-response,511,1415921,learnblock1,922.6000000238419,img/planet7_left.png,7,Community 1,NA,TRUE,f,f,NA,NA,NA,4,7,"5,9,13,3,7,12,10,14,8,2,6,11,1,15,4"
15208,commdev-image-keyboard-response,512,1417174,learnblock1,771,img/planet6_right.png,6,Community 3,NA,TRUE,j,j,NA,NA,NA,4,7,"5,9,13,3,7,12,10,14,8,2,6,11,1,15,4"
15208,commdev-image-keyboard-response,513,1418441,learnblock1,634.7999999523163,img/planet7_left.png,7,Community 1,NA,TRUE,f,f,NA,NA,NA,4,7,"5,9,13,3,7,12,10,14,8,2,6,11,1,15,4"
15208,commdev-image-keyboard-response,514,1419695,learnblock1,469.09999990463257,img/planet6_left.png,6,Community 3,NA,FALSE,j,f,NA,NA,NA,4,7,"5,9,13,3,7,12,10,14,8,2,6,11,1,15,4"
15208,commdev-image-keyboard-response,515,1420949,learnblock1,856,img/planet1_left.png,1,Community 3,NA,TRUE,f,f,NA,NA,NA,4,7,"5,9,13,3,7,12,10,14,8,2,6,11,1,15,4"
15208,commdev-image-keyboard-response,516,1422202,learnblock1,894.7999999523163,img/planet6_right.png,6,Community 3,NA,TRUE,j,j,NA,NA,NA,4,7,"5,9,13,3,7,12,10,14,8,2,6,11,1,15,4"
15208,commdev-image-keyboard-response,517,1423455,learnblock1,null,img/planet1_left.png,1,Community 3,NA,FALSE,null,f,NA,NA,NA,4,7,"5,9,13,3,7,12,10,14,8,2,6,11,1,15,4"
15208,commdev-image-keyboard-response,518,1424708,learnblock1,45.200000047683716,img/planet11_left.png,11,Community 3,NA,TRUE,f,f,NA,NA,NA,4,7,"5,9,13,3,7,12,10,14,8,2,6,11,1,15,4"
15208,commdev-image-keyboard-response,522,1532513,learnblock2,null,img/planet7_right.png,7,Community 1,NA,FALSE,null,j,NA,NA,NA,4,7,"5,9,13,3,7,12,10,14,8,2,6,11,1,15,4"
15208,commdev-image-keyboard-response,523,1533767,learnblock2,156,img/planet5_right.png,5,Community 1,NA,TRUE,j,j,NA,NA,NA,4,7,"5,9,13,3,7,12,10,14,8,2,6,11,1,15,4"
15208,commdev-image-keyboard-response,524,1535020,learnblock2,585.1999999284744,img/planet13_right.png,13,Community 1,NA,TRUE,j,j,NA,NA,NA,4,7,"5,9,13,3,7,12,10,14,8,2,6,11,1,15,4"
15208,commdev-image-keyboard-response,525,1536272,learnblock2,610.8999999761581,img/planet5_right.png,5,Community 1,NA,TRUE,j,j,NA,NA,NA,4,7,"5,9,13,3,7,12,10,14,8,2,6,11,1,15,4"
15208,commdev-image-keyboard-response,526,1537526,learnblock2,578.3999999761581,img/planet3_right.png,3,Community 1,NA,TRUE,j,j,NA,NA,NA,4,7,"5,9,13,3,7,12,10,14,8,2,6,11,1,15,4"
15208,commdev-image-keyboard-response,527,1538780,learnblock2,599.5,img/planet5_left.png,5,Community 1,NA,TRUE,f,f,NA,NA,NA,4,7,"5,9,13,3,7,12,10,14,8,2,6,11,1,15,4"
15208,commdev-image-keyboard-response,528,1540035,learnblock2,722.8999999761581,img/planet13_right.png,13,Community 1,NA,FALSE,f,j,NA,NA,NA,4,7,"5,9,13,3,7,12,10,14,8,2,6,11,1,15,4"
15208,commdev-image-keyboard-response,529,1541293,learnblock2,811.3999999761581,img/planet3_left.png,3,Community 1,NA,TRUE,f,f,NA,NA,NA,4,7,"5,9,13,3,7,12,10,14,8,2,6,11,1,15,4"
15208,commdev-image-keyboard-response,530,1542547,learnblock2,752.9000000953674,img/planet5_right.png,5,Community 1,NA,TRUE,j,j,NA,NA,NA,4,7,"5,9,13,3,7,12,10,14,8,2,6,11,1,15,4"
15208,commdev-image-keyboard-response,531,1543800,learnblock2,576.5999999046326,img/planet13_left.png,13,Community 1,NA,TRUE,f,f,NA,NA,NA,4,7,"5,9,13,3,7,12,10,14,8,2,6,11,1,15,4"
15208,commdev-image-keyboard-response,532,1545054,learnblock2,1102.2000000476837,img/planet3_right.png,3,Community 1,NA,TRUE,j,j,NA,NA,NA,4,7,"5,9,13,3,7,12,10,14,8,2,6,11,1,15,4"
15208,commdev-image-keyboard-response,533,1546307,learnblock2,825.7999999523163,img/planet12_right.png,12,Community 2,NA,TRUE,j,j,NA,NA,NA,4,7,"5,9,13,3,7,12,10,14,8,2,6,11,1,15,4"
15208,commdev-image-keyboard-response,534,1547561,learnblock2,657.3999999761581,img/planet8_right.png,8,Community 2,NA,TRUE,j,j,NA,NA,NA,4,7,"5,9,13,3,7,12,10,14,8,2,6,11,1,15,4"
15208,commdev-image-keyboard-response,535,1548813,learnblock2,670.2999999523163,img/planet10_left.png,10,Community 2,NA,TRUE,f,f,NA,NA,NA,4,7,"5,9,13,3,7,12,10,14,8,2,6,11,1,15,4"
15208,commdev-image-keyboard-response,536,1550067,learnblock2,681.3999999761581,img/planet2_left.png,2,Community 2,NA,TRUE,f,f,NA,NA,NA,4,7,"5,9,13,3,7,12,10,14,8,2,6,11,1,15,4"
15208,commdev-image-keyboard-response,537,1551322,learnblock2,666.8999999761581,img/planet12_right.png,12,Community 2,NA,TRUE,j,j,NA,NA,NA,4,7,"5,9,13,3,7,12,10,14,8,2,6,11,1,15,4"
15208,commdev-image-keyboard-response,538,1552577,learnblock2,null,img/planet8_right.png,8,Community 2,NA,FALSE,null,j,NA,NA,NA,4,7,"5,9,13,3,7,12,10,14,8,2,6,11,1,15,4"
15208,commdev-image-keyboard-response,539,1553834,learnblock2,18.100000023841858,img/planet12_left.png,12,Community 2,NA,TRUE,f,f,NA,NA,NA,4,7,"5,9,13,3,7,12,10,14,8,2,6,11,1,15,4"
15208,commdev-image-keyboard-response,540,1555087,learnblock2,676.6000000238419,img/planet2_right.png,2,Community 2,NA,TRUE,j,j,NA,NA,NA,4,7,"5,9,13,3,7,12,10,14,8,2,6,11,1,15,4"
15208,commdev-image-keyboard-response,541,1556353,learnblock2,921.2999999523163,img/planet12_right.png,12,Community 2,NA,TRUE,j,j,NA,NA,NA,4,7,"5,9,13,3,7,12,10,14,8,2,6,11,1,15,4"
15208,commdev-image-keyboard-response,542,1557607,learnblock2,730.8999999761581,img/planet10_left.png,10,Community 2,NA,TRUE,f,f,NA,NA,NA,4,7,"5,9,13,3,7,12,10,14,8,2,6,11,1,15,4"
15208,commdev-image-keyboard-response,543,1558865,learnblock2,935.7999999523163,img/planet14_left.png,14,Community 2,NA,TRUE,f,f,NA,NA,NA,4,7,"5,9,13,3,7,12,10,14,8,2,6,11,1,15,4"
15208,commdev-image-keyboard-response,544,1560120,learnblock2,868.3999999761581,img/planet11_left.png,11,Community 3,NA,TRUE,f,f,NA,NA,NA,4,7,"5,9,13,3,7,12,10,14,8,2,6,11,1,15,4"
15208,commdev-image-keyboard-response,545,1561375,learnblock2,719.3999999761581,img/planet1_left.png,1,Community 3,NA,TRUE,f,f,NA,NA,NA,4,7,"5,9,13,3,7,12,10,14,8,2,6,11,1,15,4"
15208,commdev-image-keyboard-response,546,1562628,learnblock2,799.2999999523163,img/planet11_right.png,11,Community 3,NA,TRUE,j,j,NA,NA,NA,4,7,"5,9,13,3,7,12,10,14,8,2,6,11,1,15,4"
15208,commdev-image-keyboard-response,547,1563881,learnblock2,1005.1000000238419,img/planet4_right.png,4,Community 3,NA,TRUE,j,j,NA,NA,NA,4,7,"5,9,13,3,7,12,10,14,8,2,6,11,1,15,4"
15208,commdev-image-keyboard-response,548,1565133,learnblock2,912.1999999284744,img/planet6_right.png,6,Community 3,NA,TRUE,j,j,NA,NA,NA,4,7,"5,9,13,3,7,12,10,14,8,2,6,11,1,15,4"
15208,commdev-image-keyboard-response,549,1566402,learnblock2,737.7999999523163,img/planet7_left.png,7,Community 1,NA,TRUE,f,f,NA,NA,NA,4,7,"5,9,13,3,7,12,10,14,8,2,6,11,1,15,4"
15208,commdev-image-keyboard-response,550,1567656,learnblock2,691.1000000238419,img/planet5_left.png,5,Community 1,NA,TRUE,f,f,NA,NA,NA,4,7,"5,9,13,3,7,12,10,14,8,2,6,11,1,15,4"
15208,commdev-image-keyboard-response,551,1568910,learnblock2,855.6999999284744,img/planet3_right.png,3,Community 1,NA,TRUE,j,j,NA,NA,NA,4,7,"5,9,13,3,7,12,10,14,8,2,6,11,1,15,4"
15208,commdev-image-keyboard-response,552,1570164,learnblock2,896,img/planet12_right.png,12,Community 2,NA,TRUE,j,j,NA,NA,NA,4,7,"5,9,13,3,7,12,10,14,8,2,6,11,1,15,4"
15208,commdev-image-keyboard-response,553,1571417,learnblock2,819.1000000238419,img/planet8_left.png,8,Community 2,NA,TRUE,f,f,NA,NA,NA,4,7,"5,9,13,3,7,12,10,14,8,2,6,11,1,15,4"
15208,commdev-image-keyboard-response,554,1572671,learnblock2,734.1999999284744,img/planet14_right.png,14,Community 2,NA,TRUE,j,j,NA,NA,NA,4,7,"5,9,13,3,7,12,10,14,8,2,6,11,1,15,4"
15208,commdev-image-keyboard-response,555,1573935,learnblock2,687.3999999761581,img/planet2_left.png,2,Community 2,NA,TRUE,f,f,NA,NA,NA,4,7,"5,9,13,3,7,12,10,14,8,2,6,11,1,15,4"
15208,commdev-image-keyboard-response,556,1575189,learnblock2,1020.6000000238419,img/planet12_left.png,12,Community 2,NA,TRUE,f,f,NA,NA,NA,4,7,"5,9,13,3,7,12,10,14,8,2,6,11,1,15,4"
15208,commdev-image-keyboard-response,557,1576444,learnblock2,819.7000000476837,img/planet8_right.png,8,Community 2,NA,TRUE,j,j,NA,NA,NA,4,7,"5,9,13,3,7,12,10,14,8,2,6,11,1,15,4"
15208,commdev-image-keyboard-response,558,1577698,learnblock2,890.5,img/planet12_left.png,12,Community 2,NA,TRUE,f,f,NA,NA,NA,4,7,"5,9,13,3,7,12,10,14,8,2,6,11,1,15,4"
15208,commdev-image-keyboard-response,559,1578952,learnblock2,957.6000000238419,img/planet3_left.png,3,Community 1,NA,TRUE,f,f,NA,NA,NA,4,7,"5,9,13,3,7,12,10,14,8,2,6,11,1,15,4"
15208,commdev-image-keyboard-response,560,1580206,learnblock2,692.6000000238419,img/planet12_right.png,12,Community 2,NA,TRUE,j,j,NA,NA,NA,4,7,"5,9,13,3,7,12,10,14,8,2,6,11,1,15,4"
15208,commdev-image-keyboard-response,561,1581461,learnblock2,665.5999999046326,img/planet10_left.png,10,Community 2,NA,TRUE,f,f,NA,NA,NA,4,7,"5,9,13,3,7,12,10,14,8,2,6,11,1,15,4"
15208,commdev-image-keyboard-response,562,1582716,learnblock2,888,img/planet14_left.png,14,Community 2,NA,TRUE,f,f,NA,NA,NA,4,7,"5,9,13,3,7,12,10,14,8,2,6,11,1,15,4"
15208,commdev-image-keyboard-response,563,1583969,learnblock2,1041.6000000238419,img/planet8_left.png,8,Community 2,NA,TRUE,f,f,NA,NA,NA,4,7,"5,9,13,3,7,12,10,14,8,2,6,11,1,15,4"
15208,commdev-image-keyboard-response,564,1585223,learnblock2,764.2999999523163,img/planet14_left.png,14,Community 2,NA,TRUE,f,f,NA,NA,NA,4,7,"5,9,13,3,7,12,10,14,8,2,6,11,1,15,4"
15208,commdev-image-keyboard-response,565,1586478,learnblock2,689.1999999284744,img/planet8_right.png,8,Community 2,NA,TRUE,j,j,NA,NA,NA,4,7,"5,9,13,3,7,12,10,14,8,2,6,11,1,15,4"
15208,commdev-image-keyboard-response,566,1587738,learnblock2,744.1999999284744,img/planet14_right.png,14,Community 2,NA,TRUE,j,j,NA,NA,NA,4,7,"5,9,13,3,7,12,10,14,8,2,6,11,1,15,4"
15208,commdev-image-keyboard-response,567,1588992,learnblock2,660.1999999284744,img/planet11_right.png,11,Community 3,NA,TRUE,j,j,NA,NA,NA,4,7,"5,9,13,3,7,12,10,14,8,2,6,11,1,15,4"
15208,commdev-image-keyboard-response,568,1590246,learnblock2,749.3999999761581,img/planet4_left.png,4,Community 3,NA,TRUE,f,f,NA,NA,NA,4,7,"5,9,13,3,7,12,10,14,8,2,6,11,1,15,4"
15208,commdev-image-keyboard-response,569,1591499,learnblock2,751.3999999761581,img/planet1_right.png,1,Community 3,NA,TRUE,j,j,NA,NA,NA,4,7,"5,9,13,3,7,12,10,14,8,2,6,11,1,15,4"
15208,commdev-image-keyboard-response,570,1592751,learnblock2,588.7999999523163,img/planet6_left.png,6,Community 3,NA,TRUE,f,f,NA,NA,NA,4,7,"5,9,13,3,7,12,10,14,8,2,6,11,1,15,4"
15208,commdev-image-keyboard-response,571,1594006,learnblock2,681.1000000238419,img/planet7_left.png,7,Community 1,NA,TRUE,f,f,NA,NA,NA,4,7,"5,9,13,3,7,12,10,14,8,2,6,11,1,15,4"
15208,commdev-image-keyboard-response,572,1595261,learnblock2,687.8999999761581,img/planet6_left.png,6,Community 3,NA,TRUE,f,f,NA,NA,NA,4,7,"5,9,13,3,7,12,10,14,8,2,6,11,1,15,4"
15208,commdev-image-keyboard-response,573,1596515,learnblock2,616.8999999761581,img/planet1_right.png,1,Community 3,NA,TRUE,j,j,NA,NA,NA,4,7,"5,9,13,3,7,12,10,14,8,2,6,11,1,15,4"
15208,commdev-image-keyboard-response,574,1597768,learnblock2,593,img/planet11_left.png,11,Community 3,NA,TRUE,f,f,NA,NA,NA,4,7,"5,9,13,3,7,12,10,14,8,2,6,11,1,15,4"
15208,commdev-image-keyboard-response,575,1599022,learnblock2,695.8999999761581,img/planet1_right.png,1,Community 3,NA,TRUE,j,j,NA,NA,NA,4,7,"5,9,13,3,7,12,10,14,8,2,6,11,1,15,4"
15208,commdev-image-keyboard-response,576,1600275,learnblock2,754.1999999284744,img/planet15_right.png,15,Community 3,NA,TRUE,j,j,NA,NA,NA,4,7,"5,9,13,3,7,12,10,14,8,2,6,11,1,15,4"
15208,commdev-image-keyboard-response,577,1601534,learnblock2,745.4000000953674,img/planet4_left.png,4,Community 3,NA,TRUE,f,f,NA,NA,NA,4,7,"5,9,13,3,7,12,10,14,8,2,6,11,1,15,4"
15208,commdev-image-keyboard-response,578,1602788,learnblock2,1055.9000000953674,img/planet11_left.png,11,Community 3,NA,FALSE,j,f,NA,NA,NA,4,7,"5,9,13,3,7,12,10,14,8,2,6,11,1,15,4"
15208,commdev-image-keyboard-response,579,1604043,learnblock2,529.9000000953674,img/planet14_right.png,14,Community 2,NA,TRUE,j,j,NA,NA,NA,4,7,"5,9,13,3,7,12,10,14,8,2,6,11,1,15,4"
15208,commdev-image-keyboard-response,580,1605302,learnblock2,708,img/planet10_right.png,10,Community 2,NA,TRUE,j,j,NA,NA,NA,4,7,"5,9,13,3,7,12,10,14,8,2,6,11,1,15,4"
15208,commdev-image-keyboard-response,581,1606555,learnblock2,null,img/planet8_right.png,8,Community 2,NA,FALSE,null,j,NA,NA,NA,4,7,"5,9,13,3,7,12,10,14,8,2,6,11,1,15,4"
15208,commdev-image-keyboard-response,582,1607808,learnblock2,298.7000000476837,img/planet12_left.png,12,Community 2,NA,FALSE,j,f,NA,NA,NA,4,7,"5,9,13,3,7,12,10,14,8,2,6,11,1,15,4"
15208,commdev-image-keyboard-response,583,1609062,learnblock2,76,img/planet3_right.png,3,Community 1,NA,FALSE,f,j,NA,NA,NA,4,7,"5,9,13,3,7,12,10,14,8,2,6,11,1,15,4"
15208,commdev-image-keyboard-response,584,1610315,learnblock2,662.7999999523163,img/planet12_left.png,12,Community 2,NA,TRUE,f,f,NA,NA,NA,4,7,"5,9,13,3,7,12,10,14,8,2,6,11,1,15,4"
15208,commdev-image-keyboard-response,585,1611569,learnblock2,876.7999999523163,img/planet3_right.png,3,Community 1,NA,TRUE,j,j,NA,NA,NA,4,7,"5,9,13,3,7,12,10,14,8,2,6,11,1,15,4"
15208,commdev-image-keyboard-response,586,1612823,learnblock2,518.6000000238419,img/planet9_left.png,9,Community 1,NA,TRUE,f,f,NA,NA,NA,4,7,"5,9,13,3,7,12,10,14,8,2,6,11,1,15,4"
15208,commdev-image-keyboard-response,587,1614077,learnblock2,638.3000000715256,img/planet5_left.png,5,Community 1,NA,TRUE,f,f,NA,NA,NA,4,7,"5,9,13,3,7,12,10,14,8,2,6,11,1,15,4"
15208,commdev-image-keyboard-response,588,1615332,learnblock2,649.4000000953674,img/planet7_left.png,7,Community 1,NA,TRUE,f,f,NA,NA,NA,4,7,"5,9,13,3,7,12,10,14,8,2,6,11,1,15,4"
15208,commdev-image-keyboard-response,589,1616585,learnblock2,648.2000000476837,img/planet6_right.png,6,Community 3,NA,TRUE,j,j,NA,NA,NA,4,7,"5,9,13,3,7,12,10,14,8,2,6,11,1,15,4"
15208,commdev-image-keyboard-response,590,1617838,learnblock2,755.5,img/planet4_left.png,4,Community 3,NA,TRUE,f,f,NA,NA,NA,4,7,"5,9,13,3,7,12,10,14,8,2,6,11,1,15,4"
15208,commdev-image-keyboard-response,591,1619090,learnblock2,624.7000000476837,img/planet1_right.png,1,Community 3,NA,TRUE,j,j,NA,NA,NA,4,7,"5,9,13,3,7,12,10,14,8,2,6,11,1,15,4"
15208,commdev-image-keyboard-response,592,1620343,learnblock2,605.1000000238419,img/planet11_left.png,11,Community 3,NA,TRUE,f,f,NA,NA,NA,4,7,"5,9,13,3,7,12,10,14,8,2,6,11,1,15,4"
15208,commdev-image-keyboard-response,593,1621596,learnblock2,663.3999999761581,img/planet1_right.png,1,Community 3,NA,TRUE,j,j,NA,NA,NA,4,7,"5,9,13,3,7,12,10,14,8,2,6,11,1,15,4"
15208,commdev-image-keyboard-response,594,1622851,learnblock2,537.1999999284744,img/planet15_left.png,15,Community 3,NA,TRUE,f,f,NA,NA,NA,4,7,"5,9,13,3,7,12,10,14,8,2,6,11,1,15,4"
15208,commdev-image-keyboard-response,595,1624105,learnblock2,null,img/planet6_left.png,6,Community 3,NA,FALSE,null,f,NA,NA,NA,4,7,"5,9,13,3,7,12,10,14,8,2,6,11,1,15,4"
15208,commdev-image-keyboard-response,596,1625361,learnblock2,27.5,img/planet15_left.png,15,Community 3,NA,TRUE,f,f,NA,NA,NA,4,7,"5,9,13,3,7,12,10,14,8,2,6,11,1,15,4"
15208,commdev-image-keyboard-response,597,1626620,learnblock2,117.5,img/planet1_right.png,1,Community 3,NA,FALSE,f,j,NA,NA,NA,4,7,"5,9,13,3,7,12,10,14,8,2,6,11,1,15,4"
15208,commdev-image-keyboard-response,598,1627873,learnblock2,610.1999999284744,img/planet15_left.png,15,Community 3,NA,TRUE,f,f,NA,NA,NA,4,7,"5,9,13,3,7,12,10,14,8,2,6,11,1,15,4"
15208,commdev-image-keyboard-response,599,1629125,learnblock2,966.2999999523163,img/planet6_left.png,6,Community 3,NA,FALSE,j,f,NA,NA,NA,4,7,"5,9,13,3,7,12,10,14,8,2,6,11,1,15,4"
15208,commdev-image-keyboard-response,600,1630377,learnblock2,1042.8000000715256,img/planet15_left.png,15,Community 3,NA,FALSE,j,f,NA,NA,NA,4,7,"5,9,13,3,7,12,10,14,8,2,6,11,1,15,4"
15208,commdev-image-keyboard-response,601,1631631,learnblock2,770.3999999761581,img/planet11_left.png,11,Community 3,NA,TRUE,f,f,NA,NA,NA,4,7,"5,9,13,3,7,12,10,14,8,2,6,11,1,15,4"
15208,commdev-image-keyboard-response,602,1632885,learnblock2,292.59999990463257,img/planet15_right.png,15,Community 3,NA,FALSE,f,j,NA,NA,NA,4,7,"5,9,13,3,7,12,10,14,8,2,6,11,1,15,4"
15208,commdev-image-keyboard-response,603,1634139,learnblock2,625.3999999761581,img/planet1_left.png,1,Community 3,NA,TRUE,f,f,NA,NA,NA,4,7,"5,9,13,3,7,12,10,14,8,2,6,11,1,15,4"
15208,commdev-image-keyboard-response,604,1635392,learnblock2,741,img/planet11_left.png,11,Community 3,NA,TRUE,f,f,NA,NA,NA,4,7,"5,9,13,3,7,12,10,14,8,2,6,11,1,15,4"
15208,commdev-image-keyboard-response,605,1636646,learnblock2,597,img/planet1_left.png,1,Community 3,NA,TRUE,f,f,NA,NA,NA,4,7,"5,9,13,3,7,12,10,14,8,2,6,11,1,15,4"
15208,commdev-image-keyboard-response,606,1637901,learnblock2,975,img/planet11_right.png,11,Community 3,NA,TRUE,j,j,NA,NA,NA,4,7,"5,9,13,3,7,12,10,14,8,2,6,11,1,15,4"
15208,commdev-image-keyboard-response,607,1639154,learnblock2,817.2999999523163,img/planet15_right.png,15,Community 3,NA,FALSE,f,j,NA,NA,NA,4,7,"5,9,13,3,7,12,10,14,8,2,6,11,1,15,4"
15208,commdev-image-keyboard-response,608,1640406,learnblock2,613.6000000238419,img/planet6_right.png,6,Community 3,NA,TRUE,j,j,NA,NA,NA,4,7,"5,9,13,3,7,12,10,14,8,2,6,11,1,15,4"
15208,commdev-image-keyboard-response,609,1641661,learnblock2,482.2999999523163,img/planet4_right.png,4,Community 3,NA,TRUE,j,j,NA,NA,NA,4,7,"5,9,13,3,7,12,10,14,8,2,6,11,1,15,4"
15208,commdev-image-keyboard-response,610,1642919,learnblock2,569,img/planet15_right.png,15,Community 3,NA,TRUE,j,j,NA,NA,NA,4,7,"5,9,13,3,7,12,10,14,8,2,6,11,1,15,4"
15208,commdev-image-keyboard-response,611,1644172,learnblock2,695.3000000715256,img/planet11_left.png,11,Community 3,NA,TRUE,f,f,NA,NA,NA,4,7,"5,9,13,3,7,12,10,14,8,2,6,11,1,15,4"
15208,commdev-image-keyboard-response,612,1645427,learnblock2,611.0999999046326,img/planet1_left.png,1,Community 3,NA,TRUE,f,f,NA,NA,NA,4,7,"5,9,13,3,7,12,10,14,8,2,6,11,1,15,4"
15208,commdev-image-keyboard-response,613,1646680,learnblock2,674.6000000238419,img/planet11_left.png,11,Community 3,NA,TRUE,f,f,NA,NA,NA,4,7,"5,9,13,3,7,12,10,14,8,2,6,11,1,15,4"
15208,commdev-image-keyboard-response,614,1647934,learnblock2,648.6000000238419,img/planet14_left.png,14,Community 2,NA,TRUE,f,f,NA,NA,NA,4,7,"5,9,13,3,7,12,10,14,8,2,6,11,1,15,4"
15208,commdev-image-keyboard-response,615,1649187,learnblock2,575.7999999523163,img/planet2_left.png,2,Community 2,NA,TRUE,f,f,NA,NA,NA,4,7,"5,9,13,3,7,12,10,14,8,2,6,11,1,15,4"
15208,commdev-image-keyboard-response,616,1650440,learnblock2,620.6000000238419,img/planet8_left.png,8,Community 2,NA,TRUE,f,f,NA,NA,NA,4,7,"5,9,13,3,7,12,10,14,8,2,6,11,1,15,4"
15208,commdev-image-keyboard-response,617,1651692,learnblock2,556.6000000238419,img/planet12_right.png,12,Community 2,NA,TRUE,j,j,NA,NA,NA,4,7,"5,9,13,3,7,12,10,14,8,2,6,11,1,15,4"
15208,commdev-image-keyboard-response,618,1652947,learnblock2,688.8000000715256,img/planet8_right.png,8,Community 2,NA,TRUE,j,j,NA,NA,NA,4,7,"5,9,13,3,7,12,10,14,8,2,6,11,1,15,4"
15208,commdev-image-keyboard-response,619,1654201,learnblock2,738.1000000238419,img/planet14_right.png,14,Community 2,NA,TRUE,j,j,NA,NA,NA,4,7,"5,9,13,3,7,12,10,14,8,2,6,11,1,15,4"
15208,commdev-image-keyboard-response,620,1655456,learnblock2,668,img/planet11_left.png,11,Community 3,NA,TRUE,f,f,NA,NA,NA,4,7,"5,9,13,3,7,12,10,14,8,2,6,11,1,15,4"
15208,commdev-image-keyboard-response,621,1656711,learnblock2,685.2000000476837,img/planet1_left.png,1,Community 3,NA,TRUE,f,f,NA,NA,NA,4,7,"5,9,13,3,7,12,10,14,8,2,6,11,1,15,4"
15208,commdev-image-keyboard-response,622,1657966,learnblock2,550,img/planet6_right.png,6,Community 3,NA,TRUE,j,j,NA,NA,NA,4,7,"5,9,13,3,7,12,10,14,8,2,6,11,1,15,4"
15208,commdev-image-keyboard-response,623,1659220,learnblock2,639,img/planet7_left.png,7,Community 1,NA,TRUE,f,f,NA,NA,NA,4,7,"5,9,13,3,7,12,10,14,8,2,6,11,1,15,4"
15208,commdev-image-keyboard-response,624,1660474,learnblock2,644.0999999046326,img/planet13_left.png,13,Community 1,NA,TRUE,f,f,NA,NA,NA,4,7,"5,9,13,3,7,12,10,14,8,2,6,11,1,15,4"
15208,commdev-image-keyboard-response,625,1661729,learnblock2,625.1000000238419,img/planet5_right.png,5,Community 1,NA,TRUE,j,j,NA,NA,NA,4,7,"5,9,13,3,7,12,10,14,8,2,6,11,1,15,4"
15208,commdev-image-keyboard-response,626,1662983,learnblock2,694.7999999523163,img/planet3_left.png,3,Community 1,NA,TRUE,f,f,NA,NA,NA,4,7,"5,9,13,3,7,12,10,14,8,2,6,11,1,15,4"
15208,commdev-image-keyboard-response,627,1664238,learnblock2,885.0999999046326,img/planet13_left.png,13,Community 1,NA,TRUE,f,f,NA,NA,NA,4,7,"5,9,13,3,7,12,10,14,8,2,6,11,1,15,4"
15208,commdev-image-keyboard-response,628,1665491,learnblock2,680.7999999523163,img/planet3_right.png,3,Community 1,NA,TRUE,j,j,NA,NA,NA,4,7,"5,9,13,3,7,12,10,14,8,2,6,11,1,15,4"
15208,commdev-image-keyboard-response,629,1666745,learnblock2,1010.4000000953674,img/planet13_right.png,13,Community 1,NA,TRUE,j,j,NA,NA,NA,4,7,"5,9,13,3,7,12,10,14,8,2,6,11,1,15,4"
15208,commdev-image-keyboard-response,630,1668001,learnblock2,803.7999999523163,img/planet7_right.png,7,Community 1,NA,TRUE,j,j,NA,NA,NA,4,7,"5,9,13,3,7,12,10,14,8,2,6,11,1,15,4"
15208,commdev-image-keyboard-response,631,1669255,learnblock2,654.5,img/planet13_right.png,13,Community 1,NA,TRUE,j,j,NA,NA,NA,4,7,"5,9,13,3,7,12,10,14,8,2,6,11,1,15,4"
15208,commdev-image-keyboard-response,632,1670517,learnblock2,603.5999999046326,img/planet7_left.png,7,Community 1,NA,TRUE,f,f,NA,NA,NA,4,7,"5,9,13,3,7,12,10,14,8,2,6,11,1,15,4"
15208,commdev-image-keyboard-response,633,1671770,learnblock2,871.1000000238419,img/planet6_left.png,6,Community 3,NA,TRUE,f,f,NA,NA,NA,4,7,"5,9,13,3,7,12,10,14,8,2,6,11,1,15,4"
15208,commdev-image-keyboard-response,634,1673023,learnblock2,643.6000000238419,img/planet15_left.png,15,Community 3,NA,TRUE,f,f,NA,NA,NA,4,7,"5,9,13,3,7,12,10,14,8,2,6,11,1,15,4"
15208,commdev-image-keyboard-response,635,1674276,learnblock2,719.2999999523163,img/planet4_left.png,4,Community 3,NA,TRUE,f,f,NA,NA,NA,4,7,"5,9,13,3,7,12,10,14,8,2,6,11,1,15,4"
15208,commdev-image-keyboard-response,636,1675530,learnblock2,633.5,img/planet15_right.png,15,Community 3,NA,TRUE,j,j,NA,NA,NA,4,7,"5,9,13,3,7,12,10,14,8,2,6,11,1,15,4"
15208,commdev-image-keyboard-response,637,1676784,learnblock2,1181.6000000238419,img/planet1_right.png,1,Community 3,NA,TRUE,j,j,NA,NA,NA,4,7,"5,9,13,3,7,12,10,14,8,2,6,11,1,15,4"
15208,commdev-image-keyboard-response,638,1678039,learnblock2,695.2000000476837,img/planet4_left.png,4,Community 3,NA,TRUE,f,f,NA,NA,NA,4,7,"5,9,13,3,7,12,10,14,8,2,6,11,1,15,4"
15208,commdev-image-keyboard-response,639,1679292,learnblock2,537.2000000476837,img/planet1_right.png,1,Community 3,NA,TRUE,j,j,NA,NA,NA,4,7,"5,9,13,3,7,12,10,14,8,2,6,11,1,15,4"
15208,commdev-image-keyboard-response,640,1680553,learnblock2,575.8999999761581,img/planet6_left.png,6,Community 3,NA,TRUE,f,f,NA,NA,NA,4,7,"5,9,13,3,7,12,10,14,8,2,6,11,1,15,4"
15208,commdev-image-keyboard-response,641,1681822,learnblock2,586.2999999523163,img/planet4_left.png,4,Community 3,NA,TRUE,f,f,NA,NA,NA,4,7,"5,9,13,3,7,12,10,14,8,2,6,11,1,15,4"
15208,commdev-image-keyboard-response,642,1683076,learnblock2,647.6999999284744,img/planet11_left.png,11,Community 3,NA,TRUE,f,f,NA,NA,NA,4,7,"5,9,13,3,7,12,10,14,8,2,6,11,1,15,4"
15208,commdev-image-keyboard-response,643,1684330,learnblock2,747.2000000476837,img/planet4_right.png,4,Community 3,NA,TRUE,j,j,NA,NA,NA,4,7,"5,9,13,3,7,12,10,14,8,2,6,11,1,15,4"
15208,commdev-image-keyboard-response,644,1685584,learnblock2,737.8000000715256,img/planet1_right.png,1,Community 3,NA,TRUE,j,j,NA,NA,NA,4,7,"5,9,13,3,7,12,10,14,8,2,6,11,1,15,4"
15208,commdev-image-keyboard-response,645,1686838,learnblock2,653.2999999523163,img/planet15_right.png,15,Community 3,NA,TRUE,j,j,NA,NA,NA,4,7,"5,9,13,3,7,12,10,14,8,2,6,11,1,15,4"
15208,commdev-image-keyboard-response,646,1688092,learnblock2,631.6000000238419,img/planet1_left.png,1,Community 3,NA,TRUE,f,f,NA,NA,NA,4,7,"5,9,13,3,7,12,10,14,8,2,6,11,1,15,4"
15208,commdev-image-keyboard-response,647,1689348,learnblock2,729.3000000715256,img/planet6_left.png,6,Community 3,NA,TRUE,f,f,NA,NA,NA,4,7,"5,9,13,3,7,12,10,14,8,2,6,11,1,15,4"
15208,commdev-image-keyboard-response,648,1690600,learnblock2,773.1999999284744,img/planet1_left.png,1,Community 3,NA,TRUE,f,f,NA,NA,NA,4,7,"5,9,13,3,7,12,10,14,8,2,6,11,1,15,4"
15208,commdev-image-keyboard-response,649,1691853,learnblock2,587.2999999523163,img/planet4_right.png,4,Community 3,NA,TRUE,j,j,NA,NA,NA,4,7,"5,9,13,3,7,12,10,14,8,2,6,11,1,15,4"
15208,commdev-image-keyboard-response,650,1693106,learnblock2,975.3999999761581,img/planet6_right.png,6,Community 3,NA,FALSE,f,j,NA,NA,NA,4,7,"5,9,13,3,7,12,10,14,8,2,6,11,1,15,4"
15208,commdev-image-keyboard-response,651,1694358,learnblock2,875.1000000238419,img/planet1_right.png,1,Community 3,NA,TRUE,j,j,NA,NA,NA,4,7,"5,9,13,3,7,12,10,14,8,2,6,11,1,15,4"
15208,commdev-image-keyboard-response,652,1695617,learnblock2,551,img/planet15_right.png,15,Community 3,NA,TRUE,j,j,NA,NA,NA,4,7,"5,9,13,3,7,12,10,14,8,2,6,11,1,15,4"
15208,commdev-image-keyboard-response,653,1696870,learnblock2,700.6000000238419,img/planet11_right.png,11,Community 3,NA,TRUE,j,j,NA,NA,NA,4,7,"5,9,13,3,7,12,10,14,8,2,6,11,1,15,4"
15208,commdev-image-keyboard-response,654,1698124,learnblock2,687.1000000238419,img/planet1_right.png,1,Community 3,NA,TRUE,j,j,NA,NA,NA,4,7,"5,9,13,3,7,12,10,14,8,2,6,11,1,15,4"
15208,commdev-image-keyboard-response,655,1699381,learnblock2,658.7999999523163,img/planet11_right.png,11,Community 3,NA,TRUE,j,j,NA,NA,NA,4,7,"5,9,13,3,7,12,10,14,8,2,6,11,1,15,4"
15208,commdev-image-keyboard-response,656,1700634,learnblock2,777.1999999284744,img/planet14_left.png,14,Community 2,NA,TRUE,f,f,NA,NA,NA,4,7,"5,9,13,3,7,12,10,14,8,2,6,11,1,15,4"
15208,commdev-image-keyboard-response,657,1701889,learnblock2,810.5999999046326,img/planet2_right.png,2,Community 2,NA,TRUE,j,j,NA,NA,NA,4,7,"5,9,13,3,7,12,10,14,8,2,6,11,1,15,4"
15208,commdev-image-keyboard-response,658,1703141,learnblock2,669.8000000715256,img/planet14_right.png,14,Community 2,NA,TRUE,j,j,NA,NA,NA,4,7,"5,9,13,3,7,12,10,14,8,2,6,11,1,15,4"
15208,commdev-image-keyboard-response,659,1704394,learnblock2,690.3999999761581,img/planet8_left.png,8,Community 2,NA,TRUE,f,f,NA,NA,NA,4,7,"5,9,13,3,7,12,10,14,8,2,6,11,1,15,4"
15208,commdev-image-keyboard-response,660,1705648,learnblock2,777.1000000238419,img/planet14_left.png,14,Community 2,NA,TRUE,f,f,NA,NA,NA,4,7,"5,9,13,3,7,12,10,14,8,2,6,11,1,15,4"
15208,commdev-image-keyboard-response,661,1706901,learnblock2,597.7000000476837,img/planet10_right.png,10,Community 2,NA,TRUE,j,j,NA,NA,NA,4,7,"5,9,13,3,7,12,10,14,8,2,6,11,1,15,4"
15208,commdev-image-keyboard-response,662,1708155,learnblock2,847.5,img/planet2_right.png,2,Community 2,NA,TRUE,j,j,NA,NA,NA,4,7,"5,9,13,3,7,12,10,14,8,2,6,11,1,15,4"
15208,commdev-image-keyboard-response,663,1709410,learnblock2,682.6999999284744,img/planet14_left.png,14,Community 2,NA,TRUE,f,f,NA,NA,NA,4,7,"5,9,13,3,7,12,10,14,8,2,6,11,1,15,4"
15208,commdev-image-keyboard-response,664,1710673,learnblock2,540.3000000715256,img/planet8_right.png,8,Community 2,NA,TRUE,j,j,NA,NA,NA,4,7,"5,9,13,3,7,12,10,14,8,2,6,11,1,15,4"
15208,commdev-image-keyboard-response,665,1711931,learnblock2,676.6000000238419,img/planet12_left.png,12,Community 2,NA,TRUE,f,f,NA,NA,NA,4,7,"5,9,13,3,7,12,10,14,8,2,6,11,1,15,4"
15208,commdev-image-keyboard-response,666,1713184,learnblock2,554.8999999761581,img/planet8_left.png,8,Community 2,NA,TRUE,f,f,NA,NA,NA,4,7,"5,9,13,3,7,12,10,14,8,2,6,11,1,15,4"
15208,commdev-image-keyboard-response,667,1714437,learnblock2,671.2000000476837,img/planet10_left.png,10,Community 2,NA,TRUE,f,f,NA,NA,NA,4,7,"5,9,13,3,7,12,10,14,8,2,6,11,1,15,4"
15208,commdev-image-keyboard-response,668,1715694,learnblock2,589.6999999284744,img/planet8_right.png,8,Community 2,NA,TRUE,j,j,NA,NA,NA,4,7,"5,9,13,3,7,12,10,14,8,2,6,11,1,15,4"
15208,commdev-image-keyboard-response,669,1716949,learnblock2,663.7999999523163,img/planet14_left.png,14,Community 2,NA,TRUE,f,f,NA,NA,NA,4,7,"5,9,13,3,7,12,10,14,8,2,6,11,1,15,4"
15208,commdev-image-keyboard-response,670,1718203,learnblock2,546.3999999761581,img/planet10_right.png,10,Community 2,NA,TRUE,j,j,NA,NA,NA,4,7,"5,9,13,3,7,12,10,14,8,2,6,11,1,15,4"
15208,commdev-image-keyboard-response,671,1719467,learnblock2,802.5,img/planet12_right.png,12,Community 2,NA,FALSE,f,j,NA,NA,NA,4,7,"5,9,13,3,7,12,10,14,8,2,6,11,1,15,4"
15208,commdev-image-keyboard-response,672,1720721,learnblock2,706.7000000476837,img/planet3_left.png,3,Community 1,NA,TRUE,f,f,NA,NA,NA,4,7,"5,9,13,3,7,12,10,14,8,2,6,11,1,15,4"
15208,commdev-image-keyboard-response,673,1721974,learnblock2,616.2999999523163,img/planet12_left.png,12,Community 2,NA,TRUE,f,f,NA,NA,NA,4,7,"5,9,13,3,7,12,10,14,8,2,6,11,1,15,4"
15208,commdev-image-keyboard-response,674,1723226,learnblock2,578.4000000953674,img/planet3_left.png,3,Community 1,NA,TRUE,f,f,NA,NA,NA,4,7,"5,9,13,3,7,12,10,14,8,2,6,11,1,15,4"
15208,commdev-image-keyboard-response,675,1724481,learnblock2,621.3000000715256,img/planet9_left.png,9,Community 1,NA,TRUE,f,f,NA,NA,NA,4,7,"5,9,13,3,7,12,10,14,8,2,6,11,1,15,4"
15208,commdev-image-keyboard-response,676,1725735,learnblock2,563.3999999761581,img/planet7_right.png,7,Community 1,NA,TRUE,j,j,NA,NA,NA,4,7,"5,9,13,3,7,12,10,14,8,2,6,11,1,15,4"
15208,commdev-image-keyboard-response,677,1726989,learnblock2,518.3999999761581,img/planet5_right.png,5,Community 1,NA,TRUE,j,j,NA,NA,NA,4,7,"5,9,13,3,7,12,10,14,8,2,6,11,1,15,4"
15208,commdev-image-keyboard-response,678,1728242,learnblock2,592.2999999523163,img/planet9_right.png,9,Community 1,NA,TRUE,j,j,NA,NA,NA,4,7,"5,9,13,3,7,12,10,14,8,2,6,11,1,15,4"
15208,commdev-image-keyboard-response,679,1729502,learnblock2,825.5,img/planet13_right.png,13,Community 1,NA,TRUE,j,j,NA,NA,NA,4,7,"5,9,13,3,7,12,10,14,8,2,6,11,1,15,4"
15208,commdev-image-keyboard-response,680,1730757,learnblock2,625.4000000953674,img/planet9_right.png,9,Community 1,NA,TRUE,j,j,NA,NA,NA,4,7,"5,9,13,3,7,12,10,14,8,2,6,11,1,15,4"
15208,commdev-image-keyboard-response,681,1732010,learnblock2,592.5999999046326,img/planet5_left.png,5,Community 1,NA,TRUE,f,f,NA,NA,NA,4,7,"5,9,13,3,7,12,10,14,8,2,6,11,1,15,4"
15208,commdev-image-keyboard-response,682,1733263,learnblock2,516.7000000476837,img/planet3_right.png,3,Community 1,NA,TRUE,j,j,NA,NA,NA,4,7,"5,9,13,3,7,12,10,14,8,2,6,11,1,15,4"
15208,commdev-image-keyboard-response,683,1734517,learnblock2,528.5,img/planet9_left.png,9,Community 1,NA,TRUE,f,f,NA,NA,NA,4,7,"5,9,13,3,7,12,10,14,8,2,6,11,1,15,4"
15208,commdev-image-keyboard-response,684,1735772,learnblock2,639.3999999761581,img/planet7_left.png,7,Community 1,NA,TRUE,f,f,NA,NA,NA,4,7,"5,9,13,3,7,12,10,14,8,2,6,11,1,15,4"
15208,commdev-image-keyboard-response,685,1737026,learnblock2,593.5,img/planet9_left.png,9,Community 1,NA,TRUE,f,f,NA,NA,NA,4,7,"5,9,13,3,7,12,10,14,8,2,6,11,1,15,4"
15208,commdev-image-keyboard-response,686,1738279,learnblock2,719.5999999046326,img/planet13_left.png,13,Community 1,NA,TRUE,f,f,NA,NA,NA,4,7,"5,9,13,3,7,12,10,14,8,2,6,11,1,15,4"
15208,commdev-image-keyboard-response,687,1739535,learnblock2,710.5999999046326,img/planet5_left.png,5,Community 1,NA,TRUE,f,f,NA,NA,NA,4,7,"5,9,13,3,7,12,10,14,8,2,6,11,1,15,4"
15208,commdev-image-keyboard-response,688,1740789,learnblock2,710.4000000953674,img/planet9_right.png,9,Community 1,NA,TRUE,j,j,NA,NA,NA,4,7,"5,9,13,3,7,12,10,14,8,2,6,11,1,15,4"
15208,commdev-image-keyboard-response,689,1742042,learnblock2,696.6000000238419,img/planet7_left.png,7,Community 1,NA,TRUE,f,f,NA,NA,NA,4,7,"5,9,13,3,7,12,10,14,8,2,6,11,1,15,4"
15208,commdev-image-keyboard-response,690,1743294,learnblock2,605,img/planet13_left.png,13,Community 1,NA,TRUE,f,f,NA,NA,NA,4,7,"5,9,13,3,7,12,10,14,8,2,6,11,1,15,4"
15208,commdev-image-keyboard-response,691,1744548,learnblock2,738,img/planet7_left.png,7,Community 1,NA,TRUE,f,f,NA,NA,NA,4,7,"5,9,13,3,7,12,10,14,8,2,6,11,1,15,4"
15208,commdev-image-keyboard-response,692,1745802,learnblock2,730,img/planet5_left.png,5,Community 1,NA,TRUE,f,f,NA,NA,NA,4,7,"5,9,13,3,7,12,10,14,8,2,6,11,1,15,4"
15208,commdev-image-keyboard-response,693,1747056,learnblock2,691,img/planet7_right.png,7,Community 1,NA,TRUE,j,j,NA,NA,NA,4,7,"5,9,13,3,7,12,10,14,8,2,6,11,1,15,4"
15208,commdev-image-keyboard-response,694,1748308,learnblock2,718.5,img/planet13_left.png,13,Community 1,NA,TRUE,f,f,NA,NA,NA,4,7,"5,9,13,3,7,12,10,14,8,2,6,11,1,15,4"
15208,commdev-image-keyboard-response,695,1749562,learnblock2,483.3000000715256,img/planet3_right.png,3,Community 1,NA,TRUE,j,j,NA,NA,NA,4,7,"5,9,13,3,7,12,10,14,8,2,6,11,1,15,4"
15208,commdev-image-keyboard-response,696,1750816,learnblock2,547.6000000238419,img/planet9_right.png,9,Community 1,NA,TRUE,j,j,NA,NA,NA,4,7,"5,9,13,3,7,12,10,14,8,2,6,11,1,15,4"
15208,commdev-image-keyboard-response,697,1752071,learnblock2,636.5,img/planet13_right.png,13,Community 1,NA,TRUE,j,j,NA,NA,NA,4,7,"5,9,13,3,7,12,10,14,8,2,6,11,1,15,4"
15208,commdev-image-keyboard-response,698,1753323,learnblock2,693,img/planet7_right.png,7,Community 1,NA,TRUE,j,j,NA,NA,NA,4,7,"5,9,13,3,7,12,10,14,8,2,6,11,1,15,4"
15208,commdev-image-keyboard-response,699,1754578,learnblock2,626.8999999761581,img/planet9_right.png,9,Community 1,NA,TRUE,j,j,NA,NA,NA,4,7,"5,9,13,3,7,12,10,14,8,2,6,11,1,15,4"
15208,commdev-image-keyboard-response,700,1755834,learnblock2,569.1000000238419,img/planet5_left.png,5,Community 1,NA,TRUE,f,f,NA,NA,NA,4,7,"5,9,13,3,7,12,10,14,8,2,6,11,1,15,4"
15208,commdev-image-keyboard-response,701,1757090,learnblock2,594.3999999761581,img/planet9_right.png,9,Community 1,NA,TRUE,j,j,NA,NA,NA,4,7,"5,9,13,3,7,12,10,14,8,2,6,11,1,15,4"
15208,commdev-image-keyboard-response,702,1758344,learnblock2,773,img/planet3_right.png,3,Community 1,NA,TRUE,j,j,NA,NA,NA,4,7,"5,9,13,3,7,12,10,14,8,2,6,11,1,15,4"
15208,commdev-image-keyboard-response,703,1759598,learnblock2,858.8000000715256,img/planet13_right.png,13,Community 1,NA,FALSE,f,j,NA,NA,NA,4,7,"5,9,13,3,7,12,10,14,8,2,6,11,1,15,4"
15208,commdev-image-keyboard-response,704,1760856,learnblock2,1139.6000000238419,img/planet9_right.png,9,Community 1,NA,FALSE,f,j,NA,NA,NA,4,7,"5,9,13,3,7,12,10,14,8,2,6,11,1,15,4"
15208,commdev-image-keyboard-response,705,1762110,learnblock2,140.5,img/planet13_right.png,13,Community 1,NA,TRUE,j,j,NA,NA,NA,4,7,"5,9,13,3,7,12,10,14,8,2,6,11,1,15,4"
15208,commdev-image-keyboard-response,706,1763363,learnblock2,623.2999999523163,img/planet7_left.png,7,Community 1,NA,TRUE,f,f,NA,NA,NA,4,7,"5,9,13,3,7,12,10,14,8,2,6,11,1,15,4"
15208,commdev-image-keyboard-response,707,1764616,learnblock2,769.7999999523163,img/planet9_left.png,9,Community 1,NA,TRUE,f,f,NA,NA,NA,4,7,"5,9,13,3,7,12,10,14,8,2,6,11,1,15,4"
15208,commdev-image-keyboard-response,708,1765870,learnblock2,870.7000000476837,img/planet5_right.png,5,Community 1,NA,TRUE,j,j,NA,NA,NA,4,7,"5,9,13,3,7,12,10,14,8,2,6,11,1,15,4"
15208,commdev-image-keyboard-response,709,1767132,learnblock2,825.3999999761581,img/planet3_left.png,3,Community 1,NA,TRUE,f,f,NA,NA,NA,4,7,"5,9,13,3,7,12,10,14,8,2,6,11,1,15,4"
15208,commdev-image-keyboard-response,710,1768385,learnblock2,764.8999999761581,img/planet12_right.png,12,Community 2,NA,TRUE,j,j,NA,NA,NA,4,7,"5,9,13,3,7,12,10,14,8,2,6,11,1,15,4"
15208,commdev-image-keyboard-response,711,1769639,learnblock2,628.5,img/planet2_left.png,2,Community 2,NA,TRUE,f,f,NA,NA,NA,4,7,"5,9,13,3,7,12,10,14,8,2,6,11,1,15,4"
15208,commdev-image-keyboard-response,712,1770908,learnblock2,430.5,img/planet14_right.png,14,Community 2,NA,TRUE,j,j,NA,NA,NA,4,7,"5,9,13,3,7,12,10,14,8,2,6,11,1,15,4"
15208,commdev-image-keyboard-response,713,1772162,learnblock2,512.8999999761581,img/planet10_right.png,10,Community 2,NA,TRUE,j,j,NA,NA,NA,4,7,"5,9,13,3,7,12,10,14,8,2,6,11,1,15,4"
15208,commdev-image-keyboard-response,714,1773415,learnblock2,660.8000000715256,img/planet2_left.png,2,Community 2,NA,TRUE,f,f,NA,NA,NA,4,7,"5,9,13,3,7,12,10,14,8,2,6,11,1,15,4"
15208,commdev-image-keyboard-response,715,1774669,learnblock2,670.5,img/planet8_left.png,8,Community 2,NA,TRUE,f,f,NA,NA,NA,4,7,"5,9,13,3,7,12,10,14,8,2,6,11,1,15,4"
15208,commdev-image-keyboard-response,716,1775924,learnblock2,550.8999999761581,img/planet2_left.png,2,Community 2,NA,TRUE,f,f,NA,NA,NA,4,7,"5,9,13,3,7,12,10,14,8,2,6,11,1,15,4"
15208,commdev-image-keyboard-response,717,1777178,learnblock2,681,img/planet10_right.png,10,Community 2,NA,TRUE,j,j,NA,NA,NA,4,7,"5,9,13,3,7,12,10,14,8,2,6,11,1,15,4"
15208,commdev-image-keyboard-response,718,1778431,learnblock2,684.2000000476837,img/planet2_right.png,2,Community 2,NA,TRUE,j,j,NA,NA,NA,4,7,"5,9,13,3,7,12,10,14,8,2,6,11,1,15,4"
15208,commdev-image-keyboard-response,719,1779685,learnblock2,598.0999999046326,img/planet12_right.png,12,Community 2,NA,TRUE,j,j,NA,NA,NA,4,7,"5,9,13,3,7,12,10,14,8,2,6,11,1,15,4"
15208,commdev-image-keyboard-response,720,1780938,learnblock2,563,img/planet8_right.png,8,Community 2,NA,TRUE,j,j,NA,NA,NA,4,7,"5,9,13,3,7,12,10,14,8,2,6,11,1,15,4"
15208,commdev-image-keyboard-response,721,1782192,learnblock2,466.6999999284744,img/planet14_left.png,14,Community 2,NA,TRUE,f,f,NA,NA,NA,4,7,"5,9,13,3,7,12,10,14,8,2,6,11,1,15,4"
15208,commdev-image-keyboard-response,722,1783443,learnblock2,564.8000000715256,img/planet11_left.png,11,Community 3,NA,TRUE,f,f,NA,NA,NA,4,7,"5,9,13,3,7,12,10,14,8,2,6,11,1,15,4"
15208,commdev-image-keyboard-response,723,1784696,learnblock2,626.6000000238419,img/planet15_right.png,15,Community 3,NA,TRUE,j,j,NA,NA,NA,4,7,"5,9,13,3,7,12,10,14,8,2,6,11,1,15,4"
15208,commdev-image-keyboard-response,724,1785950,learnblock2,618.6000000238419,img/planet4_right.png,4,Community 3,NA,TRUE,j,j,NA,NA,NA,4,7,"5,9,13,3,7,12,10,14,8,2,6,11,1,15,4"
15208,commdev-image-keyboard-response,725,1787214,learnblock2,729,img/planet15_right.png,15,Community 3,NA,TRUE,j,j,NA,NA,NA,4,7,"5,9,13,3,7,12,10,14,8,2,6,11,1,15,4"
15208,commdev-image-keyboard-response,726,1788468,learnblock2,714.8000000715256,img/planet4_right.png,4,Community 3,NA,TRUE,j,j,NA,NA,NA,4,7,"5,9,13,3,7,12,10,14,8,2,6,11,1,15,4"
15208,commdev-image-keyboard-response,727,1789723,learnblock2,703,img/planet1_left.png,1,Community 3,NA,TRUE,f,f,NA,NA,NA,4,7,"5,9,13,3,7,12,10,14,8,2,6,11,1,15,4"
15208,commdev-image-keyboard-response,728,1790976,learnblock2,714,img/planet11_right.png,11,Community 3,NA,TRUE,j,j,NA,NA,NA,4,7,"5,9,13,3,7,12,10,14,8,2,6,11,1,15,4"
15208,commdev-image-keyboard-response,729,1792230,learnblock2,671.8000000715256,img/planet4_left.png,4,Community 3,NA,TRUE,f,f,NA,NA,NA,4,7,"5,9,13,3,7,12,10,14,8,2,6,11,1,15,4"
15208,commdev-image-keyboard-response,730,1793482,learnblock2,641.1000000238419,img/planet15_left.png,15,Community 3,NA,TRUE,f,f,NA,NA,NA,4,7,"5,9,13,3,7,12,10,14,8,2,6,11,1,15,4"
15208,commdev-image-keyboard-response,731,1794736,learnblock2,659.1000000238419,img/planet6_left.png,6,Community 3,NA,TRUE,f,f,NA,NA,NA,4,7,"5,9,13,3,7,12,10,14,8,2,6,11,1,15,4"
15208,commdev-image-keyboard-response,732,1795990,learnblock2,503.60000002384186,img/planet1_right.png,1,Community 3,NA,TRUE,j,j,NA,NA,NA,4,7,"5,9,13,3,7,12,10,14,8,2,6,11,1,15,4"
15208,commdev-image-keyboard-response,733,1797245,learnblock2,1212.6000000238419,img/planet15_right.png,15,Community 3,NA,FALSE,f,j,NA,NA,NA,4,7,"5,9,13,3,7,12,10,14,8,2,6,11,1,15,4"
15208,commdev-image-keyboard-response,734,1798499,learnblock2,null,img/planet11_left.png,11,Community 3,NA,FALSE,null,f,NA,NA,NA,4,7,"5,9,13,3,7,12,10,14,8,2,6,11,1,15,4"
15208,commdev-image-keyboard-response,735,1799753,learnblock2,17.699999928474426,img/planet15_right.png,15,Community 3,NA,FALSE,f,j,NA,NA,NA,4,7,"5,9,13,3,7,12,10,14,8,2,6,11,1,15,4"
15208,commdev-image-keyboard-response,736,1801006,learnblock2,572.6000000238419,img/planet6_left.png,6,Community 3,NA,TRUE,f,f,NA,NA,NA,4,7,"5,9,13,3,7,12,10,14,8,2,6,11,1,15,4"
15208,commdev-image-keyboard-response,737,1802260,learnblock2,758.7999999523163,img/planet15_left.png,15,Community 3,NA,TRUE,f,f,NA,NA,NA,4,7,"5,9,13,3,7,12,10,14,8,2,6,11,1,15,4"
15208,commdev-image-keyboard-response,738,1803515,learnblock2,1066.4000000953674,img/planet6_right.png,6,Community 3,NA,TRUE,j,j,NA,NA,NA,4,7,"5,9,13,3,7,12,10,14,8,2,6,11,1,15,4"
15208,commdev-image-keyboard-response,739,1804770,learnblock2,834,img/planet1_right.png,1,Community 3,NA,FALSE,f,j,NA,NA,NA,4,7,"5,9,13,3,7,12,10,14,8,2,6,11,1,15,4"
15208,commdev-image-keyboard-response,740,1806024,learnblock2,627.5,img/planet11_right.png,11,Community 3,NA,TRUE,j,j,NA,NA,NA,4,7,"5,9,13,3,7,12,10,14,8,2,6,11,1,15,4"
15208,commdev-image-keyboard-response,741,1807290,learnblock2,525.9000000953674,img/planet14_right.png,14,Community 2,NA,TRUE,j,j,NA,NA,NA,4,7,"5,9,13,3,7,12,10,14,8,2,6,11,1,15,4"
15208,commdev-image-keyboard-response,742,1808545,learnblock2,674.2999999523163,img/planet10_left.png,10,Community 2,NA,TRUE,f,f,NA,NA,NA,4,7,"5,9,13,3,7,12,10,14,8,2,6,11,1,15,4"
15208,commdev-image-keyboard-response,743,1809799,learnblock2,569.7999999523163,img/planet12_right.png,12,Community 2,NA,TRUE,j,j,NA,NA,NA,4,7,"5,9,13,3,7,12,10,14,8,2,6,11,1,15,4"
15208,commdev-image-keyboard-response,744,1811052,learnblock2,608.5,img/planet3_left.png,3,Community 1,NA,TRUE,f,f,NA,NA,NA,4,7,"5,9,13,3,7,12,10,14,8,2,6,11,1,15,4"
15208,commdev-image-keyboard-response,745,1812305,learnblock2,537.9000000953674,img/planet9_right.png,9,Community 1,NA,TRUE,j,j,NA,NA,NA,4,7,"5,9,13,3,7,12,10,14,8,2,6,11,1,15,4"
15208,commdev-image-keyboard-response,746,1813566,learnblock2,605,img/planet13_left.png,13,Community 1,NA,TRUE,f,f,NA,NA,NA,4,7,"5,9,13,3,7,12,10,14,8,2,6,11,1,15,4"
15208,commdev-image-keyboard-response,747,1814820,learnblock2,632.6000000238419,img/planet5_right.png,5,Community 1,NA,TRUE,j,j,NA,NA,NA,4,7,"5,9,13,3,7,12,10,14,8,2,6,11,1,15,4"
15208,commdev-image-keyboard-response,748,1816074,learnblock2,641.4000000953674,img/planet3_right.png,3,Community 1,NA,FALSE,f,j,NA,NA,NA,4,7,"5,9,13,3,7,12,10,14,8,2,6,11,1,15,4"
