subject_id,trial_type,trial_index,time_elapsed,block,rt,stimulus,planet,community,response,correct,key_press,learning_correct_response,parse,init_locations,final_locations,browser_interactions,num_comp,planet_map
14675,commdev-instructions,7,45674,NA,12963.10000000894,"<p>In this game, you will be shown a 3x3 grid of patterns.</p> <p>The last one in the bottom right-hand corner, <strong>will be missing:</strong></p> <div style='width: 700px;'><div style='float: top;'><img style='width: 200px;' src='practice/p1_M1.png'></img><p class='small'>You need to select<strong> which of the four possible patterns </strong>along the bottom<strong> fits into the gap:</strong></p></div><div style='float: top;'><img style='width: 300px;' src='practice/p1_T1.png'></img></div><br>",NA,NA,NA,NA,NA,NA,NA,NA,NA,1,6,"5,6,9,13,11,2,1,12,3,4,8,10,14,7,15"
14675,commdev-instructions,8,76973,NA,12653.40000000596,"<p>Try to be as fast and as accurate as you can be.</p> <p>If you cannot solve the puzzle then you should guess - you will not be penalised for an incorrect answer.</p> <p>The task contains a shuffled mix of easy, medium and hard puzzles.</p> <p>You will have <strong>30 seconds</strong> to complete each puzzle.</p><br>",NA,NA,NA,NA,NA,NA,NA,NA,NA,1,6,"5,6,9,13,11,2,1,12,3,4,8,10,14,7,15"
14675,commdev-instructions,15,101195,NA,931.7999999970198,<p><strong>Success!</strong></p> <p>You seem to be getting the hang of this...</p> <p>Let's move on to the real trials.</p><br>,NA,NA,NA,NA,NA,NA,NA,NA,NA,1,6,"5,6,9,13,11,2,1,12,3,4,8,10,14,7,15"
14675,commdev-instructions,178,511083,NA,1699.6000000089407,"<p>In this game, you are a scientist on board a space shuttle. </p><p> On each mission, you will visit planets all across the universe.</p><img src=""img/controlroom.jpg"" width=300vw>",NA,NA,NA,NA,NA,NA,NA,NA,NA,1,6,"5,6,9,13,11,2,1,12,3,4,8,10,14,7,15"
14675,commdev-instructions,179,513593,NA,436.20000000298023,"<p>Here are a few planets you might see:</p><img src=""img/practice1.png"" width=200vw><img src=""img/practice2.png"" width=200vw><img src=""img/practice3.png"" width=200vw>",NA,NA,NA,NA,NA,NA,NA,NA,NA,1,6,"5,6,9,13,11,2,1,12,3,4,8,10,14,7,15"
14675,commdev-instructions,180,522147,NA,1158.2000000029802,"<p>Your job as a scientist is to record which direction the winds are moving on each planet.</p><p>There are two types of wind directions:</p><img src=""img/practice1_left.png"" width=200vw><img src=""img/practice1_right.png"" width=200vw>",NA,NA,NA,NA,NA,NA,NA,NA,NA,1,6,"5,6,9,13,11,2,1,12,3,4,8,10,14,7,15"
14675,commdev-instructions,181,527808,NA,782.2000000029802,"<p>If the winds are moving this way, press the letter <strong>F</strong> on the keyboard as fast as you can.</p><img src=""img/leftwind.png"" width=250vw>",NA,NA,NA,NA,NA,NA,NA,NA,NA,1,6,"5,6,9,13,11,2,1,12,3,4,8,10,14,7,15"
14675,commdev-instructions,182,534862,NA,2559.4000000059605,"<p>If the winds are moving this way, press the letter <strong>J</strong> on the keyboard as fast as you can.</p><img src=""img/rightwind.png"" width=350vw>",NA,NA,NA,NA,NA,NA,NA,NA,NA,1,6,"5,6,9,13,11,2,1,12,3,4,8,10,14,7,15"
14675,commdev-instructions,183,541639,NA,2353.2000000029802,<p>You will have 1 second to respond. Try to respond before the time runs out!,NA,NA,NA,NA,NA,NA,NA,NA,NA,1,6,"5,6,9,13,11,2,1,12,3,4,8,10,14,7,15"
14675,commdev-instructions,184,561278,NA,14206.89999999106,<p>The planets you will visit will look different from each other.</p><p>You should respond <strong>only</strong> based on wind direction.,NA,NA,NA,NA,NA,NA,NA,NA,NA,1,6,"5,6,9,13,11,2,1,12,3,4,8,10,14,7,15"
14675,commdev-instructions,185,567551,NA,1103.199999988079,"<p> Ready to start the practice round? </p><p> Remember, press <strong>F</strong> or <strong>J</strong> depending on the wind direction.<br><img src=""img/categorize_planet_example.png""",NA,NA,NA,NA,NA,NA,NA,NA,NA,1,6,"5,6,9,13,11,2,1,12,3,4,8,10,14,7,15"
14675,commdev-instructions,190,582978,NA,747.7000000029802,img/practice3_left.png,NA,NA,f,TRUE,NA,NA,NA,NA,NA,1,6,"5,6,9,13,11,2,1,12,3,4,8,10,14,7,15"
14675,commdev-image-keyboard-response,191,584332,practice,1208.7999999970198,img/practice3_left.png,NA,Number not found in mappings,NA,TRUE,f,f,NA,NA,NA,1,6,"5,6,9,13,11,2,1,12,3,4,8,10,14,7,15"
14675,commdev-image-keyboard-response,192,585583,practice,227.6000000089407,img/practice2_right.png,NA,Number not found in mappings,NA,FALSE,f,j,NA,NA,NA,1,6,"5,6,9,13,11,2,1,12,3,4,8,10,14,7,15"
14675,commdev-image-keyboard-response,193,586835,practice,104.90000000596046,img/practice1_right.png,NA,Number not found in mappings,NA,TRUE,j,j,NA,NA,NA,1,6,"5,6,9,13,11,2,1,12,3,4,8,10,14,7,15"
14675,commdev-image-keyboard-response,194,588087,practice,116.70000000298023,img/practice2_right.png,NA,Number not found in mappings,NA,TRUE,j,j,NA,NA,NA,1,6,"5,6,9,13,11,2,1,12,3,4,8,10,14,7,15"
14675,commdev-image-keyboard-response,195,589339,practice,40.900000005960464,img/practice3_right.png,NA,Number not found in mappings,NA,TRUE,j,j,NA,NA,NA,1,6,"5,6,9,13,11,2,1,12,3,4,8,10,14,7,15"
14675,commdev-image-keyboard-response,196,590591,practice,365.3999999910593,img/practice2_right.png,NA,Number not found in mappings,NA,FALSE,f,j,NA,NA,NA,1,6,"5,6,9,13,11,2,1,12,3,4,8,10,14,7,15"
14675,commdev-image-keyboard-response,197,591844,practice,752.7999999970198,img/practice4_right.png,NA,Number not found in mappings,NA,TRUE,j,j,NA,NA,NA,1,6,"5,6,9,13,11,2,1,12,3,4,8,10,14,7,15"
14675,commdev-image-keyboard-response,198,593094,practice,532.6000000089407,img/practice1_right.png,NA,Number not found in mappings,NA,TRUE,j,j,NA,NA,NA,1,6,"5,6,9,13,11,2,1,12,3,4,8,10,14,7,15"
14675,commdev-instructions,199,610669,NA,8019.899999991059,"<p>Great job with the practice round.</p><p>During real missions, you won't know whether you pressed the right or wrong key for each planet.</p><p>But between missions, we will tell you how you did overall.</p>",NA,NA,NA,NA,NA,NA,NA,NA,NA,1,6,"5,6,9,13,11,2,1,12,3,4,8,10,14,7,15"
14675,commdev-instructions,200,619393,NA,483.19999998807907,<p>Try your best! You will be paid a bonus based on how many correct responses you make!</p><p>Responses that are too slow will not count toward your bonus.</p>,NA,NA,NA,NA,NA,NA,NA,NA,NA,1,6,"5,6,9,13,11,2,1,12,3,4,8,10,14,7,15"
14675,commdev-instructions,201,627278,NA,1687.4000000059605,"<p>You are almost ready to start the real game.</p><p> First, we are going to ask you some questions about how the game works.</p>",NA,NA,NA,NA,NA,NA,NA,NA,NA,1,6,"5,6,9,13,11,2,1,12,3,4,8,10,14,7,15"
14675,commdev-instructions,210,740868,NA,32261.80000001192,"<p> Nice work! It is now time to start the real game.<p></p>You will go on two missions to record wind directions of different planets.<p></p>Each one will take about 5 minutes. You will get to take a break between missions.<p><p> Remember, press <strong>F</strong> or <strong>J</strong> depending on the wind direction. Good luck!<br><img src=""img/categorize_planet_example.png""",NA,NA,NA,NA,NA,NA,NA,NA,NA,1,6,"5,6,9,13,11,2,1,12,3,4,8,10,14,7,15"
14675,commdev-image-keyboard-response,212,744250,learnblock1,647.1000000089407,img/planet11_right.png,11,Community 1,NA,FALSE,f,j,NA,NA,NA,1,6,"5,6,9,13,11,2,1,12,3,4,8,10,14,7,15"
14675,commdev-image-keyboard-response,213,745501,learnblock1,195.20000000298023,img/planet9_left.png,9,Community 1,NA,FALSE,j,f,NA,NA,NA,1,6,"5,6,9,13,11,2,1,12,3,4,8,10,14,7,15"
14675,commdev-image-keyboard-response,214,746753,learnblock1,671.4000000059605,img/planet6_right.png,6,Community 1,NA,TRUE,j,j,NA,NA,NA,1,6,"5,6,9,13,11,2,1,12,3,4,8,10,14,7,15"
14675,commdev-image-keyboard-response,215,748005,learnblock1,811.7000000029802,img/planet13_left.png,13,Community 1,NA,TRUE,f,f,NA,NA,NA,1,6,"5,6,9,13,11,2,1,12,3,4,8,10,14,7,15"
14675,commdev-image-keyboard-response,216,749257,learnblock1,618,img/planet6_right.png,6,Community 1,NA,TRUE,j,j,NA,NA,NA,1,6,"5,6,9,13,11,2,1,12,3,4,8,10,14,7,15"
14675,commdev-image-keyboard-response,217,750508,learnblock1,628.2000000029802,img/planet13_right.png,13,Community 1,NA,TRUE,j,j,NA,NA,NA,1,6,"5,6,9,13,11,2,1,12,3,4,8,10,14,7,15"
14675,commdev-image-keyboard-response,218,751759,learnblock1,617.5,img/planet2_right.png,2,Community 2,NA,TRUE,j,j,NA,NA,NA,1,6,"5,6,9,13,11,2,1,12,3,4,8,10,14,7,15"
14675,commdev-image-keyboard-response,219,753012,learnblock1,614.1999999880791,img/planet13_right.png,13,Community 1,NA,TRUE,j,j,NA,NA,NA,1,6,"5,6,9,13,11,2,1,12,3,4,8,10,14,7,15"
14675,commdev-image-keyboard-response,220,754263,learnblock1,897.5,img/planet9_right.png,9,Community 1,NA,TRUE,j,j,NA,NA,NA,1,6,"5,6,9,13,11,2,1,12,3,4,8,10,14,7,15"
14675,commdev-image-keyboard-response,221,755515,learnblock1,534.0999999940395,img/planet5_right.png,5,Community 1,NA,TRUE,j,j,NA,NA,NA,1,6,"5,6,9,13,11,2,1,12,3,4,8,10,14,7,15"
14675,commdev-image-keyboard-response,222,756767,learnblock1,482.20000000298023,img/planet11_left.png,11,Community 1,NA,TRUE,f,f,NA,NA,NA,1,6,"5,6,9,13,11,2,1,12,3,4,8,10,14,7,15"
14675,commdev-image-keyboard-response,223,758019,learnblock1,646.2999999970198,img/planet8_right.png,8,Community 3,NA,TRUE,j,j,NA,NA,NA,1,6,"5,6,9,13,11,2,1,12,3,4,8,10,14,7,15"
14675,commdev-image-keyboard-response,224,759271,learnblock1,1041.9000000059605,img/planet7_left.png,7,Community 3,NA,TRUE,f,f,NA,NA,NA,1,6,"5,6,9,13,11,2,1,12,3,4,8,10,14,7,15"
14675,commdev-image-keyboard-response,225,760523,learnblock1,822.2000000029802,img/planet15_right.png,15,Community 3,NA,TRUE,j,j,NA,NA,NA,1,6,"5,6,9,13,11,2,1,12,3,4,8,10,14,7,15"
14675,commdev-image-keyboard-response,226,761775,learnblock1,514.5,img/planet10_right.png,10,Community 3,NA,TRUE,j,j,NA,NA,NA,1,6,"5,6,9,13,11,2,1,12,3,4,8,10,14,7,15"
14675,commdev-image-keyboard-response,227,763027,learnblock1,733.9000000059605,img/planet12_right.png,12,Community 2,NA,TRUE,j,j,NA,NA,NA,1,6,"5,6,9,13,11,2,1,12,3,4,8,10,14,7,15"
14675,commdev-image-keyboard-response,228,764280,learnblock1,490.70000000298023,img/planet10_right.png,10,Community 3,NA,TRUE,j,j,NA,NA,NA,1,6,"5,6,9,13,11,2,1,12,3,4,8,10,14,7,15"
14675,commdev-image-keyboard-response,229,765531,learnblock1,517.8999999910593,img/planet15_right.png,15,Community 3,NA,TRUE,j,j,NA,NA,NA,1,6,"5,6,9,13,11,2,1,12,3,4,8,10,14,7,15"
14675,commdev-image-keyboard-response,230,766782,learnblock1,746.0999999940395,img/planet7_right.png,7,Community 3,NA,TRUE,j,j,NA,NA,NA,1,6,"5,6,9,13,11,2,1,12,3,4,8,10,14,7,15"
14675,commdev-image-keyboard-response,231,768035,learnblock1,463.1000000089407,img/planet8_right.png,8,Community 3,NA,TRUE,j,j,NA,NA,NA,1,6,"5,6,9,13,11,2,1,12,3,4,8,10,14,7,15"
14675,commdev-image-keyboard-response,232,769287,learnblock1,498.70000000298023,img/planet14_left.png,14,Community 3,NA,FALSE,j,f,NA,NA,NA,1,6,"5,6,9,13,11,2,1,12,3,4,8,10,14,7,15"
14675,commdev-image-keyboard-response,233,770539,learnblock1,630.2000000029802,img/planet7_left.png,7,Community 3,NA,FALSE,j,f,NA,NA,NA,1,6,"5,6,9,13,11,2,1,12,3,4,8,10,14,7,15"
14675,commdev-image-keyboard-response,234,771791,learnblock1,643,img/planet15_right.png,15,Community 3,NA,TRUE,j,j,NA,NA,NA,1,6,"5,6,9,13,11,2,1,12,3,4,8,10,14,7,15"
14675,commdev-image-keyboard-response,235,773043,learnblock1,750.2999999970198,img/planet14_left.png,14,Community 3,NA,TRUE,f,f,NA,NA,NA,1,6,"5,6,9,13,11,2,1,12,3,4,8,10,14,7,15"
14675,commdev-image-keyboard-response,236,774295,learnblock1,554.2000000029802,img/planet7_right.png,7,Community 3,NA,FALSE,f,j,NA,NA,NA,1,6,"5,6,9,13,11,2,1,12,3,4,8,10,14,7,15"
14675,commdev-image-keyboard-response,237,775547,learnblock1,710.7000000029802,img/planet8_left.png,8,Community 3,NA,TRUE,f,f,NA,NA,NA,1,6,"5,6,9,13,11,2,1,12,3,4,8,10,14,7,15"
14675,commdev-image-keyboard-response,238,776799,learnblock1,null,img/planet11_right.png,11,Community 1,NA,FALSE,null,j,NA,NA,NA,1,6,"5,6,9,13,11,2,1,12,3,4,8,10,14,7,15"
14675,commdev-image-keyboard-response,239,778051,learnblock1,199,img/planet6_right.png,6,Community 1,NA,TRUE,j,j,NA,NA,NA,1,6,"5,6,9,13,11,2,1,12,3,4,8,10,14,7,15"
14675,commdev-image-keyboard-response,240,779303,learnblock1,515.2999999970198,img/planet13_left.png,13,Community 1,NA,TRUE,f,f,NA,NA,NA,1,6,"5,6,9,13,11,2,1,12,3,4,8,10,14,7,15"
14675,commdev-image-keyboard-response,241,780555,learnblock1,766.7999999970198,img/planet9_left.png,9,Community 1,NA,TRUE,f,f,NA,NA,NA,1,6,"5,6,9,13,11,2,1,12,3,4,8,10,14,7,15"
14675,commdev-image-keyboard-response,242,781807,learnblock1,19,img/planet11_right.png,11,Community 1,NA,FALSE,f,j,NA,NA,NA,1,6,"5,6,9,13,11,2,1,12,3,4,8,10,14,7,15"
14675,commdev-image-keyboard-response,243,783058,learnblock1,431.09999999403954,img/planet5_left.png,5,Community 1,NA,TRUE,f,f,NA,NA,NA,1,6,"5,6,9,13,11,2,1,12,3,4,8,10,14,7,15"
14675,commdev-image-keyboard-response,244,784310,learnblock1,556,img/planet11_left.png,11,Community 1,NA,FALSE,j,f,NA,NA,NA,1,6,"5,6,9,13,11,2,1,12,3,4,8,10,14,7,15"
14675,commdev-image-keyboard-response,245,785562,learnblock1,967.8999999910593,img/planet8_right.png,8,Community 3,NA,TRUE,j,j,NA,NA,NA,1,6,"5,6,9,13,11,2,1,12,3,4,8,10,14,7,15"
14675,commdev-image-keyboard-response,246,786814,learnblock1,836.6000000089407,img/planet11_left.png,11,Community 1,NA,TRUE,f,f,NA,NA,NA,1,6,"5,6,9,13,11,2,1,12,3,4,8,10,14,7,15"
14675,commdev-image-keyboard-response,247,788066,learnblock1,903.7999999970198,img/planet9_right.png,9,Community 1,NA,TRUE,j,j,NA,NA,NA,1,6,"5,6,9,13,11,2,1,12,3,4,8,10,14,7,15"
14675,commdev-image-keyboard-response,248,789319,learnblock1,683.5999999940395,img/planet6_left.png,6,Community 1,NA,TRUE,f,f,NA,NA,NA,1,6,"5,6,9,13,11,2,1,12,3,4,8,10,14,7,15"
14675,commdev-image-keyboard-response,249,790570,learnblock1,775.8000000119209,img/planet13_left.png,13,Community 1,NA,TRUE,f,f,NA,NA,NA,1,6,"5,6,9,13,11,2,1,12,3,4,8,10,14,7,15"
14675,commdev-image-keyboard-response,250,791822,learnblock1,844.4000000059605,img/planet6_left.png,6,Community 1,NA,FALSE,j,f,NA,NA,NA,1,6,"5,6,9,13,11,2,1,12,3,4,8,10,14,7,15"
14675,commdev-image-keyboard-response,251,793074,learnblock1,784.4000000059605,img/planet5_right.png,5,Community 1,NA,TRUE,j,j,NA,NA,NA,1,6,"5,6,9,13,11,2,1,12,3,4,8,10,14,7,15"
14675,commdev-image-keyboard-response,252,794325,learnblock1,null,img/planet13_left.png,13,Community 1,NA,FALSE,null,f,NA,NA,NA,1,6,"5,6,9,13,11,2,1,12,3,4,8,10,14,7,15"
14675,commdev-image-keyboard-response,253,795578,learnblock1,33.70000000298023,img/planet6_left.png,6,Community 1,NA,TRUE,f,f,NA,NA,NA,1,6,"5,6,9,13,11,2,1,12,3,4,8,10,14,7,15"
14675,commdev-image-keyboard-response,254,796830,learnblock1,1164.7000000029802,img/planet5_right.png,5,Community 1,NA,FALSE,f,j,NA,NA,NA,1,6,"5,6,9,13,11,2,1,12,3,4,8,10,14,7,15"
14675,commdev-image-keyboard-response,255,798081,learnblock1,1248.7999999970198,img/planet6_right.png,6,Community 1,NA,FALSE,f,j,NA,NA,NA,1,6,"5,6,9,13,11,2,1,12,3,4,8,10,14,7,15"
14675,commdev-image-keyboard-response,256,799334,learnblock1,788.6000000089407,img/planet9_right.png,9,Community 1,NA,FALSE,f,j,NA,NA,NA,1,6,"5,6,9,13,11,2,1,12,3,4,8,10,14,7,15"
14675,commdev-image-keyboard-response,257,800585,learnblock1,448.29999999701977,img/planet6_right.png,6,Community 1,NA,FALSE,f,j,NA,NA,NA,1,6,"5,6,9,13,11,2,1,12,3,4,8,10,14,7,15"
14675,commdev-image-keyboard-response,258,801837,learnblock1,597.2000000029802,img/planet13_left.png,13,Community 1,NA,TRUE,f,f,NA,NA,NA,1,6,"5,6,9,13,11,2,1,12,3,4,8,10,14,7,15"
14675,commdev-image-keyboard-response,259,803088,learnblock1,521.9000000059605,img/planet6_right.png,6,Community 1,NA,FALSE,f,j,NA,NA,NA,1,6,"5,6,9,13,11,2,1,12,3,4,8,10,14,7,15"
14675,commdev-image-keyboard-response,260,804341,learnblock1,741.9000000059605,img/planet9_left.png,9,Community 1,NA,FALSE,j,f,NA,NA,NA,1,6,"5,6,9,13,11,2,1,12,3,4,8,10,14,7,15"
14675,commdev-image-keyboard-response,261,805593,learnblock1,1162.0999999940395,img/planet11_left.png,11,Community 1,NA,TRUE,f,f,NA,NA,NA,1,6,"5,6,9,13,11,2,1,12,3,4,8,10,14,7,15"
14675,commdev-image-keyboard-response,262,806844,learnblock1,638.0999999940395,img/planet5_left.png,5,Community 1,NA,FALSE,j,f,NA,NA,NA,1,6,"5,6,9,13,11,2,1,12,3,4,8,10,14,7,15"
14675,commdev-image-keyboard-response,263,808097,learnblock1,658.5,img/planet9_left.png,9,Community 1,NA,TRUE,f,f,NA,NA,NA,1,6,"5,6,9,13,11,2,1,12,3,4,8,10,14,7,15"
14675,commdev-image-keyboard-response,264,809349,learnblock1,605.7999999970198,img/planet13_right.png,13,Community 1,NA,TRUE,j,j,NA,NA,NA,1,6,"5,6,9,13,11,2,1,12,3,4,8,10,14,7,15"
14675,commdev-image-keyboard-response,265,810600,learnblock1,562.1000000089407,img/planet9_left.png,9,Community 1,NA,TRUE,f,f,NA,NA,NA,1,6,"5,6,9,13,11,2,1,12,3,4,8,10,14,7,15"
14675,commdev-image-keyboard-response,266,811852,learnblock1,726.5,img/planet6_left.png,6,Community 1,NA,TRUE,f,f,NA,NA,NA,1,6,"5,6,9,13,11,2,1,12,3,4,8,10,14,7,15"
14675,commdev-image-keyboard-response,267,813105,learnblock1,834.2999999970198,img/planet5_left.png,5,Community 1,NA,TRUE,f,f,NA,NA,NA,1,6,"5,6,9,13,11,2,1,12,3,4,8,10,14,7,15"
14675,commdev-image-keyboard-response,268,814356,learnblock1,918,img/planet13_left.png,13,Community 1,NA,TRUE,f,f,NA,NA,NA,1,6,"5,6,9,13,11,2,1,12,3,4,8,10,14,7,15"
14675,commdev-image-keyboard-response,269,815608,learnblock1,866.8000000119209,img/planet2_left.png,2,Community 2,NA,TRUE,f,f,NA,NA,NA,1,6,"5,6,9,13,11,2,1,12,3,4,8,10,14,7,15"
14675,commdev-image-keyboard-response,270,816861,learnblock1,646.9000000059605,img/planet13_left.png,13,Community 1,NA,TRUE,f,f,NA,NA,NA,1,6,"5,6,9,13,11,2,1,12,3,4,8,10,14,7,15"
14675,commdev-image-keyboard-response,271,818112,learnblock1,546.2999999970198,img/planet9_right.png,9,Community 1,NA,TRUE,j,j,NA,NA,NA,1,6,"5,6,9,13,11,2,1,12,3,4,8,10,14,7,15"
14675,commdev-image-keyboard-response,272,819364,learnblock1,654.7999999970198,img/planet11_left.png,11,Community 1,NA,TRUE,f,f,NA,NA,NA,1,6,"5,6,9,13,11,2,1,12,3,4,8,10,14,7,15"
14675,commdev-image-keyboard-response,273,820616,learnblock1,763.3000000119209,img/planet8_left.png,8,Community 3,NA,TRUE,f,f,NA,NA,NA,1,6,"5,6,9,13,11,2,1,12,3,4,8,10,14,7,15"
14675,commdev-image-keyboard-response,274,821868,learnblock1,735.2000000029802,img/planet11_right.png,11,Community 1,NA,TRUE,j,j,NA,NA,NA,1,6,"5,6,9,13,11,2,1,12,3,4,8,10,14,7,15"
14675,commdev-image-keyboard-response,275,823119,learnblock1,659.2999999970198,img/planet9_right.png,9,Community 1,NA,TRUE,j,j,NA,NA,NA,1,6,"5,6,9,13,11,2,1,12,3,4,8,10,14,7,15"
14675,commdev-image-keyboard-response,276,824371,learnblock1,912.3999999910593,img/planet11_left.png,11,Community 1,NA,TRUE,f,f,NA,NA,NA,1,6,"5,6,9,13,11,2,1,12,3,4,8,10,14,7,15"
14675,commdev-image-keyboard-response,277,825624,learnblock1,1028.2000000029802,img/planet5_left.png,5,Community 1,NA,TRUE,f,f,NA,NA,NA,1,6,"5,6,9,13,11,2,1,12,3,4,8,10,14,7,15"
14675,commdev-image-keyboard-response,278,826876,learnblock1,511.79999999701977,img/planet9_right.png,9,Community 1,NA,FALSE,f,j,NA,NA,NA,1,6,"5,6,9,13,11,2,1,12,3,4,8,10,14,7,15"
14675,commdev-image-keyboard-response,279,828128,learnblock1,771.2000000029802,img/planet6_right.png,6,Community 1,NA,TRUE,j,j,NA,NA,NA,1,6,"5,6,9,13,11,2,1,12,3,4,8,10,14,7,15"
14675,commdev-image-keyboard-response,280,829380,learnblock1,1135.300000011921,img/planet13_left.png,13,Community 1,NA,TRUE,f,f,NA,NA,NA,1,6,"5,6,9,13,11,2,1,12,3,4,8,10,14,7,15"
14675,commdev-image-keyboard-response,281,830632,learnblock1,null,img/planet6_left.png,6,Community 1,NA,FALSE,null,f,NA,NA,NA,1,6,"5,6,9,13,11,2,1,12,3,4,8,10,14,7,15"
14675,commdev-image-keyboard-response,282,831884,learnblock1,607.2000000029802,img/planet11_right.png,11,Community 1,NA,TRUE,j,j,NA,NA,NA,1,6,"5,6,9,13,11,2,1,12,3,4,8,10,14,7,15"
14675,commdev-image-keyboard-response,283,833136,learnblock1,731.5,img/planet9_right.png,9,Community 1,NA,TRUE,j,j,NA,NA,NA,1,6,"5,6,9,13,11,2,1,12,3,4,8,10,14,7,15"
14675,commdev-image-keyboard-response,284,834389,learnblock1,1231.8999999910593,img/planet13_right.png,13,Community 1,NA,TRUE,j,j,NA,NA,NA,1,6,"5,6,9,13,11,2,1,12,3,4,8,10,14,7,15"
14675,commdev-image-keyboard-response,285,835639,learnblock1,682.8999999910593,img/planet6_right.png,6,Community 1,NA,TRUE,j,j,NA,NA,NA,1,6,"5,6,9,13,11,2,1,12,3,4,8,10,14,7,15"
14675,commdev-image-keyboard-response,286,836892,learnblock1,615.9000000059605,img/planet5_right.png,5,Community 1,NA,TRUE,j,j,NA,NA,NA,1,6,"5,6,9,13,11,2,1,12,3,4,8,10,14,7,15"
14675,commdev-image-keyboard-response,287,838144,learnblock1,692,img/planet13_left.png,13,Community 1,NA,TRUE,f,f,NA,NA,NA,1,6,"5,6,9,13,11,2,1,12,3,4,8,10,14,7,15"
14675,commdev-image-keyboard-response,288,839396,learnblock1,631.6000000089407,img/planet5_right.png,5,Community 1,NA,TRUE,j,j,NA,NA,NA,1,6,"5,6,9,13,11,2,1,12,3,4,8,10,14,7,15"
14675,commdev-image-keyboard-response,289,840648,learnblock1,659.5,img/planet13_right.png,13,Community 1,NA,TRUE,j,j,NA,NA,NA,1,6,"5,6,9,13,11,2,1,12,3,4,8,10,14,7,15"
14675,commdev-image-keyboard-response,290,841899,learnblock1,800.1999999880791,img/planet6_right.png,6,Community 1,NA,TRUE,j,j,NA,NA,NA,1,6,"5,6,9,13,11,2,1,12,3,4,8,10,14,7,15"
14675,commdev-image-keyboard-response,291,843150,learnblock1,748.2000000029802,img/planet13_right.png,13,Community 1,NA,TRUE,j,j,NA,NA,NA,1,6,"5,6,9,13,11,2,1,12,3,4,8,10,14,7,15"
14675,commdev-image-keyboard-response,292,844403,learnblock1,553.8000000119209,img/planet9_right.png,9,Community 1,NA,TRUE,j,j,NA,NA,NA,1,6,"5,6,9,13,11,2,1,12,3,4,8,10,14,7,15"
14675,commdev-image-keyboard-response,293,845654,learnblock1,525.4000000059605,img/planet5_right.png,5,Community 1,NA,TRUE,j,j,NA,NA,NA,1,6,"5,6,9,13,11,2,1,12,3,4,8,10,14,7,15"
14675,commdev-image-keyboard-response,294,846906,learnblock1,489.79999999701977,img/planet11_right.png,11,Community 1,NA,TRUE,j,j,NA,NA,NA,1,6,"5,6,9,13,11,2,1,12,3,4,8,10,14,7,15"
14675,commdev-image-keyboard-response,295,848157,learnblock1,846.2999999970198,img/planet8_right.png,8,Community 3,NA,TRUE,j,j,NA,NA,NA,1,6,"5,6,9,13,11,2,1,12,3,4,8,10,14,7,15"
14675,commdev-image-keyboard-response,296,849410,learnblock1,962.7999999970198,img/planet11_right.png,11,Community 1,NA,TRUE,j,j,NA,NA,NA,1,6,"5,6,9,13,11,2,1,12,3,4,8,10,14,7,15"
14675,commdev-image-keyboard-response,297,850662,learnblock1,693.9000000059605,img/planet6_right.png,6,Community 1,NA,TRUE,j,j,NA,NA,NA,1,6,"5,6,9,13,11,2,1,12,3,4,8,10,14,7,15"
14675,commdev-image-keyboard-response,298,851914,learnblock1,602.4000000059605,img/planet11_right.png,11,Community 1,NA,TRUE,j,j,NA,NA,NA,1,6,"5,6,9,13,11,2,1,12,3,4,8,10,14,7,15"
14675,commdev-image-keyboard-response,299,853166,learnblock1,493.5,img/planet9_left.png,9,Community 1,NA,FALSE,j,f,NA,NA,NA,1,6,"5,6,9,13,11,2,1,12,3,4,8,10,14,7,15"
14675,commdev-image-keyboard-response,300,854418,learnblock1,665.7000000029802,img/planet13_right.png,13,Community 1,NA,TRUE,j,j,NA,NA,NA,1,6,"5,6,9,13,11,2,1,12,3,4,8,10,14,7,15"
14675,commdev-image-keyboard-response,301,855670,learnblock1,654.7000000029802,img/planet6_left.png,6,Community 1,NA,TRUE,f,f,NA,NA,NA,1,6,"5,6,9,13,11,2,1,12,3,4,8,10,14,7,15"
14675,commdev-image-keyboard-response,302,856922,learnblock1,682.4000000059605,img/planet5_right.png,5,Community 1,NA,TRUE,j,j,NA,NA,NA,1,6,"5,6,9,13,11,2,1,12,3,4,8,10,14,7,15"
14675,commdev-image-keyboard-response,303,858174,learnblock1,534.5999999940395,img/planet6_right.png,6,Community 1,NA,TRUE,j,j,NA,NA,NA,1,6,"5,6,9,13,11,2,1,12,3,4,8,10,14,7,15"
14675,commdev-image-keyboard-response,304,859425,learnblock1,594.2999999970198,img/planet13_right.png,13,Community 1,NA,TRUE,j,j,NA,NA,NA,1,6,"5,6,9,13,11,2,1,12,3,4,8,10,14,7,15"
14675,commdev-image-keyboard-response,305,860677,learnblock1,983,img/planet9_right.png,9,Community 1,NA,TRUE,j,j,NA,NA,NA,1,6,"5,6,9,13,11,2,1,12,3,4,8,10,14,7,15"
14675,commdev-image-keyboard-response,306,861929,learnblock1,715.3999999910593,img/planet5_right.png,5,Community 1,NA,TRUE,j,j,NA,NA,NA,1,6,"5,6,9,13,11,2,1,12,3,4,8,10,14,7,15"
14675,commdev-image-keyboard-response,307,863182,learnblock1,487.09999999403954,img/planet9_right.png,9,Community 1,NA,TRUE,j,j,NA,NA,NA,1,6,"5,6,9,13,11,2,1,12,3,4,8,10,14,7,15"
14675,commdev-image-keyboard-response,308,864434,learnblock1,498.3999999910593,img/planet13_right.png,13,Community 1,NA,FALSE,f,j,NA,NA,NA,1,6,"5,6,9,13,11,2,1,12,3,4,8,10,14,7,15"
14675,commdev-image-keyboard-response,309,865687,learnblock1,654.0999999940395,img/planet6_right.png,6,Community 1,NA,TRUE,j,j,NA,NA,NA,1,6,"5,6,9,13,11,2,1,12,3,4,8,10,14,7,15"
14675,commdev-image-keyboard-response,310,866939,learnblock1,529.5,img/planet13_left.png,13,Community 1,NA,FALSE,j,f,NA,NA,NA,1,6,"5,6,9,13,11,2,1,12,3,4,8,10,14,7,15"
14675,commdev-image-keyboard-response,311,868191,learnblock1,573.5999999940395,img/planet6_left.png,6,Community 1,NA,TRUE,f,f,NA,NA,NA,1,6,"5,6,9,13,11,2,1,12,3,4,8,10,14,7,15"
14675,commdev-image-keyboard-response,312,869443,learnblock1,585.6000000089407,img/planet11_right.png,11,Community 1,NA,TRUE,j,j,NA,NA,NA,1,6,"5,6,9,13,11,2,1,12,3,4,8,10,14,7,15"
14675,commdev-image-keyboard-response,313,870695,learnblock1,533.7000000029802,img/planet9_right.png,9,Community 1,NA,TRUE,j,j,NA,NA,NA,1,6,"5,6,9,13,11,2,1,12,3,4,8,10,14,7,15"
14675,commdev-image-keyboard-response,314,871947,learnblock1,530,img/planet6_right.png,6,Community 1,NA,TRUE,j,j,NA,NA,NA,1,6,"5,6,9,13,11,2,1,12,3,4,8,10,14,7,15"
14675,commdev-image-keyboard-response,315,873198,learnblock1,805.9000000059605,img/planet9_right.png,9,Community 1,NA,TRUE,j,j,NA,NA,NA,1,6,"5,6,9,13,11,2,1,12,3,4,8,10,14,7,15"
14675,commdev-image-keyboard-response,316,874450,learnblock1,538,img/planet6_left.png,6,Community 1,NA,FALSE,j,f,NA,NA,NA,1,6,"5,6,9,13,11,2,1,12,3,4,8,10,14,7,15"
14675,commdev-image-keyboard-response,317,875702,learnblock1,774.3999999910593,img/planet9_right.png,9,Community 1,NA,TRUE,j,j,NA,NA,NA,1,6,"5,6,9,13,11,2,1,12,3,4,8,10,14,7,15"
14675,commdev-image-keyboard-response,318,876953,learnblock1,698.9000000059605,img/planet13_right.png,13,Community 1,NA,TRUE,j,j,NA,NA,NA,1,6,"5,6,9,13,11,2,1,12,3,4,8,10,14,7,15"
14675,commdev-image-keyboard-response,319,878205,learnblock1,663.5,img/planet6_left.png,6,Community 1,NA,TRUE,f,f,NA,NA,NA,1,6,"5,6,9,13,11,2,1,12,3,4,8,10,14,7,15"
14675,commdev-image-keyboard-response,320,879458,learnblock1,588,img/planet9_right.png,9,Community 1,NA,TRUE,j,j,NA,NA,NA,1,6,"5,6,9,13,11,2,1,12,3,4,8,10,14,7,15"
14675,commdev-image-keyboard-response,321,880709,learnblock1,982.7999999970198,img/planet6_right.png,6,Community 1,NA,TRUE,j,j,NA,NA,NA,1,6,"5,6,9,13,11,2,1,12,3,4,8,10,14,7,15"
14675,commdev-image-keyboard-response,322,881961,learnblock1,587.5999999940395,img/planet9_right.png,9,Community 1,NA,TRUE,j,j,NA,NA,NA,1,6,"5,6,9,13,11,2,1,12,3,4,8,10,14,7,15"
14675,commdev-image-keyboard-response,323,883213,learnblock1,576.2000000029802,img/planet5_left.png,5,Community 1,NA,TRUE,f,f,NA,NA,NA,1,6,"5,6,9,13,11,2,1,12,3,4,8,10,14,7,15"
14675,commdev-image-keyboard-response,324,884465,learnblock1,476.30000001192093,img/planet9_right.png,9,Community 1,NA,TRUE,j,j,NA,NA,NA,1,6,"5,6,9,13,11,2,1,12,3,4,8,10,14,7,15"
14675,commdev-image-keyboard-response,325,885716,learnblock1,455.79999999701977,img/planet6_left.png,6,Community 1,NA,TRUE,f,f,NA,NA,NA,1,6,"5,6,9,13,11,2,1,12,3,4,8,10,14,7,15"
14675,commdev-image-keyboard-response,326,886969,learnblock1,733.3999999910593,img/planet11_left.png,11,Community 1,NA,TRUE,f,f,NA,NA,NA,1,6,"5,6,9,13,11,2,1,12,3,4,8,10,14,7,15"
14675,commdev-image-keyboard-response,327,888221,learnblock1,640.7999999970198,img/planet9_left.png,9,Community 1,NA,TRUE,f,f,NA,NA,NA,1,6,"5,6,9,13,11,2,1,12,3,4,8,10,14,7,15"
14675,commdev-image-keyboard-response,328,889473,learnblock1,636.5,img/planet6_left.png,6,Community 1,NA,TRUE,f,f,NA,NA,NA,1,6,"5,6,9,13,11,2,1,12,3,4,8,10,14,7,15"
14675,commdev-image-keyboard-response,329,890725,learnblock1,751.7999999970198,img/planet11_left.png,11,Community 1,NA,TRUE,f,f,NA,NA,NA,1,6,"5,6,9,13,11,2,1,12,3,4,8,10,14,7,15"
14675,commdev-image-keyboard-response,330,891977,learnblock1,571.7999999970198,img/planet8_right.png,8,Community 3,NA,FALSE,f,j,NA,NA,NA,1,6,"5,6,9,13,11,2,1,12,3,4,8,10,14,7,15"
14675,commdev-image-keyboard-response,331,893228,learnblock1,600.5,img/planet7_right.png,7,Community 3,NA,FALSE,f,j,NA,NA,NA,1,6,"5,6,9,13,11,2,1,12,3,4,8,10,14,7,15"
14675,commdev-image-keyboard-response,332,894479,learnblock1,757.7999999970198,img/planet15_left.png,15,Community 3,NA,TRUE,f,f,NA,NA,NA,1,6,"5,6,9,13,11,2,1,12,3,4,8,10,14,7,15"
14675,commdev-image-keyboard-response,333,895732,learnblock1,546.0999999940395,img/planet8_right.png,8,Community 3,NA,TRUE,j,j,NA,NA,NA,1,6,"5,6,9,13,11,2,1,12,3,4,8,10,14,7,15"
14675,commdev-image-keyboard-response,334,896984,learnblock1,637.9000000059605,img/planet7_right.png,7,Community 3,NA,TRUE,j,j,NA,NA,NA,1,6,"5,6,9,13,11,2,1,12,3,4,8,10,14,7,15"
14675,commdev-image-keyboard-response,335,898235,learnblock1,777.6000000089407,img/planet14_right.png,14,Community 3,NA,TRUE,j,j,NA,NA,NA,1,6,"5,6,9,13,11,2,1,12,3,4,8,10,14,7,15"
14675,commdev-image-keyboard-response,336,899487,learnblock1,918.5999999940395,img/planet15_right.png,15,Community 3,NA,TRUE,j,j,NA,NA,NA,1,6,"5,6,9,13,11,2,1,12,3,4,8,10,14,7,15"
14675,commdev-image-keyboard-response,337,900739,learnblock1,1114.2999999970198,img/planet8_right.png,8,Community 3,NA,TRUE,j,j,NA,NA,NA,1,6,"5,6,9,13,11,2,1,12,3,4,8,10,14,7,15"
14675,commdev-image-keyboard-response,338,901990,learnblock1,894.4000000059605,img/planet15_right.png,15,Community 3,NA,TRUE,j,j,NA,NA,NA,1,6,"5,6,9,13,11,2,1,12,3,4,8,10,14,7,15"
14675,commdev-image-keyboard-response,339,903241,learnblock1,1123.4000000059605,img/planet10_right.png,10,Community 3,NA,TRUE,j,j,NA,NA,NA,1,6,"5,6,9,13,11,2,1,12,3,4,8,10,14,7,15"
14675,commdev-image-keyboard-response,340,904494,learnblock1,704,img/planet7_left.png,7,Community 3,NA,TRUE,f,f,NA,NA,NA,1,6,"5,6,9,13,11,2,1,12,3,4,8,10,14,7,15"
14675,commdev-image-keyboard-response,341,905745,learnblock1,843.7999999970198,img/planet15_right.png,15,Community 3,NA,TRUE,j,j,NA,NA,NA,1,6,"5,6,9,13,11,2,1,12,3,4,8,10,14,7,15"
14675,commdev-image-keyboard-response,342,906997,learnblock1,624.0999999940395,img/planet10_left.png,10,Community 3,NA,TRUE,f,f,NA,NA,NA,1,6,"5,6,9,13,11,2,1,12,3,4,8,10,14,7,15"
14675,commdev-image-keyboard-response,343,908250,learnblock1,692.2999999970198,img/planet12_left.png,12,Community 2,NA,TRUE,f,f,NA,NA,NA,1,6,"5,6,9,13,11,2,1,12,3,4,8,10,14,7,15"
14675,commdev-image-keyboard-response,344,909502,learnblock1,552,img/planet10_right.png,10,Community 3,NA,FALSE,f,j,NA,NA,NA,1,6,"5,6,9,13,11,2,1,12,3,4,8,10,14,7,15"
14675,commdev-image-keyboard-response,345,910755,learnblock1,755.2000000029802,img/planet12_right.png,12,Community 2,NA,TRUE,j,j,NA,NA,NA,1,6,"5,6,9,13,11,2,1,12,3,4,8,10,14,7,15"
14675,commdev-image-keyboard-response,346,912007,learnblock1,918.5999999940395,img/planet3_right.png,3,Community 2,NA,TRUE,j,j,NA,NA,NA,1,6,"5,6,9,13,11,2,1,12,3,4,8,10,14,7,15"
14675,commdev-image-keyboard-response,347,913259,learnblock1,786.8000000119209,img/planet4_right.png,4,Community 2,NA,TRUE,j,j,NA,NA,NA,1,6,"5,6,9,13,11,2,1,12,3,4,8,10,14,7,15"
14675,commdev-image-keyboard-response,348,914511,learnblock1,951.4000000059605,img/planet3_right.png,3,Community 2,NA,TRUE,j,j,NA,NA,NA,1,6,"5,6,9,13,11,2,1,12,3,4,8,10,14,7,15"
14675,commdev-image-keyboard-response,349,915763,learnblock1,891.0999999940395,img/planet4_left.png,4,Community 2,NA,TRUE,f,f,NA,NA,NA,1,6,"5,6,9,13,11,2,1,12,3,4,8,10,14,7,15"
14675,commdev-image-keyboard-response,350,917016,learnblock1,1166.7999999970198,img/planet12_right.png,12,Community 2,NA,TRUE,j,j,NA,NA,NA,1,6,"5,6,9,13,11,2,1,12,3,4,8,10,14,7,15"
14675,commdev-image-keyboard-response,351,918269,learnblock1,809.7000000029802,img/planet10_left.png,10,Community 3,NA,TRUE,f,f,NA,NA,NA,1,6,"5,6,9,13,11,2,1,12,3,4,8,10,14,7,15"
14675,commdev-image-keyboard-response,352,919521,learnblock1,829.5999999940395,img/planet12_right.png,12,Community 2,NA,TRUE,j,j,NA,NA,NA,1,6,"5,6,9,13,11,2,1,12,3,4,8,10,14,7,15"
14675,commdev-image-keyboard-response,353,920773,learnblock1,745,img/planet1_left.png,1,Community 2,NA,TRUE,f,f,NA,NA,NA,1,6,"5,6,9,13,11,2,1,12,3,4,8,10,14,7,15"
14675,commdev-image-keyboard-response,354,922025,learnblock1,581,img/planet3_right.png,3,Community 2,NA,TRUE,j,j,NA,NA,NA,1,6,"5,6,9,13,11,2,1,12,3,4,8,10,14,7,15"
14675,commdev-image-keyboard-response,355,923277,learnblock1,673.8000000119209,img/planet1_left.png,1,Community 2,NA,TRUE,f,f,NA,NA,NA,1,6,"5,6,9,13,11,2,1,12,3,4,8,10,14,7,15"
14675,commdev-image-keyboard-response,356,924529,learnblock1,null,img/planet3_left.png,3,Community 2,NA,FALSE,null,f,NA,NA,NA,1,6,"5,6,9,13,11,2,1,12,3,4,8,10,14,7,15"
14675,commdev-image-keyboard-response,357,925781,learnblock1,57.400000005960464,img/planet12_right.png,12,Community 2,NA,FALSE,f,j,NA,NA,NA,1,6,"5,6,9,13,11,2,1,12,3,4,8,10,14,7,15"
14675,commdev-image-keyboard-response,358,927032,learnblock1,774.1000000089407,img/planet1_left.png,1,Community 2,NA,TRUE,f,f,NA,NA,NA,1,6,"5,6,9,13,11,2,1,12,3,4,8,10,14,7,15"
14675,commdev-image-keyboard-response,359,928283,learnblock1,1082.7000000029802,img/planet12_right.png,12,Community 2,NA,TRUE,j,j,NA,NA,NA,1,6,"5,6,9,13,11,2,1,12,3,4,8,10,14,7,15"
14675,commdev-image-keyboard-response,360,929535,learnblock1,646.9000000059605,img/planet4_right.png,4,Community 2,NA,FALSE,f,j,NA,NA,NA,1,6,"5,6,9,13,11,2,1,12,3,4,8,10,14,7,15"
14675,commdev-image-keyboard-response,361,930787,learnblock1,635.5999999940395,img/planet12_right.png,12,Community 2,NA,TRUE,j,j,NA,NA,NA,1,6,"5,6,9,13,11,2,1,12,3,4,8,10,14,7,15"
14675,commdev-image-keyboard-response,362,932038,learnblock1,871.7999999970198,img/planet1_right.png,1,Community 2,NA,FALSE,f,j,NA,NA,NA,1,6,"5,6,9,13,11,2,1,12,3,4,8,10,14,7,15"
14675,commdev-image-keyboard-response,363,933291,learnblock1,1163.9000000059605,img/planet12_left.png,12,Community 2,NA,TRUE,f,f,NA,NA,NA,1,6,"5,6,9,13,11,2,1,12,3,4,8,10,14,7,15"
14675,commdev-image-keyboard-response,364,934543,learnblock1,479.80000001192093,img/planet3_right.png,3,Community 2,NA,TRUE,j,j,NA,NA,NA,1,6,"5,6,9,13,11,2,1,12,3,4,8,10,14,7,15"
14675,commdev-image-keyboard-response,365,935794,learnblock1,739.9000000059605,img/planet4_left.png,4,Community 2,NA,FALSE,j,f,NA,NA,NA,1,6,"5,6,9,13,11,2,1,12,3,4,8,10,14,7,15"
14675,commdev-image-keyboard-response,366,937047,learnblock1,928.6000000089407,img/planet12_left.png,12,Community 2,NA,TRUE,f,f,NA,NA,NA,1,6,"5,6,9,13,11,2,1,12,3,4,8,10,14,7,15"
14675,commdev-image-keyboard-response,367,938299,learnblock1,643.5999999940395,img/planet4_left.png,4,Community 2,NA,FALSE,j,f,NA,NA,NA,1,6,"5,6,9,13,11,2,1,12,3,4,8,10,14,7,15"
14675,commdev-image-keyboard-response,368,939550,learnblock1,856,img/planet12_left.png,12,Community 2,NA,FALSE,j,f,NA,NA,NA,1,6,"5,6,9,13,11,2,1,12,3,4,8,10,14,7,15"
14675,commdev-image-keyboard-response,369,940802,learnblock1,739.9000000059605,img/planet1_right.png,1,Community 2,NA,FALSE,f,j,NA,NA,NA,1,6,"5,6,9,13,11,2,1,12,3,4,8,10,14,7,15"
14675,commdev-image-keyboard-response,370,942053,learnblock1,744.8999999910593,img/planet3_left.png,3,Community 2,NA,TRUE,f,f,NA,NA,NA,1,6,"5,6,9,13,11,2,1,12,3,4,8,10,14,7,15"
14675,commdev-image-keyboard-response,371,943306,learnblock1,1117.4000000059605,img/planet1_right.png,1,Community 2,NA,TRUE,j,j,NA,NA,NA,1,6,"5,6,9,13,11,2,1,12,3,4,8,10,14,7,15"
14675,commdev-image-keyboard-response,372,944557,learnblock1,752.7000000029802,img/planet12_right.png,12,Community 2,NA,TRUE,j,j,NA,NA,NA,1,6,"5,6,9,13,11,2,1,12,3,4,8,10,14,7,15"
14675,commdev-image-keyboard-response,373,945808,learnblock1,781.8000000119209,img/planet1_right.png,1,Community 2,NA,TRUE,j,j,NA,NA,NA,1,6,"5,6,9,13,11,2,1,12,3,4,8,10,14,7,15"
14675,commdev-image-keyboard-response,374,947060,learnblock1,522.4000000059605,img/planet3_right.png,3,Community 2,NA,TRUE,j,j,NA,NA,NA,1,6,"5,6,9,13,11,2,1,12,3,4,8,10,14,7,15"
14675,commdev-image-keyboard-response,375,948312,learnblock1,543,img/planet2_right.png,2,Community 2,NA,TRUE,j,j,NA,NA,NA,1,6,"5,6,9,13,11,2,1,12,3,4,8,10,14,7,15"
14675,commdev-image-keyboard-response,376,949564,learnblock1,650.2000000029802,img/planet13_right.png,13,Community 1,NA,TRUE,j,j,NA,NA,NA,1,6,"5,6,9,13,11,2,1,12,3,4,8,10,14,7,15"
14675,commdev-image-keyboard-response,377,950815,learnblock1,558.8000000119209,img/planet9_right.png,9,Community 1,NA,TRUE,j,j,NA,NA,NA,1,6,"5,6,9,13,11,2,1,12,3,4,8,10,14,7,15"
14675,commdev-image-keyboard-response,378,952066,learnblock1,725.8999999910593,img/planet13_right.png,13,Community 1,NA,TRUE,j,j,NA,NA,NA,1,6,"5,6,9,13,11,2,1,12,3,4,8,10,14,7,15"
14675,commdev-image-keyboard-response,379,953318,learnblock1,721.2000000029802,img/planet2_left.png,2,Community 2,NA,TRUE,f,f,NA,NA,NA,1,6,"5,6,9,13,11,2,1,12,3,4,8,10,14,7,15"
14675,commdev-image-keyboard-response,380,954569,learnblock1,564.5999999940395,img/planet4_right.png,4,Community 2,NA,TRUE,j,j,NA,NA,NA,1,6,"5,6,9,13,11,2,1,12,3,4,8,10,14,7,15"
14675,commdev-image-keyboard-response,381,955820,learnblock1,650.0999999940395,img/planet12_right.png,12,Community 2,NA,TRUE,j,j,NA,NA,NA,1,6,"5,6,9,13,11,2,1,12,3,4,8,10,14,7,15"
14675,commdev-image-keyboard-response,382,957073,learnblock1,583,img/planet1_right.png,1,Community 2,NA,TRUE,j,j,NA,NA,NA,1,6,"5,6,9,13,11,2,1,12,3,4,8,10,14,7,15"
14675,commdev-image-keyboard-response,383,958324,learnblock1,658.5999999940395,img/planet4_left.png,4,Community 2,NA,TRUE,f,f,NA,NA,NA,1,6,"5,6,9,13,11,2,1,12,3,4,8,10,14,7,15"
14675,commdev-image-keyboard-response,384,959576,learnblock1,575.5,img/planet3_right.png,3,Community 2,NA,TRUE,j,j,NA,NA,NA,1,6,"5,6,9,13,11,2,1,12,3,4,8,10,14,7,15"
14675,commdev-image-keyboard-response,385,960828,learnblock1,931.5,img/planet4_left.png,4,Community 2,NA,TRUE,f,f,NA,NA,NA,1,6,"5,6,9,13,11,2,1,12,3,4,8,10,14,7,15"
14675,commdev-image-keyboard-response,386,962081,learnblock1,null,img/planet1_left.png,1,Community 2,NA,FALSE,null,f,NA,NA,NA,1,6,"5,6,9,13,11,2,1,12,3,4,8,10,14,7,15"
14675,commdev-image-keyboard-response,387,963333,learnblock1,74.29999999701977,img/planet12_left.png,12,Community 2,NA,TRUE,f,f,NA,NA,NA,1,6,"5,6,9,13,11,2,1,12,3,4,8,10,14,7,15"
14675,commdev-image-keyboard-response,388,964585,learnblock1,726.2000000029802,img/planet10_left.png,10,Community 3,NA,TRUE,f,f,NA,NA,NA,1,6,"5,6,9,13,11,2,1,12,3,4,8,10,14,7,15"
14675,commdev-image-keyboard-response,389,965836,learnblock1,634.0999999940395,img/planet15_right.png,15,Community 3,NA,TRUE,j,j,NA,NA,NA,1,6,"5,6,9,13,11,2,1,12,3,4,8,10,14,7,15"
14675,commdev-image-keyboard-response,390,967088,learnblock1,543.2999999970198,img/planet8_left.png,8,Community 3,NA,TRUE,f,f,NA,NA,NA,1,6,"5,6,9,13,11,2,1,12,3,4,8,10,14,7,15"
14675,commdev-image-keyboard-response,391,968341,learnblock1,659.4000000059605,img/planet14_right.png,14,Community 3,NA,TRUE,j,j,NA,NA,NA,1,6,"5,6,9,13,11,2,1,12,3,4,8,10,14,7,15"
14675,commdev-image-keyboard-response,392,969592,learnblock1,null,img/planet10_right.png,10,Community 3,NA,FALSE,null,j,NA,NA,NA,1,6,"5,6,9,13,11,2,1,12,3,4,8,10,14,7,15"
14675,commdev-image-keyboard-response,393,970844,learnblock1,171.3999999910593,img/planet12_left.png,12,Community 2,NA,TRUE,f,f,NA,NA,NA,1,6,"5,6,9,13,11,2,1,12,3,4,8,10,14,7,15"
14675,commdev-image-keyboard-response,394,972096,learnblock1,719.8000000119209,img/planet10_left.png,10,Community 3,NA,TRUE,f,f,NA,NA,NA,1,6,"5,6,9,13,11,2,1,12,3,4,8,10,14,7,15"
14675,commdev-image-keyboard-response,395,973348,learnblock1,539.1000000089407,img/planet15_left.png,15,Community 3,NA,TRUE,f,f,NA,NA,NA,1,6,"5,6,9,13,11,2,1,12,3,4,8,10,14,7,15"
14675,commdev-image-keyboard-response,396,974601,learnblock1,832.2000000029802,img/planet8_left.png,8,Community 3,NA,TRUE,f,f,NA,NA,NA,1,6,"5,6,9,13,11,2,1,12,3,4,8,10,14,7,15"
14675,commdev-image-keyboard-response,397,975852,learnblock1,626.7999999970198,img/planet11_right.png,11,Community 1,NA,FALSE,f,j,NA,NA,NA,1,6,"5,6,9,13,11,2,1,12,3,4,8,10,14,7,15"
14675,commdev-image-keyboard-response,398,977104,learnblock1,607.4000000059605,img/planet6_left.png,6,Community 1,NA,TRUE,f,f,NA,NA,NA,1,6,"5,6,9,13,11,2,1,12,3,4,8,10,14,7,15"
14675,commdev-image-keyboard-response,399,978355,learnblock1,619.2999999970198,img/planet5_right.png,5,Community 1,NA,TRUE,j,j,NA,NA,NA,1,6,"5,6,9,13,11,2,1,12,3,4,8,10,14,7,15"
14675,commdev-image-keyboard-response,400,979608,learnblock1,624.8999999910593,img/planet9_right.png,9,Community 1,NA,TRUE,j,j,NA,NA,NA,1,6,"5,6,9,13,11,2,1,12,3,4,8,10,14,7,15"
14675,commdev-image-keyboard-response,401,980859,learnblock1,716.5999999940395,img/planet5_left.png,5,Community 1,NA,TRUE,f,f,NA,NA,NA,1,6,"5,6,9,13,11,2,1,12,3,4,8,10,14,7,15"
14675,commdev-image-keyboard-response,402,982110,learnblock1,841.1000000089407,img/planet13_left.png,13,Community 1,NA,TRUE,f,f,NA,NA,NA,1,6,"5,6,9,13,11,2,1,12,3,4,8,10,14,7,15"
14675,commdev-image-keyboard-response,403,983362,learnblock1,669.3999999910593,img/planet9_right.png,9,Community 1,NA,FALSE,f,j,NA,NA,NA,1,6,"5,6,9,13,11,2,1,12,3,4,8,10,14,7,15"
14675,commdev-image-keyboard-response,404,984614,learnblock1,754.2000000029802,img/planet5_right.png,5,Community 1,NA,TRUE,j,j,NA,NA,NA,1,6,"5,6,9,13,11,2,1,12,3,4,8,10,14,7,15"
14675,commdev-image-keyboard-response,405,985865,learnblock1,973.7999999970198,img/planet13_right.png,13,Community 1,NA,TRUE,j,j,NA,NA,NA,1,6,"5,6,9,13,11,2,1,12,3,4,8,10,14,7,15"
14675,commdev-image-keyboard-response,406,987117,learnblock1,1098.8999999910593,img/planet6_left.png,6,Community 1,NA,TRUE,f,f,NA,NA,NA,1,6,"5,6,9,13,11,2,1,12,3,4,8,10,14,7,15"
14675,commdev-image-keyboard-response,407,988369,learnblock1,1047.2000000029802,img/planet11_right.png,11,Community 1,NA,TRUE,j,j,NA,NA,NA,1,6,"5,6,9,13,11,2,1,12,3,4,8,10,14,7,15"
14675,commdev-image-keyboard-response,408,989620,learnblock1,683.5,img/planet6_left.png,6,Community 1,NA,TRUE,f,f,NA,NA,NA,1,6,"5,6,9,13,11,2,1,12,3,4,8,10,14,7,15"
14675,commdev-image-keyboard-response,409,990872,learnblock1,576.5,img/planet9_right.png,9,Community 1,NA,TRUE,j,j,NA,NA,NA,1,6,"5,6,9,13,11,2,1,12,3,4,8,10,14,7,15"
14675,commdev-image-keyboard-response,410,992123,learnblock1,692.4000000059605,img/planet6_right.png,6,Community 1,NA,TRUE,j,j,NA,NA,NA,1,6,"5,6,9,13,11,2,1,12,3,4,8,10,14,7,15"
14675,commdev-image-keyboard-response,411,993376,learnblock1,600.7000000029802,img/planet11_right.png,11,Community 1,NA,TRUE,j,j,NA,NA,NA,1,6,"5,6,9,13,11,2,1,12,3,4,8,10,14,7,15"
14675,commdev-image-keyboard-response,412,994628,learnblock1,652.7999999970198,img/planet9_right.png,9,Community 1,NA,TRUE,j,j,NA,NA,NA,1,6,"5,6,9,13,11,2,1,12,3,4,8,10,14,7,15"
14675,commdev-image-keyboard-response,413,995880,learnblock1,624.6000000089407,img/planet13_right.png,13,Community 1,NA,TRUE,j,j,NA,NA,NA,1,6,"5,6,9,13,11,2,1,12,3,4,8,10,14,7,15"
14675,commdev-image-keyboard-response,414,997132,learnblock1,724.3999999910593,img/planet6_right.png,6,Community 1,NA,TRUE,j,j,NA,NA,NA,1,6,"5,6,9,13,11,2,1,12,3,4,8,10,14,7,15"
14675,commdev-image-keyboard-response,415,998384,learnblock1,824.8999999910593,img/planet5_left.png,5,Community 1,NA,TRUE,f,f,NA,NA,NA,1,6,"5,6,9,13,11,2,1,12,3,4,8,10,14,7,15"
14675,commdev-image-keyboard-response,416,999635,learnblock1,724.7000000029802,img/planet11_right.png,11,Community 1,NA,TRUE,j,j,NA,NA,NA,1,6,"5,6,9,13,11,2,1,12,3,4,8,10,14,7,15"
14675,commdev-image-keyboard-response,417,1000887,learnblock1,617.1000000089407,img/planet6_left.png,6,Community 1,NA,TRUE,f,f,NA,NA,NA,1,6,"5,6,9,13,11,2,1,12,3,4,8,10,14,7,15"
14675,commdev-image-keyboard-response,418,1002139,learnblock1,461,img/planet5_left.png,5,Community 1,NA,FALSE,j,f,NA,NA,NA,1,6,"5,6,9,13,11,2,1,12,3,4,8,10,14,7,15"
14675,commdev-image-keyboard-response,419,1003392,learnblock1,881.5,img/planet13_left.png,13,Community 1,NA,TRUE,f,f,NA,NA,NA,1,6,"5,6,9,13,11,2,1,12,3,4,8,10,14,7,15"
14675,commdev-image-keyboard-response,420,1004644,learnblock1,636.5,img/planet5_left.png,5,Community 1,NA,TRUE,f,f,NA,NA,NA,1,6,"5,6,9,13,11,2,1,12,3,4,8,10,14,7,15"
14675,commdev-image-keyboard-response,421,1005896,learnblock1,689.0999999940395,img/planet9_right.png,9,Community 1,NA,TRUE,j,j,NA,NA,NA,1,6,"5,6,9,13,11,2,1,12,3,4,8,10,14,7,15"
14675,commdev-image-keyboard-response,422,1007148,learnblock1,948.4000000059605,img/planet11_right.png,11,Community 1,NA,TRUE,j,j,NA,NA,NA,1,6,"5,6,9,13,11,2,1,12,3,4,8,10,14,7,15"
14675,commdev-image-keyboard-response,423,1008401,learnblock1,864.7999999970198,img/planet9_left.png,9,Community 1,NA,TRUE,f,f,NA,NA,NA,1,6,"5,6,9,13,11,2,1,12,3,4,8,10,14,7,15"
14675,commdev-image-keyboard-response,424,1009653,learnblock1,null,img/planet5_left.png,5,Community 1,NA,FALSE,null,f,NA,NA,NA,1,6,"5,6,9,13,11,2,1,12,3,4,8,10,14,7,15"
14675,commdev-image-keyboard-response,425,1010905,learnblock1,807.9000000059605,img/planet9_right.png,9,Community 1,NA,TRUE,j,j,NA,NA,NA,1,6,"5,6,9,13,11,2,1,12,3,4,8,10,14,7,15"
14675,commdev-image-keyboard-response,426,1012157,learnblock1,563.0999999940395,img/planet5_left.png,5,Community 1,NA,TRUE,f,f,NA,NA,NA,1,6,"5,6,9,13,11,2,1,12,3,4,8,10,14,7,15"
14675,commdev-image-keyboard-response,427,1013409,learnblock1,1239.5999999940395,img/planet9_left.png,9,Community 1,NA,TRUE,f,f,NA,NA,NA,1,6,"5,6,9,13,11,2,1,12,3,4,8,10,14,7,15"
14675,commdev-image-keyboard-response,428,1014660,learnblock1,null,img/planet5_left.png,5,Community 1,NA,FALSE,null,f,NA,NA,NA,1,6,"5,6,9,13,11,2,1,12,3,4,8,10,14,7,15"
14675,commdev-image-keyboard-response,429,1015913,learnblock1,1008.8000000119209,img/planet9_right.png,9,Community 1,NA,TRUE,j,j,NA,NA,NA,1,6,"5,6,9,13,11,2,1,12,3,4,8,10,14,7,15"
14675,commdev-image-keyboard-response,430,1017164,learnblock1,780.2000000029802,img/planet6_left.png,6,Community 1,NA,TRUE,f,f,NA,NA,NA,1,6,"5,6,9,13,11,2,1,12,3,4,8,10,14,7,15"
14675,commdev-image-keyboard-response,431,1018416,learnblock1,521.4000000059605,img/planet13_right.png,13,Community 1,NA,TRUE,j,j,NA,NA,NA,1,6,"5,6,9,13,11,2,1,12,3,4,8,10,14,7,15"
14675,commdev-image-keyboard-response,432,1019667,learnblock1,525.1000000089407,img/planet6_left.png,6,Community 1,NA,TRUE,f,f,NA,NA,NA,1,6,"5,6,9,13,11,2,1,12,3,4,8,10,14,7,15"
14675,commdev-image-keyboard-response,433,1020920,learnblock1,433.70000000298023,img/planet13_right.png,13,Community 1,NA,TRUE,j,j,NA,NA,NA,1,6,"5,6,9,13,11,2,1,12,3,4,8,10,14,7,15"
14675,commdev-image-keyboard-response,434,1022171,learnblock1,573.1999999880791,img/planet2_right.png,2,Community 2,NA,FALSE,f,j,NA,NA,NA,1,6,"5,6,9,13,11,2,1,12,3,4,8,10,14,7,15"
14675,commdev-image-keyboard-response,435,1023423,learnblock1,641.8999999910593,img/planet4_left.png,4,Community 2,NA,TRUE,f,f,NA,NA,NA,1,6,"5,6,9,13,11,2,1,12,3,4,8,10,14,7,15"
14675,commdev-image-keyboard-response,436,1024676,learnblock1,950.2999999970198,img/planet12_left.png,12,Community 2,NA,TRUE,f,f,NA,NA,NA,1,6,"5,6,9,13,11,2,1,12,3,4,8,10,14,7,15"
14675,commdev-image-keyboard-response,437,1025928,learnblock1,873.7000000029802,img/planet10_right.png,10,Community 3,NA,TRUE,j,j,NA,NA,NA,1,6,"5,6,9,13,11,2,1,12,3,4,8,10,14,7,15"
14675,commdev-image-keyboard-response,438,1027179,learnblock1,517.2999999970198,img/planet15_left.png,15,Community 3,NA,TRUE,f,f,NA,NA,NA,1,6,"5,6,9,13,11,2,1,12,3,4,8,10,14,7,15"
14675,commdev-image-keyboard-response,439,1028432,learnblock1,602.1000000089407,img/planet10_right.png,10,Community 3,NA,TRUE,j,j,NA,NA,NA,1,6,"5,6,9,13,11,2,1,12,3,4,8,10,14,7,15"
14675,commdev-image-keyboard-response,440,1029684,learnblock1,629.7999999970198,img/planet14_left.png,14,Community 3,NA,TRUE,f,f,NA,NA,NA,1,6,"5,6,9,13,11,2,1,12,3,4,8,10,14,7,15"
14675,commdev-image-keyboard-response,441,1030935,learnblock1,953.6000000089407,img/planet8_left.png,8,Community 3,NA,TRUE,f,f,NA,NA,NA,1,6,"5,6,9,13,11,2,1,12,3,4,8,10,14,7,15"
14675,commdev-image-keyboard-response,442,1032187,learnblock1,470.3999999910593,img/planet11_left.png,11,Community 1,NA,FALSE,j,f,NA,NA,NA,1,6,"5,6,9,13,11,2,1,12,3,4,8,10,14,7,15"
14675,commdev-image-keyboard-response,443,1033439,learnblock1,682,img/planet5_left.png,5,Community 1,NA,TRUE,f,f,NA,NA,NA,1,6,"5,6,9,13,11,2,1,12,3,4,8,10,14,7,15"
14675,commdev-image-keyboard-response,444,1034691,learnblock1,614.5,img/planet6_left.png,6,Community 1,NA,TRUE,f,f,NA,NA,NA,1,6,"5,6,9,13,11,2,1,12,3,4,8,10,14,7,15"
14675,commdev-image-keyboard-response,445,1035943,learnblock1,706.5,img/planet13_right.png,13,Community 1,NA,TRUE,j,j,NA,NA,NA,1,6,"5,6,9,13,11,2,1,12,3,4,8,10,14,7,15"
14675,commdev-image-keyboard-response,446,1037195,learnblock1,646.5999999940395,img/planet6_left.png,6,Community 1,NA,TRUE,f,f,NA,NA,NA,1,6,"5,6,9,13,11,2,1,12,3,4,8,10,14,7,15"
14675,commdev-image-keyboard-response,447,1038446,learnblock1,714.3000000119209,img/planet9_right.png,9,Community 1,NA,TRUE,j,j,NA,NA,NA,1,6,"5,6,9,13,11,2,1,12,3,4,8,10,14,7,15"
14675,commdev-image-keyboard-response,448,1039698,learnblock1,1231.3999999910593,img/planet6_right.png,6,Community 1,NA,TRUE,j,j,NA,NA,NA,1,6,"5,6,9,13,11,2,1,12,3,4,8,10,14,7,15"
14675,commdev-image-keyboard-response,449,1040949,learnblock1,611.3000000119209,img/planet11_left.png,11,Community 1,NA,TRUE,f,f,NA,NA,NA,1,6,"5,6,9,13,11,2,1,12,3,4,8,10,14,7,15"
14675,commdev-image-keyboard-response,450,1042201,learnblock1,616.5999999940395,img/planet9_right.png,9,Community 1,NA,TRUE,j,j,NA,NA,NA,1,6,"5,6,9,13,11,2,1,12,3,4,8,10,14,7,15"
14675,commdev-image-keyboard-response,451,1043453,learnblock1,516.7000000029802,img/planet11_left.png,11,Community 1,NA,TRUE,f,f,NA,NA,NA,1,6,"5,6,9,13,11,2,1,12,3,4,8,10,14,7,15"
14675,commdev-image-keyboard-response,452,1044705,learnblock1,488.09999999403954,img/planet5_right.png,5,Community 1,NA,TRUE,j,j,NA,NA,NA,1,6,"5,6,9,13,11,2,1,12,3,4,8,10,14,7,15"
14675,commdev-image-keyboard-response,453,1045956,learnblock1,340.70000000298023,img/planet11_right.png,11,Community 1,NA,FALSE,f,j,NA,NA,NA,1,6,"5,6,9,13,11,2,1,12,3,4,8,10,14,7,15"
14675,commdev-image-keyboard-response,454,1047208,learnblock1,634.1000000089407,img/planet8_left.png,8,Community 3,NA,TRUE,f,f,NA,NA,NA,1,6,"5,6,9,13,11,2,1,12,3,4,8,10,14,7,15"
14675,commdev-image-keyboard-response,455,1048460,learnblock1,549.7999999970198,img/planet14_left.png,14,Community 3,NA,FALSE,j,f,NA,NA,NA,1,6,"5,6,9,13,11,2,1,12,3,4,8,10,14,7,15"
14675,commdev-image-keyboard-response,456,1049712,learnblock1,561.5999999940395,img/planet8_left.png,8,Community 3,NA,TRUE,f,f,NA,NA,NA,1,6,"5,6,9,13,11,2,1,12,3,4,8,10,14,7,15"
14675,commdev-image-keyboard-response,457,1050963,learnblock1,854.2999999970198,img/planet7_left.png,7,Community 3,NA,TRUE,f,f,NA,NA,NA,1,6,"5,6,9,13,11,2,1,12,3,4,8,10,14,7,15"
14675,commdev-image-keyboard-response,458,1052216,learnblock1,722,img/planet8_right.png,8,Community 3,NA,FALSE,f,j,NA,NA,NA,1,6,"5,6,9,13,11,2,1,12,3,4,8,10,14,7,15"
14675,commdev-image-keyboard-response,459,1053467,learnblock1,574.5,img/planet15_left.png,15,Community 3,NA,TRUE,f,f,NA,NA,NA,1,6,"5,6,9,13,11,2,1,12,3,4,8,10,14,7,15"
14675,commdev-image-keyboard-response,460,1054719,learnblock1,579.3999999910593,img/planet8_right.png,8,Community 3,NA,TRUE,j,j,NA,NA,NA,1,6,"5,6,9,13,11,2,1,12,3,4,8,10,14,7,15"
14675,commdev-image-keyboard-response,461,1055970,learnblock1,1023.4000000059605,img/planet14_right.png,14,Community 3,NA,TRUE,j,j,NA,NA,NA,1,6,"5,6,9,13,11,2,1,12,3,4,8,10,14,7,15"
14675,commdev-image-keyboard-response,462,1057221,learnblock1,764.5999999940395,img/planet7_right.png,7,Community 3,NA,TRUE,j,j,NA,NA,NA,1,6,"5,6,9,13,11,2,1,12,3,4,8,10,14,7,15"
14675,commdev-image-keyboard-response,463,1058472,learnblock1,841.4000000059605,img/planet15_left.png,15,Community 3,NA,TRUE,f,f,NA,NA,NA,1,6,"5,6,9,13,11,2,1,12,3,4,8,10,14,7,15"
14675,commdev-image-keyboard-response,464,1059723,learnblock1,855,img/planet14_left.png,14,Community 3,NA,TRUE,f,f,NA,NA,NA,1,6,"5,6,9,13,11,2,1,12,3,4,8,10,14,7,15"
14675,commdev-image-keyboard-response,465,1060976,learnblock1,739.4000000059605,img/planet7_right.png,7,Community 3,NA,FALSE,f,j,NA,NA,NA,1,6,"5,6,9,13,11,2,1,12,3,4,8,10,14,7,15"
14675,commdev-image-keyboard-response,466,1062228,learnblock1,558.8999999910593,img/planet15_left.png,15,Community 3,NA,TRUE,f,f,NA,NA,NA,1,6,"5,6,9,13,11,2,1,12,3,4,8,10,14,7,15"
14675,commdev-image-keyboard-response,467,1063479,learnblock1,563.1000000089407,img/planet14_right.png,14,Community 3,NA,TRUE,j,j,NA,NA,NA,1,6,"5,6,9,13,11,2,1,12,3,4,8,10,14,7,15"
14675,commdev-image-keyboard-response,468,1064731,learnblock1,575.7999999970198,img/planet10_left.png,10,Community 3,NA,TRUE,f,f,NA,NA,NA,1,6,"5,6,9,13,11,2,1,12,3,4,8,10,14,7,15"
14675,commdev-image-keyboard-response,469,1065983,learnblock1,955.8999999910593,img/planet14_left.png,14,Community 3,NA,TRUE,f,f,NA,NA,NA,1,6,"5,6,9,13,11,2,1,12,3,4,8,10,14,7,15"
14675,commdev-image-keyboard-response,470,1067235,learnblock1,711.8999999910593,img/planet8_right.png,8,Community 3,NA,FALSE,f,j,NA,NA,NA,1,6,"5,6,9,13,11,2,1,12,3,4,8,10,14,7,15"
14675,commdev-image-keyboard-response,471,1068487,learnblock1,562.9000000059605,img/planet7_left.png,7,Community 3,NA,TRUE,f,f,NA,NA,NA,1,6,"5,6,9,13,11,2,1,12,3,4,8,10,14,7,15"
14675,commdev-image-keyboard-response,472,1069738,learnblock1,674.0999999940395,img/planet15_left.png,15,Community 3,NA,TRUE,f,f,NA,NA,NA,1,6,"5,6,9,13,11,2,1,12,3,4,8,10,14,7,15"
14675,commdev-image-keyboard-response,473,1070990,learnblock1,636.1999999880791,img/planet7_right.png,7,Community 3,NA,FALSE,f,j,NA,NA,NA,1,6,"5,6,9,13,11,2,1,12,3,4,8,10,14,7,15"
14675,commdev-image-keyboard-response,474,1072241,learnblock1,712.2000000029802,img/planet8_left.png,8,Community 3,NA,TRUE,f,f,NA,NA,NA,1,6,"5,6,9,13,11,2,1,12,3,4,8,10,14,7,15"
14675,commdev-image-keyboard-response,475,1073493,learnblock1,717.2000000029802,img/planet15_left.png,15,Community 3,NA,FALSE,j,f,NA,NA,NA,1,6,"5,6,9,13,11,2,1,12,3,4,8,10,14,7,15"
14675,commdev-image-keyboard-response,476,1074744,learnblock1,null,img/planet8_right.png,8,Community 3,NA,FALSE,null,j,NA,NA,NA,1,6,"5,6,9,13,11,2,1,12,3,4,8,10,14,7,15"
14675,commdev-image-keyboard-response,477,1075995,learnblock1,199.20000000298023,img/planet11_left.png,11,Community 1,NA,FALSE,j,f,NA,NA,NA,1,6,"5,6,9,13,11,2,1,12,3,4,8,10,14,7,15"
14675,commdev-image-keyboard-response,478,1077247,learnblock1,739.1999999880791,img/planet8_right.png,8,Community 3,NA,TRUE,j,j,NA,NA,NA,1,6,"5,6,9,13,11,2,1,12,3,4,8,10,14,7,15"
14675,commdev-image-keyboard-response,479,1078499,learnblock1,895.9000000059605,img/planet15_right.png,15,Community 3,NA,TRUE,j,j,NA,NA,NA,1,6,"5,6,9,13,11,2,1,12,3,4,8,10,14,7,15"
14675,commdev-image-keyboard-response,480,1079751,learnblock1,907.7999999970198,img/planet14_left.png,14,Community 3,NA,TRUE,f,f,NA,NA,NA,1,6,"5,6,9,13,11,2,1,12,3,4,8,10,14,7,15"
14675,commdev-image-keyboard-response,481,1081003,learnblock1,672.0999999940395,img/planet8_left.png,8,Community 3,NA,TRUE,f,f,NA,NA,NA,1,6,"5,6,9,13,11,2,1,12,3,4,8,10,14,7,15"
14675,commdev-image-keyboard-response,482,1082255,learnblock1,1187.7000000029802,img/planet15_left.png,15,Community 3,NA,TRUE,f,f,NA,NA,NA,1,6,"5,6,9,13,11,2,1,12,3,4,8,10,14,7,15"
14675,commdev-image-keyboard-response,483,1083507,learnblock1,1120,img/planet14_left.png,14,Community 3,NA,TRUE,f,f,NA,NA,NA,1,6,"5,6,9,13,11,2,1,12,3,4,8,10,14,7,15"
14675,commdev-image-keyboard-response,484,1084759,learnblock1,628.4000000059605,img/planet10_left.png,10,Community 3,NA,TRUE,f,f,NA,NA,NA,1,6,"5,6,9,13,11,2,1,12,3,4,8,10,14,7,15"
14675,commdev-image-keyboard-response,485,1086010,learnblock1,752.5,img/planet14_left.png,14,Community 3,NA,TRUE,f,f,NA,NA,NA,1,6,"5,6,9,13,11,2,1,12,3,4,8,10,14,7,15"
14675,commdev-image-keyboard-response,486,1087261,learnblock1,725.7000000029802,img/planet7_left.png,7,Community 3,NA,TRUE,f,f,NA,NA,NA,1,6,"5,6,9,13,11,2,1,12,3,4,8,10,14,7,15"
14675,commdev-image-keyboard-response,487,1088513,learnblock1,514.2999999970198,img/planet15_right.png,15,Community 3,NA,FALSE,f,j,NA,NA,NA,1,6,"5,6,9,13,11,2,1,12,3,4,8,10,14,7,15"
14675,commdev-image-keyboard-response,488,1089765,learnblock1,742.3000000119209,img/planet10_right.png,10,Community 3,NA,TRUE,j,j,NA,NA,NA,1,6,"5,6,9,13,11,2,1,12,3,4,8,10,14,7,15"
14675,commdev-image-keyboard-response,489,1091017,learnblock1,594.7000000029802,img/planet14_left.png,14,Community 3,NA,TRUE,f,f,NA,NA,NA,1,6,"5,6,9,13,11,2,1,12,3,4,8,10,14,7,15"
14675,commdev-image-keyboard-response,490,1092268,learnblock1,702.2999999970198,img/planet7_left.png,7,Community 3,NA,TRUE,f,f,NA,NA,NA,1,6,"5,6,9,13,11,2,1,12,3,4,8,10,14,7,15"
14675,commdev-image-keyboard-response,491,1093520,learnblock1,771.4000000059605,img/planet8_left.png,8,Community 3,NA,TRUE,f,f,NA,NA,NA,1,6,"5,6,9,13,11,2,1,12,3,4,8,10,14,7,15"
14675,commdev-image-keyboard-response,492,1094771,learnblock1,703.5999999940395,img/planet11_left.png,11,Community 1,NA,TRUE,f,f,NA,NA,NA,1,6,"5,6,9,13,11,2,1,12,3,4,8,10,14,7,15"
14675,commdev-image-keyboard-response,493,1096023,learnblock1,668.2999999970198,img/planet5_left.png,5,Community 1,NA,TRUE,f,f,NA,NA,NA,1,6,"5,6,9,13,11,2,1,12,3,4,8,10,14,7,15"
14675,commdev-image-keyboard-response,494,1097275,learnblock1,480.70000000298023,img/planet9_right.png,9,Community 1,NA,FALSE,f,j,NA,NA,NA,1,6,"5,6,9,13,11,2,1,12,3,4,8,10,14,7,15"
14675,commdev-image-keyboard-response,495,1098527,learnblock1,852.2000000029802,img/planet6_right.png,6,Community 1,NA,TRUE,j,j,NA,NA,NA,1,6,"5,6,9,13,11,2,1,12,3,4,8,10,14,7,15"
14675,commdev-image-keyboard-response,496,1099779,learnblock1,592.4000000059605,img/planet13_left.png,13,Community 1,NA,TRUE,f,f,NA,NA,NA,1,6,"5,6,9,13,11,2,1,12,3,4,8,10,14,7,15"
14675,commdev-image-keyboard-response,497,1101030,learnblock1,580.5,img/planet6_right.png,6,Community 1,NA,FALSE,f,j,NA,NA,NA,1,6,"5,6,9,13,11,2,1,12,3,4,8,10,14,7,15"
14675,commdev-image-keyboard-response,498,1102283,learnblock1,1001.0999999940395,img/planet5_right.png,5,Community 1,NA,TRUE,j,j,NA,NA,NA,1,6,"5,6,9,13,11,2,1,12,3,4,8,10,14,7,15"
14675,commdev-image-keyboard-response,499,1103535,learnblock1,956.6999999880791,img/planet11_right.png,11,Community 1,NA,TRUE,j,j,NA,NA,NA,1,6,"5,6,9,13,11,2,1,12,3,4,8,10,14,7,15"
14675,commdev-image-keyboard-response,500,1104787,learnblock1,728.8999999910593,img/planet5_left.png,5,Community 1,NA,TRUE,f,f,NA,NA,NA,1,6,"5,6,9,13,11,2,1,12,3,4,8,10,14,7,15"
14675,commdev-image-keyboard-response,501,1106039,learnblock1,556.8000000119209,img/planet9_right.png,9,Community 1,NA,TRUE,j,j,NA,NA,NA,1,6,"5,6,9,13,11,2,1,12,3,4,8,10,14,7,15"
14675,commdev-image-keyboard-response,502,1107290,learnblock1,808.7000000029802,img/planet6_right.png,6,Community 1,NA,TRUE,j,j,NA,NA,NA,1,6,"5,6,9,13,11,2,1,12,3,4,8,10,14,7,15"
14675,commdev-image-keyboard-response,503,1108541,learnblock1,797.7000000029802,img/planet5_left.png,5,Community 1,NA,TRUE,f,f,NA,NA,NA,1,6,"5,6,9,13,11,2,1,12,3,4,8,10,14,7,15"
14675,commdev-image-keyboard-response,504,1109793,learnblock1,674.7000000029802,img/planet6_right.png,6,Community 1,NA,TRUE,j,j,NA,NA,NA,1,6,"5,6,9,13,11,2,1,12,3,4,8,10,14,7,15"
14675,commdev-image-keyboard-response,505,1111045,learnblock1,527,img/planet11_left.png,11,Community 1,NA,TRUE,f,f,NA,NA,NA,1,6,"5,6,9,13,11,2,1,12,3,4,8,10,14,7,15"
14675,commdev-image-keyboard-response,506,1112297,learnblock1,698.5,img/planet5_left.png,5,Community 1,NA,TRUE,f,f,NA,NA,NA,1,6,"5,6,9,13,11,2,1,12,3,4,8,10,14,7,15"
14675,commdev-image-keyboard-response,507,1113549,learnblock1,543,img/planet11_left.png,11,Community 1,NA,TRUE,f,f,NA,NA,NA,1,6,"5,6,9,13,11,2,1,12,3,4,8,10,14,7,15"
14675,commdev-image-keyboard-response,508,1114800,learnblock1,538.7999999970198,img/planet9_right.png,9,Community 1,NA,TRUE,j,j,NA,NA,NA,1,6,"5,6,9,13,11,2,1,12,3,4,8,10,14,7,15"
14675,commdev-image-keyboard-response,509,1116053,learnblock1,807.7000000029802,img/planet13_right.png,13,Community 1,NA,TRUE,j,j,NA,NA,NA,1,6,"5,6,9,13,11,2,1,12,3,4,8,10,14,7,15"
14675,commdev-image-keyboard-response,510,1117304,learnblock1,923.7999999970198,img/planet9_left.png,9,Community 1,NA,TRUE,f,f,NA,NA,NA,1,6,"5,6,9,13,11,2,1,12,3,4,8,10,14,7,15"
14675,commdev-image-keyboard-response,511,1118557,learnblock1,623.3999999910593,img/planet11_right.png,11,Community 1,NA,FALSE,f,j,NA,NA,NA,1,6,"5,6,9,13,11,2,1,12,3,4,8,10,14,7,15"
14675,commdev-image-keyboard-response,515,1152493,learnblock2,1206.7000000029802,img/planet15_left.png,15,Community 3,NA,TRUE,f,f,NA,NA,NA,1,6,"5,6,9,13,11,2,1,12,3,4,8,10,14,7,15"
14675,commdev-image-keyboard-response,516,1153745,learnblock2,891.7000000029802,img/planet7_right.png,7,Community 3,NA,TRUE,j,j,NA,NA,NA,1,6,"5,6,9,13,11,2,1,12,3,4,8,10,14,7,15"
14675,commdev-image-keyboard-response,517,1154997,learnblock2,751.8999999910593,img/planet10_right.png,10,Community 3,NA,FALSE,f,j,NA,NA,NA,1,6,"5,6,9,13,11,2,1,12,3,4,8,10,14,7,15"
14675,commdev-image-keyboard-response,518,1156248,learnblock2,699.9000000059605,img/planet15_left.png,15,Community 3,NA,TRUE,f,f,NA,NA,NA,1,6,"5,6,9,13,11,2,1,12,3,4,8,10,14,7,15"
14675,commdev-image-keyboard-response,519,1157500,learnblock2,1049,img/planet14_left.png,14,Community 3,NA,TRUE,f,f,NA,NA,NA,1,6,"5,6,9,13,11,2,1,12,3,4,8,10,14,7,15"
14675,commdev-image-keyboard-response,520,1158752,learnblock2,1004.6999999880791,img/planet7_left.png,7,Community 3,NA,TRUE,f,f,NA,NA,NA,1,6,"5,6,9,13,11,2,1,12,3,4,8,10,14,7,15"
14675,commdev-image-keyboard-response,521,1160004,learnblock2,704.8000000119209,img/planet14_right.png,14,Community 3,NA,TRUE,j,j,NA,NA,NA,1,6,"5,6,9,13,11,2,1,12,3,4,8,10,14,7,15"
14675,commdev-image-keyboard-response,522,1161255,learnblock2,533.0999999940395,img/planet15_left.png,15,Community 3,NA,TRUE,f,f,NA,NA,NA,1,6,"5,6,9,13,11,2,1,12,3,4,8,10,14,7,15"
14675,commdev-image-keyboard-response,523,1162507,learnblock2,458.1000000089407,img/planet10_right.png,10,Community 3,NA,FALSE,f,j,NA,NA,NA,1,6,"5,6,9,13,11,2,1,12,3,4,8,10,14,7,15"
14675,commdev-image-keyboard-response,524,1163759,learnblock2,1054,img/planet7_left.png,7,Community 3,NA,TRUE,f,f,NA,NA,NA,1,6,"5,6,9,13,11,2,1,12,3,4,8,10,14,7,15"
14675,commdev-image-keyboard-response,525,1165011,learnblock2,778.8999999910593,img/planet14_right.png,14,Community 3,NA,TRUE,j,j,NA,NA,NA,1,6,"5,6,9,13,11,2,1,12,3,4,8,10,14,7,15"
14675,commdev-image-keyboard-response,526,1166264,learnblock2,829.7000000029802,img/planet8_left.png,8,Community 3,NA,TRUE,f,f,NA,NA,NA,1,6,"5,6,9,13,11,2,1,12,3,4,8,10,14,7,15"
14675,commdev-image-keyboard-response,527,1167515,learnblock2,849.7999999970198,img/planet11_right.png,11,Community 1,NA,TRUE,j,j,NA,NA,NA,1,6,"5,6,9,13,11,2,1,12,3,4,8,10,14,7,15"
14675,commdev-image-keyboard-response,528,1168767,learnblock2,774.0999999940395,img/planet8_left.png,8,Community 3,NA,TRUE,f,f,NA,NA,NA,1,6,"5,6,9,13,11,2,1,12,3,4,8,10,14,7,15"
14675,commdev-image-keyboard-response,529,1170019,learnblock2,722.5999999940395,img/planet11_right.png,11,Community 1,NA,TRUE,j,j,NA,NA,NA,1,6,"5,6,9,13,11,2,1,12,3,4,8,10,14,7,15"
14675,commdev-image-keyboard-response,530,1171271,learnblock2,702.4000000059605,img/planet5_left.png,5,Community 1,NA,TRUE,f,f,NA,NA,NA,1,6,"5,6,9,13,11,2,1,12,3,4,8,10,14,7,15"
14675,commdev-image-keyboard-response,531,1172523,learnblock2,658.6999999880791,img/planet11_left.png,11,Community 1,NA,FALSE,j,f,NA,NA,NA,1,6,"5,6,9,13,11,2,1,12,3,4,8,10,14,7,15"
14675,commdev-image-keyboard-response,532,1173776,learnblock2,766.2999999970198,img/planet6_left.png,6,Community 1,NA,TRUE,f,f,NA,NA,NA,1,6,"5,6,9,13,11,2,1,12,3,4,8,10,14,7,15"
14675,commdev-image-keyboard-response,533,1175028,learnblock2,585.9000000059605,img/planet13_left.png,13,Community 1,NA,TRUE,f,f,NA,NA,NA,1,6,"5,6,9,13,11,2,1,12,3,4,8,10,14,7,15"
14675,commdev-image-keyboard-response,534,1176279,learnblock2,662.5,img/planet6_right.png,6,Community 1,NA,TRUE,j,j,NA,NA,NA,1,6,"5,6,9,13,11,2,1,12,3,4,8,10,14,7,15"
14675,commdev-image-keyboard-response,535,1177531,learnblock2,786.9000000059605,img/planet5_right.png,5,Community 1,NA,TRUE,j,j,NA,NA,NA,1,6,"5,6,9,13,11,2,1,12,3,4,8,10,14,7,15"
14675,commdev-image-keyboard-response,536,1178783,learnblock2,926.3999999910593,img/planet6_right.png,6,Community 1,NA,TRUE,j,j,NA,NA,NA,1,6,"5,6,9,13,11,2,1,12,3,4,8,10,14,7,15"
14675,commdev-image-keyboard-response,537,1180035,learnblock2,null,img/planet13_right.png,13,Community 1,NA,FALSE,null,j,NA,NA,NA,1,6,"5,6,9,13,11,2,1,12,3,4,8,10,14,7,15"
14675,commdev-image-keyboard-response,538,1181286,learnblock2,246.90000000596046,img/planet5_right.png,5,Community 1,NA,TRUE,j,j,NA,NA,NA,1,6,"5,6,9,13,11,2,1,12,3,4,8,10,14,7,15"
14675,commdev-image-keyboard-response,539,1182538,learnblock2,748,img/planet13_right.png,13,Community 1,NA,TRUE,j,j,NA,NA,NA,1,6,"5,6,9,13,11,2,1,12,3,4,8,10,14,7,15"
14675,commdev-image-keyboard-response,540,1183790,learnblock2,776.1000000089407,img/planet2_right.png,2,Community 2,NA,TRUE,j,j,NA,NA,NA,1,6,"5,6,9,13,11,2,1,12,3,4,8,10,14,7,15"
14675,commdev-image-keyboard-response,541,1185042,learnblock2,956.4000000059605,img/planet3_right.png,3,Community 2,NA,TRUE,j,j,NA,NA,NA,1,6,"5,6,9,13,11,2,1,12,3,4,8,10,14,7,15"
14675,commdev-image-keyboard-response,542,1186293,learnblock2,656.7000000029802,img/planet2_right.png,2,Community 2,NA,TRUE,j,j,NA,NA,NA,1,6,"5,6,9,13,11,2,1,12,3,4,8,10,14,7,15"
14675,commdev-image-keyboard-response,543,1187545,learnblock2,486.29999999701977,img/planet1_left.png,1,Community 2,NA,FALSE,j,f,NA,NA,NA,1,6,"5,6,9,13,11,2,1,12,3,4,8,10,14,7,15"
14675,commdev-image-keyboard-response,544,1188797,learnblock2,696.5,img/planet3_left.png,3,Community 2,NA,TRUE,f,f,NA,NA,NA,1,6,"5,6,9,13,11,2,1,12,3,4,8,10,14,7,15"
14675,commdev-image-keyboard-response,545,1190049,learnblock2,null,img/planet4_right.png,4,Community 2,NA,FALSE,null,j,NA,NA,NA,1,6,"5,6,9,13,11,2,1,12,3,4,8,10,14,7,15"
14675,commdev-image-keyboard-response,546,1191302,learnblock2,841.4000000059605,img/planet12_left.png,12,Community 2,NA,TRUE,f,f,NA,NA,NA,1,6,"5,6,9,13,11,2,1,12,3,4,8,10,14,7,15"
14675,commdev-image-keyboard-response,547,1192553,learnblock2,820,img/planet4_left.png,4,Community 2,NA,TRUE,f,f,NA,NA,NA,1,6,"5,6,9,13,11,2,1,12,3,4,8,10,14,7,15"
14675,commdev-image-keyboard-response,548,1193805,learnblock2,593.7000000029802,img/planet12_right.png,12,Community 2,NA,FALSE,f,j,NA,NA,NA,1,6,"5,6,9,13,11,2,1,12,3,4,8,10,14,7,15"
14675,commdev-image-keyboard-response,549,1195057,learnblock2,597.3999999910593,img/planet1_left.png,1,Community 2,NA,TRUE,f,f,NA,NA,NA,1,6,"5,6,9,13,11,2,1,12,3,4,8,10,14,7,15"
14675,commdev-image-keyboard-response,550,1196309,learnblock2,657,img/planet3_left.png,3,Community 2,NA,TRUE,f,f,NA,NA,NA,1,6,"5,6,9,13,11,2,1,12,3,4,8,10,14,7,15"
14675,commdev-image-keyboard-response,551,1197560,learnblock2,685.4000000059605,img/planet1_right.png,1,Community 2,NA,TRUE,j,j,NA,NA,NA,1,6,"5,6,9,13,11,2,1,12,3,4,8,10,14,7,15"
14675,commdev-image-keyboard-response,552,1198813,learnblock2,634,img/planet3_right.png,3,Community 2,NA,TRUE,j,j,NA,NA,NA,1,6,"5,6,9,13,11,2,1,12,3,4,8,10,14,7,15"
14675,commdev-image-keyboard-response,553,1200064,learnblock2,null,img/planet12_left.png,12,Community 2,NA,FALSE,null,f,NA,NA,NA,1,6,"5,6,9,13,11,2,1,12,3,4,8,10,14,7,15"
14675,commdev-image-keyboard-response,554,1201316,learnblock2,58.099999994039536,img/planet10_right.png,10,Community 3,NA,FALSE,f,j,NA,NA,NA,1,6,"5,6,9,13,11,2,1,12,3,4,8,10,14,7,15"
14675,commdev-image-keyboard-response,555,1202569,learnblock2,null,img/planet7_right.png,7,Community 3,NA,FALSE,null,j,NA,NA,NA,1,6,"5,6,9,13,11,2,1,12,3,4,8,10,14,7,15"
14675,commdev-image-keyboard-response,556,1203821,learnblock2,null,img/planet15_right.png,15,Community 3,NA,FALSE,null,j,NA,NA,NA,1,6,"5,6,9,13,11,2,1,12,3,4,8,10,14,7,15"
14675,commdev-image-keyboard-response,557,1205073,learnblock2,null,img/planet14_left.png,14,Community 3,NA,FALSE,null,f,NA,NA,NA,1,6,"5,6,9,13,11,2,1,12,3,4,8,10,14,7,15"
14675,commdev-image-keyboard-response,558,1206324,learnblock2,null,img/planet15_right.png,15,Community 3,NA,FALSE,null,j,NA,NA,NA,1,6,"5,6,9,13,11,2,1,12,3,4,8,10,14,7,15"
14675,commdev-image-keyboard-response,559,1207576,learnblock2,null,img/planet14_left.png,14,Community 3,NA,FALSE,null,f,NA,NA,NA,1,6,"5,6,9,13,11,2,1,12,3,4,8,10,14,7,15"
14675,commdev-image-keyboard-response,560,1208829,learnblock2,482.59999999403954,img/planet10_right.png,10,Community 3,NA,TRUE,j,j,NA,NA,NA,1,6,"5,6,9,13,11,2,1,12,3,4,8,10,14,7,15"
14675,commdev-image-keyboard-response,561,1210081,learnblock2,518.4000000059605,img/planet15_left.png,15,Community 3,NA,TRUE,f,f,NA,NA,NA,1,6,"5,6,9,13,11,2,1,12,3,4,8,10,14,7,15"
14675,commdev-image-keyboard-response,562,1211333,learnblock2,225.6000000089407,img/planet8_right.png,8,Community 3,NA,TRUE,j,j,NA,NA,NA,1,6,"5,6,9,13,11,2,1,12,3,4,8,10,14,7,15"
14675,commdev-image-keyboard-response,563,1212585,learnblock2,101.79999999701977,img/planet14_right.png,14,Community 3,NA,TRUE,j,j,NA,NA,NA,1,6,"5,6,9,13,11,2,1,12,3,4,8,10,14,7,15"
14675,commdev-image-keyboard-response,564,1213835,learnblock2,58,img/planet8_left.png,8,Community 3,NA,FALSE,j,f,NA,NA,NA,1,6,"5,6,9,13,11,2,1,12,3,4,8,10,14,7,15"
14675,commdev-image-keyboard-response,565,1215088,learnblock2,95.70000000298023,img/planet7_left.png,7,Community 3,NA,TRUE,f,f,NA,NA,NA,1,6,"5,6,9,13,11,2,1,12,3,4,8,10,14,7,15"
14675,commdev-image-keyboard-response,566,1216340,learnblock2,515,img/planet8_right.png,8,Community 3,NA,TRUE,j,j,NA,NA,NA,1,6,"5,6,9,13,11,2,1,12,3,4,8,10,14,7,15"
14675,commdev-image-keyboard-response,567,1217592,learnblock2,663.1999999880791,img/planet7_right.png,7,Community 3,NA,TRUE,j,j,NA,NA,NA,1,6,"5,6,9,13,11,2,1,12,3,4,8,10,14,7,15"
14675,commdev-image-keyboard-response,568,1218845,learnblock2,554.8000000119209,img/planet8_left.png,8,Community 3,NA,TRUE,f,f,NA,NA,NA,1,6,"5,6,9,13,11,2,1,12,3,4,8,10,14,7,15"
14675,commdev-image-keyboard-response,569,1220095,learnblock2,318.5,img/planet7_right.png,7,Community 3,NA,TRUE,j,j,NA,NA,NA,1,6,"5,6,9,13,11,2,1,12,3,4,8,10,14,7,15"
14675,commdev-image-keyboard-response,570,1221347,learnblock2,756,img/planet14_right.png,14,Community 3,NA,TRUE,j,j,NA,NA,NA,1,6,"5,6,9,13,11,2,1,12,3,4,8,10,14,7,15"
14675,commdev-image-keyboard-response,571,1222600,learnblock2,575.7999999970198,img/planet15_left.png,15,Community 3,NA,TRUE,f,f,NA,NA,NA,1,6,"5,6,9,13,11,2,1,12,3,4,8,10,14,7,15"
14675,commdev-image-keyboard-response,572,1223852,learnblock2,883.5999999940395,img/planet14_left.png,14,Community 3,NA,TRUE,f,f,NA,NA,NA,1,6,"5,6,9,13,11,2,1,12,3,4,8,10,14,7,15"
14675,commdev-image-keyboard-response,573,1225104,learnblock2,711.9000000059605,img/planet10_left.png,10,Community 3,NA,TRUE,f,f,NA,NA,NA,1,6,"5,6,9,13,11,2,1,12,3,4,8,10,14,7,15"
14675,commdev-image-keyboard-response,574,1226356,learnblock2,682.5,img/planet12_left.png,12,Community 2,NA,TRUE,f,f,NA,NA,NA,1,6,"5,6,9,13,11,2,1,12,3,4,8,10,14,7,15"
14675,commdev-image-keyboard-response,575,1227608,learnblock2,744,img/planet3_left.png,3,Community 2,NA,TRUE,f,f,NA,NA,NA,1,6,"5,6,9,13,11,2,1,12,3,4,8,10,14,7,15"
14675,commdev-image-keyboard-response,576,1228861,learnblock2,763.2000000029802,img/planet12_right.png,12,Community 2,NA,TRUE,j,j,NA,NA,NA,1,6,"5,6,9,13,11,2,1,12,3,4,8,10,14,7,15"
14675,commdev-image-keyboard-response,577,1230113,learnblock2,710.5,img/planet10_right.png,10,Community 3,NA,TRUE,j,j,NA,NA,NA,1,6,"5,6,9,13,11,2,1,12,3,4,8,10,14,7,15"
14675,commdev-image-keyboard-response,578,1231364,learnblock2,754.6000000089407,img/planet14_right.png,14,Community 3,NA,TRUE,j,j,NA,NA,NA,1,6,"5,6,9,13,11,2,1,12,3,4,8,10,14,7,15"
14675,commdev-image-keyboard-response,579,1232615,learnblock2,647.0999999940395,img/planet7_left.png,7,Community 3,NA,TRUE,f,f,NA,NA,NA,1,6,"5,6,9,13,11,2,1,12,3,4,8,10,14,7,15"
14675,commdev-image-keyboard-response,580,1233866,learnblock2,892.5999999940395,img/planet10_left.png,10,Community 3,NA,TRUE,f,f,NA,NA,NA,1,6,"5,6,9,13,11,2,1,12,3,4,8,10,14,7,15"
14675,commdev-image-keyboard-response,581,1235117,learnblock2,1249.2000000029802,img/planet7_left.png,7,Community 3,NA,TRUE,f,f,NA,NA,NA,1,6,"5,6,9,13,11,2,1,12,3,4,8,10,14,7,15"
14675,commdev-image-keyboard-response,582,1236370,learnblock2,null,img/planet14_left.png,14,Community 3,NA,FALSE,null,f,NA,NA,NA,1,6,"5,6,9,13,11,2,1,12,3,4,8,10,14,7,15"
14675,commdev-image-keyboard-response,583,1237622,learnblock2,1066.2000000029802,img/planet15_left.png,15,Community 3,NA,FALSE,j,f,NA,NA,NA,1,6,"5,6,9,13,11,2,1,12,3,4,8,10,14,7,15"
14675,commdev-image-keyboard-response,584,1238874,learnblock2,790,img/planet7_left.png,7,Community 3,NA,TRUE,f,f,NA,NA,NA,1,6,"5,6,9,13,11,2,1,12,3,4,8,10,14,7,15"
14675,commdev-image-keyboard-response,585,1240127,learnblock2,1217.9000000059605,img/planet8_right.png,8,Community 3,NA,TRUE,j,j,NA,NA,NA,1,6,"5,6,9,13,11,2,1,12,3,4,8,10,14,7,15"
14675,commdev-image-keyboard-response,586,1241378,learnblock2,685.1000000089407,img/planet14_right.png,14,Community 3,NA,FALSE,f,j,NA,NA,NA,1,6,"5,6,9,13,11,2,1,12,3,4,8,10,14,7,15"
14675,commdev-image-keyboard-response,587,1242630,learnblock2,625.5999999940395,img/planet15_right.png,15,Community 3,NA,TRUE,j,j,NA,NA,NA,1,6,"5,6,9,13,11,2,1,12,3,4,8,10,14,7,15"
14675,commdev-image-keyboard-response,588,1243881,learnblock2,518.1000000089407,img/planet10_right.png,10,Community 3,NA,FALSE,f,j,NA,NA,NA,1,6,"5,6,9,13,11,2,1,12,3,4,8,10,14,7,15"
14675,commdev-image-keyboard-response,589,1245133,learnblock2,618.5,img/planet15_left.png,15,Community 3,NA,TRUE,f,f,NA,NA,NA,1,6,"5,6,9,13,11,2,1,12,3,4,8,10,14,7,15"
14675,commdev-image-keyboard-response,590,1246386,learnblock2,711,img/planet14_right.png,14,Community 3,NA,TRUE,j,j,NA,NA,NA,1,6,"5,6,9,13,11,2,1,12,3,4,8,10,14,7,15"
14675,commdev-image-keyboard-response,591,1247638,learnblock2,618.4000000059605,img/planet8_right.png,8,Community 3,NA,TRUE,j,j,NA,NA,NA,1,6,"5,6,9,13,11,2,1,12,3,4,8,10,14,7,15"
14675,commdev-image-keyboard-response,592,1248889,learnblock2,590,img/planet11_left.png,11,Community 1,NA,TRUE,f,f,NA,NA,NA,1,6,"5,6,9,13,11,2,1,12,3,4,8,10,14,7,15"
14675,commdev-image-keyboard-response,593,1250140,learnblock2,843.5999999940395,img/planet5_left.png,5,Community 1,NA,TRUE,f,f,NA,NA,NA,1,6,"5,6,9,13,11,2,1,12,3,4,8,10,14,7,15"
14675,commdev-image-keyboard-response,594,1251392,learnblock2,927.7000000029802,img/planet13_right.png,13,Community 1,NA,TRUE,j,j,NA,NA,NA,1,6,"5,6,9,13,11,2,1,12,3,4,8,10,14,7,15"
14675,commdev-image-keyboard-response,595,1252644,learnblock2,748.0999999940395,img/planet6_right.png,6,Community 1,NA,TRUE,j,j,NA,NA,NA,1,6,"5,6,9,13,11,2,1,12,3,4,8,10,14,7,15"
14675,commdev-image-keyboard-response,596,1253896,learnblock2,544.3000000119209,img/planet5_right.png,5,Community 1,NA,TRUE,j,j,NA,NA,NA,1,6,"5,6,9,13,11,2,1,12,3,4,8,10,14,7,15"
14675,commdev-image-keyboard-response,597,1255148,learnblock2,619.8999999910593,img/planet13_left.png,13,Community 1,NA,TRUE,f,f,NA,NA,NA,1,6,"5,6,9,13,11,2,1,12,3,4,8,10,14,7,15"
14675,commdev-image-keyboard-response,598,1256401,learnblock2,544.7000000029802,img/planet6_right.png,6,Community 1,NA,TRUE,j,j,NA,NA,NA,1,6,"5,6,9,13,11,2,1,12,3,4,8,10,14,7,15"
14675,commdev-image-keyboard-response,599,1257653,learnblock2,667.6000000089407,img/planet11_right.png,11,Community 1,NA,TRUE,j,j,NA,NA,NA,1,6,"5,6,9,13,11,2,1,12,3,4,8,10,14,7,15"
14675,commdev-image-keyboard-response,600,1258904,learnblock2,535.9000000059605,img/planet9_left.png,9,Community 1,NA,TRUE,f,f,NA,NA,NA,1,6,"5,6,9,13,11,2,1,12,3,4,8,10,14,7,15"
14675,commdev-image-keyboard-response,601,1260156,learnblock2,708.2000000029802,img/planet6_right.png,6,Community 1,NA,TRUE,j,j,NA,NA,NA,1,6,"5,6,9,13,11,2,1,12,3,4,8,10,14,7,15"
14675,commdev-image-keyboard-response,602,1261408,learnblock2,544.2999999970198,img/planet11_right.png,11,Community 1,NA,FALSE,f,j,NA,NA,NA,1,6,"5,6,9,13,11,2,1,12,3,4,8,10,14,7,15"
14675,commdev-image-keyboard-response,603,1262659,learnblock2,676.2999999970198,img/planet6_right.png,6,Community 1,NA,TRUE,j,j,NA,NA,NA,1,6,"5,6,9,13,11,2,1,12,3,4,8,10,14,7,15"
14675,commdev-image-keyboard-response,604,1263911,learnblock2,560.8999999910593,img/planet13_right.png,13,Community 1,NA,FALSE,f,j,NA,NA,NA,1,6,"5,6,9,13,11,2,1,12,3,4,8,10,14,7,15"
14675,commdev-image-keyboard-response,605,1265163,learnblock2,277.20000000298023,img/planet5_right.png,5,Community 1,NA,TRUE,j,j,NA,NA,NA,1,6,"5,6,9,13,11,2,1,12,3,4,8,10,14,7,15"
14675,commdev-image-keyboard-response,606,1266415,learnblock2,633.6000000089407,img/planet6_left.png,6,Community 1,NA,TRUE,f,f,NA,NA,NA,1,6,"5,6,9,13,11,2,1,12,3,4,8,10,14,7,15"
14675,commdev-image-keyboard-response,607,1267668,learnblock2,629.2999999970198,img/planet13_right.png,13,Community 1,NA,TRUE,j,j,NA,NA,NA,1,6,"5,6,9,13,11,2,1,12,3,4,8,10,14,7,15"
14675,commdev-image-keyboard-response,608,1268920,learnblock2,608.7000000029802,img/planet6_left.png,6,Community 1,NA,TRUE,f,f,NA,NA,NA,1,6,"5,6,9,13,11,2,1,12,3,4,8,10,14,7,15"
14675,commdev-image-keyboard-response,609,1270172,learnblock2,580.5,img/planet11_right.png,11,Community 1,NA,TRUE,j,j,NA,NA,NA,1,6,"5,6,9,13,11,2,1,12,3,4,8,10,14,7,15"
14675,commdev-image-keyboard-response,610,1271424,learnblock2,625.0999999940395,img/planet6_left.png,6,Community 1,NA,TRUE,f,f,NA,NA,NA,1,6,"5,6,9,13,11,2,1,12,3,4,8,10,14,7,15"
14675,commdev-image-keyboard-response,611,1272676,learnblock2,940.8999999910593,img/planet5_left.png,5,Community 1,NA,TRUE,f,f,NA,NA,NA,1,6,"5,6,9,13,11,2,1,12,3,4,8,10,14,7,15"
14675,commdev-image-keyboard-response,612,1273928,learnblock2,1176.9000000059605,img/planet11_right.png,11,Community 1,NA,TRUE,j,j,NA,NA,NA,1,6,"5,6,9,13,11,2,1,12,3,4,8,10,14,7,15"
14675,commdev-image-keyboard-response,613,1275179,learnblock2,740.7999999970198,img/planet9_right.png,9,Community 1,NA,TRUE,j,j,NA,NA,NA,1,6,"5,6,9,13,11,2,1,12,3,4,8,10,14,7,15"
14675,commdev-image-keyboard-response,614,1276431,learnblock2,665.6000000089407,img/planet6_right.png,6,Community 1,NA,TRUE,j,j,NA,NA,NA,1,6,"5,6,9,13,11,2,1,12,3,4,8,10,14,7,15"
14675,commdev-image-keyboard-response,615,1277684,learnblock2,709.5,img/planet13_left.png,13,Community 1,NA,TRUE,f,f,NA,NA,NA,1,6,"5,6,9,13,11,2,1,12,3,4,8,10,14,7,15"
14675,commdev-image-keyboard-response,616,1278936,learnblock2,null,img/planet2_right.png,2,Community 2,NA,FALSE,null,j,NA,NA,NA,1,6,"5,6,9,13,11,2,1,12,3,4,8,10,14,7,15"
14675,commdev-image-keyboard-response,617,1280188,learnblock2,941.1000000089407,img/planet3_left.png,3,Community 2,NA,TRUE,f,f,NA,NA,NA,1,6,"5,6,9,13,11,2,1,12,3,4,8,10,14,7,15"
14675,commdev-image-keyboard-response,618,1281440,learnblock2,880.5999999940395,img/planet2_left.png,2,Community 2,NA,TRUE,f,f,NA,NA,NA,1,6,"5,6,9,13,11,2,1,12,3,4,8,10,14,7,15"
14675,commdev-image-keyboard-response,619,1282692,learnblock2,629.5,img/planet3_left.png,3,Community 2,NA,TRUE,f,f,NA,NA,NA,1,6,"5,6,9,13,11,2,1,12,3,4,8,10,14,7,15"
14675,commdev-image-keyboard-response,620,1283944,learnblock2,929.2000000029802,img/planet12_left.png,12,Community 2,NA,TRUE,f,f,NA,NA,NA,1,6,"5,6,9,13,11,2,1,12,3,4,8,10,14,7,15"
14675,commdev-image-keyboard-response,621,1285196,learnblock2,597.2000000029802,img/planet4_left.png,4,Community 2,NA,TRUE,f,f,NA,NA,NA,1,6,"5,6,9,13,11,2,1,12,3,4,8,10,14,7,15"
14675,commdev-image-keyboard-response,622,1286448,learnblock2,768.7999999970198,img/planet2_right.png,2,Community 2,NA,TRUE,j,j,NA,NA,NA,1,6,"5,6,9,13,11,2,1,12,3,4,8,10,14,7,15"
14675,commdev-image-keyboard-response,623,1287699,learnblock2,733.5999999940395,img/planet3_left.png,3,Community 2,NA,TRUE,f,f,NA,NA,NA,1,6,"5,6,9,13,11,2,1,12,3,4,8,10,14,7,15"
14675,commdev-image-keyboard-response,624,1288952,learnblock2,969.7999999970198,img/planet4_left.png,4,Community 2,NA,TRUE,f,f,NA,NA,NA,1,6,"5,6,9,13,11,2,1,12,3,4,8,10,14,7,15"
14675,commdev-image-keyboard-response,625,1290203,learnblock2,949.5,img/planet3_right.png,3,Community 2,NA,TRUE,j,j,NA,NA,NA,1,6,"5,6,9,13,11,2,1,12,3,4,8,10,14,7,15"
14675,commdev-image-keyboard-response,626,1291456,learnblock2,546,img/planet1_left.png,1,Community 2,NA,TRUE,f,f,NA,NA,NA,1,6,"5,6,9,13,11,2,1,12,3,4,8,10,14,7,15"
14675,commdev-image-keyboard-response,627,1292707,learnblock2,501.40000000596046,img/planet4_right.png,4,Community 2,NA,TRUE,j,j,NA,NA,NA,1,6,"5,6,9,13,11,2,1,12,3,4,8,10,14,7,15"
14675,commdev-image-keyboard-response,628,1293958,learnblock2,713.7000000029802,img/planet12_left.png,12,Community 2,NA,TRUE,f,f,NA,NA,NA,1,6,"5,6,9,13,11,2,1,12,3,4,8,10,14,7,15"
14675,commdev-image-keyboard-response,629,1295209,learnblock2,655.5,img/planet10_left.png,10,Community 3,NA,TRUE,f,f,NA,NA,NA,1,6,"5,6,9,13,11,2,1,12,3,4,8,10,14,7,15"
14675,commdev-image-keyboard-response,630,1296461,learnblock2,603.9000000059605,img/planet7_right.png,7,Community 3,NA,TRUE,j,j,NA,NA,NA,1,6,"5,6,9,13,11,2,1,12,3,4,8,10,14,7,15"
14675,commdev-image-keyboard-response,631,1297714,learnblock2,544,img/planet10_left.png,10,Community 3,NA,TRUE,f,f,NA,NA,NA,1,6,"5,6,9,13,11,2,1,12,3,4,8,10,14,7,15"
14675,commdev-image-keyboard-response,632,1298966,learnblock2,771.6000000089407,img/planet15_right.png,15,Community 3,NA,TRUE,j,j,NA,NA,NA,1,6,"5,6,9,13,11,2,1,12,3,4,8,10,14,7,15"
14675,commdev-image-keyboard-response,633,1300218,learnblock2,640,img/planet7_right.png,7,Community 3,NA,FALSE,f,j,NA,NA,NA,1,6,"5,6,9,13,11,2,1,12,3,4,8,10,14,7,15"
14675,commdev-image-keyboard-response,634,1301469,learnblock2,811.5999999940395,img/planet14_right.png,14,Community 3,NA,TRUE,j,j,NA,NA,NA,1,6,"5,6,9,13,11,2,1,12,3,4,8,10,14,7,15"
14675,commdev-image-keyboard-response,635,1302720,learnblock2,624.9000000059605,img/planet10_right.png,10,Community 3,NA,TRUE,j,j,NA,NA,NA,1,6,"5,6,9,13,11,2,1,12,3,4,8,10,14,7,15"
14675,commdev-image-keyboard-response,636,1303972,learnblock2,765.0999999940395,img/planet14_right.png,14,Community 3,NA,TRUE,j,j,NA,NA,NA,1,6,"5,6,9,13,11,2,1,12,3,4,8,10,14,7,15"
14675,commdev-image-keyboard-response,637,1305223,learnblock2,625.7999999970198,img/planet8_right.png,8,Community 3,NA,TRUE,j,j,NA,NA,NA,1,6,"5,6,9,13,11,2,1,12,3,4,8,10,14,7,15"
14675,commdev-image-keyboard-response,638,1306474,learnblock2,614.5,img/planet11_right.png,11,Community 1,NA,TRUE,j,j,NA,NA,NA,1,6,"5,6,9,13,11,2,1,12,3,4,8,10,14,7,15"
14675,commdev-image-keyboard-response,639,1307726,learnblock2,523.2999999970198,img/planet5_right.png,5,Community 1,NA,TRUE,j,j,NA,NA,NA,1,6,"5,6,9,13,11,2,1,12,3,4,8,10,14,7,15"
14675,commdev-image-keyboard-response,640,1308978,learnblock2,471.70000000298023,img/planet11_left.png,11,Community 1,NA,FALSE,j,f,NA,NA,NA,1,6,"5,6,9,13,11,2,1,12,3,4,8,10,14,7,15"
14675,commdev-image-keyboard-response,641,1310230,learnblock2,867.5999999940395,img/planet5_left.png,5,Community 1,NA,TRUE,f,f,NA,NA,NA,1,6,"5,6,9,13,11,2,1,12,3,4,8,10,14,7,15"
14675,commdev-image-keyboard-response,642,1311481,learnblock2,704.2000000029802,img/planet9_right.png,9,Community 1,NA,TRUE,j,j,NA,NA,NA,1,6,"5,6,9,13,11,2,1,12,3,4,8,10,14,7,15"
14675,commdev-image-keyboard-response,643,1312732,learnblock2,629.2999999970198,img/planet13_right.png,13,Community 1,NA,TRUE,j,j,NA,NA,NA,1,6,"5,6,9,13,11,2,1,12,3,4,8,10,14,7,15"
14675,commdev-image-keyboard-response,644,1313985,learnblock2,545.7999999970198,img/planet5_right.png,5,Community 1,NA,TRUE,j,j,NA,NA,NA,1,6,"5,6,9,13,11,2,1,12,3,4,8,10,14,7,15"
14675,commdev-image-keyboard-response,645,1315236,learnblock2,653.5999999940395,img/planet6_right.png,6,Community 1,NA,TRUE,j,j,NA,NA,NA,1,6,"5,6,9,13,11,2,1,12,3,4,8,10,14,7,15"
14675,commdev-image-keyboard-response,646,1316488,learnblock2,633.5,img/planet9_right.png,9,Community 1,NA,TRUE,j,j,NA,NA,NA,1,6,"5,6,9,13,11,2,1,12,3,4,8,10,14,7,15"
14675,commdev-image-keyboard-response,647,1317739,learnblock2,741.5,img/planet11_left.png,11,Community 1,NA,TRUE,f,f,NA,NA,NA,1,6,"5,6,9,13,11,2,1,12,3,4,8,10,14,7,15"
14675,commdev-image-keyboard-response,648,1318991,learnblock2,850.7000000029802,img/planet5_right.png,5,Community 1,NA,TRUE,j,j,NA,NA,NA,1,6,"5,6,9,13,11,2,1,12,3,4,8,10,14,7,15"
14675,commdev-image-keyboard-response,649,1320244,learnblock2,438.70000000298023,img/planet6_left.png,6,Community 1,NA,FALSE,j,f,NA,NA,NA,1,6,"5,6,9,13,11,2,1,12,3,4,8,10,14,7,15"
14675,commdev-image-keyboard-response,650,1321495,learnblock2,530.6000000089407,img/planet13_right.png,13,Community 1,NA,TRUE,j,j,NA,NA,NA,1,6,"5,6,9,13,11,2,1,12,3,4,8,10,14,7,15"
14675,commdev-image-keyboard-response,651,1322747,learnblock2,606.8999999910593,img/planet5_right.png,5,Community 1,NA,TRUE,j,j,NA,NA,NA,1,6,"5,6,9,13,11,2,1,12,3,4,8,10,14,7,15"
14675,commdev-image-keyboard-response,652,1323999,learnblock2,739.5999999940395,img/planet9_left.png,9,Community 1,NA,TRUE,f,f,NA,NA,NA,1,6,"5,6,9,13,11,2,1,12,3,4,8,10,14,7,15"
14675,commdev-image-keyboard-response,653,1325251,learnblock2,647.3000000119209,img/planet5_right.png,5,Community 1,NA,TRUE,j,j,NA,NA,NA,1,6,"5,6,9,13,11,2,1,12,3,4,8,10,14,7,15"
14675,commdev-image-keyboard-response,654,1326502,learnblock2,579.2999999970198,img/planet13_right.png,13,Community 1,NA,TRUE,j,j,NA,NA,NA,1,6,"5,6,9,13,11,2,1,12,3,4,8,10,14,7,15"
14675,commdev-image-keyboard-response,655,1327753,learnblock2,648.5,img/planet2_right.png,2,Community 2,NA,TRUE,j,j,NA,NA,NA,1,6,"5,6,9,13,11,2,1,12,3,4,8,10,14,7,15"
14675,commdev-image-keyboard-response,656,1329006,learnblock2,629.4000000059605,img/planet4_left.png,4,Community 2,NA,TRUE,f,f,NA,NA,NA,1,6,"5,6,9,13,11,2,1,12,3,4,8,10,14,7,15"
14675,commdev-image-keyboard-response,657,1330258,learnblock2,520.7999999970198,img/planet3_right.png,3,Community 2,NA,TRUE,j,j,NA,NA,NA,1,6,"5,6,9,13,11,2,1,12,3,4,8,10,14,7,15"
14675,commdev-image-keyboard-response,658,1331509,learnblock2,692.6000000089407,img/planet12_right.png,12,Community 2,NA,TRUE,j,j,NA,NA,NA,1,6,"5,6,9,13,11,2,1,12,3,4,8,10,14,7,15"
14675,commdev-image-keyboard-response,659,1332760,learnblock2,905.1000000089407,img/planet10_left.png,10,Community 3,NA,TRUE,f,f,NA,NA,NA,1,6,"5,6,9,13,11,2,1,12,3,4,8,10,14,7,15"
14675,commdev-image-keyboard-response,660,1334011,learnblock2,734.4000000059605,img/planet7_right.png,7,Community 3,NA,TRUE,j,j,NA,NA,NA,1,6,"5,6,9,13,11,2,1,12,3,4,8,10,14,7,15"
14675,commdev-image-keyboard-response,661,1335263,learnblock2,691.5999999940395,img/planet14_left.png,14,Community 3,NA,TRUE,f,f,NA,NA,NA,1,6,"5,6,9,13,11,2,1,12,3,4,8,10,14,7,15"
14675,commdev-image-keyboard-response,662,1336515,learnblock2,663.1999999880791,img/planet8_right.png,8,Community 3,NA,TRUE,j,j,NA,NA,NA,1,6,"5,6,9,13,11,2,1,12,3,4,8,10,14,7,15"
14675,commdev-image-keyboard-response,663,1337767,learnblock2,803.3999999910593,img/planet7_right.png,7,Community 3,NA,TRUE,j,j,NA,NA,NA,1,6,"5,6,9,13,11,2,1,12,3,4,8,10,14,7,15"
14675,commdev-image-keyboard-response,664,1339020,learnblock2,711.7000000029802,img/planet8_right.png,8,Community 3,NA,TRUE,j,j,NA,NA,NA,1,6,"5,6,9,13,11,2,1,12,3,4,8,10,14,7,15"
14675,commdev-image-keyboard-response,665,1340271,learnblock2,595.2000000029802,img/planet7_left.png,7,Community 3,NA,TRUE,f,f,NA,NA,NA,1,6,"5,6,9,13,11,2,1,12,3,4,8,10,14,7,15"
14675,commdev-image-keyboard-response,666,1341523,learnblock2,543.2000000029802,img/planet14_right.png,14,Community 3,NA,TRUE,j,j,NA,NA,NA,1,6,"5,6,9,13,11,2,1,12,3,4,8,10,14,7,15"
14675,commdev-image-keyboard-response,667,1342775,learnblock2,779.3000000119209,img/planet15_right.png,15,Community 3,NA,TRUE,j,j,NA,NA,NA,1,6,"5,6,9,13,11,2,1,12,3,4,8,10,14,7,15"
14675,commdev-image-keyboard-response,668,1344026,learnblock2,591.5,img/planet8_right.png,8,Community 3,NA,TRUE,j,j,NA,NA,NA,1,6,"5,6,9,13,11,2,1,12,3,4,8,10,14,7,15"
14675,commdev-image-keyboard-response,669,1345278,learnblock2,588.7999999970198,img/planet11_left.png,11,Community 1,NA,TRUE,f,f,NA,NA,NA,1,6,"5,6,9,13,11,2,1,12,3,4,8,10,14,7,15"
14675,commdev-image-keyboard-response,670,1346530,learnblock2,504.1000000089407,img/planet5_left.png,5,Community 1,NA,FALSE,j,f,NA,NA,NA,1,6,"5,6,9,13,11,2,1,12,3,4,8,10,14,7,15"
14675,commdev-image-keyboard-response,671,1347783,learnblock2,572.5999999940395,img/planet6_right.png,6,Community 1,NA,TRUE,j,j,NA,NA,NA,1,6,"5,6,9,13,11,2,1,12,3,4,8,10,14,7,15"
14675,commdev-image-keyboard-response,672,1349035,learnblock2,912.1000000089407,img/planet5_left.png,5,Community 1,NA,TRUE,f,f,NA,NA,NA,1,6,"5,6,9,13,11,2,1,12,3,4,8,10,14,7,15"
14675,commdev-image-keyboard-response,673,1350287,learnblock2,515.9000000059605,img/planet6_right.png,6,Community 1,NA,TRUE,j,j,NA,NA,NA,1,6,"5,6,9,13,11,2,1,12,3,4,8,10,14,7,15"
14675,commdev-image-keyboard-response,674,1351539,learnblock2,535.5999999940395,img/planet9_left.png,9,Community 1,NA,TRUE,f,f,NA,NA,NA,1,6,"5,6,9,13,11,2,1,12,3,4,8,10,14,7,15"
14675,commdev-image-keyboard-response,675,1352791,learnblock2,483.90000000596046,img/planet6_right.png,6,Community 1,NA,TRUE,j,j,NA,NA,NA,1,6,"5,6,9,13,11,2,1,12,3,4,8,10,14,7,15"
14675,commdev-image-keyboard-response,676,1354044,learnblock2,null,img/planet11_right.png,11,Community 1,NA,FALSE,null,j,NA,NA,NA,1,6,"5,6,9,13,11,2,1,12,3,4,8,10,14,7,15"
14675,commdev-image-keyboard-response,677,1355295,learnblock2,355.70000000298023,img/planet8_left.png,8,Community 3,NA,TRUE,f,f,NA,NA,NA,1,6,"5,6,9,13,11,2,1,12,3,4,8,10,14,7,15"
14675,commdev-image-keyboard-response,678,1356547,learnblock2,87.79999999701977,img/planet11_right.png,11,Community 1,NA,TRUE,j,j,NA,NA,NA,1,6,"5,6,9,13,11,2,1,12,3,4,8,10,14,7,15"
14675,commdev-image-keyboard-response,679,1357798,learnblock2,604.4000000059605,img/planet6_left.png,6,Community 1,NA,TRUE,f,f,NA,NA,NA,1,6,"5,6,9,13,11,2,1,12,3,4,8,10,14,7,15"
14675,commdev-image-keyboard-response,680,1359051,learnblock2,520.9000000059605,img/planet9_left.png,9,Community 1,NA,TRUE,f,f,NA,NA,NA,1,6,"5,6,9,13,11,2,1,12,3,4,8,10,14,7,15"
14675,commdev-image-keyboard-response,681,1360303,learnblock2,452.40000000596046,img/planet11_left.png,11,Community 1,NA,TRUE,f,f,NA,NA,NA,1,6,"5,6,9,13,11,2,1,12,3,4,8,10,14,7,15"
14675,commdev-image-keyboard-response,682,1361555,learnblock2,487.90000000596046,img/planet6_left.png,6,Community 1,NA,TRUE,f,f,NA,NA,NA,1,6,"5,6,9,13,11,2,1,12,3,4,8,10,14,7,15"
14675,commdev-image-keyboard-response,683,1362807,learnblock2,524.5,img/planet11_left.png,11,Community 1,NA,TRUE,f,f,NA,NA,NA,1,6,"5,6,9,13,11,2,1,12,3,4,8,10,14,7,15"
14675,commdev-image-keyboard-response,684,1364058,learnblock2,816.5999999940395,img/planet8_left.png,8,Community 3,NA,TRUE,f,f,NA,NA,NA,1,6,"5,6,9,13,11,2,1,12,3,4,8,10,14,7,15"
14675,commdev-image-keyboard-response,685,1365309,learnblock2,660.9000000059605,img/planet7_left.png,7,Community 3,NA,TRUE,f,f,NA,NA,NA,1,6,"5,6,9,13,11,2,1,12,3,4,8,10,14,7,15"
14675,commdev-image-keyboard-response,686,1366561,learnblock2,578.7000000029802,img/planet10_left.png,10,Community 3,NA,TRUE,f,f,NA,NA,NA,1,6,"5,6,9,13,11,2,1,12,3,4,8,10,14,7,15"
14675,commdev-image-keyboard-response,687,1367813,learnblock2,630.7000000029802,img/planet7_right.png,7,Community 3,NA,TRUE,j,j,NA,NA,NA,1,6,"5,6,9,13,11,2,1,12,3,4,8,10,14,7,15"
14675,commdev-image-keyboard-response,688,1369065,learnblock2,506.5,img/planet14_left.png,14,Community 3,NA,FALSE,j,f,NA,NA,NA,1,6,"5,6,9,13,11,2,1,12,3,4,8,10,14,7,15"
14675,commdev-image-keyboard-response,689,1370317,learnblock2,590.3999999910593,img/planet10_left.png,10,Community 3,NA,TRUE,f,f,NA,NA,NA,1,6,"5,6,9,13,11,2,1,12,3,4,8,10,14,7,15"
14675,commdev-image-keyboard-response,690,1371569,learnblock2,603,img/planet7_right.png,7,Community 3,NA,TRUE,j,j,NA,NA,NA,1,6,"5,6,9,13,11,2,1,12,3,4,8,10,14,7,15"
14675,commdev-image-keyboard-response,691,1372821,learnblock2,630.5999999940395,img/planet10_left.png,10,Community 3,NA,TRUE,f,f,NA,NA,NA,1,6,"5,6,9,13,11,2,1,12,3,4,8,10,14,7,15"
14675,commdev-image-keyboard-response,692,1374073,learnblock2,634.5999999940395,img/planet15_right.png,15,Community 3,NA,TRUE,j,j,NA,NA,NA,1,6,"5,6,9,13,11,2,1,12,3,4,8,10,14,7,15"
14675,commdev-image-keyboard-response,693,1375324,learnblock2,727.3999999910593,img/planet7_left.png,7,Community 3,NA,FALSE,j,f,NA,NA,NA,1,6,"5,6,9,13,11,2,1,12,3,4,8,10,14,7,15"
14675,commdev-image-keyboard-response,694,1376575,learnblock2,612.0999999940395,img/planet14_right.png,14,Community 3,NA,TRUE,j,j,NA,NA,NA,1,6,"5,6,9,13,11,2,1,12,3,4,8,10,14,7,15"
14675,commdev-image-keyboard-response,695,1377827,learnblock2,560.8999999910593,img/planet7_left.png,7,Community 3,NA,TRUE,f,f,NA,NA,NA,1,6,"5,6,9,13,11,2,1,12,3,4,8,10,14,7,15"
14675,commdev-image-keyboard-response,696,1379079,learnblock2,524.7000000029802,img/planet10_right.png,10,Community 3,NA,TRUE,j,j,NA,NA,NA,1,6,"5,6,9,13,11,2,1,12,3,4,8,10,14,7,15"
14675,commdev-image-keyboard-response,697,1380331,learnblock2,608.7000000029802,img/planet12_left.png,12,Community 2,NA,TRUE,f,f,NA,NA,NA,1,6,"5,6,9,13,11,2,1,12,3,4,8,10,14,7,15"
14675,commdev-image-keyboard-response,698,1381583,learnblock2,797.2000000029802,img/planet3_left.png,3,Community 2,NA,TRUE,f,f,NA,NA,NA,1,6,"5,6,9,13,11,2,1,12,3,4,8,10,14,7,15"
14675,commdev-image-keyboard-response,699,1382835,learnblock2,546.7000000029802,img/planet4_right.png,4,Community 2,NA,TRUE,j,j,NA,NA,NA,1,6,"5,6,9,13,11,2,1,12,3,4,8,10,14,7,15"
14675,commdev-image-keyboard-response,700,1384086,learnblock2,485,img/planet3_right.png,3,Community 2,NA,FALSE,f,j,NA,NA,NA,1,6,"5,6,9,13,11,2,1,12,3,4,8,10,14,7,15"
14675,commdev-image-keyboard-response,701,1385338,learnblock2,737.6000000089407,img/planet4_left.png,4,Community 2,NA,TRUE,f,f,NA,NA,NA,1,6,"5,6,9,13,11,2,1,12,3,4,8,10,14,7,15"
14675,commdev-image-keyboard-response,702,1386590,learnblock2,542.3999999910593,img/planet12_right.png,12,Community 2,NA,TRUE,j,j,NA,NA,NA,1,6,"5,6,9,13,11,2,1,12,3,4,8,10,14,7,15"
14675,commdev-image-keyboard-response,703,1387843,learnblock2,588.3999999910593,img/planet10_left.png,10,Community 3,NA,TRUE,f,f,NA,NA,NA,1,6,"5,6,9,13,11,2,1,12,3,4,8,10,14,7,15"
14675,commdev-image-keyboard-response,704,1389094,learnblock2,493.70000000298023,img/planet14_right.png,14,Community 3,NA,TRUE,j,j,NA,NA,NA,1,6,"5,6,9,13,11,2,1,12,3,4,8,10,14,7,15"
14675,commdev-image-keyboard-response,705,1390347,learnblock2,633.7000000029802,img/planet10_right.png,10,Community 3,NA,FALSE,f,j,NA,NA,NA,1,6,"5,6,9,13,11,2,1,12,3,4,8,10,14,7,15"
14675,commdev-image-keyboard-response,706,1391598,learnblock2,549.5999999940395,img/planet7_left.png,7,Community 3,NA,TRUE,f,f,NA,NA,NA,1,6,"5,6,9,13,11,2,1,12,3,4,8,10,14,7,15"
14675,commdev-image-keyboard-response,707,1392849,learnblock2,586.2999999970198,img/planet15_left.png,15,Community 3,NA,TRUE,f,f,NA,NA,NA,1,6,"5,6,9,13,11,2,1,12,3,4,8,10,14,7,15"
14675,commdev-image-keyboard-response,708,1394100,learnblock2,591.5999999940395,img/planet7_left.png,7,Community 3,NA,TRUE,f,f,NA,NA,NA,1,6,"5,6,9,13,11,2,1,12,3,4,8,10,14,7,15"
14675,commdev-image-keyboard-response,709,1395351,learnblock2,556.2999999970198,img/planet14_right.png,14,Community 3,NA,FALSE,f,j,NA,NA,NA,1,6,"5,6,9,13,11,2,1,12,3,4,8,10,14,7,15"
14675,commdev-image-keyboard-response,710,1396602,learnblock2,650.0999999940395,img/planet7_left.png,7,Community 3,NA,TRUE,f,f,NA,NA,NA,1,6,"5,6,9,13,11,2,1,12,3,4,8,10,14,7,15"
14675,commdev-image-keyboard-response,711,1397855,learnblock2,765.8999999910593,img/planet10_right.png,10,Community 3,NA,TRUE,j,j,NA,NA,NA,1,6,"5,6,9,13,11,2,1,12,3,4,8,10,14,7,15"
14675,commdev-image-keyboard-response,712,1399107,learnblock2,569.5,img/planet14_left.png,14,Community 3,NA,TRUE,f,f,NA,NA,NA,1,6,"5,6,9,13,11,2,1,12,3,4,8,10,14,7,15"
14675,commdev-image-keyboard-response,713,1400358,learnblock2,596.6999999880791,img/planet8_right.png,8,Community 3,NA,TRUE,j,j,NA,NA,NA,1,6,"5,6,9,13,11,2,1,12,3,4,8,10,14,7,15"
14675,commdev-image-keyboard-response,714,1401610,learnblock2,458,img/planet7_left.png,7,Community 3,NA,TRUE,f,f,NA,NA,NA,1,6,"5,6,9,13,11,2,1,12,3,4,8,10,14,7,15"
14675,commdev-image-keyboard-response,715,1402863,learnblock2,606.5999999940395,img/planet10_right.png,10,Community 3,NA,TRUE,j,j,NA,NA,NA,1,6,"5,6,9,13,11,2,1,12,3,4,8,10,14,7,15"
14675,commdev-image-keyboard-response,716,1404114,learnblock2,658,img/planet7_right.png,7,Community 3,NA,FALSE,f,j,NA,NA,NA,1,6,"5,6,9,13,11,2,1,12,3,4,8,10,14,7,15"
14675,commdev-image-keyboard-response,717,1405366,learnblock2,598.4000000059605,img/planet15_right.png,15,Community 3,NA,FALSE,f,j,NA,NA,NA,1,6,"5,6,9,13,11,2,1,12,3,4,8,10,14,7,15"
14675,commdev-image-keyboard-response,718,1406617,learnblock2,683.2999999970198,img/planet14_right.png,14,Community 3,NA,TRUE,j,j,NA,NA,NA,1,6,"5,6,9,13,11,2,1,12,3,4,8,10,14,7,15"
14675,commdev-image-keyboard-response,719,1407869,learnblock2,614.8000000119209,img/planet7_left.png,7,Community 3,NA,TRUE,f,f,NA,NA,NA,1,6,"5,6,9,13,11,2,1,12,3,4,8,10,14,7,15"
14675,commdev-image-keyboard-response,720,1409122,learnblock2,547.2999999970198,img/planet8_right.png,8,Community 3,NA,TRUE,j,j,NA,NA,NA,1,6,"5,6,9,13,11,2,1,12,3,4,8,10,14,7,15"
14675,commdev-image-keyboard-response,721,1410375,learnblock2,806.7000000029802,img/planet11_left.png,11,Community 1,NA,TRUE,f,f,NA,NA,NA,1,6,"5,6,9,13,11,2,1,12,3,4,8,10,14,7,15"
14675,commdev-image-keyboard-response,722,1411626,learnblock2,762.0999999940395,img/planet5_right.png,5,Community 1,NA,TRUE,j,j,NA,NA,NA,1,6,"5,6,9,13,11,2,1,12,3,4,8,10,14,7,15"
14675,commdev-image-keyboard-response,723,1412878,learnblock2,630.5999999940395,img/planet9_left.png,9,Community 1,NA,TRUE,f,f,NA,NA,NA,1,6,"5,6,9,13,11,2,1,12,3,4,8,10,14,7,15"
14675,commdev-image-keyboard-response,724,1414131,learnblock2,730.5,img/planet13_left.png,13,Community 1,NA,TRUE,f,f,NA,NA,NA,1,6,"5,6,9,13,11,2,1,12,3,4,8,10,14,7,15"
14675,commdev-image-keyboard-response,725,1415382,learnblock2,501.79999999701977,img/planet9_left.png,9,Community 1,NA,FALSE,j,f,NA,NA,NA,1,6,"5,6,9,13,11,2,1,12,3,4,8,10,14,7,15"
14675,commdev-image-keyboard-response,726,1416634,learnblock2,650.9000000059605,img/planet11_right.png,11,Community 1,NA,TRUE,j,j,NA,NA,NA,1,6,"5,6,9,13,11,2,1,12,3,4,8,10,14,7,15"
14675,commdev-image-keyboard-response,727,1417886,learnblock2,631,img/planet5_right.png,5,Community 1,NA,TRUE,j,j,NA,NA,NA,1,6,"5,6,9,13,11,2,1,12,3,4,8,10,14,7,15"
14675,commdev-image-keyboard-response,728,1419138,learnblock2,723.2000000029802,img/planet13_left.png,13,Community 1,NA,TRUE,f,f,NA,NA,NA,1,6,"5,6,9,13,11,2,1,12,3,4,8,10,14,7,15"
14675,commdev-image-keyboard-response,729,1420390,learnblock2,679.1999999880791,img/planet5_left.png,5,Community 1,NA,FALSE,j,f,NA,NA,NA,1,6,"5,6,9,13,11,2,1,12,3,4,8,10,14,7,15"
14675,commdev-image-keyboard-response,730,1421643,learnblock2,515,img/planet6_left.png,6,Community 1,NA,TRUE,f,f,NA,NA,NA,1,6,"5,6,9,13,11,2,1,12,3,4,8,10,14,7,15"
14675,commdev-image-keyboard-response,731,1422894,learnblock2,454.40000000596046,img/planet13_left.png,13,Community 1,NA,FALSE,j,f,NA,NA,NA,1,6,"5,6,9,13,11,2,1,12,3,4,8,10,14,7,15"
14675,commdev-image-keyboard-response,732,1424145,learnblock2,571.5999999940395,img/planet2_right.png,2,Community 2,NA,TRUE,j,j,NA,NA,NA,1,6,"5,6,9,13,11,2,1,12,3,4,8,10,14,7,15"
14675,commdev-image-keyboard-response,733,1425396,learnblock2,808.6000000089407,img/planet4_left.png,4,Community 2,NA,TRUE,f,f,NA,NA,NA,1,6,"5,6,9,13,11,2,1,12,3,4,8,10,14,7,15"
14675,commdev-image-keyboard-response,734,1426649,learnblock2,917.2000000029802,img/planet3_left.png,3,Community 2,NA,TRUE,f,f,NA,NA,NA,1,6,"5,6,9,13,11,2,1,12,3,4,8,10,14,7,15"
14675,commdev-image-keyboard-response,735,1427900,learnblock2,688.8000000119209,img/planet2_right.png,2,Community 2,NA,TRUE,j,j,NA,NA,NA,1,6,"5,6,9,13,11,2,1,12,3,4,8,10,14,7,15"
14675,commdev-image-keyboard-response,736,1429152,learnblock2,773.0999999940395,img/planet3_left.png,3,Community 2,NA,FALSE,j,f,NA,NA,NA,1,6,"5,6,9,13,11,2,1,12,3,4,8,10,14,7,15"
14675,commdev-image-keyboard-response,737,1430403,learnblock2,657.2999999970198,img/planet1_right.png,1,Community 2,NA,TRUE,j,j,NA,NA,NA,1,6,"5,6,9,13,11,2,1,12,3,4,8,10,14,7,15"
14675,commdev-image-keyboard-response,738,1431654,learnblock2,655,img/planet12_right.png,12,Community 2,NA,TRUE,j,j,NA,NA,NA,1,6,"5,6,9,13,11,2,1,12,3,4,8,10,14,7,15"
14675,commdev-image-keyboard-response,739,1432906,learnblock2,475.5,img/planet4_right.png,4,Community 2,NA,TRUE,j,j,NA,NA,NA,1,6,"5,6,9,13,11,2,1,12,3,4,8,10,14,7,15"
14675,commdev-image-keyboard-response,740,1434158,learnblock2,775.5,img/planet2_right.png,2,Community 2,NA,TRUE,j,j,NA,NA,NA,1,6,"5,6,9,13,11,2,1,12,3,4,8,10,14,7,15"
