subject_id,trial_type,trial_index,time_elapsed,block,rt,stimulus,planet,community,response,correct,key_press,learning_correct_response,parse,init_locations,final_locations,browser_interactions,num_comp,planet_map
14518,commdev-instructions,7,41308,NA,2424.5999999046326,"<p>In this game, you are a scientist on board a space shuttle. </p><p> On each mission, you will visit planets all across the universe.</p><img src=""img/controlroom.jpg"" width=300vw>",NA,NA,NA,NA,NA,NA,NA,NA,NA,1,6,"6,7,13,12,9,8,14,10,15,4,5,2,11,3,1"
14518,commdev-instructions,8,44819,NA,1436.5,"<p>Here are a few planets you might see:</p><img src=""img/practice1.png"" width=200vw><img src=""img/practice2.png"" width=200vw><img src=""img/practice3.png"" width=200vw>",NA,NA,NA,NA,NA,NA,NA,NA,NA,1,6,"6,7,13,12,9,8,14,10,15,4,5,2,11,3,1"
14518,commdev-instructions,9,54228,NA,2014.7999999523163,"<p>Your job as a scientist is to record which direction the winds are moving on each planet.</p><p>There are two types of wind directions:</p><img src=""img/practice1_left.png"" width=200vw><img src=""img/practice1_right.png"" width=200vw>",NA,NA,NA,NA,NA,NA,NA,NA,NA,1,6,"6,7,13,12,9,8,14,10,15,4,5,2,11,3,1"
14518,commdev-instructions,10,61555,NA,2433.2999999523163,"<p>If the winds are moving this way, press the letter <strong>F</strong> on the keyboard as fast as you can.</p><img src=""img/leftwind.png"" width=250vw>",NA,NA,NA,NA,NA,NA,NA,NA,NA,1,6,"6,7,13,12,9,8,14,10,15,4,5,2,11,3,1"
14518,commdev-instructions,11,69843,NA,3780.7000000476837,"<p>If the winds are moving this way, press the letter <strong>J</strong> on the keyboard as fast as you can.</p><img src=""img/rightwind.png"" width=350vw>",NA,NA,NA,NA,NA,NA,NA,NA,NA,1,6,"6,7,13,12,9,8,14,10,15,4,5,2,11,3,1"
14518,commdev-instructions,12,88579,NA,14316.700000047684,<p>You will have 1 second to respond. Try to respond before the time runs out!,NA,NA,NA,NA,NA,NA,NA,NA,NA,1,6,"6,7,13,12,9,8,14,10,15,4,5,2,11,3,1"
14518,commdev-instructions,13,96627,NA,2614.5,<p>The planets you will visit will look different from each other.</p><p>You should respond <strong>only</strong> based on wind direction.,NA,NA,NA,NA,NA,NA,NA,NA,NA,1,6,"6,7,13,12,9,8,14,10,15,4,5,2,11,3,1"
14518,commdev-instructions,14,104699,NA,2896.199999809265,"<p> Ready to start the practice round? </p><p> Remember, press <strong>F</strong> or <strong>J</strong> depending on the wind direction.<br><img src=""img/categorize_planet_example.png""",NA,NA,NA,NA,NA,NA,NA,NA,NA,1,6,"6,7,13,12,9,8,14,10,15,4,5,2,11,3,1"
14518,commdev-instructions,26,165267,NA,1976.9000000953674,"<p>Great, now try a short practice mission. </p><p> This time, you will have 1 second to respond and you won't know whether you pressed the right or wrong key for each planet.</p>",NA,NA,NA,NA,NA,NA,NA,NA,NA,1,6,"6,7,13,12,9,8,14,10,15,4,5,2,11,3,1"
14518,commdev-image-keyboard-response,27,166643,practice,660.7000000476837,img/practice3_left.png,NA,Number not found in mappings,NA,TRUE,f,f,NA,NA,NA,1,6,"6,7,13,12,9,8,14,10,15,4,5,2,11,3,1"
14518,commdev-image-keyboard-response,28,167894,practice,1039.9000000953674,img/practice2_right.png,NA,Number not found in mappings,NA,TRUE,j,j,NA,NA,NA,1,6,"6,7,13,12,9,8,14,10,15,4,5,2,11,3,1"
14518,commdev-image-keyboard-response,29,169149,practice,908.0999999046326,img/practice4_left.png,NA,Number not found in mappings,NA,TRUE,f,f,NA,NA,NA,1,6,"6,7,13,12,9,8,14,10,15,4,5,2,11,3,1"
14518,commdev-image-keyboard-response,30,170411,practice,502.60000014305115,img/practice3_right.png,NA,Number not found in mappings,NA,TRUE,j,j,NA,NA,NA,1,6,"6,7,13,12,9,8,14,10,15,4,5,2,11,3,1"
14518,commdev-image-keyboard-response,31,171676,practice,270.80000019073486,img/practice4_left.png,NA,Number not found in mappings,NA,FALSE,j,f,NA,NA,NA,1,6,"6,7,13,12,9,8,14,10,15,4,5,2,11,3,1"
14518,commdev-image-keyboard-response,32,172936,practice,910.7999999523163,img/practice2_left.png,NA,Number not found in mappings,NA,TRUE,f,f,NA,NA,NA,1,6,"6,7,13,12,9,8,14,10,15,4,5,2,11,3,1"
14518,commdev-image-keyboard-response,33,174198,practice,819.0999999046326,img/practice1_right.png,NA,Number not found in mappings,NA,TRUE,j,j,NA,NA,NA,1,6,"6,7,13,12,9,8,14,10,15,4,5,2,11,3,1"
14518,commdev-image-keyboard-response,34,175457,practice,588.9000000953674,img/practice2_right.png,NA,Number not found in mappings,NA,FALSE,f,j,NA,NA,NA,1,6,"6,7,13,12,9,8,14,10,15,4,5,2,11,3,1"
14518,commdev-instructions,35,186907,NA,1895.9000000953674,"<p>Great job with the practice round.</p><p>During real missions, you won't know whether you pressed the right or wrong key for each planet.</p><p>But between missions, we will tell you how you did overall.</p>",NA,NA,NA,NA,NA,NA,NA,NA,NA,1,6,"6,7,13,12,9,8,14,10,15,4,5,2,11,3,1"
14518,commdev-instructions,36,199939,NA,4788.100000143051,<p>Try your best! You will be paid a bonus based on how many correct responses you make!</p><p>Responses that are too slow will not count toward your bonus.</p>,NA,NA,NA,NA,NA,NA,NA,NA,NA,1,6,"6,7,13,12,9,8,14,10,15,4,5,2,11,3,1"
14518,commdev-instructions,37,207147,NA,996.7000000476837,"<p>You are almost ready to start the real game.</p><p> First, we are going to ask you some questions about how the game works.</p>",NA,NA,NA,NA,NA,NA,NA,NA,NA,1,6,"6,7,13,12,9,8,14,10,15,4,5,2,11,3,1"
14518,commdev-instructions,46,300204,NA,2522.2999999523163,"<p> Nice work! It is now time to start the real game.<p></p>You will go on two missions to record wind directions of different planets.<p></p>Each one will take about 5 minutes. You will get to take a break between missions.<p><p> Remember, press <strong>F</strong> or <strong>J</strong> depending on the wind direction. Good luck!<br><img src=""img/categorize_planet_example.png""",NA,NA,NA,NA,NA,NA,NA,NA,NA,1,6,"6,7,13,12,9,8,14,10,15,4,5,2,11,3,1"
14518,commdev-image-keyboard-response,48,306349,learnblock1,22.5,img/planet14_left.png,14,Community 2,NA,TRUE,f,f,NA,NA,NA,1,6,"6,7,13,12,9,8,14,10,15,4,5,2,11,3,1"
14518,commdev-image-keyboard-response,49,307610,learnblock1,940.9000000953674,img/planet15_right.png,15,Community 2,NA,TRUE,j,j,NA,NA,NA,1,6,"6,7,13,12,9,8,14,10,15,4,5,2,11,3,1"
14518,commdev-image-keyboard-response,50,308869,learnblock1,623.4000000953674,img/planet8_left.png,8,Community 2,NA,TRUE,f,f,NA,NA,NA,1,6,"6,7,13,12,9,8,14,10,15,4,5,2,11,3,1"
14518,commdev-image-keyboard-response,51,310128,learnblock1,429.2999999523163,img/planet12_left.png,12,Community 1,NA,FALSE,j,f,NA,NA,NA,1,6,"6,7,13,12,9,8,14,10,15,4,5,2,11,3,1"
14518,commdev-image-keyboard-response,52,311388,learnblock1,386.2999999523163,img/planet8_left.png,8,Community 2,NA,TRUE,f,f,NA,NA,NA,1,6,"6,7,13,12,9,8,14,10,15,4,5,2,11,3,1"
14518,commdev-image-keyboard-response,53,312651,learnblock1,270.40000009536743,img/planet15_right.png,15,Community 2,NA,FALSE,f,j,NA,NA,NA,1,6,"6,7,13,12,9,8,14,10,15,4,5,2,11,3,1"
14518,commdev-image-keyboard-response,54,313911,learnblock1,382.2999999523163,img/planet8_left.png,8,Community 2,NA,FALSE,j,f,NA,NA,NA,1,6,"6,7,13,12,9,8,14,10,15,4,5,2,11,3,1"
14518,commdev-image-keyboard-response,55,315172,learnblock1,418.7999999523163,img/planet12_right.png,12,Community 1,NA,FALSE,f,j,NA,NA,NA,1,6,"6,7,13,12,9,8,14,10,15,4,5,2,11,3,1"
14518,commdev-image-keyboard-response,56,316430,learnblock1,519,img/planet7_left.png,7,Community 1,NA,FALSE,j,f,NA,NA,NA,1,6,"6,7,13,12,9,8,14,10,15,4,5,2,11,3,1"
14518,commdev-image-keyboard-response,57,317688,learnblock1,883.5999999046326,img/planet12_right.png,12,Community 1,NA,TRUE,j,j,NA,NA,NA,1,6,"6,7,13,12,9,8,14,10,15,4,5,2,11,3,1"
14518,commdev-image-keyboard-response,58,318952,learnblock1,562.3999998569489,img/planet8_left.png,8,Community 2,NA,TRUE,f,f,NA,NA,NA,1,6,"6,7,13,12,9,8,14,10,15,4,5,2,11,3,1"
14518,commdev-image-keyboard-response,59,320213,learnblock1,1161.9000000953674,img/planet14_left.png,14,Community 2,NA,TRUE,f,f,NA,NA,NA,1,6,"6,7,13,12,9,8,14,10,15,4,5,2,11,3,1"
14518,commdev-image-keyboard-response,60,321476,learnblock1,1149.8999998569489,img/planet4_left.png,4,Community 2,NA,TRUE,f,f,NA,NA,NA,1,6,"6,7,13,12,9,8,14,10,15,4,5,2,11,3,1"
14518,commdev-image-keyboard-response,61,322740,learnblock1,982.7000000476837,img/planet14_left.png,14,Community 2,NA,TRUE,f,f,NA,NA,NA,1,6,"6,7,13,12,9,8,14,10,15,4,5,2,11,3,1"
14518,commdev-image-keyboard-response,62,324004,learnblock1,590,img/planet8_right.png,8,Community 2,NA,TRUE,j,j,NA,NA,NA,1,6,"6,7,13,12,9,8,14,10,15,4,5,2,11,3,1"
14518,commdev-image-keyboard-response,63,325267,learnblock1,821.4000000953674,img/planet4_right.png,4,Community 2,NA,TRUE,j,j,NA,NA,NA,1,6,"6,7,13,12,9,8,14,10,15,4,5,2,11,3,1"
14518,commdev-image-keyboard-response,64,326526,learnblock1,855.1000001430511,img/planet10_left.png,10,Community 2,NA,TRUE,f,f,NA,NA,NA,1,6,"6,7,13,12,9,8,14,10,15,4,5,2,11,3,1"
14518,commdev-image-keyboard-response,65,327778,learnblock1,555.5,img/planet2_right.png,2,Community 3,NA,TRUE,j,j,NA,NA,NA,1,6,"6,7,13,12,9,8,14,10,15,4,5,2,11,3,1"
14518,commdev-image-keyboard-response,66,329031,learnblock1,521.4000000953674,img/planet1_right.png,1,Community 3,NA,FALSE,f,j,NA,NA,NA,1,6,"6,7,13,12,9,8,14,10,15,4,5,2,11,3,1"
14518,commdev-image-keyboard-response,67,330283,learnblock1,299.39999985694885,img/planet5_right.png,5,Community 3,NA,TRUE,j,j,NA,NA,NA,1,6,"6,7,13,12,9,8,14,10,15,4,5,2,11,3,1"
14518,commdev-image-keyboard-response,68,331534,learnblock1,639.2000000476837,img/planet3_right.png,3,Community 3,NA,FALSE,f,j,NA,NA,NA,1,6,"6,7,13,12,9,8,14,10,15,4,5,2,11,3,1"
14518,commdev-image-keyboard-response,69,332785,learnblock1,707.7000000476837,img/planet1_left.png,1,Community 3,NA,FALSE,j,f,NA,NA,NA,1,6,"6,7,13,12,9,8,14,10,15,4,5,2,11,3,1"
14518,commdev-image-keyboard-response,70,334036,learnblock1,649.9000000953674,img/planet2_left.png,2,Community 3,NA,TRUE,f,f,NA,NA,NA,1,6,"6,7,13,12,9,8,14,10,15,4,5,2,11,3,1"
14518,commdev-image-keyboard-response,71,335287,learnblock1,269.60000014305115,img/planet1_left.png,1,Community 3,NA,TRUE,f,f,NA,NA,NA,1,6,"6,7,13,12,9,8,14,10,15,4,5,2,11,3,1"
14518,commdev-image-keyboard-response,72,336539,learnblock1,26.40000009536743,img/planet11_left.png,11,Community 3,NA,TRUE,f,f,NA,NA,NA,1,6,"6,7,13,12,9,8,14,10,15,4,5,2,11,3,1"
14518,commdev-image-keyboard-response,73,337790,learnblock1,71.10000014305115,img/planet2_left.png,2,Community 3,NA,TRUE,f,f,NA,NA,NA,1,6,"6,7,13,12,9,8,14,10,15,4,5,2,11,3,1"
14518,commdev-image-keyboard-response,74,339042,learnblock1,363.80000019073486,img/planet1_right.png,1,Community 3,NA,FALSE,f,j,NA,NA,NA,1,6,"6,7,13,12,9,8,14,10,15,4,5,2,11,3,1"
14518,commdev-image-keyboard-response,75,340293,learnblock1,448,img/planet2_right.png,2,Community 3,NA,TRUE,j,j,NA,NA,NA,1,6,"6,7,13,12,9,8,14,10,15,4,5,2,11,3,1"
14518,commdev-image-keyboard-response,76,341545,learnblock1,148.69999980926514,img/planet11_right.png,11,Community 3,NA,TRUE,j,j,NA,NA,NA,1,6,"6,7,13,12,9,8,14,10,15,4,5,2,11,3,1"
14518,commdev-image-keyboard-response,77,342797,learnblock1,56.700000047683716,img/planet2_right.png,2,Community 3,NA,TRUE,j,j,NA,NA,NA,1,6,"6,7,13,12,9,8,14,10,15,4,5,2,11,3,1"
14518,commdev-image-keyboard-response,78,344047,learnblock1,509.5,img/planet1_right.png,1,Community 3,NA,FALSE,f,j,NA,NA,NA,1,6,"6,7,13,12,9,8,14,10,15,4,5,2,11,3,1"
14518,commdev-image-keyboard-response,79,345299,learnblock1,380.2000000476837,img/planet11_right.png,11,Community 3,NA,TRUE,j,j,NA,NA,NA,1,6,"6,7,13,12,9,8,14,10,15,4,5,2,11,3,1"
14518,commdev-image-keyboard-response,80,346551,learnblock1,966.4000000953674,img/planet3_left.png,3,Community 3,NA,TRUE,f,f,NA,NA,NA,1,6,"6,7,13,12,9,8,14,10,15,4,5,2,11,3,1"
14518,commdev-image-keyboard-response,81,347802,learnblock1,987,img/planet1_right.png,1,Community 3,NA,TRUE,j,j,NA,NA,NA,1,6,"6,7,13,12,9,8,14,10,15,4,5,2,11,3,1"
14518,commdev-image-keyboard-response,82,349054,learnblock1,1055.7999999523163,img/planet5_left.png,5,Community 3,NA,TRUE,f,f,NA,NA,NA,1,6,"6,7,13,12,9,8,14,10,15,4,5,2,11,3,1"
14518,commdev-image-keyboard-response,83,350305,learnblock1,524,img/planet9_right.png,9,Community 1,NA,TRUE,j,j,NA,NA,NA,1,6,"6,7,13,12,9,8,14,10,15,4,5,2,11,3,1"
14518,commdev-image-keyboard-response,84,351557,learnblock1,256.59999990463257,img/planet13_right.png,13,Community 1,NA,TRUE,j,j,NA,NA,NA,1,6,"6,7,13,12,9,8,14,10,15,4,5,2,11,3,1"
14518,commdev-image-keyboard-response,85,352809,learnblock1,540.9000000953674,img/planet12_left.png,12,Community 1,NA,FALSE,j,f,NA,NA,NA,1,6,"6,7,13,12,9,8,14,10,15,4,5,2,11,3,1"
14518,commdev-image-keyboard-response,86,354071,learnblock1,280.7000000476837,img/planet8_left.png,8,Community 2,NA,TRUE,f,f,NA,NA,NA,1,6,"6,7,13,12,9,8,14,10,15,4,5,2,11,3,1"
14518,commdev-image-keyboard-response,87,355322,learnblock1,459,img/planet4_left.png,4,Community 2,NA,TRUE,f,f,NA,NA,NA,1,6,"6,7,13,12,9,8,14,10,15,4,5,2,11,3,1"
14518,commdev-image-keyboard-response,88,356573,learnblock1,992.2000000476837,img/planet14_right.png,14,Community 2,NA,TRUE,j,j,NA,NA,NA,1,6,"6,7,13,12,9,8,14,10,15,4,5,2,11,3,1"
14518,commdev-image-keyboard-response,89,357824,learnblock1,389.2000000476837,img/planet15_left.png,15,Community 2,NA,TRUE,f,f,NA,NA,NA,1,6,"6,7,13,12,9,8,14,10,15,4,5,2,11,3,1"
14518,commdev-image-keyboard-response,90,359076,learnblock1,321.59999990463257,img/planet14_left.png,14,Community 2,NA,FALSE,j,f,NA,NA,NA,1,6,"6,7,13,12,9,8,14,10,15,4,5,2,11,3,1"
14518,commdev-image-keyboard-response,91,360327,learnblock1,341.89999985694885,img/planet4_left.png,4,Community 2,NA,TRUE,f,f,NA,NA,NA,1,6,"6,7,13,12,9,8,14,10,15,4,5,2,11,3,1"
14518,commdev-image-keyboard-response,92,361579,learnblock1,282.40000009536743,img/planet14_left.png,14,Community 2,NA,FALSE,j,f,NA,NA,NA,1,6,"6,7,13,12,9,8,14,10,15,4,5,2,11,3,1"
14518,commdev-image-keyboard-response,93,362830,learnblock1,159.5,img/planet4_left.png,4,Community 2,NA,TRUE,f,f,NA,NA,NA,1,6,"6,7,13,12,9,8,14,10,15,4,5,2,11,3,1"
14518,commdev-image-keyboard-response,94,364082,learnblock1,107.79999995231628,img/planet8_left.png,8,Community 2,NA,TRUE,f,f,NA,NA,NA,1,6,"6,7,13,12,9,8,14,10,15,4,5,2,11,3,1"
14518,commdev-image-keyboard-response,95,365333,learnblock1,248.20000004768372,img/planet15_left.png,15,Community 2,NA,TRUE,f,f,NA,NA,NA,1,6,"6,7,13,12,9,8,14,10,15,4,5,2,11,3,1"
14518,commdev-image-keyboard-response,96,366584,learnblock1,364.7999999523163,img/planet8_right.png,8,Community 2,NA,TRUE,j,j,NA,NA,NA,1,6,"6,7,13,12,9,8,14,10,15,4,5,2,11,3,1"
14518,commdev-image-keyboard-response,97,367835,learnblock1,113.5,img/planet12_left.png,12,Community 1,NA,FALSE,j,f,NA,NA,NA,1,6,"6,7,13,12,9,8,14,10,15,4,5,2,11,3,1"
14518,commdev-image-keyboard-response,98,369086,learnblock1,238.29999995231628,img/planet6_right.png,6,Community 1,NA,TRUE,j,j,NA,NA,NA,1,6,"6,7,13,12,9,8,14,10,15,4,5,2,11,3,1"
14518,commdev-image-keyboard-response,99,370338,learnblock1,259.59999990463257,img/planet7_left.png,7,Community 1,NA,TRUE,f,f,NA,NA,NA,1,6,"6,7,13,12,9,8,14,10,15,4,5,2,11,3,1"
14518,commdev-image-keyboard-response,100,371590,learnblock1,800.1000001430511,img/planet13_left.png,13,Community 1,NA,TRUE,f,f,NA,NA,NA,1,6,"6,7,13,12,9,8,14,10,15,4,5,2,11,3,1"
14518,commdev-image-keyboard-response,101,372842,learnblock1,532,img/planet7_right.png,7,Community 1,NA,TRUE,j,j,NA,NA,NA,1,6,"6,7,13,12,9,8,14,10,15,4,5,2,11,3,1"
14518,commdev-image-keyboard-response,102,374094,learnblock1,327.60000014305115,img/planet6_left.png,6,Community 1,NA,FALSE,j,f,NA,NA,NA,1,6,"6,7,13,12,9,8,14,10,15,4,5,2,11,3,1"
14518,commdev-image-keyboard-response,103,375345,learnblock1,571.9000000953674,img/planet12_left.png,12,Community 1,NA,TRUE,f,f,NA,NA,NA,1,6,"6,7,13,12,9,8,14,10,15,4,5,2,11,3,1"
14518,commdev-image-keyboard-response,104,376597,learnblock1,352.5,img/planet13_right.png,13,Community 1,NA,TRUE,j,j,NA,NA,NA,1,6,"6,7,13,12,9,8,14,10,15,4,5,2,11,3,1"
14518,commdev-image-keyboard-response,105,377849,learnblock1,12.5,img/planet9_left.png,9,Community 1,NA,FALSE,j,f,NA,NA,NA,1,6,"6,7,13,12,9,8,14,10,15,4,5,2,11,3,1"
14518,commdev-image-keyboard-response,106,379112,learnblock1,281.09999990463257,img/planet13_right.png,13,Community 1,NA,TRUE,j,j,NA,NA,NA,1,6,"6,7,13,12,9,8,14,10,15,4,5,2,11,3,1"
14518,commdev-image-keyboard-response,107,380365,learnblock1,34.19999980926514,img/planet6_right.png,6,Community 1,NA,FALSE,f,j,NA,NA,NA,1,6,"6,7,13,12,9,8,14,10,15,4,5,2,11,3,1"
14518,commdev-image-keyboard-response,108,381616,learnblock1,77.20000004768372,img/planet7_right.png,7,Community 1,NA,FALSE,f,j,NA,NA,NA,1,6,"6,7,13,12,9,8,14,10,15,4,5,2,11,3,1"
14518,commdev-image-keyboard-response,109,382868,learnblock1,313.7999999523163,img/planet12_right.png,12,Community 1,NA,FALSE,f,j,NA,NA,NA,1,6,"6,7,13,12,9,8,14,10,15,4,5,2,11,3,1"
14518,commdev-image-keyboard-response,110,384119,learnblock1,261.59999990463257,img/planet6_right.png,6,Community 1,NA,TRUE,j,j,NA,NA,NA,1,6,"6,7,13,12,9,8,14,10,15,4,5,2,11,3,1"
14518,commdev-image-keyboard-response,111,385380,learnblock1,282.90000009536743,img/planet12_right.png,12,Community 1,NA,TRUE,j,j,NA,NA,NA,1,6,"6,7,13,12,9,8,14,10,15,4,5,2,11,3,1"
14518,commdev-image-keyboard-response,112,386632,learnblock1,93,img/planet13_right.png,13,Community 1,NA,TRUE,j,j,NA,NA,NA,1,6,"6,7,13,12,9,8,14,10,15,4,5,2,11,3,1"
14518,commdev-image-keyboard-response,113,387883,learnblock1,146.09999990463257,img/planet9_left.png,9,Community 1,NA,FALSE,j,f,NA,NA,NA,1,6,"6,7,13,12,9,8,14,10,15,4,5,2,11,3,1"
14518,commdev-image-keyboard-response,114,389135,learnblock1,95.30000019073486,img/planet7_right.png,7,Community 1,NA,FALSE,f,j,NA,NA,NA,1,6,"6,7,13,12,9,8,14,10,15,4,5,2,11,3,1"
14518,commdev-image-keyboard-response,115,390386,learnblock1,226.79999995231628,img/planet13_right.png,13,Community 1,NA,TRUE,j,j,NA,NA,NA,1,6,"6,7,13,12,9,8,14,10,15,4,5,2,11,3,1"
14518,commdev-image-keyboard-response,116,391637,learnblock1,487.89999985694885,img/planet6_right.png,6,Community 1,NA,TRUE,j,j,NA,NA,NA,1,6,"6,7,13,12,9,8,14,10,15,4,5,2,11,3,1"
14518,commdev-image-keyboard-response,117,392888,learnblock1,564.6000001430511,img/planet9_right.png,9,Community 1,NA,TRUE,j,j,NA,NA,NA,1,6,"6,7,13,12,9,8,14,10,15,4,5,2,11,3,1"
14518,commdev-image-keyboard-response,118,394139,learnblock1,1009.9000000953674,img/planet6_left.png,6,Community 1,NA,TRUE,f,f,NA,NA,NA,1,6,"6,7,13,12,9,8,14,10,15,4,5,2,11,3,1"
14518,commdev-image-keyboard-response,119,395390,learnblock1,662.7999999523163,img/planet12_left.png,12,Community 1,NA,FALSE,j,f,NA,NA,NA,1,6,"6,7,13,12,9,8,14,10,15,4,5,2,11,3,1"
14518,commdev-image-keyboard-response,120,396641,learnblock1,null,img/planet6_left.png,6,Community 1,NA,FALSE,null,f,NA,NA,NA,1,6,"6,7,13,12,9,8,14,10,15,4,5,2,11,3,1"
14518,commdev-image-keyboard-response,121,397892,learnblock1,64.59999990463257,img/planet9_left.png,9,Community 1,NA,TRUE,f,f,NA,NA,NA,1,6,"6,7,13,12,9,8,14,10,15,4,5,2,11,3,1"
14518,commdev-image-keyboard-response,122,399143,learnblock1,437.2999999523163,img/planet13_right.png,13,Community 1,NA,TRUE,j,j,NA,NA,NA,1,6,"6,7,13,12,9,8,14,10,15,4,5,2,11,3,1"
14518,commdev-image-keyboard-response,123,400395,learnblock1,498.19999980926514,img/planet7_right.png,7,Community 1,NA,TRUE,j,j,NA,NA,NA,1,6,"6,7,13,12,9,8,14,10,15,4,5,2,11,3,1"
14518,commdev-image-keyboard-response,124,401647,learnblock1,863.2000000476837,img/planet13_left.png,13,Community 1,NA,TRUE,f,f,NA,NA,NA,1,6,"6,7,13,12,9,8,14,10,15,4,5,2,11,3,1"
14518,commdev-image-keyboard-response,125,402898,learnblock1,906.7000000476837,img/planet12_left.png,12,Community 1,NA,FALSE,j,f,NA,NA,NA,1,6,"6,7,13,12,9,8,14,10,15,4,5,2,11,3,1"
14518,commdev-image-keyboard-response,126,404150,learnblock1,759.2999999523163,img/planet13_right.png,13,Community 1,NA,FALSE,f,j,NA,NA,NA,1,6,"6,7,13,12,9,8,14,10,15,4,5,2,11,3,1"
14518,commdev-image-keyboard-response,127,405402,learnblock1,null,img/planet7_left.png,7,Community 1,NA,FALSE,null,f,NA,NA,NA,1,6,"6,7,13,12,9,8,14,10,15,4,5,2,11,3,1"
14518,commdev-image-keyboard-response,128,406655,learnblock1,1023.0999999046326,img/planet12_left.png,12,Community 1,NA,FALSE,j,f,NA,NA,NA,1,6,"6,7,13,12,9,8,14,10,15,4,5,2,11,3,1"
14518,commdev-image-keyboard-response,129,407906,learnblock1,1171.0999999046326,img/planet6_right.png,6,Community 1,NA,TRUE,j,j,NA,NA,NA,1,6,"6,7,13,12,9,8,14,10,15,4,5,2,11,3,1"
14518,commdev-image-keyboard-response,130,409157,learnblock1,1055.8999998569489,img/planet7_right.png,7,Community 1,NA,FALSE,f,j,NA,NA,NA,1,6,"6,7,13,12,9,8,14,10,15,4,5,2,11,3,1"
14518,commdev-image-keyboard-response,131,410409,learnblock1,484.59999990463257,img/planet6_right.png,6,Community 1,NA,TRUE,j,j,NA,NA,NA,1,6,"6,7,13,12,9,8,14,10,15,4,5,2,11,3,1"
14518,commdev-image-keyboard-response,132,411660,learnblock1,616.7000000476837,img/planet12_right.png,12,Community 1,NA,TRUE,j,j,NA,NA,NA,1,6,"6,7,13,12,9,8,14,10,15,4,5,2,11,3,1"
14518,commdev-image-keyboard-response,133,412911,learnblock1,693.3999998569489,img/planet6_left.png,6,Community 1,NA,TRUE,f,f,NA,NA,NA,1,6,"6,7,13,12,9,8,14,10,15,4,5,2,11,3,1"
14518,commdev-image-keyboard-response,134,414163,learnblock1,570.5,img/planet7_left.png,7,Community 1,NA,FALSE,j,f,NA,NA,NA,1,6,"6,7,13,12,9,8,14,10,15,4,5,2,11,3,1"
14518,commdev-image-keyboard-response,135,415413,learnblock1,871.1000001430511,img/planet9_left.png,9,Community 1,NA,TRUE,f,f,NA,NA,NA,1,6,"6,7,13,12,9,8,14,10,15,4,5,2,11,3,1"
14518,commdev-image-keyboard-response,136,416664,learnblock1,572.0999999046326,img/planet7_left.png,7,Community 1,NA,FALSE,j,f,NA,NA,NA,1,6,"6,7,13,12,9,8,14,10,15,4,5,2,11,3,1"
14518,commdev-image-keyboard-response,137,417916,learnblock1,505.09999990463257,img/planet6_right.png,6,Community 1,NA,FALSE,f,j,NA,NA,NA,1,6,"6,7,13,12,9,8,14,10,15,4,5,2,11,3,1"
14518,commdev-image-keyboard-response,138,419167,learnblock1,null,img/planet9_right.png,9,Community 1,NA,FALSE,null,j,NA,NA,NA,1,6,"6,7,13,12,9,8,14,10,15,4,5,2,11,3,1"
14518,commdev-image-keyboard-response,139,420419,learnblock1,18.700000047683716,img/planet5_right.png,5,Community 3,NA,FALSE,f,j,NA,NA,NA,1,6,"6,7,13,12,9,8,14,10,15,4,5,2,11,3,1"
14518,commdev-image-keyboard-response,140,421671,learnblock1,510.2999999523163,img/planet9_left.png,9,Community 1,NA,TRUE,f,f,NA,NA,NA,1,6,"6,7,13,12,9,8,14,10,15,4,5,2,11,3,1"
14518,commdev-image-keyboard-response,141,422936,learnblock1,338.7000000476837,img/planet5_left.png,5,Community 3,NA,FALSE,j,f,NA,NA,NA,1,6,"6,7,13,12,9,8,14,10,15,4,5,2,11,3,1"
14518,commdev-image-keyboard-response,142,424188,learnblock1,361.60000014305115,img/planet9_left.png,9,Community 1,NA,FALSE,j,f,NA,NA,NA,1,6,"6,7,13,12,9,8,14,10,15,4,5,2,11,3,1"
14518,commdev-image-keyboard-response,143,425440,learnblock1,1181.3999998569489,img/planet6_left.png,6,Community 1,NA,TRUE,f,f,NA,NA,NA,1,6,"6,7,13,12,9,8,14,10,15,4,5,2,11,3,1"
14518,commdev-image-keyboard-response,144,426697,learnblock1,818,img/planet12_left.png,12,Community 1,NA,TRUE,f,f,NA,NA,NA,1,6,"6,7,13,12,9,8,14,10,15,4,5,2,11,3,1"
14518,commdev-image-keyboard-response,145,427948,learnblock1,632.2999999523163,img/planet13_left.png,13,Community 1,NA,TRUE,f,f,NA,NA,NA,1,6,"6,7,13,12,9,8,14,10,15,4,5,2,11,3,1"
14518,commdev-image-keyboard-response,146,429200,learnblock1,765.0999999046326,img/planet9_right.png,9,Community 1,NA,TRUE,j,j,NA,NA,NA,1,6,"6,7,13,12,9,8,14,10,15,4,5,2,11,3,1"
14518,commdev-image-keyboard-response,147,430452,learnblock1,817.7000000476837,img/planet5_left.png,5,Community 3,NA,FALSE,j,f,NA,NA,NA,1,6,"6,7,13,12,9,8,14,10,15,4,5,2,11,3,1"
14518,commdev-image-keyboard-response,148,431703,learnblock1,574.2000000476837,img/planet11_left.png,11,Community 3,NA,TRUE,f,f,NA,NA,NA,1,6,"6,7,13,12,9,8,14,10,15,4,5,2,11,3,1"
14518,commdev-image-keyboard-response,149,432956,learnblock1,578.6000001430511,img/planet5_right.png,5,Community 3,NA,TRUE,j,j,NA,NA,NA,1,6,"6,7,13,12,9,8,14,10,15,4,5,2,11,3,1"
14518,commdev-image-keyboard-response,150,434207,learnblock1,582.7000000476837,img/planet9_left.png,9,Community 1,NA,TRUE,f,f,NA,NA,NA,1,6,"6,7,13,12,9,8,14,10,15,4,5,2,11,3,1"
14518,commdev-image-keyboard-response,151,435459,learnblock1,746.7999999523163,img/planet5_right.png,5,Community 3,NA,TRUE,j,j,NA,NA,NA,1,6,"6,7,13,12,9,8,14,10,15,4,5,2,11,3,1"
14518,commdev-image-keyboard-response,152,436710,learnblock1,830.2999999523163,img/planet11_left.png,11,Community 3,NA,TRUE,f,f,NA,NA,NA,1,6,"6,7,13,12,9,8,14,10,15,4,5,2,11,3,1"
14518,commdev-image-keyboard-response,153,437961,learnblock1,1003.5,img/planet3_left.png,3,Community 3,NA,FALSE,j,f,NA,NA,NA,1,6,"6,7,13,12,9,8,14,10,15,4,5,2,11,3,1"
14518,commdev-image-keyboard-response,154,439212,learnblock1,1016.5,img/planet1_right.png,1,Community 3,NA,TRUE,j,j,NA,NA,NA,1,6,"6,7,13,12,9,8,14,10,15,4,5,2,11,3,1"
14518,commdev-image-keyboard-response,155,440464,learnblock1,661.3999998569489,img/planet5_left.png,5,Community 3,NA,TRUE,f,f,NA,NA,NA,1,6,"6,7,13,12,9,8,14,10,15,4,5,2,11,3,1"
14518,commdev-image-keyboard-response,156,441715,learnblock1,577.9000000953674,img/planet9_left.png,9,Community 1,NA,FALSE,j,f,NA,NA,NA,1,6,"6,7,13,12,9,8,14,10,15,4,5,2,11,3,1"
14518,commdev-image-keyboard-response,157,442967,learnblock1,686.4000000953674,img/planet5_right.png,5,Community 3,NA,FALSE,f,j,NA,NA,NA,1,6,"6,7,13,12,9,8,14,10,15,4,5,2,11,3,1"
14518,commdev-image-keyboard-response,158,444219,learnblock1,810,img/planet9_right.png,9,Community 1,NA,FALSE,f,j,NA,NA,NA,1,6,"6,7,13,12,9,8,14,10,15,4,5,2,11,3,1"
14518,commdev-image-keyboard-response,159,445471,learnblock1,1030.4000000953674,img/planet7_left.png,7,Community 1,NA,FALSE,j,f,NA,NA,NA,1,6,"6,7,13,12,9,8,14,10,15,4,5,2,11,3,1"
14518,commdev-image-keyboard-response,160,446723,learnblock1,971,img/planet12_left.png,12,Community 1,NA,TRUE,f,f,NA,NA,NA,1,6,"6,7,13,12,9,8,14,10,15,4,5,2,11,3,1"
14518,commdev-image-keyboard-response,161,447973,learnblock1,1070.9000000953674,img/planet6_right.png,6,Community 1,NA,TRUE,j,j,NA,NA,NA,1,6,"6,7,13,12,9,8,14,10,15,4,5,2,11,3,1"
14518,commdev-image-keyboard-response,162,449225,learnblock1,979.9000000953674,img/planet13_left.png,13,Community 1,NA,TRUE,f,f,NA,NA,NA,1,6,"6,7,13,12,9,8,14,10,15,4,5,2,11,3,1"
14518,commdev-image-keyboard-response,163,450478,learnblock1,928.5,img/planet6_right.png,6,Community 1,NA,FALSE,f,j,NA,NA,NA,1,6,"6,7,13,12,9,8,14,10,15,4,5,2,11,3,1"
14518,commdev-image-keyboard-response,164,451729,learnblock1,804.3999998569489,img/planet13_left.png,13,Community 1,NA,TRUE,f,f,NA,NA,NA,1,6,"6,7,13,12,9,8,14,10,15,4,5,2,11,3,1"
14518,commdev-image-keyboard-response,165,452979,learnblock1,296.5,img/planet7_right.png,7,Community 1,NA,TRUE,j,j,NA,NA,NA,1,6,"6,7,13,12,9,8,14,10,15,4,5,2,11,3,1"
14518,commdev-image-keyboard-response,166,454230,learnblock1,694,img/planet9_left.png,9,Community 1,NA,TRUE,f,f,NA,NA,NA,1,6,"6,7,13,12,9,8,14,10,15,4,5,2,11,3,1"
14518,commdev-image-keyboard-response,167,455482,learnblock1,378.89999985694885,img/planet13_left.png,13,Community 1,NA,FALSE,j,f,NA,NA,NA,1,6,"6,7,13,12,9,8,14,10,15,4,5,2,11,3,1"
14518,commdev-image-keyboard-response,168,456733,learnblock1,623.2999999523163,img/planet9_right.png,9,Community 1,NA,FALSE,f,j,NA,NA,NA,1,6,"6,7,13,12,9,8,14,10,15,4,5,2,11,3,1"
14518,commdev-image-keyboard-response,169,457985,learnblock1,868.4000000953674,img/planet13_right.png,13,Community 1,NA,FALSE,f,j,NA,NA,NA,1,6,"6,7,13,12,9,8,14,10,15,4,5,2,11,3,1"
14518,commdev-image-keyboard-response,170,459236,learnblock1,992.7000000476837,img/planet9_left.png,9,Community 1,NA,FALSE,j,f,NA,NA,NA,1,6,"6,7,13,12,9,8,14,10,15,4,5,2,11,3,1"
14518,commdev-image-keyboard-response,171,460487,learnblock1,973.5999999046326,img/planet13_right.png,13,Community 1,NA,FALSE,f,j,NA,NA,NA,1,6,"6,7,13,12,9,8,14,10,15,4,5,2,11,3,1"
14518,commdev-image-keyboard-response,172,461739,learnblock1,1058.6999998092651,img/planet9_left.png,9,Community 1,NA,TRUE,f,f,NA,NA,NA,1,6,"6,7,13,12,9,8,14,10,15,4,5,2,11,3,1"
14518,commdev-image-keyboard-response,173,462991,learnblock1,933.5999999046326,img/planet5_right.png,5,Community 3,NA,TRUE,j,j,NA,NA,NA,1,6,"6,7,13,12,9,8,14,10,15,4,5,2,11,3,1"
14518,commdev-image-keyboard-response,174,464242,learnblock1,1018.0999999046326,img/planet9_left.png,9,Community 1,NA,TRUE,f,f,NA,NA,NA,1,6,"6,7,13,12,9,8,14,10,15,4,5,2,11,3,1"
14518,commdev-image-keyboard-response,175,465494,learnblock1,847.2000000476837,img/planet5_left.png,5,Community 3,NA,FALSE,j,f,NA,NA,NA,1,6,"6,7,13,12,9,8,14,10,15,4,5,2,11,3,1"
14518,commdev-image-keyboard-response,176,466745,learnblock1,1019.7000000476837,img/planet9_left.png,9,Community 1,NA,FALSE,j,f,NA,NA,NA,1,6,"6,7,13,12,9,8,14,10,15,4,5,2,11,3,1"
14518,commdev-image-keyboard-response,177,467997,learnblock1,520.2000000476837,img/planet7_left.png,7,Community 1,NA,TRUE,f,f,NA,NA,NA,1,6,"6,7,13,12,9,8,14,10,15,4,5,2,11,3,1"
14518,commdev-image-keyboard-response,178,469248,learnblock1,45.69999980926514,img/planet12_right.png,12,Community 1,NA,FALSE,f,j,NA,NA,NA,1,6,"6,7,13,12,9,8,14,10,15,4,5,2,11,3,1"
14518,commdev-image-keyboard-response,179,470499,learnblock1,49.40000009536743,img/planet8_right.png,8,Community 2,NA,FALSE,f,j,NA,NA,NA,1,6,"6,7,13,12,9,8,14,10,15,4,5,2,11,3,1"
14518,commdev-image-keyboard-response,180,471751,learnblock1,222.79999995231628,img/planet14_right.png,14,Community 2,NA,FALSE,f,j,NA,NA,NA,1,6,"6,7,13,12,9,8,14,10,15,4,5,2,11,3,1"
14518,commdev-image-keyboard-response,181,473007,learnblock1,667.5,img/planet4_left.png,4,Community 2,NA,FALSE,j,f,NA,NA,NA,1,6,"6,7,13,12,9,8,14,10,15,4,5,2,11,3,1"
14518,commdev-image-keyboard-response,182,474259,learnblock1,794.6000001430511,img/planet14_left.png,14,Community 2,NA,TRUE,f,f,NA,NA,NA,1,6,"6,7,13,12,9,8,14,10,15,4,5,2,11,3,1"
14518,commdev-image-keyboard-response,183,475510,learnblock1,1022.7999999523163,img/planet10_left.png,10,Community 2,NA,FALSE,j,f,NA,NA,NA,1,6,"6,7,13,12,9,8,14,10,15,4,5,2,11,3,1"
14518,commdev-image-keyboard-response,184,476760,learnblock1,819.8000001907349,img/planet15_left.png,15,Community 2,NA,TRUE,f,f,NA,NA,NA,1,6,"6,7,13,12,9,8,14,10,15,4,5,2,11,3,1"
14518,commdev-image-keyboard-response,185,478011,learnblock1,761,img/planet10_right.png,10,Community 2,NA,TRUE,j,j,NA,NA,NA,1,6,"6,7,13,12,9,8,14,10,15,4,5,2,11,3,1"
14518,commdev-image-keyboard-response,186,479271,learnblock1,550.0999999046326,img/planet15_left.png,15,Community 2,NA,TRUE,f,f,NA,NA,NA,1,6,"6,7,13,12,9,8,14,10,15,4,5,2,11,3,1"
14518,commdev-image-keyboard-response,187,480522,learnblock1,306.40000009536743,img/planet4_left.png,4,Community 2,NA,FALSE,j,f,NA,NA,NA,1,6,"6,7,13,12,9,8,14,10,15,4,5,2,11,3,1"
14518,commdev-image-keyboard-response,188,481774,learnblock1,47.200000047683716,img/planet10_left.png,10,Community 2,NA,TRUE,f,f,NA,NA,NA,1,6,"6,7,13,12,9,8,14,10,15,4,5,2,11,3,1"
14518,commdev-image-keyboard-response,189,483025,learnblock1,459.7999999523163,img/planet4_left.png,4,Community 2,NA,FALSE,j,f,NA,NA,NA,1,6,"6,7,13,12,9,8,14,10,15,4,5,2,11,3,1"
14518,commdev-image-keyboard-response,190,484276,learnblock1,null,img/planet15_left.png,15,Community 2,NA,FALSE,null,f,NA,NA,NA,1,6,"6,7,13,12,9,8,14,10,15,4,5,2,11,3,1"
14518,commdev-image-keyboard-response,191,485527,learnblock1,709.7999999523163,img/planet8_right.png,8,Community 2,NA,FALSE,f,j,NA,NA,NA,1,6,"6,7,13,12,9,8,14,10,15,4,5,2,11,3,1"
14518,commdev-image-keyboard-response,192,486779,learnblock1,354.39999985694885,img/planet12_left.png,12,Community 1,NA,FALSE,j,f,NA,NA,NA,1,6,"6,7,13,12,9,8,14,10,15,4,5,2,11,3,1"
14518,commdev-image-keyboard-response,193,488040,learnblock1,230.79999995231628,img/planet7_right.png,7,Community 1,NA,FALSE,f,j,NA,NA,NA,1,6,"6,7,13,12,9,8,14,10,15,4,5,2,11,3,1"
14518,commdev-image-keyboard-response,194,489292,learnblock1,17.800000190734863,img/planet9_right.png,9,Community 1,NA,FALSE,f,j,NA,NA,NA,1,6,"6,7,13,12,9,8,14,10,15,4,5,2,11,3,1"
14518,commdev-image-keyboard-response,195,490543,learnblock1,741.7000000476837,img/planet7_left.png,7,Community 1,NA,TRUE,f,f,NA,NA,NA,1,6,"6,7,13,12,9,8,14,10,15,4,5,2,11,3,1"
14518,commdev-image-keyboard-response,196,491795,learnblock1,562.0999999046326,img/planet6_right.png,6,Community 1,NA,TRUE,j,j,NA,NA,NA,1,6,"6,7,13,12,9,8,14,10,15,4,5,2,11,3,1"
14518,commdev-image-keyboard-response,197,493047,learnblock1,870.3000001907349,img/planet13_right.png,13,Community 1,NA,FALSE,f,j,NA,NA,NA,1,6,"6,7,13,12,9,8,14,10,15,4,5,2,11,3,1"
14518,commdev-image-keyboard-response,198,494298,learnblock1,null,img/planet9_right.png,9,Community 1,NA,FALSE,null,j,NA,NA,NA,1,6,"6,7,13,12,9,8,14,10,15,4,5,2,11,3,1"
14518,commdev-image-keyboard-response,199,495549,learnblock1,1127.3999998569489,img/planet5_right.png,5,Community 3,NA,TRUE,j,j,NA,NA,NA,1,6,"6,7,13,12,9,8,14,10,15,4,5,2,11,3,1"
14518,commdev-image-keyboard-response,200,496801,learnblock1,132,img/planet3_left.png,3,Community 3,NA,FALSE,j,f,NA,NA,NA,1,6,"6,7,13,12,9,8,14,10,15,4,5,2,11,3,1"
14518,commdev-image-keyboard-response,201,498060,learnblock1,null,img/planet11_right.png,11,Community 3,NA,FALSE,null,j,NA,NA,NA,1,6,"6,7,13,12,9,8,14,10,15,4,5,2,11,3,1"
14518,commdev-image-keyboard-response,202,499311,learnblock1,229.5,img/planet1_left.png,1,Community 3,NA,FALSE,j,f,NA,NA,NA,1,6,"6,7,13,12,9,8,14,10,15,4,5,2,11,3,1"
14518,commdev-image-keyboard-response,203,500562,learnblock1,null,img/planet11_left.png,11,Community 3,NA,FALSE,null,f,NA,NA,NA,1,6,"6,7,13,12,9,8,14,10,15,4,5,2,11,3,1"
14518,commdev-image-keyboard-response,204,501812,learnblock1,87.39999985694885,img/planet1_left.png,1,Community 3,NA,FALSE,j,f,NA,NA,NA,1,6,"6,7,13,12,9,8,14,10,15,4,5,2,11,3,1"
14518,commdev-image-keyboard-response,205,503064,learnblock1,84.80000019073486,img/planet11_left.png,11,Community 3,NA,FALSE,j,f,NA,NA,NA,1,6,"6,7,13,12,9,8,14,10,15,4,5,2,11,3,1"
14518,commdev-image-keyboard-response,206,504315,learnblock1,705.7000000476837,img/planet1_right.png,1,Community 3,NA,TRUE,j,j,NA,NA,NA,1,6,"6,7,13,12,9,8,14,10,15,4,5,2,11,3,1"
14518,commdev-image-keyboard-response,207,505567,learnblock1,846.4000000953674,img/planet3_right.png,3,Community 3,NA,FALSE,f,j,NA,NA,NA,1,6,"6,7,13,12,9,8,14,10,15,4,5,2,11,3,1"
14518,commdev-image-keyboard-response,208,506818,learnblock1,538.7000000476837,img/planet2_left.png,2,Community 3,NA,FALSE,j,f,NA,NA,NA,1,6,"6,7,13,12,9,8,14,10,15,4,5,2,11,3,1"
14518,commdev-image-keyboard-response,209,508069,learnblock1,1030.8999998569489,img/planet1_right.png,1,Community 3,NA,TRUE,j,j,NA,NA,NA,1,6,"6,7,13,12,9,8,14,10,15,4,5,2,11,3,1"
14518,commdev-image-keyboard-response,210,509322,learnblock1,676,img/planet5_left.png,5,Community 3,NA,TRUE,f,f,NA,NA,NA,1,6,"6,7,13,12,9,8,14,10,15,4,5,2,11,3,1"
14518,commdev-image-keyboard-response,211,510587,learnblock1,751.4000000953674,img/planet3_left.png,3,Community 3,NA,FALSE,j,f,NA,NA,NA,1,6,"6,7,13,12,9,8,14,10,15,4,5,2,11,3,1"
14518,commdev-image-keyboard-response,212,511839,learnblock1,686,img/planet2_right.png,2,Community 3,NA,TRUE,j,j,NA,NA,NA,1,6,"6,7,13,12,9,8,14,10,15,4,5,2,11,3,1"
14518,commdev-image-keyboard-response,213,513090,learnblock1,890.7999999523163,img/planet11_right.png,11,Community 3,NA,TRUE,j,j,NA,NA,NA,1,6,"6,7,13,12,9,8,14,10,15,4,5,2,11,3,1"
14518,commdev-image-keyboard-response,214,514341,learnblock1,951.4000000953674,img/planet5_right.png,5,Community 3,NA,TRUE,j,j,NA,NA,NA,1,6,"6,7,13,12,9,8,14,10,15,4,5,2,11,3,1"
14518,commdev-image-keyboard-response,215,515593,learnblock1,860.2000000476837,img/planet1_left.png,1,Community 3,NA,TRUE,f,f,NA,NA,NA,1,6,"6,7,13,12,9,8,14,10,15,4,5,2,11,3,1"
14518,commdev-image-keyboard-response,216,516844,learnblock1,424.5,img/planet5_left.png,5,Community 3,NA,FALSE,j,f,NA,NA,NA,1,6,"6,7,13,12,9,8,14,10,15,4,5,2,11,3,1"
14518,commdev-image-keyboard-response,217,518100,learnblock1,805.1999998092651,img/planet3_right.png,3,Community 3,NA,FALSE,f,j,NA,NA,NA,1,6,"6,7,13,12,9,8,14,10,15,4,5,2,11,3,1"
14518,commdev-image-keyboard-response,218,519353,learnblock1,460.7999999523163,img/planet5_right.png,5,Community 3,NA,TRUE,j,j,NA,NA,NA,1,6,"6,7,13,12,9,8,14,10,15,4,5,2,11,3,1"
14518,commdev-image-keyboard-response,219,520611,learnblock1,1016.7999999523163,img/planet9_left.png,9,Community 1,NA,TRUE,f,f,NA,NA,NA,1,6,"6,7,13,12,9,8,14,10,15,4,5,2,11,3,1"
14518,commdev-image-keyboard-response,220,521863,learnblock1,605.6999998092651,img/planet5_right.png,5,Community 3,NA,TRUE,j,j,NA,NA,NA,1,6,"6,7,13,12,9,8,14,10,15,4,5,2,11,3,1"
14518,commdev-image-keyboard-response,221,523114,learnblock1,650.2000000476837,img/planet3_left.png,3,Community 3,NA,TRUE,f,f,NA,NA,NA,1,6,"6,7,13,12,9,8,14,10,15,4,5,2,11,3,1"
14518,commdev-image-keyboard-response,222,524366,learnblock1,878.9000000953674,img/planet2_left.png,2,Community 3,NA,TRUE,f,f,NA,NA,NA,1,6,"6,7,13,12,9,8,14,10,15,4,5,2,11,3,1"
14518,commdev-image-keyboard-response,223,525618,learnblock1,739.7999999523163,img/planet10_right.png,10,Community 2,NA,TRUE,j,j,NA,NA,NA,1,6,"6,7,13,12,9,8,14,10,15,4,5,2,11,3,1"
14518,commdev-image-keyboard-response,224,526869,learnblock1,1007.5,img/planet2_right.png,2,Community 3,NA,FALSE,f,j,NA,NA,NA,1,6,"6,7,13,12,9,8,14,10,15,4,5,2,11,3,1"
14518,commdev-image-keyboard-response,225,528121,learnblock1,708.2000000476837,img/planet10_right.png,10,Community 2,NA,TRUE,j,j,NA,NA,NA,1,6,"6,7,13,12,9,8,14,10,15,4,5,2,11,3,1"
14518,commdev-image-keyboard-response,226,529374,learnblock1,null,img/planet2_right.png,2,Community 3,NA,FALSE,null,j,NA,NA,NA,1,6,"6,7,13,12,9,8,14,10,15,4,5,2,11,3,1"
14518,commdev-image-keyboard-response,227,530625,learnblock1,null,img/planet11_right.png,11,Community 3,NA,FALSE,null,j,NA,NA,NA,1,6,"6,7,13,12,9,8,14,10,15,4,5,2,11,3,1"
14518,commdev-image-keyboard-response,228,531877,learnblock1,1000.3000001907349,img/planet1_right.png,1,Community 3,NA,FALSE,f,j,NA,NA,NA,1,6,"6,7,13,12,9,8,14,10,15,4,5,2,11,3,1"
14518,commdev-image-keyboard-response,229,533128,learnblock1,523.7999999523163,img/planet11_left.png,11,Community 3,NA,FALSE,j,f,NA,NA,NA,1,6,"6,7,13,12,9,8,14,10,15,4,5,2,11,3,1"
14518,commdev-image-keyboard-response,230,534385,learnblock1,993.1000001430511,img/planet3_left.png,3,Community 3,NA,FALSE,j,f,NA,NA,NA,1,6,"6,7,13,12,9,8,14,10,15,4,5,2,11,3,1"
14518,commdev-image-keyboard-response,231,535637,learnblock1,null,img/planet1_left.png,1,Community 3,NA,FALSE,null,f,NA,NA,NA,1,6,"6,7,13,12,9,8,14,10,15,4,5,2,11,3,1"
14518,commdev-image-keyboard-response,232,536888,learnblock1,null,img/planet5_left.png,5,Community 3,NA,FALSE,null,f,NA,NA,NA,1,6,"6,7,13,12,9,8,14,10,15,4,5,2,11,3,1"
14518,commdev-image-keyboard-response,233,538140,learnblock1,753.1000001430511,img/planet3_left.png,3,Community 3,NA,TRUE,f,f,NA,NA,NA,1,6,"6,7,13,12,9,8,14,10,15,4,5,2,11,3,1"
14518,commdev-image-keyboard-response,234,539392,learnblock1,732.7999999523163,img/planet11_right.png,11,Community 3,NA,FALSE,f,j,NA,NA,NA,1,6,"6,7,13,12,9,8,14,10,15,4,5,2,11,3,1"
14518,commdev-image-keyboard-response,235,540643,learnblock1,481.09999990463257,img/planet2_right.png,2,Community 3,NA,FALSE,f,j,NA,NA,NA,1,6,"6,7,13,12,9,8,14,10,15,4,5,2,11,3,1"
14518,commdev-image-keyboard-response,236,541895,learnblock1,69.79999995231628,img/planet10_right.png,10,Community 2,NA,FALSE,f,j,NA,NA,NA,1,6,"6,7,13,12,9,8,14,10,15,4,5,2,11,3,1"
14518,commdev-image-keyboard-response,237,543146,learnblock1,10.800000190734863,img/planet15_left.png,15,Community 2,NA,TRUE,f,f,NA,NA,NA,1,6,"6,7,13,12,9,8,14,10,15,4,5,2,11,3,1"
14518,commdev-image-keyboard-response,238,544398,learnblock1,423.09999990463257,img/planet8_left.png,8,Community 2,NA,TRUE,f,f,NA,NA,NA,1,6,"6,7,13,12,9,8,14,10,15,4,5,2,11,3,1"
14518,commdev-image-keyboard-response,239,545649,learnblock1,523.6000001430511,img/planet4_right.png,4,Community 2,NA,FALSE,f,j,NA,NA,NA,1,6,"6,7,13,12,9,8,14,10,15,4,5,2,11,3,1"
14518,commdev-image-keyboard-response,240,546900,learnblock1,40.299999952316284,img/planet15_left.png,15,Community 2,NA,TRUE,f,f,NA,NA,NA,1,6,"6,7,13,12,9,8,14,10,15,4,5,2,11,3,1"
14518,commdev-image-keyboard-response,241,548151,learnblock1,884.7999999523163,img/planet14_right.png,14,Community 2,NA,TRUE,j,j,NA,NA,NA,1,6,"6,7,13,12,9,8,14,10,15,4,5,2,11,3,1"
14518,commdev-image-keyboard-response,242,549404,learnblock1,1089.6999998092651,img/planet8_right.png,8,Community 2,NA,TRUE,j,j,NA,NA,NA,1,6,"6,7,13,12,9,8,14,10,15,4,5,2,11,3,1"
14518,commdev-image-keyboard-response,243,550655,learnblock1,845.7000000476837,img/planet14_left.png,14,Community 2,NA,TRUE,f,f,NA,NA,NA,1,6,"6,7,13,12,9,8,14,10,15,4,5,2,11,3,1"
14518,commdev-image-keyboard-response,244,551907,learnblock1,777.5999999046326,img/planet8_right.png,8,Community 2,NA,FALSE,f,j,NA,NA,NA,1,6,"6,7,13,12,9,8,14,10,15,4,5,2,11,3,1"
14518,commdev-image-keyboard-response,245,553158,learnblock1,1006.2000000476837,img/planet12_left.png,12,Community 1,NA,FALSE,j,f,NA,NA,NA,1,6,"6,7,13,12,9,8,14,10,15,4,5,2,11,3,1"
14518,commdev-image-keyboard-response,246,554410,learnblock1,null,img/planet6_right.png,6,Community 1,NA,FALSE,null,j,NA,NA,NA,1,6,"6,7,13,12,9,8,14,10,15,4,5,2,11,3,1"
14518,commdev-image-keyboard-response,247,555661,learnblock1,223.40000009536743,img/planet9_left.png,9,Community 1,NA,FALSE,j,f,NA,NA,NA,1,6,"6,7,13,12,9,8,14,10,15,4,5,2,11,3,1"
14518,commdev-image-keyboard-response,248,556912,learnblock1,796.5,img/planet7_right.png,7,Community 1,NA,TRUE,j,j,NA,NA,NA,1,6,"6,7,13,12,9,8,14,10,15,4,5,2,11,3,1"
14518,commdev-image-keyboard-response,249,558164,learnblock1,465,img/planet13_right.png,13,Community 1,NA,FALSE,f,j,NA,NA,NA,1,6,"6,7,13,12,9,8,14,10,15,4,5,2,11,3,1"
14518,commdev-image-keyboard-response,250,559416,learnblock1,557,img/planet9_left.png,9,Community 1,NA,FALSE,j,f,NA,NA,NA,1,6,"6,7,13,12,9,8,14,10,15,4,5,2,11,3,1"
14518,commdev-image-keyboard-response,251,560667,learnblock1,777,img/planet13_right.png,13,Community 1,NA,TRUE,j,j,NA,NA,NA,1,6,"6,7,13,12,9,8,14,10,15,4,5,2,11,3,1"
14518,commdev-image-keyboard-response,252,561919,learnblock1,429.40000009536743,img/planet7_left.png,7,Community 1,NA,TRUE,f,f,NA,NA,NA,1,6,"6,7,13,12,9,8,14,10,15,4,5,2,11,3,1"
14518,commdev-image-keyboard-response,253,563171,learnblock1,218.60000014305115,img/planet6_right.png,6,Community 1,NA,TRUE,j,j,NA,NA,NA,1,6,"6,7,13,12,9,8,14,10,15,4,5,2,11,3,1"
14518,commdev-image-keyboard-response,254,564422,learnblock1,374.5,img/planet7_right.png,7,Community 1,NA,TRUE,j,j,NA,NA,NA,1,6,"6,7,13,12,9,8,14,10,15,4,5,2,11,3,1"
14518,commdev-image-keyboard-response,255,565674,learnblock1,251.79999995231628,img/planet9_left.png,9,Community 1,NA,TRUE,f,f,NA,NA,NA,1,6,"6,7,13,12,9,8,14,10,15,4,5,2,11,3,1"
14518,commdev-image-keyboard-response,256,566926,learnblock1,591.4000000953674,img/planet7_left.png,7,Community 1,NA,FALSE,j,f,NA,NA,NA,1,6,"6,7,13,12,9,8,14,10,15,4,5,2,11,3,1"
14518,commdev-image-keyboard-response,257,568188,learnblock1,675.1000001430511,img/planet13_right.png,13,Community 1,NA,TRUE,j,j,NA,NA,NA,1,6,"6,7,13,12,9,8,14,10,15,4,5,2,11,3,1"
14518,commdev-image-keyboard-response,258,569439,learnblock1,692.7000000476837,img/planet12_left.png,12,Community 1,NA,TRUE,f,f,NA,NA,NA,1,6,"6,7,13,12,9,8,14,10,15,4,5,2,11,3,1"
14518,commdev-image-keyboard-response,259,570691,learnblock1,962,img/planet6_left.png,6,Community 1,NA,FALSE,j,f,NA,NA,NA,1,6,"6,7,13,12,9,8,14,10,15,4,5,2,11,3,1"
14518,commdev-image-keyboard-response,260,571943,learnblock1,942.4000000953674,img/planet7_right.png,7,Community 1,NA,TRUE,j,j,NA,NA,NA,1,6,"6,7,13,12,9,8,14,10,15,4,5,2,11,3,1"
14518,commdev-image-keyboard-response,261,573194,learnblock1,394.40000009536743,img/planet13_right.png,13,Community 1,NA,FALSE,f,j,NA,NA,NA,1,6,"6,7,13,12,9,8,14,10,15,4,5,2,11,3,1"
14518,commdev-image-keyboard-response,262,574446,learnblock1,519.0999999046326,img/planet7_left.png,7,Community 1,NA,FALSE,j,f,NA,NA,NA,1,6,"6,7,13,12,9,8,14,10,15,4,5,2,11,3,1"
14518,commdev-image-keyboard-response,263,575697,learnblock1,627.1999998092651,img/planet12_right.png,12,Community 1,NA,FALSE,f,j,NA,NA,NA,1,6,"6,7,13,12,9,8,14,10,15,4,5,2,11,3,1"
14518,commdev-image-keyboard-response,264,576948,learnblock1,null,img/planet6_left.png,6,Community 1,NA,FALSE,null,f,NA,NA,NA,1,6,"6,7,13,12,9,8,14,10,15,4,5,2,11,3,1"
14518,commdev-image-keyboard-response,265,578200,learnblock1,621.1000001430511,img/planet9_right.png,9,Community 1,NA,TRUE,j,j,NA,NA,NA,1,6,"6,7,13,12,9,8,14,10,15,4,5,2,11,3,1"
14518,commdev-image-keyboard-response,266,579452,learnblock1,448.7999999523163,img/planet6_right.png,6,Community 1,NA,FALSE,f,j,NA,NA,NA,1,6,"6,7,13,12,9,8,14,10,15,4,5,2,11,3,1"
14518,commdev-image-keyboard-response,267,580703,learnblock1,356.60000014305115,img/planet9_right.png,9,Community 1,NA,TRUE,j,j,NA,NA,NA,1,6,"6,7,13,12,9,8,14,10,15,4,5,2,11,3,1"
14518,commdev-image-keyboard-response,268,581955,learnblock1,1018,img/planet5_left.png,5,Community 3,NA,TRUE,f,f,NA,NA,NA,1,6,"6,7,13,12,9,8,14,10,15,4,5,2,11,3,1"
14518,commdev-image-keyboard-response,269,583206,learnblock1,null,img/planet3_right.png,3,Community 3,NA,FALSE,null,j,NA,NA,NA,1,6,"6,7,13,12,9,8,14,10,15,4,5,2,11,3,1"
14518,commdev-image-keyboard-response,270,584458,learnblock1,539,img/planet5_left.png,5,Community 3,NA,FALSE,j,f,NA,NA,NA,1,6,"6,7,13,12,9,8,14,10,15,4,5,2,11,3,1"
14518,commdev-image-keyboard-response,271,585709,learnblock1,null,img/planet1_right.png,1,Community 3,NA,FALSE,null,j,NA,NA,NA,1,6,"6,7,13,12,9,8,14,10,15,4,5,2,11,3,1"
14518,commdev-image-keyboard-response,272,586961,learnblock1,null,img/planet11_right.png,11,Community 3,NA,FALSE,null,j,NA,NA,NA,1,6,"6,7,13,12,9,8,14,10,15,4,5,2,11,3,1"
14518,commdev-image-keyboard-response,273,588213,learnblock1,null,img/planet3_right.png,3,Community 3,NA,FALSE,null,j,NA,NA,NA,1,6,"6,7,13,12,9,8,14,10,15,4,5,2,11,3,1"
14518,commdev-image-keyboard-response,274,589464,learnblock1,220.29999995231628,img/planet2_right.png,2,Community 3,NA,TRUE,j,j,NA,NA,NA,1,6,"6,7,13,12,9,8,14,10,15,4,5,2,11,3,1"
14518,commdev-image-keyboard-response,275,590715,learnblock1,721.5999999046326,img/planet10_left.png,10,Community 2,NA,FALSE,j,f,NA,NA,NA,1,6,"6,7,13,12,9,8,14,10,15,4,5,2,11,3,1"
14518,commdev-image-keyboard-response,276,591967,learnblock1,null,img/planet15_left.png,15,Community 2,NA,FALSE,null,f,NA,NA,NA,1,6,"6,7,13,12,9,8,14,10,15,4,5,2,11,3,1"
14518,commdev-image-keyboard-response,277,593218,learnblock1,null,img/planet14_right.png,14,Community 2,NA,FALSE,null,j,NA,NA,NA,1,6,"6,7,13,12,9,8,14,10,15,4,5,2,11,3,1"
14518,commdev-image-keyboard-response,278,594470,learnblock1,1022.7999999523163,img/planet4_right.png,4,Community 2,NA,FALSE,f,j,NA,NA,NA,1,6,"6,7,13,12,9,8,14,10,15,4,5,2,11,3,1"
14518,commdev-image-keyboard-response,279,595722,learnblock1,1035.3000001907349,img/planet8_left.png,8,Community 2,NA,FALSE,j,f,NA,NA,NA,1,6,"6,7,13,12,9,8,14,10,15,4,5,2,11,3,1"
14518,commdev-image-keyboard-response,280,596973,learnblock1,null,img/planet14_right.png,14,Community 2,NA,FALSE,null,j,NA,NA,NA,1,6,"6,7,13,12,9,8,14,10,15,4,5,2,11,3,1"
14518,commdev-image-keyboard-response,281,598225,learnblock1,null,img/planet4_right.png,4,Community 2,NA,FALSE,null,j,NA,NA,NA,1,6,"6,7,13,12,9,8,14,10,15,4,5,2,11,3,1"
14518,commdev-image-keyboard-response,282,599477,learnblock1,1031.7999999523163,img/planet10_right.png,10,Community 2,NA,TRUE,j,j,NA,NA,NA,1,6,"6,7,13,12,9,8,14,10,15,4,5,2,11,3,1"
14518,commdev-image-keyboard-response,283,600728,learnblock1,null,img/planet15_right.png,15,Community 2,NA,FALSE,null,j,NA,NA,NA,1,6,"6,7,13,12,9,8,14,10,15,4,5,2,11,3,1"
14518,commdev-image-keyboard-response,284,601980,learnblock1,824.9000000953674,img/planet10_left.png,10,Community 2,NA,TRUE,f,f,NA,NA,NA,1,6,"6,7,13,12,9,8,14,10,15,4,5,2,11,3,1"
14518,commdev-image-keyboard-response,285,603232,learnblock1,null,img/planet4_right.png,4,Community 2,NA,FALSE,null,j,NA,NA,NA,1,6,"6,7,13,12,9,8,14,10,15,4,5,2,11,3,1"
14518,commdev-image-keyboard-response,286,604483,learnblock1,17.40000009536743,img/planet14_right.png,14,Community 2,NA,TRUE,j,j,NA,NA,NA,1,6,"6,7,13,12,9,8,14,10,15,4,5,2,11,3,1"
14518,commdev-image-keyboard-response,287,605749,learnblock1,null,img/planet8_left.png,8,Community 2,NA,FALSE,null,f,NA,NA,NA,1,6,"6,7,13,12,9,8,14,10,15,4,5,2,11,3,1"
14518,commdev-image-keyboard-response,288,607000,learnblock1,196.29999995231628,img/planet15_right.png,15,Community 2,NA,FALSE,f,j,NA,NA,NA,1,6,"6,7,13,12,9,8,14,10,15,4,5,2,11,3,1"
14518,commdev-image-keyboard-response,289,608252,learnblock1,null,img/planet14_left.png,14,Community 2,NA,FALSE,null,f,NA,NA,NA,1,6,"6,7,13,12,9,8,14,10,15,4,5,2,11,3,1"
14518,commdev-image-keyboard-response,290,609503,learnblock1,29.299999952316284,img/planet8_right.png,8,Community 2,NA,TRUE,j,j,NA,NA,NA,1,6,"6,7,13,12,9,8,14,10,15,4,5,2,11,3,1"
14518,commdev-image-keyboard-response,291,610754,learnblock1,241.59999990463257,img/planet12_right.png,12,Community 1,NA,TRUE,j,j,NA,NA,NA,1,6,"6,7,13,12,9,8,14,10,15,4,5,2,11,3,1"
14518,commdev-image-keyboard-response,292,612006,learnblock1,207.20000004768372,img/planet13_left.png,13,Community 1,NA,FALSE,j,f,NA,NA,NA,1,6,"6,7,13,12,9,8,14,10,15,4,5,2,11,3,1"
14518,commdev-image-keyboard-response,293,613258,learnblock1,null,img/planet12_left.png,12,Community 1,NA,FALSE,null,f,NA,NA,NA,1,6,"6,7,13,12,9,8,14,10,15,4,5,2,11,3,1"
14518,commdev-image-keyboard-response,294,614510,learnblock1,null,img/planet7_right.png,7,Community 1,NA,FALSE,null,j,NA,NA,NA,1,6,"6,7,13,12,9,8,14,10,15,4,5,2,11,3,1"
14518,commdev-image-keyboard-response,295,615761,learnblock1,139,img/planet13_right.png,13,Community 1,NA,FALSE,f,j,NA,NA,NA,1,6,"6,7,13,12,9,8,14,10,15,4,5,2,11,3,1"
14518,commdev-image-keyboard-response,296,617012,learnblock1,416.2999999523163,img/planet12_right.png,12,Community 1,NA,TRUE,j,j,NA,NA,NA,1,6,"6,7,13,12,9,8,14,10,15,4,5,2,11,3,1"
14518,commdev-image-keyboard-response,297,618263,learnblock1,478.09999990463257,img/planet6_left.png,6,Community 1,NA,TRUE,f,f,NA,NA,NA,1,6,"6,7,13,12,9,8,14,10,15,4,5,2,11,3,1"
14518,commdev-image-keyboard-response,298,619514,learnblock1,817.9000000953674,img/planet12_left.png,12,Community 1,NA,FALSE,j,f,NA,NA,NA,1,6,"6,7,13,12,9,8,14,10,15,4,5,2,11,3,1"
14518,commdev-image-keyboard-response,299,620766,learnblock1,774.3999998569489,img/planet6_left.png,6,Community 1,NA,TRUE,f,f,NA,NA,NA,1,6,"6,7,13,12,9,8,14,10,15,4,5,2,11,3,1"
14518,commdev-image-keyboard-response,300,622018,learnblock1,null,img/planet12_right.png,12,Community 1,NA,FALSE,null,j,NA,NA,NA,1,6,"6,7,13,12,9,8,14,10,15,4,5,2,11,3,1"
14518,commdev-image-keyboard-response,301,623270,learnblock1,447.2000000476837,img/planet7_left.png,7,Community 1,NA,TRUE,f,f,NA,NA,NA,1,6,"6,7,13,12,9,8,14,10,15,4,5,2,11,3,1"
14518,commdev-image-keyboard-response,302,624521,learnblock1,1138.8000001907349,img/planet12_left.png,12,Community 1,NA,FALSE,j,f,NA,NA,NA,1,6,"6,7,13,12,9,8,14,10,15,4,5,2,11,3,1"
14518,commdev-image-keyboard-response,303,625773,learnblock1,39.59999990463257,img/planet6_left.png,6,Community 1,NA,TRUE,f,f,NA,NA,NA,1,6,"6,7,13,12,9,8,14,10,15,4,5,2,11,3,1"
14518,commdev-image-keyboard-response,304,627024,learnblock1,244.59999990463257,img/planet7_right.png,7,Community 1,NA,FALSE,f,j,NA,NA,NA,1,6,"6,7,13,12,9,8,14,10,15,4,5,2,11,3,1"
14518,commdev-image-keyboard-response,305,628275,learnblock1,449.40000009536743,img/planet9_right.png,9,Community 1,NA,TRUE,j,j,NA,NA,NA,1,6,"6,7,13,12,9,8,14,10,15,4,5,2,11,3,1"
14518,commdev-image-keyboard-response,306,629526,learnblock1,622.1000001430511,img/planet7_right.png,7,Community 1,NA,FALSE,f,j,NA,NA,NA,1,6,"6,7,13,12,9,8,14,10,15,4,5,2,11,3,1"
14518,commdev-image-keyboard-response,307,630786,learnblock1,555.4000000953674,img/planet9_right.png,9,Community 1,NA,FALSE,f,j,NA,NA,NA,1,6,"6,7,13,12,9,8,14,10,15,4,5,2,11,3,1"
14518,commdev-image-keyboard-response,308,632048,learnblock1,863.2000000476837,img/planet5_right.png,5,Community 3,NA,TRUE,j,j,NA,NA,NA,1,6,"6,7,13,12,9,8,14,10,15,4,5,2,11,3,1"
14518,commdev-image-keyboard-response,309,633299,learnblock1,null,img/planet9_right.png,9,Community 1,NA,FALSE,null,j,NA,NA,NA,1,6,"6,7,13,12,9,8,14,10,15,4,5,2,11,3,1"
14518,commdev-image-keyboard-response,310,634551,learnblock1,62.200000047683716,img/planet13_right.png,13,Community 1,NA,TRUE,j,j,NA,NA,NA,1,6,"6,7,13,12,9,8,14,10,15,4,5,2,11,3,1"
14518,commdev-image-keyboard-response,311,635803,learnblock1,777.8999998569489,img/planet9_left.png,9,Community 1,NA,FALSE,j,f,NA,NA,NA,1,6,"6,7,13,12,9,8,14,10,15,4,5,2,11,3,1"
14518,commdev-image-keyboard-response,312,637054,learnblock1,477.7000000476837,img/planet5_left.png,5,Community 3,NA,TRUE,f,f,NA,NA,NA,1,6,"6,7,13,12,9,8,14,10,15,4,5,2,11,3,1"
14518,commdev-image-keyboard-response,313,638306,learnblock1,794.5,img/planet9_left.png,9,Community 1,NA,FALSE,j,f,NA,NA,NA,1,6,"6,7,13,12,9,8,14,10,15,4,5,2,11,3,1"
14518,commdev-image-keyboard-response,314,639557,learnblock1,null,img/planet6_left.png,6,Community 1,NA,FALSE,null,f,NA,NA,NA,1,6,"6,7,13,12,9,8,14,10,15,4,5,2,11,3,1"
14518,commdev-image-keyboard-response,315,640809,learnblock1,null,img/planet7_right.png,7,Community 1,NA,FALSE,null,j,NA,NA,NA,1,6,"6,7,13,12,9,8,14,10,15,4,5,2,11,3,1"
14518,commdev-image-keyboard-response,316,642060,learnblock1,200.20000004768372,img/planet6_left.png,6,Community 1,NA,FALSE,j,f,NA,NA,NA,1,6,"6,7,13,12,9,8,14,10,15,4,5,2,11,3,1"
14518,commdev-image-keyboard-response,317,643312,learnblock1,693.1000001430511,img/planet12_right.png,12,Community 1,NA,TRUE,j,j,NA,NA,NA,1,6,"6,7,13,12,9,8,14,10,15,4,5,2,11,3,1"
14518,commdev-image-keyboard-response,318,644564,learnblock1,425,img/planet6_left.png,6,Community 1,NA,TRUE,f,f,NA,NA,NA,1,6,"6,7,13,12,9,8,14,10,15,4,5,2,11,3,1"
14518,commdev-image-keyboard-response,319,645815,learnblock1,1060.5,img/planet13_left.png,13,Community 1,NA,TRUE,f,f,NA,NA,NA,1,6,"6,7,13,12,9,8,14,10,15,4,5,2,11,3,1"
14518,commdev-image-keyboard-response,320,647073,learnblock1,545.5999999046326,img/planet9_right.png,9,Community 1,NA,TRUE,j,j,NA,NA,NA,1,6,"6,7,13,12,9,8,14,10,15,4,5,2,11,3,1"
14518,commdev-image-keyboard-response,321,648324,learnblock1,616.2000000476837,img/planet6_left.png,6,Community 1,NA,TRUE,f,f,NA,NA,NA,1,6,"6,7,13,12,9,8,14,10,15,4,5,2,11,3,1"
14518,commdev-image-keyboard-response,322,649576,learnblock1,620.5,img/planet7_right.png,7,Community 1,NA,TRUE,j,j,NA,NA,NA,1,6,"6,7,13,12,9,8,14,10,15,4,5,2,11,3,1"
14518,commdev-image-keyboard-response,323,650828,learnblock1,673,img/planet13_right.png,13,Community 1,NA,FALSE,f,j,NA,NA,NA,1,6,"6,7,13,12,9,8,14,10,15,4,5,2,11,3,1"
14518,commdev-image-keyboard-response,324,652079,learnblock1,null,img/planet12_left.png,12,Community 1,NA,FALSE,null,f,NA,NA,NA,1,6,"6,7,13,12,9,8,14,10,15,4,5,2,11,3,1"
14518,commdev-image-keyboard-response,325,653331,learnblock1,337.60000014305115,img/planet13_left.png,13,Community 1,NA,TRUE,f,f,NA,NA,NA,1,6,"6,7,13,12,9,8,14,10,15,4,5,2,11,3,1"
14518,commdev-image-keyboard-response,326,654583,learnblock1,414,img/planet6_left.png,6,Community 1,NA,FALSE,j,f,NA,NA,NA,1,6,"6,7,13,12,9,8,14,10,15,4,5,2,11,3,1"
14518,commdev-image-keyboard-response,327,655834,learnblock1,185.79999995231628,img/planet13_left.png,13,Community 1,NA,FALSE,j,f,NA,NA,NA,1,6,"6,7,13,12,9,8,14,10,15,4,5,2,11,3,1"
14518,commdev-image-keyboard-response,328,657085,learnblock1,342.7000000476837,img/planet6_left.png,6,Community 1,NA,FALSE,j,f,NA,NA,NA,1,6,"6,7,13,12,9,8,14,10,15,4,5,2,11,3,1"
14518,commdev-image-keyboard-response,329,658336,learnblock1,523.7999999523163,img/planet12_left.png,12,Community 1,NA,FALSE,j,f,NA,NA,NA,1,6,"6,7,13,12,9,8,14,10,15,4,5,2,11,3,1"
14518,commdev-image-keyboard-response,330,659588,learnblock1,1.1000001430511475,img/planet13_right.png,13,Community 1,NA,FALSE,f,j,NA,NA,NA,1,6,"6,7,13,12,9,8,14,10,15,4,5,2,11,3,1"
14518,commdev-image-keyboard-response,331,660839,learnblock1,237.09999990463257,img/planet6_left.png,6,Community 1,NA,TRUE,f,f,NA,NA,NA,1,6,"6,7,13,12,9,8,14,10,15,4,5,2,11,3,1"
14518,commdev-image-keyboard-response,332,662090,learnblock1,273.7000000476837,img/planet12_right.png,12,Community 1,NA,TRUE,j,j,NA,NA,NA,1,6,"6,7,13,12,9,8,14,10,15,4,5,2,11,3,1"
14518,commdev-image-keyboard-response,333,663342,learnblock1,null,img/planet13_left.png,13,Community 1,NA,FALSE,null,f,NA,NA,NA,1,6,"6,7,13,12,9,8,14,10,15,4,5,2,11,3,1"
14518,commdev-image-keyboard-response,334,664593,learnblock1,706.4000000953674,img/planet12_left.png,12,Community 1,NA,FALSE,j,f,NA,NA,NA,1,6,"6,7,13,12,9,8,14,10,15,4,5,2,11,3,1"
14518,commdev-image-keyboard-response,335,665845,learnblock1,639.2000000476837,img/planet6_right.png,6,Community 1,NA,FALSE,f,j,NA,NA,NA,1,6,"6,7,13,12,9,8,14,10,15,4,5,2,11,3,1"
14518,commdev-image-keyboard-response,336,667097,learnblock1,995.7000000476837,img/planet13_left.png,13,Community 1,NA,TRUE,f,f,NA,NA,NA,1,6,"6,7,13,12,9,8,14,10,15,4,5,2,11,3,1"
14518,commdev-image-keyboard-response,337,668349,learnblock1,null,img/planet9_left.png,9,Community 1,NA,FALSE,null,f,NA,NA,NA,1,6,"6,7,13,12,9,8,14,10,15,4,5,2,11,3,1"
14518,commdev-image-keyboard-response,338,669601,learnblock1,83.89999985694885,img/planet7_right.png,7,Community 1,NA,TRUE,j,j,NA,NA,NA,1,6,"6,7,13,12,9,8,14,10,15,4,5,2,11,3,1"
14518,commdev-image-keyboard-response,339,670853,learnblock1,104.09999990463257,img/planet12_right.png,12,Community 1,NA,FALSE,f,j,NA,NA,NA,1,6,"6,7,13,12,9,8,14,10,15,4,5,2,11,3,1"
14518,commdev-image-keyboard-response,340,672104,learnblock1,204.5,img/planet7_left.png,7,Community 1,NA,TRUE,f,f,NA,NA,NA,1,6,"6,7,13,12,9,8,14,10,15,4,5,2,11,3,1"
14518,commdev-image-keyboard-response,341,673356,learnblock1,null,img/planet9_right.png,9,Community 1,NA,FALSE,null,j,NA,NA,NA,1,6,"6,7,13,12,9,8,14,10,15,4,5,2,11,3,1"
14518,commdev-image-keyboard-response,342,674607,learnblock1,null,img/planet7_right.png,7,Community 1,NA,FALSE,null,j,NA,NA,NA,1,6,"6,7,13,12,9,8,14,10,15,4,5,2,11,3,1"
14518,commdev-image-keyboard-response,343,675860,learnblock1,null,img/planet12_right.png,12,Community 1,NA,FALSE,null,j,NA,NA,NA,1,6,"6,7,13,12,9,8,14,10,15,4,5,2,11,3,1"
14518,commdev-image-keyboard-response,344,677111,learnblock1,null,img/planet7_right.png,7,Community 1,NA,FALSE,null,j,NA,NA,NA,1,6,"6,7,13,12,9,8,14,10,15,4,5,2,11,3,1"
14518,commdev-image-keyboard-response,345,678362,learnblock1,57.5,img/planet9_left.png,9,Community 1,NA,TRUE,f,f,NA,NA,NA,1,6,"6,7,13,12,9,8,14,10,15,4,5,2,11,3,1"
14518,commdev-image-keyboard-response,346,679614,learnblock1,70.89999985694885,img/planet13_left.png,13,Community 1,NA,FALSE,j,f,NA,NA,NA,1,6,"6,7,13,12,9,8,14,10,15,4,5,2,11,3,1"
14518,commdev-image-keyboard-response,347,680866,learnblock1,146.5,img/planet12_left.png,12,Community 1,NA,FALSE,j,f,NA,NA,NA,1,6,"6,7,13,12,9,8,14,10,15,4,5,2,11,3,1"
14518,commdev-image-keyboard-response,351,745981,learnblock2,null,img/planet9_left.png,9,Community 1,NA,FALSE,null,f,NA,NA,NA,1,6,"6,7,13,12,9,8,14,10,15,4,5,2,11,3,1"
14518,commdev-image-keyboard-response,352,747232,learnblock2,27.600000143051147,img/planet5_right.png,5,Community 3,NA,FALSE,f,j,NA,NA,NA,1,6,"6,7,13,12,9,8,14,10,15,4,5,2,11,3,1"
14518,commdev-image-keyboard-response,353,748482,learnblock2,240.09999990463257,img/planet1_right.png,1,Community 3,NA,FALSE,f,j,NA,NA,NA,1,6,"6,7,13,12,9,8,14,10,15,4,5,2,11,3,1"
14518,commdev-image-keyboard-response,354,749734,learnblock2,662,img/planet2_left.png,2,Community 3,NA,TRUE,f,f,NA,NA,NA,1,6,"6,7,13,12,9,8,14,10,15,4,5,2,11,3,1"
14518,commdev-image-keyboard-response,355,750986,learnblock2,257.59999990463257,img/planet11_left.png,11,Community 3,NA,FALSE,j,f,NA,NA,NA,1,6,"6,7,13,12,9,8,14,10,15,4,5,2,11,3,1"
14518,commdev-image-keyboard-response,356,752238,learnblock2,685.2999999523163,img/planet3_right.png,3,Community 3,NA,TRUE,j,j,NA,NA,NA,1,6,"6,7,13,12,9,8,14,10,15,4,5,2,11,3,1"
14518,commdev-image-keyboard-response,357,753490,learnblock2,265.60000014305115,img/planet11_right.png,11,Community 3,NA,FALSE,f,j,NA,NA,NA,1,6,"6,7,13,12,9,8,14,10,15,4,5,2,11,3,1"
14518,commdev-image-keyboard-response,358,754741,learnblock2,805.6000001430511,img/planet3_right.png,3,Community 3,NA,FALSE,f,j,NA,NA,NA,1,6,"6,7,13,12,9,8,14,10,15,4,5,2,11,3,1"
14518,commdev-image-keyboard-response,359,756002,learnblock2,658.7999999523163,img/planet5_left.png,5,Community 3,NA,FALSE,j,f,NA,NA,NA,1,6,"6,7,13,12,9,8,14,10,15,4,5,2,11,3,1"
14518,commdev-image-keyboard-response,360,757254,learnblock2,613.5999999046326,img/planet3_right.png,3,Community 3,NA,TRUE,j,j,NA,NA,NA,1,6,"6,7,13,12,9,8,14,10,15,4,5,2,11,3,1"
14518,commdev-image-keyboard-response,361,758505,learnblock2,713.7999999523163,img/planet11_right.png,11,Community 3,NA,TRUE,j,j,NA,NA,NA,1,6,"6,7,13,12,9,8,14,10,15,4,5,2,11,3,1"
14518,commdev-image-keyboard-response,362,759757,learnblock2,470.7999999523163,img/planet2_left.png,2,Community 3,NA,TRUE,f,f,NA,NA,NA,1,6,"6,7,13,12,9,8,14,10,15,4,5,2,11,3,1"
14518,commdev-image-keyboard-response,363,761008,learnblock2,523.2999999523163,img/planet10_left.png,10,Community 2,NA,FALSE,j,f,NA,NA,NA,1,6,"6,7,13,12,9,8,14,10,15,4,5,2,11,3,1"
14518,commdev-image-keyboard-response,364,762259,learnblock2,1159.6999998092651,img/planet15_left.png,15,Community 2,NA,TRUE,f,f,NA,NA,NA,1,6,"6,7,13,12,9,8,14,10,15,4,5,2,11,3,1"
14518,commdev-image-keyboard-response,365,763511,learnblock2,820.7999999523163,img/planet4_left.png,4,Community 2,NA,TRUE,f,f,NA,NA,NA,1,6,"6,7,13,12,9,8,14,10,15,4,5,2,11,3,1"
14518,commdev-image-keyboard-response,366,764762,learnblock2,913.2999999523163,img/planet8_left.png,8,Community 2,NA,TRUE,f,f,NA,NA,NA,1,6,"6,7,13,12,9,8,14,10,15,4,5,2,11,3,1"
14518,commdev-image-keyboard-response,367,766014,learnblock2,893.7999999523163,img/planet12_left.png,12,Community 1,NA,TRUE,f,f,NA,NA,NA,1,6,"6,7,13,12,9,8,14,10,15,4,5,2,11,3,1"
14518,commdev-image-keyboard-response,368,767265,learnblock2,769.2999999523163,img/planet8_left.png,8,Community 2,NA,TRUE,f,f,NA,NA,NA,1,6,"6,7,13,12,9,8,14,10,15,4,5,2,11,3,1"
14518,commdev-image-keyboard-response,369,768523,learnblock2,918.4000000953674,img/planet4_left.png,4,Community 2,NA,TRUE,f,f,NA,NA,NA,1,6,"6,7,13,12,9,8,14,10,15,4,5,2,11,3,1"
14518,commdev-image-keyboard-response,370,769775,learnblock2,1172.5999999046326,img/planet8_left.png,8,Community 2,NA,FALSE,j,f,NA,NA,NA,1,6,"6,7,13,12,9,8,14,10,15,4,5,2,11,3,1"
14518,commdev-image-keyboard-response,371,771027,learnblock2,945.1000001430511,img/planet14_left.png,14,Community 2,NA,TRUE,f,f,NA,NA,NA,1,6,"6,7,13,12,9,8,14,10,15,4,5,2,11,3,1"
14518,commdev-image-keyboard-response,372,772285,learnblock2,845,img/planet10_left.png,10,Community 2,NA,TRUE,f,f,NA,NA,NA,1,6,"6,7,13,12,9,8,14,10,15,4,5,2,11,3,1"
14518,commdev-image-keyboard-response,373,773537,learnblock2,1130.5999999046326,img/planet14_left.png,14,Community 2,NA,TRUE,f,f,NA,NA,NA,1,6,"6,7,13,12,9,8,14,10,15,4,5,2,11,3,1"
14518,commdev-image-keyboard-response,374,774788,learnblock2,927.0999999046326,img/planet4_right.png,4,Community 2,NA,TRUE,j,j,NA,NA,NA,1,6,"6,7,13,12,9,8,14,10,15,4,5,2,11,3,1"
14518,commdev-image-keyboard-response,375,776039,learnblock2,900.4000000953674,img/planet10_right.png,10,Community 2,NA,TRUE,j,j,NA,NA,NA,1,6,"6,7,13,12,9,8,14,10,15,4,5,2,11,3,1"
14518,commdev-image-keyboard-response,376,777290,learnblock2,1168.3999998569489,img/planet14_right.png,14,Community 2,NA,TRUE,j,j,NA,NA,NA,1,6,"6,7,13,12,9,8,14,10,15,4,5,2,11,3,1"
14518,commdev-image-keyboard-response,377,778542,learnblock2,null,img/planet15_left.png,15,Community 2,NA,FALSE,null,f,NA,NA,NA,1,6,"6,7,13,12,9,8,14,10,15,4,5,2,11,3,1"
14518,commdev-image-keyboard-response,378,779794,learnblock2,217.59999990463257,img/planet14_right.png,14,Community 2,NA,FALSE,f,j,NA,NA,NA,1,6,"6,7,13,12,9,8,14,10,15,4,5,2,11,3,1"
14518,commdev-image-keyboard-response,379,781046,learnblock2,798.0999999046326,img/planet10_left.png,10,Community 2,NA,TRUE,f,f,NA,NA,NA,1,6,"6,7,13,12,9,8,14,10,15,4,5,2,11,3,1"
14518,commdev-image-keyboard-response,380,782298,learnblock2,826.1000001430511,img/planet4_right.png,4,Community 2,NA,TRUE,j,j,NA,NA,NA,1,6,"6,7,13,12,9,8,14,10,15,4,5,2,11,3,1"
14518,commdev-image-keyboard-response,381,783549,learnblock2,1014.2999999523163,img/planet15_right.png,15,Community 2,NA,TRUE,j,j,NA,NA,NA,1,6,"6,7,13,12,9,8,14,10,15,4,5,2,11,3,1"
14518,commdev-image-keyboard-response,382,784800,learnblock2,1060,img/planet4_right.png,4,Community 2,NA,FALSE,f,j,NA,NA,NA,1,6,"6,7,13,12,9,8,14,10,15,4,5,2,11,3,1"
14518,commdev-image-keyboard-response,383,786052,learnblock2,848.2000000476837,img/planet14_right.png,14,Community 2,NA,FALSE,f,j,NA,NA,NA,1,6,"6,7,13,12,9,8,14,10,15,4,5,2,11,3,1"
14518,commdev-image-keyboard-response,384,787303,learnblock2,428.7999999523163,img/planet4_left.png,4,Community 2,NA,FALSE,j,f,NA,NA,NA,1,6,"6,7,13,12,9,8,14,10,15,4,5,2,11,3,1"
14518,commdev-image-keyboard-response,385,788555,learnblock2,681.1000001430511,img/planet8_left.png,8,Community 2,NA,TRUE,f,f,NA,NA,NA,1,6,"6,7,13,12,9,8,14,10,15,4,5,2,11,3,1"
14518,commdev-image-keyboard-response,386,789807,learnblock2,908.7000000476837,img/planet14_left.png,14,Community 2,NA,TRUE,f,f,NA,NA,NA,1,6,"6,7,13,12,9,8,14,10,15,4,5,2,11,3,1"
14518,commdev-image-keyboard-response,387,791059,learnblock2,737.2999999523163,img/planet15_left.png,15,Community 2,NA,TRUE,f,f,NA,NA,NA,1,6,"6,7,13,12,9,8,14,10,15,4,5,2,11,3,1"
14518,commdev-image-keyboard-response,388,792310,learnblock2,749.8000001907349,img/planet4_right.png,4,Community 2,NA,TRUE,j,j,NA,NA,NA,1,6,"6,7,13,12,9,8,14,10,15,4,5,2,11,3,1"
14518,commdev-image-keyboard-response,389,793562,learnblock2,906.0999999046326,img/planet14_left.png,14,Community 2,NA,TRUE,f,f,NA,NA,NA,1,6,"6,7,13,12,9,8,14,10,15,4,5,2,11,3,1"
14518,commdev-image-keyboard-response,390,794814,learnblock2,895,img/planet15_left.png,15,Community 2,NA,FALSE,j,f,NA,NA,NA,1,6,"6,7,13,12,9,8,14,10,15,4,5,2,11,3,1"
14518,commdev-image-keyboard-response,391,796065,learnblock2,698.2000000476837,img/planet10_left.png,10,Community 2,NA,TRUE,f,f,NA,NA,NA,1,6,"6,7,13,12,9,8,14,10,15,4,5,2,11,3,1"
14518,commdev-image-keyboard-response,392,797321,learnblock2,575.5999999046326,img/planet2_right.png,2,Community 3,NA,TRUE,j,j,NA,NA,NA,1,6,"6,7,13,12,9,8,14,10,15,4,5,2,11,3,1"
14518,commdev-image-keyboard-response,393,798572,learnblock2,999,img/planet11_left.png,11,Community 3,NA,TRUE,f,f,NA,NA,NA,1,6,"6,7,13,12,9,8,14,10,15,4,5,2,11,3,1"
14518,commdev-image-keyboard-response,394,799824,learnblock2,1012.1999998092651,img/planet5_left.png,5,Community 3,NA,TRUE,f,f,NA,NA,NA,1,6,"6,7,13,12,9,8,14,10,15,4,5,2,11,3,1"
14518,commdev-image-keyboard-response,395,801077,learnblock2,944.0999999046326,img/planet11_right.png,11,Community 3,NA,TRUE,j,j,NA,NA,NA,1,6,"6,7,13,12,9,8,14,10,15,4,5,2,11,3,1"
14518,commdev-image-keyboard-response,396,802329,learnblock2,947.3000001907349,img/planet5_left.png,5,Community 3,NA,TRUE,f,f,NA,NA,NA,1,6,"6,7,13,12,9,8,14,10,15,4,5,2,11,3,1"
14518,commdev-image-keyboard-response,397,803581,learnblock2,904.0999999046326,img/planet3_right.png,3,Community 3,NA,TRUE,j,j,NA,NA,NA,1,6,"6,7,13,12,9,8,14,10,15,4,5,2,11,3,1"
14518,commdev-image-keyboard-response,398,804834,learnblock2,651,img/planet2_left.png,2,Community 3,NA,TRUE,f,f,NA,NA,NA,1,6,"6,7,13,12,9,8,14,10,15,4,5,2,11,3,1"
14518,commdev-image-keyboard-response,399,806085,learnblock2,926.7000000476837,img/planet11_left.png,11,Community 3,NA,TRUE,f,f,NA,NA,NA,1,6,"6,7,13,12,9,8,14,10,15,4,5,2,11,3,1"
14518,commdev-image-keyboard-response,400,807337,learnblock2,947.7999999523163,img/planet3_left.png,3,Community 3,NA,TRUE,f,f,NA,NA,NA,1,6,"6,7,13,12,9,8,14,10,15,4,5,2,11,3,1"
14518,commdev-image-keyboard-response,401,808588,learnblock2,719.5999999046326,img/planet11_right.png,11,Community 3,NA,TRUE,j,j,NA,NA,NA,1,6,"6,7,13,12,9,8,14,10,15,4,5,2,11,3,1"
14518,commdev-image-keyboard-response,402,809839,learnblock2,764.5999999046326,img/planet3_left.png,3,Community 3,NA,TRUE,f,f,NA,NA,NA,1,6,"6,7,13,12,9,8,14,10,15,4,5,2,11,3,1"
14518,commdev-image-keyboard-response,403,811091,learnblock2,976.7000000476837,img/planet11_right.png,11,Community 3,NA,TRUE,j,j,NA,NA,NA,1,6,"6,7,13,12,9,8,14,10,15,4,5,2,11,3,1"
14518,commdev-image-keyboard-response,404,812354,learnblock2,941.2000000476837,img/planet2_right.png,2,Community 3,NA,TRUE,j,j,NA,NA,NA,1,6,"6,7,13,12,9,8,14,10,15,4,5,2,11,3,1"
14518,commdev-image-keyboard-response,405,813606,learnblock2,789.7999999523163,img/planet10_right.png,10,Community 2,NA,TRUE,j,j,NA,NA,NA,1,6,"6,7,13,12,9,8,14,10,15,4,5,2,11,3,1"
14518,commdev-image-keyboard-response,406,814857,learnblock2,562.8000001907349,img/planet14_left.png,14,Community 2,NA,TRUE,f,f,NA,NA,NA,1,6,"6,7,13,12,9,8,14,10,15,4,5,2,11,3,1"
14518,commdev-image-keyboard-response,407,816109,learnblock2,null,img/planet8_left.png,8,Community 2,NA,FALSE,null,f,NA,NA,NA,1,6,"6,7,13,12,9,8,14,10,15,4,5,2,11,3,1"
14518,commdev-image-keyboard-response,408,817361,learnblock2,null,img/planet15_left.png,15,Community 2,NA,FALSE,null,f,NA,NA,NA,1,6,"6,7,13,12,9,8,14,10,15,4,5,2,11,3,1"
14518,commdev-image-keyboard-response,409,818613,learnblock2,919.8999998569489,img/planet10_left.png,10,Community 2,NA,FALSE,j,f,NA,NA,NA,1,6,"6,7,13,12,9,8,14,10,15,4,5,2,11,3,1"
14518,commdev-image-keyboard-response,410,819864,learnblock2,747.6999998092651,img/planet4_right.png,4,Community 2,NA,TRUE,j,j,NA,NA,NA,1,6,"6,7,13,12,9,8,14,10,15,4,5,2,11,3,1"
14518,commdev-image-keyboard-response,411,821116,learnblock2,384.2000000476837,img/planet10_left.png,10,Community 2,NA,TRUE,f,f,NA,NA,NA,1,6,"6,7,13,12,9,8,14,10,15,4,5,2,11,3,1"
14518,commdev-image-keyboard-response,412,822367,learnblock2,620.5,img/planet15_right.png,15,Community 2,NA,TRUE,j,j,NA,NA,NA,1,6,"6,7,13,12,9,8,14,10,15,4,5,2,11,3,1"
14518,commdev-image-keyboard-response,413,823619,learnblock2,560.8999998569489,img/planet14_left.png,14,Community 2,NA,TRUE,f,f,NA,NA,NA,1,6,"6,7,13,12,9,8,14,10,15,4,5,2,11,3,1"
14518,commdev-image-keyboard-response,414,824871,learnblock2,605.7000000476837,img/planet15_left.png,15,Community 2,NA,FALSE,j,f,NA,NA,NA,1,6,"6,7,13,12,9,8,14,10,15,4,5,2,11,3,1"
14518,commdev-image-keyboard-response,415,826122,learnblock2,697.5,img/planet8_right.png,8,Community 2,NA,FALSE,f,j,NA,NA,NA,1,6,"6,7,13,12,9,8,14,10,15,4,5,2,11,3,1"
14518,commdev-image-keyboard-response,416,827374,learnblock2,622.2000000476837,img/planet4_right.png,4,Community 2,NA,TRUE,j,j,NA,NA,NA,1,6,"6,7,13,12,9,8,14,10,15,4,5,2,11,3,1"
14518,commdev-image-keyboard-response,417,828627,learnblock2,833.8999998569489,img/planet15_right.png,15,Community 2,NA,TRUE,j,j,NA,NA,NA,1,6,"6,7,13,12,9,8,14,10,15,4,5,2,11,3,1"
14518,commdev-image-keyboard-response,418,829878,learnblock2,725.9000000953674,img/planet14_left.png,14,Community 2,NA,TRUE,f,f,NA,NA,NA,1,6,"6,7,13,12,9,8,14,10,15,4,5,2,11,3,1"
14518,commdev-image-keyboard-response,419,831130,learnblock2,793.8999998569489,img/planet15_right.png,15,Community 2,NA,TRUE,j,j,NA,NA,NA,1,6,"6,7,13,12,9,8,14,10,15,4,5,2,11,3,1"
14518,commdev-image-keyboard-response,420,832381,learnblock2,1006.3999998569489,img/planet14_right.png,14,Community 2,NA,TRUE,j,j,NA,NA,NA,1,6,"6,7,13,12,9,8,14,10,15,4,5,2,11,3,1"
14518,commdev-image-keyboard-response,421,833633,learnblock2,635.3999998569489,img/planet4_left.png,4,Community 2,NA,TRUE,f,f,NA,NA,NA,1,6,"6,7,13,12,9,8,14,10,15,4,5,2,11,3,1"
14518,commdev-image-keyboard-response,422,834885,learnblock2,798.7999999523163,img/planet10_left.png,10,Community 2,NA,TRUE,f,f,NA,NA,NA,1,6,"6,7,13,12,9,8,14,10,15,4,5,2,11,3,1"
14518,commdev-image-keyboard-response,423,836137,learnblock2,587.5999999046326,img/planet15_right.png,15,Community 2,NA,TRUE,j,j,NA,NA,NA,1,6,"6,7,13,12,9,8,14,10,15,4,5,2,11,3,1"
14518,commdev-image-keyboard-response,424,837388,learnblock2,687.5999999046326,img/planet14_left.png,14,Community 2,NA,TRUE,f,f,NA,NA,NA,1,6,"6,7,13,12,9,8,14,10,15,4,5,2,11,3,1"
14518,commdev-image-keyboard-response,425,838654,learnblock2,732.2999999523163,img/planet15_right.png,15,Community 2,NA,TRUE,j,j,NA,NA,NA,1,6,"6,7,13,12,9,8,14,10,15,4,5,2,11,3,1"
14518,commdev-image-keyboard-response,426,839905,learnblock2,994.9000000953674,img/planet8_right.png,8,Community 2,NA,TRUE,j,j,NA,NA,NA,1,6,"6,7,13,12,9,8,14,10,15,4,5,2,11,3,1"
14518,commdev-image-keyboard-response,427,841156,learnblock2,591.2000000476837,img/planet15_left.png,15,Community 2,NA,TRUE,f,f,NA,NA,NA,1,6,"6,7,13,12,9,8,14,10,15,4,5,2,11,3,1"
14518,commdev-image-keyboard-response,428,842417,learnblock2,643.8999998569489,img/planet8_right.png,8,Community 2,NA,TRUE,j,j,NA,NA,NA,1,6,"6,7,13,12,9,8,14,10,15,4,5,2,11,3,1"
14518,commdev-image-keyboard-response,429,843668,learnblock2,519,img/planet12_left.png,12,Community 1,NA,TRUE,f,f,NA,NA,NA,1,6,"6,7,13,12,9,8,14,10,15,4,5,2,11,3,1"
14518,commdev-image-keyboard-response,430,844919,learnblock2,572.6000001430511,img/planet13_left.png,13,Community 1,NA,FALSE,j,f,NA,NA,NA,1,6,"6,7,13,12,9,8,14,10,15,4,5,2,11,3,1"
14518,commdev-image-keyboard-response,431,846171,learnblock2,945,img/planet7_right.png,7,Community 1,NA,FALSE,f,j,NA,NA,NA,1,6,"6,7,13,12,9,8,14,10,15,4,5,2,11,3,1"
14518,commdev-image-keyboard-response,432,847423,learnblock2,885.6000001430511,img/planet6_right.png,6,Community 1,NA,FALSE,f,j,NA,NA,NA,1,6,"6,7,13,12,9,8,14,10,15,4,5,2,11,3,1"
14518,commdev-image-keyboard-response,433,848674,learnblock2,1009.3999998569489,img/planet9_right.png,9,Community 1,NA,TRUE,j,j,NA,NA,NA,1,6,"6,7,13,12,9,8,14,10,15,4,5,2,11,3,1"
14518,commdev-image-keyboard-response,434,849925,learnblock2,null,img/planet6_right.png,6,Community 1,NA,FALSE,null,j,NA,NA,NA,1,6,"6,7,13,12,9,8,14,10,15,4,5,2,11,3,1"
14518,commdev-image-keyboard-response,435,851176,learnblock2,915.2999999523163,img/planet9_right.png,9,Community 1,NA,TRUE,j,j,NA,NA,NA,1,6,"6,7,13,12,9,8,14,10,15,4,5,2,11,3,1"
14518,commdev-image-keyboard-response,436,852428,learnblock2,575.7999999523163,img/planet7_right.png,7,Community 1,NA,FALSE,f,j,NA,NA,NA,1,6,"6,7,13,12,9,8,14,10,15,4,5,2,11,3,1"
14518,commdev-image-keyboard-response,437,853679,learnblock2,940.5999999046326,img/planet9_left.png,9,Community 1,NA,TRUE,f,f,NA,NA,NA,1,6,"6,7,13,12,9,8,14,10,15,4,5,2,11,3,1"
14518,commdev-image-keyboard-response,438,854931,learnblock2,897.2999999523163,img/planet13_right.png,13,Community 1,NA,TRUE,j,j,NA,NA,NA,1,6,"6,7,13,12,9,8,14,10,15,4,5,2,11,3,1"
14518,commdev-image-keyboard-response,439,856182,learnblock2,829.5,img/planet7_left.png,7,Community 1,NA,TRUE,f,f,NA,NA,NA,1,6,"6,7,13,12,9,8,14,10,15,4,5,2,11,3,1"
14518,commdev-image-keyboard-response,440,857434,learnblock2,682.0999999046326,img/planet9_right.png,9,Community 1,NA,TRUE,j,j,NA,NA,NA,1,6,"6,7,13,12,9,8,14,10,15,4,5,2,11,3,1"
14518,commdev-image-keyboard-response,441,858686,learnblock2,814,img/planet7_right.png,7,Community 1,NA,TRUE,j,j,NA,NA,NA,1,6,"6,7,13,12,9,8,14,10,15,4,5,2,11,3,1"
14518,commdev-image-keyboard-response,442,859938,learnblock2,690.1000001430511,img/planet9_right.png,9,Community 1,NA,FALSE,f,j,NA,NA,NA,1,6,"6,7,13,12,9,8,14,10,15,4,5,2,11,3,1"
14518,commdev-image-keyboard-response,443,861190,learnblock2,null,img/planet13_left.png,13,Community 1,NA,FALSE,null,f,NA,NA,NA,1,6,"6,7,13,12,9,8,14,10,15,4,5,2,11,3,1"
14518,commdev-image-keyboard-response,444,862441,learnblock2,90.30000019073486,img/planet6_right.png,6,Community 1,NA,FALSE,f,j,NA,NA,NA,1,6,"6,7,13,12,9,8,14,10,15,4,5,2,11,3,1"
14518,commdev-image-keyboard-response,445,863693,learnblock2,334.89999985694885,img/planet12_left.png,12,Community 1,NA,TRUE,f,f,NA,NA,NA,1,6,"6,7,13,12,9,8,14,10,15,4,5,2,11,3,1"
14518,commdev-image-keyboard-response,446,864945,learnblock2,331,img/planet6_left.png,6,Community 1,NA,FALSE,j,f,NA,NA,NA,1,6,"6,7,13,12,9,8,14,10,15,4,5,2,11,3,1"
14518,commdev-image-keyboard-response,447,866210,learnblock2,695.5,img/planet12_left.png,12,Community 1,NA,TRUE,f,f,NA,NA,NA,1,6,"6,7,13,12,9,8,14,10,15,4,5,2,11,3,1"
14518,commdev-image-keyboard-response,448,867461,learnblock2,1006.4000000953674,img/planet7_left.png,7,Community 1,NA,TRUE,f,f,NA,NA,NA,1,6,"6,7,13,12,9,8,14,10,15,4,5,2,11,3,1"
14518,commdev-image-keyboard-response,449,868713,learnblock2,955.0999999046326,img/planet12_right.png,12,Community 1,NA,TRUE,j,j,NA,NA,NA,1,6,"6,7,13,12,9,8,14,10,15,4,5,2,11,3,1"
14518,commdev-image-keyboard-response,450,869964,learnblock2,1103.1000001430511,img/planet7_left.png,7,Community 1,NA,TRUE,f,f,NA,NA,NA,1,6,"6,7,13,12,9,8,14,10,15,4,5,2,11,3,1"
14518,commdev-image-keyboard-response,451,871216,learnblock2,668.5,img/planet9_right.png,9,Community 1,NA,TRUE,j,j,NA,NA,NA,1,6,"6,7,13,12,9,8,14,10,15,4,5,2,11,3,1"
14518,commdev-image-keyboard-response,452,872469,learnblock2,1072.2999999523163,img/planet13_left.png,13,Community 1,NA,TRUE,f,f,NA,NA,NA,1,6,"6,7,13,12,9,8,14,10,15,4,5,2,11,3,1"
14518,commdev-image-keyboard-response,453,873720,learnblock2,995.5,img/planet7_right.png,7,Community 1,NA,TRUE,j,j,NA,NA,NA,1,6,"6,7,13,12,9,8,14,10,15,4,5,2,11,3,1"
14518,commdev-image-keyboard-response,454,874972,learnblock2,856.0999999046326,img/planet12_right.png,12,Community 1,NA,FALSE,f,j,NA,NA,NA,1,6,"6,7,13,12,9,8,14,10,15,4,5,2,11,3,1"
14518,commdev-image-keyboard-response,455,876224,learnblock2,868.6000001430511,img/planet8_right.png,8,Community 2,NA,TRUE,j,j,NA,NA,NA,1,6,"6,7,13,12,9,8,14,10,15,4,5,2,11,3,1"
14518,commdev-image-keyboard-response,456,877475,learnblock2,744.1000001430511,img/planet15_right.png,15,Community 2,NA,TRUE,j,j,NA,NA,NA,1,6,"6,7,13,12,9,8,14,10,15,4,5,2,11,3,1"
14518,commdev-image-keyboard-response,457,878727,learnblock2,981.6999998092651,img/planet4_right.png,4,Community 2,NA,TRUE,j,j,NA,NA,NA,1,6,"6,7,13,12,9,8,14,10,15,4,5,2,11,3,1"
14518,commdev-image-keyboard-response,458,879979,learnblock2,1137.1999998092651,img/planet15_right.png,15,Community 2,NA,TRUE,j,j,NA,NA,NA,1,6,"6,7,13,12,9,8,14,10,15,4,5,2,11,3,1"
14518,commdev-image-keyboard-response,459,881231,learnblock2,916.9000000953674,img/planet8_left.png,8,Community 2,NA,TRUE,f,f,NA,NA,NA,1,6,"6,7,13,12,9,8,14,10,15,4,5,2,11,3,1"
14518,commdev-image-keyboard-response,460,882483,learnblock2,1041.1000001430511,img/planet12_right.png,12,Community 1,NA,TRUE,j,j,NA,NA,NA,1,6,"6,7,13,12,9,8,14,10,15,4,5,2,11,3,1"
14518,commdev-image-keyboard-response,461,883735,learnblock2,1197.0999999046326,img/planet13_right.png,13,Community 1,NA,TRUE,j,j,NA,NA,NA,1,6,"6,7,13,12,9,8,14,10,15,4,5,2,11,3,1"
14518,commdev-image-keyboard-response,462,884985,learnblock2,937.7999999523163,img/planet9_left.png,9,Community 1,NA,TRUE,f,f,NA,NA,NA,1,6,"6,7,13,12,9,8,14,10,15,4,5,2,11,3,1"
14518,commdev-image-keyboard-response,463,886238,learnblock2,1031.2000000476837,img/planet13_right.png,13,Community 1,NA,TRUE,j,j,NA,NA,NA,1,6,"6,7,13,12,9,8,14,10,15,4,5,2,11,3,1"
14518,commdev-image-keyboard-response,464,887498,learnblock2,891.1000001430511,img/planet12_left.png,12,Community 1,NA,TRUE,f,f,NA,NA,NA,1,6,"6,7,13,12,9,8,14,10,15,4,5,2,11,3,1"
14518,commdev-image-keyboard-response,465,888751,learnblock2,null,img/planet7_left.png,7,Community 1,NA,FALSE,null,f,NA,NA,NA,1,6,"6,7,13,12,9,8,14,10,15,4,5,2,11,3,1"
14518,commdev-image-keyboard-response,466,890002,learnblock2,249.70000004768372,img/planet13_left.png,13,Community 1,NA,TRUE,f,f,NA,NA,NA,1,6,"6,7,13,12,9,8,14,10,15,4,5,2,11,3,1"
14518,commdev-image-keyboard-response,467,891254,learnblock2,406.2000000476837,img/planet6_left.png,6,Community 1,NA,TRUE,f,f,NA,NA,NA,1,6,"6,7,13,12,9,8,14,10,15,4,5,2,11,3,1"
14518,commdev-image-keyboard-response,468,892506,learnblock2,314.40000009536743,img/planet9_right.png,9,Community 1,NA,TRUE,j,j,NA,NA,NA,1,6,"6,7,13,12,9,8,14,10,15,4,5,2,11,3,1"
14518,commdev-image-keyboard-response,469,893757,learnblock2,277.89999985694885,img/planet5_left.png,5,Community 3,NA,TRUE,f,f,NA,NA,NA,1,6,"6,7,13,12,9,8,14,10,15,4,5,2,11,3,1"
14518,commdev-image-keyboard-response,470,895009,learnblock2,619.4000000953674,img/planet3_left.png,3,Community 3,NA,FALSE,j,f,NA,NA,NA,1,6,"6,7,13,12,9,8,14,10,15,4,5,2,11,3,1"
14518,commdev-image-keyboard-response,471,896260,learnblock2,639.3999998569489,img/planet1_right.png,1,Community 3,NA,FALSE,f,j,NA,NA,NA,1,6,"6,7,13,12,9,8,14,10,15,4,5,2,11,3,1"
14518,commdev-image-keyboard-response,472,897511,learnblock2,876.7999999523163,img/planet5_left.png,5,Community 3,NA,TRUE,f,f,NA,NA,NA,1,6,"6,7,13,12,9,8,14,10,15,4,5,2,11,3,1"
14518,commdev-image-keyboard-response,473,898763,learnblock2,712.6999998092651,img/planet3_right.png,3,Community 3,NA,TRUE,j,j,NA,NA,NA,1,6,"6,7,13,12,9,8,14,10,15,4,5,2,11,3,1"
14518,commdev-image-keyboard-response,474,900014,learnblock2,597.3999998569489,img/planet2_left.png,2,Community 3,NA,TRUE,f,f,NA,NA,NA,1,6,"6,7,13,12,9,8,14,10,15,4,5,2,11,3,1"
14518,commdev-image-keyboard-response,475,901265,learnblock2,795,img/planet3_right.png,3,Community 3,NA,TRUE,j,j,NA,NA,NA,1,6,"6,7,13,12,9,8,14,10,15,4,5,2,11,3,1"
14518,commdev-image-keyboard-response,476,902516,learnblock2,494.7999999523163,img/planet2_left.png,2,Community 3,NA,TRUE,f,f,NA,NA,NA,1,6,"6,7,13,12,9,8,14,10,15,4,5,2,11,3,1"
14518,commdev-image-keyboard-response,477,903767,learnblock2,275.7000000476837,img/planet10_right.png,10,Community 2,NA,TRUE,j,j,NA,NA,NA,1,6,"6,7,13,12,9,8,14,10,15,4,5,2,11,3,1"
14518,commdev-image-keyboard-response,478,905019,learnblock2,256.5,img/planet2_left.png,2,Community 3,NA,TRUE,f,f,NA,NA,NA,1,6,"6,7,13,12,9,8,14,10,15,4,5,2,11,3,1"
14518,commdev-image-keyboard-response,479,906271,learnblock2,300.89999985694885,img/planet11_right.png,11,Community 3,NA,TRUE,j,j,NA,NA,NA,1,6,"6,7,13,12,9,8,14,10,15,4,5,2,11,3,1"
14518,commdev-image-keyboard-response,480,907522,learnblock2,585.2999999523163,img/planet5_left.png,5,Community 3,NA,TRUE,f,f,NA,NA,NA,1,6,"6,7,13,12,9,8,14,10,15,4,5,2,11,3,1"
14518,commdev-image-keyboard-response,481,908773,learnblock2,790.1000001430511,img/planet3_left.png,3,Community 3,NA,FALSE,j,f,NA,NA,NA,1,6,"6,7,13,12,9,8,14,10,15,4,5,2,11,3,1"
14518,commdev-image-keyboard-response,482,910024,learnblock2,691.1000001430511,img/planet5_right.png,5,Community 3,NA,TRUE,j,j,NA,NA,NA,1,6,"6,7,13,12,9,8,14,10,15,4,5,2,11,3,1"
14518,commdev-image-keyboard-response,483,911275,learnblock2,1240.3999998569489,img/planet1_right.png,1,Community 3,NA,TRUE,j,j,NA,NA,NA,1,6,"6,7,13,12,9,8,14,10,15,4,5,2,11,3,1"
14518,commdev-image-keyboard-response,484,912526,learnblock2,869.4000000953674,img/planet3_right.png,3,Community 3,NA,FALSE,f,j,NA,NA,NA,1,6,"6,7,13,12,9,8,14,10,15,4,5,2,11,3,1"
14518,commdev-image-keyboard-response,485,913776,learnblock2,null,img/planet11_left.png,11,Community 3,NA,FALSE,null,f,NA,NA,NA,1,6,"6,7,13,12,9,8,14,10,15,4,5,2,11,3,1"
14518,commdev-image-keyboard-response,486,915028,learnblock2,null,img/planet3_left.png,3,Community 3,NA,FALSE,null,f,NA,NA,NA,1,6,"6,7,13,12,9,8,14,10,15,4,5,2,11,3,1"
14518,commdev-image-keyboard-response,487,916280,learnblock2,null,img/planet1_left.png,1,Community 3,NA,FALSE,null,f,NA,NA,NA,1,6,"6,7,13,12,9,8,14,10,15,4,5,2,11,3,1"
14518,commdev-image-keyboard-response,488,917531,learnblock2,360.2000000476837,img/planet5_left.png,5,Community 3,NA,FALSE,j,f,NA,NA,NA,1,6,"6,7,13,12,9,8,14,10,15,4,5,2,11,3,1"
14518,commdev-image-keyboard-response,489,918783,learnblock2,180.29999995231628,img/planet11_left.png,11,Community 3,NA,FALSE,j,f,NA,NA,NA,1,6,"6,7,13,12,9,8,14,10,15,4,5,2,11,3,1"
14518,commdev-image-keyboard-response,490,920044,learnblock2,616.9000000953674,img/planet3_left.png,3,Community 3,NA,FALSE,j,f,NA,NA,NA,1,6,"6,7,13,12,9,8,14,10,15,4,5,2,11,3,1"
14518,commdev-image-keyboard-response,491,921295,learnblock2,115.80000019073486,img/planet5_right.png,5,Community 3,NA,TRUE,j,j,NA,NA,NA,1,6,"6,7,13,12,9,8,14,10,15,4,5,2,11,3,1"
14518,commdev-image-keyboard-response,492,922546,learnblock2,34.299999952316284,img/planet11_left.png,11,Community 3,NA,FALSE,j,f,NA,NA,NA,1,6,"6,7,13,12,9,8,14,10,15,4,5,2,11,3,1"
14518,commdev-image-keyboard-response,493,923798,learnblock2,1181.7000000476837,img/planet1_left.png,1,Community 3,NA,FALSE,j,f,NA,NA,NA,1,6,"6,7,13,12,9,8,14,10,15,4,5,2,11,3,1"
14518,commdev-image-keyboard-response,494,925049,learnblock2,490.2000000476837,img/planet3_right.png,3,Community 3,NA,TRUE,j,j,NA,NA,NA,1,6,"6,7,13,12,9,8,14,10,15,4,5,2,11,3,1"
14518,commdev-image-keyboard-response,495,926304,learnblock2,670.5,img/planet2_left.png,2,Community 3,NA,TRUE,f,f,NA,NA,NA,1,6,"6,7,13,12,9,8,14,10,15,4,5,2,11,3,1"
14518,commdev-image-keyboard-response,496,927555,learnblock2,1032.2000000476837,img/planet11_right.png,11,Community 3,NA,TRUE,j,j,NA,NA,NA,1,6,"6,7,13,12,9,8,14,10,15,4,5,2,11,3,1"
14518,commdev-image-keyboard-response,497,928807,learnblock2,693.2999999523163,img/planet3_right.png,3,Community 3,NA,FALSE,f,j,NA,NA,NA,1,6,"6,7,13,12,9,8,14,10,15,4,5,2,11,3,1"
14518,commdev-image-keyboard-response,498,930058,learnblock2,1233.2000000476837,img/planet11_left.png,11,Community 3,NA,TRUE,f,f,NA,NA,NA,1,6,"6,7,13,12,9,8,14,10,15,4,5,2,11,3,1"
14518,commdev-image-keyboard-response,499,931310,learnblock2,1006.2999999523163,img/planet3_right.png,3,Community 3,NA,TRUE,j,j,NA,NA,NA,1,6,"6,7,13,12,9,8,14,10,15,4,5,2,11,3,1"
14518,commdev-image-keyboard-response,500,932561,learnblock2,1097.7999999523163,img/planet2_right.png,2,Community 3,NA,TRUE,j,j,NA,NA,NA,1,6,"6,7,13,12,9,8,14,10,15,4,5,2,11,3,1"
14518,commdev-image-keyboard-response,501,933812,learnblock2,798.9000000953674,img/planet10_left.png,10,Community 2,NA,TRUE,f,f,NA,NA,NA,1,6,"6,7,13,12,9,8,14,10,15,4,5,2,11,3,1"
14518,commdev-image-keyboard-response,502,935064,learnblock2,892.7000000476837,img/planet15_right.png,15,Community 2,NA,TRUE,j,j,NA,NA,NA,1,6,"6,7,13,12,9,8,14,10,15,4,5,2,11,3,1"
14518,commdev-image-keyboard-response,503,936315,learnblock2,848,img/planet8_right.png,8,Community 2,NA,FALSE,f,j,NA,NA,NA,1,6,"6,7,13,12,9,8,14,10,15,4,5,2,11,3,1"
14518,commdev-image-keyboard-response,504,937566,learnblock2,1085.4000000953674,img/planet15_right.png,15,Community 2,NA,FALSE,f,j,NA,NA,NA,1,6,"6,7,13,12,9,8,14,10,15,4,5,2,11,3,1"
14518,commdev-image-keyboard-response,505,938817,learnblock2,586.0999999046326,img/planet4_right.png,4,Community 2,NA,TRUE,j,j,NA,NA,NA,1,6,"6,7,13,12,9,8,14,10,15,4,5,2,11,3,1"
14518,commdev-image-keyboard-response,506,940068,learnblock2,279,img/planet14_left.png,14,Community 2,NA,TRUE,f,f,NA,NA,NA,1,6,"6,7,13,12,9,8,14,10,15,4,5,2,11,3,1"
14518,commdev-image-keyboard-response,507,941320,learnblock2,204.20000004768372,img/planet15_left.png,15,Community 2,NA,FALSE,j,f,NA,NA,NA,1,6,"6,7,13,12,9,8,14,10,15,4,5,2,11,3,1"
14518,commdev-image-keyboard-response,508,942583,learnblock2,216.39999985694885,img/planet4_right.png,4,Community 2,NA,FALSE,f,j,NA,NA,NA,1,6,"6,7,13,12,9,8,14,10,15,4,5,2,11,3,1"
14518,commdev-image-keyboard-response,509,943834,learnblock2,240.89999985694885,img/planet14_left.png,14,Community 2,NA,FALSE,j,f,NA,NA,NA,1,6,"6,7,13,12,9,8,14,10,15,4,5,2,11,3,1"
14518,commdev-image-keyboard-response,510,945086,learnblock2,317.39999985694885,img/planet4_left.png,4,Community 2,NA,TRUE,f,f,NA,NA,NA,1,6,"6,7,13,12,9,8,14,10,15,4,5,2,11,3,1"
14518,commdev-image-keyboard-response,511,946337,learnblock2,602,img/planet10_right.png,10,Community 2,NA,TRUE,j,j,NA,NA,NA,1,6,"6,7,13,12,9,8,14,10,15,4,5,2,11,3,1"
14518,commdev-image-keyboard-response,512,947589,learnblock2,302.7000000476837,img/planet14_right.png,14,Community 2,NA,FALSE,f,j,NA,NA,NA,1,6,"6,7,13,12,9,8,14,10,15,4,5,2,11,3,1"
14518,commdev-image-keyboard-response,513,948840,learnblock2,307.40000009536743,img/planet10_left.png,10,Community 2,NA,FALSE,j,f,NA,NA,NA,1,6,"6,7,13,12,9,8,14,10,15,4,5,2,11,3,1"
14518,commdev-image-keyboard-response,514,950092,learnblock2,72,img/planet14_right.png,14,Community 2,NA,FALSE,f,j,NA,NA,NA,1,6,"6,7,13,12,9,8,14,10,15,4,5,2,11,3,1"
14518,commdev-image-keyboard-response,515,951344,learnblock2,84,img/planet4_left.png,4,Community 2,NA,TRUE,f,f,NA,NA,NA,1,6,"6,7,13,12,9,8,14,10,15,4,5,2,11,3,1"
14518,commdev-image-keyboard-response,516,952596,learnblock2,96,img/planet15_right.png,15,Community 2,NA,TRUE,j,j,NA,NA,NA,1,6,"6,7,13,12,9,8,14,10,15,4,5,2,11,3,1"
14518,commdev-image-keyboard-response,517,953846,learnblock2,196.29999995231628,img/planet8_right.png,8,Community 2,NA,FALSE,f,j,NA,NA,NA,1,6,"6,7,13,12,9,8,14,10,15,4,5,2,11,3,1"
14518,commdev-image-keyboard-response,518,955098,learnblock2,217.40000009536743,img/planet12_left.png,12,Community 1,NA,FALSE,j,f,NA,NA,NA,1,6,"6,7,13,12,9,8,14,10,15,4,5,2,11,3,1"
14518,commdev-image-keyboard-response,519,956349,learnblock2,141.59999990463257,img/planet8_right.png,8,Community 2,NA,FALSE,f,j,NA,NA,NA,1,6,"6,7,13,12,9,8,14,10,15,4,5,2,11,3,1"
14518,commdev-image-keyboard-response,520,957601,learnblock2,218.5,img/planet15_left.png,15,Community 2,NA,FALSE,j,f,NA,NA,NA,1,6,"6,7,13,12,9,8,14,10,15,4,5,2,11,3,1"
14518,commdev-image-keyboard-response,521,958852,learnblock2,255.29999995231628,img/planet8_right.png,8,Community 2,NA,TRUE,j,j,NA,NA,NA,1,6,"6,7,13,12,9,8,14,10,15,4,5,2,11,3,1"
14518,commdev-image-keyboard-response,522,960104,learnblock2,267.89999985694885,img/planet4_right.png,4,Community 2,NA,FALSE,f,j,NA,NA,NA,1,6,"6,7,13,12,9,8,14,10,15,4,5,2,11,3,1"
14518,commdev-image-keyboard-response,523,961355,learnblock2,512.2000000476837,img/planet10_left.png,10,Community 2,NA,FALSE,j,f,NA,NA,NA,1,6,"6,7,13,12,9,8,14,10,15,4,5,2,11,3,1"
14518,commdev-image-keyboard-response,524,962606,learnblock2,437.40000009536743,img/planet15_right.png,15,Community 2,NA,FALSE,f,j,NA,NA,NA,1,6,"6,7,13,12,9,8,14,10,15,4,5,2,11,3,1"
14518,commdev-image-keyboard-response,525,963857,learnblock2,610.0999999046326,img/planet10_right.png,10,Community 2,NA,TRUE,j,j,NA,NA,NA,1,6,"6,7,13,12,9,8,14,10,15,4,5,2,11,3,1"
14518,commdev-image-keyboard-response,526,965108,learnblock2,1111.1000001430511,img/planet15_left.png,15,Community 2,NA,FALSE,j,f,NA,NA,NA,1,6,"6,7,13,12,9,8,14,10,15,4,5,2,11,3,1"
14518,commdev-image-keyboard-response,527,966359,learnblock2,700.2999999523163,img/planet10_right.png,10,Community 2,NA,FALSE,f,j,NA,NA,NA,1,6,"6,7,13,12,9,8,14,10,15,4,5,2,11,3,1"
14518,commdev-image-keyboard-response,528,967611,learnblock2,296.7999999523163,img/planet4_right.png,4,Community 2,NA,FALSE,f,j,NA,NA,NA,1,6,"6,7,13,12,9,8,14,10,15,4,5,2,11,3,1"
14518,commdev-image-keyboard-response,529,968863,learnblock2,null,img/planet8_right.png,8,Community 2,NA,FALSE,null,j,NA,NA,NA,1,6,"6,7,13,12,9,8,14,10,15,4,5,2,11,3,1"
14518,commdev-image-keyboard-response,530,970114,learnblock2,857.0999999046326,img/planet14_right.png,14,Community 2,NA,TRUE,j,j,NA,NA,NA,1,6,"6,7,13,12,9,8,14,10,15,4,5,2,11,3,1"
14518,commdev-image-keyboard-response,531,971365,learnblock2,326.39999985694885,img/planet4_right.png,4,Community 2,NA,FALSE,f,j,NA,NA,NA,1,6,"6,7,13,12,9,8,14,10,15,4,5,2,11,3,1"
14518,commdev-image-keyboard-response,532,972615,learnblock2,795.3000001907349,img/planet15_left.png,15,Community 2,NA,TRUE,f,f,NA,NA,NA,1,6,"6,7,13,12,9,8,14,10,15,4,5,2,11,3,1"
14518,commdev-image-keyboard-response,533,973866,learnblock2,768.7000000476837,img/planet14_left.png,14,Community 2,NA,FALSE,j,f,NA,NA,NA,1,6,"6,7,13,12,9,8,14,10,15,4,5,2,11,3,1"
14518,commdev-image-keyboard-response,534,975117,learnblock2,797.7999999523163,img/planet4_left.png,4,Community 2,NA,TRUE,f,f,NA,NA,NA,1,6,"6,7,13,12,9,8,14,10,15,4,5,2,11,3,1"
14518,commdev-image-keyboard-response,535,976369,learnblock2,570.6000001430511,img/planet10_right.png,10,Community 2,NA,TRUE,j,j,NA,NA,NA,1,6,"6,7,13,12,9,8,14,10,15,4,5,2,11,3,1"
14518,commdev-image-keyboard-response,536,977620,learnblock2,831.5,img/planet14_left.png,14,Community 2,NA,TRUE,f,f,NA,NA,NA,1,6,"6,7,13,12,9,8,14,10,15,4,5,2,11,3,1"
14518,commdev-image-keyboard-response,537,978871,learnblock2,716.0999999046326,img/planet8_right.png,8,Community 2,NA,TRUE,j,j,NA,NA,NA,1,6,"6,7,13,12,9,8,14,10,15,4,5,2,11,3,1"
14518,commdev-image-keyboard-response,538,980122,learnblock2,1001.8999998569489,img/planet15_right.png,15,Community 2,NA,TRUE,j,j,NA,NA,NA,1,6,"6,7,13,12,9,8,14,10,15,4,5,2,11,3,1"
14518,commdev-image-keyboard-response,539,981374,learnblock2,822,img/planet10_right.png,10,Community 2,NA,TRUE,j,j,NA,NA,NA,1,6,"6,7,13,12,9,8,14,10,15,4,5,2,11,3,1"
14518,commdev-image-keyboard-response,540,982626,learnblock2,1057.2999999523163,img/planet15_right.png,15,Community 2,NA,TRUE,j,j,NA,NA,NA,1,6,"6,7,13,12,9,8,14,10,15,4,5,2,11,3,1"
14518,commdev-image-keyboard-response,541,983877,learnblock2,989.6000001430511,img/planet14_left.png,14,Community 2,NA,TRUE,f,f,NA,NA,NA,1,6,"6,7,13,12,9,8,14,10,15,4,5,2,11,3,1"
14518,commdev-image-keyboard-response,542,985129,learnblock2,658.8000001907349,img/planet8_right.png,8,Community 2,NA,TRUE,j,j,NA,NA,NA,1,6,"6,7,13,12,9,8,14,10,15,4,5,2,11,3,1"
14518,commdev-image-keyboard-response,543,986381,learnblock2,943.3000001907349,img/planet12_right.png,12,Community 1,NA,TRUE,j,j,NA,NA,NA,1,6,"6,7,13,12,9,8,14,10,15,4,5,2,11,3,1"
14518,commdev-image-keyboard-response,544,987632,learnblock2,1115.5,img/planet7_left.png,7,Community 1,NA,TRUE,f,f,NA,NA,NA,1,6,"6,7,13,12,9,8,14,10,15,4,5,2,11,3,1"
14518,commdev-image-keyboard-response,545,988893,learnblock2,728.2999999523163,img/planet12_right.png,12,Community 1,NA,TRUE,j,j,NA,NA,NA,1,6,"6,7,13,12,9,8,14,10,15,4,5,2,11,3,1"
14518,commdev-image-keyboard-response,546,990146,learnblock2,986.6000001430511,img/planet8_left.png,8,Community 2,NA,TRUE,f,f,NA,NA,NA,1,6,"6,7,13,12,9,8,14,10,15,4,5,2,11,3,1"
14518,commdev-image-keyboard-response,547,991397,learnblock2,645.6999998092651,img/planet14_left.png,14,Community 2,NA,FALSE,j,f,NA,NA,NA,1,6,"6,7,13,12,9,8,14,10,15,4,5,2,11,3,1"
14518,commdev-image-keyboard-response,548,992648,learnblock2,659.2000000476837,img/planet15_right.png,15,Community 2,NA,FALSE,f,j,NA,NA,NA,1,6,"6,7,13,12,9,8,14,10,15,4,5,2,11,3,1"
14518,commdev-image-keyboard-response,549,993899,learnblock2,575.8999998569489,img/planet8_left.png,8,Community 2,NA,FALSE,j,f,NA,NA,NA,1,6,"6,7,13,12,9,8,14,10,15,4,5,2,11,3,1"
14518,commdev-image-keyboard-response,550,995151,learnblock2,556.5999999046326,img/planet14_left.png,14,Community 2,NA,FALSE,j,f,NA,NA,NA,1,6,"6,7,13,12,9,8,14,10,15,4,5,2,11,3,1"
14518,commdev-image-keyboard-response,551,996403,learnblock2,920.7999999523163,img/planet10_right.png,10,Community 2,NA,TRUE,j,j,NA,NA,NA,1,6,"6,7,13,12,9,8,14,10,15,4,5,2,11,3,1"
14518,commdev-image-keyboard-response,552,997654,learnblock2,876.7000000476837,img/planet4_right.png,4,Community 2,NA,FALSE,f,j,NA,NA,NA,1,6,"6,7,13,12,9,8,14,10,15,4,5,2,11,3,1"
14518,commdev-image-keyboard-response,553,998905,learnblock2,713.4000000953674,img/planet15_right.png,15,Community 2,NA,TRUE,j,j,NA,NA,NA,1,6,"6,7,13,12,9,8,14,10,15,4,5,2,11,3,1"
14518,commdev-image-keyboard-response,554,1000157,learnblock2,382.2000000476837,img/planet10_right.png,10,Community 2,NA,FALSE,f,j,NA,NA,NA,1,6,"6,7,13,12,9,8,14,10,15,4,5,2,11,3,1"
14518,commdev-image-keyboard-response,555,1001408,learnblock2,603.1000001430511,img/planet2_left.png,2,Community 3,NA,FALSE,j,f,NA,NA,NA,1,6,"6,7,13,12,9,8,14,10,15,4,5,2,11,3,1"
14518,commdev-image-keyboard-response,556,1002660,learnblock2,743.2000000476837,img/planet3_right.png,3,Community 3,NA,TRUE,j,j,NA,NA,NA,1,6,"6,7,13,12,9,8,14,10,15,4,5,2,11,3,1"
14518,commdev-image-keyboard-response,557,1003911,learnblock2,null,img/planet1_left.png,1,Community 3,NA,FALSE,null,f,NA,NA,NA,1,6,"6,7,13,12,9,8,14,10,15,4,5,2,11,3,1"
14518,commdev-image-keyboard-response,558,1005162,learnblock2,1161.0999999046326,img/planet5_left.png,5,Community 3,NA,TRUE,f,f,NA,NA,NA,1,6,"6,7,13,12,9,8,14,10,15,4,5,2,11,3,1"
14518,commdev-image-keyboard-response,559,1006413,learnblock2,693.7999999523163,img/planet9_right.png,9,Community 1,NA,TRUE,j,j,NA,NA,NA,1,6,"6,7,13,12,9,8,14,10,15,4,5,2,11,3,1"
14518,commdev-image-keyboard-response,560,1007665,learnblock2,250.40000009536743,img/planet6_left.png,6,Community 1,NA,TRUE,f,f,NA,NA,NA,1,6,"6,7,13,12,9,8,14,10,15,4,5,2,11,3,1"
14518,commdev-image-keyboard-response,561,1008928,learnblock2,214.90000009536743,img/planet12_right.png,12,Community 1,NA,TRUE,j,j,NA,NA,NA,1,6,"6,7,13,12,9,8,14,10,15,4,5,2,11,3,1"
14518,commdev-image-keyboard-response,562,1010182,learnblock2,263.39999985694885,img/planet6_left.png,6,Community 1,NA,TRUE,f,f,NA,NA,NA,1,6,"6,7,13,12,9,8,14,10,15,4,5,2,11,3,1"
14518,commdev-image-keyboard-response,563,1011435,learnblock2,273.2000000476837,img/planet7_right.png,7,Community 1,NA,TRUE,j,j,NA,NA,NA,1,6,"6,7,13,12,9,8,14,10,15,4,5,2,11,3,1"
14518,commdev-image-keyboard-response,564,1012686,learnblock2,1125.5999999046326,img/planet9_left.png,9,Community 1,NA,TRUE,f,f,NA,NA,NA,1,6,"6,7,13,12,9,8,14,10,15,4,5,2,11,3,1"
14518,commdev-image-keyboard-response,565,1013938,learnblock2,841.5999999046326,img/planet7_left.png,7,Community 1,NA,FALSE,j,f,NA,NA,NA,1,6,"6,7,13,12,9,8,14,10,15,4,5,2,11,3,1"
14518,commdev-image-keyboard-response,566,1015190,learnblock2,949.8999998569489,img/planet13_left.png,13,Community 1,NA,TRUE,f,f,NA,NA,NA,1,6,"6,7,13,12,9,8,14,10,15,4,5,2,11,3,1"
14518,commdev-image-keyboard-response,567,1016441,learnblock2,1186,img/planet6_left.png,6,Community 1,NA,FALSE,j,f,NA,NA,NA,1,6,"6,7,13,12,9,8,14,10,15,4,5,2,11,3,1"
14518,commdev-image-keyboard-response,568,1017692,learnblock2,null,img/planet7_left.png,7,Community 1,NA,FALSE,null,f,NA,NA,NA,1,6,"6,7,13,12,9,8,14,10,15,4,5,2,11,3,1"
14518,commdev-image-keyboard-response,569,1018943,learnblock2,null,img/planet9_left.png,9,Community 1,NA,FALSE,null,f,NA,NA,NA,1,6,"6,7,13,12,9,8,14,10,15,4,5,2,11,3,1"
14518,commdev-image-keyboard-response,570,1020194,learnblock2,704.8999998569489,img/planet6_left.png,6,Community 1,NA,TRUE,f,f,NA,NA,NA,1,6,"6,7,13,12,9,8,14,10,15,4,5,2,11,3,1"
14518,commdev-image-keyboard-response,571,1021446,learnblock2,613.1999998092651,img/planet12_left.png,12,Community 1,NA,FALSE,j,f,NA,NA,NA,1,6,"6,7,13,12,9,8,14,10,15,4,5,2,11,3,1"
14518,commdev-image-keyboard-response,572,1022696,learnblock2,1250.3000001907349,img/planet13_left.png,13,Community 1,NA,TRUE,f,f,NA,NA,NA,1,6,"6,7,13,12,9,8,14,10,15,4,5,2,11,3,1"
14518,commdev-image-keyboard-response,573,1023948,learnblock2,null,img/planet6_right.png,6,Community 1,NA,FALSE,null,j,NA,NA,NA,1,6,"6,7,13,12,9,8,14,10,15,4,5,2,11,3,1"
14518,commdev-image-keyboard-response,574,1025200,learnblock2,147.79999995231628,img/planet9_right.png,9,Community 1,NA,TRUE,j,j,NA,NA,NA,1,6,"6,7,13,12,9,8,14,10,15,4,5,2,11,3,1"
14518,commdev-image-keyboard-response,575,1026452,learnblock2,null,img/planet6_right.png,6,Community 1,NA,FALSE,null,j,NA,NA,NA,1,6,"6,7,13,12,9,8,14,10,15,4,5,2,11,3,1"
14518,commdev-image-keyboard-response,576,1027703,learnblock2,188,img/planet7_right.png,7,Community 1,NA,FALSE,f,j,NA,NA,NA,1,6,"6,7,13,12,9,8,14,10,15,4,5,2,11,3,1"
14518,commdev-image-keyboard-response,577,1028954,learnblock2,185.20000004768372,img/planet13_left.png,13,Community 1,NA,TRUE,f,f,NA,NA,NA,1,6,"6,7,13,12,9,8,14,10,15,4,5,2,11,3,1"
14518,commdev-image-keyboard-response,578,1030206,learnblock2,null,img/planet9_left.png,9,Community 1,NA,FALSE,null,f,NA,NA,NA,1,6,"6,7,13,12,9,8,14,10,15,4,5,2,11,3,1"
14518,commdev-image-keyboard-response,579,1031457,learnblock2,1098,img/planet13_left.png,13,Community 1,NA,TRUE,f,f,NA,NA,NA,1,6,"6,7,13,12,9,8,14,10,15,4,5,2,11,3,1"
14518,commdev-image-keyboard-response,580,1032709,learnblock2,318.59999990463257,img/planet7_left.png,7,Community 1,NA,FALSE,j,f,NA,NA,NA,1,6,"6,7,13,12,9,8,14,10,15,4,5,2,11,3,1"
14518,commdev-image-keyboard-response,581,1033960,learnblock2,259.5,img/planet12_left.png,12,Community 1,NA,TRUE,f,f,NA,NA,NA,1,6,"6,7,13,12,9,8,14,10,15,4,5,2,11,3,1"
14518,commdev-image-keyboard-response,582,1035211,learnblock2,447.5,img/planet13_right.png,13,Community 1,NA,FALSE,f,j,NA,NA,NA,1,6,"6,7,13,12,9,8,14,10,15,4,5,2,11,3,1"
14518,commdev-image-keyboard-response,583,1036462,learnblock2,772.5,img/planet12_right.png,12,Community 1,NA,FALSE,f,j,NA,NA,NA,1,6,"6,7,13,12,9,8,14,10,15,4,5,2,11,3,1"
14518,commdev-image-keyboard-response,584,1037714,learnblock2,953.0999999046326,img/planet8_left.png,8,Community 2,NA,TRUE,f,f,NA,NA,NA,1,6,"6,7,13,12,9,8,14,10,15,4,5,2,11,3,1"
14518,commdev-image-keyboard-response,585,1038965,learnblock2,533.9000000953674,img/planet12_right.png,12,Community 1,NA,TRUE,j,j,NA,NA,NA,1,6,"6,7,13,12,9,8,14,10,15,4,5,2,11,3,1"
