subject_id,trial_type,trial_index,time_elapsed,block,rt,stimulus,planet,community,response,correct,key_press,learning_correct_response,parse,init_locations,final_locations,browser_interactions,num_comp,planet_map
14477,commdev-instructions,7,29844,NA,4893.799999982119,"<p>In this game, you are a scientist on board a space shuttle. </p><p> On each mission, you will visit planets all across the universe.</p><img src=""img/controlroom.jpg"" width=300vw>",NA,NA,NA,NA,NA,NA,NA,NA,NA,5,6,"11,13,5,2,10,14,12,15,6,4,9,8,7,3,1"
14477,commdev-instructions,8,33143,NA,1221.0999999940395,"<p>Here are a few planets you might see:</p><img src=""img/practice1.png"" width=200vw><img src=""img/practice2.png"" width=200vw><img src=""img/practice3.png"" width=200vw>",NA,NA,NA,NA,NA,NA,NA,NA,NA,5,6,"11,13,5,2,10,14,12,15,6,4,9,8,7,3,1"
14477,commdev-instructions,9,41644,NA,1101.5,"<p>Your job as a scientist is to record which direction the winds are moving on each planet.</p><p>There are two types of wind directions:</p><img src=""img/practice1_left.png"" width=200vw><img src=""img/practice1_right.png"" width=200vw>",NA,NA,NA,NA,NA,NA,NA,NA,NA,5,6,"11,13,5,2,10,14,12,15,6,4,9,8,7,3,1"
14477,commdev-instructions,10,47760,NA,1238.9000000059605,"<p>If the winds are moving this way, press the letter <strong>F</strong> on the keyboard as fast as you can.</p><img src=""img/leftwind.png"" width=250vw>",NA,NA,NA,NA,NA,NA,NA,NA,NA,5,6,"11,13,5,2,10,14,12,15,6,4,9,8,7,3,1"
14477,commdev-instructions,11,53843,NA,1586.8999999761581,"<p>If the winds are moving this way, press the letter <strong>J</strong> on the keyboard as fast as you can.</p><img src=""img/rightwind.png"" width=350vw>",NA,NA,NA,NA,NA,NA,NA,NA,NA,5,6,"11,13,5,2,10,14,12,15,6,4,9,8,7,3,1"
14477,commdev-instructions,12,63343,NA,5073,<p>You will have 1 second to respond. Try to respond before the time runs out!,NA,NA,NA,NA,NA,NA,NA,NA,NA,5,6,"11,13,5,2,10,14,12,15,6,4,9,8,7,3,1"
14477,commdev-instructions,13,70560,NA,1788.699999988079,<p>The planets you will visit will look different from each other.</p><p>You should respond <strong>only</strong> based on wind direction.,NA,NA,NA,NA,NA,NA,NA,NA,NA,5,6,"11,13,5,2,10,14,12,15,6,4,9,8,7,3,1"
14477,commdev-instructions,14,77876,NA,2150.5999999940395,"<p> Ready to start the practice round? </p><p> Remember, press <strong>F</strong> or <strong>J</strong> depending on the wind direction.<br><img src=""img/categorize_planet_example.png""",NA,NA,NA,NA,NA,NA,NA,NA,NA,5,6,"11,13,5,2,10,14,12,15,6,4,9,8,7,3,1"
14477,commdev-instructions,26,135124,NA,2611.5999999940395,"<p>Great, now try a short practice mission. </p><p> This time, you will have 1 second to respond and you won't know whether you pressed the right or wrong key for each planet.</p>",NA,NA,NA,NA,NA,NA,NA,NA,NA,5,6,"11,13,5,2,10,14,12,15,6,4,9,8,7,3,1"
14477,commdev-image-keyboard-response,27,136479,practice,null,img/practice2_right.png,NA,Number not found in mappings,NA,FALSE,null,j,NA,NA,NA,5,6,"11,13,5,2,10,14,12,15,6,4,9,8,7,3,1"
14477,commdev-image-keyboard-response,28,137731,practice,null,img/practice1_left.png,NA,Number not found in mappings,NA,FALSE,null,f,NA,NA,NA,5,6,"11,13,5,2,10,14,12,15,6,4,9,8,7,3,1"
14477,commdev-image-keyboard-response,29,138983,practice,null,img/practice2_left.png,NA,Number not found in mappings,NA,FALSE,null,f,NA,NA,NA,5,6,"11,13,5,2,10,14,12,15,6,4,9,8,7,3,1"
14477,commdev-image-keyboard-response,30,140235,practice,null,img/practice4_left.png,NA,Number not found in mappings,NA,FALSE,null,f,NA,NA,NA,5,6,"11,13,5,2,10,14,12,15,6,4,9,8,7,3,1"
14477,commdev-image-keyboard-response,31,141487,practice,238.09999999403954,img/practice3_left.png,NA,Number not found in mappings,NA,TRUE,f,f,NA,NA,NA,5,6,"11,13,5,2,10,14,12,15,6,4,9,8,7,3,1"
14477,commdev-image-keyboard-response,32,142738,practice,null,img/practice2_left.png,NA,Number not found in mappings,NA,FALSE,null,f,NA,NA,NA,5,6,"11,13,5,2,10,14,12,15,6,4,9,8,7,3,1"
14477,commdev-image-keyboard-response,33,143989,practice,293.39999997615814,img/practice4_left.png,NA,Number not found in mappings,NA,TRUE,f,f,NA,NA,NA,5,6,"11,13,5,2,10,14,12,15,6,4,9,8,7,3,1"
14477,commdev-image-keyboard-response,34,145241,practice,774.0999999940395,img/practice2_right.png,NA,Number not found in mappings,NA,TRUE,j,j,NA,NA,NA,5,6,"11,13,5,2,10,14,12,15,6,4,9,8,7,3,1"
14477,commdev-instructions,35,157506,NA,2709.2999999821186,"<p>Great job with the practice round.</p><p>During real missions, you won't know whether you pressed the right or wrong key for each planet.</p><p>But between missions, we will tell you how you did overall.</p>",NA,NA,NA,NA,NA,NA,NA,NA,NA,5,6,"11,13,5,2,10,14,12,15,6,4,9,8,7,3,1"
14477,commdev-instructions,36,169106,NA,3360.5999999940395,<p>Try your best! You will be paid a bonus based on how many correct responses you make!</p><p>Responses that are too slow will not count toward your bonus.</p>,NA,NA,NA,NA,NA,NA,NA,NA,NA,5,6,"11,13,5,2,10,14,12,15,6,4,9,8,7,3,1"
14477,commdev-instructions,37,176388,NA,1082.8999999761581,"<p>You are almost ready to start the real game.</p><p> First, we are going to ask you some questions about how the game works.</p>",NA,NA,NA,NA,NA,NA,NA,NA,NA,5,6,"11,13,5,2,10,14,12,15,6,4,9,8,7,3,1"
14477,commdev-instructions,46,261342,NA,8645.800000011921,"<p> Nice work! It is now time to start the real game.<p></p>You will go on two missions to record wind directions of different planets.<p></p>Each one will take about 5 minutes. You will get to take a break between missions.<p><p> Remember, press <strong>F</strong> or <strong>J</strong> depending on the wind direction. Good luck!<br><img src=""img/categorize_planet_example.png""",NA,NA,NA,NA,NA,NA,NA,NA,NA,5,6,"11,13,5,2,10,14,12,15,6,4,9,8,7,3,1"
14477,commdev-image-keyboard-response,48,267600,learnblock1,null,img/planet11_right.png,11,Community 1,NA,FALSE,null,j,NA,NA,NA,5,6,"11,13,5,2,10,14,12,15,6,4,9,8,7,3,1"
14477,commdev-image-keyboard-response,49,268852,learnblock1,114.80000001192093,img/planet10_left.png,10,Community 1,NA,FALSE,j,f,NA,NA,NA,5,6,"11,13,5,2,10,14,12,15,6,4,9,8,7,3,1"
14477,commdev-image-keyboard-response,50,270104,learnblock1,1064.5,img/planet11_left.png,11,Community 1,NA,TRUE,f,f,NA,NA,NA,5,6,"11,13,5,2,10,14,12,15,6,4,9,8,7,3,1"
14477,commdev-image-keyboard-response,51,271355,learnblock1,849.7999999821186,img/planet13_right.png,13,Community 1,NA,TRUE,j,j,NA,NA,NA,5,6,"11,13,5,2,10,14,12,15,6,4,9,8,7,3,1"
14477,commdev-image-keyboard-response,52,272607,learnblock1,1072.7000000178814,img/planet11_right.png,11,Community 1,NA,TRUE,j,j,NA,NA,NA,5,6,"11,13,5,2,10,14,12,15,6,4,9,8,7,3,1"
14477,commdev-image-keyboard-response,53,273858,learnblock1,906,img/planet2_left.png,2,Community 1,NA,TRUE,f,f,NA,NA,NA,5,6,"11,13,5,2,10,14,12,15,6,4,9,8,7,3,1"
14477,commdev-image-keyboard-response,54,275110,learnblock1,1137.9000000059605,img/planet5_left.png,5,Community 1,NA,TRUE,f,f,NA,NA,NA,5,6,"11,13,5,2,10,14,12,15,6,4,9,8,7,3,1"
14477,commdev-image-keyboard-response,55,276361,learnblock1,894.5999999940395,img/planet13_left.png,13,Community 1,NA,TRUE,f,f,NA,NA,NA,5,6,"11,13,5,2,10,14,12,15,6,4,9,8,7,3,1"
14477,commdev-image-keyboard-response,56,277613,learnblock1,828.5999999940395,img/planet2_right.png,2,Community 1,NA,TRUE,j,j,NA,NA,NA,5,6,"11,13,5,2,10,14,12,15,6,4,9,8,7,3,1"
14477,commdev-image-keyboard-response,57,278865,learnblock1,943.4000000059605,img/planet5_right.png,5,Community 1,NA,TRUE,j,j,NA,NA,NA,5,6,"11,13,5,2,10,14,12,15,6,4,9,8,7,3,1"
14477,commdev-image-keyboard-response,58,280117,learnblock1,887.9000000059605,img/planet11_right.png,11,Community 1,NA,TRUE,j,j,NA,NA,NA,5,6,"11,13,5,2,10,14,12,15,6,4,9,8,7,3,1"
14477,commdev-image-keyboard-response,59,281369,learnblock1,954.8000000119209,img/planet13_left.png,13,Community 1,NA,TRUE,f,f,NA,NA,NA,5,6,"11,13,5,2,10,14,12,15,6,4,9,8,7,3,1"
14477,commdev-image-keyboard-response,60,282621,learnblock1,1038.2000000178814,img/planet5_left.png,5,Community 1,NA,TRUE,f,f,NA,NA,NA,5,6,"11,13,5,2,10,14,12,15,6,4,9,8,7,3,1"
14477,commdev-image-keyboard-response,61,283873,learnblock1,947,img/planet10_right.png,10,Community 1,NA,TRUE,j,j,NA,NA,NA,5,6,"11,13,5,2,10,14,12,15,6,4,9,8,7,3,1"
14477,commdev-image-keyboard-response,62,285124,learnblock1,803.8000000119209,img/planet5_left.png,5,Community 1,NA,TRUE,f,f,NA,NA,NA,5,6,"11,13,5,2,10,14,12,15,6,4,9,8,7,3,1"
14477,commdev-image-keyboard-response,63,286376,learnblock1,753.6999999880791,img/planet11_left.png,11,Community 1,NA,TRUE,f,f,NA,NA,NA,5,6,"11,13,5,2,10,14,12,15,6,4,9,8,7,3,1"
14477,commdev-image-keyboard-response,64,287629,learnblock1,812,img/planet2_left.png,2,Community 1,NA,TRUE,f,f,NA,NA,NA,5,6,"11,13,5,2,10,14,12,15,6,4,9,8,7,3,1"
14477,commdev-image-keyboard-response,65,288881,learnblock1,830.4000000059605,img/planet11_right.png,11,Community 1,NA,TRUE,j,j,NA,NA,NA,5,6,"11,13,5,2,10,14,12,15,6,4,9,8,7,3,1"
14477,commdev-image-keyboard-response,66,290133,learnblock1,917.7000000178814,img/planet10_left.png,10,Community 1,NA,TRUE,f,f,NA,NA,NA,5,6,"11,13,5,2,10,14,12,15,6,4,9,8,7,3,1"
14477,commdev-image-keyboard-response,67,291385,learnblock1,1050.1000000238419,img/planet5_left.png,5,Community 1,NA,TRUE,f,f,NA,NA,NA,5,6,"11,13,5,2,10,14,12,15,6,4,9,8,7,3,1"
14477,commdev-image-keyboard-response,68,292636,learnblock1,804.5,img/planet13_left.png,13,Community 1,NA,TRUE,f,f,NA,NA,NA,5,6,"11,13,5,2,10,14,12,15,6,4,9,8,7,3,1"
14477,commdev-image-keyboard-response,69,293887,learnblock1,650.0999999940395,img/planet11_right.png,11,Community 1,NA,TRUE,j,j,NA,NA,NA,5,6,"11,13,5,2,10,14,12,15,6,4,9,8,7,3,1"
14477,commdev-image-keyboard-response,70,295138,learnblock1,726.9000000059605,img/planet5_right.png,5,Community 1,NA,FALSE,f,j,NA,NA,NA,5,6,"11,13,5,2,10,14,12,15,6,4,9,8,7,3,1"
14477,commdev-image-keyboard-response,71,296390,learnblock1,973.7999999821186,img/planet2_right.png,2,Community 1,NA,TRUE,j,j,NA,NA,NA,5,6,"11,13,5,2,10,14,12,15,6,4,9,8,7,3,1"
14477,commdev-image-keyboard-response,72,297642,learnblock1,1042.1000000238419,img/planet14_right.png,14,Community 2,NA,TRUE,j,j,NA,NA,NA,5,6,"11,13,5,2,10,14,12,15,6,4,9,8,7,3,1"
14477,commdev-image-keyboard-response,73,298893,learnblock1,847.9000000059605,img/planet2_right.png,2,Community 1,NA,TRUE,j,j,NA,NA,NA,5,6,"11,13,5,2,10,14,12,15,6,4,9,8,7,3,1"
14477,commdev-image-keyboard-response,74,300145,learnblock1,851.5999999940395,img/planet13_left.png,13,Community 1,NA,TRUE,f,f,NA,NA,NA,5,6,"11,13,5,2,10,14,12,15,6,4,9,8,7,3,1"
14477,commdev-image-keyboard-response,75,301397,learnblock1,1057.4000000059605,img/planet5_left.png,5,Community 1,NA,TRUE,f,f,NA,NA,NA,5,6,"11,13,5,2,10,14,12,15,6,4,9,8,7,3,1"
14477,commdev-image-keyboard-response,76,302649,learnblock1,834.5999999940395,img/planet13_left.png,13,Community 1,NA,TRUE,f,f,NA,NA,NA,5,6,"11,13,5,2,10,14,12,15,6,4,9,8,7,3,1"
14477,commdev-image-keyboard-response,77,303901,learnblock1,889.7000000178814,img/planet5_right.png,5,Community 1,NA,TRUE,j,j,NA,NA,NA,5,6,"11,13,5,2,10,14,12,15,6,4,9,8,7,3,1"
14477,commdev-image-keyboard-response,78,305152,learnblock1,758.2999999821186,img/planet10_right.png,10,Community 1,NA,TRUE,j,j,NA,NA,NA,5,6,"11,13,5,2,10,14,12,15,6,4,9,8,7,3,1"
14477,commdev-image-keyboard-response,79,306404,learnblock1,956,img/planet5_right.png,5,Community 1,NA,TRUE,j,j,NA,NA,NA,5,6,"11,13,5,2,10,14,12,15,6,4,9,8,7,3,1"
14477,commdev-image-keyboard-response,80,307656,learnblock1,782.6999999880791,img/planet11_left.png,11,Community 1,NA,TRUE,f,f,NA,NA,NA,5,6,"11,13,5,2,10,14,12,15,6,4,9,8,7,3,1"
14477,commdev-image-keyboard-response,81,308907,learnblock1,822.5,img/planet13_right.png,13,Community 1,NA,TRUE,j,j,NA,NA,NA,5,6,"11,13,5,2,10,14,12,15,6,4,9,8,7,3,1"
14477,commdev-image-keyboard-response,82,310158,learnblock1,788.3000000119209,img/planet10_right.png,10,Community 1,NA,TRUE,j,j,NA,NA,NA,5,6,"11,13,5,2,10,14,12,15,6,4,9,8,7,3,1"
14477,commdev-image-keyboard-response,83,311409,learnblock1,769.6999999880791,img/planet11_left.png,11,Community 1,NA,TRUE,f,f,NA,NA,NA,5,6,"11,13,5,2,10,14,12,15,6,4,9,8,7,3,1"
14477,commdev-image-keyboard-response,84,312661,learnblock1,798.1000000238419,img/planet13_right.png,13,Community 1,NA,TRUE,j,j,NA,NA,NA,5,6,"11,13,5,2,10,14,12,15,6,4,9,8,7,3,1"
14477,commdev-image-keyboard-response,85,313913,learnblock1,667.7000000178814,img/planet11_right.png,11,Community 1,NA,TRUE,j,j,NA,NA,NA,5,6,"11,13,5,2,10,14,12,15,6,4,9,8,7,3,1"
14477,commdev-image-keyboard-response,86,315165,learnblock1,821.1000000238419,img/planet2_left.png,2,Community 1,NA,TRUE,f,f,NA,NA,NA,5,6,"11,13,5,2,10,14,12,15,6,4,9,8,7,3,1"
14477,commdev-image-keyboard-response,87,316416,learnblock1,867.2000000178814,img/planet5_left.png,5,Community 1,NA,TRUE,f,f,NA,NA,NA,5,6,"11,13,5,2,10,14,12,15,6,4,9,8,7,3,1"
14477,commdev-image-keyboard-response,88,317668,learnblock1,797.7999999821186,img/planet11_left.png,11,Community 1,NA,TRUE,f,f,NA,NA,NA,5,6,"11,13,5,2,10,14,12,15,6,4,9,8,7,3,1"
14477,commdev-image-keyboard-response,89,318920,learnblock1,897.5,img/planet5_right.png,5,Community 1,NA,TRUE,j,j,NA,NA,NA,5,6,"11,13,5,2,10,14,12,15,6,4,9,8,7,3,1"
14477,commdev-image-keyboard-response,90,320171,learnblock1,751.8000000119209,img/planet11_right.png,11,Community 1,NA,TRUE,j,j,NA,NA,NA,5,6,"11,13,5,2,10,14,12,15,6,4,9,8,7,3,1"
14477,commdev-image-keyboard-response,91,321423,learnblock1,701,img/planet10_right.png,10,Community 1,NA,TRUE,j,j,NA,NA,NA,5,6,"11,13,5,2,10,14,12,15,6,4,9,8,7,3,1"
14477,commdev-image-keyboard-response,92,322675,learnblock1,826,img/planet9_right.png,9,Community 3,NA,TRUE,j,j,NA,NA,NA,5,6,"11,13,5,2,10,14,12,15,6,4,9,8,7,3,1"
14477,commdev-image-keyboard-response,93,323925,learnblock1,749.6999999880791,img/planet1_left.png,1,Community 3,NA,TRUE,f,f,NA,NA,NA,5,6,"11,13,5,2,10,14,12,15,6,4,9,8,7,3,1"
14477,commdev-image-keyboard-response,94,325177,learnblock1,887.0999999940395,img/planet7_left.png,7,Community 3,NA,TRUE,f,f,NA,NA,NA,5,6,"11,13,5,2,10,14,12,15,6,4,9,8,7,3,1"
14477,commdev-image-keyboard-response,95,326430,learnblock1,898,img/planet9_right.png,9,Community 3,NA,TRUE,j,j,NA,NA,NA,5,6,"11,13,5,2,10,14,12,15,6,4,9,8,7,3,1"
14477,commdev-image-keyboard-response,96,327681,learnblock1,1153.6000000238419,img/planet7_left.png,7,Community 3,NA,TRUE,f,f,NA,NA,NA,5,6,"11,13,5,2,10,14,12,15,6,4,9,8,7,3,1"
14477,commdev-image-keyboard-response,97,328933,learnblock1,1194.199999988079,img/planet3_left.png,3,Community 3,NA,TRUE,f,f,NA,NA,NA,5,6,"11,13,5,2,10,14,12,15,6,4,9,8,7,3,1"
14477,commdev-image-keyboard-response,98,330185,learnblock1,1065.300000011921,img/planet7_left.png,7,Community 3,NA,TRUE,f,f,NA,NA,NA,5,6,"11,13,5,2,10,14,12,15,6,4,9,8,7,3,1"
14477,commdev-image-keyboard-response,99,331436,learnblock1,792.4000000059605,img/planet9_right.png,9,Community 3,NA,TRUE,j,j,NA,NA,NA,5,6,"11,13,5,2,10,14,12,15,6,4,9,8,7,3,1"
14477,commdev-image-keyboard-response,100,332688,learnblock1,1120.4000000059605,img/planet7_right.png,7,Community 3,NA,TRUE,j,j,NA,NA,NA,5,6,"11,13,5,2,10,14,12,15,6,4,9,8,7,3,1"
14477,commdev-image-keyboard-response,101,333940,learnblock1,1061,img/planet3_right.png,3,Community 3,NA,TRUE,j,j,NA,NA,NA,5,6,"11,13,5,2,10,14,12,15,6,4,9,8,7,3,1"
14477,commdev-image-keyboard-response,102,335191,learnblock1,1053.5,img/planet7_right.png,7,Community 3,NA,TRUE,j,j,NA,NA,NA,5,6,"11,13,5,2,10,14,12,15,6,4,9,8,7,3,1"
14477,commdev-image-keyboard-response,103,336444,learnblock1,751.5999999940395,img/planet9_left.png,9,Community 3,NA,TRUE,f,f,NA,NA,NA,5,6,"11,13,5,2,10,14,12,15,6,4,9,8,7,3,1"
14477,commdev-image-keyboard-response,104,337695,learnblock1,930.1000000238419,img/planet1_right.png,1,Community 3,NA,TRUE,j,j,NA,NA,NA,5,6,"11,13,5,2,10,14,12,15,6,4,9,8,7,3,1"
14477,commdev-image-keyboard-response,105,338947,learnblock1,null,img/planet7_left.png,7,Community 3,NA,FALSE,null,f,NA,NA,NA,5,6,"11,13,5,2,10,14,12,15,6,4,9,8,7,3,1"
14477,commdev-image-keyboard-response,106,340199,learnblock1,35.5,img/planet3_right.png,3,Community 3,NA,FALSE,f,j,NA,NA,NA,5,6,"11,13,5,2,10,14,12,15,6,4,9,8,7,3,1"
14477,commdev-image-keyboard-response,107,341451,learnblock1,748.0999999940395,img/planet9_right.png,9,Community 3,NA,FALSE,f,j,NA,NA,NA,5,6,"11,13,5,2,10,14,12,15,6,4,9,8,7,3,1"
14477,commdev-image-keyboard-response,108,342703,learnblock1,158.5,img/planet10_right.png,10,Community 1,NA,TRUE,j,j,NA,NA,NA,5,6,"11,13,5,2,10,14,12,15,6,4,9,8,7,3,1"
14477,commdev-image-keyboard-response,109,343954,learnblock1,99,img/planet11_left.png,11,Community 1,NA,FALSE,j,f,NA,NA,NA,5,6,"11,13,5,2,10,14,12,15,6,4,9,8,7,3,1"
14477,commdev-image-keyboard-response,110,345206,learnblock1,900,img/planet10_left.png,10,Community 1,NA,TRUE,f,f,NA,NA,NA,5,6,"11,13,5,2,10,14,12,15,6,4,9,8,7,3,1"
14477,commdev-image-keyboard-response,111,346458,learnblock1,766.6999999880791,img/planet5_right.png,5,Community 1,NA,TRUE,j,j,NA,NA,NA,5,6,"11,13,5,2,10,14,12,15,6,4,9,8,7,3,1"
14477,commdev-image-keyboard-response,112,347709,learnblock1,842.1999999880791,img/planet11_right.png,11,Community 1,NA,TRUE,j,j,NA,NA,NA,5,6,"11,13,5,2,10,14,12,15,6,4,9,8,7,3,1"
14477,commdev-image-keyboard-response,113,348961,learnblock1,793,img/planet2_left.png,2,Community 1,NA,TRUE,f,f,NA,NA,NA,5,6,"11,13,5,2,10,14,12,15,6,4,9,8,7,3,1"
14477,commdev-image-keyboard-response,114,350214,learnblock1,832.9000000059605,img/planet11_left.png,11,Community 1,NA,TRUE,f,f,NA,NA,NA,5,6,"11,13,5,2,10,14,12,15,6,4,9,8,7,3,1"
14477,commdev-image-keyboard-response,115,351466,learnblock1,661.8000000119209,img/planet10_right.png,10,Community 1,NA,FALSE,f,j,NA,NA,NA,5,6,"11,13,5,2,10,14,12,15,6,4,9,8,7,3,1"
14477,commdev-image-keyboard-response,116,352718,learnblock1,940.7999999821186,img/planet13_left.png,13,Community 1,NA,TRUE,f,f,NA,NA,NA,5,6,"11,13,5,2,10,14,12,15,6,4,9,8,7,3,1"
14477,commdev-image-keyboard-response,117,353970,learnblock1,836.5,img/planet11_left.png,11,Community 1,NA,TRUE,f,f,NA,NA,NA,5,6,"11,13,5,2,10,14,12,15,6,4,9,8,7,3,1"
14477,commdev-image-keyboard-response,118,355221,learnblock1,868.6999999880791,img/planet2_right.png,2,Community 1,NA,TRUE,j,j,NA,NA,NA,5,6,"11,13,5,2,10,14,12,15,6,4,9,8,7,3,1"
14477,commdev-image-keyboard-response,119,356473,learnblock1,924.3000000119209,img/planet14_right.png,14,Community 2,NA,TRUE,j,j,NA,NA,NA,5,6,"11,13,5,2,10,14,12,15,6,4,9,8,7,3,1"
14477,commdev-image-keyboard-response,120,357724,learnblock1,812.5,img/planet2_left.png,2,Community 1,NA,TRUE,f,f,NA,NA,NA,5,6,"11,13,5,2,10,14,12,15,6,4,9,8,7,3,1"
14477,commdev-image-keyboard-response,121,358976,learnblock1,860.8999999761581,img/planet13_right.png,13,Community 1,NA,TRUE,j,j,NA,NA,NA,5,6,"11,13,5,2,10,14,12,15,6,4,9,8,7,3,1"
14477,commdev-image-keyboard-response,122,360229,learnblock1,809,img/planet2_right.png,2,Community 1,NA,TRUE,j,j,NA,NA,NA,5,6,"11,13,5,2,10,14,12,15,6,4,9,8,7,3,1"
14477,commdev-image-keyboard-response,123,361480,learnblock1,851.6999999880791,img/planet11_right.png,11,Community 1,NA,TRUE,j,j,NA,NA,NA,5,6,"11,13,5,2,10,14,12,15,6,4,9,8,7,3,1"
14477,commdev-image-keyboard-response,124,362732,learnblock1,740.6999999880791,img/planet13_right.png,13,Community 1,NA,TRUE,j,j,NA,NA,NA,5,6,"11,13,5,2,10,14,12,15,6,4,9,8,7,3,1"
14477,commdev-image-keyboard-response,125,363984,learnblock1,765.5,img/planet10_left.png,10,Community 1,NA,TRUE,f,f,NA,NA,NA,5,6,"11,13,5,2,10,14,12,15,6,4,9,8,7,3,1"
14477,commdev-image-keyboard-response,126,365235,learnblock1,771.6999999880791,img/planet9_left.png,9,Community 3,NA,TRUE,f,f,NA,NA,NA,5,6,"11,13,5,2,10,14,12,15,6,4,9,8,7,3,1"
14477,commdev-image-keyboard-response,127,366487,learnblock1,703.7000000178814,img/planet3_left.png,3,Community 3,NA,TRUE,f,f,NA,NA,NA,5,6,"11,13,5,2,10,14,12,15,6,4,9,8,7,3,1"
14477,commdev-image-keyboard-response,128,367739,learnblock1,842.5999999940395,img/planet7_left.png,7,Community 3,NA,TRUE,f,f,NA,NA,NA,5,6,"11,13,5,2,10,14,12,15,6,4,9,8,7,3,1"
14477,commdev-image-keyboard-response,129,368991,learnblock1,904.1000000238419,img/planet1_left.png,1,Community 3,NA,TRUE,f,f,NA,NA,NA,5,6,"11,13,5,2,10,14,12,15,6,4,9,8,7,3,1"
14477,commdev-image-keyboard-response,130,370243,learnblock1,825.5,img/planet8_right.png,8,Community 3,NA,TRUE,j,j,NA,NA,NA,5,6,"11,13,5,2,10,14,12,15,6,4,9,8,7,3,1"
14477,commdev-image-keyboard-response,131,371495,learnblock1,843.8000000119209,img/planet3_left.png,3,Community 3,NA,TRUE,f,f,NA,NA,NA,5,6,"11,13,5,2,10,14,12,15,6,4,9,8,7,3,1"
14477,commdev-image-keyboard-response,132,372746,learnblock1,779.9000000059605,img/planet9_right.png,9,Community 3,NA,TRUE,j,j,NA,NA,NA,5,6,"11,13,5,2,10,14,12,15,6,4,9,8,7,3,1"
14477,commdev-image-keyboard-response,133,373997,learnblock1,680.7000000178814,img/planet1_left.png,1,Community 3,NA,TRUE,f,f,NA,NA,NA,5,6,"11,13,5,2,10,14,12,15,6,4,9,8,7,3,1"
14477,commdev-image-keyboard-response,134,375249,learnblock1,773.9000000059605,img/planet9_left.png,9,Community 3,NA,TRUE,f,f,NA,NA,NA,5,6,"11,13,5,2,10,14,12,15,6,4,9,8,7,3,1"
14477,commdev-image-keyboard-response,135,376501,learnblock1,692.6000000238419,img/planet10_left.png,10,Community 1,NA,TRUE,f,f,NA,NA,NA,5,6,"11,13,5,2,10,14,12,15,6,4,9,8,7,3,1"
14477,commdev-image-keyboard-response,136,377752,learnblock1,687.1999999880791,img/planet5_right.png,5,Community 1,NA,TRUE,j,j,NA,NA,NA,5,6,"11,13,5,2,10,14,12,15,6,4,9,8,7,3,1"
14477,commdev-image-keyboard-response,137,379003,learnblock1,628.4000000059605,img/planet10_right.png,10,Community 1,NA,TRUE,j,j,NA,NA,NA,5,6,"11,13,5,2,10,14,12,15,6,4,9,8,7,3,1"
14477,commdev-image-keyboard-response,138,380255,learnblock1,766.3000000119209,img/planet9_left.png,9,Community 3,NA,TRUE,f,f,NA,NA,NA,5,6,"11,13,5,2,10,14,12,15,6,4,9,8,7,3,1"
14477,commdev-image-keyboard-response,139,381507,learnblock1,891.5,img/planet10_right.png,10,Community 1,NA,TRUE,j,j,NA,NA,NA,5,6,"11,13,5,2,10,14,12,15,6,4,9,8,7,3,1"
14477,commdev-image-keyboard-response,140,382759,learnblock1,792.5,img/planet13_left.png,13,Community 1,NA,TRUE,f,f,NA,NA,NA,5,6,"11,13,5,2,10,14,12,15,6,4,9,8,7,3,1"
14477,commdev-image-keyboard-response,141,384012,learnblock1,724.7000000178814,img/planet11_left.png,11,Community 1,NA,TRUE,f,f,NA,NA,NA,5,6,"11,13,5,2,10,14,12,15,6,4,9,8,7,3,1"
14477,commdev-image-keyboard-response,142,385264,learnblock1,722.7000000178814,img/planet10_left.png,10,Community 1,NA,TRUE,f,f,NA,NA,NA,5,6,"11,13,5,2,10,14,12,15,6,4,9,8,7,3,1"
14477,commdev-image-keyboard-response,143,386516,learnblock1,696,img/planet5_right.png,5,Community 1,NA,TRUE,j,j,NA,NA,NA,5,6,"11,13,5,2,10,14,12,15,6,4,9,8,7,3,1"
14477,commdev-image-keyboard-response,144,387767,learnblock1,938.9000000059605,img/planet2_left.png,2,Community 1,NA,TRUE,f,f,NA,NA,NA,5,6,"11,13,5,2,10,14,12,15,6,4,9,8,7,3,1"
14477,commdev-image-keyboard-response,145,389019,learnblock1,683.7999999821186,img/planet11_right.png,11,Community 1,NA,TRUE,j,j,NA,NA,NA,5,6,"11,13,5,2,10,14,12,15,6,4,9,8,7,3,1"
14477,commdev-image-keyboard-response,146,390270,learnblock1,713.0999999940395,img/planet13_left.png,13,Community 1,NA,TRUE,f,f,NA,NA,NA,5,6,"11,13,5,2,10,14,12,15,6,4,9,8,7,3,1"
14477,commdev-image-keyboard-response,147,391522,learnblock1,790.5,img/planet10_left.png,10,Community 1,NA,TRUE,f,f,NA,NA,NA,5,6,"11,13,5,2,10,14,12,15,6,4,9,8,7,3,1"
14477,commdev-image-keyboard-response,148,392773,learnblock1,664.0999999940395,img/planet9_right.png,9,Community 3,NA,TRUE,j,j,NA,NA,NA,5,6,"11,13,5,2,10,14,12,15,6,4,9,8,7,3,1"
14477,commdev-image-keyboard-response,149,394025,learnblock1,829.6000000238419,img/planet3_left.png,3,Community 3,NA,TRUE,f,f,NA,NA,NA,5,6,"11,13,5,2,10,14,12,15,6,4,9,8,7,3,1"
14477,commdev-image-keyboard-response,150,395277,learnblock1,923.0999999940395,img/planet7_left.png,7,Community 3,NA,TRUE,f,f,NA,NA,NA,5,6,"11,13,5,2,10,14,12,15,6,4,9,8,7,3,1"
14477,commdev-image-keyboard-response,151,396529,learnblock1,889.5,img/planet3_left.png,3,Community 3,NA,TRUE,f,f,NA,NA,NA,5,6,"11,13,5,2,10,14,12,15,6,4,9,8,7,3,1"
14477,commdev-image-keyboard-response,152,397781,learnblock1,732.3000000119209,img/planet1_right.png,1,Community 3,NA,TRUE,j,j,NA,NA,NA,5,6,"11,13,5,2,10,14,12,15,6,4,9,8,7,3,1"
14477,commdev-image-keyboard-response,153,399032,learnblock1,677.9000000059605,img/planet3_left.png,3,Community 3,NA,TRUE,f,f,NA,NA,NA,5,6,"11,13,5,2,10,14,12,15,6,4,9,8,7,3,1"
14477,commdev-image-keyboard-response,154,400284,learnblock1,629.8000000119209,img/planet1_right.png,1,Community 3,NA,TRUE,j,j,NA,NA,NA,5,6,"11,13,5,2,10,14,12,15,6,4,9,8,7,3,1"
14477,commdev-image-keyboard-response,155,401536,learnblock1,1018.8000000119209,img/planet7_right.png,7,Community 3,NA,FALSE,f,j,NA,NA,NA,5,6,"11,13,5,2,10,14,12,15,6,4,9,8,7,3,1"
14477,commdev-image-keyboard-response,156,402788,learnblock1,848.8000000119209,img/planet1_left.png,1,Community 3,NA,TRUE,f,f,NA,NA,NA,5,6,"11,13,5,2,10,14,12,15,6,4,9,8,7,3,1"
14477,commdev-image-keyboard-response,157,404039,learnblock1,951.4000000059605,img/planet8_left.png,8,Community 3,NA,TRUE,f,f,NA,NA,NA,5,6,"11,13,5,2,10,14,12,15,6,4,9,8,7,3,1"
14477,commdev-image-keyboard-response,158,405290,learnblock1,769,img/planet3_left.png,3,Community 3,NA,TRUE,f,f,NA,NA,NA,5,6,"11,13,5,2,10,14,12,15,6,4,9,8,7,3,1"
14477,commdev-image-keyboard-response,159,406542,learnblock1,1008.5999999940395,img/planet7_right.png,7,Community 3,NA,TRUE,j,j,NA,NA,NA,5,6,"11,13,5,2,10,14,12,15,6,4,9,8,7,3,1"
14477,commdev-image-keyboard-response,160,407793,learnblock1,1149.3999999761581,img/planet9_left.png,9,Community 3,NA,TRUE,f,f,NA,NA,NA,5,6,"11,13,5,2,10,14,12,15,6,4,9,8,7,3,1"
14477,commdev-image-keyboard-response,161,409046,learnblock1,895.5999999940395,img/planet10_right.png,10,Community 1,NA,TRUE,j,j,NA,NA,NA,5,6,"11,13,5,2,10,14,12,15,6,4,9,8,7,3,1"
14477,commdev-image-keyboard-response,162,410297,learnblock1,857.7000000178814,img/planet13_left.png,13,Community 1,NA,TRUE,f,f,NA,NA,NA,5,6,"11,13,5,2,10,14,12,15,6,4,9,8,7,3,1"
14477,commdev-image-keyboard-response,163,411549,learnblock1,698.5,img/planet5_right.png,5,Community 1,NA,TRUE,j,j,NA,NA,NA,5,6,"11,13,5,2,10,14,12,15,6,4,9,8,7,3,1"
14477,commdev-image-keyboard-response,164,412800,learnblock1,688,img/planet11_left.png,11,Community 1,NA,TRUE,f,f,NA,NA,NA,5,6,"11,13,5,2,10,14,12,15,6,4,9,8,7,3,1"
14477,commdev-image-keyboard-response,165,414051,learnblock1,551.7000000178814,img/planet5_left.png,5,Community 1,NA,TRUE,f,f,NA,NA,NA,5,6,"11,13,5,2,10,14,12,15,6,4,9,8,7,3,1"
14477,commdev-image-keyboard-response,166,415303,learnblock1,1166.7000000178814,img/planet2_right.png,2,Community 1,NA,TRUE,j,j,NA,NA,NA,5,6,"11,13,5,2,10,14,12,15,6,4,9,8,7,3,1"
14477,commdev-image-keyboard-response,167,416554,learnblock1,1189.7999999821186,img/planet5_left.png,5,Community 1,NA,TRUE,f,f,NA,NA,NA,5,6,"11,13,5,2,10,14,12,15,6,4,9,8,7,3,1"
14477,commdev-image-keyboard-response,168,417806,learnblock1,1005,img/planet10_left.png,10,Community 1,NA,TRUE,f,f,NA,NA,NA,5,6,"11,13,5,2,10,14,12,15,6,4,9,8,7,3,1"
14477,commdev-image-keyboard-response,169,419058,learnblock1,813.0999999940395,img/planet13_right.png,13,Community 1,NA,TRUE,j,j,NA,NA,NA,5,6,"11,13,5,2,10,14,12,15,6,4,9,8,7,3,1"
14477,commdev-image-keyboard-response,170,420309,learnblock1,734.4000000059605,img/planet11_left.png,11,Community 1,NA,TRUE,f,f,NA,NA,NA,5,6,"11,13,5,2,10,14,12,15,6,4,9,8,7,3,1"
14477,commdev-image-keyboard-response,171,421560,learnblock1,823.2999999821186,img/planet10_left.png,10,Community 1,NA,TRUE,f,f,NA,NA,NA,5,6,"11,13,5,2,10,14,12,15,6,4,9,8,7,3,1"
14477,commdev-image-keyboard-response,172,422811,learnblock1,715.1999999880791,img/planet13_left.png,13,Community 1,NA,TRUE,f,f,NA,NA,NA,5,6,"11,13,5,2,10,14,12,15,6,4,9,8,7,3,1"
14477,commdev-image-keyboard-response,173,424063,learnblock1,892.5999999940395,img/planet5_left.png,5,Community 1,NA,TRUE,f,f,NA,NA,NA,5,6,"11,13,5,2,10,14,12,15,6,4,9,8,7,3,1"
14477,commdev-image-keyboard-response,174,425314,learnblock1,767.1999999880791,img/planet13_left.png,13,Community 1,NA,TRUE,f,f,NA,NA,NA,5,6,"11,13,5,2,10,14,12,15,6,4,9,8,7,3,1"
14477,commdev-image-keyboard-response,175,426567,learnblock1,647.6000000238419,img/planet10_left.png,10,Community 1,NA,TRUE,f,f,NA,NA,NA,5,6,"11,13,5,2,10,14,12,15,6,4,9,8,7,3,1"
14477,commdev-image-keyboard-response,176,427818,learnblock1,1078.2000000178814,img/planet5_left.png,5,Community 1,NA,TRUE,f,f,NA,NA,NA,5,6,"11,13,5,2,10,14,12,15,6,4,9,8,7,3,1"
14477,commdev-image-keyboard-response,177,429069,learnblock1,935.2000000178814,img/planet13_right.png,13,Community 1,NA,TRUE,j,j,NA,NA,NA,5,6,"11,13,5,2,10,14,12,15,6,4,9,8,7,3,1"
14477,commdev-image-keyboard-response,178,430321,learnblock1,790.9000000059605,img/planet11_left.png,11,Community 1,NA,TRUE,f,f,NA,NA,NA,5,6,"11,13,5,2,10,14,12,15,6,4,9,8,7,3,1"
14477,commdev-image-keyboard-response,179,431572,learnblock1,783.2999999821186,img/planet2_left.png,2,Community 1,NA,TRUE,f,f,NA,NA,NA,5,6,"11,13,5,2,10,14,12,15,6,4,9,8,7,3,1"
14477,commdev-image-keyboard-response,180,432824,learnblock1,730.0999999940395,img/planet11_right.png,11,Community 1,NA,TRUE,j,j,NA,NA,NA,5,6,"11,13,5,2,10,14,12,15,6,4,9,8,7,3,1"
14477,commdev-image-keyboard-response,181,434076,learnblock1,587.9000000059605,img/planet13_left.png,13,Community 1,NA,TRUE,f,f,NA,NA,NA,5,6,"11,13,5,2,10,14,12,15,6,4,9,8,7,3,1"
14477,commdev-image-keyboard-response,182,435327,learnblock1,559.1000000238419,img/planet10_left.png,10,Community 1,NA,TRUE,f,f,NA,NA,NA,5,6,"11,13,5,2,10,14,12,15,6,4,9,8,7,3,1"
14477,commdev-image-keyboard-response,183,436578,learnblock1,643.7999999821186,img/planet9_left.png,9,Community 3,NA,TRUE,f,f,NA,NA,NA,5,6,"11,13,5,2,10,14,12,15,6,4,9,8,7,3,1"
14477,commdev-image-keyboard-response,184,437830,learnblock1,752.6999999880791,img/planet1_left.png,1,Community 3,NA,TRUE,f,f,NA,NA,NA,5,6,"11,13,5,2,10,14,12,15,6,4,9,8,7,3,1"
14477,commdev-image-keyboard-response,185,439081,learnblock1,764.8000000119209,img/planet8_right.png,8,Community 3,NA,TRUE,j,j,NA,NA,NA,5,6,"11,13,5,2,10,14,12,15,6,4,9,8,7,3,1"
14477,commdev-image-keyboard-response,186,440333,learnblock1,653.7999999821186,img/planet7_left.png,7,Community 3,NA,TRUE,f,f,NA,NA,NA,5,6,"11,13,5,2,10,14,12,15,6,4,9,8,7,3,1"
14477,commdev-image-keyboard-response,187,441584,learnblock1,920.2999999821186,img/planet8_right.png,8,Community 3,NA,TRUE,j,j,NA,NA,NA,5,6,"11,13,5,2,10,14,12,15,6,4,9,8,7,3,1"
14477,commdev-image-keyboard-response,188,442835,learnblock1,707.2000000178814,img/planet1_right.png,1,Community 3,NA,TRUE,j,j,NA,NA,NA,5,6,"11,13,5,2,10,14,12,15,6,4,9,8,7,3,1"
14477,commdev-image-keyboard-response,189,444087,learnblock1,711,img/planet9_left.png,9,Community 3,NA,TRUE,f,f,NA,NA,NA,5,6,"11,13,5,2,10,14,12,15,6,4,9,8,7,3,1"
14477,commdev-image-keyboard-response,190,445338,learnblock1,675.8000000119209,img/planet10_right.png,10,Community 1,NA,TRUE,j,j,NA,NA,NA,5,6,"11,13,5,2,10,14,12,15,6,4,9,8,7,3,1"
14477,commdev-image-keyboard-response,191,446591,learnblock1,687.0999999940395,img/planet13_left.png,13,Community 1,NA,TRUE,f,f,NA,NA,NA,5,6,"11,13,5,2,10,14,12,15,6,4,9,8,7,3,1"
14477,commdev-image-keyboard-response,192,447842,learnblock1,727.5,img/planet10_right.png,10,Community 1,NA,TRUE,j,j,NA,NA,NA,5,6,"11,13,5,2,10,14,12,15,6,4,9,8,7,3,1"
14477,commdev-image-keyboard-response,193,449094,learnblock1,834.7999999821186,img/planet9_right.png,9,Community 3,NA,TRUE,j,j,NA,NA,NA,5,6,"11,13,5,2,10,14,12,15,6,4,9,8,7,3,1"
14477,commdev-image-keyboard-response,194,450346,learnblock1,926.3000000119209,img/planet3_right.png,3,Community 3,NA,TRUE,j,j,NA,NA,NA,5,6,"11,13,5,2,10,14,12,15,6,4,9,8,7,3,1"
14477,commdev-image-keyboard-response,195,451598,learnblock1,995.3000000119209,img/planet7_left.png,7,Community 3,NA,TRUE,f,f,NA,NA,NA,5,6,"11,13,5,2,10,14,12,15,6,4,9,8,7,3,1"
14477,commdev-image-keyboard-response,196,452850,learnblock1,746.5,img/planet1_left.png,1,Community 3,NA,TRUE,f,f,NA,NA,NA,5,6,"11,13,5,2,10,14,12,15,6,4,9,8,7,3,1"
14477,commdev-image-keyboard-response,197,454101,learnblock1,764.3000000119209,img/planet3_right.png,3,Community 3,NA,TRUE,j,j,NA,NA,NA,5,6,"11,13,5,2,10,14,12,15,6,4,9,8,7,3,1"
14477,commdev-image-keyboard-response,198,455353,learnblock1,666.0999999940395,img/planet9_left.png,9,Community 3,NA,TRUE,f,f,NA,NA,NA,5,6,"11,13,5,2,10,14,12,15,6,4,9,8,7,3,1"
14477,commdev-image-keyboard-response,199,456604,learnblock1,633.0999999940395,img/planet10_left.png,10,Community 1,NA,TRUE,f,f,NA,NA,NA,5,6,"11,13,5,2,10,14,12,15,6,4,9,8,7,3,1"
14477,commdev-image-keyboard-response,200,457856,learnblock1,802.2999999821186,img/planet11_left.png,11,Community 1,NA,TRUE,f,f,NA,NA,NA,5,6,"11,13,5,2,10,14,12,15,6,4,9,8,7,3,1"
14477,commdev-image-keyboard-response,201,459108,learnblock1,654.9000000059605,img/planet5_right.png,5,Community 1,NA,TRUE,j,j,NA,NA,NA,5,6,"11,13,5,2,10,14,12,15,6,4,9,8,7,3,1"
14477,commdev-image-keyboard-response,202,460360,learnblock1,693.2999999821186,img/planet13_left.png,13,Community 1,NA,TRUE,f,f,NA,NA,NA,5,6,"11,13,5,2,10,14,12,15,6,4,9,8,7,3,1"
14477,commdev-image-keyboard-response,203,461612,learnblock1,613.0999999940395,img/planet5_right.png,5,Community 1,NA,TRUE,j,j,NA,NA,NA,5,6,"11,13,5,2,10,14,12,15,6,4,9,8,7,3,1"
14477,commdev-image-keyboard-response,204,462865,learnblock1,730.6999999880791,img/planet13_right.png,13,Community 1,NA,FALSE,f,j,NA,NA,NA,5,6,"11,13,5,2,10,14,12,15,6,4,9,8,7,3,1"
14477,commdev-image-keyboard-response,205,464115,learnblock1,887.4000000059605,img/planet10_right.png,10,Community 1,NA,TRUE,j,j,NA,NA,NA,5,6,"11,13,5,2,10,14,12,15,6,4,9,8,7,3,1"
14477,commdev-image-keyboard-response,206,465366,learnblock1,796.9000000059605,img/planet5_right.png,5,Community 1,NA,TRUE,j,j,NA,NA,NA,5,6,"11,13,5,2,10,14,12,15,6,4,9,8,7,3,1"
14477,commdev-image-keyboard-response,207,466618,learnblock1,700.3000000119209,img/planet13_right.png,13,Community 1,NA,TRUE,j,j,NA,NA,NA,5,6,"11,13,5,2,10,14,12,15,6,4,9,8,7,3,1"
14477,commdev-image-keyboard-response,208,467869,learnblock1,625.5,img/planet11_right.png,11,Community 1,NA,TRUE,j,j,NA,NA,NA,5,6,"11,13,5,2,10,14,12,15,6,4,9,8,7,3,1"
14477,commdev-image-keyboard-response,209,469120,learnblock1,626.5999999940395,img/planet10_right.png,10,Community 1,NA,TRUE,j,j,NA,NA,NA,5,6,"11,13,5,2,10,14,12,15,6,4,9,8,7,3,1"
14477,commdev-image-keyboard-response,210,470372,learnblock1,675.9000000059605,img/planet5_right.png,5,Community 1,NA,TRUE,j,j,NA,NA,NA,5,6,"11,13,5,2,10,14,12,15,6,4,9,8,7,3,1"
14477,commdev-image-keyboard-response,211,471624,learnblock1,788.6999999880791,img/planet11_right.png,11,Community 1,NA,TRUE,j,j,NA,NA,NA,5,6,"11,13,5,2,10,14,12,15,6,4,9,8,7,3,1"
14477,commdev-image-keyboard-response,212,472876,learnblock1,686.5999999940395,img/planet5_right.png,5,Community 1,NA,TRUE,j,j,NA,NA,NA,5,6,"11,13,5,2,10,14,12,15,6,4,9,8,7,3,1"
14477,commdev-image-keyboard-response,213,474127,learnblock1,685.2000000178814,img/planet10_right.png,10,Community 1,NA,TRUE,j,j,NA,NA,NA,5,6,"11,13,5,2,10,14,12,15,6,4,9,8,7,3,1"
14477,commdev-image-keyboard-response,214,475378,learnblock1,773.8000000119209,img/planet9_left.png,9,Community 3,NA,TRUE,f,f,NA,NA,NA,5,6,"11,13,5,2,10,14,12,15,6,4,9,8,7,3,1"
14477,commdev-image-keyboard-response,215,476630,learnblock1,866.6999999880791,img/planet3_left.png,3,Community 3,NA,TRUE,f,f,NA,NA,NA,5,6,"11,13,5,2,10,14,12,15,6,4,9,8,7,3,1"
14477,commdev-image-keyboard-response,216,477882,learnblock1,715.0999999940395,img/planet9_right.png,9,Community 3,NA,FALSE,f,j,NA,NA,NA,5,6,"11,13,5,2,10,14,12,15,6,4,9,8,7,3,1"
14477,commdev-image-keyboard-response,217,479133,learnblock1,816.5,img/planet7_left.png,7,Community 3,NA,TRUE,f,f,NA,NA,NA,5,6,"11,13,5,2,10,14,12,15,6,4,9,8,7,3,1"
14477,commdev-image-keyboard-response,218,480384,learnblock1,1028.699999988079,img/planet8_left.png,8,Community 3,NA,TRUE,f,f,NA,NA,NA,5,6,"11,13,5,2,10,14,12,15,6,4,9,8,7,3,1"
14477,commdev-image-keyboard-response,219,481635,learnblock1,972.2000000178814,img/planet3_left.png,3,Community 3,NA,TRUE,f,f,NA,NA,NA,5,6,"11,13,5,2,10,14,12,15,6,4,9,8,7,3,1"
14477,commdev-image-keyboard-response,220,482886,learnblock1,1201.199999988079,img/planet7_right.png,7,Community 3,NA,FALSE,f,j,NA,NA,NA,5,6,"11,13,5,2,10,14,12,15,6,4,9,8,7,3,1"
14477,commdev-image-keyboard-response,221,484138,learnblock1,1138.5999999940395,img/planet8_left.png,8,Community 3,NA,TRUE,f,f,NA,NA,NA,5,6,"11,13,5,2,10,14,12,15,6,4,9,8,7,3,1"
14477,commdev-image-keyboard-response,222,485390,learnblock1,null,img/planet7_right.png,7,Community 3,NA,FALSE,null,j,NA,NA,NA,5,6,"11,13,5,2,10,14,12,15,6,4,9,8,7,3,1"
14477,commdev-image-keyboard-response,223,486642,learnblock1,4.299999982118607,img/planet1_left.png,1,Community 3,NA,TRUE,f,f,NA,NA,NA,5,6,"11,13,5,2,10,14,12,15,6,4,9,8,7,3,1"
14477,commdev-image-keyboard-response,224,487894,learnblock1,234,img/planet8_right.png,8,Community 3,NA,FALSE,f,j,NA,NA,NA,5,6,"11,13,5,2,10,14,12,15,6,4,9,8,7,3,1"
14477,commdev-image-keyboard-response,225,489146,learnblock1,850.7000000178814,img/planet1_right.png,1,Community 3,NA,TRUE,j,j,NA,NA,NA,5,6,"11,13,5,2,10,14,12,15,6,4,9,8,7,3,1"
14477,commdev-image-keyboard-response,226,490398,learnblock1,987.6999999880791,img/planet7_right.png,7,Community 3,NA,FALSE,f,j,NA,NA,NA,5,6,"11,13,5,2,10,14,12,15,6,4,9,8,7,3,1"
14477,commdev-image-keyboard-response,227,491649,learnblock1,null,img/planet8_right.png,8,Community 3,NA,FALSE,null,j,NA,NA,NA,5,6,"11,13,5,2,10,14,12,15,6,4,9,8,7,3,1"
14477,commdev-image-keyboard-response,228,492900,learnblock1,7.4000000059604645,img/planet1_left.png,1,Community 3,NA,FALSE,j,f,NA,NA,NA,5,6,"11,13,5,2,10,14,12,15,6,4,9,8,7,3,1"
14477,commdev-image-keyboard-response,229,494152,learnblock1,1037.4000000059605,img/planet9_right.png,9,Community 3,NA,TRUE,j,j,NA,NA,NA,5,6,"11,13,5,2,10,14,12,15,6,4,9,8,7,3,1"
14477,commdev-image-keyboard-response,230,495403,learnblock1,1094.9000000059605,img/planet1_left.png,1,Community 3,NA,TRUE,f,f,NA,NA,NA,5,6,"11,13,5,2,10,14,12,15,6,4,9,8,7,3,1"
14477,commdev-image-keyboard-response,231,496655,learnblock1,956.7999999821186,img/planet8_right.png,8,Community 3,NA,TRUE,j,j,NA,NA,NA,5,6,"11,13,5,2,10,14,12,15,6,4,9,8,7,3,1"
14477,commdev-image-keyboard-response,232,497906,learnblock1,991.3000000119209,img/planet3_left.png,3,Community 3,NA,TRUE,f,f,NA,NA,NA,5,6,"11,13,5,2,10,14,12,15,6,4,9,8,7,3,1"
14477,commdev-image-keyboard-response,233,499157,learnblock1,1107.300000011921,img/planet7_right.png,7,Community 3,NA,TRUE,j,j,NA,NA,NA,5,6,"11,13,5,2,10,14,12,15,6,4,9,8,7,3,1"
14477,commdev-image-keyboard-response,234,500409,learnblock1,1080.699999988079,img/planet3_right.png,3,Community 3,NA,FALSE,f,j,NA,NA,NA,5,6,"11,13,5,2,10,14,12,15,6,4,9,8,7,3,1"
14477,commdev-image-keyboard-response,235,501660,learnblock1,87.30000001192093,img/planet7_left.png,7,Community 3,NA,FALSE,j,f,NA,NA,NA,5,6,"11,13,5,2,10,14,12,15,6,4,9,8,7,3,1"
14477,commdev-image-keyboard-response,236,502911,learnblock1,882.2000000178814,img/planet3_right.png,3,Community 3,NA,TRUE,j,j,NA,NA,NA,5,6,"11,13,5,2,10,14,12,15,6,4,9,8,7,3,1"
14477,commdev-image-keyboard-response,237,504163,learnblock1,1025.2000000178814,img/planet9_right.png,9,Community 3,NA,TRUE,j,j,NA,NA,NA,5,6,"11,13,5,2,10,14,12,15,6,4,9,8,7,3,1"
14477,commdev-image-keyboard-response,238,505413,learnblock1,1010.5999999940395,img/planet7_left.png,7,Community 3,NA,TRUE,f,f,NA,NA,NA,5,6,"11,13,5,2,10,14,12,15,6,4,9,8,7,3,1"
14477,commdev-image-keyboard-response,239,506665,learnblock1,847.3999999761581,img/planet8_right.png,8,Community 3,NA,TRUE,j,j,NA,NA,NA,5,6,"11,13,5,2,10,14,12,15,6,4,9,8,7,3,1"
14477,commdev-image-keyboard-response,240,507917,learnblock1,639,img/planet1_left.png,1,Community 3,NA,FALSE,j,f,NA,NA,NA,5,6,"11,13,5,2,10,14,12,15,6,4,9,8,7,3,1"
14477,commdev-image-keyboard-response,241,509168,learnblock1,1057,img/planet3_right.png,3,Community 3,NA,TRUE,j,j,NA,NA,NA,5,6,"11,13,5,2,10,14,12,15,6,4,9,8,7,3,1"
14477,commdev-image-keyboard-response,242,510420,learnblock1,910.6999999880791,img/planet7_left.png,7,Community 3,NA,TRUE,f,f,NA,NA,NA,5,6,"11,13,5,2,10,14,12,15,6,4,9,8,7,3,1"
14477,commdev-image-keyboard-response,243,511672,learnblock1,910.8000000119209,img/planet8_right.png,8,Community 3,NA,TRUE,j,j,NA,NA,NA,5,6,"11,13,5,2,10,14,12,15,6,4,9,8,7,3,1"
14477,commdev-image-keyboard-response,244,512923,learnblock1,755.9000000059605,img/planet1_right.png,1,Community 3,NA,TRUE,j,j,NA,NA,NA,5,6,"11,13,5,2,10,14,12,15,6,4,9,8,7,3,1"
14477,commdev-image-keyboard-response,245,514175,learnblock1,782.0999999940395,img/planet8_right.png,8,Community 3,NA,TRUE,j,j,NA,NA,NA,5,6,"11,13,5,2,10,14,12,15,6,4,9,8,7,3,1"
14477,commdev-image-keyboard-response,246,515427,learnblock1,934,img/planet15_right.png,15,Community 2,NA,TRUE,j,j,NA,NA,NA,5,6,"11,13,5,2,10,14,12,15,6,4,9,8,7,3,1"
14477,commdev-image-keyboard-response,247,516680,learnblock1,951.4000000059605,img/planet4_left.png,4,Community 2,NA,TRUE,f,f,NA,NA,NA,5,6,"11,13,5,2,10,14,12,15,6,4,9,8,7,3,1"
14477,commdev-image-keyboard-response,248,517932,learnblock1,1048.5,img/planet14_right.png,14,Community 2,NA,TRUE,j,j,NA,NA,NA,5,6,"11,13,5,2,10,14,12,15,6,4,9,8,7,3,1"
14477,commdev-image-keyboard-response,249,519183,learnblock1,919.3000000119209,img/planet2_left.png,2,Community 1,NA,TRUE,f,f,NA,NA,NA,5,6,"11,13,5,2,10,14,12,15,6,4,9,8,7,3,1"
14477,commdev-image-keyboard-response,250,520435,learnblock1,856.4000000059605,img/planet13_right.png,13,Community 1,NA,TRUE,j,j,NA,NA,NA,5,6,"11,13,5,2,10,14,12,15,6,4,9,8,7,3,1"
14477,commdev-image-keyboard-response,251,521686,learnblock1,1032.5999999940395,img/planet11_right.png,11,Community 1,NA,TRUE,j,j,NA,NA,NA,5,6,"11,13,5,2,10,14,12,15,6,4,9,8,7,3,1"
14477,commdev-image-keyboard-response,252,522937,learnblock1,1013.5,img/planet13_left.png,13,Community 1,NA,TRUE,f,f,NA,NA,NA,5,6,"11,13,5,2,10,14,12,15,6,4,9,8,7,3,1"
14477,commdev-image-keyboard-response,253,524188,learnblock1,776.7000000178814,img/planet10_right.png,10,Community 1,NA,TRUE,j,j,NA,NA,NA,5,6,"11,13,5,2,10,14,12,15,6,4,9,8,7,3,1"
14477,commdev-image-keyboard-response,254,525440,learnblock1,754.3999999761581,img/planet11_left.png,11,Community 1,NA,FALSE,j,f,NA,NA,NA,5,6,"11,13,5,2,10,14,12,15,6,4,9,8,7,3,1"
14477,commdev-image-keyboard-response,255,526693,learnblock1,933,img/planet2_right.png,2,Community 1,NA,TRUE,j,j,NA,NA,NA,5,6,"11,13,5,2,10,14,12,15,6,4,9,8,7,3,1"
14477,commdev-image-keyboard-response,256,527945,learnblock1,915.5,img/planet11_right.png,11,Community 1,NA,FALSE,f,j,NA,NA,NA,5,6,"11,13,5,2,10,14,12,15,6,4,9,8,7,3,1"
14477,commdev-image-keyboard-response,257,529197,learnblock1,null,img/planet2_left.png,2,Community 1,NA,FALSE,null,f,NA,NA,NA,5,6,"11,13,5,2,10,14,12,15,6,4,9,8,7,3,1"
14477,commdev-image-keyboard-response,258,530448,learnblock1,27.30000001192093,img/planet14_right.png,14,Community 2,NA,FALSE,f,j,NA,NA,NA,5,6,"11,13,5,2,10,14,12,15,6,4,9,8,7,3,1"
14477,commdev-image-keyboard-response,259,531700,learnblock1,null,img/planet6_right.png,6,Community 2,NA,FALSE,null,j,NA,NA,NA,5,6,"11,13,5,2,10,14,12,15,6,4,9,8,7,3,1"
14477,commdev-image-keyboard-response,260,532951,learnblock1,266.40000000596046,img/planet4_left.png,4,Community 2,NA,FALSE,j,f,NA,NA,NA,5,6,"11,13,5,2,10,14,12,15,6,4,9,8,7,3,1"
14477,commdev-image-keyboard-response,261,534203,learnblock1,787.2999999821186,img/planet6_right.png,6,Community 2,NA,TRUE,j,j,NA,NA,NA,5,6,"11,13,5,2,10,14,12,15,6,4,9,8,7,3,1"
14477,commdev-image-keyboard-response,262,535454,learnblock1,1109.2000000178814,img/planet15_left.png,15,Community 2,NA,TRUE,f,f,NA,NA,NA,5,6,"11,13,5,2,10,14,12,15,6,4,9,8,7,3,1"
14477,commdev-image-keyboard-response,263,536706,learnblock1,920.9000000059605,img/planet4_right.png,4,Community 2,NA,TRUE,j,j,NA,NA,NA,5,6,"11,13,5,2,10,14,12,15,6,4,9,8,7,3,1"
14477,commdev-image-keyboard-response,264,537958,learnblock1,null,img/planet12_right.png,12,Community 2,NA,FALSE,null,j,NA,NA,NA,5,6,"11,13,5,2,10,14,12,15,6,4,9,8,7,3,1"
14477,commdev-image-keyboard-response,265,539210,learnblock1,41.099999994039536,img/planet14_right.png,14,Community 2,NA,FALSE,f,j,NA,NA,NA,5,6,"11,13,5,2,10,14,12,15,6,4,9,8,7,3,1"
14477,commdev-image-keyboard-response,266,540462,learnblock1,41.69999998807907,img/planet2_right.png,2,Community 1,NA,FALSE,f,j,NA,NA,NA,5,6,"11,13,5,2,10,14,12,15,6,4,9,8,7,3,1"
14477,commdev-image-keyboard-response,267,541713,learnblock1,194.30000001192093,img/planet11_left.png,11,Community 1,NA,FALSE,j,f,NA,NA,NA,5,6,"11,13,5,2,10,14,12,15,6,4,9,8,7,3,1"
14477,commdev-image-keyboard-response,268,542965,learnblock1,733,img/planet5_right.png,5,Community 1,NA,TRUE,j,j,NA,NA,NA,5,6,"11,13,5,2,10,14,12,15,6,4,9,8,7,3,1"
14477,commdev-image-keyboard-response,269,544217,learnblock1,627.6000000238419,img/planet13_left.png,13,Community 1,NA,FALSE,j,f,NA,NA,NA,5,6,"11,13,5,2,10,14,12,15,6,4,9,8,7,3,1"
14477,commdev-image-keyboard-response,270,545468,learnblock1,802.2000000178814,img/planet11_left.png,11,Community 1,NA,TRUE,f,f,NA,NA,NA,5,6,"11,13,5,2,10,14,12,15,6,4,9,8,7,3,1"
14477,commdev-image-keyboard-response,271,546720,learnblock1,755.8999999761581,img/planet13_left.png,13,Community 1,NA,TRUE,f,f,NA,NA,NA,5,6,"11,13,5,2,10,14,12,15,6,4,9,8,7,3,1"
14477,commdev-image-keyboard-response,272,547972,learnblock1,705.5,img/planet10_right.png,10,Community 1,NA,TRUE,j,j,NA,NA,NA,5,6,"11,13,5,2,10,14,12,15,6,4,9,8,7,3,1"
14477,commdev-image-keyboard-response,273,549224,learnblock1,957,img/planet11_right.png,11,Community 1,NA,FALSE,f,j,NA,NA,NA,5,6,"11,13,5,2,10,14,12,15,6,4,9,8,7,3,1"
14477,commdev-image-keyboard-response,274,550476,learnblock1,1145,img/planet5_left.png,5,Community 1,NA,TRUE,f,f,NA,NA,NA,5,6,"11,13,5,2,10,14,12,15,6,4,9,8,7,3,1"
14477,commdev-image-keyboard-response,275,551728,learnblock1,781.4000000059605,img/planet13_left.png,13,Community 1,NA,TRUE,f,f,NA,NA,NA,5,6,"11,13,5,2,10,14,12,15,6,4,9,8,7,3,1"
14477,commdev-image-keyboard-response,276,552979,learnblock1,695.1999999880791,img/planet11_left.png,11,Community 1,NA,TRUE,f,f,NA,NA,NA,5,6,"11,13,5,2,10,14,12,15,6,4,9,8,7,3,1"
14477,commdev-image-keyboard-response,277,554231,learnblock1,851,img/planet13_right.png,13,Community 1,NA,TRUE,j,j,NA,NA,NA,5,6,"11,13,5,2,10,14,12,15,6,4,9,8,7,3,1"
14477,commdev-image-keyboard-response,278,555483,learnblock1,1015.4000000059605,img/planet11_right.png,11,Community 1,NA,TRUE,j,j,NA,NA,NA,5,6,"11,13,5,2,10,14,12,15,6,4,9,8,7,3,1"
14477,commdev-image-keyboard-response,279,556734,learnblock1,1070.199999988079,img/planet2_right.png,2,Community 1,NA,TRUE,j,j,NA,NA,NA,5,6,"11,13,5,2,10,14,12,15,6,4,9,8,7,3,1"
14477,commdev-image-keyboard-response,280,557986,learnblock1,754.8000000119209,img/planet11_left.png,11,Community 1,NA,TRUE,f,f,NA,NA,NA,5,6,"11,13,5,2,10,14,12,15,6,4,9,8,7,3,1"
14477,commdev-image-keyboard-response,281,559238,learnblock1,647.1000000238419,img/planet2_right.png,2,Community 1,NA,TRUE,j,j,NA,NA,NA,5,6,"11,13,5,2,10,14,12,15,6,4,9,8,7,3,1"
14477,commdev-image-keyboard-response,282,560489,learnblock1,669.9000000059605,img/planet13_left.png,13,Community 1,NA,TRUE,f,f,NA,NA,NA,5,6,"11,13,5,2,10,14,12,15,6,4,9,8,7,3,1"
14477,commdev-image-keyboard-response,283,561742,learnblock1,693.2000000178814,img/planet2_right.png,2,Community 1,NA,TRUE,j,j,NA,NA,NA,5,6,"11,13,5,2,10,14,12,15,6,4,9,8,7,3,1"
14477,commdev-image-keyboard-response,284,562994,learnblock1,779.4000000059605,img/planet14_left.png,14,Community 2,NA,TRUE,f,f,NA,NA,NA,5,6,"11,13,5,2,10,14,12,15,6,4,9,8,7,3,1"
14477,commdev-image-keyboard-response,285,564245,learnblock1,1077.2000000178814,img/planet12_left.png,12,Community 2,NA,TRUE,f,f,NA,NA,NA,5,6,"11,13,5,2,10,14,12,15,6,4,9,8,7,3,1"
14477,commdev-image-keyboard-response,286,565496,learnblock1,954.5,img/planet6_left.png,6,Community 2,NA,TRUE,f,f,NA,NA,NA,5,6,"11,13,5,2,10,14,12,15,6,4,9,8,7,3,1"
14477,commdev-image-keyboard-response,287,566747,learnblock1,1086.800000011921,img/planet12_right.png,12,Community 2,NA,FALSE,f,j,NA,NA,NA,5,6,"11,13,5,2,10,14,12,15,6,4,9,8,7,3,1"
14477,commdev-image-keyboard-response,288,567999,learnblock1,1081.3999999761581,img/planet4_left.png,4,Community 2,NA,TRUE,f,f,NA,NA,NA,5,6,"11,13,5,2,10,14,12,15,6,4,9,8,7,3,1"
14477,commdev-image-keyboard-response,289,569250,learnblock1,797.9000000059605,img/planet14_right.png,14,Community 2,NA,TRUE,j,j,NA,NA,NA,5,6,"11,13,5,2,10,14,12,15,6,4,9,8,7,3,1"
14477,commdev-image-keyboard-response,290,570501,learnblock1,null,img/planet6_left.png,6,Community 2,NA,FALSE,null,f,NA,NA,NA,5,6,"11,13,5,2,10,14,12,15,6,4,9,8,7,3,1"
14477,commdev-image-keyboard-response,291,572719,learnblock1,null,img/planet15_left.png,15,Community 2,NA,FALSE,null,f,NA,NA,NA,5,6,"11,13,5,2,10,14,12,15,6,4,9,8,7,3,1"
14477,commdev-image-keyboard-response,292,574720,learnblock1,null,img/planet6_left.png,6,Community 2,NA,FALSE,null,f,NA,NA,NA,5,6,"11,13,5,2,10,14,12,15,6,4,9,8,7,3,1"
14477,commdev-image-keyboard-response,293,576719,learnblock1,null,img/planet4_left.png,4,Community 2,NA,FALSE,null,f,NA,NA,NA,5,6,"11,13,5,2,10,14,12,15,6,4,9,8,7,3,1"
14477,commdev-image-keyboard-response,294,577971,learnblock1,null,img/planet14_left.png,14,Community 2,NA,FALSE,null,f,NA,NA,NA,5,6,"11,13,5,2,10,14,12,15,6,4,9,8,7,3,1"
14477,commdev-image-keyboard-response,295,579222,learnblock1,null,img/planet2_left.png,2,Community 1,NA,FALSE,null,f,NA,NA,NA,5,6,"11,13,5,2,10,14,12,15,6,4,9,8,7,3,1"
14477,commdev-image-keyboard-response,296,580473,learnblock1,null,img/planet11_right.png,11,Community 1,NA,FALSE,null,j,NA,NA,NA,5,6,"11,13,5,2,10,14,12,15,6,4,9,8,7,3,1"
14477,commdev-image-keyboard-response,297,581724,learnblock1,null,img/planet2_right.png,2,Community 1,NA,FALSE,null,j,NA,NA,NA,5,6,"11,13,5,2,10,14,12,15,6,4,9,8,7,3,1"
14477,commdev-image-keyboard-response,298,582976,learnblock1,null,img/planet11_left.png,11,Community 1,NA,FALSE,null,f,NA,NA,NA,5,6,"11,13,5,2,10,14,12,15,6,4,9,8,7,3,1"
14477,commdev-image-keyboard-response,299,584228,learnblock1,null,img/planet2_left.png,2,Community 1,NA,FALSE,null,f,NA,NA,NA,5,6,"11,13,5,2,10,14,12,15,6,4,9,8,7,3,1"
14477,commdev-image-keyboard-response,300,585479,learnblock1,null,img/planet14_left.png,14,Community 2,NA,FALSE,null,f,NA,NA,NA,5,6,"11,13,5,2,10,14,12,15,6,4,9,8,7,3,1"
14477,commdev-image-keyboard-response,301,586731,learnblock1,null,img/planet6_left.png,6,Community 2,NA,FALSE,null,f,NA,NA,NA,5,6,"11,13,5,2,10,14,12,15,6,4,9,8,7,3,1"
14477,commdev-image-keyboard-response,302,587981,learnblock1,null,img/planet12_left.png,12,Community 2,NA,FALSE,null,f,NA,NA,NA,5,6,"11,13,5,2,10,14,12,15,6,4,9,8,7,3,1"
14477,commdev-image-keyboard-response,303,589233,learnblock1,268.19999998807907,img/planet6_left.png,6,Community 2,NA,TRUE,f,f,NA,NA,NA,5,6,"11,13,5,2,10,14,12,15,6,4,9,8,7,3,1"
14477,commdev-image-keyboard-response,304,590484,learnblock1,55.5,img/planet4_right.png,4,Community 2,NA,FALSE,f,j,NA,NA,NA,5,6,"11,13,5,2,10,14,12,15,6,4,9,8,7,3,1"
14477,commdev-image-keyboard-response,305,591736,learnblock1,936.2000000178814,img/planet15_left.png,15,Community 2,NA,TRUE,f,f,NA,NA,NA,5,6,"11,13,5,2,10,14,12,15,6,4,9,8,7,3,1"
14477,commdev-image-keyboard-response,306,592988,learnblock1,923.4000000059605,img/planet4_right.png,4,Community 2,NA,TRUE,j,j,NA,NA,NA,5,6,"11,13,5,2,10,14,12,15,6,4,9,8,7,3,1"
14477,commdev-image-keyboard-response,307,594239,learnblock1,null,img/planet12_left.png,12,Community 2,NA,FALSE,null,f,NA,NA,NA,5,6,"11,13,5,2,10,14,12,15,6,4,9,8,7,3,1"
14477,commdev-image-keyboard-response,308,595490,learnblock1,1124.5,img/planet6_left.png,6,Community 2,NA,TRUE,f,f,NA,NA,NA,5,6,"11,13,5,2,10,14,12,15,6,4,9,8,7,3,1"
14477,commdev-image-keyboard-response,309,596742,learnblock1,1079.699999988079,img/planet14_left.png,14,Community 2,NA,TRUE,f,f,NA,NA,NA,5,6,"11,13,5,2,10,14,12,15,6,4,9,8,7,3,1"
14477,commdev-image-keyboard-response,310,597993,learnblock1,726,img/planet4_right.png,4,Community 2,NA,TRUE,j,j,NA,NA,NA,5,6,"11,13,5,2,10,14,12,15,6,4,9,8,7,3,1"
14477,commdev-image-keyboard-response,311,599244,learnblock1,903.1000000238419,img/planet14_left.png,14,Community 2,NA,TRUE,f,f,NA,NA,NA,5,6,"11,13,5,2,10,14,12,15,6,4,9,8,7,3,1"
14477,commdev-image-keyboard-response,312,600495,learnblock1,799.3000000119209,img/planet4_right.png,4,Community 2,NA,TRUE,j,j,NA,NA,NA,5,6,"11,13,5,2,10,14,12,15,6,4,9,8,7,3,1"
14477,commdev-image-keyboard-response,313,601746,learnblock1,1168.5,img/planet15_right.png,15,Community 2,NA,TRUE,j,j,NA,NA,NA,5,6,"11,13,5,2,10,14,12,15,6,4,9,8,7,3,1"
14477,commdev-image-keyboard-response,314,602998,learnblock1,1186.5999999940395,img/planet6_left.png,6,Community 2,NA,TRUE,f,f,NA,NA,NA,5,6,"11,13,5,2,10,14,12,15,6,4,9,8,7,3,1"
14477,commdev-image-keyboard-response,315,604249,learnblock1,1239.0999999940395,img/planet12_right.png,12,Community 2,NA,TRUE,j,j,NA,NA,NA,5,6,"11,13,5,2,10,14,12,15,6,4,9,8,7,3,1"
14477,commdev-image-keyboard-response,316,605500,learnblock1,827.0999999940395,img/planet15_left.png,15,Community 2,NA,TRUE,f,f,NA,NA,NA,5,6,"11,13,5,2,10,14,12,15,6,4,9,8,7,3,1"
14477,commdev-image-keyboard-response,317,606751,learnblock1,741.3000000119209,img/planet6_right.png,6,Community 2,NA,TRUE,j,j,NA,NA,NA,5,6,"11,13,5,2,10,14,12,15,6,4,9,8,7,3,1"
14477,commdev-image-keyboard-response,318,608004,learnblock1,672.8000000119209,img/planet15_left.png,15,Community 2,NA,TRUE,f,f,NA,NA,NA,5,6,"11,13,5,2,10,14,12,15,6,4,9,8,7,3,1"
14477,commdev-image-keyboard-response,319,609255,learnblock1,957,img/planet8_left.png,8,Community 3,NA,TRUE,f,f,NA,NA,NA,5,6,"11,13,5,2,10,14,12,15,6,4,9,8,7,3,1"
14477,commdev-image-keyboard-response,320,610508,learnblock1,776.1000000238419,img/planet3_right.png,3,Community 3,NA,TRUE,j,j,NA,NA,NA,5,6,"11,13,5,2,10,14,12,15,6,4,9,8,7,3,1"
14477,commdev-image-keyboard-response,321,611759,learnblock1,894,img/planet8_right.png,8,Community 3,NA,TRUE,j,j,NA,NA,NA,5,6,"11,13,5,2,10,14,12,15,6,4,9,8,7,3,1"
14477,commdev-image-keyboard-response,322,613012,learnblock1,664.3000000119209,img/planet1_right.png,1,Community 3,NA,TRUE,j,j,NA,NA,NA,5,6,"11,13,5,2,10,14,12,15,6,4,9,8,7,3,1"
14477,commdev-image-keyboard-response,323,614264,learnblock1,1036.5,img/planet7_left.png,7,Community 3,NA,FALSE,j,f,NA,NA,NA,5,6,"11,13,5,2,10,14,12,15,6,4,9,8,7,3,1"
14477,commdev-image-keyboard-response,324,615515,learnblock1,958.4000000059605,img/planet9_left.png,9,Community 3,NA,TRUE,f,f,NA,NA,NA,5,6,"11,13,5,2,10,14,12,15,6,4,9,8,7,3,1"
14477,commdev-image-keyboard-response,325,616766,learnblock1,608.0999999940395,img/planet10_left.png,10,Community 1,NA,TRUE,f,f,NA,NA,NA,5,6,"11,13,5,2,10,14,12,15,6,4,9,8,7,3,1"
14477,commdev-image-keyboard-response,326,618719,learnblock1,null,img/planet5_left.png,5,Community 1,NA,FALSE,null,f,NA,NA,NA,5,6,"11,13,5,2,10,14,12,15,6,4,9,8,7,3,1"
14477,commdev-image-keyboard-response,327,620719,learnblock1,null,img/planet13_left.png,13,Community 1,NA,FALSE,null,f,NA,NA,NA,5,6,"11,13,5,2,10,14,12,15,6,4,9,8,7,3,1"
14477,commdev-image-keyboard-response,328,622009,learnblock1,null,img/planet10_right.png,10,Community 1,NA,FALSE,null,j,NA,NA,NA,5,6,"11,13,5,2,10,14,12,15,6,4,9,8,7,3,1"
14477,commdev-image-keyboard-response,329,623261,learnblock1,null,img/planet13_right.png,13,Community 1,NA,FALSE,null,j,NA,NA,NA,5,6,"11,13,5,2,10,14,12,15,6,4,9,8,7,3,1"
14477,commdev-image-keyboard-response,330,624511,learnblock1,null,img/planet10_right.png,10,Community 1,NA,FALSE,null,j,NA,NA,NA,5,6,"11,13,5,2,10,14,12,15,6,4,9,8,7,3,1"
14477,commdev-image-keyboard-response,331,625763,learnblock1,null,img/planet9_left.png,9,Community 3,NA,FALSE,null,f,NA,NA,NA,5,6,"11,13,5,2,10,14,12,15,6,4,9,8,7,3,1"
14477,commdev-image-keyboard-response,332,627014,learnblock1,814.2999999821186,img/planet10_right.png,10,Community 1,NA,TRUE,j,j,NA,NA,NA,5,6,"11,13,5,2,10,14,12,15,6,4,9,8,7,3,1"
14477,commdev-image-keyboard-response,333,628266,learnblock1,700.5999999940395,img/planet11_left.png,11,Community 1,NA,TRUE,f,f,NA,NA,NA,5,6,"11,13,5,2,10,14,12,15,6,4,9,8,7,3,1"
14477,commdev-image-keyboard-response,334,629517,learnblock1,683.5,img/planet2_right.png,2,Community 1,NA,FALSE,f,j,NA,NA,NA,5,6,"11,13,5,2,10,14,12,15,6,4,9,8,7,3,1"
14477,commdev-image-keyboard-response,335,630769,learnblock1,725.8999999761581,img/planet11_left.png,11,Community 1,NA,FALSE,j,f,NA,NA,NA,5,6,"11,13,5,2,10,14,12,15,6,4,9,8,7,3,1"
14477,commdev-image-keyboard-response,336,632021,learnblock1,945.7000000178814,img/planet5_left.png,5,Community 1,NA,TRUE,f,f,NA,NA,NA,5,6,"11,13,5,2,10,14,12,15,6,4,9,8,7,3,1"
14477,commdev-image-keyboard-response,337,633273,learnblock1,868.7999999821186,img/planet11_left.png,11,Community 1,NA,TRUE,f,f,NA,NA,NA,5,6,"11,13,5,2,10,14,12,15,6,4,9,8,7,3,1"
14477,commdev-image-keyboard-response,338,634524,learnblock1,722.6999999880791,img/planet10_right.png,10,Community 1,NA,FALSE,f,j,NA,NA,NA,5,6,"11,13,5,2,10,14,12,15,6,4,9,8,7,3,1"
14477,commdev-image-keyboard-response,339,635775,learnblock1,967.2000000178814,img/planet13_right.png,13,Community 1,NA,TRUE,j,j,NA,NA,NA,5,6,"11,13,5,2,10,14,12,15,6,4,9,8,7,3,1"
14477,commdev-image-keyboard-response,340,637027,learnblock1,830.8000000119209,img/planet11_left.png,11,Community 1,NA,TRUE,f,f,NA,NA,NA,5,6,"11,13,5,2,10,14,12,15,6,4,9,8,7,3,1"
14477,commdev-image-keyboard-response,341,638279,learnblock1,1137.0999999940395,img/planet13_left.png,13,Community 1,NA,TRUE,f,f,NA,NA,NA,5,6,"11,13,5,2,10,14,12,15,6,4,9,8,7,3,1"
14477,commdev-image-keyboard-response,342,639530,learnblock1,1018.4000000059605,img/planet2_left.png,2,Community 1,NA,TRUE,f,f,NA,NA,NA,5,6,"11,13,5,2,10,14,12,15,6,4,9,8,7,3,1"
14477,commdev-image-keyboard-response,343,640781,learnblock1,773.9000000059605,img/planet5_right.png,5,Community 1,NA,TRUE,j,j,NA,NA,NA,5,6,"11,13,5,2,10,14,12,15,6,4,9,8,7,3,1"
14477,commdev-image-keyboard-response,344,642033,learnblock1,994.3000000119209,img/planet10_left.png,10,Community 1,NA,TRUE,f,f,NA,NA,NA,5,6,"11,13,5,2,10,14,12,15,6,4,9,8,7,3,1"
14477,commdev-image-keyboard-response,345,643285,learnblock1,null,img/planet9_left.png,9,Community 3,NA,FALSE,null,f,NA,NA,NA,5,6,"11,13,5,2,10,14,12,15,6,4,9,8,7,3,1"
14477,commdev-image-keyboard-response,346,644537,learnblock1,279.90000000596046,img/planet10_right.png,10,Community 1,NA,FALSE,f,j,NA,NA,NA,5,6,"11,13,5,2,10,14,12,15,6,4,9,8,7,3,1"
14477,commdev-image-keyboard-response,347,645789,learnblock1,1093.699999988079,img/planet13_right.png,13,Community 1,NA,TRUE,j,j,NA,NA,NA,5,6,"11,13,5,2,10,14,12,15,6,4,9,8,7,3,1"
14477,commdev-image-keyboard-response,351,978350,learnblock2,1169.5,img/planet6_right.png,6,Community 2,NA,TRUE,j,j,NA,NA,NA,5,6,"11,13,5,2,10,14,12,15,6,4,9,8,7,3,1"
14477,commdev-image-keyboard-response,352,979601,learnblock2,833.5,img/planet12_left.png,12,Community 2,NA,TRUE,f,f,NA,NA,NA,5,6,"11,13,5,2,10,14,12,15,6,4,9,8,7,3,1"
14477,commdev-image-keyboard-response,353,980853,learnblock2,875,img/planet14_right.png,14,Community 2,NA,TRUE,j,j,NA,NA,NA,5,6,"11,13,5,2,10,14,12,15,6,4,9,8,7,3,1"
14477,commdev-image-keyboard-response,354,982105,learnblock2,786.5,img/planet6_left.png,6,Community 2,NA,TRUE,f,f,NA,NA,NA,5,6,"11,13,5,2,10,14,12,15,6,4,9,8,7,3,1"
14477,commdev-image-keyboard-response,355,983356,learnblock2,1115.199999988079,img/planet14_left.png,14,Community 2,NA,TRUE,f,f,NA,NA,NA,5,6,"11,13,5,2,10,14,12,15,6,4,9,8,7,3,1"
14477,commdev-image-keyboard-response,356,984608,learnblock2,723.1999999880791,img/planet6_left.png,6,Community 2,NA,TRUE,f,f,NA,NA,NA,5,6,"11,13,5,2,10,14,12,15,6,4,9,8,7,3,1"
14477,commdev-image-keyboard-response,357,985860,learnblock2,771.8000000119209,img/planet12_left.png,12,Community 2,NA,TRUE,f,f,NA,NA,NA,5,6,"11,13,5,2,10,14,12,15,6,4,9,8,7,3,1"
14477,commdev-image-keyboard-response,358,987112,learnblock2,null,img/planet4_left.png,4,Community 2,NA,FALSE,null,f,NA,NA,NA,5,6,"11,13,5,2,10,14,12,15,6,4,9,8,7,3,1"
14477,commdev-image-keyboard-response,359,988363,learnblock2,10.600000023841858,img/planet15_right.png,15,Community 2,NA,FALSE,f,j,NA,NA,NA,5,6,"11,13,5,2,10,14,12,15,6,4,9,8,7,3,1"
14477,commdev-image-keyboard-response,360,989615,learnblock2,1031,img/planet4_left.png,4,Community 2,NA,TRUE,f,f,NA,NA,NA,5,6,"11,13,5,2,10,14,12,15,6,4,9,8,7,3,1"
14477,commdev-image-keyboard-response,361,990867,learnblock2,1164.9000000059605,img/planet12_left.png,12,Community 2,NA,TRUE,f,f,NA,NA,NA,5,6,"11,13,5,2,10,14,12,15,6,4,9,8,7,3,1"
14477,commdev-image-keyboard-response,362,992118,learnblock2,855.7999999821186,img/planet6_left.png,6,Community 2,NA,TRUE,f,f,NA,NA,NA,5,6,"11,13,5,2,10,14,12,15,6,4,9,8,7,3,1"
14477,commdev-image-keyboard-response,363,993370,learnblock2,775.5999999940395,img/planet4_left.png,4,Community 2,NA,TRUE,f,f,NA,NA,NA,5,6,"11,13,5,2,10,14,12,15,6,4,9,8,7,3,1"
14477,commdev-image-keyboard-response,364,994621,learnblock2,775,img/planet14_left.png,14,Community 2,NA,TRUE,f,f,NA,NA,NA,5,6,"11,13,5,2,10,14,12,15,6,4,9,8,7,3,1"
14477,commdev-image-keyboard-response,365,995874,learnblock2,715.9000000059605,img/planet6_left.png,6,Community 2,NA,TRUE,f,f,NA,NA,NA,5,6,"11,13,5,2,10,14,12,15,6,4,9,8,7,3,1"
14477,commdev-image-keyboard-response,366,997126,learnblock2,939.8000000119209,img/planet15_right.png,15,Community 2,NA,TRUE,j,j,NA,NA,NA,5,6,"11,13,5,2,10,14,12,15,6,4,9,8,7,3,1"
14477,commdev-image-keyboard-response,367,998378,learnblock2,822.3000000119209,img/planet6_left.png,6,Community 2,NA,TRUE,f,f,NA,NA,NA,5,6,"11,13,5,2,10,14,12,15,6,4,9,8,7,3,1"
14477,commdev-image-keyboard-response,368,999630,learnblock2,768,img/planet4_left.png,4,Community 2,NA,TRUE,f,f,NA,NA,NA,5,6,"11,13,5,2,10,14,12,15,6,4,9,8,7,3,1"
14477,commdev-image-keyboard-response,369,1000882,learnblock2,726.9000000059605,img/planet12_right.png,12,Community 2,NA,TRUE,j,j,NA,NA,NA,5,6,"11,13,5,2,10,14,12,15,6,4,9,8,7,3,1"
14477,commdev-image-keyboard-response,370,1002133,learnblock2,677.6999999880791,img/planet6_right.png,6,Community 2,NA,TRUE,j,j,NA,NA,NA,5,6,"11,13,5,2,10,14,12,15,6,4,9,8,7,3,1"
14477,commdev-image-keyboard-response,371,1003385,learnblock2,763.5999999940395,img/planet14_right.png,14,Community 2,NA,TRUE,j,j,NA,NA,NA,5,6,"11,13,5,2,10,14,12,15,6,4,9,8,7,3,1"
14477,commdev-image-keyboard-response,372,1004637,learnblock2,935.1999999880791,img/planet2_right.png,2,Community 1,NA,TRUE,j,j,NA,NA,NA,5,6,"11,13,5,2,10,14,12,15,6,4,9,8,7,3,1"
14477,commdev-image-keyboard-response,373,1005888,learnblock2,751.0999999940395,img/planet13_left.png,13,Community 1,NA,TRUE,f,f,NA,NA,NA,5,6,"11,13,5,2,10,14,12,15,6,4,9,8,7,3,1"
14477,commdev-image-keyboard-response,374,1007140,learnblock2,788.0999999940395,img/planet5_left.png,5,Community 1,NA,TRUE,f,f,NA,NA,NA,5,6,"11,13,5,2,10,14,12,15,6,4,9,8,7,3,1"
14477,commdev-image-keyboard-response,375,1008392,learnblock2,1033.6000000238419,img/planet2_right.png,2,Community 1,NA,TRUE,j,j,NA,NA,NA,5,6,"11,13,5,2,10,14,12,15,6,4,9,8,7,3,1"
14477,commdev-image-keyboard-response,376,1009643,learnblock2,839.4000000059605,img/planet11_right.png,11,Community 1,NA,TRUE,j,j,NA,NA,NA,5,6,"11,13,5,2,10,14,12,15,6,4,9,8,7,3,1"
14477,commdev-image-keyboard-response,377,1010896,learnblock2,775.5,img/planet2_left.png,2,Community 1,NA,TRUE,f,f,NA,NA,NA,5,6,"11,13,5,2,10,14,12,15,6,4,9,8,7,3,1"
14477,commdev-image-keyboard-response,378,1012147,learnblock2,866.4000000059605,img/planet5_right.png,5,Community 1,NA,TRUE,j,j,NA,NA,NA,5,6,"11,13,5,2,10,14,12,15,6,4,9,8,7,3,1"
14477,commdev-image-keyboard-response,379,1013398,learnblock2,766.5,img/planet11_left.png,11,Community 1,NA,TRUE,f,f,NA,NA,NA,5,6,"11,13,5,2,10,14,12,15,6,4,9,8,7,3,1"
14477,commdev-image-keyboard-response,380,1014650,learnblock2,723,img/planet10_left.png,10,Community 1,NA,TRUE,f,f,NA,NA,NA,5,6,"11,13,5,2,10,14,12,15,6,4,9,8,7,3,1"
14477,commdev-image-keyboard-response,381,1015902,learnblock2,695.6999999880791,img/planet13_right.png,13,Community 1,NA,TRUE,j,j,NA,NA,NA,5,6,"11,13,5,2,10,14,12,15,6,4,9,8,7,3,1"
14477,commdev-image-keyboard-response,382,1017153,learnblock2,1141.5999999940395,img/planet5_left.png,5,Community 1,NA,TRUE,f,f,NA,NA,NA,5,6,"11,13,5,2,10,14,12,15,6,4,9,8,7,3,1"
14477,commdev-image-keyboard-response,383,1018405,learnblock2,786.9000000059605,img/planet11_right.png,11,Community 1,NA,FALSE,f,j,NA,NA,NA,5,6,"11,13,5,2,10,14,12,15,6,4,9,8,7,3,1"
14477,commdev-image-keyboard-response,384,1019657,learnblock2,971,img/planet10_left.png,10,Community 1,NA,TRUE,f,f,NA,NA,NA,5,6,"11,13,5,2,10,14,12,15,6,4,9,8,7,3,1"
14477,commdev-image-keyboard-response,385,1020910,learnblock2,1067.5,img/planet5_left.png,5,Community 1,NA,TRUE,f,f,NA,NA,NA,5,6,"11,13,5,2,10,14,12,15,6,4,9,8,7,3,1"
14477,commdev-image-keyboard-response,386,1022162,learnblock2,847.0999999940395,img/planet13_left.png,13,Community 1,NA,TRUE,f,f,NA,NA,NA,5,6,"11,13,5,2,10,14,12,15,6,4,9,8,7,3,1"
14477,commdev-image-keyboard-response,387,1023414,learnblock2,754.2000000178814,img/planet5_right.png,5,Community 1,NA,TRUE,j,j,NA,NA,NA,5,6,"11,13,5,2,10,14,12,15,6,4,9,8,7,3,1"
14477,commdev-image-keyboard-response,388,1024665,learnblock2,817.6000000238419,img/planet13_right.png,13,Community 1,NA,TRUE,j,j,NA,NA,NA,5,6,"11,13,5,2,10,14,12,15,6,4,9,8,7,3,1"
14477,commdev-image-keyboard-response,389,1025916,learnblock2,765.3000000119209,img/planet5_left.png,5,Community 1,NA,TRUE,f,f,NA,NA,NA,5,6,"11,13,5,2,10,14,12,15,6,4,9,8,7,3,1"
14477,commdev-image-keyboard-response,390,1027167,learnblock2,787.2999999821186,img/planet2_right.png,2,Community 1,NA,TRUE,j,j,NA,NA,NA,5,6,"11,13,5,2,10,14,12,15,6,4,9,8,7,3,1"
14477,commdev-image-keyboard-response,391,1028419,learnblock2,764.5,img/planet14_right.png,14,Community 2,NA,TRUE,j,j,NA,NA,NA,5,6,"11,13,5,2,10,14,12,15,6,4,9,8,7,3,1"
14477,commdev-image-keyboard-response,392,1029670,learnblock2,987.5999999940395,img/planet6_left.png,6,Community 2,NA,TRUE,f,f,NA,NA,NA,5,6,"11,13,5,2,10,14,12,15,6,4,9,8,7,3,1"
14477,commdev-image-keyboard-response,393,1030921,learnblock2,841.3000000119209,img/planet14_left.png,14,Community 2,NA,TRUE,f,f,NA,NA,NA,5,6,"11,13,5,2,10,14,12,15,6,4,9,8,7,3,1"
14477,commdev-image-keyboard-response,394,1032173,learnblock2,696.0999999940395,img/planet2_left.png,2,Community 1,NA,TRUE,f,f,NA,NA,NA,5,6,"11,13,5,2,10,14,12,15,6,4,9,8,7,3,1"
14477,commdev-image-keyboard-response,395,1033424,learnblock2,732,img/planet11_right.png,11,Community 1,NA,TRUE,j,j,NA,NA,NA,5,6,"11,13,5,2,10,14,12,15,6,4,9,8,7,3,1"
14477,commdev-image-keyboard-response,396,1034676,learnblock2,1085.5999999940395,img/planet5_right.png,5,Community 1,NA,TRUE,j,j,NA,NA,NA,5,6,"11,13,5,2,10,14,12,15,6,4,9,8,7,3,1"
14477,commdev-image-keyboard-response,397,1035927,learnblock2,752.8000000119209,img/planet11_right.png,11,Community 1,NA,TRUE,j,j,NA,NA,NA,5,6,"11,13,5,2,10,14,12,15,6,4,9,8,7,3,1"
14477,commdev-image-keyboard-response,398,1037179,learnblock2,695.0999999940395,img/planet10_left.png,10,Community 1,NA,TRUE,f,f,NA,NA,NA,5,6,"11,13,5,2,10,14,12,15,6,4,9,8,7,3,1"
14477,commdev-image-keyboard-response,399,1038431,learnblock2,884.5,img/planet9_left.png,9,Community 3,NA,TRUE,f,f,NA,NA,NA,5,6,"11,13,5,2,10,14,12,15,6,4,9,8,7,3,1"
14477,commdev-image-keyboard-response,400,1039683,learnblock2,1012.5,img/planet7_left.png,7,Community 3,NA,TRUE,f,f,NA,NA,NA,5,6,"11,13,5,2,10,14,12,15,6,4,9,8,7,3,1"
14477,commdev-image-keyboard-response,401,1040934,learnblock2,944,img/planet8_left.png,8,Community 3,NA,TRUE,f,f,NA,NA,NA,5,6,"11,13,5,2,10,14,12,15,6,4,9,8,7,3,1"
14477,commdev-image-keyboard-response,402,1042186,learnblock2,803.4000000059605,img/planet1_right.png,1,Community 3,NA,TRUE,j,j,NA,NA,NA,5,6,"11,13,5,2,10,14,12,15,6,4,9,8,7,3,1"
14477,commdev-image-keyboard-response,403,1043438,learnblock2,1168.1000000238419,img/planet8_right.png,8,Community 3,NA,TRUE,j,j,NA,NA,NA,5,6,"11,13,5,2,10,14,12,15,6,4,9,8,7,3,1"
14477,commdev-image-keyboard-response,404,1044690,learnblock2,908.9000000059605,img/planet7_left.png,7,Community 3,NA,TRUE,f,f,NA,NA,NA,5,6,"11,13,5,2,10,14,12,15,6,4,9,8,7,3,1"
14477,commdev-image-keyboard-response,405,1045941,learnblock2,882.2999999821186,img/planet8_right.png,8,Community 3,NA,TRUE,j,j,NA,NA,NA,5,6,"11,13,5,2,10,14,12,15,6,4,9,8,7,3,1"
14477,commdev-image-keyboard-response,406,1047193,learnblock2,886.4000000059605,img/planet7_right.png,7,Community 3,NA,FALSE,f,j,NA,NA,NA,5,6,"11,13,5,2,10,14,12,15,6,4,9,8,7,3,1"
14477,commdev-image-keyboard-response,407,1048444,learnblock2,null,img/planet3_right.png,3,Community 3,NA,FALSE,null,j,NA,NA,NA,5,6,"11,13,5,2,10,14,12,15,6,4,9,8,7,3,1"
14477,commdev-image-keyboard-response,408,1049696,learnblock2,2.9000000059604645,img/planet1_right.png,1,Community 3,NA,TRUE,j,j,NA,NA,NA,5,6,"11,13,5,2,10,14,12,15,6,4,9,8,7,3,1"
14477,commdev-image-keyboard-response,409,1050948,learnblock2,762.0999999940395,img/planet8_right.png,8,Community 3,NA,TRUE,j,j,NA,NA,NA,5,6,"11,13,5,2,10,14,12,15,6,4,9,8,7,3,1"
14477,commdev-image-keyboard-response,410,1052200,learnblock2,695.7999999821186,img/planet3_right.png,3,Community 3,NA,TRUE,j,j,NA,NA,NA,5,6,"11,13,5,2,10,14,12,15,6,4,9,8,7,3,1"
14477,commdev-image-keyboard-response,411,1053452,learnblock2,930.3000000119209,img/planet7_right.png,7,Community 3,NA,TRUE,j,j,NA,NA,NA,5,6,"11,13,5,2,10,14,12,15,6,4,9,8,7,3,1"
14477,commdev-image-keyboard-response,412,1054703,learnblock2,979.0999999940395,img/planet9_left.png,9,Community 3,NA,TRUE,f,f,NA,NA,NA,5,6,"11,13,5,2,10,14,12,15,6,4,9,8,7,3,1"
14477,commdev-image-keyboard-response,413,1055954,learnblock2,null,img/planet1_left.png,1,Community 3,NA,FALSE,null,f,NA,NA,NA,5,6,"11,13,5,2,10,14,12,15,6,4,9,8,7,3,1"
14477,commdev-image-keyboard-response,414,1057206,learnblock2,1242.2000000178814,img/planet7_left.png,7,Community 3,NA,TRUE,f,f,NA,NA,NA,5,6,"11,13,5,2,10,14,12,15,6,4,9,8,7,3,1"
14477,commdev-image-keyboard-response,415,1058458,learnblock2,863.8000000119209,img/planet8_right.png,8,Community 3,NA,TRUE,j,j,NA,NA,NA,5,6,"11,13,5,2,10,14,12,15,6,4,9,8,7,3,1"
14477,commdev-image-keyboard-response,416,1059709,learnblock2,998.9000000059605,img/planet15_right.png,15,Community 2,NA,TRUE,j,j,NA,NA,NA,5,6,"11,13,5,2,10,14,12,15,6,4,9,8,7,3,1"
14477,commdev-image-keyboard-response,417,1060962,learnblock2,813.8999999761581,img/planet12_left.png,12,Community 2,NA,TRUE,f,f,NA,NA,NA,5,6,"11,13,5,2,10,14,12,15,6,4,9,8,7,3,1"
14477,commdev-image-keyboard-response,418,1062213,learnblock2,901.2000000178814,img/planet6_left.png,6,Community 2,NA,TRUE,f,f,NA,NA,NA,5,6,"11,13,5,2,10,14,12,15,6,4,9,8,7,3,1"
14477,commdev-image-keyboard-response,419,1063465,learnblock2,864.4000000059605,img/planet14_right.png,14,Community 2,NA,TRUE,j,j,NA,NA,NA,5,6,"11,13,5,2,10,14,12,15,6,4,9,8,7,3,1"
14477,commdev-image-keyboard-response,420,1064716,learnblock2,669.0999999940395,img/planet6_right.png,6,Community 2,NA,TRUE,j,j,NA,NA,NA,5,6,"11,13,5,2,10,14,12,15,6,4,9,8,7,3,1"
14477,commdev-image-keyboard-response,421,1065967,learnblock2,918.8000000119209,img/planet12_right.png,12,Community 2,NA,TRUE,j,j,NA,NA,NA,5,6,"11,13,5,2,10,14,12,15,6,4,9,8,7,3,1"
14477,commdev-image-keyboard-response,422,1067219,learnblock2,767.0999999940395,img/planet15_right.png,15,Community 2,NA,TRUE,j,j,NA,NA,NA,5,6,"11,13,5,2,10,14,12,15,6,4,9,8,7,3,1"
14477,commdev-image-keyboard-response,423,1068471,learnblock2,1026.699999988079,img/planet4_right.png,4,Community 2,NA,TRUE,j,j,NA,NA,NA,5,6,"11,13,5,2,10,14,12,15,6,4,9,8,7,3,1"
14477,commdev-image-keyboard-response,424,1069723,learnblock2,1063.300000011921,img/planet12_right.png,12,Community 2,NA,TRUE,j,j,NA,NA,NA,5,6,"11,13,5,2,10,14,12,15,6,4,9,8,7,3,1"
14477,commdev-image-keyboard-response,425,1070975,learnblock2,1071,img/planet4_right.png,4,Community 2,NA,TRUE,j,j,NA,NA,NA,5,6,"11,13,5,2,10,14,12,15,6,4,9,8,7,3,1"
14477,commdev-image-keyboard-response,426,1072227,learnblock2,1008.1999999880791,img/planet12_left.png,12,Community 2,NA,TRUE,f,f,NA,NA,NA,5,6,"11,13,5,2,10,14,12,15,6,4,9,8,7,3,1"
14477,commdev-image-keyboard-response,427,1073478,learnblock2,1145.9000000059605,img/planet4_left.png,4,Community 2,NA,TRUE,f,f,NA,NA,NA,5,6,"11,13,5,2,10,14,12,15,6,4,9,8,7,3,1"
14477,commdev-image-keyboard-response,428,1074730,learnblock2,1144.2000000178814,img/planet6_right.png,6,Community 2,NA,FALSE,f,j,NA,NA,NA,5,6,"11,13,5,2,10,14,12,15,6,4,9,8,7,3,1"
14477,commdev-image-keyboard-response,429,1075982,learnblock2,207.19999998807907,img/planet12_right.png,12,Community 2,NA,TRUE,j,j,NA,NA,NA,5,6,"11,13,5,2,10,14,12,15,6,4,9,8,7,3,1"
14477,commdev-image-keyboard-response,430,1077234,learnblock2,822.9000000059605,img/planet15_right.png,15,Community 2,NA,TRUE,j,j,NA,NA,NA,5,6,"11,13,5,2,10,14,12,15,6,4,9,8,7,3,1"
14477,commdev-image-keyboard-response,431,1078486,learnblock2,727.3000000119209,img/planet4_right.png,4,Community 2,NA,TRUE,j,j,NA,NA,NA,5,6,"11,13,5,2,10,14,12,15,6,4,9,8,7,3,1"
14477,commdev-image-keyboard-response,432,1079737,learnblock2,1208.300000011921,img/planet15_left.png,15,Community 2,NA,TRUE,f,f,NA,NA,NA,5,6,"11,13,5,2,10,14,12,15,6,4,9,8,7,3,1"
14477,commdev-image-keyboard-response,433,1080989,learnblock2,1047.2000000178814,img/planet8_left.png,8,Community 3,NA,TRUE,f,f,NA,NA,NA,5,6,"11,13,5,2,10,14,12,15,6,4,9,8,7,3,1"
14477,commdev-image-keyboard-response,434,1082242,learnblock2,862.8000000119209,img/planet15_left.png,15,Community 2,NA,TRUE,f,f,NA,NA,NA,5,6,"11,13,5,2,10,14,12,15,6,4,9,8,7,3,1"
14477,commdev-image-keyboard-response,435,1083494,learnblock2,908.1999999880791,img/planet8_right.png,8,Community 3,NA,TRUE,j,j,NA,NA,NA,5,6,"11,13,5,2,10,14,12,15,6,4,9,8,7,3,1"
14477,commdev-image-keyboard-response,436,1084745,learnblock2,758.3999999761581,img/planet1_left.png,1,Community 3,NA,TRUE,f,f,NA,NA,NA,5,6,"11,13,5,2,10,14,12,15,6,4,9,8,7,3,1"
14477,commdev-image-keyboard-response,437,1085996,learnblock2,789.1000000238419,img/planet9_right.png,9,Community 3,NA,TRUE,j,j,NA,NA,NA,5,6,"11,13,5,2,10,14,12,15,6,4,9,8,7,3,1"
14477,commdev-image-keyboard-response,438,1087248,learnblock2,712.2000000178814,img/planet3_left.png,3,Community 3,NA,TRUE,f,f,NA,NA,NA,5,6,"11,13,5,2,10,14,12,15,6,4,9,8,7,3,1"
14477,commdev-image-keyboard-response,439,1088500,learnblock2,840.0999999940395,img/planet8_left.png,8,Community 3,NA,TRUE,f,f,NA,NA,NA,5,6,"11,13,5,2,10,14,12,15,6,4,9,8,7,3,1"
14477,commdev-image-keyboard-response,440,1089751,learnblock2,848.5999999940395,img/planet3_left.png,3,Community 3,NA,TRUE,f,f,NA,NA,NA,5,6,"11,13,5,2,10,14,12,15,6,4,9,8,7,3,1"
14477,commdev-image-keyboard-response,441,1091003,learnblock2,677.1999999880791,img/planet9_left.png,9,Community 3,NA,TRUE,f,f,NA,NA,NA,5,6,"11,13,5,2,10,14,12,15,6,4,9,8,7,3,1"
14477,commdev-image-keyboard-response,442,1092255,learnblock2,608.0999999940395,img/planet3_right.png,3,Community 3,NA,TRUE,j,j,NA,NA,NA,5,6,"11,13,5,2,10,14,12,15,6,4,9,8,7,3,1"
14477,commdev-image-keyboard-response,443,1093507,learnblock2,702,img/planet9_left.png,9,Community 3,NA,TRUE,f,f,NA,NA,NA,5,6,"11,13,5,2,10,14,12,15,6,4,9,8,7,3,1"
14477,commdev-image-keyboard-response,444,1094758,learnblock2,683.5999999940395,img/planet3_left.png,3,Community 3,NA,TRUE,f,f,NA,NA,NA,5,6,"11,13,5,2,10,14,12,15,6,4,9,8,7,3,1"
14477,commdev-image-keyboard-response,445,1096010,learnblock2,719.0999999940395,img/planet8_right.png,8,Community 3,NA,TRUE,j,j,NA,NA,NA,5,6,"11,13,5,2,10,14,12,15,6,4,9,8,7,3,1"
14477,commdev-image-keyboard-response,446,1097262,learnblock2,908.3000000119209,img/planet7_left.png,7,Community 3,NA,TRUE,f,f,NA,NA,NA,5,6,"11,13,5,2,10,14,12,15,6,4,9,8,7,3,1"
14477,commdev-image-keyboard-response,447,1098515,learnblock2,825.1999999880791,img/planet9_left.png,9,Community 3,NA,TRUE,f,f,NA,NA,NA,5,6,"11,13,5,2,10,14,12,15,6,4,9,8,7,3,1"
14477,commdev-image-keyboard-response,448,1099766,learnblock2,789.9000000059605,img/planet7_left.png,7,Community 3,NA,TRUE,f,f,NA,NA,NA,5,6,"11,13,5,2,10,14,12,15,6,4,9,8,7,3,1"
14477,commdev-image-keyboard-response,449,1101018,learnblock2,695,img/planet9_left.png,9,Community 3,NA,TRUE,f,f,NA,NA,NA,5,6,"11,13,5,2,10,14,12,15,6,4,9,8,7,3,1"
14477,commdev-image-keyboard-response,450,1102270,learnblock2,638.0999999940395,img/planet10_left.png,10,Community 1,NA,TRUE,f,f,NA,NA,NA,5,6,"11,13,5,2,10,14,12,15,6,4,9,8,7,3,1"
14477,commdev-image-keyboard-response,451,1103522,learnblock2,707.5999999940395,img/planet9_right.png,9,Community 3,NA,TRUE,j,j,NA,NA,NA,5,6,"11,13,5,2,10,14,12,15,6,4,9,8,7,3,1"
14477,commdev-image-keyboard-response,452,1104773,learnblock2,790.8000000119209,img/planet1_right.png,1,Community 3,NA,TRUE,j,j,NA,NA,NA,5,6,"11,13,5,2,10,14,12,15,6,4,9,8,7,3,1"
14477,commdev-image-keyboard-response,453,1106024,learnblock2,770.5,img/planet8_right.png,8,Community 3,NA,TRUE,j,j,NA,NA,NA,5,6,"11,13,5,2,10,14,12,15,6,4,9,8,7,3,1"
14477,commdev-image-keyboard-response,454,1107276,learnblock2,874.4000000059605,img/planet1_left.png,1,Community 3,NA,TRUE,f,f,NA,NA,NA,5,6,"11,13,5,2,10,14,12,15,6,4,9,8,7,3,1"
14477,commdev-image-keyboard-response,455,1108528,learnblock2,700.4000000059605,img/planet3_right.png,3,Community 3,NA,TRUE,j,j,NA,NA,NA,5,6,"11,13,5,2,10,14,12,15,6,4,9,8,7,3,1"
14477,commdev-image-keyboard-response,456,1109780,learnblock2,874.1999999880791,img/planet1_right.png,1,Community 3,NA,TRUE,j,j,NA,NA,NA,5,6,"11,13,5,2,10,14,12,15,6,4,9,8,7,3,1"
14477,commdev-image-keyboard-response,457,1111032,learnblock2,882.3000000119209,img/planet7_right.png,7,Community 3,NA,TRUE,j,j,NA,NA,NA,5,6,"11,13,5,2,10,14,12,15,6,4,9,8,7,3,1"
14477,commdev-image-keyboard-response,458,1112282,learnblock2,737.6999999880791,img/planet8_right.png,8,Community 3,NA,TRUE,j,j,NA,NA,NA,5,6,"11,13,5,2,10,14,12,15,6,4,9,8,7,3,1"
14477,commdev-image-keyboard-response,459,1113534,learnblock2,719.3999999761581,img/planet7_left.png,7,Community 3,NA,TRUE,f,f,NA,NA,NA,5,6,"11,13,5,2,10,14,12,15,6,4,9,8,7,3,1"
14477,commdev-image-keyboard-response,460,1114786,learnblock2,945.5999999940395,img/planet8_right.png,8,Community 3,NA,TRUE,j,j,NA,NA,NA,5,6,"11,13,5,2,10,14,12,15,6,4,9,8,7,3,1"
14477,commdev-image-keyboard-response,461,1116038,learnblock2,844.8000000119209,img/planet7_left.png,7,Community 3,NA,TRUE,f,f,NA,NA,NA,5,6,"11,13,5,2,10,14,12,15,6,4,9,8,7,3,1"
14477,commdev-image-keyboard-response,462,1117290,learnblock2,974.5,img/planet3_right.png,3,Community 3,NA,TRUE,j,j,NA,NA,NA,5,6,"11,13,5,2,10,14,12,15,6,4,9,8,7,3,1"
14477,commdev-image-keyboard-response,463,1118542,learnblock2,1004.5,img/planet8_left.png,8,Community 3,NA,TRUE,f,f,NA,NA,NA,5,6,"11,13,5,2,10,14,12,15,6,4,9,8,7,3,1"
14477,commdev-image-keyboard-response,464,1119794,learnblock2,871.9000000059605,img/planet3_left.png,3,Community 3,NA,TRUE,f,f,NA,NA,NA,5,6,"11,13,5,2,10,14,12,15,6,4,9,8,7,3,1"
14477,commdev-image-keyboard-response,465,1121046,learnblock2,897.1999999880791,img/planet7_left.png,7,Community 3,NA,TRUE,f,f,NA,NA,NA,5,6,"11,13,5,2,10,14,12,15,6,4,9,8,7,3,1"
14477,commdev-image-keyboard-response,466,1122297,learnblock2,921.5,img/planet9_left.png,9,Community 3,NA,TRUE,f,f,NA,NA,NA,5,6,"11,13,5,2,10,14,12,15,6,4,9,8,7,3,1"
14477,commdev-image-keyboard-response,467,1123549,learnblock2,800.9000000059605,img/planet10_left.png,10,Community 1,NA,TRUE,f,f,NA,NA,NA,5,6,"11,13,5,2,10,14,12,15,6,4,9,8,7,3,1"
14477,commdev-image-keyboard-response,468,1124800,learnblock2,829.0999999940395,img/planet9_right.png,9,Community 3,NA,TRUE,j,j,NA,NA,NA,5,6,"11,13,5,2,10,14,12,15,6,4,9,8,7,3,1"
14477,commdev-image-keyboard-response,469,1126051,learnblock2,1036.8999999761581,img/planet7_left.png,7,Community 3,NA,TRUE,f,f,NA,NA,NA,5,6,"11,13,5,2,10,14,12,15,6,4,9,8,7,3,1"
14477,commdev-image-keyboard-response,470,1127303,learnblock2,1245.7000000178814,img/planet9_left.png,9,Community 3,NA,TRUE,f,f,NA,NA,NA,5,6,"11,13,5,2,10,14,12,15,6,4,9,8,7,3,1"
14477,commdev-image-keyboard-response,471,1128555,learnblock2,865.5,img/planet7_right.png,7,Community 3,NA,TRUE,j,j,NA,NA,NA,5,6,"11,13,5,2,10,14,12,15,6,4,9,8,7,3,1"
14477,commdev-image-keyboard-response,472,1129808,learnblock2,1020.5999999940395,img/planet8_right.png,8,Community 3,NA,TRUE,j,j,NA,NA,NA,5,6,"11,13,5,2,10,14,12,15,6,4,9,8,7,3,1"
14477,commdev-image-keyboard-response,473,1131060,learnblock2,781.9000000059605,img/planet3_left.png,3,Community 3,NA,TRUE,f,f,NA,NA,NA,5,6,"11,13,5,2,10,14,12,15,6,4,9,8,7,3,1"
14477,commdev-image-keyboard-response,474,1132312,learnblock2,null,img/planet7_right.png,7,Community 3,NA,FALSE,null,j,NA,NA,NA,5,6,"11,13,5,2,10,14,12,15,6,4,9,8,7,3,1"
14477,commdev-image-keyboard-response,475,1133564,learnblock2,133.09999999403954,img/planet9_right.png,9,Community 3,NA,TRUE,j,j,NA,NA,NA,5,6,"11,13,5,2,10,14,12,15,6,4,9,8,7,3,1"
14477,commdev-image-keyboard-response,476,1134815,learnblock2,658.4000000059605,img/planet10_right.png,10,Community 1,NA,TRUE,j,j,NA,NA,NA,5,6,"11,13,5,2,10,14,12,15,6,4,9,8,7,3,1"
14477,commdev-image-keyboard-response,477,1136068,learnblock2,719.1999999880791,img/planet5_left.png,5,Community 1,NA,TRUE,f,f,NA,NA,NA,5,6,"11,13,5,2,10,14,12,15,6,4,9,8,7,3,1"
14477,commdev-image-keyboard-response,478,1137320,learnblock2,1016.6999999880791,img/planet11_right.png,11,Community 1,NA,TRUE,j,j,NA,NA,NA,5,6,"11,13,5,2,10,14,12,15,6,4,9,8,7,3,1"
14477,commdev-image-keyboard-response,479,1138571,learnblock2,761,img/planet2_left.png,2,Community 1,NA,TRUE,f,f,NA,NA,NA,5,6,"11,13,5,2,10,14,12,15,6,4,9,8,7,3,1"
14477,commdev-image-keyboard-response,480,1139822,learnblock2,726.9000000059605,img/planet5_right.png,5,Community 1,NA,TRUE,j,j,NA,NA,NA,5,6,"11,13,5,2,10,14,12,15,6,4,9,8,7,3,1"
14477,commdev-image-keyboard-response,481,1141074,learnblock2,810.3999999761581,img/planet13_left.png,13,Community 1,NA,TRUE,f,f,NA,NA,NA,5,6,"11,13,5,2,10,14,12,15,6,4,9,8,7,3,1"
14477,commdev-image-keyboard-response,482,1142326,learnblock2,712.0999999940395,img/planet11_right.png,11,Community 1,NA,TRUE,j,j,NA,NA,NA,5,6,"11,13,5,2,10,14,12,15,6,4,9,8,7,3,1"
14477,commdev-image-keyboard-response,483,1143577,learnblock2,618.5999999940395,img/planet2_right.png,2,Community 1,NA,TRUE,j,j,NA,NA,NA,5,6,"11,13,5,2,10,14,12,15,6,4,9,8,7,3,1"
14477,commdev-image-keyboard-response,484,1144829,learnblock2,912.5,img/planet14_left.png,14,Community 2,NA,TRUE,f,f,NA,NA,NA,5,6,"11,13,5,2,10,14,12,15,6,4,9,8,7,3,1"
14477,commdev-image-keyboard-response,485,1146081,learnblock2,780,img/planet2_left.png,2,Community 1,NA,TRUE,f,f,NA,NA,NA,5,6,"11,13,5,2,10,14,12,15,6,4,9,8,7,3,1"
14477,commdev-image-keyboard-response,486,1147332,learnblock2,936.7999999821186,img/planet5_left.png,5,Community 1,NA,TRUE,f,f,NA,NA,NA,5,6,"11,13,5,2,10,14,12,15,6,4,9,8,7,3,1"
14477,commdev-image-keyboard-response,487,1148585,learnblock2,804.9000000059605,img/planet13_left.png,13,Community 1,NA,TRUE,f,f,NA,NA,NA,5,6,"11,13,5,2,10,14,12,15,6,4,9,8,7,3,1"
14477,commdev-image-keyboard-response,488,1149837,learnblock2,782.8000000119209,img/planet11_left.png,11,Community 1,NA,TRUE,f,f,NA,NA,NA,5,6,"11,13,5,2,10,14,12,15,6,4,9,8,7,3,1"
14477,commdev-image-keyboard-response,489,1151089,learnblock2,793.1999999880791,img/planet5_left.png,5,Community 1,NA,TRUE,f,f,NA,NA,NA,5,6,"11,13,5,2,10,14,12,15,6,4,9,8,7,3,1"
14477,commdev-image-keyboard-response,490,1152340,learnblock2,840,img/planet11_left.png,11,Community 1,NA,TRUE,f,f,NA,NA,NA,5,6,"11,13,5,2,10,14,12,15,6,4,9,8,7,3,1"
14477,commdev-image-keyboard-response,491,1153592,learnblock2,698,img/planet2_left.png,2,Community 1,NA,TRUE,f,f,NA,NA,NA,5,6,"11,13,5,2,10,14,12,15,6,4,9,8,7,3,1"
14477,commdev-image-keyboard-response,492,1154844,learnblock2,770.7000000178814,img/planet11_right.png,11,Community 1,NA,TRUE,j,j,NA,NA,NA,5,6,"11,13,5,2,10,14,12,15,6,4,9,8,7,3,1"
14477,commdev-image-keyboard-response,493,1156097,learnblock2,737.5999999940395,img/planet13_right.png,13,Community 1,NA,TRUE,j,j,NA,NA,NA,5,6,"11,13,5,2,10,14,12,15,6,4,9,8,7,3,1"
14477,commdev-image-keyboard-response,494,1157348,learnblock2,812.3999999761581,img/planet5_left.png,5,Community 1,NA,TRUE,f,f,NA,NA,NA,5,6,"11,13,5,2,10,14,12,15,6,4,9,8,7,3,1"
14477,commdev-image-keyboard-response,495,1158598,learnblock2,650.1000000238419,img/planet10_left.png,10,Community 1,NA,TRUE,f,f,NA,NA,NA,5,6,"11,13,5,2,10,14,12,15,6,4,9,8,7,3,1"
14477,commdev-image-keyboard-response,496,1159850,learnblock2,695.5,img/planet11_left.png,11,Community 1,NA,TRUE,f,f,NA,NA,NA,5,6,"11,13,5,2,10,14,12,15,6,4,9,8,7,3,1"
14477,commdev-image-keyboard-response,497,1161101,learnblock2,742.1999999880791,img/planet13_left.png,13,Community 1,NA,TRUE,f,f,NA,NA,NA,5,6,"11,13,5,2,10,14,12,15,6,4,9,8,7,3,1"
14477,commdev-image-keyboard-response,498,1162353,learnblock2,695.5,img/planet2_left.png,2,Community 1,NA,TRUE,f,f,NA,NA,NA,5,6,"11,13,5,2,10,14,12,15,6,4,9,8,7,3,1"
14477,commdev-image-keyboard-response,499,1163605,learnblock2,764.5,img/planet14_left.png,14,Community 2,NA,TRUE,f,f,NA,NA,NA,5,6,"11,13,5,2,10,14,12,15,6,4,9,8,7,3,1"
14477,commdev-image-keyboard-response,500,1164857,learnblock2,815.8000000119209,img/planet12_right.png,12,Community 2,NA,TRUE,j,j,NA,NA,NA,5,6,"11,13,5,2,10,14,12,15,6,4,9,8,7,3,1"
14477,commdev-image-keyboard-response,501,1166108,learnblock2,826.6000000238419,img/planet14_left.png,14,Community 2,NA,TRUE,f,f,NA,NA,NA,5,6,"11,13,5,2,10,14,12,15,6,4,9,8,7,3,1"
14477,commdev-image-keyboard-response,502,1167360,learnblock2,1168.7000000178814,img/planet12_left.png,12,Community 2,NA,TRUE,f,f,NA,NA,NA,5,6,"11,13,5,2,10,14,12,15,6,4,9,8,7,3,1"
14477,commdev-image-keyboard-response,503,1168612,learnblock2,963,img/planet14_left.png,14,Community 2,NA,TRUE,f,f,NA,NA,NA,5,6,"11,13,5,2,10,14,12,15,6,4,9,8,7,3,1"
14477,commdev-image-keyboard-response,504,1169864,learnblock2,975.8000000119209,img/planet12_left.png,12,Community 2,NA,TRUE,f,f,NA,NA,NA,5,6,"11,13,5,2,10,14,12,15,6,4,9,8,7,3,1"
14477,commdev-image-keyboard-response,505,1171116,learnblock2,1157.9000000059605,img/planet15_left.png,15,Community 2,NA,TRUE,f,f,NA,NA,NA,5,6,"11,13,5,2,10,14,12,15,6,4,9,8,7,3,1"
14477,commdev-image-keyboard-response,506,1172368,learnblock2,914.5999999940395,img/planet8_right.png,8,Community 3,NA,TRUE,j,j,NA,NA,NA,5,6,"11,13,5,2,10,14,12,15,6,4,9,8,7,3,1"
14477,commdev-image-keyboard-response,507,1173619,learnblock2,1001.5999999940395,img/planet1_right.png,1,Community 3,NA,TRUE,j,j,NA,NA,NA,5,6,"11,13,5,2,10,14,12,15,6,4,9,8,7,3,1"
14477,commdev-image-keyboard-response,508,1174871,learnblock2,1018.5,img/planet3_right.png,3,Community 3,NA,TRUE,j,j,NA,NA,NA,5,6,"11,13,5,2,10,14,12,15,6,4,9,8,7,3,1"
14477,commdev-image-keyboard-response,509,1176123,learnblock2,837.3000000119209,img/planet8_left.png,8,Community 3,NA,TRUE,f,f,NA,NA,NA,5,6,"11,13,5,2,10,14,12,15,6,4,9,8,7,3,1"
14477,commdev-image-keyboard-response,510,1177375,learnblock2,726.7000000178814,img/planet1_left.png,1,Community 3,NA,TRUE,f,f,NA,NA,NA,5,6,"11,13,5,2,10,14,12,15,6,4,9,8,7,3,1"
14477,commdev-image-keyboard-response,511,1178628,learnblock2,948.2999999821186,img/planet7_left.png,7,Community 3,NA,TRUE,f,f,NA,NA,NA,5,6,"11,13,5,2,10,14,12,15,6,4,9,8,7,3,1"
14477,commdev-image-keyboard-response,512,1179879,learnblock2,734.5999999940395,img/planet9_right.png,9,Community 3,NA,TRUE,j,j,NA,NA,NA,5,6,"11,13,5,2,10,14,12,15,6,4,9,8,7,3,1"
14477,commdev-image-keyboard-response,513,1181131,learnblock2,736.8999999761581,img/planet3_left.png,3,Community 3,NA,TRUE,f,f,NA,NA,NA,5,6,"11,13,5,2,10,14,12,15,6,4,9,8,7,3,1"
14477,commdev-image-keyboard-response,514,1182383,learnblock2,875.9000000059605,img/planet1_right.png,1,Community 3,NA,TRUE,j,j,NA,NA,NA,5,6,"11,13,5,2,10,14,12,15,6,4,9,8,7,3,1"
14477,commdev-image-keyboard-response,515,1183634,learnblock2,955.8000000119209,img/planet7_right.png,7,Community 3,NA,TRUE,j,j,NA,NA,NA,5,6,"11,13,5,2,10,14,12,15,6,4,9,8,7,3,1"
14477,commdev-image-keyboard-response,516,1184886,learnblock2,null,img/planet1_right.png,1,Community 3,NA,FALSE,null,j,NA,NA,NA,5,6,"11,13,5,2,10,14,12,15,6,4,9,8,7,3,1"
14477,commdev-image-keyboard-response,517,1186138,learnblock2,48.400000005960464,img/planet7_left.png,7,Community 3,NA,FALSE,j,f,NA,NA,NA,5,6,"11,13,5,2,10,14,12,15,6,4,9,8,7,3,1"
14477,commdev-image-keyboard-response,518,1187390,learnblock2,1229.800000011921,img/planet1_right.png,1,Community 3,NA,FALSE,f,j,NA,NA,NA,5,6,"11,13,5,2,10,14,12,15,6,4,9,8,7,3,1"
14477,commdev-image-keyboard-response,519,1188642,learnblock2,null,img/planet9_right.png,9,Community 3,NA,FALSE,null,j,NA,NA,NA,5,6,"11,13,5,2,10,14,12,15,6,4,9,8,7,3,1"
14477,commdev-image-keyboard-response,520,1189894,learnblock2,472.40000000596046,img/planet1_left.png,1,Community 3,NA,FALSE,j,f,NA,NA,NA,5,6,"11,13,5,2,10,14,12,15,6,4,9,8,7,3,1"
14477,commdev-image-keyboard-response,521,1191145,learnblock2,1153.2999999821186,img/planet7_left.png,7,Community 3,NA,TRUE,f,f,NA,NA,NA,5,6,"11,13,5,2,10,14,12,15,6,4,9,8,7,3,1"
14477,commdev-image-keyboard-response,522,1192396,learnblock2,875.0999999940395,img/planet1_left.png,1,Community 3,NA,TRUE,f,f,NA,NA,NA,5,6,"11,13,5,2,10,14,12,15,6,4,9,8,7,3,1"
14477,commdev-image-keyboard-response,523,1193648,learnblock2,844.0999999940395,img/planet9_left.png,9,Community 3,NA,TRUE,f,f,NA,NA,NA,5,6,"11,13,5,2,10,14,12,15,6,4,9,8,7,3,1"
14477,commdev-image-keyboard-response,524,1194900,learnblock2,709.6999999880791,img/planet10_left.png,10,Community 1,NA,TRUE,f,f,NA,NA,NA,5,6,"11,13,5,2,10,14,12,15,6,4,9,8,7,3,1"
14477,commdev-image-keyboard-response,525,1196152,learnblock2,629.4000000059605,img/planet13_right.png,13,Community 1,NA,TRUE,j,j,NA,NA,NA,5,6,"11,13,5,2,10,14,12,15,6,4,9,8,7,3,1"
14477,commdev-image-keyboard-response,526,1197405,learnblock2,701.8000000119209,img/planet10_right.png,10,Community 1,NA,FALSE,f,j,NA,NA,NA,5,6,"11,13,5,2,10,14,12,15,6,4,9,8,7,3,1"
14477,commdev-image-keyboard-response,527,1198656,learnblock2,768.3000000119209,img/planet11_left.png,11,Community 1,NA,TRUE,f,f,NA,NA,NA,5,6,"11,13,5,2,10,14,12,15,6,4,9,8,7,3,1"
14477,commdev-image-keyboard-response,528,1199908,learnblock2,918.5,img/planet13_right.png,13,Community 1,NA,TRUE,j,j,NA,NA,NA,5,6,"11,13,5,2,10,14,12,15,6,4,9,8,7,3,1"
14477,commdev-image-keyboard-response,529,1201160,learnblock2,588.1999999880791,img/planet10_right.png,10,Community 1,NA,TRUE,j,j,NA,NA,NA,5,6,"11,13,5,2,10,14,12,15,6,4,9,8,7,3,1"
14477,commdev-image-keyboard-response,530,1202411,learnblock2,611.4000000059605,img/planet13_right.png,13,Community 1,NA,TRUE,j,j,NA,NA,NA,5,6,"11,13,5,2,10,14,12,15,6,4,9,8,7,3,1"
14477,commdev-image-keyboard-response,531,1203663,learnblock2,952.6999999880791,img/planet5_right.png,5,Community 1,NA,TRUE,j,j,NA,NA,NA,5,6,"11,13,5,2,10,14,12,15,6,4,9,8,7,3,1"
14477,commdev-image-keyboard-response,532,1204914,learnblock2,1101.5999999940395,img/planet13_right.png,13,Community 1,NA,TRUE,j,j,NA,NA,NA,5,6,"11,13,5,2,10,14,12,15,6,4,9,8,7,3,1"
14477,commdev-image-keyboard-response,533,1206166,learnblock2,1096,img/planet10_right.png,10,Community 1,NA,TRUE,j,j,NA,NA,NA,5,6,"11,13,5,2,10,14,12,15,6,4,9,8,7,3,1"
14477,commdev-image-keyboard-response,534,1207419,learnblock2,953.5999999940395,img/planet11_right.png,11,Community 1,NA,TRUE,j,j,NA,NA,NA,5,6,"11,13,5,2,10,14,12,15,6,4,9,8,7,3,1"
14477,commdev-image-keyboard-response,535,1208671,learnblock2,695,img/planet2_right.png,2,Community 1,NA,TRUE,j,j,NA,NA,NA,5,6,"11,13,5,2,10,14,12,15,6,4,9,8,7,3,1"
14477,commdev-image-keyboard-response,536,1209923,learnblock2,749.6999999880791,img/planet14_left.png,14,Community 2,NA,TRUE,f,f,NA,NA,NA,5,6,"11,13,5,2,10,14,12,15,6,4,9,8,7,3,1"
14477,commdev-image-keyboard-response,537,1211174,learnblock2,794.3000000119209,img/planet12_right.png,12,Community 2,NA,TRUE,j,j,NA,NA,NA,5,6,"11,13,5,2,10,14,12,15,6,4,9,8,7,3,1"
14477,commdev-image-keyboard-response,538,1212426,learnblock2,1149.300000011921,img/planet14_left.png,14,Community 2,NA,FALSE,j,f,NA,NA,NA,5,6,"11,13,5,2,10,14,12,15,6,4,9,8,7,3,1"
14477,commdev-image-keyboard-response,539,1213677,learnblock2,101.19999998807907,img/planet2_left.png,2,Community 1,NA,TRUE,f,f,NA,NA,NA,5,6,"11,13,5,2,10,14,12,15,6,4,9,8,7,3,1"
14477,commdev-image-keyboard-response,540,1214929,learnblock2,995.1999999880791,img/planet5_left.png,5,Community 1,NA,TRUE,f,f,NA,NA,NA,5,6,"11,13,5,2,10,14,12,15,6,4,9,8,7,3,1"
14477,commdev-image-keyboard-response,541,1216179,learnblock2,727.0999999940395,img/planet13_right.png,13,Community 1,NA,TRUE,j,j,NA,NA,NA,5,6,"11,13,5,2,10,14,12,15,6,4,9,8,7,3,1"
14477,commdev-image-keyboard-response,542,1217431,learnblock2,823.6999999880791,img/planet11_right.png,11,Community 1,NA,TRUE,j,j,NA,NA,NA,5,6,"11,13,5,2,10,14,12,15,6,4,9,8,7,3,1"
14477,commdev-image-keyboard-response,543,1218683,learnblock2,924.5,img/planet5_left.png,5,Community 1,NA,TRUE,f,f,NA,NA,NA,5,6,"11,13,5,2,10,14,12,15,6,4,9,8,7,3,1"
14477,commdev-image-keyboard-response,544,1219935,learnblock2,744.9000000059605,img/planet13_right.png,13,Community 1,NA,TRUE,j,j,NA,NA,NA,5,6,"11,13,5,2,10,14,12,15,6,4,9,8,7,3,1"
14477,commdev-image-keyboard-response,545,1221187,learnblock2,700.1000000238419,img/planet10_left.png,10,Community 1,NA,TRUE,f,f,NA,NA,NA,5,6,"11,13,5,2,10,14,12,15,6,4,9,8,7,3,1"
14477,commdev-image-keyboard-response,546,1222439,learnblock2,742.3999999761581,img/planet13_right.png,13,Community 1,NA,TRUE,j,j,NA,NA,NA,5,6,"11,13,5,2,10,14,12,15,6,4,9,8,7,3,1"
14477,commdev-image-keyboard-response,547,1223690,learnblock2,629.5999999940395,img/planet2_left.png,2,Community 1,NA,TRUE,f,f,NA,NA,NA,5,6,"11,13,5,2,10,14,12,15,6,4,9,8,7,3,1"
14477,commdev-image-keyboard-response,548,1224942,learnblock2,767.5,img/planet5_right.png,5,Community 1,NA,FALSE,f,j,NA,NA,NA,5,6,"11,13,5,2,10,14,12,15,6,4,9,8,7,3,1"
14477,commdev-image-keyboard-response,549,1226193,learnblock2,794.1000000238419,img/planet10_right.png,10,Community 1,NA,TRUE,j,j,NA,NA,NA,5,6,"11,13,5,2,10,14,12,15,6,4,9,8,7,3,1"
14477,commdev-image-keyboard-response,550,1227445,learnblock2,708.5999999940395,img/planet13_right.png,13,Community 1,NA,TRUE,j,j,NA,NA,NA,5,6,"11,13,5,2,10,14,12,15,6,4,9,8,7,3,1"
14477,commdev-image-keyboard-response,551,1228697,learnblock2,679,img/planet2_left.png,2,Community 1,NA,TRUE,f,f,NA,NA,NA,5,6,"11,13,5,2,10,14,12,15,6,4,9,8,7,3,1"
14477,commdev-image-keyboard-response,552,1229949,learnblock2,900.1000000238419,img/planet5_left.png,5,Community 1,NA,TRUE,f,f,NA,NA,NA,5,6,"11,13,5,2,10,14,12,15,6,4,9,8,7,3,1"
14477,commdev-image-keyboard-response,553,1231201,learnblock2,804.7999999821186,img/planet11_right.png,11,Community 1,NA,TRUE,j,j,NA,NA,NA,5,6,"11,13,5,2,10,14,12,15,6,4,9,8,7,3,1"
14477,commdev-image-keyboard-response,554,1232453,learnblock2,798.1000000238419,img/planet13_right.png,13,Community 1,NA,TRUE,j,j,NA,NA,NA,5,6,"11,13,5,2,10,14,12,15,6,4,9,8,7,3,1"
14477,commdev-image-keyboard-response,555,1233705,learnblock2,609.4000000059605,img/planet2_left.png,2,Community 1,NA,TRUE,f,f,NA,NA,NA,5,6,"11,13,5,2,10,14,12,15,6,4,9,8,7,3,1"
14477,commdev-image-keyboard-response,556,1234957,learnblock2,735.7000000178814,img/planet11_right.png,11,Community 1,NA,TRUE,j,j,NA,NA,NA,5,6,"11,13,5,2,10,14,12,15,6,4,9,8,7,3,1"
14477,commdev-image-keyboard-response,557,1236209,learnblock2,699.8000000119209,img/planet13_left.png,13,Community 1,NA,TRUE,f,f,NA,NA,NA,5,6,"11,13,5,2,10,14,12,15,6,4,9,8,7,3,1"
14477,commdev-image-keyboard-response,558,1237460,learnblock2,669.0999999940395,img/planet10_left.png,10,Community 1,NA,FALSE,j,f,NA,NA,NA,5,6,"11,13,5,2,10,14,12,15,6,4,9,8,7,3,1"
14477,commdev-image-keyboard-response,559,1238712,learnblock2,897.6000000238419,img/planet5_right.png,5,Community 1,NA,TRUE,j,j,NA,NA,NA,5,6,"11,13,5,2,10,14,12,15,6,4,9,8,7,3,1"
14477,commdev-image-keyboard-response,560,1239964,learnblock2,653.0999999940395,img/planet13_left.png,13,Community 1,NA,TRUE,f,f,NA,NA,NA,5,6,"11,13,5,2,10,14,12,15,6,4,9,8,7,3,1"
14477,commdev-image-keyboard-response,561,1241215,learnblock2,611.2999999821186,img/planet2_right.png,2,Community 1,NA,TRUE,j,j,NA,NA,NA,5,6,"11,13,5,2,10,14,12,15,6,4,9,8,7,3,1"
14477,commdev-image-keyboard-response,562,1242467,learnblock2,811.4000000059605,img/planet14_left.png,14,Community 2,NA,TRUE,f,f,NA,NA,NA,5,6,"11,13,5,2,10,14,12,15,6,4,9,8,7,3,1"
14477,commdev-image-keyboard-response,563,1243719,learnblock2,659.1000000238419,img/planet2_right.png,2,Community 1,NA,TRUE,j,j,NA,NA,NA,5,6,"11,13,5,2,10,14,12,15,6,4,9,8,7,3,1"
14477,commdev-image-keyboard-response,564,1244971,learnblock2,696.1999999880791,img/planet13_right.png,13,Community 1,NA,TRUE,j,j,NA,NA,NA,5,6,"11,13,5,2,10,14,12,15,6,4,9,8,7,3,1"
14477,commdev-image-keyboard-response,565,1246223,learnblock2,799.0999999940395,img/planet5_right.png,5,Community 1,NA,TRUE,j,j,NA,NA,NA,5,6,"11,13,5,2,10,14,12,15,6,4,9,8,7,3,1"
14477,commdev-image-keyboard-response,566,1247475,learnblock2,712.5999999940395,img/planet2_left.png,2,Community 1,NA,TRUE,f,f,NA,NA,NA,5,6,"11,13,5,2,10,14,12,15,6,4,9,8,7,3,1"
14477,commdev-image-keyboard-response,567,1248727,learnblock2,715.5999999940395,img/planet11_right.png,11,Community 1,NA,TRUE,j,j,NA,NA,NA,5,6,"11,13,5,2,10,14,12,15,6,4,9,8,7,3,1"
14477,commdev-image-keyboard-response,568,1249978,learnblock2,951.0999999940395,img/planet10_left.png,10,Community 1,NA,TRUE,f,f,NA,NA,NA,5,6,"11,13,5,2,10,14,12,15,6,4,9,8,7,3,1"
14477,commdev-image-keyboard-response,569,1251229,learnblock2,795.3999999761581,img/planet13_left.png,13,Community 1,NA,TRUE,f,f,NA,NA,NA,5,6,"11,13,5,2,10,14,12,15,6,4,9,8,7,3,1"
14477,commdev-image-keyboard-response,570,1252481,learnblock2,1149,img/planet5_left.png,5,Community 1,NA,TRUE,f,f,NA,NA,NA,5,6,"11,13,5,2,10,14,12,15,6,4,9,8,7,3,1"
14477,commdev-image-keyboard-response,571,1253732,learnblock2,841.2000000178814,img/planet13_right.png,13,Community 1,NA,TRUE,j,j,NA,NA,NA,5,6,"11,13,5,2,10,14,12,15,6,4,9,8,7,3,1"
14477,commdev-image-keyboard-response,572,1254985,learnblock2,874.2999999821186,img/planet10_right.png,10,Community 1,NA,TRUE,j,j,NA,NA,NA,5,6,"11,13,5,2,10,14,12,15,6,4,9,8,7,3,1"
14477,commdev-image-keyboard-response,573,1256236,learnblock2,768.5,img/planet9_left.png,9,Community 3,NA,TRUE,f,f,NA,NA,NA,5,6,"11,13,5,2,10,14,12,15,6,4,9,8,7,3,1"
14477,commdev-image-keyboard-response,574,1257488,learnblock2,1047.4000000059605,img/planet3_right.png,3,Community 3,NA,TRUE,j,j,NA,NA,NA,5,6,"11,13,5,2,10,14,12,15,6,4,9,8,7,3,1"
14477,commdev-image-keyboard-response,575,1258740,learnblock2,1071.300000011921,img/planet8_left.png,8,Community 3,NA,TRUE,f,f,NA,NA,NA,5,6,"11,13,5,2,10,14,12,15,6,4,9,8,7,3,1"
14477,commdev-image-keyboard-response,576,1259992,learnblock2,846,img/planet3_left.png,3,Community 3,NA,TRUE,f,f,NA,NA,NA,5,6,"11,13,5,2,10,14,12,15,6,4,9,8,7,3,1"
14477,commdev-image-keyboard-response,577,1261243,learnblock2,623,img/planet1_left.png,1,Community 3,NA,TRUE,f,f,NA,NA,NA,5,6,"11,13,5,2,10,14,12,15,6,4,9,8,7,3,1"
14477,commdev-image-keyboard-response,578,1262494,learnblock2,1034.0999999940395,img/planet7_left.png,7,Community 3,NA,TRUE,f,f,NA,NA,NA,5,6,"11,13,5,2,10,14,12,15,6,4,9,8,7,3,1"
14477,commdev-image-keyboard-response,579,1263746,learnblock2,1208.800000011921,img/planet8_left.png,8,Community 3,NA,TRUE,f,f,NA,NA,NA,5,6,"11,13,5,2,10,14,12,15,6,4,9,8,7,3,1"
14477,commdev-image-keyboard-response,580,1264998,learnblock2,823.5,img/planet1_left.png,1,Community 3,NA,TRUE,f,f,NA,NA,NA,5,6,"11,13,5,2,10,14,12,15,6,4,9,8,7,3,1"
14477,commdev-image-keyboard-response,581,1266250,learnblock2,922.6000000238419,img/planet8_right.png,8,Community 3,NA,TRUE,j,j,NA,NA,NA,5,6,"11,13,5,2,10,14,12,15,6,4,9,8,7,3,1"
14477,commdev-image-keyboard-response,582,1267502,learnblock2,989.3000000119209,img/planet7_right.png,7,Community 3,NA,TRUE,j,j,NA,NA,NA,5,6,"11,13,5,2,10,14,12,15,6,4,9,8,7,3,1"
14477,commdev-image-keyboard-response,583,1268753,learnblock2,715.1000000238419,img/planet9_right.png,9,Community 3,NA,TRUE,j,j,NA,NA,NA,5,6,"11,13,5,2,10,14,12,15,6,4,9,8,7,3,1"
14477,commdev-image-keyboard-response,584,1270004,learnblock2,1240.300000011921,img/planet7_right.png,7,Community 3,NA,FALSE,f,j,NA,NA,NA,5,6,"11,13,5,2,10,14,12,15,6,4,9,8,7,3,1"
14477,commdev-image-keyboard-response,585,1271256,learnblock2,1250.6000000238419,img/planet3_right.png,3,Community 3,NA,TRUE,j,j,NA,NA,NA,5,6,"11,13,5,2,10,14,12,15,6,4,9,8,7,3,1"
14477,commdev-image-keyboard-response,586,1272507,learnblock2,740.0999999940395,img/planet1_left.png,1,Community 3,NA,FALSE,j,f,NA,NA,NA,5,6,"11,13,5,2,10,14,12,15,6,4,9,8,7,3,1"
