subject_id,trial_type,trial_index,time_elapsed,block,rt,stimulus,planet,community,response,correct,key_press,learning_correct_response,parse,init_locations,final_locations,browser_interactions,num_comp,planet_map
14966,commdev-instructions,7,269973,NA,26277.29999999999,"<p>In this game, you will be shown a 3x3 grid of patterns.</p> <p>The last one in the bottom right-hand corner, <strong>will be missing:</strong></p> <div style='width: 700px;'><div style='float: top;'><img style='width: 200px;' src='practice/p1_M1.png'></img><p class='small'>You need to select<strong> which of the four possible patterns </strong>along the bottom<strong> fits into the gap:</strong></p></div><div style='float: top;'><img style='width: 300px;' src='practice/p1_T1.png'></img></div><br>",NA,NA,NA,NA,NA,NA,NA,NA,NA,2,6,"4,7,5,15,1,3,11,12,2,8,6,9,10,14,13"
14966,commdev-instructions,8,289583,NA,1194.7000000000116,"<p>Try to be as fast and as accurate as you can be.</p> <p>If you cannot solve the puzzle then you should guess - you will not be penalised for an incorrect answer.</p> <p>The task contains a shuffled mix of easy, medium and hard puzzles.</p> <p>You will have <strong>30 seconds</strong> to complete each puzzle.</p><br>",NA,NA,NA,NA,NA,NA,NA,NA,NA,2,6,"4,7,5,15,1,3,11,12,2,8,6,9,10,14,13"
14966,commdev-instructions,15,316912,NA,1322.6000000000931,<p><strong>Success!</strong></p> <p>You seem to be getting the hang of this...</p> <p>Let's move on to the real trials.</p><br>,NA,NA,NA,NA,NA,NA,NA,NA,NA,2,6,"4,7,5,15,1,3,11,12,2,8,6,9,10,14,13"
14966,commdev-instructions,113,813034,NA,4473.600000000093,"<p>In this game, you are a scientist on board a space shuttle. </p><p> On each mission, you will visit planets all across the universe.</p><img src=""img/controlroom.jpg"" width=300vw>",NA,NA,NA,NA,NA,NA,NA,NA,NA,2,6,"4,7,5,15,1,3,11,12,2,8,6,9,10,14,13"
14966,commdev-instructions,114,818082,NA,2972.0999999998603,"<p>Here are a few planets you might see:</p><img src=""img/practice1.png"" width=200vw><img src=""img/practice2.png"" width=200vw><img src=""img/practice3.png"" width=200vw>",NA,NA,NA,NA,NA,NA,NA,NA,NA,2,6,"4,7,5,15,1,3,11,12,2,8,6,9,10,14,13"
14966,commdev-instructions,115,826582,NA,1103.1000000000931,"<p>Your job as a scientist is to record which direction the winds are moving on each planet.</p><p>There are two types of wind directions:</p><img src=""img/practice1_left.png"" width=200vw><img src=""img/practice1_right.png"" width=200vw>",NA,NA,NA,NA,NA,NA,NA,NA,NA,2,6,"4,7,5,15,1,3,11,12,2,8,6,9,10,14,13"
14966,commdev-instructions,116,832240,NA,777.8000000000466,"<p>If the winds are moving this way, press the letter <strong>F</strong> on the keyboard as fast as you can.</p><img src=""img/leftwind.png"" width=250vw>",NA,NA,NA,NA,NA,NA,NA,NA,NA,2,6,"4,7,5,15,1,3,11,12,2,8,6,9,10,14,13"
14966,commdev-instructions,117,838787,NA,2055.6999999999534,"<p>If the winds are moving this way, press the letter <strong>J</strong> on the keyboard as fast as you can.</p><img src=""img/rightwind.png"" width=350vw>",NA,NA,NA,NA,NA,NA,NA,NA,NA,2,6,"4,7,5,15,1,3,11,12,2,8,6,9,10,14,13"
14966,commdev-instructions,118,847600,NA,4393.600000000093,<p>You will have 1 second to respond. Try to respond before the time runs out!,NA,NA,NA,NA,NA,NA,NA,NA,NA,2,6,"4,7,5,15,1,3,11,12,2,8,6,9,10,14,13"
14966,commdev-instructions,119,854112,NA,1082.1999999999534,<p>The planets you will visit will look different from each other.</p><p>You should respond <strong>only</strong> based on wind direction.,NA,NA,NA,NA,NA,NA,NA,NA,NA,2,6,"4,7,5,15,1,3,11,12,2,8,6,9,10,14,13"
14966,commdev-instructions,120,861079,NA,1798.6999999999534,"<p> Ready to start the practice round? </p><p> Remember, press <strong>F</strong> or <strong>J</strong> depending on the wind direction.<br><img src=""img/categorize_planet_example.png""",NA,NA,NA,NA,NA,NA,NA,NA,NA,2,6,"4,7,5,15,1,3,11,12,2,8,6,9,10,14,13"
14966,commdev-instructions,132,909886,NA,1610,"<p>Great, now try a short practice mission. </p><p> This time, you will have 1 second to respond and you won't know whether you pressed the right or wrong key for each planet.</p>",NA,NA,NA,NA,NA,NA,NA,NA,NA,2,6,"4,7,5,15,1,3,11,12,2,8,6,9,10,14,13"
14966,commdev-image-keyboard-response,133,911240,practice,757.3999999999069,img/practice2_left.png,NA,Number not found in mappings,NA,TRUE,f,f,NA,NA,NA,2,6,"4,7,5,15,1,3,11,12,2,8,6,9,10,14,13"
14966,commdev-image-keyboard-response,134,912492,practice,803.1999999999534,img/practice4_left.png,NA,Number not found in mappings,NA,TRUE,f,f,NA,NA,NA,2,6,"4,7,5,15,1,3,11,12,2,8,6,9,10,14,13"
14966,commdev-image-keyboard-response,135,913743,practice,630.1999999999534,img/practice2_right.png,NA,Number not found in mappings,NA,TRUE,j,j,NA,NA,NA,2,6,"4,7,5,15,1,3,11,12,2,8,6,9,10,14,13"
14966,commdev-image-keyboard-response,136,914995,practice,672.3000000000466,img/practice4_right.png,NA,Number not found in mappings,NA,TRUE,j,j,NA,NA,NA,2,6,"4,7,5,15,1,3,11,12,2,8,6,9,10,14,13"
14966,commdev-image-keyboard-response,137,916248,practice,689.8000000000466,img/practice3_right.png,NA,Number not found in mappings,NA,TRUE,j,j,NA,NA,NA,2,6,"4,7,5,15,1,3,11,12,2,8,6,9,10,14,13"
14966,commdev-image-keyboard-response,138,917499,practice,623.8999999999069,img/practice2_right.png,NA,Number not found in mappings,NA,TRUE,j,j,NA,NA,NA,2,6,"4,7,5,15,1,3,11,12,2,8,6,9,10,14,13"
14966,commdev-image-keyboard-response,139,918750,practice,997.0999999998603,img/practice3_left.png,NA,Number not found in mappings,NA,TRUE,f,f,NA,NA,NA,2,6,"4,7,5,15,1,3,11,12,2,8,6,9,10,14,13"
14966,commdev-image-keyboard-response,140,920002,practice,588.3000000000466,img/practice4_left.png,NA,Number not found in mappings,NA,TRUE,f,f,NA,NA,NA,2,6,"4,7,5,15,1,3,11,12,2,8,6,9,10,14,13"
14966,commdev-instructions,141,930215,NA,659.2000000001863,"<p>Great job with the practice round.</p><p>During real missions, you won't know whether you pressed the right or wrong key for each planet.</p><p>But between missions, we will tell you how you did overall.</p>",NA,NA,NA,NA,NA,NA,NA,NA,NA,2,6,"4,7,5,15,1,3,11,12,2,8,6,9,10,14,13"
14966,commdev-instructions,142,939111,NA,659.6000000000931,<p>Try your best! You will be paid a bonus based on how many correct responses you make!</p><p>Responses that are too slow will not count toward your bonus.</p>,NA,NA,NA,NA,NA,NA,NA,NA,NA,2,6,"4,7,5,15,1,3,11,12,2,8,6,9,10,14,13"
14966,commdev-instructions,143,946041,NA,731,"<p>You are almost ready to start the real game.</p><p> First, we are going to ask you some questions about how the game works.</p>",NA,NA,NA,NA,NA,NA,NA,NA,NA,2,6,"4,7,5,15,1,3,11,12,2,8,6,9,10,14,13"
14966,commdev-instructions,152,1025204,NA,597.3000000000466,"<p> Nice work! It is now time to start the real game.<p></p>You will go on two missions to record wind directions of different planets.<p></p>Each one will take about 5 minutes. You will get to take a break between missions.<p><p> Remember, press <strong>F</strong> or <strong>J</strong> depending on the wind direction. Good luck!<br><img src=""img/categorize_planet_example.png""",NA,NA,NA,NA,NA,NA,NA,NA,NA,2,6,"4,7,5,15,1,3,11,12,2,8,6,9,10,14,13"
14966,commdev-image-keyboard-response,154,1028403,learnblock1,847.6999999999534,img/planet8_right.png,8,Community 2,NA,TRUE,j,j,NA,NA,NA,2,6,"4,7,5,15,1,3,11,12,2,8,6,9,10,14,13"
14966,commdev-image-keyboard-response,155,1029655,learnblock1,769.9000000001397,img/planet12_left.png,12,Community 2,NA,TRUE,f,f,NA,NA,NA,2,6,"4,7,5,15,1,3,11,12,2,8,6,9,10,14,13"
14966,commdev-image-keyboard-response,156,1030906,learnblock1,990.3000000000466,img/planet2_left.png,2,Community 2,NA,TRUE,f,f,NA,NA,NA,2,6,"4,7,5,15,1,3,11,12,2,8,6,9,10,14,13"
14966,commdev-image-keyboard-response,157,1032158,learnblock1,741.6000000000931,img/planet11_left.png,11,Community 2,NA,TRUE,f,f,NA,NA,NA,2,6,"4,7,5,15,1,3,11,12,2,8,6,9,10,14,13"
14966,commdev-image-keyboard-response,158,1033409,learnblock1,512.8000000000466,img/planet12_right.png,12,Community 2,NA,TRUE,j,j,NA,NA,NA,2,6,"4,7,5,15,1,3,11,12,2,8,6,9,10,14,13"
14966,commdev-image-keyboard-response,159,1034661,learnblock1,706.8000000000466,img/planet2_left.png,2,Community 2,NA,FALSE,j,f,NA,NA,NA,2,6,"4,7,5,15,1,3,11,12,2,8,6,9,10,14,13"
14966,commdev-image-keyboard-response,160,1035912,learnblock1,1013.1000000000931,img/planet8_right.png,8,Community 2,NA,TRUE,j,j,NA,NA,NA,2,6,"4,7,5,15,1,3,11,12,2,8,6,9,10,14,13"
14966,commdev-image-keyboard-response,161,1037165,learnblock1,863.1000000000931,img/planet3_right.png,3,Community 2,NA,TRUE,j,j,NA,NA,NA,2,6,"4,7,5,15,1,3,11,12,2,8,6,9,10,14,13"
14966,commdev-image-keyboard-response,162,1038416,learnblock1,1105.6999999999534,img/planet8_right.png,8,Community 2,NA,TRUE,j,j,NA,NA,NA,2,6,"4,7,5,15,1,3,11,12,2,8,6,9,10,14,13"
14966,commdev-image-keyboard-response,163,1039668,learnblock1,725.6000000000931,img/planet11_left.png,11,Community 2,NA,TRUE,f,f,NA,NA,NA,2,6,"4,7,5,15,1,3,11,12,2,8,6,9,10,14,13"
14966,commdev-image-keyboard-response,164,1040919,learnblock1,752.8999999999069,img/planet2_left.png,2,Community 2,NA,TRUE,f,f,NA,NA,NA,2,6,"4,7,5,15,1,3,11,12,2,8,6,9,10,14,13"
14966,commdev-image-keyboard-response,165,1042170,learnblock1,711.1000000000931,img/planet3_right.png,3,Community 2,NA,TRUE,j,j,NA,NA,NA,2,6,"4,7,5,15,1,3,11,12,2,8,6,9,10,14,13"
14966,commdev-image-keyboard-response,166,1043422,learnblock1,813.3000000000466,img/planet2_right.png,2,Community 2,NA,TRUE,j,j,NA,NA,NA,2,6,"4,7,5,15,1,3,11,12,2,8,6,9,10,14,13"
14966,commdev-image-keyboard-response,167,1044673,learnblock1,714.3000000000466,img/planet11_right.png,11,Community 2,NA,TRUE,j,j,NA,NA,NA,2,6,"4,7,5,15,1,3,11,12,2,8,6,9,10,14,13"
14966,commdev-image-keyboard-response,168,1045925,learnblock1,523.9000000001397,img/planet2_right.png,2,Community 2,NA,TRUE,j,j,NA,NA,NA,2,6,"4,7,5,15,1,3,11,12,2,8,6,9,10,14,13"
14966,commdev-image-keyboard-response,169,1047176,learnblock1,714.5999999998603,img/planet3_left.png,3,Community 2,NA,TRUE,f,f,NA,NA,NA,2,6,"4,7,5,15,1,3,11,12,2,8,6,9,10,14,13"
14966,commdev-image-keyboard-response,170,1048428,learnblock1,567.4000000001397,img/planet11_left.png,11,Community 2,NA,TRUE,f,f,NA,NA,NA,2,6,"4,7,5,15,1,3,11,12,2,8,6,9,10,14,13"
14966,commdev-image-keyboard-response,171,1049679,learnblock1,764.8999999999069,img/planet2_left.png,2,Community 2,NA,TRUE,f,f,NA,NA,NA,2,6,"4,7,5,15,1,3,11,12,2,8,6,9,10,14,13"
14966,commdev-image-keyboard-response,172,1050931,learnblock1,631.6000000000931,img/planet3_right.png,3,Community 2,NA,TRUE,j,j,NA,NA,NA,2,6,"4,7,5,15,1,3,11,12,2,8,6,9,10,14,13"
14966,commdev-image-keyboard-response,173,1052182,learnblock1,612.2000000001863,img/planet15_right.png,15,Community 1,NA,TRUE,j,j,NA,NA,NA,2,6,"4,7,5,15,1,3,11,12,2,8,6,9,10,14,13"
14966,commdev-image-keyboard-response,174,1053433,learnblock1,499.19999999995343,img/planet4_right.png,4,Community 1,NA,TRUE,j,j,NA,NA,NA,2,6,"4,7,5,15,1,3,11,12,2,8,6,9,10,14,13"
14966,commdev-image-keyboard-response,175,1054685,learnblock1,614.1999999999534,img/planet7_left.png,7,Community 1,NA,TRUE,f,f,NA,NA,NA,2,6,"4,7,5,15,1,3,11,12,2,8,6,9,10,14,13"
14966,commdev-image-keyboard-response,176,1055937,learnblock1,642.7999999998137,img/planet1_left.png,1,Community 1,NA,TRUE,f,f,NA,NA,NA,2,6,"4,7,5,15,1,3,11,12,2,8,6,9,10,14,13"
14966,commdev-image-keyboard-response,177,1057190,learnblock1,988.8000000000466,img/planet4_left.png,4,Community 1,NA,TRUE,f,f,NA,NA,NA,2,6,"4,7,5,15,1,3,11,12,2,8,6,9,10,14,13"
14966,commdev-image-keyboard-response,178,1058442,learnblock1,797,img/planet7_right.png,7,Community 1,NA,TRUE,j,j,NA,NA,NA,2,6,"4,7,5,15,1,3,11,12,2,8,6,9,10,14,13"
14966,commdev-image-keyboard-response,179,1059695,learnblock1,677.4000000001397,img/planet4_right.png,4,Community 1,NA,TRUE,j,j,NA,NA,NA,2,6,"4,7,5,15,1,3,11,12,2,8,6,9,10,14,13"
14966,commdev-image-keyboard-response,180,1060947,learnblock1,871.5,img/planet7_right.png,7,Community 1,NA,TRUE,j,j,NA,NA,NA,2,6,"4,7,5,15,1,3,11,12,2,8,6,9,10,14,13"
14966,commdev-image-keyboard-response,181,1062200,learnblock1,736.7999999998137,img/planet4_right.png,4,Community 1,NA,TRUE,j,j,NA,NA,NA,2,6,"4,7,5,15,1,3,11,12,2,8,6,9,10,14,13"
14966,commdev-image-keyboard-response,182,1063452,learnblock1,713.8000000000466,img/planet1_right.png,1,Community 1,NA,TRUE,j,j,NA,NA,NA,2,6,"4,7,5,15,1,3,11,12,2,8,6,9,10,14,13"
14966,commdev-image-keyboard-response,183,1064705,learnblock1,630.4000000001397,img/planet5_left.png,5,Community 1,NA,TRUE,f,f,NA,NA,NA,2,6,"4,7,5,15,1,3,11,12,2,8,6,9,10,14,13"
14966,commdev-image-keyboard-response,184,1065957,learnblock1,729,img/planet15_right.png,15,Community 1,NA,TRUE,j,j,NA,NA,NA,2,6,"4,7,5,15,1,3,11,12,2,8,6,9,10,14,13"
14966,commdev-image-keyboard-response,185,1067210,learnblock1,681,img/planet5_right.png,5,Community 1,NA,TRUE,j,j,NA,NA,NA,2,6,"4,7,5,15,1,3,11,12,2,8,6,9,10,14,13"
14966,commdev-image-keyboard-response,186,1068463,learnblock1,613.8000000000466,img/planet7_left.png,7,Community 1,NA,TRUE,f,f,NA,NA,NA,2,6,"4,7,5,15,1,3,11,12,2,8,6,9,10,14,13"
14966,commdev-image-keyboard-response,187,1069716,learnblock1,754.8000000000466,img/planet1_right.png,1,Community 1,NA,TRUE,j,j,NA,NA,NA,2,6,"4,7,5,15,1,3,11,12,2,8,6,9,10,14,13"
14966,commdev-image-keyboard-response,188,1070968,learnblock1,837,img/planet7_left.png,7,Community 1,NA,TRUE,f,f,NA,NA,NA,2,6,"4,7,5,15,1,3,11,12,2,8,6,9,10,14,13"
14966,commdev-image-keyboard-response,189,1072220,learnblock1,639.3000000000466,img/planet1_right.png,1,Community 1,NA,TRUE,j,j,NA,NA,NA,2,6,"4,7,5,15,1,3,11,12,2,8,6,9,10,14,13"
14966,commdev-image-keyboard-response,190,1073472,learnblock1,771.2000000001863,img/planet4_left.png,4,Community 1,NA,TRUE,f,f,NA,NA,NA,2,6,"4,7,5,15,1,3,11,12,2,8,6,9,10,14,13"
14966,commdev-image-keyboard-response,191,1074724,learnblock1,669.6999999999534,img/planet5_left.png,5,Community 1,NA,TRUE,f,f,NA,NA,NA,2,6,"4,7,5,15,1,3,11,12,2,8,6,9,10,14,13"
14966,commdev-image-keyboard-response,192,1075976,learnblock1,585.1000000000931,img/planet1_right.png,1,Community 1,NA,TRUE,j,j,NA,NA,NA,2,6,"4,7,5,15,1,3,11,12,2,8,6,9,10,14,13"
14966,commdev-image-keyboard-response,193,1077228,learnblock1,588.7000000001863,img/planet5_right.png,5,Community 1,NA,FALSE,f,j,NA,NA,NA,2,6,"4,7,5,15,1,3,11,12,2,8,6,9,10,14,13"
14966,commdev-image-keyboard-response,194,1078481,learnblock1,861.2999999998137,img/planet7_left.png,7,Community 1,NA,TRUE,f,f,NA,NA,NA,2,6,"4,7,5,15,1,3,11,12,2,8,6,9,10,14,13"
14966,commdev-image-keyboard-response,195,1079733,learnblock1,739.8999999999069,img/planet15_right.png,15,Community 1,NA,TRUE,j,j,NA,NA,NA,2,6,"4,7,5,15,1,3,11,12,2,8,6,9,10,14,13"
14966,commdev-image-keyboard-response,196,1080986,learnblock1,617.6999999999534,img/planet7_left.png,7,Community 1,NA,TRUE,f,f,NA,NA,NA,2,6,"4,7,5,15,1,3,11,12,2,8,6,9,10,14,13"
14966,commdev-image-keyboard-response,197,1082238,learnblock1,727.6999999999534,img/planet4_right.png,4,Community 1,NA,TRUE,j,j,NA,NA,NA,2,6,"4,7,5,15,1,3,11,12,2,8,6,9,10,14,13"
14966,commdev-image-keyboard-response,198,1083490,learnblock1,592.8999999999069,img/planet1_left.png,1,Community 1,NA,FALSE,j,f,NA,NA,NA,2,6,"4,7,5,15,1,3,11,12,2,8,6,9,10,14,13"
14966,commdev-image-keyboard-response,199,1084743,learnblock1,868.6999999999534,img/planet5_right.png,5,Community 1,NA,TRUE,j,j,NA,NA,NA,2,6,"4,7,5,15,1,3,11,12,2,8,6,9,10,14,13"
14966,commdev-image-keyboard-response,200,1085996,learnblock1,730.5,img/planet15_left.png,15,Community 1,NA,TRUE,f,f,NA,NA,NA,2,6,"4,7,5,15,1,3,11,12,2,8,6,9,10,14,13"
14966,commdev-image-keyboard-response,201,1087248,learnblock1,783.6999999999534,img/planet4_left.png,4,Community 1,NA,TRUE,f,f,NA,NA,NA,2,6,"4,7,5,15,1,3,11,12,2,8,6,9,10,14,13"
14966,commdev-image-keyboard-response,202,1088502,learnblock1,679.6000000000931,img/planet5_right.png,5,Community 1,NA,TRUE,j,j,NA,NA,NA,2,6,"4,7,5,15,1,3,11,12,2,8,6,9,10,14,13"
14966,commdev-image-keyboard-response,203,1089757,learnblock1,699.5,img/planet1_left.png,1,Community 1,NA,TRUE,f,f,NA,NA,NA,2,6,"4,7,5,15,1,3,11,12,2,8,6,9,10,14,13"
14966,commdev-image-keyboard-response,204,1091009,learnblock1,652.2999999998137,img/planet4_left.png,4,Community 1,NA,TRUE,f,f,NA,NA,NA,2,6,"4,7,5,15,1,3,11,12,2,8,6,9,10,14,13"
14966,commdev-image-keyboard-response,205,1092261,learnblock1,695.6999999999534,img/planet1_right.png,1,Community 1,NA,TRUE,j,j,NA,NA,NA,2,6,"4,7,5,15,1,3,11,12,2,8,6,9,10,14,13"
14966,commdev-image-keyboard-response,206,1093513,learnblock1,590.3000000000466,img/planet5_left.png,5,Community 1,NA,TRUE,f,f,NA,NA,NA,2,6,"4,7,5,15,1,3,11,12,2,8,6,9,10,14,13"
14966,commdev-image-keyboard-response,207,1094766,learnblock1,608.8999999999069,img/planet7_right.png,7,Community 1,NA,TRUE,j,j,NA,NA,NA,2,6,"4,7,5,15,1,3,11,12,2,8,6,9,10,14,13"
14966,commdev-image-keyboard-response,208,1096018,learnblock1,625.4000000001397,img/planet4_right.png,4,Community 1,NA,TRUE,j,j,NA,NA,NA,2,6,"4,7,5,15,1,3,11,12,2,8,6,9,10,14,13"
14966,commdev-image-keyboard-response,209,1097271,learnblock1,523.4000000001397,img/planet1_left.png,1,Community 1,NA,TRUE,f,f,NA,NA,NA,2,6,"4,7,5,15,1,3,11,12,2,8,6,9,10,14,13"
14966,commdev-image-keyboard-response,210,1098523,learnblock1,643.5,img/planet5_left.png,5,Community 1,NA,TRUE,f,f,NA,NA,NA,2,6,"4,7,5,15,1,3,11,12,2,8,6,9,10,14,13"
14966,commdev-image-keyboard-response,211,1099776,learnblock1,781.1999999999534,img/planet1_left.png,1,Community 1,NA,TRUE,f,f,NA,NA,NA,2,6,"4,7,5,15,1,3,11,12,2,8,6,9,10,14,13"
14966,commdev-image-keyboard-response,212,1101028,learnblock1,808.6999999999534,img/planet7_right.png,7,Community 1,NA,TRUE,j,j,NA,NA,NA,2,6,"4,7,5,15,1,3,11,12,2,8,6,9,10,14,13"
14966,commdev-image-keyboard-response,213,1102282,learnblock1,657.6000000000931,img/planet1_right.png,1,Community 1,NA,TRUE,j,j,NA,NA,NA,2,6,"4,7,5,15,1,3,11,12,2,8,6,9,10,14,13"
14966,commdev-image-keyboard-response,214,1103534,learnblock1,548.2000000001863,img/planet7_left.png,7,Community 1,NA,TRUE,f,f,NA,NA,NA,2,6,"4,7,5,15,1,3,11,12,2,8,6,9,10,14,13"
14966,commdev-image-keyboard-response,215,1104786,learnblock1,654.4000000001397,img/planet5_left.png,5,Community 1,NA,TRUE,f,f,NA,NA,NA,2,6,"4,7,5,15,1,3,11,12,2,8,6,9,10,14,13"
14966,commdev-image-keyboard-response,216,1106038,learnblock1,589.3000000000466,img/planet1_right.png,1,Community 1,NA,TRUE,j,j,NA,NA,NA,2,6,"4,7,5,15,1,3,11,12,2,8,6,9,10,14,13"
14966,commdev-image-keyboard-response,217,1107291,learnblock1,649.5,img/planet7_left.png,7,Community 1,NA,TRUE,f,f,NA,NA,NA,2,6,"4,7,5,15,1,3,11,12,2,8,6,9,10,14,13"
14966,commdev-image-keyboard-response,218,1108544,learnblock1,674.3000000000466,img/planet15_right.png,15,Community 1,NA,TRUE,j,j,NA,NA,NA,2,6,"4,7,5,15,1,3,11,12,2,8,6,9,10,14,13"
14966,commdev-image-keyboard-response,219,1109796,learnblock1,643.5,img/planet7_right.png,7,Community 1,NA,TRUE,j,j,NA,NA,NA,2,6,"4,7,5,15,1,3,11,12,2,8,6,9,10,14,13"
14966,commdev-image-keyboard-response,220,1111049,learnblock1,614.7999999998137,img/planet15_right.png,15,Community 1,NA,TRUE,j,j,NA,NA,NA,2,6,"4,7,5,15,1,3,11,12,2,8,6,9,10,14,13"
14966,commdev-image-keyboard-response,221,1112302,learnblock1,657.3000000000466,img/planet4_right.png,4,Community 1,NA,TRUE,j,j,NA,NA,NA,2,6,"4,7,5,15,1,3,11,12,2,8,6,9,10,14,13"
14966,commdev-image-keyboard-response,222,1113556,learnblock1,794.1999999999534,img/planet5_right.png,5,Community 1,NA,TRUE,j,j,NA,NA,NA,2,6,"4,7,5,15,1,3,11,12,2,8,6,9,10,14,13"
14966,commdev-image-keyboard-response,223,1114808,learnblock1,696.1000000000931,img/planet15_right.png,15,Community 1,NA,TRUE,j,j,NA,NA,NA,2,6,"4,7,5,15,1,3,11,12,2,8,6,9,10,14,13"
14966,commdev-image-keyboard-response,224,1116060,learnblock1,747.1999999999534,img/planet4_left.png,4,Community 1,NA,TRUE,f,f,NA,NA,NA,2,6,"4,7,5,15,1,3,11,12,2,8,6,9,10,14,13"
14966,commdev-image-keyboard-response,225,1117313,learnblock1,561.5999999998603,img/planet5_right.png,5,Community 1,NA,FALSE,f,j,NA,NA,NA,2,6,"4,7,5,15,1,3,11,12,2,8,6,9,10,14,13"
14966,commdev-image-keyboard-response,226,1118565,learnblock1,846.8000000000466,img/planet7_left.png,7,Community 1,NA,TRUE,f,f,NA,NA,NA,2,6,"4,7,5,15,1,3,11,12,2,8,6,9,10,14,13"
14966,commdev-image-keyboard-response,227,1119817,learnblock1,775.8000000000466,img/planet1_right.png,1,Community 1,NA,TRUE,j,j,NA,NA,NA,2,6,"4,7,5,15,1,3,11,12,2,8,6,9,10,14,13"
14966,commdev-image-keyboard-response,228,1121070,learnblock1,623.6000000000931,img/planet5_left.png,5,Community 1,NA,FALSE,j,f,NA,NA,NA,2,6,"4,7,5,15,1,3,11,12,2,8,6,9,10,14,13"
14966,commdev-image-keyboard-response,229,1122321,learnblock1,991.3999999999069,img/planet15_left.png,15,Community 1,NA,FALSE,j,f,NA,NA,NA,2,6,"4,7,5,15,1,3,11,12,2,8,6,9,10,14,13"
14966,commdev-image-keyboard-response,230,1123574,learnblock1,1010.7000000001863,img/planet4_left.png,4,Community 1,NA,FALSE,j,f,NA,NA,NA,2,6,"4,7,5,15,1,3,11,12,2,8,6,9,10,14,13"
14966,commdev-image-keyboard-response,231,1124826,learnblock1,1004.4000000001397,img/planet15_right.png,15,Community 1,NA,TRUE,j,j,NA,NA,NA,2,6,"4,7,5,15,1,3,11,12,2,8,6,9,10,14,13"
14966,commdev-image-keyboard-response,232,1126078,learnblock1,1021,img/planet5_left.png,5,Community 1,NA,TRUE,f,f,NA,NA,NA,2,6,"4,7,5,15,1,3,11,12,2,8,6,9,10,14,13"
14966,commdev-image-keyboard-response,233,1127331,learnblock1,728.5,img/planet7_right.png,7,Community 1,NA,TRUE,j,j,NA,NA,NA,2,6,"4,7,5,15,1,3,11,12,2,8,6,9,10,14,13"
14966,commdev-image-keyboard-response,234,1128584,learnblock1,666.3000000000466,img/planet1_left.png,1,Community 1,NA,TRUE,f,f,NA,NA,NA,2,6,"4,7,5,15,1,3,11,12,2,8,6,9,10,14,13"
14966,commdev-image-keyboard-response,235,1129836,learnblock1,643.3999999999069,img/planet7_left.png,7,Community 1,NA,TRUE,f,f,NA,NA,NA,2,6,"4,7,5,15,1,3,11,12,2,8,6,9,10,14,13"
14966,commdev-image-keyboard-response,236,1131089,learnblock1,667.6999999999534,img/planet1_left.png,1,Community 1,NA,TRUE,f,f,NA,NA,NA,2,6,"4,7,5,15,1,3,11,12,2,8,6,9,10,14,13"
14966,commdev-image-keyboard-response,237,1132341,learnblock1,818.5,img/planet5_right.png,5,Community 1,NA,TRUE,j,j,NA,NA,NA,2,6,"4,7,5,15,1,3,11,12,2,8,6,9,10,14,13"
14966,commdev-image-keyboard-response,238,1133594,learnblock1,762.2999999998137,img/planet1_left.png,1,Community 1,NA,FALSE,j,f,NA,NA,NA,2,6,"4,7,5,15,1,3,11,12,2,8,6,9,10,14,13"
14966,commdev-image-keyboard-response,239,1134846,learnblock1,699,img/planet4_left.png,4,Community 1,NA,TRUE,f,f,NA,NA,NA,2,6,"4,7,5,15,1,3,11,12,2,8,6,9,10,14,13"
14966,commdev-image-keyboard-response,240,1136099,learnblock1,673.1000000000931,img/planet15_right.png,15,Community 1,NA,TRUE,j,j,NA,NA,NA,2,6,"4,7,5,15,1,3,11,12,2,8,6,9,10,14,13"
14966,commdev-image-keyboard-response,241,1137351,learnblock1,746.7999999998137,img/planet3_left.png,3,Community 2,NA,TRUE,f,f,NA,NA,NA,2,6,"4,7,5,15,1,3,11,12,2,8,6,9,10,14,13"
14966,commdev-image-keyboard-response,242,1138604,learnblock1,697.3000000000466,img/planet8_left.png,8,Community 2,NA,TRUE,f,f,NA,NA,NA,2,6,"4,7,5,15,1,3,11,12,2,8,6,9,10,14,13"
14966,commdev-image-keyboard-response,243,1139857,learnblock1,758.4000000001397,img/planet12_left.png,12,Community 2,NA,TRUE,f,f,NA,NA,NA,2,6,"4,7,5,15,1,3,11,12,2,8,6,9,10,14,13"
14966,commdev-image-keyboard-response,244,1141109,learnblock1,688.5999999998603,img/planet8_right.png,8,Community 2,NA,TRUE,j,j,NA,NA,NA,2,6,"4,7,5,15,1,3,11,12,2,8,6,9,10,14,13"
14966,commdev-image-keyboard-response,245,1142362,learnblock1,638.6000000000931,img/planet3_left.png,3,Community 2,NA,TRUE,f,f,NA,NA,NA,2,6,"4,7,5,15,1,3,11,12,2,8,6,9,10,14,13"
14966,commdev-image-keyboard-response,246,1143614,learnblock1,538.1999999999534,img/planet15_right.png,15,Community 1,NA,TRUE,j,j,NA,NA,NA,2,6,"4,7,5,15,1,3,11,12,2,8,6,9,10,14,13"
14966,commdev-image-keyboard-response,247,1144867,learnblock1,617.1000000000931,img/planet5_left.png,5,Community 1,NA,TRUE,f,f,NA,NA,NA,2,6,"4,7,5,15,1,3,11,12,2,8,6,9,10,14,13"
14966,commdev-image-keyboard-response,248,1146119,learnblock1,663.8000000000466,img/planet7_left.png,7,Community 1,NA,TRUE,f,f,NA,NA,NA,2,6,"4,7,5,15,1,3,11,12,2,8,6,9,10,14,13"
14966,commdev-image-keyboard-response,249,1147372,learnblock1,586.3000000000466,img/planet15_right.png,15,Community 1,NA,TRUE,j,j,NA,NA,NA,2,6,"4,7,5,15,1,3,11,12,2,8,6,9,10,14,13"
14966,commdev-image-keyboard-response,250,1148624,learnblock1,885.3999999999069,img/planet3_right.png,3,Community 2,NA,TRUE,j,j,NA,NA,NA,2,6,"4,7,5,15,1,3,11,12,2,8,6,9,10,14,13"
14966,commdev-image-keyboard-response,251,1149876,learnblock1,742.5999999998603,img/planet2_left.png,2,Community 2,NA,TRUE,f,f,NA,NA,NA,2,6,"4,7,5,15,1,3,11,12,2,8,6,9,10,14,13"
14966,commdev-image-keyboard-response,252,1151129,learnblock1,686.7000000001863,img/planet8_left.png,8,Community 2,NA,TRUE,f,f,NA,NA,NA,2,6,"4,7,5,15,1,3,11,12,2,8,6,9,10,14,13"
14966,commdev-image-keyboard-response,253,1152381,learnblock1,809.4000000001397,img/planet3_left.png,3,Community 2,NA,TRUE,f,f,NA,NA,NA,2,6,"4,7,5,15,1,3,11,12,2,8,6,9,10,14,13"
14966,commdev-image-keyboard-response,254,1153634,learnblock1,738.8000000000466,img/planet8_left.png,8,Community 2,NA,TRUE,f,f,NA,NA,NA,2,6,"4,7,5,15,1,3,11,12,2,8,6,9,10,14,13"
14966,commdev-image-keyboard-response,255,1154886,learnblock1,844.1000000000931,img/planet11_left.png,11,Community 2,NA,TRUE,f,f,NA,NA,NA,2,6,"4,7,5,15,1,3,11,12,2,8,6,9,10,14,13"
14966,commdev-image-keyboard-response,256,1156139,learnblock1,676.0999999998603,img/planet12_right.png,12,Community 2,NA,TRUE,j,j,NA,NA,NA,2,6,"4,7,5,15,1,3,11,12,2,8,6,9,10,14,13"
14966,commdev-image-keyboard-response,257,1157391,learnblock1,580,img/planet9_right.png,9,Community 3,NA,TRUE,j,j,NA,NA,NA,2,6,"4,7,5,15,1,3,11,12,2,8,6,9,10,14,13"
14966,commdev-image-keyboard-response,258,1158644,learnblock1,668.8999999999069,img/planet12_left.png,12,Community 2,NA,TRUE,f,f,NA,NA,NA,2,6,"4,7,5,15,1,3,11,12,2,8,6,9,10,14,13"
14966,commdev-image-keyboard-response,259,1159897,learnblock1,845.5999999998603,img/planet9_right.png,9,Community 3,NA,TRUE,j,j,NA,NA,NA,2,6,"4,7,5,15,1,3,11,12,2,8,6,9,10,14,13"
14966,commdev-image-keyboard-response,260,1161150,learnblock1,1031.8000000000466,img/planet14_left.png,14,Community 3,NA,TRUE,f,f,NA,NA,NA,2,6,"4,7,5,15,1,3,11,12,2,8,6,9,10,14,13"
14966,commdev-image-keyboard-response,261,1162402,learnblock1,null,img/planet13_left.png,13,Community 3,NA,FALSE,null,f,NA,NA,NA,2,6,"4,7,5,15,1,3,11,12,2,8,6,9,10,14,13"
14966,commdev-image-keyboard-response,262,1163655,learnblock1,972,img/planet9_right.png,9,Community 3,NA,TRUE,j,j,NA,NA,NA,2,6,"4,7,5,15,1,3,11,12,2,8,6,9,10,14,13"
14966,commdev-image-keyboard-response,263,1164906,learnblock1,611.1999999999534,img/planet13_left.png,13,Community 3,NA,TRUE,f,f,NA,NA,NA,2,6,"4,7,5,15,1,3,11,12,2,8,6,9,10,14,13"
14966,commdev-image-keyboard-response,264,1166159,learnblock1,779.5,img/planet14_left.png,14,Community 3,NA,TRUE,f,f,NA,NA,NA,2,6,"4,7,5,15,1,3,11,12,2,8,6,9,10,14,13"
14966,commdev-image-keyboard-response,265,1167411,learnblock1,602.6999999999534,img/planet10_right.png,10,Community 3,NA,TRUE,j,j,NA,NA,NA,2,6,"4,7,5,15,1,3,11,12,2,8,6,9,10,14,13"
14966,commdev-image-keyboard-response,266,1168664,learnblock1,514.0999999998603,img/planet13_right.png,13,Community 3,NA,FALSE,f,j,NA,NA,NA,2,6,"4,7,5,15,1,3,11,12,2,8,6,9,10,14,13"
14966,commdev-image-keyboard-response,267,1169916,learnblock1,645.3999999999069,img/planet14_left.png,14,Community 3,NA,TRUE,f,f,NA,NA,NA,2,6,"4,7,5,15,1,3,11,12,2,8,6,9,10,14,13"
14966,commdev-image-keyboard-response,268,1171169,learnblock1,661.2000000001863,img/planet10_right.png,10,Community 3,NA,TRUE,j,j,NA,NA,NA,2,6,"4,7,5,15,1,3,11,12,2,8,6,9,10,14,13"
14966,commdev-image-keyboard-response,269,1172421,learnblock1,588.6999999999534,img/planet9_left.png,9,Community 3,NA,FALSE,j,f,NA,NA,NA,2,6,"4,7,5,15,1,3,11,12,2,8,6,9,10,14,13"
14966,commdev-image-keyboard-response,270,1173674,learnblock1,939.3999999999069,img/planet14_right.png,14,Community 3,NA,TRUE,j,j,NA,NA,NA,2,6,"4,7,5,15,1,3,11,12,2,8,6,9,10,14,13"
14966,commdev-image-keyboard-response,271,1174926,learnblock1,850.2999999998137,img/planet6_right.png,6,Community 3,NA,TRUE,j,j,NA,NA,NA,2,6,"4,7,5,15,1,3,11,12,2,8,6,9,10,14,13"
14966,commdev-image-keyboard-response,272,1176179,learnblock1,823.1999999999534,img/planet13_left.png,13,Community 3,NA,TRUE,f,f,NA,NA,NA,2,6,"4,7,5,15,1,3,11,12,2,8,6,9,10,14,13"
14966,commdev-image-keyboard-response,273,1177431,learnblock1,804.8000000000466,img/planet10_right.png,10,Community 3,NA,TRUE,j,j,NA,NA,NA,2,6,"4,7,5,15,1,3,11,12,2,8,6,9,10,14,13"
14966,commdev-image-keyboard-response,274,1178684,learnblock1,1109,img/planet9_left.png,9,Community 3,NA,TRUE,f,f,NA,NA,NA,2,6,"4,7,5,15,1,3,11,12,2,8,6,9,10,14,13"
14966,commdev-image-keyboard-response,275,1179936,learnblock1,845.5,img/planet13_left.png,13,Community 3,NA,TRUE,f,f,NA,NA,NA,2,6,"4,7,5,15,1,3,11,12,2,8,6,9,10,14,13"
14966,commdev-image-keyboard-response,276,1181189,learnblock1,605.7999999998137,img/planet14_left.png,14,Community 3,NA,TRUE,f,f,NA,NA,NA,2,6,"4,7,5,15,1,3,11,12,2,8,6,9,10,14,13"
14966,commdev-image-keyboard-response,277,1182441,learnblock1,670.3999999999069,img/planet9_left.png,9,Community 3,NA,TRUE,f,f,NA,NA,NA,2,6,"4,7,5,15,1,3,11,12,2,8,6,9,10,14,13"
14966,commdev-image-keyboard-response,278,1183694,learnblock1,853.9000000001397,img/planet14_left.png,14,Community 3,NA,TRUE,f,f,NA,NA,NA,2,6,"4,7,5,15,1,3,11,12,2,8,6,9,10,14,13"
14966,commdev-image-keyboard-response,279,1184946,learnblock1,596.6999999999534,img/planet6_right.png,6,Community 3,NA,TRUE,j,j,NA,NA,NA,2,6,"4,7,5,15,1,3,11,12,2,8,6,9,10,14,13"
14966,commdev-image-keyboard-response,280,1186198,learnblock1,736.0999999998603,img/planet1_left.png,1,Community 1,NA,TRUE,f,f,NA,NA,NA,2,6,"4,7,5,15,1,3,11,12,2,8,6,9,10,14,13"
14966,commdev-image-keyboard-response,281,1187451,learnblock1,734.5999999998603,img/planet5_right.png,5,Community 1,NA,TRUE,j,j,NA,NA,NA,2,6,"4,7,5,15,1,3,11,12,2,8,6,9,10,14,13"
14966,commdev-image-keyboard-response,282,1188704,learnblock1,702.3000000000466,img/planet15_right.png,15,Community 1,NA,FALSE,f,j,NA,NA,NA,2,6,"4,7,5,15,1,3,11,12,2,8,6,9,10,14,13"
14966,commdev-image-keyboard-response,283,1189955,learnblock1,709.5,img/planet3_right.png,3,Community 2,NA,TRUE,j,j,NA,NA,NA,2,6,"4,7,5,15,1,3,11,12,2,8,6,9,10,14,13"
14966,commdev-image-keyboard-response,284,1191208,learnblock1,831.9000000001397,img/planet15_left.png,15,Community 1,NA,TRUE,f,f,NA,NA,NA,2,6,"4,7,5,15,1,3,11,12,2,8,6,9,10,14,13"
14966,commdev-image-keyboard-response,285,1192460,learnblock1,765,img/planet3_left.png,3,Community 2,NA,TRUE,f,f,NA,NA,NA,2,6,"4,7,5,15,1,3,11,12,2,8,6,9,10,14,13"
14966,commdev-image-keyboard-response,286,1193713,learnblock1,647.3999999999069,img/planet2_left.png,2,Community 2,NA,TRUE,f,f,NA,NA,NA,2,6,"4,7,5,15,1,3,11,12,2,8,6,9,10,14,13"
14966,commdev-image-keyboard-response,287,1194965,learnblock1,959.7999999998137,img/planet8_right.png,8,Community 2,NA,TRUE,j,j,NA,NA,NA,2,6,"4,7,5,15,1,3,11,12,2,8,6,9,10,14,13"
14966,commdev-image-keyboard-response,288,1196218,learnblock1,729.3000000000466,img/planet2_left.png,2,Community 2,NA,TRUE,f,f,NA,NA,NA,2,6,"4,7,5,15,1,3,11,12,2,8,6,9,10,14,13"
14966,commdev-image-keyboard-response,289,1197470,learnblock1,635.3000000000466,img/planet3_right.png,3,Community 2,NA,TRUE,j,j,NA,NA,NA,2,6,"4,7,5,15,1,3,11,12,2,8,6,9,10,14,13"
14966,commdev-image-keyboard-response,290,1198723,learnblock1,843.5,img/planet15_right.png,15,Community 1,NA,FALSE,f,j,NA,NA,NA,2,6,"4,7,5,15,1,3,11,12,2,8,6,9,10,14,13"
14966,commdev-image-keyboard-response,291,1199976,learnblock1,598.7000000001863,img/planet3_left.png,3,Community 2,NA,TRUE,f,f,NA,NA,NA,2,6,"4,7,5,15,1,3,11,12,2,8,6,9,10,14,13"
14966,commdev-image-keyboard-response,292,1201228,learnblock1,823.8999999999069,img/planet11_left.png,11,Community 2,NA,FALSE,j,f,NA,NA,NA,2,6,"4,7,5,15,1,3,11,12,2,8,6,9,10,14,13"
14966,commdev-image-keyboard-response,293,1202481,learnblock1,775.5999999998603,img/planet3_right.png,3,Community 2,NA,TRUE,j,j,NA,NA,NA,2,6,"4,7,5,15,1,3,11,12,2,8,6,9,10,14,13"
14966,commdev-image-keyboard-response,294,1203733,learnblock1,702,img/planet15_left.png,15,Community 1,NA,TRUE,f,f,NA,NA,NA,2,6,"4,7,5,15,1,3,11,12,2,8,6,9,10,14,13"
14966,commdev-image-keyboard-response,295,1204986,learnblock1,679,img/planet5_left.png,5,Community 1,NA,TRUE,f,f,NA,NA,NA,2,6,"4,7,5,15,1,3,11,12,2,8,6,9,10,14,13"
14966,commdev-image-keyboard-response,296,1206238,learnblock1,668.3000000000466,img/planet7_right.png,7,Community 1,NA,TRUE,j,j,NA,NA,NA,2,6,"4,7,5,15,1,3,11,12,2,8,6,9,10,14,13"
14966,commdev-image-keyboard-response,297,1207491,learnblock1,550.1999999999534,img/planet1_left.png,1,Community 1,NA,TRUE,f,f,NA,NA,NA,2,6,"4,7,5,15,1,3,11,12,2,8,6,9,10,14,13"
14966,commdev-image-keyboard-response,298,1208744,learnblock1,760.8999999999069,img/planet6_left.png,6,Community 3,NA,TRUE,f,f,NA,NA,NA,2,6,"4,7,5,15,1,3,11,12,2,8,6,9,10,14,13"
14966,commdev-image-keyboard-response,299,1209996,learnblock1,627.3000000000466,img/planet14_right.png,14,Community 3,NA,TRUE,j,j,NA,NA,NA,2,6,"4,7,5,15,1,3,11,12,2,8,6,9,10,14,13"
14966,commdev-image-keyboard-response,300,1211249,learnblock1,750.9000000001397,img/planet9_right.png,9,Community 3,NA,TRUE,j,j,NA,NA,NA,2,6,"4,7,5,15,1,3,11,12,2,8,6,9,10,14,13"
14966,commdev-image-keyboard-response,301,1212501,learnblock1,681.4000000001397,img/planet13_left.png,13,Community 3,NA,TRUE,f,f,NA,NA,NA,2,6,"4,7,5,15,1,3,11,12,2,8,6,9,10,14,13"
14966,commdev-image-keyboard-response,302,1213753,learnblock1,607.5,img/planet10_left.png,10,Community 3,NA,TRUE,f,f,NA,NA,NA,2,6,"4,7,5,15,1,3,11,12,2,8,6,9,10,14,13"
14966,commdev-image-keyboard-response,303,1215005,learnblock1,640.3999999999069,img/planet6_right.png,6,Community 3,NA,TRUE,j,j,NA,NA,NA,2,6,"4,7,5,15,1,3,11,12,2,8,6,9,10,14,13"
14966,commdev-image-keyboard-response,304,1216257,learnblock1,643.4000000001397,img/planet10_left.png,10,Community 3,NA,TRUE,f,f,NA,NA,NA,2,6,"4,7,5,15,1,3,11,12,2,8,6,9,10,14,13"
14966,commdev-image-keyboard-response,305,1217509,learnblock1,556.1999999999534,img/planet14_right.png,14,Community 3,NA,TRUE,j,j,NA,NA,NA,2,6,"4,7,5,15,1,3,11,12,2,8,6,9,10,14,13"
14966,commdev-image-keyboard-response,306,1218761,learnblock1,629,img/planet9_left.png,9,Community 3,NA,TRUE,f,f,NA,NA,NA,2,6,"4,7,5,15,1,3,11,12,2,8,6,9,10,14,13"
14966,commdev-image-keyboard-response,307,1220014,learnblock1,626,img/planet12_right.png,12,Community 2,NA,TRUE,j,j,NA,NA,NA,2,6,"4,7,5,15,1,3,11,12,2,8,6,9,10,14,13"
14966,commdev-image-keyboard-response,308,1221266,learnblock1,585.6999999999534,img/planet8_left.png,8,Community 2,NA,TRUE,f,f,NA,NA,NA,2,6,"4,7,5,15,1,3,11,12,2,8,6,9,10,14,13"
14966,commdev-image-keyboard-response,309,1222518,learnblock1,675,img/planet2_left.png,2,Community 2,NA,TRUE,f,f,NA,NA,NA,2,6,"4,7,5,15,1,3,11,12,2,8,6,9,10,14,13"
14966,commdev-image-keyboard-response,310,1223771,learnblock1,729.1999999999534,img/planet8_right.png,8,Community 2,NA,TRUE,j,j,NA,NA,NA,2,6,"4,7,5,15,1,3,11,12,2,8,6,9,10,14,13"
14966,commdev-image-keyboard-response,311,1225023,learnblock1,740.4000000001397,img/planet12_left.png,12,Community 2,NA,TRUE,f,f,NA,NA,NA,2,6,"4,7,5,15,1,3,11,12,2,8,6,9,10,14,13"
14966,commdev-image-keyboard-response,312,1226276,learnblock1,810.6999999999534,img/planet8_right.png,8,Community 2,NA,TRUE,j,j,NA,NA,NA,2,6,"4,7,5,15,1,3,11,12,2,8,6,9,10,14,13"
14966,commdev-image-keyboard-response,313,1227529,learnblock1,853.2999999998137,img/planet12_left.png,12,Community 2,NA,FALSE,j,f,NA,NA,NA,2,6,"4,7,5,15,1,3,11,12,2,8,6,9,10,14,13"
14966,commdev-image-keyboard-response,314,1228781,learnblock1,1086.6999999999534,img/planet8_left.png,8,Community 2,NA,TRUE,f,f,NA,NA,NA,2,6,"4,7,5,15,1,3,11,12,2,8,6,9,10,14,13"
14966,commdev-image-keyboard-response,315,1230033,learnblock1,918.2999999998137,img/planet11_right.png,11,Community 2,NA,TRUE,j,j,NA,NA,NA,2,6,"4,7,5,15,1,3,11,12,2,8,6,9,10,14,13"
14966,commdev-image-keyboard-response,316,1231285,learnblock1,596.6000000000931,img/planet12_left.png,12,Community 2,NA,TRUE,f,f,NA,NA,NA,2,6,"4,7,5,15,1,3,11,12,2,8,6,9,10,14,13"
14966,commdev-image-keyboard-response,317,1232538,learnblock1,1048.5999999998603,img/planet11_right.png,11,Community 2,NA,FALSE,f,j,NA,NA,NA,2,6,"4,7,5,15,1,3,11,12,2,8,6,9,10,14,13"
14966,commdev-image-keyboard-response,318,1233791,learnblock1,916.3000000000466,img/planet8_right.png,8,Community 2,NA,TRUE,j,j,NA,NA,NA,2,6,"4,7,5,15,1,3,11,12,2,8,6,9,10,14,13"
14966,commdev-image-keyboard-response,319,1235043,learnblock1,669.9000000001397,img/planet12_left.png,12,Community 2,NA,TRUE,f,f,NA,NA,NA,2,6,"4,7,5,15,1,3,11,12,2,8,6,9,10,14,13"
14966,commdev-image-keyboard-response,320,1236295,learnblock1,636.6999999999534,img/planet2_right.png,2,Community 2,NA,TRUE,j,j,NA,NA,NA,2,6,"4,7,5,15,1,3,11,12,2,8,6,9,10,14,13"
14966,commdev-image-keyboard-response,321,1237547,learnblock1,628.3999999999069,img/planet11_left.png,11,Community 2,NA,FALSE,j,f,NA,NA,NA,2,6,"4,7,5,15,1,3,11,12,2,8,6,9,10,14,13"
14966,commdev-image-keyboard-response,322,1238799,learnblock1,628.0999999998603,img/planet12_left.png,12,Community 2,NA,TRUE,f,f,NA,NA,NA,2,6,"4,7,5,15,1,3,11,12,2,8,6,9,10,14,13"
14966,commdev-image-keyboard-response,323,1240052,learnblock1,640.5,img/planet8_right.png,8,Community 2,NA,TRUE,j,j,NA,NA,NA,2,6,"4,7,5,15,1,3,11,12,2,8,6,9,10,14,13"
14966,commdev-image-keyboard-response,324,1241304,learnblock1,800.2999999998137,img/planet3_left.png,3,Community 2,NA,TRUE,f,f,NA,NA,NA,2,6,"4,7,5,15,1,3,11,12,2,8,6,9,10,14,13"
14966,commdev-image-keyboard-response,325,1242557,learnblock1,676.8000000000466,img/planet11_right.png,11,Community 2,NA,TRUE,j,j,NA,NA,NA,2,6,"4,7,5,15,1,3,11,12,2,8,6,9,10,14,13"
14966,commdev-image-keyboard-response,326,1243810,learnblock1,715.5,img/planet8_right.png,8,Community 2,NA,TRUE,j,j,NA,NA,NA,2,6,"4,7,5,15,1,3,11,12,2,8,6,9,10,14,13"
14966,commdev-image-keyboard-response,327,1245062,learnblock1,601.6000000000931,img/planet12_left.png,12,Community 2,NA,TRUE,f,f,NA,NA,NA,2,6,"4,7,5,15,1,3,11,12,2,8,6,9,10,14,13"
14966,commdev-image-keyboard-response,328,1246315,learnblock1,498.0999999998603,img/planet2_right.png,2,Community 2,NA,TRUE,j,j,NA,NA,NA,2,6,"4,7,5,15,1,3,11,12,2,8,6,9,10,14,13"
14966,commdev-image-keyboard-response,329,1247567,learnblock1,499.5999999998603,img/planet3_right.png,3,Community 2,NA,TRUE,j,j,NA,NA,NA,2,6,"4,7,5,15,1,3,11,12,2,8,6,9,10,14,13"
14966,commdev-image-keyboard-response,330,1248820,learnblock1,633.9000000001397,img/planet15_right.png,15,Community 1,NA,TRUE,j,j,NA,NA,NA,2,6,"4,7,5,15,1,3,11,12,2,8,6,9,10,14,13"
14966,commdev-image-keyboard-response,331,1250072,learnblock1,572.8000000000466,img/planet7_left.png,7,Community 1,NA,TRUE,f,f,NA,NA,NA,2,6,"4,7,5,15,1,3,11,12,2,8,6,9,10,14,13"
14966,commdev-image-keyboard-response,332,1251325,learnblock1,624.9000000001397,img/planet15_right.png,15,Community 1,NA,TRUE,j,j,NA,NA,NA,2,6,"4,7,5,15,1,3,11,12,2,8,6,9,10,14,13"
14966,commdev-image-keyboard-response,333,1252577,learnblock1,738.8000000000466,img/planet5_right.png,5,Community 1,NA,TRUE,j,j,NA,NA,NA,2,6,"4,7,5,15,1,3,11,12,2,8,6,9,10,14,13"
14966,commdev-image-keyboard-response,334,1253830,learnblock1,732.0999999998603,img/planet15_left.png,15,Community 1,NA,TRUE,f,f,NA,NA,NA,2,6,"4,7,5,15,1,3,11,12,2,8,6,9,10,14,13"
14966,commdev-image-keyboard-response,335,1255082,learnblock1,620.8999999999069,img/planet7_right.png,7,Community 1,NA,TRUE,j,j,NA,NA,NA,2,6,"4,7,5,15,1,3,11,12,2,8,6,9,10,14,13"
14966,commdev-image-keyboard-response,336,1256334,learnblock1,770.3999999999069,img/planet4_right.png,4,Community 1,NA,TRUE,j,j,NA,NA,NA,2,6,"4,7,5,15,1,3,11,12,2,8,6,9,10,14,13"
14966,commdev-image-keyboard-response,337,1257587,learnblock1,716.5999999998603,img/planet7_right.png,7,Community 1,NA,TRUE,j,j,NA,NA,NA,2,6,"4,7,5,15,1,3,11,12,2,8,6,9,10,14,13"
14966,commdev-image-keyboard-response,338,1258839,learnblock1,532.6999999999534,img/planet15_left.png,15,Community 1,NA,TRUE,f,f,NA,NA,NA,2,6,"4,7,5,15,1,3,11,12,2,8,6,9,10,14,13"
14966,commdev-image-keyboard-response,339,1260092,learnblock1,552.5999999998603,img/planet7_right.png,7,Community 1,NA,TRUE,j,j,NA,NA,NA,2,6,"4,7,5,15,1,3,11,12,2,8,6,9,10,14,13"
14966,commdev-image-keyboard-response,340,1261344,learnblock1,659.3999999999069,img/planet1_left.png,1,Community 1,NA,FALSE,j,f,NA,NA,NA,2,6,"4,7,5,15,1,3,11,12,2,8,6,9,10,14,13"
14966,commdev-image-keyboard-response,341,1262597,learnblock1,652.5999999998603,img/planet7_left.png,7,Community 1,NA,TRUE,f,f,NA,NA,NA,2,6,"4,7,5,15,1,3,11,12,2,8,6,9,10,14,13"
14966,commdev-image-keyboard-response,342,1263849,learnblock1,735.3000000000466,img/planet4_left.png,4,Community 1,NA,TRUE,f,f,NA,NA,NA,2,6,"4,7,5,15,1,3,11,12,2,8,6,9,10,14,13"
14966,commdev-image-keyboard-response,343,1265101,learnblock1,646.4000000001397,img/planet7_left.png,7,Community 1,NA,TRUE,f,f,NA,NA,NA,2,6,"4,7,5,15,1,3,11,12,2,8,6,9,10,14,13"
14966,commdev-image-keyboard-response,344,1266354,learnblock1,536.7000000001863,img/planet1_right.png,1,Community 1,NA,TRUE,j,j,NA,NA,NA,2,6,"4,7,5,15,1,3,11,12,2,8,6,9,10,14,13"
14966,commdev-image-keyboard-response,345,1267606,learnblock1,707.0999999998603,img/planet7_right.png,7,Community 1,NA,FALSE,f,j,NA,NA,NA,2,6,"4,7,5,15,1,3,11,12,2,8,6,9,10,14,13"
14966,commdev-image-keyboard-response,346,1268859,learnblock1,549.2000000001863,img/planet4_left.png,4,Community 1,NA,TRUE,f,f,NA,NA,NA,2,6,"4,7,5,15,1,3,11,12,2,8,6,9,10,14,13"
14966,commdev-image-keyboard-response,347,1270111,learnblock1,637.5,img/planet15_left.png,15,Community 1,NA,TRUE,f,f,NA,NA,NA,2,6,"4,7,5,15,1,3,11,12,2,8,6,9,10,14,13"
14966,commdev-image-keyboard-response,348,1271363,learnblock1,638.3000000000466,img/planet4_right.png,4,Community 1,NA,TRUE,j,j,NA,NA,NA,2,6,"4,7,5,15,1,3,11,12,2,8,6,9,10,14,13"
14966,commdev-image-keyboard-response,349,1272616,learnblock1,757.6999999999534,img/planet7_right.png,7,Community 1,NA,TRUE,j,j,NA,NA,NA,2,6,"4,7,5,15,1,3,11,12,2,8,6,9,10,14,13"
14966,commdev-image-keyboard-response,350,1273868,learnblock1,624.1000000000931,img/planet15_right.png,15,Community 1,NA,TRUE,j,j,NA,NA,NA,2,6,"4,7,5,15,1,3,11,12,2,8,6,9,10,14,13"
14966,commdev-image-keyboard-response,351,1275120,learnblock1,779.6999999999534,img/planet5_left.png,5,Community 1,NA,TRUE,f,f,NA,NA,NA,2,6,"4,7,5,15,1,3,11,12,2,8,6,9,10,14,13"
14966,commdev-image-keyboard-response,352,1276373,learnblock1,674.5,img/planet1_right.png,1,Community 1,NA,TRUE,j,j,NA,NA,NA,2,6,"4,7,5,15,1,3,11,12,2,8,6,9,10,14,13"
14966,commdev-image-keyboard-response,353,1277625,learnblock1,529.9000000001397,img/planet5_right.png,5,Community 1,NA,TRUE,j,j,NA,NA,NA,2,6,"4,7,5,15,1,3,11,12,2,8,6,9,10,14,13"
14966,commdev-image-keyboard-response,354,1278878,learnblock1,645.3999999999069,img/planet15_left.png,15,Community 1,NA,TRUE,f,f,NA,NA,NA,2,6,"4,7,5,15,1,3,11,12,2,8,6,9,10,14,13"
14966,commdev-image-keyboard-response,355,1280131,learnblock1,590.5,img/planet3_left.png,3,Community 2,NA,FALSE,j,f,NA,NA,NA,2,6,"4,7,5,15,1,3,11,12,2,8,6,9,10,14,13"
14966,commdev-image-keyboard-response,356,1281384,learnblock1,719.6999999999534,img/planet8_left.png,8,Community 2,NA,TRUE,f,f,NA,NA,NA,2,6,"4,7,5,15,1,3,11,12,2,8,6,9,10,14,13"
14966,commdev-image-keyboard-response,357,1282636,learnblock1,926.4000000001397,img/planet2_left.png,2,Community 2,NA,TRUE,f,f,NA,NA,NA,2,6,"4,7,5,15,1,3,11,12,2,8,6,9,10,14,13"
14966,commdev-image-keyboard-response,358,1283889,learnblock1,773.6000000000931,img/planet8_right.png,8,Community 2,NA,TRUE,j,j,NA,NA,NA,2,6,"4,7,5,15,1,3,11,12,2,8,6,9,10,14,13"
14966,commdev-image-keyboard-response,359,1285141,learnblock1,782.8999999999069,img/planet2_right.png,2,Community 2,NA,TRUE,j,j,NA,NA,NA,2,6,"4,7,5,15,1,3,11,12,2,8,6,9,10,14,13"
14966,commdev-image-keyboard-response,360,1286394,learnblock1,683.3000000000466,img/planet3_right.png,3,Community 2,NA,TRUE,j,j,NA,NA,NA,2,6,"4,7,5,15,1,3,11,12,2,8,6,9,10,14,13"
14966,commdev-image-keyboard-response,361,1287646,learnblock1,658.7999999998137,img/planet11_left.png,11,Community 2,NA,TRUE,f,f,NA,NA,NA,2,6,"4,7,5,15,1,3,11,12,2,8,6,9,10,14,13"
14966,commdev-image-keyboard-response,362,1288899,learnblock1,598,img/planet2_right.png,2,Community 2,NA,TRUE,j,j,NA,NA,NA,2,6,"4,7,5,15,1,3,11,12,2,8,6,9,10,14,13"
14966,commdev-image-keyboard-response,363,1290152,learnblock1,784.9000000001397,img/planet11_right.png,11,Community 2,NA,TRUE,j,j,NA,NA,NA,2,6,"4,7,5,15,1,3,11,12,2,8,6,9,10,14,13"
14966,commdev-image-keyboard-response,364,1291404,learnblock1,851.9000000001397,img/planet12_left.png,12,Community 2,NA,TRUE,f,f,NA,NA,NA,2,6,"4,7,5,15,1,3,11,12,2,8,6,9,10,14,13"
14966,commdev-image-keyboard-response,365,1292657,learnblock1,846.2000000001863,img/planet2_left.png,2,Community 2,NA,TRUE,f,f,NA,NA,NA,2,6,"4,7,5,15,1,3,11,12,2,8,6,9,10,14,13"
14966,commdev-image-keyboard-response,366,1293909,learnblock1,680.2999999998137,img/planet12_left.png,12,Community 2,NA,TRUE,f,f,NA,NA,NA,2,6,"4,7,5,15,1,3,11,12,2,8,6,9,10,14,13"
14966,commdev-image-keyboard-response,367,1295162,learnblock1,625.1999999999534,img/planet8_left.png,8,Community 2,NA,TRUE,f,f,NA,NA,NA,2,6,"4,7,5,15,1,3,11,12,2,8,6,9,10,14,13"
14966,commdev-image-keyboard-response,368,1296414,learnblock1,741.3999999999069,img/planet11_left.png,11,Community 2,NA,TRUE,f,f,NA,NA,NA,2,6,"4,7,5,15,1,3,11,12,2,8,6,9,10,14,13"
14966,commdev-image-keyboard-response,369,1297667,learnblock1,455.89999999990687,img/planet3_right.png,3,Community 2,NA,TRUE,j,j,NA,NA,NA,2,6,"4,7,5,15,1,3,11,12,2,8,6,9,10,14,13"
14966,commdev-image-keyboard-response,370,1298919,learnblock1,584.4000000001397,img/planet15_right.png,15,Community 1,NA,TRUE,j,j,NA,NA,NA,2,6,"4,7,5,15,1,3,11,12,2,8,6,9,10,14,13"
14966,commdev-image-keyboard-response,371,1300172,learnblock1,529.2999999998137,img/planet5_left.png,5,Community 1,NA,FALSE,j,f,NA,NA,NA,2,6,"4,7,5,15,1,3,11,12,2,8,6,9,10,14,13"
14966,commdev-image-keyboard-response,372,1301425,learnblock1,734.5,img/planet15_left.png,15,Community 1,NA,TRUE,f,f,NA,NA,NA,2,6,"4,7,5,15,1,3,11,12,2,8,6,9,10,14,13"
14966,commdev-image-keyboard-response,373,1302677,learnblock1,1026.3000000000466,img/planet5_right.png,5,Community 1,NA,TRUE,j,j,NA,NA,NA,2,6,"4,7,5,15,1,3,11,12,2,8,6,9,10,14,13"
14966,commdev-image-keyboard-response,374,1303930,learnblock1,699.8000000000466,img/planet4_left.png,4,Community 1,NA,TRUE,f,f,NA,NA,NA,2,6,"4,7,5,15,1,3,11,12,2,8,6,9,10,14,13"
14966,commdev-image-keyboard-response,375,1305182,learnblock1,803.3000000000466,img/planet7_left.png,7,Community 1,NA,TRUE,f,f,NA,NA,NA,2,6,"4,7,5,15,1,3,11,12,2,8,6,9,10,14,13"
14966,commdev-image-keyboard-response,376,1306434,learnblock1,662.8000000000466,img/planet1_right.png,1,Community 1,NA,TRUE,j,j,NA,NA,NA,2,6,"4,7,5,15,1,3,11,12,2,8,6,9,10,14,13"
14966,commdev-image-keyboard-response,377,1307687,learnblock1,573.9000000001397,img/planet4_right.png,4,Community 1,NA,TRUE,j,j,NA,NA,NA,2,6,"4,7,5,15,1,3,11,12,2,8,6,9,10,14,13"
14966,commdev-image-keyboard-response,378,1308939,learnblock1,799.3000000000466,img/planet15_right.png,15,Community 1,NA,FALSE,f,j,NA,NA,NA,2,6,"4,7,5,15,1,3,11,12,2,8,6,9,10,14,13"
14966,commdev-image-keyboard-response,379,1310192,learnblock1,576.9000000001397,img/planet5_left.png,5,Community 1,NA,TRUE,f,f,NA,NA,NA,2,6,"4,7,5,15,1,3,11,12,2,8,6,9,10,14,13"
14966,commdev-image-keyboard-response,380,1311444,learnblock1,705.9000000001397,img/planet1_left.png,1,Community 1,NA,FALSE,j,f,NA,NA,NA,2,6,"4,7,5,15,1,3,11,12,2,8,6,9,10,14,13"
14966,commdev-image-keyboard-response,381,1312697,learnblock1,830.4000000001397,img/planet7_left.png,7,Community 1,NA,TRUE,f,f,NA,NA,NA,2,6,"4,7,5,15,1,3,11,12,2,8,6,9,10,14,13"
14966,commdev-image-keyboard-response,382,1313949,learnblock1,592.1000000000931,img/planet4_right.png,4,Community 1,NA,TRUE,j,j,NA,NA,NA,2,6,"4,7,5,15,1,3,11,12,2,8,6,9,10,14,13"
14966,commdev-image-keyboard-response,383,1315202,learnblock1,485.5,img/planet15_right.png,15,Community 1,NA,TRUE,j,j,NA,NA,NA,2,6,"4,7,5,15,1,3,11,12,2,8,6,9,10,14,13"
14966,commdev-image-keyboard-response,384,1316454,learnblock1,769.5,img/planet3_right.png,3,Community 2,NA,TRUE,j,j,NA,NA,NA,2,6,"4,7,5,15,1,3,11,12,2,8,6,9,10,14,13"
14966,commdev-image-keyboard-response,385,1317707,learnblock1,529.2000000001863,img/planet8_left.png,8,Community 2,NA,FALSE,j,f,NA,NA,NA,2,6,"4,7,5,15,1,3,11,12,2,8,6,9,10,14,13"
14966,commdev-image-keyboard-response,386,1318959,learnblock1,598.3000000000466,img/planet12_right.png,12,Community 2,NA,TRUE,j,j,NA,NA,NA,2,6,"4,7,5,15,1,3,11,12,2,8,6,9,10,14,13"
14966,commdev-image-keyboard-response,387,1320212,learnblock1,627.8999999999069,img/planet8_left.png,8,Community 2,NA,TRUE,f,f,NA,NA,NA,2,6,"4,7,5,15,1,3,11,12,2,8,6,9,10,14,13"
14966,commdev-image-keyboard-response,388,1321464,learnblock1,881.3000000000466,img/planet11_left.png,11,Community 2,NA,TRUE,f,f,NA,NA,NA,2,6,"4,7,5,15,1,3,11,12,2,8,6,9,10,14,13"
14966,commdev-image-keyboard-response,389,1322717,learnblock1,682.1999999999534,img/planet2_left.png,2,Community 2,NA,TRUE,f,f,NA,NA,NA,2,6,"4,7,5,15,1,3,11,12,2,8,6,9,10,14,13"
14966,commdev-image-keyboard-response,390,1323969,learnblock1,788.6000000000931,img/planet12_left.png,12,Community 2,NA,TRUE,f,f,NA,NA,NA,2,6,"4,7,5,15,1,3,11,12,2,8,6,9,10,14,13"
14966,commdev-image-keyboard-response,391,1325222,learnblock1,677.0999999998603,img/planet2_left.png,2,Community 2,NA,FALSE,j,f,NA,NA,NA,2,6,"4,7,5,15,1,3,11,12,2,8,6,9,10,14,13"
14966,commdev-image-keyboard-response,392,1326474,learnblock1,680.3000000000466,img/planet3_left.png,3,Community 2,NA,TRUE,f,f,NA,NA,NA,2,6,"4,7,5,15,1,3,11,12,2,8,6,9,10,14,13"
14966,commdev-image-keyboard-response,393,1327727,learnblock1,428.89999999990687,img/planet15_right.png,15,Community 1,NA,TRUE,j,j,NA,NA,NA,2,6,"4,7,5,15,1,3,11,12,2,8,6,9,10,14,13"
14966,commdev-image-keyboard-response,394,1328980,learnblock1,570.6000000000931,img/planet4_right.png,4,Community 1,NA,TRUE,j,j,NA,NA,NA,2,6,"4,7,5,15,1,3,11,12,2,8,6,9,10,14,13"
14966,commdev-image-keyboard-response,395,1330232,learnblock1,569.5,img/planet1_right.png,1,Community 1,NA,TRUE,j,j,NA,NA,NA,2,6,"4,7,5,15,1,3,11,12,2,8,6,9,10,14,13"
14966,commdev-image-keyboard-response,396,1331485,learnblock1,555.3000000000466,img/planet7_left.png,7,Community 1,NA,TRUE,f,f,NA,NA,NA,2,6,"4,7,5,15,1,3,11,12,2,8,6,9,10,14,13"
14966,commdev-image-keyboard-response,397,1332738,learnblock1,497.4000000001397,img/planet1_right.png,1,Community 1,NA,TRUE,j,j,NA,NA,NA,2,6,"4,7,5,15,1,3,11,12,2,8,6,9,10,14,13"
14966,commdev-image-keyboard-response,398,1333990,learnblock1,596.9000000001397,img/planet7_right.png,7,Community 1,NA,FALSE,f,j,NA,NA,NA,2,6,"4,7,5,15,1,3,11,12,2,8,6,9,10,14,13"
14966,commdev-image-keyboard-response,399,1335243,learnblock1,571.9000000001397,img/planet15_left.png,15,Community 1,NA,TRUE,f,f,NA,NA,NA,2,6,"4,7,5,15,1,3,11,12,2,8,6,9,10,14,13"
14966,commdev-image-keyboard-response,400,1336496,learnblock1,728.6000000000931,img/planet5_right.png,5,Community 1,NA,TRUE,j,j,NA,NA,NA,2,6,"4,7,5,15,1,3,11,12,2,8,6,9,10,14,13"
14966,commdev-image-keyboard-response,401,1337748,learnblock1,612.1000000000931,img/planet7_right.png,7,Community 1,NA,TRUE,j,j,NA,NA,NA,2,6,"4,7,5,15,1,3,11,12,2,8,6,9,10,14,13"
14966,commdev-image-keyboard-response,402,1339001,learnblock1,617.3000000000466,img/planet4_right.png,4,Community 1,NA,TRUE,j,j,NA,NA,NA,2,6,"4,7,5,15,1,3,11,12,2,8,6,9,10,14,13"
14966,commdev-image-keyboard-response,403,1340253,learnblock1,554.0999999998603,img/planet5_left.png,5,Community 1,NA,TRUE,f,f,NA,NA,NA,2,6,"4,7,5,15,1,3,11,12,2,8,6,9,10,14,13"
14966,commdev-image-keyboard-response,404,1341506,learnblock1,623.3999999999069,img/planet15_right.png,15,Community 1,NA,TRUE,j,j,NA,NA,NA,2,6,"4,7,5,15,1,3,11,12,2,8,6,9,10,14,13"
14966,commdev-image-keyboard-response,405,1342759,learnblock1,721,img/planet4_left.png,4,Community 1,NA,TRUE,f,f,NA,NA,NA,2,6,"4,7,5,15,1,3,11,12,2,8,6,9,10,14,13"
14966,commdev-image-keyboard-response,406,1344011,learnblock1,579.1999999999534,img/planet5_left.png,5,Community 1,NA,FALSE,j,f,NA,NA,NA,2,6,"4,7,5,15,1,3,11,12,2,8,6,9,10,14,13"
14966,commdev-image-keyboard-response,407,1345264,learnblock1,842.7999999998137,img/planet15_left.png,15,Community 1,NA,TRUE,f,f,NA,NA,NA,2,6,"4,7,5,15,1,3,11,12,2,8,6,9,10,14,13"
14966,commdev-image-keyboard-response,408,1346517,learnblock1,684,img/planet4_left.png,4,Community 1,NA,TRUE,f,f,NA,NA,NA,2,6,"4,7,5,15,1,3,11,12,2,8,6,9,10,14,13"
14966,commdev-image-keyboard-response,409,1347769,learnblock1,622.5,img/planet1_right.png,1,Community 1,NA,TRUE,j,j,NA,NA,NA,2,6,"4,7,5,15,1,3,11,12,2,8,6,9,10,14,13"
14966,commdev-image-keyboard-response,410,1349021,learnblock1,699.5,img/planet6_right.png,6,Community 3,NA,FALSE,f,j,NA,NA,NA,2,6,"4,7,5,15,1,3,11,12,2,8,6,9,10,14,13"
14966,commdev-image-keyboard-response,411,1350273,learnblock1,572.8000000000466,img/planet13_left.png,13,Community 3,NA,TRUE,f,f,NA,NA,NA,2,6,"4,7,5,15,1,3,11,12,2,8,6,9,10,14,13"
14966,commdev-image-keyboard-response,412,1351526,learnblock1,615.5,img/planet9_right.png,9,Community 3,NA,TRUE,j,j,NA,NA,NA,2,6,"4,7,5,15,1,3,11,12,2,8,6,9,10,14,13"
14966,commdev-image-keyboard-response,413,1352778,learnblock1,88.69999999995343,img/planet10_left.png,10,Community 3,NA,FALSE,j,f,NA,NA,NA,2,6,"4,7,5,15,1,3,11,12,2,8,6,9,10,14,13"
14966,commdev-image-keyboard-response,414,1354031,learnblock1,717.3999999999069,img/planet14_right.png,14,Community 3,NA,TRUE,j,j,NA,NA,NA,2,6,"4,7,5,15,1,3,11,12,2,8,6,9,10,14,13"
14966,commdev-image-keyboard-response,415,1355283,learnblock1,1048.5,img/planet9_right.png,9,Community 3,NA,TRUE,j,j,NA,NA,NA,2,6,"4,7,5,15,1,3,11,12,2,8,6,9,10,14,13"
14966,commdev-image-keyboard-response,416,1356536,learnblock1,780.4000000001397,img/planet10_right.png,10,Community 3,NA,TRUE,j,j,NA,NA,NA,2,6,"4,7,5,15,1,3,11,12,2,8,6,9,10,14,13"
14966,commdev-image-keyboard-response,417,1357788,learnblock1,823.5,img/planet13_left.png,13,Community 3,NA,TRUE,f,f,NA,NA,NA,2,6,"4,7,5,15,1,3,11,12,2,8,6,9,10,14,13"
14966,commdev-image-keyboard-response,418,1359041,learnblock1,943.1000000000931,img/planet14_left.png,14,Community 3,NA,FALSE,j,f,NA,NA,NA,2,6,"4,7,5,15,1,3,11,12,2,8,6,9,10,14,13"
14966,commdev-image-keyboard-response,419,1360294,learnblock1,876.5,img/planet13_left.png,13,Community 3,NA,TRUE,f,f,NA,NA,NA,2,6,"4,7,5,15,1,3,11,12,2,8,6,9,10,14,13"
14966,commdev-image-keyboard-response,420,1361546,learnblock1,601.0999999998603,img/planet10_left.png,10,Community 3,NA,TRUE,f,f,NA,NA,NA,2,6,"4,7,5,15,1,3,11,12,2,8,6,9,10,14,13"
14966,commdev-image-keyboard-response,421,1362798,learnblock1,588.1999999999534,img/planet9_right.png,9,Community 3,NA,TRUE,j,j,NA,NA,NA,2,6,"4,7,5,15,1,3,11,12,2,8,6,9,10,14,13"
14966,commdev-image-keyboard-response,422,1364050,learnblock1,686.3999999999069,img/planet10_left.png,10,Community 3,NA,TRUE,f,f,NA,NA,NA,2,6,"4,7,5,15,1,3,11,12,2,8,6,9,10,14,13"
14966,commdev-image-keyboard-response,423,1365303,learnblock1,773.0999999998603,img/planet9_left.png,9,Community 3,NA,TRUE,f,f,NA,NA,NA,2,6,"4,7,5,15,1,3,11,12,2,8,6,9,10,14,13"
14966,commdev-image-keyboard-response,424,1366555,learnblock1,872.5999999998603,img/planet14_right.png,14,Community 3,NA,TRUE,j,j,NA,NA,NA,2,6,"4,7,5,15,1,3,11,12,2,8,6,9,10,14,13"
14966,commdev-image-keyboard-response,425,1367808,learnblock1,672.1000000000931,img/planet13_right.png,13,Community 3,NA,TRUE,j,j,NA,NA,NA,2,6,"4,7,5,15,1,3,11,12,2,8,6,9,10,14,13"
14966,commdev-image-keyboard-response,426,1369060,learnblock1,579.1000000000931,img/planet9_left.png,9,Community 3,NA,TRUE,f,f,NA,NA,NA,2,6,"4,7,5,15,1,3,11,12,2,8,6,9,10,14,13"
14966,commdev-image-keyboard-response,427,1370313,learnblock1,638.8999999999069,img/planet14_left.png,14,Community 3,NA,TRUE,f,f,NA,NA,NA,2,6,"4,7,5,15,1,3,11,12,2,8,6,9,10,14,13"
14966,commdev-image-keyboard-response,428,1371565,learnblock1,525.8000000000466,img/planet6_right.png,6,Community 3,NA,TRUE,j,j,NA,NA,NA,2,6,"4,7,5,15,1,3,11,12,2,8,6,9,10,14,13"
14966,commdev-image-keyboard-response,429,1372818,learnblock1,602.5999999998603,img/planet13_right.png,13,Community 3,NA,TRUE,j,j,NA,NA,NA,2,6,"4,7,5,15,1,3,11,12,2,8,6,9,10,14,13"
14966,commdev-image-keyboard-response,430,1374070,learnblock1,557.2999999998137,img/planet14_right.png,14,Community 3,NA,TRUE,j,j,NA,NA,NA,2,6,"4,7,5,15,1,3,11,12,2,8,6,9,10,14,13"
14966,commdev-image-keyboard-response,431,1375323,learnblock1,504.30000000004657,img/planet10_left.png,10,Community 3,NA,TRUE,f,f,NA,NA,NA,2,6,"4,7,5,15,1,3,11,12,2,8,6,9,10,14,13"
14966,commdev-image-keyboard-response,432,1376575,learnblock1,626.7000000001863,img/planet6_left.png,6,Community 3,NA,TRUE,f,f,NA,NA,NA,2,6,"4,7,5,15,1,3,11,12,2,8,6,9,10,14,13"
14966,commdev-image-keyboard-response,433,1377826,learnblock1,631.5,img/planet14_left.png,14,Community 3,NA,TRUE,f,f,NA,NA,NA,2,6,"4,7,5,15,1,3,11,12,2,8,6,9,10,14,13"
14966,commdev-image-keyboard-response,434,1379079,learnblock1,569.8000000000466,img/planet13_left.png,13,Community 3,NA,TRUE,f,f,NA,NA,NA,2,6,"4,7,5,15,1,3,11,12,2,8,6,9,10,14,13"
14966,commdev-image-keyboard-response,435,1380332,learnblock1,539.8000000000466,img/planet9_right.png,9,Community 3,NA,TRUE,j,j,NA,NA,NA,2,6,"4,7,5,15,1,3,11,12,2,8,6,9,10,14,13"
14966,commdev-image-keyboard-response,436,1381584,learnblock1,541.8000000000466,img/planet14_right.png,14,Community 3,NA,FALSE,f,j,NA,NA,NA,2,6,"4,7,5,15,1,3,11,12,2,8,6,9,10,14,13"
14966,commdev-image-keyboard-response,437,1382837,learnblock1,663.8999999999069,img/planet6_right.png,6,Community 3,NA,TRUE,j,j,NA,NA,NA,2,6,"4,7,5,15,1,3,11,12,2,8,6,9,10,14,13"
14966,commdev-image-keyboard-response,438,1384089,learnblock1,704.5,img/planet14_right.png,14,Community 3,NA,TRUE,j,j,NA,NA,NA,2,6,"4,7,5,15,1,3,11,12,2,8,6,9,10,14,13"
14966,commdev-image-keyboard-response,439,1385342,learnblock1,632.5999999998603,img/planet13_left.png,13,Community 3,NA,FALSE,j,f,NA,NA,NA,2,6,"4,7,5,15,1,3,11,12,2,8,6,9,10,14,13"
14966,commdev-image-keyboard-response,440,1386595,learnblock1,590.6999999999534,img/planet10_right.png,10,Community 3,NA,TRUE,j,j,NA,NA,NA,2,6,"4,7,5,15,1,3,11,12,2,8,6,9,10,14,13"
14966,commdev-image-keyboard-response,441,1387847,learnblock1,984.8000000000466,img/planet14_right.png,14,Community 3,NA,TRUE,j,j,NA,NA,NA,2,6,"4,7,5,15,1,3,11,12,2,8,6,9,10,14,13"
14966,commdev-image-keyboard-response,442,1389099,learnblock1,612.8000000000466,img/planet10_left.png,10,Community 3,NA,TRUE,f,f,NA,NA,NA,2,6,"4,7,5,15,1,3,11,12,2,8,6,9,10,14,13"
14966,commdev-image-keyboard-response,443,1390352,learnblock1,707.5,img/planet9_right.png,9,Community 3,NA,FALSE,f,j,NA,NA,NA,2,6,"4,7,5,15,1,3,11,12,2,8,6,9,10,14,13"
14966,commdev-image-keyboard-response,444,1391604,learnblock1,null,img/planet13_right.png,13,Community 3,NA,FALSE,null,j,NA,NA,NA,2,6,"4,7,5,15,1,3,11,12,2,8,6,9,10,14,13"
14966,commdev-image-keyboard-response,445,1392857,learnblock1,125.69999999995343,img/planet6_right.png,6,Community 3,NA,FALSE,f,j,NA,NA,NA,2,6,"4,7,5,15,1,3,11,12,2,8,6,9,10,14,13"
14966,commdev-image-keyboard-response,446,1394109,learnblock1,549.6999999999534,img/planet13_left.png,13,Community 3,NA,TRUE,f,f,NA,NA,NA,2,6,"4,7,5,15,1,3,11,12,2,8,6,9,10,14,13"
14966,commdev-image-keyboard-response,447,1395362,learnblock1,794.6999999999534,img/planet6_left.png,6,Community 3,NA,FALSE,j,f,NA,NA,NA,2,6,"4,7,5,15,1,3,11,12,2,8,6,9,10,14,13"
14966,commdev-image-keyboard-response,448,1396614,learnblock1,692,img/planet10_right.png,10,Community 3,NA,TRUE,j,j,NA,NA,NA,2,6,"4,7,5,15,1,3,11,12,2,8,6,9,10,14,13"
14966,commdev-image-keyboard-response,449,1397867,learnblock1,731.8000000000466,img/planet14_left.png,14,Community 3,NA,TRUE,f,f,NA,NA,NA,2,6,"4,7,5,15,1,3,11,12,2,8,6,9,10,14,13"
14966,commdev-image-keyboard-response,450,1399120,learnblock1,744.3000000000466,img/planet6_left.png,6,Community 3,NA,TRUE,f,f,NA,NA,NA,2,6,"4,7,5,15,1,3,11,12,2,8,6,9,10,14,13"
14966,commdev-image-keyboard-response,451,1400372,learnblock1,675.6000000000931,img/planet13_left.png,13,Community 3,NA,TRUE,f,f,NA,NA,NA,2,6,"4,7,5,15,1,3,11,12,2,8,6,9,10,14,13"
14966,commdev-image-keyboard-response,452,1401623,learnblock1,459.70000000018626,img/planet10_right.png,10,Community 3,NA,TRUE,j,j,NA,NA,NA,2,6,"4,7,5,15,1,3,11,12,2,8,6,9,10,14,13"
14966,commdev-image-keyboard-response,453,1402876,learnblock1,549.5,img/planet6_left.png,6,Community 3,NA,TRUE,f,f,NA,NA,NA,2,6,"4,7,5,15,1,3,11,12,2,8,6,9,10,14,13"
14966,commdev-image-keyboard-response,457,1461890,learnblock2,910.8000000000466,img/planet3_right.png,3,Community 2,NA,TRUE,j,j,NA,NA,NA,2,6,"4,7,5,15,1,3,11,12,2,8,6,9,10,14,13"
14966,commdev-image-keyboard-response,458,1463142,learnblock2,758.8000000000466,img/planet8_left.png,8,Community 2,NA,TRUE,f,f,NA,NA,NA,2,6,"4,7,5,15,1,3,11,12,2,8,6,9,10,14,13"
14966,commdev-image-keyboard-response,459,1464395,learnblock2,525.3000000000466,img/planet11_right.png,11,Community 2,NA,TRUE,j,j,NA,NA,NA,2,6,"4,7,5,15,1,3,11,12,2,8,6,9,10,14,13"
14966,commdev-image-keyboard-response,460,1465648,learnblock2,568.3000000000466,img/planet12_right.png,12,Community 2,NA,TRUE,j,j,NA,NA,NA,2,6,"4,7,5,15,1,3,11,12,2,8,6,9,10,14,13"
14966,commdev-image-keyboard-response,461,1466900,learnblock2,578.4000000001397,img/planet2_left.png,2,Community 2,NA,TRUE,f,f,NA,NA,NA,2,6,"4,7,5,15,1,3,11,12,2,8,6,9,10,14,13"
14966,commdev-image-keyboard-response,462,1468153,learnblock2,600.5,img/planet12_left.png,12,Community 2,NA,TRUE,f,f,NA,NA,NA,2,6,"4,7,5,15,1,3,11,12,2,8,6,9,10,14,13"
14966,commdev-image-keyboard-response,463,1469406,learnblock2,593.3000000000466,img/planet9_right.png,9,Community 3,NA,TRUE,j,j,NA,NA,NA,2,6,"4,7,5,15,1,3,11,12,2,8,6,9,10,14,13"
14966,commdev-image-keyboard-response,464,1470659,learnblock2,599.5,img/planet14_left.png,14,Community 3,NA,TRUE,f,f,NA,NA,NA,2,6,"4,7,5,15,1,3,11,12,2,8,6,9,10,14,13"
14966,commdev-image-keyboard-response,465,1471912,learnblock2,551.8000000000466,img/planet9_right.png,9,Community 3,NA,TRUE,j,j,NA,NA,NA,2,6,"4,7,5,15,1,3,11,12,2,8,6,9,10,14,13"
14966,commdev-image-keyboard-response,466,1473164,learnblock2,626.8000000000466,img/planet10_right.png,10,Community 3,NA,TRUE,j,j,NA,NA,NA,2,6,"4,7,5,15,1,3,11,12,2,8,6,9,10,14,13"
14966,commdev-image-keyboard-response,467,1474417,learnblock2,596,img/planet9_left.png,9,Community 3,NA,FALSE,j,f,NA,NA,NA,2,6,"4,7,5,15,1,3,11,12,2,8,6,9,10,14,13"
14966,commdev-image-keyboard-response,468,1475669,learnblock2,772.8999999999069,img/planet12_left.png,12,Community 2,NA,TRUE,f,f,NA,NA,NA,2,6,"4,7,5,15,1,3,11,12,2,8,6,9,10,14,13"
14966,commdev-image-keyboard-response,469,1476922,learnblock2,661.5,img/planet2_right.png,2,Community 2,NA,TRUE,j,j,NA,NA,NA,2,6,"4,7,5,15,1,3,11,12,2,8,6,9,10,14,13"
14966,commdev-image-keyboard-response,470,1478175,learnblock2,573.5,img/planet11_right.png,11,Community 2,NA,TRUE,j,j,NA,NA,NA,2,6,"4,7,5,15,1,3,11,12,2,8,6,9,10,14,13"
14966,commdev-image-keyboard-response,471,1479427,learnblock2,534.1999999999534,img/planet2_right.png,2,Community 2,NA,TRUE,j,j,NA,NA,NA,2,6,"4,7,5,15,1,3,11,12,2,8,6,9,10,14,13"
14966,commdev-image-keyboard-response,472,1480680,learnblock2,512.6000000000931,img/planet3_left.png,3,Community 2,NA,FALSE,j,f,NA,NA,NA,2,6,"4,7,5,15,1,3,11,12,2,8,6,9,10,14,13"
14966,commdev-image-keyboard-response,473,1481932,learnblock2,625.3999999999069,img/planet15_left.png,15,Community 1,NA,TRUE,f,f,NA,NA,NA,2,6,"4,7,5,15,1,3,11,12,2,8,6,9,10,14,13"
14966,commdev-image-keyboard-response,474,1483185,learnblock2,657.5,img/planet5_left.png,5,Community 1,NA,TRUE,f,f,NA,NA,NA,2,6,"4,7,5,15,1,3,11,12,2,8,6,9,10,14,13"
14966,commdev-image-keyboard-response,475,1484438,learnblock2,null,img/planet7_left.png,7,Community 1,NA,FALSE,null,f,NA,NA,NA,2,6,"4,7,5,15,1,3,11,12,2,8,6,9,10,14,13"
14966,commdev-image-keyboard-response,476,1485690,learnblock2,931.0999999998603,img/planet4_left.png,4,Community 1,NA,TRUE,f,f,NA,NA,NA,2,6,"4,7,5,15,1,3,11,12,2,8,6,9,10,14,13"
14966,commdev-image-keyboard-response,477,1486943,learnblock2,684.8999999999069,img/planet5_left.png,5,Community 1,NA,TRUE,f,f,NA,NA,NA,2,6,"4,7,5,15,1,3,11,12,2,8,6,9,10,14,13"
14966,commdev-image-keyboard-response,478,1488195,learnblock2,633.6999999999534,img/planet7_right.png,7,Community 1,NA,TRUE,j,j,NA,NA,NA,2,6,"4,7,5,15,1,3,11,12,2,8,6,9,10,14,13"
14966,commdev-image-keyboard-response,479,1489448,learnblock2,655.6999999999534,img/planet15_left.png,15,Community 1,NA,TRUE,f,f,NA,NA,NA,2,6,"4,7,5,15,1,3,11,12,2,8,6,9,10,14,13"
14966,commdev-image-keyboard-response,480,1490700,learnblock2,512.8000000000466,img/planet3_right.png,3,Community 2,NA,TRUE,j,j,NA,NA,NA,2,6,"4,7,5,15,1,3,11,12,2,8,6,9,10,14,13"
14966,commdev-image-keyboard-response,481,1491953,learnblock2,585.5,img/planet11_right.png,11,Community 2,NA,TRUE,j,j,NA,NA,NA,2,6,"4,7,5,15,1,3,11,12,2,8,6,9,10,14,13"
14966,commdev-image-keyboard-response,482,1493205,learnblock2,771.8000000000466,img/planet8_right.png,8,Community 2,NA,TRUE,j,j,NA,NA,NA,2,6,"4,7,5,15,1,3,11,12,2,8,6,9,10,14,13"
14966,commdev-image-keyboard-response,483,1494457,learnblock2,576.6000000000931,img/planet3_right.png,3,Community 2,NA,TRUE,j,j,NA,NA,NA,2,6,"4,7,5,15,1,3,11,12,2,8,6,9,10,14,13"
14966,commdev-image-keyboard-response,484,1495709,learnblock2,532.8999999999069,img/planet11_right.png,11,Community 2,NA,TRUE,j,j,NA,NA,NA,2,6,"4,7,5,15,1,3,11,12,2,8,6,9,10,14,13"
14966,commdev-image-keyboard-response,485,1496962,learnblock2,526.3999999999069,img/planet8_right.png,8,Community 2,NA,TRUE,j,j,NA,NA,NA,2,6,"4,7,5,15,1,3,11,12,2,8,6,9,10,14,13"
14966,commdev-image-keyboard-response,486,1498214,learnblock2,424.9000000001397,img/planet3_left.png,3,Community 2,NA,FALSE,j,f,NA,NA,NA,2,6,"4,7,5,15,1,3,11,12,2,8,6,9,10,14,13"
14966,commdev-image-keyboard-response,487,1499467,learnblock2,732.6999999999534,img/planet2_right.png,2,Community 2,NA,TRUE,j,j,NA,NA,NA,2,6,"4,7,5,15,1,3,11,12,2,8,6,9,10,14,13"
14966,commdev-image-keyboard-response,488,1500720,learnblock2,724,img/planet8_right.png,8,Community 2,NA,TRUE,j,j,NA,NA,NA,2,6,"4,7,5,15,1,3,11,12,2,8,6,9,10,14,13"
14966,commdev-image-keyboard-response,489,1501972,learnblock2,597.6000000000931,img/planet11_right.png,11,Community 2,NA,TRUE,j,j,NA,NA,NA,2,6,"4,7,5,15,1,3,11,12,2,8,6,9,10,14,13"
14966,commdev-image-keyboard-response,490,1503223,learnblock2,568.9000000001397,img/planet8_left.png,8,Community 2,NA,FALSE,j,f,NA,NA,NA,2,6,"4,7,5,15,1,3,11,12,2,8,6,9,10,14,13"
14966,commdev-image-keyboard-response,491,1504476,learnblock2,728.2000000001863,img/planet12_left.png,12,Community 2,NA,TRUE,f,f,NA,NA,NA,2,6,"4,7,5,15,1,3,11,12,2,8,6,9,10,14,13"
14966,commdev-image-keyboard-response,492,1505728,learnblock2,587.5,img/planet8_right.png,8,Community 2,NA,TRUE,j,j,NA,NA,NA,2,6,"4,7,5,15,1,3,11,12,2,8,6,9,10,14,13"
14966,commdev-image-keyboard-response,493,1506980,learnblock2,587.9000000001397,img/planet11_right.png,11,Community 2,NA,TRUE,j,j,NA,NA,NA,2,6,"4,7,5,15,1,3,11,12,2,8,6,9,10,14,13"
14966,commdev-image-keyboard-response,494,1508233,learnblock2,661.5999999998603,img/planet12_left.png,12,Community 2,NA,TRUE,f,f,NA,NA,NA,2,6,"4,7,5,15,1,3,11,12,2,8,6,9,10,14,13"
14966,commdev-image-keyboard-response,495,1509486,learnblock2,781,img/planet11_right.png,11,Community 2,NA,TRUE,j,j,NA,NA,NA,2,6,"4,7,5,15,1,3,11,12,2,8,6,9,10,14,13"
14966,commdev-image-keyboard-response,496,1510738,learnblock2,619.3000000000466,img/planet12_left.png,12,Community 2,NA,FALSE,j,f,NA,NA,NA,2,6,"4,7,5,15,1,3,11,12,2,8,6,9,10,14,13"
14966,commdev-image-keyboard-response,497,1511991,learnblock2,674.6000000000931,img/planet2_left.png,2,Community 2,NA,TRUE,f,f,NA,NA,NA,2,6,"4,7,5,15,1,3,11,12,2,8,6,9,10,14,13"
14966,commdev-image-keyboard-response,498,1513243,learnblock2,675.6000000000931,img/planet11_left.png,11,Community 2,NA,TRUE,f,f,NA,NA,NA,2,6,"4,7,5,15,1,3,11,12,2,8,6,9,10,14,13"
14966,commdev-image-keyboard-response,499,1514496,learnblock2,640.8999999999069,img/planet3_right.png,3,Community 2,NA,TRUE,j,j,NA,NA,NA,2,6,"4,7,5,15,1,3,11,12,2,8,6,9,10,14,13"
14966,commdev-image-keyboard-response,500,1515749,learnblock2,699.6999999999534,img/planet2_right.png,2,Community 2,NA,TRUE,j,j,NA,NA,NA,2,6,"4,7,5,15,1,3,11,12,2,8,6,9,10,14,13"
14966,commdev-image-keyboard-response,501,1517002,learnblock2,822.3000000000466,img/planet3_right.png,3,Community 2,NA,TRUE,j,j,NA,NA,NA,2,6,"4,7,5,15,1,3,11,12,2,8,6,9,10,14,13"
14966,commdev-image-keyboard-response,502,1518254,learnblock2,735.1000000000931,img/planet8_left.png,8,Community 2,NA,TRUE,f,f,NA,NA,NA,2,6,"4,7,5,15,1,3,11,12,2,8,6,9,10,14,13"
14966,commdev-image-keyboard-response,503,1519507,learnblock2,618.6000000000931,img/planet2_right.png,2,Community 2,NA,TRUE,j,j,NA,NA,NA,2,6,"4,7,5,15,1,3,11,12,2,8,6,9,10,14,13"
14966,commdev-image-keyboard-response,504,1520759,learnblock2,856.5,img/planet11_right.png,11,Community 2,NA,TRUE,j,j,NA,NA,NA,2,6,"4,7,5,15,1,3,11,12,2,8,6,9,10,14,13"
14966,commdev-image-keyboard-response,505,1522012,learnblock2,606.8000000000466,img/planet2_left.png,2,Community 2,NA,FALSE,j,f,NA,NA,NA,2,6,"4,7,5,15,1,3,11,12,2,8,6,9,10,14,13"
14966,commdev-image-keyboard-response,506,1523264,learnblock2,537.6000000000931,img/planet11_right.png,11,Community 2,NA,TRUE,j,j,NA,NA,NA,2,6,"4,7,5,15,1,3,11,12,2,8,6,9,10,14,13"
14966,commdev-image-keyboard-response,507,1524518,learnblock2,593.8000000000466,img/planet12_right.png,12,Community 2,NA,TRUE,j,j,NA,NA,NA,2,6,"4,7,5,15,1,3,11,12,2,8,6,9,10,14,13"
14966,commdev-image-keyboard-response,508,1525770,learnblock2,673.2000000001863,img/planet11_right.png,11,Community 2,NA,TRUE,j,j,NA,NA,NA,2,6,"4,7,5,15,1,3,11,12,2,8,6,9,10,14,13"
14966,commdev-image-keyboard-response,509,1527023,learnblock2,771.9000000001397,img/planet8_left.png,8,Community 2,NA,TRUE,f,f,NA,NA,NA,2,6,"4,7,5,15,1,3,11,12,2,8,6,9,10,14,13"
14966,commdev-image-keyboard-response,510,1528276,learnblock2,578.6999999999534,img/planet2_left.png,2,Community 2,NA,TRUE,f,f,NA,NA,NA,2,6,"4,7,5,15,1,3,11,12,2,8,6,9,10,14,13"
14966,commdev-image-keyboard-response,511,1529529,learnblock2,657.8000000000466,img/planet12_left.png,12,Community 2,NA,TRUE,f,f,NA,NA,NA,2,6,"4,7,5,15,1,3,11,12,2,8,6,9,10,14,13"
14966,commdev-image-keyboard-response,512,1530781,learnblock2,645.5,img/planet9_right.png,9,Community 3,NA,TRUE,j,j,NA,NA,NA,2,6,"4,7,5,15,1,3,11,12,2,8,6,9,10,14,13"
14966,commdev-image-keyboard-response,513,1532034,learnblock2,823.7000000001863,img/planet14_left.png,14,Community 3,NA,TRUE,f,f,NA,NA,NA,2,6,"4,7,5,15,1,3,11,12,2,8,6,9,10,14,13"
14966,commdev-image-keyboard-response,514,1533287,learnblock2,897.6999999999534,img/planet10_right.png,10,Community 3,NA,TRUE,j,j,NA,NA,NA,2,6,"4,7,5,15,1,3,11,12,2,8,6,9,10,14,13"
14966,commdev-image-keyboard-response,515,1534540,learnblock2,867.2999999998137,img/planet14_right.png,14,Community 3,NA,TRUE,j,j,NA,NA,NA,2,6,"4,7,5,15,1,3,11,12,2,8,6,9,10,14,13"
14966,commdev-image-keyboard-response,516,1535792,learnblock2,782.5,img/planet6_left.png,6,Community 3,NA,TRUE,f,f,NA,NA,NA,2,6,"4,7,5,15,1,3,11,12,2,8,6,9,10,14,13"
14966,commdev-image-keyboard-response,517,1537045,learnblock2,896.7000000001863,img/planet10_left.png,10,Community 3,NA,TRUE,f,f,NA,NA,NA,2,6,"4,7,5,15,1,3,11,12,2,8,6,9,10,14,13"
14966,commdev-image-keyboard-response,518,1538297,learnblock2,684.3999999999069,img/planet6_right.png,6,Community 3,NA,TRUE,j,j,NA,NA,NA,2,6,"4,7,5,15,1,3,11,12,2,8,6,9,10,14,13"
14966,commdev-image-keyboard-response,519,1539550,learnblock2,895.8000000000466,img/planet1_left.png,1,Community 1,NA,TRUE,f,f,NA,NA,NA,2,6,"4,7,5,15,1,3,11,12,2,8,6,9,10,14,13"
14966,commdev-image-keyboard-response,520,1540802,learnblock2,765.1999999999534,img/planet4_left.png,4,Community 1,NA,TRUE,f,f,NA,NA,NA,2,6,"4,7,5,15,1,3,11,12,2,8,6,9,10,14,13"
14966,commdev-image-keyboard-response,521,1542055,learnblock2,566.0999999998603,img/planet5_right.png,5,Community 1,NA,TRUE,j,j,NA,NA,NA,2,6,"4,7,5,15,1,3,11,12,2,8,6,9,10,14,13"
14966,commdev-image-keyboard-response,522,1543307,learnblock2,654.4000000001397,img/planet7_left.png,7,Community 1,NA,TRUE,f,f,NA,NA,NA,2,6,"4,7,5,15,1,3,11,12,2,8,6,9,10,14,13"
14966,commdev-image-keyboard-response,523,1544559,learnblock2,560.3000000000466,img/planet4_right.png,4,Community 1,NA,TRUE,j,j,NA,NA,NA,2,6,"4,7,5,15,1,3,11,12,2,8,6,9,10,14,13"
14966,commdev-image-keyboard-response,524,1545812,learnblock2,556.1000000000931,img/planet1_right.png,1,Community 1,NA,FALSE,f,j,NA,NA,NA,2,6,"4,7,5,15,1,3,11,12,2,8,6,9,10,14,13"
14966,commdev-image-keyboard-response,525,1547064,learnblock2,521.0999999998603,img/planet5_left.png,5,Community 1,NA,TRUE,f,f,NA,NA,NA,2,6,"4,7,5,15,1,3,11,12,2,8,6,9,10,14,13"
14966,commdev-image-keyboard-response,526,1548317,learnblock2,594.9000000001397,img/planet7_left.png,7,Community 1,NA,TRUE,f,f,NA,NA,NA,2,6,"4,7,5,15,1,3,11,12,2,8,6,9,10,14,13"
14966,commdev-image-keyboard-response,527,1549570,learnblock2,558.3000000000466,img/planet15_right.png,15,Community 1,NA,TRUE,j,j,NA,NA,NA,2,6,"4,7,5,15,1,3,11,12,2,8,6,9,10,14,13"
14966,commdev-image-keyboard-response,528,1550822,learnblock2,522,img/planet7_left.png,7,Community 1,NA,TRUE,f,f,NA,NA,NA,2,6,"4,7,5,15,1,3,11,12,2,8,6,9,10,14,13"
14966,commdev-image-keyboard-response,529,1552075,learnblock2,608.5,img/planet1_left.png,1,Community 1,NA,TRUE,f,f,NA,NA,NA,2,6,"4,7,5,15,1,3,11,12,2,8,6,9,10,14,13"
14966,commdev-image-keyboard-response,530,1553327,learnblock2,676.4000000001397,img/planet7_left.png,7,Community 1,NA,TRUE,f,f,NA,NA,NA,2,6,"4,7,5,15,1,3,11,12,2,8,6,9,10,14,13"
14966,commdev-image-keyboard-response,531,1554580,learnblock2,615.3000000000466,img/planet5_right.png,5,Community 1,NA,FALSE,f,j,NA,NA,NA,2,6,"4,7,5,15,1,3,11,12,2,8,6,9,10,14,13"
14966,commdev-image-keyboard-response,532,1555831,learnblock2,606.3000000000466,img/planet7_right.png,7,Community 1,NA,TRUE,j,j,NA,NA,NA,2,6,"4,7,5,15,1,3,11,12,2,8,6,9,10,14,13"
14966,commdev-image-keyboard-response,533,1557083,learnblock2,579.5999999998603,img/planet4_left.png,4,Community 1,NA,TRUE,f,f,NA,NA,NA,2,6,"4,7,5,15,1,3,11,12,2,8,6,9,10,14,13"
14966,commdev-image-keyboard-response,534,1558336,learnblock2,549.8000000000466,img/planet7_right.png,7,Community 1,NA,TRUE,j,j,NA,NA,NA,2,6,"4,7,5,15,1,3,11,12,2,8,6,9,10,14,13"
14966,commdev-image-keyboard-response,535,1559588,learnblock2,561.3999999999069,img/planet15_right.png,15,Community 1,NA,TRUE,j,j,NA,NA,NA,2,6,"4,7,5,15,1,3,11,12,2,8,6,9,10,14,13"
14966,commdev-image-keyboard-response,536,1560839,learnblock2,731.8000000000466,img/planet4_left.png,4,Community 1,NA,TRUE,f,f,NA,NA,NA,2,6,"4,7,5,15,1,3,11,12,2,8,6,9,10,14,13"
14966,commdev-image-keyboard-response,537,1562092,learnblock2,547.8000000000466,img/planet5_left.png,5,Community 1,NA,FALSE,j,f,NA,NA,NA,2,6,"4,7,5,15,1,3,11,12,2,8,6,9,10,14,13"
14966,commdev-image-keyboard-response,538,1563345,learnblock2,584.8000000000466,img/planet7_right.png,7,Community 1,NA,TRUE,j,j,NA,NA,NA,2,6,"4,7,5,15,1,3,11,12,2,8,6,9,10,14,13"
14966,commdev-image-keyboard-response,539,1564597,learnblock2,618,img/planet15_right.png,15,Community 1,NA,TRUE,j,j,NA,NA,NA,2,6,"4,7,5,15,1,3,11,12,2,8,6,9,10,14,13"
14966,commdev-image-keyboard-response,540,1565850,learnblock2,614.8999999999069,img/planet3_left.png,3,Community 2,NA,TRUE,f,f,NA,NA,NA,2,6,"4,7,5,15,1,3,11,12,2,8,6,9,10,14,13"
14966,commdev-image-keyboard-response,541,1567103,learnblock2,689.6999999999534,img/planet8_right.png,8,Community 2,NA,TRUE,j,j,NA,NA,NA,2,6,"4,7,5,15,1,3,11,12,2,8,6,9,10,14,13"
14966,commdev-image-keyboard-response,542,1568355,learnblock2,573.1000000000931,img/planet3_left.png,3,Community 2,NA,TRUE,f,f,NA,NA,NA,2,6,"4,7,5,15,1,3,11,12,2,8,6,9,10,14,13"
14966,commdev-image-keyboard-response,543,1569608,learnblock2,654.1000000000931,img/planet11_right.png,11,Community 2,NA,TRUE,j,j,NA,NA,NA,2,6,"4,7,5,15,1,3,11,12,2,8,6,9,10,14,13"
14966,commdev-image-keyboard-response,544,1570862,learnblock2,736.8000000000466,img/planet2_right.png,2,Community 2,NA,TRUE,j,j,NA,NA,NA,2,6,"4,7,5,15,1,3,11,12,2,8,6,9,10,14,13"
14966,commdev-image-keyboard-response,545,1572115,learnblock2,558.5,img/planet11_right.png,11,Community 2,NA,TRUE,j,j,NA,NA,NA,2,6,"4,7,5,15,1,3,11,12,2,8,6,9,10,14,13"
14966,commdev-image-keyboard-response,546,1573367,learnblock2,686,img/planet3_right.png,3,Community 2,NA,TRUE,j,j,NA,NA,NA,2,6,"4,7,5,15,1,3,11,12,2,8,6,9,10,14,13"
14966,commdev-image-keyboard-response,547,1574620,learnblock2,982,img/planet11_right.png,11,Community 2,NA,TRUE,j,j,NA,NA,NA,2,6,"4,7,5,15,1,3,11,12,2,8,6,9,10,14,13"
14966,commdev-image-keyboard-response,548,1575872,learnblock2,751.6999999999534,img/planet8_right.png,8,Community 2,NA,TRUE,j,j,NA,NA,NA,2,6,"4,7,5,15,1,3,11,12,2,8,6,9,10,14,13"
14966,commdev-image-keyboard-response,549,1577125,learnblock2,631.5999999998603,img/planet12_right.png,12,Community 2,NA,TRUE,j,j,NA,NA,NA,2,6,"4,7,5,15,1,3,11,12,2,8,6,9,10,14,13"
14966,commdev-image-keyboard-response,550,1578377,learnblock2,665.8000000000466,img/planet2_left.png,2,Community 2,NA,TRUE,f,f,NA,NA,NA,2,6,"4,7,5,15,1,3,11,12,2,8,6,9,10,14,13"
14966,commdev-image-keyboard-response,551,1579630,learnblock2,613.9000000001397,img/planet11_left.png,11,Community 2,NA,TRUE,f,f,NA,NA,NA,2,6,"4,7,5,15,1,3,11,12,2,8,6,9,10,14,13"
14966,commdev-image-keyboard-response,552,1580882,learnblock2,558.4000000001397,img/planet3_right.png,3,Community 2,NA,TRUE,j,j,NA,NA,NA,2,6,"4,7,5,15,1,3,11,12,2,8,6,9,10,14,13"
14966,commdev-image-keyboard-response,553,1582135,learnblock2,651.6000000000931,img/planet2_right.png,2,Community 2,NA,FALSE,f,j,NA,NA,NA,2,6,"4,7,5,15,1,3,11,12,2,8,6,9,10,14,13"
14966,commdev-image-keyboard-response,554,1583388,learnblock2,696.1999999999534,img/planet8_left.png,8,Community 2,NA,TRUE,f,f,NA,NA,NA,2,6,"4,7,5,15,1,3,11,12,2,8,6,9,10,14,13"
14966,commdev-image-keyboard-response,555,1584641,learnblock2,832.6999999999534,img/planet11_right.png,11,Community 2,NA,TRUE,j,j,NA,NA,NA,2,6,"4,7,5,15,1,3,11,12,2,8,6,9,10,14,13"
14966,commdev-image-keyboard-response,556,1585893,learnblock2,785.3000000000466,img/planet2_left.png,2,Community 2,NA,TRUE,f,f,NA,NA,NA,2,6,"4,7,5,15,1,3,11,12,2,8,6,9,10,14,13"
14966,commdev-image-keyboard-response,557,1587146,learnblock2,null,img/planet12_right.png,12,Community 2,NA,FALSE,null,j,NA,NA,NA,2,6,"4,7,5,15,1,3,11,12,2,8,6,9,10,14,13"
14966,commdev-image-keyboard-response,558,1588398,learnblock2,925.5,img/planet8_right.png,8,Community 2,NA,TRUE,j,j,NA,NA,NA,2,6,"4,7,5,15,1,3,11,12,2,8,6,9,10,14,13"
14966,commdev-image-keyboard-response,559,1589650,learnblock2,579.9000000001397,img/planet3_left.png,3,Community 2,NA,TRUE,f,f,NA,NA,NA,2,6,"4,7,5,15,1,3,11,12,2,8,6,9,10,14,13"
14966,commdev-image-keyboard-response,560,1590903,learnblock2,523,img/planet11_right.png,11,Community 2,NA,TRUE,j,j,NA,NA,NA,2,6,"4,7,5,15,1,3,11,12,2,8,6,9,10,14,13"
14966,commdev-image-keyboard-response,561,1592156,learnblock2,478.30000000004657,img/planet8_left.png,8,Community 2,NA,FALSE,j,f,NA,NA,NA,2,6,"4,7,5,15,1,3,11,12,2,8,6,9,10,14,13"
14966,commdev-image-keyboard-response,562,1593409,learnblock2,644.8000000000466,img/planet11_right.png,11,Community 2,NA,TRUE,j,j,NA,NA,NA,2,6,"4,7,5,15,1,3,11,12,2,8,6,9,10,14,13"
14966,commdev-image-keyboard-response,563,1594661,learnblock2,605.5,img/planet3_right.png,3,Community 2,NA,TRUE,j,j,NA,NA,NA,2,6,"4,7,5,15,1,3,11,12,2,8,6,9,10,14,13"
14966,commdev-image-keyboard-response,564,1595914,learnblock2,496.69999999995343,img/planet2_left.png,2,Community 2,NA,TRUE,f,f,NA,NA,NA,2,6,"4,7,5,15,1,3,11,12,2,8,6,9,10,14,13"
14966,commdev-image-keyboard-response,565,1597166,learnblock2,527.6999999999534,img/planet12_right.png,12,Community 2,NA,TRUE,j,j,NA,NA,NA,2,6,"4,7,5,15,1,3,11,12,2,8,6,9,10,14,13"
14966,commdev-image-keyboard-response,566,1598419,learnblock2,806.8000000000466,img/planet8_left.png,8,Community 2,NA,TRUE,f,f,NA,NA,NA,2,6,"4,7,5,15,1,3,11,12,2,8,6,9,10,14,13"
14966,commdev-image-keyboard-response,567,1599672,learnblock2,1010.3999999999069,img/planet11_right.png,11,Community 2,NA,TRUE,j,j,NA,NA,NA,2,6,"4,7,5,15,1,3,11,12,2,8,6,9,10,14,13"
14966,commdev-image-keyboard-response,568,1600924,learnblock2,635.8999999999069,img/planet2_right.png,2,Community 2,NA,FALSE,f,j,NA,NA,NA,2,6,"4,7,5,15,1,3,11,12,2,8,6,9,10,14,13"
14966,commdev-image-keyboard-response,569,1602177,learnblock2,763.5,img/planet8_right.png,8,Community 2,NA,TRUE,j,j,NA,NA,NA,2,6,"4,7,5,15,1,3,11,12,2,8,6,9,10,14,13"
14966,commdev-image-keyboard-response,570,1603429,learnblock2,683.3000000000466,img/planet3_right.png,3,Community 2,NA,TRUE,j,j,NA,NA,NA,2,6,"4,7,5,15,1,3,11,12,2,8,6,9,10,14,13"
14966,commdev-image-keyboard-response,571,1604682,learnblock2,658.0999999998603,img/planet11_right.png,11,Community 2,NA,TRUE,j,j,NA,NA,NA,2,6,"4,7,5,15,1,3,11,12,2,8,6,9,10,14,13"
14966,commdev-image-keyboard-response,572,1605934,learnblock2,658.8999999999069,img/planet12_right.png,12,Community 2,NA,FALSE,f,j,NA,NA,NA,2,6,"4,7,5,15,1,3,11,12,2,8,6,9,10,14,13"
14966,commdev-image-keyboard-response,573,1607187,learnblock2,681.5,img/planet2_right.png,2,Community 2,NA,TRUE,j,j,NA,NA,NA,2,6,"4,7,5,15,1,3,11,12,2,8,6,9,10,14,13"
14966,commdev-image-keyboard-response,574,1608440,learnblock2,597.8000000000466,img/planet11_right.png,11,Community 2,NA,TRUE,j,j,NA,NA,NA,2,6,"4,7,5,15,1,3,11,12,2,8,6,9,10,14,13"
14966,commdev-image-keyboard-response,575,1609693,learnblock2,703.1000000000931,img/planet8_left.png,8,Community 2,NA,TRUE,f,f,NA,NA,NA,2,6,"4,7,5,15,1,3,11,12,2,8,6,9,10,14,13"
14966,commdev-image-keyboard-response,576,1610945,learnblock2,520.5999999998603,img/planet11_right.png,11,Community 2,NA,TRUE,j,j,NA,NA,NA,2,6,"4,7,5,15,1,3,11,12,2,8,6,9,10,14,13"
14966,commdev-image-keyboard-response,577,1612198,learnblock2,605,img/planet2_left.png,2,Community 2,NA,TRUE,f,f,NA,NA,NA,2,6,"4,7,5,15,1,3,11,12,2,8,6,9,10,14,13"
14966,commdev-image-keyboard-response,578,1613451,learnblock2,612.6999999999534,img/planet8_left.png,8,Community 2,NA,TRUE,f,f,NA,NA,NA,2,6,"4,7,5,15,1,3,11,12,2,8,6,9,10,14,13"
14966,commdev-image-keyboard-response,579,1614703,learnblock2,651.0999999998603,img/planet2_left.png,2,Community 2,NA,TRUE,f,f,NA,NA,NA,2,6,"4,7,5,15,1,3,11,12,2,8,6,9,10,14,13"
14966,commdev-image-keyboard-response,580,1615954,learnblock2,538.4000000001397,img/planet11_right.png,11,Community 2,NA,TRUE,j,j,NA,NA,NA,2,6,"4,7,5,15,1,3,11,12,2,8,6,9,10,14,13"
14966,commdev-image-keyboard-response,581,1617207,learnblock2,721.3000000000466,img/planet3_left.png,3,Community 2,NA,TRUE,f,f,NA,NA,NA,2,6,"4,7,5,15,1,3,11,12,2,8,6,9,10,14,13"
14966,commdev-image-keyboard-response,582,1618460,learnblock2,563.2999999998137,img/planet15_right.png,15,Community 1,NA,TRUE,j,j,NA,NA,NA,2,6,"4,7,5,15,1,3,11,12,2,8,6,9,10,14,13"
14966,commdev-image-keyboard-response,583,1619713,learnblock2,606.5,img/planet5_right.png,5,Community 1,NA,TRUE,j,j,NA,NA,NA,2,6,"4,7,5,15,1,3,11,12,2,8,6,9,10,14,13"
14966,commdev-image-keyboard-response,584,1620965,learnblock2,619.6999999999534,img/planet1_right.png,1,Community 1,NA,TRUE,j,j,NA,NA,NA,2,6,"4,7,5,15,1,3,11,12,2,8,6,9,10,14,13"
14966,commdev-image-keyboard-response,585,1622218,learnblock2,661.3999999999069,img/planet6_right.png,6,Community 3,NA,TRUE,j,j,NA,NA,NA,2,6,"4,7,5,15,1,3,11,12,2,8,6,9,10,14,13"
14966,commdev-image-keyboard-response,586,1623470,learnblock2,582.5,img/planet14_right.png,14,Community 3,NA,TRUE,j,j,NA,NA,NA,2,6,"4,7,5,15,1,3,11,12,2,8,6,9,10,14,13"
14966,commdev-image-keyboard-response,587,1624723,learnblock2,526.1000000000931,img/planet9_right.png,9,Community 3,NA,TRUE,j,j,NA,NA,NA,2,6,"4,7,5,15,1,3,11,12,2,8,6,9,10,14,13"
14966,commdev-image-keyboard-response,588,1625976,learnblock2,579.7000000001863,img/planet12_right.png,12,Community 2,NA,TRUE,j,j,NA,NA,NA,2,6,"4,7,5,15,1,3,11,12,2,8,6,9,10,14,13"
14966,commdev-image-keyboard-response,589,1627229,learnblock2,489.39999999990687,img/planet8_right.png,8,Community 2,NA,TRUE,j,j,NA,NA,NA,2,6,"4,7,5,15,1,3,11,12,2,8,6,9,10,14,13"
14966,commdev-image-keyboard-response,590,1628481,learnblock2,445.5,img/planet2_left.png,2,Community 2,NA,TRUE,f,f,NA,NA,NA,2,6,"4,7,5,15,1,3,11,12,2,8,6,9,10,14,13"
14966,commdev-image-keyboard-response,591,1629734,learnblock2,565.9000000001397,img/planet8_right.png,8,Community 2,NA,TRUE,j,j,NA,NA,NA,2,6,"4,7,5,15,1,3,11,12,2,8,6,9,10,14,13"
14966,commdev-image-keyboard-response,592,1630987,learnblock2,723.6000000000931,img/planet11_right.png,11,Community 2,NA,TRUE,j,j,NA,NA,NA,2,6,"4,7,5,15,1,3,11,12,2,8,6,9,10,14,13"
14966,commdev-image-keyboard-response,593,1632239,learnblock2,1008.4000000001397,img/planet8_left.png,8,Community 2,NA,TRUE,f,f,NA,NA,NA,2,6,"4,7,5,15,1,3,11,12,2,8,6,9,10,14,13"
14966,commdev-image-keyboard-response,594,1633492,learnblock2,593,img/planet11_left.png,11,Community 2,NA,FALSE,j,f,NA,NA,NA,2,6,"4,7,5,15,1,3,11,12,2,8,6,9,10,14,13"
14966,commdev-image-keyboard-response,595,1634744,learnblock2,633.3000000000466,img/planet3_left.png,3,Community 2,NA,TRUE,f,f,NA,NA,NA,2,6,"4,7,5,15,1,3,11,12,2,8,6,9,10,14,13"
14966,commdev-image-keyboard-response,596,1635997,learnblock2,693.5999999998603,img/planet11_right.png,11,Community 2,NA,TRUE,j,j,NA,NA,NA,2,6,"4,7,5,15,1,3,11,12,2,8,6,9,10,14,13"
14966,commdev-image-keyboard-response,597,1637249,learnblock2,602.1999999999534,img/planet12_left.png,12,Community 2,NA,TRUE,f,f,NA,NA,NA,2,6,"4,7,5,15,1,3,11,12,2,8,6,9,10,14,13"
14966,commdev-image-keyboard-response,598,1638502,learnblock2,552.5999999998603,img/planet2_right.png,2,Community 2,NA,TRUE,j,j,NA,NA,NA,2,6,"4,7,5,15,1,3,11,12,2,8,6,9,10,14,13"
14966,commdev-image-keyboard-response,599,1639753,learnblock2,527,img/planet11_left.png,11,Community 2,NA,TRUE,f,f,NA,NA,NA,2,6,"4,7,5,15,1,3,11,12,2,8,6,9,10,14,13"
14966,commdev-image-keyboard-response,600,1641005,learnblock2,667.1000000000931,img/planet8_right.png,8,Community 2,NA,FALSE,f,j,NA,NA,NA,2,6,"4,7,5,15,1,3,11,12,2,8,6,9,10,14,13"
14966,commdev-image-keyboard-response,601,1642258,learnblock2,600,img/planet3_left.png,3,Community 2,NA,TRUE,f,f,NA,NA,NA,2,6,"4,7,5,15,1,3,11,12,2,8,6,9,10,14,13"
14966,commdev-image-keyboard-response,602,1643510,learnblock2,531.8000000000466,img/planet2_right.png,2,Community 2,NA,TRUE,j,j,NA,NA,NA,2,6,"4,7,5,15,1,3,11,12,2,8,6,9,10,14,13"
14966,commdev-image-keyboard-response,603,1644764,learnblock2,514.5,img/planet12_left.png,12,Community 2,NA,TRUE,f,f,NA,NA,NA,2,6,"4,7,5,15,1,3,11,12,2,8,6,9,10,14,13"
14966,commdev-image-keyboard-response,604,1646015,learnblock2,629,img/planet8_right.png,8,Community 2,NA,TRUE,j,j,NA,NA,NA,2,6,"4,7,5,15,1,3,11,12,2,8,6,9,10,14,13"
14966,commdev-image-keyboard-response,605,1647268,learnblock2,558.8000000000466,img/planet12_left.png,12,Community 2,NA,TRUE,f,f,NA,NA,NA,2,6,"4,7,5,15,1,3,11,12,2,8,6,9,10,14,13"
14966,commdev-image-keyboard-response,606,1648521,learnblock2,957.3000000000466,img/planet11_left.png,11,Community 2,NA,TRUE,f,f,NA,NA,NA,2,6,"4,7,5,15,1,3,11,12,2,8,6,9,10,14,13"
14966,commdev-image-keyboard-response,607,1649774,learnblock2,767.3000000000466,img/planet8_left.png,8,Community 2,NA,FALSE,j,f,NA,NA,NA,2,6,"4,7,5,15,1,3,11,12,2,8,6,9,10,14,13"
14966,commdev-image-keyboard-response,608,1651026,learnblock2,666.6000000000931,img/planet12_right.png,12,Community 2,NA,TRUE,j,j,NA,NA,NA,2,6,"4,7,5,15,1,3,11,12,2,8,6,9,10,14,13"
14966,commdev-image-keyboard-response,609,1652279,learnblock2,637.8000000000466,img/planet8_left.png,8,Community 2,NA,TRUE,f,f,NA,NA,NA,2,6,"4,7,5,15,1,3,11,12,2,8,6,9,10,14,13"
14966,commdev-image-keyboard-response,610,1653532,learnblock2,826.5999999998603,img/planet3_left.png,3,Community 2,NA,TRUE,f,f,NA,NA,NA,2,6,"4,7,5,15,1,3,11,12,2,8,6,9,10,14,13"
14966,commdev-image-keyboard-response,611,1654785,learnblock2,587.3999999999069,img/planet11_right.png,11,Community 2,NA,TRUE,j,j,NA,NA,NA,2,6,"4,7,5,15,1,3,11,12,2,8,6,9,10,14,13"
14966,commdev-image-keyboard-response,612,1656037,learnblock2,631.5999999998603,img/planet8_left.png,8,Community 2,NA,TRUE,f,f,NA,NA,NA,2,6,"4,7,5,15,1,3,11,12,2,8,6,9,10,14,13"
14966,commdev-image-keyboard-response,613,1657290,learnblock2,650.4000000001397,img/planet11_left.png,11,Community 2,NA,TRUE,f,f,NA,NA,NA,2,6,"4,7,5,15,1,3,11,12,2,8,6,9,10,14,13"
14966,commdev-image-keyboard-response,614,1658542,learnblock2,500.39999999990687,img/planet2_right.png,2,Community 2,NA,TRUE,j,j,NA,NA,NA,2,6,"4,7,5,15,1,3,11,12,2,8,6,9,10,14,13"
14966,commdev-image-keyboard-response,615,1659795,learnblock2,672.0999999998603,img/planet8_right.png,8,Community 2,NA,TRUE,j,j,NA,NA,NA,2,6,"4,7,5,15,1,3,11,12,2,8,6,9,10,14,13"
14966,commdev-image-keyboard-response,616,1661048,learnblock2,587.7000000001863,img/planet11_left.png,11,Community 2,NA,FALSE,j,f,NA,NA,NA,2,6,"4,7,5,15,1,3,11,12,2,8,6,9,10,14,13"
14966,commdev-image-keyboard-response,617,1662300,learnblock2,653.8000000000466,img/planet12_right.png,12,Community 2,NA,TRUE,j,j,NA,NA,NA,2,6,"4,7,5,15,1,3,11,12,2,8,6,9,10,14,13"
14966,commdev-image-keyboard-response,618,1663553,learnblock2,619.6999999999534,img/planet8_left.png,8,Community 2,NA,TRUE,f,f,NA,NA,NA,2,6,"4,7,5,15,1,3,11,12,2,8,6,9,10,14,13"
14966,commdev-image-keyboard-response,619,1664806,learnblock2,619.6000000000931,img/planet3_right.png,3,Community 2,NA,TRUE,j,j,NA,NA,NA,2,6,"4,7,5,15,1,3,11,12,2,8,6,9,10,14,13"
14966,commdev-image-keyboard-response,620,1666058,learnblock2,591.3999999999069,img/planet8_left.png,8,Community 2,NA,TRUE,f,f,NA,NA,NA,2,6,"4,7,5,15,1,3,11,12,2,8,6,9,10,14,13"
14966,commdev-image-keyboard-response,621,1667312,learnblock2,659.4000000001397,img/planet2_right.png,2,Community 2,NA,TRUE,j,j,NA,NA,NA,2,6,"4,7,5,15,1,3,11,12,2,8,6,9,10,14,13"
14966,commdev-image-keyboard-response,622,1668564,learnblock2,742.5,img/planet12_right.png,12,Community 2,NA,TRUE,j,j,NA,NA,NA,2,6,"4,7,5,15,1,3,11,12,2,8,6,9,10,14,13"
14966,commdev-image-keyboard-response,623,1669817,learnblock2,645.6000000000931,img/planet9_right.png,9,Community 3,NA,TRUE,j,j,NA,NA,NA,2,6,"4,7,5,15,1,3,11,12,2,8,6,9,10,14,13"
14966,commdev-image-keyboard-response,624,1671069,learnblock2,525.1999999999534,img/planet13_left.png,13,Community 3,NA,TRUE,f,f,NA,NA,NA,2,6,"4,7,5,15,1,3,11,12,2,8,6,9,10,14,13"
14966,commdev-image-keyboard-response,625,1672322,learnblock2,869.6999999999534,img/planet14_left.png,14,Community 3,NA,TRUE,f,f,NA,NA,NA,2,6,"4,7,5,15,1,3,11,12,2,8,6,9,10,14,13"
14966,commdev-image-keyboard-response,626,1673574,learnblock2,593.6000000000931,img/planet10_right.png,10,Community 3,NA,TRUE,j,j,NA,NA,NA,2,6,"4,7,5,15,1,3,11,12,2,8,6,9,10,14,13"
14966,commdev-image-keyboard-response,627,1674827,learnblock2,535,img/planet9_right.png,9,Community 3,NA,TRUE,j,j,NA,NA,NA,2,6,"4,7,5,15,1,3,11,12,2,8,6,9,10,14,13"
14966,commdev-image-keyboard-response,628,1676078,learnblock2,805.6999999999534,img/planet14_right.png,14,Community 3,NA,TRUE,j,j,NA,NA,NA,2,6,"4,7,5,15,1,3,11,12,2,8,6,9,10,14,13"
14966,commdev-image-keyboard-response,629,1677331,learnblock2,732.7999999998137,img/planet13_left.png,13,Community 3,NA,TRUE,f,f,NA,NA,NA,2,6,"4,7,5,15,1,3,11,12,2,8,6,9,10,14,13"
14966,commdev-image-keyboard-response,630,1678583,learnblock2,566.3000000000466,img/planet9_right.png,9,Community 3,NA,TRUE,j,j,NA,NA,NA,2,6,"4,7,5,15,1,3,11,12,2,8,6,9,10,14,13"
14966,commdev-image-keyboard-response,631,1679836,learnblock2,1013.1999999999534,img/planet12_right.png,12,Community 2,NA,TRUE,j,j,NA,NA,NA,2,6,"4,7,5,15,1,3,11,12,2,8,6,9,10,14,13"
14966,commdev-image-keyboard-response,632,1681088,learnblock2,573.3999999999069,img/planet11_left.png,11,Community 2,NA,TRUE,f,f,NA,NA,NA,2,6,"4,7,5,15,1,3,11,12,2,8,6,9,10,14,13"
14966,commdev-image-keyboard-response,633,1682341,learnblock2,608.5,img/planet8_left.png,8,Community 2,NA,TRUE,f,f,NA,NA,NA,2,6,"4,7,5,15,1,3,11,12,2,8,6,9,10,14,13"
14966,commdev-image-keyboard-response,634,1683594,learnblock2,562.9000000001397,img/planet2_left.png,2,Community 2,NA,FALSE,j,f,NA,NA,NA,2,6,"4,7,5,15,1,3,11,12,2,8,6,9,10,14,13"
14966,commdev-image-keyboard-response,635,1684846,learnblock2,695.7999999998137,img/planet8_left.png,8,Community 2,NA,TRUE,f,f,NA,NA,NA,2,6,"4,7,5,15,1,3,11,12,2,8,6,9,10,14,13"
14966,commdev-image-keyboard-response,636,1686099,learnblock2,570.5,img/planet12_left.png,12,Community 2,NA,TRUE,f,f,NA,NA,NA,2,6,"4,7,5,15,1,3,11,12,2,8,6,9,10,14,13"
14966,commdev-image-keyboard-response,637,1687351,learnblock2,631,img/planet2_left.png,2,Community 2,NA,FALSE,j,f,NA,NA,NA,2,6,"4,7,5,15,1,3,11,12,2,8,6,9,10,14,13"
14966,commdev-image-keyboard-response,638,1688604,learnblock2,666.0999999998603,img/planet12_left.png,12,Community 2,NA,TRUE,f,f,NA,NA,NA,2,6,"4,7,5,15,1,3,11,12,2,8,6,9,10,14,13"
14966,commdev-image-keyboard-response,639,1689856,learnblock2,918.5999999998603,img/planet2_left.png,2,Community 2,NA,TRUE,f,f,NA,NA,NA,2,6,"4,7,5,15,1,3,11,12,2,8,6,9,10,14,13"
14966,commdev-image-keyboard-response,640,1691109,learnblock2,614.5,img/planet8_left.png,8,Community 2,NA,TRUE,f,f,NA,NA,NA,2,6,"4,7,5,15,1,3,11,12,2,8,6,9,10,14,13"
14966,commdev-image-keyboard-response,641,1692361,learnblock2,536.6000000000931,img/planet12_right.png,12,Community 2,NA,TRUE,j,j,NA,NA,NA,2,6,"4,7,5,15,1,3,11,12,2,8,6,9,10,14,13"
14966,commdev-image-keyboard-response,642,1693614,learnblock2,586.8999999999069,img/planet8_left.png,8,Community 2,NA,TRUE,f,f,NA,NA,NA,2,6,"4,7,5,15,1,3,11,12,2,8,6,9,10,14,13"
14966,commdev-image-keyboard-response,643,1694867,learnblock2,561.3000000000466,img/planet12_left.png,12,Community 2,NA,TRUE,f,f,NA,NA,NA,2,6,"4,7,5,15,1,3,11,12,2,8,6,9,10,14,13"
14966,commdev-image-keyboard-response,644,1696119,learnblock2,525.6000000000931,img/planet2_right.png,2,Community 2,NA,TRUE,j,j,NA,NA,NA,2,6,"4,7,5,15,1,3,11,12,2,8,6,9,10,14,13"
14966,commdev-image-keyboard-response,645,1697372,learnblock2,703.4000000001397,img/planet11_right.png,11,Community 2,NA,TRUE,j,j,NA,NA,NA,2,6,"4,7,5,15,1,3,11,12,2,8,6,9,10,14,13"
14966,commdev-image-keyboard-response,646,1698625,learnblock2,834.4000000001397,img/planet12_right.png,12,Community 2,NA,FALSE,f,j,NA,NA,NA,2,6,"4,7,5,15,1,3,11,12,2,8,6,9,10,14,13"
14966,commdev-image-keyboard-response,647,1699877,learnblock2,596.8000000000466,img/planet8_right.png,8,Community 2,NA,TRUE,j,j,NA,NA,NA,2,6,"4,7,5,15,1,3,11,12,2,8,6,9,10,14,13"
14966,commdev-image-keyboard-response,648,1701130,learnblock2,551.7999999998137,img/planet12_right.png,12,Community 2,NA,TRUE,j,j,NA,NA,NA,2,6,"4,7,5,15,1,3,11,12,2,8,6,9,10,14,13"
14966,commdev-image-keyboard-response,649,1702382,learnblock2,633.6999999999534,img/planet8_right.png,8,Community 2,NA,TRUE,j,j,NA,NA,NA,2,6,"4,7,5,15,1,3,11,12,2,8,6,9,10,14,13"
14966,commdev-image-keyboard-response,650,1703635,learnblock2,495.5,img/planet12_right.png,12,Community 2,NA,TRUE,j,j,NA,NA,NA,2,6,"4,7,5,15,1,3,11,12,2,8,6,9,10,14,13"
14966,commdev-image-keyboard-response,651,1704888,learnblock2,429,img/planet11_right.png,11,Community 2,NA,TRUE,j,j,NA,NA,NA,2,6,"4,7,5,15,1,3,11,12,2,8,6,9,10,14,13"
14966,commdev-image-keyboard-response,652,1706140,learnblock2,562.2999999998137,img/planet2_left.png,2,Community 2,NA,TRUE,f,f,NA,NA,NA,2,6,"4,7,5,15,1,3,11,12,2,8,6,9,10,14,13"
14966,commdev-image-keyboard-response,653,1707393,learnblock2,570.6000000000931,img/planet12_left.png,12,Community 2,NA,TRUE,f,f,NA,NA,NA,2,6,"4,7,5,15,1,3,11,12,2,8,6,9,10,14,13"
14966,commdev-image-keyboard-response,654,1708645,learnblock2,437.5,img/planet2_right.png,2,Community 2,NA,TRUE,j,j,NA,NA,NA,2,6,"4,7,5,15,1,3,11,12,2,8,6,9,10,14,13"
14966,commdev-image-keyboard-response,655,1709897,learnblock2,631.8000000000466,img/planet3_right.png,3,Community 2,NA,TRUE,j,j,NA,NA,NA,2,6,"4,7,5,15,1,3,11,12,2,8,6,9,10,14,13"
14966,commdev-image-keyboard-response,656,1711150,learnblock2,681.1999999999534,img/planet15_left.png,15,Community 1,NA,TRUE,f,f,NA,NA,NA,2,6,"4,7,5,15,1,3,11,12,2,8,6,9,10,14,13"
14966,commdev-image-keyboard-response,657,1712402,learnblock2,695.1999999999534,img/planet3_left.png,3,Community 2,NA,TRUE,f,f,NA,NA,NA,2,6,"4,7,5,15,1,3,11,12,2,8,6,9,10,14,13"
14966,commdev-image-keyboard-response,658,1713655,learnblock2,704.6999999999534,img/planet11_left.png,11,Community 2,NA,TRUE,f,f,NA,NA,NA,2,6,"4,7,5,15,1,3,11,12,2,8,6,9,10,14,13"
14966,commdev-image-keyboard-response,659,1714908,learnblock2,714.4000000001397,img/planet3_right.png,3,Community 2,NA,TRUE,j,j,NA,NA,NA,2,6,"4,7,5,15,1,3,11,12,2,8,6,9,10,14,13"
14966,commdev-image-keyboard-response,660,1716160,learnblock2,643,img/planet2_left.png,2,Community 2,NA,TRUE,f,f,NA,NA,NA,2,6,"4,7,5,15,1,3,11,12,2,8,6,9,10,14,13"
14966,commdev-image-keyboard-response,661,1717413,learnblock2,659.4000000001397,img/planet11_left.png,11,Community 2,NA,TRUE,f,f,NA,NA,NA,2,6,"4,7,5,15,1,3,11,12,2,8,6,9,10,14,13"
14966,commdev-image-keyboard-response,662,1718665,learnblock2,566.1999999999534,img/planet12_left.png,12,Community 2,NA,TRUE,f,f,NA,NA,NA,2,6,"4,7,5,15,1,3,11,12,2,8,6,9,10,14,13"
14966,commdev-image-keyboard-response,663,1719918,learnblock2,833.2999999998137,img/planet8_left.png,8,Community 2,NA,TRUE,f,f,NA,NA,NA,2,6,"4,7,5,15,1,3,11,12,2,8,6,9,10,14,13"
14966,commdev-image-keyboard-response,664,1721171,learnblock2,660.8000000000466,img/planet11_right.png,11,Community 2,NA,TRUE,j,j,NA,NA,NA,2,6,"4,7,5,15,1,3,11,12,2,8,6,9,10,14,13"
14966,commdev-image-keyboard-response,665,1722424,learnblock2,599.8000000000466,img/planet2_right.png,2,Community 2,NA,TRUE,j,j,NA,NA,NA,2,6,"4,7,5,15,1,3,11,12,2,8,6,9,10,14,13"
14966,commdev-image-keyboard-response,666,1723676,learnblock2,580.9000000001397,img/planet3_left.png,3,Community 2,NA,FALSE,j,f,NA,NA,NA,2,6,"4,7,5,15,1,3,11,12,2,8,6,9,10,14,13"
14966,commdev-image-keyboard-response,667,1724929,learnblock2,635,img/planet2_right.png,2,Community 2,NA,TRUE,j,j,NA,NA,NA,2,6,"4,7,5,15,1,3,11,12,2,8,6,9,10,14,13"
14966,commdev-image-keyboard-response,668,1726182,learnblock2,572.8000000000466,img/planet11_right.png,11,Community 2,NA,TRUE,j,j,NA,NA,NA,2,6,"4,7,5,15,1,3,11,12,2,8,6,9,10,14,13"
14966,commdev-image-keyboard-response,669,1727435,learnblock2,770.5,img/planet12_right.png,12,Community 2,NA,TRUE,j,j,NA,NA,NA,2,6,"4,7,5,15,1,3,11,12,2,8,6,9,10,14,13"
14966,commdev-image-keyboard-response,670,1728686,learnblock2,619,img/planet8_right.png,8,Community 2,NA,TRUE,j,j,NA,NA,NA,2,6,"4,7,5,15,1,3,11,12,2,8,6,9,10,14,13"
14966,commdev-image-keyboard-response,671,1729939,learnblock2,754.3000000000466,img/planet11_left.png,11,Community 2,NA,TRUE,f,f,NA,NA,NA,2,6,"4,7,5,15,1,3,11,12,2,8,6,9,10,14,13"
14966,commdev-image-keyboard-response,672,1731191,learnblock2,696,img/planet2_right.png,2,Community 2,NA,TRUE,j,j,NA,NA,NA,2,6,"4,7,5,15,1,3,11,12,2,8,6,9,10,14,13"
14966,commdev-image-keyboard-response,673,1732443,learnblock2,527.9000000001397,img/planet11_left.png,11,Community 2,NA,TRUE,f,f,NA,NA,NA,2,6,"4,7,5,15,1,3,11,12,2,8,6,9,10,14,13"
14966,commdev-image-keyboard-response,674,1733696,learnblock2,658.1000000000931,img/planet8_right.png,8,Community 2,NA,TRUE,j,j,NA,NA,NA,2,6,"4,7,5,15,1,3,11,12,2,8,6,9,10,14,13"
14966,commdev-image-keyboard-response,675,1734947,learnblock2,570.5,img/planet2_right.png,2,Community 2,NA,TRUE,j,j,NA,NA,NA,2,6,"4,7,5,15,1,3,11,12,2,8,6,9,10,14,13"
14966,commdev-image-keyboard-response,676,1736200,learnblock2,542.6999999999534,img/planet3_right.png,3,Community 2,NA,TRUE,j,j,NA,NA,NA,2,6,"4,7,5,15,1,3,11,12,2,8,6,9,10,14,13"
14966,commdev-image-keyboard-response,677,1737453,learnblock2,500.80000000004657,img/planet2_left.png,2,Community 2,NA,FALSE,j,f,NA,NA,NA,2,6,"4,7,5,15,1,3,11,12,2,8,6,9,10,14,13"
14966,commdev-image-keyboard-response,678,1738706,learnblock2,null,img/planet3_left.png,3,Community 2,NA,FALSE,null,f,NA,NA,NA,2,6,"4,7,5,15,1,3,11,12,2,8,6,9,10,14,13"
14966,commdev-image-keyboard-response,679,1739958,learnblock2,34.199999999953434,img/planet2_right.png,2,Community 2,NA,FALSE,f,j,NA,NA,NA,2,6,"4,7,5,15,1,3,11,12,2,8,6,9,10,14,13"
14966,commdev-image-keyboard-response,680,1741211,learnblock2,626.6000000000931,img/planet11_left.png,11,Community 2,NA,TRUE,f,f,NA,NA,NA,2,6,"4,7,5,15,1,3,11,12,2,8,6,9,10,14,13"
