subject_id,trial_type,trial_index,time_elapsed,block,rt,stimulus,planet,community,response,correct,key_press,learning_correct_response,parse,init_locations,final_locations,browser_interactions,num_comp,planet_map
14984,commdev-instructions,7,29607,NA,907,"<p>In this game, you will be shown a 3x3 grid of patterns.</p> <p>The last one in the bottom right-hand corner, <strong>will be missing:</strong></p> <div style='width: 700px;'><div style='float: top;'><img style='width: 200px;' src='practice/p1_M1.png'></img><p class='small'>You need to select<strong> which of the four possible patterns </strong>along the bottom<strong> fits into the gap:</strong></p></div><div style='float: top;'><img style='width: 300px;' src='practice/p1_T1.png'></img></div><br>",NA,NA,NA,NA,NA,NA,NA,NA,NA,5,7,"15,12,14,1,2,4,13,10,6,3,8,7,11,9,5"
14984,commdev-instructions,8,50549,NA,398,"<p>Try to be as fast and as accurate as you can be.</p> <p>If you cannot solve the puzzle then you should guess - you will not be penalised for an incorrect answer.</p> <p>The task contains a shuffled mix of easy, medium and hard puzzles.</p> <p>You will have <strong>30 seconds</strong> to complete each puzzle.</p><br>",NA,NA,NA,NA,NA,NA,NA,NA,NA,5,7,"15,12,14,1,2,4,13,10,6,3,8,7,11,9,5"
14984,commdev-instructions,15,75039,NA,929,<p><strong>Success!</strong></p> <p>You seem to be getting the hang of this...</p> <p>Let's move on to the real trials.</p><br>,NA,NA,NA,NA,NA,NA,NA,NA,NA,5,7,"15,12,14,1,2,4,13,10,6,3,8,7,11,9,5"
14984,commdev-instructions,178,395724,NA,1203,"<p>In this game, you are a scientist on board a space shuttle. </p><p> On each mission, you will visit planets all across the universe.</p><img src=""img/controlroom.jpg"" width=300vw>",NA,NA,NA,NA,NA,NA,NA,NA,NA,5,7,"15,12,14,1,2,4,13,10,6,3,8,7,11,9,5"
14984,commdev-instructions,179,398329,NA,530,"<p>Here are a few planets you might see:</p><img src=""img/practice1.png"" width=200vw><img src=""img/practice2.png"" width=200vw><img src=""img/practice3.png"" width=200vw>",NA,NA,NA,NA,NA,NA,NA,NA,NA,5,7,"15,12,14,1,2,4,13,10,6,3,8,7,11,9,5"
14984,commdev-instructions,180,406153,NA,433,"<p>Your job as a scientist is to record which direction the winds are moving on each planet.</p><p>There are two types of wind directions:</p><img src=""img/practice1_left.png"" width=200vw><img src=""img/practice1_right.png"" width=200vw>",NA,NA,NA,NA,NA,NA,NA,NA,NA,5,7,"15,12,14,1,2,4,13,10,6,3,8,7,11,9,5"
14984,commdev-instructions,181,411838,NA,808,"<p>If the winds are moving this way, press the letter <strong>F</strong> on the keyboard as fast as you can.</p><img src=""img/leftwind.png"" width=250vw>",NA,NA,NA,NA,NA,NA,NA,NA,NA,5,7,"15,12,14,1,2,4,13,10,6,3,8,7,11,9,5"
14984,commdev-instructions,182,416881,NA,550,"<p>If the winds are moving this way, press the letter <strong>J</strong> on the keyboard as fast as you can.</p><img src=""img/rightwind.png"" width=350vw>",NA,NA,NA,NA,NA,NA,NA,NA,NA,5,7,"15,12,14,1,2,4,13,10,6,3,8,7,11,9,5"
14984,commdev-instructions,183,421732,NA,432,<p>You will have 1 second to respond. Try to respond before the time runs out!,NA,NA,NA,NA,NA,NA,NA,NA,NA,5,7,"15,12,14,1,2,4,13,10,6,3,8,7,11,9,5"
14984,commdev-instructions,184,428880,NA,1720,<p>The planets you will visit will look different from each other.</p><p>You should respond <strong>only</strong> based on wind direction.,NA,NA,NA,NA,NA,NA,NA,NA,NA,5,7,"15,12,14,1,2,4,13,10,6,3,8,7,11,9,5"
14984,commdev-instructions,185,436161,NA,2110,"<p> Ready to start the practice round? </p><p> Remember, press <strong>F</strong> or <strong>J</strong> depending on the wind direction.<br><img src=""img/categorize_planet_example.png""",NA,NA,NA,NA,NA,NA,NA,NA,NA,5,7,"15,12,14,1,2,4,13,10,6,3,8,7,11,9,5"
14984,commdev-instructions,197,486164,NA,1633,"<p>Great, now try a short practice mission. </p><p> This time, you will have 1 second to respond and you won't know whether you pressed the right or wrong key for each planet.</p>",NA,NA,NA,NA,NA,NA,NA,NA,NA,5,7,"15,12,14,1,2,4,13,10,6,3,8,7,11,9,5"
14984,commdev-image-keyboard-response,198,487517,practice,972,img/practice3_right.png,NA,Number not found in mappings,NA,TRUE,j,j,NA,NA,NA,5,7,"15,12,14,1,2,4,13,10,6,3,8,7,11,9,5"
14984,commdev-image-keyboard-response,199,488780,practice,707,img/practice1_right.png,NA,Number not found in mappings,NA,TRUE,j,j,NA,NA,NA,5,7,"15,12,14,1,2,4,13,10,6,3,8,7,11,9,5"
14984,commdev-image-keyboard-response,200,490042,practice,731,img/practice2_left.png,NA,Number not found in mappings,NA,TRUE,f,f,NA,NA,NA,5,7,"15,12,14,1,2,4,13,10,6,3,8,7,11,9,5"
14984,commdev-image-keyboard-response,201,491302,practice,520,img/practice1_left.png,NA,Number not found in mappings,NA,TRUE,f,f,NA,NA,NA,5,7,"15,12,14,1,2,4,13,10,6,3,8,7,11,9,5"
14984,commdev-image-keyboard-response,202,492565,practice,577,img/practice3_right.png,NA,Number not found in mappings,NA,TRUE,j,j,NA,NA,NA,5,7,"15,12,14,1,2,4,13,10,6,3,8,7,11,9,5"
14984,commdev-image-keyboard-response,203,493827,practice,540,img/practice4_right.png,NA,Number not found in mappings,NA,TRUE,j,j,NA,NA,NA,5,7,"15,12,14,1,2,4,13,10,6,3,8,7,11,9,5"
14984,commdev-image-keyboard-response,204,495082,practice,435,img/practice1_left.png,NA,Number not found in mappings,NA,TRUE,f,f,NA,NA,NA,5,7,"15,12,14,1,2,4,13,10,6,3,8,7,11,9,5"
14984,commdev-image-keyboard-response,205,496343,practice,605,img/practice4_right.png,NA,Number not found in mappings,NA,TRUE,j,j,NA,NA,NA,5,7,"15,12,14,1,2,4,13,10,6,3,8,7,11,9,5"
14984,commdev-instructions,206,506741,NA,840,"<p>Great job with the practice round.</p><p>During real missions, you won't know whether you pressed the right or wrong key for each planet.</p><p>But between missions, we will tell you how you did overall.</p>",NA,NA,NA,NA,NA,NA,NA,NA,NA,5,7,"15,12,14,1,2,4,13,10,6,3,8,7,11,9,5"
14984,commdev-instructions,207,518034,NA,3054,<p>Try your best! You will be paid a bonus based on how many correct responses you make!</p><p>Responses that are too slow will not count toward your bonus.</p>,NA,NA,NA,NA,NA,NA,NA,NA,NA,5,7,"15,12,14,1,2,4,13,10,6,3,8,7,11,9,5"
14984,commdev-instructions,208,526735,NA,2505,"<p>You are almost ready to start the real game.</p><p> First, we are going to ask you some questions about how the game works.</p>",NA,NA,NA,NA,NA,NA,NA,NA,NA,5,7,"15,12,14,1,2,4,13,10,6,3,8,7,11,9,5"
14984,commdev-instructions,216,566914,NA,2005,<p> <b>That's right! </b> You should press either <strong>F</strong> or <strong>J</strong> depending on the wind direction. </p>,NA,NA,NA,NA,NA,NA,NA,NA,NA,5,7,"15,12,14,1,2,4,13,10,6,3,8,7,11,9,5"
14984,commdev-image-keyboard-response,218,584819,learnblock1,null,img/planet12_left.png,12,Community 1,NA,FALSE,null,f,NA,NA,NA,5,7,"15,12,14,1,2,4,13,10,6,3,8,7,11,9,5"
14984,commdev-image-keyboard-response,219,586070,learnblock1,244,img/planet14_left.png,14,Community 1,NA,TRUE,f,f,NA,NA,NA,5,7,"15,12,14,1,2,4,13,10,6,3,8,7,11,9,5"
14984,commdev-image-keyboard-response,220,587334,learnblock1,707,img/planet15_left.png,15,Community 1,NA,TRUE,f,f,NA,NA,NA,5,7,"15,12,14,1,2,4,13,10,6,3,8,7,11,9,5"
14984,commdev-image-keyboard-response,221,588592,learnblock1,null,img/planet1_right.png,1,Community 1,NA,FALSE,null,j,NA,NA,NA,5,7,"15,12,14,1,2,4,13,10,6,3,8,7,11,9,5"
14984,commdev-image-keyboard-response,222,589857,learnblock1,null,img/planet15_right.png,15,Community 1,NA,FALSE,null,j,NA,NA,NA,5,7,"15,12,14,1,2,4,13,10,6,3,8,7,11,9,5"
14984,commdev-image-keyboard-response,223,591117,learnblock1,null,img/planet2_right.png,2,Community 1,NA,FALSE,null,j,NA,NA,NA,5,7,"15,12,14,1,2,4,13,10,6,3,8,7,11,9,5"
14984,commdev-image-keyboard-response,224,592380,learnblock1,702,img/planet12_left.png,12,Community 1,NA,TRUE,f,f,NA,NA,NA,5,7,"15,12,14,1,2,4,13,10,6,3,8,7,11,9,5"
14984,commdev-image-keyboard-response,225,593642,learnblock1,null,img/planet15_right.png,15,Community 1,NA,FALSE,null,j,NA,NA,NA,5,7,"15,12,14,1,2,4,13,10,6,3,8,7,11,9,5"
14984,commdev-image-keyboard-response,226,594905,learnblock1,653,img/planet12_left.png,12,Community 1,NA,TRUE,f,f,NA,NA,NA,5,7,"15,12,14,1,2,4,13,10,6,3,8,7,11,9,5"
14984,commdev-image-keyboard-response,227,596169,learnblock1,575,img/planet1_left.png,1,Community 1,NA,TRUE,f,f,NA,NA,NA,5,7,"15,12,14,1,2,4,13,10,6,3,8,7,11,9,5"
14984,commdev-image-keyboard-response,228,597431,learnblock1,473,img/planet15_left.png,15,Community 1,NA,TRUE,f,f,NA,NA,NA,5,7,"15,12,14,1,2,4,13,10,6,3,8,7,11,9,5"
14984,commdev-image-keyboard-response,229,598684,learnblock1,591,img/planet14_left.png,14,Community 1,NA,TRUE,f,f,NA,NA,NA,5,7,"15,12,14,1,2,4,13,10,6,3,8,7,11,9,5"
14984,commdev-image-keyboard-response,230,599936,learnblock1,566,img/planet1_left.png,1,Community 1,NA,TRUE,f,f,NA,NA,NA,5,7,"15,12,14,1,2,4,13,10,6,3,8,7,11,9,5"
14984,commdev-image-keyboard-response,231,601196,learnblock1,null,img/planet14_left.png,14,Community 1,NA,FALSE,null,f,NA,NA,NA,5,7,"15,12,14,1,2,4,13,10,6,3,8,7,11,9,5"
14984,commdev-image-keyboard-response,232,602458,learnblock1,null,img/planet12_left.png,12,Community 1,NA,FALSE,null,f,NA,NA,NA,5,7,"15,12,14,1,2,4,13,10,6,3,8,7,11,9,5"
14984,commdev-image-keyboard-response,233,603718,learnblock1,null,img/planet2_right.png,2,Community 1,NA,FALSE,null,j,NA,NA,NA,5,7,"15,12,14,1,2,4,13,10,6,3,8,7,11,9,5"
14984,commdev-image-keyboard-response,234,604978,learnblock1,null,img/planet15_right.png,15,Community 1,NA,FALSE,null,j,NA,NA,NA,5,7,"15,12,14,1,2,4,13,10,6,3,8,7,11,9,5"
14984,commdev-image-keyboard-response,235,606237,learnblock1,566,img/planet12_left.png,12,Community 1,NA,TRUE,f,f,NA,NA,NA,5,7,"15,12,14,1,2,4,13,10,6,3,8,7,11,9,5"
14984,commdev-image-keyboard-response,236,607498,learnblock1,470,img/planet1_right.png,1,Community 1,NA,FALSE,f,j,NA,NA,NA,5,7,"15,12,14,1,2,4,13,10,6,3,8,7,11,9,5"
14984,commdev-image-keyboard-response,237,608757,learnblock1,566,img/planet4_left.png,4,Community 2,NA,TRUE,f,f,NA,NA,NA,5,7,"15,12,14,1,2,4,13,10,6,3,8,7,11,9,5"
14984,commdev-image-keyboard-response,238,610021,learnblock1,null,img/planet3_right.png,3,Community 2,NA,FALSE,null,j,NA,NA,NA,5,7,"15,12,14,1,2,4,13,10,6,3,8,7,11,9,5"
14984,commdev-image-keyboard-response,239,611272,learnblock1,null,img/planet6_right.png,6,Community 2,NA,FALSE,null,j,NA,NA,NA,5,7,"15,12,14,1,2,4,13,10,6,3,8,7,11,9,5"
14984,commdev-image-keyboard-response,240,612522,learnblock1,null,img/planet4_right.png,4,Community 2,NA,FALSE,null,j,NA,NA,NA,5,7,"15,12,14,1,2,4,13,10,6,3,8,7,11,9,5"
14984,commdev-image-keyboard-response,241,613772,learnblock1,null,img/planet13_right.png,13,Community 2,NA,FALSE,null,j,NA,NA,NA,5,7,"15,12,14,1,2,4,13,10,6,3,8,7,11,9,5"
14984,commdev-image-keyboard-response,242,615023,learnblock1,null,img/planet10_right.png,10,Community 2,NA,FALSE,null,j,NA,NA,NA,5,7,"15,12,14,1,2,4,13,10,6,3,8,7,11,9,5"
14984,commdev-image-keyboard-response,243,616274,learnblock1,null,img/planet7_right.png,7,Community 3,NA,FALSE,null,j,NA,NA,NA,5,7,"15,12,14,1,2,4,13,10,6,3,8,7,11,9,5"
14984,commdev-image-keyboard-response,244,617525,learnblock1,null,img/planet10_right.png,10,Community 2,NA,FALSE,null,j,NA,NA,NA,5,7,"15,12,14,1,2,4,13,10,6,3,8,7,11,9,5"
14984,commdev-image-keyboard-response,245,618775,learnblock1,null,img/planet3_right.png,3,Community 2,NA,FALSE,null,j,NA,NA,NA,5,7,"15,12,14,1,2,4,13,10,6,3,8,7,11,9,5"
14984,commdev-image-keyboard-response,246,620026,learnblock1,null,img/planet4_right.png,4,Community 2,NA,FALSE,null,j,NA,NA,NA,5,7,"15,12,14,1,2,4,13,10,6,3,8,7,11,9,5"
14984,commdev-image-keyboard-response,247,621276,learnblock1,576,img/planet1_left.png,1,Community 1,NA,TRUE,f,f,NA,NA,NA,5,7,"15,12,14,1,2,4,13,10,6,3,8,7,11,9,5"
14984,commdev-image-keyboard-response,248,622530,learnblock1,595,img/planet12_left.png,12,Community 1,NA,TRUE,f,f,NA,NA,NA,5,7,"15,12,14,1,2,4,13,10,6,3,8,7,11,9,5"
14984,commdev-image-keyboard-response,249,623781,learnblock1,null,img/planet15_right.png,15,Community 1,NA,FALSE,null,j,NA,NA,NA,5,7,"15,12,14,1,2,4,13,10,6,3,8,7,11,9,5"
14984,commdev-image-keyboard-response,250,625031,learnblock1,null,img/planet14_right.png,14,Community 1,NA,FALSE,null,j,NA,NA,NA,5,7,"15,12,14,1,2,4,13,10,6,3,8,7,11,9,5"
14984,commdev-image-keyboard-response,251,626282,learnblock1,null,img/planet2_right.png,2,Community 1,NA,FALSE,null,j,NA,NA,NA,5,7,"15,12,14,1,2,4,13,10,6,3,8,7,11,9,5"
14984,commdev-image-keyboard-response,252,627533,learnblock1,null,img/planet15_right.png,15,Community 1,NA,FALSE,null,j,NA,NA,NA,5,7,"15,12,14,1,2,4,13,10,6,3,8,7,11,9,5"
14984,commdev-image-keyboard-response,253,628784,learnblock1,448,img/planet1_left.png,1,Community 1,NA,TRUE,f,f,NA,NA,NA,5,7,"15,12,14,1,2,4,13,10,6,3,8,7,11,9,5"
14984,commdev-image-keyboard-response,254,630034,learnblock1,null,img/planet15_right.png,15,Community 1,NA,FALSE,null,j,NA,NA,NA,5,7,"15,12,14,1,2,4,13,10,6,3,8,7,11,9,5"
14984,commdev-image-keyboard-response,255,631285,learnblock1,null,img/planet14_right.png,14,Community 1,NA,FALSE,null,j,NA,NA,NA,5,7,"15,12,14,1,2,4,13,10,6,3,8,7,11,9,5"
14984,commdev-image-keyboard-response,256,632550,learnblock1,463,img/planet2_left.png,2,Community 1,NA,TRUE,f,f,NA,NA,NA,5,7,"15,12,14,1,2,4,13,10,6,3,8,7,11,9,5"
14984,commdev-image-keyboard-response,257,633801,learnblock1,null,img/planet12_right.png,12,Community 1,NA,FALSE,null,j,NA,NA,NA,5,7,"15,12,14,1,2,4,13,10,6,3,8,7,11,9,5"
14984,commdev-image-keyboard-response,258,635052,learnblock1,null,img/planet2_right.png,2,Community 1,NA,FALSE,null,j,NA,NA,NA,5,7,"15,12,14,1,2,4,13,10,6,3,8,7,11,9,5"
14984,commdev-image-keyboard-response,259,636303,learnblock1,null,img/planet12_right.png,12,Community 1,NA,FALSE,null,j,NA,NA,NA,5,7,"15,12,14,1,2,4,13,10,6,3,8,7,11,9,5"
14984,commdev-image-keyboard-response,260,637554,learnblock1,612,img/planet1_left.png,1,Community 1,NA,TRUE,f,f,NA,NA,NA,5,7,"15,12,14,1,2,4,13,10,6,3,8,7,11,9,5"
14984,commdev-image-keyboard-response,261,638809,learnblock1,806,img/planet12_left.png,12,Community 1,NA,TRUE,f,f,NA,NA,NA,5,7,"15,12,14,1,2,4,13,10,6,3,8,7,11,9,5"
14984,commdev-image-keyboard-response,262,640060,learnblock1,579,img/planet2_left.png,2,Community 1,NA,TRUE,f,f,NA,NA,NA,5,7,"15,12,14,1,2,4,13,10,6,3,8,7,11,9,5"
14984,commdev-image-keyboard-response,263,641311,learnblock1,null,img/planet8_right.png,8,Community 3,NA,FALSE,null,j,NA,NA,NA,5,7,"15,12,14,1,2,4,13,10,6,3,8,7,11,9,5"
14984,commdev-image-keyboard-response,264,642562,learnblock1,null,img/planet5_right.png,5,Community 3,NA,FALSE,null,j,NA,NA,NA,5,7,"15,12,14,1,2,4,13,10,6,3,8,7,11,9,5"
14984,commdev-image-keyboard-response,265,643812,learnblock1,701,img/planet8_left.png,8,Community 3,NA,TRUE,f,f,NA,NA,NA,5,7,"15,12,14,1,2,4,13,10,6,3,8,7,11,9,5"
14984,commdev-image-keyboard-response,266,645062,learnblock1,590,img/planet11_left.png,11,Community 3,NA,TRUE,f,f,NA,NA,NA,5,7,"15,12,14,1,2,4,13,10,6,3,8,7,11,9,5"
14984,commdev-image-keyboard-response,267,646312,learnblock1,610,img/planet9_left.png,9,Community 3,NA,TRUE,f,f,NA,NA,NA,5,7,"15,12,14,1,2,4,13,10,6,3,8,7,11,9,5"
14984,commdev-image-keyboard-response,268,647563,learnblock1,null,img/planet8_right.png,8,Community 3,NA,FALSE,null,j,NA,NA,NA,5,7,"15,12,14,1,2,4,13,10,6,3,8,7,11,9,5"
14984,commdev-image-keyboard-response,269,648814,learnblock1,null,img/planet9_right.png,9,Community 3,NA,FALSE,null,j,NA,NA,NA,5,7,"15,12,14,1,2,4,13,10,6,3,8,7,11,9,5"
14984,commdev-image-keyboard-response,270,650065,learnblock1,429,img/planet11_left.png,11,Community 3,NA,TRUE,f,f,NA,NA,NA,5,7,"15,12,14,1,2,4,13,10,6,3,8,7,11,9,5"
14984,commdev-image-keyboard-response,271,651316,learnblock1,471,img/planet5_left.png,5,Community 3,NA,TRUE,f,f,NA,NA,NA,5,7,"15,12,14,1,2,4,13,10,6,3,8,7,11,9,5"
14984,commdev-image-keyboard-response,272,652566,learnblock1,null,img/planet7_right.png,7,Community 3,NA,FALSE,null,j,NA,NA,NA,5,7,"15,12,14,1,2,4,13,10,6,3,8,7,11,9,5"
14984,commdev-image-keyboard-response,273,653817,learnblock1,488,img/planet11_left.png,11,Community 3,NA,TRUE,f,f,NA,NA,NA,5,7,"15,12,14,1,2,4,13,10,6,3,8,7,11,9,5"
14984,commdev-image-keyboard-response,274,655068,learnblock1,660,img/planet9_left.png,9,Community 3,NA,TRUE,f,f,NA,NA,NA,5,7,"15,12,14,1,2,4,13,10,6,3,8,7,11,9,5"
14984,commdev-image-keyboard-response,275,656319,learnblock1,438,img/planet11_left.png,11,Community 3,NA,TRUE,f,f,NA,NA,NA,5,7,"15,12,14,1,2,4,13,10,6,3,8,7,11,9,5"
14984,commdev-image-keyboard-response,276,657570,learnblock1,null,img/planet5_right.png,5,Community 3,NA,FALSE,null,j,NA,NA,NA,5,7,"15,12,14,1,2,4,13,10,6,3,8,7,11,9,5"
14984,commdev-image-keyboard-response,277,658821,learnblock1,null,img/planet9_right.png,9,Community 3,NA,FALSE,null,j,NA,NA,NA,5,7,"15,12,14,1,2,4,13,10,6,3,8,7,11,9,5"
14984,commdev-image-keyboard-response,278,660071,learnblock1,562,img/planet5_left.png,5,Community 3,NA,TRUE,f,f,NA,NA,NA,5,7,"15,12,14,1,2,4,13,10,6,3,8,7,11,9,5"
14984,commdev-image-keyboard-response,279,661322,learnblock1,null,img/planet7_right.png,7,Community 3,NA,FALSE,null,j,NA,NA,NA,5,7,"15,12,14,1,2,4,13,10,6,3,8,7,11,9,5"
14984,commdev-image-keyboard-response,280,662573,learnblock1,null,img/planet5_right.png,5,Community 3,NA,FALSE,null,j,NA,NA,NA,5,7,"15,12,14,1,2,4,13,10,6,3,8,7,11,9,5"
14984,commdev-image-keyboard-response,281,663838,learnblock1,600,img/planet9_left.png,9,Community 3,NA,TRUE,f,f,NA,NA,NA,5,7,"15,12,14,1,2,4,13,10,6,3,8,7,11,9,5"
14984,commdev-image-keyboard-response,282,665089,learnblock1,779,img/planet8_left.png,8,Community 3,NA,TRUE,f,f,NA,NA,NA,5,7,"15,12,14,1,2,4,13,10,6,3,8,7,11,9,5"
14984,commdev-image-keyboard-response,283,666339,learnblock1,null,img/planet5_right.png,5,Community 3,NA,FALSE,null,j,NA,NA,NA,5,7,"15,12,14,1,2,4,13,10,6,3,8,7,11,9,5"
14984,commdev-image-keyboard-response,284,667590,learnblock1,536,img/planet7_left.png,7,Community 3,NA,TRUE,f,f,NA,NA,NA,5,7,"15,12,14,1,2,4,13,10,6,3,8,7,11,9,5"
14984,commdev-image-keyboard-response,285,668841,learnblock1,null,img/planet5_right.png,5,Community 3,NA,FALSE,null,j,NA,NA,NA,5,7,"15,12,14,1,2,4,13,10,6,3,8,7,11,9,5"
14984,commdev-image-keyboard-response,286,670091,learnblock1,null,img/planet11_right.png,11,Community 3,NA,FALSE,null,j,NA,NA,NA,5,7,"15,12,14,1,2,4,13,10,6,3,8,7,11,9,5"
14984,commdev-image-keyboard-response,287,671342,learnblock1,null,img/planet9_right.png,9,Community 3,NA,FALSE,null,j,NA,NA,NA,5,7,"15,12,14,1,2,4,13,10,6,3,8,7,11,9,5"
14984,commdev-image-keyboard-response,288,672593,learnblock1,946,img/planet5_left.png,5,Community 3,NA,TRUE,f,f,NA,NA,NA,5,7,"15,12,14,1,2,4,13,10,6,3,8,7,11,9,5"
14984,commdev-image-keyboard-response,289,673843,learnblock1,null,img/planet11_right.png,11,Community 3,NA,FALSE,null,j,NA,NA,NA,5,7,"15,12,14,1,2,4,13,10,6,3,8,7,11,9,5"
14984,commdev-image-keyboard-response,290,675095,learnblock1,658,img/planet8_left.png,8,Community 3,NA,TRUE,f,f,NA,NA,NA,5,7,"15,12,14,1,2,4,13,10,6,3,8,7,11,9,5"
14984,commdev-image-keyboard-response,291,676345,learnblock1,null,img/planet9_right.png,9,Community 3,NA,FALSE,null,j,NA,NA,NA,5,7,"15,12,14,1,2,4,13,10,6,3,8,7,11,9,5"
14984,commdev-image-keyboard-response,292,677595,learnblock1,null,img/planet8_right.png,8,Community 3,NA,FALSE,null,j,NA,NA,NA,5,7,"15,12,14,1,2,4,13,10,6,3,8,7,11,9,5"
14984,commdev-image-keyboard-response,293,678849,learnblock1,null,img/planet9_right.png,9,Community 3,NA,FALSE,null,j,NA,NA,NA,5,7,"15,12,14,1,2,4,13,10,6,3,8,7,11,9,5"
14984,commdev-image-keyboard-response,294,680099,learnblock1,472,img/planet11_left.png,11,Community 3,NA,TRUE,f,f,NA,NA,NA,5,7,"15,12,14,1,2,4,13,10,6,3,8,7,11,9,5"
14984,commdev-image-keyboard-response,295,681350,learnblock1,602,img/planet5_left.png,5,Community 3,NA,TRUE,f,f,NA,NA,NA,5,7,"15,12,14,1,2,4,13,10,6,3,8,7,11,9,5"
14984,commdev-image-keyboard-response,296,682601,learnblock1,null,img/planet7_right.png,7,Community 3,NA,FALSE,null,j,NA,NA,NA,5,7,"15,12,14,1,2,4,13,10,6,3,8,7,11,9,5"
14984,commdev-image-keyboard-response,297,683851,learnblock1,null,img/planet9_right.png,9,Community 3,NA,FALSE,null,j,NA,NA,NA,5,7,"15,12,14,1,2,4,13,10,6,3,8,7,11,9,5"
14984,commdev-image-keyboard-response,298,685101,learnblock1,468,img/planet5_left.png,5,Community 3,NA,TRUE,f,f,NA,NA,NA,5,7,"15,12,14,1,2,4,13,10,6,3,8,7,11,9,5"
14984,commdev-image-keyboard-response,299,686353,learnblock1,null,img/planet7_right.png,7,Community 3,NA,FALSE,null,j,NA,NA,NA,5,7,"15,12,14,1,2,4,13,10,6,3,8,7,11,9,5"
14984,commdev-image-keyboard-response,300,687603,learnblock1,null,img/planet9_right.png,9,Community 3,NA,FALSE,null,j,NA,NA,NA,5,7,"15,12,14,1,2,4,13,10,6,3,8,7,11,9,5"
14984,commdev-image-keyboard-response,301,688854,learnblock1,573,img/planet7_left.png,7,Community 3,NA,TRUE,f,f,NA,NA,NA,5,7,"15,12,14,1,2,4,13,10,6,3,8,7,11,9,5"
14984,commdev-image-keyboard-response,302,690104,learnblock1,null,img/planet10_right.png,10,Community 2,NA,FALSE,null,j,NA,NA,NA,5,7,"15,12,14,1,2,4,13,10,6,3,8,7,11,9,5"
14984,commdev-image-keyboard-response,303,691354,learnblock1,437,img/planet13_left.png,13,Community 2,NA,TRUE,f,f,NA,NA,NA,5,7,"15,12,14,1,2,4,13,10,6,3,8,7,11,9,5"
14984,commdev-image-keyboard-response,304,692604,learnblock1,null,img/planet6_right.png,6,Community 2,NA,FALSE,null,j,NA,NA,NA,5,7,"15,12,14,1,2,4,13,10,6,3,8,7,11,9,5"
14984,commdev-image-keyboard-response,305,693855,learnblock1,null,img/planet3_right.png,3,Community 2,NA,FALSE,null,j,NA,NA,NA,5,7,"15,12,14,1,2,4,13,10,6,3,8,7,11,9,5"
14984,commdev-image-keyboard-response,306,695105,learnblock1,null,img/planet13_right.png,13,Community 2,NA,FALSE,null,j,NA,NA,NA,5,7,"15,12,14,1,2,4,13,10,6,3,8,7,11,9,5"
14984,commdev-image-keyboard-response,307,696370,learnblock1,null,img/planet4_right.png,4,Community 2,NA,FALSE,null,j,NA,NA,NA,5,7,"15,12,14,1,2,4,13,10,6,3,8,7,11,9,5"
14984,commdev-image-keyboard-response,308,697621,learnblock1,null,img/planet6_right.png,6,Community 2,NA,FALSE,null,j,NA,NA,NA,5,7,"15,12,14,1,2,4,13,10,6,3,8,7,11,9,5"
14984,commdev-image-keyboard-response,309,698871,learnblock1,475,img/planet4_left.png,4,Community 2,NA,TRUE,f,f,NA,NA,NA,5,7,"15,12,14,1,2,4,13,10,6,3,8,7,11,9,5"
14984,commdev-image-keyboard-response,310,700121,learnblock1,497,img/planet1_left.png,1,Community 1,NA,TRUE,f,f,NA,NA,NA,5,7,"15,12,14,1,2,4,13,10,6,3,8,7,11,9,5"
14984,commdev-image-keyboard-response,311,701372,learnblock1,537,img/planet15_left.png,15,Community 1,NA,TRUE,f,f,NA,NA,NA,5,7,"15,12,14,1,2,4,13,10,6,3,8,7,11,9,5"
14984,commdev-image-keyboard-response,312,702623,learnblock1,492,img/planet14_left.png,14,Community 1,NA,TRUE,f,f,NA,NA,NA,5,7,"15,12,14,1,2,4,13,10,6,3,8,7,11,9,5"
14984,commdev-image-keyboard-response,313,703873,learnblock1,380,img/planet15_left.png,15,Community 1,NA,TRUE,f,f,NA,NA,NA,5,7,"15,12,14,1,2,4,13,10,6,3,8,7,11,9,5"
14984,commdev-image-keyboard-response,314,705123,learnblock1,null,img/planet12_right.png,12,Community 1,NA,FALSE,null,j,NA,NA,NA,5,7,"15,12,14,1,2,4,13,10,6,3,8,7,11,9,5"
14984,commdev-image-keyboard-response,315,706375,learnblock1,484,img/planet1_left.png,1,Community 1,NA,TRUE,f,f,NA,NA,NA,5,7,"15,12,14,1,2,4,13,10,6,3,8,7,11,9,5"
14984,commdev-image-keyboard-response,316,707625,learnblock1,null,img/planet15_right.png,15,Community 1,NA,FALSE,null,j,NA,NA,NA,5,7,"15,12,14,1,2,4,13,10,6,3,8,7,11,9,5"
14984,commdev-image-keyboard-response,317,708876,learnblock1,479,img/planet2_left.png,2,Community 1,NA,TRUE,f,f,NA,NA,NA,5,7,"15,12,14,1,2,4,13,10,6,3,8,7,11,9,5"
14984,commdev-image-keyboard-response,318,710127,learnblock1,521,img/planet12_left.png,12,Community 1,NA,TRUE,f,f,NA,NA,NA,5,7,"15,12,14,1,2,4,13,10,6,3,8,7,11,9,5"
14984,commdev-image-keyboard-response,319,711377,learnblock1,null,img/planet14_right.png,14,Community 1,NA,FALSE,null,j,NA,NA,NA,5,7,"15,12,14,1,2,4,13,10,6,3,8,7,11,9,5"
14984,commdev-image-keyboard-response,320,712628,learnblock1,559,img/planet1_left.png,1,Community 1,NA,TRUE,f,f,NA,NA,NA,5,7,"15,12,14,1,2,4,13,10,6,3,8,7,11,9,5"
14984,commdev-image-keyboard-response,321,713879,learnblock1,904,img/planet4_left.png,4,Community 2,NA,TRUE,f,f,NA,NA,NA,5,7,"15,12,14,1,2,4,13,10,6,3,8,7,11,9,5"
14984,commdev-image-keyboard-response,322,715129,learnblock1,null,img/planet1_right.png,1,Community 1,NA,FALSE,null,j,NA,NA,NA,5,7,"15,12,14,1,2,4,13,10,6,3,8,7,11,9,5"
14984,commdev-image-keyboard-response,323,716381,learnblock1,509,img/planet12_left.png,12,Community 1,NA,TRUE,f,f,NA,NA,NA,5,7,"15,12,14,1,2,4,13,10,6,3,8,7,11,9,5"
14984,commdev-image-keyboard-response,324,717631,learnblock1,null,img/planet2_right.png,2,Community 1,NA,FALSE,null,j,NA,NA,NA,5,7,"15,12,14,1,2,4,13,10,6,3,8,7,11,9,5"
14984,commdev-image-keyboard-response,325,718881,learnblock1,null,img/planet14_left.png,14,Community 1,NA,FALSE,null,f,NA,NA,NA,5,7,"15,12,14,1,2,4,13,10,6,3,8,7,11,9,5"
14984,commdev-image-keyboard-response,326,720133,learnblock1,null,img/planet15_right.png,15,Community 1,NA,FALSE,null,j,NA,NA,NA,5,7,"15,12,14,1,2,4,13,10,6,3,8,7,11,9,5"
14984,commdev-image-keyboard-response,327,721383,learnblock1,541,img/planet2_left.png,2,Community 1,NA,TRUE,f,f,NA,NA,NA,5,7,"15,12,14,1,2,4,13,10,6,3,8,7,11,9,5"
14984,commdev-image-keyboard-response,328,722634,learnblock1,581,img/planet14_left.png,14,Community 1,NA,TRUE,f,f,NA,NA,NA,5,7,"15,12,14,1,2,4,13,10,6,3,8,7,11,9,5"
14984,commdev-image-keyboard-response,329,723885,learnblock1,null,img/planet12_right.png,12,Community 1,NA,FALSE,null,j,NA,NA,NA,5,7,"15,12,14,1,2,4,13,10,6,3,8,7,11,9,5"
14984,commdev-image-keyboard-response,330,725135,learnblock1,532,img/planet2_right.png,2,Community 1,NA,FALSE,f,j,NA,NA,NA,5,7,"15,12,14,1,2,4,13,10,6,3,8,7,11,9,5"
14984,commdev-image-keyboard-response,331,726389,learnblock1,null,img/planet14_right.png,14,Community 1,NA,FALSE,null,j,NA,NA,NA,5,7,"15,12,14,1,2,4,13,10,6,3,8,7,11,9,5"
14984,commdev-image-keyboard-response,332,727639,learnblock1,708,img/planet12_left.png,12,Community 1,NA,TRUE,f,f,NA,NA,NA,5,7,"15,12,14,1,2,4,13,10,6,3,8,7,11,9,5"
14984,commdev-image-keyboard-response,333,728890,learnblock1,705,img/planet15_left.png,15,Community 1,NA,TRUE,f,f,NA,NA,NA,5,7,"15,12,14,1,2,4,13,10,6,3,8,7,11,9,5"
14984,commdev-image-keyboard-response,334,730141,learnblock1,null,img/planet2_right.png,2,Community 1,NA,FALSE,null,j,NA,NA,NA,5,7,"15,12,14,1,2,4,13,10,6,3,8,7,11,9,5"
14984,commdev-image-keyboard-response,335,731391,learnblock1,613,img/planet14_left.png,14,Community 1,NA,TRUE,f,f,NA,NA,NA,5,7,"15,12,14,1,2,4,13,10,6,3,8,7,11,9,5"
14984,commdev-image-keyboard-response,336,732642,learnblock1,null,img/planet2_left.png,2,Community 1,NA,FALSE,null,f,NA,NA,NA,5,7,"15,12,14,1,2,4,13,10,6,3,8,7,11,9,5"
14984,commdev-image-keyboard-response,337,733892,learnblock1,610,img/planet14_left.png,14,Community 1,NA,TRUE,f,f,NA,NA,NA,5,7,"15,12,14,1,2,4,13,10,6,3,8,7,11,9,5"
14984,commdev-image-keyboard-response,338,735142,learnblock1,434,img/planet2_left.png,2,Community 1,NA,TRUE,f,f,NA,NA,NA,5,7,"15,12,14,1,2,4,13,10,6,3,8,7,11,9,5"
14984,commdev-image-keyboard-response,339,736393,learnblock1,409,img/planet15_right.png,15,Community 1,NA,FALSE,f,j,NA,NA,NA,5,7,"15,12,14,1,2,4,13,10,6,3,8,7,11,9,5"
14984,commdev-image-keyboard-response,340,737644,learnblock1,null,img/planet12_right.png,12,Community 1,NA,FALSE,null,j,NA,NA,NA,5,7,"15,12,14,1,2,4,13,10,6,3,8,7,11,9,5"
14984,commdev-image-keyboard-response,341,738896,learnblock1,687,img/planet2_left.png,2,Community 1,NA,TRUE,f,f,NA,NA,NA,5,7,"15,12,14,1,2,4,13,10,6,3,8,7,11,9,5"
14984,commdev-image-keyboard-response,342,740146,learnblock1,null,img/planet15_right.png,15,Community 1,NA,FALSE,null,j,NA,NA,NA,5,7,"15,12,14,1,2,4,13,10,6,3,8,7,11,9,5"
14984,commdev-image-keyboard-response,343,741397,learnblock1,null,img/planet14_right.png,14,Community 1,NA,FALSE,null,j,NA,NA,NA,5,7,"15,12,14,1,2,4,13,10,6,3,8,7,11,9,5"
14984,commdev-image-keyboard-response,344,742651,learnblock1,null,img/planet15_right.png,15,Community 1,NA,FALSE,null,j,NA,NA,NA,5,7,"15,12,14,1,2,4,13,10,6,3,8,7,11,9,5"
14984,commdev-image-keyboard-response,345,743902,learnblock1,null,img/planet2_right.png,2,Community 1,NA,FALSE,null,j,NA,NA,NA,5,7,"15,12,14,1,2,4,13,10,6,3,8,7,11,9,5"
14984,commdev-image-keyboard-response,346,745152,learnblock1,628,img/planet8_left.png,8,Community 3,NA,TRUE,f,f,NA,NA,NA,5,7,"15,12,14,1,2,4,13,10,6,3,8,7,11,9,5"
14984,commdev-image-keyboard-response,347,746403,learnblock1,null,img/planet11_right.png,11,Community 3,NA,FALSE,null,j,NA,NA,NA,5,7,"15,12,14,1,2,4,13,10,6,3,8,7,11,9,5"
14984,commdev-image-keyboard-response,348,747654,learnblock1,null,img/planet8_right.png,8,Community 3,NA,FALSE,null,j,NA,NA,NA,5,7,"15,12,14,1,2,4,13,10,6,3,8,7,11,9,5"
14984,commdev-image-keyboard-response,349,748904,learnblock1,730,img/planet2_left.png,2,Community 1,NA,TRUE,f,f,NA,NA,NA,5,7,"15,12,14,1,2,4,13,10,6,3,8,7,11,9,5"
14984,commdev-image-keyboard-response,350,750154,learnblock1,null,img/planet12_left.png,12,Community 1,NA,FALSE,null,f,NA,NA,NA,5,7,"15,12,14,1,2,4,13,10,6,3,8,7,11,9,5"
14984,commdev-image-keyboard-response,351,751405,learnblock1,null,img/planet1_right.png,1,Community 1,NA,FALSE,null,j,NA,NA,NA,5,7,"15,12,14,1,2,4,13,10,6,3,8,7,11,9,5"
14984,commdev-image-keyboard-response,352,752655,learnblock1,null,img/planet12_right.png,12,Community 1,NA,FALSE,null,j,NA,NA,NA,5,7,"15,12,14,1,2,4,13,10,6,3,8,7,11,9,5"
14984,commdev-image-keyboard-response,353,753906,learnblock1,724,img/planet2_left.png,2,Community 1,NA,TRUE,f,f,NA,NA,NA,5,7,"15,12,14,1,2,4,13,10,6,3,8,7,11,9,5"
14984,commdev-image-keyboard-response,354,755156,learnblock1,700,img/planet8_left.png,8,Community 3,NA,TRUE,f,f,NA,NA,NA,5,7,"15,12,14,1,2,4,13,10,6,3,8,7,11,9,5"
14984,commdev-image-keyboard-response,355,756407,learnblock1,null,img/planet9_right.png,9,Community 3,NA,FALSE,null,j,NA,NA,NA,5,7,"15,12,14,1,2,4,13,10,6,3,8,7,11,9,5"
14984,commdev-image-keyboard-response,356,757658,learnblock1,null,img/planet5_right.png,5,Community 3,NA,FALSE,null,j,NA,NA,NA,5,7,"15,12,14,1,2,4,13,10,6,3,8,7,11,9,5"
14984,commdev-image-keyboard-response,357,758909,learnblock1,null,img/planet7_right.png,7,Community 3,NA,FALSE,null,j,NA,NA,NA,5,7,"15,12,14,1,2,4,13,10,6,3,8,7,11,9,5"
14984,commdev-image-keyboard-response,358,760159,learnblock1,864,img/planet5_left.png,5,Community 3,NA,TRUE,f,f,NA,NA,NA,5,7,"15,12,14,1,2,4,13,10,6,3,8,7,11,9,5"
14984,commdev-image-keyboard-response,359,761410,learnblock1,null,img/planet9_right.png,9,Community 3,NA,FALSE,null,j,NA,NA,NA,5,7,"15,12,14,1,2,4,13,10,6,3,8,7,11,9,5"
14984,commdev-image-keyboard-response,360,762661,learnblock1,599,img/planet8_left.png,8,Community 3,NA,TRUE,f,f,NA,NA,NA,5,7,"15,12,14,1,2,4,13,10,6,3,8,7,11,9,5"
14984,commdev-image-keyboard-response,361,763912,learnblock1,null,img/planet9_left.png,9,Community 3,NA,FALSE,null,f,NA,NA,NA,5,7,"15,12,14,1,2,4,13,10,6,3,8,7,11,9,5"
14984,commdev-image-keyboard-response,362,765162,learnblock1,660,img/planet7_left.png,7,Community 3,NA,TRUE,f,f,NA,NA,NA,5,7,"15,12,14,1,2,4,13,10,6,3,8,7,11,9,5"
14984,commdev-image-keyboard-response,363,766422,learnblock1,547,img/planet9_left.png,9,Community 3,NA,TRUE,f,f,NA,NA,NA,5,7,"15,12,14,1,2,4,13,10,6,3,8,7,11,9,5"
14984,commdev-image-keyboard-response,364,767674,learnblock1,471,img/planet5_left.png,5,Community 3,NA,TRUE,f,f,NA,NA,NA,5,7,"15,12,14,1,2,4,13,10,6,3,8,7,11,9,5"
14984,commdev-image-keyboard-response,365,768926,learnblock1,null,img/planet8_right.png,8,Community 3,NA,FALSE,null,j,NA,NA,NA,5,7,"15,12,14,1,2,4,13,10,6,3,8,7,11,9,5"
14984,commdev-image-keyboard-response,366,770177,learnblock1,507,img/planet11_left.png,11,Community 3,NA,TRUE,f,f,NA,NA,NA,5,7,"15,12,14,1,2,4,13,10,6,3,8,7,11,9,5"
14984,commdev-image-keyboard-response,367,771436,learnblock1,null,img/planet9_right.png,9,Community 3,NA,FALSE,null,j,NA,NA,NA,5,7,"15,12,14,1,2,4,13,10,6,3,8,7,11,9,5"
14984,commdev-image-keyboard-response,368,772687,learnblock1,null,img/planet7_right.png,7,Community 3,NA,FALSE,null,j,NA,NA,NA,5,7,"15,12,14,1,2,4,13,10,6,3,8,7,11,9,5"
14984,commdev-image-keyboard-response,369,773937,learnblock1,null,img/planet9_right.png,9,Community 3,NA,FALSE,null,j,NA,NA,NA,5,7,"15,12,14,1,2,4,13,10,6,3,8,7,11,9,5"
14984,commdev-image-keyboard-response,370,775188,learnblock1,643,img/planet11_left.png,11,Community 3,NA,TRUE,f,f,NA,NA,NA,5,7,"15,12,14,1,2,4,13,10,6,3,8,7,11,9,5"
14984,commdev-image-keyboard-response,371,776446,learnblock1,616,img/planet8_left.png,8,Community 3,NA,TRUE,f,f,NA,NA,NA,5,7,"15,12,14,1,2,4,13,10,6,3,8,7,11,9,5"
14984,commdev-image-keyboard-response,372,777696,learnblock1,null,img/planet5_right.png,5,Community 3,NA,FALSE,null,j,NA,NA,NA,5,7,"15,12,14,1,2,4,13,10,6,3,8,7,11,9,5"
14984,commdev-image-keyboard-response,373,778947,learnblock1,null,img/planet8_right.png,8,Community 3,NA,FALSE,null,j,NA,NA,NA,5,7,"15,12,14,1,2,4,13,10,6,3,8,7,11,9,5"
14984,commdev-image-keyboard-response,374,780198,learnblock1,626,img/planet5_left.png,5,Community 3,NA,TRUE,f,f,NA,NA,NA,5,7,"15,12,14,1,2,4,13,10,6,3,8,7,11,9,5"
14984,commdev-image-keyboard-response,375,781461,learnblock1,null,img/planet11_right.png,11,Community 3,NA,FALSE,null,j,NA,NA,NA,5,7,"15,12,14,1,2,4,13,10,6,3,8,7,11,9,5"
14984,commdev-image-keyboard-response,376,782725,learnblock1,545,img/planet8_left.png,8,Community 3,NA,TRUE,f,f,NA,NA,NA,5,7,"15,12,14,1,2,4,13,10,6,3,8,7,11,9,5"
14984,commdev-image-keyboard-response,377,783976,learnblock1,null,img/planet11_right.png,11,Community 3,NA,FALSE,null,j,NA,NA,NA,5,7,"15,12,14,1,2,4,13,10,6,3,8,7,11,9,5"
14984,commdev-image-keyboard-response,378,785236,learnblock1,831,img/planet8_left.png,8,Community 3,NA,TRUE,f,f,NA,NA,NA,5,7,"15,12,14,1,2,4,13,10,6,3,8,7,11,9,5"
14984,commdev-image-keyboard-response,379,786486,learnblock1,842,img/planet5_left.png,5,Community 3,NA,TRUE,f,f,NA,NA,NA,5,7,"15,12,14,1,2,4,13,10,6,3,8,7,11,9,5"
14984,commdev-image-keyboard-response,380,787736,learnblock1,null,img/planet8_right.png,8,Community 3,NA,FALSE,null,j,NA,NA,NA,5,7,"15,12,14,1,2,4,13,10,6,3,8,7,11,9,5"
14984,commdev-image-keyboard-response,381,788987,learnblock1,469,img/planet11_left.png,11,Community 3,NA,TRUE,f,f,NA,NA,NA,5,7,"15,12,14,1,2,4,13,10,6,3,8,7,11,9,5"
14984,commdev-image-keyboard-response,382,790237,learnblock1,576,img/planet7_left.png,7,Community 3,NA,TRUE,f,f,NA,NA,NA,5,7,"15,12,14,1,2,4,13,10,6,3,8,7,11,9,5"
14984,commdev-image-keyboard-response,383,791487,learnblock1,662,img/planet5_left.png,5,Community 3,NA,TRUE,f,f,NA,NA,NA,5,7,"15,12,14,1,2,4,13,10,6,3,8,7,11,9,5"
14984,commdev-image-keyboard-response,384,792738,learnblock1,549,img/planet8_left.png,8,Community 3,NA,TRUE,f,f,NA,NA,NA,5,7,"15,12,14,1,2,4,13,10,6,3,8,7,11,9,5"
14984,commdev-image-keyboard-response,385,793989,learnblock1,482,img/planet5_left.png,5,Community 3,NA,TRUE,f,f,NA,NA,NA,5,7,"15,12,14,1,2,4,13,10,6,3,8,7,11,9,5"
14984,commdev-image-keyboard-response,386,795239,learnblock1,523,img/planet7_left.png,7,Community 3,NA,TRUE,f,f,NA,NA,NA,5,7,"15,12,14,1,2,4,13,10,6,3,8,7,11,9,5"
14984,commdev-image-keyboard-response,387,796492,learnblock1,500,img/planet5_right.png,5,Community 3,NA,FALSE,f,j,NA,NA,NA,5,7,"15,12,14,1,2,4,13,10,6,3,8,7,11,9,5"
14984,commdev-image-keyboard-response,388,797743,learnblock1,null,img/planet9_right.png,9,Community 3,NA,FALSE,null,j,NA,NA,NA,5,7,"15,12,14,1,2,4,13,10,6,3,8,7,11,9,5"
14984,commdev-image-keyboard-response,389,798994,learnblock1,520,img/planet8_left.png,8,Community 3,NA,TRUE,f,f,NA,NA,NA,5,7,"15,12,14,1,2,4,13,10,6,3,8,7,11,9,5"
14984,commdev-image-keyboard-response,390,800245,learnblock1,null,img/planet9_right.png,9,Community 3,NA,FALSE,null,j,NA,NA,NA,5,7,"15,12,14,1,2,4,13,10,6,3,8,7,11,9,5"
14984,commdev-image-keyboard-response,391,801495,learnblock1,null,img/planet11_right.png,11,Community 3,NA,FALSE,null,j,NA,NA,NA,5,7,"15,12,14,1,2,4,13,10,6,3,8,7,11,9,5"
14984,commdev-image-keyboard-response,392,802746,learnblock1,491,img/planet5_left.png,5,Community 3,NA,TRUE,f,f,NA,NA,NA,5,7,"15,12,14,1,2,4,13,10,6,3,8,7,11,9,5"
14984,commdev-image-keyboard-response,393,803997,learnblock1,532,img/planet8_left.png,8,Community 3,NA,TRUE,f,f,NA,NA,NA,5,7,"15,12,14,1,2,4,13,10,6,3,8,7,11,9,5"
14984,commdev-image-keyboard-response,394,805248,learnblock1,null,img/planet11_right.png,11,Community 3,NA,FALSE,null,j,NA,NA,NA,5,7,"15,12,14,1,2,4,13,10,6,3,8,7,11,9,5"
14984,commdev-image-keyboard-response,395,806498,learnblock1,702,img/planet7_left.png,7,Community 3,NA,TRUE,f,f,NA,NA,NA,5,7,"15,12,14,1,2,4,13,10,6,3,8,7,11,9,5"
14984,commdev-image-keyboard-response,396,807749,learnblock1,null,img/planet10_right.png,10,Community 2,NA,FALSE,null,j,NA,NA,NA,5,7,"15,12,14,1,2,4,13,10,6,3,8,7,11,9,5"
14984,commdev-image-keyboard-response,397,808999,learnblock1,null,img/planet6_right.png,6,Community 2,NA,FALSE,null,j,NA,NA,NA,5,7,"15,12,14,1,2,4,13,10,6,3,8,7,11,9,5"
14984,commdev-image-keyboard-response,398,810249,learnblock1,null,img/planet3_right.png,3,Community 2,NA,FALSE,null,j,NA,NA,NA,5,7,"15,12,14,1,2,4,13,10,6,3,8,7,11,9,5"
14984,commdev-image-keyboard-response,399,811500,learnblock1,628,img/planet4_left.png,4,Community 2,NA,TRUE,f,f,NA,NA,NA,5,7,"15,12,14,1,2,4,13,10,6,3,8,7,11,9,5"
14984,commdev-image-keyboard-response,400,812750,learnblock1,null,img/planet13_right.png,13,Community 2,NA,FALSE,null,j,NA,NA,NA,5,7,"15,12,14,1,2,4,13,10,6,3,8,7,11,9,5"
14984,commdev-image-keyboard-response,401,814000,learnblock1,null,img/planet6_right.png,6,Community 2,NA,FALSE,null,j,NA,NA,NA,5,7,"15,12,14,1,2,4,13,10,6,3,8,7,11,9,5"
14984,commdev-image-keyboard-response,402,815251,learnblock1,515,img/planet13_left.png,13,Community 2,NA,TRUE,f,f,NA,NA,NA,5,7,"15,12,14,1,2,4,13,10,6,3,8,7,11,9,5"
14984,commdev-image-keyboard-response,403,816502,learnblock1,686,img/planet4_left.png,4,Community 2,NA,TRUE,f,f,NA,NA,NA,5,7,"15,12,14,1,2,4,13,10,6,3,8,7,11,9,5"
14984,commdev-image-keyboard-response,404,817753,learnblock1,769,img/planet3_left.png,3,Community 2,NA,TRUE,f,f,NA,NA,NA,5,7,"15,12,14,1,2,4,13,10,6,3,8,7,11,9,5"
14984,commdev-image-keyboard-response,405,819004,learnblock1,529,img/planet4_left.png,4,Community 2,NA,TRUE,f,f,NA,NA,NA,5,7,"15,12,14,1,2,4,13,10,6,3,8,7,11,9,5"
14984,commdev-image-keyboard-response,406,820254,learnblock1,505,img/planet13_left.png,13,Community 2,NA,TRUE,f,f,NA,NA,NA,5,7,"15,12,14,1,2,4,13,10,6,3,8,7,11,9,5"
14984,commdev-image-keyboard-response,407,821505,learnblock1,459,img/planet3_left.png,3,Community 2,NA,TRUE,f,f,NA,NA,NA,5,7,"15,12,14,1,2,4,13,10,6,3,8,7,11,9,5"
14984,commdev-image-keyboard-response,408,822768,learnblock1,null,img/planet6_right.png,6,Community 2,NA,FALSE,null,j,NA,NA,NA,5,7,"15,12,14,1,2,4,13,10,6,3,8,7,11,9,5"
14984,commdev-image-keyboard-response,409,824019,learnblock1,506,img/planet13_left.png,13,Community 2,NA,TRUE,f,f,NA,NA,NA,5,7,"15,12,14,1,2,4,13,10,6,3,8,7,11,9,5"
14984,commdev-image-keyboard-response,410,825270,learnblock1,525,img/planet10_left.png,10,Community 2,NA,TRUE,f,f,NA,NA,NA,5,7,"15,12,14,1,2,4,13,10,6,3,8,7,11,9,5"
14984,commdev-image-keyboard-response,411,826521,learnblock1,null,img/planet6_right.png,6,Community 2,NA,FALSE,null,j,NA,NA,NA,5,7,"15,12,14,1,2,4,13,10,6,3,8,7,11,9,5"
14984,commdev-image-keyboard-response,412,827771,learnblock1,498,img/planet10_left.png,10,Community 2,NA,TRUE,f,f,NA,NA,NA,5,7,"15,12,14,1,2,4,13,10,6,3,8,7,11,9,5"
14984,commdev-image-keyboard-response,413,829022,learnblock1,649,img/planet13_left.png,13,Community 2,NA,TRUE,f,f,NA,NA,NA,5,7,"15,12,14,1,2,4,13,10,6,3,8,7,11,9,5"
14984,commdev-image-keyboard-response,414,830272,learnblock1,null,img/planet6_right.png,6,Community 2,NA,FALSE,null,j,NA,NA,NA,5,7,"15,12,14,1,2,4,13,10,6,3,8,7,11,9,5"
14984,commdev-image-keyboard-response,415,831523,learnblock1,470,img/planet10_left.png,10,Community 2,NA,TRUE,f,f,NA,NA,NA,5,7,"15,12,14,1,2,4,13,10,6,3,8,7,11,9,5"
14984,commdev-image-keyboard-response,416,832774,learnblock1,533,img/planet7_left.png,7,Community 3,NA,TRUE,f,f,NA,NA,NA,5,7,"15,12,14,1,2,4,13,10,6,3,8,7,11,9,5"
14984,commdev-image-keyboard-response,417,834024,learnblock1,400,img/planet11_left.png,11,Community 3,NA,TRUE,f,f,NA,NA,NA,5,7,"15,12,14,1,2,4,13,10,6,3,8,7,11,9,5"
14984,commdev-image-keyboard-response,418,835275,learnblock1,null,img/planet5_right.png,5,Community 3,NA,FALSE,null,j,NA,NA,NA,5,7,"15,12,14,1,2,4,13,10,6,3,8,7,11,9,5"
14984,commdev-image-keyboard-response,419,836526,learnblock1,437,img/planet9_right.png,9,Community 3,NA,FALSE,f,j,NA,NA,NA,5,7,"15,12,14,1,2,4,13,10,6,3,8,7,11,9,5"
14984,commdev-image-keyboard-response,420,837776,learnblock1,682,img/planet5_right.png,5,Community 3,NA,FALSE,f,j,NA,NA,NA,5,7,"15,12,14,1,2,4,13,10,6,3,8,7,11,9,5"
14984,commdev-image-keyboard-response,421,839027,learnblock1,null,img/planet9_right.png,9,Community 3,NA,FALSE,null,j,NA,NA,NA,5,7,"15,12,14,1,2,4,13,10,6,3,8,7,11,9,5"
14984,commdev-image-keyboard-response,422,840277,learnblock1,623,img/planet5_left.png,5,Community 3,NA,TRUE,f,f,NA,NA,NA,5,7,"15,12,14,1,2,4,13,10,6,3,8,7,11,9,5"
14984,commdev-image-keyboard-response,423,841537,learnblock1,533,img/planet8_left.png,8,Community 3,NA,TRUE,f,f,NA,NA,NA,5,7,"15,12,14,1,2,4,13,10,6,3,8,7,11,9,5"
14984,commdev-image-keyboard-response,424,842787,learnblock1,588,img/planet9_left.png,9,Community 3,NA,TRUE,f,f,NA,NA,NA,5,7,"15,12,14,1,2,4,13,10,6,3,8,7,11,9,5"
14984,commdev-image-keyboard-response,425,844038,learnblock1,455,img/planet5_left.png,5,Community 3,NA,TRUE,f,f,NA,NA,NA,5,7,"15,12,14,1,2,4,13,10,6,3,8,7,11,9,5"
14984,commdev-image-keyboard-response,426,845288,learnblock1,366,img/planet9_left.png,9,Community 3,NA,TRUE,f,f,NA,NA,NA,5,7,"15,12,14,1,2,4,13,10,6,3,8,7,11,9,5"
14984,commdev-image-keyboard-response,427,846538,learnblock1,494,img/planet5_left.png,5,Community 3,NA,TRUE,f,f,NA,NA,NA,5,7,"15,12,14,1,2,4,13,10,6,3,8,7,11,9,5"
14984,commdev-image-keyboard-response,428,847788,learnblock1,null,img/planet11_right.png,11,Community 3,NA,FALSE,null,j,NA,NA,NA,5,7,"15,12,14,1,2,4,13,10,6,3,8,7,11,9,5"
14984,commdev-image-keyboard-response,429,849039,learnblock1,621,img/planet8_left.png,8,Community 3,NA,TRUE,f,f,NA,NA,NA,5,7,"15,12,14,1,2,4,13,10,6,3,8,7,11,9,5"
14984,commdev-image-keyboard-response,430,850289,learnblock1,null,img/planet2_right.png,2,Community 1,NA,FALSE,null,j,NA,NA,NA,5,7,"15,12,14,1,2,4,13,10,6,3,8,7,11,9,5"
14984,commdev-image-keyboard-response,431,851540,learnblock1,552,img/planet15_left.png,15,Community 1,NA,TRUE,f,f,NA,NA,NA,5,7,"15,12,14,1,2,4,13,10,6,3,8,7,11,9,5"
14984,commdev-image-keyboard-response,432,852790,learnblock1,null,img/planet2_right.png,2,Community 1,NA,FALSE,null,j,NA,NA,NA,5,7,"15,12,14,1,2,4,13,10,6,3,8,7,11,9,5"
14984,commdev-image-keyboard-response,433,854041,learnblock1,766,img/planet15_right.png,15,Community 1,NA,FALSE,f,j,NA,NA,NA,5,7,"15,12,14,1,2,4,13,10,6,3,8,7,11,9,5"
14984,commdev-image-keyboard-response,434,855292,learnblock1,502,img/planet12_left.png,12,Community 1,NA,TRUE,f,f,NA,NA,NA,5,7,"15,12,14,1,2,4,13,10,6,3,8,7,11,9,5"
14984,commdev-image-keyboard-response,435,856542,learnblock1,521,img/planet15_left.png,15,Community 1,NA,TRUE,f,f,NA,NA,NA,5,7,"15,12,14,1,2,4,13,10,6,3,8,7,11,9,5"
14984,commdev-image-keyboard-response,436,857792,learnblock1,null,img/planet14_right.png,14,Community 1,NA,FALSE,null,j,NA,NA,NA,5,7,"15,12,14,1,2,4,13,10,6,3,8,7,11,9,5"
14984,commdev-image-keyboard-response,437,859043,learnblock1,561,img/planet1_left.png,1,Community 1,NA,TRUE,f,f,NA,NA,NA,5,7,"15,12,14,1,2,4,13,10,6,3,8,7,11,9,5"
14984,commdev-image-keyboard-response,438,860294,learnblock1,494,img/planet4_left.png,4,Community 2,NA,TRUE,f,f,NA,NA,NA,5,7,"15,12,14,1,2,4,13,10,6,3,8,7,11,9,5"
14984,commdev-image-keyboard-response,439,861544,learnblock1,468,img/planet3_right.png,3,Community 2,NA,FALSE,f,j,NA,NA,NA,5,7,"15,12,14,1,2,4,13,10,6,3,8,7,11,9,5"
14984,commdev-image-keyboard-response,440,862795,learnblock1,null,img/planet4_right.png,4,Community 2,NA,FALSE,null,j,NA,NA,NA,5,7,"15,12,14,1,2,4,13,10,6,3,8,7,11,9,5"
14984,commdev-image-keyboard-response,441,864045,learnblock1,null,img/planet6_right.png,6,Community 2,NA,FALSE,null,j,NA,NA,NA,5,7,"15,12,14,1,2,4,13,10,6,3,8,7,11,9,5"
14984,commdev-image-keyboard-response,442,865296,learnblock1,514,img/planet13_left.png,13,Community 2,NA,TRUE,f,f,NA,NA,NA,5,7,"15,12,14,1,2,4,13,10,6,3,8,7,11,9,5"
14984,commdev-image-keyboard-response,443,866547,learnblock1,491,img/planet4_left.png,4,Community 2,NA,TRUE,f,f,NA,NA,NA,5,7,"15,12,14,1,2,4,13,10,6,3,8,7,11,9,5"
14984,commdev-image-keyboard-response,444,867797,learnblock1,null,img/planet3_right.png,3,Community 2,NA,FALSE,null,j,NA,NA,NA,5,7,"15,12,14,1,2,4,13,10,6,3,8,7,11,9,5"
14984,commdev-image-keyboard-response,445,869048,learnblock1,null,img/planet6_right.png,6,Community 2,NA,FALSE,null,j,NA,NA,NA,5,7,"15,12,14,1,2,4,13,10,6,3,8,7,11,9,5"
14984,commdev-image-keyboard-response,446,870298,learnblock1,528,img/planet10_left.png,10,Community 2,NA,TRUE,f,f,NA,NA,NA,5,7,"15,12,14,1,2,4,13,10,6,3,8,7,11,9,5"
14984,commdev-image-keyboard-response,447,871549,learnblock1,1134,img/planet6_left.png,6,Community 2,NA,TRUE,f,f,NA,NA,NA,5,7,"15,12,14,1,2,4,13,10,6,3,8,7,11,9,5"
14984,commdev-image-keyboard-response,448,872799,learnblock1,null,img/planet13_right.png,13,Community 2,NA,FALSE,null,j,NA,NA,NA,5,7,"15,12,14,1,2,4,13,10,6,3,8,7,11,9,5"
14984,commdev-image-keyboard-response,449,874049,learnblock1,588,img/planet4_left.png,4,Community 2,NA,TRUE,f,f,NA,NA,NA,5,7,"15,12,14,1,2,4,13,10,6,3,8,7,11,9,5"
14984,commdev-image-keyboard-response,450,875299,learnblock1,845,img/planet3_left.png,3,Community 2,NA,TRUE,f,f,NA,NA,NA,5,7,"15,12,14,1,2,4,13,10,6,3,8,7,11,9,5"
14984,commdev-image-keyboard-response,451,876558,learnblock1,null,img/planet13_right.png,13,Community 2,NA,FALSE,null,j,NA,NA,NA,5,7,"15,12,14,1,2,4,13,10,6,3,8,7,11,9,5"
14984,commdev-image-keyboard-response,452,877809,learnblock1,487,img/planet3_left.png,3,Community 2,NA,TRUE,f,f,NA,NA,NA,5,7,"15,12,14,1,2,4,13,10,6,3,8,7,11,9,5"
14984,commdev-image-keyboard-response,453,879059,learnblock1,463,img/planet10_left.png,10,Community 2,NA,TRUE,f,f,NA,NA,NA,5,7,"15,12,14,1,2,4,13,10,6,3,8,7,11,9,5"
14984,commdev-image-keyboard-response,454,880311,learnblock1,505,img/planet13_left.png,13,Community 2,NA,TRUE,f,f,NA,NA,NA,5,7,"15,12,14,1,2,4,13,10,6,3,8,7,11,9,5"
14984,commdev-image-keyboard-response,455,881561,learnblock1,null,img/planet4_right.png,4,Community 2,NA,FALSE,null,j,NA,NA,NA,5,7,"15,12,14,1,2,4,13,10,6,3,8,7,11,9,5"
14984,commdev-image-keyboard-response,456,882812,learnblock1,null,img/planet13_right.png,13,Community 2,NA,FALSE,null,j,NA,NA,NA,5,7,"15,12,14,1,2,4,13,10,6,3,8,7,11,9,5"
14984,commdev-image-keyboard-response,457,884063,learnblock1,455,img/planet3_left.png,3,Community 2,NA,TRUE,f,f,NA,NA,NA,5,7,"15,12,14,1,2,4,13,10,6,3,8,7,11,9,5"
14984,commdev-image-keyboard-response,458,885318,learnblock1,519,img/planet6_left.png,6,Community 2,NA,TRUE,f,f,NA,NA,NA,5,7,"15,12,14,1,2,4,13,10,6,3,8,7,11,9,5"
14984,commdev-image-keyboard-response,459,886568,learnblock1,null,img/planet10_right.png,10,Community 2,NA,FALSE,null,j,NA,NA,NA,5,7,"15,12,14,1,2,4,13,10,6,3,8,7,11,9,5"
14984,commdev-image-keyboard-response,460,887819,learnblock1,445,img/planet6_left.png,6,Community 2,NA,TRUE,f,f,NA,NA,NA,5,7,"15,12,14,1,2,4,13,10,6,3,8,7,11,9,5"
14984,commdev-image-keyboard-response,461,889070,learnblock1,508,img/planet4_left.png,4,Community 2,NA,TRUE,f,f,NA,NA,NA,5,7,"15,12,14,1,2,4,13,10,6,3,8,7,11,9,5"
14984,commdev-image-keyboard-response,462,890320,learnblock1,419,img/planet6_right.png,6,Community 2,NA,FALSE,f,j,NA,NA,NA,5,7,"15,12,14,1,2,4,13,10,6,3,8,7,11,9,5"
14984,commdev-image-keyboard-response,463,891570,learnblock1,null,img/planet4_right.png,4,Community 2,NA,FALSE,null,j,NA,NA,NA,5,7,"15,12,14,1,2,4,13,10,6,3,8,7,11,9,5"
14984,commdev-image-keyboard-response,464,892820,learnblock1,null,img/planet1_right.png,1,Community 1,NA,FALSE,null,j,NA,NA,NA,5,7,"15,12,14,1,2,4,13,10,6,3,8,7,11,9,5"
14984,commdev-image-keyboard-response,465,894071,learnblock1,null,img/planet15_right.png,15,Community 1,NA,FALSE,null,j,NA,NA,NA,5,7,"15,12,14,1,2,4,13,10,6,3,8,7,11,9,5"
14984,commdev-image-keyboard-response,466,895321,learnblock1,595,img/planet12_left.png,12,Community 1,NA,TRUE,f,f,NA,NA,NA,5,7,"15,12,14,1,2,4,13,10,6,3,8,7,11,9,5"
14984,commdev-image-keyboard-response,467,896572,learnblock1,549,img/planet1_left.png,1,Community 1,NA,TRUE,f,f,NA,NA,NA,5,7,"15,12,14,1,2,4,13,10,6,3,8,7,11,9,5"
14984,commdev-image-keyboard-response,468,897822,learnblock1,592,img/planet14_left.png,14,Community 1,NA,TRUE,f,f,NA,NA,NA,5,7,"15,12,14,1,2,4,13,10,6,3,8,7,11,9,5"
14984,commdev-image-keyboard-response,469,899073,learnblock1,764,img/planet15_left.png,15,Community 1,NA,TRUE,f,f,NA,NA,NA,5,7,"15,12,14,1,2,4,13,10,6,3,8,7,11,9,5"
14984,commdev-image-keyboard-response,470,900323,learnblock1,null,img/planet1_right.png,1,Community 1,NA,FALSE,null,j,NA,NA,NA,5,7,"15,12,14,1,2,4,13,10,6,3,8,7,11,9,5"
14984,commdev-image-keyboard-response,471,901574,learnblock1,null,img/planet15_right.png,15,Community 1,NA,FALSE,null,j,NA,NA,NA,5,7,"15,12,14,1,2,4,13,10,6,3,8,7,11,9,5"
14984,commdev-image-keyboard-response,472,902825,learnblock1,null,img/planet14_right.png,14,Community 1,NA,FALSE,null,j,NA,NA,NA,5,7,"15,12,14,1,2,4,13,10,6,3,8,7,11,9,5"
14984,commdev-image-keyboard-response,473,904075,learnblock1,null,img/planet12_right.png,12,Community 1,NA,FALSE,null,j,NA,NA,NA,5,7,"15,12,14,1,2,4,13,10,6,3,8,7,11,9,5"
14984,commdev-image-keyboard-response,474,905326,learnblock1,557,img/planet15_left.png,15,Community 1,NA,TRUE,f,f,NA,NA,NA,5,7,"15,12,14,1,2,4,13,10,6,3,8,7,11,9,5"
14984,commdev-image-keyboard-response,475,906577,learnblock1,512,img/planet14_left.png,14,Community 1,NA,TRUE,f,f,NA,NA,NA,5,7,"15,12,14,1,2,4,13,10,6,3,8,7,11,9,5"
14984,commdev-image-keyboard-response,476,907828,learnblock1,null,img/planet2_right.png,2,Community 1,NA,FALSE,null,j,NA,NA,NA,5,7,"15,12,14,1,2,4,13,10,6,3,8,7,11,9,5"
14984,commdev-image-keyboard-response,477,909078,learnblock1,529,img/planet14_left.png,14,Community 1,NA,TRUE,f,f,NA,NA,NA,5,7,"15,12,14,1,2,4,13,10,6,3,8,7,11,9,5"
14984,commdev-image-keyboard-response,478,910329,learnblock1,505,img/planet2_left.png,2,Community 1,NA,TRUE,f,f,NA,NA,NA,5,7,"15,12,14,1,2,4,13,10,6,3,8,7,11,9,5"
14984,commdev-image-keyboard-response,479,911579,learnblock1,546,img/planet14_left.png,14,Community 1,NA,TRUE,f,f,NA,NA,NA,5,7,"15,12,14,1,2,4,13,10,6,3,8,7,11,9,5"
14984,commdev-image-keyboard-response,480,912830,learnblock1,478,img/planet1_left.png,1,Community 1,NA,TRUE,f,f,NA,NA,NA,5,7,"15,12,14,1,2,4,13,10,6,3,8,7,11,9,5"
14984,commdev-image-keyboard-response,481,914081,learnblock1,651,img/planet12_left.png,12,Community 1,NA,TRUE,f,f,NA,NA,NA,5,7,"15,12,14,1,2,4,13,10,6,3,8,7,11,9,5"
14984,commdev-image-keyboard-response,482,915332,learnblock1,475,img/planet2_left.png,2,Community 1,NA,TRUE,f,f,NA,NA,NA,5,7,"15,12,14,1,2,4,13,10,6,3,8,7,11,9,5"
14984,commdev-image-keyboard-response,483,916587,learnblock1,405,img/planet12_left.png,12,Community 1,NA,TRUE,f,f,NA,NA,NA,5,7,"15,12,14,1,2,4,13,10,6,3,8,7,11,9,5"
14984,commdev-image-keyboard-response,484,917837,learnblock1,444,img/planet2_left.png,2,Community 1,NA,TRUE,f,f,NA,NA,NA,5,7,"15,12,14,1,2,4,13,10,6,3,8,7,11,9,5"
14984,commdev-image-keyboard-response,485,919088,learnblock1,null,img/planet14_right.png,14,Community 1,NA,FALSE,null,j,NA,NA,NA,5,7,"15,12,14,1,2,4,13,10,6,3,8,7,11,9,5"
14984,commdev-image-keyboard-response,486,920338,learnblock1,549,img/planet1_left.png,1,Community 1,NA,TRUE,f,f,NA,NA,NA,5,7,"15,12,14,1,2,4,13,10,6,3,8,7,11,9,5"
14984,commdev-image-keyboard-response,487,921590,learnblock1,null,img/planet14_right.png,14,Community 1,NA,FALSE,null,j,NA,NA,NA,5,7,"15,12,14,1,2,4,13,10,6,3,8,7,11,9,5"
14984,commdev-image-keyboard-response,488,922840,learnblock1,null,img/planet12_right.png,12,Community 1,NA,FALSE,null,j,NA,NA,NA,5,7,"15,12,14,1,2,4,13,10,6,3,8,7,11,9,5"
14984,commdev-image-keyboard-response,489,924091,learnblock1,null,img/planet1_right.png,1,Community 1,NA,FALSE,null,j,NA,NA,NA,5,7,"15,12,14,1,2,4,13,10,6,3,8,7,11,9,5"
14984,commdev-image-keyboard-response,490,925341,learnblock1,null,img/planet14_right.png,14,Community 1,NA,FALSE,null,j,NA,NA,NA,5,7,"15,12,14,1,2,4,13,10,6,3,8,7,11,9,5"
14984,commdev-image-keyboard-response,491,926592,learnblock1,557,img/planet2_left.png,2,Community 1,NA,TRUE,f,f,NA,NA,NA,5,7,"15,12,14,1,2,4,13,10,6,3,8,7,11,9,5"
14984,commdev-image-keyboard-response,492,927842,learnblock1,512,img/planet15_left.png,15,Community 1,NA,TRUE,f,f,NA,NA,NA,5,7,"15,12,14,1,2,4,13,10,6,3,8,7,11,9,5"
14984,commdev-image-keyboard-response,493,929093,learnblock1,533,img/planet2_left.png,2,Community 1,NA,TRUE,f,f,NA,NA,NA,5,7,"15,12,14,1,2,4,13,10,6,3,8,7,11,9,5"
14984,commdev-image-keyboard-response,494,930344,learnblock1,879,img/planet15_left.png,15,Community 1,NA,TRUE,f,f,NA,NA,NA,5,7,"15,12,14,1,2,4,13,10,6,3,8,7,11,9,5"
14984,commdev-image-keyboard-response,495,931594,learnblock1,null,img/planet2_right.png,2,Community 1,NA,FALSE,null,j,NA,NA,NA,5,7,"15,12,14,1,2,4,13,10,6,3,8,7,11,9,5"
14984,commdev-image-keyboard-response,496,932844,learnblock1,658,img/planet8_right.png,8,Community 3,NA,FALSE,f,j,NA,NA,NA,5,7,"15,12,14,1,2,4,13,10,6,3,8,7,11,9,5"
14984,commdev-image-keyboard-response,497,934094,learnblock1,null,img/planet2_right.png,2,Community 1,NA,FALSE,null,j,NA,NA,NA,5,7,"15,12,14,1,2,4,13,10,6,3,8,7,11,9,5"
14984,commdev-image-keyboard-response,498,935345,learnblock1,null,img/planet8_right.png,8,Community 3,NA,FALSE,null,j,NA,NA,NA,5,7,"15,12,14,1,2,4,13,10,6,3,8,7,11,9,5"
14984,commdev-image-keyboard-response,499,936595,learnblock1,529,img/planet9_left.png,9,Community 3,NA,TRUE,f,f,NA,NA,NA,5,7,"15,12,14,1,2,4,13,10,6,3,8,7,11,9,5"
14984,commdev-image-keyboard-response,500,937846,learnblock1,null,img/planet8_left.png,8,Community 3,NA,FALSE,null,f,NA,NA,NA,5,7,"15,12,14,1,2,4,13,10,6,3,8,7,11,9,5"
14984,commdev-image-keyboard-response,501,939097,learnblock1,526,img/planet5_left.png,5,Community 3,NA,TRUE,f,f,NA,NA,NA,5,7,"15,12,14,1,2,4,13,10,6,3,8,7,11,9,5"
14984,commdev-image-keyboard-response,502,940348,learnblock1,479,img/planet9_left.png,9,Community 3,NA,TRUE,f,f,NA,NA,NA,5,7,"15,12,14,1,2,4,13,10,6,3,8,7,11,9,5"
14984,commdev-image-keyboard-response,503,941598,learnblock1,521,img/planet8_left.png,8,Community 3,NA,TRUE,f,f,NA,NA,NA,5,7,"15,12,14,1,2,4,13,10,6,3,8,7,11,9,5"
14984,commdev-image-keyboard-response,504,942855,learnblock1,null,img/planet9_right.png,9,Community 3,NA,FALSE,null,j,NA,NA,NA,5,7,"15,12,14,1,2,4,13,10,6,3,8,7,11,9,5"
14984,commdev-image-keyboard-response,505,944107,learnblock1,489,img/planet7_left.png,7,Community 3,NA,TRUE,f,f,NA,NA,NA,5,7,"15,12,14,1,2,4,13,10,6,3,8,7,11,9,5"
14984,commdev-image-keyboard-response,506,945358,learnblock1,null,img/planet10_right.png,10,Community 2,NA,FALSE,null,j,NA,NA,NA,5,7,"15,12,14,1,2,4,13,10,6,3,8,7,11,9,5"
14984,commdev-image-keyboard-response,507,946609,learnblock1,null,img/planet6_right.png,6,Community 2,NA,FALSE,null,j,NA,NA,NA,5,7,"15,12,14,1,2,4,13,10,6,3,8,7,11,9,5"
14984,commdev-image-keyboard-response,508,947859,learnblock1,null,img/planet10_right.png,10,Community 2,NA,FALSE,null,j,NA,NA,NA,5,7,"15,12,14,1,2,4,13,10,6,3,8,7,11,9,5"
14984,commdev-image-keyboard-response,509,949110,learnblock1,null,img/planet7_right.png,7,Community 3,NA,FALSE,null,j,NA,NA,NA,5,7,"15,12,14,1,2,4,13,10,6,3,8,7,11,9,5"
14984,commdev-image-keyboard-response,510,950360,learnblock1,673,img/planet11_left.png,11,Community 3,NA,TRUE,f,f,NA,NA,NA,5,7,"15,12,14,1,2,4,13,10,6,3,8,7,11,9,5"
14984,commdev-image-keyboard-response,511,951611,learnblock1,null,img/planet5_right.png,5,Community 3,NA,FALSE,null,j,NA,NA,NA,5,7,"15,12,14,1,2,4,13,10,6,3,8,7,11,9,5"
14984,commdev-image-keyboard-response,512,952861,learnblock1,null,img/planet11_right.png,11,Community 3,NA,FALSE,null,j,NA,NA,NA,5,7,"15,12,14,1,2,4,13,10,6,3,8,7,11,9,5"
14984,commdev-image-keyboard-response,513,954111,learnblock1,null,img/planet9_right.png,9,Community 3,NA,FALSE,null,j,NA,NA,NA,5,7,"15,12,14,1,2,4,13,10,6,3,8,7,11,9,5"
14984,commdev-image-keyboard-response,514,955362,learnblock1,null,img/planet5_right.png,5,Community 3,NA,FALSE,null,j,NA,NA,NA,5,7,"15,12,14,1,2,4,13,10,6,3,8,7,11,9,5"
14984,commdev-image-keyboard-response,515,956613,learnblock1,null,img/planet11_right.png,11,Community 3,NA,FALSE,null,j,NA,NA,NA,5,7,"15,12,14,1,2,4,13,10,6,3,8,7,11,9,5"
14984,commdev-image-keyboard-response,516,957864,learnblock1,null,img/planet5_right.png,5,Community 3,NA,FALSE,null,j,NA,NA,NA,5,7,"15,12,14,1,2,4,13,10,6,3,8,7,11,9,5"
14984,commdev-image-keyboard-response,517,959114,learnblock1,null,img/planet8_right.png,8,Community 3,NA,FALSE,null,j,NA,NA,NA,5,7,"15,12,14,1,2,4,13,10,6,3,8,7,11,9,5"
14984,commdev-image-keyboard-response,521,1012633,learnblock2,null,img/planet11_right.png,11,Community 3,NA,FALSE,null,j,NA,NA,NA,5,7,"15,12,14,1,2,4,13,10,6,3,8,7,11,9,5"
14984,commdev-image-keyboard-response,522,1013883,learnblock2,637,img/planet9_left.png,9,Community 3,NA,TRUE,f,f,NA,NA,NA,5,7,"15,12,14,1,2,4,13,10,6,3,8,7,11,9,5"
14984,commdev-image-keyboard-response,523,1015134,learnblock2,656,img/planet7_left.png,7,Community 3,NA,TRUE,f,f,NA,NA,NA,5,7,"15,12,14,1,2,4,13,10,6,3,8,7,11,9,5"
14984,commdev-image-keyboard-response,524,1016385,learnblock2,null,img/planet11_right.png,11,Community 3,NA,FALSE,null,j,NA,NA,NA,5,7,"15,12,14,1,2,4,13,10,6,3,8,7,11,9,5"
14984,commdev-image-keyboard-response,525,1017636,learnblock2,759,img/planet8_left.png,8,Community 3,NA,TRUE,f,f,NA,NA,NA,5,7,"15,12,14,1,2,4,13,10,6,3,8,7,11,9,5"
14984,commdev-image-keyboard-response,526,1018887,learnblock2,null,img/planet11_right.png,11,Community 3,NA,FALSE,null,j,NA,NA,NA,5,7,"15,12,14,1,2,4,13,10,6,3,8,7,11,9,5"
14984,commdev-image-keyboard-response,527,1020139,learnblock2,null,img/planet7_right.png,7,Community 3,NA,FALSE,null,j,NA,NA,NA,5,7,"15,12,14,1,2,4,13,10,6,3,8,7,11,9,5"
14984,commdev-image-keyboard-response,528,1021389,learnblock2,null,img/planet9_right.png,9,Community 3,NA,FALSE,null,j,NA,NA,NA,5,7,"15,12,14,1,2,4,13,10,6,3,8,7,11,9,5"
14984,commdev-image-keyboard-response,529,1022648,learnblock2,null,img/planet8_right.png,8,Community 3,NA,FALSE,null,j,NA,NA,NA,5,7,"15,12,14,1,2,4,13,10,6,3,8,7,11,9,5"
14984,commdev-image-keyboard-response,530,1023899,learnblock2,null,img/planet2_right.png,2,Community 1,NA,FALSE,null,j,NA,NA,NA,5,7,"15,12,14,1,2,4,13,10,6,3,8,7,11,9,5"
14984,commdev-image-keyboard-response,531,1025150,learnblock2,672,img/planet14_left.png,14,Community 1,NA,TRUE,f,f,NA,NA,NA,5,7,"15,12,14,1,2,4,13,10,6,3,8,7,11,9,5"
14984,commdev-image-keyboard-response,532,1026400,learnblock2,null,img/planet12_right.png,12,Community 1,NA,FALSE,null,j,NA,NA,NA,5,7,"15,12,14,1,2,4,13,10,6,3,8,7,11,9,5"
14984,commdev-image-keyboard-response,533,1027659,learnblock2,null,img/planet2_right.png,2,Community 1,NA,FALSE,null,j,NA,NA,NA,5,7,"15,12,14,1,2,4,13,10,6,3,8,7,11,9,5"
14984,commdev-image-keyboard-response,534,1028910,learnblock2,null,img/planet15_right.png,15,Community 1,NA,FALSE,null,j,NA,NA,NA,5,7,"15,12,14,1,2,4,13,10,6,3,8,7,11,9,5"
14984,commdev-image-keyboard-response,535,1030161,learnblock2,null,img/planet14_right.png,14,Community 1,NA,FALSE,null,j,NA,NA,NA,5,7,"15,12,14,1,2,4,13,10,6,3,8,7,11,9,5"
14984,commdev-image-keyboard-response,536,1031421,learnblock2,588,img/planet1_left.png,1,Community 1,NA,TRUE,f,f,NA,NA,NA,5,7,"15,12,14,1,2,4,13,10,6,3,8,7,11,9,5"
14984,commdev-image-keyboard-response,537,1032672,learnblock2,513,img/planet14_left.png,14,Community 1,NA,TRUE,f,f,NA,NA,NA,5,7,"15,12,14,1,2,4,13,10,6,3,8,7,11,9,5"
14984,commdev-image-keyboard-response,538,1033922,learnblock2,null,img/planet12_right.png,12,Community 1,NA,FALSE,null,j,NA,NA,NA,5,7,"15,12,14,1,2,4,13,10,6,3,8,7,11,9,5"
14984,commdev-image-keyboard-response,539,1035173,learnblock2,null,img/planet1_right.png,1,Community 1,NA,FALSE,null,j,NA,NA,NA,5,7,"15,12,14,1,2,4,13,10,6,3,8,7,11,9,5"
14984,commdev-image-keyboard-response,540,1036424,learnblock2,null,img/planet15_right.png,15,Community 1,NA,FALSE,null,j,NA,NA,NA,5,7,"15,12,14,1,2,4,13,10,6,3,8,7,11,9,5"
14984,commdev-image-keyboard-response,541,1037674,learnblock2,545,img/planet12_left.png,12,Community 1,NA,TRUE,f,f,NA,NA,NA,5,7,"15,12,14,1,2,4,13,10,6,3,8,7,11,9,5"
14984,commdev-image-keyboard-response,542,1038925,learnblock2,545,img/planet2_left.png,2,Community 1,NA,TRUE,f,f,NA,NA,NA,5,7,"15,12,14,1,2,4,13,10,6,3,8,7,11,9,5"
14984,commdev-image-keyboard-response,543,1040176,learnblock2,520,img/planet15_left.png,15,Community 1,NA,TRUE,f,f,NA,NA,NA,5,7,"15,12,14,1,2,4,13,10,6,3,8,7,11,9,5"
14984,commdev-image-keyboard-response,544,1041427,learnblock2,475,img/planet12_left.png,12,Community 1,NA,TRUE,f,f,NA,NA,NA,5,7,"15,12,14,1,2,4,13,10,6,3,8,7,11,9,5"
14984,commdev-image-keyboard-response,545,1042685,learnblock2,428,img/planet1_left.png,1,Community 1,NA,TRUE,f,f,NA,NA,NA,5,7,"15,12,14,1,2,4,13,10,6,3,8,7,11,9,5"
14984,commdev-image-keyboard-response,546,1043936,learnblock2,461,img/planet12_left.png,12,Community 1,NA,TRUE,f,f,NA,NA,NA,5,7,"15,12,14,1,2,4,13,10,6,3,8,7,11,9,5"
14984,commdev-image-keyboard-response,547,1045201,learnblock2,null,img/planet1_right.png,1,Community 1,NA,FALSE,null,j,NA,NA,NA,5,7,"15,12,14,1,2,4,13,10,6,3,8,7,11,9,5"
14984,commdev-image-keyboard-response,548,1046452,learnblock2,null,img/planet14_right.png,14,Community 1,NA,FALSE,null,j,NA,NA,NA,5,7,"15,12,14,1,2,4,13,10,6,3,8,7,11,9,5"
14984,commdev-image-keyboard-response,549,1047703,learnblock2,null,img/planet2_right.png,2,Community 1,NA,FALSE,null,j,NA,NA,NA,5,7,"15,12,14,1,2,4,13,10,6,3,8,7,11,9,5"
14984,commdev-image-keyboard-response,550,1048953,learnblock2,null,img/planet12_right.png,12,Community 1,NA,FALSE,null,j,NA,NA,NA,5,7,"15,12,14,1,2,4,13,10,6,3,8,7,11,9,5"
14984,commdev-image-keyboard-response,551,1050204,learnblock2,null,img/planet14_right.png,14,Community 1,NA,FALSE,null,j,NA,NA,NA,5,7,"15,12,14,1,2,4,13,10,6,3,8,7,11,9,5"
14984,commdev-image-keyboard-response,552,1051455,learnblock2,null,img/planet12_right.png,12,Community 1,NA,FALSE,null,j,NA,NA,NA,5,7,"15,12,14,1,2,4,13,10,6,3,8,7,11,9,5"
14984,commdev-image-keyboard-response,553,1052706,learnblock2,585,img/planet2_left.png,2,Community 1,NA,TRUE,f,f,NA,NA,NA,5,7,"15,12,14,1,2,4,13,10,6,3,8,7,11,9,5"
14984,commdev-image-keyboard-response,554,1053957,learnblock2,538,img/planet12_left.png,12,Community 1,NA,TRUE,f,f,NA,NA,NA,5,7,"15,12,14,1,2,4,13,10,6,3,8,7,11,9,5"
14984,commdev-image-keyboard-response,555,1055208,learnblock2,null,img/planet1_right.png,1,Community 1,NA,FALSE,null,j,NA,NA,NA,5,7,"15,12,14,1,2,4,13,10,6,3,8,7,11,9,5"
14984,commdev-image-keyboard-response,556,1056458,learnblock2,null,img/planet12_right.png,12,Community 1,NA,FALSE,null,j,NA,NA,NA,5,7,"15,12,14,1,2,4,13,10,6,3,8,7,11,9,5"
14984,commdev-image-keyboard-response,557,1057708,learnblock2,795,img/planet14_left.png,14,Community 1,NA,TRUE,f,f,NA,NA,NA,5,7,"15,12,14,1,2,4,13,10,6,3,8,7,11,9,5"
14984,commdev-image-keyboard-response,558,1058959,learnblock2,488,img/planet2_left.png,2,Community 1,NA,TRUE,f,f,NA,NA,NA,5,7,"15,12,14,1,2,4,13,10,6,3,8,7,11,9,5"
14984,commdev-image-keyboard-response,559,1060209,learnblock2,618,img/planet8_left.png,8,Community 3,NA,TRUE,f,f,NA,NA,NA,5,7,"15,12,14,1,2,4,13,10,6,3,8,7,11,9,5"
14984,commdev-image-keyboard-response,560,1061459,learnblock2,462,img/planet5_left.png,5,Community 3,NA,TRUE,f,f,NA,NA,NA,5,7,"15,12,14,1,2,4,13,10,6,3,8,7,11,9,5"
14984,commdev-image-keyboard-response,561,1062710,learnblock2,null,img/planet9_right.png,9,Community 3,NA,FALSE,null,j,NA,NA,NA,5,7,"15,12,14,1,2,4,13,10,6,3,8,7,11,9,5"
14984,commdev-image-keyboard-response,562,1063960,learnblock2,null,img/planet7_right.png,7,Community 3,NA,FALSE,null,j,NA,NA,NA,5,7,"15,12,14,1,2,4,13,10,6,3,8,7,11,9,5"
14984,commdev-image-keyboard-response,563,1065210,learnblock2,null,img/planet5_right.png,5,Community 3,NA,FALSE,null,j,NA,NA,NA,5,7,"15,12,14,1,2,4,13,10,6,3,8,7,11,9,5"
14984,commdev-image-keyboard-response,564,1066462,learnblock2,null,img/planet9_right.png,9,Community 3,NA,FALSE,null,j,NA,NA,NA,5,7,"15,12,14,1,2,4,13,10,6,3,8,7,11,9,5"
14984,commdev-image-keyboard-response,565,1067713,learnblock2,null,img/planet7_right.png,7,Community 3,NA,FALSE,null,j,NA,NA,NA,5,7,"15,12,14,1,2,4,13,10,6,3,8,7,11,9,5"
14984,commdev-image-keyboard-response,566,1068965,learnblock2,null,img/planet5_right.png,5,Community 3,NA,FALSE,null,j,NA,NA,NA,5,7,"15,12,14,1,2,4,13,10,6,3,8,7,11,9,5"
14984,commdev-image-keyboard-response,567,1070216,learnblock2,685,img/planet7_left.png,7,Community 3,NA,TRUE,f,f,NA,NA,NA,5,7,"15,12,14,1,2,4,13,10,6,3,8,7,11,9,5"
14984,commdev-image-keyboard-response,568,1071467,learnblock2,553,img/planet11_left.png,11,Community 3,NA,TRUE,f,f,NA,NA,NA,5,7,"15,12,14,1,2,4,13,10,6,3,8,7,11,9,5"
14984,commdev-image-keyboard-response,569,1072718,learnblock2,485,img/planet5_left.png,5,Community 3,NA,TRUE,f,f,NA,NA,NA,5,7,"15,12,14,1,2,4,13,10,6,3,8,7,11,9,5"
14984,commdev-image-keyboard-response,570,1073970,learnblock2,417,img/planet11_left.png,11,Community 3,NA,TRUE,f,f,NA,NA,NA,5,7,"15,12,14,1,2,4,13,10,6,3,8,7,11,9,5"
14984,commdev-image-keyboard-response,571,1075228,learnblock2,611,img/planet8_left.png,8,Community 3,NA,TRUE,f,f,NA,NA,NA,5,7,"15,12,14,1,2,4,13,10,6,3,8,7,11,9,5"
14984,commdev-image-keyboard-response,572,1076479,learnblock2,471,img/planet5_left.png,5,Community 3,NA,TRUE,f,f,NA,NA,NA,5,7,"15,12,14,1,2,4,13,10,6,3,8,7,11,9,5"
14984,commdev-image-keyboard-response,573,1077730,learnblock2,null,img/planet9_right.png,9,Community 3,NA,FALSE,null,j,NA,NA,NA,5,7,"15,12,14,1,2,4,13,10,6,3,8,7,11,9,5"
14984,commdev-image-keyboard-response,574,1078981,learnblock2,488,img/planet11_left.png,11,Community 3,NA,TRUE,f,f,NA,NA,NA,5,7,"15,12,14,1,2,4,13,10,6,3,8,7,11,9,5"
14984,commdev-image-keyboard-response,575,1080241,learnblock2,464,img/planet9_left.png,9,Community 3,NA,TRUE,f,f,NA,NA,NA,5,7,"15,12,14,1,2,4,13,10,6,3,8,7,11,9,5"
14984,commdev-image-keyboard-response,576,1081491,learnblock2,519,img/planet5_left.png,5,Community 3,NA,TRUE,f,f,NA,NA,NA,5,7,"15,12,14,1,2,4,13,10,6,3,8,7,11,9,5"
14984,commdev-image-keyboard-response,577,1082742,learnblock2,null,img/planet8_right.png,8,Community 3,NA,FALSE,null,j,NA,NA,NA,5,7,"15,12,14,1,2,4,13,10,6,3,8,7,11,9,5"
14984,commdev-image-keyboard-response,578,1083993,learnblock2,537,img/planet11_left.png,11,Community 3,NA,TRUE,f,f,NA,NA,NA,5,7,"15,12,14,1,2,4,13,10,6,3,8,7,11,9,5"
14984,commdev-image-keyboard-response,579,1085244,learnblock2,665,img/planet9_left.png,9,Community 3,NA,TRUE,f,f,NA,NA,NA,5,7,"15,12,14,1,2,4,13,10,6,3,8,7,11,9,5"
14984,commdev-image-keyboard-response,580,1086494,learnblock2,null,img/planet11_right.png,11,Community 3,NA,FALSE,null,j,NA,NA,NA,5,7,"15,12,14,1,2,4,13,10,6,3,8,7,11,9,5"
14984,commdev-image-keyboard-response,581,1087745,learnblock2,442,img/planet9_right.png,9,Community 3,NA,FALSE,f,j,NA,NA,NA,5,7,"15,12,14,1,2,4,13,10,6,3,8,7,11,9,5"
14984,commdev-image-keyboard-response,582,1088995,learnblock2,796,img/planet11_left.png,11,Community 3,NA,TRUE,f,f,NA,NA,NA,5,7,"15,12,14,1,2,4,13,10,6,3,8,7,11,9,5"
14984,commdev-image-keyboard-response,583,1090246,learnblock2,534,img/planet7_left.png,7,Community 3,NA,TRUE,f,f,NA,NA,NA,5,7,"15,12,14,1,2,4,13,10,6,3,8,7,11,9,5"
14984,commdev-image-keyboard-response,584,1091496,learnblock2,null,img/planet9_right.png,9,Community 3,NA,FALSE,null,j,NA,NA,NA,5,7,"15,12,14,1,2,4,13,10,6,3,8,7,11,9,5"
14984,commdev-image-keyboard-response,585,1092747,learnblock2,null,img/planet8_right.png,8,Community 3,NA,FALSE,null,j,NA,NA,NA,5,7,"15,12,14,1,2,4,13,10,6,3,8,7,11,9,5"
14984,commdev-image-keyboard-response,586,1093999,learnblock2,null,img/planet2_right.png,2,Community 1,NA,FALSE,null,j,NA,NA,NA,5,7,"15,12,14,1,2,4,13,10,6,3,8,7,11,9,5"
14984,commdev-image-keyboard-response,587,1095249,learnblock2,null,img/planet15_right.png,15,Community 1,NA,FALSE,null,j,NA,NA,NA,5,7,"15,12,14,1,2,4,13,10,6,3,8,7,11,9,5"
14984,commdev-image-keyboard-response,588,1096499,learnblock2,718,img/planet12_left.png,12,Community 1,NA,TRUE,f,f,NA,NA,NA,5,7,"15,12,14,1,2,4,13,10,6,3,8,7,11,9,5"
14984,commdev-image-keyboard-response,589,1097749,learnblock2,761,img/planet15_left.png,15,Community 1,NA,TRUE,f,f,NA,NA,NA,5,7,"15,12,14,1,2,4,13,10,6,3,8,7,11,9,5"
14984,commdev-image-keyboard-response,590,1099000,learnblock2,null,img/planet2_right.png,2,Community 1,NA,FALSE,null,j,NA,NA,NA,5,7,"15,12,14,1,2,4,13,10,6,3,8,7,11,9,5"
14984,commdev-image-keyboard-response,591,1100251,learnblock2,562,img/planet8_left.png,8,Community 3,NA,TRUE,f,f,NA,NA,NA,5,7,"15,12,14,1,2,4,13,10,6,3,8,7,11,9,5"
14984,commdev-image-keyboard-response,592,1101502,learnblock2,538,img/planet2_left.png,2,Community 1,NA,TRUE,f,f,NA,NA,NA,5,7,"15,12,14,1,2,4,13,10,6,3,8,7,11,9,5"
14984,commdev-image-keyboard-response,593,1102752,learnblock2,null,img/planet8_right.png,8,Community 3,NA,FALSE,null,j,NA,NA,NA,5,7,"15,12,14,1,2,4,13,10,6,3,8,7,11,9,5"
14984,commdev-image-keyboard-response,594,1104002,learnblock2,null,img/planet11_right.png,11,Community 3,NA,FALSE,null,j,NA,NA,NA,5,7,"15,12,14,1,2,4,13,10,6,3,8,7,11,9,5"
14984,commdev-image-keyboard-response,595,1105252,learnblock2,532,img/planet9_left.png,9,Community 3,NA,TRUE,f,f,NA,NA,NA,5,7,"15,12,14,1,2,4,13,10,6,3,8,7,11,9,5"
14984,commdev-image-keyboard-response,596,1106503,learnblock2,null,img/planet7_right.png,7,Community 3,NA,FALSE,null,j,NA,NA,NA,5,7,"15,12,14,1,2,4,13,10,6,3,8,7,11,9,5"
14984,commdev-image-keyboard-response,597,1107753,learnblock2,null,img/planet9_right.png,9,Community 3,NA,FALSE,null,j,NA,NA,NA,5,7,"15,12,14,1,2,4,13,10,6,3,8,7,11,9,5"
14984,commdev-image-keyboard-response,598,1109004,learnblock2,null,img/planet7_right.png,7,Community 3,NA,FALSE,null,j,NA,NA,NA,5,7,"15,12,14,1,2,4,13,10,6,3,8,7,11,9,5"
14984,commdev-image-keyboard-response,599,1110268,learnblock2,550,img/planet10_left.png,10,Community 2,NA,TRUE,f,f,NA,NA,NA,5,7,"15,12,14,1,2,4,13,10,6,3,8,7,11,9,5"
14984,commdev-image-keyboard-response,600,1111519,learnblock2,644,img/planet7_left.png,7,Community 3,NA,TRUE,f,f,NA,NA,NA,5,7,"15,12,14,1,2,4,13,10,6,3,8,7,11,9,5"
14984,commdev-image-keyboard-response,601,1112782,learnblock2,641,img/planet11_left.png,11,Community 3,NA,TRUE,f,f,NA,NA,NA,5,7,"15,12,14,1,2,4,13,10,6,3,8,7,11,9,5"
14984,commdev-image-keyboard-response,602,1114035,learnblock2,516,img/planet7_left.png,7,Community 3,NA,TRUE,f,f,NA,NA,NA,5,7,"15,12,14,1,2,4,13,10,6,3,8,7,11,9,5"
14984,commdev-image-keyboard-response,603,1115285,learnblock2,470,img/planet10_left.png,10,Community 2,NA,TRUE,f,f,NA,NA,NA,5,7,"15,12,14,1,2,4,13,10,6,3,8,7,11,9,5"
14984,commdev-image-keyboard-response,604,1116535,learnblock2,null,img/planet3_right.png,3,Community 2,NA,FALSE,null,j,NA,NA,NA,5,7,"15,12,14,1,2,4,13,10,6,3,8,7,11,9,5"
14984,commdev-image-keyboard-response,605,1117787,learnblock2,488,img/planet10_left.png,10,Community 2,NA,TRUE,f,f,NA,NA,NA,5,7,"15,12,14,1,2,4,13,10,6,3,8,7,11,9,5"
14984,commdev-image-keyboard-response,606,1119037,learnblock2,506,img/planet7_left.png,7,Community 3,NA,TRUE,f,f,NA,NA,NA,5,7,"15,12,14,1,2,4,13,10,6,3,8,7,11,9,5"
14984,commdev-image-keyboard-response,607,1120288,learnblock2,null,img/planet10_right.png,10,Community 2,NA,FALSE,null,j,NA,NA,NA,5,7,"15,12,14,1,2,4,13,10,6,3,8,7,11,9,5"
14984,commdev-image-keyboard-response,608,1121538,learnblock2,null,img/planet6_right.png,6,Community 2,NA,FALSE,null,j,NA,NA,NA,5,7,"15,12,14,1,2,4,13,10,6,3,8,7,11,9,5"
14984,commdev-image-keyboard-response,609,1122789,learnblock2,697,img/planet13_left.png,13,Community 2,NA,TRUE,f,f,NA,NA,NA,5,7,"15,12,14,1,2,4,13,10,6,3,8,7,11,9,5"
14984,commdev-image-keyboard-response,610,1124039,learnblock2,629,img/planet4_left.png,4,Community 2,NA,TRUE,f,f,NA,NA,NA,5,7,"15,12,14,1,2,4,13,10,6,3,8,7,11,9,5"
14984,commdev-image-keyboard-response,611,1125289,learnblock2,null,img/planet1_right.png,1,Community 1,NA,FALSE,null,j,NA,NA,NA,5,7,"15,12,14,1,2,4,13,10,6,3,8,7,11,9,5"
14984,commdev-image-keyboard-response,612,1126547,learnblock2,null,img/planet12_right.png,12,Community 1,NA,FALSE,null,j,NA,NA,NA,5,7,"15,12,14,1,2,4,13,10,6,3,8,7,11,9,5"
14984,commdev-image-keyboard-response,613,1127810,learnblock2,null,img/planet2_right.png,2,Community 1,NA,FALSE,null,j,NA,NA,NA,5,7,"15,12,14,1,2,4,13,10,6,3,8,7,11,9,5"
14984,commdev-image-keyboard-response,614,1129061,learnblock2,513,img/planet15_left.png,15,Community 1,NA,TRUE,f,f,NA,NA,NA,5,7,"15,12,14,1,2,4,13,10,6,3,8,7,11,9,5"
14984,commdev-image-keyboard-response,615,1130312,learnblock2,null,img/planet1_right.png,1,Community 1,NA,FALSE,null,j,NA,NA,NA,5,7,"15,12,14,1,2,4,13,10,6,3,8,7,11,9,5"
14984,commdev-image-keyboard-response,616,1131567,learnblock2,null,img/planet4_right.png,4,Community 2,NA,FALSE,null,j,NA,NA,NA,5,7,"15,12,14,1,2,4,13,10,6,3,8,7,11,9,5"
14984,commdev-image-keyboard-response,617,1132818,learnblock2,524,img/planet1_left.png,1,Community 1,NA,TRUE,f,f,NA,NA,NA,5,7,"15,12,14,1,2,4,13,10,6,3,8,7,11,9,5"
14984,commdev-image-keyboard-response,618,1134068,learnblock2,628,img/planet15_left.png,15,Community 1,NA,TRUE,f,f,NA,NA,NA,5,7,"15,12,14,1,2,4,13,10,6,3,8,7,11,9,5"
14984,commdev-image-keyboard-response,619,1135320,learnblock2,null,img/planet14_right.png,14,Community 1,NA,FALSE,null,j,NA,NA,NA,5,7,"15,12,14,1,2,4,13,10,6,3,8,7,11,9,5"
14984,commdev-image-keyboard-response,620,1136575,learnblock2,null,img/planet15_right.png,15,Community 1,NA,FALSE,null,j,NA,NA,NA,5,7,"15,12,14,1,2,4,13,10,6,3,8,7,11,9,5"
14984,commdev-image-keyboard-response,621,1137825,learnblock2,574,img/planet12_left.png,12,Community 1,NA,TRUE,f,f,NA,NA,NA,5,7,"15,12,14,1,2,4,13,10,6,3,8,7,11,9,5"
14984,commdev-image-keyboard-response,622,1139076,learnblock2,null,img/planet14_right.png,14,Community 1,NA,FALSE,null,j,NA,NA,NA,5,7,"15,12,14,1,2,4,13,10,6,3,8,7,11,9,5"
14984,commdev-image-keyboard-response,623,1140340,learnblock2,938,img/planet12_left.png,12,Community 1,NA,TRUE,f,f,NA,NA,NA,5,7,"15,12,14,1,2,4,13,10,6,3,8,7,11,9,5"
14984,commdev-image-keyboard-response,624,1141590,learnblock2,null,img/planet14_left.png,14,Community 1,NA,FALSE,null,f,NA,NA,NA,5,7,"15,12,14,1,2,4,13,10,6,3,8,7,11,9,5"
14984,commdev-image-keyboard-response,625,1142841,learnblock2,833,img/planet12_left.png,12,Community 1,NA,TRUE,f,f,NA,NA,NA,5,7,"15,12,14,1,2,4,13,10,6,3,8,7,11,9,5"
14984,commdev-image-keyboard-response,626,1144092,learnblock2,658,img/planet1_left.png,1,Community 1,NA,TRUE,f,f,NA,NA,NA,5,7,"15,12,14,1,2,4,13,10,6,3,8,7,11,9,5"
14984,commdev-image-keyboard-response,627,1145342,learnblock2,458,img/planet15_left.png,15,Community 1,NA,TRUE,f,f,NA,NA,NA,5,7,"15,12,14,1,2,4,13,10,6,3,8,7,11,9,5"
14984,commdev-image-keyboard-response,628,1146592,learnblock2,null,img/planet1_right.png,1,Community 1,NA,FALSE,null,j,NA,NA,NA,5,7,"15,12,14,1,2,4,13,10,6,3,8,7,11,9,5"
14984,commdev-image-keyboard-response,629,1147843,learnblock2,null,img/planet12_right.png,12,Community 1,NA,FALSE,null,j,NA,NA,NA,5,7,"15,12,14,1,2,4,13,10,6,3,8,7,11,9,5"
14984,commdev-image-keyboard-response,630,1149093,learnblock2,496,img/planet2_left.png,2,Community 1,NA,TRUE,f,f,NA,NA,NA,5,7,"15,12,14,1,2,4,13,10,6,3,8,7,11,9,5"
14984,commdev-image-keyboard-response,631,1150343,learnblock2,null,img/planet12_right.png,12,Community 1,NA,FALSE,null,j,NA,NA,NA,5,7,"15,12,14,1,2,4,13,10,6,3,8,7,11,9,5"
14984,commdev-image-keyboard-response,632,1151596,learnblock2,405,img/planet2_left.png,2,Community 1,NA,TRUE,f,f,NA,NA,NA,5,7,"15,12,14,1,2,4,13,10,6,3,8,7,11,9,5"
14984,commdev-image-keyboard-response,633,1152847,learnblock2,null,img/planet8_right.png,8,Community 3,NA,FALSE,null,j,NA,NA,NA,5,7,"15,12,14,1,2,4,13,10,6,3,8,7,11,9,5"
14984,commdev-image-keyboard-response,634,1154099,learnblock2,681,img/planet5_left.png,5,Community 3,NA,TRUE,f,f,NA,NA,NA,5,7,"15,12,14,1,2,4,13,10,6,3,8,7,11,9,5"
14984,commdev-image-keyboard-response,635,1155350,learnblock2,524,img/planet9_left.png,9,Community 3,NA,TRUE,f,f,NA,NA,NA,5,7,"15,12,14,1,2,4,13,10,6,3,8,7,11,9,5"
14984,commdev-image-keyboard-response,636,1156601,learnblock2,null,img/planet8_right.png,8,Community 3,NA,FALSE,null,j,NA,NA,NA,5,7,"15,12,14,1,2,4,13,10,6,3,8,7,11,9,5"
14984,commdev-image-keyboard-response,637,1157852,learnblock2,412,img/planet2_left.png,2,Community 1,NA,TRUE,f,f,NA,NA,NA,5,7,"15,12,14,1,2,4,13,10,6,3,8,7,11,9,5"
14984,commdev-image-keyboard-response,638,1159103,learnblock2,474,img/planet12_left.png,12,Community 1,NA,TRUE,f,f,NA,NA,NA,5,7,"15,12,14,1,2,4,13,10,6,3,8,7,11,9,5"
14984,commdev-image-keyboard-response,639,1160354,learnblock2,null,img/planet2_right.png,2,Community 1,NA,FALSE,null,j,NA,NA,NA,5,7,"15,12,14,1,2,4,13,10,6,3,8,7,11,9,5"
14984,commdev-image-keyboard-response,640,1161605,learnblock2,null,img/planet8_right.png,8,Community 3,NA,FALSE,null,j,NA,NA,NA,5,7,"15,12,14,1,2,4,13,10,6,3,8,7,11,9,5"
14984,commdev-image-keyboard-response,641,1162868,learnblock2,595,img/planet5_left.png,5,Community 3,NA,TRUE,f,f,NA,NA,NA,5,7,"15,12,14,1,2,4,13,10,6,3,8,7,11,9,5"
14984,commdev-image-keyboard-response,642,1164119,learnblock2,null,img/planet8_right.png,8,Community 3,NA,FALSE,null,j,NA,NA,NA,5,7,"15,12,14,1,2,4,13,10,6,3,8,7,11,9,5"
14984,commdev-image-keyboard-response,643,1165371,learnblock2,448,img/planet2_right.png,2,Community 1,NA,FALSE,f,j,NA,NA,NA,5,7,"15,12,14,1,2,4,13,10,6,3,8,7,11,9,5"
14984,commdev-image-keyboard-response,644,1166627,learnblock2,649,img/planet14_left.png,14,Community 1,NA,TRUE,f,f,NA,NA,NA,5,7,"15,12,14,1,2,4,13,10,6,3,8,7,11,9,5"
14984,commdev-image-keyboard-response,645,1167878,learnblock2,554,img/planet2_left.png,2,Community 1,NA,TRUE,f,f,NA,NA,NA,5,7,"15,12,14,1,2,4,13,10,6,3,8,7,11,9,5"
14984,commdev-image-keyboard-response,646,1169129,learnblock2,null,img/planet15_right.png,15,Community 1,NA,FALSE,null,j,NA,NA,NA,5,7,"15,12,14,1,2,4,13,10,6,3,8,7,11,9,5"
14984,commdev-image-keyboard-response,647,1170380,learnblock2,571,img/planet1_left.png,1,Community 1,NA,TRUE,f,f,NA,NA,NA,5,7,"15,12,14,1,2,4,13,10,6,3,8,7,11,9,5"
14984,commdev-image-keyboard-response,648,1171631,learnblock2,null,img/planet12_right.png,12,Community 1,NA,FALSE,null,j,NA,NA,NA,5,7,"15,12,14,1,2,4,13,10,6,3,8,7,11,9,5"
14984,commdev-image-keyboard-response,649,1172882,learnblock2,696,img/planet1_left.png,1,Community 1,NA,TRUE,f,f,NA,NA,NA,5,7,"15,12,14,1,2,4,13,10,6,3,8,7,11,9,5"
14984,commdev-image-keyboard-response,650,1174143,learnblock2,null,img/planet4_right.png,4,Community 2,NA,FALSE,null,j,NA,NA,NA,5,7,"15,12,14,1,2,4,13,10,6,3,8,7,11,9,5"
14984,commdev-image-keyboard-response,651,1175394,learnblock2,null,img/planet3_right.png,3,Community 2,NA,FALSE,null,j,NA,NA,NA,5,7,"15,12,14,1,2,4,13,10,6,3,8,7,11,9,5"
14984,commdev-image-keyboard-response,652,1176645,learnblock2,null,img/planet6_right.png,6,Community 2,NA,FALSE,null,j,NA,NA,NA,5,7,"15,12,14,1,2,4,13,10,6,3,8,7,11,9,5"
14984,commdev-image-keyboard-response,653,1177897,learnblock2,null,img/planet3_right.png,3,Community 2,NA,FALSE,null,j,NA,NA,NA,5,7,"15,12,14,1,2,4,13,10,6,3,8,7,11,9,5"
14984,commdev-image-keyboard-response,654,1179162,learnblock2,673,img/planet6_left.png,6,Community 2,NA,TRUE,f,f,NA,NA,NA,5,7,"15,12,14,1,2,4,13,10,6,3,8,7,11,9,5"
14984,commdev-image-keyboard-response,655,1180413,learnblock2,505,img/planet10_left.png,10,Community 2,NA,TRUE,f,f,NA,NA,NA,5,7,"15,12,14,1,2,4,13,10,6,3,8,7,11,9,5"
14984,commdev-image-keyboard-response,656,1181663,learnblock2,569,img/planet3_left.png,3,Community 2,NA,TRUE,f,f,NA,NA,NA,5,7,"15,12,14,1,2,4,13,10,6,3,8,7,11,9,5"
14984,commdev-image-keyboard-response,657,1182915,learnblock2,null,img/planet6_right.png,6,Community 2,NA,FALSE,null,j,NA,NA,NA,5,7,"15,12,14,1,2,4,13,10,6,3,8,7,11,9,5"
14984,commdev-image-keyboard-response,658,1184165,learnblock2,434,img/planet10_left.png,10,Community 2,NA,TRUE,f,f,NA,NA,NA,5,7,"15,12,14,1,2,4,13,10,6,3,8,7,11,9,5"
14984,commdev-image-keyboard-response,659,1185421,learnblock2,null,img/planet13_right.png,13,Community 2,NA,FALSE,null,j,NA,NA,NA,5,7,"15,12,14,1,2,4,13,10,6,3,8,7,11,9,5"
14984,commdev-image-keyboard-response,660,1186671,learnblock2,643,img/planet3_left.png,3,Community 2,NA,TRUE,f,f,NA,NA,NA,5,7,"15,12,14,1,2,4,13,10,6,3,8,7,11,9,5"
14984,commdev-image-keyboard-response,661,1187922,learnblock2,511,img/planet4_left.png,4,Community 2,NA,TRUE,f,f,NA,NA,NA,5,7,"15,12,14,1,2,4,13,10,6,3,8,7,11,9,5"
14984,commdev-image-keyboard-response,662,1189172,learnblock2,487,img/planet1_left.png,1,Community 1,NA,TRUE,f,f,NA,NA,NA,5,7,"15,12,14,1,2,4,13,10,6,3,8,7,11,9,5"
14984,commdev-image-keyboard-response,663,1190423,learnblock2,464,img/planet12_left.png,12,Community 1,NA,TRUE,f,f,NA,NA,NA,5,7,"15,12,14,1,2,4,13,10,6,3,8,7,11,9,5"
14984,commdev-image-keyboard-response,664,1191681,learnblock2,null,img/planet14_right.png,14,Community 1,NA,FALSE,null,j,NA,NA,NA,5,7,"15,12,14,1,2,4,13,10,6,3,8,7,11,9,5"
14984,commdev-image-keyboard-response,665,1192932,learnblock2,451,img/planet12_left.png,12,Community 1,NA,TRUE,f,f,NA,NA,NA,5,7,"15,12,14,1,2,4,13,10,6,3,8,7,11,9,5"
14984,commdev-image-keyboard-response,666,1194182,learnblock2,null,img/planet14_right.png,14,Community 1,NA,FALSE,null,j,NA,NA,NA,5,7,"15,12,14,1,2,4,13,10,6,3,8,7,11,9,5"
14984,commdev-image-keyboard-response,667,1195433,learnblock2,426,img/planet2_left.png,2,Community 1,NA,TRUE,f,f,NA,NA,NA,5,7,"15,12,14,1,2,4,13,10,6,3,8,7,11,9,5"
14984,commdev-image-keyboard-response,668,1196683,learnblock2,532,img/planet15_left.png,15,Community 1,NA,TRUE,f,f,NA,NA,NA,5,7,"15,12,14,1,2,4,13,10,6,3,8,7,11,9,5"
14984,commdev-image-keyboard-response,669,1197933,learnblock2,445,img/planet2_left.png,2,Community 1,NA,TRUE,f,f,NA,NA,NA,5,7,"15,12,14,1,2,4,13,10,6,3,8,7,11,9,5"
14984,commdev-image-keyboard-response,670,1199183,learnblock2,442,img/planet15_left.png,15,Community 1,NA,TRUE,f,f,NA,NA,NA,5,7,"15,12,14,1,2,4,13,10,6,3,8,7,11,9,5"
14984,commdev-image-keyboard-response,671,1200434,learnblock2,null,img/planet14_right.png,14,Community 1,NA,FALSE,null,j,NA,NA,NA,5,7,"15,12,14,1,2,4,13,10,6,3,8,7,11,9,5"
14984,commdev-image-keyboard-response,672,1201684,learnblock2,null,img/planet2_right.png,2,Community 1,NA,FALSE,null,j,NA,NA,NA,5,7,"15,12,14,1,2,4,13,10,6,3,8,7,11,9,5"
14984,commdev-image-keyboard-response,673,1202935,learnblock2,438,img/planet15_left.png,15,Community 1,NA,TRUE,f,f,NA,NA,NA,5,7,"15,12,14,1,2,4,13,10,6,3,8,7,11,9,5"
14984,commdev-image-keyboard-response,674,1204198,learnblock2,null,img/planet14_right.png,14,Community 1,NA,FALSE,null,j,NA,NA,NA,5,7,"15,12,14,1,2,4,13,10,6,3,8,7,11,9,5"
14984,commdev-image-keyboard-response,675,1205449,learnblock2,488,img/planet2_left.png,2,Community 1,NA,TRUE,f,f,NA,NA,NA,5,7,"15,12,14,1,2,4,13,10,6,3,8,7,11,9,5"
14984,commdev-image-keyboard-response,676,1206699,learnblock2,463,img/planet15_left.png,15,Community 1,NA,TRUE,f,f,NA,NA,NA,5,7,"15,12,14,1,2,4,13,10,6,3,8,7,11,9,5"
14984,commdev-image-keyboard-response,677,1207950,learnblock2,null,img/planet1_right.png,1,Community 1,NA,FALSE,null,j,NA,NA,NA,5,7,"15,12,14,1,2,4,13,10,6,3,8,7,11,9,5"
14984,commdev-image-keyboard-response,678,1209201,learnblock2,null,img/planet12_right.png,12,Community 1,NA,FALSE,null,j,NA,NA,NA,5,7,"15,12,14,1,2,4,13,10,6,3,8,7,11,9,5"
14984,commdev-image-keyboard-response,679,1210451,learnblock2,501,img/planet15_left.png,15,Community 1,NA,TRUE,f,f,NA,NA,NA,5,7,"15,12,14,1,2,4,13,10,6,3,8,7,11,9,5"
14984,commdev-image-keyboard-response,680,1211702,learnblock2,null,img/planet14_right.png,14,Community 1,NA,FALSE,null,j,NA,NA,NA,5,7,"15,12,14,1,2,4,13,10,6,3,8,7,11,9,5"
14984,commdev-image-keyboard-response,681,1212953,learnblock2,496,img/planet15_left.png,15,Community 1,NA,TRUE,f,f,NA,NA,NA,5,7,"15,12,14,1,2,4,13,10,6,3,8,7,11,9,5"
14984,commdev-image-keyboard-response,682,1214203,learnblock2,496,img/planet12_left.png,12,Community 1,NA,TRUE,f,f,NA,NA,NA,5,7,"15,12,14,1,2,4,13,10,6,3,8,7,11,9,5"
14984,commdev-image-keyboard-response,683,1215454,learnblock2,428,img/planet2_left.png,2,Community 1,NA,TRUE,f,f,NA,NA,NA,5,7,"15,12,14,1,2,4,13,10,6,3,8,7,11,9,5"
14984,commdev-image-keyboard-response,684,1216705,learnblock2,492,img/planet15_left.png,15,Community 1,NA,TRUE,f,f,NA,NA,NA,5,7,"15,12,14,1,2,4,13,10,6,3,8,7,11,9,5"
14984,commdev-image-keyboard-response,685,1217956,learnblock2,422,img/planet12_left.png,12,Community 1,NA,TRUE,f,f,NA,NA,NA,5,7,"15,12,14,1,2,4,13,10,6,3,8,7,11,9,5"
14984,commdev-image-keyboard-response,686,1219208,learnblock2,354,img/planet2_left.png,2,Community 1,NA,TRUE,f,f,NA,NA,NA,5,7,"15,12,14,1,2,4,13,10,6,3,8,7,11,9,5"
14984,commdev-image-keyboard-response,687,1220458,learnblock2,null,img/planet15_right.png,15,Community 1,NA,FALSE,null,j,NA,NA,NA,5,7,"15,12,14,1,2,4,13,10,6,3,8,7,11,9,5"
14984,commdev-image-keyboard-response,688,1221708,learnblock2,null,img/planet2_right.png,2,Community 1,NA,FALSE,null,j,NA,NA,NA,5,7,"15,12,14,1,2,4,13,10,6,3,8,7,11,9,5"
14984,commdev-image-keyboard-response,689,1222959,learnblock2,479,img/planet15_left.png,15,Community 1,NA,TRUE,f,f,NA,NA,NA,5,7,"15,12,14,1,2,4,13,10,6,3,8,7,11,9,5"
14984,commdev-image-keyboard-response,690,1224210,learnblock2,389,img/planet2_left.png,2,Community 1,NA,TRUE,f,f,NA,NA,NA,5,7,"15,12,14,1,2,4,13,10,6,3,8,7,11,9,5"
14984,commdev-image-keyboard-response,691,1225461,learnblock2,497,img/planet15_left.png,15,Community 1,NA,TRUE,f,f,NA,NA,NA,5,7,"15,12,14,1,2,4,13,10,6,3,8,7,11,9,5"
14984,commdev-image-keyboard-response,692,1226712,learnblock2,495,img/planet2_left.png,2,Community 1,NA,TRUE,f,f,NA,NA,NA,5,7,"15,12,14,1,2,4,13,10,6,3,8,7,11,9,5"
14984,commdev-image-keyboard-response,693,1227963,learnblock2,361,img/planet8_left.png,8,Community 3,NA,TRUE,f,f,NA,NA,NA,5,7,"15,12,14,1,2,4,13,10,6,3,8,7,11,9,5"
14984,commdev-image-keyboard-response,694,1229213,learnblock2,535,img/planet5_left.png,5,Community 3,NA,TRUE,f,f,NA,NA,NA,5,7,"15,12,14,1,2,4,13,10,6,3,8,7,11,9,5"
14984,commdev-image-keyboard-response,695,1230465,learnblock2,null,img/planet8_right.png,8,Community 3,NA,FALSE,null,j,NA,NA,NA,5,7,"15,12,14,1,2,4,13,10,6,3,8,7,11,9,5"
14984,commdev-image-keyboard-response,696,1231716,learnblock2,487,img/planet5_left.png,5,Community 3,NA,TRUE,f,f,NA,NA,NA,5,7,"15,12,14,1,2,4,13,10,6,3,8,7,11,9,5"
14984,commdev-image-keyboard-response,697,1232966,learnblock2,null,img/planet9_right.png,9,Community 3,NA,FALSE,null,j,NA,NA,NA,5,7,"15,12,14,1,2,4,13,10,6,3,8,7,11,9,5"
14984,commdev-image-keyboard-response,698,1234218,learnblock2,547,img/planet5_left.png,5,Community 3,NA,TRUE,f,f,NA,NA,NA,5,7,"15,12,14,1,2,4,13,10,6,3,8,7,11,9,5"
14984,commdev-image-keyboard-response,699,1235469,learnblock2,611,img/planet8_left.png,8,Community 3,NA,TRUE,f,f,NA,NA,NA,5,7,"15,12,14,1,2,4,13,10,6,3,8,7,11,9,5"
14984,commdev-image-keyboard-response,700,1236719,learnblock2,null,img/planet11_right.png,11,Community 3,NA,FALSE,null,j,NA,NA,NA,5,7,"15,12,14,1,2,4,13,10,6,3,8,7,11,9,5"
14984,commdev-image-keyboard-response,701,1237969,learnblock2,null,img/planet5_right.png,5,Community 3,NA,FALSE,null,j,NA,NA,NA,5,7,"15,12,14,1,2,4,13,10,6,3,8,7,11,9,5"
14984,commdev-image-keyboard-response,702,1239222,learnblock2,null,img/planet8_right.png,8,Community 3,NA,FALSE,null,j,NA,NA,NA,5,7,"15,12,14,1,2,4,13,10,6,3,8,7,11,9,5"
14984,commdev-image-keyboard-response,703,1240472,learnblock2,472,img/planet2_left.png,2,Community 1,NA,TRUE,f,f,NA,NA,NA,5,7,"15,12,14,1,2,4,13,10,6,3,8,7,11,9,5"
14984,commdev-image-keyboard-response,704,1241723,learnblock2,null,img/planet8_right.png,8,Community 3,NA,FALSE,null,j,NA,NA,NA,5,7,"15,12,14,1,2,4,13,10,6,3,8,7,11,9,5"
14984,commdev-image-keyboard-response,705,1242974,learnblock2,511,img/planet2_right.png,2,Community 1,NA,FALSE,f,j,NA,NA,NA,5,7,"15,12,14,1,2,4,13,10,6,3,8,7,11,9,5"
14984,commdev-image-keyboard-response,706,1244224,learnblock2,474,img/planet12_left.png,12,Community 1,NA,TRUE,f,f,NA,NA,NA,5,7,"15,12,14,1,2,4,13,10,6,3,8,7,11,9,5"
14984,commdev-image-keyboard-response,707,1245487,learnblock2,null,img/planet1_right.png,1,Community 1,NA,FALSE,null,j,NA,NA,NA,5,7,"15,12,14,1,2,4,13,10,6,3,8,7,11,9,5"
14984,commdev-image-keyboard-response,708,1246737,learnblock2,null,img/planet12_right.png,12,Community 1,NA,FALSE,null,j,NA,NA,NA,5,7,"15,12,14,1,2,4,13,10,6,3,8,7,11,9,5"
14984,commdev-image-keyboard-response,709,1247988,learnblock2,null,img/planet14_right.png,14,Community 1,NA,FALSE,null,j,NA,NA,NA,5,7,"15,12,14,1,2,4,13,10,6,3,8,7,11,9,5"
14984,commdev-image-keyboard-response,710,1249239,learnblock2,457,img/planet1_left.png,1,Community 1,NA,TRUE,f,f,NA,NA,NA,5,7,"15,12,14,1,2,4,13,10,6,3,8,7,11,9,5"
14984,commdev-image-keyboard-response,711,1250489,learnblock2,null,img/planet4_right.png,4,Community 2,NA,FALSE,null,j,NA,NA,NA,5,7,"15,12,14,1,2,4,13,10,6,3,8,7,11,9,5"
14984,commdev-image-keyboard-response,712,1251739,learnblock2,null,img/planet6_right.png,6,Community 2,NA,FALSE,null,j,NA,NA,NA,5,7,"15,12,14,1,2,4,13,10,6,3,8,7,11,9,5"
14984,commdev-image-keyboard-response,713,1252990,learnblock2,430,img/planet10_left.png,10,Community 2,NA,TRUE,f,f,NA,NA,NA,5,7,"15,12,14,1,2,4,13,10,6,3,8,7,11,9,5"
14984,commdev-image-keyboard-response,714,1254240,learnblock2,472,img/planet13_left.png,13,Community 2,NA,TRUE,f,f,NA,NA,NA,5,7,"15,12,14,1,2,4,13,10,6,3,8,7,11,9,5"
14984,commdev-image-keyboard-response,715,1255490,learnblock2,623,img/planet3_left.png,3,Community 2,NA,TRUE,f,f,NA,NA,NA,5,7,"15,12,14,1,2,4,13,10,6,3,8,7,11,9,5"
14984,commdev-image-keyboard-response,716,1256741,learnblock2,427,img/planet13_left.png,13,Community 2,NA,TRUE,f,f,NA,NA,NA,5,7,"15,12,14,1,2,4,13,10,6,3,8,7,11,9,5"
14984,commdev-image-keyboard-response,717,1257992,learnblock2,null,img/planet10_right.png,10,Community 2,NA,FALSE,null,j,NA,NA,NA,5,7,"15,12,14,1,2,4,13,10,6,3,8,7,11,9,5"
14984,commdev-image-keyboard-response,718,1259243,learnblock2,552,img/planet7_left.png,7,Community 3,NA,TRUE,f,f,NA,NA,NA,5,7,"15,12,14,1,2,4,13,10,6,3,8,7,11,9,5"
14984,commdev-image-keyboard-response,719,1260493,learnblock2,487,img/planet10_right.png,10,Community 2,NA,FALSE,f,j,NA,NA,NA,5,7,"15,12,14,1,2,4,13,10,6,3,8,7,11,9,5"
14984,commdev-image-keyboard-response,720,1261744,learnblock2,null,img/planet7_right.png,7,Community 3,NA,FALSE,null,j,NA,NA,NA,5,7,"15,12,14,1,2,4,13,10,6,3,8,7,11,9,5"
14984,commdev-image-keyboard-response,721,1262995,learnblock2,646,img/planet9_left.png,9,Community 3,NA,TRUE,f,f,NA,NA,NA,5,7,"15,12,14,1,2,4,13,10,6,3,8,7,11,9,5"
14984,commdev-image-keyboard-response,722,1264245,learnblock2,468,img/planet5_left.png,5,Community 3,NA,TRUE,f,f,NA,NA,NA,5,7,"15,12,14,1,2,4,13,10,6,3,8,7,11,9,5"
14984,commdev-image-keyboard-response,723,1265496,learnblock2,null,img/planet11_right.png,11,Community 3,NA,FALSE,null,j,NA,NA,NA,5,7,"15,12,14,1,2,4,13,10,6,3,8,7,11,9,5"
14984,commdev-image-keyboard-response,724,1266748,learnblock2,443,img/planet9_left.png,9,Community 3,NA,TRUE,f,f,NA,NA,NA,5,7,"15,12,14,1,2,4,13,10,6,3,8,7,11,9,5"
14984,commdev-image-keyboard-response,725,1267999,learnblock2,462,img/planet5_left.png,5,Community 3,NA,TRUE,f,f,NA,NA,NA,5,7,"15,12,14,1,2,4,13,10,6,3,8,7,11,9,5"
14984,commdev-image-keyboard-response,726,1269249,learnblock2,548,img/planet7_left.png,7,Community 3,NA,TRUE,f,f,NA,NA,NA,5,7,"15,12,14,1,2,4,13,10,6,3,8,7,11,9,5"
14984,commdev-image-keyboard-response,727,1270500,learnblock2,null,img/planet5_right.png,5,Community 3,NA,FALSE,null,j,NA,NA,NA,5,7,"15,12,14,1,2,4,13,10,6,3,8,7,11,9,5"
14984,commdev-image-keyboard-response,728,1271751,learnblock2,545,img/planet7_left.png,7,Community 3,NA,TRUE,f,f,NA,NA,NA,5,7,"15,12,14,1,2,4,13,10,6,3,8,7,11,9,5"
14984,commdev-image-keyboard-response,729,1273002,learnblock2,null,img/planet11_right.png,11,Community 3,NA,FALSE,null,j,NA,NA,NA,5,7,"15,12,14,1,2,4,13,10,6,3,8,7,11,9,5"
14984,commdev-image-keyboard-response,730,1274252,learnblock2,null,img/planet9_right.png,9,Community 3,NA,FALSE,null,j,NA,NA,NA,5,7,"15,12,14,1,2,4,13,10,6,3,8,7,11,9,5"
14984,commdev-image-keyboard-response,731,1275503,learnblock2,474,img/planet7_left.png,7,Community 3,NA,TRUE,f,f,NA,NA,NA,5,7,"15,12,14,1,2,4,13,10,6,3,8,7,11,9,5"
14984,commdev-image-keyboard-response,732,1276754,learnblock2,471,img/planet11_left.png,11,Community 3,NA,TRUE,f,f,NA,NA,NA,5,7,"15,12,14,1,2,4,13,10,6,3,8,7,11,9,5"
14984,commdev-image-keyboard-response,733,1278005,learnblock2,null,img/planet8_right.png,8,Community 3,NA,FALSE,null,j,NA,NA,NA,5,7,"15,12,14,1,2,4,13,10,6,3,8,7,11,9,5"
14984,commdev-image-keyboard-response,734,1279256,learnblock2,null,img/planet9_right.png,9,Community 3,NA,FALSE,null,j,NA,NA,NA,5,7,"15,12,14,1,2,4,13,10,6,3,8,7,11,9,5"
14984,commdev-image-keyboard-response,735,1280506,learnblock2,null,img/planet5_right.png,5,Community 3,NA,FALSE,null,j,NA,NA,NA,5,7,"15,12,14,1,2,4,13,10,6,3,8,7,11,9,5"
14984,commdev-image-keyboard-response,736,1281757,learnblock2,462,img/planet8_left.png,8,Community 3,NA,TRUE,f,f,NA,NA,NA,5,7,"15,12,14,1,2,4,13,10,6,3,8,7,11,9,5"
14984,commdev-image-keyboard-response,737,1283007,learnblock2,549,img/planet11_left.png,11,Community 3,NA,TRUE,f,f,NA,NA,NA,5,7,"15,12,14,1,2,4,13,10,6,3,8,7,11,9,5"
14984,commdev-image-keyboard-response,738,1284258,learnblock2,null,img/planet5_right.png,5,Community 3,NA,FALSE,null,j,NA,NA,NA,5,7,"15,12,14,1,2,4,13,10,6,3,8,7,11,9,5"
14984,commdev-image-keyboard-response,739,1285509,learnblock2,566,img/planet8_left.png,8,Community 3,NA,TRUE,f,f,NA,NA,NA,5,7,"15,12,14,1,2,4,13,10,6,3,8,7,11,9,5"
14984,commdev-image-keyboard-response,740,1286760,learnblock2,454,img/planet11_left.png,11,Community 3,NA,TRUE,f,f,NA,NA,NA,5,7,"15,12,14,1,2,4,13,10,6,3,8,7,11,9,5"
14984,commdev-image-keyboard-response,741,1288011,learnblock2,519,img/planet5_left.png,5,Community 3,NA,TRUE,f,f,NA,NA,NA,5,7,"15,12,14,1,2,4,13,10,6,3,8,7,11,9,5"
14984,commdev-image-keyboard-response,742,1289262,learnblock2,null,img/planet11_right.png,11,Community 3,NA,FALSE,null,j,NA,NA,NA,5,7,"15,12,14,1,2,4,13,10,6,3,8,7,11,9,5"
14984,commdev-image-keyboard-response,743,1290513,learnblock2,471,img/planet9_left.png,9,Community 3,NA,TRUE,f,f,NA,NA,NA,5,7,"15,12,14,1,2,4,13,10,6,3,8,7,11,9,5"
14984,commdev-image-keyboard-response,744,1291764,learnblock2,403,img/planet11_left.png,11,Community 3,NA,TRUE,f,f,NA,NA,NA,5,7,"15,12,14,1,2,4,13,10,6,3,8,7,11,9,5"
14984,commdev-image-keyboard-response,745,1293014,learnblock2,444,img/planet9_left.png,9,Community 3,NA,TRUE,f,f,NA,NA,NA,5,7,"15,12,14,1,2,4,13,10,6,3,8,7,11,9,5"
14984,commdev-image-keyboard-response,746,1294265,learnblock2,null,img/planet11_right.png,11,Community 3,NA,FALSE,null,j,NA,NA,NA,5,7,"15,12,14,1,2,4,13,10,6,3,8,7,11,9,5"
14984,commdev-image-keyboard-response,747,1295515,learnblock2,486,img/planet7_left.png,7,Community 3,NA,TRUE,f,f,NA,NA,NA,5,7,"15,12,14,1,2,4,13,10,6,3,8,7,11,9,5"
14984,commdev-image-keyboard-response,748,1296766,learnblock2,354,img/planet9_left.png,9,Community 3,NA,TRUE,f,f,NA,NA,NA,5,7,"15,12,14,1,2,4,13,10,6,3,8,7,11,9,5"
14984,commdev-image-keyboard-response,749,1298016,learnblock2,372,img/planet11_left.png,11,Community 3,NA,TRUE,f,f,NA,NA,NA,5,7,"15,12,14,1,2,4,13,10,6,3,8,7,11,9,5"
14984,commdev-image-keyboard-response,750,1299268,learnblock2,393,img/planet9_left.png,9,Community 3,NA,TRUE,f,f,NA,NA,NA,5,7,"15,12,14,1,2,4,13,10,6,3,8,7,11,9,5"
14984,commdev-image-keyboard-response,751,1300518,learnblock2,325,img/planet11_right.png,11,Community 3,NA,FALSE,f,j,NA,NA,NA,5,7,"15,12,14,1,2,4,13,10,6,3,8,7,11,9,5"
14984,commdev-image-keyboard-response,752,1301769,learnblock2,null,img/planet7_right.png,7,Community 3,NA,FALSE,null,j,NA,NA,NA,5,7,"15,12,14,1,2,4,13,10,6,3,8,7,11,9,5"
14984,commdev-image-keyboard-response,753,1303019,learnblock2,null,img/planet5_right.png,5,Community 3,NA,FALSE,null,j,NA,NA,NA,5,7,"15,12,14,1,2,4,13,10,6,3,8,7,11,9,5"
14984,commdev-image-keyboard-response,754,1304270,learnblock2,null,img/planet11_right.png,11,Community 3,NA,FALSE,null,j,NA,NA,NA,5,7,"15,12,14,1,2,4,13,10,6,3,8,7,11,9,5"
14984,commdev-image-keyboard-response,755,1305521,learnblock2,457,img/planet8_left.png,8,Community 3,NA,TRUE,f,f,NA,NA,NA,5,7,"15,12,14,1,2,4,13,10,6,3,8,7,11,9,5"
14984,commdev-image-keyboard-response,756,1306772,learnblock2,null,img/planet2_right.png,2,Community 1,NA,FALSE,null,j,NA,NA,NA,5,7,"15,12,14,1,2,4,13,10,6,3,8,7,11,9,5"
14984,commdev-image-keyboard-response,757,1308022,learnblock2,476,img/planet12_left.png,12,Community 1,NA,TRUE,f,f,NA,NA,NA,5,7,"15,12,14,1,2,4,13,10,6,3,8,7,11,9,5"
14984,commdev-image-keyboard-response,758,1309274,learnblock2,null,img/planet1_right.png,1,Community 1,NA,FALSE,null,j,NA,NA,NA,5,7,"15,12,14,1,2,4,13,10,6,3,8,7,11,9,5"
14984,commdev-image-keyboard-response,759,1310524,learnblock2,582,img/planet15_right.png,15,Community 1,NA,FALSE,f,j,NA,NA,NA,5,7,"15,12,14,1,2,4,13,10,6,3,8,7,11,9,5"
14984,commdev-image-keyboard-response,760,1311775,learnblock2,501,img/planet12_left.png,12,Community 1,NA,TRUE,f,f,NA,NA,NA,5,7,"15,12,14,1,2,4,13,10,6,3,8,7,11,9,5"
14984,commdev-image-keyboard-response,761,1313026,learnblock2,674,img/planet14_left.png,14,Community 1,NA,TRUE,f,f,NA,NA,NA,5,7,"15,12,14,1,2,4,13,10,6,3,8,7,11,9,5"
14984,commdev-image-keyboard-response,762,1314277,learnblock2,null,img/planet15_right.png,15,Community 1,NA,FALSE,null,j,NA,NA,NA,5,7,"15,12,14,1,2,4,13,10,6,3,8,7,11,9,5"
14984,commdev-image-keyboard-response,763,1315527,learnblock2,null,img/planet2_right.png,2,Community 1,NA,FALSE,null,j,NA,NA,NA,5,7,"15,12,14,1,2,4,13,10,6,3,8,7,11,9,5"
14984,commdev-image-keyboard-response,764,1316778,learnblock2,470,img/planet14_left.png,14,Community 1,NA,TRUE,f,f,NA,NA,NA,5,7,"15,12,14,1,2,4,13,10,6,3,8,7,11,9,5"
14984,commdev-image-keyboard-response,765,1318028,learnblock2,null,img/planet2_right.png,2,Community 1,NA,FALSE,null,j,NA,NA,NA,5,7,"15,12,14,1,2,4,13,10,6,3,8,7,11,9,5"
14984,commdev-image-keyboard-response,766,1319279,learnblock2,null,img/planet12_right.png,12,Community 1,NA,FALSE,null,j,NA,NA,NA,5,7,"15,12,14,1,2,4,13,10,6,3,8,7,11,9,5"
14984,commdev-image-keyboard-response,767,1320530,learnblock2,null,img/planet1_right.png,1,Community 1,NA,FALSE,null,j,NA,NA,NA,5,7,"15,12,14,1,2,4,13,10,6,3,8,7,11,9,5"
14984,commdev-image-keyboard-response,768,1321780,learnblock2,508,img/planet12_left.png,12,Community 1,NA,TRUE,f,f,NA,NA,NA,5,7,"15,12,14,1,2,4,13,10,6,3,8,7,11,9,5"
14984,commdev-image-keyboard-response,769,1323030,learnblock2,null,img/planet1_right.png,1,Community 1,NA,FALSE,null,j,NA,NA,NA,5,7,"15,12,14,1,2,4,13,10,6,3,8,7,11,9,5"
14984,commdev-image-keyboard-response,770,1324281,learnblock2,482,img/planet14_left.png,14,Community 1,NA,TRUE,f,f,NA,NA,NA,5,7,"15,12,14,1,2,4,13,10,6,3,8,7,11,9,5"
14984,commdev-image-keyboard-response,771,1325532,learnblock2,null,img/planet15_right.png,15,Community 1,NA,FALSE,null,j,NA,NA,NA,5,7,"15,12,14,1,2,4,13,10,6,3,8,7,11,9,5"
14984,commdev-image-keyboard-response,772,1326782,learnblock2,478,img/planet1_left.png,1,Community 1,NA,TRUE,f,f,NA,NA,NA,5,7,"15,12,14,1,2,4,13,10,6,3,8,7,11,9,5"
14984,commdev-image-keyboard-response,773,1328033,learnblock2,520,img/planet14_left.png,14,Community 1,NA,TRUE,f,f,NA,NA,NA,5,7,"15,12,14,1,2,4,13,10,6,3,8,7,11,9,5"
14984,commdev-image-keyboard-response,774,1329284,learnblock2,null,img/planet2_right.png,2,Community 1,NA,FALSE,null,j,NA,NA,NA,5,7,"15,12,14,1,2,4,13,10,6,3,8,7,11,9,5"
14984,commdev-image-keyboard-response,775,1330534,learnblock2,472,img/planet15_left.png,15,Community 1,NA,TRUE,f,f,NA,NA,NA,5,7,"15,12,14,1,2,4,13,10,6,3,8,7,11,9,5"
14984,commdev-image-keyboard-response,776,1331790,learnblock2,537,img/planet12_left.png,12,Community 1,NA,TRUE,f,f,NA,NA,NA,5,7,"15,12,14,1,2,4,13,10,6,3,8,7,11,9,5"
14984,commdev-image-keyboard-response,777,1333040,learnblock2,null,img/planet2_right.png,2,Community 1,NA,FALSE,null,j,NA,NA,NA,5,7,"15,12,14,1,2,4,13,10,6,3,8,7,11,9,5"
14984,commdev-image-keyboard-response,778,1334291,learnblock2,null,img/planet12_right.png,12,Community 1,NA,FALSE,null,j,NA,NA,NA,5,7,"15,12,14,1,2,4,13,10,6,3,8,7,11,9,5"
