subject_id,trial_type,trial_index,time_elapsed,block,rt,stimulus,planet,community,response,correct,key_press,learning_correct_response,parse,init_locations,final_locations,browser_interactions,num_comp,planet_map
14397,commdev-instructions,7,29254,NA,2998.5,"<p>In this game, you are a scientist on board a space shuttle. </p><p> On each mission, you will visit planets all across the universe.</p><img src=""img/controlroom.jpg"" width=300vw>",NA,NA,NA,NA,NA,NA,NA,NA,NA,2,6,"9,2,11,4,13,15,14,3,1,7,8,10,12,5,6"
14397,commdev-instructions,8,31863,NA,528.7000000001863,"<p>Here are a few planets you might see:</p><img src=""img/practice1.png"" width=200vw><img src=""img/practice2.png"" width=200vw><img src=""img/practice3.png"" width=200vw>",NA,NA,NA,NA,NA,NA,NA,NA,NA,2,6,"9,2,11,4,13,15,14,3,1,7,8,10,12,5,6"
14397,commdev-instructions,9,40056,NA,798.5999999996275,"<p>Your job as a scientist is to record which direction the winds are moving on each planet.</p><p>There are two types of wind directions:</p><img src=""img/practice1_left.png"" width=200vw><img src=""img/practice1_right.png"" width=200vw>",NA,NA,NA,NA,NA,NA,NA,NA,NA,2,6,"9,2,11,4,13,15,14,3,1,7,8,10,12,5,6"
14397,commdev-instructions,10,46260,NA,1327.2999999998137,"<p>If the winds are moving this way, press the letter <strong>F</strong> on the keyboard as fast as you can.</p><img src=""img/leftwind.png"" width=250vw>",NA,NA,NA,NA,NA,NA,NA,NA,NA,2,6,"9,2,11,4,13,15,14,3,1,7,8,10,12,5,6"
14397,commdev-instructions,11,52356,NA,1600,"<p>If the winds are moving this way, press the letter <strong>J</strong> on the keyboard as fast as you can.</p><img src=""img/rightwind.png"" width=350vw>",NA,NA,NA,NA,NA,NA,NA,NA,NA,2,6,"9,2,11,4,13,15,14,3,1,7,8,10,12,5,6"
14397,commdev-instructions,12,58185,NA,1412.2999999998137,<p>You will have 1 second to respond. Try to respond before the time runs out!,NA,NA,NA,NA,NA,NA,NA,NA,NA,2,6,"9,2,11,4,13,15,14,3,1,7,8,10,12,5,6"
14397,commdev-instructions,13,65106,NA,1485.800000000745,<p>The planets you will visit will look different from each other.</p><p>You should respond <strong>only</strong> based on wind direction.,NA,NA,NA,NA,NA,NA,NA,NA,NA,2,6,"9,2,11,4,13,15,14,3,1,7,8,10,12,5,6"
14397,commdev-instructions,14,71938,NA,1660.0999999996275,"<p> Ready to start the practice round? </p><p> Remember, press <strong>F</strong> or <strong>J</strong> depending on the wind direction.<br><img src=""img/categorize_planet_example.png""",NA,NA,NA,NA,NA,NA,NA,NA,NA,2,6,"9,2,11,4,13,15,14,3,1,7,8,10,12,5,6"
14397,commdev-instructions,26,149380,NA,26824.5,"<p>Great, now try a short practice mission. </p><p> This time, you will have 1 second to respond and you won't know whether you pressed the right or wrong key for each planet.</p>",NA,NA,NA,NA,NA,NA,NA,NA,NA,2,6,"9,2,11,4,13,15,14,3,1,7,8,10,12,5,6"
14397,commdev-image-keyboard-response,27,150736,practice,null,img/practice1_left.png,NA,Number not found in mappings,NA,FALSE,null,f,NA,NA,NA,2,6,"9,2,11,4,13,15,14,3,1,7,8,10,12,5,6"
14397,commdev-image-keyboard-response,28,151991,practice,null,img/practice3_right.png,NA,Number not found in mappings,NA,FALSE,null,j,NA,NA,NA,2,6,"9,2,11,4,13,15,14,3,1,7,8,10,12,5,6"
14397,commdev-image-keyboard-response,29,153244,practice,null,img/practice2_left.png,NA,Number not found in mappings,NA,FALSE,null,f,NA,NA,NA,2,6,"9,2,11,4,13,15,14,3,1,7,8,10,12,5,6"
14397,commdev-image-keyboard-response,30,154497,practice,472,img/practice4_right.png,NA,Number not found in mappings,NA,TRUE,j,j,NA,NA,NA,2,6,"9,2,11,4,13,15,14,3,1,7,8,10,12,5,6"
14397,commdev-image-keyboard-response,31,155750,practice,858.0999999996275,img/practice1_left.png,NA,Number not found in mappings,NA,FALSE,j,f,NA,NA,NA,2,6,"9,2,11,4,13,15,14,3,1,7,8,10,12,5,6"
14397,commdev-image-keyboard-response,32,157003,practice,null,img/practice4_left.png,NA,Number not found in mappings,NA,FALSE,null,f,NA,NA,NA,2,6,"9,2,11,4,13,15,14,3,1,7,8,10,12,5,6"
14397,commdev-image-keyboard-response,33,158256,practice,631.5,img/practice2_right.png,NA,Number not found in mappings,NA,TRUE,j,j,NA,NA,NA,2,6,"9,2,11,4,13,15,14,3,1,7,8,10,12,5,6"
14397,commdev-image-keyboard-response,34,159510,practice,735.2999999998137,img/practice3_right.png,NA,Number not found in mappings,NA,TRUE,j,j,NA,NA,NA,2,6,"9,2,11,4,13,15,14,3,1,7,8,10,12,5,6"
14397,commdev-instructions,35,172540,NA,3482.0999999996275,"<p>Great job with the practice round.</p><p>During real missions, you won't know whether you pressed the right or wrong key for each planet.</p><p>But between missions, we will tell you how you did overall.</p>",NA,NA,NA,NA,NA,NA,NA,NA,NA,2,6,"9,2,11,4,13,15,14,3,1,7,8,10,12,5,6"
14397,commdev-instructions,36,181693,NA,912.4000000003725,<p>Try your best! You will be paid a bonus based on how many correct responses you make!</p><p>Responses that are too slow will not count toward your bonus.</p>,NA,NA,NA,NA,NA,NA,NA,NA,NA,2,6,"9,2,11,4,13,15,14,3,1,7,8,10,12,5,6"
14397,commdev-instructions,37,188749,NA,854.3000000007451,"<p>You are almost ready to start the real game.</p><p> First, we are going to ask you some questions about how the game works.</p>",NA,NA,NA,NA,NA,NA,NA,NA,NA,2,6,"9,2,11,4,13,15,14,3,1,7,8,10,12,5,6"
14397,commdev-instructions,46,280412,NA,2561.100000000559,"<p> Nice work! It is now time to start the real game.<p></p>You will go on two missions to record wind directions of different planets.<p></p>Each one will take about 5 minutes. You will get to take a break between missions.<p><p> Remember, press <strong>F</strong> or <strong>J</strong> depending on the wind direction. Good luck!<br><img src=""img/categorize_planet_example.png""",NA,NA,NA,NA,NA,NA,NA,NA,NA,2,6,"9,2,11,4,13,15,14,3,1,7,8,10,12,5,6"
14397,commdev-image-keyboard-response,48,293817,learnblock1,1092.5,img/planet1_right.png,1,Community 2,NA,TRUE,j,j,NA,NA,NA,2,6,"9,2,11,4,13,15,14,3,1,7,8,10,12,5,6"
14397,commdev-image-keyboard-response,49,295069,learnblock1,877.8999999994412,img/planet14_left.png,14,Community 2,NA,TRUE,f,f,NA,NA,NA,2,6,"9,2,11,4,13,15,14,3,1,7,8,10,12,5,6"
14397,commdev-image-keyboard-response,50,296321,learnblock1,835.0999999996275,img/planet1_right.png,1,Community 2,NA,TRUE,j,j,NA,NA,NA,2,6,"9,2,11,4,13,15,14,3,1,7,8,10,12,5,6"
14397,commdev-image-keyboard-response,51,297573,learnblock1,null,img/planet14_right.png,14,Community 2,NA,FALSE,null,j,NA,NA,NA,2,6,"9,2,11,4,13,15,14,3,1,7,8,10,12,5,6"
14397,commdev-image-keyboard-response,52,298827,learnblock1,211.29999999981374,img/planet15_right.png,15,Community 2,NA,TRUE,j,j,NA,NA,NA,2,6,"9,2,11,4,13,15,14,3,1,7,8,10,12,5,6"
14397,commdev-image-keyboard-response,53,300079,learnblock1,878.7000000001863,img/planet1_left.png,1,Community 2,NA,TRUE,f,f,NA,NA,NA,2,6,"9,2,11,4,13,15,14,3,1,7,8,10,12,5,6"
14397,commdev-image-keyboard-response,54,301332,learnblock1,658,img/planet15_right.png,15,Community 2,NA,TRUE,j,j,NA,NA,NA,2,6,"9,2,11,4,13,15,14,3,1,7,8,10,12,5,6"
14397,commdev-image-keyboard-response,55,302584,learnblock1,1034.5,img/planet1_right.png,1,Community 2,NA,TRUE,j,j,NA,NA,NA,2,6,"9,2,11,4,13,15,14,3,1,7,8,10,12,5,6"
14397,commdev-image-keyboard-response,56,303836,learnblock1,898.3999999994412,img/planet15_right.png,15,Community 2,NA,FALSE,f,j,NA,NA,NA,2,6,"9,2,11,4,13,15,14,3,1,7,8,10,12,5,6"
14397,commdev-image-keyboard-response,57,305089,learnblock1,109.70000000018626,img/planet1_right.png,1,Community 2,NA,TRUE,j,j,NA,NA,NA,2,6,"9,2,11,4,13,15,14,3,1,7,8,10,12,5,6"
14397,commdev-image-keyboard-response,58,306341,learnblock1,1171.4000000003725,img/planet14_left.png,14,Community 2,NA,TRUE,f,f,NA,NA,NA,2,6,"9,2,11,4,13,15,14,3,1,7,8,10,12,5,6"
14397,commdev-image-keyboard-response,59,307594,learnblock1,995.5999999996275,img/planet15_right.png,15,Community 2,NA,TRUE,j,j,NA,NA,NA,2,6,"9,2,11,4,13,15,14,3,1,7,8,10,12,5,6"
14397,commdev-image-keyboard-response,60,308847,learnblock1,892.5,img/planet14_right.png,14,Community 2,NA,TRUE,j,j,NA,NA,NA,2,6,"9,2,11,4,13,15,14,3,1,7,8,10,12,5,6"
14397,commdev-image-keyboard-response,61,310100,learnblock1,760.2999999998137,img/planet15_right.png,15,Community 2,NA,TRUE,j,j,NA,NA,NA,2,6,"9,2,11,4,13,15,14,3,1,7,8,10,12,5,6"
14397,commdev-image-keyboard-response,62,311352,learnblock1,1043.8999999994412,img/planet4_left.png,4,Community 1,NA,TRUE,f,f,NA,NA,NA,2,6,"9,2,11,4,13,15,14,3,1,7,8,10,12,5,6"
14397,commdev-image-keyboard-response,63,312605,learnblock1,813.3999999994412,img/planet11_left.png,11,Community 1,NA,TRUE,f,f,NA,NA,NA,2,6,"9,2,11,4,13,15,14,3,1,7,8,10,12,5,6"
14397,commdev-image-keyboard-response,64,313857,learnblock1,808.2999999998137,img/planet4_left.png,4,Community 1,NA,TRUE,f,f,NA,NA,NA,2,6,"9,2,11,4,13,15,14,3,1,7,8,10,12,5,6"
14397,commdev-image-keyboard-response,65,315110,learnblock1,969,img/planet2_right.png,2,Community 1,NA,FALSE,f,j,NA,NA,NA,2,6,"9,2,11,4,13,15,14,3,1,7,8,10,12,5,6"
14397,commdev-image-keyboard-response,66,316364,learnblock1,973,img/planet11_left.png,11,Community 1,NA,TRUE,f,f,NA,NA,NA,2,6,"9,2,11,4,13,15,14,3,1,7,8,10,12,5,6"
14397,commdev-image-keyboard-response,67,317617,learnblock1,806,img/planet4_right.png,4,Community 1,NA,TRUE,j,j,NA,NA,NA,2,6,"9,2,11,4,13,15,14,3,1,7,8,10,12,5,6"
14397,commdev-image-keyboard-response,68,318869,learnblock1,669.7000000001863,img/planet2_right.png,2,Community 1,NA,TRUE,j,j,NA,NA,NA,2,6,"9,2,11,4,13,15,14,3,1,7,8,10,12,5,6"
14397,commdev-image-keyboard-response,69,320122,learnblock1,697.7000000001863,img/planet9_right.png,9,Community 1,NA,TRUE,j,j,NA,NA,NA,2,6,"9,2,11,4,13,15,14,3,1,7,8,10,12,5,6"
14397,commdev-image-keyboard-response,70,321375,learnblock1,911.0999999996275,img/planet11_left.png,11,Community 1,NA,TRUE,f,f,NA,NA,NA,2,6,"9,2,11,4,13,15,14,3,1,7,8,10,12,5,6"
14397,commdev-image-keyboard-response,71,322628,learnblock1,693.6000000005588,img/planet2_left.png,2,Community 1,NA,TRUE,f,f,NA,NA,NA,2,6,"9,2,11,4,13,15,14,3,1,7,8,10,12,5,6"
14397,commdev-image-keyboard-response,72,323881,learnblock1,820.9000000003725,img/planet13_right.png,13,Community 1,NA,TRUE,j,j,NA,NA,NA,2,6,"9,2,11,4,13,15,14,3,1,7,8,10,12,5,6"
14397,commdev-image-keyboard-response,73,325134,learnblock1,771.3000000007451,img/planet11_left.png,11,Community 1,NA,TRUE,f,f,NA,NA,NA,2,6,"9,2,11,4,13,15,14,3,1,7,8,10,12,5,6"
14397,commdev-image-keyboard-response,74,326386,learnblock1,768.7999999998137,img/planet4_left.png,4,Community 1,NA,TRUE,f,f,NA,NA,NA,2,6,"9,2,11,4,13,15,14,3,1,7,8,10,12,5,6"
14397,commdev-image-keyboard-response,75,327639,learnblock1,745.2000000001863,img/planet15_right.png,15,Community 2,NA,TRUE,j,j,NA,NA,NA,2,6,"9,2,11,4,13,15,14,3,1,7,8,10,12,5,6"
14397,commdev-image-keyboard-response,76,328891,learnblock1,732.9000000003725,img/planet14_left.png,14,Community 2,NA,TRUE,f,f,NA,NA,NA,2,6,"9,2,11,4,13,15,14,3,1,7,8,10,12,5,6"
14397,commdev-image-keyboard-response,77,330143,learnblock1,574.2999999998137,img/planet1_right.png,1,Community 2,NA,TRUE,j,j,NA,NA,NA,2,6,"9,2,11,4,13,15,14,3,1,7,8,10,12,5,6"
14397,commdev-image-keyboard-response,78,331395,learnblock1,722.2000000001863,img/planet14_right.png,14,Community 2,NA,TRUE,j,j,NA,NA,NA,2,6,"9,2,11,4,13,15,14,3,1,7,8,10,12,5,6"
14397,commdev-image-keyboard-response,79,332648,learnblock1,659.8999999994412,img/planet3_left.png,3,Community 2,NA,TRUE,f,f,NA,NA,NA,2,6,"9,2,11,4,13,15,14,3,1,7,8,10,12,5,6"
14397,commdev-image-keyboard-response,80,333900,learnblock1,752.2000000001863,img/planet1_left.png,1,Community 2,NA,TRUE,f,f,NA,NA,NA,2,6,"9,2,11,4,13,15,14,3,1,7,8,10,12,5,6"
14397,commdev-image-keyboard-response,81,335152,learnblock1,894.0999999996275,img/planet3_right.png,3,Community 2,NA,TRUE,j,j,NA,NA,NA,2,6,"9,2,11,4,13,15,14,3,1,7,8,10,12,5,6"
14397,commdev-image-keyboard-response,82,336405,learnblock1,724.7999999998137,img/planet1_left.png,1,Community 2,NA,TRUE,f,f,NA,NA,NA,2,6,"9,2,11,4,13,15,14,3,1,7,8,10,12,5,6"
14397,commdev-image-keyboard-response,83,337657,learnblock1,695.8000000007451,img/planet14_right.png,14,Community 2,NA,TRUE,j,j,NA,NA,NA,2,6,"9,2,11,4,13,15,14,3,1,7,8,10,12,5,6"
14397,commdev-image-keyboard-response,84,338909,learnblock1,1162.6000000005588,img/planet7_right.png,7,Community 2,NA,TRUE,j,j,NA,NA,NA,2,6,"9,2,11,4,13,15,14,3,1,7,8,10,12,5,6"
14397,commdev-image-keyboard-response,85,340161,learnblock1,null,img/planet14_right.png,14,Community 2,NA,FALSE,null,j,NA,NA,NA,2,6,"9,2,11,4,13,15,14,3,1,7,8,10,12,5,6"
14397,commdev-image-keyboard-response,86,341413,learnblock1,191.90000000037253,img/planet7_left.png,7,Community 2,NA,TRUE,f,f,NA,NA,NA,2,6,"9,2,11,4,13,15,14,3,1,7,8,10,12,5,6"
14397,commdev-image-keyboard-response,87,342666,learnblock1,971.5,img/planet14_left.png,14,Community 2,NA,FALSE,j,f,NA,NA,NA,2,6,"9,2,11,4,13,15,14,3,1,7,8,10,12,5,6"
14397,commdev-image-keyboard-response,88,343918,learnblock1,1127.2999999998137,img/planet15_right.png,15,Community 2,NA,TRUE,j,j,NA,NA,NA,2,6,"9,2,11,4,13,15,14,3,1,7,8,10,12,5,6"
14397,commdev-image-keyboard-response,89,345172,learnblock1,760.5999999996275,img/planet14_left.png,14,Community 2,NA,TRUE,f,f,NA,NA,NA,2,6,"9,2,11,4,13,15,14,3,1,7,8,10,12,5,6"
14397,commdev-image-keyboard-response,90,346426,learnblock1,null,img/planet3_left.png,3,Community 2,NA,FALSE,null,f,NA,NA,NA,2,6,"9,2,11,4,13,15,14,3,1,7,8,10,12,5,6"
14397,commdev-image-keyboard-response,91,347678,learnblock1,null,img/planet14_right.png,14,Community 2,NA,FALSE,null,j,NA,NA,NA,2,6,"9,2,11,4,13,15,14,3,1,7,8,10,12,5,6"
14397,commdev-image-keyboard-response,92,348930,learnblock1,831.5,img/planet7_left.png,7,Community 2,NA,TRUE,f,f,NA,NA,NA,2,6,"9,2,11,4,13,15,14,3,1,7,8,10,12,5,6"
14397,commdev-image-keyboard-response,93,350184,learnblock1,807.7000000001863,img/planet1_right.png,1,Community 2,NA,TRUE,j,j,NA,NA,NA,2,6,"9,2,11,4,13,15,14,3,1,7,8,10,12,5,6"
14397,commdev-image-keyboard-response,94,351436,learnblock1,1071.2000000001863,img/planet3_left.png,3,Community 2,NA,TRUE,f,f,NA,NA,NA,2,6,"9,2,11,4,13,15,14,3,1,7,8,10,12,5,6"
14397,commdev-image-keyboard-response,95,352688,learnblock1,614,img/planet1_left.png,1,Community 2,NA,TRUE,f,f,NA,NA,NA,2,6,"9,2,11,4,13,15,14,3,1,7,8,10,12,5,6"
14397,commdev-image-keyboard-response,96,353939,learnblock1,767.0999999996275,img/planet14_left.png,14,Community 2,NA,TRUE,f,f,NA,NA,NA,2,6,"9,2,11,4,13,15,14,3,1,7,8,10,12,5,6"
14397,commdev-image-keyboard-response,97,355192,learnblock1,1058.7000000001863,img/planet1_right.png,1,Community 2,NA,TRUE,j,j,NA,NA,NA,2,6,"9,2,11,4,13,15,14,3,1,7,8,10,12,5,6"
14397,commdev-image-keyboard-response,98,356445,learnblock1,821.0999999996275,img/planet3_left.png,3,Community 2,NA,TRUE,f,f,NA,NA,NA,2,6,"9,2,11,4,13,15,14,3,1,7,8,10,12,5,6"
14397,commdev-image-keyboard-response,99,357698,learnblock1,807.7000000001863,img/planet7_left.png,7,Community 2,NA,TRUE,f,f,NA,NA,NA,2,6,"9,2,11,4,13,15,14,3,1,7,8,10,12,5,6"
14397,commdev-image-keyboard-response,100,358951,learnblock1,936.8000000007451,img/planet3_right.png,3,Community 2,NA,TRUE,j,j,NA,NA,NA,2,6,"9,2,11,4,13,15,14,3,1,7,8,10,12,5,6"
14397,commdev-image-keyboard-response,101,360204,learnblock1,787.1999999992549,img/planet1_left.png,1,Community 2,NA,TRUE,f,f,NA,NA,NA,2,6,"9,2,11,4,13,15,14,3,1,7,8,10,12,5,6"
14397,commdev-image-keyboard-response,102,361457,learnblock1,673.5,img/planet14_right.png,14,Community 2,NA,TRUE,j,j,NA,NA,NA,2,6,"9,2,11,4,13,15,14,3,1,7,8,10,12,5,6"
14397,commdev-image-keyboard-response,103,362709,learnblock1,745.7999999998137,img/planet1_left.png,1,Community 2,NA,TRUE,f,f,NA,NA,NA,2,6,"9,2,11,4,13,15,14,3,1,7,8,10,12,5,6"
14397,commdev-image-keyboard-response,104,363961,learnblock1,701.9000000003725,img/planet7_left.png,7,Community 2,NA,TRUE,f,f,NA,NA,NA,2,6,"9,2,11,4,13,15,14,3,1,7,8,10,12,5,6"
14397,commdev-image-keyboard-response,105,365213,learnblock1,680,img/planet3_right.png,3,Community 2,NA,TRUE,j,j,NA,NA,NA,2,6,"9,2,11,4,13,15,14,3,1,7,8,10,12,5,6"
14397,commdev-image-keyboard-response,106,366466,learnblock1,741.4000000003725,img/planet1_right.png,1,Community 2,NA,TRUE,j,j,NA,NA,NA,2,6,"9,2,11,4,13,15,14,3,1,7,8,10,12,5,6"
14397,commdev-image-keyboard-response,107,367718,learnblock1,609.5,img/planet7_left.png,7,Community 2,NA,TRUE,f,f,NA,NA,NA,2,6,"9,2,11,4,13,15,14,3,1,7,8,10,12,5,6"
14397,commdev-image-keyboard-response,108,368970,learnblock1,1119.7000000001863,img/planet3_left.png,3,Community 2,NA,TRUE,f,f,NA,NA,NA,2,6,"9,2,11,4,13,15,14,3,1,7,8,10,12,5,6"
14397,commdev-image-keyboard-response,109,370223,learnblock1,936.3999999994412,img/planet1_right.png,1,Community 2,NA,TRUE,j,j,NA,NA,NA,2,6,"9,2,11,4,13,15,14,3,1,7,8,10,12,5,6"
14397,commdev-image-keyboard-response,110,371475,learnblock1,653.2999999998137,img/planet14_left.png,14,Community 2,NA,TRUE,f,f,NA,NA,NA,2,6,"9,2,11,4,13,15,14,3,1,7,8,10,12,5,6"
14397,commdev-image-keyboard-response,111,372727,learnblock1,933.8000000007451,img/planet3_right.png,3,Community 2,NA,TRUE,j,j,NA,NA,NA,2,6,"9,2,11,4,13,15,14,3,1,7,8,10,12,5,6"
14397,commdev-image-keyboard-response,112,373980,learnblock1,null,img/planet7_left.png,7,Community 2,NA,FALSE,null,f,NA,NA,NA,2,6,"9,2,11,4,13,15,14,3,1,7,8,10,12,5,6"
14397,commdev-image-keyboard-response,113,375232,learnblock1,144.09999999962747,img/planet3_right.png,3,Community 2,NA,FALSE,f,j,NA,NA,NA,2,6,"9,2,11,4,13,15,14,3,1,7,8,10,12,5,6"
14397,commdev-image-keyboard-response,114,376484,learnblock1,482.20000000018626,img/planet7_left.png,7,Community 2,NA,FALSE,j,f,NA,NA,NA,2,6,"9,2,11,4,13,15,14,3,1,7,8,10,12,5,6"
14397,commdev-image-keyboard-response,115,377736,learnblock1,311.79999999981374,img/planet14_right.png,14,Community 2,NA,FALSE,f,j,NA,NA,NA,2,6,"9,2,11,4,13,15,14,3,1,7,8,10,12,5,6"
14397,commdev-image-keyboard-response,116,378988,learnblock1,29.799999999813735,img/planet15_right.png,15,Community 2,NA,TRUE,j,j,NA,NA,NA,2,6,"9,2,11,4,13,15,14,3,1,7,8,10,12,5,6"
14397,commdev-image-keyboard-response,117,380242,learnblock1,47.19999999925494,img/planet1_right.png,1,Community 2,NA,FALSE,f,j,NA,NA,NA,2,6,"9,2,11,4,13,15,14,3,1,7,8,10,12,5,6"
14397,commdev-image-keyboard-response,118,381495,learnblock1,85.20000000018626,img/planet7_right.png,7,Community 2,NA,FALSE,f,j,NA,NA,NA,2,6,"9,2,11,4,13,15,14,3,1,7,8,10,12,5,6"
14397,commdev-image-keyboard-response,119,382748,learnblock1,602.5,img/planet3_left.png,3,Community 2,NA,FALSE,j,f,NA,NA,NA,2,6,"9,2,11,4,13,15,14,3,1,7,8,10,12,5,6"
14397,commdev-image-keyboard-response,120,384001,learnblock1,640.2999999998137,img/planet10_left.png,10,Community 3,NA,TRUE,f,f,NA,NA,NA,2,6,"9,2,11,4,13,15,14,3,1,7,8,10,12,5,6"
14397,commdev-image-keyboard-response,121,385253,learnblock1,657.8999999994412,img/planet5_left.png,5,Community 3,NA,TRUE,f,f,NA,NA,NA,2,6,"9,2,11,4,13,15,14,3,1,7,8,10,12,5,6"
14397,commdev-image-keyboard-response,122,386504,learnblock1,861.7999999998137,img/planet6_left.png,6,Community 3,NA,TRUE,f,f,NA,NA,NA,2,6,"9,2,11,4,13,15,14,3,1,7,8,10,12,5,6"
14397,commdev-image-keyboard-response,123,387757,learnblock1,750.5,img/planet10_left.png,10,Community 3,NA,TRUE,f,f,NA,NA,NA,2,6,"9,2,11,4,13,15,14,3,1,7,8,10,12,5,6"
14397,commdev-image-keyboard-response,124,389009,learnblock1,757.0999999996275,img/planet12_left.png,12,Community 3,NA,TRUE,f,f,NA,NA,NA,2,6,"9,2,11,4,13,15,14,3,1,7,8,10,12,5,6"
14397,commdev-image-keyboard-response,125,390261,learnblock1,767.3999999994412,img/planet8_left.png,8,Community 3,NA,TRUE,f,f,NA,NA,NA,2,6,"9,2,11,4,13,15,14,3,1,7,8,10,12,5,6"
14397,commdev-image-keyboard-response,126,391514,learnblock1,625.6000000005588,img/planet12_right.png,12,Community 3,NA,TRUE,j,j,NA,NA,NA,2,6,"9,2,11,4,13,15,14,3,1,7,8,10,12,5,6"
14397,commdev-image-keyboard-response,127,392767,learnblock1,617.2000000001863,img/planet5_right.png,5,Community 3,NA,TRUE,j,j,NA,NA,NA,2,6,"9,2,11,4,13,15,14,3,1,7,8,10,12,5,6"
14397,commdev-image-keyboard-response,128,394019,learnblock1,576,img/planet10_right.png,10,Community 3,NA,TRUE,j,j,NA,NA,NA,2,6,"9,2,11,4,13,15,14,3,1,7,8,10,12,5,6"
14397,commdev-image-keyboard-response,129,395271,learnblock1,761.0999999996275,img/planet6_right.png,6,Community 3,NA,TRUE,j,j,NA,NA,NA,2,6,"9,2,11,4,13,15,14,3,1,7,8,10,12,5,6"
14397,commdev-image-keyboard-response,130,396524,learnblock1,904.9000000003725,img/planet5_left.png,5,Community 3,NA,TRUE,f,f,NA,NA,NA,2,6,"9,2,11,4,13,15,14,3,1,7,8,10,12,5,6"
14397,commdev-image-keyboard-response,131,397777,learnblock1,789.2000000001863,img/planet6_left.png,6,Community 3,NA,TRUE,f,f,NA,NA,NA,2,6,"9,2,11,4,13,15,14,3,1,7,8,10,12,5,6"
14397,commdev-image-keyboard-response,132,399030,learnblock1,983.1000000005588,img/planet8_left.png,8,Community 3,NA,TRUE,f,f,NA,NA,NA,2,6,"9,2,11,4,13,15,14,3,1,7,8,10,12,5,6"
14397,commdev-image-keyboard-response,133,400283,learnblock1,1003.0999999996275,img/planet5_right.png,5,Community 3,NA,TRUE,j,j,NA,NA,NA,2,6,"9,2,11,4,13,15,14,3,1,7,8,10,12,5,6"
14397,commdev-image-keyboard-response,134,401536,learnblock1,895.5,img/planet6_right.png,6,Community 3,NA,TRUE,j,j,NA,NA,NA,2,6,"9,2,11,4,13,15,14,3,1,7,8,10,12,5,6"
14397,commdev-image-keyboard-response,135,402787,learnblock1,879.5,img/planet5_right.png,5,Community 3,NA,TRUE,j,j,NA,NA,NA,2,6,"9,2,11,4,13,15,14,3,1,7,8,10,12,5,6"
14397,commdev-image-keyboard-response,136,404040,learnblock1,752,img/planet12_left.png,12,Community 3,NA,TRUE,f,f,NA,NA,NA,2,6,"9,2,11,4,13,15,14,3,1,7,8,10,12,5,6"
14397,commdev-image-keyboard-response,137,405292,learnblock1,937.9000000003725,img/planet10_right.png,10,Community 3,NA,TRUE,j,j,NA,NA,NA,2,6,"9,2,11,4,13,15,14,3,1,7,8,10,12,5,6"
14397,commdev-image-keyboard-response,138,406545,learnblock1,694.7999999998137,img/planet3_left.png,3,Community 2,NA,TRUE,f,f,NA,NA,NA,2,6,"9,2,11,4,13,15,14,3,1,7,8,10,12,5,6"
14397,commdev-image-keyboard-response,139,407797,learnblock1,655.7999999998137,img/planet10_right.png,10,Community 3,NA,TRUE,j,j,NA,NA,NA,2,6,"9,2,11,4,13,15,14,3,1,7,8,10,12,5,6"
14397,commdev-image-keyboard-response,140,409050,learnblock1,925.5999999996275,img/planet6_right.png,6,Community 3,NA,TRUE,j,j,NA,NA,NA,2,6,"9,2,11,4,13,15,14,3,1,7,8,10,12,5,6"
14397,commdev-image-keyboard-response,141,410303,learnblock1,930.0999999996275,img/planet12_right.png,12,Community 3,NA,TRUE,j,j,NA,NA,NA,2,6,"9,2,11,4,13,15,14,3,1,7,8,10,12,5,6"
14397,commdev-image-keyboard-response,142,411555,learnblock1,859.5,img/planet6_right.png,6,Community 3,NA,TRUE,j,j,NA,NA,NA,2,6,"9,2,11,4,13,15,14,3,1,7,8,10,12,5,6"
14397,commdev-image-keyboard-response,143,412807,learnblock1,758.1999999992549,img/planet5_left.png,5,Community 3,NA,TRUE,f,f,NA,NA,NA,2,6,"9,2,11,4,13,15,14,3,1,7,8,10,12,5,6"
14397,commdev-image-keyboard-response,144,414060,learnblock1,695.5,img/planet6_right.png,6,Community 3,NA,TRUE,j,j,NA,NA,NA,2,6,"9,2,11,4,13,15,14,3,1,7,8,10,12,5,6"
14397,commdev-image-keyboard-response,145,415312,learnblock1,1005.7000000001863,img/planet5_right.png,5,Community 3,NA,TRUE,j,j,NA,NA,NA,2,6,"9,2,11,4,13,15,14,3,1,7,8,10,12,5,6"
14397,commdev-image-keyboard-response,146,416565,learnblock1,774.2999999998137,img/planet10_left.png,10,Community 3,NA,TRUE,f,f,NA,NA,NA,2,6,"9,2,11,4,13,15,14,3,1,7,8,10,12,5,6"
14397,commdev-image-keyboard-response,147,417818,learnblock1,634.7000000001863,img/planet6_right.png,6,Community 3,NA,TRUE,j,j,NA,NA,NA,2,6,"9,2,11,4,13,15,14,3,1,7,8,10,12,5,6"
14397,commdev-image-keyboard-response,148,419071,learnblock1,326.59999999962747,img/planet5_left.png,5,Community 3,NA,TRUE,f,f,NA,NA,NA,2,6,"9,2,11,4,13,15,14,3,1,7,8,10,12,5,6"
14397,commdev-image-keyboard-response,149,420323,learnblock1,240.69999999925494,img/planet8_left.png,8,Community 3,NA,FALSE,j,f,NA,NA,NA,2,6,"9,2,11,4,13,15,14,3,1,7,8,10,12,5,6"
14397,commdev-image-keyboard-response,150,421576,learnblock1,849.5999999996275,img/planet5_left.png,5,Community 3,NA,TRUE,f,f,NA,NA,NA,2,6,"9,2,11,4,13,15,14,3,1,7,8,10,12,5,6"
14397,commdev-image-keyboard-response,151,422828,learnblock1,757.7000000001863,img/planet12_right.png,12,Community 3,NA,FALSE,f,j,NA,NA,NA,2,6,"9,2,11,4,13,15,14,3,1,7,8,10,12,5,6"
14397,commdev-image-keyboard-response,152,424080,learnblock1,null,img/planet6_right.png,6,Community 3,NA,FALSE,null,j,NA,NA,NA,2,6,"9,2,11,4,13,15,14,3,1,7,8,10,12,5,6"
14397,commdev-image-keyboard-response,153,425333,learnblock1,14.400000000372529,img/planet8_left.png,8,Community 3,NA,TRUE,f,f,NA,NA,NA,2,6,"9,2,11,4,13,15,14,3,1,7,8,10,12,5,6"
14397,commdev-image-keyboard-response,154,426586,learnblock1,1022.7000000001863,img/planet13_left.png,13,Community 1,NA,TRUE,f,f,NA,NA,NA,2,6,"9,2,11,4,13,15,14,3,1,7,8,10,12,5,6"
14397,commdev-image-keyboard-response,155,427839,learnblock1,687.6000000005588,img/planet8_left.png,8,Community 3,NA,TRUE,f,f,NA,NA,NA,2,6,"9,2,11,4,13,15,14,3,1,7,8,10,12,5,6"
14397,commdev-image-keyboard-response,156,429091,learnblock1,625,img/planet6_left.png,6,Community 3,NA,TRUE,f,f,NA,NA,NA,2,6,"9,2,11,4,13,15,14,3,1,7,8,10,12,5,6"
14397,commdev-image-keyboard-response,157,430345,learnblock1,538.2999999998137,img/planet5_right.png,5,Community 3,NA,TRUE,j,j,NA,NA,NA,2,6,"9,2,11,4,13,15,14,3,1,7,8,10,12,5,6"
14397,commdev-image-keyboard-response,158,431599,learnblock1,620.5999999996275,img/planet8_right.png,8,Community 3,NA,FALSE,f,j,NA,NA,NA,2,6,"9,2,11,4,13,15,14,3,1,7,8,10,12,5,6"
14397,commdev-image-keyboard-response,159,432853,learnblock1,687.4000000003725,img/planet5_right.png,5,Community 3,NA,TRUE,j,j,NA,NA,NA,2,6,"9,2,11,4,13,15,14,3,1,7,8,10,12,5,6"
14397,commdev-image-keyboard-response,160,434106,learnblock1,988,img/planet6_right.png,6,Community 3,NA,FALSE,f,j,NA,NA,NA,2,6,"9,2,11,4,13,15,14,3,1,7,8,10,12,5,6"
14397,commdev-image-keyboard-response,161,435359,learnblock1,674.9000000003725,img/planet5_left.png,5,Community 3,NA,FALSE,j,f,NA,NA,NA,2,6,"9,2,11,4,13,15,14,3,1,7,8,10,12,5,6"
14397,commdev-image-keyboard-response,162,436613,learnblock1,967.6000000005588,img/planet12_left.png,12,Community 3,NA,FALSE,j,f,NA,NA,NA,2,6,"9,2,11,4,13,15,14,3,1,7,8,10,12,5,6"
14397,commdev-image-keyboard-response,163,437866,learnblock1,73.29999999981374,img/planet10_left.png,10,Community 3,NA,TRUE,f,f,NA,NA,NA,2,6,"9,2,11,4,13,15,14,3,1,7,8,10,12,5,6"
14397,commdev-image-keyboard-response,164,439118,learnblock1,939.7000000001863,img/planet5_left.png,5,Community 3,NA,TRUE,f,f,NA,NA,NA,2,6,"9,2,11,4,13,15,14,3,1,7,8,10,12,5,6"
14397,commdev-image-keyboard-response,165,440371,learnblock1,865.9000000003725,img/planet10_left.png,10,Community 3,NA,TRUE,f,f,NA,NA,NA,2,6,"9,2,11,4,13,15,14,3,1,7,8,10,12,5,6"
14397,commdev-image-keyboard-response,166,441623,learnblock1,693.3000000007451,img/planet5_right.png,5,Community 3,NA,FALSE,f,j,NA,NA,NA,2,6,"9,2,11,4,13,15,14,3,1,7,8,10,12,5,6"
14397,commdev-image-keyboard-response,167,442875,learnblock1,821,img/planet10_right.png,10,Community 3,NA,TRUE,j,j,NA,NA,NA,2,6,"9,2,11,4,13,15,14,3,1,7,8,10,12,5,6"
14397,commdev-image-keyboard-response,168,444127,learnblock1,841.9000000003725,img/planet6_right.png,6,Community 3,NA,TRUE,j,j,NA,NA,NA,2,6,"9,2,11,4,13,15,14,3,1,7,8,10,12,5,6"
14397,commdev-image-keyboard-response,169,445380,learnblock1,1035.4000000003725,img/planet8_right.png,8,Community 3,NA,TRUE,j,j,NA,NA,NA,2,6,"9,2,11,4,13,15,14,3,1,7,8,10,12,5,6"
14397,commdev-image-keyboard-response,170,446633,learnblock1,1005.7999999998137,img/planet6_right.png,6,Community 3,NA,TRUE,j,j,NA,NA,NA,2,6,"9,2,11,4,13,15,14,3,1,7,8,10,12,5,6"
14397,commdev-image-keyboard-response,171,447886,learnblock1,1025.5999999996275,img/planet8_right.png,8,Community 3,NA,TRUE,j,j,NA,NA,NA,2,6,"9,2,11,4,13,15,14,3,1,7,8,10,12,5,6"
14397,commdev-image-keyboard-response,172,449138,learnblock1,1011.0999999996275,img/planet12_right.png,12,Community 3,NA,TRUE,j,j,NA,NA,NA,2,6,"9,2,11,4,13,15,14,3,1,7,8,10,12,5,6"
14397,commdev-image-keyboard-response,173,450389,learnblock1,1005.3999999994412,img/planet8_left.png,8,Community 3,NA,FALSE,j,f,NA,NA,NA,2,6,"9,2,11,4,13,15,14,3,1,7,8,10,12,5,6"
14397,commdev-image-keyboard-response,174,451642,learnblock1,792.7999999998137,img/planet12_left.png,12,Community 3,NA,TRUE,f,f,NA,NA,NA,2,6,"9,2,11,4,13,15,14,3,1,7,8,10,12,5,6"
14397,commdev-image-keyboard-response,175,452894,learnblock1,616.0999999996275,img/planet10_left.png,10,Community 3,NA,TRUE,f,f,NA,NA,NA,2,6,"9,2,11,4,13,15,14,3,1,7,8,10,12,5,6"
14397,commdev-image-keyboard-response,176,454147,learnblock1,687.3000000007451,img/planet6_right.png,6,Community 3,NA,TRUE,j,j,NA,NA,NA,2,6,"9,2,11,4,13,15,14,3,1,7,8,10,12,5,6"
14397,commdev-image-keyboard-response,177,455398,learnblock1,615.4000000003725,img/planet5_left.png,5,Community 3,NA,TRUE,f,f,NA,NA,NA,2,6,"9,2,11,4,13,15,14,3,1,7,8,10,12,5,6"
14397,commdev-image-keyboard-response,178,456651,learnblock1,599.9000000003725,img/planet12_right.png,12,Community 3,NA,FALSE,f,j,NA,NA,NA,2,6,"9,2,11,4,13,15,14,3,1,7,8,10,12,5,6"
14397,commdev-image-keyboard-response,179,457905,learnblock1,1102.2999999998137,img/planet8_left.png,8,Community 3,NA,FALSE,j,f,NA,NA,NA,2,6,"9,2,11,4,13,15,14,3,1,7,8,10,12,5,6"
14397,commdev-image-keyboard-response,180,459158,learnblock1,1072.800000000745,img/planet6_right.png,6,Community 3,NA,FALSE,f,j,NA,NA,NA,2,6,"9,2,11,4,13,15,14,3,1,7,8,10,12,5,6"
14397,commdev-image-keyboard-response,181,460411,learnblock1,1248.7999999998137,img/planet10_left.png,10,Community 3,NA,TRUE,f,f,NA,NA,NA,2,6,"9,2,11,4,13,15,14,3,1,7,8,10,12,5,6"
14397,commdev-image-keyboard-response,182,461664,learnblock1,1081.2999999998137,img/planet12_right.png,12,Community 3,NA,TRUE,j,j,NA,NA,NA,2,6,"9,2,11,4,13,15,14,3,1,7,8,10,12,5,6"
14397,commdev-image-keyboard-response,183,462916,learnblock1,581.5,img/planet10_left.png,10,Community 3,NA,TRUE,f,f,NA,NA,NA,2,6,"9,2,11,4,13,15,14,3,1,7,8,10,12,5,6"
14397,commdev-image-keyboard-response,184,464169,learnblock1,526.9000000003725,img/planet12_left.png,12,Community 3,NA,FALSE,j,f,NA,NA,NA,2,6,"9,2,11,4,13,15,14,3,1,7,8,10,12,5,6"
14397,commdev-image-keyboard-response,185,465421,learnblock1,751.7999999998137,img/planet10_right.png,10,Community 3,NA,FALSE,f,j,NA,NA,NA,2,6,"9,2,11,4,13,15,14,3,1,7,8,10,12,5,6"
14397,commdev-image-keyboard-response,186,466674,learnblock1,18.5,img/planet3_right.png,3,Community 2,NA,TRUE,j,j,NA,NA,NA,2,6,"9,2,11,4,13,15,14,3,1,7,8,10,12,5,6"
14397,commdev-image-keyboard-response,187,467927,learnblock1,291.8999999994412,img/planet7_right.png,7,Community 2,NA,TRUE,j,j,NA,NA,NA,2,6,"9,2,11,4,13,15,14,3,1,7,8,10,12,5,6"
14397,commdev-image-keyboard-response,188,469180,learnblock1,68.79999999981374,img/planet3_left.png,3,Community 2,NA,FALSE,j,f,NA,NA,NA,2,6,"9,2,11,4,13,15,14,3,1,7,8,10,12,5,6"
14397,commdev-image-keyboard-response,189,470433,learnblock1,null,img/planet14_right.png,14,Community 2,NA,FALSE,null,j,NA,NA,NA,2,6,"9,2,11,4,13,15,14,3,1,7,8,10,12,5,6"
14397,commdev-image-keyboard-response,190,471686,learnblock1,289.3999999994412,img/planet7_right.png,7,Community 2,NA,FALSE,f,j,NA,NA,NA,2,6,"9,2,11,4,13,15,14,3,1,7,8,10,12,5,6"
14397,commdev-image-keyboard-response,191,472938,learnblock1,543.2999999998137,img/planet1_right.png,1,Community 2,NA,FALSE,f,j,NA,NA,NA,2,6,"9,2,11,4,13,15,14,3,1,7,8,10,12,5,6"
14397,commdev-image-keyboard-response,192,474191,learnblock1,635.7000000001863,img/planet7_right.png,7,Community 2,NA,FALSE,f,j,NA,NA,NA,2,6,"9,2,11,4,13,15,14,3,1,7,8,10,12,5,6"
14397,commdev-image-keyboard-response,193,475444,learnblock1,785.7999999998137,img/planet15_left.png,15,Community 2,NA,TRUE,f,f,NA,NA,NA,2,6,"9,2,11,4,13,15,14,3,1,7,8,10,12,5,6"
14397,commdev-image-keyboard-response,194,476696,learnblock1,648.3999999994412,img/planet14_left.png,14,Community 2,NA,TRUE,f,f,NA,NA,NA,2,6,"9,2,11,4,13,15,14,3,1,7,8,10,12,5,6"
14397,commdev-image-keyboard-response,195,477949,learnblock1,684,img/planet15_left.png,15,Community 2,NA,TRUE,f,f,NA,NA,NA,2,6,"9,2,11,4,13,15,14,3,1,7,8,10,12,5,6"
14397,commdev-image-keyboard-response,196,479202,learnblock1,754.7999999998137,img/planet7_left.png,7,Community 2,NA,TRUE,f,f,NA,NA,NA,2,6,"9,2,11,4,13,15,14,3,1,7,8,10,12,5,6"
14397,commdev-image-keyboard-response,197,480455,learnblock1,748.2000000001863,img/planet1_right.png,1,Community 2,NA,TRUE,j,j,NA,NA,NA,2,6,"9,2,11,4,13,15,14,3,1,7,8,10,12,5,6"
14397,commdev-image-keyboard-response,198,481707,learnblock1,835.1000000005588,img/planet15_left.png,15,Community 2,NA,FALSE,j,f,NA,NA,NA,2,6,"9,2,11,4,13,15,14,3,1,7,8,10,12,5,6"
14397,commdev-image-keyboard-response,199,482959,learnblock1,770.3000000007451,img/planet1_left.png,1,Community 2,NA,FALSE,j,f,NA,NA,NA,2,6,"9,2,11,4,13,15,14,3,1,7,8,10,12,5,6"
14397,commdev-image-keyboard-response,200,484213,learnblock1,766.0999999996275,img/planet3_left.png,3,Community 2,NA,TRUE,f,f,NA,NA,NA,2,6,"9,2,11,4,13,15,14,3,1,7,8,10,12,5,6"
14397,commdev-image-keyboard-response,201,485465,learnblock1,726.7000000001863,img/planet1_left.png,1,Community 2,NA,TRUE,f,f,NA,NA,NA,2,6,"9,2,11,4,13,15,14,3,1,7,8,10,12,5,6"
14397,commdev-image-keyboard-response,202,486718,learnblock1,790.3000000007451,img/planet14_left.png,14,Community 2,NA,TRUE,f,f,NA,NA,NA,2,6,"9,2,11,4,13,15,14,3,1,7,8,10,12,5,6"
14397,commdev-image-keyboard-response,203,487970,learnblock1,761.2000000001863,img/planet3_left.png,3,Community 2,NA,TRUE,f,f,NA,NA,NA,2,6,"9,2,11,4,13,15,14,3,1,7,8,10,12,5,6"
14397,commdev-image-keyboard-response,204,489223,learnblock1,562.0999999996275,img/planet14_left.png,14,Community 2,NA,TRUE,f,f,NA,NA,NA,2,6,"9,2,11,4,13,15,14,3,1,7,8,10,12,5,6"
14397,commdev-image-keyboard-response,205,490476,learnblock1,541.2999999998137,img/planet7_left.png,7,Community 2,NA,FALSE,j,f,NA,NA,NA,2,6,"9,2,11,4,13,15,14,3,1,7,8,10,12,5,6"
14397,commdev-image-keyboard-response,206,491729,learnblock1,442.8999999994412,img/planet3_right.png,3,Community 2,NA,FALSE,f,j,NA,NA,NA,2,6,"9,2,11,4,13,15,14,3,1,7,8,10,12,5,6"
14397,commdev-image-keyboard-response,207,492982,learnblock1,762.3999999994412,img/planet14_right.png,14,Community 2,NA,TRUE,j,j,NA,NA,NA,2,6,"9,2,11,4,13,15,14,3,1,7,8,10,12,5,6"
14397,commdev-image-keyboard-response,208,494235,learnblock1,558.2999999998137,img/planet1_right.png,1,Community 2,NA,TRUE,j,j,NA,NA,NA,2,6,"9,2,11,4,13,15,14,3,1,7,8,10,12,5,6"
14397,commdev-image-keyboard-response,209,495487,learnblock1,657.4000000003725,img/planet7_left.png,7,Community 2,NA,TRUE,f,f,NA,NA,NA,2,6,"9,2,11,4,13,15,14,3,1,7,8,10,12,5,6"
14397,commdev-image-keyboard-response,210,496740,learnblock1,716,img/planet3_right.png,3,Community 2,NA,TRUE,j,j,NA,NA,NA,2,6,"9,2,11,4,13,15,14,3,1,7,8,10,12,5,6"
14397,commdev-image-keyboard-response,211,497993,learnblock1,532.0999999996275,img/planet10_right.png,10,Community 3,NA,TRUE,j,j,NA,NA,NA,2,6,"9,2,11,4,13,15,14,3,1,7,8,10,12,5,6"
14397,commdev-image-keyboard-response,212,499245,learnblock1,567.7999999998137,img/planet6_left.png,6,Community 3,NA,TRUE,f,f,NA,NA,NA,2,6,"9,2,11,4,13,15,14,3,1,7,8,10,12,5,6"
14397,commdev-image-keyboard-response,213,500497,learnblock1,435,img/planet5_right.png,5,Community 3,NA,TRUE,j,j,NA,NA,NA,2,6,"9,2,11,4,13,15,14,3,1,7,8,10,12,5,6"
14397,commdev-image-keyboard-response,214,501750,learnblock1,828.1999999992549,img/planet6_right.png,6,Community 3,NA,TRUE,j,j,NA,NA,NA,2,6,"9,2,11,4,13,15,14,3,1,7,8,10,12,5,6"
14397,commdev-image-keyboard-response,215,503002,learnblock1,650.3999999994412,img/planet5_right.png,5,Community 3,NA,TRUE,j,j,NA,NA,NA,2,6,"9,2,11,4,13,15,14,3,1,7,8,10,12,5,6"
14397,commdev-image-keyboard-response,216,504254,learnblock1,653.7000000001863,img/planet10_right.png,10,Community 3,NA,TRUE,j,j,NA,NA,NA,2,6,"9,2,11,4,13,15,14,3,1,7,8,10,12,5,6"
14397,commdev-image-keyboard-response,217,505507,learnblock1,629,img/planet5_right.png,5,Community 3,NA,TRUE,j,j,NA,NA,NA,2,6,"9,2,11,4,13,15,14,3,1,7,8,10,12,5,6"
14397,commdev-image-keyboard-response,218,506759,learnblock1,759.5,img/planet8_left.png,8,Community 3,NA,TRUE,f,f,NA,NA,NA,2,6,"9,2,11,4,13,15,14,3,1,7,8,10,12,5,6"
14397,commdev-image-keyboard-response,219,508012,learnblock1,851.7999999998137,img/planet12_left.png,12,Community 3,NA,TRUE,f,f,NA,NA,NA,2,6,"9,2,11,4,13,15,14,3,1,7,8,10,12,5,6"
14397,commdev-image-keyboard-response,220,509265,learnblock1,662.4000000003725,img/planet10_right.png,10,Community 3,NA,TRUE,j,j,NA,NA,NA,2,6,"9,2,11,4,13,15,14,3,1,7,8,10,12,5,6"
14397,commdev-image-keyboard-response,221,510517,learnblock1,658.6999999992549,img/planet5_left.png,5,Community 3,NA,TRUE,f,f,NA,NA,NA,2,6,"9,2,11,4,13,15,14,3,1,7,8,10,12,5,6"
14397,commdev-image-keyboard-response,222,511769,learnblock1,677,img/planet6_left.png,6,Community 3,NA,TRUE,f,f,NA,NA,NA,2,6,"9,2,11,4,13,15,14,3,1,7,8,10,12,5,6"
14397,commdev-image-keyboard-response,223,513020,learnblock1,668.6999999992549,img/planet5_right.png,5,Community 3,NA,TRUE,j,j,NA,NA,NA,2,6,"9,2,11,4,13,15,14,3,1,7,8,10,12,5,6"
14397,commdev-image-keyboard-response,224,514273,learnblock1,444.29999999981374,img/planet10_left.png,10,Community 3,NA,TRUE,f,f,NA,NA,NA,2,6,"9,2,11,4,13,15,14,3,1,7,8,10,12,5,6"
14397,commdev-image-keyboard-response,225,515526,learnblock1,553.6999999992549,img/planet12_left.png,12,Community 3,NA,FALSE,j,f,NA,NA,NA,2,6,"9,2,11,4,13,15,14,3,1,7,8,10,12,5,6"
14397,commdev-image-keyboard-response,226,516778,learnblock1,683,img/planet10_right.png,10,Community 3,NA,TRUE,j,j,NA,NA,NA,2,6,"9,2,11,4,13,15,14,3,1,7,8,10,12,5,6"
14397,commdev-image-keyboard-response,227,518031,learnblock1,765.9000000003725,img/planet12_left.png,12,Community 3,NA,TRUE,f,f,NA,NA,NA,2,6,"9,2,11,4,13,15,14,3,1,7,8,10,12,5,6"
14397,commdev-image-keyboard-response,228,519283,learnblock1,1056.5,img/planet6_right.png,6,Community 3,NA,TRUE,j,j,NA,NA,NA,2,6,"9,2,11,4,13,15,14,3,1,7,8,10,12,5,6"
14397,commdev-image-keyboard-response,229,520535,learnblock1,689.5999999996275,img/planet5_right.png,5,Community 3,NA,TRUE,j,j,NA,NA,NA,2,6,"9,2,11,4,13,15,14,3,1,7,8,10,12,5,6"
14397,commdev-image-keyboard-response,230,521787,learnblock1,791.1000000005588,img/planet8_right.png,8,Community 3,NA,TRUE,j,j,NA,NA,NA,2,6,"9,2,11,4,13,15,14,3,1,7,8,10,12,5,6"
14397,commdev-image-keyboard-response,231,523039,learnblock1,863.5,img/planet12_right.png,12,Community 3,NA,TRUE,j,j,NA,NA,NA,2,6,"9,2,11,4,13,15,14,3,1,7,8,10,12,5,6"
14397,commdev-image-keyboard-response,232,524292,learnblock1,818.8999999994412,img/planet8_right.png,8,Community 3,NA,TRUE,j,j,NA,NA,NA,2,6,"9,2,11,4,13,15,14,3,1,7,8,10,12,5,6"
14397,commdev-image-keyboard-response,233,525544,learnblock1,null,img/planet13_right.png,13,Community 1,NA,FALSE,null,j,NA,NA,NA,2,6,"9,2,11,4,13,15,14,3,1,7,8,10,12,5,6"
14397,commdev-image-keyboard-response,234,526797,learnblock1,159.29999999981374,img/planet2_right.png,2,Community 1,NA,TRUE,j,j,NA,NA,NA,2,6,"9,2,11,4,13,15,14,3,1,7,8,10,12,5,6"
14397,commdev-image-keyboard-response,235,528049,learnblock1,259.90000000037253,img/planet11_right.png,11,Community 1,NA,FALSE,f,j,NA,NA,NA,2,6,"9,2,11,4,13,15,14,3,1,7,8,10,12,5,6"
14397,commdev-image-keyboard-response,236,529301,learnblock1,139.40000000037253,img/planet2_right.png,2,Community 1,NA,FALSE,f,j,NA,NA,NA,2,6,"9,2,11,4,13,15,14,3,1,7,8,10,12,5,6"
14397,commdev-image-keyboard-response,237,530553,learnblock1,928.2999999998137,img/planet11_right.png,11,Community 1,NA,FALSE,f,j,NA,NA,NA,2,6,"9,2,11,4,13,15,14,3,1,7,8,10,12,5,6"
14397,commdev-image-keyboard-response,238,531806,learnblock1,1043.199999999255,img/planet4_left.png,4,Community 1,NA,TRUE,f,f,NA,NA,NA,2,6,"9,2,11,4,13,15,14,3,1,7,8,10,12,5,6"
14397,commdev-image-keyboard-response,239,533059,learnblock1,868,img/planet9_right.png,9,Community 1,NA,FALSE,f,j,NA,NA,NA,2,6,"9,2,11,4,13,15,14,3,1,7,8,10,12,5,6"
14397,commdev-image-keyboard-response,240,534311,learnblock1,1158.2000000001863,img/planet11_left.png,11,Community 1,NA,TRUE,f,f,NA,NA,NA,2,6,"9,2,11,4,13,15,14,3,1,7,8,10,12,5,6"
14397,commdev-image-keyboard-response,241,535563,learnblock1,991.2000000001863,img/planet4_left.png,4,Community 1,NA,TRUE,f,f,NA,NA,NA,2,6,"9,2,11,4,13,15,14,3,1,7,8,10,12,5,6"
14397,commdev-image-keyboard-response,242,536817,learnblock1,890.0999999996275,img/planet9_right.png,9,Community 1,NA,TRUE,j,j,NA,NA,NA,2,6,"9,2,11,4,13,15,14,3,1,7,8,10,12,5,6"
14397,commdev-image-keyboard-response,243,538069,learnblock1,995.1000000005588,img/planet4_right.png,4,Community 1,NA,TRUE,j,j,NA,NA,NA,2,6,"9,2,11,4,13,15,14,3,1,7,8,10,12,5,6"
14397,commdev-image-keyboard-response,244,539321,learnblock1,null,img/planet15_left.png,15,Community 2,NA,FALSE,null,f,NA,NA,NA,2,6,"9,2,11,4,13,15,14,3,1,7,8,10,12,5,6"
14397,commdev-image-keyboard-response,245,540573,learnblock1,3.199999999254942,img/planet4_left.png,4,Community 1,NA,TRUE,f,f,NA,NA,NA,2,6,"9,2,11,4,13,15,14,3,1,7,8,10,12,5,6"
14397,commdev-image-keyboard-response,246,541825,learnblock1,150.20000000018626,img/planet9_left.png,9,Community 1,NA,TRUE,f,f,NA,NA,NA,2,6,"9,2,11,4,13,15,14,3,1,7,8,10,12,5,6"
14397,commdev-image-keyboard-response,247,543079,learnblock1,18.5,img/planet4_left.png,4,Community 1,NA,TRUE,f,f,NA,NA,NA,2,6,"9,2,11,4,13,15,14,3,1,7,8,10,12,5,6"
14397,commdev-image-keyboard-response,248,544332,learnblock1,126.5,img/planet15_left.png,15,Community 2,NA,TRUE,f,f,NA,NA,NA,2,6,"9,2,11,4,13,15,14,3,1,7,8,10,12,5,6"
14397,commdev-image-keyboard-response,249,545584,learnblock1,35.700000000186265,img/planet7_left.png,7,Community 2,NA,FALSE,j,f,NA,NA,NA,2,6,"9,2,11,4,13,15,14,3,1,7,8,10,12,5,6"
14397,commdev-image-keyboard-response,250,546836,learnblock1,49.700000000186265,img/planet15_left.png,15,Community 2,NA,FALSE,j,f,NA,NA,NA,2,6,"9,2,11,4,13,15,14,3,1,7,8,10,12,5,6"
14397,commdev-image-keyboard-response,251,548089,learnblock1,274.09999999962747,img/planet7_left.png,7,Community 2,NA,FALSE,j,f,NA,NA,NA,2,6,"9,2,11,4,13,15,14,3,1,7,8,10,12,5,6"
14397,commdev-image-keyboard-response,252,549342,learnblock1,152.90000000037253,img/planet1_left.png,1,Community 2,NA,FALSE,j,f,NA,NA,NA,2,6,"9,2,11,4,13,15,14,3,1,7,8,10,12,5,6"
14397,commdev-image-keyboard-response,253,550595,learnblock1,119.20000000018626,img/planet3_left.png,3,Community 2,NA,FALSE,j,f,NA,NA,NA,2,6,"9,2,11,4,13,15,14,3,1,7,8,10,12,5,6"
14397,commdev-image-keyboard-response,254,551848,learnblock1,138.5,img/planet10_right.png,10,Community 3,NA,TRUE,j,j,NA,NA,NA,2,6,"9,2,11,4,13,15,14,3,1,7,8,10,12,5,6"
14397,commdev-image-keyboard-response,255,553101,learnblock1,160.79999999981374,img/planet5_left.png,5,Community 3,NA,FALSE,j,f,NA,NA,NA,2,6,"9,2,11,4,13,15,14,3,1,7,8,10,12,5,6"
14397,commdev-image-keyboard-response,256,554354,learnblock1,699.5,img/planet12_left.png,12,Community 3,NA,TRUE,f,f,NA,NA,NA,2,6,"9,2,11,4,13,15,14,3,1,7,8,10,12,5,6"
14397,commdev-image-keyboard-response,257,555608,learnblock1,593.3999999994412,img/planet5_left.png,5,Community 3,NA,TRUE,f,f,NA,NA,NA,2,6,"9,2,11,4,13,15,14,3,1,7,8,10,12,5,6"
14397,commdev-image-keyboard-response,258,556861,learnblock1,603.3000000007451,img/planet10_left.png,10,Community 3,NA,TRUE,f,f,NA,NA,NA,2,6,"9,2,11,4,13,15,14,3,1,7,8,10,12,5,6"
14397,commdev-image-keyboard-response,259,558113,learnblock1,577.8000000007451,img/planet5_right.png,5,Community 3,NA,FALSE,f,j,NA,NA,NA,2,6,"9,2,11,4,13,15,14,3,1,7,8,10,12,5,6"
14397,commdev-image-keyboard-response,260,559366,learnblock1,751.7999999998137,img/planet8_right.png,8,Community 3,NA,TRUE,j,j,NA,NA,NA,2,6,"9,2,11,4,13,15,14,3,1,7,8,10,12,5,6"
14397,commdev-image-keyboard-response,261,560619,learnblock1,868.2000000001863,img/planet13_right.png,13,Community 1,NA,TRUE,j,j,NA,NA,NA,2,6,"9,2,11,4,13,15,14,3,1,7,8,10,12,5,6"
14397,commdev-image-keyboard-response,262,561871,learnblock1,975.9000000003725,img/planet11_right.png,11,Community 1,NA,TRUE,j,j,NA,NA,NA,2,6,"9,2,11,4,13,15,14,3,1,7,8,10,12,5,6"
14397,commdev-image-keyboard-response,263,563123,learnblock1,978.3000000007451,img/planet2_left.png,2,Community 1,NA,TRUE,f,f,NA,NA,NA,2,6,"9,2,11,4,13,15,14,3,1,7,8,10,12,5,6"
14397,commdev-image-keyboard-response,264,564375,learnblock1,723.9000000003725,img/planet11_left.png,11,Community 1,NA,TRUE,f,f,NA,NA,NA,2,6,"9,2,11,4,13,15,14,3,1,7,8,10,12,5,6"
14397,commdev-image-keyboard-response,265,565628,learnblock1,807.8000000007451,img/planet4_right.png,4,Community 1,NA,TRUE,j,j,NA,NA,NA,2,6,"9,2,11,4,13,15,14,3,1,7,8,10,12,5,6"
14397,commdev-image-keyboard-response,266,566881,learnblock1,834.7000000001863,img/planet9_left.png,9,Community 1,NA,TRUE,f,f,NA,NA,NA,2,6,"9,2,11,4,13,15,14,3,1,7,8,10,12,5,6"
14397,commdev-image-keyboard-response,267,568133,learnblock1,1164.5999999996275,img/planet2_left.png,2,Community 1,NA,TRUE,f,f,NA,NA,NA,2,6,"9,2,11,4,13,15,14,3,1,7,8,10,12,5,6"
14397,commdev-image-keyboard-response,268,569386,learnblock1,615.2000000001863,img/planet9_left.png,9,Community 1,NA,TRUE,f,f,NA,NA,NA,2,6,"9,2,11,4,13,15,14,3,1,7,8,10,12,5,6"
14397,commdev-image-keyboard-response,269,570638,learnblock1,883,img/planet2_left.png,2,Community 1,NA,TRUE,f,f,NA,NA,NA,2,6,"9,2,11,4,13,15,14,3,1,7,8,10,12,5,6"
14397,commdev-image-keyboard-response,270,571891,learnblock1,602.5,img/planet9_left.png,9,Community 1,NA,TRUE,f,f,NA,NA,NA,2,6,"9,2,11,4,13,15,14,3,1,7,8,10,12,5,6"
14397,commdev-image-keyboard-response,271,573144,learnblock1,469.90000000037253,img/planet2_left.png,2,Community 1,NA,TRUE,f,f,NA,NA,NA,2,6,"9,2,11,4,13,15,14,3,1,7,8,10,12,5,6"
14397,commdev-image-keyboard-response,272,574397,learnblock1,521,img/planet11_right.png,11,Community 1,NA,TRUE,j,j,NA,NA,NA,2,6,"9,2,11,4,13,15,14,3,1,7,8,10,12,5,6"
14397,commdev-image-keyboard-response,273,575649,learnblock1,150,img/planet2_left.png,2,Community 1,NA,FALSE,j,f,NA,NA,NA,2,6,"9,2,11,4,13,15,14,3,1,7,8,10,12,5,6"
14397,commdev-image-keyboard-response,274,576902,learnblock1,607.2000000001863,img/planet4_right.png,4,Community 1,NA,TRUE,j,j,NA,NA,NA,2,6,"9,2,11,4,13,15,14,3,1,7,8,10,12,5,6"
14397,commdev-image-keyboard-response,275,578155,learnblock1,587.2999999998137,img/planet9_right.png,9,Community 1,NA,FALSE,f,j,NA,NA,NA,2,6,"9,2,11,4,13,15,14,3,1,7,8,10,12,5,6"
14397,commdev-image-keyboard-response,276,579408,learnblock1,1023.2999999998137,img/planet13_right.png,13,Community 1,NA,TRUE,j,j,NA,NA,NA,2,6,"9,2,11,4,13,15,14,3,1,7,8,10,12,5,6"
14397,commdev-image-keyboard-response,277,580659,learnblock1,855,img/planet2_right.png,2,Community 1,NA,TRUE,j,j,NA,NA,NA,2,6,"9,2,11,4,13,15,14,3,1,7,8,10,12,5,6"
14397,commdev-image-keyboard-response,278,581911,learnblock1,685.4000000003725,img/planet11_right.png,11,Community 1,NA,FALSE,f,j,NA,NA,NA,2,6,"9,2,11,4,13,15,14,3,1,7,8,10,12,5,6"
14397,commdev-image-keyboard-response,279,583164,learnblock1,691.3999999994412,img/planet2_left.png,2,Community 1,NA,TRUE,f,f,NA,NA,NA,2,6,"9,2,11,4,13,15,14,3,1,7,8,10,12,5,6"
14397,commdev-image-keyboard-response,280,584415,learnblock1,537,img/planet11_right.png,11,Community 1,NA,FALSE,f,j,NA,NA,NA,2,6,"9,2,11,4,13,15,14,3,1,7,8,10,12,5,6"
14397,commdev-image-keyboard-response,281,585668,learnblock1,526.2000000001863,img/planet13_right.png,13,Community 1,NA,TRUE,j,j,NA,NA,NA,2,6,"9,2,11,4,13,15,14,3,1,7,8,10,12,5,6"
14397,commdev-image-keyboard-response,282,586919,learnblock1,478.70000000018626,img/planet11_left.png,11,Community 1,NA,TRUE,f,f,NA,NA,NA,2,6,"9,2,11,4,13,15,14,3,1,7,8,10,12,5,6"
14397,commdev-image-keyboard-response,283,588172,learnblock1,440.29999999981374,img/planet13_left.png,13,Community 1,NA,FALSE,j,f,NA,NA,NA,2,6,"9,2,11,4,13,15,14,3,1,7,8,10,12,5,6"
14397,commdev-image-keyboard-response,284,589424,learnblock1,508.40000000037253,img/planet8_right.png,8,Community 3,NA,FALSE,f,j,NA,NA,NA,2,6,"9,2,11,4,13,15,14,3,1,7,8,10,12,5,6"
14397,commdev-image-keyboard-response,285,590677,learnblock1,705.9000000003725,img/planet12_right.png,12,Community 3,NA,TRUE,j,j,NA,NA,NA,2,6,"9,2,11,4,13,15,14,3,1,7,8,10,12,5,6"
14397,commdev-image-keyboard-response,286,591930,learnblock1,181.90000000037253,img/planet10_left.png,10,Community 3,NA,TRUE,f,f,NA,NA,NA,2,6,"9,2,11,4,13,15,14,3,1,7,8,10,12,5,6"
14397,commdev-image-keyboard-response,287,593183,learnblock1,239.09999999962747,img/planet6_left.png,6,Community 3,NA,FALSE,j,f,NA,NA,NA,2,6,"9,2,11,4,13,15,14,3,1,7,8,10,12,5,6"
14397,commdev-image-keyboard-response,288,594435,learnblock1,360.69999999925494,img/planet8_right.png,8,Community 3,NA,TRUE,j,j,NA,NA,NA,2,6,"9,2,11,4,13,15,14,3,1,7,8,10,12,5,6"
14397,commdev-image-keyboard-response,289,595688,learnblock1,202,img/planet5_left.png,5,Community 3,NA,TRUE,f,f,NA,NA,NA,2,6,"9,2,11,4,13,15,14,3,1,7,8,10,12,5,6"
14397,commdev-image-keyboard-response,290,596940,learnblock1,24.5,img/planet6_right.png,6,Community 3,NA,TRUE,j,j,NA,NA,NA,2,6,"9,2,11,4,13,15,14,3,1,7,8,10,12,5,6"
14397,commdev-image-keyboard-response,291,598193,learnblock1,11.600000000558794,img/planet5_right.png,5,Community 3,NA,TRUE,j,j,NA,NA,NA,2,6,"9,2,11,4,13,15,14,3,1,7,8,10,12,5,6"
14397,commdev-image-keyboard-response,292,599445,learnblock1,58,img/planet6_left.png,6,Community 3,NA,FALSE,j,f,NA,NA,NA,2,6,"9,2,11,4,13,15,14,3,1,7,8,10,12,5,6"
14397,commdev-image-keyboard-response,293,600698,learnblock1,567.5,img/planet8_right.png,8,Community 3,NA,TRUE,j,j,NA,NA,NA,2,6,"9,2,11,4,13,15,14,3,1,7,8,10,12,5,6"
14397,commdev-image-keyboard-response,294,601951,learnblock1,null,img/planet12_left.png,12,Community 3,NA,FALSE,null,f,NA,NA,NA,2,6,"9,2,11,4,13,15,14,3,1,7,8,10,12,5,6"
14397,commdev-image-keyboard-response,295,603204,learnblock1,null,img/planet8_right.png,8,Community 3,NA,FALSE,null,j,NA,NA,NA,2,6,"9,2,11,4,13,15,14,3,1,7,8,10,12,5,6"
14397,commdev-image-keyboard-response,296,604457,learnblock1,null,img/planet12_right.png,12,Community 3,NA,FALSE,null,j,NA,NA,NA,2,6,"9,2,11,4,13,15,14,3,1,7,8,10,12,5,6"
14397,commdev-image-keyboard-response,297,605711,learnblock1,971,img/planet8_right.png,8,Community 3,NA,TRUE,j,j,NA,NA,NA,2,6,"9,2,11,4,13,15,14,3,1,7,8,10,12,5,6"
14397,commdev-image-keyboard-response,298,606964,learnblock1,760.1999999992549,img/planet13_right.png,13,Community 1,NA,TRUE,j,j,NA,NA,NA,2,6,"9,2,11,4,13,15,14,3,1,7,8,10,12,5,6"
14397,commdev-image-keyboard-response,299,608217,learnblock1,751.7999999998137,img/planet8_right.png,8,Community 3,NA,FALSE,f,j,NA,NA,NA,2,6,"9,2,11,4,13,15,14,3,1,7,8,10,12,5,6"
14397,commdev-image-keyboard-response,300,609471,learnblock1,644,img/planet12_right.png,12,Community 3,NA,TRUE,j,j,NA,NA,NA,2,6,"9,2,11,4,13,15,14,3,1,7,8,10,12,5,6"
14397,commdev-image-keyboard-response,301,610723,learnblock1,1048.4000000003725,img/planet6_right.png,6,Community 3,NA,TRUE,j,j,NA,NA,NA,2,6,"9,2,11,4,13,15,14,3,1,7,8,10,12,5,6"
14397,commdev-image-keyboard-response,302,611975,learnblock1,863.2000000001863,img/planet12_left.png,12,Community 3,NA,TRUE,f,f,NA,NA,NA,2,6,"9,2,11,4,13,15,14,3,1,7,8,10,12,5,6"
14397,commdev-image-keyboard-response,303,613228,learnblock1,1163,img/planet8_right.png,8,Community 3,NA,TRUE,j,j,NA,NA,NA,2,6,"9,2,11,4,13,15,14,3,1,7,8,10,12,5,6"
14397,commdev-image-keyboard-response,304,614481,learnblock1,853.3999999994412,img/planet13_left.png,13,Community 1,NA,TRUE,f,f,NA,NA,NA,2,6,"9,2,11,4,13,15,14,3,1,7,8,10,12,5,6"
14397,commdev-image-keyboard-response,305,615734,learnblock1,743.4000000003725,img/planet2_left.png,2,Community 1,NA,TRUE,f,f,NA,NA,NA,2,6,"9,2,11,4,13,15,14,3,1,7,8,10,12,5,6"
14397,commdev-image-keyboard-response,306,616986,learnblock1,560.9000000003725,img/planet13_left.png,13,Community 1,NA,TRUE,f,f,NA,NA,NA,2,6,"9,2,11,4,13,15,14,3,1,7,8,10,12,5,6"
14397,commdev-image-keyboard-response,307,618239,learnblock1,609.8999999994412,img/planet2_left.png,2,Community 1,NA,TRUE,f,f,NA,NA,NA,2,6,"9,2,11,4,13,15,14,3,1,7,8,10,12,5,6"
14397,commdev-image-keyboard-response,308,619491,learnblock1,597.7000000001863,img/planet9_right.png,9,Community 1,NA,TRUE,j,j,NA,NA,NA,2,6,"9,2,11,4,13,15,14,3,1,7,8,10,12,5,6"
14397,commdev-image-keyboard-response,309,620743,learnblock1,572.7999999998137,img/planet13_right.png,13,Community 1,NA,TRUE,j,j,NA,NA,NA,2,6,"9,2,11,4,13,15,14,3,1,7,8,10,12,5,6"
14397,commdev-image-keyboard-response,310,621995,learnblock1,684.7000000001863,img/planet11_left.png,11,Community 1,NA,TRUE,f,f,NA,NA,NA,2,6,"9,2,11,4,13,15,14,3,1,7,8,10,12,5,6"
14397,commdev-image-keyboard-response,311,623248,learnblock1,609.2999999998137,img/planet9_right.png,9,Community 1,NA,FALSE,f,j,NA,NA,NA,2,6,"9,2,11,4,13,15,14,3,1,7,8,10,12,5,6"
14397,commdev-image-keyboard-response,312,624501,learnblock1,781.7999999998137,img/planet13_left.png,13,Community 1,NA,TRUE,f,f,NA,NA,NA,2,6,"9,2,11,4,13,15,14,3,1,7,8,10,12,5,6"
14397,commdev-image-keyboard-response,313,625753,learnblock1,29.59999999962747,img/planet11_left.png,11,Community 1,NA,TRUE,f,f,NA,NA,NA,2,6,"9,2,11,4,13,15,14,3,1,7,8,10,12,5,6"
14397,commdev-image-keyboard-response,314,627005,learnblock1,215.80000000074506,img/planet9_left.png,9,Community 1,NA,TRUE,f,f,NA,NA,NA,2,6,"9,2,11,4,13,15,14,3,1,7,8,10,12,5,6"
14397,commdev-image-keyboard-response,315,628259,learnblock1,51.5,img/planet2_left.png,2,Community 1,NA,TRUE,f,f,NA,NA,NA,2,6,"9,2,11,4,13,15,14,3,1,7,8,10,12,5,6"
14397,commdev-image-keyboard-response,316,629511,learnblock1,592,img/planet9_left.png,9,Community 1,NA,TRUE,f,f,NA,NA,NA,2,6,"9,2,11,4,13,15,14,3,1,7,8,10,12,5,6"
14397,commdev-image-keyboard-response,317,630763,learnblock1,771.2999999998137,img/planet4_right.png,4,Community 1,NA,TRUE,j,j,NA,NA,NA,2,6,"9,2,11,4,13,15,14,3,1,7,8,10,12,5,6"
14397,commdev-image-keyboard-response,318,632015,learnblock1,969.8000000007451,img/planet15_right.png,15,Community 2,NA,TRUE,j,j,NA,NA,NA,2,6,"9,2,11,4,13,15,14,3,1,7,8,10,12,5,6"
14397,commdev-image-keyboard-response,319,633268,learnblock1,848.2000000001863,img/planet1_right.png,1,Community 2,NA,TRUE,j,j,NA,NA,NA,2,6,"9,2,11,4,13,15,14,3,1,7,8,10,12,5,6"
14397,commdev-image-keyboard-response,320,634521,learnblock1,744.3999999994412,img/planet3_right.png,3,Community 2,NA,TRUE,j,j,NA,NA,NA,2,6,"9,2,11,4,13,15,14,3,1,7,8,10,12,5,6"
14397,commdev-image-keyboard-response,321,635772,learnblock1,628.5,img/planet10_left.png,10,Community 3,NA,TRUE,f,f,NA,NA,NA,2,6,"9,2,11,4,13,15,14,3,1,7,8,10,12,5,6"
14397,commdev-image-keyboard-response,322,637025,learnblock1,957.2000000001863,img/planet6_left.png,6,Community 3,NA,FALSE,j,f,NA,NA,NA,2,6,"9,2,11,4,13,15,14,3,1,7,8,10,12,5,6"
14397,commdev-image-keyboard-response,323,638279,learnblock1,608.3999999994412,img/planet12_left.png,12,Community 3,NA,TRUE,f,f,NA,NA,NA,2,6,"9,2,11,4,13,15,14,3,1,7,8,10,12,5,6"
14397,commdev-image-keyboard-response,324,639531,learnblock1,77,img/planet8_left.png,8,Community 3,NA,FALSE,j,f,NA,NA,NA,2,6,"9,2,11,4,13,15,14,3,1,7,8,10,12,5,6"
14397,commdev-image-keyboard-response,325,640785,learnblock1,242.5,img/planet6_left.png,6,Community 3,NA,TRUE,f,f,NA,NA,NA,2,6,"9,2,11,4,13,15,14,3,1,7,8,10,12,5,6"
14397,commdev-image-keyboard-response,326,642037,learnblock1,205.59999999962747,img/planet10_left.png,10,Community 3,NA,TRUE,f,f,NA,NA,NA,2,6,"9,2,11,4,13,15,14,3,1,7,8,10,12,5,6"
14397,commdev-image-keyboard-response,327,643290,learnblock1,132.8999999994412,img/planet5_left.png,5,Community 3,NA,TRUE,f,f,NA,NA,NA,2,6,"9,2,11,4,13,15,14,3,1,7,8,10,12,5,6"
14397,commdev-image-keyboard-response,328,644542,learnblock1,46.200000000186265,img/planet10_left.png,10,Community 3,NA,TRUE,f,f,NA,NA,NA,2,6,"9,2,11,4,13,15,14,3,1,7,8,10,12,5,6"
14397,commdev-image-keyboard-response,329,645794,learnblock1,21.5,img/planet6_left.png,6,Community 3,NA,TRUE,f,f,NA,NA,NA,2,6,"9,2,11,4,13,15,14,3,1,7,8,10,12,5,6"
14397,commdev-image-keyboard-response,330,647046,learnblock1,191.90000000037253,img/planet12_right.png,12,Community 3,NA,FALSE,f,j,NA,NA,NA,2,6,"9,2,11,4,13,15,14,3,1,7,8,10,12,5,6"
14397,commdev-image-keyboard-response,331,648299,learnblock1,280.90000000037253,img/planet8_left.png,8,Community 3,NA,FALSE,j,f,NA,NA,NA,2,6,"9,2,11,4,13,15,14,3,1,7,8,10,12,5,6"
14397,commdev-image-keyboard-response,332,649553,learnblock1,155.20000000018626,img/planet6_right.png,6,Community 3,NA,FALSE,f,j,NA,NA,NA,2,6,"9,2,11,4,13,15,14,3,1,7,8,10,12,5,6"
14397,commdev-image-keyboard-response,333,650805,learnblock1,857.5,img/planet5_right.png,5,Community 3,NA,TRUE,j,j,NA,NA,NA,2,6,"9,2,11,4,13,15,14,3,1,7,8,10,12,5,6"
14397,commdev-image-keyboard-response,334,652058,learnblock1,931,img/planet6_left.png,6,Community 3,NA,TRUE,f,f,NA,NA,NA,2,6,"9,2,11,4,13,15,14,3,1,7,8,10,12,5,6"
14397,commdev-image-keyboard-response,335,653311,learnblock1,887.7000000001863,img/planet8_left.png,8,Community 3,NA,TRUE,f,f,NA,NA,NA,2,6,"9,2,11,4,13,15,14,3,1,7,8,10,12,5,6"
14397,commdev-image-keyboard-response,336,654563,learnblock1,1092.0999999996275,img/planet12_left.png,12,Community 3,NA,TRUE,f,f,NA,NA,NA,2,6,"9,2,11,4,13,15,14,3,1,7,8,10,12,5,6"
14397,commdev-image-keyboard-response,337,655815,learnblock1,841.2000000001863,img/planet6_right.png,6,Community 3,NA,FALSE,f,j,NA,NA,NA,2,6,"9,2,11,4,13,15,14,3,1,7,8,10,12,5,6"
14397,commdev-image-keyboard-response,338,657068,learnblock1,356.30000000074506,img/planet10_right.png,10,Community 3,NA,FALSE,f,j,NA,NA,NA,2,6,"9,2,11,4,13,15,14,3,1,7,8,10,12,5,6"
14397,commdev-image-keyboard-response,339,658320,learnblock1,294,img/planet6_right.png,6,Community 3,NA,TRUE,j,j,NA,NA,NA,2,6,"9,2,11,4,13,15,14,3,1,7,8,10,12,5,6"
14397,commdev-image-keyboard-response,340,659572,learnblock1,835,img/planet12_right.png,12,Community 3,NA,TRUE,j,j,NA,NA,NA,2,6,"9,2,11,4,13,15,14,3,1,7,8,10,12,5,6"
14397,commdev-image-keyboard-response,341,660824,learnblock1,784.5,img/planet10_left.png,10,Community 3,NA,TRUE,f,f,NA,NA,NA,2,6,"9,2,11,4,13,15,14,3,1,7,8,10,12,5,6"
14397,commdev-image-keyboard-response,342,662076,learnblock1,922.2000000001863,img/planet5_right.png,5,Community 3,NA,TRUE,j,j,NA,NA,NA,2,6,"9,2,11,4,13,15,14,3,1,7,8,10,12,5,6"
14397,commdev-image-keyboard-response,343,663330,learnblock1,951.2999999998137,img/planet12_right.png,12,Community 3,NA,TRUE,j,j,NA,NA,NA,2,6,"9,2,11,4,13,15,14,3,1,7,8,10,12,5,6"
14397,commdev-image-keyboard-response,344,664582,learnblock1,797.7999999998137,img/planet8_right.png,8,Community 3,NA,TRUE,j,j,NA,NA,NA,2,6,"9,2,11,4,13,15,14,3,1,7,8,10,12,5,6"
14397,commdev-image-keyboard-response,345,665835,learnblock1,989.7000000001863,img/planet5_left.png,5,Community 3,NA,TRUE,f,f,NA,NA,NA,2,6,"9,2,11,4,13,15,14,3,1,7,8,10,12,5,6"
14397,commdev-image-keyboard-response,346,667089,learnblock1,1145.7000000001863,img/planet12_right.png,12,Community 3,NA,TRUE,j,j,NA,NA,NA,2,6,"9,2,11,4,13,15,14,3,1,7,8,10,12,5,6"
14397,commdev-image-keyboard-response,347,668341,learnblock1,775.0999999996275,img/planet5_right.png,5,Community 3,NA,TRUE,j,j,NA,NA,NA,2,6,"9,2,11,4,13,15,14,3,1,7,8,10,12,5,6"
14397,commdev-image-keyboard-response,351,803412,learnblock2,918.2000000001863,img/planet4_right.png,4,Community 1,NA,TRUE,j,j,NA,NA,NA,2,6,"9,2,11,4,13,15,14,3,1,7,8,10,12,5,6"
14397,commdev-image-keyboard-response,352,804665,learnblock2,732.0999999996275,img/planet2_left.png,2,Community 1,NA,TRUE,f,f,NA,NA,NA,2,6,"9,2,11,4,13,15,14,3,1,7,8,10,12,5,6"
14397,commdev-image-keyboard-response,353,805918,learnblock2,603.8000000007451,img/planet4_left.png,4,Community 1,NA,TRUE,f,f,NA,NA,NA,2,6,"9,2,11,4,13,15,14,3,1,7,8,10,12,5,6"
14397,commdev-image-keyboard-response,354,807171,learnblock2,819.2999999998137,img/planet15_right.png,15,Community 2,NA,TRUE,j,j,NA,NA,NA,2,6,"9,2,11,4,13,15,14,3,1,7,8,10,12,5,6"
14397,commdev-image-keyboard-response,355,808424,learnblock2,785.2000000001863,img/planet7_left.png,7,Community 2,NA,FALSE,j,f,NA,NA,NA,2,6,"9,2,11,4,13,15,14,3,1,7,8,10,12,5,6"
14397,commdev-image-keyboard-response,356,809676,learnblock2,742.7000000001863,img/planet15_left.png,15,Community 2,NA,TRUE,f,f,NA,NA,NA,2,6,"9,2,11,4,13,15,14,3,1,7,8,10,12,5,6"
14397,commdev-image-keyboard-response,357,810928,learnblock2,663.7999999998137,img/planet7_right.png,7,Community 2,NA,FALSE,f,j,NA,NA,NA,2,6,"9,2,11,4,13,15,14,3,1,7,8,10,12,5,6"
14397,commdev-image-keyboard-response,358,812181,learnblock2,836.4000000003725,img/planet14_left.png,14,Community 2,NA,TRUE,f,f,NA,NA,NA,2,6,"9,2,11,4,13,15,14,3,1,7,8,10,12,5,6"
14397,commdev-image-keyboard-response,359,813434,learnblock2,443.29999999981374,img/planet1_right.png,1,Community 2,NA,FALSE,f,j,NA,NA,NA,2,6,"9,2,11,4,13,15,14,3,1,7,8,10,12,5,6"
14397,commdev-image-keyboard-response,360,814687,learnblock2,36.700000000186265,img/planet15_right.png,15,Community 2,NA,TRUE,j,j,NA,NA,NA,2,6,"9,2,11,4,13,15,14,3,1,7,8,10,12,5,6"
14397,commdev-image-keyboard-response,361,815940,learnblock2,134.69999999925494,img/planet7_right.png,7,Community 2,NA,TRUE,j,j,NA,NA,NA,2,6,"9,2,11,4,13,15,14,3,1,7,8,10,12,5,6"
14397,commdev-image-keyboard-response,362,817192,learnblock2,228.19999999925494,img/planet15_left.png,15,Community 2,NA,FALSE,j,f,NA,NA,NA,2,6,"9,2,11,4,13,15,14,3,1,7,8,10,12,5,6"
14397,commdev-image-keyboard-response,363,818445,learnblock2,208.6000000005588,img/planet14_left.png,14,Community 2,NA,FALSE,j,f,NA,NA,NA,2,6,"9,2,11,4,13,15,14,3,1,7,8,10,12,5,6"
14397,commdev-image-keyboard-response,364,819698,learnblock2,113.90000000037253,img/planet15_right.png,15,Community 2,NA,TRUE,j,j,NA,NA,NA,2,6,"9,2,11,4,13,15,14,3,1,7,8,10,12,5,6"
14397,commdev-image-keyboard-response,365,820951,learnblock2,13.799999999813735,img/planet1_right.png,1,Community 2,NA,FALSE,f,j,NA,NA,NA,2,6,"9,2,11,4,13,15,14,3,1,7,8,10,12,5,6"
14397,commdev-image-keyboard-response,366,822204,learnblock2,346.79999999981374,img/planet7_right.png,7,Community 2,NA,TRUE,j,j,NA,NA,NA,2,6,"9,2,11,4,13,15,14,3,1,7,8,10,12,5,6"
14397,commdev-image-keyboard-response,367,823458,learnblock2,285.29999999981374,img/planet14_left.png,14,Community 2,NA,FALSE,j,f,NA,NA,NA,2,6,"9,2,11,4,13,15,14,3,1,7,8,10,12,5,6"
14397,commdev-image-keyboard-response,368,824710,learnblock2,235.20000000018626,img/planet15_left.png,15,Community 2,NA,TRUE,f,f,NA,NA,NA,2,6,"9,2,11,4,13,15,14,3,1,7,8,10,12,5,6"
14397,commdev-image-keyboard-response,369,825963,learnblock2,197.3999999994412,img/planet4_right.png,4,Community 1,NA,TRUE,j,j,NA,NA,NA,2,6,"9,2,11,4,13,15,14,3,1,7,8,10,12,5,6"
14397,commdev-image-keyboard-response,370,827216,learnblock2,168,img/planet2_left.png,2,Community 1,NA,TRUE,f,f,NA,NA,NA,2,6,"9,2,11,4,13,15,14,3,1,7,8,10,12,5,6"
14397,commdev-image-keyboard-response,371,828470,learnblock2,59.700000000186265,img/planet11_right.png,11,Community 1,NA,FALSE,f,j,NA,NA,NA,2,6,"9,2,11,4,13,15,14,3,1,7,8,10,12,5,6"
14397,commdev-image-keyboard-response,372,829723,learnblock2,694,img/planet9_left.png,9,Community 1,NA,TRUE,f,f,NA,NA,NA,2,6,"9,2,11,4,13,15,14,3,1,7,8,10,12,5,6"
14397,commdev-image-keyboard-response,373,830977,learnblock2,771,img/planet13_left.png,13,Community 1,NA,TRUE,f,f,NA,NA,NA,2,6,"9,2,11,4,13,15,14,3,1,7,8,10,12,5,6"
14397,commdev-image-keyboard-response,374,832229,learnblock2,null,img/planet9_left.png,9,Community 1,NA,FALSE,null,f,NA,NA,NA,2,6,"9,2,11,4,13,15,14,3,1,7,8,10,12,5,6"
14397,commdev-image-keyboard-response,375,833482,learnblock2,44.60000000055879,img/planet13_left.png,13,Community 1,NA,TRUE,f,f,NA,NA,NA,2,6,"9,2,11,4,13,15,14,3,1,7,8,10,12,5,6"
14397,commdev-image-keyboard-response,376,834735,learnblock2,487.20000000018626,img/planet2_right.png,2,Community 1,NA,FALSE,f,j,NA,NA,NA,2,6,"9,2,11,4,13,15,14,3,1,7,8,10,12,5,6"
14397,commdev-image-keyboard-response,377,835987,learnblock2,466.59999999962747,img/planet4_right.png,4,Community 1,NA,FALSE,f,j,NA,NA,NA,2,6,"9,2,11,4,13,15,14,3,1,7,8,10,12,5,6"
14397,commdev-image-keyboard-response,378,837240,learnblock2,345.19999999925494,img/planet9_left.png,9,Community 1,NA,FALSE,j,f,NA,NA,NA,2,6,"9,2,11,4,13,15,14,3,1,7,8,10,12,5,6"
14397,commdev-image-keyboard-response,379,838494,learnblock2,221,img/planet2_left.png,2,Community 1,NA,TRUE,f,f,NA,NA,NA,2,6,"9,2,11,4,13,15,14,3,1,7,8,10,12,5,6"
14397,commdev-image-keyboard-response,380,839747,learnblock2,80.09999999962747,img/planet9_right.png,9,Community 1,NA,FALSE,f,j,NA,NA,NA,2,6,"9,2,11,4,13,15,14,3,1,7,8,10,12,5,6"
14397,commdev-image-keyboard-response,381,841001,learnblock2,88.79999999981374,img/planet4_left.png,4,Community 1,NA,FALSE,j,f,NA,NA,NA,2,6,"9,2,11,4,13,15,14,3,1,7,8,10,12,5,6"
14397,commdev-image-keyboard-response,382,842254,learnblock2,47.700000000186265,img/planet11_right.png,11,Community 1,NA,FALSE,f,j,NA,NA,NA,2,6,"9,2,11,4,13,15,14,3,1,7,8,10,12,5,6"
14397,commdev-image-keyboard-response,383,843507,learnblock2,310.79999999981374,img/planet13_left.png,13,Community 1,NA,TRUE,f,f,NA,NA,NA,2,6,"9,2,11,4,13,15,14,3,1,7,8,10,12,5,6"
14397,commdev-image-keyboard-response,384,844759,learnblock2,118.3999999994412,img/planet9_right.png,9,Community 1,NA,FALSE,f,j,NA,NA,NA,2,6,"9,2,11,4,13,15,14,3,1,7,8,10,12,5,6"
14397,commdev-image-keyboard-response,385,846012,learnblock2,26.90000000037253,img/planet13_right.png,13,Community 1,NA,TRUE,j,j,NA,NA,NA,2,6,"9,2,11,4,13,15,14,3,1,7,8,10,12,5,6"
14397,commdev-image-keyboard-response,386,847265,learnblock2,144.70000000018626,img/planet9_right.png,9,Community 1,NA,TRUE,j,j,NA,NA,NA,2,6,"9,2,11,4,13,15,14,3,1,7,8,10,12,5,6"
14397,commdev-image-keyboard-response,387,848518,learnblock2,64.90000000037253,img/planet4_left.png,4,Community 1,NA,FALSE,j,f,NA,NA,NA,2,6,"9,2,11,4,13,15,14,3,1,7,8,10,12,5,6"
14397,commdev-image-keyboard-response,388,849772,learnblock2,14.799999999813735,img/planet15_left.png,15,Community 2,NA,TRUE,f,f,NA,NA,NA,2,6,"9,2,11,4,13,15,14,3,1,7,8,10,12,5,6"
14397,commdev-image-keyboard-response,389,851025,learnblock2,637.7000000001863,img/planet1_right.png,1,Community 2,NA,TRUE,j,j,NA,NA,NA,2,6,"9,2,11,4,13,15,14,3,1,7,8,10,12,5,6"
14397,commdev-image-keyboard-response,390,852278,learnblock2,768.5,img/planet14_right.png,14,Community 2,NA,TRUE,j,j,NA,NA,NA,2,6,"9,2,11,4,13,15,14,3,1,7,8,10,12,5,6"
14397,commdev-image-keyboard-response,391,853531,learnblock2,101.90000000037253,img/planet7_right.png,7,Community 2,NA,TRUE,j,j,NA,NA,NA,2,6,"9,2,11,4,13,15,14,3,1,7,8,10,12,5,6"
14397,commdev-image-keyboard-response,392,854785,learnblock2,60.299999999813735,img/planet1_right.png,1,Community 2,NA,TRUE,j,j,NA,NA,NA,2,6,"9,2,11,4,13,15,14,3,1,7,8,10,12,5,6"
14397,commdev-image-keyboard-response,393,856038,learnblock2,692,img/planet7_left.png,7,Community 2,NA,TRUE,f,f,NA,NA,NA,2,6,"9,2,11,4,13,15,14,3,1,7,8,10,12,5,6"
14397,commdev-image-keyboard-response,394,857291,learnblock2,734.1999999992549,img/planet1_left.png,1,Community 2,NA,TRUE,f,f,NA,NA,NA,2,6,"9,2,11,4,13,15,14,3,1,7,8,10,12,5,6"
14397,commdev-image-keyboard-response,395,858544,learnblock2,21.299999999813735,img/planet15_left.png,15,Community 2,NA,TRUE,f,f,NA,NA,NA,2,6,"9,2,11,4,13,15,14,3,1,7,8,10,12,5,6"
14397,commdev-image-keyboard-response,396,859797,learnblock2,581.9000000003725,img/planet7_left.png,7,Community 2,NA,TRUE,f,f,NA,NA,NA,2,6,"9,2,11,4,13,15,14,3,1,7,8,10,12,5,6"
14397,commdev-image-keyboard-response,397,861050,learnblock2,492.79999999981374,img/planet1_left.png,1,Community 2,NA,TRUE,f,f,NA,NA,NA,2,6,"9,2,11,4,13,15,14,3,1,7,8,10,12,5,6"
14397,commdev-image-keyboard-response,398,862304,learnblock2,424.6000000005588,img/planet15_right.png,15,Community 2,NA,FALSE,f,j,NA,NA,NA,2,6,"9,2,11,4,13,15,14,3,1,7,8,10,12,5,6"
14397,commdev-image-keyboard-response,399,863557,learnblock2,516.2999999998137,img/planet4_right.png,4,Community 1,NA,FALSE,f,j,NA,NA,NA,2,6,"9,2,11,4,13,15,14,3,1,7,8,10,12,5,6"
14397,commdev-image-keyboard-response,400,864810,learnblock2,752.0999999996275,img/planet11_right.png,11,Community 1,NA,TRUE,j,j,NA,NA,NA,2,6,"9,2,11,4,13,15,14,3,1,7,8,10,12,5,6"
14397,commdev-image-keyboard-response,401,866062,learnblock2,65.20000000018626,img/planet2_left.png,2,Community 1,NA,FALSE,j,f,NA,NA,NA,2,6,"9,2,11,4,13,15,14,3,1,7,8,10,12,5,6"
14397,commdev-image-keyboard-response,402,867316,learnblock2,581.2999999998137,img/planet13_left.png,13,Community 1,NA,TRUE,f,f,NA,NA,NA,2,6,"9,2,11,4,13,15,14,3,1,7,8,10,12,5,6"
14397,commdev-image-keyboard-response,403,868569,learnblock2,456.09999999962747,img/planet2_left.png,2,Community 1,NA,TRUE,f,f,NA,NA,NA,2,6,"9,2,11,4,13,15,14,3,1,7,8,10,12,5,6"
14397,commdev-image-keyboard-response,404,869822,learnblock2,619.5,img/planet13_right.png,13,Community 1,NA,TRUE,j,j,NA,NA,NA,2,6,"9,2,11,4,13,15,14,3,1,7,8,10,12,5,6"
14397,commdev-image-keyboard-response,405,871075,learnblock2,504.59999999962747,img/planet2_right.png,2,Community 1,NA,TRUE,j,j,NA,NA,NA,2,6,"9,2,11,4,13,15,14,3,1,7,8,10,12,5,6"
14397,commdev-image-keyboard-response,406,872328,learnblock2,400.80000000074506,img/planet13_right.png,13,Community 1,NA,TRUE,j,j,NA,NA,NA,2,6,"9,2,11,4,13,15,14,3,1,7,8,10,12,5,6"
14397,commdev-image-keyboard-response,407,873581,learnblock2,674,img/planet8_right.png,8,Community 3,NA,TRUE,j,j,NA,NA,NA,2,6,"9,2,11,4,13,15,14,3,1,7,8,10,12,5,6"
14397,commdev-image-keyboard-response,408,874834,learnblock2,768.6000000005588,img/planet13_left.png,13,Community 1,NA,TRUE,f,f,NA,NA,NA,2,6,"9,2,11,4,13,15,14,3,1,7,8,10,12,5,6"
14397,commdev-image-keyboard-response,409,876088,learnblock2,45.69999999925494,img/planet9_left.png,9,Community 1,NA,TRUE,f,f,NA,NA,NA,2,6,"9,2,11,4,13,15,14,3,1,7,8,10,12,5,6"
14397,commdev-image-keyboard-response,410,877341,learnblock2,532.3999999994412,img/planet11_left.png,11,Community 1,NA,TRUE,f,f,NA,NA,NA,2,6,"9,2,11,4,13,15,14,3,1,7,8,10,12,5,6"
14397,commdev-image-keyboard-response,411,878595,learnblock2,726.7000000001863,img/planet4_left.png,4,Community 1,NA,FALSE,j,f,NA,NA,NA,2,6,"9,2,11,4,13,15,14,3,1,7,8,10,12,5,6"
14397,commdev-image-keyboard-response,412,879849,learnblock2,28.100000000558794,img/planet15_left.png,15,Community 2,NA,FALSE,j,f,NA,NA,NA,2,6,"9,2,11,4,13,15,14,3,1,7,8,10,12,5,6"
14397,commdev-image-keyboard-response,413,881102,learnblock2,80.5,img/planet4_left.png,4,Community 1,NA,FALSE,j,f,NA,NA,NA,2,6,"9,2,11,4,13,15,14,3,1,7,8,10,12,5,6"
14397,commdev-image-keyboard-response,414,882355,learnblock2,17.5,img/planet2_left.png,2,Community 1,NA,FALSE,j,f,NA,NA,NA,2,6,"9,2,11,4,13,15,14,3,1,7,8,10,12,5,6"
14397,commdev-image-keyboard-response,415,883608,learnblock2,688.7999999998137,img/planet13_left.png,13,Community 1,NA,FALSE,j,f,NA,NA,NA,2,6,"9,2,11,4,13,15,14,3,1,7,8,10,12,5,6"
14397,commdev-image-keyboard-response,416,884861,learnblock2,877.2000000001863,img/planet8_right.png,8,Community 3,NA,FALSE,f,j,NA,NA,NA,2,6,"9,2,11,4,13,15,14,3,1,7,8,10,12,5,6"
14397,commdev-image-keyboard-response,417,886114,learnblock2,90.1000000005588,img/planet5_right.png,5,Community 3,NA,FALSE,f,j,NA,NA,NA,2,6,"9,2,11,4,13,15,14,3,1,7,8,10,12,5,6"
14397,commdev-image-keyboard-response,418,887368,learnblock2,827.7999999998137,img/planet6_right.png,6,Community 3,NA,TRUE,j,j,NA,NA,NA,2,6,"9,2,11,4,13,15,14,3,1,7,8,10,12,5,6"
14397,commdev-image-keyboard-response,419,888622,learnblock2,120,img/planet5_left.png,5,Community 3,NA,FALSE,j,f,NA,NA,NA,2,6,"9,2,11,4,13,15,14,3,1,7,8,10,12,5,6"
14397,commdev-image-keyboard-response,420,889875,learnblock2,209.40000000037253,img/planet10_left.png,10,Community 3,NA,FALSE,j,f,NA,NA,NA,2,6,"9,2,11,4,13,15,14,3,1,7,8,10,12,5,6"
14397,commdev-image-keyboard-response,421,891128,learnblock2,14.300000000745058,img/planet5_left.png,5,Community 3,NA,FALSE,j,f,NA,NA,NA,2,6,"9,2,11,4,13,15,14,3,1,7,8,10,12,5,6"
14397,commdev-image-keyboard-response,422,892381,learnblock2,21.5,img/planet12_right.png,12,Community 3,NA,TRUE,j,j,NA,NA,NA,2,6,"9,2,11,4,13,15,14,3,1,7,8,10,12,5,6"
14397,commdev-image-keyboard-response,423,893634,learnblock2,71.90000000037253,img/planet5_right.png,5,Community 3,NA,TRUE,j,j,NA,NA,NA,2,6,"9,2,11,4,13,15,14,3,1,7,8,10,12,5,6"
14397,commdev-image-keyboard-response,424,894887,learnblock2,282.69999999925494,img/planet6_right.png,6,Community 3,NA,TRUE,j,j,NA,NA,NA,2,6,"9,2,11,4,13,15,14,3,1,7,8,10,12,5,6"
14397,commdev-image-keyboard-response,425,896142,learnblock2,2.3999999994412065,img/planet8_left.png,8,Community 3,NA,TRUE,f,f,NA,NA,NA,2,6,"9,2,11,4,13,15,14,3,1,7,8,10,12,5,6"
14397,commdev-image-keyboard-response,426,897396,learnblock2,67.29999999981374,img/planet12_right.png,12,Community 3,NA,TRUE,j,j,NA,NA,NA,2,6,"9,2,11,4,13,15,14,3,1,7,8,10,12,5,6"
14397,commdev-image-keyboard-response,427,898650,learnblock2,236.5,img/planet8_right.png,8,Community 3,NA,TRUE,j,j,NA,NA,NA,2,6,"9,2,11,4,13,15,14,3,1,7,8,10,12,5,6"
14397,commdev-image-keyboard-response,428,899903,learnblock2,447.1000000005588,img/planet5_right.png,5,Community 3,NA,TRUE,j,j,NA,NA,NA,2,6,"9,2,11,4,13,15,14,3,1,7,8,10,12,5,6"
14397,commdev-image-keyboard-response,429,901156,learnblock2,167.59999999962747,img/planet12_left.png,12,Community 3,NA,TRUE,f,f,NA,NA,NA,2,6,"9,2,11,4,13,15,14,3,1,7,8,10,12,5,6"
14397,commdev-image-keyboard-response,430,902409,learnblock2,351.5,img/planet5_left.png,5,Community 3,NA,TRUE,f,f,NA,NA,NA,2,6,"9,2,11,4,13,15,14,3,1,7,8,10,12,5,6"
14397,commdev-image-keyboard-response,431,903663,learnblock2,125.29999999981374,img/planet12_right.png,12,Community 3,NA,TRUE,j,j,NA,NA,NA,2,6,"9,2,11,4,13,15,14,3,1,7,8,10,12,5,6"
14397,commdev-image-keyboard-response,432,904915,learnblock2,343.09999999962747,img/planet10_left.png,10,Community 3,NA,FALSE,j,f,NA,NA,NA,2,6,"9,2,11,4,13,15,14,3,1,7,8,10,12,5,6"
14397,commdev-image-keyboard-response,433,906169,learnblock2,78.70000000018626,img/planet12_right.png,12,Community 3,NA,TRUE,j,j,NA,NA,NA,2,6,"9,2,11,4,13,15,14,3,1,7,8,10,12,5,6"
14397,commdev-image-keyboard-response,434,907422,learnblock2,337.79999999981374,img/planet10_left.png,10,Community 3,NA,FALSE,j,f,NA,NA,NA,2,6,"9,2,11,4,13,15,14,3,1,7,8,10,12,5,6"
14397,commdev-image-keyboard-response,435,908675,learnblock2,99.79999999981374,img/planet12_right.png,12,Community 3,NA,TRUE,j,j,NA,NA,NA,2,6,"9,2,11,4,13,15,14,3,1,7,8,10,12,5,6"
14397,commdev-image-keyboard-response,436,909928,learnblock2,301.59999999962747,img/planet6_right.png,6,Community 3,NA,TRUE,j,j,NA,NA,NA,2,6,"9,2,11,4,13,15,14,3,1,7,8,10,12,5,6"
14397,commdev-image-keyboard-response,437,911182,learnblock2,60.5,img/planet10_left.png,10,Community 3,NA,FALSE,j,f,NA,NA,NA,2,6,"9,2,11,4,13,15,14,3,1,7,8,10,12,5,6"
14397,commdev-image-keyboard-response,438,912435,learnblock2,330.79999999981374,img/planet5_left.png,5,Community 3,NA,TRUE,f,f,NA,NA,NA,2,6,"9,2,11,4,13,15,14,3,1,7,8,10,12,5,6"
14397,commdev-image-keyboard-response,439,913688,learnblock2,78.29999999981374,img/planet10_right.png,10,Community 3,NA,FALSE,f,j,NA,NA,NA,2,6,"9,2,11,4,13,15,14,3,1,7,8,10,12,5,6"
14397,commdev-image-keyboard-response,440,914940,learnblock2,301.59999999962747,img/planet5_left.png,5,Community 3,NA,FALSE,j,f,NA,NA,NA,2,6,"9,2,11,4,13,15,14,3,1,7,8,10,12,5,6"
14397,commdev-image-keyboard-response,441,916193,learnblock2,40.89999999944121,img/planet12_left.png,12,Community 3,NA,TRUE,f,f,NA,NA,NA,2,6,"9,2,11,4,13,15,14,3,1,7,8,10,12,5,6"
14397,commdev-image-keyboard-response,442,917446,learnblock2,235.3999999994412,img/planet8_right.png,8,Community 3,NA,FALSE,f,j,NA,NA,NA,2,6,"9,2,11,4,13,15,14,3,1,7,8,10,12,5,6"
14397,commdev-image-keyboard-response,443,918699,learnblock2,445.40000000037253,img/planet12_right.png,12,Community 3,NA,TRUE,j,j,NA,NA,NA,2,6,"9,2,11,4,13,15,14,3,1,7,8,10,12,5,6"
14397,commdev-image-keyboard-response,444,919953,learnblock2,149.80000000074506,img/planet10_right.png,10,Community 3,NA,FALSE,f,j,NA,NA,NA,2,6,"9,2,11,4,13,15,14,3,1,7,8,10,12,5,6"
14397,commdev-image-keyboard-response,445,921206,learnblock2,345.09999999962747,img/planet6_left.png,6,Community 3,NA,FALSE,j,f,NA,NA,NA,2,6,"9,2,11,4,13,15,14,3,1,7,8,10,12,5,6"
14397,commdev-image-keyboard-response,446,922459,learnblock2,48.299999999813735,img/planet10_left.png,10,Community 3,NA,FALSE,j,f,NA,NA,NA,2,6,"9,2,11,4,13,15,14,3,1,7,8,10,12,5,6"
14397,commdev-image-keyboard-response,447,923712,learnblock2,240,img/planet3_left.png,3,Community 2,NA,FALSE,j,f,NA,NA,NA,2,6,"9,2,11,4,13,15,14,3,1,7,8,10,12,5,6"
14397,commdev-image-keyboard-response,448,924966,learnblock2,426,img/planet10_left.png,10,Community 3,NA,TRUE,f,f,NA,NA,NA,2,6,"9,2,11,4,13,15,14,3,1,7,8,10,12,5,6"
14397,commdev-image-keyboard-response,449,926220,learnblock2,116.70000000018626,img/planet6_left.png,6,Community 3,NA,TRUE,f,f,NA,NA,NA,2,6,"9,2,11,4,13,15,14,3,1,7,8,10,12,5,6"
14397,commdev-image-keyboard-response,450,927474,learnblock2,223.5,img/planet12_right.png,12,Community 3,NA,FALSE,f,j,NA,NA,NA,2,6,"9,2,11,4,13,15,14,3,1,7,8,10,12,5,6"
14397,commdev-image-keyboard-response,451,928727,learnblock2,867.7999999998137,img/planet8_left.png,8,Community 3,NA,FALSE,j,f,NA,NA,NA,2,6,"9,2,11,4,13,15,14,3,1,7,8,10,12,5,6"
14397,commdev-image-keyboard-response,452,929980,learnblock2,62.60000000055879,img/planet13_right.png,13,Community 1,NA,TRUE,j,j,NA,NA,NA,2,6,"9,2,11,4,13,15,14,3,1,7,8,10,12,5,6"
14397,commdev-image-keyboard-response,453,931233,learnblock2,860.2000000001863,img/planet8_right.png,8,Community 3,NA,TRUE,j,j,NA,NA,NA,2,6,"9,2,11,4,13,15,14,3,1,7,8,10,12,5,6"
14397,commdev-image-keyboard-response,454,932486,learnblock2,751.7999999998137,img/planet5_right.png,5,Community 3,NA,TRUE,j,j,NA,NA,NA,2,6,"9,2,11,4,13,15,14,3,1,7,8,10,12,5,6"
14397,commdev-image-keyboard-response,455,933740,learnblock2,722.9000000003725,img/planet8_left.png,8,Community 3,NA,FALSE,j,f,NA,NA,NA,2,6,"9,2,11,4,13,15,14,3,1,7,8,10,12,5,6"
14397,commdev-image-keyboard-response,456,934995,learnblock2,543.7999999998137,img/planet6_right.png,6,Community 3,NA,FALSE,f,j,NA,NA,NA,2,6,"9,2,11,4,13,15,14,3,1,7,8,10,12,5,6"
14397,commdev-image-keyboard-response,457,936248,learnblock2,758.4000000003725,img/planet12_left.png,12,Community 3,NA,FALSE,j,f,NA,NA,NA,2,6,"9,2,11,4,13,15,14,3,1,7,8,10,12,5,6"
14397,commdev-image-keyboard-response,458,937500,learnblock2,null,img/planet6_left.png,6,Community 3,NA,FALSE,null,f,NA,NA,NA,2,6,"9,2,11,4,13,15,14,3,1,7,8,10,12,5,6"
14397,commdev-image-keyboard-response,459,938754,learnblock2,1227.8999999994412,img/planet10_right.png,10,Community 3,NA,TRUE,j,j,NA,NA,NA,2,6,"9,2,11,4,13,15,14,3,1,7,8,10,12,5,6"
14397,commdev-image-keyboard-response,460,940007,learnblock2,263.20000000018626,img/planet3_right.png,3,Community 2,NA,FALSE,f,j,NA,NA,NA,2,6,"9,2,11,4,13,15,14,3,1,7,8,10,12,5,6"
14397,commdev-image-keyboard-response,461,941260,learnblock2,1030.7000000001863,img/planet7_left.png,7,Community 2,NA,TRUE,f,f,NA,NA,NA,2,6,"9,2,11,4,13,15,14,3,1,7,8,10,12,5,6"
14397,commdev-image-keyboard-response,462,942512,learnblock2,903.7000000001863,img/planet15_right.png,15,Community 2,NA,TRUE,j,j,NA,NA,NA,2,6,"9,2,11,4,13,15,14,3,1,7,8,10,12,5,6"
14397,commdev-image-keyboard-response,463,943764,learnblock2,560.0999999996275,img/planet14_left.png,14,Community 2,NA,FALSE,j,f,NA,NA,NA,2,6,"9,2,11,4,13,15,14,3,1,7,8,10,12,5,6"
14397,commdev-image-keyboard-response,464,945016,learnblock2,668.9000000003725,img/planet15_right.png,15,Community 2,NA,TRUE,j,j,NA,NA,NA,2,6,"9,2,11,4,13,15,14,3,1,7,8,10,12,5,6"
14397,commdev-image-keyboard-response,465,946269,learnblock2,712.2000000001863,img/planet14_right.png,14,Community 2,NA,TRUE,j,j,NA,NA,NA,2,6,"9,2,11,4,13,15,14,3,1,7,8,10,12,5,6"
14397,commdev-image-keyboard-response,466,947522,learnblock2,701,img/planet7_right.png,7,Community 2,NA,TRUE,j,j,NA,NA,NA,2,6,"9,2,11,4,13,15,14,3,1,7,8,10,12,5,6"
14397,commdev-image-keyboard-response,467,948774,learnblock2,23.799999999813735,img/planet1_right.png,1,Community 2,NA,TRUE,j,j,NA,NA,NA,2,6,"9,2,11,4,13,15,14,3,1,7,8,10,12,5,6"
14397,commdev-image-keyboard-response,468,950027,learnblock2,540.0999999996275,img/planet3_right.png,3,Community 2,NA,TRUE,j,j,NA,NA,NA,2,6,"9,2,11,4,13,15,14,3,1,7,8,10,12,5,6"
14397,commdev-image-keyboard-response,469,951281,learnblock2,459.90000000037253,img/planet10_left.png,10,Community 3,NA,TRUE,f,f,NA,NA,NA,2,6,"9,2,11,4,13,15,14,3,1,7,8,10,12,5,6"
14397,commdev-image-keyboard-response,470,952534,learnblock2,446,img/planet6_left.png,6,Community 3,NA,TRUE,f,f,NA,NA,NA,2,6,"9,2,11,4,13,15,14,3,1,7,8,10,12,5,6"
14397,commdev-image-keyboard-response,471,953787,learnblock2,491.90000000037253,img/planet5_left.png,5,Community 3,NA,TRUE,f,f,NA,NA,NA,2,6,"9,2,11,4,13,15,14,3,1,7,8,10,12,5,6"
14397,commdev-image-keyboard-response,472,955040,learnblock2,484,img/planet12_left.png,12,Community 3,NA,TRUE,f,f,NA,NA,NA,2,6,"9,2,11,4,13,15,14,3,1,7,8,10,12,5,6"
14397,commdev-image-keyboard-response,473,956292,learnblock2,537.6999999992549,img/planet6_right.png,6,Community 3,NA,TRUE,j,j,NA,NA,NA,2,6,"9,2,11,4,13,15,14,3,1,7,8,10,12,5,6"
14397,commdev-image-keyboard-response,474,957545,learnblock2,487.5,img/planet5_right.png,5,Community 3,NA,FALSE,f,j,NA,NA,NA,2,6,"9,2,11,4,13,15,14,3,1,7,8,10,12,5,6"
14397,commdev-image-keyboard-response,475,958798,learnblock2,389.20000000018626,img/planet8_left.png,8,Community 3,NA,TRUE,f,f,NA,NA,NA,2,6,"9,2,11,4,13,15,14,3,1,7,8,10,12,5,6"
14397,commdev-image-keyboard-response,476,960051,learnblock2,592.2000000001863,img/planet5_right.png,5,Community 3,NA,FALSE,f,j,NA,NA,NA,2,6,"9,2,11,4,13,15,14,3,1,7,8,10,12,5,6"
14397,commdev-image-keyboard-response,477,961304,learnblock2,167.40000000037253,img/planet12_right.png,12,Community 3,NA,FALSE,f,j,NA,NA,NA,2,6,"9,2,11,4,13,15,14,3,1,7,8,10,12,5,6"
14397,commdev-image-keyboard-response,478,962557,learnblock2,22.899999999441206,img/planet5_right.png,5,Community 3,NA,TRUE,j,j,NA,NA,NA,2,6,"9,2,11,4,13,15,14,3,1,7,8,10,12,5,6"
14397,commdev-image-keyboard-response,479,963810,learnblock2,212,img/planet8_left.png,8,Community 3,NA,FALSE,j,f,NA,NA,NA,2,6,"9,2,11,4,13,15,14,3,1,7,8,10,12,5,6"
14397,commdev-image-keyboard-response,480,965063,learnblock2,14.299999999813735,img/planet5_right.png,5,Community 3,NA,TRUE,j,j,NA,NA,NA,2,6,"9,2,11,4,13,15,14,3,1,7,8,10,12,5,6"
14397,commdev-image-keyboard-response,481,966317,learnblock2,129.70000000018626,img/planet8_right.png,8,Community 3,NA,TRUE,j,j,NA,NA,NA,2,6,"9,2,11,4,13,15,14,3,1,7,8,10,12,5,6"
14397,commdev-image-keyboard-response,482,967570,learnblock2,255.40000000037253,img/planet5_right.png,5,Community 3,NA,FALSE,f,j,NA,NA,NA,2,6,"9,2,11,4,13,15,14,3,1,7,8,10,12,5,6"
14397,commdev-image-keyboard-response,483,968823,learnblock2,37.80000000074506,img/planet10_left.png,10,Community 3,NA,FALSE,j,f,NA,NA,NA,2,6,"9,2,11,4,13,15,14,3,1,7,8,10,12,5,6"
14397,commdev-image-keyboard-response,484,970077,learnblock2,67.29999999981374,img/planet12_right.png,12,Community 3,NA,FALSE,f,j,NA,NA,NA,2,6,"9,2,11,4,13,15,14,3,1,7,8,10,12,5,6"
14397,commdev-image-keyboard-response,485,971330,learnblock2,414.20000000018626,img/planet8_right.png,8,Community 3,NA,TRUE,j,j,NA,NA,NA,2,6,"9,2,11,4,13,15,14,3,1,7,8,10,12,5,6"
14397,commdev-image-keyboard-response,486,972584,learnblock2,14.800000000745058,img/planet5_right.png,5,Community 3,NA,FALSE,f,j,NA,NA,NA,2,6,"9,2,11,4,13,15,14,3,1,7,8,10,12,5,6"
14397,commdev-image-keyboard-response,487,973838,learnblock2,120.69999999925494,img/planet10_right.png,10,Community 3,NA,FALSE,f,j,NA,NA,NA,2,6,"9,2,11,4,13,15,14,3,1,7,8,10,12,5,6"
14397,commdev-image-keyboard-response,488,975091,learnblock2,87.70000000018626,img/planet3_right.png,3,Community 2,NA,FALSE,f,j,NA,NA,NA,2,6,"9,2,11,4,13,15,14,3,1,7,8,10,12,5,6"
14397,commdev-image-keyboard-response,489,976344,learnblock2,54.09999999962747,img/planet7_right.png,7,Community 2,NA,TRUE,j,j,NA,NA,NA,2,6,"9,2,11,4,13,15,14,3,1,7,8,10,12,5,6"
14397,commdev-image-keyboard-response,490,977598,learnblock2,403.20000000018626,img/planet1_right.png,1,Community 2,NA,TRUE,j,j,NA,NA,NA,2,6,"9,2,11,4,13,15,14,3,1,7,8,10,12,5,6"
14397,commdev-image-keyboard-response,491,978851,learnblock2,50.80000000074506,img/planet7_left.png,7,Community 2,NA,FALSE,j,f,NA,NA,NA,2,6,"9,2,11,4,13,15,14,3,1,7,8,10,12,5,6"
14397,commdev-image-keyboard-response,492,980104,learnblock2,194.90000000037253,img/planet1_right.png,1,Community 2,NA,FALSE,f,j,NA,NA,NA,2,6,"9,2,11,4,13,15,14,3,1,7,8,10,12,5,6"
14397,commdev-image-keyboard-response,493,981358,learnblock2,139.09999999962747,img/planet3_right.png,3,Community 2,NA,FALSE,f,j,NA,NA,NA,2,6,"9,2,11,4,13,15,14,3,1,7,8,10,12,5,6"
14397,commdev-image-keyboard-response,494,982610,learnblock2,174.90000000037253,img/planet14_left.png,14,Community 2,NA,TRUE,f,f,NA,NA,NA,2,6,"9,2,11,4,13,15,14,3,1,7,8,10,12,5,6"
14397,commdev-image-keyboard-response,495,983864,learnblock2,183.20000000018626,img/planet7_right.png,7,Community 2,NA,FALSE,f,j,NA,NA,NA,2,6,"9,2,11,4,13,15,14,3,1,7,8,10,12,5,6"
14397,commdev-image-keyboard-response,496,985118,learnblock2,166.6000000005588,img/planet15_left.png,15,Community 2,NA,FALSE,j,f,NA,NA,NA,2,6,"9,2,11,4,13,15,14,3,1,7,8,10,12,5,6"
14397,commdev-image-keyboard-response,497,986371,learnblock2,38.59999999962747,img/planet4_left.png,4,Community 1,NA,TRUE,f,f,NA,NA,NA,2,6,"9,2,11,4,13,15,14,3,1,7,8,10,12,5,6"
14397,commdev-image-keyboard-response,498,987624,learnblock2,114,img/planet11_right.png,11,Community 1,NA,TRUE,j,j,NA,NA,NA,2,6,"9,2,11,4,13,15,14,3,1,7,8,10,12,5,6"
14397,commdev-image-keyboard-response,499,988880,learnblock2,2.7000000001862645,img/planet9_right.png,9,Community 1,NA,FALSE,f,j,NA,NA,NA,2,6,"9,2,11,4,13,15,14,3,1,7,8,10,12,5,6"
14397,commdev-image-keyboard-response,500,990134,learnblock2,57.5,img/planet13_right.png,13,Community 1,NA,TRUE,j,j,NA,NA,NA,2,6,"9,2,11,4,13,15,14,3,1,7,8,10,12,5,6"
14397,commdev-image-keyboard-response,501,991387,learnblock2,64,img/planet11_left.png,11,Community 1,NA,FALSE,j,f,NA,NA,NA,2,6,"9,2,11,4,13,15,14,3,1,7,8,10,12,5,6"
14397,commdev-image-keyboard-response,502,992640,learnblock2,117.30000000074506,img/planet4_left.png,4,Community 1,NA,FALSE,j,f,NA,NA,NA,2,6,"9,2,11,4,13,15,14,3,1,7,8,10,12,5,6"
14397,commdev-image-keyboard-response,503,993894,learnblock2,146.6000000005588,img/planet9_left.png,9,Community 1,NA,FALSE,j,f,NA,NA,NA,2,6,"9,2,11,4,13,15,14,3,1,7,8,10,12,5,6"
14397,commdev-image-keyboard-response,504,995146,learnblock2,91.59999999962747,img/planet4_right.png,4,Community 1,NA,FALSE,f,j,NA,NA,NA,2,6,"9,2,11,4,13,15,14,3,1,7,8,10,12,5,6"
14397,commdev-image-keyboard-response,505,996400,learnblock2,null,img/planet15_right.png,15,Community 2,NA,FALSE,null,j,NA,NA,NA,2,6,"9,2,11,4,13,15,14,3,1,7,8,10,12,5,6"
14397,commdev-image-keyboard-response,506,997654,learnblock2,646.7000000001863,img/planet1_left.png,1,Community 2,NA,TRUE,f,f,NA,NA,NA,2,6,"9,2,11,4,13,15,14,3,1,7,8,10,12,5,6"
14397,commdev-image-keyboard-response,507,998907,learnblock2,711.8000000007451,img/planet15_left.png,15,Community 2,NA,FALSE,j,f,NA,NA,NA,2,6,"9,2,11,4,13,15,14,3,1,7,8,10,12,5,6"
14397,commdev-image-keyboard-response,508,1000161,learnblock2,97.70000000018626,img/planet1_left.png,1,Community 2,NA,TRUE,f,f,NA,NA,NA,2,6,"9,2,11,4,13,15,14,3,1,7,8,10,12,5,6"
14397,commdev-image-keyboard-response,509,1001414,learnblock2,185.5,img/planet7_left.png,7,Community 2,NA,FALSE,j,f,NA,NA,NA,2,6,"9,2,11,4,13,15,14,3,1,7,8,10,12,5,6"
14397,commdev-image-keyboard-response,510,1002668,learnblock2,25.100000000558794,img/planet15_left.png,15,Community 2,NA,TRUE,f,f,NA,NA,NA,2,6,"9,2,11,4,13,15,14,3,1,7,8,10,12,5,6"
14397,commdev-image-keyboard-response,511,1003924,learnblock2,113.90000000037253,img/planet14_right.png,14,Community 2,NA,TRUE,j,j,NA,NA,NA,2,6,"9,2,11,4,13,15,14,3,1,7,8,10,12,5,6"
14397,commdev-image-keyboard-response,512,1005178,learnblock2,342.70000000018626,img/planet1_left.png,1,Community 2,NA,FALSE,j,f,NA,NA,NA,2,6,"9,2,11,4,13,15,14,3,1,7,8,10,12,5,6"
14397,commdev-image-keyboard-response,513,1006431,learnblock2,84.09999999962747,img/planet3_left.png,3,Community 2,NA,FALSE,j,f,NA,NA,NA,2,6,"9,2,11,4,13,15,14,3,1,7,8,10,12,5,6"
14397,commdev-image-keyboard-response,514,1007684,learnblock2,null,img/planet10_right.png,10,Community 3,NA,FALSE,null,j,NA,NA,NA,2,6,"9,2,11,4,13,15,14,3,1,7,8,10,12,5,6"
14397,commdev-image-keyboard-response,515,1008937,learnblock2,227.59999999962747,img/planet12_right.png,12,Community 3,NA,TRUE,j,j,NA,NA,NA,2,6,"9,2,11,4,13,15,14,3,1,7,8,10,12,5,6"
14397,commdev-image-keyboard-response,516,1010190,learnblock2,null,img/planet5_left.png,5,Community 3,NA,FALSE,null,f,NA,NA,NA,2,6,"9,2,11,4,13,15,14,3,1,7,8,10,12,5,6"
14397,commdev-image-keyboard-response,517,1011443,learnblock2,41.200000000186265,img/planet8_left.png,8,Community 3,NA,TRUE,f,f,NA,NA,NA,2,6,"9,2,11,4,13,15,14,3,1,7,8,10,12,5,6"
14397,commdev-image-keyboard-response,518,1012697,learnblock2,694.2000000001863,img/planet13_right.png,13,Community 1,NA,TRUE,j,j,NA,NA,NA,2,6,"9,2,11,4,13,15,14,3,1,7,8,10,12,5,6"
14397,commdev-image-keyboard-response,519,1013950,learnblock2,817.8999999994412,img/planet9_right.png,9,Community 1,NA,TRUE,j,j,NA,NA,NA,2,6,"9,2,11,4,13,15,14,3,1,7,8,10,12,5,6"
14397,commdev-image-keyboard-response,520,1015203,learnblock2,915.3999999994412,img/planet2_right.png,2,Community 1,NA,TRUE,j,j,NA,NA,NA,2,6,"9,2,11,4,13,15,14,3,1,7,8,10,12,5,6"
14397,commdev-image-keyboard-response,521,1016455,learnblock2,806.5999999996275,img/planet13_right.png,13,Community 1,NA,TRUE,j,j,NA,NA,NA,2,6,"9,2,11,4,13,15,14,3,1,7,8,10,12,5,6"
14397,commdev-image-keyboard-response,522,1017707,learnblock2,759,img/planet8_left.png,8,Community 3,NA,TRUE,f,f,NA,NA,NA,2,6,"9,2,11,4,13,15,14,3,1,7,8,10,12,5,6"
14397,commdev-image-keyboard-response,523,1018961,learnblock2,660.7999999998137,img/planet12_left.png,12,Community 3,NA,TRUE,f,f,NA,NA,NA,2,6,"9,2,11,4,13,15,14,3,1,7,8,10,12,5,6"
14397,commdev-image-keyboard-response,524,1020213,learnblock2,485.20000000018626,img/planet10_right.png,10,Community 3,NA,FALSE,f,j,NA,NA,NA,2,6,"9,2,11,4,13,15,14,3,1,7,8,10,12,5,6"
14397,commdev-image-keyboard-response,525,1021466,learnblock2,442.3999999994412,img/planet3_left.png,3,Community 2,NA,TRUE,f,f,NA,NA,NA,2,6,"9,2,11,4,13,15,14,3,1,7,8,10,12,5,6"
14397,commdev-image-keyboard-response,526,1022720,learnblock2,244,img/planet1_left.png,1,Community 2,NA,FALSE,j,f,NA,NA,NA,2,6,"9,2,11,4,13,15,14,3,1,7,8,10,12,5,6"
14397,commdev-image-keyboard-response,527,1023973,learnblock2,33,img/planet15_left.png,15,Community 2,NA,FALSE,j,f,NA,NA,NA,2,6,"9,2,11,4,13,15,14,3,1,7,8,10,12,5,6"
14397,commdev-image-keyboard-response,528,1025227,learnblock2,854.4000000003725,img/planet1_left.png,1,Community 2,NA,FALSE,j,f,NA,NA,NA,2,6,"9,2,11,4,13,15,14,3,1,7,8,10,12,5,6"
14397,commdev-image-keyboard-response,529,1026481,learnblock2,116.40000000037253,img/planet15_left.png,15,Community 2,NA,FALSE,j,f,NA,NA,NA,2,6,"9,2,11,4,13,15,14,3,1,7,8,10,12,5,6"
14397,commdev-image-keyboard-response,530,1027734,learnblock2,229.1000000005588,img/planet1_right.png,1,Community 2,NA,TRUE,j,j,NA,NA,NA,2,6,"9,2,11,4,13,15,14,3,1,7,8,10,12,5,6"
14397,commdev-image-keyboard-response,531,1028987,learnblock2,26.5,img/planet14_right.png,14,Community 2,NA,FALSE,f,j,NA,NA,NA,2,6,"9,2,11,4,13,15,14,3,1,7,8,10,12,5,6"
14397,commdev-image-keyboard-response,532,1030240,learnblock2,null,img/planet1_left.png,1,Community 2,NA,FALSE,null,f,NA,NA,NA,2,6,"9,2,11,4,13,15,14,3,1,7,8,10,12,5,6"
14397,commdev-image-keyboard-response,533,1031493,learnblock2,862.2000000001863,img/planet15_left.png,15,Community 2,NA,FALSE,j,f,NA,NA,NA,2,6,"9,2,11,4,13,15,14,3,1,7,8,10,12,5,6"
14397,commdev-image-keyboard-response,534,1032746,learnblock2,null,img/planet7_right.png,7,Community 2,NA,FALSE,null,j,NA,NA,NA,2,6,"9,2,11,4,13,15,14,3,1,7,8,10,12,5,6"
14397,commdev-image-keyboard-response,535,1033999,learnblock2,null,img/planet1_right.png,1,Community 2,NA,FALSE,null,j,NA,NA,NA,2,6,"9,2,11,4,13,15,14,3,1,7,8,10,12,5,6"
14397,commdev-image-keyboard-response,536,1035252,learnblock2,null,img/planet15_right.png,15,Community 2,NA,FALSE,null,j,NA,NA,NA,2,6,"9,2,11,4,13,15,14,3,1,7,8,10,12,5,6"
14397,commdev-image-keyboard-response,537,1036506,learnblock2,1232.7000000001863,img/planet4_right.png,4,Community 1,NA,TRUE,j,j,NA,NA,NA,2,6,"9,2,11,4,13,15,14,3,1,7,8,10,12,5,6"
14397,commdev-image-keyboard-response,538,1037759,learnblock2,257.5,img/planet15_right.png,15,Community 2,NA,FALSE,f,j,NA,NA,NA,2,6,"9,2,11,4,13,15,14,3,1,7,8,10,12,5,6"
14397,commdev-image-keyboard-response,539,1039013,learnblock2,271.29999999981374,img/planet4_right.png,4,Community 1,NA,TRUE,j,j,NA,NA,NA,2,6,"9,2,11,4,13,15,14,3,1,7,8,10,12,5,6"
14397,commdev-image-keyboard-response,540,1040266,learnblock2,45.700000000186265,img/planet9_left.png,9,Community 1,NA,TRUE,f,f,NA,NA,NA,2,6,"9,2,11,4,13,15,14,3,1,7,8,10,12,5,6"
14397,commdev-image-keyboard-response,541,1041520,learnblock2,45.299999999813735,img/planet13_right.png,13,Community 1,NA,FALSE,f,j,NA,NA,NA,2,6,"9,2,11,4,13,15,14,3,1,7,8,10,12,5,6"
14397,commdev-image-keyboard-response,542,1042774,learnblock2,42.60000000055879,img/planet2_right.png,2,Community 1,NA,FALSE,f,j,NA,NA,NA,2,6,"9,2,11,4,13,15,14,3,1,7,8,10,12,5,6"
14397,commdev-image-keyboard-response,543,1044027,learnblock2,24.200000000186265,img/planet13_left.png,13,Community 1,NA,TRUE,f,f,NA,NA,NA,2,6,"9,2,11,4,13,15,14,3,1,7,8,10,12,5,6"
14397,commdev-image-keyboard-response,544,1045280,learnblock2,909.9000000003725,img/planet8_left.png,8,Community 3,NA,FALSE,j,f,NA,NA,NA,2,6,"9,2,11,4,13,15,14,3,1,7,8,10,12,5,6"
14397,commdev-image-keyboard-response,545,1046534,learnblock2,null,img/planet12_left.png,12,Community 3,NA,FALSE,null,f,NA,NA,NA,2,6,"9,2,11,4,13,15,14,3,1,7,8,10,12,5,6"
14397,commdev-image-keyboard-response,546,1047786,learnblock2,282,img/planet6_left.png,6,Community 3,NA,FALSE,j,f,NA,NA,NA,2,6,"9,2,11,4,13,15,14,3,1,7,8,10,12,5,6"
14397,commdev-image-keyboard-response,547,1049040,learnblock2,70.29999999981374,img/planet12_left.png,12,Community 3,NA,FALSE,j,f,NA,NA,NA,2,6,"9,2,11,4,13,15,14,3,1,7,8,10,12,5,6"
14397,commdev-image-keyboard-response,548,1050293,learnblock2,14.900000000372529,img/planet10_right.png,10,Community 3,NA,TRUE,j,j,NA,NA,NA,2,6,"9,2,11,4,13,15,14,3,1,7,8,10,12,5,6"
14397,commdev-image-keyboard-response,549,1051546,learnblock2,8.399999999441206,img/planet5_right.png,5,Community 3,NA,FALSE,f,j,NA,NA,NA,2,6,"9,2,11,4,13,15,14,3,1,7,8,10,12,5,6"
14397,commdev-image-keyboard-response,550,1052799,learnblock2,8.099999999627471,img/planet12_right.png,12,Community 3,NA,TRUE,j,j,NA,NA,NA,2,6,"9,2,11,4,13,15,14,3,1,7,8,10,12,5,6"
14397,commdev-image-keyboard-response,551,1054052,learnblock2,41.200000000186265,img/planet6_right.png,6,Community 3,NA,FALSE,f,j,NA,NA,NA,2,6,"9,2,11,4,13,15,14,3,1,7,8,10,12,5,6"
14397,commdev-image-keyboard-response,552,1055305,learnblock2,196.09999999962747,img/planet5_right.png,5,Community 3,NA,FALSE,f,j,NA,NA,NA,2,6,"9,2,11,4,13,15,14,3,1,7,8,10,12,5,6"
14397,commdev-image-keyboard-response,553,1056559,learnblock2,162.80000000074506,img/planet6_left.png,6,Community 3,NA,FALSE,j,f,NA,NA,NA,2,6,"9,2,11,4,13,15,14,3,1,7,8,10,12,5,6"
14397,commdev-image-keyboard-response,554,1057812,learnblock2,246.90000000037253,img/planet5_left.png,5,Community 3,NA,TRUE,f,f,NA,NA,NA,2,6,"9,2,11,4,13,15,14,3,1,7,8,10,12,5,6"
14397,commdev-image-keyboard-response,555,1059065,learnblock2,15,img/planet6_left.png,6,Community 3,NA,TRUE,f,f,NA,NA,NA,2,6,"9,2,11,4,13,15,14,3,1,7,8,10,12,5,6"
14397,commdev-image-keyboard-response,556,1060318,learnblock2,121.29999999981374,img/planet12_left.png,12,Community 3,NA,TRUE,f,f,NA,NA,NA,2,6,"9,2,11,4,13,15,14,3,1,7,8,10,12,5,6"
14397,commdev-image-keyboard-response,557,1061571,learnblock2,26,img/planet5_right.png,5,Community 3,NA,FALSE,f,j,NA,NA,NA,2,6,"9,2,11,4,13,15,14,3,1,7,8,10,12,5,6"
14397,commdev-image-keyboard-response,558,1062824,learnblock2,20.600000000558794,img/planet10_right.png,10,Community 3,NA,TRUE,j,j,NA,NA,NA,2,6,"9,2,11,4,13,15,14,3,1,7,8,10,12,5,6"
14397,commdev-image-keyboard-response,559,1064077,learnblock2,15.799999999813735,img/planet5_left.png,5,Community 3,NA,FALSE,j,f,NA,NA,NA,2,6,"9,2,11,4,13,15,14,3,1,7,8,10,12,5,6"
14397,commdev-image-keyboard-response,560,1065330,learnblock2,120.3999999994412,img/planet12_left.png,12,Community 3,NA,TRUE,f,f,NA,NA,NA,2,6,"9,2,11,4,13,15,14,3,1,7,8,10,12,5,6"
14397,commdev-image-keyboard-response,561,1066583,learnblock2,150.3999999994412,img/planet5_left.png,5,Community 3,NA,TRUE,f,f,NA,NA,NA,2,6,"9,2,11,4,13,15,14,3,1,7,8,10,12,5,6"
14397,commdev-image-keyboard-response,562,1067836,learnblock2,1.1000000005587935,img/planet10_right.png,10,Community 3,NA,FALSE,f,j,NA,NA,NA,2,6,"9,2,11,4,13,15,14,3,1,7,8,10,12,5,6"
14397,commdev-image-keyboard-response,563,1069089,learnblock2,209,img/planet5_right.png,5,Community 3,NA,TRUE,j,j,NA,NA,NA,2,6,"9,2,11,4,13,15,14,3,1,7,8,10,12,5,6"
14397,commdev-image-keyboard-response,564,1070342,learnblock2,129.40000000037253,img/planet12_right.png,12,Community 3,NA,TRUE,j,j,NA,NA,NA,2,6,"9,2,11,4,13,15,14,3,1,7,8,10,12,5,6"
14397,commdev-image-keyboard-response,565,1071595,learnblock2,110,img/planet5_right.png,5,Community 3,NA,TRUE,j,j,NA,NA,NA,2,6,"9,2,11,4,13,15,14,3,1,7,8,10,12,5,6"
14397,commdev-image-keyboard-response,566,1072848,learnblock2,54,img/planet8_right.png,8,Community 3,NA,TRUE,j,j,NA,NA,NA,2,6,"9,2,11,4,13,15,14,3,1,7,8,10,12,5,6"
14397,commdev-image-keyboard-response,567,1074102,learnblock2,105.19999999925494,img/planet5_left.png,5,Community 3,NA,FALSE,j,f,NA,NA,NA,2,6,"9,2,11,4,13,15,14,3,1,7,8,10,12,5,6"
14397,commdev-image-keyboard-response,568,1075355,learnblock2,100.69999999925494,img/planet10_left.png,10,Community 3,NA,TRUE,f,f,NA,NA,NA,2,6,"9,2,11,4,13,15,14,3,1,7,8,10,12,5,6"
14397,commdev-image-keyboard-response,569,1076608,learnblock2,6.7000000001862645,img/planet5_right.png,5,Community 3,NA,FALSE,f,j,NA,NA,NA,2,6,"9,2,11,4,13,15,14,3,1,7,8,10,12,5,6"
14397,commdev-image-keyboard-response,570,1077861,learnblock2,216.20000000018626,img/planet8_right.png,8,Community 3,NA,TRUE,j,j,NA,NA,NA,2,6,"9,2,11,4,13,15,14,3,1,7,8,10,12,5,6"
14397,commdev-image-keyboard-response,571,1079114,learnblock2,9.099999999627471,img/planet13_left.png,13,Community 1,NA,FALSE,j,f,NA,NA,NA,2,6,"9,2,11,4,13,15,14,3,1,7,8,10,12,5,6"
14397,commdev-image-keyboard-response,572,1080368,learnblock2,225.79999999981374,img/planet11_left.png,11,Community 1,NA,TRUE,f,f,NA,NA,NA,2,6,"9,2,11,4,13,15,14,3,1,7,8,10,12,5,6"
14397,commdev-image-keyboard-response,573,1081621,learnblock2,139,img/planet9_right.png,9,Community 1,NA,FALSE,f,j,NA,NA,NA,2,6,"9,2,11,4,13,15,14,3,1,7,8,10,12,5,6"
14397,commdev-image-keyboard-response,574,1082874,learnblock2,216.59999999962747,img/planet4_left.png,4,Community 1,NA,FALSE,j,f,NA,NA,NA,2,6,"9,2,11,4,13,15,14,3,1,7,8,10,12,5,6"
14397,commdev-image-keyboard-response,575,1084127,learnblock2,85.6000000005588,img/planet2_left.png,2,Community 1,NA,TRUE,f,f,NA,NA,NA,2,6,"9,2,11,4,13,15,14,3,1,7,8,10,12,5,6"
14397,commdev-image-keyboard-response,576,1085380,learnblock2,9.900000000372529,img/planet13_left.png,13,Community 1,NA,TRUE,f,f,NA,NA,NA,2,6,"9,2,11,4,13,15,14,3,1,7,8,10,12,5,6"
14397,commdev-image-keyboard-response,577,1086634,learnblock2,118.8999999994412,img/planet2_left.png,2,Community 1,NA,TRUE,f,f,NA,NA,NA,2,6,"9,2,11,4,13,15,14,3,1,7,8,10,12,5,6"
14397,commdev-image-keyboard-response,578,1087887,learnblock2,208.79999999981374,img/planet4_left.png,4,Community 1,NA,TRUE,f,f,NA,NA,NA,2,6,"9,2,11,4,13,15,14,3,1,7,8,10,12,5,6"
14397,commdev-image-keyboard-response,579,1089139,learnblock2,984.8999999994412,img/planet2_right.png,2,Community 1,NA,FALSE,f,j,NA,NA,NA,2,6,"9,2,11,4,13,15,14,3,1,7,8,10,12,5,6"
14397,commdev-image-keyboard-response,580,1090393,learnblock2,102.90000000037253,img/planet13_right.png,13,Community 1,NA,FALSE,f,j,NA,NA,NA,2,6,"9,2,11,4,13,15,14,3,1,7,8,10,12,5,6"
14397,commdev-image-keyboard-response,581,1091647,learnblock2,69.8999999994412,img/planet2_left.png,2,Community 1,NA,TRUE,f,f,NA,NA,NA,2,6,"9,2,11,4,13,15,14,3,1,7,8,10,12,5,6"
14397,commdev-image-keyboard-response,582,1092901,learnblock2,147.40000000037253,img/planet13_right.png,13,Community 1,NA,FALSE,f,j,NA,NA,NA,2,6,"9,2,11,4,13,15,14,3,1,7,8,10,12,5,6"
14397,commdev-image-keyboard-response,583,1094154,learnblock2,38.799999999813735,img/planet9_left.png,9,Community 1,NA,TRUE,f,f,NA,NA,NA,2,6,"9,2,11,4,13,15,14,3,1,7,8,10,12,5,6"
14397,commdev-image-keyboard-response,584,1095408,learnblock2,140.20000000018626,img/planet2_right.png,2,Community 1,NA,TRUE,j,j,NA,NA,NA,2,6,"9,2,11,4,13,15,14,3,1,7,8,10,12,5,6"
14397,commdev-image-keyboard-response,585,1096661,learnblock2,106.19999999925494,img/planet11_left.png,11,Community 1,NA,TRUE,f,f,NA,NA,NA,2,6,"9,2,11,4,13,15,14,3,1,7,8,10,12,5,6"
