subject_id,trial_type,trial_index,time_elapsed,block,rt,stimulus,planet,community,response,correct,key_press,learning_correct_response,parse,init_locations,final_locations,browser_interactions,num_comp,planet_map
14828,commdev-instructions,7,27078,NA,1238,"<p>In this game, you are a scientist on board a space shuttle. </p><p> On each mission, you will visit planets all across the universe.</p><img src=""img/controlroom.jpg"" width=300vw>",NA,NA,NA,NA,NA,NA,NA,NA,NA,4,6,"2,13,14,7,11,5,3,15,8,10,6,9,1,12,4"
14828,commdev-instructions,8,29658,NA,508.80000001192093,"<p>Here are a few planets you might see:</p><img src=""img/practice1.png"" width=200vw><img src=""img/practice2.png"" width=200vw><img src=""img/practice3.png"" width=200vw>",NA,NA,NA,NA,NA,NA,NA,NA,NA,4,6,"2,13,14,7,11,5,3,15,8,10,6,9,1,12,4"
14828,commdev-instructions,9,37807,NA,746.2999999821186,"<p>Your job as a scientist is to record which direction the winds are moving on each planet.</p><p>There are two types of wind directions:</p><img src=""img/practice1_left.png"" width=200vw><img src=""img/practice1_right.png"" width=200vw>",NA,NA,NA,NA,NA,NA,NA,NA,NA,4,6,"2,13,14,7,11,5,3,15,8,10,6,9,1,12,4"
14828,commdev-instructions,10,43946,NA,1254.4000000059605,"<p>If the winds are moving this way, press the letter <strong>F</strong> on the keyboard as fast as you can.</p><img src=""img/leftwind.png"" width=250vw>",NA,NA,NA,NA,NA,NA,NA,NA,NA,4,6,"2,13,14,7,11,5,3,15,8,10,6,9,1,12,4"
14828,commdev-instructions,11,49513,NA,1062,"<p>If the winds are moving this way, press the letter <strong>J</strong> on the keyboard as fast as you can.</p><img src=""img/rightwind.png"" width=350vw>",NA,NA,NA,NA,NA,NA,NA,NA,NA,4,6,"2,13,14,7,11,5,3,15,8,10,6,9,1,12,4"
14828,commdev-instructions,12,55114,NA,1183.5999999940395,<p>You will have 1 second to respond. Try to respond before the time runs out!,NA,NA,NA,NA,NA,NA,NA,NA,NA,4,6,"2,13,14,7,11,5,3,15,8,10,6,9,1,12,4"
14828,commdev-instructions,13,61046,NA,503.7000000178814,<p>The planets you will visit will look different from each other.</p><p>You should respond <strong>only</strong> based on wind direction.,NA,NA,NA,NA,NA,NA,NA,NA,NA,4,6,"2,13,14,7,11,5,3,15,8,10,6,9,1,12,4"
14828,commdev-instructions,14,67577,NA,1368.2000000178814,"<p> Ready to start the practice round? </p><p> Remember, press <strong>F</strong> or <strong>J</strong> depending on the wind direction.<br><img src=""img/categorize_planet_example.png""",NA,NA,NA,NA,NA,NA,NA,NA,NA,4,6,"2,13,14,7,11,5,3,15,8,10,6,9,1,12,4"
14828,commdev-instructions,26,117799,NA,1296.300000011921,"<p>Great, now try a short practice mission. </p><p> This time, you will have 1 second to respond and you won't know whether you pressed the right or wrong key for each planet.</p>",NA,NA,NA,NA,NA,NA,NA,NA,NA,4,6,"2,13,14,7,11,5,3,15,8,10,6,9,1,12,4"
14828,commdev-image-keyboard-response,27,119156,practice,461.40000000596046,img/practice4_left.png,NA,Number not found in mappings,NA,TRUE,f,f,NA,NA,NA,4,6,"2,13,14,7,11,5,3,15,8,10,6,9,1,12,4"
14828,commdev-image-keyboard-response,28,120408,practice,827.5999999940395,img/practice2_left.png,NA,Number not found in mappings,NA,TRUE,f,f,NA,NA,NA,4,6,"2,13,14,7,11,5,3,15,8,10,6,9,1,12,4"
14828,commdev-image-keyboard-response,29,121661,practice,610.7000000178814,img/practice1_right.png,NA,Number not found in mappings,NA,TRUE,j,j,NA,NA,NA,4,6,"2,13,14,7,11,5,3,15,8,10,6,9,1,12,4"
14828,commdev-image-keyboard-response,30,122914,practice,600.5,img/practice2_left.png,NA,Number not found in mappings,NA,TRUE,f,f,NA,NA,NA,4,6,"2,13,14,7,11,5,3,15,8,10,6,9,1,12,4"
14828,commdev-image-keyboard-response,31,124166,practice,509.59999999403954,img/practice4_right.png,NA,Number not found in mappings,NA,TRUE,j,j,NA,NA,NA,4,6,"2,13,14,7,11,5,3,15,8,10,6,9,1,12,4"
14828,commdev-image-keyboard-response,32,125420,practice,580.8000000119209,img/practice2_left.png,NA,Number not found in mappings,NA,TRUE,f,f,NA,NA,NA,4,6,"2,13,14,7,11,5,3,15,8,10,6,9,1,12,4"
14828,commdev-image-keyboard-response,33,126672,practice,560.6999999880791,img/practice1_left.png,NA,Number not found in mappings,NA,TRUE,f,f,NA,NA,NA,4,6,"2,13,14,7,11,5,3,15,8,10,6,9,1,12,4"
14828,commdev-image-keyboard-response,34,127925,practice,547.7000000178814,img/practice3_right.png,NA,Number not found in mappings,NA,TRUE,j,j,NA,NA,NA,4,6,"2,13,14,7,11,5,3,15,8,10,6,9,1,12,4"
14828,commdev-instructions,35,154574,NA,17094.59999999404,"<p>Great job with the practice round.</p><p>During real missions, you won't know whether you pressed the right or wrong key for each planet.</p><p>But between missions, we will tell you how you did overall.</p>",NA,NA,NA,NA,NA,NA,NA,NA,NA,4,6,"2,13,14,7,11,5,3,15,8,10,6,9,1,12,4"
14828,commdev-instructions,36,163376,NA,569.9000000059605,<p>Try your best! You will be paid a bonus based on how many correct responses you make!</p><p>Responses that are too slow will not count toward your bonus.</p>,NA,NA,NA,NA,NA,NA,NA,NA,NA,4,6,"2,13,14,7,11,5,3,15,8,10,6,9,1,12,4"
14828,commdev-instructions,37,169935,NA,360.80000001192093,"<p>You are almost ready to start the real game.</p><p> First, we are going to ask you some questions about how the game works.</p>",NA,NA,NA,NA,NA,NA,NA,NA,NA,4,6,"2,13,14,7,11,5,3,15,8,10,6,9,1,12,4"
14828,commdev-instructions,46,244769,NA,917.7999999821186,"<p> Nice work! It is now time to start the real game.<p></p>You will go on two missions to record wind directions of different planets.<p></p>Each one will take about 5 minutes. You will get to take a break between missions.<p><p> Remember, press <strong>F</strong> or <strong>J</strong> depending on the wind direction. Good luck!<br><img src=""img/categorize_planet_example.png""",NA,NA,NA,NA,NA,NA,NA,NA,NA,4,6,"2,13,14,7,11,5,3,15,8,10,6,9,1,12,4"
14828,commdev-image-keyboard-response,48,249207,learnblock1,880,img/planet3_left.png,3,Community 2,NA,TRUE,f,f,NA,NA,NA,4,6,"2,13,14,7,11,5,3,15,8,10,6,9,1,12,4"
14828,commdev-image-keyboard-response,49,250460,learnblock1,811.2999999821186,img/planet8_left.png,8,Community 2,NA,TRUE,f,f,NA,NA,NA,4,6,"2,13,14,7,11,5,3,15,8,10,6,9,1,12,4"
14828,commdev-image-keyboard-response,50,251713,learnblock1,617.1999999880791,img/planet15_left.png,15,Community 2,NA,TRUE,f,f,NA,NA,NA,4,6,"2,13,14,7,11,5,3,15,8,10,6,9,1,12,4"
14828,commdev-image-keyboard-response,51,252965,learnblock1,723.3000000119209,img/planet3_left.png,3,Community 2,NA,TRUE,f,f,NA,NA,NA,4,6,"2,13,14,7,11,5,3,15,8,10,6,9,1,12,4"
14828,commdev-image-keyboard-response,52,254218,learnblock1,742.7000000178814,img/planet5_left.png,5,Community 2,NA,TRUE,f,f,NA,NA,NA,4,6,"2,13,14,7,11,5,3,15,8,10,6,9,1,12,4"
14828,commdev-image-keyboard-response,53,255470,learnblock1,705.8000000119209,img/planet8_left.png,8,Community 2,NA,TRUE,f,f,NA,NA,NA,4,6,"2,13,14,7,11,5,3,15,8,10,6,9,1,12,4"
14828,commdev-image-keyboard-response,54,256723,learnblock1,668.7999999821186,img/planet5_left.png,5,Community 2,NA,TRUE,f,f,NA,NA,NA,4,6,"2,13,14,7,11,5,3,15,8,10,6,9,1,12,4"
14828,commdev-image-keyboard-response,55,257975,learnblock1,751.5,img/planet3_right.png,3,Community 2,NA,TRUE,j,j,NA,NA,NA,4,6,"2,13,14,7,11,5,3,15,8,10,6,9,1,12,4"
14828,commdev-image-keyboard-response,56,259228,learnblock1,666.7999999821186,img/planet15_right.png,15,Community 2,NA,TRUE,j,j,NA,NA,NA,4,6,"2,13,14,7,11,5,3,15,8,10,6,9,1,12,4"
14828,commdev-image-keyboard-response,57,260479,learnblock1,699,img/planet8_left.png,8,Community 2,NA,TRUE,f,f,NA,NA,NA,4,6,"2,13,14,7,11,5,3,15,8,10,6,9,1,12,4"
14828,commdev-image-keyboard-response,58,261731,learnblock1,620.4000000059605,img/planet5_right.png,5,Community 2,NA,TRUE,j,j,NA,NA,NA,4,6,"2,13,14,7,11,5,3,15,8,10,6,9,1,12,4"
14828,commdev-image-keyboard-response,59,262983,learnblock1,586.5,img/planet10_right.png,10,Community 2,NA,TRUE,j,j,NA,NA,NA,4,6,"2,13,14,7,11,5,3,15,8,10,6,9,1,12,4"
14828,commdev-image-keyboard-response,60,264236,learnblock1,680.0999999940395,img/planet15_right.png,15,Community 2,NA,TRUE,j,j,NA,NA,NA,4,6,"2,13,14,7,11,5,3,15,8,10,6,9,1,12,4"
14828,commdev-image-keyboard-response,61,265490,learnblock1,641.1999999880791,img/planet8_right.png,8,Community 2,NA,TRUE,j,j,NA,NA,NA,4,6,"2,13,14,7,11,5,3,15,8,10,6,9,1,12,4"
14828,commdev-image-keyboard-response,62,266742,learnblock1,536.2000000178814,img/planet3_left.png,3,Community 2,NA,TRUE,f,f,NA,NA,NA,4,6,"2,13,14,7,11,5,3,15,8,10,6,9,1,12,4"
14828,commdev-image-keyboard-response,63,267994,learnblock1,677,img/planet10_right.png,10,Community 2,NA,TRUE,j,j,NA,NA,NA,4,6,"2,13,14,7,11,5,3,15,8,10,6,9,1,12,4"
14828,commdev-image-keyboard-response,64,269246,learnblock1,719,img/planet5_right.png,5,Community 2,NA,TRUE,j,j,NA,NA,NA,4,6,"2,13,14,7,11,5,3,15,8,10,6,9,1,12,4"
14828,commdev-image-keyboard-response,65,270499,learnblock1,594.3000000119209,img/planet10_right.png,10,Community 2,NA,TRUE,j,j,NA,NA,NA,4,6,"2,13,14,7,11,5,3,15,8,10,6,9,1,12,4"
14828,commdev-image-keyboard-response,66,271752,learnblock1,710.1999999880791,img/planet15_right.png,15,Community 2,NA,TRUE,j,j,NA,NA,NA,4,6,"2,13,14,7,11,5,3,15,8,10,6,9,1,12,4"
14828,commdev-image-keyboard-response,67,273004,learnblock1,690.0999999940395,img/planet8_right.png,8,Community 2,NA,TRUE,j,j,NA,NA,NA,4,6,"2,13,14,7,11,5,3,15,8,10,6,9,1,12,4"
14828,commdev-image-keyboard-response,68,274255,learnblock1,530.8999999761581,img/planet15_left.png,15,Community 2,NA,TRUE,f,f,NA,NA,NA,4,6,"2,13,14,7,11,5,3,15,8,10,6,9,1,12,4"
14828,commdev-image-keyboard-response,69,275506,learnblock1,616.5999999940395,img/planet9_left.png,9,Community 3,NA,TRUE,f,f,NA,NA,NA,4,6,"2,13,14,7,11,5,3,15,8,10,6,9,1,12,4"
14828,commdev-image-keyboard-response,70,276759,learnblock1,594.1000000238419,img/planet1_left.png,1,Community 3,NA,TRUE,f,f,NA,NA,NA,4,6,"2,13,14,7,11,5,3,15,8,10,6,9,1,12,4"
14828,commdev-image-keyboard-response,71,278011,learnblock1,517.5,img/planet12_right.png,12,Community 3,NA,TRUE,j,j,NA,NA,NA,4,6,"2,13,14,7,11,5,3,15,8,10,6,9,1,12,4"
14828,commdev-image-keyboard-response,72,279263,learnblock1,648.9000000059605,img/planet6_left.png,6,Community 3,NA,TRUE,f,f,NA,NA,NA,4,6,"2,13,14,7,11,5,3,15,8,10,6,9,1,12,4"
14828,commdev-image-keyboard-response,73,280516,learnblock1,583.6999999880791,img/planet11_right.png,11,Community 1,NA,TRUE,j,j,NA,NA,NA,4,6,"2,13,14,7,11,5,3,15,8,10,6,9,1,12,4"
14828,commdev-image-keyboard-response,74,281769,learnblock1,642.8000000119209,img/planet2_left.png,2,Community 1,NA,TRUE,f,f,NA,NA,NA,4,6,"2,13,14,7,11,5,3,15,8,10,6,9,1,12,4"
14828,commdev-image-keyboard-response,75,283020,learnblock1,669.3000000119209,img/planet7_left.png,7,Community 1,NA,TRUE,f,f,NA,NA,NA,4,6,"2,13,14,7,11,5,3,15,8,10,6,9,1,12,4"
14828,commdev-image-keyboard-response,76,284271,learnblock1,713.8000000119209,img/planet14_left.png,14,Community 1,NA,TRUE,f,f,NA,NA,NA,4,6,"2,13,14,7,11,5,3,15,8,10,6,9,1,12,4"
14828,commdev-image-keyboard-response,77,285524,learnblock1,684.0999999940395,img/planet2_left.png,2,Community 1,NA,TRUE,f,f,NA,NA,NA,4,6,"2,13,14,7,11,5,3,15,8,10,6,9,1,12,4"
14828,commdev-image-keyboard-response,78,286776,learnblock1,611,img/planet11_right.png,11,Community 1,NA,TRUE,j,j,NA,NA,NA,4,6,"2,13,14,7,11,5,3,15,8,10,6,9,1,12,4"
14828,commdev-image-keyboard-response,79,288027,learnblock1,743.2000000178814,img/planet6_left.png,6,Community 3,NA,TRUE,f,f,NA,NA,NA,4,6,"2,13,14,7,11,5,3,15,8,10,6,9,1,12,4"
14828,commdev-image-keyboard-response,80,289280,learnblock1,591.5,img/planet4_left.png,4,Community 3,NA,TRUE,f,f,NA,NA,NA,4,6,"2,13,14,7,11,5,3,15,8,10,6,9,1,12,4"
14828,commdev-image-keyboard-response,81,290533,learnblock1,503.59999999403954,img/planet12_right.png,12,Community 3,NA,TRUE,j,j,NA,NA,NA,4,6,"2,13,14,7,11,5,3,15,8,10,6,9,1,12,4"
14828,commdev-image-keyboard-response,82,291785,learnblock1,756.7000000178814,img/planet6_right.png,6,Community 3,NA,TRUE,j,j,NA,NA,NA,4,6,"2,13,14,7,11,5,3,15,8,10,6,9,1,12,4"
14828,commdev-image-keyboard-response,83,293038,learnblock1,642.0999999940395,img/planet1_left.png,1,Community 3,NA,TRUE,f,f,NA,NA,NA,4,6,"2,13,14,7,11,5,3,15,8,10,6,9,1,12,4"
14828,commdev-image-keyboard-response,84,294290,learnblock1,617.9000000059605,img/planet12_left.png,12,Community 3,NA,TRUE,f,f,NA,NA,NA,4,6,"2,13,14,7,11,5,3,15,8,10,6,9,1,12,4"
14828,commdev-image-keyboard-response,85,295542,learnblock1,558.4000000059605,img/planet1_right.png,1,Community 3,NA,TRUE,j,j,NA,NA,NA,4,6,"2,13,14,7,11,5,3,15,8,10,6,9,1,12,4"
14828,commdev-image-keyboard-response,86,296794,learnblock1,552.2000000178814,img/planet9_right.png,9,Community 3,NA,TRUE,j,j,NA,NA,NA,4,6,"2,13,14,7,11,5,3,15,8,10,6,9,1,12,4"
14828,commdev-image-keyboard-response,87,298047,learnblock1,520.8000000119209,img/planet1_left.png,1,Community 3,NA,FALSE,j,f,NA,NA,NA,4,6,"2,13,14,7,11,5,3,15,8,10,6,9,1,12,4"
14828,commdev-image-keyboard-response,88,299299,learnblock1,696.2000000178814,img/planet12_left.png,12,Community 3,NA,TRUE,f,f,NA,NA,NA,4,6,"2,13,14,7,11,5,3,15,8,10,6,9,1,12,4"
14828,commdev-image-keyboard-response,89,300552,learnblock1,639.7000000178814,img/planet6_left.png,6,Community 3,NA,TRUE,f,f,NA,NA,NA,4,6,"2,13,14,7,11,5,3,15,8,10,6,9,1,12,4"
14828,commdev-image-keyboard-response,90,301804,learnblock1,541.5999999940395,img/planet1_right.png,1,Community 3,NA,TRUE,j,j,NA,NA,NA,4,6,"2,13,14,7,11,5,3,15,8,10,6,9,1,12,4"
14828,commdev-image-keyboard-response,91,303056,learnblock1,561.8000000119209,img/planet6_right.png,6,Community 3,NA,TRUE,j,j,NA,NA,NA,4,6,"2,13,14,7,11,5,3,15,8,10,6,9,1,12,4"
14828,commdev-image-keyboard-response,92,304309,learnblock1,502.40000000596046,img/planet12_left.png,12,Community 3,NA,TRUE,f,f,NA,NA,NA,4,6,"2,13,14,7,11,5,3,15,8,10,6,9,1,12,4"
14828,commdev-image-keyboard-response,93,305561,learnblock1,589.5999999940395,img/planet1_right.png,1,Community 3,NA,TRUE,j,j,NA,NA,NA,4,6,"2,13,14,7,11,5,3,15,8,10,6,9,1,12,4"
14828,commdev-image-keyboard-response,94,306813,learnblock1,523.9000000059605,img/planet12_left.png,12,Community 3,NA,TRUE,f,f,NA,NA,NA,4,6,"2,13,14,7,11,5,3,15,8,10,6,9,1,12,4"
14828,commdev-image-keyboard-response,95,308065,learnblock1,681.5,img/planet4_right.png,4,Community 3,NA,TRUE,j,j,NA,NA,NA,4,6,"2,13,14,7,11,5,3,15,8,10,6,9,1,12,4"
14828,commdev-image-keyboard-response,96,309318,learnblock1,713.5,img/planet1_right.png,1,Community 3,NA,TRUE,j,j,NA,NA,NA,4,6,"2,13,14,7,11,5,3,15,8,10,6,9,1,12,4"
14828,commdev-image-keyboard-response,97,310570,learnblock1,522.5,img/planet9_left.png,9,Community 3,NA,TRUE,f,f,NA,NA,NA,4,6,"2,13,14,7,11,5,3,15,8,10,6,9,1,12,4"
14828,commdev-image-keyboard-response,98,311822,learnblock1,771.5,img/planet12_left.png,12,Community 3,NA,TRUE,f,f,NA,NA,NA,4,6,"2,13,14,7,11,5,3,15,8,10,6,9,1,12,4"
14828,commdev-image-keyboard-response,99,313075,learnblock1,688,img/planet4_left.png,4,Community 3,NA,TRUE,f,f,NA,NA,NA,4,6,"2,13,14,7,11,5,3,15,8,10,6,9,1,12,4"
14828,commdev-image-keyboard-response,100,314327,learnblock1,514.7999999821186,img/planet9_right.png,9,Community 3,NA,TRUE,j,j,NA,NA,NA,4,6,"2,13,14,7,11,5,3,15,8,10,6,9,1,12,4"
14828,commdev-image-keyboard-response,101,315580,learnblock1,635.1999999880791,img/planet15_left.png,15,Community 2,NA,TRUE,f,f,NA,NA,NA,4,6,"2,13,14,7,11,5,3,15,8,10,6,9,1,12,4"
14828,commdev-image-keyboard-response,102,316831,learnblock1,460.59999999403954,img/planet9_right.png,9,Community 3,NA,TRUE,j,j,NA,NA,NA,4,6,"2,13,14,7,11,5,3,15,8,10,6,9,1,12,4"
14828,commdev-image-keyboard-response,103,318083,learnblock1,508.7000000178814,img/planet1_left.png,1,Community 3,NA,TRUE,f,f,NA,NA,NA,4,6,"2,13,14,7,11,5,3,15,8,10,6,9,1,12,4"
14828,commdev-image-keyboard-response,104,319334,learnblock1,550.4000000059605,img/planet12_left.png,12,Community 3,NA,TRUE,f,f,NA,NA,NA,4,6,"2,13,14,7,11,5,3,15,8,10,6,9,1,12,4"
14828,commdev-image-keyboard-response,105,320586,learnblock1,629.7999999821186,img/planet1_right.png,1,Community 3,NA,TRUE,j,j,NA,NA,NA,4,6,"2,13,14,7,11,5,3,15,8,10,6,9,1,12,4"
14828,commdev-image-keyboard-response,106,321838,learnblock1,500.30000001192093,img/planet9_right.png,9,Community 3,NA,TRUE,j,j,NA,NA,NA,4,6,"2,13,14,7,11,5,3,15,8,10,6,9,1,12,4"
14828,commdev-image-keyboard-response,107,323092,learnblock1,752,img/planet15_right.png,15,Community 2,NA,TRUE,j,j,NA,NA,NA,4,6,"2,13,14,7,11,5,3,15,8,10,6,9,1,12,4"
14828,commdev-image-keyboard-response,108,324344,learnblock1,915.3000000119209,img/planet8_left.png,8,Community 2,NA,TRUE,f,f,NA,NA,NA,4,6,"2,13,14,7,11,5,3,15,8,10,6,9,1,12,4"
14828,commdev-image-keyboard-response,109,325597,learnblock1,671.7999999821186,img/planet3_right.png,3,Community 2,NA,TRUE,j,j,NA,NA,NA,4,6,"2,13,14,7,11,5,3,15,8,10,6,9,1,12,4"
14828,commdev-image-keyboard-response,110,326850,learnblock1,612.2999999821186,img/planet8_right.png,8,Community 2,NA,TRUE,j,j,NA,NA,NA,4,6,"2,13,14,7,11,5,3,15,8,10,6,9,1,12,4"
14828,commdev-image-keyboard-response,111,328102,learnblock1,620.0999999940395,img/planet10_right.png,10,Community 2,NA,TRUE,j,j,NA,NA,NA,4,6,"2,13,14,7,11,5,3,15,8,10,6,9,1,12,4"
14828,commdev-image-keyboard-response,112,329354,learnblock1,604.0999999940395,img/planet3_left.png,3,Community 2,NA,TRUE,f,f,NA,NA,NA,4,6,"2,13,14,7,11,5,3,15,8,10,6,9,1,12,4"
14828,commdev-image-keyboard-response,113,330607,learnblock1,642.3999999761581,img/planet8_left.png,8,Community 2,NA,TRUE,f,f,NA,NA,NA,4,6,"2,13,14,7,11,5,3,15,8,10,6,9,1,12,4"
14828,commdev-image-keyboard-response,114,331860,learnblock1,592.1999999880791,img/planet3_right.png,3,Community 2,NA,TRUE,j,j,NA,NA,NA,4,6,"2,13,14,7,11,5,3,15,8,10,6,9,1,12,4"
14828,commdev-image-keyboard-response,115,333112,learnblock1,577,img/planet8_left.png,8,Community 2,NA,TRUE,f,f,NA,NA,NA,4,6,"2,13,14,7,11,5,3,15,8,10,6,9,1,12,4"
14828,commdev-image-keyboard-response,116,334365,learnblock1,507.80000001192093,img/planet10_right.png,10,Community 2,NA,TRUE,j,j,NA,NA,NA,4,6,"2,13,14,7,11,5,3,15,8,10,6,9,1,12,4"
14828,commdev-image-keyboard-response,117,335617,learnblock1,555.6000000238419,img/planet5_right.png,5,Community 2,NA,TRUE,j,j,NA,NA,NA,4,6,"2,13,14,7,11,5,3,15,8,10,6,9,1,12,4"
14828,commdev-image-keyboard-response,118,336868,learnblock1,511.5,img/planet10_right.png,10,Community 2,NA,TRUE,j,j,NA,NA,NA,4,6,"2,13,14,7,11,5,3,15,8,10,6,9,1,12,4"
14828,commdev-image-keyboard-response,119,338647,learnblock1,null,img/planet3_left.png,3,Community 2,NA,FALSE,null,f,NA,NA,NA,4,6,"2,13,14,7,11,5,3,15,8,10,6,9,1,12,4"
14828,commdev-image-keyboard-response,120,339899,learnblock1,null,img/planet15_right.png,15,Community 2,NA,FALSE,null,j,NA,NA,NA,4,6,"2,13,14,7,11,5,3,15,8,10,6,9,1,12,4"
14828,commdev-image-keyboard-response,121,341152,learnblock1,null,img/planet8_left.png,8,Community 2,NA,FALSE,null,f,NA,NA,NA,4,6,"2,13,14,7,11,5,3,15,8,10,6,9,1,12,4"
14828,commdev-image-keyboard-response,122,342404,learnblock1,229.40000000596046,img/planet15_right.png,15,Community 2,NA,FALSE,f,j,NA,NA,NA,4,6,"2,13,14,7,11,5,3,15,8,10,6,9,1,12,4"
14828,commdev-image-keyboard-response,123,343655,learnblock1,589.2999999821186,img/planet3_left.png,3,Community 2,NA,TRUE,f,f,NA,NA,NA,4,6,"2,13,14,7,11,5,3,15,8,10,6,9,1,12,4"
14828,commdev-image-keyboard-response,124,344908,learnblock1,525.7999999821186,img/planet15_right.png,15,Community 2,NA,TRUE,j,j,NA,NA,NA,4,6,"2,13,14,7,11,5,3,15,8,10,6,9,1,12,4"
14828,commdev-image-keyboard-response,125,346160,learnblock1,551,img/planet8_left.png,8,Community 2,NA,TRUE,f,f,NA,NA,NA,4,6,"2,13,14,7,11,5,3,15,8,10,6,9,1,12,4"
14828,commdev-image-keyboard-response,126,347413,learnblock1,615.8000000119209,img/planet15_left.png,15,Community 2,NA,TRUE,f,f,NA,NA,NA,4,6,"2,13,14,7,11,5,3,15,8,10,6,9,1,12,4"
14828,commdev-image-keyboard-response,127,348665,learnblock1,619.2999999821186,img/planet3_right.png,3,Community 2,NA,TRUE,j,j,NA,NA,NA,4,6,"2,13,14,7,11,5,3,15,8,10,6,9,1,12,4"
14828,commdev-image-keyboard-response,128,349916,learnblock1,606.8000000119209,img/planet8_right.png,8,Community 2,NA,TRUE,j,j,NA,NA,NA,4,6,"2,13,14,7,11,5,3,15,8,10,6,9,1,12,4"
14828,commdev-image-keyboard-response,129,351168,learnblock1,538.9000000059605,img/planet3_right.png,3,Community 2,NA,TRUE,j,j,NA,NA,NA,4,6,"2,13,14,7,11,5,3,15,8,10,6,9,1,12,4"
14828,commdev-image-keyboard-response,130,352421,learnblock1,513.5,img/planet10_right.png,10,Community 2,NA,TRUE,j,j,NA,NA,NA,4,6,"2,13,14,7,11,5,3,15,8,10,6,9,1,12,4"
14828,commdev-image-keyboard-response,131,353673,learnblock1,605.5999999940395,img/planet5_left.png,5,Community 2,NA,TRUE,f,f,NA,NA,NA,4,6,"2,13,14,7,11,5,3,15,8,10,6,9,1,12,4"
14828,commdev-image-keyboard-response,132,354925,learnblock1,594.5999999940395,img/planet3_left.png,3,Community 2,NA,TRUE,f,f,NA,NA,NA,4,6,"2,13,14,7,11,5,3,15,8,10,6,9,1,12,4"
14828,commdev-image-keyboard-response,133,356177,learnblock1,579.5,img/planet8_left.png,8,Community 2,NA,TRUE,f,f,NA,NA,NA,4,6,"2,13,14,7,11,5,3,15,8,10,6,9,1,12,4"
14828,commdev-image-keyboard-response,134,357429,learnblock1,683.7999999821186,img/planet5_left.png,5,Community 2,NA,TRUE,f,f,NA,NA,NA,4,6,"2,13,14,7,11,5,3,15,8,10,6,9,1,12,4"
14828,commdev-image-keyboard-response,135,358681,learnblock1,824.7999999821186,img/planet7_left.png,7,Community 1,NA,TRUE,f,f,NA,NA,NA,4,6,"2,13,14,7,11,5,3,15,8,10,6,9,1,12,4"
14828,commdev-image-keyboard-response,136,359933,learnblock1,548.4000000059605,img/planet14_right.png,14,Community 1,NA,TRUE,j,j,NA,NA,NA,4,6,"2,13,14,7,11,5,3,15,8,10,6,9,1,12,4"
14828,commdev-image-keyboard-response,137,361185,learnblock1,602.3000000119209,img/planet2_left.png,2,Community 1,NA,TRUE,f,f,NA,NA,NA,4,6,"2,13,14,7,11,5,3,15,8,10,6,9,1,12,4"
14828,commdev-image-keyboard-response,138,362437,learnblock1,754.5,img/planet13_left.png,13,Community 1,NA,TRUE,f,f,NA,NA,NA,4,6,"2,13,14,7,11,5,3,15,8,10,6,9,1,12,4"
14828,commdev-image-keyboard-response,139,363690,learnblock1,601,img/planet7_right.png,7,Community 1,NA,TRUE,j,j,NA,NA,NA,4,6,"2,13,14,7,11,5,3,15,8,10,6,9,1,12,4"
14828,commdev-image-keyboard-response,140,364942,learnblock1,621.9000000059605,img/planet5_right.png,5,Community 2,NA,TRUE,j,j,NA,NA,NA,4,6,"2,13,14,7,11,5,3,15,8,10,6,9,1,12,4"
14828,commdev-image-keyboard-response,141,366194,learnblock1,626.5,img/planet7_left.png,7,Community 1,NA,TRUE,f,f,NA,NA,NA,4,6,"2,13,14,7,11,5,3,15,8,10,6,9,1,12,4"
14828,commdev-image-keyboard-response,142,367445,learnblock1,572.7999999821186,img/planet14_right.png,14,Community 1,NA,TRUE,j,j,NA,NA,NA,4,6,"2,13,14,7,11,5,3,15,8,10,6,9,1,12,4"
14828,commdev-image-keyboard-response,143,368698,learnblock1,720,img/planet7_right.png,7,Community 1,NA,TRUE,j,j,NA,NA,NA,4,6,"2,13,14,7,11,5,3,15,8,10,6,9,1,12,4"
14828,commdev-image-keyboard-response,144,369949,learnblock1,632.5999999940395,img/planet14_left.png,14,Community 1,NA,TRUE,f,f,NA,NA,NA,4,6,"2,13,14,7,11,5,3,15,8,10,6,9,1,12,4"
14828,commdev-image-keyboard-response,145,371203,learnblock1,615.7999999821186,img/planet11_left.png,11,Community 1,NA,TRUE,f,f,NA,NA,NA,4,6,"2,13,14,7,11,5,3,15,8,10,6,9,1,12,4"
14828,commdev-image-keyboard-response,146,372454,learnblock1,627.0999999940395,img/planet14_left.png,14,Community 1,NA,TRUE,f,f,NA,NA,NA,4,6,"2,13,14,7,11,5,3,15,8,10,6,9,1,12,4"
14828,commdev-image-keyboard-response,147,373705,learnblock1,536.5,img/planet7_right.png,7,Community 1,NA,TRUE,j,j,NA,NA,NA,4,6,"2,13,14,7,11,5,3,15,8,10,6,9,1,12,4"
14828,commdev-image-keyboard-response,148,374958,learnblock1,623.7000000178814,img/planet2_right.png,2,Community 1,NA,TRUE,j,j,NA,NA,NA,4,6,"2,13,14,7,11,5,3,15,8,10,6,9,1,12,4"
14828,commdev-image-keyboard-response,149,376211,learnblock1,689,img/planet14_left.png,14,Community 1,NA,TRUE,f,f,NA,NA,NA,4,6,"2,13,14,7,11,5,3,15,8,10,6,9,1,12,4"
14828,commdev-image-keyboard-response,150,377464,learnblock1,496.7000000178814,img/planet11_right.png,11,Community 1,NA,TRUE,j,j,NA,NA,NA,4,6,"2,13,14,7,11,5,3,15,8,10,6,9,1,12,4"
14828,commdev-image-keyboard-response,151,378716,learnblock1,552,img/planet6_left.png,6,Community 3,NA,TRUE,f,f,NA,NA,NA,4,6,"2,13,14,7,11,5,3,15,8,10,6,9,1,12,4"
14828,commdev-image-keyboard-response,152,379968,learnblock1,597.0999999940395,img/planet4_left.png,4,Community 3,NA,TRUE,f,f,NA,NA,NA,4,6,"2,13,14,7,11,5,3,15,8,10,6,9,1,12,4"
14828,commdev-image-keyboard-response,153,381219,learnblock1,375.40000000596046,img/planet1_left.png,1,Community 3,NA,TRUE,f,f,NA,NA,NA,4,6,"2,13,14,7,11,5,3,15,8,10,6,9,1,12,4"
14828,commdev-image-keyboard-response,154,382471,learnblock1,693.7000000178814,img/planet4_right.png,4,Community 3,NA,TRUE,j,j,NA,NA,NA,4,6,"2,13,14,7,11,5,3,15,8,10,6,9,1,12,4"
14828,commdev-image-keyboard-response,155,383722,learnblock1,530.4000000059605,img/planet1_right.png,1,Community 3,NA,TRUE,j,j,NA,NA,NA,4,6,"2,13,14,7,11,5,3,15,8,10,6,9,1,12,4"
14828,commdev-image-keyboard-response,156,384973,learnblock1,770.5,img/planet12_right.png,12,Community 3,NA,TRUE,j,j,NA,NA,NA,4,6,"2,13,14,7,11,5,3,15,8,10,6,9,1,12,4"
14828,commdev-image-keyboard-response,157,386225,learnblock1,554.6999999880791,img/planet9_right.png,9,Community 3,NA,TRUE,j,j,NA,NA,NA,4,6,"2,13,14,7,11,5,3,15,8,10,6,9,1,12,4"
14828,commdev-image-keyboard-response,158,387476,learnblock1,610.6999999880791,img/planet15_right.png,15,Community 2,NA,FALSE,f,j,NA,NA,NA,4,6,"2,13,14,7,11,5,3,15,8,10,6,9,1,12,4"
14828,commdev-image-keyboard-response,159,388728,learnblock1,664.5,img/planet9_right.png,9,Community 3,NA,TRUE,j,j,NA,NA,NA,4,6,"2,13,14,7,11,5,3,15,8,10,6,9,1,12,4"
14828,commdev-image-keyboard-response,160,389979,learnblock1,674,img/planet15_right.png,15,Community 2,NA,TRUE,j,j,NA,NA,NA,4,6,"2,13,14,7,11,5,3,15,8,10,6,9,1,12,4"
14828,commdev-image-keyboard-response,161,391231,learnblock1,745.9000000059605,img/planet8_right.png,8,Community 2,NA,TRUE,j,j,NA,NA,NA,4,6,"2,13,14,7,11,5,3,15,8,10,6,9,1,12,4"
14828,commdev-image-keyboard-response,162,392483,learnblock1,579.5,img/planet10_right.png,10,Community 2,NA,TRUE,j,j,NA,NA,NA,4,6,"2,13,14,7,11,5,3,15,8,10,6,9,1,12,4"
14828,commdev-image-keyboard-response,163,393735,learnblock1,575.4000000059605,img/planet5_right.png,5,Community 2,NA,TRUE,j,j,NA,NA,NA,4,6,"2,13,14,7,11,5,3,15,8,10,6,9,1,12,4"
14828,commdev-image-keyboard-response,164,394986,learnblock1,813.1999999880791,img/planet10_right.png,10,Community 2,NA,TRUE,j,j,NA,NA,NA,4,6,"2,13,14,7,11,5,3,15,8,10,6,9,1,12,4"
14828,commdev-image-keyboard-response,165,396238,learnblock1,601.0999999940395,img/planet5_right.png,5,Community 2,NA,TRUE,j,j,NA,NA,NA,4,6,"2,13,14,7,11,5,3,15,8,10,6,9,1,12,4"
14828,commdev-image-keyboard-response,166,397489,learnblock1,606.1999999880791,img/planet3_left.png,3,Community 2,NA,TRUE,f,f,NA,NA,NA,4,6,"2,13,14,7,11,5,3,15,8,10,6,9,1,12,4"
14828,commdev-image-keyboard-response,167,398741,learnblock1,533.9000000059605,img/planet8_right.png,8,Community 2,NA,TRUE,j,j,NA,NA,NA,4,6,"2,13,14,7,11,5,3,15,8,10,6,9,1,12,4"
14828,commdev-image-keyboard-response,168,399993,learnblock1,555.7000000178814,img/planet15_left.png,15,Community 2,NA,TRUE,f,f,NA,NA,NA,4,6,"2,13,14,7,11,5,3,15,8,10,6,9,1,12,4"
14828,commdev-image-keyboard-response,169,401245,learnblock1,520.0999999940395,img/planet9_right.png,9,Community 3,NA,TRUE,j,j,NA,NA,NA,4,6,"2,13,14,7,11,5,3,15,8,10,6,9,1,12,4"
14828,commdev-image-keyboard-response,170,402496,learnblock1,876.6999999880791,img/planet15_right.png,15,Community 2,NA,TRUE,j,j,NA,NA,NA,4,6,"2,13,14,7,11,5,3,15,8,10,6,9,1,12,4"
14828,commdev-image-keyboard-response,171,403748,learnblock1,611.0999999940395,img/planet10_left.png,10,Community 2,NA,TRUE,f,f,NA,NA,NA,4,6,"2,13,14,7,11,5,3,15,8,10,6,9,1,12,4"
14828,commdev-image-keyboard-response,172,405001,learnblock1,734.9000000059605,img/planet5_left.png,5,Community 2,NA,TRUE,f,f,NA,NA,NA,4,6,"2,13,14,7,11,5,3,15,8,10,6,9,1,12,4"
14828,commdev-image-keyboard-response,173,406253,learnblock1,736.5999999940395,img/planet3_left.png,3,Community 2,NA,TRUE,f,f,NA,NA,NA,4,6,"2,13,14,7,11,5,3,15,8,10,6,9,1,12,4"
14828,commdev-image-keyboard-response,174,407505,learnblock1,583.7999999821186,img/planet15_right.png,15,Community 2,NA,TRUE,j,j,NA,NA,NA,4,6,"2,13,14,7,11,5,3,15,8,10,6,9,1,12,4"
14828,commdev-image-keyboard-response,175,408757,learnblock1,617.2999999821186,img/planet8_right.png,8,Community 2,NA,TRUE,j,j,NA,NA,NA,4,6,"2,13,14,7,11,5,3,15,8,10,6,9,1,12,4"
14828,commdev-image-keyboard-response,176,410008,learnblock1,521.1999999880791,img/planet15_left.png,15,Community 2,NA,TRUE,f,f,NA,NA,NA,4,6,"2,13,14,7,11,5,3,15,8,10,6,9,1,12,4"
14828,commdev-image-keyboard-response,177,411261,learnblock1,467.90000000596046,img/planet10_right.png,10,Community 2,NA,TRUE,j,j,NA,NA,NA,4,6,"2,13,14,7,11,5,3,15,8,10,6,9,1,12,4"
14828,commdev-image-keyboard-response,178,412514,learnblock1,575.9000000059605,img/planet8_left.png,8,Community 2,NA,TRUE,f,f,NA,NA,NA,4,6,"2,13,14,7,11,5,3,15,8,10,6,9,1,12,4"
14828,commdev-image-keyboard-response,179,413766,learnblock1,549.1000000238419,img/planet3_right.png,3,Community 2,NA,TRUE,j,j,NA,NA,NA,4,6,"2,13,14,7,11,5,3,15,8,10,6,9,1,12,4"
14828,commdev-image-keyboard-response,180,415019,learnblock1,561.5999999940395,img/planet5_left.png,5,Community 2,NA,TRUE,f,f,NA,NA,NA,4,6,"2,13,14,7,11,5,3,15,8,10,6,9,1,12,4"
14828,commdev-image-keyboard-response,181,416271,learnblock1,631.4000000059605,img/planet7_left.png,7,Community 1,NA,TRUE,f,f,NA,NA,NA,4,6,"2,13,14,7,11,5,3,15,8,10,6,9,1,12,4"
14828,commdev-image-keyboard-response,182,417523,learnblock1,615.2999999821186,img/planet2_left.png,2,Community 1,NA,TRUE,f,f,NA,NA,NA,4,6,"2,13,14,7,11,5,3,15,8,10,6,9,1,12,4"
14828,commdev-image-keyboard-response,183,418775,learnblock1,649,img/planet11_left.png,11,Community 1,NA,TRUE,f,f,NA,NA,NA,4,6,"2,13,14,7,11,5,3,15,8,10,6,9,1,12,4"
14828,commdev-image-keyboard-response,184,420026,learnblock1,532.8000000119209,img/planet14_left.png,14,Community 1,NA,TRUE,f,f,NA,NA,NA,4,6,"2,13,14,7,11,5,3,15,8,10,6,9,1,12,4"
14828,commdev-image-keyboard-response,185,421279,learnblock1,602.8000000119209,img/planet7_left.png,7,Community 1,NA,TRUE,f,f,NA,NA,NA,4,6,"2,13,14,7,11,5,3,15,8,10,6,9,1,12,4"
14828,commdev-image-keyboard-response,186,422531,learnblock1,704.5,img/planet14_left.png,14,Community 1,NA,TRUE,f,f,NA,NA,NA,4,6,"2,13,14,7,11,5,3,15,8,10,6,9,1,12,4"
14828,commdev-image-keyboard-response,187,423782,learnblock1,601.4000000059605,img/planet13_right.png,13,Community 1,NA,TRUE,j,j,NA,NA,NA,4,6,"2,13,14,7,11,5,3,15,8,10,6,9,1,12,4"
14828,commdev-image-keyboard-response,188,425034,learnblock1,474.7999999821186,img/planet7_right.png,7,Community 1,NA,TRUE,j,j,NA,NA,NA,4,6,"2,13,14,7,11,5,3,15,8,10,6,9,1,12,4"
14828,commdev-image-keyboard-response,189,426286,learnblock1,648.2000000178814,img/planet13_right.png,13,Community 1,NA,TRUE,j,j,NA,NA,NA,4,6,"2,13,14,7,11,5,3,15,8,10,6,9,1,12,4"
14828,commdev-image-keyboard-response,190,427539,learnblock1,640.1999999880791,img/planet14_right.png,14,Community 1,NA,TRUE,j,j,NA,NA,NA,4,6,"2,13,14,7,11,5,3,15,8,10,6,9,1,12,4"
14828,commdev-image-keyboard-response,191,428791,learnblock1,652.3000000119209,img/planet11_left.png,11,Community 1,NA,TRUE,f,f,NA,NA,NA,4,6,"2,13,14,7,11,5,3,15,8,10,6,9,1,12,4"
14828,commdev-image-keyboard-response,192,430043,learnblock1,710.6999999880791,img/planet14_left.png,14,Community 1,NA,TRUE,f,f,NA,NA,NA,4,6,"2,13,14,7,11,5,3,15,8,10,6,9,1,12,4"
14828,commdev-image-keyboard-response,193,431295,learnblock1,645.6000000238419,img/planet11_left.png,11,Community 1,NA,TRUE,f,f,NA,NA,NA,4,6,"2,13,14,7,11,5,3,15,8,10,6,9,1,12,4"
14828,commdev-image-keyboard-response,194,432547,learnblock1,774.7999999821186,img/planet14_left.png,14,Community 1,NA,TRUE,f,f,NA,NA,NA,4,6,"2,13,14,7,11,5,3,15,8,10,6,9,1,12,4"
14828,commdev-image-keyboard-response,195,433799,learnblock1,587.7000000178814,img/planet11_right.png,11,Community 1,NA,TRUE,j,j,NA,NA,NA,4,6,"2,13,14,7,11,5,3,15,8,10,6,9,1,12,4"
14828,commdev-image-keyboard-response,196,435050,learnblock1,992.2000000178814,img/planet14_right.png,14,Community 1,NA,TRUE,j,j,NA,NA,NA,4,6,"2,13,14,7,11,5,3,15,8,10,6,9,1,12,4"
14828,commdev-image-keyboard-response,197,436302,learnblock1,721,img/planet11_left.png,11,Community 1,NA,TRUE,f,f,NA,NA,NA,4,6,"2,13,14,7,11,5,3,15,8,10,6,9,1,12,4"
14828,commdev-image-keyboard-response,198,437555,learnblock1,454.39999997615814,img/planet13_right.png,13,Community 1,NA,TRUE,j,j,NA,NA,NA,4,6,"2,13,14,7,11,5,3,15,8,10,6,9,1,12,4"
14828,commdev-image-keyboard-response,199,438807,learnblock1,748.5999999940395,img/planet7_right.png,7,Community 1,NA,TRUE,j,j,NA,NA,NA,4,6,"2,13,14,7,11,5,3,15,8,10,6,9,1,12,4"
14828,commdev-image-keyboard-response,200,440059,learnblock1,640.9000000059605,img/planet13_left.png,13,Community 1,NA,TRUE,f,f,NA,NA,NA,4,6,"2,13,14,7,11,5,3,15,8,10,6,9,1,12,4"
14828,commdev-image-keyboard-response,201,441312,learnblock1,784.4000000059605,img/planet7_right.png,7,Community 1,NA,TRUE,j,j,NA,NA,NA,4,6,"2,13,14,7,11,5,3,15,8,10,6,9,1,12,4"
14828,commdev-image-keyboard-response,202,442564,learnblock1,657.3000000119209,img/planet2_left.png,2,Community 1,NA,TRUE,f,f,NA,NA,NA,4,6,"2,13,14,7,11,5,3,15,8,10,6,9,1,12,4"
14828,commdev-image-keyboard-response,203,443817,learnblock1,594.2999999821186,img/planet11_left.png,11,Community 1,NA,TRUE,f,f,NA,NA,NA,4,6,"2,13,14,7,11,5,3,15,8,10,6,9,1,12,4"
14828,commdev-image-keyboard-response,204,445069,learnblock1,518.0999999940395,img/planet6_right.png,6,Community 3,NA,TRUE,j,j,NA,NA,NA,4,6,"2,13,14,7,11,5,3,15,8,10,6,9,1,12,4"
14828,commdev-image-keyboard-response,205,446321,learnblock1,632.0999999940395,img/planet4_right.png,4,Community 3,NA,TRUE,j,j,NA,NA,NA,4,6,"2,13,14,7,11,5,3,15,8,10,6,9,1,12,4"
14828,commdev-image-keyboard-response,206,447574,learnblock1,591.9000000059605,img/planet1_right.png,1,Community 3,NA,TRUE,j,j,NA,NA,NA,4,6,"2,13,14,7,11,5,3,15,8,10,6,9,1,12,4"
14828,commdev-image-keyboard-response,207,448828,learnblock1,500.30000001192093,img/planet9_right.png,9,Community 3,NA,TRUE,j,j,NA,NA,NA,4,6,"2,13,14,7,11,5,3,15,8,10,6,9,1,12,4"
14828,commdev-image-keyboard-response,208,450079,learnblock1,651.5999999940395,img/planet12_left.png,12,Community 3,NA,TRUE,f,f,NA,NA,NA,4,6,"2,13,14,7,11,5,3,15,8,10,6,9,1,12,4"
14828,commdev-image-keyboard-response,209,451331,learnblock1,511.09999999403954,img/planet6_right.png,6,Community 3,NA,TRUE,j,j,NA,NA,NA,4,6,"2,13,14,7,11,5,3,15,8,10,6,9,1,12,4"
14828,commdev-image-keyboard-response,210,452583,learnblock1,623.3000000119209,img/planet12_right.png,12,Community 3,NA,TRUE,j,j,NA,NA,NA,4,6,"2,13,14,7,11,5,3,15,8,10,6,9,1,12,4"
14828,commdev-image-keyboard-response,211,453836,learnblock1,534.3000000119209,img/planet9_left.png,9,Community 3,NA,TRUE,f,f,NA,NA,NA,4,6,"2,13,14,7,11,5,3,15,8,10,6,9,1,12,4"
14828,commdev-image-keyboard-response,212,455087,learnblock1,478.19999998807907,img/planet4_right.png,4,Community 3,NA,TRUE,j,j,NA,NA,NA,4,6,"2,13,14,7,11,5,3,15,8,10,6,9,1,12,4"
14828,commdev-image-keyboard-response,213,456340,learnblock1,547.5999999940395,img/planet6_left.png,6,Community 3,NA,TRUE,f,f,NA,NA,NA,4,6,"2,13,14,7,11,5,3,15,8,10,6,9,1,12,4"
14828,commdev-image-keyboard-response,214,457592,learnblock1,734.5,img/planet11_left.png,11,Community 1,NA,TRUE,f,f,NA,NA,NA,4,6,"2,13,14,7,11,5,3,15,8,10,6,9,1,12,4"
14828,commdev-image-keyboard-response,215,458845,learnblock1,536.3000000119209,img/planet14_right.png,14,Community 1,NA,TRUE,j,j,NA,NA,NA,4,6,"2,13,14,7,11,5,3,15,8,10,6,9,1,12,4"
14828,commdev-image-keyboard-response,216,460096,learnblock1,533.3999999761581,img/planet11_left.png,11,Community 1,NA,TRUE,f,f,NA,NA,NA,4,6,"2,13,14,7,11,5,3,15,8,10,6,9,1,12,4"
14828,commdev-image-keyboard-response,217,461347,learnblock1,605.2000000178814,img/planet2_left.png,2,Community 1,NA,TRUE,f,f,NA,NA,NA,4,6,"2,13,14,7,11,5,3,15,8,10,6,9,1,12,4"
14828,commdev-image-keyboard-response,218,462599,learnblock1,496.2999999821186,img/planet13_right.png,13,Community 1,NA,TRUE,j,j,NA,NA,NA,4,6,"2,13,14,7,11,5,3,15,8,10,6,9,1,12,4"
14828,commdev-image-keyboard-response,219,463851,learnblock1,661.7000000178814,img/planet11_right.png,11,Community 1,NA,TRUE,j,j,NA,NA,NA,4,6,"2,13,14,7,11,5,3,15,8,10,6,9,1,12,4"
14828,commdev-image-keyboard-response,220,465103,learnblock1,587.1999999880791,img/planet14_right.png,14,Community 1,NA,TRUE,j,j,NA,NA,NA,4,6,"2,13,14,7,11,5,3,15,8,10,6,9,1,12,4"
14828,commdev-image-keyboard-response,221,466356,learnblock1,620.6999999880791,img/planet2_left.png,2,Community 1,NA,TRUE,f,f,NA,NA,NA,4,6,"2,13,14,7,11,5,3,15,8,10,6,9,1,12,4"
14828,commdev-image-keyboard-response,222,467608,learnblock1,545.7999999821186,img/planet7_right.png,7,Community 1,NA,FALSE,f,j,NA,NA,NA,4,6,"2,13,14,7,11,5,3,15,8,10,6,9,1,12,4"
14828,commdev-image-keyboard-response,223,468860,learnblock1,676.6000000238419,img/planet13_right.png,13,Community 1,NA,TRUE,j,j,NA,NA,NA,4,6,"2,13,14,7,11,5,3,15,8,10,6,9,1,12,4"
14828,commdev-image-keyboard-response,224,470112,learnblock1,613.9000000059605,img/planet14_left.png,14,Community 1,NA,TRUE,f,f,NA,NA,NA,4,6,"2,13,14,7,11,5,3,15,8,10,6,9,1,12,4"
14828,commdev-image-keyboard-response,225,471364,learnblock1,575.5999999940395,img/planet2_left.png,2,Community 1,NA,TRUE,f,f,NA,NA,NA,4,6,"2,13,14,7,11,5,3,15,8,10,6,9,1,12,4"
14828,commdev-image-keyboard-response,226,472616,learnblock1,606.2999999821186,img/planet11_left.png,11,Community 1,NA,TRUE,f,f,NA,NA,NA,4,6,"2,13,14,7,11,5,3,15,8,10,6,9,1,12,4"
14828,commdev-image-keyboard-response,227,473868,learnblock1,508.90000000596046,img/planet14_right.png,14,Community 1,NA,TRUE,j,j,NA,NA,NA,4,6,"2,13,14,7,11,5,3,15,8,10,6,9,1,12,4"
14828,commdev-image-keyboard-response,228,475121,learnblock1,521.9000000059605,img/planet11_right.png,11,Community 1,NA,TRUE,j,j,NA,NA,NA,4,6,"2,13,14,7,11,5,3,15,8,10,6,9,1,12,4"
14828,commdev-image-keyboard-response,229,476373,learnblock1,507.59999999403954,img/planet6_left.png,6,Community 3,NA,TRUE,f,f,NA,NA,NA,4,6,"2,13,14,7,11,5,3,15,8,10,6,9,1,12,4"
14828,commdev-image-keyboard-response,230,477626,learnblock1,595.2999999821186,img/planet11_right.png,11,Community 1,NA,TRUE,j,j,NA,NA,NA,4,6,"2,13,14,7,11,5,3,15,8,10,6,9,1,12,4"
14828,commdev-image-keyboard-response,231,478878,learnblock1,579,img/planet2_right.png,2,Community 1,NA,TRUE,j,j,NA,NA,NA,4,6,"2,13,14,7,11,5,3,15,8,10,6,9,1,12,4"
14828,commdev-image-keyboard-response,232,480131,learnblock1,596.8000000119209,img/planet7_right.png,7,Community 1,NA,TRUE,j,j,NA,NA,NA,4,6,"2,13,14,7,11,5,3,15,8,10,6,9,1,12,4"
14828,commdev-image-keyboard-response,233,481381,learnblock1,582.5,img/planet14_left.png,14,Community 1,NA,TRUE,f,f,NA,NA,NA,4,6,"2,13,14,7,11,5,3,15,8,10,6,9,1,12,4"
14828,commdev-image-keyboard-response,234,482633,learnblock1,502.2999999821186,img/planet11_right.png,11,Community 1,NA,TRUE,j,j,NA,NA,NA,4,6,"2,13,14,7,11,5,3,15,8,10,6,9,1,12,4"
14828,commdev-image-keyboard-response,235,483885,learnblock1,600.1999999880791,img/planet13_left.png,13,Community 1,NA,TRUE,f,f,NA,NA,NA,4,6,"2,13,14,7,11,5,3,15,8,10,6,9,1,12,4"
14828,commdev-image-keyboard-response,236,485137,learnblock1,634,img/planet11_left.png,11,Community 1,NA,TRUE,f,f,NA,NA,NA,4,6,"2,13,14,7,11,5,3,15,8,10,6,9,1,12,4"
14828,commdev-image-keyboard-response,237,486389,learnblock1,531.3999999761581,img/planet13_right.png,13,Community 1,NA,TRUE,j,j,NA,NA,NA,4,6,"2,13,14,7,11,5,3,15,8,10,6,9,1,12,4"
14828,commdev-image-keyboard-response,238,487641,learnblock1,537.6999999880791,img/planet2_left.png,2,Community 1,NA,TRUE,f,f,NA,NA,NA,4,6,"2,13,14,7,11,5,3,15,8,10,6,9,1,12,4"
14828,commdev-image-keyboard-response,239,488893,learnblock1,624.5999999940395,img/planet7_left.png,7,Community 1,NA,TRUE,f,f,NA,NA,NA,4,6,"2,13,14,7,11,5,3,15,8,10,6,9,1,12,4"
14828,commdev-image-keyboard-response,240,490145,learnblock1,760,img/planet13_left.png,13,Community 1,NA,TRUE,f,f,NA,NA,NA,4,6,"2,13,14,7,11,5,3,15,8,10,6,9,1,12,4"
14828,commdev-image-keyboard-response,241,491397,learnblock1,580.2000000178814,img/planet11_left.png,11,Community 1,NA,TRUE,f,f,NA,NA,NA,4,6,"2,13,14,7,11,5,3,15,8,10,6,9,1,12,4"
14828,commdev-image-keyboard-response,242,492649,learnblock1,613.1000000238419,img/planet13_left.png,13,Community 1,NA,TRUE,f,f,NA,NA,NA,4,6,"2,13,14,7,11,5,3,15,8,10,6,9,1,12,4"
14828,commdev-image-keyboard-response,243,493902,learnblock1,650.1999999880791,img/planet14_left.png,14,Community 1,NA,TRUE,f,f,NA,NA,NA,4,6,"2,13,14,7,11,5,3,15,8,10,6,9,1,12,4"
14828,commdev-image-keyboard-response,244,495154,learnblock1,580.0999999940395,img/planet11_left.png,11,Community 1,NA,TRUE,f,f,NA,NA,NA,4,6,"2,13,14,7,11,5,3,15,8,10,6,9,1,12,4"
14828,commdev-image-keyboard-response,245,496406,learnblock1,695.8000000119209,img/planet14_left.png,14,Community 1,NA,TRUE,f,f,NA,NA,NA,4,6,"2,13,14,7,11,5,3,15,8,10,6,9,1,12,4"
14828,commdev-image-keyboard-response,246,497658,learnblock1,535.8999999761581,img/planet13_left.png,13,Community 1,NA,TRUE,f,f,NA,NA,NA,4,6,"2,13,14,7,11,5,3,15,8,10,6,9,1,12,4"
14828,commdev-image-keyboard-response,247,498910,learnblock1,647.1999999880791,img/planet7_left.png,7,Community 1,NA,TRUE,f,f,NA,NA,NA,4,6,"2,13,14,7,11,5,3,15,8,10,6,9,1,12,4"
14828,commdev-image-keyboard-response,248,500163,learnblock1,647,img/planet13_left.png,13,Community 1,NA,TRUE,f,f,NA,NA,NA,4,6,"2,13,14,7,11,5,3,15,8,10,6,9,1,12,4"
14828,commdev-image-keyboard-response,249,501415,learnblock1,610.5,img/planet14_right.png,14,Community 1,NA,TRUE,j,j,NA,NA,NA,4,6,"2,13,14,7,11,5,3,15,8,10,6,9,1,12,4"
14828,commdev-image-keyboard-response,250,502666,learnblock1,887.2000000178814,img/planet7_right.png,7,Community 1,NA,TRUE,j,j,NA,NA,NA,4,6,"2,13,14,7,11,5,3,15,8,10,6,9,1,12,4"
14828,commdev-image-keyboard-response,251,503919,learnblock1,644.3000000119209,img/planet5_right.png,5,Community 2,NA,TRUE,j,j,NA,NA,NA,4,6,"2,13,14,7,11,5,3,15,8,10,6,9,1,12,4"
14828,commdev-image-keyboard-response,252,505171,learnblock1,647.2000000178814,img/planet8_right.png,8,Community 2,NA,TRUE,j,j,NA,NA,NA,4,6,"2,13,14,7,11,5,3,15,8,10,6,9,1,12,4"
14828,commdev-image-keyboard-response,253,506424,learnblock1,640.2999999821186,img/planet3_left.png,3,Community 2,NA,TRUE,f,f,NA,NA,NA,4,6,"2,13,14,7,11,5,3,15,8,10,6,9,1,12,4"
14828,commdev-image-keyboard-response,254,507677,learnblock1,584.3000000119209,img/planet15_left.png,15,Community 2,NA,TRUE,f,f,NA,NA,NA,4,6,"2,13,14,7,11,5,3,15,8,10,6,9,1,12,4"
14828,commdev-image-keyboard-response,255,508929,learnblock1,587.1000000238419,img/planet3_left.png,3,Community 2,NA,TRUE,f,f,NA,NA,NA,4,6,"2,13,14,7,11,5,3,15,8,10,6,9,1,12,4"
14828,commdev-image-keyboard-response,256,510180,learnblock1,507.90000000596046,img/planet15_right.png,15,Community 2,NA,TRUE,j,j,NA,NA,NA,4,6,"2,13,14,7,11,5,3,15,8,10,6,9,1,12,4"
14828,commdev-image-keyboard-response,257,511432,learnblock1,627.0999999940395,img/planet8_right.png,8,Community 2,NA,TRUE,j,j,NA,NA,NA,4,6,"2,13,14,7,11,5,3,15,8,10,6,9,1,12,4"
14828,commdev-image-keyboard-response,258,512683,learnblock1,686.3000000119209,img/planet15_left.png,15,Community 2,NA,TRUE,f,f,NA,NA,NA,4,6,"2,13,14,7,11,5,3,15,8,10,6,9,1,12,4"
14828,commdev-image-keyboard-response,259,513936,learnblock1,522.7999999821186,img/planet10_right.png,10,Community 2,NA,TRUE,j,j,NA,NA,NA,4,6,"2,13,14,7,11,5,3,15,8,10,6,9,1,12,4"
14828,commdev-image-keyboard-response,260,515188,learnblock1,611.8000000119209,img/planet15_right.png,15,Community 2,NA,TRUE,j,j,NA,NA,NA,4,6,"2,13,14,7,11,5,3,15,8,10,6,9,1,12,4"
14828,commdev-image-keyboard-response,261,516440,learnblock1,618.7000000178814,img/planet9_left.png,9,Community 3,NA,TRUE,f,f,NA,NA,NA,4,6,"2,13,14,7,11,5,3,15,8,10,6,9,1,12,4"
14828,commdev-image-keyboard-response,262,517692,learnblock1,723.9000000059605,img/planet4_left.png,4,Community 3,NA,TRUE,f,f,NA,NA,NA,4,6,"2,13,14,7,11,5,3,15,8,10,6,9,1,12,4"
14828,commdev-image-keyboard-response,263,518944,learnblock1,567.8000000119209,img/planet6_right.png,6,Community 3,NA,TRUE,j,j,NA,NA,NA,4,6,"2,13,14,7,11,5,3,15,8,10,6,9,1,12,4"
14828,commdev-image-keyboard-response,264,520196,learnblock1,611.5999999940395,img/planet12_right.png,12,Community 3,NA,TRUE,j,j,NA,NA,NA,4,6,"2,13,14,7,11,5,3,15,8,10,6,9,1,12,4"
14828,commdev-image-keyboard-response,265,521448,learnblock1,493.80000001192093,img/planet9_left.png,9,Community 3,NA,FALSE,j,f,NA,NA,NA,4,6,"2,13,14,7,11,5,3,15,8,10,6,9,1,12,4"
14828,commdev-image-keyboard-response,266,522701,learnblock1,675.5,img/planet12_left.png,12,Community 3,NA,TRUE,f,f,NA,NA,NA,4,6,"2,13,14,7,11,5,3,15,8,10,6,9,1,12,4"
14828,commdev-image-keyboard-response,267,523953,learnblock1,557.1999999880791,img/planet9_right.png,9,Community 3,NA,TRUE,j,j,NA,NA,NA,4,6,"2,13,14,7,11,5,3,15,8,10,6,9,1,12,4"
14828,commdev-image-keyboard-response,268,525205,learnblock1,599.7999999821186,img/planet4_right.png,4,Community 3,NA,TRUE,j,j,NA,NA,NA,4,6,"2,13,14,7,11,5,3,15,8,10,6,9,1,12,4"
14828,commdev-image-keyboard-response,269,526459,learnblock1,598.0999999940395,img/planet6_left.png,6,Community 3,NA,TRUE,f,f,NA,NA,NA,4,6,"2,13,14,7,11,5,3,15,8,10,6,9,1,12,4"
14828,commdev-image-keyboard-response,270,527711,learnblock1,513.8000000119209,img/planet11_right.png,11,Community 1,NA,TRUE,j,j,NA,NA,NA,4,6,"2,13,14,7,11,5,3,15,8,10,6,9,1,12,4"
14828,commdev-image-keyboard-response,271,528964,learnblock1,715.5999999940395,img/planet13_right.png,13,Community 1,NA,TRUE,j,j,NA,NA,NA,4,6,"2,13,14,7,11,5,3,15,8,10,6,9,1,12,4"
14828,commdev-image-keyboard-response,272,530216,learnblock1,536.9000000059605,img/planet2_left.png,2,Community 1,NA,TRUE,f,f,NA,NA,NA,4,6,"2,13,14,7,11,5,3,15,8,10,6,9,1,12,4"
14828,commdev-image-keyboard-response,273,531469,learnblock1,459.10000002384186,img/planet14_right.png,14,Community 1,NA,TRUE,j,j,NA,NA,NA,4,6,"2,13,14,7,11,5,3,15,8,10,6,9,1,12,4"
14828,commdev-image-keyboard-response,274,532722,learnblock1,715.7000000178814,img/planet2_right.png,2,Community 1,NA,TRUE,j,j,NA,NA,NA,4,6,"2,13,14,7,11,5,3,15,8,10,6,9,1,12,4"
14828,commdev-image-keyboard-response,275,533975,learnblock1,710.5,img/planet7_right.png,7,Community 1,NA,FALSE,f,j,NA,NA,NA,4,6,"2,13,14,7,11,5,3,15,8,10,6,9,1,12,4"
14828,commdev-image-keyboard-response,276,535227,learnblock1,602.3999999761581,img/planet5_right.png,5,Community 2,NA,TRUE,j,j,NA,NA,NA,4,6,"2,13,14,7,11,5,3,15,8,10,6,9,1,12,4"
14828,commdev-image-keyboard-response,277,536480,learnblock1,555.6999999880791,img/planet7_right.png,7,Community 1,NA,TRUE,j,j,NA,NA,NA,4,6,"2,13,14,7,11,5,3,15,8,10,6,9,1,12,4"
14828,commdev-image-keyboard-response,278,537732,learnblock1,659.4000000059605,img/planet13_left.png,13,Community 1,NA,TRUE,f,f,NA,NA,NA,4,6,"2,13,14,7,11,5,3,15,8,10,6,9,1,12,4"
14828,commdev-image-keyboard-response,279,538983,learnblock1,531.4000000059605,img/planet11_right.png,11,Community 1,NA,TRUE,j,j,NA,NA,NA,4,6,"2,13,14,7,11,5,3,15,8,10,6,9,1,12,4"
14828,commdev-image-keyboard-response,280,540234,learnblock1,708.5999999940395,img/planet2_right.png,2,Community 1,NA,TRUE,j,j,NA,NA,NA,4,6,"2,13,14,7,11,5,3,15,8,10,6,9,1,12,4"
14828,commdev-image-keyboard-response,281,541486,learnblock1,744.5999999940395,img/planet7_right.png,7,Community 1,NA,TRUE,j,j,NA,NA,NA,4,6,"2,13,14,7,11,5,3,15,8,10,6,9,1,12,4"
14828,commdev-image-keyboard-response,282,542739,learnblock1,674.5999999940395,img/planet14_left.png,14,Community 1,NA,TRUE,f,f,NA,NA,NA,4,6,"2,13,14,7,11,5,3,15,8,10,6,9,1,12,4"
14828,commdev-image-keyboard-response,283,543990,learnblock1,491.59999999403954,img/planet11_right.png,11,Community 1,NA,TRUE,j,j,NA,NA,NA,4,6,"2,13,14,7,11,5,3,15,8,10,6,9,1,12,4"
14828,commdev-image-keyboard-response,284,545242,learnblock1,514.2999999821186,img/planet14_right.png,14,Community 1,NA,TRUE,j,j,NA,NA,NA,4,6,"2,13,14,7,11,5,3,15,8,10,6,9,1,12,4"
14828,commdev-image-keyboard-response,285,546493,learnblock1,473.5,img/planet11_left.png,11,Community 1,NA,TRUE,f,f,NA,NA,NA,4,6,"2,13,14,7,11,5,3,15,8,10,6,9,1,12,4"
14828,commdev-image-keyboard-response,286,547745,learnblock1,591.6999999880791,img/planet6_right.png,6,Community 3,NA,TRUE,j,j,NA,NA,NA,4,6,"2,13,14,7,11,5,3,15,8,10,6,9,1,12,4"
14828,commdev-image-keyboard-response,287,548998,learnblock1,577.0999999940395,img/planet12_left.png,12,Community 3,NA,TRUE,f,f,NA,NA,NA,4,6,"2,13,14,7,11,5,3,15,8,10,6,9,1,12,4"
14828,commdev-image-keyboard-response,288,550249,learnblock1,506,img/planet4_right.png,4,Community 3,NA,TRUE,j,j,NA,NA,NA,4,6,"2,13,14,7,11,5,3,15,8,10,6,9,1,12,4"
14828,commdev-image-keyboard-response,289,551501,learnblock1,682.4000000059605,img/planet1_left.png,1,Community 3,NA,TRUE,f,f,NA,NA,NA,4,6,"2,13,14,7,11,5,3,15,8,10,6,9,1,12,4"
14828,commdev-image-keyboard-response,290,552753,learnblock1,568.9000000059605,img/planet4_left.png,4,Community 3,NA,TRUE,f,f,NA,NA,NA,4,6,"2,13,14,7,11,5,3,15,8,10,6,9,1,12,4"
14828,commdev-image-keyboard-response,291,554005,learnblock1,546.3999999761581,img/planet12_left.png,12,Community 3,NA,TRUE,f,f,NA,NA,NA,4,6,"2,13,14,7,11,5,3,15,8,10,6,9,1,12,4"
14828,commdev-image-keyboard-response,292,555257,learnblock1,606.9000000059605,img/planet1_left.png,1,Community 3,NA,TRUE,f,f,NA,NA,NA,4,6,"2,13,14,7,11,5,3,15,8,10,6,9,1,12,4"
14828,commdev-image-keyboard-response,293,556509,learnblock1,453.2000000178814,img/planet12_right.png,12,Community 3,NA,TRUE,j,j,NA,NA,NA,4,6,"2,13,14,7,11,5,3,15,8,10,6,9,1,12,4"
14828,commdev-image-keyboard-response,294,557762,learnblock1,580.5,img/planet4_left.png,4,Community 3,NA,FALSE,j,f,NA,NA,NA,4,6,"2,13,14,7,11,5,3,15,8,10,6,9,1,12,4"
14828,commdev-image-keyboard-response,295,559014,learnblock1,719.5999999940395,img/planet9_left.png,9,Community 3,NA,TRUE,f,f,NA,NA,NA,4,6,"2,13,14,7,11,5,3,15,8,10,6,9,1,12,4"
14828,commdev-image-keyboard-response,296,560267,learnblock1,576.3000000119209,img/planet12_left.png,12,Community 3,NA,TRUE,f,f,NA,NA,NA,4,6,"2,13,14,7,11,5,3,15,8,10,6,9,1,12,4"
14828,commdev-image-keyboard-response,297,561519,learnblock1,586.3999999761581,img/planet1_left.png,1,Community 3,NA,TRUE,f,f,NA,NA,NA,4,6,"2,13,14,7,11,5,3,15,8,10,6,9,1,12,4"
14828,commdev-image-keyboard-response,298,562771,learnblock1,557.4000000059605,img/planet6_left.png,6,Community 3,NA,TRUE,f,f,NA,NA,NA,4,6,"2,13,14,7,11,5,3,15,8,10,6,9,1,12,4"
14828,commdev-image-keyboard-response,299,564022,learnblock1,803.5999999940395,img/planet4_left.png,4,Community 3,NA,TRUE,f,f,NA,NA,NA,4,6,"2,13,14,7,11,5,3,15,8,10,6,9,1,12,4"
14828,commdev-image-keyboard-response,300,565274,learnblock1,638.2999999821186,img/planet1_right.png,1,Community 3,NA,TRUE,j,j,NA,NA,NA,4,6,"2,13,14,7,11,5,3,15,8,10,6,9,1,12,4"
14828,commdev-image-keyboard-response,301,566526,learnblock1,465,img/planet4_right.png,4,Community 3,NA,TRUE,j,j,NA,NA,NA,4,6,"2,13,14,7,11,5,3,15,8,10,6,9,1,12,4"
14828,commdev-image-keyboard-response,302,567779,learnblock1,538.1000000238419,img/planet1_right.png,1,Community 3,NA,TRUE,j,j,NA,NA,NA,4,6,"2,13,14,7,11,5,3,15,8,10,6,9,1,12,4"
14828,commdev-image-keyboard-response,303,569031,learnblock1,595.2000000178814,img/planet6_left.png,6,Community 3,NA,TRUE,f,f,NA,NA,NA,4,6,"2,13,14,7,11,5,3,15,8,10,6,9,1,12,4"
14828,commdev-image-keyboard-response,304,570284,learnblock1,645.3999999761581,img/planet4_left.png,4,Community 3,NA,TRUE,f,f,NA,NA,NA,4,6,"2,13,14,7,11,5,3,15,8,10,6,9,1,12,4"
14828,commdev-image-keyboard-response,305,571535,learnblock1,616.6999999880791,img/planet6_left.png,6,Community 3,NA,TRUE,f,f,NA,NA,NA,4,6,"2,13,14,7,11,5,3,15,8,10,6,9,1,12,4"
14828,commdev-image-keyboard-response,306,572787,learnblock1,521.9000000059605,img/planet12_right.png,12,Community 3,NA,TRUE,j,j,NA,NA,NA,4,6,"2,13,14,7,11,5,3,15,8,10,6,9,1,12,4"
14828,commdev-image-keyboard-response,307,574039,learnblock1,488,img/planet4_right.png,4,Community 3,NA,TRUE,j,j,NA,NA,NA,4,6,"2,13,14,7,11,5,3,15,8,10,6,9,1,12,4"
14828,commdev-image-keyboard-response,308,575291,learnblock1,550.0999999940395,img/planet9_left.png,9,Community 3,NA,TRUE,f,f,NA,NA,NA,4,6,"2,13,14,7,11,5,3,15,8,10,6,9,1,12,4"
14828,commdev-image-keyboard-response,309,576543,learnblock1,506.39999997615814,img/planet12_right.png,12,Community 3,NA,TRUE,j,j,NA,NA,NA,4,6,"2,13,14,7,11,5,3,15,8,10,6,9,1,12,4"
14828,commdev-image-keyboard-response,310,577796,learnblock1,638.2999999821186,img/planet4_left.png,4,Community 3,NA,TRUE,f,f,NA,NA,NA,4,6,"2,13,14,7,11,5,3,15,8,10,6,9,1,12,4"
14828,commdev-image-keyboard-response,311,579048,learnblock1,621.4000000059605,img/planet12_left.png,12,Community 3,NA,TRUE,f,f,NA,NA,NA,4,6,"2,13,14,7,11,5,3,15,8,10,6,9,1,12,4"
14828,commdev-image-keyboard-response,312,580300,learnblock1,629.2999999821186,img/planet1_left.png,1,Community 3,NA,TRUE,f,f,NA,NA,NA,4,6,"2,13,14,7,11,5,3,15,8,10,6,9,1,12,4"
14828,commdev-image-keyboard-response,313,581551,learnblock1,620.1000000238419,img/planet6_left.png,6,Community 3,NA,TRUE,f,f,NA,NA,NA,4,6,"2,13,14,7,11,5,3,15,8,10,6,9,1,12,4"
14828,commdev-image-keyboard-response,314,582804,learnblock1,547.8000000119209,img/planet11_right.png,11,Community 1,NA,TRUE,j,j,NA,NA,NA,4,6,"2,13,14,7,11,5,3,15,8,10,6,9,1,12,4"
14828,commdev-image-keyboard-response,315,584057,learnblock1,537.9000000059605,img/planet2_left.png,2,Community 1,NA,TRUE,f,f,NA,NA,NA,4,6,"2,13,14,7,11,5,3,15,8,10,6,9,1,12,4"
14828,commdev-image-keyboard-response,316,585309,learnblock1,844,img/planet14_left.png,14,Community 1,NA,TRUE,f,f,NA,NA,NA,4,6,"2,13,14,7,11,5,3,15,8,10,6,9,1,12,4"
14828,commdev-image-keyboard-response,317,586562,learnblock1,621.3000000119209,img/planet13_right.png,13,Community 1,NA,TRUE,j,j,NA,NA,NA,4,6,"2,13,14,7,11,5,3,15,8,10,6,9,1,12,4"
14828,commdev-image-keyboard-response,318,587814,learnblock1,586.5999999940395,img/planet2_right.png,2,Community 1,NA,TRUE,j,j,NA,NA,NA,4,6,"2,13,14,7,11,5,3,15,8,10,6,9,1,12,4"
14828,commdev-image-keyboard-response,319,589066,learnblock1,632.7000000178814,img/planet11_right.png,11,Community 1,NA,TRUE,j,j,NA,NA,NA,4,6,"2,13,14,7,11,5,3,15,8,10,6,9,1,12,4"
14828,commdev-image-keyboard-response,320,590319,learnblock1,602.5999999940395,img/planet14_left.png,14,Community 1,NA,TRUE,f,f,NA,NA,NA,4,6,"2,13,14,7,11,5,3,15,8,10,6,9,1,12,4"
14828,commdev-image-keyboard-response,321,591570,learnblock1,504.69999998807907,img/planet13_right.png,13,Community 1,NA,TRUE,j,j,NA,NA,NA,4,6,"2,13,14,7,11,5,3,15,8,10,6,9,1,12,4"
14828,commdev-image-keyboard-response,322,592823,learnblock1,620.7999999821186,img/planet11_left.png,11,Community 1,NA,TRUE,f,f,NA,NA,NA,4,6,"2,13,14,7,11,5,3,15,8,10,6,9,1,12,4"
14828,commdev-image-keyboard-response,323,594075,learnblock1,717.0999999940395,img/planet14_left.png,14,Community 1,NA,TRUE,f,f,NA,NA,NA,4,6,"2,13,14,7,11,5,3,15,8,10,6,9,1,12,4"
14828,commdev-image-keyboard-response,324,595328,learnblock1,553.0999999940395,img/planet2_left.png,2,Community 1,NA,TRUE,f,f,NA,NA,NA,4,6,"2,13,14,7,11,5,3,15,8,10,6,9,1,12,4"
14828,commdev-image-keyboard-response,325,596580,learnblock1,580.9000000059605,img/planet14_left.png,14,Community 1,NA,TRUE,f,f,NA,NA,NA,4,6,"2,13,14,7,11,5,3,15,8,10,6,9,1,12,4"
14828,commdev-image-keyboard-response,326,597831,learnblock1,750.7999999821186,img/planet2_left.png,2,Community 1,NA,TRUE,f,f,NA,NA,NA,4,6,"2,13,14,7,11,5,3,15,8,10,6,9,1,12,4"
14828,commdev-image-keyboard-response,327,599083,learnblock1,644.6999999880791,img/planet11_left.png,11,Community 1,NA,TRUE,f,f,NA,NA,NA,4,6,"2,13,14,7,11,5,3,15,8,10,6,9,1,12,4"
14828,commdev-image-keyboard-response,328,600334,learnblock1,664.8999999761581,img/planet13_right.png,13,Community 1,NA,TRUE,j,j,NA,NA,NA,4,6,"2,13,14,7,11,5,3,15,8,10,6,9,1,12,4"
14828,commdev-image-keyboard-response,329,601586,learnblock1,791,img/planet14_right.png,14,Community 1,NA,TRUE,j,j,NA,NA,NA,4,6,"2,13,14,7,11,5,3,15,8,10,6,9,1,12,4"
14828,commdev-image-keyboard-response,330,602837,learnblock1,689.1999999880791,img/planet2_right.png,2,Community 1,NA,TRUE,j,j,NA,NA,NA,4,6,"2,13,14,7,11,5,3,15,8,10,6,9,1,12,4"
14828,commdev-image-keyboard-response,331,604088,learnblock1,651.0999999940395,img/planet13_left.png,13,Community 1,NA,TRUE,f,f,NA,NA,NA,4,6,"2,13,14,7,11,5,3,15,8,10,6,9,1,12,4"
14828,commdev-image-keyboard-response,332,605340,learnblock1,556.5999999940395,img/planet11_right.png,11,Community 1,NA,TRUE,j,j,NA,NA,NA,4,6,"2,13,14,7,11,5,3,15,8,10,6,9,1,12,4"
14828,commdev-image-keyboard-response,333,606591,learnblock1,586.7999999821186,img/planet13_left.png,13,Community 1,NA,TRUE,f,f,NA,NA,NA,4,6,"2,13,14,7,11,5,3,15,8,10,6,9,1,12,4"
14828,commdev-image-keyboard-response,334,607843,learnblock1,560.5,img/planet11_left.png,11,Community 1,NA,TRUE,f,f,NA,NA,NA,4,6,"2,13,14,7,11,5,3,15,8,10,6,9,1,12,4"
14828,commdev-image-keyboard-response,335,609094,learnblock1,550.7999999821186,img/planet6_right.png,6,Community 3,NA,TRUE,j,j,NA,NA,NA,4,6,"2,13,14,7,11,5,3,15,8,10,6,9,1,12,4"
14828,commdev-image-keyboard-response,336,610348,learnblock1,595.8999999761581,img/planet4_left.png,4,Community 3,NA,TRUE,f,f,NA,NA,NA,4,6,"2,13,14,7,11,5,3,15,8,10,6,9,1,12,4"
14828,commdev-image-keyboard-response,337,611600,learnblock1,576.5999999940395,img/planet6_right.png,6,Community 3,NA,TRUE,j,j,NA,NA,NA,4,6,"2,13,14,7,11,5,3,15,8,10,6,9,1,12,4"
14828,commdev-image-keyboard-response,338,612852,learnblock1,688.5,img/planet1_left.png,1,Community 3,NA,TRUE,f,f,NA,NA,NA,4,6,"2,13,14,7,11,5,3,15,8,10,6,9,1,12,4"
14828,commdev-image-keyboard-response,339,614104,learnblock1,597.8999999761581,img/planet6_left.png,6,Community 3,NA,TRUE,f,f,NA,NA,NA,4,6,"2,13,14,7,11,5,3,15,8,10,6,9,1,12,4"
14828,commdev-image-keyboard-response,340,615357,learnblock1,502.40000000596046,img/planet1_right.png,1,Community 3,NA,TRUE,j,j,NA,NA,NA,4,6,"2,13,14,7,11,5,3,15,8,10,6,9,1,12,4"
14828,commdev-image-keyboard-response,341,616609,learnblock1,521.5999999940395,img/planet9_right.png,9,Community 3,NA,TRUE,j,j,NA,NA,NA,4,6,"2,13,14,7,11,5,3,15,8,10,6,9,1,12,4"
14828,commdev-image-keyboard-response,342,617861,learnblock1,677,img/planet4_right.png,4,Community 3,NA,TRUE,j,j,NA,NA,NA,4,6,"2,13,14,7,11,5,3,15,8,10,6,9,1,12,4"
14828,commdev-image-keyboard-response,343,619113,learnblock1,557,img/planet1_right.png,1,Community 3,NA,TRUE,j,j,NA,NA,NA,4,6,"2,13,14,7,11,5,3,15,8,10,6,9,1,12,4"
14828,commdev-image-keyboard-response,344,620365,learnblock1,558.5,img/planet4_left.png,4,Community 3,NA,TRUE,f,f,NA,NA,NA,4,6,"2,13,14,7,11,5,3,15,8,10,6,9,1,12,4"
14828,commdev-image-keyboard-response,345,621617,learnblock1,448.7000000178814,img/planet9_right.png,9,Community 3,NA,TRUE,j,j,NA,NA,NA,4,6,"2,13,14,7,11,5,3,15,8,10,6,9,1,12,4"
14828,commdev-image-keyboard-response,346,622869,learnblock1,830.1000000238419,img/planet15_right.png,15,Community 2,NA,TRUE,j,j,NA,NA,NA,4,6,"2,13,14,7,11,5,3,15,8,10,6,9,1,12,4"
14828,commdev-image-keyboard-response,347,624121,learnblock1,659.7999999821186,img/planet10_right.png,10,Community 2,NA,TRUE,j,j,NA,NA,NA,4,6,"2,13,14,7,11,5,3,15,8,10,6,9,1,12,4"
14828,commdev-image-keyboard-response,351,1047433,learnblock2,706,img/planet11_right.png,11,Community 1,NA,TRUE,j,j,NA,NA,NA,4,6,"2,13,14,7,11,5,3,15,8,10,6,9,1,12,4"
14828,commdev-image-keyboard-response,352,1048685,learnblock2,659,img/planet14_right.png,14,Community 1,NA,TRUE,j,j,NA,NA,NA,4,6,"2,13,14,7,11,5,3,15,8,10,6,9,1,12,4"
14828,commdev-image-keyboard-response,353,1049938,learnblock2,836.3000000119209,img/planet11_right.png,11,Community 1,NA,TRUE,j,j,NA,NA,NA,4,6,"2,13,14,7,11,5,3,15,8,10,6,9,1,12,4"
14828,commdev-image-keyboard-response,354,1051191,learnblock2,550.4000000059605,img/planet13_right.png,13,Community 1,NA,TRUE,j,j,NA,NA,NA,4,6,"2,13,14,7,11,5,3,15,8,10,6,9,1,12,4"
14828,commdev-image-keyboard-response,355,1052445,learnblock2,566.5,img/planet7_right.png,7,Community 1,NA,TRUE,j,j,NA,NA,NA,4,6,"2,13,14,7,11,5,3,15,8,10,6,9,1,12,4"
14828,commdev-image-keyboard-response,356,1053698,learnblock2,539.5999999940395,img/planet13_left.png,13,Community 1,NA,TRUE,f,f,NA,NA,NA,4,6,"2,13,14,7,11,5,3,15,8,10,6,9,1,12,4"
14828,commdev-image-keyboard-response,357,1054950,learnblock2,632,img/planet7_right.png,7,Community 1,NA,TRUE,j,j,NA,NA,NA,4,6,"2,13,14,7,11,5,3,15,8,10,6,9,1,12,4"
14828,commdev-image-keyboard-response,358,1056203,learnblock2,586.3000000119209,img/planet13_right.png,13,Community 1,NA,TRUE,j,j,NA,NA,NA,4,6,"2,13,14,7,11,5,3,15,8,10,6,9,1,12,4"
14828,commdev-image-keyboard-response,359,1057455,learnblock2,576.1000000238419,img/planet7_left.png,7,Community 1,NA,TRUE,f,f,NA,NA,NA,4,6,"2,13,14,7,11,5,3,15,8,10,6,9,1,12,4"
14828,commdev-image-keyboard-response,360,1058708,learnblock2,529.6999999880791,img/planet14_right.png,14,Community 1,NA,TRUE,j,j,NA,NA,NA,4,6,"2,13,14,7,11,5,3,15,8,10,6,9,1,12,4"
14828,commdev-image-keyboard-response,361,1059960,learnblock2,460.40000000596046,img/planet2_right.png,2,Community 1,NA,TRUE,j,j,NA,NA,NA,4,6,"2,13,14,7,11,5,3,15,8,10,6,9,1,12,4"
14828,commdev-image-keyboard-response,362,1061214,learnblock2,527,img/planet11_left.png,11,Community 1,NA,TRUE,f,f,NA,NA,NA,4,6,"2,13,14,7,11,5,3,15,8,10,6,9,1,12,4"
14828,commdev-image-keyboard-response,363,1062467,learnblock2,521.2000000178814,img/planet13_right.png,13,Community 1,NA,TRUE,j,j,NA,NA,NA,4,6,"2,13,14,7,11,5,3,15,8,10,6,9,1,12,4"
14828,commdev-image-keyboard-response,364,1063720,learnblock2,531.1999999880791,img/planet7_left.png,7,Community 1,NA,TRUE,f,f,NA,NA,NA,4,6,"2,13,14,7,11,5,3,15,8,10,6,9,1,12,4"
14828,commdev-image-keyboard-response,365,1064972,learnblock2,691.3000000119209,img/planet13_left.png,13,Community 1,NA,TRUE,f,f,NA,NA,NA,4,6,"2,13,14,7,11,5,3,15,8,10,6,9,1,12,4"
14828,commdev-image-keyboard-response,366,1066224,learnblock2,492.09999999403954,img/planet7_left.png,7,Community 1,NA,TRUE,f,f,NA,NA,NA,4,6,"2,13,14,7,11,5,3,15,8,10,6,9,1,12,4"
14828,commdev-image-keyboard-response,367,1067477,learnblock2,592,img/planet13_left.png,13,Community 1,NA,TRUE,f,f,NA,NA,NA,4,6,"2,13,14,7,11,5,3,15,8,10,6,9,1,12,4"
14828,commdev-image-keyboard-response,368,1068729,learnblock2,460.59999999403954,img/planet11_right.png,11,Community 1,NA,TRUE,j,j,NA,NA,NA,4,6,"2,13,14,7,11,5,3,15,8,10,6,9,1,12,4"
14828,commdev-image-keyboard-response,369,1069982,learnblock2,508.2000000178814,img/planet2_left.png,2,Community 1,NA,FALSE,j,f,NA,NA,NA,4,6,"2,13,14,7,11,5,3,15,8,10,6,9,1,12,4"
14828,commdev-image-keyboard-response,370,1071235,learnblock2,568.9000000059605,img/planet7_right.png,7,Community 1,NA,TRUE,j,j,NA,NA,NA,4,6,"2,13,14,7,11,5,3,15,8,10,6,9,1,12,4"
14828,commdev-image-keyboard-response,371,1072487,learnblock2,507.90000000596046,img/planet13_left.png,13,Community 1,NA,TRUE,f,f,NA,NA,NA,4,6,"2,13,14,7,11,5,3,15,8,10,6,9,1,12,4"
14828,commdev-image-keyboard-response,372,1073740,learnblock2,525.7999999821186,img/planet14_right.png,14,Community 1,NA,TRUE,j,j,NA,NA,NA,4,6,"2,13,14,7,11,5,3,15,8,10,6,9,1,12,4"
14828,commdev-image-keyboard-response,373,1074993,learnblock2,528.7999999821186,img/planet2_left.png,2,Community 1,NA,TRUE,f,f,NA,NA,NA,4,6,"2,13,14,7,11,5,3,15,8,10,6,9,1,12,4"
14828,commdev-image-keyboard-response,374,1076244,learnblock2,592.0999999940395,img/planet7_left.png,7,Community 1,NA,TRUE,f,f,NA,NA,NA,4,6,"2,13,14,7,11,5,3,15,8,10,6,9,1,12,4"
14828,commdev-image-keyboard-response,375,1077496,learnblock2,488.59999999403954,img/planet5_right.png,5,Community 2,NA,TRUE,j,j,NA,NA,NA,4,6,"2,13,14,7,11,5,3,15,8,10,6,9,1,12,4"
14828,commdev-image-keyboard-response,376,1078747,learnblock2,652.9000000059605,img/planet3_right.png,3,Community 2,NA,TRUE,j,j,NA,NA,NA,4,6,"2,13,14,7,11,5,3,15,8,10,6,9,1,12,4"
14828,commdev-image-keyboard-response,377,1079999,learnblock2,609.6999999880791,img/planet10_left.png,10,Community 2,NA,TRUE,f,f,NA,NA,NA,4,6,"2,13,14,7,11,5,3,15,8,10,6,9,1,12,4"
14828,commdev-image-keyboard-response,378,1081252,learnblock2,480.09999999403954,img/planet5_right.png,5,Community 2,NA,TRUE,j,j,NA,NA,NA,4,6,"2,13,14,7,11,5,3,15,8,10,6,9,1,12,4"
14828,commdev-image-keyboard-response,379,1082504,learnblock2,661.9000000059605,img/planet7_right.png,7,Community 1,NA,TRUE,j,j,NA,NA,NA,4,6,"2,13,14,7,11,5,3,15,8,10,6,9,1,12,4"
14828,commdev-image-keyboard-response,380,1083755,learnblock2,556.5,img/planet5_left.png,5,Community 2,NA,TRUE,f,f,NA,NA,NA,4,6,"2,13,14,7,11,5,3,15,8,10,6,9,1,12,4"
14828,commdev-image-keyboard-response,381,1085008,learnblock2,692.4000000059605,img/planet3_left.png,3,Community 2,NA,TRUE,f,f,NA,NA,NA,4,6,"2,13,14,7,11,5,3,15,8,10,6,9,1,12,4"
14828,commdev-image-keyboard-response,382,1086260,learnblock2,592.3000000119209,img/planet8_left.png,8,Community 2,NA,FALSE,j,f,NA,NA,NA,4,6,"2,13,14,7,11,5,3,15,8,10,6,9,1,12,4"
14828,commdev-image-keyboard-response,383,1087512,learnblock2,592.2000000178814,img/planet5_left.png,5,Community 2,NA,TRUE,f,f,NA,NA,NA,4,6,"2,13,14,7,11,5,3,15,8,10,6,9,1,12,4"
14828,commdev-image-keyboard-response,384,1088764,learnblock2,541.4000000059605,img/planet3_right.png,3,Community 2,NA,TRUE,j,j,NA,NA,NA,4,6,"2,13,14,7,11,5,3,15,8,10,6,9,1,12,4"
14828,commdev-image-keyboard-response,385,1090015,learnblock2,589.4000000059605,img/planet15_right.png,15,Community 2,NA,TRUE,j,j,NA,NA,NA,4,6,"2,13,14,7,11,5,3,15,8,10,6,9,1,12,4"
14828,commdev-image-keyboard-response,386,1091268,learnblock2,552,img/planet3_left.png,3,Community 2,NA,TRUE,f,f,NA,NA,NA,4,6,"2,13,14,7,11,5,3,15,8,10,6,9,1,12,4"
14828,commdev-image-keyboard-response,387,1092521,learnblock2,501.59999999403954,img/planet5_right.png,5,Community 2,NA,TRUE,j,j,NA,NA,NA,4,6,"2,13,14,7,11,5,3,15,8,10,6,9,1,12,4"
14828,commdev-image-keyboard-response,388,1093773,learnblock2,652.3000000119209,img/planet7_right.png,7,Community 1,NA,TRUE,j,j,NA,NA,NA,4,6,"2,13,14,7,11,5,3,15,8,10,6,9,1,12,4"
14828,commdev-image-keyboard-response,389,1095025,learnblock2,462.09999999403954,img/planet5_right.png,5,Community 2,NA,TRUE,j,j,NA,NA,NA,4,6,"2,13,14,7,11,5,3,15,8,10,6,9,1,12,4"
14828,commdev-image-keyboard-response,390,1096278,learnblock2,512.2999999821186,img/planet7_left.png,7,Community 1,NA,TRUE,f,f,NA,NA,NA,4,6,"2,13,14,7,11,5,3,15,8,10,6,9,1,12,4"
14828,commdev-image-keyboard-response,391,1097531,learnblock2,667.1999999880791,img/planet2_left.png,2,Community 1,NA,TRUE,f,f,NA,NA,NA,4,6,"2,13,14,7,11,5,3,15,8,10,6,9,1,12,4"
14828,commdev-image-keyboard-response,392,1098783,learnblock2,636.5999999940395,img/planet7_left.png,7,Community 1,NA,TRUE,f,f,NA,NA,NA,4,6,"2,13,14,7,11,5,3,15,8,10,6,9,1,12,4"
14828,commdev-image-keyboard-response,393,1100035,learnblock2,678.9000000059605,img/planet13_left.png,13,Community 1,NA,TRUE,f,f,NA,NA,NA,4,6,"2,13,14,7,11,5,3,15,8,10,6,9,1,12,4"
14828,commdev-image-keyboard-response,394,1101288,learnblock2,693.9000000059605,img/planet2_left.png,2,Community 1,NA,TRUE,f,f,NA,NA,NA,4,6,"2,13,14,7,11,5,3,15,8,10,6,9,1,12,4"
14828,commdev-image-keyboard-response,395,1102540,learnblock2,547.7999999821186,img/planet11_right.png,11,Community 1,NA,TRUE,j,j,NA,NA,NA,4,6,"2,13,14,7,11,5,3,15,8,10,6,9,1,12,4"
14828,commdev-image-keyboard-response,396,1103791,learnblock2,469.69999998807907,img/planet2_right.png,2,Community 1,NA,TRUE,j,j,NA,NA,NA,4,6,"2,13,14,7,11,5,3,15,8,10,6,9,1,12,4"
14828,commdev-image-keyboard-response,397,1105043,learnblock2,509.19999998807907,img/planet11_left.png,11,Community 1,NA,TRUE,f,f,NA,NA,NA,4,6,"2,13,14,7,11,5,3,15,8,10,6,9,1,12,4"
14828,commdev-image-keyboard-response,398,1106296,learnblock2,538.5,img/planet14_right.png,14,Community 1,NA,TRUE,j,j,NA,NA,NA,4,6,"2,13,14,7,11,5,3,15,8,10,6,9,1,12,4"
14828,commdev-image-keyboard-response,399,1107547,learnblock2,567.5,img/planet2_left.png,2,Community 1,NA,TRUE,f,f,NA,NA,NA,4,6,"2,13,14,7,11,5,3,15,8,10,6,9,1,12,4"
14828,commdev-image-keyboard-response,400,1108800,learnblock2,555.9000000059605,img/planet7_left.png,7,Community 1,NA,TRUE,f,f,NA,NA,NA,4,6,"2,13,14,7,11,5,3,15,8,10,6,9,1,12,4"
14828,commdev-image-keyboard-response,401,1110053,learnblock2,571.1000000238419,img/planet5_left.png,5,Community 2,NA,TRUE,f,f,NA,NA,NA,4,6,"2,13,14,7,11,5,3,15,8,10,6,9,1,12,4"
14828,commdev-image-keyboard-response,402,1111305,learnblock2,565.4000000059605,img/planet10_right.png,10,Community 2,NA,TRUE,j,j,NA,NA,NA,4,6,"2,13,14,7,11,5,3,15,8,10,6,9,1,12,4"
14828,commdev-image-keyboard-response,403,1112558,learnblock2,524.3000000119209,img/planet3_right.png,3,Community 2,NA,TRUE,j,j,NA,NA,NA,4,6,"2,13,14,7,11,5,3,15,8,10,6,9,1,12,4"
14828,commdev-image-keyboard-response,404,1113809,learnblock2,522.5999999940395,img/planet8_left.png,8,Community 2,NA,TRUE,f,f,NA,NA,NA,4,6,"2,13,14,7,11,5,3,15,8,10,6,9,1,12,4"
14828,commdev-image-keyboard-response,405,1115061,learnblock2,498,img/planet5_left.png,5,Community 2,NA,TRUE,f,f,NA,NA,NA,4,6,"2,13,14,7,11,5,3,15,8,10,6,9,1,12,4"
14828,commdev-image-keyboard-response,406,1116313,learnblock2,559.4000000059605,img/planet7_left.png,7,Community 1,NA,TRUE,f,f,NA,NA,NA,4,6,"2,13,14,7,11,5,3,15,8,10,6,9,1,12,4"
14828,commdev-image-keyboard-response,407,1117565,learnblock2,587.5,img/planet2_right.png,2,Community 1,NA,TRUE,j,j,NA,NA,NA,4,6,"2,13,14,7,11,5,3,15,8,10,6,9,1,12,4"
14828,commdev-image-keyboard-response,408,1118817,learnblock2,667.0999999940395,img/planet13_right.png,13,Community 1,NA,TRUE,j,j,NA,NA,NA,4,6,"2,13,14,7,11,5,3,15,8,10,6,9,1,12,4"
14828,commdev-image-keyboard-response,409,1120069,learnblock2,657.1999999880791,img/planet14_left.png,14,Community 1,NA,TRUE,f,f,NA,NA,NA,4,6,"2,13,14,7,11,5,3,15,8,10,6,9,1,12,4"
14828,commdev-image-keyboard-response,410,1121322,learnblock2,584.9000000059605,img/planet11_right.png,11,Community 1,NA,TRUE,j,j,NA,NA,NA,4,6,"2,13,14,7,11,5,3,15,8,10,6,9,1,12,4"
14828,commdev-image-keyboard-response,411,1122574,learnblock2,578.5,img/planet14_left.png,14,Community 1,NA,TRUE,f,f,NA,NA,NA,4,6,"2,13,14,7,11,5,3,15,8,10,6,9,1,12,4"
14828,commdev-image-keyboard-response,412,1123826,learnblock2,633.4000000059605,img/planet7_right.png,7,Community 1,NA,TRUE,j,j,NA,NA,NA,4,6,"2,13,14,7,11,5,3,15,8,10,6,9,1,12,4"
14828,commdev-image-keyboard-response,413,1125079,learnblock2,554.2999999821186,img/planet5_left.png,5,Community 2,NA,TRUE,f,f,NA,NA,NA,4,6,"2,13,14,7,11,5,3,15,8,10,6,9,1,12,4"
14828,commdev-image-keyboard-response,414,1126332,learnblock2,566.5,img/planet3_right.png,3,Community 2,NA,TRUE,j,j,NA,NA,NA,4,6,"2,13,14,7,11,5,3,15,8,10,6,9,1,12,4"
14828,commdev-image-keyboard-response,415,1127584,learnblock2,558.0999999940395,img/planet8_left.png,8,Community 2,NA,TRUE,f,f,NA,NA,NA,4,6,"2,13,14,7,11,5,3,15,8,10,6,9,1,12,4"
14828,commdev-image-keyboard-response,416,1128836,learnblock2,823.4000000059605,img/planet15_left.png,15,Community 2,NA,TRUE,f,f,NA,NA,NA,4,6,"2,13,14,7,11,5,3,15,8,10,6,9,1,12,4"
14828,commdev-image-keyboard-response,417,1130087,learnblock2,534.0999999940395,img/planet10_left.png,10,Community 2,NA,TRUE,f,f,NA,NA,NA,4,6,"2,13,14,7,11,5,3,15,8,10,6,9,1,12,4"
14828,commdev-image-keyboard-response,418,1131340,learnblock2,508.90000000596046,img/planet5_left.png,5,Community 2,NA,TRUE,f,f,NA,NA,NA,4,6,"2,13,14,7,11,5,3,15,8,10,6,9,1,12,4"
14828,commdev-image-keyboard-response,419,1132593,learnblock2,517.2999999821186,img/planet7_left.png,7,Community 1,NA,TRUE,f,f,NA,NA,NA,4,6,"2,13,14,7,11,5,3,15,8,10,6,9,1,12,4"
14828,commdev-image-keyboard-response,420,1133845,learnblock2,566.7000000178814,img/planet13_right.png,13,Community 1,NA,TRUE,j,j,NA,NA,NA,4,6,"2,13,14,7,11,5,3,15,8,10,6,9,1,12,4"
14828,commdev-image-keyboard-response,421,1135098,learnblock2,612.1999999880791,img/planet7_left.png,7,Community 1,NA,TRUE,f,f,NA,NA,NA,4,6,"2,13,14,7,11,5,3,15,8,10,6,9,1,12,4"
14828,commdev-image-keyboard-response,422,1136351,learnblock2,563.5,img/planet2_left.png,2,Community 1,NA,TRUE,f,f,NA,NA,NA,4,6,"2,13,14,7,11,5,3,15,8,10,6,9,1,12,4"
14828,commdev-image-keyboard-response,423,1137603,learnblock2,687.1999999880791,img/planet11_left.png,11,Community 1,NA,TRUE,f,f,NA,NA,NA,4,6,"2,13,14,7,11,5,3,15,8,10,6,9,1,12,4"
14828,commdev-image-keyboard-response,424,1138856,learnblock2,609.2999999821186,img/planet2_right.png,2,Community 1,NA,TRUE,j,j,NA,NA,NA,4,6,"2,13,14,7,11,5,3,15,8,10,6,9,1,12,4"
14828,commdev-image-keyboard-response,425,1140108,learnblock2,668,img/planet13_right.png,13,Community 1,NA,TRUE,j,j,NA,NA,NA,4,6,"2,13,14,7,11,5,3,15,8,10,6,9,1,12,4"
14828,commdev-image-keyboard-response,426,1141361,learnblock2,780.3999999761581,img/planet7_left.png,7,Community 1,NA,TRUE,f,f,NA,NA,NA,4,6,"2,13,14,7,11,5,3,15,8,10,6,9,1,12,4"
14828,commdev-image-keyboard-response,427,1142614,learnblock2,523.6000000238419,img/planet2_right.png,2,Community 1,NA,TRUE,j,j,NA,NA,NA,4,6,"2,13,14,7,11,5,3,15,8,10,6,9,1,12,4"
14828,commdev-image-keyboard-response,428,1143866,learnblock2,436,img/planet7_right.png,7,Community 1,NA,TRUE,j,j,NA,NA,NA,4,6,"2,13,14,7,11,5,3,15,8,10,6,9,1,12,4"
14828,commdev-image-keyboard-response,429,1145118,learnblock2,628.4000000059605,img/planet13_left.png,13,Community 1,NA,TRUE,f,f,NA,NA,NA,4,6,"2,13,14,7,11,5,3,15,8,10,6,9,1,12,4"
14828,commdev-image-keyboard-response,430,1146369,learnblock2,471.7000000178814,img/planet14_left.png,14,Community 1,NA,TRUE,f,f,NA,NA,NA,4,6,"2,13,14,7,11,5,3,15,8,10,6,9,1,12,4"
14828,commdev-image-keyboard-response,431,1147622,learnblock2,545.0999999940395,img/planet13_left.png,13,Community 1,NA,TRUE,f,f,NA,NA,NA,4,6,"2,13,14,7,11,5,3,15,8,10,6,9,1,12,4"
14828,commdev-image-keyboard-response,432,1148875,learnblock2,459.5,img/planet7_left.png,7,Community 1,NA,TRUE,f,f,NA,NA,NA,4,6,"2,13,14,7,11,5,3,15,8,10,6,9,1,12,4"
14828,commdev-image-keyboard-response,433,1150127,learnblock2,559.5999999940395,img/planet14_right.png,14,Community 1,NA,TRUE,j,j,NA,NA,NA,4,6,"2,13,14,7,11,5,3,15,8,10,6,9,1,12,4"
14828,commdev-image-keyboard-response,434,1151380,learnblock2,554.5,img/planet2_left.png,2,Community 1,NA,TRUE,f,f,NA,NA,NA,4,6,"2,13,14,7,11,5,3,15,8,10,6,9,1,12,4"
14828,commdev-image-keyboard-response,435,1152633,learnblock2,456.30000001192093,img/planet7_right.png,7,Community 1,NA,TRUE,j,j,NA,NA,NA,4,6,"2,13,14,7,11,5,3,15,8,10,6,9,1,12,4"
14828,commdev-image-keyboard-response,436,1153885,learnblock2,566.3000000119209,img/planet13_left.png,13,Community 1,NA,TRUE,f,f,NA,NA,NA,4,6,"2,13,14,7,11,5,3,15,8,10,6,9,1,12,4"
14828,commdev-image-keyboard-response,437,1155137,learnblock2,556.5999999940395,img/planet11_right.png,11,Community 1,NA,TRUE,j,j,NA,NA,NA,4,6,"2,13,14,7,11,5,3,15,8,10,6,9,1,12,4"
14828,commdev-image-keyboard-response,438,1156390,learnblock2,621.8000000119209,img/planet6_right.png,6,Community 3,NA,TRUE,j,j,NA,NA,NA,4,6,"2,13,14,7,11,5,3,15,8,10,6,9,1,12,4"
14828,commdev-image-keyboard-response,439,1157642,learnblock2,531.3000000119209,img/planet11_left.png,11,Community 1,NA,TRUE,f,f,NA,NA,NA,4,6,"2,13,14,7,11,5,3,15,8,10,6,9,1,12,4"
14828,commdev-image-keyboard-response,440,1158893,learnblock2,546.2000000178814,img/planet6_right.png,6,Community 3,NA,TRUE,j,j,NA,NA,NA,4,6,"2,13,14,7,11,5,3,15,8,10,6,9,1,12,4"
14828,commdev-image-keyboard-response,441,1160144,learnblock2,636.4000000059605,img/planet1_left.png,1,Community 3,NA,TRUE,f,f,NA,NA,NA,4,6,"2,13,14,7,11,5,3,15,8,10,6,9,1,12,4"
14828,commdev-image-keyboard-response,442,1161397,learnblock2,566.9000000059605,img/planet9_left.png,9,Community 3,NA,TRUE,f,f,NA,NA,NA,4,6,"2,13,14,7,11,5,3,15,8,10,6,9,1,12,4"
14828,commdev-image-keyboard-response,443,1162650,learnblock2,589.1000000238419,img/planet15_left.png,15,Community 2,NA,TRUE,f,f,NA,NA,NA,4,6,"2,13,14,7,11,5,3,15,8,10,6,9,1,12,4"
14828,commdev-image-keyboard-response,444,1163901,learnblock2,462.5,img/planet10_right.png,10,Community 2,NA,TRUE,j,j,NA,NA,NA,4,6,"2,13,14,7,11,5,3,15,8,10,6,9,1,12,4"
14828,commdev-image-keyboard-response,445,1165154,learnblock2,713.1999999880791,img/planet3_right.png,3,Community 2,NA,TRUE,j,j,NA,NA,NA,4,6,"2,13,14,7,11,5,3,15,8,10,6,9,1,12,4"
14828,commdev-image-keyboard-response,446,1166406,learnblock2,678.1000000238419,img/planet10_left.png,10,Community 2,NA,TRUE,f,f,NA,NA,NA,4,6,"2,13,14,7,11,5,3,15,8,10,6,9,1,12,4"
14828,commdev-image-keyboard-response,447,1167659,learnblock2,649.5,img/planet15_left.png,15,Community 2,NA,TRUE,f,f,NA,NA,NA,4,6,"2,13,14,7,11,5,3,15,8,10,6,9,1,12,4"
14828,commdev-image-keyboard-response,448,1168911,learnblock2,512.4000000059605,img/planet10_right.png,10,Community 2,NA,TRUE,j,j,NA,NA,NA,4,6,"2,13,14,7,11,5,3,15,8,10,6,9,1,12,4"
14828,commdev-image-keyboard-response,449,1170163,learnblock2,648.5999999940395,img/planet5_left.png,5,Community 2,NA,TRUE,f,f,NA,NA,NA,4,6,"2,13,14,7,11,5,3,15,8,10,6,9,1,12,4"
14828,commdev-image-keyboard-response,450,1171416,learnblock2,637.2000000178814,img/planet3_left.png,3,Community 2,NA,TRUE,f,f,NA,NA,NA,4,6,"2,13,14,7,11,5,3,15,8,10,6,9,1,12,4"
14828,commdev-image-keyboard-response,451,1172667,learnblock2,528.2000000178814,img/planet15_right.png,15,Community 2,NA,TRUE,j,j,NA,NA,NA,4,6,"2,13,14,7,11,5,3,15,8,10,6,9,1,12,4"
14828,commdev-image-keyboard-response,452,1173919,learnblock2,482,img/planet10_right.png,10,Community 2,NA,TRUE,j,j,NA,NA,NA,4,6,"2,13,14,7,11,5,3,15,8,10,6,9,1,12,4"
14828,commdev-image-keyboard-response,453,1175171,learnblock2,603,img/planet15_right.png,15,Community 2,NA,TRUE,j,j,NA,NA,NA,4,6,"2,13,14,7,11,5,3,15,8,10,6,9,1,12,4"
14828,commdev-image-keyboard-response,454,1176423,learnblock2,559.0999999940395,img/planet3_left.png,3,Community 2,NA,TRUE,f,f,NA,NA,NA,4,6,"2,13,14,7,11,5,3,15,8,10,6,9,1,12,4"
14828,commdev-image-keyboard-response,455,1177675,learnblock2,568.5999999940395,img/planet5_left.png,5,Community 2,NA,TRUE,f,f,NA,NA,NA,4,6,"2,13,14,7,11,5,3,15,8,10,6,9,1,12,4"
14828,commdev-image-keyboard-response,456,1178927,learnblock2,569.8999999761581,img/planet7_right.png,7,Community 1,NA,TRUE,j,j,NA,NA,NA,4,6,"2,13,14,7,11,5,3,15,8,10,6,9,1,12,4"
14828,commdev-image-keyboard-response,457,1180180,learnblock2,625.6999999880791,img/planet13_right.png,13,Community 1,NA,TRUE,j,j,NA,NA,NA,4,6,"2,13,14,7,11,5,3,15,8,10,6,9,1,12,4"
14828,commdev-image-keyboard-response,458,1181432,learnblock2,571,img/planet2_left.png,2,Community 1,NA,TRUE,f,f,NA,NA,NA,4,6,"2,13,14,7,11,5,3,15,8,10,6,9,1,12,4"
14828,commdev-image-keyboard-response,459,1182683,learnblock2,540.9000000059605,img/planet11_left.png,11,Community 1,NA,TRUE,f,f,NA,NA,NA,4,6,"2,13,14,7,11,5,3,15,8,10,6,9,1,12,4"
14828,commdev-image-keyboard-response,460,1183935,learnblock2,613.6999999880791,img/planet6_left.png,6,Community 3,NA,TRUE,f,f,NA,NA,NA,4,6,"2,13,14,7,11,5,3,15,8,10,6,9,1,12,4"
14828,commdev-image-keyboard-response,461,1185187,learnblock2,606.3000000119209,img/planet12_right.png,12,Community 3,NA,TRUE,j,j,NA,NA,NA,4,6,"2,13,14,7,11,5,3,15,8,10,6,9,1,12,4"
14828,commdev-image-keyboard-response,462,1186439,learnblock2,486.40000000596046,img/planet9_left.png,9,Community 3,NA,TRUE,f,f,NA,NA,NA,4,6,"2,13,14,7,11,5,3,15,8,10,6,9,1,12,4"
14828,commdev-image-keyboard-response,463,1187692,learnblock2,595,img/planet12_right.png,12,Community 3,NA,TRUE,j,j,NA,NA,NA,4,6,"2,13,14,7,11,5,3,15,8,10,6,9,1,12,4"
14828,commdev-image-keyboard-response,464,1188944,learnblock2,510.89999997615814,img/planet1_left.png,1,Community 3,NA,TRUE,f,f,NA,NA,NA,4,6,"2,13,14,7,11,5,3,15,8,10,6,9,1,12,4"
14828,commdev-image-keyboard-response,465,1190198,learnblock2,754.1999999880791,img/planet9_left.png,9,Community 3,NA,TRUE,f,f,NA,NA,NA,4,6,"2,13,14,7,11,5,3,15,8,10,6,9,1,12,4"
14828,commdev-image-keyboard-response,466,1191450,learnblock2,614.5,img/planet4_right.png,4,Community 3,NA,TRUE,j,j,NA,NA,NA,4,6,"2,13,14,7,11,5,3,15,8,10,6,9,1,12,4"
14828,commdev-image-keyboard-response,467,1192702,learnblock2,621.8000000119209,img/planet12_left.png,12,Community 3,NA,TRUE,f,f,NA,NA,NA,4,6,"2,13,14,7,11,5,3,15,8,10,6,9,1,12,4"
14828,commdev-image-keyboard-response,468,1193955,learnblock2,623.5,img/planet9_left.png,9,Community 3,NA,TRUE,f,f,NA,NA,NA,4,6,"2,13,14,7,11,5,3,15,8,10,6,9,1,12,4"
14828,commdev-image-keyboard-response,469,1195208,learnblock2,633.9000000059605,img/planet4_left.png,4,Community 3,NA,TRUE,f,f,NA,NA,NA,4,6,"2,13,14,7,11,5,3,15,8,10,6,9,1,12,4"
14828,commdev-image-keyboard-response,470,1196461,learnblock2,571.7999999821186,img/planet12_right.png,12,Community 3,NA,TRUE,j,j,NA,NA,NA,4,6,"2,13,14,7,11,5,3,15,8,10,6,9,1,12,4"
14828,commdev-image-keyboard-response,471,1197713,learnblock2,597.5999999940395,img/planet4_right.png,4,Community 3,NA,TRUE,j,j,NA,NA,NA,4,6,"2,13,14,7,11,5,3,15,8,10,6,9,1,12,4"
14828,commdev-image-keyboard-response,472,1198965,learnblock2,634.5,img/planet9_right.png,9,Community 3,NA,TRUE,j,j,NA,NA,NA,4,6,"2,13,14,7,11,5,3,15,8,10,6,9,1,12,4"
14828,commdev-image-keyboard-response,473,1200219,learnblock2,569.3000000119209,img/planet12_left.png,12,Community 3,NA,TRUE,f,f,NA,NA,NA,4,6,"2,13,14,7,11,5,3,15,8,10,6,9,1,12,4"
14828,commdev-image-keyboard-response,474,1201472,learnblock2,783.1999999880791,img/planet4_left.png,4,Community 3,NA,TRUE,f,f,NA,NA,NA,4,6,"2,13,14,7,11,5,3,15,8,10,6,9,1,12,4"
14828,commdev-image-keyboard-response,475,1202725,learnblock2,626.3000000119209,img/planet12_left.png,12,Community 3,NA,TRUE,f,f,NA,NA,NA,4,6,"2,13,14,7,11,5,3,15,8,10,6,9,1,12,4"
14828,commdev-image-keyboard-response,476,1203976,learnblock2,471.80000001192093,img/planet6_right.png,6,Community 3,NA,TRUE,j,j,NA,NA,NA,4,6,"2,13,14,7,11,5,3,15,8,10,6,9,1,12,4"
14828,commdev-image-keyboard-response,477,1205228,learnblock2,687.1999999880791,img/planet4_left.png,4,Community 3,NA,TRUE,f,f,NA,NA,NA,4,6,"2,13,14,7,11,5,3,15,8,10,6,9,1,12,4"
14828,commdev-image-keyboard-response,478,1206482,learnblock2,710.2000000178814,img/planet9_left.png,9,Community 3,NA,TRUE,f,f,NA,NA,NA,4,6,"2,13,14,7,11,5,3,15,8,10,6,9,1,12,4"
14828,commdev-image-keyboard-response,479,1207734,learnblock2,609.9000000059605,img/planet1_right.png,1,Community 3,NA,TRUE,j,j,NA,NA,NA,4,6,"2,13,14,7,11,5,3,15,8,10,6,9,1,12,4"
14828,commdev-image-keyboard-response,480,1208987,learnblock2,635.0999999940395,img/planet9_right.png,9,Community 3,NA,TRUE,j,j,NA,NA,NA,4,6,"2,13,14,7,11,5,3,15,8,10,6,9,1,12,4"
14828,commdev-image-keyboard-response,481,1210238,learnblock2,666,img/planet4_left.png,4,Community 3,NA,TRUE,f,f,NA,NA,NA,4,6,"2,13,14,7,11,5,3,15,8,10,6,9,1,12,4"
14828,commdev-image-keyboard-response,482,1211490,learnblock2,505.09999999403954,img/planet9_right.png,9,Community 3,NA,TRUE,j,j,NA,NA,NA,4,6,"2,13,14,7,11,5,3,15,8,10,6,9,1,12,4"
14828,commdev-image-keyboard-response,483,1212743,learnblock2,640.5,img/planet1_right.png,1,Community 3,NA,TRUE,j,j,NA,NA,NA,4,6,"2,13,14,7,11,5,3,15,8,10,6,9,1,12,4"
14828,commdev-image-keyboard-response,484,1213995,learnblock2,504.7000000178814,img/planet4_right.png,4,Community 3,NA,TRUE,j,j,NA,NA,NA,4,6,"2,13,14,7,11,5,3,15,8,10,6,9,1,12,4"
14828,commdev-image-keyboard-response,485,1215247,learnblock2,583.5,img/planet6_left.png,6,Community 3,NA,TRUE,f,f,NA,NA,NA,4,6,"2,13,14,7,11,5,3,15,8,10,6,9,1,12,4"
14828,commdev-image-keyboard-response,486,1216500,learnblock2,562.2000000178814,img/planet11_right.png,11,Community 1,NA,TRUE,j,j,NA,NA,NA,4,6,"2,13,14,7,11,5,3,15,8,10,6,9,1,12,4"
14828,commdev-image-keyboard-response,487,1217752,learnblock2,568.8000000119209,img/planet6_right.png,6,Community 3,NA,TRUE,j,j,NA,NA,NA,4,6,"2,13,14,7,11,5,3,15,8,10,6,9,1,12,4"
14828,commdev-image-keyboard-response,488,1219003,learnblock2,514.5999999940395,img/planet4_left.png,4,Community 3,NA,TRUE,f,f,NA,NA,NA,4,6,"2,13,14,7,11,5,3,15,8,10,6,9,1,12,4"
14828,commdev-image-keyboard-response,489,1220256,learnblock2,592.6999999880791,img/planet12_right.png,12,Community 3,NA,TRUE,j,j,NA,NA,NA,4,6,"2,13,14,7,11,5,3,15,8,10,6,9,1,12,4"
14828,commdev-image-keyboard-response,490,1221509,learnblock2,491,img/planet9_right.png,9,Community 3,NA,TRUE,j,j,NA,NA,NA,4,6,"2,13,14,7,11,5,3,15,8,10,6,9,1,12,4"
14828,commdev-image-keyboard-response,491,1222762,learnblock2,637.4000000059605,img/planet15_left.png,15,Community 2,NA,TRUE,f,f,NA,NA,NA,4,6,"2,13,14,7,11,5,3,15,8,10,6,9,1,12,4"
14828,commdev-image-keyboard-response,492,1224015,learnblock2,510,img/planet9_right.png,9,Community 3,NA,TRUE,j,j,NA,NA,NA,4,6,"2,13,14,7,11,5,3,15,8,10,6,9,1,12,4"
14828,commdev-image-keyboard-response,493,1225266,learnblock2,555.5,img/planet12_left.png,12,Community 3,NA,TRUE,f,f,NA,NA,NA,4,6,"2,13,14,7,11,5,3,15,8,10,6,9,1,12,4"
14828,commdev-image-keyboard-response,494,1226517,learnblock2,540.5,img/planet9_right.png,9,Community 3,NA,TRUE,j,j,NA,NA,NA,4,6,"2,13,14,7,11,5,3,15,8,10,6,9,1,12,4"
14828,commdev-image-keyboard-response,495,1227769,learnblock2,595.8000000119209,img/planet12_right.png,12,Community 3,NA,TRUE,j,j,NA,NA,NA,4,6,"2,13,14,7,11,5,3,15,8,10,6,9,1,12,4"
14828,commdev-image-keyboard-response,496,1229022,learnblock2,659.8999999761581,img/planet6_left.png,6,Community 3,NA,TRUE,f,f,NA,NA,NA,4,6,"2,13,14,7,11,5,3,15,8,10,6,9,1,12,4"
14828,commdev-image-keyboard-response,497,1230273,learnblock2,495,img/planet4_right.png,4,Community 3,NA,TRUE,j,j,NA,NA,NA,4,6,"2,13,14,7,11,5,3,15,8,10,6,9,1,12,4"
14828,commdev-image-keyboard-response,498,1231526,learnblock2,554.1000000238419,img/planet1_left.png,1,Community 3,NA,TRUE,f,f,NA,NA,NA,4,6,"2,13,14,7,11,5,3,15,8,10,6,9,1,12,4"
14828,commdev-image-keyboard-response,499,1232779,learnblock2,646.3000000119209,img/planet9_right.png,9,Community 3,NA,TRUE,j,j,NA,NA,NA,4,6,"2,13,14,7,11,5,3,15,8,10,6,9,1,12,4"
14828,commdev-image-keyboard-response,500,1234030,learnblock2,562.9000000059605,img/planet12_left.png,12,Community 3,NA,TRUE,f,f,NA,NA,NA,4,6,"2,13,14,7,11,5,3,15,8,10,6,9,1,12,4"
14828,commdev-image-keyboard-response,501,1235283,learnblock2,620.9000000059605,img/planet6_right.png,6,Community 3,NA,TRUE,j,j,NA,NA,NA,4,6,"2,13,14,7,11,5,3,15,8,10,6,9,1,12,4"
14828,commdev-image-keyboard-response,502,1236535,learnblock2,809.1000000238419,img/planet12_left.png,12,Community 3,NA,TRUE,f,f,NA,NA,NA,4,6,"2,13,14,7,11,5,3,15,8,10,6,9,1,12,4"
14828,commdev-image-keyboard-response,503,1237786,learnblock2,542.6000000238419,img/planet1_left.png,1,Community 3,NA,FALSE,j,f,NA,NA,NA,4,6,"2,13,14,7,11,5,3,15,8,10,6,9,1,12,4"
14828,commdev-image-keyboard-response,504,1239037,learnblock2,604.5999999940395,img/planet6_left.png,6,Community 3,NA,TRUE,f,f,NA,NA,NA,4,6,"2,13,14,7,11,5,3,15,8,10,6,9,1,12,4"
14828,commdev-image-keyboard-response,505,1240288,learnblock2,502.09999999403954,img/planet12_right.png,12,Community 3,NA,TRUE,j,j,NA,NA,NA,4,6,"2,13,14,7,11,5,3,15,8,10,6,9,1,12,4"
14828,commdev-image-keyboard-response,506,1241541,learnblock2,618.5,img/planet4_right.png,4,Community 3,NA,TRUE,j,j,NA,NA,NA,4,6,"2,13,14,7,11,5,3,15,8,10,6,9,1,12,4"
14828,commdev-image-keyboard-response,507,1242793,learnblock2,603.5999999940395,img/planet6_left.png,6,Community 3,NA,TRUE,f,f,NA,NA,NA,4,6,"2,13,14,7,11,5,3,15,8,10,6,9,1,12,4"
14828,commdev-image-keyboard-response,508,1244046,learnblock2,573,img/planet12_right.png,12,Community 3,NA,TRUE,j,j,NA,NA,NA,4,6,"2,13,14,7,11,5,3,15,8,10,6,9,1,12,4"
14828,commdev-image-keyboard-response,509,1245298,learnblock2,566.0999999940395,img/planet9_left.png,9,Community 3,NA,TRUE,f,f,NA,NA,NA,4,6,"2,13,14,7,11,5,3,15,8,10,6,9,1,12,4"
14828,commdev-image-keyboard-response,510,1246549,learnblock2,614.9000000059605,img/planet1_right.png,1,Community 3,NA,TRUE,j,j,NA,NA,NA,4,6,"2,13,14,7,11,5,3,15,8,10,6,9,1,12,4"
14828,commdev-image-keyboard-response,511,1247802,learnblock2,623.2000000178814,img/planet9_left.png,9,Community 3,NA,TRUE,f,f,NA,NA,NA,4,6,"2,13,14,7,11,5,3,15,8,10,6,9,1,12,4"
14828,commdev-image-keyboard-response,512,1249054,learnblock2,539.5999999940395,img/planet1_right.png,1,Community 3,NA,TRUE,j,j,NA,NA,NA,4,6,"2,13,14,7,11,5,3,15,8,10,6,9,1,12,4"
14828,commdev-image-keyboard-response,513,1250307,learnblock2,559.0999999940395,img/planet12_left.png,12,Community 3,NA,TRUE,f,f,NA,NA,NA,4,6,"2,13,14,7,11,5,3,15,8,10,6,9,1,12,4"
14828,commdev-image-keyboard-response,514,1251561,learnblock2,509.80000001192093,img/planet1_right.png,1,Community 3,NA,TRUE,j,j,NA,NA,NA,4,6,"2,13,14,7,11,5,3,15,8,10,6,9,1,12,4"
14828,commdev-image-keyboard-response,515,1252813,learnblock2,560.1999999880791,img/planet6_left.png,6,Community 3,NA,TRUE,f,f,NA,NA,NA,4,6,"2,13,14,7,11,5,3,15,8,10,6,9,1,12,4"
14828,commdev-image-keyboard-response,516,1254065,learnblock2,577.6000000238419,img/planet4_right.png,4,Community 3,NA,TRUE,j,j,NA,NA,NA,4,6,"2,13,14,7,11,5,3,15,8,10,6,9,1,12,4"
14828,commdev-image-keyboard-response,517,1255317,learnblock2,585.6999999880791,img/planet9_left.png,9,Community 3,NA,TRUE,f,f,NA,NA,NA,4,6,"2,13,14,7,11,5,3,15,8,10,6,9,1,12,4"
14828,commdev-image-keyboard-response,518,1256569,learnblock2,502.69999998807907,img/planet1_right.png,1,Community 3,NA,TRUE,j,j,NA,NA,NA,4,6,"2,13,14,7,11,5,3,15,8,10,6,9,1,12,4"
14828,commdev-image-keyboard-response,519,1257821,learnblock2,729.5999999940395,img/planet6_right.png,6,Community 3,NA,TRUE,j,j,NA,NA,NA,4,6,"2,13,14,7,11,5,3,15,8,10,6,9,1,12,4"
14828,commdev-image-keyboard-response,520,1259073,learnblock2,583.1999999880791,img/planet1_left.png,1,Community 3,NA,TRUE,f,f,NA,NA,NA,4,6,"2,13,14,7,11,5,3,15,8,10,6,9,1,12,4"
14828,commdev-image-keyboard-response,521,1260325,learnblock2,714.9000000059605,img/planet4_right.png,4,Community 3,NA,TRUE,j,j,NA,NA,NA,4,6,"2,13,14,7,11,5,3,15,8,10,6,9,1,12,4"
14828,commdev-image-keyboard-response,522,1261577,learnblock2,663.1000000238419,img/planet6_right.png,6,Community 3,NA,TRUE,j,j,NA,NA,NA,4,6,"2,13,14,7,11,5,3,15,8,10,6,9,1,12,4"
14828,commdev-image-keyboard-response,523,1262829,learnblock2,535.1999999880791,img/planet12_left.png,12,Community 3,NA,TRUE,f,f,NA,NA,NA,4,6,"2,13,14,7,11,5,3,15,8,10,6,9,1,12,4"
14828,commdev-image-keyboard-response,524,1264080,learnblock2,459.19999998807907,img/planet4_left.png,4,Community 3,NA,FALSE,j,f,NA,NA,NA,4,6,"2,13,14,7,11,5,3,15,8,10,6,9,1,12,4"
14828,commdev-image-keyboard-response,525,1265331,learnblock2,628.2000000178814,img/planet1_left.png,1,Community 3,NA,TRUE,f,f,NA,NA,NA,4,6,"2,13,14,7,11,5,3,15,8,10,6,9,1,12,4"
14828,commdev-image-keyboard-response,526,1266583,learnblock2,850,img/planet4_left.png,4,Community 3,NA,TRUE,f,f,NA,NA,NA,4,6,"2,13,14,7,11,5,3,15,8,10,6,9,1,12,4"
14828,commdev-image-keyboard-response,527,1267837,learnblock2,668.0999999940395,img/planet9_left.png,9,Community 3,NA,TRUE,f,f,NA,NA,NA,4,6,"2,13,14,7,11,5,3,15,8,10,6,9,1,12,4"
14828,commdev-image-keyboard-response,528,1269088,learnblock2,1019.4000000059605,img/planet12_left.png,12,Community 3,NA,TRUE,f,f,NA,NA,NA,4,6,"2,13,14,7,11,5,3,15,8,10,6,9,1,12,4"
14828,commdev-image-keyboard-response,529,1270340,learnblock2,657.4000000059605,img/planet1_left.png,1,Community 3,NA,TRUE,f,f,NA,NA,NA,4,6,"2,13,14,7,11,5,3,15,8,10,6,9,1,12,4"
14828,commdev-image-keyboard-response,530,1271592,learnblock2,827.9000000059605,img/planet6_left.png,6,Community 3,NA,TRUE,f,f,NA,NA,NA,4,6,"2,13,14,7,11,5,3,15,8,10,6,9,1,12,4"
14828,commdev-image-keyboard-response,531,1272844,learnblock2,665.5999999940395,img/planet12_right.png,12,Community 3,NA,TRUE,j,j,NA,NA,NA,4,6,"2,13,14,7,11,5,3,15,8,10,6,9,1,12,4"
14828,commdev-image-keyboard-response,532,1274096,learnblock2,683.8999999761581,img/planet9_left.png,9,Community 3,NA,TRUE,f,f,NA,NA,NA,4,6,"2,13,14,7,11,5,3,15,8,10,6,9,1,12,4"
14828,commdev-image-keyboard-response,533,1275348,learnblock2,601.9000000059605,img/planet1_left.png,1,Community 3,NA,TRUE,f,f,NA,NA,NA,4,6,"2,13,14,7,11,5,3,15,8,10,6,9,1,12,4"
14828,commdev-image-keyboard-response,534,1276599,learnblock2,529.5999999940395,img/planet9_left.png,9,Community 3,NA,TRUE,f,f,NA,NA,NA,4,6,"2,13,14,7,11,5,3,15,8,10,6,9,1,12,4"
14828,commdev-image-keyboard-response,535,1277852,learnblock2,655.0999999940395,img/planet4_right.png,4,Community 3,NA,TRUE,j,j,NA,NA,NA,4,6,"2,13,14,7,11,5,3,15,8,10,6,9,1,12,4"
14828,commdev-image-keyboard-response,536,1279103,learnblock2,555.2999999821186,img/planet1_left.png,1,Community 3,NA,FALSE,j,f,NA,NA,NA,4,6,"2,13,14,7,11,5,3,15,8,10,6,9,1,12,4"
14828,commdev-image-keyboard-response,537,1280354,learnblock2,558.3000000119209,img/planet6_right.png,6,Community 3,NA,TRUE,j,j,NA,NA,NA,4,6,"2,13,14,7,11,5,3,15,8,10,6,9,1,12,4"
14828,commdev-image-keyboard-response,538,1281606,learnblock2,543.2000000178814,img/planet1_left.png,1,Community 3,NA,TRUE,f,f,NA,NA,NA,4,6,"2,13,14,7,11,5,3,15,8,10,6,9,1,12,4"
14828,commdev-image-keyboard-response,539,1282858,learnblock2,542.5,img/planet9_right.png,9,Community 3,NA,TRUE,j,j,NA,NA,NA,4,6,"2,13,14,7,11,5,3,15,8,10,6,9,1,12,4"
14828,commdev-image-keyboard-response,540,1284114,learnblock2,626.6999999880791,img/planet1_left.png,1,Community 3,NA,TRUE,f,f,NA,NA,NA,4,6,"2,13,14,7,11,5,3,15,8,10,6,9,1,12,4"
14828,commdev-image-keyboard-response,541,1285366,learnblock2,1097.9000000059605,img/planet6_left.png,6,Community 3,NA,TRUE,f,f,NA,NA,NA,4,6,"2,13,14,7,11,5,3,15,8,10,6,9,1,12,4"
14828,commdev-image-keyboard-response,542,1286619,learnblock2,609.2000000178814,img/planet1_right.png,1,Community 3,NA,TRUE,j,j,NA,NA,NA,4,6,"2,13,14,7,11,5,3,15,8,10,6,9,1,12,4"
14828,commdev-image-keyboard-response,543,1287870,learnblock2,650.1999999880791,img/planet12_left.png,12,Community 3,NA,TRUE,f,f,NA,NA,NA,4,6,"2,13,14,7,11,5,3,15,8,10,6,9,1,12,4"
14828,commdev-image-keyboard-response,544,1289123,learnblock2,611.7000000178814,img/planet1_left.png,1,Community 3,NA,TRUE,f,f,NA,NA,NA,4,6,"2,13,14,7,11,5,3,15,8,10,6,9,1,12,4"
14828,commdev-image-keyboard-response,545,1290376,learnblock2,536.9000000059605,img/planet4_right.png,4,Community 3,NA,TRUE,j,j,NA,NA,NA,4,6,"2,13,14,7,11,5,3,15,8,10,6,9,1,12,4"
14828,commdev-image-keyboard-response,546,1291628,learnblock2,591.8000000119209,img/planet1_right.png,1,Community 3,NA,TRUE,j,j,NA,NA,NA,4,6,"2,13,14,7,11,5,3,15,8,10,6,9,1,12,4"
14828,commdev-image-keyboard-response,547,1292881,learnblock2,650.6999999880791,img/planet12_right.png,12,Community 3,NA,TRUE,j,j,NA,NA,NA,4,6,"2,13,14,7,11,5,3,15,8,10,6,9,1,12,4"
14828,commdev-image-keyboard-response,548,1294133,learnblock2,687.9000000059605,img/planet4_left.png,4,Community 3,NA,TRUE,f,f,NA,NA,NA,4,6,"2,13,14,7,11,5,3,15,8,10,6,9,1,12,4"
14828,commdev-image-keyboard-response,549,1295385,learnblock2,527.2000000178814,img/planet1_right.png,1,Community 3,NA,TRUE,j,j,NA,NA,NA,4,6,"2,13,14,7,11,5,3,15,8,10,6,9,1,12,4"
14828,commdev-image-keyboard-response,550,1296637,learnblock2,625.7000000178814,img/planet6_right.png,6,Community 3,NA,TRUE,j,j,NA,NA,NA,4,6,"2,13,14,7,11,5,3,15,8,10,6,9,1,12,4"
14828,commdev-image-keyboard-response,551,1297889,learnblock2,546.0999999940395,img/planet12_right.png,12,Community 3,NA,TRUE,j,j,NA,NA,NA,4,6,"2,13,14,7,11,5,3,15,8,10,6,9,1,12,4"
14828,commdev-image-keyboard-response,552,1299141,learnblock2,567.4000000059605,img/planet6_right.png,6,Community 3,NA,TRUE,j,j,NA,NA,NA,4,6,"2,13,14,7,11,5,3,15,8,10,6,9,1,12,4"
14828,commdev-image-keyboard-response,553,1300393,learnblock2,993.5,img/planet4_left.png,4,Community 3,NA,TRUE,f,f,NA,NA,NA,4,6,"2,13,14,7,11,5,3,15,8,10,6,9,1,12,4"
14828,commdev-image-keyboard-response,554,1301646,learnblock2,947.9000000059605,img/planet1_left.png,1,Community 3,NA,TRUE,f,f,NA,NA,NA,4,6,"2,13,14,7,11,5,3,15,8,10,6,9,1,12,4"
14828,commdev-image-keyboard-response,555,1302897,learnblock2,585.6999999880791,img/planet9_right.png,9,Community 3,NA,TRUE,j,j,NA,NA,NA,4,6,"2,13,14,7,11,5,3,15,8,10,6,9,1,12,4"
14828,commdev-image-keyboard-response,556,1304149,learnblock2,524.5999999940395,img/planet4_right.png,4,Community 3,NA,TRUE,j,j,NA,NA,NA,4,6,"2,13,14,7,11,5,3,15,8,10,6,9,1,12,4"
14828,commdev-image-keyboard-response,557,1305400,learnblock2,619.2999999821186,img/planet6_right.png,6,Community 3,NA,TRUE,j,j,NA,NA,NA,4,6,"2,13,14,7,11,5,3,15,8,10,6,9,1,12,4"
14828,commdev-image-keyboard-response,558,1306652,learnblock2,630.1999999880791,img/planet11_right.png,11,Community 1,NA,TRUE,j,j,NA,NA,NA,4,6,"2,13,14,7,11,5,3,15,8,10,6,9,1,12,4"
14828,commdev-image-keyboard-response,559,1307904,learnblock2,631.3999999761581,img/planet14_right.png,14,Community 1,NA,TRUE,j,j,NA,NA,NA,4,6,"2,13,14,7,11,5,3,15,8,10,6,9,1,12,4"
14828,commdev-image-keyboard-response,560,1309155,learnblock2,698.6999999880791,img/planet11_right.png,11,Community 1,NA,TRUE,j,j,NA,NA,NA,4,6,"2,13,14,7,11,5,3,15,8,10,6,9,1,12,4"
14828,commdev-image-keyboard-response,561,1310407,learnblock2,481.19999998807907,img/planet14_right.png,14,Community 1,NA,TRUE,j,j,NA,NA,NA,4,6,"2,13,14,7,11,5,3,15,8,10,6,9,1,12,4"
14828,commdev-image-keyboard-response,562,1311659,learnblock2,551.5,img/planet13_right.png,13,Community 1,NA,TRUE,j,j,NA,NA,NA,4,6,"2,13,14,7,11,5,3,15,8,10,6,9,1,12,4"
14828,commdev-image-keyboard-response,563,1312910,learnblock2,511.69999998807907,img/planet11_left.png,11,Community 1,NA,FALSE,j,f,NA,NA,NA,4,6,"2,13,14,7,11,5,3,15,8,10,6,9,1,12,4"
14828,commdev-image-keyboard-response,564,1314162,learnblock2,481.30000001192093,img/planet13_right.png,13,Community 1,NA,TRUE,j,j,NA,NA,NA,4,6,"2,13,14,7,11,5,3,15,8,10,6,9,1,12,4"
14828,commdev-image-keyboard-response,565,1315414,learnblock2,564.5999999940395,img/planet14_right.png,14,Community 1,NA,TRUE,j,j,NA,NA,NA,4,6,"2,13,14,7,11,5,3,15,8,10,6,9,1,12,4"
14828,commdev-image-keyboard-response,566,1316666,learnblock2,597.0999999940395,img/planet7_right.png,7,Community 1,NA,TRUE,j,j,NA,NA,NA,4,6,"2,13,14,7,11,5,3,15,8,10,6,9,1,12,4"
14828,commdev-image-keyboard-response,567,1317918,learnblock2,669.4000000059605,img/planet13_left.png,13,Community 1,NA,TRUE,f,f,NA,NA,NA,4,6,"2,13,14,7,11,5,3,15,8,10,6,9,1,12,4"
14828,commdev-image-keyboard-response,568,1319170,learnblock2,593.5999999940395,img/planet2_left.png,2,Community 1,NA,TRUE,f,f,NA,NA,NA,4,6,"2,13,14,7,11,5,3,15,8,10,6,9,1,12,4"
14828,commdev-image-keyboard-response,569,1320422,learnblock2,662.9000000059605,img/planet11_right.png,11,Community 1,NA,TRUE,j,j,NA,NA,NA,4,6,"2,13,14,7,11,5,3,15,8,10,6,9,1,12,4"
14828,commdev-image-keyboard-response,570,1321673,learnblock2,530.5,img/planet2_right.png,2,Community 1,NA,TRUE,j,j,NA,NA,NA,4,6,"2,13,14,7,11,5,3,15,8,10,6,9,1,12,4"
14828,commdev-image-keyboard-response,571,1322926,learnblock2,649.4000000059605,img/planet14_left.png,14,Community 1,NA,TRUE,f,f,NA,NA,NA,4,6,"2,13,14,7,11,5,3,15,8,10,6,9,1,12,4"
14828,commdev-image-keyboard-response,572,1324178,learnblock2,558.3000000119209,img/planet11_right.png,11,Community 1,NA,TRUE,j,j,NA,NA,NA,4,6,"2,13,14,7,11,5,3,15,8,10,6,9,1,12,4"
14828,commdev-image-keyboard-response,573,1325431,learnblock2,643.4000000059605,img/planet14_left.png,14,Community 1,NA,TRUE,f,f,NA,NA,NA,4,6,"2,13,14,7,11,5,3,15,8,10,6,9,1,12,4"
14828,commdev-image-keyboard-response,574,1326683,learnblock2,518.6000000238419,img/planet2_right.png,2,Community 1,NA,TRUE,j,j,NA,NA,NA,4,6,"2,13,14,7,11,5,3,15,8,10,6,9,1,12,4"
14828,commdev-image-keyboard-response,575,1327936,learnblock2,527.5,img/planet14_right.png,14,Community 1,NA,TRUE,j,j,NA,NA,NA,4,6,"2,13,14,7,11,5,3,15,8,10,6,9,1,12,4"
14828,commdev-image-keyboard-response,576,1329188,learnblock2,502.19999998807907,img/planet2_right.png,2,Community 1,NA,TRUE,j,j,NA,NA,NA,4,6,"2,13,14,7,11,5,3,15,8,10,6,9,1,12,4"
14828,commdev-image-keyboard-response,577,1330440,learnblock2,596.9000000059605,img/planet11_left.png,11,Community 1,NA,FALSE,j,f,NA,NA,NA,4,6,"2,13,14,7,11,5,3,15,8,10,6,9,1,12,4"
14828,commdev-image-keyboard-response,578,1331692,learnblock2,634,img/planet14_left.png,14,Community 1,NA,TRUE,f,f,NA,NA,NA,4,6,"2,13,14,7,11,5,3,15,8,10,6,9,1,12,4"
14828,commdev-image-keyboard-response,579,1332943,learnblock2,587.5,img/planet7_right.png,7,Community 1,NA,TRUE,j,j,NA,NA,NA,4,6,"2,13,14,7,11,5,3,15,8,10,6,9,1,12,4"
14828,commdev-image-keyboard-response,580,1334196,learnblock2,589.9000000059605,img/planet14_left.png,14,Community 1,NA,TRUE,f,f,NA,NA,NA,4,6,"2,13,14,7,11,5,3,15,8,10,6,9,1,12,4"
14828,commdev-image-keyboard-response,581,1335448,learnblock2,536.1000000238419,img/planet7_right.png,7,Community 1,NA,TRUE,j,j,NA,NA,NA,4,6,"2,13,14,7,11,5,3,15,8,10,6,9,1,12,4"
14828,commdev-image-keyboard-response,582,1336701,learnblock2,696.7000000178814,img/planet14_right.png,14,Community 1,NA,TRUE,j,j,NA,NA,NA,4,6,"2,13,14,7,11,5,3,15,8,10,6,9,1,12,4"
14828,commdev-image-keyboard-response,583,1337953,learnblock2,691.7999999821186,img/planet11_right.png,11,Community 1,NA,TRUE,j,j,NA,NA,NA,4,6,"2,13,14,7,11,5,3,15,8,10,6,9,1,12,4"
14828,commdev-image-keyboard-response,584,1339205,learnblock2,841.5999999940395,img/planet14_right.png,14,Community 1,NA,TRUE,j,j,NA,NA,NA,4,6,"2,13,14,7,11,5,3,15,8,10,6,9,1,12,4"
