subject_id,trial_type,trial_index,time_elapsed,block,rt,stimulus,planet,community,response,correct,key_press,learning_correct_response,parse,init_locations,final_locations,browser_interactions,num_comp,planet_map
15137,commdev-instructions,7,36177,NA,1805.3999999985099,"<p>In this game, you are a scientist on board a space shuttle. </p><p> On each mission, you will visit planets all across the universe.</p><img src=""img/controlroom.jpg"" width=300vw>",NA,NA,NA,NA,NA,NA,NA,NA,NA,5,6,"4,14,11,5,6,15,2,12,9,10,13,3,1,8,7"
15137,commdev-instructions,8,39288,NA,1023.2999999970198,"<p>Here are a few planets you might see:</p><img src=""img/practice1.png"" width=200vw><img src=""img/practice2.png"" width=200vw><img src=""img/practice3.png"" width=200vw>",NA,NA,NA,NA,NA,NA,NA,NA,NA,5,6,"4,14,11,5,6,15,2,12,9,10,13,3,1,8,7"
15137,commdev-instructions,9,50873,NA,4181.10000000149,"<p>Your job as a scientist is to record which direction the winds are moving on each planet.</p><p>There are two types of wind directions:</p><img src=""img/practice1_left.png"" width=200vw><img src=""img/practice1_right.png"" width=200vw>",NA,NA,NA,NA,NA,NA,NA,NA,NA,5,6,"4,14,11,5,6,15,2,12,9,10,13,3,1,8,7"
15137,commdev-instructions,10,57529,NA,1770.7000000029802,"<p>If the winds are moving this way, press the letter <strong>F</strong> on the keyboard as fast as you can.</p><img src=""img/leftwind.png"" width=250vw>",NA,NA,NA,NA,NA,NA,NA,NA,NA,5,6,"4,14,11,5,6,15,2,12,9,10,13,3,1,8,7"
15137,commdev-instructions,11,63936,NA,1916.7999999970198,"<p>If the winds are moving this way, press the letter <strong>J</strong> on the keyboard as fast as you can.</p><img src=""img/rightwind.png"" width=350vw>",NA,NA,NA,NA,NA,NA,NA,NA,NA,5,6,"4,14,11,5,6,15,2,12,9,10,13,3,1,8,7"
15137,commdev-instructions,12,70233,NA,1866.5,<p>You will have 1 second to respond. Try to respond before the time runs out!,NA,NA,NA,NA,NA,NA,NA,NA,NA,5,6,"4,14,11,5,6,15,2,12,9,10,13,3,1,8,7"
15137,commdev-instructions,13,77552,NA,1879.7000000029802,<p>The planets you will visit will look different from each other.</p><p>You should respond <strong>only</strong> based on wind direction.,NA,NA,NA,NA,NA,NA,NA,NA,NA,5,6,"4,14,11,5,6,15,2,12,9,10,13,3,1,8,7"
15137,commdev-instructions,14,85849,NA,3135.5999999940395,"<p> Ready to start the practice round? </p><p> Remember, press <strong>F</strong> or <strong>J</strong> depending on the wind direction.<br><img src=""img/categorize_planet_example.png""",NA,NA,NA,NA,NA,NA,NA,NA,NA,5,6,"4,14,11,5,6,15,2,12,9,10,13,3,1,8,7"
15137,commdev-instructions,26,161080,NA,1736.7999999970198,"<p>Great, now try a short practice mission. </p><p> This time, you will have 1 second to respond and you won't know whether you pressed the right or wrong key for each planet.</p>",NA,NA,NA,NA,NA,NA,NA,NA,NA,5,6,"4,14,11,5,6,15,2,12,9,10,13,3,1,8,7"
15137,commdev-image-keyboard-response,27,162442,practice,495,img/practice4_right.png,NA,Number not found in mappings,NA,FALSE,f,j,NA,NA,NA,5,6,"4,14,11,5,6,15,2,12,9,10,13,3,1,8,7"
15137,commdev-image-keyboard-response,28,163697,practice,862.7999999970198,img/practice3_right.png,NA,Number not found in mappings,NA,FALSE,f,j,NA,NA,NA,5,6,"4,14,11,5,6,15,2,12,9,10,13,3,1,8,7"
15137,commdev-image-keyboard-response,29,164953,practice,657.6999999955297,img/practice2_right.png,NA,Number not found in mappings,NA,TRUE,j,j,NA,NA,NA,5,6,"4,14,11,5,6,15,2,12,9,10,13,3,1,8,7"
15137,commdev-image-keyboard-response,30,166216,practice,32.30000000447035,img/practice4_right.png,NA,Number not found in mappings,NA,FALSE,f,j,NA,NA,NA,5,6,"4,14,11,5,6,15,2,12,9,10,13,3,1,8,7"
15137,commdev-image-keyboard-response,31,167476,practice,592.8000000044703,img/practice3_left.png,NA,Number not found in mappings,NA,TRUE,f,f,NA,NA,NA,5,6,"4,14,11,5,6,15,2,12,9,10,13,3,1,8,7"
15137,commdev-image-keyboard-response,32,168729,practice,532.2000000029802,img/practice2_left.png,NA,Number not found in mappings,NA,FALSE,j,f,NA,NA,NA,5,6,"4,14,11,5,6,15,2,12,9,10,13,3,1,8,7"
15137,commdev-image-keyboard-response,33,169991,practice,1180.1000000014901,img/practice3_right.png,NA,Number not found in mappings,NA,TRUE,j,j,NA,NA,NA,5,6,"4,14,11,5,6,15,2,12,9,10,13,3,1,8,7"
15137,commdev-image-keyboard-response,34,171252,practice,544.8000000044703,img/practice4_right.png,NA,Number not found in mappings,NA,FALSE,f,j,NA,NA,NA,5,6,"4,14,11,5,6,15,2,12,9,10,13,3,1,8,7"
15137,commdev-instructions,35,186792,NA,5987.70000000298,"<p>Great job with the practice round.</p><p>During real missions, you won't know whether you pressed the right or wrong key for each planet.</p><p>But between missions, we will tell you how you did overall.</p>",NA,NA,NA,NA,NA,NA,NA,NA,NA,5,6,"4,14,11,5,6,15,2,12,9,10,13,3,1,8,7"
15137,commdev-instructions,36,196760,NA,1737.1000000014901,<p>Try your best! You will be paid a bonus based on how many correct responses you make!</p><p>Responses that are too slow will not count toward your bonus.</p>,NA,NA,NA,NA,NA,NA,NA,NA,NA,5,6,"4,14,11,5,6,15,2,12,9,10,13,3,1,8,7"
15137,commdev-instructions,37,204792,NA,1832.7000000029802,"<p>You are almost ready to start the real game.</p><p> First, we are going to ask you some questions about how the game works.</p>",NA,NA,NA,NA,NA,NA,NA,NA,NA,5,6,"4,14,11,5,6,15,2,12,9,10,13,3,1,8,7"
15137,commdev-instructions,46,346207,NA,8921,"<p> Nice work! It is now time to start the real game.<p></p>You will go on two missions to record wind directions of different planets.<p></p>Each one will take about 5 minutes. You will get to take a break between missions.<p><p> Remember, press <strong>F</strong> or <strong>J</strong> depending on the wind direction. Good luck!<br><img src=""img/categorize_planet_example.png""",NA,NA,NA,NA,NA,NA,NA,NA,NA,5,6,"4,14,11,5,6,15,2,12,9,10,13,3,1,8,7"
15137,commdev-image-keyboard-response,48,352026,learnblock1,374.30000000447035,img/planet2_left.png,2,Community 2,NA,TRUE,f,f,NA,NA,NA,5,6,"4,14,11,5,6,15,2,12,9,10,13,3,1,8,7"
15137,commdev-image-keyboard-response,49,353286,learnblock1,686.3999999985099,img/planet12_left.png,12,Community 2,NA,TRUE,f,f,NA,NA,NA,5,6,"4,14,11,5,6,15,2,12,9,10,13,3,1,8,7"
15137,commdev-image-keyboard-response,50,354543,learnblock1,853.8999999985099,img/planet9_right.png,9,Community 2,NA,TRUE,j,j,NA,NA,NA,5,6,"4,14,11,5,6,15,2,12,9,10,13,3,1,8,7"
15137,commdev-image-keyboard-response,51,355803,learnblock1,758.5,img/planet12_left.png,12,Community 2,NA,TRUE,f,f,NA,NA,NA,5,6,"4,14,11,5,6,15,2,12,9,10,13,3,1,8,7"
15137,commdev-image-keyboard-response,52,357059,learnblock1,810.8000000044703,img/planet10_left.png,10,Community 2,NA,FALSE,j,f,NA,NA,NA,5,6,"4,14,11,5,6,15,2,12,9,10,13,3,1,8,7"
15137,commdev-image-keyboard-response,53,358315,learnblock1,1122,img/planet12_right.png,12,Community 2,NA,TRUE,j,j,NA,NA,NA,5,6,"4,14,11,5,6,15,2,12,9,10,13,3,1,8,7"
15137,commdev-image-keyboard-response,54,359579,learnblock1,770.6000000014901,img/planet2_left.png,2,Community 2,NA,TRUE,f,f,NA,NA,NA,5,6,"4,14,11,5,6,15,2,12,9,10,13,3,1,8,7"
15137,commdev-image-keyboard-response,55,360840,learnblock1,689.5,img/planet15_right.png,15,Community 2,NA,TRUE,j,j,NA,NA,NA,5,6,"4,14,11,5,6,15,2,12,9,10,13,3,1,8,7"
15137,commdev-image-keyboard-response,56,362098,learnblock1,1206.2000000029802,img/planet9_left.png,9,Community 2,NA,TRUE,f,f,NA,NA,NA,5,6,"4,14,11,5,6,15,2,12,9,10,13,3,1,8,7"
15137,commdev-image-keyboard-response,57,363358,learnblock1,1018,img/planet2_right.png,2,Community 2,NA,TRUE,j,j,NA,NA,NA,5,6,"4,14,11,5,6,15,2,12,9,10,13,3,1,8,7"
15137,commdev-image-keyboard-response,58,364619,learnblock1,934.9000000059605,img/planet12_right.png,12,Community 2,NA,TRUE,j,j,NA,NA,NA,5,6,"4,14,11,5,6,15,2,12,9,10,13,3,1,8,7"
15137,commdev-image-keyboard-response,59,365878,learnblock1,1065.7999999970198,img/planet10_right.png,10,Community 2,NA,FALSE,f,j,NA,NA,NA,5,6,"4,14,11,5,6,15,2,12,9,10,13,3,1,8,7"
15137,commdev-image-keyboard-response,60,367139,learnblock1,854.1000000014901,img/planet12_right.png,12,Community 2,NA,TRUE,j,j,NA,NA,NA,5,6,"4,14,11,5,6,15,2,12,9,10,13,3,1,8,7"
15137,commdev-image-keyboard-response,61,368391,learnblock1,661.6000000014901,img/planet9_right.png,9,Community 2,NA,TRUE,j,j,NA,NA,NA,5,6,"4,14,11,5,6,15,2,12,9,10,13,3,1,8,7"
15137,commdev-image-keyboard-response,62,369642,learnblock1,1197.3999999985099,img/planet12_left.png,12,Community 2,NA,TRUE,f,f,NA,NA,NA,5,6,"4,14,11,5,6,15,2,12,9,10,13,3,1,8,7"
15137,commdev-image-keyboard-response,63,370894,learnblock1,908.3000000044703,img/planet9_right.png,9,Community 2,NA,TRUE,j,j,NA,NA,NA,5,6,"4,14,11,5,6,15,2,12,9,10,13,3,1,8,7"
15137,commdev-image-keyboard-response,64,372145,learnblock1,615.2000000029802,img/planet12_right.png,12,Community 2,NA,FALSE,f,j,NA,NA,NA,5,6,"4,14,11,5,6,15,2,12,9,10,13,3,1,8,7"
15137,commdev-image-keyboard-response,65,373402,learnblock1,null,img/planet9_right.png,9,Community 2,NA,FALSE,null,j,NA,NA,NA,5,6,"4,14,11,5,6,15,2,12,9,10,13,3,1,8,7"
15137,commdev-image-keyboard-response,66,374654,learnblock1,245.30000000447035,img/planet10_right.png,10,Community 2,NA,TRUE,j,j,NA,NA,NA,5,6,"4,14,11,5,6,15,2,12,9,10,13,3,1,8,7"
15137,commdev-image-keyboard-response,67,375906,learnblock1,66.90000000596046,img/planet12_right.png,12,Community 2,NA,TRUE,j,j,NA,NA,NA,5,6,"4,14,11,5,6,15,2,12,9,10,13,3,1,8,7"
15137,commdev-image-keyboard-response,68,377157,learnblock1,809.7999999970198,img/planet3_left.png,3,Community 3,NA,FALSE,j,f,NA,NA,NA,5,6,"4,14,11,5,6,15,2,12,9,10,13,3,1,8,7"
15137,commdev-image-keyboard-response,69,378407,learnblock1,null,img/planet1_right.png,1,Community 3,NA,FALSE,null,j,NA,NA,NA,5,6,"4,14,11,5,6,15,2,12,9,10,13,3,1,8,7"
15137,commdev-image-keyboard-response,70,379660,learnblock1,23.799999997019768,img/planet7_left.png,7,Community 3,NA,FALSE,j,f,NA,NA,NA,5,6,"4,14,11,5,6,15,2,12,9,10,13,3,1,8,7"
15137,commdev-image-keyboard-response,71,380912,learnblock1,803.8999999985099,img/planet3_left.png,3,Community 3,NA,FALSE,j,f,NA,NA,NA,5,6,"4,14,11,5,6,15,2,12,9,10,13,3,1,8,7"
15137,commdev-image-keyboard-response,72,382164,learnblock1,650.2999999970198,img/planet7_left.png,7,Community 3,NA,TRUE,f,f,NA,NA,NA,5,6,"4,14,11,5,6,15,2,12,9,10,13,3,1,8,7"
15137,commdev-image-keyboard-response,73,383416,learnblock1,585.8000000044703,img/planet1_left.png,1,Community 3,NA,FALSE,j,f,NA,NA,NA,5,6,"4,14,11,5,6,15,2,12,9,10,13,3,1,8,7"
15137,commdev-image-keyboard-response,74,384668,learnblock1,867.6000000014901,img/planet3_right.png,3,Community 3,NA,TRUE,j,j,NA,NA,NA,5,6,"4,14,11,5,6,15,2,12,9,10,13,3,1,8,7"
15137,commdev-image-keyboard-response,75,385920,learnblock1,611.7000000029802,img/planet12_left.png,12,Community 2,NA,TRUE,f,f,NA,NA,NA,5,6,"4,14,11,5,6,15,2,12,9,10,13,3,1,8,7"
15137,commdev-image-keyboard-response,76,387171,learnblock1,688.1999999955297,img/planet9_right.png,9,Community 2,NA,TRUE,j,j,NA,NA,NA,5,6,"4,14,11,5,6,15,2,12,9,10,13,3,1,8,7"
15137,commdev-image-keyboard-response,77,388423,learnblock1,722.6000000014901,img/planet10_left.png,10,Community 2,NA,TRUE,f,f,NA,NA,NA,5,6,"4,14,11,5,6,15,2,12,9,10,13,3,1,8,7"
15137,commdev-image-keyboard-response,78,389675,learnblock1,830.5,img/planet12_right.png,12,Community 2,NA,TRUE,j,j,NA,NA,NA,5,6,"4,14,11,5,6,15,2,12,9,10,13,3,1,8,7"
15137,commdev-image-keyboard-response,79,390926,learnblock1,1203.0999999940395,img/planet2_left.png,2,Community 2,NA,FALSE,j,f,NA,NA,NA,5,6,"4,14,11,5,6,15,2,12,9,10,13,3,1,8,7"
15137,commdev-image-keyboard-response,80,392178,learnblock1,1046.6000000014901,img/planet9_left.png,9,Community 2,NA,FALSE,j,f,NA,NA,NA,5,6,"4,14,11,5,6,15,2,12,9,10,13,3,1,8,7"
15137,commdev-image-keyboard-response,81,393430,learnblock1,null,img/planet12_right.png,12,Community 2,NA,FALSE,null,j,NA,NA,NA,5,6,"4,14,11,5,6,15,2,12,9,10,13,3,1,8,7"
15137,commdev-image-keyboard-response,82,394681,learnblock1,854,img/planet10_right.png,10,Community 2,NA,TRUE,j,j,NA,NA,NA,5,6,"4,14,11,5,6,15,2,12,9,10,13,3,1,8,7"
15137,commdev-image-keyboard-response,83,395932,learnblock1,723.6000000014901,img/planet2_left.png,2,Community 2,NA,TRUE,f,f,NA,NA,NA,5,6,"4,14,11,5,6,15,2,12,9,10,13,3,1,8,7"
15137,commdev-image-keyboard-response,84,397185,learnblock1,704.9000000059605,img/planet9_right.png,9,Community 2,NA,TRUE,j,j,NA,NA,NA,5,6,"4,14,11,5,6,15,2,12,9,10,13,3,1,8,7"
15137,commdev-image-keyboard-response,85,398436,learnblock1,944.5,img/planet2_left.png,2,Community 2,NA,TRUE,f,f,NA,NA,NA,5,6,"4,14,11,5,6,15,2,12,9,10,13,3,1,8,7"
15137,commdev-image-keyboard-response,86,399687,learnblock1,693.5,img/planet12_left.png,12,Community 2,NA,TRUE,f,f,NA,NA,NA,5,6,"4,14,11,5,6,15,2,12,9,10,13,3,1,8,7"
15137,commdev-image-keyboard-response,87,400940,learnblock1,853.8999999985099,img/planet3_right.png,3,Community 3,NA,FALSE,f,j,NA,NA,NA,5,6,"4,14,11,5,6,15,2,12,9,10,13,3,1,8,7"
15137,commdev-image-keyboard-response,88,402192,learnblock1,null,img/planet12_right.png,12,Community 2,NA,FALSE,null,j,NA,NA,NA,5,6,"4,14,11,5,6,15,2,12,9,10,13,3,1,8,7"
15137,commdev-image-keyboard-response,89,403444,learnblock1,134.5,img/planet10_right.png,10,Community 2,NA,TRUE,j,j,NA,NA,NA,5,6,"4,14,11,5,6,15,2,12,9,10,13,3,1,8,7"
15137,commdev-image-keyboard-response,90,404694,learnblock1,71.60000000149012,img/planet9_left.png,9,Community 2,NA,FALSE,j,f,NA,NA,NA,5,6,"4,14,11,5,6,15,2,12,9,10,13,3,1,8,7"
15137,commdev-image-keyboard-response,91,405946,learnblock1,1094.3000000044703,img/planet12_left.png,12,Community 2,NA,FALSE,j,f,NA,NA,NA,5,6,"4,14,11,5,6,15,2,12,9,10,13,3,1,8,7"
15137,commdev-image-keyboard-response,92,407198,learnblock1,959.5999999940395,img/planet9_left.png,9,Community 2,NA,TRUE,f,f,NA,NA,NA,5,6,"4,14,11,5,6,15,2,12,9,10,13,3,1,8,7"
15137,commdev-image-keyboard-response,93,408448,learnblock1,1217.7000000029802,img/planet15_left.png,15,Community 2,NA,FALSE,j,f,NA,NA,NA,5,6,"4,14,11,5,6,15,2,12,9,10,13,3,1,8,7"
15137,commdev-image-keyboard-response,94,409699,learnblock1,null,img/planet5_left.png,5,Community 1,NA,FALSE,null,f,NA,NA,NA,5,6,"4,14,11,5,6,15,2,12,9,10,13,3,1,8,7"
15137,commdev-image-keyboard-response,95,410951,learnblock1,65.79999999701977,img/planet15_right.png,15,Community 2,NA,FALSE,f,j,NA,NA,NA,5,6,"4,14,11,5,6,15,2,12,9,10,13,3,1,8,7"
15137,commdev-image-keyboard-response,96,412203,learnblock1,951,img/planet10_right.png,10,Community 2,NA,FALSE,f,j,NA,NA,NA,5,6,"4,14,11,5,6,15,2,12,9,10,13,3,1,8,7"
15137,commdev-image-keyboard-response,97,413454,learnblock1,28.700000002980232,img/planet12_left.png,12,Community 2,NA,FALSE,j,f,NA,NA,NA,5,6,"4,14,11,5,6,15,2,12,9,10,13,3,1,8,7"
15137,commdev-image-keyboard-response,98,414706,learnblock1,205.20000000298023,img/planet10_left.png,10,Community 2,NA,TRUE,f,f,NA,NA,NA,5,6,"4,14,11,5,6,15,2,12,9,10,13,3,1,8,7"
15137,commdev-image-keyboard-response,99,415957,learnblock1,1101.1000000014901,img/planet15_left.png,15,Community 2,NA,FALSE,j,f,NA,NA,NA,5,6,"4,14,11,5,6,15,2,12,9,10,13,3,1,8,7"
15137,commdev-image-keyboard-response,100,417209,learnblock1,839.5,img/planet2_left.png,2,Community 2,NA,TRUE,f,f,NA,NA,NA,5,6,"4,14,11,5,6,15,2,12,9,10,13,3,1,8,7"
15137,commdev-image-keyboard-response,101,418461,learnblock1,1105.8999999985099,img/planet9_right.png,9,Community 2,NA,TRUE,j,j,NA,NA,NA,5,6,"4,14,11,5,6,15,2,12,9,10,13,3,1,8,7"
15137,commdev-image-keyboard-response,102,419712,learnblock1,1076,img/planet10_left.png,10,Community 2,NA,TRUE,f,f,NA,NA,NA,5,6,"4,14,11,5,6,15,2,12,9,10,13,3,1,8,7"
15137,commdev-image-keyboard-response,103,420964,learnblock1,1136.1999999955297,img/planet2_left.png,2,Community 2,NA,FALSE,j,f,NA,NA,NA,5,6,"4,14,11,5,6,15,2,12,9,10,13,3,1,8,7"
15137,commdev-image-keyboard-response,104,422215,learnblock1,1065,img/planet15_right.png,15,Community 2,NA,FALSE,f,j,NA,NA,NA,5,6,"4,14,11,5,6,15,2,12,9,10,13,3,1,8,7"
15137,commdev-image-keyboard-response,105,423466,learnblock1,119.30000000447035,img/planet5_left.png,5,Community 1,NA,FALSE,j,f,NA,NA,NA,5,6,"4,14,11,5,6,15,2,12,9,10,13,3,1,8,7"
15137,commdev-image-keyboard-response,106,424718,learnblock1,1125,img/planet14_left.png,14,Community 1,NA,TRUE,f,f,NA,NA,NA,5,6,"4,14,11,5,6,15,2,12,9,10,13,3,1,8,7"
15137,commdev-image-keyboard-response,107,425970,learnblock1,null,img/planet11_left.png,11,Community 1,NA,FALSE,null,f,NA,NA,NA,5,6,"4,14,11,5,6,15,2,12,9,10,13,3,1,8,7"
15137,commdev-image-keyboard-response,108,427221,learnblock1,13,img/planet6_left.png,6,Community 1,NA,FALSE,j,f,NA,NA,NA,5,6,"4,14,11,5,6,15,2,12,9,10,13,3,1,8,7"
15137,commdev-image-keyboard-response,109,428472,learnblock1,207.10000000149012,img/planet13_right.png,13,Community 3,NA,FALSE,f,j,NA,NA,NA,5,6,"4,14,11,5,6,15,2,12,9,10,13,3,1,8,7"
15137,commdev-image-keyboard-response,110,429725,learnblock1,null,img/planet1_right.png,1,Community 3,NA,FALSE,null,j,NA,NA,NA,5,6,"4,14,11,5,6,15,2,12,9,10,13,3,1,8,7"
15137,commdev-image-keyboard-response,111,430977,learnblock1,105.20000000298023,img/planet7_left.png,7,Community 3,NA,FALSE,j,f,NA,NA,NA,5,6,"4,14,11,5,6,15,2,12,9,10,13,3,1,8,7"
15137,commdev-image-keyboard-response,112,432228,learnblock1,2.7999999970197678,img/planet1_left.png,1,Community 3,NA,TRUE,f,f,NA,NA,NA,5,6,"4,14,11,5,6,15,2,12,9,10,13,3,1,8,7"
15137,commdev-image-keyboard-response,113,433479,learnblock1,69,img/planet13_right.png,13,Community 3,NA,FALSE,f,j,NA,NA,NA,5,6,"4,14,11,5,6,15,2,12,9,10,13,3,1,8,7"
15137,commdev-image-keyboard-response,114,434731,learnblock1,812.7999999970198,img/planet7_right.png,7,Community 3,NA,FALSE,f,j,NA,NA,NA,5,6,"4,14,11,5,6,15,2,12,9,10,13,3,1,8,7"
15137,commdev-image-keyboard-response,115,435983,learnblock1,909.3000000044703,img/planet1_right.png,1,Community 3,NA,TRUE,j,j,NA,NA,NA,5,6,"4,14,11,5,6,15,2,12,9,10,13,3,1,8,7"
15137,commdev-image-keyboard-response,116,437234,learnblock1,1172,img/planet3_right.png,3,Community 3,NA,TRUE,j,j,NA,NA,NA,5,6,"4,14,11,5,6,15,2,12,9,10,13,3,1,8,7"
15137,commdev-image-keyboard-response,117,438487,learnblock1,1193.7000000029802,img/planet7_left.png,7,Community 3,NA,FALSE,j,f,NA,NA,NA,5,6,"4,14,11,5,6,15,2,12,9,10,13,3,1,8,7"
15137,commdev-image-keyboard-response,118,439737,learnblock1,null,img/planet13_right.png,13,Community 3,NA,FALSE,null,j,NA,NA,NA,5,6,"4,14,11,5,6,15,2,12,9,10,13,3,1,8,7"
15137,commdev-image-keyboard-response,119,440988,learnblock1,11.599999994039536,img/planet8_left.png,8,Community 3,NA,TRUE,f,f,NA,NA,NA,5,6,"4,14,11,5,6,15,2,12,9,10,13,3,1,8,7"
15137,commdev-image-keyboard-response,120,442240,learnblock1,null,img/planet3_right.png,3,Community 3,NA,FALSE,null,j,NA,NA,NA,5,6,"4,14,11,5,6,15,2,12,9,10,13,3,1,8,7"
15137,commdev-image-keyboard-response,121,443492,learnblock1,90.5,img/planet1_right.png,1,Community 3,NA,TRUE,j,j,NA,NA,NA,5,6,"4,14,11,5,6,15,2,12,9,10,13,3,1,8,7"
15137,commdev-image-keyboard-response,122,444744,learnblock1,43.400000005960464,img/planet13_right.png,13,Community 3,NA,TRUE,j,j,NA,NA,NA,5,6,"4,14,11,5,6,15,2,12,9,10,13,3,1,8,7"
15137,commdev-image-keyboard-response,123,445996,learnblock1,34.19999999552965,img/planet8_right.png,8,Community 3,NA,TRUE,j,j,NA,NA,NA,5,6,"4,14,11,5,6,15,2,12,9,10,13,3,1,8,7"
15137,commdev-image-keyboard-response,124,447248,learnblock1,146.29999999701977,img/planet1_left.png,1,Community 3,NA,FALSE,j,f,NA,NA,NA,5,6,"4,14,11,5,6,15,2,12,9,10,13,3,1,8,7"
15137,commdev-image-keyboard-response,125,448499,learnblock1,47.69999999552965,img/planet13_left.png,13,Community 3,NA,TRUE,f,f,NA,NA,NA,5,6,"4,14,11,5,6,15,2,12,9,10,13,3,1,8,7"
15137,commdev-image-keyboard-response,126,449750,learnblock1,73.69999999552965,img/planet7_right.png,7,Community 3,NA,FALSE,f,j,NA,NA,NA,5,6,"4,14,11,5,6,15,2,12,9,10,13,3,1,8,7"
15137,commdev-image-keyboard-response,127,451002,learnblock1,null,img/planet1_right.png,1,Community 3,NA,FALSE,null,j,NA,NA,NA,5,6,"4,14,11,5,6,15,2,12,9,10,13,3,1,8,7"
15137,commdev-image-keyboard-response,128,452254,learnblock1,46.900000005960464,img/planet7_right.png,7,Community 3,NA,TRUE,j,j,NA,NA,NA,5,6,"4,14,11,5,6,15,2,12,9,10,13,3,1,8,7"
15137,commdev-image-keyboard-response,129,453504,learnblock1,95.79999999701977,img/planet13_right.png,13,Community 3,NA,FALSE,f,j,NA,NA,NA,5,6,"4,14,11,5,6,15,2,12,9,10,13,3,1,8,7"
15137,commdev-image-keyboard-response,130,454756,learnblock1,106.09999999403954,img/planet8_left.png,8,Community 3,NA,TRUE,f,f,NA,NA,NA,5,6,"4,14,11,5,6,15,2,12,9,10,13,3,1,8,7"
15137,commdev-image-keyboard-response,131,456007,learnblock1,90.20000000298023,img/planet13_right.png,13,Community 3,NA,FALSE,f,j,NA,NA,NA,5,6,"4,14,11,5,6,15,2,12,9,10,13,3,1,8,7"
15137,commdev-image-keyboard-response,132,457258,learnblock1,430.79999999701977,img/planet6_left.png,6,Community 1,NA,TRUE,f,f,NA,NA,NA,5,6,"4,14,11,5,6,15,2,12,9,10,13,3,1,8,7"
15137,commdev-image-keyboard-response,133,458510,learnblock1,1024.5,img/planet11_right.png,11,Community 1,NA,TRUE,j,j,NA,NA,NA,5,6,"4,14,11,5,6,15,2,12,9,10,13,3,1,8,7"
15137,commdev-image-keyboard-response,134,459761,learnblock1,900.2000000029802,img/planet14_left.png,14,Community 1,NA,TRUE,f,f,NA,NA,NA,5,6,"4,14,11,5,6,15,2,12,9,10,13,3,1,8,7"
15137,commdev-image-keyboard-response,135,461013,learnblock1,888.6999999880791,img/planet4_right.png,4,Community 1,NA,TRUE,j,j,NA,NA,NA,5,6,"4,14,11,5,6,15,2,12,9,10,13,3,1,8,7"
15137,commdev-image-keyboard-response,136,462264,learnblock1,748.8999999910593,img/planet5_left.png,5,Community 1,NA,TRUE,f,f,NA,NA,NA,5,6,"4,14,11,5,6,15,2,12,9,10,13,3,1,8,7"
15137,commdev-image-keyboard-response,137,463516,learnblock1,709.7000000029802,img/planet4_right.png,4,Community 1,NA,TRUE,j,j,NA,NA,NA,5,6,"4,14,11,5,6,15,2,12,9,10,13,3,1,8,7"
15137,commdev-image-keyboard-response,138,464767,learnblock1,704.0999999940395,img/planet11_left.png,11,Community 1,NA,TRUE,f,f,NA,NA,NA,5,6,"4,14,11,5,6,15,2,12,9,10,13,3,1,8,7"
15137,commdev-image-keyboard-response,139,466018,learnblock1,null,img/planet5_right.png,5,Community 1,NA,FALSE,null,j,NA,NA,NA,5,6,"4,14,11,5,6,15,2,12,9,10,13,3,1,8,7"
15137,commdev-image-keyboard-response,140,467270,learnblock1,279.59999999403954,img/planet11_right.png,11,Community 1,NA,TRUE,j,j,NA,NA,NA,5,6,"4,14,11,5,6,15,2,12,9,10,13,3,1,8,7"
15137,commdev-image-keyboard-response,141,468522,learnblock1,1026.9000000059605,img/planet6_left.png,6,Community 1,NA,TRUE,f,f,NA,NA,NA,5,6,"4,14,11,5,6,15,2,12,9,10,13,3,1,8,7"
15137,commdev-image-keyboard-response,142,469774,learnblock1,null,img/planet13_right.png,13,Community 3,NA,FALSE,null,j,NA,NA,NA,5,6,"4,14,11,5,6,15,2,12,9,10,13,3,1,8,7"
15137,commdev-image-keyboard-response,143,471025,learnblock1,47.70000000298023,img/planet7_right.png,7,Community 3,NA,FALSE,f,j,NA,NA,NA,5,6,"4,14,11,5,6,15,2,12,9,10,13,3,1,8,7"
15137,commdev-image-keyboard-response,144,472278,learnblock1,74.29999999701977,img/planet13_right.png,13,Community 3,NA,FALSE,f,j,NA,NA,NA,5,6,"4,14,11,5,6,15,2,12,9,10,13,3,1,8,7"
15137,commdev-image-keyboard-response,145,473529,learnblock1,918,img/planet6_left.png,6,Community 1,NA,TRUE,f,f,NA,NA,NA,5,6,"4,14,11,5,6,15,2,12,9,10,13,3,1,8,7"
15137,commdev-image-keyboard-response,146,474781,learnblock1,843.0999999940395,img/planet13_left.png,13,Community 3,NA,FALSE,j,f,NA,NA,NA,5,6,"4,14,11,5,6,15,2,12,9,10,13,3,1,8,7"
15137,commdev-image-keyboard-response,147,476034,learnblock1,null,img/planet8_right.png,8,Community 3,NA,FALSE,null,j,NA,NA,NA,5,6,"4,14,11,5,6,15,2,12,9,10,13,3,1,8,7"
15137,commdev-image-keyboard-response,148,477290,learnblock1,4.100000008940697,img/planet1_left.png,1,Community 3,NA,FALSE,j,f,NA,NA,NA,5,6,"4,14,11,5,6,15,2,12,9,10,13,3,1,8,7"
15137,commdev-image-keyboard-response,149,478542,learnblock1,2.7999999970197678,img/planet13_left.png,13,Community 3,NA,FALSE,j,f,NA,NA,NA,5,6,"4,14,11,5,6,15,2,12,9,10,13,3,1,8,7"
15137,commdev-image-keyboard-response,150,479793,learnblock1,1060.5,img/planet1_left.png,1,Community 3,NA,TRUE,f,f,NA,NA,NA,5,6,"4,14,11,5,6,15,2,12,9,10,13,3,1,8,7"
15137,commdev-image-keyboard-response,151,481045,learnblock1,null,img/planet7_left.png,7,Community 3,NA,FALSE,null,f,NA,NA,NA,5,6,"4,14,11,5,6,15,2,12,9,10,13,3,1,8,7"
15137,commdev-image-keyboard-response,152,482296,learnblock1,1203.3999999910593,img/planet3_right.png,3,Community 3,NA,TRUE,j,j,NA,NA,NA,5,6,"4,14,11,5,6,15,2,12,9,10,13,3,1,8,7"
15137,commdev-image-keyboard-response,153,483548,learnblock1,977.2000000029802,img/planet1_right.png,1,Community 3,NA,FALSE,f,j,NA,NA,NA,5,6,"4,14,11,5,6,15,2,12,9,10,13,3,1,8,7"
15137,commdev-image-keyboard-response,154,484799,learnblock1,890.7000000029802,img/planet8_right.png,8,Community 3,NA,TRUE,j,j,NA,NA,NA,5,6,"4,14,11,5,6,15,2,12,9,10,13,3,1,8,7"
15137,commdev-image-keyboard-response,155,486051,learnblock1,null,img/planet7_left.png,7,Community 3,NA,FALSE,null,f,NA,NA,NA,5,6,"4,14,11,5,6,15,2,12,9,10,13,3,1,8,7"
15137,commdev-image-keyboard-response,156,487303,learnblock1,834.5,img/planet8_right.png,8,Community 3,NA,FALSE,f,j,NA,NA,NA,5,6,"4,14,11,5,6,15,2,12,9,10,13,3,1,8,7"
15137,commdev-image-keyboard-response,157,488554,learnblock1,1203.7999999970198,img/planet13_left.png,13,Community 3,NA,TRUE,f,f,NA,NA,NA,5,6,"4,14,11,5,6,15,2,12,9,10,13,3,1,8,7"
15137,commdev-image-keyboard-response,158,489807,learnblock1,null,img/planet8_right.png,8,Community 3,NA,FALSE,null,j,NA,NA,NA,5,6,"4,14,11,5,6,15,2,12,9,10,13,3,1,8,7"
15137,commdev-image-keyboard-response,159,491058,learnblock1,null,img/planet7_right.png,7,Community 3,NA,FALSE,null,j,NA,NA,NA,5,6,"4,14,11,5,6,15,2,12,9,10,13,3,1,8,7"
15137,commdev-image-keyboard-response,160,492309,learnblock1,28.899999991059303,img/planet8_right.png,8,Community 3,NA,TRUE,j,j,NA,NA,NA,5,6,"4,14,11,5,6,15,2,12,9,10,13,3,1,8,7"
15137,commdev-image-keyboard-response,161,493561,learnblock1,1206.7000000029802,img/planet13_right.png,13,Community 3,NA,TRUE,j,j,NA,NA,NA,5,6,"4,14,11,5,6,15,2,12,9,10,13,3,1,8,7"
15137,commdev-image-keyboard-response,162,494812,learnblock1,925.5,img/planet7_right.png,7,Community 3,NA,FALSE,f,j,NA,NA,NA,5,6,"4,14,11,5,6,15,2,12,9,10,13,3,1,8,7"
15137,commdev-image-keyboard-response,163,496063,learnblock1,30.200000002980232,img/planet13_right.png,13,Community 3,NA,TRUE,j,j,NA,NA,NA,5,6,"4,14,11,5,6,15,2,12,9,10,13,3,1,8,7"
15137,commdev-image-keyboard-response,164,497314,learnblock1,null,img/planet7_right.png,7,Community 3,NA,FALSE,null,j,NA,NA,NA,5,6,"4,14,11,5,6,15,2,12,9,10,13,3,1,8,7"
15137,commdev-image-keyboard-response,165,498565,learnblock1,242.90000000596046,img/planet8_left.png,8,Community 3,NA,FALSE,j,f,NA,NA,NA,5,6,"4,14,11,5,6,15,2,12,9,10,13,3,1,8,7"
15137,commdev-image-keyboard-response,166,499817,learnblock1,null,img/planet3_right.png,3,Community 3,NA,FALSE,null,j,NA,NA,NA,5,6,"4,14,11,5,6,15,2,12,9,10,13,3,1,8,7"
15137,commdev-image-keyboard-response,167,501069,learnblock1,1139.5,img/planet1_left.png,1,Community 3,NA,FALSE,j,f,NA,NA,NA,5,6,"4,14,11,5,6,15,2,12,9,10,13,3,1,8,7"
15137,commdev-image-keyboard-response,168,502320,learnblock1,564.2000000029802,img/planet3_right.png,3,Community 3,NA,TRUE,j,j,NA,NA,NA,5,6,"4,14,11,5,6,15,2,12,9,10,13,3,1,8,7"
15137,commdev-image-keyboard-response,169,503571,learnblock1,985.8999999910593,img/planet8_right.png,8,Community 3,NA,TRUE,j,j,NA,NA,NA,5,6,"4,14,11,5,6,15,2,12,9,10,13,3,1,8,7"
15137,commdev-image-keyboard-response,170,504823,learnblock1,570.5999999940395,img/planet3_left.png,3,Community 3,NA,TRUE,f,f,NA,NA,NA,5,6,"4,14,11,5,6,15,2,12,9,10,13,3,1,8,7"
15137,commdev-image-keyboard-response,171,506074,learnblock1,880.4000000059605,img/planet12_left.png,12,Community 2,NA,TRUE,f,f,NA,NA,NA,5,6,"4,14,11,5,6,15,2,12,9,10,13,3,1,8,7"
15137,commdev-image-keyboard-response,172,507325,learnblock1,901.5,img/planet10_left.png,10,Community 2,NA,TRUE,f,f,NA,NA,NA,5,6,"4,14,11,5,6,15,2,12,9,10,13,3,1,8,7"
15137,commdev-image-keyboard-response,173,508577,learnblock1,1119.7000000029802,img/planet15_left.png,15,Community 2,NA,FALSE,j,f,NA,NA,NA,5,6,"4,14,11,5,6,15,2,12,9,10,13,3,1,8,7"
15137,commdev-image-keyboard-response,174,509828,learnblock1,1070.6000000089407,img/planet5_left.png,5,Community 1,NA,TRUE,f,f,NA,NA,NA,5,6,"4,14,11,5,6,15,2,12,9,10,13,3,1,8,7"
15137,commdev-image-keyboard-response,175,511080,learnblock1,1124.300000011921,img/planet11_right.png,11,Community 1,NA,TRUE,j,j,NA,NA,NA,5,6,"4,14,11,5,6,15,2,12,9,10,13,3,1,8,7"
15137,commdev-image-keyboard-response,176,512331,learnblock1,1010.5,img/planet4_left.png,4,Community 1,NA,TRUE,f,f,NA,NA,NA,5,6,"4,14,11,5,6,15,2,12,9,10,13,3,1,8,7"
15137,commdev-image-keyboard-response,177,513583,learnblock1,1057.699999988079,img/planet14_right.png,14,Community 1,NA,TRUE,j,j,NA,NA,NA,5,6,"4,14,11,5,6,15,2,12,9,10,13,3,1,8,7"
15137,commdev-image-keyboard-response,178,514834,learnblock1,null,img/planet11_right.png,11,Community 1,NA,FALSE,null,j,NA,NA,NA,5,6,"4,14,11,5,6,15,2,12,9,10,13,3,1,8,7"
15137,commdev-image-keyboard-response,179,516085,learnblock1,91,img/planet4_left.png,4,Community 1,NA,TRUE,f,f,NA,NA,NA,5,6,"4,14,11,5,6,15,2,12,9,10,13,3,1,8,7"
15137,commdev-image-keyboard-response,180,517336,learnblock1,956.3999999910593,img/planet6_right.png,6,Community 1,NA,FALSE,f,j,NA,NA,NA,5,6,"4,14,11,5,6,15,2,12,9,10,13,3,1,8,7"
15137,commdev-image-keyboard-response,181,518587,learnblock1,907,img/planet13_right.png,13,Community 3,NA,TRUE,j,j,NA,NA,NA,5,6,"4,14,11,5,6,15,2,12,9,10,13,3,1,8,7"
15137,commdev-image-keyboard-response,182,519839,learnblock1,null,img/planet6_right.png,6,Community 1,NA,FALSE,null,j,NA,NA,NA,5,6,"4,14,11,5,6,15,2,12,9,10,13,3,1,8,7"
15137,commdev-image-keyboard-response,183,521091,learnblock1,147.5,img/planet4_left.png,4,Community 1,NA,FALSE,j,f,NA,NA,NA,5,6,"4,14,11,5,6,15,2,12,9,10,13,3,1,8,7"
15137,commdev-image-keyboard-response,184,522343,learnblock1,57.79999999701977,img/planet11_left.png,11,Community 1,NA,TRUE,f,f,NA,NA,NA,5,6,"4,14,11,5,6,15,2,12,9,10,13,3,1,8,7"
15137,commdev-image-keyboard-response,185,523595,learnblock1,96.1000000089407,img/planet4_right.png,4,Community 1,NA,FALSE,f,j,NA,NA,NA,5,6,"4,14,11,5,6,15,2,12,9,10,13,3,1,8,7"
15137,commdev-image-keyboard-response,186,524845,learnblock1,114.20000000298023,img/planet5_right.png,5,Community 1,NA,TRUE,j,j,NA,NA,NA,5,6,"4,14,11,5,6,15,2,12,9,10,13,3,1,8,7"
15137,commdev-image-keyboard-response,187,526097,learnblock1,null,img/planet4_left.png,4,Community 1,NA,FALSE,null,f,NA,NA,NA,5,6,"4,14,11,5,6,15,2,12,9,10,13,3,1,8,7"
15137,commdev-image-keyboard-response,188,527349,learnblock1,111.20000000298023,img/planet5_left.png,5,Community 1,NA,TRUE,f,f,NA,NA,NA,5,6,"4,14,11,5,6,15,2,12,9,10,13,3,1,8,7"
15137,commdev-image-keyboard-response,189,528600,learnblock1,1111.7999999970198,img/planet15_left.png,15,Community 2,NA,TRUE,f,f,NA,NA,NA,5,6,"4,14,11,5,6,15,2,12,9,10,13,3,1,8,7"
15137,commdev-image-keyboard-response,190,529851,learnblock1,1023.7999999970198,img/planet5_right.png,5,Community 1,NA,TRUE,j,j,NA,NA,NA,5,6,"4,14,11,5,6,15,2,12,9,10,13,3,1,8,7"
15137,commdev-image-keyboard-response,191,531103,learnblock1,952.8999999910593,img/planet11_left.png,11,Community 1,NA,TRUE,f,f,NA,NA,NA,5,6,"4,14,11,5,6,15,2,12,9,10,13,3,1,8,7"
15137,commdev-image-keyboard-response,192,532354,learnblock1,1236.2000000029802,img/planet14_right.png,14,Community 1,NA,TRUE,j,j,NA,NA,NA,5,6,"4,14,11,5,6,15,2,12,9,10,13,3,1,8,7"
15137,commdev-image-keyboard-response,193,533605,learnblock1,1180.7000000029802,img/planet6_left.png,6,Community 1,NA,TRUE,f,f,NA,NA,NA,5,6,"4,14,11,5,6,15,2,12,9,10,13,3,1,8,7"
15137,commdev-image-keyboard-response,194,534857,learnblock1,1140.5,img/planet11_right.png,11,Community 1,NA,TRUE,j,j,NA,NA,NA,5,6,"4,14,11,5,6,15,2,12,9,10,13,3,1,8,7"
15137,commdev-image-keyboard-response,195,536108,learnblock1,980.2999999970198,img/planet5_left.png,5,Community 1,NA,TRUE,f,f,NA,NA,NA,5,6,"4,14,11,5,6,15,2,12,9,10,13,3,1,8,7"
15137,commdev-image-keyboard-response,196,537360,learnblock1,1102.6000000089407,img/planet4_left.png,4,Community 1,NA,TRUE,f,f,NA,NA,NA,5,6,"4,14,11,5,6,15,2,12,9,10,13,3,1,8,7"
15137,commdev-image-keyboard-response,197,538611,learnblock1,1165.1000000089407,img/planet6_left.png,6,Community 1,NA,FALSE,j,f,NA,NA,NA,5,6,"4,14,11,5,6,15,2,12,9,10,13,3,1,8,7"
15137,commdev-image-keyboard-response,198,539863,learnblock1,1205.7000000029802,img/planet11_right.png,11,Community 1,NA,TRUE,j,j,NA,NA,NA,5,6,"4,14,11,5,6,15,2,12,9,10,13,3,1,8,7"
15137,commdev-image-keyboard-response,199,541115,learnblock1,1125.5999999940395,img/planet6_right.png,6,Community 1,NA,TRUE,j,j,NA,NA,NA,5,6,"4,14,11,5,6,15,2,12,9,10,13,3,1,8,7"
15137,commdev-image-keyboard-response,200,542367,learnblock1,null,img/planet14_left.png,14,Community 1,NA,FALSE,null,f,NA,NA,NA,5,6,"4,14,11,5,6,15,2,12,9,10,13,3,1,8,7"
15137,commdev-image-keyboard-response,201,543618,learnblock1,79,img/planet5_left.png,5,Community 1,NA,TRUE,f,f,NA,NA,NA,5,6,"4,14,11,5,6,15,2,12,9,10,13,3,1,8,7"
15137,commdev-image-keyboard-response,202,544870,learnblock1,1042.9000000059605,img/planet4_left.png,4,Community 1,NA,TRUE,f,f,NA,NA,NA,5,6,"4,14,11,5,6,15,2,12,9,10,13,3,1,8,7"
15137,commdev-image-keyboard-response,203,546122,learnblock1,null,img/planet14_left.png,14,Community 1,NA,FALSE,null,f,NA,NA,NA,5,6,"4,14,11,5,6,15,2,12,9,10,13,3,1,8,7"
15137,commdev-image-keyboard-response,204,547375,learnblock1,970.0999999940395,img/planet6_left.png,6,Community 1,NA,TRUE,f,f,NA,NA,NA,5,6,"4,14,11,5,6,15,2,12,9,10,13,3,1,8,7"
15137,commdev-image-keyboard-response,205,548626,learnblock1,1102.699999988079,img/planet4_left.png,4,Community 1,NA,TRUE,f,f,NA,NA,NA,5,6,"4,14,11,5,6,15,2,12,9,10,13,3,1,8,7"
15137,commdev-image-keyboard-response,206,549878,learnblock1,1095.5,img/planet5_left.png,5,Community 1,NA,TRUE,f,f,NA,NA,NA,5,6,"4,14,11,5,6,15,2,12,9,10,13,3,1,8,7"
15137,commdev-image-keyboard-response,207,551130,learnblock1,203.09999999403954,img/planet4_left.png,4,Community 1,NA,TRUE,f,f,NA,NA,NA,5,6,"4,14,11,5,6,15,2,12,9,10,13,3,1,8,7"
15137,commdev-image-keyboard-response,208,552381,learnblock1,null,img/planet11_left.png,11,Community 1,NA,FALSE,null,f,NA,NA,NA,5,6,"4,14,11,5,6,15,2,12,9,10,13,3,1,8,7"
15137,commdev-image-keyboard-response,209,553632,learnblock1,440,img/planet5_left.png,5,Community 1,NA,TRUE,f,f,NA,NA,NA,5,6,"4,14,11,5,6,15,2,12,9,10,13,3,1,8,7"
15137,commdev-image-keyboard-response,210,554883,learnblock1,839.1999999880791,img/planet11_left.png,11,Community 1,NA,TRUE,f,f,NA,NA,NA,5,6,"4,14,11,5,6,15,2,12,9,10,13,3,1,8,7"
15137,commdev-image-keyboard-response,211,556135,learnblock1,753.2000000029802,img/planet14_right.png,14,Community 1,NA,FALSE,f,j,NA,NA,NA,5,6,"4,14,11,5,6,15,2,12,9,10,13,3,1,8,7"
15137,commdev-image-keyboard-response,212,557386,learnblock1,968.9000000059605,img/planet5_right.png,5,Community 1,NA,FALSE,f,j,NA,NA,NA,5,6,"4,14,11,5,6,15,2,12,9,10,13,3,1,8,7"
15137,commdev-image-keyboard-response,213,558638,learnblock1,null,img/planet4_left.png,4,Community 1,NA,FALSE,null,f,NA,NA,NA,5,6,"4,14,11,5,6,15,2,12,9,10,13,3,1,8,7"
15137,commdev-image-keyboard-response,214,559891,learnblock1,852.7999999970198,img/planet5_left.png,5,Community 1,NA,FALSE,j,f,NA,NA,NA,5,6,"4,14,11,5,6,15,2,12,9,10,13,3,1,8,7"
15137,commdev-image-keyboard-response,215,561142,learnblock1,502.09999999403954,img/planet4_left.png,4,Community 1,NA,FALSE,j,f,NA,NA,NA,5,6,"4,14,11,5,6,15,2,12,9,10,13,3,1,8,7"
15137,commdev-image-keyboard-response,216,562393,learnblock1,124.19999998807907,img/planet6_right.png,6,Community 1,NA,FALSE,f,j,NA,NA,NA,5,6,"4,14,11,5,6,15,2,12,9,10,13,3,1,8,7"
15137,commdev-image-keyboard-response,217,563645,learnblock1,905.7000000029802,img/planet11_left.png,11,Community 1,NA,TRUE,f,f,NA,NA,NA,5,6,"4,14,11,5,6,15,2,12,9,10,13,3,1,8,7"
15137,commdev-image-keyboard-response,218,564897,learnblock1,833,img/planet6_right.png,6,Community 1,NA,TRUE,j,j,NA,NA,NA,5,6,"4,14,11,5,6,15,2,12,9,10,13,3,1,8,7"
15137,commdev-image-keyboard-response,219,566148,learnblock1,1204.5999999940395,img/planet13_right.png,13,Community 3,NA,TRUE,j,j,NA,NA,NA,5,6,"4,14,11,5,6,15,2,12,9,10,13,3,1,8,7"
15137,commdev-image-keyboard-response,220,567399,learnblock1,1203.5,img/planet6_left.png,6,Community 1,NA,FALSE,j,f,NA,NA,NA,5,6,"4,14,11,5,6,15,2,12,9,10,13,3,1,8,7"
15137,commdev-image-keyboard-response,221,568653,learnblock1,null,img/planet11_right.png,11,Community 1,NA,FALSE,null,j,NA,NA,NA,5,6,"4,14,11,5,6,15,2,12,9,10,13,3,1,8,7"
15137,commdev-image-keyboard-response,222,569905,learnblock1,78.1000000089407,img/planet14_left.png,14,Community 1,NA,FALSE,j,f,NA,NA,NA,5,6,"4,14,11,5,6,15,2,12,9,10,13,3,1,8,7"
15137,commdev-image-keyboard-response,223,571157,learnblock1,819.5,img/planet4_right.png,4,Community 1,NA,FALSE,f,j,NA,NA,NA,5,6,"4,14,11,5,6,15,2,12,9,10,13,3,1,8,7"
15137,commdev-image-keyboard-response,224,572409,learnblock1,0.7000000029802322,img/planet11_right.png,11,Community 1,NA,TRUE,j,j,NA,NA,NA,5,6,"4,14,11,5,6,15,2,12,9,10,13,3,1,8,7"
15137,commdev-image-keyboard-response,225,573660,learnblock1,851.8999999910593,img/planet4_left.png,4,Community 1,NA,FALSE,j,f,NA,NA,NA,5,6,"4,14,11,5,6,15,2,12,9,10,13,3,1,8,7"
15137,commdev-image-keyboard-response,226,574911,learnblock1,137.90000000596046,img/planet11_left.png,11,Community 1,NA,TRUE,f,f,NA,NA,NA,5,6,"4,14,11,5,6,15,2,12,9,10,13,3,1,8,7"
15137,commdev-image-keyboard-response,227,576163,learnblock1,1191.5,img/planet14_left.png,14,Community 1,NA,TRUE,f,f,NA,NA,NA,5,6,"4,14,11,5,6,15,2,12,9,10,13,3,1,8,7"
15137,commdev-image-keyboard-response,228,577415,learnblock1,1122.6000000089407,img/planet11_right.png,11,Community 1,NA,FALSE,f,j,NA,NA,NA,5,6,"4,14,11,5,6,15,2,12,9,10,13,3,1,8,7"
15137,commdev-image-keyboard-response,229,578667,learnblock1,1137.699999988079,img/planet6_left.png,6,Community 1,NA,FALSE,j,f,NA,NA,NA,5,6,"4,14,11,5,6,15,2,12,9,10,13,3,1,8,7"
15137,commdev-image-keyboard-response,230,579919,learnblock1,null,img/planet14_right.png,14,Community 1,NA,FALSE,null,j,NA,NA,NA,5,6,"4,14,11,5,6,15,2,12,9,10,13,3,1,8,7"
15137,commdev-image-keyboard-response,231,581170,learnblock1,55.099999994039536,img/planet6_right.png,6,Community 1,NA,FALSE,f,j,NA,NA,NA,5,6,"4,14,11,5,6,15,2,12,9,10,13,3,1,8,7"
15137,commdev-image-keyboard-response,232,582422,learnblock1,1192.2999999970198,img/planet13_left.png,13,Community 3,NA,TRUE,f,f,NA,NA,NA,5,6,"4,14,11,5,6,15,2,12,9,10,13,3,1,8,7"
15137,commdev-image-keyboard-response,233,583673,learnblock1,1169.8999999910593,img/planet1_left.png,1,Community 3,NA,TRUE,f,f,NA,NA,NA,5,6,"4,14,11,5,6,15,2,12,9,10,13,3,1,8,7"
15137,commdev-image-keyboard-response,234,584925,learnblock1,925.1000000089407,img/planet13_right.png,13,Community 3,NA,TRUE,j,j,NA,NA,NA,5,6,"4,14,11,5,6,15,2,12,9,10,13,3,1,8,7"
15137,commdev-image-keyboard-response,235,586175,learnblock1,918.2999999970198,img/planet1_left.png,1,Community 3,NA,TRUE,f,f,NA,NA,NA,5,6,"4,14,11,5,6,15,2,12,9,10,13,3,1,8,7"
15137,commdev-image-keyboard-response,236,587427,learnblock1,926.1000000089407,img/planet7_left.png,7,Community 3,NA,FALSE,j,f,NA,NA,NA,5,6,"4,14,11,5,6,15,2,12,9,10,13,3,1,8,7"
15137,commdev-image-keyboard-response,237,588678,learnblock1,842.7999999970198,img/planet1_left.png,1,Community 3,NA,TRUE,f,f,NA,NA,NA,5,6,"4,14,11,5,6,15,2,12,9,10,13,3,1,8,7"
15137,commdev-image-keyboard-response,238,589929,learnblock1,1198.2000000029802,img/planet8_right.png,8,Community 3,NA,TRUE,j,j,NA,NA,NA,5,6,"4,14,11,5,6,15,2,12,9,10,13,3,1,8,7"
15137,commdev-image-keyboard-response,239,591181,learnblock1,1023.5,img/planet1_left.png,1,Community 3,NA,TRUE,f,f,NA,NA,NA,5,6,"4,14,11,5,6,15,2,12,9,10,13,3,1,8,7"
15137,commdev-image-keyboard-response,240,592432,learnblock1,1053.3999999910593,img/planet3_left.png,3,Community 3,NA,FALSE,j,f,NA,NA,NA,5,6,"4,14,11,5,6,15,2,12,9,10,13,3,1,8,7"
15137,commdev-image-keyboard-response,241,593683,learnblock1,1243.6000000089407,img/planet7_left.png,7,Community 3,NA,TRUE,f,f,NA,NA,NA,5,6,"4,14,11,5,6,15,2,12,9,10,13,3,1,8,7"
15137,commdev-image-keyboard-response,242,594934,learnblock1,825.2000000029802,img/planet3_left.png,3,Community 3,NA,FALSE,j,f,NA,NA,NA,5,6,"4,14,11,5,6,15,2,12,9,10,13,3,1,8,7"
15137,commdev-image-keyboard-response,243,596195,learnblock1,70.70000000298023,img/planet12_right.png,12,Community 2,NA,TRUE,j,j,NA,NA,NA,5,6,"4,14,11,5,6,15,2,12,9,10,13,3,1,8,7"
15137,commdev-image-keyboard-response,244,597447,learnblock1,1120.5,img/planet2_left.png,2,Community 2,NA,TRUE,f,f,NA,NA,NA,5,6,"4,14,11,5,6,15,2,12,9,10,13,3,1,8,7"
15137,commdev-image-keyboard-response,245,598698,learnblock1,849.7999999970198,img/planet10_left.png,10,Community 2,NA,FALSE,j,f,NA,NA,NA,5,6,"4,14,11,5,6,15,2,12,9,10,13,3,1,8,7"
15137,commdev-image-keyboard-response,246,599949,learnblock1,1140.6000000089407,img/planet15_left.png,15,Community 2,NA,FALSE,j,f,NA,NA,NA,5,6,"4,14,11,5,6,15,2,12,9,10,13,3,1,8,7"
15137,commdev-image-keyboard-response,247,601201,learnblock1,1223.4000000059605,img/planet10_left.png,10,Community 2,NA,TRUE,f,f,NA,NA,NA,5,6,"4,14,11,5,6,15,2,12,9,10,13,3,1,8,7"
15137,commdev-image-keyboard-response,248,602452,learnblock1,449.80000001192093,img/planet2_right.png,2,Community 2,NA,TRUE,j,j,NA,NA,NA,5,6,"4,14,11,5,6,15,2,12,9,10,13,3,1,8,7"
15137,commdev-image-keyboard-response,249,603703,learnblock1,null,img/planet10_left.png,10,Community 2,NA,FALSE,null,f,NA,NA,NA,5,6,"4,14,11,5,6,15,2,12,9,10,13,3,1,8,7"
15137,commdev-image-keyboard-response,250,604954,learnblock1,20.599999994039536,img/planet9_right.png,9,Community 2,NA,TRUE,j,j,NA,NA,NA,5,6,"4,14,11,5,6,15,2,12,9,10,13,3,1,8,7"
15137,commdev-image-keyboard-response,251,606206,learnblock1,65.5,img/planet10_right.png,10,Community 2,NA,FALSE,f,j,NA,NA,NA,5,6,"4,14,11,5,6,15,2,12,9,10,13,3,1,8,7"
15137,commdev-image-keyboard-response,252,607458,learnblock1,1101,img/planet12_left.png,12,Community 2,NA,FALSE,j,f,NA,NA,NA,5,6,"4,14,11,5,6,15,2,12,9,10,13,3,1,8,7"
15137,commdev-image-keyboard-response,253,608710,learnblock1,null,img/planet2_right.png,2,Community 2,NA,FALSE,null,j,NA,NA,NA,5,6,"4,14,11,5,6,15,2,12,9,10,13,3,1,8,7"
15137,commdev-image-keyboard-response,254,609963,learnblock1,49.400000005960464,img/planet9_left.png,9,Community 2,NA,FALSE,j,f,NA,NA,NA,5,6,"4,14,11,5,6,15,2,12,9,10,13,3,1,8,7"
15137,commdev-image-keyboard-response,255,611215,learnblock1,70.3999999910593,img/planet2_left.png,2,Community 2,NA,FALSE,j,f,NA,NA,NA,5,6,"4,14,11,5,6,15,2,12,9,10,13,3,1,8,7"
15137,commdev-image-keyboard-response,256,612471,learnblock1,null,img/planet15_left.png,15,Community 2,NA,FALSE,null,f,NA,NA,NA,5,6,"4,14,11,5,6,15,2,12,9,10,13,3,1,8,7"
15137,commdev-image-keyboard-response,257,613722,learnblock1,1202.1000000089407,img/planet5_right.png,5,Community 1,NA,TRUE,j,j,NA,NA,NA,5,6,"4,14,11,5,6,15,2,12,9,10,13,3,1,8,7"
15137,commdev-image-keyboard-response,258,614974,learnblock1,null,img/planet4_left.png,4,Community 1,NA,FALSE,null,f,NA,NA,NA,5,6,"4,14,11,5,6,15,2,12,9,10,13,3,1,8,7"
15137,commdev-image-keyboard-response,259,616225,learnblock1,179.1000000089407,img/planet11_right.png,11,Community 1,NA,FALSE,f,j,NA,NA,NA,5,6,"4,14,11,5,6,15,2,12,9,10,13,3,1,8,7"
15137,commdev-image-keyboard-response,260,617476,learnblock1,323.20000000298023,img/planet14_right.png,14,Community 1,NA,TRUE,j,j,NA,NA,NA,5,6,"4,14,11,5,6,15,2,12,9,10,13,3,1,8,7"
15137,commdev-image-keyboard-response,261,618728,learnblock1,550.1999999880791,img/planet4_left.png,4,Community 1,NA,FALSE,j,f,NA,NA,NA,5,6,"4,14,11,5,6,15,2,12,9,10,13,3,1,8,7"
15137,commdev-image-keyboard-response,262,619979,learnblock1,260.40000000596046,img/planet14_right.png,14,Community 1,NA,TRUE,j,j,NA,NA,NA,5,6,"4,14,11,5,6,15,2,12,9,10,13,3,1,8,7"
15137,commdev-image-keyboard-response,263,621230,learnblock1,1223.0999999940395,img/planet11_right.png,11,Community 1,NA,FALSE,f,j,NA,NA,NA,5,6,"4,14,11,5,6,15,2,12,9,10,13,3,1,8,7"
15137,commdev-image-keyboard-response,264,622482,learnblock1,330,img/planet6_left.png,6,Community 1,NA,FALSE,j,f,NA,NA,NA,5,6,"4,14,11,5,6,15,2,12,9,10,13,3,1,8,7"
15137,commdev-image-keyboard-response,265,623734,learnblock1,null,img/planet13_right.png,13,Community 3,NA,FALSE,null,j,NA,NA,NA,5,6,"4,14,11,5,6,15,2,12,9,10,13,3,1,8,7"
15137,commdev-image-keyboard-response,266,624985,learnblock1,68.90000000596046,img/planet6_left.png,6,Community 1,NA,FALSE,j,f,NA,NA,NA,5,6,"4,14,11,5,6,15,2,12,9,10,13,3,1,8,7"
15137,commdev-image-keyboard-response,267,626237,learnblock1,746.2999999970198,img/planet13_left.png,13,Community 3,NA,FALSE,j,f,NA,NA,NA,5,6,"4,14,11,5,6,15,2,12,9,10,13,3,1,8,7"
15137,commdev-image-keyboard-response,268,627488,learnblock1,266.29999999701977,img/planet1_right.png,1,Community 3,NA,FALSE,f,j,NA,NA,NA,5,6,"4,14,11,5,6,15,2,12,9,10,13,3,1,8,7"
15137,commdev-image-keyboard-response,269,628740,learnblock1,33.70000000298023,img/planet7_right.png,7,Community 3,NA,TRUE,j,j,NA,NA,NA,5,6,"4,14,11,5,6,15,2,12,9,10,13,3,1,8,7"
15137,commdev-image-keyboard-response,270,629992,learnblock1,387,img/planet1_right.png,1,Community 3,NA,TRUE,j,j,NA,NA,NA,5,6,"4,14,11,5,6,15,2,12,9,10,13,3,1,8,7"
15137,commdev-image-keyboard-response,271,631243,learnblock1,132.29999999701977,img/planet8_right.png,8,Community 3,NA,TRUE,j,j,NA,NA,NA,5,6,"4,14,11,5,6,15,2,12,9,10,13,3,1,8,7"
15137,commdev-image-keyboard-response,272,632494,learnblock1,null,img/planet3_right.png,3,Community 3,NA,FALSE,null,j,NA,NA,NA,5,6,"4,14,11,5,6,15,2,12,9,10,13,3,1,8,7"
15137,commdev-image-keyboard-response,273,633745,learnblock1,80,img/planet8_left.png,8,Community 3,NA,FALSE,j,f,NA,NA,NA,5,6,"4,14,11,5,6,15,2,12,9,10,13,3,1,8,7"
15137,commdev-image-keyboard-response,274,634997,learnblock1,247.90000000596046,img/planet1_right.png,1,Community 3,NA,TRUE,j,j,NA,NA,NA,5,6,"4,14,11,5,6,15,2,12,9,10,13,3,1,8,7"
15137,commdev-image-keyboard-response,275,636249,learnblock1,156.59999999403954,img/planet8_right.png,8,Community 3,NA,FALSE,f,j,NA,NA,NA,5,6,"4,14,11,5,6,15,2,12,9,10,13,3,1,8,7"
15137,commdev-image-keyboard-response,276,637500,learnblock1,593.6000000089407,img/planet3_left.png,3,Community 3,NA,TRUE,f,f,NA,NA,NA,5,6,"4,14,11,5,6,15,2,12,9,10,13,3,1,8,7"
15137,commdev-image-keyboard-response,277,638752,learnblock1,601.2999999970198,img/planet12_left.png,12,Community 2,NA,FALSE,j,f,NA,NA,NA,5,6,"4,14,11,5,6,15,2,12,9,10,13,3,1,8,7"
15137,commdev-image-keyboard-response,278,640004,learnblock1,225.5,img/planet3_right.png,3,Community 3,NA,FALSE,f,j,NA,NA,NA,5,6,"4,14,11,5,6,15,2,12,9,10,13,3,1,8,7"
15137,commdev-image-keyboard-response,279,641256,learnblock1,324.09999999403954,img/planet7_right.png,7,Community 3,NA,TRUE,j,j,NA,NA,NA,5,6,"4,14,11,5,6,15,2,12,9,10,13,3,1,8,7"
15137,commdev-image-keyboard-response,280,642507,learnblock1,null,img/planet1_left.png,1,Community 3,NA,FALSE,null,f,NA,NA,NA,5,6,"4,14,11,5,6,15,2,12,9,10,13,3,1,8,7"
15137,commdev-image-keyboard-response,281,643758,learnblock1,133.5,img/planet13_left.png,13,Community 3,NA,TRUE,f,f,NA,NA,NA,5,6,"4,14,11,5,6,15,2,12,9,10,13,3,1,8,7"
15137,commdev-image-keyboard-response,282,645010,learnblock1,null,img/planet7_left.png,7,Community 3,NA,FALSE,null,f,NA,NA,NA,5,6,"4,14,11,5,6,15,2,12,9,10,13,3,1,8,7"
15137,commdev-image-keyboard-response,283,646262,learnblock1,21.5,img/planet8_left.png,8,Community 3,NA,TRUE,f,f,NA,NA,NA,5,6,"4,14,11,5,6,15,2,12,9,10,13,3,1,8,7"
15137,commdev-image-keyboard-response,284,647513,learnblock1,null,img/planet13_left.png,13,Community 3,NA,FALSE,null,f,NA,NA,NA,5,6,"4,14,11,5,6,15,2,12,9,10,13,3,1,8,7"
15137,commdev-image-keyboard-response,285,648764,learnblock1,86.70000000298023,img/planet7_left.png,7,Community 3,NA,TRUE,f,f,NA,NA,NA,5,6,"4,14,11,5,6,15,2,12,9,10,13,3,1,8,7"
15137,commdev-image-keyboard-response,286,650017,learnblock1,1035.5,img/planet8_left.png,8,Community 3,NA,TRUE,f,f,NA,NA,NA,5,6,"4,14,11,5,6,15,2,12,9,10,13,3,1,8,7"
15137,commdev-image-keyboard-response,287,651268,learnblock1,280.1000000089407,img/planet3_left.png,3,Community 3,NA,FALSE,j,f,NA,NA,NA,5,6,"4,14,11,5,6,15,2,12,9,10,13,3,1,8,7"
15137,commdev-image-keyboard-response,288,652519,learnblock1,1189.5999999940395,img/planet8_left.png,8,Community 3,NA,FALSE,j,f,NA,NA,NA,5,6,"4,14,11,5,6,15,2,12,9,10,13,3,1,8,7"
15137,commdev-image-keyboard-response,289,653771,learnblock1,null,img/planet1_left.png,1,Community 3,NA,FALSE,null,f,NA,NA,NA,5,6,"4,14,11,5,6,15,2,12,9,10,13,3,1,8,7"
15137,commdev-image-keyboard-response,290,655023,learnblock1,1190.7000000029802,img/planet8_right.png,8,Community 3,NA,TRUE,j,j,NA,NA,NA,5,6,"4,14,11,5,6,15,2,12,9,10,13,3,1,8,7"
15137,commdev-image-keyboard-response,291,656275,learnblock1,null,img/planet3_left.png,3,Community 3,NA,FALSE,null,f,NA,NA,NA,5,6,"4,14,11,5,6,15,2,12,9,10,13,3,1,8,7"
15137,commdev-image-keyboard-response,292,657527,learnblock1,1128.1000000089407,img/planet1_left.png,1,Community 3,NA,TRUE,f,f,NA,NA,NA,5,6,"4,14,11,5,6,15,2,12,9,10,13,3,1,8,7"
15137,commdev-image-keyboard-response,293,658779,learnblock1,1041.7999999970198,img/planet13_right.png,13,Community 3,NA,TRUE,j,j,NA,NA,NA,5,6,"4,14,11,5,6,15,2,12,9,10,13,3,1,8,7"
15137,commdev-image-keyboard-response,294,660031,learnblock1,null,img/planet8_left.png,8,Community 3,NA,FALSE,null,f,NA,NA,NA,5,6,"4,14,11,5,6,15,2,12,9,10,13,3,1,8,7"
15137,commdev-image-keyboard-response,295,661283,learnblock1,222.69999998807907,img/planet1_right.png,1,Community 3,NA,TRUE,j,j,NA,NA,NA,5,6,"4,14,11,5,6,15,2,12,9,10,13,3,1,8,7"
15137,commdev-image-keyboard-response,296,662535,learnblock1,1100.6000000089407,img/planet3_right.png,3,Community 3,NA,FALSE,f,j,NA,NA,NA,5,6,"4,14,11,5,6,15,2,12,9,10,13,3,1,8,7"
15137,commdev-image-keyboard-response,297,663787,learnblock1,970.7999999970198,img/planet7_right.png,7,Community 3,NA,TRUE,j,j,NA,NA,NA,5,6,"4,14,11,5,6,15,2,12,9,10,13,3,1,8,7"
15137,commdev-image-keyboard-response,298,665038,learnblock1,1159.2000000029802,img/planet8_left.png,8,Community 3,NA,FALSE,j,f,NA,NA,NA,5,6,"4,14,11,5,6,15,2,12,9,10,13,3,1,8,7"
15137,commdev-image-keyboard-response,299,666289,learnblock1,null,img/planet1_right.png,1,Community 3,NA,FALSE,null,j,NA,NA,NA,5,6,"4,14,11,5,6,15,2,12,9,10,13,3,1,8,7"
15137,commdev-image-keyboard-response,300,667541,learnblock1,952.5,img/planet7_right.png,7,Community 3,NA,TRUE,j,j,NA,NA,NA,5,6,"4,14,11,5,6,15,2,12,9,10,13,3,1,8,7"
15137,commdev-image-keyboard-response,301,668792,learnblock1,545.6999999880791,img/planet3_right.png,3,Community 3,NA,TRUE,j,j,NA,NA,NA,5,6,"4,14,11,5,6,15,2,12,9,10,13,3,1,8,7"
15137,commdev-image-keyboard-response,302,670043,learnblock1,947.6000000089407,img/planet12_left.png,12,Community 2,NA,TRUE,f,f,NA,NA,NA,5,6,"4,14,11,5,6,15,2,12,9,10,13,3,1,8,7"
15137,commdev-image-keyboard-response,303,671295,learnblock1,853.9000000059605,img/planet3_left.png,3,Community 3,NA,FALSE,j,f,NA,NA,NA,5,6,"4,14,11,5,6,15,2,12,9,10,13,3,1,8,7"
15137,commdev-image-keyboard-response,304,672547,learnblock1,1195.9000000059605,img/planet1_right.png,1,Community 3,NA,FALSE,f,j,NA,NA,NA,5,6,"4,14,11,5,6,15,2,12,9,10,13,3,1,8,7"
15137,commdev-image-keyboard-response,305,673798,learnblock1,1196,img/planet13_right.png,13,Community 3,NA,TRUE,j,j,NA,NA,NA,5,6,"4,14,11,5,6,15,2,12,9,10,13,3,1,8,7"
15137,commdev-image-keyboard-response,306,675048,learnblock1,null,img/planet8_left.png,8,Community 3,NA,FALSE,null,f,NA,NA,NA,5,6,"4,14,11,5,6,15,2,12,9,10,13,3,1,8,7"
15137,commdev-image-keyboard-response,307,676313,learnblock1,194.29999999701977,img/planet3_right.png,3,Community 3,NA,FALSE,f,j,NA,NA,NA,5,6,"4,14,11,5,6,15,2,12,9,10,13,3,1,8,7"
15137,commdev-image-keyboard-response,308,677565,learnblock1,994.8999999910593,img/planet12_right.png,12,Community 2,NA,FALSE,f,j,NA,NA,NA,5,6,"4,14,11,5,6,15,2,12,9,10,13,3,1,8,7"
15137,commdev-image-keyboard-response,309,678830,learnblock1,19.200000002980232,img/planet2_right.png,2,Community 2,NA,TRUE,j,j,NA,NA,NA,5,6,"4,14,11,5,6,15,2,12,9,10,13,3,1,8,7"
15137,commdev-image-keyboard-response,310,680083,learnblock1,875.0999999940395,img/planet12_left.png,12,Community 2,NA,TRUE,f,f,NA,NA,NA,5,6,"4,14,11,5,6,15,2,12,9,10,13,3,1,8,7"
15137,commdev-image-keyboard-response,311,681334,learnblock1,845.7999999970198,img/planet9_left.png,9,Community 2,NA,FALSE,j,f,NA,NA,NA,5,6,"4,14,11,5,6,15,2,12,9,10,13,3,1,8,7"
15137,commdev-image-keyboard-response,312,682586,learnblock1,675.7999999970198,img/planet12_left.png,12,Community 2,NA,FALSE,j,f,NA,NA,NA,5,6,"4,14,11,5,6,15,2,12,9,10,13,3,1,8,7"
15137,commdev-image-keyboard-response,313,683837,learnblock1,16.5,img/planet10_left.png,10,Community 2,NA,TRUE,f,f,NA,NA,NA,5,6,"4,14,11,5,6,15,2,12,9,10,13,3,1,8,7"
15137,commdev-image-keyboard-response,314,685088,learnblock1,1062.0999999940395,img/planet9_left.png,9,Community 2,NA,TRUE,f,f,NA,NA,NA,5,6,"4,14,11,5,6,15,2,12,9,10,13,3,1,8,7"
15137,commdev-image-keyboard-response,315,686340,learnblock1,1211.7999999970198,img/planet15_left.png,15,Community 2,NA,TRUE,f,f,NA,NA,NA,5,6,"4,14,11,5,6,15,2,12,9,10,13,3,1,8,7"
15137,commdev-image-keyboard-response,316,687592,learnblock1,1222.2999999970198,img/planet9_left.png,9,Community 2,NA,FALSE,j,f,NA,NA,NA,5,6,"4,14,11,5,6,15,2,12,9,10,13,3,1,8,7"
15137,commdev-image-keyboard-response,317,688843,learnblock1,null,img/planet12_left.png,12,Community 2,NA,FALSE,null,f,NA,NA,NA,5,6,"4,14,11,5,6,15,2,12,9,10,13,3,1,8,7"
15137,commdev-image-keyboard-response,318,690093,learnblock1,235.09999999403954,img/planet9_left.png,9,Community 2,NA,FALSE,j,f,NA,NA,NA,5,6,"4,14,11,5,6,15,2,12,9,10,13,3,1,8,7"
15137,commdev-image-keyboard-response,319,691344,learnblock1,206.20000000298023,img/planet10_left.png,10,Community 2,NA,TRUE,f,f,NA,NA,NA,5,6,"4,14,11,5,6,15,2,12,9,10,13,3,1,8,7"
15137,commdev-image-keyboard-response,320,692595,learnblock1,569.8999999910593,img/planet2_left.png,2,Community 2,NA,TRUE,f,f,NA,NA,NA,5,6,"4,14,11,5,6,15,2,12,9,10,13,3,1,8,7"
15137,commdev-image-keyboard-response,321,693847,learnblock1,311,img/planet10_right.png,10,Community 2,NA,FALSE,f,j,NA,NA,NA,5,6,"4,14,11,5,6,15,2,12,9,10,13,3,1,8,7"
15137,commdev-image-keyboard-response,322,695098,learnblock1,null,img/planet9_right.png,9,Community 2,NA,FALSE,null,j,NA,NA,NA,5,6,"4,14,11,5,6,15,2,12,9,10,13,3,1,8,7"
15137,commdev-image-keyboard-response,323,696350,learnblock1,831.2000000029802,img/planet15_left.png,15,Community 2,NA,FALSE,j,f,NA,NA,NA,5,6,"4,14,11,5,6,15,2,12,9,10,13,3,1,8,7"
15137,commdev-image-keyboard-response,324,697602,learnblock1,497.59999999403954,img/planet9_left.png,9,Community 2,NA,FALSE,j,f,NA,NA,NA,5,6,"4,14,11,5,6,15,2,12,9,10,13,3,1,8,7"
15137,commdev-image-keyboard-response,325,698853,learnblock1,930.8999999910593,img/planet15_left.png,15,Community 2,NA,FALSE,j,f,NA,NA,NA,5,6,"4,14,11,5,6,15,2,12,9,10,13,3,1,8,7"
15137,commdev-image-keyboard-response,326,700104,learnblock1,748.3000000119209,img/planet10_right.png,10,Community 2,NA,TRUE,j,j,NA,NA,NA,5,6,"4,14,11,5,6,15,2,12,9,10,13,3,1,8,7"
15137,commdev-image-keyboard-response,327,701356,learnblock1,925.7000000029802,img/planet9_left.png,9,Community 2,NA,FALSE,j,f,NA,NA,NA,5,6,"4,14,11,5,6,15,2,12,9,10,13,3,1,8,7"
15137,commdev-image-keyboard-response,328,702607,learnblock1,1049.5,img/planet12_left.png,12,Community 2,NA,TRUE,f,f,NA,NA,NA,5,6,"4,14,11,5,6,15,2,12,9,10,13,3,1,8,7"
15137,commdev-image-keyboard-response,329,703858,learnblock1,1025.8999999910593,img/planet9_left.png,9,Community 2,NA,TRUE,f,f,NA,NA,NA,5,6,"4,14,11,5,6,15,2,12,9,10,13,3,1,8,7"
15137,commdev-image-keyboard-response,330,705110,learnblock1,1078.7000000029802,img/planet15_right.png,15,Community 2,NA,TRUE,j,j,NA,NA,NA,5,6,"4,14,11,5,6,15,2,12,9,10,13,3,1,8,7"
15137,commdev-image-keyboard-response,331,706362,learnblock1,1141.2000000029802,img/planet9_right.png,9,Community 2,NA,TRUE,j,j,NA,NA,NA,5,6,"4,14,11,5,6,15,2,12,9,10,13,3,1,8,7"
15137,commdev-image-keyboard-response,332,707614,learnblock1,960.5,img/planet12_left.png,12,Community 2,NA,FALSE,j,f,NA,NA,NA,5,6,"4,14,11,5,6,15,2,12,9,10,13,3,1,8,7"
15137,commdev-image-keyboard-response,333,708865,learnblock1,192,img/planet3_left.png,3,Community 3,NA,TRUE,f,f,NA,NA,NA,5,6,"4,14,11,5,6,15,2,12,9,10,13,3,1,8,7"
15137,commdev-image-keyboard-response,334,710117,learnblock1,147.69999998807907,img/planet8_right.png,8,Community 3,NA,FALSE,f,j,NA,NA,NA,5,6,"4,14,11,5,6,15,2,12,9,10,13,3,1,8,7"
15137,commdev-image-keyboard-response,335,711368,learnblock1,1158.2000000029802,img/planet3_left.png,3,Community 3,NA,FALSE,j,f,NA,NA,NA,5,6,"4,14,11,5,6,15,2,12,9,10,13,3,1,8,7"
15137,commdev-image-keyboard-response,336,712619,learnblock1,1239.2999999970198,img/planet7_left.png,7,Community 3,NA,TRUE,f,f,NA,NA,NA,5,6,"4,14,11,5,6,15,2,12,9,10,13,3,1,8,7"
15137,commdev-image-keyboard-response,337,713871,learnblock1,974.7000000029802,img/planet3_left.png,3,Community 3,NA,FALSE,j,f,NA,NA,NA,5,6,"4,14,11,5,6,15,2,12,9,10,13,3,1,8,7"
15137,commdev-image-keyboard-response,338,715122,learnblock1,1216.2999999970198,img/planet8_left.png,8,Community 3,NA,FALSE,j,f,NA,NA,NA,5,6,"4,14,11,5,6,15,2,12,9,10,13,3,1,8,7"
15137,commdev-image-keyboard-response,339,716374,learnblock1,228.90000000596046,img/planet13_left.png,13,Community 3,NA,TRUE,f,f,NA,NA,NA,5,6,"4,14,11,5,6,15,2,12,9,10,13,3,1,8,7"
15137,commdev-image-keyboard-response,340,717625,learnblock1,977.7999999970198,img/planet6_right.png,6,Community 1,NA,TRUE,j,j,NA,NA,NA,5,6,"4,14,11,5,6,15,2,12,9,10,13,3,1,8,7"
15137,commdev-image-keyboard-response,341,718877,learnblock1,null,img/planet14_right.png,14,Community 1,NA,FALSE,null,j,NA,NA,NA,5,6,"4,14,11,5,6,15,2,12,9,10,13,3,1,8,7"
15137,commdev-image-keyboard-response,342,720128,learnblock1,173.20000000298023,img/planet11_right.png,11,Community 1,NA,TRUE,j,j,NA,NA,NA,5,6,"4,14,11,5,6,15,2,12,9,10,13,3,1,8,7"
15137,commdev-image-keyboard-response,343,721380,learnblock1,776.1999999880791,img/planet4_left.png,4,Community 1,NA,FALSE,j,f,NA,NA,NA,5,6,"4,14,11,5,6,15,2,12,9,10,13,3,1,8,7"
15137,commdev-image-keyboard-response,344,722631,learnblock1,1093.5999999940395,img/planet5_left.png,5,Community 1,NA,FALSE,j,f,NA,NA,NA,5,6,"4,14,11,5,6,15,2,12,9,10,13,3,1,8,7"
15137,commdev-image-keyboard-response,345,723883,learnblock1,143,img/planet15_left.png,15,Community 2,NA,TRUE,f,f,NA,NA,NA,5,6,"4,14,11,5,6,15,2,12,9,10,13,3,1,8,7"
15137,commdev-image-keyboard-response,346,725134,learnblock1,1240.2999999970198,img/planet9_right.png,9,Community 2,NA,FALSE,f,j,NA,NA,NA,5,6,"4,14,11,5,6,15,2,12,9,10,13,3,1,8,7"
15137,commdev-image-keyboard-response,347,726387,learnblock1,717,img/planet12_left.png,12,Community 2,NA,FALSE,j,f,NA,NA,NA,5,6,"4,14,11,5,6,15,2,12,9,10,13,3,1,8,7"
15137,commdev-image-keyboard-response,351,778075,learnblock2,0.29999999701976776,img/planet15_right.png,15,Community 2,NA,TRUE,j,j,NA,NA,NA,5,6,"4,14,11,5,6,15,2,12,9,10,13,3,1,8,7"
15137,commdev-image-keyboard-response,352,779327,learnblock2,838.6000000089407,img/planet10_right.png,10,Community 2,NA,TRUE,j,j,NA,NA,NA,5,6,"4,14,11,5,6,15,2,12,9,10,13,3,1,8,7"
15137,commdev-image-keyboard-response,353,780579,learnblock2,662.2999999970198,img/planet2_left.png,2,Community 2,NA,TRUE,f,f,NA,NA,NA,5,6,"4,14,11,5,6,15,2,12,9,10,13,3,1,8,7"
15137,commdev-image-keyboard-response,354,781830,learnblock2,1157.7000000029802,img/planet9_left.png,9,Community 2,NA,TRUE,f,f,NA,NA,NA,5,6,"4,14,11,5,6,15,2,12,9,10,13,3,1,8,7"
15137,commdev-image-keyboard-response,355,783081,learnblock2,930.0999999940395,img/planet15_right.png,15,Community 2,NA,TRUE,j,j,NA,NA,NA,5,6,"4,14,11,5,6,15,2,12,9,10,13,3,1,8,7"
15137,commdev-image-keyboard-response,356,784333,learnblock2,808.5,img/planet5_left.png,5,Community 1,NA,TRUE,f,f,NA,NA,NA,5,6,"4,14,11,5,6,15,2,12,9,10,13,3,1,8,7"
15137,commdev-image-keyboard-response,357,785584,learnblock2,1082.0999999940395,img/planet14_right.png,14,Community 1,NA,TRUE,j,j,NA,NA,NA,5,6,"4,14,11,5,6,15,2,12,9,10,13,3,1,8,7"
15137,commdev-image-keyboard-response,358,786836,learnblock2,1136.2000000029802,img/planet6_left.png,6,Community 1,NA,TRUE,f,f,NA,NA,NA,5,6,"4,14,11,5,6,15,2,12,9,10,13,3,1,8,7"
15137,commdev-image-keyboard-response,359,788088,learnblock2,1011,img/planet11_right.png,11,Community 1,NA,TRUE,j,j,NA,NA,NA,5,6,"4,14,11,5,6,15,2,12,9,10,13,3,1,8,7"
15137,commdev-image-keyboard-response,360,789339,learnblock2,1056.7000000029802,img/planet6_right.png,6,Community 1,NA,TRUE,j,j,NA,NA,NA,5,6,"4,14,11,5,6,15,2,12,9,10,13,3,1,8,7"
15137,commdev-image-keyboard-response,361,790591,learnblock2,908.5,img/planet13_right.png,13,Community 3,NA,TRUE,j,j,NA,NA,NA,5,6,"4,14,11,5,6,15,2,12,9,10,13,3,1,8,7"
15137,commdev-image-keyboard-response,362,791843,learnblock2,1066.8999999910593,img/planet7_left.png,7,Community 3,NA,TRUE,f,f,NA,NA,NA,5,6,"4,14,11,5,6,15,2,12,9,10,13,3,1,8,7"
15137,commdev-image-keyboard-response,363,793094,learnblock2,52.099999994039536,img/planet3_right.png,3,Community 3,NA,FALSE,f,j,NA,NA,NA,5,6,"4,14,11,5,6,15,2,12,9,10,13,3,1,8,7"
15137,commdev-image-keyboard-response,364,794346,learnblock2,886.7999999970198,img/planet1_left.png,1,Community 3,NA,TRUE,f,f,NA,NA,NA,5,6,"4,14,11,5,6,15,2,12,9,10,13,3,1,8,7"
15137,commdev-image-keyboard-response,365,795597,learnblock2,948.5999999940395,img/planet8_left.png,8,Community 3,NA,FALSE,j,f,NA,NA,NA,5,6,"4,14,11,5,6,15,2,12,9,10,13,3,1,8,7"
15137,commdev-image-keyboard-response,366,796849,learnblock2,1028.7999999970198,img/planet1_right.png,1,Community 3,NA,TRUE,j,j,NA,NA,NA,5,6,"4,14,11,5,6,15,2,12,9,10,13,3,1,8,7"
15137,commdev-image-keyboard-response,367,798100,learnblock2,1024.7999999970198,img/planet13_right.png,13,Community 3,NA,TRUE,j,j,NA,NA,NA,5,6,"4,14,11,5,6,15,2,12,9,10,13,3,1,8,7"
15137,commdev-image-keyboard-response,368,799351,learnblock2,1062.199999988079,img/planet6_right.png,6,Community 1,NA,TRUE,j,j,NA,NA,NA,5,6,"4,14,11,5,6,15,2,12,9,10,13,3,1,8,7"
15137,commdev-image-keyboard-response,369,800602,learnblock2,1196.6000000089407,img/planet14_right.png,14,Community 1,NA,TRUE,j,j,NA,NA,NA,5,6,"4,14,11,5,6,15,2,12,9,10,13,3,1,8,7"
15137,commdev-image-keyboard-response,370,801853,learnblock2,1002.7000000029802,img/planet6_left.png,6,Community 1,NA,TRUE,f,f,NA,NA,NA,5,6,"4,14,11,5,6,15,2,12,9,10,13,3,1,8,7"
15137,commdev-image-keyboard-response,371,803105,learnblock2,994,img/planet11_left.png,11,Community 1,NA,TRUE,f,f,NA,NA,NA,5,6,"4,14,11,5,6,15,2,12,9,10,13,3,1,8,7"
15137,commdev-image-keyboard-response,372,804357,learnblock2,998.0999999940395,img/planet14_right.png,14,Community 1,NA,FALSE,f,j,NA,NA,NA,5,6,"4,14,11,5,6,15,2,12,9,10,13,3,1,8,7"
15137,commdev-image-keyboard-response,373,805608,learnblock2,1248.199999988079,img/planet6_right.png,6,Community 1,NA,TRUE,j,j,NA,NA,NA,5,6,"4,14,11,5,6,15,2,12,9,10,13,3,1,8,7"
15137,commdev-image-keyboard-response,374,806859,learnblock2,966.5,img/planet14_left.png,14,Community 1,NA,TRUE,f,f,NA,NA,NA,5,6,"4,14,11,5,6,15,2,12,9,10,13,3,1,8,7"
15137,commdev-image-keyboard-response,375,808110,learnblock2,984.8999999910593,img/planet4_right.png,4,Community 1,NA,FALSE,f,j,NA,NA,NA,5,6,"4,14,11,5,6,15,2,12,9,10,13,3,1,8,7"
15137,commdev-image-keyboard-response,376,809362,learnblock2,304.59999999403954,img/planet5_right.png,5,Community 1,NA,TRUE,j,j,NA,NA,NA,5,6,"4,14,11,5,6,15,2,12,9,10,13,3,1,8,7"
15137,commdev-image-keyboard-response,377,810613,learnblock2,964.6999999880791,img/planet15_left.png,15,Community 2,NA,TRUE,f,f,NA,NA,NA,5,6,"4,14,11,5,6,15,2,12,9,10,13,3,1,8,7"
15137,commdev-image-keyboard-response,378,811864,learnblock2,967.2000000029802,img/planet2_right.png,2,Community 2,NA,TRUE,j,j,NA,NA,NA,5,6,"4,14,11,5,6,15,2,12,9,10,13,3,1,8,7"
15137,commdev-image-keyboard-response,379,813116,learnblock2,1103.3999999910593,img/planet15_right.png,15,Community 2,NA,FALSE,f,j,NA,NA,NA,5,6,"4,14,11,5,6,15,2,12,9,10,13,3,1,8,7"
15137,commdev-image-keyboard-response,380,814368,learnblock2,792.2999999970198,img/planet10_left.png,10,Community 2,NA,FALSE,j,f,NA,NA,NA,5,6,"4,14,11,5,6,15,2,12,9,10,13,3,1,8,7"
15137,commdev-image-keyboard-response,381,815619,learnblock2,897.9000000059605,img/planet15_right.png,15,Community 2,NA,TRUE,j,j,NA,NA,NA,5,6,"4,14,11,5,6,15,2,12,9,10,13,3,1,8,7"
15137,commdev-image-keyboard-response,382,816870,learnblock2,1240.2999999970198,img/planet5_left.png,5,Community 1,NA,FALSE,j,f,NA,NA,NA,5,6,"4,14,11,5,6,15,2,12,9,10,13,3,1,8,7"
15137,commdev-image-keyboard-response,383,818121,learnblock2,49.19999998807907,img/planet15_left.png,15,Community 2,NA,TRUE,f,f,NA,NA,NA,5,6,"4,14,11,5,6,15,2,12,9,10,13,3,1,8,7"
15137,commdev-image-keyboard-response,384,819372,learnblock2,1156,img/planet9_left.png,9,Community 2,NA,FALSE,j,f,NA,NA,NA,5,6,"4,14,11,5,6,15,2,12,9,10,13,3,1,8,7"
15137,commdev-image-keyboard-response,385,820623,learnblock2,1014.7000000029802,img/planet15_right.png,15,Community 2,NA,FALSE,f,j,NA,NA,NA,5,6,"4,14,11,5,6,15,2,12,9,10,13,3,1,8,7"
15137,commdev-image-keyboard-response,386,821876,learnblock2,null,img/planet9_right.png,9,Community 2,NA,FALSE,null,j,NA,NA,NA,5,6,"4,14,11,5,6,15,2,12,9,10,13,3,1,8,7"
15137,commdev-image-keyboard-response,387,823127,learnblock2,1109.7999999970198,img/planet12_right.png,12,Community 2,NA,TRUE,j,j,NA,NA,NA,5,6,"4,14,11,5,6,15,2,12,9,10,13,3,1,8,7"
15137,commdev-image-keyboard-response,388,824378,learnblock2,1071.2000000029802,img/planet9_right.png,9,Community 2,NA,TRUE,j,j,NA,NA,NA,5,6,"4,14,11,5,6,15,2,12,9,10,13,3,1,8,7"
15137,commdev-image-keyboard-response,389,825629,learnblock2,1067,img/planet15_left.png,15,Community 2,NA,TRUE,f,f,NA,NA,NA,5,6,"4,14,11,5,6,15,2,12,9,10,13,3,1,8,7"
15137,commdev-image-keyboard-response,390,826880,learnblock2,1174,img/planet9_right.png,9,Community 2,NA,TRUE,j,j,NA,NA,NA,5,6,"4,14,11,5,6,15,2,12,9,10,13,3,1,8,7"
15137,commdev-image-keyboard-response,391,828132,learnblock2,893.2999999970198,img/planet2_left.png,2,Community 2,NA,TRUE,f,f,NA,NA,NA,5,6,"4,14,11,5,6,15,2,12,9,10,13,3,1,8,7"
15137,commdev-image-keyboard-response,392,829383,learnblock2,986.5,img/planet12_left.png,12,Community 2,NA,TRUE,f,f,NA,NA,NA,5,6,"4,14,11,5,6,15,2,12,9,10,13,3,1,8,7"
15137,commdev-image-keyboard-response,393,830635,learnblock2,1140.699999988079,img/planet10_left.png,10,Community 2,NA,TRUE,f,f,NA,NA,NA,5,6,"4,14,11,5,6,15,2,12,9,10,13,3,1,8,7"
15137,commdev-image-keyboard-response,394,831887,learnblock2,955,img/planet12_right.png,12,Community 2,NA,TRUE,j,j,NA,NA,NA,5,6,"4,14,11,5,6,15,2,12,9,10,13,3,1,8,7"
15137,commdev-image-keyboard-response,395,833138,learnblock2,1083.2999999970198,img/planet9_right.png,9,Community 2,NA,FALSE,f,j,NA,NA,NA,5,6,"4,14,11,5,6,15,2,12,9,10,13,3,1,8,7"
15137,commdev-image-keyboard-response,396,834390,learnblock2,1091.8999999910593,img/planet15_right.png,15,Community 2,NA,TRUE,j,j,NA,NA,NA,5,6,"4,14,11,5,6,15,2,12,9,10,13,3,1,8,7"
15137,commdev-image-keyboard-response,397,835641,learnblock2,946,img/planet10_left.png,10,Community 2,NA,TRUE,f,f,NA,NA,NA,5,6,"4,14,11,5,6,15,2,12,9,10,13,3,1,8,7"
15137,commdev-image-keyboard-response,398,836892,learnblock2,1212.5,img/planet15_left.png,15,Community 2,NA,TRUE,f,f,NA,NA,NA,5,6,"4,14,11,5,6,15,2,12,9,10,13,3,1,8,7"
15137,commdev-image-keyboard-response,399,838143,learnblock2,1176.5999999940395,img/planet2_left.png,2,Community 2,NA,TRUE,f,f,NA,NA,NA,5,6,"4,14,11,5,6,15,2,12,9,10,13,3,1,8,7"
15137,commdev-image-keyboard-response,400,839394,learnblock2,977.9000000059605,img/planet10_left.png,10,Community 2,NA,TRUE,f,f,NA,NA,NA,5,6,"4,14,11,5,6,15,2,12,9,10,13,3,1,8,7"
15137,commdev-image-keyboard-response,401,840646,learnblock2,848.1999999880791,img/planet2_right.png,2,Community 2,NA,TRUE,j,j,NA,NA,NA,5,6,"4,14,11,5,6,15,2,12,9,10,13,3,1,8,7"
15137,commdev-image-keyboard-response,402,841898,learnblock2,958.5999999940395,img/planet10_left.png,10,Community 2,NA,TRUE,f,f,NA,NA,NA,5,6,"4,14,11,5,6,15,2,12,9,10,13,3,1,8,7"
15137,commdev-image-keyboard-response,403,843150,learnblock2,1103.6000000089407,img/planet9_right.png,9,Community 2,NA,TRUE,j,j,NA,NA,NA,5,6,"4,14,11,5,6,15,2,12,9,10,13,3,1,8,7"
15137,commdev-image-keyboard-response,404,844402,learnblock2,813.9000000059605,img/planet10_left.png,10,Community 2,NA,TRUE,f,f,NA,NA,NA,5,6,"4,14,11,5,6,15,2,12,9,10,13,3,1,8,7"
15137,commdev-image-keyboard-response,405,845653,learnblock2,975,img/planet9_left.png,9,Community 2,NA,TRUE,f,f,NA,NA,NA,5,6,"4,14,11,5,6,15,2,12,9,10,13,3,1,8,7"
15137,commdev-image-keyboard-response,406,846905,learnblock2,1008.0999999940395,img/planet12_right.png,12,Community 2,NA,TRUE,j,j,NA,NA,NA,5,6,"4,14,11,5,6,15,2,12,9,10,13,3,1,8,7"
15137,commdev-image-keyboard-response,407,848156,learnblock2,null,img/planet2_right.png,2,Community 2,NA,FALSE,null,j,NA,NA,NA,5,6,"4,14,11,5,6,15,2,12,9,10,13,3,1,8,7"
15137,commdev-image-keyboard-response,408,849409,learnblock2,10.100000008940697,img/planet15_right.png,15,Community 2,NA,FALSE,f,j,NA,NA,NA,5,6,"4,14,11,5,6,15,2,12,9,10,13,3,1,8,7"
15137,commdev-image-keyboard-response,409,850661,learnblock2,1119.699999988079,img/planet5_left.png,5,Community 1,NA,TRUE,f,f,NA,NA,NA,5,6,"4,14,11,5,6,15,2,12,9,10,13,3,1,8,7"
15137,commdev-image-keyboard-response,410,851912,learnblock2,987.6000000089407,img/planet14_right.png,14,Community 1,NA,TRUE,j,j,NA,NA,NA,5,6,"4,14,11,5,6,15,2,12,9,10,13,3,1,8,7"
15137,commdev-image-keyboard-response,411,853163,learnblock2,1149.4000000059605,img/planet4_left.png,4,Community 1,NA,TRUE,f,f,NA,NA,NA,5,6,"4,14,11,5,6,15,2,12,9,10,13,3,1,8,7"
15137,commdev-image-keyboard-response,412,854415,learnblock2,1148,img/planet14_left.png,14,Community 1,NA,FALSE,j,f,NA,NA,NA,5,6,"4,14,11,5,6,15,2,12,9,10,13,3,1,8,7"
15137,commdev-image-keyboard-response,413,855666,learnblock2,1125.5999999940395,img/planet5_right.png,5,Community 1,NA,TRUE,j,j,NA,NA,NA,5,6,"4,14,11,5,6,15,2,12,9,10,13,3,1,8,7"
15137,commdev-image-keyboard-response,414,856917,learnblock2,1244,img/planet15_right.png,15,Community 2,NA,TRUE,j,j,NA,NA,NA,5,6,"4,14,11,5,6,15,2,12,9,10,13,3,1,8,7"
15137,commdev-image-keyboard-response,415,858168,learnblock2,1179.1000000089407,img/planet5_left.png,5,Community 1,NA,TRUE,f,f,NA,NA,NA,5,6,"4,14,11,5,6,15,2,12,9,10,13,3,1,8,7"
15137,commdev-image-keyboard-response,416,859420,learnblock2,1196.2999999970198,img/planet15_right.png,15,Community 2,NA,FALSE,f,j,NA,NA,NA,5,6,"4,14,11,5,6,15,2,12,9,10,13,3,1,8,7"
15137,commdev-image-keyboard-response,417,860671,learnblock2,null,img/planet5_left.png,5,Community 1,NA,FALSE,null,f,NA,NA,NA,5,6,"4,14,11,5,6,15,2,12,9,10,13,3,1,8,7"
15137,commdev-image-keyboard-response,418,861923,learnblock2,71.80000001192093,img/planet4_left.png,4,Community 1,NA,TRUE,f,f,NA,NA,NA,5,6,"4,14,11,5,6,15,2,12,9,10,13,3,1,8,7"
15137,commdev-image-keyboard-response,419,863174,learnblock2,954.5999999940395,img/planet11_left.png,11,Community 1,NA,TRUE,f,f,NA,NA,NA,5,6,"4,14,11,5,6,15,2,12,9,10,13,3,1,8,7"
15137,commdev-image-keyboard-response,420,864426,learnblock2,null,img/planet14_left.png,14,Community 1,NA,FALSE,null,f,NA,NA,NA,5,6,"4,14,11,5,6,15,2,12,9,10,13,3,1,8,7"
15137,commdev-image-keyboard-response,421,865677,learnblock2,null,img/planet11_right.png,11,Community 1,NA,FALSE,null,j,NA,NA,NA,5,6,"4,14,11,5,6,15,2,12,9,10,13,3,1,8,7"
15137,commdev-image-keyboard-response,422,866929,learnblock2,1090.7000000029802,img/planet14_left.png,14,Community 1,NA,TRUE,f,f,NA,NA,NA,5,6,"4,14,11,5,6,15,2,12,9,10,13,3,1,8,7"
15137,commdev-image-keyboard-response,423,868180,learnblock2,null,img/planet5_right.png,5,Community 1,NA,FALSE,null,j,NA,NA,NA,5,6,"4,14,11,5,6,15,2,12,9,10,13,3,1,8,7"
15137,commdev-image-keyboard-response,424,869432,learnblock2,9.900000005960464,img/planet11_left.png,11,Community 1,NA,FALSE,j,f,NA,NA,NA,5,6,"4,14,11,5,6,15,2,12,9,10,13,3,1,8,7"
15137,commdev-image-keyboard-response,425,870684,learnblock2,142.40000000596046,img/planet6_left.png,6,Community 1,NA,TRUE,f,f,NA,NA,NA,5,6,"4,14,11,5,6,15,2,12,9,10,13,3,1,8,7"
15137,commdev-image-keyboard-response,426,871936,learnblock2,1200.7000000029802,img/planet13_left.png,13,Community 3,NA,TRUE,f,f,NA,NA,NA,5,6,"4,14,11,5,6,15,2,12,9,10,13,3,1,8,7"
15137,commdev-image-keyboard-response,427,873187,learnblock2,null,img/planet7_left.png,7,Community 3,NA,FALSE,null,f,NA,NA,NA,5,6,"4,14,11,5,6,15,2,12,9,10,13,3,1,8,7"
15137,commdev-image-keyboard-response,428,874438,learnblock2,326.8999999910593,img/planet3_right.png,3,Community 3,NA,FALSE,f,j,NA,NA,NA,5,6,"4,14,11,5,6,15,2,12,9,10,13,3,1,8,7"
15137,commdev-image-keyboard-response,429,875690,learnblock2,288.80000001192093,img/planet8_right.png,8,Community 3,NA,FALSE,f,j,NA,NA,NA,5,6,"4,14,11,5,6,15,2,12,9,10,13,3,1,8,7"
15137,commdev-image-keyboard-response,430,876941,learnblock2,null,img/planet7_left.png,7,Community 3,NA,FALSE,null,f,NA,NA,NA,5,6,"4,14,11,5,6,15,2,12,9,10,13,3,1,8,7"
15137,commdev-image-keyboard-response,431,878193,learnblock2,155.59999999403954,img/planet3_right.png,3,Community 3,NA,FALSE,f,j,NA,NA,NA,5,6,"4,14,11,5,6,15,2,12,9,10,13,3,1,8,7"
15137,commdev-image-keyboard-response,432,879444,learnblock2,907.5999999940395,img/planet12_left.png,12,Community 2,NA,TRUE,f,f,NA,NA,NA,5,6,"4,14,11,5,6,15,2,12,9,10,13,3,1,8,7"
15137,commdev-image-keyboard-response,433,880696,learnblock2,993.0999999940395,img/planet9_right.png,9,Community 2,NA,TRUE,j,j,NA,NA,NA,5,6,"4,14,11,5,6,15,2,12,9,10,13,3,1,8,7"
15137,commdev-image-keyboard-response,434,881949,learnblock2,823.7000000029802,img/planet2_left.png,2,Community 2,NA,TRUE,f,f,NA,NA,NA,5,6,"4,14,11,5,6,15,2,12,9,10,13,3,1,8,7"
15137,commdev-image-keyboard-response,435,883200,learnblock2,1113.2000000029802,img/planet9_left.png,9,Community 2,NA,FALSE,j,f,NA,NA,NA,5,6,"4,14,11,5,6,15,2,12,9,10,13,3,1,8,7"
15137,commdev-image-keyboard-response,436,884451,learnblock2,1098.2999999970198,img/planet12_left.png,12,Community 2,NA,TRUE,f,f,NA,NA,NA,5,6,"4,14,11,5,6,15,2,12,9,10,13,3,1,8,7"
15137,commdev-image-keyboard-response,437,885703,learnblock2,1089.5,img/planet3_left.png,3,Community 3,NA,TRUE,f,f,NA,NA,NA,5,6,"4,14,11,5,6,15,2,12,9,10,13,3,1,8,7"
15137,commdev-image-keyboard-response,438,886955,learnblock2,1108.6000000089407,img/planet1_right.png,1,Community 3,NA,FALSE,f,j,NA,NA,NA,5,6,"4,14,11,5,6,15,2,12,9,10,13,3,1,8,7"
15137,commdev-image-keyboard-response,439,888208,learnblock2,1111.8999999910593,img/planet3_left.png,3,Community 3,NA,TRUE,f,f,NA,NA,NA,5,6,"4,14,11,5,6,15,2,12,9,10,13,3,1,8,7"
15137,commdev-image-keyboard-response,440,889460,learnblock2,null,img/planet1_right.png,1,Community 3,NA,FALSE,null,j,NA,NA,NA,5,6,"4,14,11,5,6,15,2,12,9,10,13,3,1,8,7"
15137,commdev-image-keyboard-response,441,890710,learnblock2,1223.3999999910593,img/planet3_right.png,3,Community 3,NA,FALSE,f,j,NA,NA,NA,5,6,"4,14,11,5,6,15,2,12,9,10,13,3,1,8,7"
15137,commdev-image-keyboard-response,442,891962,learnblock2,1043.7000000029802,img/planet7_right.png,7,Community 3,NA,TRUE,j,j,NA,NA,NA,5,6,"4,14,11,5,6,15,2,12,9,10,13,3,1,8,7"
15137,commdev-image-keyboard-response,443,893214,learnblock2,null,img/planet8_right.png,8,Community 3,NA,FALSE,null,j,NA,NA,NA,5,6,"4,14,11,5,6,15,2,12,9,10,13,3,1,8,7"
15137,commdev-image-keyboard-response,444,894465,learnblock2,714.8000000119209,img/planet13_left.png,13,Community 3,NA,FALSE,j,f,NA,NA,NA,5,6,"4,14,11,5,6,15,2,12,9,10,13,3,1,8,7"
15137,commdev-image-keyboard-response,445,895716,learnblock2,98.5,img/planet7_right.png,7,Community 3,NA,FALSE,f,j,NA,NA,NA,5,6,"4,14,11,5,6,15,2,12,9,10,13,3,1,8,7"
15137,commdev-image-keyboard-response,446,896968,learnblock2,1054.6000000089407,img/planet3_left.png,3,Community 3,NA,TRUE,f,f,NA,NA,NA,5,6,"4,14,11,5,6,15,2,12,9,10,13,3,1,8,7"
15137,commdev-image-keyboard-response,447,898220,learnblock2,949.5,img/planet7_left.png,7,Community 3,NA,FALSE,j,f,NA,NA,NA,5,6,"4,14,11,5,6,15,2,12,9,10,13,3,1,8,7"
15137,commdev-image-keyboard-response,448,899471,learnblock2,null,img/planet8_right.png,8,Community 3,NA,FALSE,null,j,NA,NA,NA,5,6,"4,14,11,5,6,15,2,12,9,10,13,3,1,8,7"
15137,commdev-image-keyboard-response,449,900723,learnblock2,1192.3999999910593,img/planet3_left.png,3,Community 3,NA,TRUE,f,f,NA,NA,NA,5,6,"4,14,11,5,6,15,2,12,9,10,13,3,1,8,7"
15137,commdev-image-keyboard-response,450,901974,learnblock2,null,img/planet7_left.png,7,Community 3,NA,FALSE,null,f,NA,NA,NA,5,6,"4,14,11,5,6,15,2,12,9,10,13,3,1,8,7"
15137,commdev-image-keyboard-response,451,903224,learnblock2,41.5,img/planet1_left.png,1,Community 3,NA,FALSE,j,f,NA,NA,NA,5,6,"4,14,11,5,6,15,2,12,9,10,13,3,1,8,7"
15137,commdev-image-keyboard-response,452,904477,learnblock2,107.09999999403954,img/planet7_right.png,7,Community 3,NA,FALSE,f,j,NA,NA,NA,5,6,"4,14,11,5,6,15,2,12,9,10,13,3,1,8,7"
15137,commdev-image-keyboard-response,453,905728,learnblock2,null,img/planet1_right.png,1,Community 3,NA,FALSE,null,j,NA,NA,NA,5,6,"4,14,11,5,6,15,2,12,9,10,13,3,1,8,7"
15137,commdev-image-keyboard-response,454,906980,learnblock2,124.70000000298023,img/planet8_left.png,8,Community 3,NA,FALSE,j,f,NA,NA,NA,5,6,"4,14,11,5,6,15,2,12,9,10,13,3,1,8,7"
15137,commdev-image-keyboard-response,455,908231,learnblock2,202.09999999403954,img/planet13_right.png,13,Community 3,NA,TRUE,j,j,NA,NA,NA,5,6,"4,14,11,5,6,15,2,12,9,10,13,3,1,8,7"
15137,commdev-image-keyboard-response,456,909483,learnblock2,48.3999999910593,img/planet1_left.png,1,Community 3,NA,TRUE,f,f,NA,NA,NA,5,6,"4,14,11,5,6,15,2,12,9,10,13,3,1,8,7"
15137,commdev-image-keyboard-response,457,910735,learnblock2,101.5,img/planet8_left.png,8,Community 3,NA,FALSE,j,f,NA,NA,NA,5,6,"4,14,11,5,6,15,2,12,9,10,13,3,1,8,7"
15137,commdev-image-keyboard-response,458,911987,learnblock2,355.59999999403954,img/planet1_left.png,1,Community 3,NA,TRUE,f,f,NA,NA,NA,5,6,"4,14,11,5,6,15,2,12,9,10,13,3,1,8,7"
15137,commdev-image-keyboard-response,459,913239,learnblock2,172.09999999403954,img/planet7_right.png,7,Community 3,NA,FALSE,f,j,NA,NA,NA,5,6,"4,14,11,5,6,15,2,12,9,10,13,3,1,8,7"
15137,commdev-image-keyboard-response,460,914490,learnblock2,128.20000000298023,img/planet1_right.png,1,Community 3,NA,FALSE,f,j,NA,NA,NA,5,6,"4,14,11,5,6,15,2,12,9,10,13,3,1,8,7"
15137,commdev-image-keyboard-response,461,915741,learnblock2,321.5,img/planet7_right.png,7,Community 3,NA,TRUE,j,j,NA,NA,NA,5,6,"4,14,11,5,6,15,2,12,9,10,13,3,1,8,7"
15137,commdev-image-keyboard-response,462,916993,learnblock2,583.6000000089407,img/planet8_right.png,8,Community 3,NA,TRUE,j,j,NA,NA,NA,5,6,"4,14,11,5,6,15,2,12,9,10,13,3,1,8,7"
15137,commdev-image-keyboard-response,463,918244,learnblock2,349.3999999910593,img/planet7_left.png,7,Community 3,NA,TRUE,f,f,NA,NA,NA,5,6,"4,14,11,5,6,15,2,12,9,10,13,3,1,8,7"
15137,commdev-image-keyboard-response,464,919496,learnblock2,394.09999999403954,img/planet13_left.png,13,Community 3,NA,TRUE,f,f,NA,NA,NA,5,6,"4,14,11,5,6,15,2,12,9,10,13,3,1,8,7"
15137,commdev-image-keyboard-response,465,920747,learnblock2,325.69999998807907,img/planet1_left.png,1,Community 3,NA,TRUE,f,f,NA,NA,NA,5,6,"4,14,11,5,6,15,2,12,9,10,13,3,1,8,7"
15137,commdev-image-keyboard-response,466,921999,learnblock2,153.90000000596046,img/planet13_right.png,13,Community 3,NA,FALSE,f,j,NA,NA,NA,5,6,"4,14,11,5,6,15,2,12,9,10,13,3,1,8,7"
15137,commdev-image-keyboard-response,467,923250,learnblock2,387.09999999403954,img/planet6_right.png,6,Community 1,NA,FALSE,f,j,NA,NA,NA,5,6,"4,14,11,5,6,15,2,12,9,10,13,3,1,8,7"
15137,commdev-image-keyboard-response,468,924502,learnblock2,278.3999999910593,img/planet14_left.png,14,Community 1,NA,FALSE,j,f,NA,NA,NA,5,6,"4,14,11,5,6,15,2,12,9,10,13,3,1,8,7"
15137,commdev-image-keyboard-response,469,925753,learnblock2,361.90000000596046,img/planet5_left.png,5,Community 1,NA,TRUE,f,f,NA,NA,NA,5,6,"4,14,11,5,6,15,2,12,9,10,13,3,1,8,7"
15137,commdev-image-keyboard-response,470,927005,learnblock2,327.59999999403954,img/planet14_right.png,14,Community 1,NA,TRUE,j,j,NA,NA,NA,5,6,"4,14,11,5,6,15,2,12,9,10,13,3,1,8,7"
15137,commdev-image-keyboard-response,471,928257,learnblock2,812.2999999970198,img/planet4_left.png,4,Community 1,NA,FALSE,j,f,NA,NA,NA,5,6,"4,14,11,5,6,15,2,12,9,10,13,3,1,8,7"
15137,commdev-image-keyboard-response,472,929509,learnblock2,236.20000000298023,img/planet11_left.png,11,Community 1,NA,FALSE,j,f,NA,NA,NA,5,6,"4,14,11,5,6,15,2,12,9,10,13,3,1,8,7"
15137,commdev-image-keyboard-response,473,930759,learnblock2,1032.199999988079,img/planet14_right.png,14,Community 1,NA,FALSE,f,j,NA,NA,NA,5,6,"4,14,11,5,6,15,2,12,9,10,13,3,1,8,7"
15137,commdev-image-keyboard-response,474,932012,learnblock2,1086.5999999940395,img/planet6_left.png,6,Community 1,NA,FALSE,j,f,NA,NA,NA,5,6,"4,14,11,5,6,15,2,12,9,10,13,3,1,8,7"
15137,commdev-image-keyboard-response,475,933263,learnblock2,970.6000000089407,img/planet4_left.png,4,Community 1,NA,FALSE,j,f,NA,NA,NA,5,6,"4,14,11,5,6,15,2,12,9,10,13,3,1,8,7"
15137,commdev-image-keyboard-response,476,934515,learnblock2,1052.8999999910593,img/planet14_right.png,14,Community 1,NA,FALSE,f,j,NA,NA,NA,5,6,"4,14,11,5,6,15,2,12,9,10,13,3,1,8,7"
15137,commdev-image-keyboard-response,477,935766,learnblock2,11,img/planet6_right.png,6,Community 1,NA,TRUE,j,j,NA,NA,NA,5,6,"4,14,11,5,6,15,2,12,9,10,13,3,1,8,7"
15137,commdev-image-keyboard-response,478,937017,learnblock2,1002.7000000029802,img/planet13_right.png,13,Community 3,NA,FALSE,f,j,NA,NA,NA,5,6,"4,14,11,5,6,15,2,12,9,10,13,3,1,8,7"
15137,commdev-image-keyboard-response,479,938270,learnblock2,798.6000000089407,img/planet7_right.png,7,Community 3,NA,TRUE,j,j,NA,NA,NA,5,6,"4,14,11,5,6,15,2,12,9,10,13,3,1,8,7"
15137,commdev-image-keyboard-response,480,939521,learnblock2,922.4000000059605,img/planet8_right.png,8,Community 3,NA,TRUE,j,j,NA,NA,NA,5,6,"4,14,11,5,6,15,2,12,9,10,13,3,1,8,7"
15137,commdev-image-keyboard-response,481,940773,learnblock2,1003.7000000029802,img/planet3_left.png,3,Community 3,NA,TRUE,f,f,NA,NA,NA,5,6,"4,14,11,5,6,15,2,12,9,10,13,3,1,8,7"
15137,commdev-image-keyboard-response,482,942024,learnblock2,1067.2000000029802,img/planet12_left.png,12,Community 2,NA,FALSE,j,f,NA,NA,NA,5,6,"4,14,11,5,6,15,2,12,9,10,13,3,1,8,7"
15137,commdev-image-keyboard-response,483,943275,learnblock2,1130.0999999940395,img/planet10_left.png,10,Community 2,NA,TRUE,f,f,NA,NA,NA,5,6,"4,14,11,5,6,15,2,12,9,10,13,3,1,8,7"
15137,commdev-image-keyboard-response,484,944528,learnblock2,893.1000000089407,img/planet12_left.png,12,Community 2,NA,TRUE,f,f,NA,NA,NA,5,6,"4,14,11,5,6,15,2,12,9,10,13,3,1,8,7"
15137,commdev-image-keyboard-response,485,945780,learnblock2,952.0999999940395,img/planet2_left.png,2,Community 2,NA,TRUE,f,f,NA,NA,NA,5,6,"4,14,11,5,6,15,2,12,9,10,13,3,1,8,7"
15137,commdev-image-keyboard-response,486,947030,learnblock2,936,img/planet15_right.png,15,Community 2,NA,FALSE,f,j,NA,NA,NA,5,6,"4,14,11,5,6,15,2,12,9,10,13,3,1,8,7"
15137,commdev-image-keyboard-response,487,948293,learnblock2,null,img/planet9_right.png,9,Community 2,NA,FALSE,null,j,NA,NA,NA,5,6,"4,14,11,5,6,15,2,12,9,10,13,3,1,8,7"
15137,commdev-image-keyboard-response,488,949545,learnblock2,166.1000000089407,img/planet12_right.png,12,Community 2,NA,TRUE,j,j,NA,NA,NA,5,6,"4,14,11,5,6,15,2,12,9,10,13,3,1,8,7"
15137,commdev-image-keyboard-response,489,950797,learnblock2,102.59999999403954,img/planet2_left.png,2,Community 2,NA,TRUE,f,f,NA,NA,NA,5,6,"4,14,11,5,6,15,2,12,9,10,13,3,1,8,7"
15137,commdev-image-keyboard-response,490,952048,learnblock2,194.5,img/planet12_right.png,12,Community 2,NA,FALSE,f,j,NA,NA,NA,5,6,"4,14,11,5,6,15,2,12,9,10,13,3,1,8,7"
15137,commdev-image-keyboard-response,491,953300,learnblock2,1076,img/planet9_left.png,9,Community 2,NA,TRUE,f,f,NA,NA,NA,5,6,"4,14,11,5,6,15,2,12,9,10,13,3,1,8,7"
15137,commdev-image-keyboard-response,492,954551,learnblock2,994.0999999940395,img/planet2_left.png,2,Community 2,NA,FALSE,j,f,NA,NA,NA,5,6,"4,14,11,5,6,15,2,12,9,10,13,3,1,8,7"
15137,commdev-image-keyboard-response,493,955802,learnblock2,1162.699999988079,img/planet12_right.png,12,Community 2,NA,FALSE,f,j,NA,NA,NA,5,6,"4,14,11,5,6,15,2,12,9,10,13,3,1,8,7"
15137,commdev-image-keyboard-response,494,957054,learnblock2,1060.6000000089407,img/planet10_left.png,10,Community 2,NA,TRUE,f,f,NA,NA,NA,5,6,"4,14,11,5,6,15,2,12,9,10,13,3,1,8,7"
15137,commdev-image-keyboard-response,495,958305,learnblock2,1212.7000000029802,img/planet15_left.png,15,Community 2,NA,FALSE,j,f,NA,NA,NA,5,6,"4,14,11,5,6,15,2,12,9,10,13,3,1,8,7"
15137,commdev-image-keyboard-response,496,959556,learnblock2,1156.3999999910593,img/planet5_left.png,5,Community 1,NA,TRUE,f,f,NA,NA,NA,5,6,"4,14,11,5,6,15,2,12,9,10,13,3,1,8,7"
15137,commdev-image-keyboard-response,497,960807,learnblock2,1178.0999999940395,img/planet14_left.png,14,Community 1,NA,TRUE,f,f,NA,NA,NA,5,6,"4,14,11,5,6,15,2,12,9,10,13,3,1,8,7"
15137,commdev-image-keyboard-response,498,962058,learnblock2,1117.2000000029802,img/planet11_left.png,11,Community 1,NA,FALSE,j,f,NA,NA,NA,5,6,"4,14,11,5,6,15,2,12,9,10,13,3,1,8,7"
15137,commdev-image-keyboard-response,499,963310,learnblock2,null,img/planet14_left.png,14,Community 1,NA,FALSE,null,f,NA,NA,NA,5,6,"4,14,11,5,6,15,2,12,9,10,13,3,1,8,7"
15137,commdev-image-keyboard-response,500,964561,learnblock2,182.40000000596046,img/planet11_right.png,11,Community 1,NA,FALSE,f,j,NA,NA,NA,5,6,"4,14,11,5,6,15,2,12,9,10,13,3,1,8,7"
15137,commdev-image-keyboard-response,501,965813,learnblock2,1174.5,img/planet4_left.png,4,Community 1,NA,TRUE,f,f,NA,NA,NA,5,6,"4,14,11,5,6,15,2,12,9,10,13,3,1,8,7"
15137,commdev-image-keyboard-response,502,967064,learnblock2,1034.5,img/planet5_left.png,5,Community 1,NA,TRUE,f,f,NA,NA,NA,5,6,"4,14,11,5,6,15,2,12,9,10,13,3,1,8,7"
15137,commdev-image-keyboard-response,503,968316,learnblock2,1013.2999999970198,img/planet11_left.png,11,Community 1,NA,TRUE,f,f,NA,NA,NA,5,6,"4,14,11,5,6,15,2,12,9,10,13,3,1,8,7"
15137,commdev-image-keyboard-response,504,969568,learnblock2,811.3999999910593,img/planet5_right.png,5,Community 1,NA,TRUE,j,j,NA,NA,NA,5,6,"4,14,11,5,6,15,2,12,9,10,13,3,1,8,7"
15137,commdev-image-keyboard-response,505,970819,learnblock2,852.2000000029802,img/planet15_right.png,15,Community 2,NA,TRUE,j,j,NA,NA,NA,5,6,"4,14,11,5,6,15,2,12,9,10,13,3,1,8,7"
15137,commdev-image-keyboard-response,506,972071,learnblock2,1160.1000000089407,img/planet10_right.png,10,Community 2,NA,TRUE,j,j,NA,NA,NA,5,6,"4,14,11,5,6,15,2,12,9,10,13,3,1,8,7"
15137,commdev-image-keyboard-response,507,973323,learnblock2,1235.7000000029802,img/planet9_right.png,9,Community 2,NA,FALSE,f,j,NA,NA,NA,5,6,"4,14,11,5,6,15,2,12,9,10,13,3,1,8,7"
15137,commdev-image-keyboard-response,508,974574,learnblock2,1019.5,img/planet2_left.png,2,Community 2,NA,TRUE,f,f,NA,NA,NA,5,6,"4,14,11,5,6,15,2,12,9,10,13,3,1,8,7"
15137,commdev-image-keyboard-response,509,975825,learnblock2,948.6000000089407,img/planet15_left.png,15,Community 2,NA,TRUE,f,f,NA,NA,NA,5,6,"4,14,11,5,6,15,2,12,9,10,13,3,1,8,7"
15137,commdev-image-keyboard-response,510,977077,learnblock2,866.9000000059605,img/planet5_left.png,5,Community 1,NA,TRUE,f,f,NA,NA,NA,5,6,"4,14,11,5,6,15,2,12,9,10,13,3,1,8,7"
15137,commdev-image-keyboard-response,511,978328,learnblock2,1112.2999999970198,img/planet4_right.png,4,Community 1,NA,TRUE,j,j,NA,NA,NA,5,6,"4,14,11,5,6,15,2,12,9,10,13,3,1,8,7"
15137,commdev-image-keyboard-response,512,979580,learnblock2,867.3999999910593,img/planet5_right.png,5,Community 1,NA,TRUE,j,j,NA,NA,NA,5,6,"4,14,11,5,6,15,2,12,9,10,13,3,1,8,7"
15137,commdev-image-keyboard-response,513,980831,learnblock2,1196,img/planet4_left.png,4,Community 1,NA,TRUE,f,f,NA,NA,NA,5,6,"4,14,11,5,6,15,2,12,9,10,13,3,1,8,7"
15137,commdev-image-keyboard-response,514,982082,learnblock2,904.2000000029802,img/planet5_left.png,5,Community 1,NA,TRUE,f,f,NA,NA,NA,5,6,"4,14,11,5,6,15,2,12,9,10,13,3,1,8,7"
15137,commdev-image-keyboard-response,515,983334,learnblock2,null,img/planet14_left.png,14,Community 1,NA,FALSE,null,f,NA,NA,NA,5,6,"4,14,11,5,6,15,2,12,9,10,13,3,1,8,7"
15137,commdev-image-keyboard-response,516,984586,learnblock2,77.79999999701977,img/planet5_left.png,5,Community 1,NA,FALSE,j,f,NA,NA,NA,5,6,"4,14,11,5,6,15,2,12,9,10,13,3,1,8,7"
15137,commdev-image-keyboard-response,517,985838,learnblock2,963.5,img/planet4_left.png,4,Community 1,NA,FALSE,j,f,NA,NA,NA,5,6,"4,14,11,5,6,15,2,12,9,10,13,3,1,8,7"
15137,commdev-image-keyboard-response,518,987089,learnblock2,1156.7000000029802,img/planet14_right.png,14,Community 1,NA,TRUE,j,j,NA,NA,NA,5,6,"4,14,11,5,6,15,2,12,9,10,13,3,1,8,7"
15137,commdev-image-keyboard-response,519,988342,learnblock2,null,img/planet5_left.png,5,Community 1,NA,FALSE,null,f,NA,NA,NA,5,6,"4,14,11,5,6,15,2,12,9,10,13,3,1,8,7"
15137,commdev-image-keyboard-response,520,989593,learnblock2,74.59999999403954,img/planet15_left.png,15,Community 2,NA,TRUE,f,f,NA,NA,NA,5,6,"4,14,11,5,6,15,2,12,9,10,13,3,1,8,7"
15137,commdev-image-keyboard-response,521,990844,learnblock2,null,img/planet9_right.png,9,Community 2,NA,FALSE,null,j,NA,NA,NA,5,6,"4,14,11,5,6,15,2,12,9,10,13,3,1,8,7"
15137,commdev-image-keyboard-response,522,992095,learnblock2,56.599999994039536,img/planet12_right.png,12,Community 2,NA,TRUE,j,j,NA,NA,NA,5,6,"4,14,11,5,6,15,2,12,9,10,13,3,1,8,7"
15137,commdev-image-keyboard-response,523,993346,learnblock2,null,img/planet3_right.png,3,Community 3,NA,FALSE,null,j,NA,NA,NA,5,6,"4,14,11,5,6,15,2,12,9,10,13,3,1,8,7"
15137,commdev-image-keyboard-response,524,994597,learnblock2,268.70000000298023,img/planet1_left.png,1,Community 3,NA,FALSE,j,f,NA,NA,NA,5,6,"4,14,11,5,6,15,2,12,9,10,13,3,1,8,7"
15137,commdev-image-keyboard-response,525,995849,learnblock2,986.1999999880791,img/planet3_left.png,3,Community 3,NA,TRUE,f,f,NA,NA,NA,5,6,"4,14,11,5,6,15,2,12,9,10,13,3,1,8,7"
15137,commdev-image-keyboard-response,526,997100,learnblock2,1078.5,img/planet7_right.png,7,Community 3,NA,FALSE,f,j,NA,NA,NA,5,6,"4,14,11,5,6,15,2,12,9,10,13,3,1,8,7"
15137,commdev-image-keyboard-response,527,998351,learnblock2,1111.7999999970198,img/planet3_left.png,3,Community 3,NA,TRUE,f,f,NA,NA,NA,5,6,"4,14,11,5,6,15,2,12,9,10,13,3,1,8,7"
15137,commdev-image-keyboard-response,528,999602,learnblock2,1037.2999999970198,img/planet1_right.png,1,Community 3,NA,FALSE,f,j,NA,NA,NA,5,6,"4,14,11,5,6,15,2,12,9,10,13,3,1,8,7"
15137,commdev-image-keyboard-response,529,1000854,learnblock2,1099.2999999970198,img/planet8_left.png,8,Community 3,NA,FALSE,j,f,NA,NA,NA,5,6,"4,14,11,5,6,15,2,12,9,10,13,3,1,8,7"
15137,commdev-image-keyboard-response,530,1002106,learnblock2,null,img/planet1_right.png,1,Community 3,NA,FALSE,null,j,NA,NA,NA,5,6,"4,14,11,5,6,15,2,12,9,10,13,3,1,8,7"
15137,commdev-image-keyboard-response,531,1003357,learnblock2,844.5999999940395,img/planet7_left.png,7,Community 3,NA,TRUE,f,f,NA,NA,NA,5,6,"4,14,11,5,6,15,2,12,9,10,13,3,1,8,7"
15137,commdev-image-keyboard-response,532,1004609,learnblock2,1216.7000000029802,img/planet13_left.png,13,Community 3,NA,TRUE,f,f,NA,NA,NA,5,6,"4,14,11,5,6,15,2,12,9,10,13,3,1,8,7"
15137,commdev-image-keyboard-response,533,1005860,learnblock2,1180.3999999910593,img/planet6_left.png,6,Community 1,NA,FALSE,j,f,NA,NA,NA,5,6,"4,14,11,5,6,15,2,12,9,10,13,3,1,8,7"
15137,commdev-image-keyboard-response,534,1007112,learnblock2,null,img/planet11_left.png,11,Community 1,NA,FALSE,null,f,NA,NA,NA,5,6,"4,14,11,5,6,15,2,12,9,10,13,3,1,8,7"
15137,commdev-image-keyboard-response,535,1008363,learnblock2,170.8999999910593,img/planet6_right.png,6,Community 1,NA,FALSE,f,j,NA,NA,NA,5,6,"4,14,11,5,6,15,2,12,9,10,13,3,1,8,7"
15137,commdev-image-keyboard-response,536,1009615,learnblock2,0.10000000894069672,img/planet14_right.png,14,Community 1,NA,TRUE,j,j,NA,NA,NA,5,6,"4,14,11,5,6,15,2,12,9,10,13,3,1,8,7"
15137,commdev-image-keyboard-response,537,1010867,learnblock2,1131.8999999910593,img/planet11_left.png,11,Community 1,NA,TRUE,f,f,NA,NA,NA,5,6,"4,14,11,5,6,15,2,12,9,10,13,3,1,8,7"
15137,commdev-image-keyboard-response,538,1012118,learnblock2,907.2000000029802,img/planet14_right.png,14,Community 1,NA,TRUE,j,j,NA,NA,NA,5,6,"4,14,11,5,6,15,2,12,9,10,13,3,1,8,7"
15137,commdev-image-keyboard-response,539,1013370,learnblock2,879.2000000029802,img/planet11_left.png,11,Community 1,NA,TRUE,f,f,NA,NA,NA,5,6,"4,14,11,5,6,15,2,12,9,10,13,3,1,8,7"
15137,commdev-image-keyboard-response,540,1014622,learnblock2,983.2000000029802,img/planet14_right.png,14,Community 1,NA,TRUE,j,j,NA,NA,NA,5,6,"4,14,11,5,6,15,2,12,9,10,13,3,1,8,7"
15137,commdev-image-keyboard-response,541,1015873,learnblock2,1019.2000000029802,img/planet4_left.png,4,Community 1,NA,TRUE,f,f,NA,NA,NA,5,6,"4,14,11,5,6,15,2,12,9,10,13,3,1,8,7"
15137,commdev-image-keyboard-response,542,1017124,learnblock2,791.4000000059605,img/planet14_right.png,14,Community 1,NA,TRUE,j,j,NA,NA,NA,5,6,"4,14,11,5,6,15,2,12,9,10,13,3,1,8,7"
15137,commdev-image-keyboard-response,543,1018376,learnblock2,1192.7999999970198,img/planet6_left.png,6,Community 1,NA,TRUE,f,f,NA,NA,NA,5,6,"4,14,11,5,6,15,2,12,9,10,13,3,1,8,7"
15137,commdev-image-keyboard-response,544,1019627,learnblock2,972.6000000089407,img/planet14_right.png,14,Community 1,NA,TRUE,j,j,NA,NA,NA,5,6,"4,14,11,5,6,15,2,12,9,10,13,3,1,8,7"
15137,commdev-image-keyboard-response,545,1020880,learnblock2,862.5,img/planet11_left.png,11,Community 1,NA,TRUE,f,f,NA,NA,NA,5,6,"4,14,11,5,6,15,2,12,9,10,13,3,1,8,7"
15137,commdev-image-keyboard-response,546,1022131,learnblock2,655.5999999940395,img/planet5_right.png,5,Community 1,NA,TRUE,j,j,NA,NA,NA,5,6,"4,14,11,5,6,15,2,12,9,10,13,3,1,8,7"
15137,commdev-image-keyboard-response,547,1023382,learnblock2,498.20000000298023,img/planet14_left.png,14,Community 1,NA,FALSE,j,f,NA,NA,NA,5,6,"4,14,11,5,6,15,2,12,9,10,13,3,1,8,7"
15137,commdev-image-keyboard-response,548,1024633,learnblock2,1226.199999988079,img/planet4_right.png,4,Community 1,NA,TRUE,j,j,NA,NA,NA,5,6,"4,14,11,5,6,15,2,12,9,10,13,3,1,8,7"
15137,commdev-image-keyboard-response,549,1025886,learnblock2,1109.2000000029802,img/planet5_right.png,5,Community 1,NA,TRUE,j,j,NA,NA,NA,5,6,"4,14,11,5,6,15,2,12,9,10,13,3,1,8,7"
15137,commdev-image-keyboard-response,550,1027137,learnblock2,1194.2999999970198,img/planet14_right.png,14,Community 1,NA,TRUE,j,j,NA,NA,NA,5,6,"4,14,11,5,6,15,2,12,9,10,13,3,1,8,7"
15137,commdev-image-keyboard-response,551,1028388,learnblock2,null,img/planet6_right.png,6,Community 1,NA,FALSE,null,j,NA,NA,NA,5,6,"4,14,11,5,6,15,2,12,9,10,13,3,1,8,7"
15137,commdev-image-keyboard-response,552,1029640,learnblock2,1005.7000000029802,img/planet4_left.png,4,Community 1,NA,TRUE,f,f,NA,NA,NA,5,6,"4,14,11,5,6,15,2,12,9,10,13,3,1,8,7"
15137,commdev-image-keyboard-response,553,1030891,learnblock2,862.2000000029802,img/planet14_right.png,14,Community 1,NA,TRUE,j,j,NA,NA,NA,5,6,"4,14,11,5,6,15,2,12,9,10,13,3,1,8,7"
15137,commdev-image-keyboard-response,554,1032143,learnblock2,null,img/planet5_left.png,5,Community 1,NA,FALSE,null,f,NA,NA,NA,5,6,"4,14,11,5,6,15,2,12,9,10,13,3,1,8,7"
15137,commdev-image-keyboard-response,555,1033395,learnblock2,183.6000000089407,img/planet11_left.png,11,Community 1,NA,TRUE,f,f,NA,NA,NA,5,6,"4,14,11,5,6,15,2,12,9,10,13,3,1,8,7"
15137,commdev-image-keyboard-response,556,1034647,learnblock2,null,img/planet6_right.png,6,Community 1,NA,FALSE,null,j,NA,NA,NA,5,6,"4,14,11,5,6,15,2,12,9,10,13,3,1,8,7"
15137,commdev-image-keyboard-response,557,1035898,learnblock2,null,img/planet13_left.png,13,Community 3,NA,FALSE,null,f,NA,NA,NA,5,6,"4,14,11,5,6,15,2,12,9,10,13,3,1,8,7"
15137,commdev-image-keyboard-response,558,1037149,learnblock2,347,img/planet1_right.png,1,Community 3,NA,FALSE,f,j,NA,NA,NA,5,6,"4,14,11,5,6,15,2,12,9,10,13,3,1,8,7"
15137,commdev-image-keyboard-response,559,1038400,learnblock2,99.20000000298023,img/planet8_left.png,8,Community 3,NA,FALSE,j,f,NA,NA,NA,5,6,"4,14,11,5,6,15,2,12,9,10,13,3,1,8,7"
15137,commdev-image-keyboard-response,560,1039653,learnblock2,1048.3999999910593,img/planet1_left.png,1,Community 3,NA,TRUE,f,f,NA,NA,NA,5,6,"4,14,11,5,6,15,2,12,9,10,13,3,1,8,7"
15137,commdev-image-keyboard-response,561,1040905,learnblock2,1005.8999999910593,img/planet3_right.png,3,Community 3,NA,FALSE,f,j,NA,NA,NA,5,6,"4,14,11,5,6,15,2,12,9,10,13,3,1,8,7"
15137,commdev-image-keyboard-response,562,1042156,learnblock2,1096.800000011921,img/planet7_left.png,7,Community 3,NA,TRUE,f,f,NA,NA,NA,5,6,"4,14,11,5,6,15,2,12,9,10,13,3,1,8,7"
15137,commdev-image-keyboard-response,563,1043407,learnblock2,1036,img/planet1_right.png,1,Community 3,NA,TRUE,j,j,NA,NA,NA,5,6,"4,14,11,5,6,15,2,12,9,10,13,3,1,8,7"
15137,commdev-image-keyboard-response,564,1044659,learnblock2,966.3999999910593,img/planet8_left.png,8,Community 3,NA,FALSE,j,f,NA,NA,NA,5,6,"4,14,11,5,6,15,2,12,9,10,13,3,1,8,7"
15137,commdev-image-keyboard-response,565,1045910,learnblock2,242,img/planet3_right.png,3,Community 3,NA,FALSE,f,j,NA,NA,NA,5,6,"4,14,11,5,6,15,2,12,9,10,13,3,1,8,7"
15137,commdev-image-keyboard-response,566,1047162,learnblock2,1056.9000000059605,img/planet12_right.png,12,Community 2,NA,TRUE,j,j,NA,NA,NA,5,6,"4,14,11,5,6,15,2,12,9,10,13,3,1,8,7"
15137,commdev-image-keyboard-response,567,1048413,learnblock2,944.7999999970198,img/planet10_right.png,10,Community 2,NA,TRUE,j,j,NA,NA,NA,5,6,"4,14,11,5,6,15,2,12,9,10,13,3,1,8,7"
15137,commdev-image-keyboard-response,568,1049664,learnblock2,907.7000000029802,img/planet15_left.png,15,Community 2,NA,TRUE,f,f,NA,NA,NA,5,6,"4,14,11,5,6,15,2,12,9,10,13,3,1,8,7"
15137,commdev-image-keyboard-response,569,1050916,learnblock2,999.6000000089407,img/planet9_right.png,9,Community 2,NA,FALSE,f,j,NA,NA,NA,5,6,"4,14,11,5,6,15,2,12,9,10,13,3,1,8,7"
15137,commdev-image-keyboard-response,570,1052168,learnblock2,935.5,img/planet12_right.png,12,Community 2,NA,TRUE,j,j,NA,NA,NA,5,6,"4,14,11,5,6,15,2,12,9,10,13,3,1,8,7"
15137,commdev-image-keyboard-response,571,1053432,learnblock2,792.1000000089407,img/planet10_left.png,10,Community 2,NA,FALSE,j,f,NA,NA,NA,5,6,"4,14,11,5,6,15,2,12,9,10,13,3,1,8,7"
15137,commdev-image-keyboard-response,572,1054684,learnblock2,381.59999999403954,img/planet15_left.png,15,Community 2,NA,TRUE,f,f,NA,NA,NA,5,6,"4,14,11,5,6,15,2,12,9,10,13,3,1,8,7"
15137,commdev-image-keyboard-response,573,1055935,learnblock2,36.70000000298023,img/planet2_left.png,2,Community 2,NA,TRUE,f,f,NA,NA,NA,5,6,"4,14,11,5,6,15,2,12,9,10,13,3,1,8,7"
15137,commdev-image-keyboard-response,574,1057187,learnblock2,922.7000000029802,img/planet10_left.png,10,Community 2,NA,TRUE,f,f,NA,NA,NA,5,6,"4,14,11,5,6,15,2,12,9,10,13,3,1,8,7"
15137,commdev-image-keyboard-response,575,1058438,learnblock2,782.1999999880791,img/planet12_right.png,12,Community 2,NA,FALSE,f,j,NA,NA,NA,5,6,"4,14,11,5,6,15,2,12,9,10,13,3,1,8,7"
15137,commdev-image-keyboard-response,576,1059689,learnblock2,917.5,img/planet2_right.png,2,Community 2,NA,FALSE,f,j,NA,NA,NA,5,6,"4,14,11,5,6,15,2,12,9,10,13,3,1,8,7"
15137,commdev-image-keyboard-response,577,1060940,learnblock2,496.3999999910593,img/planet15_right.png,15,Community 2,NA,TRUE,j,j,NA,NA,NA,5,6,"4,14,11,5,6,15,2,12,9,10,13,3,1,8,7"
15137,commdev-image-keyboard-response,578,1062191,learnblock2,802.8999999910593,img/planet5_right.png,5,Community 1,NA,TRUE,j,j,NA,NA,NA,5,6,"4,14,11,5,6,15,2,12,9,10,13,3,1,8,7"
15137,commdev-image-keyboard-response,579,1063443,learnblock2,82.70000000298023,img/planet4_left.png,4,Community 1,NA,FALSE,j,f,NA,NA,NA,5,6,"4,14,11,5,6,15,2,12,9,10,13,3,1,8,7"
15137,commdev-image-keyboard-response,580,1064694,learnblock2,749.3000000119209,img/planet11_right.png,11,Community 1,NA,TRUE,j,j,NA,NA,NA,5,6,"4,14,11,5,6,15,2,12,9,10,13,3,1,8,7"
15137,commdev-image-keyboard-response,581,1065945,learnblock2,443.20000000298023,img/planet14_left.png,14,Community 1,NA,FALSE,j,f,NA,NA,NA,5,6,"4,14,11,5,6,15,2,12,9,10,13,3,1,8,7"
15137,commdev-image-keyboard-response,582,1067197,learnblock2,679.4000000059605,img/planet5_right.png,5,Community 1,NA,TRUE,j,j,NA,NA,NA,5,6,"4,14,11,5,6,15,2,12,9,10,13,3,1,8,7"
15137,commdev-image-keyboard-response,583,1068463,learnblock2,683.0999999940395,img/planet11_left.png,11,Community 1,NA,TRUE,f,f,NA,NA,NA,5,6,"4,14,11,5,6,15,2,12,9,10,13,3,1,8,7"
15137,commdev-image-keyboard-response,584,1069715,learnblock2,602.8999999910593,img/planet14_left.png,14,Community 1,NA,FALSE,j,f,NA,NA,NA,5,6,"4,14,11,5,6,15,2,12,9,10,13,3,1,8,7"
15137,commdev-image-keyboard-response,585,1070965,learnblock2,1005.0999999940395,img/planet6_right.png,6,Community 1,NA,TRUE,j,j,NA,NA,NA,5,6,"4,14,11,5,6,15,2,12,9,10,13,3,1,8,7"
15137,commdev-image-keyboard-response,586,1072217,learnblock2,1038.5,img/planet13_right.png,13,Community 3,NA,TRUE,j,j,NA,NA,NA,5,6,"4,14,11,5,6,15,2,12,9,10,13,3,1,8,7"
