subject_id,trial_type,trial_index,time_elapsed,block,rt,stimulus,planet,community,response,correct,key_press,learning_correct_response,parse,init_locations,final_locations,browser_interactions,num_comp,planet_map
15362,commdev-instructions,7,56653,NA,3788.8999999910593,"<p>In this game, you are a scientist on board a space shuttle. </p><p> On each mission, you will visit planets all across the universe.</p><img src=""img/controlroom.jpg"" width=300vw>",NA,NA,NA,NA,NA,NA,NA,NA,NA,59,6,"3,5,1,9,6,12,4,2,13,14,8,7,10,11,15"
15362,commdev-instructions,8,60083,NA,1358.800000011921,"<p>Here are a few planets you might see:</p><img src=""img/practice1.png"" width=200vw><img src=""img/practice2.png"" width=200vw><img src=""img/practice3.png"" width=200vw>",NA,NA,NA,NA,NA,NA,NA,NA,NA,59,6,"3,5,1,9,6,12,4,2,13,14,8,7,10,11,15"
15362,commdev-instructions,9,68345,NA,870,"<p>Your job as a scientist is to record which direction the winds are moving on each planet.</p><p>There are two types of wind directions:</p><img src=""img/practice1_left.png"" width=200vw><img src=""img/practice1_right.png"" width=200vw>",NA,NA,NA,NA,NA,NA,NA,NA,NA,59,6,"3,5,1,9,6,12,4,2,13,14,8,7,10,11,15"
15362,commdev-instructions,10,74527,NA,1302.0999999940395,"<p>If the winds are moving this way, press the letter <strong>F</strong> on the keyboard as fast as you can.</p><img src=""img/leftwind.png"" width=250vw>",NA,NA,NA,NA,NA,NA,NA,NA,NA,59,6,"3,5,1,9,6,12,4,2,13,14,8,7,10,11,15"
15362,commdev-instructions,11,82096,NA,3081.3999999910593,"<p>If the winds are moving this way, press the letter <strong>J</strong> on the keyboard as fast as you can.</p><img src=""img/rightwind.png"" width=350vw>",NA,NA,NA,NA,NA,NA,NA,NA,NA,59,6,"3,5,1,9,6,12,4,2,13,14,8,7,10,11,15"
15362,commdev-instructions,12,123166,NA,36651,<p>You will have 1 second to respond. Try to respond before the time runs out!,NA,NA,NA,NA,NA,NA,NA,NA,NA,59,6,"3,5,1,9,6,12,4,2,13,14,8,7,10,11,15"
15362,commdev-instructions,13,139233,NA,10628.90000000596,<p>The planets you will visit will look different from each other.</p><p>You should respond <strong>only</strong> based on wind direction.,NA,NA,NA,NA,NA,NA,NA,NA,NA,59,6,"3,5,1,9,6,12,4,2,13,14,8,7,10,11,15"
15362,commdev-instructions,14,145926,NA,1521.300000011921,"<p> Ready to start the practice round? </p><p> Remember, press <strong>F</strong> or <strong>J</strong> depending on the wind direction.<br><img src=""img/categorize_planet_example.png""",NA,NA,NA,NA,NA,NA,NA,NA,NA,59,6,"3,5,1,9,6,12,4,2,13,14,8,7,10,11,15"
15362,commdev-instructions,26,196990,NA,2770.1000000089407,"<p>Great, now try a short practice mission. </p><p> This time, you will have 1 second to respond and you won't know whether you pressed the right or wrong key for each planet.</p>",NA,NA,NA,NA,NA,NA,NA,NA,NA,59,6,"3,5,1,9,6,12,4,2,13,14,8,7,10,11,15"
15362,commdev-image-keyboard-response,27,198342,practice,906.1000000089407,img/practice2_right.png,NA,Number not found in mappings,NA,TRUE,j,j,NA,NA,NA,59,6,"3,5,1,9,6,12,4,2,13,14,8,7,10,11,15"
15362,commdev-image-keyboard-response,28,199593,practice,576.5999999940395,img/practice4_left.png,NA,Number not found in mappings,NA,TRUE,f,f,NA,NA,NA,59,6,"3,5,1,9,6,12,4,2,13,14,8,7,10,11,15"
15362,commdev-image-keyboard-response,29,200845,practice,720.4000000059605,img/practice1_right.png,NA,Number not found in mappings,NA,TRUE,j,j,NA,NA,NA,59,6,"3,5,1,9,6,12,4,2,13,14,8,7,10,11,15"
15362,commdev-image-keyboard-response,30,202097,practice,null,img/practice3_right.png,NA,Number not found in mappings,NA,FALSE,null,j,NA,NA,NA,59,6,"3,5,1,9,6,12,4,2,13,14,8,7,10,11,15"
15362,commdev-image-keyboard-response,31,203347,practice,867.5,img/practice4_left.png,NA,Number not found in mappings,NA,TRUE,f,f,NA,NA,NA,59,6,"3,5,1,9,6,12,4,2,13,14,8,7,10,11,15"
15362,commdev-image-keyboard-response,32,204598,practice,691.7999999970198,img/practice2_left.png,NA,Number not found in mappings,NA,TRUE,f,f,NA,NA,NA,59,6,"3,5,1,9,6,12,4,2,13,14,8,7,10,11,15"
15362,commdev-image-keyboard-response,33,205849,practice,574,img/practice1_right.png,NA,Number not found in mappings,NA,TRUE,j,j,NA,NA,NA,59,6,"3,5,1,9,6,12,4,2,13,14,8,7,10,11,15"
15362,commdev-image-keyboard-response,34,207099,practice,457.5,img/practice3_left.png,NA,Number not found in mappings,NA,TRUE,f,f,NA,NA,NA,59,6,"3,5,1,9,6,12,4,2,13,14,8,7,10,11,15"
15362,commdev-instructions,35,218049,NA,1389,"<p>Great job with the practice round.</p><p>During real missions, you won't know whether you pressed the right or wrong key for each planet.</p><p>But between missions, we will tell you how you did overall.</p>",NA,NA,NA,NA,NA,NA,NA,NA,NA,59,6,"3,5,1,9,6,12,4,2,13,14,8,7,10,11,15"
15362,commdev-instructions,36,227391,NA,1101.1000000089407,<p>Try your best! You will be paid a bonus based on how many correct responses you make!</p><p>Responses that are too slow will not count toward your bonus.</p>,NA,NA,NA,NA,NA,NA,NA,NA,NA,59,6,"3,5,1,9,6,12,4,2,13,14,8,7,10,11,15"
15362,commdev-instructions,37,234371,NA,781.2999999970198,"<p>You are almost ready to start the real game.</p><p> First, we are going to ask you some questions about how the game works.</p>",NA,NA,NA,NA,NA,NA,NA,NA,NA,59,6,"3,5,1,9,6,12,4,2,13,14,8,7,10,11,15"
15362,commdev-instructions,46,313764,NA,1494.6000000089407,"<p> Nice work! It is now time to start the real game.<p></p>You will go on two missions to record wind directions of different planets.<p></p>Each one will take about 5 minutes. You will get to take a break between missions.<p><p> Remember, press <strong>F</strong> or <strong>J</strong> depending on the wind direction. Good luck!<br><img src=""img/categorize_planet_example.png""",NA,NA,NA,NA,NA,NA,NA,NA,NA,59,6,"3,5,1,9,6,12,4,2,13,14,8,7,10,11,15"
15362,commdev-image-keyboard-response,48,316930,learnblock1,891.6999999880791,img/planet7_left.png,7,Community 3,NA,FALSE,j,f,NA,NA,NA,59,6,"3,5,1,9,6,12,4,2,13,14,8,7,10,11,15"
15362,commdev-image-keyboard-response,49,318181,learnblock1,627.7000000029802,img/planet2_left.png,2,Community 2,NA,FALSE,j,f,NA,NA,NA,59,6,"3,5,1,9,6,12,4,2,13,14,8,7,10,11,15"
15362,commdev-image-keyboard-response,50,319432,learnblock1,670.7999999970198,img/planet4_right.png,4,Community 2,NA,TRUE,j,j,NA,NA,NA,59,6,"3,5,1,9,6,12,4,2,13,14,8,7,10,11,15"
15362,commdev-image-keyboard-response,51,320683,learnblock1,813.9000000059605,img/planet14_left.png,14,Community 2,NA,TRUE,f,f,NA,NA,NA,59,6,"3,5,1,9,6,12,4,2,13,14,8,7,10,11,15"
15362,commdev-image-keyboard-response,52,321935,learnblock1,533.4000000059605,img/planet4_left.png,4,Community 2,NA,TRUE,f,f,NA,NA,NA,59,6,"3,5,1,9,6,12,4,2,13,14,8,7,10,11,15"
15362,commdev-image-keyboard-response,53,323187,learnblock1,584,img/planet12_left.png,12,Community 2,NA,TRUE,f,f,NA,NA,NA,59,6,"3,5,1,9,6,12,4,2,13,14,8,7,10,11,15"
15362,commdev-image-keyboard-response,54,324438,learnblock1,533.6000000089407,img/planet14_left.png,14,Community 2,NA,TRUE,f,f,NA,NA,NA,59,6,"3,5,1,9,6,12,4,2,13,14,8,7,10,11,15"
15362,commdev-image-keyboard-response,55,325689,learnblock1,624.3999999910593,img/planet13_left.png,13,Community 2,NA,TRUE,f,f,NA,NA,NA,59,6,"3,5,1,9,6,12,4,2,13,14,8,7,10,11,15"
15362,commdev-image-keyboard-response,56,326940,learnblock1,522.0999999940395,img/planet12_left.png,12,Community 2,NA,TRUE,f,f,NA,NA,NA,59,6,"3,5,1,9,6,12,4,2,13,14,8,7,10,11,15"
15362,commdev-image-keyboard-response,57,328191,learnblock1,533.3000000119209,img/planet14_left.png,14,Community 2,NA,TRUE,f,f,NA,NA,NA,59,6,"3,5,1,9,6,12,4,2,13,14,8,7,10,11,15"
15362,commdev-image-keyboard-response,58,329442,learnblock1,756.2000000029802,img/planet13_left.png,13,Community 2,NA,TRUE,f,f,NA,NA,NA,59,6,"3,5,1,9,6,12,4,2,13,14,8,7,10,11,15"
15362,commdev-image-keyboard-response,59,330694,learnblock1,474.59999999403954,img/planet14_right.png,14,Community 2,NA,FALSE,f,j,NA,NA,NA,59,6,"3,5,1,9,6,12,4,2,13,14,8,7,10,11,15"
15362,commdev-image-keyboard-response,60,331945,learnblock1,635.1000000089407,img/planet2_left.png,2,Community 2,NA,TRUE,f,f,NA,NA,NA,59,6,"3,5,1,9,6,12,4,2,13,14,8,7,10,11,15"
15362,commdev-image-keyboard-response,61,333196,learnblock1,631.1999999880791,img/planet14_left.png,14,Community 2,NA,TRUE,f,f,NA,NA,NA,59,6,"3,5,1,9,6,12,4,2,13,14,8,7,10,11,15"
15362,commdev-image-keyboard-response,62,334448,learnblock1,522,img/planet4_right.png,4,Community 2,NA,TRUE,j,j,NA,NA,NA,59,6,"3,5,1,9,6,12,4,2,13,14,8,7,10,11,15"
15362,commdev-image-keyboard-response,63,335699,learnblock1,990.2999999970198,img/planet13_left.png,13,Community 2,NA,TRUE,f,f,NA,NA,NA,59,6,"3,5,1,9,6,12,4,2,13,14,8,7,10,11,15"
15362,commdev-image-keyboard-response,64,336950,learnblock1,681.0999999940395,img/planet14_left.png,14,Community 2,NA,TRUE,f,f,NA,NA,NA,59,6,"3,5,1,9,6,12,4,2,13,14,8,7,10,11,15"
15362,commdev-image-keyboard-response,65,338200,learnblock1,537.9000000059605,img/planet4_left.png,4,Community 2,NA,TRUE,f,f,NA,NA,NA,59,6,"3,5,1,9,6,12,4,2,13,14,8,7,10,11,15"
15362,commdev-image-keyboard-response,66,339452,learnblock1,478.69999998807907,img/planet13_left.png,13,Community 2,NA,TRUE,f,f,NA,NA,NA,59,6,"3,5,1,9,6,12,4,2,13,14,8,7,10,11,15"
15362,commdev-image-keyboard-response,67,340703,learnblock1,545,img/planet12_left.png,12,Community 2,NA,TRUE,f,f,NA,NA,NA,59,6,"3,5,1,9,6,12,4,2,13,14,8,7,10,11,15"
15362,commdev-image-keyboard-response,68,341954,learnblock1,564.0999999940395,img/planet4_right.png,4,Community 2,NA,TRUE,j,j,NA,NA,NA,59,6,"3,5,1,9,6,12,4,2,13,14,8,7,10,11,15"
15362,commdev-image-keyboard-response,69,343205,learnblock1,534,img/planet14_right.png,14,Community 2,NA,TRUE,j,j,NA,NA,NA,59,6,"3,5,1,9,6,12,4,2,13,14,8,7,10,11,15"
15362,commdev-image-keyboard-response,70,344456,learnblock1,557.2000000029802,img/planet13_left.png,13,Community 2,NA,TRUE,f,f,NA,NA,NA,59,6,"3,5,1,9,6,12,4,2,13,14,8,7,10,11,15"
15362,commdev-image-keyboard-response,71,345707,learnblock1,602.3999999910593,img/planet2_right.png,2,Community 2,NA,FALSE,f,j,NA,NA,NA,59,6,"3,5,1,9,6,12,4,2,13,14,8,7,10,11,15"
15362,commdev-image-keyboard-response,72,346959,learnblock1,606.2999999970198,img/planet14_left.png,14,Community 2,NA,TRUE,f,f,NA,NA,NA,59,6,"3,5,1,9,6,12,4,2,13,14,8,7,10,11,15"
15362,commdev-image-keyboard-response,73,348210,learnblock1,715.5999999940395,img/planet13_left.png,13,Community 2,NA,TRUE,f,f,NA,NA,NA,59,6,"3,5,1,9,6,12,4,2,13,14,8,7,10,11,15"
15362,commdev-image-keyboard-response,74,349461,learnblock1,620.5,img/planet12_right.png,12,Community 2,NA,TRUE,j,j,NA,NA,NA,59,6,"3,5,1,9,6,12,4,2,13,14,8,7,10,11,15"
15362,commdev-image-keyboard-response,75,350713,learnblock1,745.7999999970198,img/planet13_right.png,13,Community 2,NA,TRUE,j,j,NA,NA,NA,59,6,"3,5,1,9,6,12,4,2,13,14,8,7,10,11,15"
15362,commdev-image-keyboard-response,76,351965,learnblock1,631.5,img/planet12_left.png,12,Community 2,NA,TRUE,f,f,NA,NA,NA,59,6,"3,5,1,9,6,12,4,2,13,14,8,7,10,11,15"
15362,commdev-image-keyboard-response,77,353216,learnblock1,727.4000000059605,img/planet4_right.png,4,Community 2,NA,TRUE,j,j,NA,NA,NA,59,6,"3,5,1,9,6,12,4,2,13,14,8,7,10,11,15"
15362,commdev-image-keyboard-response,78,354467,learnblock1,568.4000000059605,img/planet13_left.png,13,Community 2,NA,TRUE,f,f,NA,NA,NA,59,6,"3,5,1,9,6,12,4,2,13,14,8,7,10,11,15"
15362,commdev-image-keyboard-response,79,355719,learnblock1,473.19999998807907,img/planet4_right.png,4,Community 2,NA,TRUE,j,j,NA,NA,NA,59,6,"3,5,1,9,6,12,4,2,13,14,8,7,10,11,15"
15362,commdev-image-keyboard-response,80,356971,learnblock1,554.5,img/planet13_right.png,13,Community 2,NA,TRUE,j,j,NA,NA,NA,59,6,"3,5,1,9,6,12,4,2,13,14,8,7,10,11,15"
15362,commdev-image-keyboard-response,81,358222,learnblock1,617,img/planet14_right.png,14,Community 2,NA,TRUE,j,j,NA,NA,NA,59,6,"3,5,1,9,6,12,4,2,13,14,8,7,10,11,15"
15362,commdev-image-keyboard-response,82,359474,learnblock1,654,img/planet2_left.png,2,Community 2,NA,TRUE,f,f,NA,NA,NA,59,6,"3,5,1,9,6,12,4,2,13,14,8,7,10,11,15"
15362,commdev-image-keyboard-response,83,360725,learnblock1,579.7999999970198,img/planet14_right.png,14,Community 2,NA,TRUE,j,j,NA,NA,NA,59,6,"3,5,1,9,6,12,4,2,13,14,8,7,10,11,15"
15362,commdev-image-keyboard-response,84,361976,learnblock1,666.6000000089407,img/planet12_right.png,12,Community 2,NA,TRUE,j,j,NA,NA,NA,59,6,"3,5,1,9,6,12,4,2,13,14,8,7,10,11,15"
15362,commdev-image-keyboard-response,85,363228,learnblock1,551.3999999910593,img/planet4_right.png,4,Community 2,NA,TRUE,j,j,NA,NA,NA,59,6,"3,5,1,9,6,12,4,2,13,14,8,7,10,11,15"
15362,commdev-image-keyboard-response,86,364479,learnblock1,506.40000000596046,img/planet2_left.png,2,Community 2,NA,TRUE,f,f,NA,NA,NA,59,6,"3,5,1,9,6,12,4,2,13,14,8,7,10,11,15"
15362,commdev-image-keyboard-response,87,365730,learnblock1,623.0999999940395,img/planet14_left.png,14,Community 2,NA,TRUE,f,f,NA,NA,NA,59,6,"3,5,1,9,6,12,4,2,13,14,8,7,10,11,15"
15362,commdev-image-keyboard-response,88,366981,learnblock1,547.8000000119209,img/planet12_right.png,12,Community 2,NA,TRUE,j,j,NA,NA,NA,59,6,"3,5,1,9,6,12,4,2,13,14,8,7,10,11,15"
15362,commdev-image-keyboard-response,89,368232,learnblock1,572,img/planet14_left.png,14,Community 2,NA,TRUE,f,f,NA,NA,NA,59,6,"3,5,1,9,6,12,4,2,13,14,8,7,10,11,15"
15362,commdev-image-keyboard-response,90,369484,learnblock1,745.3999999910593,img/planet12_left.png,12,Community 2,NA,TRUE,f,f,NA,NA,NA,59,6,"3,5,1,9,6,12,4,2,13,14,8,7,10,11,15"
15362,commdev-image-keyboard-response,91,370734,learnblock1,552.9000000059605,img/planet13_left.png,13,Community 2,NA,TRUE,f,f,NA,NA,NA,59,6,"3,5,1,9,6,12,4,2,13,14,8,7,10,11,15"
15362,commdev-image-keyboard-response,92,371985,learnblock1,643.7999999970198,img/planet12_right.png,12,Community 2,NA,TRUE,j,j,NA,NA,NA,59,6,"3,5,1,9,6,12,4,2,13,14,8,7,10,11,15"
15362,commdev-image-keyboard-response,93,373237,learnblock1,570.2000000029802,img/planet14_right.png,14,Community 2,NA,TRUE,j,j,NA,NA,NA,59,6,"3,5,1,9,6,12,4,2,13,14,8,7,10,11,15"
15362,commdev-image-keyboard-response,94,374488,learnblock1,562.2999999970198,img/planet4_left.png,4,Community 2,NA,TRUE,f,f,NA,NA,NA,59,6,"3,5,1,9,6,12,4,2,13,14,8,7,10,11,15"
15362,commdev-image-keyboard-response,95,375740,learnblock1,802.4000000059605,img/planet12_right.png,12,Community 2,NA,TRUE,j,j,NA,NA,NA,59,6,"3,5,1,9,6,12,4,2,13,14,8,7,10,11,15"
15362,commdev-image-keyboard-response,96,376991,learnblock1,614.6000000089407,img/planet14_left.png,14,Community 2,NA,TRUE,f,f,NA,NA,NA,59,6,"3,5,1,9,6,12,4,2,13,14,8,7,10,11,15"
15362,commdev-image-keyboard-response,97,378243,learnblock1,588.2000000029802,img/planet13_left.png,13,Community 2,NA,TRUE,f,f,NA,NA,NA,59,6,"3,5,1,9,6,12,4,2,13,14,8,7,10,11,15"
15362,commdev-image-keyboard-response,98,379494,learnblock1,564.9000000059605,img/planet14_left.png,14,Community 2,NA,TRUE,f,f,NA,NA,NA,59,6,"3,5,1,9,6,12,4,2,13,14,8,7,10,11,15"
15362,commdev-image-keyboard-response,99,380746,learnblock1,621.6999999880791,img/planet4_left.png,4,Community 2,NA,TRUE,f,f,NA,NA,NA,59,6,"3,5,1,9,6,12,4,2,13,14,8,7,10,11,15"
15362,commdev-image-keyboard-response,100,381997,learnblock1,598.7000000029802,img/planet12_left.png,12,Community 2,NA,TRUE,f,f,NA,NA,NA,59,6,"3,5,1,9,6,12,4,2,13,14,8,7,10,11,15"
15362,commdev-image-keyboard-response,101,383248,learnblock1,541.6999999880791,img/planet9_right.png,9,Community 1,NA,TRUE,j,j,NA,NA,NA,59,6,"3,5,1,9,6,12,4,2,13,14,8,7,10,11,15"
15362,commdev-image-keyboard-response,102,384499,learnblock1,845.2999999970198,img/planet5_left.png,5,Community 1,NA,TRUE,f,f,NA,NA,NA,59,6,"3,5,1,9,6,12,4,2,13,14,8,7,10,11,15"
15362,commdev-image-keyboard-response,103,385751,learnblock1,650.1000000089407,img/planet1_left.png,1,Community 1,NA,TRUE,f,f,NA,NA,NA,59,6,"3,5,1,9,6,12,4,2,13,14,8,7,10,11,15"
15362,commdev-image-keyboard-response,104,387002,learnblock1,798.5,img/planet9_left.png,9,Community 1,NA,TRUE,f,f,NA,NA,NA,59,6,"3,5,1,9,6,12,4,2,13,14,8,7,10,11,15"
15362,commdev-image-keyboard-response,105,388253,learnblock1,535.2000000029802,img/planet5_left.png,5,Community 1,NA,TRUE,f,f,NA,NA,NA,59,6,"3,5,1,9,6,12,4,2,13,14,8,7,10,11,15"
15362,commdev-image-keyboard-response,106,389504,learnblock1,579.2000000029802,img/planet9_left.png,9,Community 1,NA,TRUE,f,f,NA,NA,NA,59,6,"3,5,1,9,6,12,4,2,13,14,8,7,10,11,15"
15362,commdev-image-keyboard-response,107,390754,learnblock1,488.59999999403954,img/planet12_right.png,12,Community 2,NA,TRUE,j,j,NA,NA,NA,59,6,"3,5,1,9,6,12,4,2,13,14,8,7,10,11,15"
15362,commdev-image-keyboard-response,108,392006,learnblock1,589.5,img/planet14_left.png,14,Community 2,NA,TRUE,f,f,NA,NA,NA,59,6,"3,5,1,9,6,12,4,2,13,14,8,7,10,11,15"
15362,commdev-image-keyboard-response,109,393258,learnblock1,464.20000000298023,img/planet2_left.png,2,Community 2,NA,TRUE,f,f,NA,NA,NA,59,6,"3,5,1,9,6,12,4,2,13,14,8,7,10,11,15"
15362,commdev-image-keyboard-response,110,394509,learnblock1,505,img/planet14_left.png,14,Community 2,NA,TRUE,f,f,NA,NA,NA,59,6,"3,5,1,9,6,12,4,2,13,14,8,7,10,11,15"
15362,commdev-image-keyboard-response,111,395760,learnblock1,445.3999999910593,img/planet4_left.png,4,Community 2,NA,TRUE,f,f,NA,NA,NA,59,6,"3,5,1,9,6,12,4,2,13,14,8,7,10,11,15"
15362,commdev-image-keyboard-response,112,397011,learnblock1,483.09999999403954,img/planet12_left.png,12,Community 2,NA,TRUE,f,f,NA,NA,NA,59,6,"3,5,1,9,6,12,4,2,13,14,8,7,10,11,15"
15362,commdev-image-keyboard-response,113,398262,learnblock1,578.2000000029802,img/planet4_right.png,4,Community 2,NA,TRUE,j,j,NA,NA,NA,59,6,"3,5,1,9,6,12,4,2,13,14,8,7,10,11,15"
15362,commdev-image-keyboard-response,114,399513,learnblock1,472,img/planet2_left.png,2,Community 2,NA,TRUE,f,f,NA,NA,NA,59,6,"3,5,1,9,6,12,4,2,13,14,8,7,10,11,15"
15362,commdev-image-keyboard-response,115,400764,learnblock1,638.6000000089407,img/planet4_left.png,4,Community 2,NA,TRUE,f,f,NA,NA,NA,59,6,"3,5,1,9,6,12,4,2,13,14,8,7,10,11,15"
15362,commdev-image-keyboard-response,116,402015,learnblock1,481.5,img/planet13_left.png,13,Community 2,NA,TRUE,f,f,NA,NA,NA,59,6,"3,5,1,9,6,12,4,2,13,14,8,7,10,11,15"
15362,commdev-image-keyboard-response,117,403266,learnblock1,452.29999999701977,img/planet12_left.png,12,Community 2,NA,TRUE,f,f,NA,NA,NA,59,6,"3,5,1,9,6,12,4,2,13,14,8,7,10,11,15"
15362,commdev-image-keyboard-response,118,404517,learnblock1,473.79999999701977,img/planet4_left.png,4,Community 2,NA,TRUE,f,f,NA,NA,NA,59,6,"3,5,1,9,6,12,4,2,13,14,8,7,10,11,15"
15362,commdev-image-keyboard-response,119,405768,learnblock1,436.5,img/planet2_left.png,2,Community 2,NA,TRUE,f,f,NA,NA,NA,59,6,"3,5,1,9,6,12,4,2,13,14,8,7,10,11,15"
15362,commdev-image-keyboard-response,120,407018,learnblock1,535.2000000029802,img/planet4_right.png,4,Community 2,NA,TRUE,j,j,NA,NA,NA,59,6,"3,5,1,9,6,12,4,2,13,14,8,7,10,11,15"
15362,commdev-image-keyboard-response,121,408269,learnblock1,548.8999999910593,img/planet14_left.png,14,Community 2,NA,TRUE,f,f,NA,NA,NA,59,6,"3,5,1,9,6,12,4,2,13,14,8,7,10,11,15"
15362,commdev-image-keyboard-response,122,409520,learnblock1,652.1000000089407,img/planet2_left.png,2,Community 2,NA,TRUE,f,f,NA,NA,NA,59,6,"3,5,1,9,6,12,4,2,13,14,8,7,10,11,15"
15362,commdev-image-keyboard-response,123,410772,learnblock1,583.5,img/planet14_left.png,14,Community 2,NA,TRUE,f,f,NA,NA,NA,59,6,"3,5,1,9,6,12,4,2,13,14,8,7,10,11,15"
15362,commdev-image-keyboard-response,124,412023,learnblock1,536.3999999910593,img/planet2_left.png,2,Community 2,NA,TRUE,f,f,NA,NA,NA,59,6,"3,5,1,9,6,12,4,2,13,14,8,7,10,11,15"
15362,commdev-image-keyboard-response,125,413274,learnblock1,504.3999999910593,img/planet13_left.png,13,Community 2,NA,TRUE,f,f,NA,NA,NA,59,6,"3,5,1,9,6,12,4,2,13,14,8,7,10,11,15"
15362,commdev-image-keyboard-response,126,414525,learnblock1,558.5,img/planet12_right.png,12,Community 2,NA,TRUE,j,j,NA,NA,NA,59,6,"3,5,1,9,6,12,4,2,13,14,8,7,10,11,15"
15362,commdev-image-keyboard-response,127,415776,learnblock1,568.6999999880791,img/planet13_right.png,13,Community 2,NA,TRUE,j,j,NA,NA,NA,59,6,"3,5,1,9,6,12,4,2,13,14,8,7,10,11,15"
15362,commdev-image-keyboard-response,128,417026,learnblock1,571.0999999940395,img/planet2_left.png,2,Community 2,NA,TRUE,f,f,NA,NA,NA,59,6,"3,5,1,9,6,12,4,2,13,14,8,7,10,11,15"
15362,commdev-image-keyboard-response,129,418278,learnblock1,1141.9000000059605,img/planet7_left.png,7,Community 3,NA,TRUE,f,f,NA,NA,NA,59,6,"3,5,1,9,6,12,4,2,13,14,8,7,10,11,15"
15362,commdev-image-keyboard-response,130,419529,learnblock1,648.2999999970198,img/planet15_right.png,15,Community 3,NA,TRUE,j,j,NA,NA,NA,59,6,"3,5,1,9,6,12,4,2,13,14,8,7,10,11,15"
15362,commdev-image-keyboard-response,131,420780,learnblock1,630.2000000029802,img/planet10_left.png,10,Community 3,NA,TRUE,f,f,NA,NA,NA,59,6,"3,5,1,9,6,12,4,2,13,14,8,7,10,11,15"
15362,commdev-image-keyboard-response,132,422031,learnblock1,631.3999999910593,img/planet11_right.png,11,Community 3,NA,TRUE,j,j,NA,NA,NA,59,6,"3,5,1,9,6,12,4,2,13,14,8,7,10,11,15"
15362,commdev-image-keyboard-response,133,423282,learnblock1,636.4000000059605,img/planet10_right.png,10,Community 3,NA,TRUE,j,j,NA,NA,NA,59,6,"3,5,1,9,6,12,4,2,13,14,8,7,10,11,15"
15362,commdev-image-keyboard-response,134,424533,learnblock1,523.6000000089407,img/planet11_right.png,11,Community 3,NA,TRUE,j,j,NA,NA,NA,59,6,"3,5,1,9,6,12,4,2,13,14,8,7,10,11,15"
15362,commdev-image-keyboard-response,135,425784,learnblock1,556.2999999970198,img/planet10_left.png,10,Community 3,NA,TRUE,f,f,NA,NA,NA,59,6,"3,5,1,9,6,12,4,2,13,14,8,7,10,11,15"
15362,commdev-image-keyboard-response,136,427036,learnblock1,641.5999999940395,img/planet11_right.png,11,Community 3,NA,TRUE,j,j,NA,NA,NA,59,6,"3,5,1,9,6,12,4,2,13,14,8,7,10,11,15"
15362,commdev-image-keyboard-response,137,428287,learnblock1,728.2000000029802,img/planet8_left.png,8,Community 3,NA,TRUE,f,f,NA,NA,NA,59,6,"3,5,1,9,6,12,4,2,13,14,8,7,10,11,15"
15362,commdev-image-keyboard-response,138,429538,learnblock1,651.1000000089407,img/planet6_right.png,6,Community 1,NA,TRUE,j,j,NA,NA,NA,59,6,"3,5,1,9,6,12,4,2,13,14,8,7,10,11,15"
15362,commdev-image-keyboard-response,139,430788,learnblock1,660.5999999940395,img/planet3_right.png,3,Community 1,NA,TRUE,j,j,NA,NA,NA,59,6,"3,5,1,9,6,12,4,2,13,14,8,7,10,11,15"
15362,commdev-image-keyboard-response,140,432039,learnblock1,543.3000000119209,img/planet6_right.png,6,Community 1,NA,TRUE,j,j,NA,NA,NA,59,6,"3,5,1,9,6,12,4,2,13,14,8,7,10,11,15"
15362,commdev-image-keyboard-response,141,433291,learnblock1,846.8000000119209,img/planet1_right.png,1,Community 1,NA,FALSE,f,j,NA,NA,NA,59,6,"3,5,1,9,6,12,4,2,13,14,8,7,10,11,15"
15362,commdev-image-keyboard-response,142,434542,learnblock1,863.1000000089407,img/planet3_right.png,3,Community 1,NA,FALSE,f,j,NA,NA,NA,59,6,"3,5,1,9,6,12,4,2,13,14,8,7,10,11,15"
15362,commdev-image-keyboard-response,143,435793,learnblock1,null,img/planet1_left.png,1,Community 1,NA,FALSE,null,f,NA,NA,NA,59,6,"3,5,1,9,6,12,4,2,13,14,8,7,10,11,15"
15362,commdev-image-keyboard-response,144,437045,learnblock1,13.200000002980232,img/planet5_right.png,5,Community 1,NA,FALSE,f,j,NA,NA,NA,59,6,"3,5,1,9,6,12,4,2,13,14,8,7,10,11,15"
15362,commdev-image-keyboard-response,145,438296,learnblock1,573.0999999940395,img/planet6_right.png,6,Community 1,NA,TRUE,j,j,NA,NA,NA,59,6,"3,5,1,9,6,12,4,2,13,14,8,7,10,11,15"
15362,commdev-image-keyboard-response,146,439548,learnblock1,562.5,img/planet5_left.png,5,Community 1,NA,TRUE,f,f,NA,NA,NA,59,6,"3,5,1,9,6,12,4,2,13,14,8,7,10,11,15"
15362,commdev-image-keyboard-response,147,440798,learnblock1,653.5999999940395,img/planet3_right.png,3,Community 1,NA,TRUE,j,j,NA,NA,NA,59,6,"3,5,1,9,6,12,4,2,13,14,8,7,10,11,15"
15362,commdev-image-keyboard-response,148,442050,learnblock1,562.6000000089407,img/planet5_right.png,5,Community 1,NA,TRUE,j,j,NA,NA,NA,59,6,"3,5,1,9,6,12,4,2,13,14,8,7,10,11,15"
15362,commdev-image-keyboard-response,149,443301,learnblock1,615.5,img/planet3_right.png,3,Community 1,NA,TRUE,j,j,NA,NA,NA,59,6,"3,5,1,9,6,12,4,2,13,14,8,7,10,11,15"
15362,commdev-image-keyboard-response,150,444552,learnblock1,678.8999999910593,img/planet9_left.png,9,Community 1,NA,TRUE,f,f,NA,NA,NA,59,6,"3,5,1,9,6,12,4,2,13,14,8,7,10,11,15"
15362,commdev-image-keyboard-response,151,445803,learnblock1,490.90000000596046,img/planet12_left.png,12,Community 2,NA,TRUE,f,f,NA,NA,NA,59,6,"3,5,1,9,6,12,4,2,13,14,8,7,10,11,15"
15362,commdev-image-keyboard-response,152,447055,learnblock1,490.3999999910593,img/planet14_right.png,14,Community 2,NA,TRUE,j,j,NA,NA,NA,59,6,"3,5,1,9,6,12,4,2,13,14,8,7,10,11,15"
15362,commdev-image-keyboard-response,153,448305,learnblock1,464.79999999701977,img/planet13_left.png,13,Community 2,NA,TRUE,f,f,NA,NA,NA,59,6,"3,5,1,9,6,12,4,2,13,14,8,7,10,11,15"
15362,commdev-image-keyboard-response,154,449557,learnblock1,503.70000000298023,img/planet12_left.png,12,Community 2,NA,TRUE,f,f,NA,NA,NA,59,6,"3,5,1,9,6,12,4,2,13,14,8,7,10,11,15"
15362,commdev-image-keyboard-response,155,450809,learnblock1,545.2999999970198,img/planet14_left.png,14,Community 2,NA,TRUE,f,f,NA,NA,NA,59,6,"3,5,1,9,6,12,4,2,13,14,8,7,10,11,15"
15362,commdev-image-keyboard-response,156,452060,learnblock1,482.70000000298023,img/planet4_left.png,4,Community 2,NA,TRUE,f,f,NA,NA,NA,59,6,"3,5,1,9,6,12,4,2,13,14,8,7,10,11,15"
15362,commdev-image-keyboard-response,157,453312,learnblock1,506.20000000298023,img/planet13_right.png,13,Community 2,NA,TRUE,j,j,NA,NA,NA,59,6,"3,5,1,9,6,12,4,2,13,14,8,7,10,11,15"
15362,commdev-image-keyboard-response,158,454562,learnblock1,531.7000000029802,img/planet14_right.png,14,Community 2,NA,TRUE,j,j,NA,NA,NA,59,6,"3,5,1,9,6,12,4,2,13,14,8,7,10,11,15"
15362,commdev-image-keyboard-response,159,455814,learnblock1,521.5999999940395,img/planet13_left.png,13,Community 2,NA,TRUE,f,f,NA,NA,NA,59,6,"3,5,1,9,6,12,4,2,13,14,8,7,10,11,15"
15362,commdev-image-keyboard-response,160,457065,learnblock1,534.2999999970198,img/planet14_left.png,14,Community 2,NA,TRUE,f,f,NA,NA,NA,59,6,"3,5,1,9,6,12,4,2,13,14,8,7,10,11,15"
15362,commdev-image-keyboard-response,161,458316,learnblock1,500.09999999403954,img/planet4_left.png,4,Community 2,NA,TRUE,f,f,NA,NA,NA,59,6,"3,5,1,9,6,12,4,2,13,14,8,7,10,11,15"
15362,commdev-image-keyboard-response,162,459568,learnblock1,500.3999999910593,img/planet2_right.png,2,Community 2,NA,TRUE,j,j,NA,NA,NA,59,6,"3,5,1,9,6,12,4,2,13,14,8,7,10,11,15"
15362,commdev-image-keyboard-response,163,460819,learnblock1,547.2000000029802,img/planet4_left.png,4,Community 2,NA,TRUE,f,f,NA,NA,NA,59,6,"3,5,1,9,6,12,4,2,13,14,8,7,10,11,15"
15362,commdev-image-keyboard-response,164,462069,learnblock1,520.1000000089407,img/planet12_left.png,12,Community 2,NA,TRUE,f,f,NA,NA,NA,59,6,"3,5,1,9,6,12,4,2,13,14,8,7,10,11,15"
15362,commdev-image-keyboard-response,165,463320,learnblock1,470.19999998807907,img/planet9_right.png,9,Community 1,NA,TRUE,j,j,NA,NA,NA,59,6,"3,5,1,9,6,12,4,2,13,14,8,7,10,11,15"
15362,commdev-image-keyboard-response,166,464571,learnblock1,557.2000000029802,img/planet1_right.png,1,Community 1,NA,TRUE,j,j,NA,NA,NA,59,6,"3,5,1,9,6,12,4,2,13,14,8,7,10,11,15"
15362,commdev-image-keyboard-response,167,465823,learnblock1,471.40000000596046,img/planet5_left.png,5,Community 1,NA,TRUE,f,f,NA,NA,NA,59,6,"3,5,1,9,6,12,4,2,13,14,8,7,10,11,15"
15362,commdev-image-keyboard-response,168,467074,learnblock1,574.8000000119209,img/planet3_left.png,3,Community 1,NA,TRUE,f,f,NA,NA,NA,59,6,"3,5,1,9,6,12,4,2,13,14,8,7,10,11,15"
15362,commdev-image-keyboard-response,169,468325,learnblock1,546.1000000089407,img/planet1_right.png,1,Community 1,NA,TRUE,j,j,NA,NA,NA,59,6,"3,5,1,9,6,12,4,2,13,14,8,7,10,11,15"
15362,commdev-image-keyboard-response,170,469576,learnblock1,584.4000000059605,img/planet3_right.png,3,Community 1,NA,TRUE,j,j,NA,NA,NA,59,6,"3,5,1,9,6,12,4,2,13,14,8,7,10,11,15"
15362,commdev-image-keyboard-response,171,470827,learnblock1,608.3999999910593,img/planet9_right.png,9,Community 1,NA,TRUE,j,j,NA,NA,NA,59,6,"3,5,1,9,6,12,4,2,13,14,8,7,10,11,15"
15362,commdev-image-keyboard-response,172,472079,learnblock1,630.3000000119209,img/planet12_left.png,12,Community 2,NA,TRUE,f,f,NA,NA,NA,59,6,"3,5,1,9,6,12,4,2,13,14,8,7,10,11,15"
15362,commdev-image-keyboard-response,173,473330,learnblock1,565.5,img/planet4_left.png,4,Community 2,NA,TRUE,f,f,NA,NA,NA,59,6,"3,5,1,9,6,12,4,2,13,14,8,7,10,11,15"
15362,commdev-image-keyboard-response,174,474581,learnblock1,505,img/planet14_left.png,14,Community 2,NA,TRUE,f,f,NA,NA,NA,59,6,"3,5,1,9,6,12,4,2,13,14,8,7,10,11,15"
15362,commdev-image-keyboard-response,175,475832,learnblock1,642.8999999910593,img/planet4_right.png,4,Community 2,NA,TRUE,j,j,NA,NA,NA,59,6,"3,5,1,9,6,12,4,2,13,14,8,7,10,11,15"
15362,commdev-image-keyboard-response,176,477083,learnblock1,611.2000000029802,img/planet14_left.png,14,Community 2,NA,TRUE,f,f,NA,NA,NA,59,6,"3,5,1,9,6,12,4,2,13,14,8,7,10,11,15"
15362,commdev-image-keyboard-response,177,478334,learnblock1,594.8999999910593,img/planet2_left.png,2,Community 2,NA,TRUE,f,f,NA,NA,NA,59,6,"3,5,1,9,6,12,4,2,13,14,8,7,10,11,15"
15362,commdev-image-keyboard-response,178,479585,learnblock1,807.3999999910593,img/planet7_left.png,7,Community 3,NA,TRUE,f,f,NA,NA,NA,59,6,"3,5,1,9,6,12,4,2,13,14,8,7,10,11,15"
15362,commdev-image-keyboard-response,179,480836,learnblock1,571.6000000089407,img/planet10_left.png,10,Community 3,NA,TRUE,f,f,NA,NA,NA,59,6,"3,5,1,9,6,12,4,2,13,14,8,7,10,11,15"
15362,commdev-image-keyboard-response,180,482088,learnblock1,577.2000000029802,img/planet8_right.png,8,Community 3,NA,TRUE,j,j,NA,NA,NA,59,6,"3,5,1,9,6,12,4,2,13,14,8,7,10,11,15"
15362,commdev-image-keyboard-response,181,483339,learnblock1,609.9000000059605,img/planet11_left.png,11,Community 3,NA,TRUE,f,f,NA,NA,NA,59,6,"3,5,1,9,6,12,4,2,13,14,8,7,10,11,15"
15362,commdev-image-keyboard-response,182,484589,learnblock1,486.6000000089407,img/planet10_right.png,10,Community 3,NA,TRUE,j,j,NA,NA,NA,59,6,"3,5,1,9,6,12,4,2,13,14,8,7,10,11,15"
15362,commdev-image-keyboard-response,183,485841,learnblock1,585.5,img/planet15_right.png,15,Community 3,NA,TRUE,j,j,NA,NA,NA,59,6,"3,5,1,9,6,12,4,2,13,14,8,7,10,11,15"
15362,commdev-image-keyboard-response,184,487092,learnblock1,511.09999999403954,img/planet11_left.png,11,Community 3,NA,TRUE,f,f,NA,NA,NA,59,6,"3,5,1,9,6,12,4,2,13,14,8,7,10,11,15"
15362,commdev-image-keyboard-response,185,488342,learnblock1,753.8000000119209,img/planet8_left.png,8,Community 3,NA,TRUE,f,f,NA,NA,NA,59,6,"3,5,1,9,6,12,4,2,13,14,8,7,10,11,15"
15362,commdev-image-keyboard-response,186,489594,learnblock1,579.4000000059605,img/planet10_right.png,10,Community 3,NA,TRUE,j,j,NA,NA,NA,59,6,"3,5,1,9,6,12,4,2,13,14,8,7,10,11,15"
15362,commdev-image-keyboard-response,187,490845,learnblock1,552.0999999940395,img/planet11_right.png,11,Community 3,NA,TRUE,j,j,NA,NA,NA,59,6,"3,5,1,9,6,12,4,2,13,14,8,7,10,11,15"
15362,commdev-image-keyboard-response,188,492096,learnblock1,523.2000000029802,img/planet15_right.png,15,Community 3,NA,TRUE,j,j,NA,NA,NA,59,6,"3,5,1,9,6,12,4,2,13,14,8,7,10,11,15"
15362,commdev-image-keyboard-response,189,493347,learnblock1,602.9000000059605,img/planet10_left.png,10,Community 3,NA,TRUE,f,f,NA,NA,NA,59,6,"3,5,1,9,6,12,4,2,13,14,8,7,10,11,15"
15362,commdev-image-keyboard-response,190,494600,learnblock1,632.7999999970198,img/planet8_left.png,8,Community 3,NA,TRUE,f,f,NA,NA,NA,59,6,"3,5,1,9,6,12,4,2,13,14,8,7,10,11,15"
15362,commdev-image-keyboard-response,191,495851,learnblock1,608.5999999940395,img/planet6_left.png,6,Community 1,NA,TRUE,f,f,NA,NA,NA,59,6,"3,5,1,9,6,12,4,2,13,14,8,7,10,11,15"
15362,commdev-image-keyboard-response,192,497102,learnblock1,455.19999998807907,img/planet3_right.png,3,Community 1,NA,TRUE,j,j,NA,NA,NA,59,6,"3,5,1,9,6,12,4,2,13,14,8,7,10,11,15"
15362,commdev-image-keyboard-response,193,498353,learnblock1,505.79999999701977,img/planet9_right.png,9,Community 1,NA,TRUE,j,j,NA,NA,NA,59,6,"3,5,1,9,6,12,4,2,13,14,8,7,10,11,15"
15362,commdev-image-keyboard-response,194,499603,learnblock1,496.79999999701977,img/planet12_left.png,12,Community 2,NA,TRUE,f,f,NA,NA,NA,59,6,"3,5,1,9,6,12,4,2,13,14,8,7,10,11,15"
15362,commdev-image-keyboard-response,195,500855,learnblock1,525.5,img/planet4_right.png,4,Community 2,NA,TRUE,j,j,NA,NA,NA,59,6,"3,5,1,9,6,12,4,2,13,14,8,7,10,11,15"
15362,commdev-image-keyboard-response,196,502106,learnblock1,567,img/planet12_right.png,12,Community 2,NA,TRUE,j,j,NA,NA,NA,59,6,"3,5,1,9,6,12,4,2,13,14,8,7,10,11,15"
15362,commdev-image-keyboard-response,197,503357,learnblock1,578.5,img/planet14_left.png,14,Community 2,NA,TRUE,f,f,NA,NA,NA,59,6,"3,5,1,9,6,12,4,2,13,14,8,7,10,11,15"
15362,commdev-image-keyboard-response,198,504608,learnblock1,459.79999999701977,img/planet4_right.png,4,Community 2,NA,TRUE,j,j,NA,NA,NA,59,6,"3,5,1,9,6,12,4,2,13,14,8,7,10,11,15"
15362,commdev-image-keyboard-response,199,505859,learnblock1,568.3000000119209,img/planet14_left.png,14,Community 2,NA,TRUE,f,f,NA,NA,NA,59,6,"3,5,1,9,6,12,4,2,13,14,8,7,10,11,15"
15362,commdev-image-keyboard-response,200,507110,learnblock1,509.79999999701977,img/planet4_left.png,4,Community 2,NA,TRUE,f,f,NA,NA,NA,59,6,"3,5,1,9,6,12,4,2,13,14,8,7,10,11,15"
15362,commdev-image-keyboard-response,201,508361,learnblock1,465.79999999701977,img/planet12_left.png,12,Community 2,NA,TRUE,f,f,NA,NA,NA,59,6,"3,5,1,9,6,12,4,2,13,14,8,7,10,11,15"
15362,commdev-image-keyboard-response,202,509611,learnblock1,488.59999999403954,img/planet13_left.png,13,Community 2,NA,TRUE,f,f,NA,NA,NA,59,6,"3,5,1,9,6,12,4,2,13,14,8,7,10,11,15"
15362,commdev-image-keyboard-response,203,510862,learnblock1,852.7000000029802,img/planet14_right.png,14,Community 2,NA,TRUE,j,j,NA,NA,NA,59,6,"3,5,1,9,6,12,4,2,13,14,8,7,10,11,15"
15362,commdev-image-keyboard-response,204,512113,learnblock1,526.7000000029802,img/planet2_right.png,2,Community 2,NA,TRUE,j,j,NA,NA,NA,59,6,"3,5,1,9,6,12,4,2,13,14,8,7,10,11,15"
15362,commdev-image-keyboard-response,205,513364,learnblock1,559,img/planet7_right.png,7,Community 3,NA,TRUE,j,j,NA,NA,NA,59,6,"3,5,1,9,6,12,4,2,13,14,8,7,10,11,15"
15362,commdev-image-keyboard-response,206,514615,learnblock1,528.7000000029802,img/planet15_left.png,15,Community 3,NA,TRUE,f,f,NA,NA,NA,59,6,"3,5,1,9,6,12,4,2,13,14,8,7,10,11,15"
15362,commdev-image-keyboard-response,207,515865,learnblock1,581.2000000029802,img/planet7_left.png,7,Community 3,NA,TRUE,f,f,NA,NA,NA,59,6,"3,5,1,9,6,12,4,2,13,14,8,7,10,11,15"
15362,commdev-image-keyboard-response,208,517116,learnblock1,521.6999999880791,img/planet11_right.png,11,Community 3,NA,TRUE,j,j,NA,NA,NA,59,6,"3,5,1,9,6,12,4,2,13,14,8,7,10,11,15"
15362,commdev-image-keyboard-response,209,518368,learnblock1,618.0999999940395,img/planet7_left.png,7,Community 3,NA,TRUE,f,f,NA,NA,NA,59,6,"3,5,1,9,6,12,4,2,13,14,8,7,10,11,15"
15362,commdev-image-keyboard-response,210,519619,learnblock1,530.5,img/planet2_left.png,2,Community 2,NA,TRUE,f,f,NA,NA,NA,59,6,"3,5,1,9,6,12,4,2,13,14,8,7,10,11,15"
15362,commdev-image-keyboard-response,211,520870,learnblock1,584.5,img/planet4_right.png,4,Community 2,NA,TRUE,j,j,NA,NA,NA,59,6,"3,5,1,9,6,12,4,2,13,14,8,7,10,11,15"
15362,commdev-image-keyboard-response,212,522120,learnblock1,574.6000000089407,img/planet14_right.png,14,Community 2,NA,TRUE,j,j,NA,NA,NA,59,6,"3,5,1,9,6,12,4,2,13,14,8,7,10,11,15"
15362,commdev-image-keyboard-response,213,523372,learnblock1,706.4000000059605,img/planet2_left.png,2,Community 2,NA,TRUE,f,f,NA,NA,NA,59,6,"3,5,1,9,6,12,4,2,13,14,8,7,10,11,15"
15362,commdev-image-keyboard-response,214,524623,learnblock1,548.7999999970198,img/planet13_right.png,13,Community 2,NA,TRUE,j,j,NA,NA,NA,59,6,"3,5,1,9,6,12,4,2,13,14,8,7,10,11,15"
15362,commdev-image-keyboard-response,215,525874,learnblock1,482.40000000596046,img/planet2_right.png,2,Community 2,NA,TRUE,j,j,NA,NA,NA,59,6,"3,5,1,9,6,12,4,2,13,14,8,7,10,11,15"
15362,commdev-image-keyboard-response,216,527125,learnblock1,481.70000000298023,img/planet14_left.png,14,Community 2,NA,TRUE,f,f,NA,NA,NA,59,6,"3,5,1,9,6,12,4,2,13,14,8,7,10,11,15"
15362,commdev-image-keyboard-response,217,528377,learnblock1,551.3999999910593,img/planet4_left.png,4,Community 2,NA,TRUE,f,f,NA,NA,NA,59,6,"3,5,1,9,6,12,4,2,13,14,8,7,10,11,15"
15362,commdev-image-keyboard-response,218,529627,learnblock1,412.79999999701977,img/planet2_left.png,2,Community 2,NA,TRUE,f,f,NA,NA,NA,59,6,"3,5,1,9,6,12,4,2,13,14,8,7,10,11,15"
15362,commdev-image-keyboard-response,219,530878,learnblock1,535.2000000029802,img/planet13_left.png,13,Community 2,NA,TRUE,f,f,NA,NA,NA,59,6,"3,5,1,9,6,12,4,2,13,14,8,7,10,11,15"
15362,commdev-image-keyboard-response,220,532129,learnblock1,513.5,img/planet12_right.png,12,Community 2,NA,TRUE,j,j,NA,NA,NA,59,6,"3,5,1,9,6,12,4,2,13,14,8,7,10,11,15"
15362,commdev-image-keyboard-response,221,533380,learnblock1,474.09999999403954,img/planet14_left.png,14,Community 2,NA,TRUE,f,f,NA,NA,NA,59,6,"3,5,1,9,6,12,4,2,13,14,8,7,10,11,15"
15362,commdev-image-keyboard-response,222,534631,learnblock1,542.8999999910593,img/planet2_right.png,2,Community 2,NA,TRUE,j,j,NA,NA,NA,59,6,"3,5,1,9,6,12,4,2,13,14,8,7,10,11,15"
15362,commdev-image-keyboard-response,223,535881,learnblock1,527.2000000029802,img/planet13_left.png,13,Community 2,NA,TRUE,f,f,NA,NA,NA,59,6,"3,5,1,9,6,12,4,2,13,14,8,7,10,11,15"
15362,commdev-image-keyboard-response,224,537133,learnblock1,453.5,img/planet4_right.png,4,Community 2,NA,FALSE,f,j,NA,NA,NA,59,6,"3,5,1,9,6,12,4,2,13,14,8,7,10,11,15"
15362,commdev-image-keyboard-response,225,538383,learnblock1,565.4000000059605,img/planet14_left.png,14,Community 2,NA,TRUE,f,f,NA,NA,NA,59,6,"3,5,1,9,6,12,4,2,13,14,8,7,10,11,15"
15362,commdev-image-keyboard-response,226,539634,learnblock1,567.2000000029802,img/planet2_right.png,2,Community 2,NA,TRUE,j,j,NA,NA,NA,59,6,"3,5,1,9,6,12,4,2,13,14,8,7,10,11,15"
15362,commdev-image-keyboard-response,227,540885,learnblock1,499.3999999910593,img/planet4_left.png,4,Community 2,NA,TRUE,f,f,NA,NA,NA,59,6,"3,5,1,9,6,12,4,2,13,14,8,7,10,11,15"
15362,commdev-image-keyboard-response,228,542137,learnblock1,514.7999999970198,img/planet12_right.png,12,Community 2,NA,TRUE,j,j,NA,NA,NA,59,6,"3,5,1,9,6,12,4,2,13,14,8,7,10,11,15"
15362,commdev-image-keyboard-response,229,543389,learnblock1,549.2999999970198,img/planet4_left.png,4,Community 2,NA,TRUE,f,f,NA,NA,NA,59,6,"3,5,1,9,6,12,4,2,13,14,8,7,10,11,15"
15362,commdev-image-keyboard-response,230,544640,learnblock1,515.3999999910593,img/planet12_right.png,12,Community 2,NA,TRUE,j,j,NA,NA,NA,59,6,"3,5,1,9,6,12,4,2,13,14,8,7,10,11,15"
15362,commdev-image-keyboard-response,231,545891,learnblock1,646.3000000119209,img/planet9_right.png,9,Community 1,NA,TRUE,j,j,NA,NA,NA,59,6,"3,5,1,9,6,12,4,2,13,14,8,7,10,11,15"
15362,commdev-image-keyboard-response,232,547143,learnblock1,495.90000000596046,img/planet12_left.png,12,Community 2,NA,TRUE,f,f,NA,NA,NA,59,6,"3,5,1,9,6,12,4,2,13,14,8,7,10,11,15"
15362,commdev-image-keyboard-response,233,548394,learnblock1,463.29999999701977,img/planet9_right.png,9,Community 1,NA,TRUE,j,j,NA,NA,NA,59,6,"3,5,1,9,6,12,4,2,13,14,8,7,10,11,15"
15362,commdev-image-keyboard-response,234,549646,learnblock1,523.5,img/planet5_left.png,5,Community 1,NA,TRUE,f,f,NA,NA,NA,59,6,"3,5,1,9,6,12,4,2,13,14,8,7,10,11,15"
15362,commdev-image-keyboard-response,235,550897,learnblock1,561.3999999910593,img/planet3_right.png,3,Community 1,NA,TRUE,j,j,NA,NA,NA,59,6,"3,5,1,9,6,12,4,2,13,14,8,7,10,11,15"
15362,commdev-image-keyboard-response,236,552148,learnblock1,631.2000000029802,img/planet5_left.png,5,Community 1,NA,TRUE,f,f,NA,NA,NA,59,6,"3,5,1,9,6,12,4,2,13,14,8,7,10,11,15"
15362,commdev-image-keyboard-response,237,553400,learnblock1,639.6000000089407,img/planet1_left.png,1,Community 1,NA,TRUE,f,f,NA,NA,NA,59,6,"3,5,1,9,6,12,4,2,13,14,8,7,10,11,15"
15362,commdev-image-keyboard-response,238,554650,learnblock1,721.3999999910593,img/planet3_left.png,3,Community 1,NA,TRUE,f,f,NA,NA,NA,59,6,"3,5,1,9,6,12,4,2,13,14,8,7,10,11,15"
15362,commdev-image-keyboard-response,239,555901,learnblock1,581.2000000029802,img/planet6_right.png,6,Community 1,NA,TRUE,j,j,NA,NA,NA,59,6,"3,5,1,9,6,12,4,2,13,14,8,7,10,11,15"
15362,commdev-image-keyboard-response,240,557151,learnblock1,601.1000000089407,img/planet3_right.png,3,Community 1,NA,TRUE,j,j,NA,NA,NA,59,6,"3,5,1,9,6,12,4,2,13,14,8,7,10,11,15"
15362,commdev-image-keyboard-response,241,558402,learnblock1,563.5,img/planet6_left.png,6,Community 1,NA,TRUE,f,f,NA,NA,NA,59,6,"3,5,1,9,6,12,4,2,13,14,8,7,10,11,15"
15362,commdev-image-keyboard-response,242,559653,learnblock1,531.9000000059605,img/planet1_right.png,1,Community 1,NA,TRUE,j,j,NA,NA,NA,59,6,"3,5,1,9,6,12,4,2,13,14,8,7,10,11,15"
15362,commdev-image-keyboard-response,243,560905,learnblock1,536.6000000089407,img/planet9_right.png,9,Community 1,NA,TRUE,j,j,NA,NA,NA,59,6,"3,5,1,9,6,12,4,2,13,14,8,7,10,11,15"
15362,commdev-image-keyboard-response,244,562155,learnblock1,529.4000000059605,img/planet12_left.png,12,Community 2,NA,TRUE,f,f,NA,NA,NA,59,6,"3,5,1,9,6,12,4,2,13,14,8,7,10,11,15"
15362,commdev-image-keyboard-response,245,563407,learnblock1,718.8000000119209,img/planet14_left.png,14,Community 2,NA,TRUE,f,f,NA,NA,NA,59,6,"3,5,1,9,6,12,4,2,13,14,8,7,10,11,15"
15362,commdev-image-keyboard-response,246,564659,learnblock1,523.2000000029802,img/planet13_right.png,13,Community 2,NA,TRUE,j,j,NA,NA,NA,59,6,"3,5,1,9,6,12,4,2,13,14,8,7,10,11,15"
15362,commdev-image-keyboard-response,247,565910,learnblock1,512.5,img/planet14_left.png,14,Community 2,NA,TRUE,f,f,NA,NA,NA,59,6,"3,5,1,9,6,12,4,2,13,14,8,7,10,11,15"
15362,commdev-image-keyboard-response,248,567160,learnblock1,565.0999999940395,img/planet4_left.png,4,Community 2,NA,TRUE,f,f,NA,NA,NA,59,6,"3,5,1,9,6,12,4,2,13,14,8,7,10,11,15"
15362,commdev-image-keyboard-response,249,568411,learnblock1,560.0999999940395,img/planet12_left.png,12,Community 2,NA,TRUE,f,f,NA,NA,NA,59,6,"3,5,1,9,6,12,4,2,13,14,8,7,10,11,15"
15362,commdev-image-keyboard-response,250,569662,learnblock1,571.3999999910593,img/planet13_right.png,13,Community 2,NA,TRUE,j,j,NA,NA,NA,59,6,"3,5,1,9,6,12,4,2,13,14,8,7,10,11,15"
15362,commdev-image-keyboard-response,251,570913,learnblock1,535.0999999940395,img/planet12_right.png,12,Community 2,NA,TRUE,j,j,NA,NA,NA,59,6,"3,5,1,9,6,12,4,2,13,14,8,7,10,11,15"
15362,commdev-image-keyboard-response,252,572164,learnblock1,619.4000000059605,img/planet13_right.png,13,Community 2,NA,TRUE,j,j,NA,NA,NA,59,6,"3,5,1,9,6,12,4,2,13,14,8,7,10,11,15"
15362,commdev-image-keyboard-response,253,573425,learnblock1,496.5,img/planet14_left.png,14,Community 2,NA,TRUE,f,f,NA,NA,NA,59,6,"3,5,1,9,6,12,4,2,13,14,8,7,10,11,15"
15362,commdev-image-keyboard-response,254,574676,learnblock1,757.8999999910593,img/planet12_right.png,12,Community 2,NA,TRUE,j,j,NA,NA,NA,59,6,"3,5,1,9,6,12,4,2,13,14,8,7,10,11,15"
15362,commdev-image-keyboard-response,255,575927,learnblock1,490.5,img/planet4_left.png,4,Community 2,NA,TRUE,f,f,NA,NA,NA,59,6,"3,5,1,9,6,12,4,2,13,14,8,7,10,11,15"
15362,commdev-image-keyboard-response,256,577178,learnblock1,547.2999999970198,img/planet14_right.png,14,Community 2,NA,TRUE,j,j,NA,NA,NA,59,6,"3,5,1,9,6,12,4,2,13,14,8,7,10,11,15"
15362,commdev-image-keyboard-response,257,578430,learnblock1,544.8000000119209,img/planet4_right.png,4,Community 2,NA,TRUE,j,j,NA,NA,NA,59,6,"3,5,1,9,6,12,4,2,13,14,8,7,10,11,15"
15362,commdev-image-keyboard-response,258,579680,learnblock1,642.8999999910593,img/planet12_right.png,12,Community 2,NA,TRUE,j,j,NA,NA,NA,59,6,"3,5,1,9,6,12,4,2,13,14,8,7,10,11,15"
15362,commdev-image-keyboard-response,259,580932,learnblock1,590.7999999970198,img/planet13_right.png,13,Community 2,NA,TRUE,j,j,NA,NA,NA,59,6,"3,5,1,9,6,12,4,2,13,14,8,7,10,11,15"
15362,commdev-image-keyboard-response,260,582183,learnblock1,484.79999999701977,img/planet12_right.png,12,Community 2,NA,TRUE,j,j,NA,NA,NA,59,6,"3,5,1,9,6,12,4,2,13,14,8,7,10,11,15"
15362,commdev-image-keyboard-response,261,583434,learnblock1,544.5999999940395,img/planet4_left.png,4,Community 2,NA,TRUE,f,f,NA,NA,NA,59,6,"3,5,1,9,6,12,4,2,13,14,8,7,10,11,15"
15362,commdev-image-keyboard-response,262,584686,learnblock1,452.6000000089407,img/planet2_left.png,2,Community 2,NA,TRUE,f,f,NA,NA,NA,59,6,"3,5,1,9,6,12,4,2,13,14,8,7,10,11,15"
15362,commdev-image-keyboard-response,263,585937,learnblock1,398.79999999701977,img/planet4_left.png,4,Community 2,NA,TRUE,f,f,NA,NA,NA,59,6,"3,5,1,9,6,12,4,2,13,14,8,7,10,11,15"
15362,commdev-image-keyboard-response,264,587188,learnblock1,545.5,img/planet2_right.png,2,Community 2,NA,TRUE,j,j,NA,NA,NA,59,6,"3,5,1,9,6,12,4,2,13,14,8,7,10,11,15"
15362,commdev-image-keyboard-response,265,588440,learnblock1,540,img/planet7_right.png,7,Community 3,NA,TRUE,j,j,NA,NA,NA,59,6,"3,5,1,9,6,12,4,2,13,14,8,7,10,11,15"
15362,commdev-image-keyboard-response,266,589691,learnblock1,677.0999999940395,img/planet10_right.png,10,Community 3,NA,TRUE,j,j,NA,NA,NA,59,6,"3,5,1,9,6,12,4,2,13,14,8,7,10,11,15"
15362,commdev-image-keyboard-response,267,590941,learnblock1,509.90000000596046,img/planet7_right.png,7,Community 3,NA,TRUE,j,j,NA,NA,NA,59,6,"3,5,1,9,6,12,4,2,13,14,8,7,10,11,15"
15362,commdev-image-keyboard-response,268,592193,learnblock1,534,img/planet11_left.png,11,Community 3,NA,TRUE,f,f,NA,NA,NA,59,6,"3,5,1,9,6,12,4,2,13,14,8,7,10,11,15"
15362,commdev-image-keyboard-response,269,593444,learnblock1,697.1000000089407,img/planet7_right.png,7,Community 3,NA,TRUE,j,j,NA,NA,NA,59,6,"3,5,1,9,6,12,4,2,13,14,8,7,10,11,15"
15362,commdev-image-keyboard-response,270,594695,learnblock1,526.3000000119209,img/planet11_left.png,11,Community 3,NA,TRUE,f,f,NA,NA,NA,59,6,"3,5,1,9,6,12,4,2,13,14,8,7,10,11,15"
15362,commdev-image-keyboard-response,271,595946,learnblock1,583.5,img/planet7_right.png,7,Community 3,NA,TRUE,j,j,NA,NA,NA,59,6,"3,5,1,9,6,12,4,2,13,14,8,7,10,11,15"
15362,commdev-image-keyboard-response,272,597198,learnblock1,715.5,img/planet11_left.png,11,Community 3,NA,TRUE,f,f,NA,NA,NA,59,6,"3,5,1,9,6,12,4,2,13,14,8,7,10,11,15"
15362,commdev-image-keyboard-response,273,598449,learnblock1,574.6000000089407,img/planet7_right.png,7,Community 3,NA,TRUE,j,j,NA,NA,NA,59,6,"3,5,1,9,6,12,4,2,13,14,8,7,10,11,15"
15362,commdev-image-keyboard-response,274,599700,learnblock1,537.6000000089407,img/planet15_right.png,15,Community 3,NA,TRUE,j,j,NA,NA,NA,59,6,"3,5,1,9,6,12,4,2,13,14,8,7,10,11,15"
15362,commdev-image-keyboard-response,275,600951,learnblock1,523.7999999970198,img/planet11_left.png,11,Community 3,NA,TRUE,f,f,NA,NA,NA,59,6,"3,5,1,9,6,12,4,2,13,14,8,7,10,11,15"
15362,commdev-image-keyboard-response,276,602202,learnblock1,648.8000000119209,img/planet10_right.png,10,Community 3,NA,TRUE,j,j,NA,NA,NA,59,6,"3,5,1,9,6,12,4,2,13,14,8,7,10,11,15"
15362,commdev-image-keyboard-response,277,603453,learnblock1,655.9000000059605,img/planet11_right.png,11,Community 3,NA,TRUE,j,j,NA,NA,NA,59,6,"3,5,1,9,6,12,4,2,13,14,8,7,10,11,15"
15362,commdev-image-keyboard-response,278,604706,learnblock1,666.9000000059605,img/planet15_right.png,15,Community 3,NA,TRUE,j,j,NA,NA,NA,59,6,"3,5,1,9,6,12,4,2,13,14,8,7,10,11,15"
15362,commdev-image-keyboard-response,279,605957,learnblock1,579,img/planet11_right.png,11,Community 3,NA,TRUE,j,j,NA,NA,NA,59,6,"3,5,1,9,6,12,4,2,13,14,8,7,10,11,15"
15362,commdev-image-keyboard-response,280,607208,learnblock1,662.6000000089407,img/planet8_right.png,8,Community 3,NA,TRUE,j,j,NA,NA,NA,59,6,"3,5,1,9,6,12,4,2,13,14,8,7,10,11,15"
15362,commdev-image-keyboard-response,281,608459,learnblock1,422.90000000596046,img/planet10_right.png,10,Community 3,NA,TRUE,j,j,NA,NA,NA,59,6,"3,5,1,9,6,12,4,2,13,14,8,7,10,11,15"
15362,commdev-image-keyboard-response,282,609710,learnblock1,592.0999999940395,img/planet7_left.png,7,Community 3,NA,TRUE,f,f,NA,NA,NA,59,6,"3,5,1,9,6,12,4,2,13,14,8,7,10,11,15"
15362,commdev-image-keyboard-response,283,610962,learnblock1,457.59999999403954,img/planet10_left.png,10,Community 3,NA,TRUE,f,f,NA,NA,NA,59,6,"3,5,1,9,6,12,4,2,13,14,8,7,10,11,15"
15362,commdev-image-keyboard-response,284,612213,learnblock1,541.9000000059605,img/planet15_left.png,15,Community 3,NA,TRUE,f,f,NA,NA,NA,59,6,"3,5,1,9,6,12,4,2,13,14,8,7,10,11,15"
15362,commdev-image-keyboard-response,285,613464,learnblock1,520,img/planet11_right.png,11,Community 3,NA,TRUE,j,j,NA,NA,NA,59,6,"3,5,1,9,6,12,4,2,13,14,8,7,10,11,15"
15362,commdev-image-keyboard-response,286,614715,learnblock1,629.2000000029802,img/planet8_left.png,8,Community 3,NA,TRUE,f,f,NA,NA,NA,59,6,"3,5,1,9,6,12,4,2,13,14,8,7,10,11,15"
15362,commdev-image-keyboard-response,287,615966,learnblock1,616.2999999970198,img/planet11_left.png,11,Community 3,NA,TRUE,f,f,NA,NA,NA,59,6,"3,5,1,9,6,12,4,2,13,14,8,7,10,11,15"
15362,commdev-image-keyboard-response,288,617217,learnblock1,628.5999999940395,img/planet10_right.png,10,Community 3,NA,TRUE,j,j,NA,NA,NA,59,6,"3,5,1,9,6,12,4,2,13,14,8,7,10,11,15"
15362,commdev-image-keyboard-response,289,618468,learnblock1,467,img/planet7_left.png,7,Community 3,NA,FALSE,j,f,NA,NA,NA,59,6,"3,5,1,9,6,12,4,2,13,14,8,7,10,11,15"
15362,commdev-image-keyboard-response,290,619718,learnblock1,576,img/planet15_left.png,15,Community 3,NA,TRUE,f,f,NA,NA,NA,59,6,"3,5,1,9,6,12,4,2,13,14,8,7,10,11,15"
15362,commdev-image-keyboard-response,291,620969,learnblock1,612.7000000029802,img/planet11_right.png,11,Community 3,NA,TRUE,j,j,NA,NA,NA,59,6,"3,5,1,9,6,12,4,2,13,14,8,7,10,11,15"
15362,commdev-image-keyboard-response,292,622220,learnblock1,511.40000000596046,img/planet7_right.png,7,Community 3,NA,TRUE,j,j,NA,NA,NA,59,6,"3,5,1,9,6,12,4,2,13,14,8,7,10,11,15"
15362,commdev-image-keyboard-response,293,623470,learnblock1,551.8999999910593,img/planet11_left.png,11,Community 3,NA,TRUE,f,f,NA,NA,NA,59,6,"3,5,1,9,6,12,4,2,13,14,8,7,10,11,15"
15362,commdev-image-keyboard-response,294,624722,learnblock1,623.8999999910593,img/planet8_left.png,8,Community 3,NA,TRUE,f,f,NA,NA,NA,59,6,"3,5,1,9,6,12,4,2,13,14,8,7,10,11,15"
15362,commdev-image-keyboard-response,295,625973,learnblock1,471.09999999403954,img/planet11_left.png,11,Community 3,NA,TRUE,f,f,NA,NA,NA,59,6,"3,5,1,9,6,12,4,2,13,14,8,7,10,11,15"
15362,commdev-image-keyboard-response,296,627224,learnblock1,636.6000000089407,img/planet8_left.png,8,Community 3,NA,TRUE,f,f,NA,NA,NA,59,6,"3,5,1,9,6,12,4,2,13,14,8,7,10,11,15"
15362,commdev-image-keyboard-response,297,628475,learnblock1,543.6000000089407,img/planet11_left.png,11,Community 3,NA,TRUE,f,f,NA,NA,NA,59,6,"3,5,1,9,6,12,4,2,13,14,8,7,10,11,15"
15362,commdev-image-keyboard-response,298,629726,learnblock1,678.4000000059605,img/planet8_right.png,8,Community 3,NA,TRUE,j,j,NA,NA,NA,59,6,"3,5,1,9,6,12,4,2,13,14,8,7,10,11,15"
15362,commdev-image-keyboard-response,299,630978,learnblock1,655.7000000029802,img/planet6_right.png,6,Community 1,NA,TRUE,j,j,NA,NA,NA,59,6,"3,5,1,9,6,12,4,2,13,14,8,7,10,11,15"
15362,commdev-image-keyboard-response,300,632229,learnblock1,531.7000000029802,img/planet3_left.png,3,Community 1,NA,TRUE,f,f,NA,NA,NA,59,6,"3,5,1,9,6,12,4,2,13,14,8,7,10,11,15"
15362,commdev-image-keyboard-response,301,633480,learnblock1,583.7000000029802,img/planet1_left.png,1,Community 1,NA,TRUE,f,f,NA,NA,NA,59,6,"3,5,1,9,6,12,4,2,13,14,8,7,10,11,15"
15362,commdev-image-keyboard-response,302,634731,learnblock1,613.6999999880791,img/planet3_left.png,3,Community 1,NA,TRUE,f,f,NA,NA,NA,59,6,"3,5,1,9,6,12,4,2,13,14,8,7,10,11,15"
15362,commdev-image-keyboard-response,303,635983,learnblock1,583,img/planet9_right.png,9,Community 1,NA,TRUE,j,j,NA,NA,NA,59,6,"3,5,1,9,6,12,4,2,13,14,8,7,10,11,15"
15362,commdev-image-keyboard-response,304,637235,learnblock1,810.2999999970198,img/planet5_left.png,5,Community 1,NA,TRUE,f,f,NA,NA,NA,59,6,"3,5,1,9,6,12,4,2,13,14,8,7,10,11,15"
15362,commdev-image-keyboard-response,305,638486,learnblock1,579.2999999970198,img/planet3_right.png,3,Community 1,NA,TRUE,j,j,NA,NA,NA,59,6,"3,5,1,9,6,12,4,2,13,14,8,7,10,11,15"
15362,commdev-image-keyboard-response,306,639737,learnblock1,524.7000000029802,img/planet9_right.png,9,Community 1,NA,TRUE,j,j,NA,NA,NA,59,6,"3,5,1,9,6,12,4,2,13,14,8,7,10,11,15"
15362,commdev-image-keyboard-response,307,640989,learnblock1,483.79999999701977,img/planet3_left.png,3,Community 1,NA,TRUE,f,f,NA,NA,NA,59,6,"3,5,1,9,6,12,4,2,13,14,8,7,10,11,15"
15362,commdev-image-keyboard-response,308,642241,learnblock1,499.90000000596046,img/planet9_right.png,9,Community 1,NA,TRUE,j,j,NA,NA,NA,59,6,"3,5,1,9,6,12,4,2,13,14,8,7,10,11,15"
15362,commdev-image-keyboard-response,309,643492,learnblock1,793.4000000059605,img/planet5_left.png,5,Community 1,NA,TRUE,f,f,NA,NA,NA,59,6,"3,5,1,9,6,12,4,2,13,14,8,7,10,11,15"
15362,commdev-image-keyboard-response,310,644743,learnblock1,926.8999999910593,img/planet6_right.png,6,Community 1,NA,TRUE,j,j,NA,NA,NA,59,6,"3,5,1,9,6,12,4,2,13,14,8,7,10,11,15"
15362,commdev-image-keyboard-response,311,645994,learnblock1,1214.5,img/planet8_right.png,8,Community 3,NA,TRUE,j,j,NA,NA,NA,59,6,"3,5,1,9,6,12,4,2,13,14,8,7,10,11,15"
15362,commdev-image-keyboard-response,312,647245,learnblock1,582.0999999940395,img/planet15_right.png,15,Community 3,NA,TRUE,j,j,NA,NA,NA,59,6,"3,5,1,9,6,12,4,2,13,14,8,7,10,11,15"
15362,commdev-image-keyboard-response,313,648496,learnblock1,746.1000000089407,img/planet11_right.png,11,Community 3,NA,TRUE,j,j,NA,NA,NA,59,6,"3,5,1,9,6,12,4,2,13,14,8,7,10,11,15"
15362,commdev-image-keyboard-response,314,649748,learnblock1,500.6000000089407,img/planet8_right.png,8,Community 3,NA,TRUE,j,j,NA,NA,NA,59,6,"3,5,1,9,6,12,4,2,13,14,8,7,10,11,15"
15362,commdev-image-keyboard-response,315,651000,learnblock1,462.5,img/planet11_right.png,11,Community 3,NA,TRUE,j,j,NA,NA,NA,59,6,"3,5,1,9,6,12,4,2,13,14,8,7,10,11,15"
15362,commdev-image-keyboard-response,316,652252,learnblock1,491,img/planet10_right.png,10,Community 3,NA,TRUE,j,j,NA,NA,NA,59,6,"3,5,1,9,6,12,4,2,13,14,8,7,10,11,15"
15362,commdev-image-keyboard-response,317,653504,learnblock1,500.20000000298023,img/planet8_right.png,8,Community 3,NA,TRUE,j,j,NA,NA,NA,59,6,"3,5,1,9,6,12,4,2,13,14,8,7,10,11,15"
15362,commdev-image-keyboard-response,318,654755,learnblock1,540.6000000089407,img/planet10_left.png,10,Community 3,NA,TRUE,f,f,NA,NA,NA,59,6,"3,5,1,9,6,12,4,2,13,14,8,7,10,11,15"
15362,commdev-image-keyboard-response,319,656007,learnblock1,539.2000000029802,img/planet11_left.png,11,Community 3,NA,TRUE,f,f,NA,NA,NA,59,6,"3,5,1,9,6,12,4,2,13,14,8,7,10,11,15"
15362,commdev-image-keyboard-response,320,657258,learnblock1,588.5,img/planet7_right.png,7,Community 3,NA,TRUE,j,j,NA,NA,NA,59,6,"3,5,1,9,6,12,4,2,13,14,8,7,10,11,15"
15362,commdev-image-keyboard-response,321,658509,learnblock1,702.2000000029802,img/planet2_left.png,2,Community 2,NA,TRUE,f,f,NA,NA,NA,59,6,"3,5,1,9,6,12,4,2,13,14,8,7,10,11,15"
15362,commdev-image-keyboard-response,322,659761,learnblock1,531,img/planet14_right.png,14,Community 2,NA,TRUE,j,j,NA,NA,NA,59,6,"3,5,1,9,6,12,4,2,13,14,8,7,10,11,15"
15362,commdev-image-keyboard-response,323,661013,learnblock1,523.5,img/planet12_left.png,12,Community 2,NA,TRUE,f,f,NA,NA,NA,59,6,"3,5,1,9,6,12,4,2,13,14,8,7,10,11,15"
15362,commdev-image-keyboard-response,324,662264,learnblock1,435.80000001192093,img/planet14_left.png,14,Community 2,NA,TRUE,f,f,NA,NA,NA,59,6,"3,5,1,9,6,12,4,2,13,14,8,7,10,11,15"
15362,commdev-image-keyboard-response,325,663515,learnblock1,515.2999999970198,img/planet12_right.png,12,Community 2,NA,TRUE,j,j,NA,NA,NA,59,6,"3,5,1,9,6,12,4,2,13,14,8,7,10,11,15"
15362,commdev-image-keyboard-response,326,664765,learnblock1,511.79999999701977,img/planet13_left.png,13,Community 2,NA,TRUE,f,f,NA,NA,NA,59,6,"3,5,1,9,6,12,4,2,13,14,8,7,10,11,15"
15362,commdev-image-keyboard-response,327,666016,learnblock1,554.2000000029802,img/planet4_left.png,4,Community 2,NA,FALSE,j,f,NA,NA,NA,59,6,"3,5,1,9,6,12,4,2,13,14,8,7,10,11,15"
15362,commdev-image-keyboard-response,328,667268,learnblock1,392.29999999701977,img/planet14_left.png,14,Community 2,NA,FALSE,j,f,NA,NA,NA,59,6,"3,5,1,9,6,12,4,2,13,14,8,7,10,11,15"
15362,commdev-image-keyboard-response,329,668519,learnblock1,502,img/planet2_left.png,2,Community 2,NA,TRUE,f,f,NA,NA,NA,59,6,"3,5,1,9,6,12,4,2,13,14,8,7,10,11,15"
15362,commdev-image-keyboard-response,330,669771,learnblock1,568.1999999880791,img/planet14_right.png,14,Community 2,NA,TRUE,j,j,NA,NA,NA,59,6,"3,5,1,9,6,12,4,2,13,14,8,7,10,11,15"
15362,commdev-image-keyboard-response,331,671021,learnblock1,641.8999999910593,img/planet2_left.png,2,Community 2,NA,TRUE,f,f,NA,NA,NA,59,6,"3,5,1,9,6,12,4,2,13,14,8,7,10,11,15"
15362,commdev-image-keyboard-response,332,672272,learnblock1,534.5,img/planet7_left.png,7,Community 3,NA,TRUE,f,f,NA,NA,NA,59,6,"3,5,1,9,6,12,4,2,13,14,8,7,10,11,15"
15362,commdev-image-keyboard-response,333,673524,learnblock1,429.5,img/planet2_left.png,2,Community 2,NA,TRUE,f,f,NA,NA,NA,59,6,"3,5,1,9,6,12,4,2,13,14,8,7,10,11,15"
15362,commdev-image-keyboard-response,334,674776,learnblock1,490.59999999403954,img/planet14_right.png,14,Community 2,NA,TRUE,j,j,NA,NA,NA,59,6,"3,5,1,9,6,12,4,2,13,14,8,7,10,11,15"
15362,commdev-image-keyboard-response,335,676027,learnblock1,745,img/planet13_left.png,13,Community 2,NA,TRUE,f,f,NA,NA,NA,59,6,"3,5,1,9,6,12,4,2,13,14,8,7,10,11,15"
15362,commdev-image-keyboard-response,336,677278,learnblock1,567,img/planet12_right.png,12,Community 2,NA,TRUE,j,j,NA,NA,NA,59,6,"3,5,1,9,6,12,4,2,13,14,8,7,10,11,15"
15362,commdev-image-keyboard-response,337,678529,learnblock1,624,img/planet9_right.png,9,Community 1,NA,TRUE,j,j,NA,NA,NA,59,6,"3,5,1,9,6,12,4,2,13,14,8,7,10,11,15"
15362,commdev-image-keyboard-response,338,679780,learnblock1,782.9000000059605,img/planet3_right.png,3,Community 1,NA,TRUE,j,j,NA,NA,NA,59,6,"3,5,1,9,6,12,4,2,13,14,8,7,10,11,15"
15362,commdev-image-keyboard-response,339,681031,learnblock1,531.5,img/planet5_left.png,5,Community 1,NA,TRUE,f,f,NA,NA,NA,59,6,"3,5,1,9,6,12,4,2,13,14,8,7,10,11,15"
15362,commdev-image-keyboard-response,340,682282,learnblock1,672,img/planet9_left.png,9,Community 1,NA,TRUE,f,f,NA,NA,NA,59,6,"3,5,1,9,6,12,4,2,13,14,8,7,10,11,15"
15362,commdev-image-keyboard-response,341,683533,learnblock1,543.4000000059605,img/planet5_right.png,5,Community 1,NA,TRUE,j,j,NA,NA,NA,59,6,"3,5,1,9,6,12,4,2,13,14,8,7,10,11,15"
15362,commdev-image-keyboard-response,342,684785,learnblock1,561,img/planet3_left.png,3,Community 1,NA,FALSE,j,f,NA,NA,NA,59,6,"3,5,1,9,6,12,4,2,13,14,8,7,10,11,15"
15362,commdev-image-keyboard-response,343,686036,learnblock1,577.6999999880791,img/planet6_left.png,6,Community 1,NA,TRUE,f,f,NA,NA,NA,59,6,"3,5,1,9,6,12,4,2,13,14,8,7,10,11,15"
15362,commdev-image-keyboard-response,344,687288,learnblock1,597.1999999880791,img/planet5_left.png,5,Community 1,NA,TRUE,f,f,NA,NA,NA,59,6,"3,5,1,9,6,12,4,2,13,14,8,7,10,11,15"
15362,commdev-image-keyboard-response,345,688539,learnblock1,682,img/planet9_left.png,9,Community 1,NA,TRUE,f,f,NA,NA,NA,59,6,"3,5,1,9,6,12,4,2,13,14,8,7,10,11,15"
15362,commdev-image-keyboard-response,346,689790,learnblock1,490.59999999403954,img/planet3_right.png,3,Community 1,NA,TRUE,j,j,NA,NA,NA,59,6,"3,5,1,9,6,12,4,2,13,14,8,7,10,11,15"
15362,commdev-image-keyboard-response,347,691040,learnblock1,473.30000001192093,img/planet9_right.png,9,Community 1,NA,TRUE,j,j,NA,NA,NA,59,6,"3,5,1,9,6,12,4,2,13,14,8,7,10,11,15"
15362,commdev-image-keyboard-response,351,910001,learnblock2,991.2000000029802,img/planet6_left.png,6,Community 1,NA,TRUE,f,f,NA,NA,NA,59,6,"3,5,1,9,6,12,4,2,13,14,8,7,10,11,15"
15362,commdev-image-keyboard-response,352,911252,learnblock2,594.4000000059605,img/planet8_right.png,8,Community 3,NA,TRUE,j,j,NA,NA,NA,59,6,"3,5,1,9,6,12,4,2,13,14,8,7,10,11,15"
15362,commdev-image-keyboard-response,353,912503,learnblock2,578.7999999970198,img/planet11_right.png,11,Community 3,NA,TRUE,j,j,NA,NA,NA,59,6,"3,5,1,9,6,12,4,2,13,14,8,7,10,11,15"
15362,commdev-image-keyboard-response,354,913754,learnblock2,491.20000000298023,img/planet15_right.png,15,Community 3,NA,FALSE,f,j,NA,NA,NA,59,6,"3,5,1,9,6,12,4,2,13,14,8,7,10,11,15"
15362,commdev-image-keyboard-response,355,915004,learnblock2,704.1000000089407,img/planet8_left.png,8,Community 3,NA,TRUE,f,f,NA,NA,NA,59,6,"3,5,1,9,6,12,4,2,13,14,8,7,10,11,15"
15362,commdev-image-keyboard-response,356,916256,learnblock2,739,img/planet11_left.png,11,Community 3,NA,TRUE,f,f,NA,NA,NA,59,6,"3,5,1,9,6,12,4,2,13,14,8,7,10,11,15"
15362,commdev-image-keyboard-response,357,917507,learnblock2,827.7000000029802,img/planet10_left.png,10,Community 3,NA,TRUE,f,f,NA,NA,NA,59,6,"3,5,1,9,6,12,4,2,13,14,8,7,10,11,15"
15362,commdev-image-keyboard-response,358,918760,learnblock2,718.7000000029802,img/planet7_right.png,7,Community 3,NA,TRUE,j,j,NA,NA,NA,59,6,"3,5,1,9,6,12,4,2,13,14,8,7,10,11,15"
15362,commdev-image-keyboard-response,359,920010,learnblock2,1021.7999999970198,img/planet15_left.png,15,Community 3,NA,TRUE,f,f,NA,NA,NA,59,6,"3,5,1,9,6,12,4,2,13,14,8,7,10,11,15"
15362,commdev-image-keyboard-response,360,921262,learnblock2,643.3000000119209,img/planet7_right.png,7,Community 3,NA,TRUE,j,j,NA,NA,NA,59,6,"3,5,1,9,6,12,4,2,13,14,8,7,10,11,15"
15362,commdev-image-keyboard-response,361,922513,learnblock2,615.3999999910593,img/planet10_right.png,10,Community 3,NA,TRUE,j,j,NA,NA,NA,59,6,"3,5,1,9,6,12,4,2,13,14,8,7,10,11,15"
15362,commdev-image-keyboard-response,362,923765,learnblock2,558,img/planet8_left.png,8,Community 3,NA,TRUE,f,f,NA,NA,NA,59,6,"3,5,1,9,6,12,4,2,13,14,8,7,10,11,15"
15362,commdev-image-keyboard-response,363,925016,learnblock2,518.9000000059605,img/planet15_left.png,15,Community 3,NA,TRUE,f,f,NA,NA,NA,59,6,"3,5,1,9,6,12,4,2,13,14,8,7,10,11,15"
15362,commdev-image-keyboard-response,364,926267,learnblock2,556.7000000029802,img/planet7_left.png,7,Community 3,NA,TRUE,f,f,NA,NA,NA,59,6,"3,5,1,9,6,12,4,2,13,14,8,7,10,11,15"
15362,commdev-image-keyboard-response,365,927518,learnblock2,505.90000000596046,img/planet15_left.png,15,Community 3,NA,TRUE,f,f,NA,NA,NA,59,6,"3,5,1,9,6,12,4,2,13,14,8,7,10,11,15"
15362,commdev-image-keyboard-response,366,928769,learnblock2,474,img/planet11_right.png,11,Community 3,NA,TRUE,j,j,NA,NA,NA,59,6,"3,5,1,9,6,12,4,2,13,14,8,7,10,11,15"
15362,commdev-image-keyboard-response,367,930020,learnblock2,719.8999999910593,img/planet15_right.png,15,Community 3,NA,TRUE,j,j,NA,NA,NA,59,6,"3,5,1,9,6,12,4,2,13,14,8,7,10,11,15"
15362,commdev-image-keyboard-response,368,931271,learnblock2,626.2999999970198,img/planet11_left.png,11,Community 3,NA,TRUE,f,f,NA,NA,NA,59,6,"3,5,1,9,6,12,4,2,13,14,8,7,10,11,15"
15362,commdev-image-keyboard-response,369,932522,learnblock2,523.3999999910593,img/planet10_right.png,10,Community 3,NA,TRUE,j,j,NA,NA,NA,59,6,"3,5,1,9,6,12,4,2,13,14,8,7,10,11,15"
15362,commdev-image-keyboard-response,370,933773,learnblock2,647.2000000029802,img/planet7_left.png,7,Community 3,NA,TRUE,f,f,NA,NA,NA,59,6,"3,5,1,9,6,12,4,2,13,14,8,7,10,11,15"
15362,commdev-image-keyboard-response,371,935024,learnblock2,520.1999999880791,img/planet15_right.png,15,Community 3,NA,TRUE,j,j,NA,NA,NA,59,6,"3,5,1,9,6,12,4,2,13,14,8,7,10,11,15"
15362,commdev-image-keyboard-response,372,936276,learnblock2,554.4000000059605,img/planet8_left.png,8,Community 3,NA,TRUE,f,f,NA,NA,NA,59,6,"3,5,1,9,6,12,4,2,13,14,8,7,10,11,15"
15362,commdev-image-keyboard-response,373,937527,learnblock2,630.3000000119209,img/planet6_left.png,6,Community 1,NA,TRUE,f,f,NA,NA,NA,59,6,"3,5,1,9,6,12,4,2,13,14,8,7,10,11,15"
15362,commdev-image-keyboard-response,374,938778,learnblock2,627.8000000119209,img/planet8_left.png,8,Community 3,NA,TRUE,f,f,NA,NA,NA,59,6,"3,5,1,9,6,12,4,2,13,14,8,7,10,11,15"
15362,commdev-image-keyboard-response,375,940031,learnblock2,537.9000000059605,img/planet11_left.png,11,Community 3,NA,TRUE,f,f,NA,NA,NA,59,6,"3,5,1,9,6,12,4,2,13,14,8,7,10,11,15"
15362,commdev-image-keyboard-response,376,941283,learnblock2,601.6000000089407,img/planet7_left.png,7,Community 3,NA,TRUE,f,f,NA,NA,NA,59,6,"3,5,1,9,6,12,4,2,13,14,8,7,10,11,15"
15362,commdev-image-keyboard-response,377,942534,learnblock2,497,img/planet11_left.png,11,Community 3,NA,TRUE,f,f,NA,NA,NA,59,6,"3,5,1,9,6,12,4,2,13,14,8,7,10,11,15"
15362,commdev-image-keyboard-response,378,943785,learnblock2,467.29999999701977,img/planet10_left.png,10,Community 3,NA,TRUE,f,f,NA,NA,NA,59,6,"3,5,1,9,6,12,4,2,13,14,8,7,10,11,15"
15362,commdev-image-keyboard-response,379,945035,learnblock2,504.20000000298023,img/planet7_right.png,7,Community 3,NA,TRUE,j,j,NA,NA,NA,59,6,"3,5,1,9,6,12,4,2,13,14,8,7,10,11,15"
15362,commdev-image-keyboard-response,380,946286,learnblock2,561.5999999940395,img/planet2_left.png,2,Community 2,NA,TRUE,f,f,NA,NA,NA,59,6,"3,5,1,9,6,12,4,2,13,14,8,7,10,11,15"
15362,commdev-image-keyboard-response,381,947537,learnblock2,532.2000000029802,img/planet4_right.png,4,Community 2,NA,TRUE,j,j,NA,NA,NA,59,6,"3,5,1,9,6,12,4,2,13,14,8,7,10,11,15"
15362,commdev-image-keyboard-response,382,948788,learnblock2,536.7000000029802,img/planet12_left.png,12,Community 2,NA,TRUE,f,f,NA,NA,NA,59,6,"3,5,1,9,6,12,4,2,13,14,8,7,10,11,15"
15362,commdev-image-keyboard-response,383,950040,learnblock2,559.6000000089407,img/planet13_right.png,13,Community 2,NA,TRUE,j,j,NA,NA,NA,59,6,"3,5,1,9,6,12,4,2,13,14,8,7,10,11,15"
15362,commdev-image-keyboard-response,384,951290,learnblock2,541.8999999910593,img/planet12_right.png,12,Community 2,NA,TRUE,j,j,NA,NA,NA,59,6,"3,5,1,9,6,12,4,2,13,14,8,7,10,11,15"
15362,commdev-image-keyboard-response,385,952541,learnblock2,534.5,img/planet14_right.png,14,Community 2,NA,TRUE,j,j,NA,NA,NA,59,6,"3,5,1,9,6,12,4,2,13,14,8,7,10,11,15"
15362,commdev-image-keyboard-response,386,953792,learnblock2,548,img/planet2_left.png,2,Community 2,NA,TRUE,f,f,NA,NA,NA,59,6,"3,5,1,9,6,12,4,2,13,14,8,7,10,11,15"
15362,commdev-image-keyboard-response,387,955042,learnblock2,622.2999999970198,img/planet7_left.png,7,Community 3,NA,TRUE,f,f,NA,NA,NA,59,6,"3,5,1,9,6,12,4,2,13,14,8,7,10,11,15"
15362,commdev-image-keyboard-response,388,956294,learnblock2,551.7999999970198,img/planet2_left.png,2,Community 2,NA,TRUE,f,f,NA,NA,NA,59,6,"3,5,1,9,6,12,4,2,13,14,8,7,10,11,15"
15362,commdev-image-keyboard-response,389,957545,learnblock2,569,img/planet13_right.png,13,Community 2,NA,TRUE,j,j,NA,NA,NA,59,6,"3,5,1,9,6,12,4,2,13,14,8,7,10,11,15"
15362,commdev-image-keyboard-response,390,958797,learnblock2,502.5,img/planet14_right.png,14,Community 2,NA,TRUE,j,j,NA,NA,NA,59,6,"3,5,1,9,6,12,4,2,13,14,8,7,10,11,15"
15362,commdev-image-keyboard-response,391,960048,learnblock2,689.9000000059605,img/planet12_left.png,12,Community 2,NA,TRUE,f,f,NA,NA,NA,59,6,"3,5,1,9,6,12,4,2,13,14,8,7,10,11,15"
15362,commdev-image-keyboard-response,392,961299,learnblock2,895.4000000059605,img/planet14_right.png,14,Community 2,NA,TRUE,j,j,NA,NA,NA,59,6,"3,5,1,9,6,12,4,2,13,14,8,7,10,11,15"
15362,commdev-image-keyboard-response,393,962549,learnblock2,685.2000000029802,img/planet13_left.png,13,Community 2,NA,TRUE,f,f,NA,NA,NA,59,6,"3,5,1,9,6,12,4,2,13,14,8,7,10,11,15"
15362,commdev-image-keyboard-response,394,963800,learnblock2,557.6000000089407,img/planet2_right.png,2,Community 2,NA,TRUE,j,j,NA,NA,NA,59,6,"3,5,1,9,6,12,4,2,13,14,8,7,10,11,15"
15362,commdev-image-keyboard-response,395,965051,learnblock2,556.3999999910593,img/planet14_right.png,14,Community 2,NA,TRUE,j,j,NA,NA,NA,59,6,"3,5,1,9,6,12,4,2,13,14,8,7,10,11,15"
15362,commdev-image-keyboard-response,396,966302,learnblock2,574.2000000029802,img/planet12_right.png,12,Community 2,NA,TRUE,j,j,NA,NA,NA,59,6,"3,5,1,9,6,12,4,2,13,14,8,7,10,11,15"
15362,commdev-image-keyboard-response,397,967552,learnblock2,612.8000000119209,img/planet4_right.png,4,Community 2,NA,TRUE,j,j,NA,NA,NA,59,6,"3,5,1,9,6,12,4,2,13,14,8,7,10,11,15"
15362,commdev-image-keyboard-response,398,968804,learnblock2,538.5999999940395,img/planet2_right.png,2,Community 2,NA,TRUE,j,j,NA,NA,NA,59,6,"3,5,1,9,6,12,4,2,13,14,8,7,10,11,15"
15362,commdev-image-keyboard-response,399,970055,learnblock2,439.09999999403954,img/planet13_right.png,13,Community 2,NA,TRUE,j,j,NA,NA,NA,59,6,"3,5,1,9,6,12,4,2,13,14,8,7,10,11,15"
15362,commdev-image-keyboard-response,400,971307,learnblock2,531.2000000029802,img/planet4_right.png,4,Community 2,NA,TRUE,j,j,NA,NA,NA,59,6,"3,5,1,9,6,12,4,2,13,14,8,7,10,11,15"
15362,commdev-image-keyboard-response,401,972558,learnblock2,564.4000000059605,img/planet12_left.png,12,Community 2,NA,TRUE,f,f,NA,NA,NA,59,6,"3,5,1,9,6,12,4,2,13,14,8,7,10,11,15"
15362,commdev-image-keyboard-response,402,973809,learnblock2,620.2000000029802,img/planet13_left.png,13,Community 2,NA,TRUE,f,f,NA,NA,NA,59,6,"3,5,1,9,6,12,4,2,13,14,8,7,10,11,15"
15362,commdev-image-keyboard-response,403,975060,learnblock2,590,img/planet14_left.png,14,Community 2,NA,TRUE,f,f,NA,NA,NA,59,6,"3,5,1,9,6,12,4,2,13,14,8,7,10,11,15"
15362,commdev-image-keyboard-response,404,976311,learnblock2,508.59999999403954,img/planet2_right.png,2,Community 2,NA,TRUE,j,j,NA,NA,NA,59,6,"3,5,1,9,6,12,4,2,13,14,8,7,10,11,15"
15362,commdev-image-keyboard-response,405,977562,learnblock2,536.5,img/planet7_right.png,7,Community 3,NA,TRUE,j,j,NA,NA,NA,59,6,"3,5,1,9,6,12,4,2,13,14,8,7,10,11,15"
15362,commdev-image-keyboard-response,406,978814,learnblock2,523.2000000029802,img/planet10_right.png,10,Community 3,NA,TRUE,j,j,NA,NA,NA,59,6,"3,5,1,9,6,12,4,2,13,14,8,7,10,11,15"
15362,commdev-image-keyboard-response,407,980065,learnblock2,600.8000000119209,img/planet15_left.png,15,Community 3,NA,TRUE,f,f,NA,NA,NA,59,6,"3,5,1,9,6,12,4,2,13,14,8,7,10,11,15"
15362,commdev-image-keyboard-response,408,981316,learnblock2,558.2000000029802,img/planet7_right.png,7,Community 3,NA,TRUE,j,j,NA,NA,NA,59,6,"3,5,1,9,6,12,4,2,13,14,8,7,10,11,15"
15362,commdev-image-keyboard-response,409,982567,learnblock2,536.1999999880791,img/planet2_left.png,2,Community 2,NA,FALSE,j,f,NA,NA,NA,59,6,"3,5,1,9,6,12,4,2,13,14,8,7,10,11,15"
15362,commdev-image-keyboard-response,410,983817,learnblock2,684.5,img/planet13_left.png,13,Community 2,NA,TRUE,f,f,NA,NA,NA,59,6,"3,5,1,9,6,12,4,2,13,14,8,7,10,11,15"
15362,commdev-image-keyboard-response,411,985069,learnblock2,538.8999999910593,img/planet2_left.png,2,Community 2,NA,TRUE,f,f,NA,NA,NA,59,6,"3,5,1,9,6,12,4,2,13,14,8,7,10,11,15"
15362,commdev-image-keyboard-response,412,986321,learnblock2,575,img/planet13_left.png,13,Community 2,NA,TRUE,f,f,NA,NA,NA,59,6,"3,5,1,9,6,12,4,2,13,14,8,7,10,11,15"
15362,commdev-image-keyboard-response,413,987572,learnblock2,557.5999999940395,img/planet12_right.png,12,Community 2,NA,TRUE,j,j,NA,NA,NA,59,6,"3,5,1,9,6,12,4,2,13,14,8,7,10,11,15"
15362,commdev-image-keyboard-response,414,988823,learnblock2,581.3000000119209,img/planet9_left.png,9,Community 1,NA,TRUE,f,f,NA,NA,NA,59,6,"3,5,1,9,6,12,4,2,13,14,8,7,10,11,15"
15362,commdev-image-keyboard-response,415,990074,learnblock2,866.2000000029802,img/planet5_left.png,5,Community 1,NA,TRUE,f,f,NA,NA,NA,59,6,"3,5,1,9,6,12,4,2,13,14,8,7,10,11,15"
15362,commdev-image-keyboard-response,416,991325,learnblock2,718,img/planet3_left.png,3,Community 1,NA,TRUE,f,f,NA,NA,NA,59,6,"3,5,1,9,6,12,4,2,13,14,8,7,10,11,15"
15362,commdev-image-keyboard-response,417,992576,learnblock2,604.3999999910593,img/planet9_right.png,9,Community 1,NA,TRUE,j,j,NA,NA,NA,59,6,"3,5,1,9,6,12,4,2,13,14,8,7,10,11,15"
15362,commdev-image-keyboard-response,418,993827,learnblock2,616.7000000029802,img/planet3_left.png,3,Community 1,NA,TRUE,f,f,NA,NA,NA,59,6,"3,5,1,9,6,12,4,2,13,14,8,7,10,11,15"
15362,commdev-image-keyboard-response,419,995078,learnblock2,479.5,img/planet9_left.png,9,Community 1,NA,TRUE,f,f,NA,NA,NA,59,6,"3,5,1,9,6,12,4,2,13,14,8,7,10,11,15"
15362,commdev-image-keyboard-response,420,996329,learnblock2,615.7999999970198,img/planet12_left.png,12,Community 2,NA,TRUE,f,f,NA,NA,NA,59,6,"3,5,1,9,6,12,4,2,13,14,8,7,10,11,15"
15362,commdev-image-keyboard-response,421,997580,learnblock2,492.6000000089407,img/planet14_left.png,14,Community 2,NA,TRUE,f,f,NA,NA,NA,59,6,"3,5,1,9,6,12,4,2,13,14,8,7,10,11,15"
15362,commdev-image-keyboard-response,422,998831,learnblock2,497,img/planet13_right.png,13,Community 2,NA,TRUE,j,j,NA,NA,NA,59,6,"3,5,1,9,6,12,4,2,13,14,8,7,10,11,15"
15362,commdev-image-keyboard-response,423,1000082,learnblock2,542.5,img/planet4_left.png,4,Community 2,NA,TRUE,f,f,NA,NA,NA,59,6,"3,5,1,9,6,12,4,2,13,14,8,7,10,11,15"
15362,commdev-image-keyboard-response,424,1001333,learnblock2,683,img/planet13_right.png,13,Community 2,NA,TRUE,j,j,NA,NA,NA,59,6,"3,5,1,9,6,12,4,2,13,14,8,7,10,11,15"
15362,commdev-image-keyboard-response,425,1002585,learnblock2,652.7999999970198,img/planet12_right.png,12,Community 2,NA,TRUE,j,j,NA,NA,NA,59,6,"3,5,1,9,6,12,4,2,13,14,8,7,10,11,15"
15362,commdev-image-keyboard-response,426,1003836,learnblock2,574.2000000029802,img/planet4_left.png,4,Community 2,NA,TRUE,f,f,NA,NA,NA,59,6,"3,5,1,9,6,12,4,2,13,14,8,7,10,11,15"
15362,commdev-image-keyboard-response,427,1005087,learnblock2,524.5,img/planet14_right.png,14,Community 2,NA,TRUE,j,j,NA,NA,NA,59,6,"3,5,1,9,6,12,4,2,13,14,8,7,10,11,15"
15362,commdev-image-keyboard-response,428,1006339,learnblock2,595.5999999940395,img/planet4_left.png,4,Community 2,NA,TRUE,f,f,NA,NA,NA,59,6,"3,5,1,9,6,12,4,2,13,14,8,7,10,11,15"
15362,commdev-image-keyboard-response,429,1007590,learnblock2,561.2000000029802,img/planet13_right.png,13,Community 2,NA,TRUE,j,j,NA,NA,NA,59,6,"3,5,1,9,6,12,4,2,13,14,8,7,10,11,15"
15362,commdev-image-keyboard-response,430,1008841,learnblock2,466.19999998807907,img/planet2_left.png,2,Community 2,NA,TRUE,f,f,NA,NA,NA,59,6,"3,5,1,9,6,12,4,2,13,14,8,7,10,11,15"
15362,commdev-image-keyboard-response,431,1010092,learnblock2,639.7000000029802,img/planet7_left.png,7,Community 3,NA,TRUE,f,f,NA,NA,NA,59,6,"3,5,1,9,6,12,4,2,13,14,8,7,10,11,15"
15362,commdev-image-keyboard-response,432,1011343,learnblock2,578,img/planet2_left.png,2,Community 2,NA,TRUE,f,f,NA,NA,NA,59,6,"3,5,1,9,6,12,4,2,13,14,8,7,10,11,15"
15362,commdev-image-keyboard-response,433,1012595,learnblock2,548.2999999970198,img/planet4_left.png,4,Community 2,NA,TRUE,f,f,NA,NA,NA,59,6,"3,5,1,9,6,12,4,2,13,14,8,7,10,11,15"
15362,commdev-image-keyboard-response,434,1013846,learnblock2,610.5,img/planet14_left.png,14,Community 2,NA,TRUE,f,f,NA,NA,NA,59,6,"3,5,1,9,6,12,4,2,13,14,8,7,10,11,15"
15362,commdev-image-keyboard-response,435,1015097,learnblock2,425,img/planet4_left.png,4,Community 2,NA,TRUE,f,f,NA,NA,NA,59,6,"3,5,1,9,6,12,4,2,13,14,8,7,10,11,15"
15362,commdev-image-keyboard-response,436,1016349,learnblock2,549.4000000059605,img/planet13_left.png,13,Community 2,NA,TRUE,f,f,NA,NA,NA,59,6,"3,5,1,9,6,12,4,2,13,14,8,7,10,11,15"
15362,commdev-image-keyboard-response,437,1017600,learnblock2,453,img/planet2_left.png,2,Community 2,NA,TRUE,f,f,NA,NA,NA,59,6,"3,5,1,9,6,12,4,2,13,14,8,7,10,11,15"
15362,commdev-image-keyboard-response,438,1018851,learnblock2,596.2999999970198,img/planet4_right.png,4,Community 2,NA,TRUE,j,j,NA,NA,NA,59,6,"3,5,1,9,6,12,4,2,13,14,8,7,10,11,15"
15362,commdev-image-keyboard-response,439,1020102,learnblock2,537.7000000029802,img/planet2_left.png,2,Community 2,NA,TRUE,f,f,NA,NA,NA,59,6,"3,5,1,9,6,12,4,2,13,14,8,7,10,11,15"
15362,commdev-image-keyboard-response,440,1021353,learnblock2,532,img/planet14_right.png,14,Community 2,NA,TRUE,j,j,NA,NA,NA,59,6,"3,5,1,9,6,12,4,2,13,14,8,7,10,11,15"
15362,commdev-image-keyboard-response,441,1022604,learnblock2,489.5,img/planet13_left.png,13,Community 2,NA,TRUE,f,f,NA,NA,NA,59,6,"3,5,1,9,6,12,4,2,13,14,8,7,10,11,15"
15362,commdev-image-keyboard-response,442,1023855,learnblock2,515.4000000059605,img/planet14_left.png,14,Community 2,NA,TRUE,f,f,NA,NA,NA,59,6,"3,5,1,9,6,12,4,2,13,14,8,7,10,11,15"
15362,commdev-image-keyboard-response,443,1025106,learnblock2,644.5999999940395,img/planet4_right.png,4,Community 2,NA,TRUE,j,j,NA,NA,NA,59,6,"3,5,1,9,6,12,4,2,13,14,8,7,10,11,15"
15362,commdev-image-keyboard-response,444,1026356,learnblock2,810.0999999940395,img/planet2_right.png,2,Community 2,NA,TRUE,j,j,NA,NA,NA,59,6,"3,5,1,9,6,12,4,2,13,14,8,7,10,11,15"
15362,commdev-image-keyboard-response,445,1027608,learnblock2,621.7000000029802,img/planet4_right.png,4,Community 2,NA,TRUE,j,j,NA,NA,NA,59,6,"3,5,1,9,6,12,4,2,13,14,8,7,10,11,15"
15362,commdev-image-keyboard-response,446,1028859,learnblock2,562.4000000059605,img/planet14_right.png,14,Community 2,NA,TRUE,j,j,NA,NA,NA,59,6,"3,5,1,9,6,12,4,2,13,14,8,7,10,11,15"
15362,commdev-image-keyboard-response,447,1030111,learnblock2,558.1000000089407,img/planet12_left.png,12,Community 2,NA,TRUE,f,f,NA,NA,NA,59,6,"3,5,1,9,6,12,4,2,13,14,8,7,10,11,15"
15362,commdev-image-keyboard-response,448,1031361,learnblock2,664.5999999940395,img/planet14_right.png,14,Community 2,NA,TRUE,j,j,NA,NA,NA,59,6,"3,5,1,9,6,12,4,2,13,14,8,7,10,11,15"
15362,commdev-image-keyboard-response,449,1032613,learnblock2,641.7999999970198,img/planet12_left.png,12,Community 2,NA,TRUE,f,f,NA,NA,NA,59,6,"3,5,1,9,6,12,4,2,13,14,8,7,10,11,15"
15362,commdev-image-keyboard-response,450,1033863,learnblock2,1046.7000000029802,img/planet14_right.png,14,Community 2,NA,FALSE,f,j,NA,NA,NA,59,6,"3,5,1,9,6,12,4,2,13,14,8,7,10,11,15"
15362,commdev-image-keyboard-response,451,1035114,learnblock2,1120.800000011921,img/planet4_left.png,4,Community 2,NA,TRUE,f,f,NA,NA,NA,59,6,"3,5,1,9,6,12,4,2,13,14,8,7,10,11,15"
15362,commdev-image-keyboard-response,452,1036365,learnblock2,699.6000000089407,img/planet2_left.png,2,Community 2,NA,TRUE,f,f,NA,NA,NA,59,6,"3,5,1,9,6,12,4,2,13,14,8,7,10,11,15"
15362,commdev-image-keyboard-response,453,1037617,learnblock2,680.9000000059605,img/planet7_left.png,7,Community 3,NA,TRUE,f,f,NA,NA,NA,59,6,"3,5,1,9,6,12,4,2,13,14,8,7,10,11,15"
15362,commdev-image-keyboard-response,454,1038869,learnblock2,530.8000000119209,img/planet11_right.png,11,Community 3,NA,TRUE,j,j,NA,NA,NA,59,6,"3,5,1,9,6,12,4,2,13,14,8,7,10,11,15"
15362,commdev-image-keyboard-response,455,1040120,learnblock2,605,img/planet8_left.png,8,Community 3,NA,TRUE,f,f,NA,NA,NA,59,6,"3,5,1,9,6,12,4,2,13,14,8,7,10,11,15"
15362,commdev-image-keyboard-response,456,1041371,learnblock2,684.6999999880791,img/planet6_right.png,6,Community 1,NA,TRUE,j,j,NA,NA,NA,59,6,"3,5,1,9,6,12,4,2,13,14,8,7,10,11,15"
15362,commdev-image-keyboard-response,457,1042622,learnblock2,568.8000000119209,img/planet1_left.png,1,Community 1,NA,TRUE,f,f,NA,NA,NA,59,6,"3,5,1,9,6,12,4,2,13,14,8,7,10,11,15"
15362,commdev-image-keyboard-response,458,1043874,learnblock2,512,img/planet3_right.png,3,Community 1,NA,TRUE,j,j,NA,NA,NA,59,6,"3,5,1,9,6,12,4,2,13,14,8,7,10,11,15"
15362,commdev-image-keyboard-response,459,1045125,learnblock2,599.2000000029802,img/planet1_right.png,1,Community 1,NA,TRUE,j,j,NA,NA,NA,59,6,"3,5,1,9,6,12,4,2,13,14,8,7,10,11,15"
15362,commdev-image-keyboard-response,460,1046376,learnblock2,474.79999999701977,img/planet6_left.png,6,Community 1,NA,TRUE,f,f,NA,NA,NA,59,6,"3,5,1,9,6,12,4,2,13,14,8,7,10,11,15"
15362,commdev-image-keyboard-response,461,1047627,learnblock2,576.6999999880791,img/planet1_left.png,1,Community 1,NA,TRUE,f,f,NA,NA,NA,59,6,"3,5,1,9,6,12,4,2,13,14,8,7,10,11,15"
15362,commdev-image-keyboard-response,462,1048878,learnblock2,574.5999999940395,img/planet3_right.png,3,Community 1,NA,TRUE,j,j,NA,NA,NA,59,6,"3,5,1,9,6,12,4,2,13,14,8,7,10,11,15"
15362,commdev-image-keyboard-response,463,1050130,learnblock2,685.7000000029802,img/planet6_right.png,6,Community 1,NA,TRUE,j,j,NA,NA,NA,59,6,"3,5,1,9,6,12,4,2,13,14,8,7,10,11,15"
15362,commdev-image-keyboard-response,464,1051380,learnblock2,575.7000000029802,img/planet3_right.png,3,Community 1,NA,FALSE,f,j,NA,NA,NA,59,6,"3,5,1,9,6,12,4,2,13,14,8,7,10,11,15"
15362,commdev-image-keyboard-response,465,1052632,learnblock2,583.3999999910593,img/planet1_right.png,1,Community 1,NA,TRUE,j,j,NA,NA,NA,59,6,"3,5,1,9,6,12,4,2,13,14,8,7,10,11,15"
15362,commdev-image-keyboard-response,466,1053882,learnblock2,462.30000001192093,img/planet9_left.png,9,Community 1,NA,TRUE,f,f,NA,NA,NA,59,6,"3,5,1,9,6,12,4,2,13,14,8,7,10,11,15"
15362,commdev-image-keyboard-response,467,1055134,learnblock2,690.3000000119209,img/planet3_right.png,3,Community 1,NA,TRUE,j,j,NA,NA,NA,59,6,"3,5,1,9,6,12,4,2,13,14,8,7,10,11,15"
15362,commdev-image-keyboard-response,468,1056385,learnblock2,600.3000000119209,img/planet9_left.png,9,Community 1,NA,TRUE,f,f,NA,NA,NA,59,6,"3,5,1,9,6,12,4,2,13,14,8,7,10,11,15"
15362,commdev-image-keyboard-response,469,1057636,learnblock2,568.2000000029802,img/planet1_left.png,1,Community 1,NA,TRUE,f,f,NA,NA,NA,59,6,"3,5,1,9,6,12,4,2,13,14,8,7,10,11,15"
15362,commdev-image-keyboard-response,470,1058888,learnblock2,571.5999999940395,img/planet3_right.png,3,Community 1,NA,TRUE,j,j,NA,NA,NA,59,6,"3,5,1,9,6,12,4,2,13,14,8,7,10,11,15"
15362,commdev-image-keyboard-response,471,1060139,learnblock2,848.7000000029802,img/planet5_left.png,5,Community 1,NA,TRUE,f,f,NA,NA,NA,59,6,"3,5,1,9,6,12,4,2,13,14,8,7,10,11,15"
15362,commdev-image-keyboard-response,472,1061390,learnblock2,724.7000000029802,img/planet1_left.png,1,Community 1,NA,TRUE,f,f,NA,NA,NA,59,6,"3,5,1,9,6,12,4,2,13,14,8,7,10,11,15"
15362,commdev-image-keyboard-response,473,1062641,learnblock2,607.7999999970198,img/planet9_right.png,9,Community 1,NA,TRUE,j,j,NA,NA,NA,59,6,"3,5,1,9,6,12,4,2,13,14,8,7,10,11,15"
15362,commdev-image-keyboard-response,474,1063892,learnblock2,580.2000000029802,img/planet3_right.png,3,Community 1,NA,TRUE,j,j,NA,NA,NA,59,6,"3,5,1,9,6,12,4,2,13,14,8,7,10,11,15"
15362,commdev-image-keyboard-response,475,1065143,learnblock2,683.6999999880791,img/planet6_right.png,6,Community 1,NA,TRUE,j,j,NA,NA,NA,59,6,"3,5,1,9,6,12,4,2,13,14,8,7,10,11,15"
15362,commdev-image-keyboard-response,476,1066394,learnblock2,525.5,img/planet5_left.png,5,Community 1,NA,TRUE,f,f,NA,NA,NA,59,6,"3,5,1,9,6,12,4,2,13,14,8,7,10,11,15"
15362,commdev-image-keyboard-response,477,1067644,learnblock2,213.20000000298023,img/planet6_left.png,6,Community 1,NA,FALSE,j,f,NA,NA,NA,59,6,"3,5,1,9,6,12,4,2,13,14,8,7,10,11,15"
15362,commdev-image-keyboard-response,478,1068896,learnblock2,70.5,img/planet3_right.png,3,Community 1,NA,FALSE,f,j,NA,NA,NA,59,6,"3,5,1,9,6,12,4,2,13,14,8,7,10,11,15"
15362,commdev-image-keyboard-response,479,1070147,learnblock2,147.6000000089407,img/planet5_right.png,5,Community 1,NA,TRUE,j,j,NA,NA,NA,59,6,"3,5,1,9,6,12,4,2,13,14,8,7,10,11,15"
15362,commdev-image-keyboard-response,480,1071398,learnblock2,649,img/planet9_left.png,9,Community 1,NA,TRUE,f,f,NA,NA,NA,59,6,"3,5,1,9,6,12,4,2,13,14,8,7,10,11,15"
15362,commdev-image-keyboard-response,481,1072651,learnblock2,632.5,img/planet12_left.png,12,Community 2,NA,TRUE,f,f,NA,NA,NA,59,6,"3,5,1,9,6,12,4,2,13,14,8,7,10,11,15"
15362,commdev-image-keyboard-response,482,1073902,learnblock2,752.3999999910593,img/planet9_left.png,9,Community 1,NA,TRUE,f,f,NA,NA,NA,59,6,"3,5,1,9,6,12,4,2,13,14,8,7,10,11,15"
15362,commdev-image-keyboard-response,483,1075154,learnblock2,609.5,img/planet5_right.png,5,Community 1,NA,TRUE,j,j,NA,NA,NA,59,6,"3,5,1,9,6,12,4,2,13,14,8,7,10,11,15"
15362,commdev-image-keyboard-response,484,1076405,learnblock2,630.2999999970198,img/planet3_left.png,3,Community 1,NA,TRUE,f,f,NA,NA,NA,59,6,"3,5,1,9,6,12,4,2,13,14,8,7,10,11,15"
15362,commdev-image-keyboard-response,485,1077656,learnblock2,684.3999999910593,img/planet6_right.png,6,Community 1,NA,TRUE,j,j,NA,NA,NA,59,6,"3,5,1,9,6,12,4,2,13,14,8,7,10,11,15"
15362,commdev-image-keyboard-response,486,1078908,learnblock2,683.9000000059605,img/planet1_left.png,1,Community 1,NA,TRUE,f,f,NA,NA,NA,59,6,"3,5,1,9,6,12,4,2,13,14,8,7,10,11,15"
15362,commdev-image-keyboard-response,487,1080158,learnblock2,597.2000000029802,img/planet5_right.png,5,Community 1,NA,TRUE,j,j,NA,NA,NA,59,6,"3,5,1,9,6,12,4,2,13,14,8,7,10,11,15"
15362,commdev-image-keyboard-response,488,1081410,learnblock2,715.5,img/planet3_left.png,3,Community 1,NA,TRUE,f,f,NA,NA,NA,59,6,"3,5,1,9,6,12,4,2,13,14,8,7,10,11,15"
15362,commdev-image-keyboard-response,489,1082661,learnblock2,839.1000000089407,img/planet6_right.png,6,Community 1,NA,TRUE,j,j,NA,NA,NA,59,6,"3,5,1,9,6,12,4,2,13,14,8,7,10,11,15"
15362,commdev-image-keyboard-response,490,1083912,learnblock2,594.3999999910593,img/planet5_left.png,5,Community 1,NA,TRUE,f,f,NA,NA,NA,59,6,"3,5,1,9,6,12,4,2,13,14,8,7,10,11,15"
15362,commdev-image-keyboard-response,491,1085163,learnblock2,571,img/planet3_left.png,3,Community 1,NA,TRUE,f,f,NA,NA,NA,59,6,"3,5,1,9,6,12,4,2,13,14,8,7,10,11,15"
15362,commdev-image-keyboard-response,492,1086415,learnblock2,580.4000000059605,img/planet6_right.png,6,Community 1,NA,TRUE,j,j,NA,NA,NA,59,6,"3,5,1,9,6,12,4,2,13,14,8,7,10,11,15"
15362,commdev-image-keyboard-response,493,1087665,learnblock2,597.8999999910593,img/planet1_left.png,1,Community 1,NA,TRUE,f,f,NA,NA,NA,59,6,"3,5,1,9,6,12,4,2,13,14,8,7,10,11,15"
15362,commdev-image-keyboard-response,494,1088916,learnblock2,635.2000000029802,img/planet5_right.png,5,Community 1,NA,TRUE,j,j,NA,NA,NA,59,6,"3,5,1,9,6,12,4,2,13,14,8,7,10,11,15"
15362,commdev-image-keyboard-response,495,1090168,learnblock2,614.2999999970198,img/planet6_left.png,6,Community 1,NA,TRUE,f,f,NA,NA,NA,59,6,"3,5,1,9,6,12,4,2,13,14,8,7,10,11,15"
15362,commdev-image-keyboard-response,496,1091419,learnblock2,726.2999999970198,img/planet8_right.png,8,Community 3,NA,TRUE,j,j,NA,NA,NA,59,6,"3,5,1,9,6,12,4,2,13,14,8,7,10,11,15"
15362,commdev-image-keyboard-response,497,1092670,learnblock2,651.5,img/planet11_left.png,11,Community 3,NA,TRUE,f,f,NA,NA,NA,59,6,"3,5,1,9,6,12,4,2,13,14,8,7,10,11,15"
15362,commdev-image-keyboard-response,498,1093922,learnblock2,546,img/planet7_left.png,7,Community 3,NA,TRUE,f,f,NA,NA,NA,59,6,"3,5,1,9,6,12,4,2,13,14,8,7,10,11,15"
15362,commdev-image-keyboard-response,499,1095173,learnblock2,530.7000000029802,img/planet2_right.png,2,Community 2,NA,TRUE,j,j,NA,NA,NA,59,6,"3,5,1,9,6,12,4,2,13,14,8,7,10,11,15"
15362,commdev-image-keyboard-response,500,1096424,learnblock2,650,img/planet7_left.png,7,Community 3,NA,TRUE,f,f,NA,NA,NA,59,6,"3,5,1,9,6,12,4,2,13,14,8,7,10,11,15"
15362,commdev-image-keyboard-response,501,1097675,learnblock2,513.5,img/planet15_right.png,15,Community 3,NA,TRUE,j,j,NA,NA,NA,59,6,"3,5,1,9,6,12,4,2,13,14,8,7,10,11,15"
15362,commdev-image-keyboard-response,502,1098927,learnblock2,502.09999999403954,img/planet7_right.png,7,Community 3,NA,TRUE,j,j,NA,NA,NA,59,6,"3,5,1,9,6,12,4,2,13,14,8,7,10,11,15"
15362,commdev-image-keyboard-response,503,1100179,learnblock2,489.40000000596046,img/planet11_left.png,11,Community 3,NA,TRUE,f,f,NA,NA,NA,59,6,"3,5,1,9,6,12,4,2,13,14,8,7,10,11,15"
15362,commdev-image-keyboard-response,504,1101431,learnblock2,531.5,img/planet10_left.png,10,Community 3,NA,TRUE,f,f,NA,NA,NA,59,6,"3,5,1,9,6,12,4,2,13,14,8,7,10,11,15"
15362,commdev-image-keyboard-response,505,1102681,learnblock2,610.5,img/planet15_right.png,15,Community 3,NA,TRUE,j,j,NA,NA,NA,59,6,"3,5,1,9,6,12,4,2,13,14,8,7,10,11,15"
15362,commdev-image-keyboard-response,506,1103932,learnblock2,496.30000001192093,img/planet11_right.png,11,Community 3,NA,TRUE,j,j,NA,NA,NA,59,6,"3,5,1,9,6,12,4,2,13,14,8,7,10,11,15"
15362,commdev-image-keyboard-response,507,1105184,learnblock2,740.2999999970198,img/planet15_right.png,15,Community 3,NA,TRUE,j,j,NA,NA,NA,59,6,"3,5,1,9,6,12,4,2,13,14,8,7,10,11,15"
15362,commdev-image-keyboard-response,508,1106434,learnblock2,695.8999999910593,img/planet7_right.png,7,Community 3,NA,TRUE,j,j,NA,NA,NA,59,6,"3,5,1,9,6,12,4,2,13,14,8,7,10,11,15"
15362,commdev-image-keyboard-response,509,1107686,learnblock2,435.70000000298023,img/planet2_right.png,2,Community 2,NA,TRUE,j,j,NA,NA,NA,59,6,"3,5,1,9,6,12,4,2,13,14,8,7,10,11,15"
15362,commdev-image-keyboard-response,510,1108937,learnblock2,489.09999999403954,img/planet7_left.png,7,Community 3,NA,TRUE,f,f,NA,NA,NA,59,6,"3,5,1,9,6,12,4,2,13,14,8,7,10,11,15"
15362,commdev-image-keyboard-response,511,1110189,learnblock2,502.20000000298023,img/planet15_left.png,15,Community 3,NA,TRUE,f,f,NA,NA,NA,59,6,"3,5,1,9,6,12,4,2,13,14,8,7,10,11,15"
15362,commdev-image-keyboard-response,512,1111441,learnblock2,544.2999999970198,img/planet7_left.png,7,Community 3,NA,TRUE,f,f,NA,NA,NA,59,6,"3,5,1,9,6,12,4,2,13,14,8,7,10,11,15"
15362,commdev-image-keyboard-response,513,1112691,learnblock2,535.3999999910593,img/planet10_left.png,10,Community 3,NA,TRUE,f,f,NA,NA,NA,59,6,"3,5,1,9,6,12,4,2,13,14,8,7,10,11,15"
15362,commdev-image-keyboard-response,514,1113942,learnblock2,509.20000000298023,img/planet8_right.png,8,Community 3,NA,TRUE,j,j,NA,NA,NA,59,6,"3,5,1,9,6,12,4,2,13,14,8,7,10,11,15"
15362,commdev-image-keyboard-response,515,1115193,learnblock2,567.2999999970198,img/planet15_left.png,15,Community 3,NA,TRUE,f,f,NA,NA,NA,59,6,"3,5,1,9,6,12,4,2,13,14,8,7,10,11,15"
15362,commdev-image-keyboard-response,516,1116445,learnblock2,662.5999999940395,img/planet8_right.png,8,Community 3,NA,TRUE,j,j,NA,NA,NA,59,6,"3,5,1,9,6,12,4,2,13,14,8,7,10,11,15"
15362,commdev-image-keyboard-response,517,1117696,learnblock2,977.6999999880791,img/planet6_right.png,6,Community 1,NA,TRUE,j,j,NA,NA,NA,59,6,"3,5,1,9,6,12,4,2,13,14,8,7,10,11,15"
15362,commdev-image-keyboard-response,518,1118946,learnblock2,579.4000000059605,img/planet3_left.png,3,Community 1,NA,TRUE,f,f,NA,NA,NA,59,6,"3,5,1,9,6,12,4,2,13,14,8,7,10,11,15"
15362,commdev-image-keyboard-response,519,1120197,learnblock2,861.8000000119209,img/planet9_left.png,9,Community 1,NA,TRUE,f,f,NA,NA,NA,59,6,"3,5,1,9,6,12,4,2,13,14,8,7,10,11,15"
15362,commdev-image-keyboard-response,520,1121449,learnblock2,594.4000000059605,img/planet12_left.png,12,Community 2,NA,TRUE,f,f,NA,NA,NA,59,6,"3,5,1,9,6,12,4,2,13,14,8,7,10,11,15"
15362,commdev-image-keyboard-response,521,1122700,learnblock2,515.7999999970198,img/planet4_left.png,4,Community 2,NA,TRUE,f,f,NA,NA,NA,59,6,"3,5,1,9,6,12,4,2,13,14,8,7,10,11,15"
15362,commdev-image-keyboard-response,522,1123951,learnblock2,593.9000000059605,img/planet13_right.png,13,Community 2,NA,TRUE,j,j,NA,NA,NA,59,6,"3,5,1,9,6,12,4,2,13,14,8,7,10,11,15"
15362,commdev-image-keyboard-response,523,1125203,learnblock2,null,img/planet12_right.png,12,Community 2,NA,FALSE,null,j,NA,NA,NA,59,6,"3,5,1,9,6,12,4,2,13,14,8,7,10,11,15"
15362,commdev-image-keyboard-response,524,1126454,learnblock2,49.80000001192093,img/planet14_right.png,14,Community 2,NA,TRUE,j,j,NA,NA,NA,59,6,"3,5,1,9,6,12,4,2,13,14,8,7,10,11,15"
15362,commdev-image-keyboard-response,525,1127706,learnblock2,756.3999999910593,img/planet12_left.png,12,Community 2,NA,TRUE,f,f,NA,NA,NA,59,6,"3,5,1,9,6,12,4,2,13,14,8,7,10,11,15"
15362,commdev-image-keyboard-response,526,1128956,learnblock2,697.5999999940395,img/planet13_left.png,13,Community 2,NA,TRUE,f,f,NA,NA,NA,59,6,"3,5,1,9,6,12,4,2,13,14,8,7,10,11,15"
15362,commdev-image-keyboard-response,527,1130206,learnblock2,584,img/planet4_right.png,4,Community 2,NA,TRUE,j,j,NA,NA,NA,59,6,"3,5,1,9,6,12,4,2,13,14,8,7,10,11,15"
15362,commdev-image-keyboard-response,528,1131459,learnblock2,542.4000000059605,img/planet14_right.png,14,Community 2,NA,TRUE,j,j,NA,NA,NA,59,6,"3,5,1,9,6,12,4,2,13,14,8,7,10,11,15"
15362,commdev-image-keyboard-response,529,1132711,learnblock2,522.7999999970198,img/planet4_right.png,4,Community 2,NA,TRUE,j,j,NA,NA,NA,59,6,"3,5,1,9,6,12,4,2,13,14,8,7,10,11,15"
15362,commdev-image-keyboard-response,530,1133962,learnblock2,468.70000000298023,img/planet2_right.png,2,Community 2,NA,TRUE,j,j,NA,NA,NA,59,6,"3,5,1,9,6,12,4,2,13,14,8,7,10,11,15"
15362,commdev-image-keyboard-response,531,1135213,learnblock2,575.1000000089407,img/planet13_right.png,13,Community 2,NA,TRUE,j,j,NA,NA,NA,59,6,"3,5,1,9,6,12,4,2,13,14,8,7,10,11,15"
15362,commdev-image-keyboard-response,532,1136465,learnblock2,705.2000000029802,img/planet14_right.png,14,Community 2,NA,TRUE,j,j,NA,NA,NA,59,6,"3,5,1,9,6,12,4,2,13,14,8,7,10,11,15"
15362,commdev-image-keyboard-response,533,1137716,learnblock2,724.9000000059605,img/planet4_left.png,4,Community 2,NA,TRUE,f,f,NA,NA,NA,59,6,"3,5,1,9,6,12,4,2,13,14,8,7,10,11,15"
15362,commdev-image-keyboard-response,534,1138967,learnblock2,468.90000000596046,img/planet12_left.png,12,Community 2,NA,TRUE,f,f,NA,NA,NA,59,6,"3,5,1,9,6,12,4,2,13,14,8,7,10,11,15"
15362,commdev-image-keyboard-response,535,1140218,learnblock2,476.29999999701977,img/planet4_left.png,4,Community 2,NA,TRUE,f,f,NA,NA,NA,59,6,"3,5,1,9,6,12,4,2,13,14,8,7,10,11,15"
15362,commdev-image-keyboard-response,536,1141470,learnblock2,574.2999999970198,img/planet14_right.png,14,Community 2,NA,TRUE,j,j,NA,NA,NA,59,6,"3,5,1,9,6,12,4,2,13,14,8,7,10,11,15"
15362,commdev-image-keyboard-response,537,1142721,learnblock2,506,img/planet2_left.png,2,Community 2,NA,TRUE,f,f,NA,NA,NA,59,6,"3,5,1,9,6,12,4,2,13,14,8,7,10,11,15"
15362,commdev-image-keyboard-response,538,1143972,learnblock2,651.7999999970198,img/planet14_right.png,14,Community 2,NA,TRUE,j,j,NA,NA,NA,59,6,"3,5,1,9,6,12,4,2,13,14,8,7,10,11,15"
15362,commdev-image-keyboard-response,539,1145223,learnblock2,542.1999999880791,img/planet2_right.png,2,Community 2,NA,TRUE,j,j,NA,NA,NA,59,6,"3,5,1,9,6,12,4,2,13,14,8,7,10,11,15"
15362,commdev-image-keyboard-response,540,1146474,learnblock2,504,img/planet7_left.png,7,Community 3,NA,TRUE,f,f,NA,NA,NA,59,6,"3,5,1,9,6,12,4,2,13,14,8,7,10,11,15"
15362,commdev-image-keyboard-response,541,1147725,learnblock2,602.0999999940395,img/planet11_left.png,11,Community 3,NA,TRUE,f,f,NA,NA,NA,59,6,"3,5,1,9,6,12,4,2,13,14,8,7,10,11,15"
15362,commdev-image-keyboard-response,542,1148976,learnblock2,586.0999999940395,img/planet15_right.png,15,Community 3,NA,TRUE,j,j,NA,NA,NA,59,6,"3,5,1,9,6,12,4,2,13,14,8,7,10,11,15"
15362,commdev-image-keyboard-response,543,1150227,learnblock2,565.9000000059605,img/planet8_right.png,8,Community 3,NA,TRUE,j,j,NA,NA,NA,59,6,"3,5,1,9,6,12,4,2,13,14,8,7,10,11,15"
15362,commdev-image-keyboard-response,544,1151479,learnblock2,599.8999999910593,img/planet10_right.png,10,Community 3,NA,TRUE,j,j,NA,NA,NA,59,6,"3,5,1,9,6,12,4,2,13,14,8,7,10,11,15"
15362,commdev-image-keyboard-response,545,1152730,learnblock2,573.7999999970198,img/planet7_left.png,7,Community 3,NA,TRUE,f,f,NA,NA,NA,59,6,"3,5,1,9,6,12,4,2,13,14,8,7,10,11,15"
15362,commdev-image-keyboard-response,546,1153982,learnblock2,513.1000000089407,img/planet11_right.png,11,Community 3,NA,TRUE,j,j,NA,NA,NA,59,6,"3,5,1,9,6,12,4,2,13,14,8,7,10,11,15"
15362,commdev-image-keyboard-response,547,1155233,learnblock2,471.6000000089407,img/planet7_right.png,7,Community 3,NA,TRUE,j,j,NA,NA,NA,59,6,"3,5,1,9,6,12,4,2,13,14,8,7,10,11,15"
15362,commdev-image-keyboard-response,548,1156484,learnblock2,571.2999999970198,img/planet11_left.png,11,Community 3,NA,TRUE,f,f,NA,NA,NA,59,6,"3,5,1,9,6,12,4,2,13,14,8,7,10,11,15"
15362,commdev-image-keyboard-response,549,1157734,learnblock2,453.70000000298023,img/planet7_left.png,7,Community 3,NA,TRUE,f,f,NA,NA,NA,59,6,"3,5,1,9,6,12,4,2,13,14,8,7,10,11,15"
15362,commdev-image-keyboard-response,550,1158985,learnblock2,511.29999999701977,img/planet10_right.png,10,Community 3,NA,TRUE,j,j,NA,NA,NA,59,6,"3,5,1,9,6,12,4,2,13,14,8,7,10,11,15"
15362,commdev-image-keyboard-response,551,1160236,learnblock2,595.8999999910593,img/planet11_right.png,11,Community 3,NA,TRUE,j,j,NA,NA,NA,59,6,"3,5,1,9,6,12,4,2,13,14,8,7,10,11,15"
15362,commdev-image-keyboard-response,552,1161487,learnblock2,578.2999999970198,img/planet8_left.png,8,Community 3,NA,TRUE,f,f,NA,NA,NA,59,6,"3,5,1,9,6,12,4,2,13,14,8,7,10,11,15"
15362,commdev-image-keyboard-response,553,1162738,learnblock2,554.7999999970198,img/planet6_left.png,6,Community 1,NA,TRUE,f,f,NA,NA,NA,59,6,"3,5,1,9,6,12,4,2,13,14,8,7,10,11,15"
15362,commdev-image-keyboard-response,554,1163990,learnblock2,512.6999999880791,img/planet1_right.png,1,Community 1,NA,TRUE,j,j,NA,NA,NA,59,6,"3,5,1,9,6,12,4,2,13,14,8,7,10,11,15"
15362,commdev-image-keyboard-response,555,1165241,learnblock2,540.5,img/planet6_left.png,6,Community 1,NA,FALSE,j,f,NA,NA,NA,59,6,"3,5,1,9,6,12,4,2,13,14,8,7,10,11,15"
15362,commdev-image-keyboard-response,556,1166492,learnblock2,621.5999999940395,img/planet5_left.png,5,Community 1,NA,TRUE,f,f,NA,NA,NA,59,6,"3,5,1,9,6,12,4,2,13,14,8,7,10,11,15"
15362,commdev-image-keyboard-response,557,1167743,learnblock2,694.9000000059605,img/planet3_left.png,3,Community 1,NA,TRUE,f,f,NA,NA,NA,59,6,"3,5,1,9,6,12,4,2,13,14,8,7,10,11,15"
15362,commdev-image-keyboard-response,558,1168995,learnblock2,505.20000000298023,img/planet5_left.png,5,Community 1,NA,TRUE,f,f,NA,NA,NA,59,6,"3,5,1,9,6,12,4,2,13,14,8,7,10,11,15"
15362,commdev-image-keyboard-response,559,1170246,learnblock2,541.4000000059605,img/planet3_right.png,3,Community 1,NA,TRUE,j,j,NA,NA,NA,59,6,"3,5,1,9,6,12,4,2,13,14,8,7,10,11,15"
15362,commdev-image-keyboard-response,560,1171497,learnblock2,582.3999999910593,img/planet5_right.png,5,Community 1,NA,TRUE,j,j,NA,NA,NA,59,6,"3,5,1,9,6,12,4,2,13,14,8,7,10,11,15"
15362,commdev-image-keyboard-response,561,1172748,learnblock2,593.5,img/planet6_right.png,6,Community 1,NA,TRUE,j,j,NA,NA,NA,59,6,"3,5,1,9,6,12,4,2,13,14,8,7,10,11,15"
15362,commdev-image-keyboard-response,562,1173999,learnblock2,557.5,img/planet1_left.png,1,Community 1,NA,TRUE,f,f,NA,NA,NA,59,6,"3,5,1,9,6,12,4,2,13,14,8,7,10,11,15"
15362,commdev-image-keyboard-response,563,1175251,learnblock2,650.3999999910593,img/planet5_left.png,5,Community 1,NA,TRUE,f,f,NA,NA,NA,59,6,"3,5,1,9,6,12,4,2,13,14,8,7,10,11,15"
15362,commdev-image-keyboard-response,564,1176502,learnblock2,555.0999999940395,img/planet6_right.png,6,Community 1,NA,TRUE,j,j,NA,NA,NA,59,6,"3,5,1,9,6,12,4,2,13,14,8,7,10,11,15"
15362,commdev-image-keyboard-response,565,1177754,learnblock2,555.7999999970198,img/planet3_left.png,3,Community 1,NA,TRUE,f,f,NA,NA,NA,59,6,"3,5,1,9,6,12,4,2,13,14,8,7,10,11,15"
15362,commdev-image-keyboard-response,566,1179004,learnblock2,460.20000000298023,img/planet9_left.png,9,Community 1,NA,TRUE,f,f,NA,NA,NA,59,6,"3,5,1,9,6,12,4,2,13,14,8,7,10,11,15"
15362,commdev-image-keyboard-response,567,1180256,learnblock2,453.40000000596046,img/planet1_left.png,1,Community 1,NA,TRUE,f,f,NA,NA,NA,59,6,"3,5,1,9,6,12,4,2,13,14,8,7,10,11,15"
15362,commdev-image-keyboard-response,568,1181506,learnblock2,456.70000000298023,img/planet6_right.png,6,Community 1,NA,TRUE,j,j,NA,NA,NA,59,6,"3,5,1,9,6,12,4,2,13,14,8,7,10,11,15"
15362,commdev-image-keyboard-response,569,1182757,learnblock2,691.7000000029802,img/planet1_left.png,1,Community 1,NA,TRUE,f,f,NA,NA,NA,59,6,"3,5,1,9,6,12,4,2,13,14,8,7,10,11,15"
15362,commdev-image-keyboard-response,570,1184009,learnblock2,557.4000000059605,img/planet5_right.png,5,Community 1,NA,TRUE,j,j,NA,NA,NA,59,6,"3,5,1,9,6,12,4,2,13,14,8,7,10,11,15"
15362,commdev-image-keyboard-response,571,1185260,learnblock2,593.0999999940395,img/planet3_right.png,3,Community 1,NA,TRUE,j,j,NA,NA,NA,59,6,"3,5,1,9,6,12,4,2,13,14,8,7,10,11,15"
15362,commdev-image-keyboard-response,572,1186512,learnblock2,459.70000000298023,img/planet6_right.png,6,Community 1,NA,TRUE,j,j,NA,NA,NA,59,6,"3,5,1,9,6,12,4,2,13,14,8,7,10,11,15"
15362,commdev-image-keyboard-response,573,1187763,learnblock2,548,img/planet8_left.png,8,Community 3,NA,TRUE,f,f,NA,NA,NA,59,6,"3,5,1,9,6,12,4,2,13,14,8,7,10,11,15"
15362,commdev-image-keyboard-response,574,1189015,learnblock2,516.5,img/planet6_right.png,6,Community 1,NA,TRUE,j,j,NA,NA,NA,59,6,"3,5,1,9,6,12,4,2,13,14,8,7,10,11,15"
15362,commdev-image-keyboard-response,575,1190266,learnblock2,722.5,img/planet5_right.png,5,Community 1,NA,TRUE,j,j,NA,NA,NA,59,6,"3,5,1,9,6,12,4,2,13,14,8,7,10,11,15"
15362,commdev-image-keyboard-response,576,1191517,learnblock2,571.7999999970198,img/planet9_right.png,9,Community 1,NA,TRUE,j,j,NA,NA,NA,59,6,"3,5,1,9,6,12,4,2,13,14,8,7,10,11,15"
15362,commdev-image-keyboard-response,577,1192767,learnblock2,580.9000000059605,img/planet3_right.png,3,Community 1,NA,TRUE,j,j,NA,NA,NA,59,6,"3,5,1,9,6,12,4,2,13,14,8,7,10,11,15"
15362,commdev-image-keyboard-response,578,1194018,learnblock2,558.9000000059605,img/planet6_left.png,6,Community 1,NA,TRUE,f,f,NA,NA,NA,59,6,"3,5,1,9,6,12,4,2,13,14,8,7,10,11,15"
15362,commdev-image-keyboard-response,579,1195269,learnblock2,577.8999999910593,img/planet5_left.png,5,Community 1,NA,TRUE,f,f,NA,NA,NA,59,6,"3,5,1,9,6,12,4,2,13,14,8,7,10,11,15"
15362,commdev-image-keyboard-response,580,1196520,learnblock2,623.2999999970198,img/planet9_right.png,9,Community 1,NA,TRUE,j,j,NA,NA,NA,59,6,"3,5,1,9,6,12,4,2,13,14,8,7,10,11,15"
15362,commdev-image-keyboard-response,581,1197770,learnblock2,641.5,img/planet12_left.png,12,Community 2,NA,TRUE,f,f,NA,NA,NA,59,6,"3,5,1,9,6,12,4,2,13,14,8,7,10,11,15"
15362,commdev-image-keyboard-response,582,1199022,learnblock2,678.7000000029802,img/planet4_right.png,4,Community 2,NA,TRUE,j,j,NA,NA,NA,59,6,"3,5,1,9,6,12,4,2,13,14,8,7,10,11,15"
