subject_id,trial_type,trial_index,time_elapsed,block,rt,stimulus,planet,community,response,correct,key_press,learning_correct_response,parse,init_locations,final_locations,browser_interactions,num_comp,planet_map
15035,commdev-instructions,7,34032,NA,1418.5,"<p>In this game, you will be shown a 3x3 grid of patterns.</p> <p>The last one in the bottom right-hand corner, <strong>will be missing:</strong></p> <div style='width: 700px;'><div style='float: top;'><img style='width: 200px;' src='practice/p1_M1.png'></img><p class='small'>You need to select<strong> which of the four possible patterns </strong>along the bottom<strong> fits into the gap:</strong></p></div><div style='float: top;'><img style='width: 300px;' src='practice/p1_T1.png'></img></div><br>",NA,NA,NA,NA,NA,NA,NA,NA,NA,1,7,"5,6,12,9,1,11,2,13,7,4,15,3,8,10,14"
15035,commdev-instructions,8,56487,NA,1185.2000002861023,"<p>Try to be as fast and as accurate as you can be.</p> <p>If you cannot solve the puzzle then you should guess - you will not be penalised for an incorrect answer.</p> <p>The task contains a shuffled mix of easy, medium and hard puzzles.</p> <p>You will have <strong>30 seconds</strong> to complete each puzzle.</p><br>",NA,NA,NA,NA,NA,NA,NA,NA,NA,1,7,"5,6,12,9,1,11,2,13,7,4,15,3,8,10,14"
15035,commdev-instructions,15,84263,NA,3060.9000000953674,<p><strong>Success!</strong></p> <p>You seem to be getting the hang of this...</p> <p>Let's move on to the real trials.</p><br>,NA,NA,NA,NA,NA,NA,NA,NA,NA,1,7,"5,6,12,9,1,11,2,13,7,4,15,3,8,10,14"
15035,commdev-instructions,83,578999,NA,2220.8999996185303,"<p>In this game, you are a scientist on board a space shuttle. </p><p> On each mission, you will visit planets all across the universe.</p><img src=""img/controlroom.jpg"" width=300vw>",NA,NA,NA,NA,NA,NA,NA,NA,NA,1,7,"5,6,12,9,1,11,2,13,7,4,15,3,8,10,14"
15035,commdev-instructions,84,583064,NA,1995,"<p>Here are a few planets you might see:</p><img src=""img/practice1.png"" width=200vw><img src=""img/practice2.png"" width=200vw><img src=""img/practice3.png"" width=200vw>",NA,NA,NA,NA,NA,NA,NA,NA,NA,1,7,"5,6,12,9,1,11,2,13,7,4,15,3,8,10,14"
15035,commdev-instructions,85,591488,NA,1018.6999998092651,"<p>Your job as a scientist is to record which direction the winds are moving on each planet.</p><p>There are two types of wind directions:</p><img src=""img/practice1_left.png"" width=200vw><img src=""img/practice1_right.png"" width=200vw>",NA,NA,NA,NA,NA,NA,NA,NA,NA,1,7,"5,6,12,9,1,11,2,13,7,4,15,3,8,10,14"
15035,commdev-instructions,86,597719,NA,1350.4000000953674,"<p>If the winds are moving this way, press the letter <strong>F</strong> on the keyboard as fast as you can.</p><img src=""img/leftwind.png"" width=250vw>",NA,NA,NA,NA,NA,NA,NA,NA,NA,1,7,"5,6,12,9,1,11,2,13,7,4,15,3,8,10,14"
15035,commdev-instructions,87,603255,NA,1036.8000001907349,"<p>If the winds are moving this way, press the letter <strong>J</strong> on the keyboard as fast as you can.</p><img src=""img/rightwind.png"" width=350vw>",NA,NA,NA,NA,NA,NA,NA,NA,NA,1,7,"5,6,12,9,1,11,2,13,7,4,15,3,8,10,14"
15035,commdev-instructions,88,609584,NA,1905.5999999046326,<p>You will have 1 second to respond. Try to respond before the time runs out!,NA,NA,NA,NA,NA,NA,NA,NA,NA,1,7,"5,6,12,9,1,11,2,13,7,4,15,3,8,10,14"
15035,commdev-instructions,89,615959,NA,940.2999997138977,<p>The planets you will visit will look different from each other.</p><p>You should respond <strong>only</strong> based on wind direction.,NA,NA,NA,NA,NA,NA,NA,NA,NA,1,7,"5,6,12,9,1,11,2,13,7,4,15,3,8,10,14"
15035,commdev-instructions,90,622000,NA,871.5999999046326,"<p> Ready to start the practice round? </p><p> Remember, press <strong>F</strong> or <strong>J</strong> depending on the wind direction.<br><img src=""img/categorize_planet_example.png""",NA,NA,NA,NA,NA,NA,NA,NA,NA,1,7,"5,6,12,9,1,11,2,13,7,4,15,3,8,10,14"
15035,commdev-instructions,102,673079,NA,2527.4000000953674,"<p>Great, now try a short practice mission. </p><p> This time, you will have 1 second to respond and you won't know whether you pressed the right or wrong key for each planet.</p>",NA,NA,NA,NA,NA,NA,NA,NA,NA,1,7,"5,6,12,9,1,11,2,13,7,4,15,3,8,10,14"
15035,commdev-image-keyboard-response,103,674439,practice,733.1999998092651,img/practice3_left.png,NA,Number not found in mappings,NA,TRUE,f,f,NA,NA,NA,1,7,"5,6,12,9,1,11,2,13,7,4,15,3,8,10,14"
15035,commdev-image-keyboard-response,104,675701,practice,688.1000003814697,img/practice2_right.png,NA,Number not found in mappings,NA,TRUE,j,j,NA,NA,NA,1,7,"5,6,12,9,1,11,2,13,7,4,15,3,8,10,14"
15035,commdev-image-keyboard-response,105,676960,practice,633.3000001907349,img/practice3_left.png,NA,Number not found in mappings,NA,TRUE,f,f,NA,NA,NA,1,7,"5,6,12,9,1,11,2,13,7,4,15,3,8,10,14"
15035,commdev-image-keyboard-response,106,678218,practice,494.90000009536743,img/practice4_right.png,NA,Number not found in mappings,NA,TRUE,j,j,NA,NA,NA,1,7,"5,6,12,9,1,11,2,13,7,4,15,3,8,10,14"
15035,commdev-image-keyboard-response,107,679478,practice,581,img/practice2_right.png,NA,Number not found in mappings,NA,TRUE,j,j,NA,NA,NA,1,7,"5,6,12,9,1,11,2,13,7,4,15,3,8,10,14"
15035,commdev-image-keyboard-response,108,680737,practice,513.1999998092651,img/practice4_left.png,NA,Number not found in mappings,NA,TRUE,f,f,NA,NA,NA,1,7,"5,6,12,9,1,11,2,13,7,4,15,3,8,10,14"
15035,commdev-image-keyboard-response,109,681998,practice,613.5999999046326,img/practice3_right.png,NA,Number not found in mappings,NA,TRUE,j,j,NA,NA,NA,1,7,"5,6,12,9,1,11,2,13,7,4,15,3,8,10,14"
15035,commdev-image-keyboard-response,110,683263,practice,712.8000001907349,img/practice2_right.png,NA,Number not found in mappings,NA,TRUE,j,j,NA,NA,NA,1,7,"5,6,12,9,1,11,2,13,7,4,15,3,8,10,14"
15035,commdev-instructions,111,693591,NA,779.1999998092651,"<p>Great job with the practice round.</p><p>During real missions, you won't know whether you pressed the right or wrong key for each planet.</p><p>But between missions, we will tell you how you did overall.</p>",NA,NA,NA,NA,NA,NA,NA,NA,NA,1,7,"5,6,12,9,1,11,2,13,7,4,15,3,8,10,14"
15035,commdev-instructions,112,703671,NA,1839.7999997138977,<p>Try your best! You will be paid a bonus based on how many correct responses you make!</p><p>Responses that are too slow will not count toward your bonus.</p>,NA,NA,NA,NA,NA,NA,NA,NA,NA,1,7,"5,6,12,9,1,11,2,13,7,4,15,3,8,10,14"
15035,commdev-instructions,113,711399,NA,1517.5,"<p>You are almost ready to start the real game.</p><p> First, we are going to ask you some questions about how the game works.</p>",NA,NA,NA,NA,NA,NA,NA,NA,NA,1,7,"5,6,12,9,1,11,2,13,7,4,15,3,8,10,14"
15035,commdev-instructions,124,800128,NA,2164.7999997138977,"<p> Nice work! It is now time to start the real game.<p></p>You will go on two missions to record wind directions of different planets.<p></p>Each one will take about 5 minutes. You will get to take a break between missions.<p><p> Remember, press <strong>F</strong> or <strong>J</strong> depending on the wind direction. Good luck!<br><img src=""img/categorize_planet_example.png""",NA,NA,NA,NA,NA,NA,NA,NA,NA,1,7,"5,6,12,9,1,11,2,13,7,4,15,3,8,10,14"
15035,commdev-image-keyboard-response,126,802496,learnblock1,1037.7999997138977,img/planet11_right.png,11,Community 2,NA,TRUE,j,j,NA,NA,NA,1,7,"5,6,12,9,1,11,2,13,7,4,15,3,8,10,14"
15035,commdev-image-keyboard-response,127,803755,learnblock1,671.5999999046326,img/planet9_left.png,9,Community 1,NA,TRUE,f,f,NA,NA,NA,1,7,"5,6,12,9,1,11,2,13,7,4,15,3,8,10,14"
15035,commdev-image-keyboard-response,128,805016,learnblock1,null,img/planet12_left.png,12,Community 1,NA,FALSE,null,f,NA,NA,NA,1,7,"5,6,12,9,1,11,2,13,7,4,15,3,8,10,14"
15035,commdev-image-keyboard-response,129,806274,learnblock1,63.59999990463257,img/planet5_left.png,5,Community 1,NA,TRUE,f,f,NA,NA,NA,1,7,"5,6,12,9,1,11,2,13,7,4,15,3,8,10,14"
15035,commdev-image-keyboard-response,130,807528,learnblock1,709.0999999046326,img/planet6_left.png,6,Community 1,NA,TRUE,f,f,NA,NA,NA,1,7,"5,6,12,9,1,11,2,13,7,4,15,3,8,10,14"
15035,commdev-image-keyboard-response,131,808788,learnblock1,742.5999999046326,img/planet5_left.png,5,Community 1,NA,TRUE,f,f,NA,NA,NA,1,7,"5,6,12,9,1,11,2,13,7,4,15,3,8,10,14"
15035,commdev-image-keyboard-response,132,810052,learnblock1,635.5999999046326,img/planet1_right.png,1,Community 1,NA,TRUE,j,j,NA,NA,NA,1,7,"5,6,12,9,1,11,2,13,7,4,15,3,8,10,14"
15035,commdev-image-keyboard-response,133,811313,learnblock1,619.9000000953674,img/planet5_left.png,5,Community 1,NA,TRUE,f,f,NA,NA,NA,1,7,"5,6,12,9,1,11,2,13,7,4,15,3,8,10,14"
15035,commdev-image-keyboard-response,134,812574,learnblock1,590.6999998092651,img/planet9_left.png,9,Community 1,NA,TRUE,f,f,NA,NA,NA,1,7,"5,6,12,9,1,11,2,13,7,4,15,3,8,10,14"
15035,commdev-image-keyboard-response,135,813835,learnblock1,610,img/planet11_right.png,11,Community 2,NA,TRUE,j,j,NA,NA,NA,1,7,"5,6,12,9,1,11,2,13,7,4,15,3,8,10,14"
15035,commdev-image-keyboard-response,136,815094,learnblock1,676.5999999046326,img/planet9_right.png,9,Community 1,NA,TRUE,j,j,NA,NA,NA,1,7,"5,6,12,9,1,11,2,13,7,4,15,3,8,10,14"
15035,commdev-image-keyboard-response,137,816354,learnblock1,657.4000000953674,img/planet5_right.png,5,Community 1,NA,TRUE,j,j,NA,NA,NA,1,7,"5,6,12,9,1,11,2,13,7,4,15,3,8,10,14"
15035,commdev-image-keyboard-response,138,817616,learnblock1,813.8999996185303,img/planet9_left.png,9,Community 1,NA,TRUE,f,f,NA,NA,NA,1,7,"5,6,12,9,1,11,2,13,7,4,15,3,8,10,14"
15035,commdev-image-keyboard-response,139,818874,learnblock1,719.6000003814697,img/planet11_left.png,11,Community 2,NA,TRUE,f,f,NA,NA,NA,1,7,"5,6,12,9,1,11,2,13,7,4,15,3,8,10,14"
15035,commdev-image-keyboard-response,140,820135,learnblock1,613,img/planet2_left.png,2,Community 2,NA,TRUE,f,f,NA,NA,NA,1,7,"5,6,12,9,1,11,2,13,7,4,15,3,8,10,14"
15035,commdev-image-keyboard-response,141,821394,learnblock1,593.0999999046326,img/planet11_right.png,11,Community 2,NA,TRUE,j,j,NA,NA,NA,1,7,"5,6,12,9,1,11,2,13,7,4,15,3,8,10,14"
15035,commdev-image-keyboard-response,142,822653,learnblock1,684.6000003814697,img/planet4_right.png,4,Community 2,NA,TRUE,j,j,NA,NA,NA,1,7,"5,6,12,9,1,11,2,13,7,4,15,3,8,10,14"
15035,commdev-image-keyboard-response,143,823917,learnblock1,642.5,img/planet13_left.png,13,Community 2,NA,TRUE,f,f,NA,NA,NA,1,7,"5,6,12,9,1,11,2,13,7,4,15,3,8,10,14"
15035,commdev-image-keyboard-response,144,825178,learnblock1,602.8999996185303,img/planet2_right.png,2,Community 2,NA,TRUE,j,j,NA,NA,NA,1,7,"5,6,12,9,1,11,2,13,7,4,15,3,8,10,14"
15035,commdev-image-keyboard-response,145,826439,learnblock1,766.6999998092651,img/planet4_left.png,4,Community 2,NA,TRUE,f,f,NA,NA,NA,1,7,"5,6,12,9,1,11,2,13,7,4,15,3,8,10,14"
15035,commdev-image-keyboard-response,146,827698,learnblock1,696,img/planet11_right.png,11,Community 2,NA,TRUE,j,j,NA,NA,NA,1,7,"5,6,12,9,1,11,2,13,7,4,15,3,8,10,14"
15035,commdev-image-keyboard-response,147,828951,learnblock1,796.2000002861023,img/planet4_left.png,4,Community 2,NA,TRUE,f,f,NA,NA,NA,1,7,"5,6,12,9,1,11,2,13,7,4,15,3,8,10,14"
15035,commdev-image-keyboard-response,148,830203,learnblock1,616.9000000953674,img/planet2_left.png,2,Community 2,NA,TRUE,f,f,NA,NA,NA,1,7,"5,6,12,9,1,11,2,13,7,4,15,3,8,10,14"
15035,commdev-image-keyboard-response,149,831454,learnblock1,516.7999997138977,img/planet11_left.png,11,Community 2,NA,TRUE,f,f,NA,NA,NA,1,7,"5,6,12,9,1,11,2,13,7,4,15,3,8,10,14"
15035,commdev-image-keyboard-response,150,832706,learnblock1,641.6999998092651,img/planet7_right.png,7,Community 2,NA,TRUE,j,j,NA,NA,NA,1,7,"5,6,12,9,1,11,2,13,7,4,15,3,8,10,14"
15035,commdev-image-keyboard-response,151,833957,learnblock1,549.7000002861023,img/planet2_right.png,2,Community 2,NA,TRUE,j,j,NA,NA,NA,1,7,"5,6,12,9,1,11,2,13,7,4,15,3,8,10,14"
15035,commdev-image-keyboard-response,152,835208,learnblock1,738.4000000953674,img/planet4_right.png,4,Community 2,NA,TRUE,j,j,NA,NA,NA,1,7,"5,6,12,9,1,11,2,13,7,4,15,3,8,10,14"
15035,commdev-image-keyboard-response,153,836459,learnblock1,615.2999997138977,img/planet11_right.png,11,Community 2,NA,TRUE,j,j,NA,NA,NA,1,7,"5,6,12,9,1,11,2,13,7,4,15,3,8,10,14"
15035,commdev-image-keyboard-response,154,837711,learnblock1,628.1000003814697,img/planet7_right.png,7,Community 2,NA,TRUE,j,j,NA,NA,NA,1,7,"5,6,12,9,1,11,2,13,7,4,15,3,8,10,14"
15035,commdev-image-keyboard-response,155,838964,learnblock1,552.7000002861023,img/planet2_left.png,2,Community 2,NA,TRUE,f,f,NA,NA,NA,1,7,"5,6,12,9,1,11,2,13,7,4,15,3,8,10,14"
15035,commdev-image-keyboard-response,156,840219,learnblock1,668.0999999046326,img/planet11_right.png,11,Community 2,NA,TRUE,j,j,NA,NA,NA,1,7,"5,6,12,9,1,11,2,13,7,4,15,3,8,10,14"
15035,commdev-image-keyboard-response,157,841470,learnblock1,740.4000000953674,img/planet4_left.png,4,Community 2,NA,FALSE,j,f,NA,NA,NA,1,7,"5,6,12,9,1,11,2,13,7,4,15,3,8,10,14"
15035,commdev-image-keyboard-response,158,842723,learnblock1,697.4000000953674,img/planet7_left.png,7,Community 2,NA,TRUE,f,f,NA,NA,NA,1,7,"5,6,12,9,1,11,2,13,7,4,15,3,8,10,14"
15035,commdev-image-keyboard-response,159,843974,learnblock1,644.9000000953674,img/planet11_left.png,11,Community 2,NA,TRUE,f,f,NA,NA,NA,1,7,"5,6,12,9,1,11,2,13,7,4,15,3,8,10,14"
15035,commdev-image-keyboard-response,160,845226,learnblock1,617.0999999046326,img/planet4_left.png,4,Community 2,NA,TRUE,f,f,NA,NA,NA,1,7,"5,6,12,9,1,11,2,13,7,4,15,3,8,10,14"
15035,commdev-image-keyboard-response,161,846478,learnblock1,541.6999998092651,img/planet7_left.png,7,Community 2,NA,TRUE,f,f,NA,NA,NA,1,7,"5,6,12,9,1,11,2,13,7,4,15,3,8,10,14"
15035,commdev-image-keyboard-response,162,847729,learnblock1,585.8999996185303,img/planet11_left.png,11,Community 2,NA,TRUE,f,f,NA,NA,NA,1,7,"5,6,12,9,1,11,2,13,7,4,15,3,8,10,14"
15035,commdev-image-keyboard-response,163,848980,learnblock1,542.8999996185303,img/planet9_right.png,9,Community 1,NA,TRUE,j,j,NA,NA,NA,1,7,"5,6,12,9,1,11,2,13,7,4,15,3,8,10,14"
15035,commdev-image-keyboard-response,164,850232,learnblock1,763.9000000953674,img/planet11_right.png,11,Community 2,NA,TRUE,j,j,NA,NA,NA,1,7,"5,6,12,9,1,11,2,13,7,4,15,3,8,10,14"
15035,commdev-image-keyboard-response,165,851484,learnblock1,647.6999998092651,img/planet2_left.png,2,Community 2,NA,TRUE,f,f,NA,NA,NA,1,7,"5,6,12,9,1,11,2,13,7,4,15,3,8,10,14"
15035,commdev-image-keyboard-response,166,852735,learnblock1,563,img/planet7_right.png,7,Community 2,NA,TRUE,j,j,NA,NA,NA,1,7,"5,6,12,9,1,11,2,13,7,4,15,3,8,10,14"
15035,commdev-image-keyboard-response,167,853987,learnblock1,832.0999999046326,img/planet4_right.png,4,Community 2,NA,TRUE,j,j,NA,NA,NA,1,7,"5,6,12,9,1,11,2,13,7,4,15,3,8,10,14"
15035,commdev-image-keyboard-response,168,855238,learnblock1,588.6999998092651,img/planet2_left.png,2,Community 2,NA,TRUE,f,f,NA,NA,NA,1,7,"5,6,12,9,1,11,2,13,7,4,15,3,8,10,14"
15035,commdev-image-keyboard-response,169,856489,learnblock1,584.8000001907349,img/planet7_right.png,7,Community 2,NA,TRUE,j,j,NA,NA,NA,1,7,"5,6,12,9,1,11,2,13,7,4,15,3,8,10,14"
15035,commdev-image-keyboard-response,170,857742,learnblock1,605.5999999046326,img/planet2_left.png,2,Community 2,NA,TRUE,f,f,NA,NA,NA,1,7,"5,6,12,9,1,11,2,13,7,4,15,3,8,10,14"
15035,commdev-image-keyboard-response,171,858995,learnblock1,793.3999996185303,img/planet4_left.png,4,Community 2,NA,TRUE,f,f,NA,NA,NA,1,7,"5,6,12,9,1,11,2,13,7,4,15,3,8,10,14"
15035,commdev-image-keyboard-response,172,860246,learnblock1,660.5999999046326,img/planet7_right.png,7,Community 2,NA,TRUE,j,j,NA,NA,NA,1,7,"5,6,12,9,1,11,2,13,7,4,15,3,8,10,14"
15035,commdev-image-keyboard-response,173,861498,learnblock1,585,img/planet2_left.png,2,Community 2,NA,TRUE,f,f,NA,NA,NA,1,7,"5,6,12,9,1,11,2,13,7,4,15,3,8,10,14"
15035,commdev-image-keyboard-response,174,862749,learnblock1,557.6999998092651,img/planet7_right.png,7,Community 2,NA,TRUE,j,j,NA,NA,NA,1,7,"5,6,12,9,1,11,2,13,7,4,15,3,8,10,14"
15035,commdev-image-keyboard-response,175,864008,learnblock1,682.5999999046326,img/planet13_right.png,13,Community 2,NA,TRUE,j,j,NA,NA,NA,1,7,"5,6,12,9,1,11,2,13,7,4,15,3,8,10,14"
15035,commdev-image-keyboard-response,176,865261,learnblock1,647.9000000953674,img/planet7_right.png,7,Community 2,NA,TRUE,j,j,NA,NA,NA,1,7,"5,6,12,9,1,11,2,13,7,4,15,3,8,10,14"
15035,commdev-image-keyboard-response,177,866513,learnblock1,634.7999997138977,img/planet13_left.png,13,Community 2,NA,TRUE,f,f,NA,NA,NA,1,7,"5,6,12,9,1,11,2,13,7,4,15,3,8,10,14"
15035,commdev-image-keyboard-response,178,867765,learnblock1,606.0999999046326,img/planet4_right.png,4,Community 2,NA,TRUE,j,j,NA,NA,NA,1,7,"5,6,12,9,1,11,2,13,7,4,15,3,8,10,14"
15035,commdev-image-keyboard-response,179,869017,learnblock1,546.3000001907349,img/planet11_right.png,11,Community 2,NA,TRUE,j,j,NA,NA,NA,1,7,"5,6,12,9,1,11,2,13,7,4,15,3,8,10,14"
15035,commdev-image-keyboard-response,180,870268,learnblock1,558.6999998092651,img/planet9_left.png,9,Community 1,NA,TRUE,f,f,NA,NA,NA,1,7,"5,6,12,9,1,11,2,13,7,4,15,3,8,10,14"
15035,commdev-image-keyboard-response,181,871519,learnblock1,563.7999997138977,img/planet12_right.png,12,Community 1,NA,TRUE,j,j,NA,NA,NA,1,7,"5,6,12,9,1,11,2,13,7,4,15,3,8,10,14"
15035,commdev-image-keyboard-response,182,872770,learnblock1,656.0999999046326,img/planet1_left.png,1,Community 1,NA,TRUE,f,f,NA,NA,NA,1,7,"5,6,12,9,1,11,2,13,7,4,15,3,8,10,14"
15035,commdev-image-keyboard-response,183,874022,learnblock1,645.0999999046326,img/planet15_right.png,15,Community 3,NA,TRUE,j,j,NA,NA,NA,1,7,"5,6,12,9,1,11,2,13,7,4,15,3,8,10,14"
15035,commdev-image-keyboard-response,184,875274,learnblock1,578,img/planet14_left.png,14,Community 3,NA,TRUE,f,f,NA,NA,NA,1,7,"5,6,12,9,1,11,2,13,7,4,15,3,8,10,14"
15035,commdev-image-keyboard-response,185,876526,learnblock1,694,img/planet3_right.png,3,Community 3,NA,TRUE,j,j,NA,NA,NA,1,7,"5,6,12,9,1,11,2,13,7,4,15,3,8,10,14"
15035,commdev-image-keyboard-response,186,877778,learnblock1,657.0999999046326,img/planet8_right.png,8,Community 3,NA,TRUE,j,j,NA,NA,NA,1,7,"5,6,12,9,1,11,2,13,7,4,15,3,8,10,14"
15035,commdev-image-keyboard-response,187,879030,learnblock1,501.09999990463257,img/planet10_right.png,10,Community 3,NA,TRUE,j,j,NA,NA,NA,1,7,"5,6,12,9,1,11,2,13,7,4,15,3,8,10,14"
15035,commdev-image-keyboard-response,188,880283,learnblock1,577.0999999046326,img/planet3_right.png,3,Community 3,NA,TRUE,j,j,NA,NA,NA,1,7,"5,6,12,9,1,11,2,13,7,4,15,3,8,10,14"
15035,commdev-image-keyboard-response,189,881535,learnblock1,668.0999999046326,img/planet8_left.png,8,Community 3,NA,TRUE,f,f,NA,NA,NA,1,7,"5,6,12,9,1,11,2,13,7,4,15,3,8,10,14"
15035,commdev-image-keyboard-response,190,882786,learnblock1,776.5999999046326,img/planet10_left.png,10,Community 3,NA,TRUE,f,f,NA,NA,NA,1,7,"5,6,12,9,1,11,2,13,7,4,15,3,8,10,14"
15035,commdev-image-keyboard-response,191,884038,learnblock1,749.1999998092651,img/planet3_left.png,3,Community 3,NA,TRUE,f,f,NA,NA,NA,1,7,"5,6,12,9,1,11,2,13,7,4,15,3,8,10,14"
15035,commdev-image-keyboard-response,192,885289,learnblock1,497.7999997138977,img/planet10_left.png,10,Community 3,NA,TRUE,f,f,NA,NA,NA,1,7,"5,6,12,9,1,11,2,13,7,4,15,3,8,10,14"
15035,commdev-image-keyboard-response,193,886540,learnblock1,670.7000002861023,img/planet8_right.png,8,Community 3,NA,TRUE,j,j,NA,NA,NA,1,7,"5,6,12,9,1,11,2,13,7,4,15,3,8,10,14"
15035,commdev-image-keyboard-response,194,887791,learnblock1,1179.5,img/planet14_left.png,14,Community 3,NA,TRUE,f,f,NA,NA,NA,1,7,"5,6,12,9,1,11,2,13,7,4,15,3,8,10,14"
15035,commdev-image-keyboard-response,195,889043,learnblock1,681.3999996185303,img/planet8_left.png,8,Community 3,NA,TRUE,f,f,NA,NA,NA,1,7,"5,6,12,9,1,11,2,13,7,4,15,3,8,10,14"
15035,commdev-image-keyboard-response,196,890300,learnblock1,675.9000000953674,img/planet3_left.png,3,Community 3,NA,TRUE,f,f,NA,NA,NA,1,7,"5,6,12,9,1,11,2,13,7,4,15,3,8,10,14"
15035,commdev-image-keyboard-response,197,891552,learnblock1,699.0999999046326,img/planet8_right.png,8,Community 3,NA,TRUE,j,j,NA,NA,NA,1,7,"5,6,12,9,1,11,2,13,7,4,15,3,8,10,14"
15035,commdev-image-keyboard-response,198,892805,learnblock1,671.5,img/planet14_right.png,14,Community 3,NA,TRUE,j,j,NA,NA,NA,1,7,"5,6,12,9,1,11,2,13,7,4,15,3,8,10,14"
15035,commdev-image-keyboard-response,199,894057,learnblock1,706.1999998092651,img/planet10_left.png,10,Community 3,NA,TRUE,f,f,NA,NA,NA,1,7,"5,6,12,9,1,11,2,13,7,4,15,3,8,10,14"
15035,commdev-image-keyboard-response,200,895308,learnblock1,726.7000002861023,img/planet14_left.png,14,Community 3,NA,TRUE,f,f,NA,NA,NA,1,7,"5,6,12,9,1,11,2,13,7,4,15,3,8,10,14"
15035,commdev-image-keyboard-response,201,896560,learnblock1,579.3000001907349,img/planet8_right.png,8,Community 3,NA,TRUE,j,j,NA,NA,NA,1,7,"5,6,12,9,1,11,2,13,7,4,15,3,8,10,14"
15035,commdev-image-keyboard-response,202,897812,learnblock1,647.6999998092651,img/planet15_right.png,15,Community 3,NA,TRUE,j,j,NA,NA,NA,1,7,"5,6,12,9,1,11,2,13,7,4,15,3,8,10,14"
15035,commdev-image-keyboard-response,203,899064,learnblock1,611.4000000953674,img/planet1_left.png,1,Community 1,NA,TRUE,f,f,NA,NA,NA,1,7,"5,6,12,9,1,11,2,13,7,4,15,3,8,10,14"
15035,commdev-image-keyboard-response,204,900330,learnblock1,567.9000000953674,img/planet15_left.png,15,Community 3,NA,TRUE,f,f,NA,NA,NA,1,7,"5,6,12,9,1,11,2,13,7,4,15,3,8,10,14"
15035,commdev-image-keyboard-response,205,901583,learnblock1,572.7999997138977,img/planet1_right.png,1,Community 1,NA,TRUE,j,j,NA,NA,NA,1,7,"5,6,12,9,1,11,2,13,7,4,15,3,8,10,14"
15035,commdev-image-keyboard-response,206,902835,learnblock1,617.3000001907349,img/planet6_left.png,6,Community 1,NA,TRUE,f,f,NA,NA,NA,1,7,"5,6,12,9,1,11,2,13,7,4,15,3,8,10,14"
15035,commdev-image-keyboard-response,207,904086,learnblock1,532.8000001907349,img/planet5_right.png,5,Community 1,NA,TRUE,j,j,NA,NA,NA,1,7,"5,6,12,9,1,11,2,13,7,4,15,3,8,10,14"
15035,commdev-image-keyboard-response,208,905338,learnblock1,777.2000002861023,img/planet1_right.png,1,Community 1,NA,TRUE,j,j,NA,NA,NA,1,7,"5,6,12,9,1,11,2,13,7,4,15,3,8,10,14"
15035,commdev-image-keyboard-response,209,906594,learnblock1,653.4000000953674,img/planet5_right.png,5,Community 1,NA,TRUE,j,j,NA,NA,NA,1,7,"5,6,12,9,1,11,2,13,7,4,15,3,8,10,14"
15035,commdev-image-keyboard-response,210,907845,learnblock1,542,img/planet1_right.png,1,Community 1,NA,TRUE,j,j,NA,NA,NA,1,7,"5,6,12,9,1,11,2,13,7,4,15,3,8,10,14"
15035,commdev-image-keyboard-response,211,909097,learnblock1,522.3000001907349,img/planet5_left.png,5,Community 1,NA,TRUE,f,f,NA,NA,NA,1,7,"5,6,12,9,1,11,2,13,7,4,15,3,8,10,14"
15035,commdev-image-keyboard-response,212,910349,learnblock1,519,img/planet12_left.png,12,Community 1,NA,TRUE,f,f,NA,NA,NA,1,7,"5,6,12,9,1,11,2,13,7,4,15,3,8,10,14"
15035,commdev-image-keyboard-response,213,911600,learnblock1,490.2999997138977,img/planet5_left.png,5,Community 1,NA,TRUE,f,f,NA,NA,NA,1,7,"5,6,12,9,1,11,2,13,7,4,15,3,8,10,14"
15035,commdev-image-keyboard-response,214,912852,learnblock1,471.40000009536743,img/planet9_left.png,9,Community 1,NA,TRUE,f,f,NA,NA,NA,1,7,"5,6,12,9,1,11,2,13,7,4,15,3,8,10,14"
15035,commdev-image-keyboard-response,215,914103,learnblock1,427.69999980926514,img/planet11_left.png,11,Community 2,NA,TRUE,f,f,NA,NA,NA,1,7,"5,6,12,9,1,11,2,13,7,4,15,3,8,10,14"
15035,commdev-image-keyboard-response,216,915354,learnblock1,584.9000000953674,img/planet2_right.png,2,Community 2,NA,TRUE,j,j,NA,NA,NA,1,7,"5,6,12,9,1,11,2,13,7,4,15,3,8,10,14"
15035,commdev-image-keyboard-response,217,916606,learnblock1,636.8000001907349,img/planet11_right.png,11,Community 2,NA,TRUE,j,j,NA,NA,NA,1,7,"5,6,12,9,1,11,2,13,7,4,15,3,8,10,14"
15035,commdev-image-keyboard-response,218,917857,learnblock1,465.7000002861023,img/planet2_right.png,2,Community 2,NA,TRUE,j,j,NA,NA,NA,1,7,"5,6,12,9,1,11,2,13,7,4,15,3,8,10,14"
15035,commdev-image-keyboard-response,219,919109,learnblock1,678.4000000953674,img/planet4_left.png,4,Community 2,NA,TRUE,f,f,NA,NA,NA,1,7,"5,6,12,9,1,11,2,13,7,4,15,3,8,10,14"
15035,commdev-image-keyboard-response,220,920360,learnblock1,658.6999998092651,img/planet11_right.png,11,Community 2,NA,TRUE,j,j,NA,NA,NA,1,7,"5,6,12,9,1,11,2,13,7,4,15,3,8,10,14"
15035,commdev-image-keyboard-response,221,921613,learnblock1,599.7000002861023,img/planet7_right.png,7,Community 2,NA,TRUE,j,j,NA,NA,NA,1,7,"5,6,12,9,1,11,2,13,7,4,15,3,8,10,14"
15035,commdev-image-keyboard-response,222,922865,learnblock1,626.6000003814697,img/planet4_left.png,4,Community 2,NA,TRUE,f,f,NA,NA,NA,1,7,"5,6,12,9,1,11,2,13,7,4,15,3,8,10,14"
15035,commdev-image-keyboard-response,223,924117,learnblock1,936.6999998092651,img/planet13_right.png,13,Community 2,NA,TRUE,j,j,NA,NA,NA,1,7,"5,6,12,9,1,11,2,13,7,4,15,3,8,10,14"
15035,commdev-image-keyboard-response,224,925368,learnblock1,642.5,img/planet3_right.png,3,Community 3,NA,TRUE,j,j,NA,NA,NA,1,7,"5,6,12,9,1,11,2,13,7,4,15,3,8,10,14"
15035,commdev-image-keyboard-response,225,926620,learnblock1,550.6999998092651,img/planet10_left.png,10,Community 3,NA,TRUE,f,f,NA,NA,NA,1,7,"5,6,12,9,1,11,2,13,7,4,15,3,8,10,14"
15035,commdev-image-keyboard-response,226,927872,learnblock1,459.40000009536743,img/planet3_right.png,3,Community 3,NA,TRUE,j,j,NA,NA,NA,1,7,"5,6,12,9,1,11,2,13,7,4,15,3,8,10,14"
15035,commdev-image-keyboard-response,227,929135,learnblock1,520,img/planet8_left.png,8,Community 3,NA,TRUE,f,f,NA,NA,NA,1,7,"5,6,12,9,1,11,2,13,7,4,15,3,8,10,14"
15035,commdev-image-keyboard-response,228,930386,learnblock1,536.7999997138977,img/planet14_left.png,14,Community 3,NA,TRUE,f,f,NA,NA,NA,1,7,"5,6,12,9,1,11,2,13,7,4,15,3,8,10,14"
15035,commdev-image-keyboard-response,229,931638,learnblock1,549.8000001907349,img/planet8_right.png,8,Community 3,NA,TRUE,j,j,NA,NA,NA,1,7,"5,6,12,9,1,11,2,13,7,4,15,3,8,10,14"
15035,commdev-image-keyboard-response,230,932890,learnblock1,521.3000001907349,img/planet3_left.png,3,Community 3,NA,TRUE,f,f,NA,NA,NA,1,7,"5,6,12,9,1,11,2,13,7,4,15,3,8,10,14"
15035,commdev-image-keyboard-response,231,934142,learnblock1,533.5999999046326,img/planet8_right.png,8,Community 3,NA,TRUE,j,j,NA,NA,NA,1,7,"5,6,12,9,1,11,2,13,7,4,15,3,8,10,14"
15035,commdev-image-keyboard-response,232,935394,learnblock1,593.7999997138977,img/planet15_right.png,15,Community 3,NA,TRUE,j,j,NA,NA,NA,1,7,"5,6,12,9,1,11,2,13,7,4,15,3,8,10,14"
15035,commdev-image-keyboard-response,233,936645,learnblock1,661.6999998092651,img/planet1_right.png,1,Community 1,NA,TRUE,j,j,NA,NA,NA,1,7,"5,6,12,9,1,11,2,13,7,4,15,3,8,10,14"
15035,commdev-image-keyboard-response,234,937896,learnblock1,834.6000003814697,img/planet15_left.png,15,Community 3,NA,TRUE,f,f,NA,NA,NA,1,7,"5,6,12,9,1,11,2,13,7,4,15,3,8,10,14"
15035,commdev-image-keyboard-response,235,939148,learnblock1,767.2999997138977,img/planet14_left.png,14,Community 3,NA,TRUE,f,f,NA,NA,NA,1,7,"5,6,12,9,1,11,2,13,7,4,15,3,8,10,14"
15035,commdev-image-keyboard-response,236,940399,learnblock1,611.7999997138977,img/planet3_left.png,3,Community 3,NA,TRUE,f,f,NA,NA,NA,1,7,"5,6,12,9,1,11,2,13,7,4,15,3,8,10,14"
15035,commdev-image-keyboard-response,237,941651,learnblock1,536.4000000953674,img/planet14_left.png,14,Community 3,NA,TRUE,f,f,NA,NA,NA,1,7,"5,6,12,9,1,11,2,13,7,4,15,3,8,10,14"
15035,commdev-image-keyboard-response,238,942903,learnblock1,517.0999999046326,img/planet8_left.png,8,Community 3,NA,TRUE,f,f,NA,NA,NA,1,7,"5,6,12,9,1,11,2,13,7,4,15,3,8,10,14"
15035,commdev-image-keyboard-response,239,944154,learnblock1,569,img/planet10_left.png,10,Community 3,NA,TRUE,f,f,NA,NA,NA,1,7,"5,6,12,9,1,11,2,13,7,4,15,3,8,10,14"
15035,commdev-image-keyboard-response,240,945406,learnblock1,596.8999996185303,img/planet14_right.png,14,Community 3,NA,TRUE,j,j,NA,NA,NA,1,7,"5,6,12,9,1,11,2,13,7,4,15,3,8,10,14"
15035,commdev-image-keyboard-response,241,946657,learnblock1,657.5,img/planet3_right.png,3,Community 3,NA,TRUE,j,j,NA,NA,NA,1,7,"5,6,12,9,1,11,2,13,7,4,15,3,8,10,14"
15035,commdev-image-keyboard-response,242,947909,learnblock1,533.2000002861023,img/planet8_right.png,8,Community 3,NA,TRUE,j,j,NA,NA,NA,1,7,"5,6,12,9,1,11,2,13,7,4,15,3,8,10,14"
15035,commdev-image-keyboard-response,243,949161,learnblock1,626.6000003814697,img/planet14_right.png,14,Community 3,NA,TRUE,j,j,NA,NA,NA,1,7,"5,6,12,9,1,11,2,13,7,4,15,3,8,10,14"
15035,commdev-image-keyboard-response,244,950413,learnblock1,486.5,img/planet15_left.png,15,Community 3,NA,FALSE,j,f,NA,NA,NA,1,7,"5,6,12,9,1,11,2,13,7,4,15,3,8,10,14"
15035,commdev-image-keyboard-response,245,951664,learnblock1,161.90000009536743,img/planet10_right.png,10,Community 3,NA,FALSE,f,j,NA,NA,NA,1,7,"5,6,12,9,1,11,2,13,7,4,15,3,8,10,14"
15035,commdev-image-keyboard-response,246,952915,learnblock1,102.69999980926514,img/planet3_right.png,3,Community 3,NA,TRUE,j,j,NA,NA,NA,1,7,"5,6,12,9,1,11,2,13,7,4,15,3,8,10,14"
15035,commdev-image-keyboard-response,247,954168,learnblock1,164.10000038146973,img/planet10_right.png,10,Community 3,NA,TRUE,j,j,NA,NA,NA,1,7,"5,6,12,9,1,11,2,13,7,4,15,3,8,10,14"
15035,commdev-image-keyboard-response,248,955419,learnblock1,567.9000000953674,img/planet3_right.png,3,Community 3,NA,TRUE,j,j,NA,NA,NA,1,7,"5,6,12,9,1,11,2,13,7,4,15,3,8,10,14"
15035,commdev-image-keyboard-response,249,956671,learnblock1,620,img/planet14_right.png,14,Community 3,NA,TRUE,j,j,NA,NA,NA,1,7,"5,6,12,9,1,11,2,13,7,4,15,3,8,10,14"
15035,commdev-image-keyboard-response,250,957923,learnblock1,560.0999999046326,img/planet3_left.png,3,Community 3,NA,TRUE,f,f,NA,NA,NA,1,7,"5,6,12,9,1,11,2,13,7,4,15,3,8,10,14"
15035,commdev-image-keyboard-response,251,959174,learnblock1,612.6000003814697,img/planet14_right.png,14,Community 3,NA,TRUE,j,j,NA,NA,NA,1,7,"5,6,12,9,1,11,2,13,7,4,15,3,8,10,14"
15035,commdev-image-keyboard-response,252,960426,learnblock1,537.1000003814697,img/planet3_right.png,3,Community 3,NA,TRUE,j,j,NA,NA,NA,1,7,"5,6,12,9,1,11,2,13,7,4,15,3,8,10,14"
15035,commdev-image-keyboard-response,253,961678,learnblock1,645.7999997138977,img/planet8_right.png,8,Community 3,NA,TRUE,j,j,NA,NA,NA,1,7,"5,6,12,9,1,11,2,13,7,4,15,3,8,10,14"
15035,commdev-image-keyboard-response,254,962930,learnblock1,393,img/planet10_right.png,10,Community 3,NA,TRUE,j,j,NA,NA,NA,1,7,"5,6,12,9,1,11,2,13,7,4,15,3,8,10,14"
15035,commdev-image-keyboard-response,255,964182,learnblock1,573.7000002861023,img/planet14_right.png,14,Community 3,NA,TRUE,j,j,NA,NA,NA,1,7,"5,6,12,9,1,11,2,13,7,4,15,3,8,10,14"
15035,commdev-image-keyboard-response,256,965433,learnblock1,489.7000002861023,img/planet3_right.png,3,Community 3,NA,TRUE,j,j,NA,NA,NA,1,7,"5,6,12,9,1,11,2,13,7,4,15,3,8,10,14"
15035,commdev-image-keyboard-response,257,966685,learnblock1,517.9000000953674,img/planet13_left.png,13,Community 2,NA,TRUE,f,f,NA,NA,NA,1,7,"5,6,12,9,1,11,2,13,7,4,15,3,8,10,14"
15035,commdev-image-keyboard-response,258,967936,learnblock1,658.9000000953674,img/planet7_left.png,7,Community 2,NA,TRUE,f,f,NA,NA,NA,1,7,"5,6,12,9,1,11,2,13,7,4,15,3,8,10,14"
15035,commdev-image-keyboard-response,259,969187,learnblock1,687.2000002861023,img/planet11_right.png,11,Community 2,NA,TRUE,j,j,NA,NA,NA,1,7,"5,6,12,9,1,11,2,13,7,4,15,3,8,10,14"
15035,commdev-image-keyboard-response,260,970438,learnblock1,612.6999998092651,img/planet7_right.png,7,Community 2,NA,TRUE,j,j,NA,NA,NA,1,7,"5,6,12,9,1,11,2,13,7,4,15,3,8,10,14"
15035,commdev-image-keyboard-response,261,971690,learnblock1,705.1999998092651,img/planet11_right.png,11,Community 2,NA,TRUE,j,j,NA,NA,NA,1,7,"5,6,12,9,1,11,2,13,7,4,15,3,8,10,14"
15035,commdev-image-keyboard-response,262,972941,learnblock1,701.2999997138977,img/planet4_left.png,4,Community 2,NA,TRUE,f,f,NA,NA,NA,1,7,"5,6,12,9,1,11,2,13,7,4,15,3,8,10,14"
15035,commdev-image-keyboard-response,263,974194,learnblock1,594.3000001907349,img/planet7_right.png,7,Community 2,NA,TRUE,j,j,NA,NA,NA,1,7,"5,6,12,9,1,11,2,13,7,4,15,3,8,10,14"
15035,commdev-image-keyboard-response,264,975446,learnblock1,573.5,img/planet11_right.png,11,Community 2,NA,TRUE,j,j,NA,NA,NA,1,7,"5,6,12,9,1,11,2,13,7,4,15,3,8,10,14"
15035,commdev-image-keyboard-response,265,976697,learnblock1,617.9000000953674,img/planet4_right.png,4,Community 2,NA,TRUE,j,j,NA,NA,NA,1,7,"5,6,12,9,1,11,2,13,7,4,15,3,8,10,14"
15035,commdev-image-keyboard-response,266,977948,learnblock1,711,img/planet13_right.png,13,Community 2,NA,TRUE,j,j,NA,NA,NA,1,7,"5,6,12,9,1,11,2,13,7,4,15,3,8,10,14"
15035,commdev-image-keyboard-response,267,979200,learnblock1,626.5999999046326,img/planet4_right.png,4,Community 2,NA,TRUE,j,j,NA,NA,NA,1,7,"5,6,12,9,1,11,2,13,7,4,15,3,8,10,14"
15035,commdev-image-keyboard-response,268,980451,learnblock1,639.7999997138977,img/planet7_left.png,7,Community 2,NA,TRUE,f,f,NA,NA,NA,1,7,"5,6,12,9,1,11,2,13,7,4,15,3,8,10,14"
15035,commdev-image-keyboard-response,269,981703,learnblock1,684.2000002861023,img/planet13_left.png,13,Community 2,NA,TRUE,f,f,NA,NA,NA,1,7,"5,6,12,9,1,11,2,13,7,4,15,3,8,10,14"
15035,commdev-image-keyboard-response,270,982955,learnblock1,576.6999998092651,img/planet7_left.png,7,Community 2,NA,TRUE,f,f,NA,NA,NA,1,7,"5,6,12,9,1,11,2,13,7,4,15,3,8,10,14"
15035,commdev-image-keyboard-response,271,984206,learnblock1,631.1000003814697,img/planet13_right.png,13,Community 2,NA,TRUE,j,j,NA,NA,NA,1,7,"5,6,12,9,1,11,2,13,7,4,15,3,8,10,14"
15035,commdev-image-keyboard-response,272,985457,learnblock1,722,img/planet7_right.png,7,Community 2,NA,TRUE,j,j,NA,NA,NA,1,7,"5,6,12,9,1,11,2,13,7,4,15,3,8,10,14"
15035,commdev-image-keyboard-response,273,986708,learnblock1,606.5,img/planet13_right.png,13,Community 2,NA,TRUE,j,j,NA,NA,NA,1,7,"5,6,12,9,1,11,2,13,7,4,15,3,8,10,14"
15035,commdev-image-keyboard-response,274,987960,learnblock1,491.40000009536743,img/planet2_right.png,2,Community 2,NA,TRUE,j,j,NA,NA,NA,1,7,"5,6,12,9,1,11,2,13,7,4,15,3,8,10,14"
15035,commdev-image-keyboard-response,275,989210,learnblock1,488.40000009536743,img/planet4_right.png,4,Community 2,NA,TRUE,j,j,NA,NA,NA,1,7,"5,6,12,9,1,11,2,13,7,4,15,3,8,10,14"
15035,commdev-image-keyboard-response,276,990462,learnblock1,629,img/planet13_left.png,13,Community 2,NA,TRUE,f,f,NA,NA,NA,1,7,"5,6,12,9,1,11,2,13,7,4,15,3,8,10,14"
15035,commdev-image-keyboard-response,277,991714,learnblock1,721.5,img/planet2_right.png,2,Community 2,NA,TRUE,j,j,NA,NA,NA,1,7,"5,6,12,9,1,11,2,13,7,4,15,3,8,10,14"
15035,commdev-image-keyboard-response,278,992966,learnblock1,709.1999998092651,img/planet11_right.png,11,Community 2,NA,TRUE,j,j,NA,NA,NA,1,7,"5,6,12,9,1,11,2,13,7,4,15,3,8,10,14"
15035,commdev-image-keyboard-response,279,994227,learnblock1,754,img/planet9_left.png,9,Community 1,NA,TRUE,f,f,NA,NA,NA,1,7,"5,6,12,9,1,11,2,13,7,4,15,3,8,10,14"
15035,commdev-image-keyboard-response,280,995478,learnblock1,492.69999980926514,img/planet11_left.png,11,Community 2,NA,TRUE,f,f,NA,NA,NA,1,7,"5,6,12,9,1,11,2,13,7,4,15,3,8,10,14"
15035,commdev-image-keyboard-response,281,996729,learnblock1,473.09999990463257,img/planet2_left.png,2,Community 2,NA,TRUE,f,f,NA,NA,NA,1,7,"5,6,12,9,1,11,2,13,7,4,15,3,8,10,14"
15035,commdev-image-keyboard-response,282,997981,learnblock1,518.0999999046326,img/planet11_right.png,11,Community 2,NA,FALSE,f,j,NA,NA,NA,1,7,"5,6,12,9,1,11,2,13,7,4,15,3,8,10,14"
15035,commdev-image-keyboard-response,283,999234,learnblock1,626.4000000953674,img/planet2_right.png,2,Community 2,NA,TRUE,j,j,NA,NA,NA,1,7,"5,6,12,9,1,11,2,13,7,4,15,3,8,10,14"
15035,commdev-image-keyboard-response,284,1000486,learnblock1,493.3999996185303,img/planet13_right.png,13,Community 2,NA,TRUE,j,j,NA,NA,NA,1,7,"5,6,12,9,1,11,2,13,7,4,15,3,8,10,14"
15035,commdev-image-keyboard-response,285,1001737,learnblock1,514,img/planet4_right.png,4,Community 2,NA,TRUE,j,j,NA,NA,NA,1,7,"5,6,12,9,1,11,2,13,7,4,15,3,8,10,14"
15035,commdev-image-keyboard-response,286,1002989,learnblock1,566,img/planet7_right.png,7,Community 2,NA,TRUE,j,j,NA,NA,NA,1,7,"5,6,12,9,1,11,2,13,7,4,15,3,8,10,14"
15035,commdev-image-keyboard-response,287,1004241,learnblock1,626.2999997138977,img/planet11_left.png,11,Community 2,NA,TRUE,f,f,NA,NA,NA,1,7,"5,6,12,9,1,11,2,13,7,4,15,3,8,10,14"
15035,commdev-image-keyboard-response,288,1005492,learnblock1,710.0999999046326,img/planet4_left.png,4,Community 2,NA,TRUE,f,f,NA,NA,NA,1,7,"5,6,12,9,1,11,2,13,7,4,15,3,8,10,14"
15035,commdev-image-keyboard-response,289,1006743,learnblock1,643.0999999046326,img/planet2_left.png,2,Community 2,NA,TRUE,f,f,NA,NA,NA,1,7,"5,6,12,9,1,11,2,13,7,4,15,3,8,10,14"
15035,commdev-image-keyboard-response,290,1007994,learnblock1,551,img/planet7_left.png,7,Community 2,NA,TRUE,f,f,NA,NA,NA,1,7,"5,6,12,9,1,11,2,13,7,4,15,3,8,10,14"
15035,commdev-image-keyboard-response,291,1009246,learnblock1,388.80000019073486,img/planet11_right.png,11,Community 2,NA,FALSE,f,j,NA,NA,NA,1,7,"5,6,12,9,1,11,2,13,7,4,15,3,8,10,14"
15035,commdev-image-keyboard-response,292,1010497,learnblock1,577.1999998092651,img/planet7_left.png,7,Community 2,NA,TRUE,f,f,NA,NA,NA,1,7,"5,6,12,9,1,11,2,13,7,4,15,3,8,10,14"
15035,commdev-image-keyboard-response,293,1011749,learnblock1,734,img/planet4_left.png,4,Community 2,NA,TRUE,f,f,NA,NA,NA,1,7,"5,6,12,9,1,11,2,13,7,4,15,3,8,10,14"
15035,commdev-image-keyboard-response,294,1013001,learnblock1,570.1999998092651,img/planet13_right.png,13,Community 2,NA,TRUE,j,j,NA,NA,NA,1,7,"5,6,12,9,1,11,2,13,7,4,15,3,8,10,14"
15035,commdev-image-keyboard-response,295,1014252,learnblock1,590.9000000953674,img/planet3_right.png,3,Community 3,NA,TRUE,j,j,NA,NA,NA,1,7,"5,6,12,9,1,11,2,13,7,4,15,3,8,10,14"
15035,commdev-image-keyboard-response,296,1015504,learnblock1,731.6999998092651,img/planet8_right.png,8,Community 3,NA,TRUE,j,j,NA,NA,NA,1,7,"5,6,12,9,1,11,2,13,7,4,15,3,8,10,14"
15035,commdev-image-keyboard-response,297,1016756,learnblock1,655.5999999046326,img/planet3_left.png,3,Community 3,NA,TRUE,f,f,NA,NA,NA,1,7,"5,6,12,9,1,11,2,13,7,4,15,3,8,10,14"
15035,commdev-image-keyboard-response,298,1018007,learnblock1,643.3999996185303,img/planet14_right.png,14,Community 3,NA,TRUE,j,j,NA,NA,NA,1,7,"5,6,12,9,1,11,2,13,7,4,15,3,8,10,14"
15035,commdev-image-keyboard-response,299,1019260,learnblock1,896.1999998092651,img/planet8_left.png,8,Community 3,NA,TRUE,f,f,NA,NA,NA,1,7,"5,6,12,9,1,11,2,13,7,4,15,3,8,10,14"
15035,commdev-image-keyboard-response,300,1020511,learnblock1,636,img/planet3_right.png,3,Community 3,NA,TRUE,j,j,NA,NA,NA,1,7,"5,6,12,9,1,11,2,13,7,4,15,3,8,10,14"
15035,commdev-image-keyboard-response,301,1021762,learnblock1,696.6000003814697,img/planet14_left.png,14,Community 3,NA,TRUE,f,f,NA,NA,NA,1,7,"5,6,12,9,1,11,2,13,7,4,15,3,8,10,14"
15035,commdev-image-keyboard-response,302,1023014,learnblock1,581.0999999046326,img/planet10_right.png,10,Community 3,NA,TRUE,j,j,NA,NA,NA,1,7,"5,6,12,9,1,11,2,13,7,4,15,3,8,10,14"
15035,commdev-image-keyboard-response,303,1024265,learnblock1,738,img/planet15_left.png,15,Community 3,NA,TRUE,f,f,NA,NA,NA,1,7,"5,6,12,9,1,11,2,13,7,4,15,3,8,10,14"
15035,commdev-image-keyboard-response,304,1025516,learnblock1,646.4000000953674,img/planet8_right.png,8,Community 3,NA,TRUE,j,j,NA,NA,NA,1,7,"5,6,12,9,1,11,2,13,7,4,15,3,8,10,14"
15035,commdev-image-keyboard-response,305,1026782,learnblock1,715.4000000953674,img/planet15_right.png,15,Community 3,NA,TRUE,j,j,NA,NA,NA,1,7,"5,6,12,9,1,11,2,13,7,4,15,3,8,10,14"
15035,commdev-image-keyboard-response,306,1028033,learnblock1,649.5,img/planet14_left.png,14,Community 3,NA,TRUE,f,f,NA,NA,NA,1,7,"5,6,12,9,1,11,2,13,7,4,15,3,8,10,14"
15035,commdev-image-keyboard-response,307,1029285,learnblock1,678.4000000953674,img/planet15_right.png,15,Community 3,NA,TRUE,j,j,NA,NA,NA,1,7,"5,6,12,9,1,11,2,13,7,4,15,3,8,10,14"
15035,commdev-image-keyboard-response,308,1030537,learnblock1,738.4000000953674,img/planet1_left.png,1,Community 1,NA,TRUE,f,f,NA,NA,NA,1,7,"5,6,12,9,1,11,2,13,7,4,15,3,8,10,14"
15035,commdev-image-keyboard-response,309,1031788,learnblock1,654.4000000953674,img/planet12_left.png,12,Community 1,NA,TRUE,f,f,NA,NA,NA,1,7,"5,6,12,9,1,11,2,13,7,4,15,3,8,10,14"
15035,commdev-image-keyboard-response,310,1033040,learnblock1,635.0999999046326,img/planet9_left.png,9,Community 1,NA,TRUE,f,f,NA,NA,NA,1,7,"5,6,12,9,1,11,2,13,7,4,15,3,8,10,14"
15035,commdev-image-keyboard-response,311,1034293,learnblock1,774.3000001907349,img/planet6_left.png,6,Community 1,NA,TRUE,f,f,NA,NA,NA,1,7,"5,6,12,9,1,11,2,13,7,4,15,3,8,10,14"
15035,commdev-image-keyboard-response,312,1035544,learnblock1,642,img/planet12_left.png,12,Community 1,NA,TRUE,f,f,NA,NA,NA,1,7,"5,6,12,9,1,11,2,13,7,4,15,3,8,10,14"
15035,commdev-image-keyboard-response,313,1036796,learnblock1,630.6999998092651,img/planet1_left.png,1,Community 1,NA,TRUE,f,f,NA,NA,NA,1,7,"5,6,12,9,1,11,2,13,7,4,15,3,8,10,14"
15035,commdev-image-keyboard-response,314,1038047,learnblock1,483.40000009536743,img/planet15_left.png,15,Community 3,NA,TRUE,f,f,NA,NA,NA,1,7,"5,6,12,9,1,11,2,13,7,4,15,3,8,10,14"
15035,commdev-image-keyboard-response,315,1039298,learnblock1,584.0999999046326,img/planet8_left.png,8,Community 3,NA,TRUE,f,f,NA,NA,NA,1,7,"5,6,12,9,1,11,2,13,7,4,15,3,8,10,14"
15035,commdev-image-keyboard-response,316,1040550,learnblock1,861.5,img/planet15_right.png,15,Community 3,NA,TRUE,j,j,NA,NA,NA,1,7,"5,6,12,9,1,11,2,13,7,4,15,3,8,10,14"
15035,commdev-image-keyboard-response,317,1041801,learnblock1,642.8000001907349,img/planet1_right.png,1,Community 1,NA,TRUE,j,j,NA,NA,NA,1,7,"5,6,12,9,1,11,2,13,7,4,15,3,8,10,14"
15035,commdev-image-keyboard-response,318,1043052,learnblock1,622.5999999046326,img/planet12_left.png,12,Community 1,NA,TRUE,f,f,NA,NA,NA,1,7,"5,6,12,9,1,11,2,13,7,4,15,3,8,10,14"
15035,commdev-image-keyboard-response,319,1044304,learnblock1,539.3999996185303,img/planet5_right.png,5,Community 1,NA,TRUE,j,j,NA,NA,NA,1,7,"5,6,12,9,1,11,2,13,7,4,15,3,8,10,14"
15035,commdev-image-keyboard-response,320,1045555,learnblock1,615.5,img/planet1_right.png,1,Community 1,NA,TRUE,j,j,NA,NA,NA,1,7,"5,6,12,9,1,11,2,13,7,4,15,3,8,10,14"
15035,commdev-image-keyboard-response,321,1046807,learnblock1,628.2999997138977,img/planet5_left.png,5,Community 1,NA,TRUE,f,f,NA,NA,NA,1,7,"5,6,12,9,1,11,2,13,7,4,15,3,8,10,14"
15035,commdev-image-keyboard-response,322,1048058,learnblock1,529.4000000953674,img/planet9_right.png,9,Community 1,NA,TRUE,j,j,NA,NA,NA,1,7,"5,6,12,9,1,11,2,13,7,4,15,3,8,10,14"
15035,commdev-image-keyboard-response,323,1049310,learnblock1,605.6999998092651,img/planet5_right.png,5,Community 1,NA,TRUE,j,j,NA,NA,NA,1,7,"5,6,12,9,1,11,2,13,7,4,15,3,8,10,14"
15035,commdev-image-keyboard-response,324,1050561,learnblock1,586.4000000953674,img/planet1_left.png,1,Community 1,NA,TRUE,f,f,NA,NA,NA,1,7,"5,6,12,9,1,11,2,13,7,4,15,3,8,10,14"
15035,commdev-image-keyboard-response,325,1051823,learnblock1,853.9000000953674,img/planet15_left.png,15,Community 3,NA,TRUE,f,f,NA,NA,NA,1,7,"5,6,12,9,1,11,2,13,7,4,15,3,8,10,14"
15035,commdev-image-keyboard-response,326,1053074,learnblock1,672.8999996185303,img/planet10_right.png,10,Community 3,NA,TRUE,j,j,NA,NA,NA,1,7,"5,6,12,9,1,11,2,13,7,4,15,3,8,10,14"
15035,commdev-image-keyboard-response,327,1054326,learnblock1,541.0999999046326,img/planet8_left.png,8,Community 3,NA,TRUE,f,f,NA,NA,NA,1,7,"5,6,12,9,1,11,2,13,7,4,15,3,8,10,14"
15035,commdev-image-keyboard-response,328,1055577,learnblock1,610.0999999046326,img/planet3_right.png,3,Community 3,NA,TRUE,j,j,NA,NA,NA,1,7,"5,6,12,9,1,11,2,13,7,4,15,3,8,10,14"
15035,commdev-image-keyboard-response,329,1056829,learnblock1,622.3999996185303,img/planet10_right.png,10,Community 3,NA,TRUE,j,j,NA,NA,NA,1,7,"5,6,12,9,1,11,2,13,7,4,15,3,8,10,14"
15035,commdev-image-keyboard-response,330,1058080,learnblock1,586.3000001907349,img/planet3_left.png,3,Community 3,NA,TRUE,f,f,NA,NA,NA,1,7,"5,6,12,9,1,11,2,13,7,4,15,3,8,10,14"
15035,commdev-image-keyboard-response,331,1059332,learnblock1,591.5,img/planet13_right.png,13,Community 2,NA,TRUE,j,j,NA,NA,NA,1,7,"5,6,12,9,1,11,2,13,7,4,15,3,8,10,14"
15035,commdev-image-keyboard-response,332,1060584,learnblock1,603.7999997138977,img/planet4_right.png,4,Community 2,NA,TRUE,j,j,NA,NA,NA,1,7,"5,6,12,9,1,11,2,13,7,4,15,3,8,10,14"
15035,commdev-image-keyboard-response,333,1061836,learnblock1,559.7000002861023,img/planet13_right.png,13,Community 2,NA,TRUE,j,j,NA,NA,NA,1,7,"5,6,12,9,1,11,2,13,7,4,15,3,8,10,14"
15035,commdev-image-keyboard-response,334,1063088,learnblock1,523.7000002861023,img/planet3_right.png,3,Community 3,NA,TRUE,j,j,NA,NA,NA,1,7,"5,6,12,9,1,11,2,13,7,4,15,3,8,10,14"
15035,commdev-image-keyboard-response,335,1064339,learnblock1,711.7999997138977,img/planet8_left.png,8,Community 3,NA,TRUE,f,f,NA,NA,NA,1,7,"5,6,12,9,1,11,2,13,7,4,15,3,8,10,14"
15035,commdev-image-keyboard-response,336,1065591,learnblock1,748.0999999046326,img/planet3_right.png,3,Community 3,NA,TRUE,j,j,NA,NA,NA,1,7,"5,6,12,9,1,11,2,13,7,4,15,3,8,10,14"
15035,commdev-image-keyboard-response,337,1066842,learnblock1,null,img/planet14_right.png,14,Community 3,NA,FALSE,null,j,NA,NA,NA,1,7,"5,6,12,9,1,11,2,13,7,4,15,3,8,10,14"
15035,commdev-image-keyboard-response,338,1068107,learnblock1,156.30000019073486,img/planet3_left.png,3,Community 3,NA,FALSE,j,f,NA,NA,NA,1,7,"5,6,12,9,1,11,2,13,7,4,15,3,8,10,14"
15035,commdev-image-keyboard-response,339,1069360,learnblock1,852.1000003814697,img/planet8_left.png,8,Community 3,NA,FALSE,j,f,NA,NA,NA,1,7,"5,6,12,9,1,11,2,13,7,4,15,3,8,10,14"
15035,commdev-image-keyboard-response,340,1070611,learnblock1,552.3000001907349,img/planet15_right.png,15,Community 3,NA,TRUE,j,j,NA,NA,NA,1,7,"5,6,12,9,1,11,2,13,7,4,15,3,8,10,14"
15035,commdev-image-keyboard-response,341,1071862,learnblock1,596.7999997138977,img/planet14_right.png,14,Community 3,NA,TRUE,j,j,NA,NA,NA,1,7,"5,6,12,9,1,11,2,13,7,4,15,3,8,10,14"
15035,commdev-image-keyboard-response,342,1073113,learnblock1,545.7000002861023,img/planet15_right.png,15,Community 3,NA,TRUE,j,j,NA,NA,NA,1,7,"5,6,12,9,1,11,2,13,7,4,15,3,8,10,14"
15035,commdev-image-keyboard-response,343,1074372,learnblock1,558.6999998092651,img/planet10_right.png,10,Community 3,NA,TRUE,j,j,NA,NA,NA,1,7,"5,6,12,9,1,11,2,13,7,4,15,3,8,10,14"
15035,commdev-image-keyboard-response,344,1075623,learnblock1,723.3999996185303,img/planet14_left.png,14,Community 3,NA,TRUE,f,f,NA,NA,NA,1,7,"5,6,12,9,1,11,2,13,7,4,15,3,8,10,14"
15035,commdev-image-keyboard-response,345,1076875,learnblock1,616.2999997138977,img/planet8_right.png,8,Community 3,NA,TRUE,j,j,NA,NA,NA,1,7,"5,6,12,9,1,11,2,13,7,4,15,3,8,10,14"
15035,commdev-image-keyboard-response,346,1078127,learnblock1,676.4000000953674,img/planet10_right.png,10,Community 3,NA,TRUE,j,j,NA,NA,NA,1,7,"5,6,12,9,1,11,2,13,7,4,15,3,8,10,14"
15035,commdev-image-keyboard-response,347,1079379,learnblock1,520.8000001907349,img/planet8_left.png,8,Community 3,NA,TRUE,f,f,NA,NA,NA,1,7,"5,6,12,9,1,11,2,13,7,4,15,3,8,10,14"
15035,commdev-image-keyboard-response,348,1080631,learnblock1,821.1000003814697,img/planet3_left.png,3,Community 3,NA,TRUE,f,f,NA,NA,NA,1,7,"5,6,12,9,1,11,2,13,7,4,15,3,8,10,14"
15035,commdev-image-keyboard-response,349,1081882,learnblock1,641.1000003814697,img/planet14_left.png,14,Community 3,NA,TRUE,f,f,NA,NA,NA,1,7,"5,6,12,9,1,11,2,13,7,4,15,3,8,10,14"
15035,commdev-image-keyboard-response,350,1083134,learnblock1,613.2999997138977,img/planet15_right.png,15,Community 3,NA,TRUE,j,j,NA,NA,NA,1,7,"5,6,12,9,1,11,2,13,7,4,15,3,8,10,14"
15035,commdev-image-keyboard-response,351,1084386,learnblock1,609.1999998092651,img/planet10_right.png,10,Community 3,NA,TRUE,j,j,NA,NA,NA,1,7,"5,6,12,9,1,11,2,13,7,4,15,3,8,10,14"
15035,commdev-image-keyboard-response,352,1085638,learnblock1,605.4000000953674,img/planet15_right.png,15,Community 3,NA,TRUE,j,j,NA,NA,NA,1,7,"5,6,12,9,1,11,2,13,7,4,15,3,8,10,14"
15035,commdev-image-keyboard-response,353,1086890,learnblock1,473.7000002861023,img/planet10_right.png,10,Community 3,NA,TRUE,j,j,NA,NA,NA,1,7,"5,6,12,9,1,11,2,13,7,4,15,3,8,10,14"
15035,commdev-image-keyboard-response,354,1088142,learnblock1,525.5999999046326,img/planet3_left.png,3,Community 3,NA,TRUE,f,f,NA,NA,NA,1,7,"5,6,12,9,1,11,2,13,7,4,15,3,8,10,14"
15035,commdev-image-keyboard-response,355,1089393,learnblock1,634.4000000953674,img/planet14_right.png,14,Community 3,NA,TRUE,j,j,NA,NA,NA,1,7,"5,6,12,9,1,11,2,13,7,4,15,3,8,10,14"
15035,commdev-image-keyboard-response,356,1090644,learnblock1,775.2000002861023,img/planet8_left.png,8,Community 3,NA,TRUE,f,f,NA,NA,NA,1,7,"5,6,12,9,1,11,2,13,7,4,15,3,8,10,14"
15035,commdev-image-keyboard-response,357,1091895,learnblock1,764.1000003814697,img/planet3_left.png,3,Community 3,NA,TRUE,f,f,NA,NA,NA,1,7,"5,6,12,9,1,11,2,13,7,4,15,3,8,10,14"
15035,commdev-image-keyboard-response,358,1093146,learnblock1,752.2999997138977,img/planet8_right.png,8,Community 3,NA,TRUE,j,j,NA,NA,NA,1,7,"5,6,12,9,1,11,2,13,7,4,15,3,8,10,14"
15035,commdev-image-keyboard-response,359,1094398,learnblock1,668.7000002861023,img/planet14_right.png,14,Community 3,NA,TRUE,j,j,NA,NA,NA,1,7,"5,6,12,9,1,11,2,13,7,4,15,3,8,10,14"
15035,commdev-image-keyboard-response,360,1095651,learnblock1,609.2999997138977,img/planet3_right.png,3,Community 3,NA,TRUE,j,j,NA,NA,NA,1,7,"5,6,12,9,1,11,2,13,7,4,15,3,8,10,14"
15035,commdev-image-keyboard-response,361,1096902,learnblock1,548.6999998092651,img/planet14_left.png,14,Community 3,NA,TRUE,f,f,NA,NA,NA,1,7,"5,6,12,9,1,11,2,13,7,4,15,3,8,10,14"
15035,commdev-image-keyboard-response,362,1098154,learnblock1,553.4000000953674,img/planet8_left.png,8,Community 3,NA,TRUE,f,f,NA,NA,NA,1,7,"5,6,12,9,1,11,2,13,7,4,15,3,8,10,14"
15035,commdev-image-keyboard-response,363,1099405,learnblock1,549.4000000953674,img/planet14_right.png,14,Community 3,NA,TRUE,j,j,NA,NA,NA,1,7,"5,6,12,9,1,11,2,13,7,4,15,3,8,10,14"
15035,commdev-image-keyboard-response,364,1100657,learnblock1,690.7000002861023,img/planet10_right.png,10,Community 3,NA,TRUE,j,j,NA,NA,NA,1,7,"5,6,12,9,1,11,2,13,7,4,15,3,8,10,14"
15035,commdev-image-keyboard-response,365,1101909,learnblock1,646.6999998092651,img/planet3_left.png,3,Community 3,NA,FALSE,j,f,NA,NA,NA,1,7,"5,6,12,9,1,11,2,13,7,4,15,3,8,10,14"
15035,commdev-image-keyboard-response,366,1103160,learnblock1,562.9000000953674,img/planet14_right.png,14,Community 3,NA,TRUE,j,j,NA,NA,NA,1,7,"5,6,12,9,1,11,2,13,7,4,15,3,8,10,14"
15035,commdev-image-keyboard-response,367,1104412,learnblock1,511.40000009536743,img/planet8_right.png,8,Community 3,NA,TRUE,j,j,NA,NA,NA,1,7,"5,6,12,9,1,11,2,13,7,4,15,3,8,10,14"
15035,commdev-image-keyboard-response,368,1105664,learnblock1,515.5,img/planet10_left.png,10,Community 3,NA,TRUE,f,f,NA,NA,NA,1,7,"5,6,12,9,1,11,2,13,7,4,15,3,8,10,14"
15035,commdev-image-keyboard-response,369,1106925,learnblock1,688.1000003814697,img/planet8_left.png,8,Community 3,NA,TRUE,f,f,NA,NA,NA,1,7,"5,6,12,9,1,11,2,13,7,4,15,3,8,10,14"
15035,commdev-image-keyboard-response,370,1108177,learnblock1,634.3000001907349,img/planet3_left.png,3,Community 3,NA,TRUE,f,f,NA,NA,NA,1,7,"5,6,12,9,1,11,2,13,7,4,15,3,8,10,14"
15035,commdev-image-keyboard-response,371,1109429,learnblock1,678.6999998092651,img/planet8_left.png,8,Community 3,NA,TRUE,f,f,NA,NA,NA,1,7,"5,6,12,9,1,11,2,13,7,4,15,3,8,10,14"
15035,commdev-image-keyboard-response,372,1110680,learnblock1,570.8999996185303,img/planet3_left.png,3,Community 3,NA,TRUE,f,f,NA,NA,NA,1,7,"5,6,12,9,1,11,2,13,7,4,15,3,8,10,14"
15035,commdev-image-keyboard-response,373,1111931,learnblock1,680.1999998092651,img/planet8_left.png,8,Community 3,NA,TRUE,f,f,NA,NA,NA,1,7,"5,6,12,9,1,11,2,13,7,4,15,3,8,10,14"
15035,commdev-image-keyboard-response,374,1113183,learnblock1,492.09999990463257,img/planet3_left.png,3,Community 3,NA,TRUE,f,f,NA,NA,NA,1,7,"5,6,12,9,1,11,2,13,7,4,15,3,8,10,14"
15035,commdev-image-keyboard-response,375,1114434,learnblock1,480.59999990463257,img/planet14_left.png,14,Community 3,NA,TRUE,f,f,NA,NA,NA,1,7,"5,6,12,9,1,11,2,13,7,4,15,3,8,10,14"
15035,commdev-image-keyboard-response,376,1115685,learnblock1,510.2999997138977,img/planet3_left.png,3,Community 3,NA,TRUE,f,f,NA,NA,NA,1,7,"5,6,12,9,1,11,2,13,7,4,15,3,8,10,14"
15035,commdev-image-keyboard-response,377,1116937,learnblock1,618.2000002861023,img/planet10_right.png,10,Community 3,NA,TRUE,j,j,NA,NA,NA,1,7,"5,6,12,9,1,11,2,13,7,4,15,3,8,10,14"
15035,commdev-image-keyboard-response,378,1118189,learnblock1,702.2000002861023,img/planet3_right.png,3,Community 3,NA,TRUE,j,j,NA,NA,NA,1,7,"5,6,12,9,1,11,2,13,7,4,15,3,8,10,14"
15035,commdev-image-keyboard-response,379,1119440,learnblock1,611.0999999046326,img/planet8_right.png,8,Community 3,NA,TRUE,j,j,NA,NA,NA,1,7,"5,6,12,9,1,11,2,13,7,4,15,3,8,10,14"
15035,commdev-image-keyboard-response,380,1120692,learnblock1,487.6000003814697,img/planet10_left.png,10,Community 3,NA,FALSE,j,f,NA,NA,NA,1,7,"5,6,12,9,1,11,2,13,7,4,15,3,8,10,14"
15035,commdev-image-keyboard-response,381,1121944,learnblock1,19.100000381469727,img/planet8_right.png,8,Community 3,NA,FALSE,f,j,NA,NA,NA,1,7,"5,6,12,9,1,11,2,13,7,4,15,3,8,10,14"
15035,commdev-image-keyboard-response,382,1123195,learnblock1,607.7999997138977,img/planet10_right.png,10,Community 3,NA,TRUE,j,j,NA,NA,NA,1,7,"5,6,12,9,1,11,2,13,7,4,15,3,8,10,14"
15035,commdev-image-keyboard-response,383,1124446,learnblock1,684.5999999046326,img/planet15_right.png,15,Community 3,NA,TRUE,j,j,NA,NA,NA,1,7,"5,6,12,9,1,11,2,13,7,4,15,3,8,10,14"
15035,commdev-image-keyboard-response,384,1125698,learnblock1,585,img/planet8_right.png,8,Community 3,NA,TRUE,j,j,NA,NA,NA,1,7,"5,6,12,9,1,11,2,13,7,4,15,3,8,10,14"
15035,commdev-image-keyboard-response,385,1126949,learnblock1,477.7000002861023,img/planet10_right.png,10,Community 3,NA,TRUE,j,j,NA,NA,NA,1,7,"5,6,12,9,1,11,2,13,7,4,15,3,8,10,14"
15035,commdev-image-keyboard-response,386,1128201,learnblock1,625.3000001907349,img/planet15_right.png,15,Community 3,NA,TRUE,j,j,NA,NA,NA,1,7,"5,6,12,9,1,11,2,13,7,4,15,3,8,10,14"
15035,commdev-image-keyboard-response,387,1129453,learnblock1,517,img/planet10_right.png,10,Community 3,NA,TRUE,j,j,NA,NA,NA,1,7,"5,6,12,9,1,11,2,13,7,4,15,3,8,10,14"
15035,commdev-image-keyboard-response,388,1130706,learnblock1,602,img/planet3_right.png,3,Community 3,NA,TRUE,j,j,NA,NA,NA,1,7,"5,6,12,9,1,11,2,13,7,4,15,3,8,10,14"
15035,commdev-image-keyboard-response,389,1131958,learnblock1,717.5,img/planet8_right.png,8,Community 3,NA,TRUE,j,j,NA,NA,NA,1,7,"5,6,12,9,1,11,2,13,7,4,15,3,8,10,14"
15035,commdev-image-keyboard-response,390,1133209,learnblock1,651.8999996185303,img/planet15_right.png,15,Community 3,NA,TRUE,j,j,NA,NA,NA,1,7,"5,6,12,9,1,11,2,13,7,4,15,3,8,10,14"
15035,commdev-image-keyboard-response,391,1134461,learnblock1,646.1999998092651,img/planet10_left.png,10,Community 3,NA,TRUE,f,f,NA,NA,NA,1,7,"5,6,12,9,1,11,2,13,7,4,15,3,8,10,14"
15035,commdev-image-keyboard-response,392,1135713,learnblock1,706,img/planet3_left.png,3,Community 3,NA,TRUE,f,f,NA,NA,NA,1,7,"5,6,12,9,1,11,2,13,7,4,15,3,8,10,14"
15035,commdev-image-keyboard-response,393,1136965,learnblock1,574.2000002861023,img/planet8_right.png,8,Community 3,NA,TRUE,j,j,NA,NA,NA,1,7,"5,6,12,9,1,11,2,13,7,4,15,3,8,10,14"
15035,commdev-image-keyboard-response,394,1138217,learnblock1,569.0999999046326,img/planet10_right.png,10,Community 3,NA,TRUE,j,j,NA,NA,NA,1,7,"5,6,12,9,1,11,2,13,7,4,15,3,8,10,14"
15035,commdev-image-keyboard-response,395,1139468,learnblock1,534.5999999046326,img/planet8_right.png,8,Community 3,NA,TRUE,j,j,NA,NA,NA,1,7,"5,6,12,9,1,11,2,13,7,4,15,3,8,10,14"
15035,commdev-image-keyboard-response,396,1140720,learnblock1,731.3000001907349,img/planet14_left.png,14,Community 3,NA,TRUE,f,f,NA,NA,NA,1,7,"5,6,12,9,1,11,2,13,7,4,15,3,8,10,14"
15035,commdev-image-keyboard-response,397,1141971,learnblock1,767.9000000953674,img/planet10_right.png,10,Community 3,NA,TRUE,j,j,NA,NA,NA,1,7,"5,6,12,9,1,11,2,13,7,4,15,3,8,10,14"
15035,commdev-image-keyboard-response,398,1143222,learnblock1,773.1999998092651,img/planet14_left.png,14,Community 3,NA,TRUE,f,f,NA,NA,NA,1,7,"5,6,12,9,1,11,2,13,7,4,15,3,8,10,14"
15035,commdev-image-keyboard-response,399,1144474,learnblock1,641.5,img/planet3_left.png,3,Community 3,NA,TRUE,f,f,NA,NA,NA,1,7,"5,6,12,9,1,11,2,13,7,4,15,3,8,10,14"
15035,commdev-image-keyboard-response,400,1145725,learnblock1,589.1999998092651,img/planet13_left.png,13,Community 2,NA,TRUE,f,f,NA,NA,NA,1,7,"5,6,12,9,1,11,2,13,7,4,15,3,8,10,14"
15035,commdev-image-keyboard-response,401,1146977,learnblock1,530.3000001907349,img/planet2_left.png,2,Community 2,NA,TRUE,f,f,NA,NA,NA,1,7,"5,6,12,9,1,11,2,13,7,4,15,3,8,10,14"
15035,commdev-image-keyboard-response,402,1148228,learnblock1,542.9000000953674,img/planet11_left.png,11,Community 2,NA,TRUE,f,f,NA,NA,NA,1,7,"5,6,12,9,1,11,2,13,7,4,15,3,8,10,14"
15035,commdev-image-keyboard-response,403,1149479,learnblock1,347.2999997138977,img/planet9_right.png,9,Community 1,NA,FALSE,f,j,NA,NA,NA,1,7,"5,6,12,9,1,11,2,13,7,4,15,3,8,10,14"
15035,commdev-image-keyboard-response,404,1150730,learnblock1,616.2999997138977,img/planet5_left.png,5,Community 1,NA,TRUE,f,f,NA,NA,NA,1,7,"5,6,12,9,1,11,2,13,7,4,15,3,8,10,14"
15035,commdev-image-keyboard-response,405,1151981,learnblock1,557.3000001907349,img/planet9_left.png,9,Community 1,NA,TRUE,f,f,NA,NA,NA,1,7,"5,6,12,9,1,11,2,13,7,4,15,3,8,10,14"
15035,commdev-image-keyboard-response,406,1153232,learnblock1,650.3000001907349,img/planet6_left.png,6,Community 1,NA,TRUE,f,f,NA,NA,NA,1,7,"5,6,12,9,1,11,2,13,7,4,15,3,8,10,14"
15035,commdev-image-keyboard-response,407,1154484,learnblock1,599.7999997138977,img/planet5_right.png,5,Community 1,NA,TRUE,j,j,NA,NA,NA,1,7,"5,6,12,9,1,11,2,13,7,4,15,3,8,10,14"
15035,commdev-image-keyboard-response,408,1155747,learnblock1,667.0999999046326,img/planet9_right.png,9,Community 1,NA,TRUE,j,j,NA,NA,NA,1,7,"5,6,12,9,1,11,2,13,7,4,15,3,8,10,14"
15035,commdev-image-keyboard-response,409,1157007,learnblock1,644.2999997138977,img/planet12_left.png,12,Community 1,NA,TRUE,f,f,NA,NA,NA,1,7,"5,6,12,9,1,11,2,13,7,4,15,3,8,10,14"
15035,commdev-image-keyboard-response,410,1158259,learnblock1,584.5,img/planet6_left.png,6,Community 1,NA,TRUE,f,f,NA,NA,NA,1,7,"5,6,12,9,1,11,2,13,7,4,15,3,8,10,14"
15035,commdev-image-keyboard-response,411,1159511,learnblock1,620.9000000953674,img/planet12_right.png,12,Community 1,NA,TRUE,j,j,NA,NA,NA,1,7,"5,6,12,9,1,11,2,13,7,4,15,3,8,10,14"
15035,commdev-image-keyboard-response,412,1160762,learnblock1,649,img/planet9_right.png,9,Community 1,NA,TRUE,j,j,NA,NA,NA,1,7,"5,6,12,9,1,11,2,13,7,4,15,3,8,10,14"
15035,commdev-image-keyboard-response,413,1162014,learnblock1,620.5999999046326,img/planet5_right.png,5,Community 1,NA,TRUE,j,j,NA,NA,NA,1,7,"5,6,12,9,1,11,2,13,7,4,15,3,8,10,14"
15035,commdev-image-keyboard-response,414,1163266,learnblock1,568.8000001907349,img/planet9_left.png,9,Community 1,NA,FALSE,j,f,NA,NA,NA,1,7,"5,6,12,9,1,11,2,13,7,4,15,3,8,10,14"
15035,commdev-image-keyboard-response,415,1164517,learnblock1,589.5,img/planet11_right.png,11,Community 2,NA,TRUE,j,j,NA,NA,NA,1,7,"5,6,12,9,1,11,2,13,7,4,15,3,8,10,14"
15035,commdev-image-keyboard-response,416,1165769,learnblock1,602.0999999046326,img/planet9_right.png,9,Community 1,NA,TRUE,j,j,NA,NA,NA,1,7,"5,6,12,9,1,11,2,13,7,4,15,3,8,10,14"
15035,commdev-image-keyboard-response,417,1167020,learnblock1,550.5999999046326,img/planet11_right.png,11,Community 2,NA,TRUE,j,j,NA,NA,NA,1,7,"5,6,12,9,1,11,2,13,7,4,15,3,8,10,14"
15035,commdev-image-keyboard-response,418,1168272,learnblock1,467.30000019073486,img/planet9_right.png,9,Community 1,NA,TRUE,j,j,NA,NA,NA,1,7,"5,6,12,9,1,11,2,13,7,4,15,3,8,10,14"
15035,commdev-image-keyboard-response,419,1169524,learnblock1,583.6000003814697,img/planet12_right.png,12,Community 1,NA,TRUE,j,j,NA,NA,NA,1,7,"5,6,12,9,1,11,2,13,7,4,15,3,8,10,14"
15035,commdev-image-keyboard-response,420,1170775,learnblock1,699.8999996185303,img/planet6_left.png,6,Community 1,NA,TRUE,f,f,NA,NA,NA,1,7,"5,6,12,9,1,11,2,13,7,4,15,3,8,10,14"
15035,commdev-image-keyboard-response,421,1172027,learnblock1,599.9000000953674,img/planet12_left.png,12,Community 1,NA,TRUE,f,f,NA,NA,NA,1,7,"5,6,12,9,1,11,2,13,7,4,15,3,8,10,14"
15035,commdev-image-keyboard-response,422,1173279,learnblock1,580.9000000953674,img/planet5_right.png,5,Community 1,NA,TRUE,j,j,NA,NA,NA,1,7,"5,6,12,9,1,11,2,13,7,4,15,3,8,10,14"
15035,commdev-image-keyboard-response,423,1174530,learnblock1,504.59999990463257,img/planet12_left.png,12,Community 1,NA,TRUE,f,f,NA,NA,NA,1,7,"5,6,12,9,1,11,2,13,7,4,15,3,8,10,14"
15035,commdev-image-keyboard-response,424,1175782,learnblock1,493.59999990463257,img/planet9_right.png,9,Community 1,NA,TRUE,j,j,NA,NA,NA,1,7,"5,6,12,9,1,11,2,13,7,4,15,3,8,10,14"
15035,commdev-image-keyboard-response,425,1177034,learnblock1,681.4000000953674,img/planet11_left.png,11,Community 2,NA,TRUE,f,f,NA,NA,NA,1,7,"5,6,12,9,1,11,2,13,7,4,15,3,8,10,14"
15035,commdev-image-keyboard-response,429,1364053,learnblock2,869.2999997138977,img/planet6_left.png,6,Community 1,NA,TRUE,f,f,NA,NA,NA,1,7,"5,6,12,9,1,11,2,13,7,4,15,3,8,10,14"
15035,commdev-image-keyboard-response,430,1365304,learnblock2,481.5,img/planet12_right.png,12,Community 1,NA,TRUE,j,j,NA,NA,NA,1,7,"5,6,12,9,1,11,2,13,7,4,15,3,8,10,14"
15035,commdev-image-keyboard-response,431,1366556,learnblock2,511,img/planet1_left.png,1,Community 1,NA,TRUE,f,f,NA,NA,NA,1,7,"5,6,12,9,1,11,2,13,7,4,15,3,8,10,14"
15035,commdev-image-keyboard-response,432,1367807,learnblock2,388.09999990463257,img/planet6_right.png,6,Community 1,NA,TRUE,j,j,NA,NA,NA,1,7,"5,6,12,9,1,11,2,13,7,4,15,3,8,10,14"
15035,commdev-image-keyboard-response,433,1369058,learnblock2,608.2000002861023,img/planet9_right.png,9,Community 1,NA,TRUE,j,j,NA,NA,NA,1,7,"5,6,12,9,1,11,2,13,7,4,15,3,8,10,14"
15035,commdev-image-keyboard-response,434,1370310,learnblock2,605.5,img/planet11_right.png,11,Community 2,NA,TRUE,j,j,NA,NA,NA,1,7,"5,6,12,9,1,11,2,13,7,4,15,3,8,10,14"
15035,commdev-image-keyboard-response,435,1371563,learnblock2,481.80000019073486,img/planet2_right.png,2,Community 2,NA,TRUE,j,j,NA,NA,NA,1,7,"5,6,12,9,1,11,2,13,7,4,15,3,8,10,14"
15035,commdev-image-keyboard-response,436,1372814,learnblock2,756.5,img/planet13_right.png,13,Community 2,NA,TRUE,j,j,NA,NA,NA,1,7,"5,6,12,9,1,11,2,13,7,4,15,3,8,10,14"
15035,commdev-image-keyboard-response,437,1374066,learnblock2,552.6999998092651,img/planet2_right.png,2,Community 2,NA,TRUE,j,j,NA,NA,NA,1,7,"5,6,12,9,1,11,2,13,7,4,15,3,8,10,14"
15035,commdev-image-keyboard-response,438,1375317,learnblock2,469.19999980926514,img/planet4_right.png,4,Community 2,NA,TRUE,j,j,NA,NA,NA,1,7,"5,6,12,9,1,11,2,13,7,4,15,3,8,10,14"
15035,commdev-image-keyboard-response,439,1376570,learnblock2,529.9000000953674,img/planet2_right.png,2,Community 2,NA,TRUE,j,j,NA,NA,NA,1,7,"5,6,12,9,1,11,2,13,7,4,15,3,8,10,14"
15035,commdev-image-keyboard-response,440,1377821,learnblock2,542.2999997138977,img/planet4_left.png,4,Community 2,NA,TRUE,f,f,NA,NA,NA,1,7,"5,6,12,9,1,11,2,13,7,4,15,3,8,10,14"
15035,commdev-image-keyboard-response,441,1379073,learnblock2,522,img/planet13_right.png,13,Community 2,NA,TRUE,j,j,NA,NA,NA,1,7,"5,6,12,9,1,11,2,13,7,4,15,3,8,10,14"
15035,commdev-image-keyboard-response,442,1380330,learnblock2,517.5,img/planet4_left.png,4,Community 2,NA,TRUE,f,f,NA,NA,NA,1,7,"5,6,12,9,1,11,2,13,7,4,15,3,8,10,14"
15035,commdev-image-keyboard-response,443,1381581,learnblock2,549.5,img/planet7_left.png,7,Community 2,NA,TRUE,f,f,NA,NA,NA,1,7,"5,6,12,9,1,11,2,13,7,4,15,3,8,10,14"
15035,commdev-image-keyboard-response,444,1382833,learnblock2,506.5,img/planet4_left.png,4,Community 2,NA,TRUE,f,f,NA,NA,NA,1,7,"5,6,12,9,1,11,2,13,7,4,15,3,8,10,14"
15035,commdev-image-keyboard-response,445,1384085,learnblock2,446.2000002861023,img/planet11_left.png,11,Community 2,NA,TRUE,f,f,NA,NA,NA,1,7,"5,6,12,9,1,11,2,13,7,4,15,3,8,10,14"
15035,commdev-image-keyboard-response,446,1385337,learnblock2,490.40000009536743,img/planet9_right.png,9,Community 1,NA,TRUE,j,j,NA,NA,NA,1,7,"5,6,12,9,1,11,2,13,7,4,15,3,8,10,14"
15035,commdev-image-keyboard-response,447,1386588,learnblock2,486.59999990463257,img/planet6_right.png,6,Community 1,NA,TRUE,j,j,NA,NA,NA,1,7,"5,6,12,9,1,11,2,13,7,4,15,3,8,10,14"
15035,commdev-image-keyboard-response,448,1387839,learnblock2,467.30000019073486,img/planet5_right.png,5,Community 1,NA,TRUE,j,j,NA,NA,NA,1,7,"5,6,12,9,1,11,2,13,7,4,15,3,8,10,14"
15035,commdev-image-keyboard-response,449,1389091,learnblock2,528.7000002861023,img/planet1_left.png,1,Community 1,NA,TRUE,f,f,NA,NA,NA,1,7,"5,6,12,9,1,11,2,13,7,4,15,3,8,10,14"
15035,commdev-image-keyboard-response,450,1390342,learnblock2,524.3999996185303,img/planet15_right.png,15,Community 3,NA,TRUE,j,j,NA,NA,NA,1,7,"5,6,12,9,1,11,2,13,7,4,15,3,8,10,14"
15035,commdev-image-keyboard-response,451,1391595,learnblock2,633.0999999046326,img/planet14_right.png,14,Community 3,NA,TRUE,j,j,NA,NA,NA,1,7,"5,6,12,9,1,11,2,13,7,4,15,3,8,10,14"
15035,commdev-image-keyboard-response,452,1392846,learnblock2,973.0999999046326,img/planet3_right.png,3,Community 3,NA,TRUE,j,j,NA,NA,NA,1,7,"5,6,12,9,1,11,2,13,7,4,15,3,8,10,14"
15035,commdev-image-keyboard-response,453,1394098,learnblock2,593.2000002861023,img/planet14_right.png,14,Community 3,NA,TRUE,j,j,NA,NA,NA,1,7,"5,6,12,9,1,11,2,13,7,4,15,3,8,10,14"
15035,commdev-image-keyboard-response,454,1395349,learnblock2,566,img/planet15_left.png,15,Community 3,NA,TRUE,f,f,NA,NA,NA,1,7,"5,6,12,9,1,11,2,13,7,4,15,3,8,10,14"
15035,commdev-image-keyboard-response,455,1396601,learnblock2,571.4000000953674,img/planet14_right.png,14,Community 3,NA,TRUE,j,j,NA,NA,NA,1,7,"5,6,12,9,1,11,2,13,7,4,15,3,8,10,14"
15035,commdev-image-keyboard-response,456,1397852,learnblock2,502.7999997138977,img/planet8_right.png,8,Community 3,NA,TRUE,j,j,NA,NA,NA,1,7,"5,6,12,9,1,11,2,13,7,4,15,3,8,10,14"
15035,commdev-image-keyboard-response,457,1399103,learnblock2,595.8000001907349,img/planet14_right.png,14,Community 3,NA,TRUE,j,j,NA,NA,NA,1,7,"5,6,12,9,1,11,2,13,7,4,15,3,8,10,14"
15035,commdev-image-keyboard-response,458,1400355,learnblock2,696.2999997138977,img/planet15_right.png,15,Community 3,NA,TRUE,j,j,NA,NA,NA,1,7,"5,6,12,9,1,11,2,13,7,4,15,3,8,10,14"
15035,commdev-image-keyboard-response,459,1401607,learnblock2,572.6999998092651,img/planet8_left.png,8,Community 3,NA,TRUE,f,f,NA,NA,NA,1,7,"5,6,12,9,1,11,2,13,7,4,15,3,8,10,14"
15035,commdev-image-keyboard-response,460,1402859,learnblock2,528.7999997138977,img/planet3_right.png,3,Community 3,NA,TRUE,j,j,NA,NA,NA,1,7,"5,6,12,9,1,11,2,13,7,4,15,3,8,10,14"
15035,commdev-image-keyboard-response,461,1404110,learnblock2,708.7999997138977,img/planet14_left.png,14,Community 3,NA,TRUE,f,f,NA,NA,NA,1,7,"5,6,12,9,1,11,2,13,7,4,15,3,8,10,14"
15035,commdev-image-keyboard-response,462,1405363,learnblock2,697.1999998092651,img/planet8_left.png,8,Community 3,NA,TRUE,f,f,NA,NA,NA,1,7,"5,6,12,9,1,11,2,13,7,4,15,3,8,10,14"
15035,commdev-image-keyboard-response,463,1406614,learnblock2,564.7999997138977,img/planet3_right.png,3,Community 3,NA,TRUE,j,j,NA,NA,NA,1,7,"5,6,12,9,1,11,2,13,7,4,15,3,8,10,14"
15035,commdev-image-keyboard-response,464,1407865,learnblock2,497.59999990463257,img/planet13_right.png,13,Community 2,NA,TRUE,j,j,NA,NA,NA,1,7,"5,6,12,9,1,11,2,13,7,4,15,3,8,10,14"
15035,commdev-image-keyboard-response,465,1409117,learnblock2,462.09999990463257,img/planet2_left.png,2,Community 2,NA,TRUE,f,f,NA,NA,NA,1,7,"5,6,12,9,1,11,2,13,7,4,15,3,8,10,14"
15035,commdev-image-keyboard-response,466,1410371,learnblock2,450.80000019073486,img/planet13_left.png,13,Community 2,NA,TRUE,f,f,NA,NA,NA,1,7,"5,6,12,9,1,11,2,13,7,4,15,3,8,10,14"
15035,commdev-image-keyboard-response,467,1411622,learnblock2,508.40000009536743,img/planet3_left.png,3,Community 3,NA,TRUE,f,f,NA,NA,NA,1,7,"5,6,12,9,1,11,2,13,7,4,15,3,8,10,14"
15035,commdev-image-keyboard-response,468,1412874,learnblock2,457.40000009536743,img/planet10_left.png,10,Community 3,NA,TRUE,f,f,NA,NA,NA,1,7,"5,6,12,9,1,11,2,13,7,4,15,3,8,10,14"
15035,commdev-image-keyboard-response,469,1414125,learnblock2,509.59999990463257,img/planet3_right.png,3,Community 3,NA,TRUE,j,j,NA,NA,NA,1,7,"5,6,12,9,1,11,2,13,7,4,15,3,8,10,14"
15035,commdev-image-keyboard-response,470,1415377,learnblock2,522.3000001907349,img/planet14_right.png,14,Community 3,NA,TRUE,j,j,NA,NA,NA,1,7,"5,6,12,9,1,11,2,13,7,4,15,3,8,10,14"
15035,commdev-image-keyboard-response,471,1416629,learnblock2,550.3999996185303,img/planet3_right.png,3,Community 3,NA,TRUE,j,j,NA,NA,NA,1,7,"5,6,12,9,1,11,2,13,7,4,15,3,8,10,14"
15035,commdev-image-keyboard-response,472,1417881,learnblock2,442.90000009536743,img/planet10_right.png,10,Community 3,NA,TRUE,j,j,NA,NA,NA,1,7,"5,6,12,9,1,11,2,13,7,4,15,3,8,10,14"
15035,commdev-image-keyboard-response,473,1419132,learnblock2,566.8000001907349,img/planet15_left.png,15,Community 3,NA,TRUE,f,f,NA,NA,NA,1,7,"5,6,12,9,1,11,2,13,7,4,15,3,8,10,14"
15035,commdev-image-keyboard-response,474,1420385,learnblock2,651.0999999046326,img/planet8_right.png,8,Community 3,NA,TRUE,j,j,NA,NA,NA,1,7,"5,6,12,9,1,11,2,13,7,4,15,3,8,10,14"
15035,commdev-image-keyboard-response,475,1421636,learnblock2,951.0999999046326,img/planet10_right.png,10,Community 3,NA,TRUE,j,j,NA,NA,NA,1,7,"5,6,12,9,1,11,2,13,7,4,15,3,8,10,14"
15035,commdev-image-keyboard-response,476,1422887,learnblock2,659.8000001907349,img/planet14_right.png,14,Community 3,NA,TRUE,j,j,NA,NA,NA,1,7,"5,6,12,9,1,11,2,13,7,4,15,3,8,10,14"
15035,commdev-image-keyboard-response,477,1424139,learnblock2,656.5,img/planet8_left.png,8,Community 3,NA,TRUE,f,f,NA,NA,NA,1,7,"5,6,12,9,1,11,2,13,7,4,15,3,8,10,14"
15035,commdev-image-keyboard-response,478,1425391,learnblock2,516.1999998092651,img/planet3_right.png,3,Community 3,NA,TRUE,j,j,NA,NA,NA,1,7,"5,6,12,9,1,11,2,13,7,4,15,3,8,10,14"
15035,commdev-image-keyboard-response,479,1426642,learnblock2,473.09999990463257,img/planet14_right.png,14,Community 3,NA,TRUE,j,j,NA,NA,NA,1,7,"5,6,12,9,1,11,2,13,7,4,15,3,8,10,14"
15035,commdev-image-keyboard-response,480,1427894,learnblock2,485.40000009536743,img/planet3_left.png,3,Community 3,NA,TRUE,f,f,NA,NA,NA,1,7,"5,6,12,9,1,11,2,13,7,4,15,3,8,10,14"
15035,commdev-image-keyboard-response,481,1429146,learnblock2,545.4000000953674,img/planet8_left.png,8,Community 3,NA,TRUE,f,f,NA,NA,NA,1,7,"5,6,12,9,1,11,2,13,7,4,15,3,8,10,14"
15035,commdev-image-keyboard-response,482,1430398,learnblock2,693.7000002861023,img/planet15_left.png,15,Community 3,NA,TRUE,f,f,NA,NA,NA,1,7,"5,6,12,9,1,11,2,13,7,4,15,3,8,10,14"
15035,commdev-image-keyboard-response,483,1431650,learnblock2,641.5,img/planet8_right.png,8,Community 3,NA,TRUE,j,j,NA,NA,NA,1,7,"5,6,12,9,1,11,2,13,7,4,15,3,8,10,14"
15035,commdev-image-keyboard-response,484,1432902,learnblock2,500.90000009536743,img/planet3_left.png,3,Community 3,NA,TRUE,f,f,NA,NA,NA,1,7,"5,6,12,9,1,11,2,13,7,4,15,3,8,10,14"
15035,commdev-image-keyboard-response,485,1434154,learnblock2,545.8000001907349,img/planet8_left.png,8,Community 3,NA,TRUE,f,f,NA,NA,NA,1,7,"5,6,12,9,1,11,2,13,7,4,15,3,8,10,14"
15035,commdev-image-keyboard-response,486,1435406,learnblock2,445.69999980926514,img/planet10_left.png,10,Community 3,NA,TRUE,f,f,NA,NA,NA,1,7,"5,6,12,9,1,11,2,13,7,4,15,3,8,10,14"
15035,commdev-image-keyboard-response,487,1436658,learnblock2,529.3999996185303,img/planet8_right.png,8,Community 3,NA,TRUE,j,j,NA,NA,NA,1,7,"5,6,12,9,1,11,2,13,7,4,15,3,8,10,14"
15035,commdev-image-keyboard-response,488,1437910,learnblock2,549.8000001907349,img/planet3_right.png,3,Community 3,NA,TRUE,j,j,NA,NA,NA,1,7,"5,6,12,9,1,11,2,13,7,4,15,3,8,10,14"
15035,commdev-image-keyboard-response,489,1439162,learnblock2,1034.0999999046326,img/planet13_left.png,13,Community 2,NA,TRUE,f,f,NA,NA,NA,1,7,"5,6,12,9,1,11,2,13,7,4,15,3,8,10,14"
15035,commdev-image-keyboard-response,490,1440412,learnblock2,494.09999990463257,img/planet3_left.png,3,Community 3,NA,TRUE,f,f,NA,NA,NA,1,7,"5,6,12,9,1,11,2,13,7,4,15,3,8,10,14"
15035,commdev-image-keyboard-response,491,1441665,learnblock2,484.2999997138977,img/planet13_right.png,13,Community 2,NA,TRUE,j,j,NA,NA,NA,1,7,"5,6,12,9,1,11,2,13,7,4,15,3,8,10,14"
15035,commdev-image-keyboard-response,492,1442917,learnblock2,550.0999999046326,img/planet4_right.png,4,Community 2,NA,TRUE,j,j,NA,NA,NA,1,7,"5,6,12,9,1,11,2,13,7,4,15,3,8,10,14"
15035,commdev-image-keyboard-response,493,1444168,learnblock2,482.90000009536743,img/planet11_right.png,11,Community 2,NA,TRUE,j,j,NA,NA,NA,1,7,"5,6,12,9,1,11,2,13,7,4,15,3,8,10,14"
15035,commdev-image-keyboard-response,494,1445419,learnblock2,529.4000000953674,img/planet7_right.png,7,Community 2,NA,TRUE,j,j,NA,NA,NA,1,7,"5,6,12,9,1,11,2,13,7,4,15,3,8,10,14"
15035,commdev-image-keyboard-response,495,1446671,learnblock2,604.6999998092651,img/planet11_right.png,11,Community 2,NA,TRUE,j,j,NA,NA,NA,1,7,"5,6,12,9,1,11,2,13,7,4,15,3,8,10,14"
15035,commdev-image-keyboard-response,496,1447922,learnblock2,521.1000003814697,img/planet4_right.png,4,Community 2,NA,TRUE,j,j,NA,NA,NA,1,7,"5,6,12,9,1,11,2,13,7,4,15,3,8,10,14"
15035,commdev-image-keyboard-response,497,1449174,learnblock2,638.1999998092651,img/planet7_left.png,7,Community 2,NA,TRUE,f,f,NA,NA,NA,1,7,"5,6,12,9,1,11,2,13,7,4,15,3,8,10,14"
15035,commdev-image-keyboard-response,498,1450425,learnblock2,657.9000000953674,img/planet4_right.png,4,Community 2,NA,TRUE,j,j,NA,NA,NA,1,7,"5,6,12,9,1,11,2,13,7,4,15,3,8,10,14"
15035,commdev-image-keyboard-response,499,1451677,learnblock2,574.8999996185303,img/planet13_right.png,13,Community 2,NA,TRUE,j,j,NA,NA,NA,1,7,"5,6,12,9,1,11,2,13,7,4,15,3,8,10,14"
15035,commdev-image-keyboard-response,500,1452928,learnblock2,635.2000002861023,img/planet2_left.png,2,Community 2,NA,TRUE,f,f,NA,NA,NA,1,7,"5,6,12,9,1,11,2,13,7,4,15,3,8,10,14"
15035,commdev-image-keyboard-response,501,1454179,learnblock2,679.2999997138977,img/planet7_left.png,7,Community 2,NA,TRUE,f,f,NA,NA,NA,1,7,"5,6,12,9,1,11,2,13,7,4,15,3,8,10,14"
15035,commdev-image-keyboard-response,502,1455430,learnblock2,556.4000000953674,img/planet2_right.png,2,Community 2,NA,TRUE,j,j,NA,NA,NA,1,7,"5,6,12,9,1,11,2,13,7,4,15,3,8,10,14"
15035,commdev-image-keyboard-response,503,1456683,learnblock2,568.7000002861023,img/planet11_right.png,11,Community 2,NA,TRUE,j,j,NA,NA,NA,1,7,"5,6,12,9,1,11,2,13,7,4,15,3,8,10,14"
15035,commdev-image-keyboard-response,504,1457936,learnblock2,652.1000003814697,img/planet7_left.png,7,Community 2,NA,TRUE,f,f,NA,NA,NA,1,7,"5,6,12,9,1,11,2,13,7,4,15,3,8,10,14"
15035,commdev-image-keyboard-response,505,1459188,learnblock2,null,img/planet13_right.png,13,Community 2,NA,FALSE,null,j,NA,NA,NA,1,7,"5,6,12,9,1,11,2,13,7,4,15,3,8,10,14"
15035,commdev-image-keyboard-response,506,1460440,learnblock2,659.3999996185303,img/planet7_right.png,7,Community 2,NA,TRUE,j,j,NA,NA,NA,1,7,"5,6,12,9,1,11,2,13,7,4,15,3,8,10,14"
15035,commdev-image-keyboard-response,507,1461691,learnblock2,575.5,img/planet2_left.png,2,Community 2,NA,TRUE,f,f,NA,NA,NA,1,7,"5,6,12,9,1,11,2,13,7,4,15,3,8,10,14"
15035,commdev-image-keyboard-response,508,1462943,learnblock2,444.2000002861023,img/planet4_left.png,4,Community 2,NA,TRUE,f,f,NA,NA,NA,1,7,"5,6,12,9,1,11,2,13,7,4,15,3,8,10,14"
15035,commdev-image-keyboard-response,509,1464195,learnblock2,695.4000000953674,img/planet7_right.png,7,Community 2,NA,TRUE,j,j,NA,NA,NA,1,7,"5,6,12,9,1,11,2,13,7,4,15,3,8,10,14"
15035,commdev-image-keyboard-response,510,1465446,learnblock2,652.5999999046326,img/planet13_left.png,13,Community 2,NA,TRUE,f,f,NA,NA,NA,1,7,"5,6,12,9,1,11,2,13,7,4,15,3,8,10,14"
15035,commdev-image-keyboard-response,511,1466697,learnblock2,473.7000002861023,img/planet2_right.png,2,Community 2,NA,TRUE,j,j,NA,NA,NA,1,7,"5,6,12,9,1,11,2,13,7,4,15,3,8,10,14"
15035,commdev-image-keyboard-response,512,1467949,learnblock2,470.2000002861023,img/planet11_right.png,11,Community 2,NA,TRUE,j,j,NA,NA,NA,1,7,"5,6,12,9,1,11,2,13,7,4,15,3,8,10,14"
15035,commdev-image-keyboard-response,513,1469201,learnblock2,506.09999990463257,img/planet9_left.png,9,Community 1,NA,TRUE,f,f,NA,NA,NA,1,7,"5,6,12,9,1,11,2,13,7,4,15,3,8,10,14"
15035,commdev-image-keyboard-response,514,1470453,learnblock2,541.7999997138977,img/planet12_left.png,12,Community 1,NA,TRUE,f,f,NA,NA,NA,1,7,"5,6,12,9,1,11,2,13,7,4,15,3,8,10,14"
15035,commdev-image-keyboard-response,515,1471705,learnblock2,586.9000000953674,img/planet1_right.png,1,Community 1,NA,TRUE,j,j,NA,NA,NA,1,7,"5,6,12,9,1,11,2,13,7,4,15,3,8,10,14"
15035,commdev-image-keyboard-response,516,1472959,learnblock2,902.6000003814697,img/planet12_left.png,12,Community 1,NA,TRUE,f,f,NA,NA,NA,1,7,"5,6,12,9,1,11,2,13,7,4,15,3,8,10,14"
15035,commdev-image-keyboard-response,517,1474210,learnblock2,560.0999999046326,img/planet6_right.png,6,Community 1,NA,TRUE,j,j,NA,NA,NA,1,7,"5,6,12,9,1,11,2,13,7,4,15,3,8,10,14"
15035,commdev-image-keyboard-response,518,1475463,learnblock2,564.6999998092651,img/planet12_right.png,12,Community 1,NA,TRUE,j,j,NA,NA,NA,1,7,"5,6,12,9,1,11,2,13,7,4,15,3,8,10,14"
15035,commdev-image-keyboard-response,519,1476714,learnblock2,664.3000001907349,img/planet5_left.png,5,Community 1,NA,TRUE,f,f,NA,NA,NA,1,7,"5,6,12,9,1,11,2,13,7,4,15,3,8,10,14"
15035,commdev-image-keyboard-response,520,1477966,learnblock2,508.59999990463257,img/planet12_left.png,12,Community 1,NA,TRUE,f,f,NA,NA,NA,1,7,"5,6,12,9,1,11,2,13,7,4,15,3,8,10,14"
15035,commdev-image-keyboard-response,521,1479217,learnblock2,449.2000002861023,img/planet1_right.png,1,Community 1,NA,TRUE,j,j,NA,NA,NA,1,7,"5,6,12,9,1,11,2,13,7,4,15,3,8,10,14"
15035,commdev-image-keyboard-response,522,1480468,learnblock2,501.7000002861023,img/planet5_right.png,5,Community 1,NA,TRUE,j,j,NA,NA,NA,1,7,"5,6,12,9,1,11,2,13,7,4,15,3,8,10,14"
15035,commdev-image-keyboard-response,523,1481721,learnblock2,458.80000019073486,img/planet12_right.png,12,Community 1,NA,TRUE,j,j,NA,NA,NA,1,7,"5,6,12,9,1,11,2,13,7,4,15,3,8,10,14"
15035,commdev-image-keyboard-response,524,1482972,learnblock2,542.4000000953674,img/planet6_right.png,6,Community 1,NA,TRUE,j,j,NA,NA,NA,1,7,"5,6,12,9,1,11,2,13,7,4,15,3,8,10,14"
15035,commdev-image-keyboard-response,525,1484223,learnblock2,499.09999990463257,img/planet12_right.png,12,Community 1,NA,TRUE,j,j,NA,NA,NA,1,7,"5,6,12,9,1,11,2,13,7,4,15,3,8,10,14"
15035,commdev-image-keyboard-response,526,1485474,learnblock2,496,img/planet1_left.png,1,Community 1,NA,TRUE,f,f,NA,NA,NA,1,7,"5,6,12,9,1,11,2,13,7,4,15,3,8,10,14"
15035,commdev-image-keyboard-response,527,1486726,learnblock2,573.2000002861023,img/planet15_right.png,15,Community 3,NA,TRUE,j,j,NA,NA,NA,1,7,"5,6,12,9,1,11,2,13,7,4,15,3,8,10,14"
15035,commdev-image-keyboard-response,528,1487989,learnblock2,488.7999997138977,img/planet10_right.png,10,Community 3,NA,TRUE,j,j,NA,NA,NA,1,7,"5,6,12,9,1,11,2,13,7,4,15,3,8,10,14"
15035,commdev-image-keyboard-response,529,1489241,learnblock2,562.4000000953674,img/planet15_right.png,15,Community 3,NA,TRUE,j,j,NA,NA,NA,1,7,"5,6,12,9,1,11,2,13,7,4,15,3,8,10,14"
15035,commdev-image-keyboard-response,530,1490492,learnblock2,398.30000019073486,img/planet10_left.png,10,Community 3,NA,FALSE,j,f,NA,NA,NA,1,7,"5,6,12,9,1,11,2,13,7,4,15,3,8,10,14"
15035,commdev-image-keyboard-response,531,1491743,learnblock2,563.2000002861023,img/planet14_left.png,14,Community 3,NA,TRUE,f,f,NA,NA,NA,1,7,"5,6,12,9,1,11,2,13,7,4,15,3,8,10,14"
15035,commdev-image-keyboard-response,532,1492995,learnblock2,543.5999999046326,img/planet3_right.png,3,Community 3,NA,TRUE,j,j,NA,NA,NA,1,7,"5,6,12,9,1,11,2,13,7,4,15,3,8,10,14"
15035,commdev-image-keyboard-response,533,1494247,learnblock2,739.7000002861023,img/planet14_right.png,14,Community 3,NA,TRUE,j,j,NA,NA,NA,1,7,"5,6,12,9,1,11,2,13,7,4,15,3,8,10,14"
15035,commdev-image-keyboard-response,534,1495499,learnblock2,623.5,img/planet8_left.png,8,Community 3,NA,TRUE,f,f,NA,NA,NA,1,7,"5,6,12,9,1,11,2,13,7,4,15,3,8,10,14"
15035,commdev-image-keyboard-response,535,1496750,learnblock2,603.7999997138977,img/planet14_left.png,14,Community 3,NA,TRUE,f,f,NA,NA,NA,1,7,"5,6,12,9,1,11,2,13,7,4,15,3,8,10,14"
15035,commdev-image-keyboard-response,536,1498002,learnblock2,497.09999990463257,img/planet10_right.png,10,Community 3,NA,TRUE,j,j,NA,NA,NA,1,7,"5,6,12,9,1,11,2,13,7,4,15,3,8,10,14"
15035,commdev-image-keyboard-response,537,1499253,learnblock2,605.5,img/planet14_left.png,14,Community 3,NA,TRUE,f,f,NA,NA,NA,1,7,"5,6,12,9,1,11,2,13,7,4,15,3,8,10,14"
15035,commdev-image-keyboard-response,538,1500505,learnblock2,586,img/planet3_left.png,3,Community 3,NA,TRUE,f,f,NA,NA,NA,1,7,"5,6,12,9,1,11,2,13,7,4,15,3,8,10,14"
15035,commdev-image-keyboard-response,539,1501756,learnblock2,710.1999998092651,img/planet14_right.png,14,Community 3,NA,TRUE,j,j,NA,NA,NA,1,7,"5,6,12,9,1,11,2,13,7,4,15,3,8,10,14"
15035,commdev-image-keyboard-response,540,1503017,learnblock2,634.3000001907349,img/planet8_left.png,8,Community 3,NA,TRUE,f,f,NA,NA,NA,1,7,"5,6,12,9,1,11,2,13,7,4,15,3,8,10,14"
15035,commdev-image-keyboard-response,541,1504268,learnblock2,621.7999997138977,img/planet14_left.png,14,Community 3,NA,TRUE,f,f,NA,NA,NA,1,7,"5,6,12,9,1,11,2,13,7,4,15,3,8,10,14"
15035,commdev-image-keyboard-response,542,1505520,learnblock2,522.7000002861023,img/planet3_right.png,3,Community 3,NA,TRUE,j,j,NA,NA,NA,1,7,"5,6,12,9,1,11,2,13,7,4,15,3,8,10,14"
15035,commdev-image-keyboard-response,543,1506771,learnblock2,503.1000003814697,img/planet8_right.png,8,Community 3,NA,TRUE,j,j,NA,NA,NA,1,7,"5,6,12,9,1,11,2,13,7,4,15,3,8,10,14"
15035,commdev-image-keyboard-response,544,1508023,learnblock2,548,img/planet15_left.png,15,Community 3,NA,TRUE,f,f,NA,NA,NA,1,7,"5,6,12,9,1,11,2,13,7,4,15,3,8,10,14"
15035,commdev-image-keyboard-response,545,1509275,learnblock2,608.2000002861023,img/planet8_right.png,8,Community 3,NA,TRUE,j,j,NA,NA,NA,1,7,"5,6,12,9,1,11,2,13,7,4,15,3,8,10,14"
15035,commdev-image-keyboard-response,546,1510526,learnblock2,508.3999996185303,img/planet15_left.png,15,Community 3,NA,TRUE,f,f,NA,NA,NA,1,7,"5,6,12,9,1,11,2,13,7,4,15,3,8,10,14"
15035,commdev-image-keyboard-response,547,1511777,learnblock2,593.4000000953674,img/planet14_left.png,14,Community 3,NA,TRUE,f,f,NA,NA,NA,1,7,"5,6,12,9,1,11,2,13,7,4,15,3,8,10,14"
15035,commdev-image-keyboard-response,548,1513029,learnblock2,590.1000003814697,img/planet3_right.png,3,Community 3,NA,TRUE,j,j,NA,NA,NA,1,7,"5,6,12,9,1,11,2,13,7,4,15,3,8,10,14"
15035,commdev-image-keyboard-response,549,1514281,learnblock2,442.09999990463257,img/planet13_right.png,13,Community 2,NA,TRUE,j,j,NA,NA,NA,1,7,"5,6,12,9,1,11,2,13,7,4,15,3,8,10,14"
15035,commdev-image-keyboard-response,550,1515532,learnblock2,678.0999999046326,img/planet2_left.png,2,Community 2,NA,TRUE,f,f,NA,NA,NA,1,7,"5,6,12,9,1,11,2,13,7,4,15,3,8,10,14"
15035,commdev-image-keyboard-response,551,1516783,learnblock2,523.0999999046326,img/planet7_right.png,7,Community 2,NA,TRUE,j,j,NA,NA,NA,1,7,"5,6,12,9,1,11,2,13,7,4,15,3,8,10,14"
15035,commdev-image-keyboard-response,552,1518034,learnblock2,503.7000002861023,img/planet13_right.png,13,Community 2,NA,TRUE,j,j,NA,NA,NA,1,7,"5,6,12,9,1,11,2,13,7,4,15,3,8,10,14"
15035,commdev-image-keyboard-response,553,1519299,learnblock2,556.1999998092651,img/planet4_right.png,4,Community 2,NA,TRUE,j,j,NA,NA,NA,1,7,"5,6,12,9,1,11,2,13,7,4,15,3,8,10,14"
15035,commdev-image-keyboard-response,554,1520552,learnblock2,603.1999998092651,img/planet7_left.png,7,Community 2,NA,TRUE,f,f,NA,NA,NA,1,7,"5,6,12,9,1,11,2,13,7,4,15,3,8,10,14"
15035,commdev-image-keyboard-response,555,1521803,learnblock2,623,img/planet13_left.png,13,Community 2,NA,TRUE,f,f,NA,NA,NA,1,7,"5,6,12,9,1,11,2,13,7,4,15,3,8,10,14"
15035,commdev-image-keyboard-response,556,1523055,learnblock2,451.7000002861023,img/planet3_right.png,3,Community 3,NA,FALSE,f,j,NA,NA,NA,1,7,"5,6,12,9,1,11,2,13,7,4,15,3,8,10,14"
15035,commdev-image-keyboard-response,557,1524310,learnblock2,494.59999990463257,img/planet10_right.png,10,Community 3,NA,TRUE,j,j,NA,NA,NA,1,7,"5,6,12,9,1,11,2,13,7,4,15,3,8,10,14"
15035,commdev-image-keyboard-response,558,1525561,learnblock2,464,img/planet15_right.png,15,Community 3,NA,TRUE,j,j,NA,NA,NA,1,7,"5,6,12,9,1,11,2,13,7,4,15,3,8,10,14"
15035,commdev-image-keyboard-response,559,1526813,learnblock2,557.5,img/planet8_left.png,8,Community 3,NA,TRUE,f,f,NA,NA,NA,1,7,"5,6,12,9,1,11,2,13,7,4,15,3,8,10,14"
15035,commdev-image-keyboard-response,560,1528064,learnblock2,530.5,img/planet3_right.png,3,Community 3,NA,TRUE,j,j,NA,NA,NA,1,7,"5,6,12,9,1,11,2,13,7,4,15,3,8,10,14"
15035,commdev-image-keyboard-response,561,1529316,learnblock2,606.7999997138977,img/planet14_right.png,14,Community 3,NA,TRUE,j,j,NA,NA,NA,1,7,"5,6,12,9,1,11,2,13,7,4,15,3,8,10,14"
15035,commdev-image-keyboard-response,562,1530567,learnblock2,578.6000003814697,img/planet3_right.png,3,Community 3,NA,TRUE,j,j,NA,NA,NA,1,7,"5,6,12,9,1,11,2,13,7,4,15,3,8,10,14"
15035,commdev-image-keyboard-response,563,1531820,learnblock2,511.7000002861023,img/planet14_right.png,14,Community 3,NA,TRUE,j,j,NA,NA,NA,1,7,"5,6,12,9,1,11,2,13,7,4,15,3,8,10,14"
15035,commdev-image-keyboard-response,564,1533071,learnblock2,659.0999999046326,img/planet3_left.png,3,Community 3,NA,TRUE,f,f,NA,NA,NA,1,7,"5,6,12,9,1,11,2,13,7,4,15,3,8,10,14"
15035,commdev-image-keyboard-response,565,1534334,learnblock2,559.5,img/planet14_right.png,14,Community 3,NA,TRUE,j,j,NA,NA,NA,1,7,"5,6,12,9,1,11,2,13,7,4,15,3,8,10,14"
15035,commdev-image-keyboard-response,566,1535586,learnblock2,680.6999998092651,img/planet3_left.png,3,Community 3,NA,TRUE,f,f,NA,NA,NA,1,7,"5,6,12,9,1,11,2,13,7,4,15,3,8,10,14"
15035,commdev-image-keyboard-response,567,1536838,learnblock2,469.09999990463257,img/planet8_right.png,8,Community 3,NA,FALSE,f,j,NA,NA,NA,1,7,"5,6,12,9,1,11,2,13,7,4,15,3,8,10,14"
15035,commdev-image-keyboard-response,568,1538090,learnblock2,465.40000009536743,img/planet15_right.png,15,Community 3,NA,TRUE,j,j,NA,NA,NA,1,7,"5,6,12,9,1,11,2,13,7,4,15,3,8,10,14"
15035,commdev-image-keyboard-response,569,1539343,learnblock2,548.5,img/planet1_left.png,1,Community 1,NA,TRUE,f,f,NA,NA,NA,1,7,"5,6,12,9,1,11,2,13,7,4,15,3,8,10,14"
15035,commdev-image-keyboard-response,570,1540595,learnblock2,632.3000001907349,img/planet6_left.png,6,Community 1,NA,TRUE,f,f,NA,NA,NA,1,7,"5,6,12,9,1,11,2,13,7,4,15,3,8,10,14"
15035,commdev-image-keyboard-response,571,1541846,learnblock2,547.5999999046326,img/planet9_right.png,9,Community 1,NA,TRUE,j,j,NA,NA,NA,1,7,"5,6,12,9,1,11,2,13,7,4,15,3,8,10,14"
15035,commdev-image-keyboard-response,572,1543098,learnblock2,503.90000009536743,img/planet5_right.png,5,Community 1,NA,TRUE,j,j,NA,NA,NA,1,7,"5,6,12,9,1,11,2,13,7,4,15,3,8,10,14"
15035,commdev-image-keyboard-response,573,1544349,learnblock2,581.3000001907349,img/planet12_left.png,12,Community 1,NA,TRUE,f,f,NA,NA,NA,1,7,"5,6,12,9,1,11,2,13,7,4,15,3,8,10,14"
15035,commdev-image-keyboard-response,574,1545601,learnblock2,457.40000009536743,img/planet6_right.png,6,Community 1,NA,TRUE,j,j,NA,NA,NA,1,7,"5,6,12,9,1,11,2,13,7,4,15,3,8,10,14"
15035,commdev-image-keyboard-response,575,1546852,learnblock2,598,img/planet5_right.png,5,Community 1,NA,TRUE,j,j,NA,NA,NA,1,7,"5,6,12,9,1,11,2,13,7,4,15,3,8,10,14"
15035,commdev-image-keyboard-response,576,1548104,learnblock2,538,img/planet9_right.png,9,Community 1,NA,TRUE,j,j,NA,NA,NA,1,7,"5,6,12,9,1,11,2,13,7,4,15,3,8,10,14"
15035,commdev-image-keyboard-response,577,1549356,learnblock2,438.80000019073486,img/planet5_left.png,5,Community 1,NA,TRUE,f,f,NA,NA,NA,1,7,"5,6,12,9,1,11,2,13,7,4,15,3,8,10,14"
15035,commdev-image-keyboard-response,578,1550608,learnblock2,602.9000000953674,img/planet6_left.png,6,Community 1,NA,TRUE,f,f,NA,NA,NA,1,7,"5,6,12,9,1,11,2,13,7,4,15,3,8,10,14"
15035,commdev-image-keyboard-response,579,1551859,learnblock2,342.59999990463257,img/planet5_right.png,5,Community 1,NA,TRUE,j,j,NA,NA,NA,1,7,"5,6,12,9,1,11,2,13,7,4,15,3,8,10,14"
15035,commdev-image-keyboard-response,580,1553110,learnblock2,540.2000002861023,img/planet6_left.png,6,Community 1,NA,TRUE,f,f,NA,NA,NA,1,7,"5,6,12,9,1,11,2,13,7,4,15,3,8,10,14"
15035,commdev-image-keyboard-response,581,1554362,learnblock2,544.9000000953674,img/planet9_left.png,9,Community 1,NA,TRUE,f,f,NA,NA,NA,1,7,"5,6,12,9,1,11,2,13,7,4,15,3,8,10,14"
15035,commdev-image-keyboard-response,582,1555614,learnblock2,516.9000000953674,img/planet5_left.png,5,Community 1,NA,TRUE,f,f,NA,NA,NA,1,7,"5,6,12,9,1,11,2,13,7,4,15,3,8,10,14"
15035,commdev-image-keyboard-response,583,1556866,learnblock2,496.59999990463257,img/planet1_left.png,1,Community 1,NA,TRUE,f,f,NA,NA,NA,1,7,"5,6,12,9,1,11,2,13,7,4,15,3,8,10,14"
15035,commdev-image-keyboard-response,584,1558118,learnblock2,333,img/planet5_right.png,5,Community 1,NA,FALSE,f,j,NA,NA,NA,1,7,"5,6,12,9,1,11,2,13,7,4,15,3,8,10,14"
15035,commdev-image-keyboard-response,585,1559369,learnblock2,656.7000002861023,img/planet6_right.png,6,Community 1,NA,TRUE,j,j,NA,NA,NA,1,7,"5,6,12,9,1,11,2,13,7,4,15,3,8,10,14"
15035,commdev-image-keyboard-response,586,1560621,learnblock2,485.69999980926514,img/planet9_left.png,9,Community 1,NA,TRUE,f,f,NA,NA,NA,1,7,"5,6,12,9,1,11,2,13,7,4,15,3,8,10,14"
15035,commdev-image-keyboard-response,587,1561872,learnblock2,698,img/planet11_left.png,11,Community 2,NA,TRUE,f,f,NA,NA,NA,1,7,"5,6,12,9,1,11,2,13,7,4,15,3,8,10,14"
15035,commdev-image-keyboard-response,588,1563124,learnblock2,614.8000001907349,img/planet9_right.png,9,Community 1,NA,FALSE,f,j,NA,NA,NA,1,7,"5,6,12,9,1,11,2,13,7,4,15,3,8,10,14"
15035,commdev-image-keyboard-response,589,1564375,learnblock2,635.0999999046326,img/planet6_left.png,6,Community 1,NA,TRUE,f,f,NA,NA,NA,1,7,"5,6,12,9,1,11,2,13,7,4,15,3,8,10,14"
15035,commdev-image-keyboard-response,590,1565626,learnblock2,559.7000002861023,img/planet12_left.png,12,Community 1,NA,TRUE,f,f,NA,NA,NA,1,7,"5,6,12,9,1,11,2,13,7,4,15,3,8,10,14"
15035,commdev-image-keyboard-response,591,1566879,learnblock2,452,img/planet1_left.png,1,Community 1,NA,TRUE,f,f,NA,NA,NA,1,7,"5,6,12,9,1,11,2,13,7,4,15,3,8,10,14"
15035,commdev-image-keyboard-response,592,1568130,learnblock2,648.3000001907349,img/planet15_right.png,15,Community 3,NA,TRUE,j,j,NA,NA,NA,1,7,"5,6,12,9,1,11,2,13,7,4,15,3,8,10,14"
15035,commdev-image-keyboard-response,593,1569381,learnblock2,660.5999999046326,img/planet8_right.png,8,Community 3,NA,TRUE,j,j,NA,NA,NA,1,7,"5,6,12,9,1,11,2,13,7,4,15,3,8,10,14"
15035,commdev-image-keyboard-response,594,1570633,learnblock2,649.1999998092651,img/planet15_right.png,15,Community 3,NA,TRUE,j,j,NA,NA,NA,1,7,"5,6,12,9,1,11,2,13,7,4,15,3,8,10,14"
15035,commdev-image-keyboard-response,595,1571885,learnblock2,621.8000001907349,img/planet14_left.png,14,Community 3,NA,TRUE,f,f,NA,NA,NA,1,7,"5,6,12,9,1,11,2,13,7,4,15,3,8,10,14"
15035,commdev-image-keyboard-response,596,1573137,learnblock2,962.1999998092651,img/planet15_left.png,15,Community 3,NA,TRUE,f,f,NA,NA,NA,1,7,"5,6,12,9,1,11,2,13,7,4,15,3,8,10,14"
15035,commdev-image-keyboard-response,597,1574388,learnblock2,1142.1000003814697,img/planet10_left.png,10,Community 3,NA,TRUE,f,f,NA,NA,NA,1,7,"5,6,12,9,1,11,2,13,7,4,15,3,8,10,14"
15035,commdev-image-keyboard-response,598,1575640,learnblock2,570.3999996185303,img/planet8_right.png,8,Community 3,NA,TRUE,j,j,NA,NA,NA,1,7,"5,6,12,9,1,11,2,13,7,4,15,3,8,10,14"
15035,commdev-image-keyboard-response,599,1576892,learnblock2,519.0999999046326,img/planet10_right.png,10,Community 3,NA,TRUE,j,j,NA,NA,NA,1,7,"5,6,12,9,1,11,2,13,7,4,15,3,8,10,14"
15035,commdev-image-keyboard-response,600,1578143,learnblock2,555.2000002861023,img/planet8_left.png,8,Community 3,NA,TRUE,f,f,NA,NA,NA,1,7,"5,6,12,9,1,11,2,13,7,4,15,3,8,10,14"
15035,commdev-image-keyboard-response,601,1579395,learnblock2,503.6000003814697,img/planet3_left.png,3,Community 3,NA,TRUE,f,f,NA,NA,NA,1,7,"5,6,12,9,1,11,2,13,7,4,15,3,8,10,14"
15035,commdev-image-keyboard-response,602,1580647,learnblock2,523.8999996185303,img/planet10_left.png,10,Community 3,NA,TRUE,f,f,NA,NA,NA,1,7,"5,6,12,9,1,11,2,13,7,4,15,3,8,10,14"
15035,commdev-image-keyboard-response,603,1581899,learnblock2,432.30000019073486,img/planet3_left.png,3,Community 3,NA,TRUE,f,f,NA,NA,NA,1,7,"5,6,12,9,1,11,2,13,7,4,15,3,8,10,14"
15035,commdev-image-keyboard-response,604,1583152,learnblock2,387.90000009536743,img/planet10_left.png,10,Community 3,NA,TRUE,f,f,NA,NA,NA,1,7,"5,6,12,9,1,11,2,13,7,4,15,3,8,10,14"
15035,commdev-image-keyboard-response,605,1584403,learnblock2,495.69999980926514,img/planet8_left.png,8,Community 3,NA,TRUE,f,f,NA,NA,NA,1,7,"5,6,12,9,1,11,2,13,7,4,15,3,8,10,14"
15035,commdev-image-keyboard-response,606,1585655,learnblock2,427.59999990463257,img/planet3_right.png,3,Community 3,NA,FALSE,f,j,NA,NA,NA,1,7,"5,6,12,9,1,11,2,13,7,4,15,3,8,10,14"
15035,commdev-image-keyboard-response,607,1586906,learnblock2,456.2000002861023,img/planet13_right.png,13,Community 2,NA,TRUE,j,j,NA,NA,NA,1,7,"5,6,12,9,1,11,2,13,7,4,15,3,8,10,14"
15035,commdev-image-keyboard-response,608,1588158,learnblock2,596.6999998092651,img/planet7_right.png,7,Community 2,NA,TRUE,j,j,NA,NA,NA,1,7,"5,6,12,9,1,11,2,13,7,4,15,3,8,10,14"
15035,commdev-image-keyboard-response,609,1589409,learnblock2,648.5999999046326,img/planet2_left.png,2,Community 2,NA,TRUE,f,f,NA,NA,NA,1,7,"5,6,12,9,1,11,2,13,7,4,15,3,8,10,14"
15035,commdev-image-keyboard-response,610,1590661,learnblock2,477.90000009536743,img/planet7_right.png,7,Community 2,NA,TRUE,j,j,NA,NA,NA,1,7,"5,6,12,9,1,11,2,13,7,4,15,3,8,10,14"
15035,commdev-image-keyboard-response,611,1591912,learnblock2,410.90000009536743,img/planet2_left.png,2,Community 2,NA,TRUE,f,f,NA,NA,NA,1,7,"5,6,12,9,1,11,2,13,7,4,15,3,8,10,14"
15035,commdev-image-keyboard-response,612,1593164,learnblock2,574.3999996185303,img/planet4_left.png,4,Community 2,NA,TRUE,f,f,NA,NA,NA,1,7,"5,6,12,9,1,11,2,13,7,4,15,3,8,10,14"
15035,commdev-image-keyboard-response,613,1594416,learnblock2,547.0999999046326,img/planet2_left.png,2,Community 2,NA,TRUE,f,f,NA,NA,NA,1,7,"5,6,12,9,1,11,2,13,7,4,15,3,8,10,14"
15035,commdev-image-keyboard-response,614,1595676,learnblock2,495.5,img/planet13_right.png,13,Community 2,NA,TRUE,j,j,NA,NA,NA,1,7,"5,6,12,9,1,11,2,13,7,4,15,3,8,10,14"
15035,commdev-image-keyboard-response,615,1596928,learnblock2,475.19999980926514,img/planet7_right.png,7,Community 2,NA,TRUE,j,j,NA,NA,NA,1,7,"5,6,12,9,1,11,2,13,7,4,15,3,8,10,14"
15035,commdev-image-keyboard-response,616,1598180,learnblock2,535.1000003814697,img/planet4_left.png,4,Community 2,NA,TRUE,f,f,NA,NA,NA,1,7,"5,6,12,9,1,11,2,13,7,4,15,3,8,10,14"
15035,commdev-image-keyboard-response,617,1599431,learnblock2,578.7000002861023,img/planet11_right.png,11,Community 2,NA,TRUE,j,j,NA,NA,NA,1,7,"5,6,12,9,1,11,2,13,7,4,15,3,8,10,14"
15035,commdev-image-keyboard-response,618,1600684,learnblock2,527.0999999046326,img/planet7_right.png,7,Community 2,NA,TRUE,j,j,NA,NA,NA,1,7,"5,6,12,9,1,11,2,13,7,4,15,3,8,10,14"
15035,commdev-image-keyboard-response,619,1601935,learnblock2,539,img/planet4_left.png,4,Community 2,NA,TRUE,f,f,NA,NA,NA,1,7,"5,6,12,9,1,11,2,13,7,4,15,3,8,10,14"
15035,commdev-image-keyboard-response,620,1603186,learnblock2,432,img/planet13_right.png,13,Community 2,NA,TRUE,j,j,NA,NA,NA,1,7,"5,6,12,9,1,11,2,13,7,4,15,3,8,10,14"
15035,commdev-image-keyboard-response,621,1604438,learnblock2,1044.6999998092651,img/planet7_left.png,7,Community 2,NA,FALSE,j,f,NA,NA,NA,1,7,"5,6,12,9,1,11,2,13,7,4,15,3,8,10,14"
15035,commdev-image-keyboard-response,622,1605690,learnblock2,72.69999980926514,img/planet2_right.png,2,Community 2,NA,FALSE,f,j,NA,NA,NA,1,7,"5,6,12,9,1,11,2,13,7,4,15,3,8,10,14"
15035,commdev-image-keyboard-response,623,1606942,learnblock2,605.2000002861023,img/planet7_left.png,7,Community 2,NA,TRUE,f,f,NA,NA,NA,1,7,"5,6,12,9,1,11,2,13,7,4,15,3,8,10,14"
15035,commdev-image-keyboard-response,624,1608194,learnblock2,504.90000009536743,img/planet13_right.png,13,Community 2,NA,TRUE,j,j,NA,NA,NA,1,7,"5,6,12,9,1,11,2,13,7,4,15,3,8,10,14"
15035,commdev-image-keyboard-response,625,1609446,learnblock2,515.7999997138977,img/planet7_left.png,7,Community 2,NA,TRUE,f,f,NA,NA,NA,1,7,"5,6,12,9,1,11,2,13,7,4,15,3,8,10,14"
15035,commdev-image-keyboard-response,626,1610697,learnblock2,473.40000009536743,img/planet2_left.png,2,Community 2,NA,TRUE,f,f,NA,NA,NA,1,7,"5,6,12,9,1,11,2,13,7,4,15,3,8,10,14"
15035,commdev-image-keyboard-response,627,1611950,learnblock2,477.69999980926514,img/planet4_right.png,4,Community 2,NA,TRUE,j,j,NA,NA,NA,1,7,"5,6,12,9,1,11,2,13,7,4,15,3,8,10,14"
15035,commdev-image-keyboard-response,628,1613201,learnblock2,537.3000001907349,img/planet11_right.png,11,Community 2,NA,TRUE,j,j,NA,NA,NA,1,7,"5,6,12,9,1,11,2,13,7,4,15,3,8,10,14"
15035,commdev-image-keyboard-response,629,1614452,learnblock2,533.5999999046326,img/planet7_right.png,7,Community 2,NA,TRUE,j,j,NA,NA,NA,1,7,"5,6,12,9,1,11,2,13,7,4,15,3,8,10,14"
15035,commdev-image-keyboard-response,630,1615704,learnblock2,602.8000001907349,img/planet13_right.png,13,Community 2,NA,TRUE,j,j,NA,NA,NA,1,7,"5,6,12,9,1,11,2,13,7,4,15,3,8,10,14"
15035,commdev-image-keyboard-response,631,1616956,learnblock2,583.0999999046326,img/planet4_left.png,4,Community 2,NA,TRUE,f,f,NA,NA,NA,1,7,"5,6,12,9,1,11,2,13,7,4,15,3,8,10,14"
15035,commdev-image-keyboard-response,632,1618207,learnblock2,499.30000019073486,img/planet7_left.png,7,Community 2,NA,TRUE,f,f,NA,NA,NA,1,7,"5,6,12,9,1,11,2,13,7,4,15,3,8,10,14"
15035,commdev-image-keyboard-response,633,1619459,learnblock2,415.7000002861023,img/planet2_left.png,2,Community 2,NA,TRUE,f,f,NA,NA,NA,1,7,"5,6,12,9,1,11,2,13,7,4,15,3,8,10,14"
15035,commdev-image-keyboard-response,634,1620710,learnblock2,532.3999996185303,img/planet13_left.png,13,Community 2,NA,TRUE,f,f,NA,NA,NA,1,7,"5,6,12,9,1,11,2,13,7,4,15,3,8,10,14"
15035,commdev-image-keyboard-response,635,1621963,learnblock2,520.4000000953674,img/planet7_right.png,7,Community 2,NA,TRUE,j,j,NA,NA,NA,1,7,"5,6,12,9,1,11,2,13,7,4,15,3,8,10,14"
15035,commdev-image-keyboard-response,636,1623214,learnblock2,572.0999999046326,img/planet11_left.png,11,Community 2,NA,TRUE,f,f,NA,NA,NA,1,7,"5,6,12,9,1,11,2,13,7,4,15,3,8,10,14"
15035,commdev-image-keyboard-response,637,1624466,learnblock2,568.9000000953674,img/planet4_right.png,4,Community 2,NA,TRUE,j,j,NA,NA,NA,1,7,"5,6,12,9,1,11,2,13,7,4,15,3,8,10,14"
15035,commdev-image-keyboard-response,638,1625717,learnblock2,501.30000019073486,img/planet11_left.png,11,Community 2,NA,TRUE,f,f,NA,NA,NA,1,7,"5,6,12,9,1,11,2,13,7,4,15,3,8,10,14"
15035,commdev-image-keyboard-response,639,1626968,learnblock2,618.5,img/planet4_right.png,4,Community 2,NA,TRUE,j,j,NA,NA,NA,1,7,"5,6,12,9,1,11,2,13,7,4,15,3,8,10,14"
15035,commdev-image-keyboard-response,640,1628219,learnblock2,583.6999998092651,img/planet11_left.png,11,Community 2,NA,TRUE,f,f,NA,NA,NA,1,7,"5,6,12,9,1,11,2,13,7,4,15,3,8,10,14"
15035,commdev-image-keyboard-response,641,1629478,learnblock2,691.9000000953674,img/planet9_left.png,9,Community 1,NA,TRUE,f,f,NA,NA,NA,1,7,"5,6,12,9,1,11,2,13,7,4,15,3,8,10,14"
15035,commdev-image-keyboard-response,642,1630730,learnblock2,465.19999980926514,img/planet11_right.png,11,Community 2,NA,TRUE,j,j,NA,NA,NA,1,7,"5,6,12,9,1,11,2,13,7,4,15,3,8,10,14"
15035,commdev-image-keyboard-response,643,1631981,learnblock2,444.30000019073486,img/planet9_left.png,9,Community 1,NA,TRUE,f,f,NA,NA,NA,1,7,"5,6,12,9,1,11,2,13,7,4,15,3,8,10,14"
15035,commdev-image-keyboard-response,644,1633233,learnblock2,560.8999996185303,img/planet6_right.png,6,Community 1,NA,TRUE,j,j,NA,NA,NA,1,7,"5,6,12,9,1,11,2,13,7,4,15,3,8,10,14"
15035,commdev-image-keyboard-response,645,1634485,learnblock2,677.1999998092651,img/planet1_right.png,1,Community 1,NA,TRUE,j,j,NA,NA,NA,1,7,"5,6,12,9,1,11,2,13,7,4,15,3,8,10,14"
15035,commdev-image-keyboard-response,646,1635737,learnblock2,609.5999999046326,img/planet5_left.png,5,Community 1,NA,TRUE,f,f,NA,NA,NA,1,7,"5,6,12,9,1,11,2,13,7,4,15,3,8,10,14"
15035,commdev-image-keyboard-response,647,1636988,learnblock2,590.9000000953674,img/planet1_left.png,1,Community 1,NA,TRUE,f,f,NA,NA,NA,1,7,"5,6,12,9,1,11,2,13,7,4,15,3,8,10,14"
15035,commdev-image-keyboard-response,648,1638239,learnblock2,659.9000000953674,img/planet6_right.png,6,Community 1,NA,TRUE,j,j,NA,NA,NA,1,7,"5,6,12,9,1,11,2,13,7,4,15,3,8,10,14"
15035,commdev-image-keyboard-response,649,1639490,learnblock2,544.7000002861023,img/planet5_right.png,5,Community 1,NA,TRUE,j,j,NA,NA,NA,1,7,"5,6,12,9,1,11,2,13,7,4,15,3,8,10,14"
15035,commdev-image-keyboard-response,650,1640742,learnblock2,581.2000002861023,img/planet1_left.png,1,Community 1,NA,TRUE,f,f,NA,NA,NA,1,7,"5,6,12,9,1,11,2,13,7,4,15,3,8,10,14"
15035,commdev-image-keyboard-response,651,1641994,learnblock2,577.5999999046326,img/planet12_left.png,12,Community 1,NA,TRUE,f,f,NA,NA,NA,1,7,"5,6,12,9,1,11,2,13,7,4,15,3,8,10,14"
15035,commdev-image-keyboard-response,652,1643247,learnblock2,565.3000001907349,img/planet5_left.png,5,Community 1,NA,TRUE,f,f,NA,NA,NA,1,7,"5,6,12,9,1,11,2,13,7,4,15,3,8,10,14"
