subject_id,trial_type,trial_index,time_elapsed,block,rt,stimulus,planet,community,response,correct,key_press,learning_correct_response,parse,init_locations,final_locations,browser_interactions,num_comp,planet_map
14611,commdev-instructions,7,77817,NA,2232.2000000001863,"<p>In this game, you are a scientist on board a space shuttle. </p><p> On each mission, you will visit planets all across the universe.</p><img src=""img/controlroom.jpg"" width=300vw>",NA,NA,NA,NA,NA,NA,NA,NA,NA,2,6,"14,5,7,12,8,1,13,6,15,11,3,9,2,4,10"
14611,commdev-instructions,8,82853,NA,2958.2999999998137,"<p>Here are a few planets you might see:</p><img src=""img/practice1.png"" width=200vw><img src=""img/practice2.png"" width=200vw><img src=""img/practice3.png"" width=200vw>",NA,NA,NA,NA,NA,NA,NA,NA,NA,2,6,"14,5,7,12,8,1,13,6,15,11,3,9,2,4,10"
14611,commdev-instructions,9,92185,NA,1931,"<p>Your job as a scientist is to record which direction the winds are moving on each planet.</p><p>There are two types of wind directions:</p><img src=""img/practice1_left.png"" width=200vw><img src=""img/practice1_right.png"" width=200vw>",NA,NA,NA,NA,NA,NA,NA,NA,NA,2,6,"14,5,7,12,8,1,13,6,15,11,3,9,2,4,10"
14611,commdev-instructions,10,98952,NA,1886.7999999998137,"<p>If the winds are moving this way, press the letter <strong>F</strong> on the keyboard as fast as you can.</p><img src=""img/leftwind.png"" width=250vw>",NA,NA,NA,NA,NA,NA,NA,NA,NA,2,6,"14,5,7,12,8,1,13,6,15,11,3,9,2,4,10"
14611,commdev-instructions,11,104882,NA,1407.7000000001863,"<p>If the winds are moving this way, press the letter <strong>J</strong> on the keyboard as fast as you can.</p><img src=""img/rightwind.png"" width=350vw>",NA,NA,NA,NA,NA,NA,NA,NA,NA,2,6,"14,5,7,12,8,1,13,6,15,11,3,9,2,4,10"
14611,commdev-instructions,12,110736,NA,1421.5999999996275,<p>You will have 1 second to respond. Try to respond before the time runs out!,NA,NA,NA,NA,NA,NA,NA,NA,NA,2,6,"14,5,7,12,8,1,13,6,15,11,3,9,2,4,10"
14611,commdev-instructions,13,117628,NA,1463.5,<p>The planets you will visit will look different from each other.</p><p>You should respond <strong>only</strong> based on wind direction.,NA,NA,NA,NA,NA,NA,NA,NA,NA,2,6,"14,5,7,12,8,1,13,6,15,11,3,9,2,4,10"
14611,commdev-instructions,14,125441,NA,2646.100000000559,"<p> Ready to start the practice round? </p><p> Remember, press <strong>F</strong> or <strong>J</strong> depending on the wind direction.<br><img src=""img/categorize_planet_example.png""",NA,NA,NA,NA,NA,NA,NA,NA,NA,2,6,"14,5,7,12,8,1,13,6,15,11,3,9,2,4,10"
14611,commdev-instructions,26,169973,NA,1283.7999999998137,"<p>Great, now try a short practice mission. </p><p> This time, you will have 1 second to respond and you won't know whether you pressed the right or wrong key for each planet.</p>",NA,NA,NA,NA,NA,NA,NA,NA,NA,2,6,"14,5,7,12,8,1,13,6,15,11,3,9,2,4,10"
14611,commdev-image-keyboard-response,27,171348,practice,1128.9000000003725,img/practice1_right.png,NA,Number not found in mappings,NA,TRUE,j,j,NA,NA,NA,2,6,"14,5,7,12,8,1,13,6,15,11,3,9,2,4,10"
14611,commdev-image-keyboard-response,28,172618,practice,828.8999999994412,img/practice2_right.png,NA,Number not found in mappings,NA,TRUE,j,j,NA,NA,NA,2,6,"14,5,7,12,8,1,13,6,15,11,3,9,2,4,10"
14611,commdev-image-keyboard-response,29,173875,practice,750.9000000003725,img/practice4_right.png,NA,Number not found in mappings,NA,TRUE,j,j,NA,NA,NA,2,6,"14,5,7,12,8,1,13,6,15,11,3,9,2,4,10"
14611,commdev-image-keyboard-response,30,175127,practice,692,img/practice1_right.png,NA,Number not found in mappings,NA,TRUE,j,j,NA,NA,NA,2,6,"14,5,7,12,8,1,13,6,15,11,3,9,2,4,10"
14611,commdev-image-keyboard-response,31,176387,practice,569.7000000001863,img/practice4_left.png,NA,Number not found in mappings,NA,TRUE,f,f,NA,NA,NA,2,6,"14,5,7,12,8,1,13,6,15,11,3,9,2,4,10"
14611,commdev-image-keyboard-response,32,177643,practice,498.40000000037253,img/practice3_right.png,NA,Number not found in mappings,NA,FALSE,f,j,NA,NA,NA,2,6,"14,5,7,12,8,1,13,6,15,11,3,9,2,4,10"
14611,commdev-image-keyboard-response,33,178897,practice,208.1000000005588,img/practice4_left.png,NA,Number not found in mappings,NA,FALSE,j,f,NA,NA,NA,2,6,"14,5,7,12,8,1,13,6,15,11,3,9,2,4,10"
14611,commdev-image-keyboard-response,34,180167,practice,0.09999999962747097,img/practice2_left.png,NA,Number not found in mappings,NA,TRUE,f,f,NA,NA,NA,2,6,"14,5,7,12,8,1,13,6,15,11,3,9,2,4,10"
14611,commdev-instructions,35,191362,NA,1643.2000000001863,"<p>Great job with the practice round.</p><p>During real missions, you won't know whether you pressed the right or wrong key for each planet.</p><p>But between missions, we will tell you how you did overall.</p>",NA,NA,NA,NA,NA,NA,NA,NA,NA,2,6,"14,5,7,12,8,1,13,6,15,11,3,9,2,4,10"
14611,commdev-instructions,36,200562,NA,952.9000000003725,<p>Try your best! You will be paid a bonus based on how many correct responses you make!</p><p>Responses that are too slow will not count toward your bonus.</p>,NA,NA,NA,NA,NA,NA,NA,NA,NA,2,6,"14,5,7,12,8,1,13,6,15,11,3,9,2,4,10"
14611,commdev-instructions,37,208982,NA,2203.0999999996275,"<p>You are almost ready to start the real game.</p><p> First, we are going to ask you some questions about how the game works.</p>",NA,NA,NA,NA,NA,NA,NA,NA,NA,2,6,"14,5,7,12,8,1,13,6,15,11,3,9,2,4,10"
14611,commdev-instructions,46,294024,NA,2598.899999999441,"<p> Nice work! It is now time to start the real game.<p></p>You will go on two missions to record wind directions of different planets.<p></p>Each one will take about 5 minutes. You will get to take a break between missions.<p><p> Remember, press <strong>F</strong> or <strong>J</strong> depending on the wind direction. Good luck!<br><img src=""img/categorize_planet_example.png""",NA,NA,NA,NA,NA,NA,NA,NA,NA,2,6,"14,5,7,12,8,1,13,6,15,11,3,9,2,4,10"
14611,commdev-image-keyboard-response,48,297404,learnblock1,null,img/planet8_left.png,8,Community 1,NA,FALSE,null,f,NA,NA,NA,2,6,"14,5,7,12,8,1,13,6,15,11,3,9,2,4,10"
14611,commdev-image-keyboard-response,49,298674,learnblock1,null,img/planet7_right.png,7,Community 1,NA,FALSE,null,j,NA,NA,NA,2,6,"14,5,7,12,8,1,13,6,15,11,3,9,2,4,10"
14611,commdev-image-keyboard-response,50,299933,learnblock1,73.40000000037253,img/planet14_right.png,14,Community 1,NA,TRUE,j,j,NA,NA,NA,2,6,"14,5,7,12,8,1,13,6,15,11,3,9,2,4,10"
14611,commdev-image-keyboard-response,51,301187,learnblock1,107.8999999994412,img/planet5_left.png,5,Community 1,NA,FALSE,j,f,NA,NA,NA,2,6,"14,5,7,12,8,1,13,6,15,11,3,9,2,4,10"
14611,commdev-image-keyboard-response,52,302454,learnblock1,65.1000000005588,img/planet7_right.png,7,Community 1,NA,FALSE,f,j,NA,NA,NA,2,6,"14,5,7,12,8,1,13,6,15,11,3,9,2,4,10"
14611,commdev-image-keyboard-response,53,303724,learnblock1,145.09999999962747,img/planet12_left.png,12,Community 1,NA,FALSE,j,f,NA,NA,NA,2,6,"14,5,7,12,8,1,13,6,15,11,3,9,2,4,10"
14611,commdev-image-keyboard-response,54,304993,learnblock1,82.80000000074506,img/planet1_left.png,1,Community 2,NA,TRUE,f,f,NA,NA,NA,2,6,"14,5,7,12,8,1,13,6,15,11,3,9,2,4,10"
14611,commdev-image-keyboard-response,55,306253,learnblock1,149.09999999962747,img/planet12_right.png,12,Community 1,NA,FALSE,f,j,NA,NA,NA,2,6,"14,5,7,12,8,1,13,6,15,11,3,9,2,4,10"
14611,commdev-image-keyboard-response,56,307504,learnblock1,26.100000000558794,img/planet1_right.png,1,Community 2,NA,TRUE,j,j,NA,NA,NA,2,6,"14,5,7,12,8,1,13,6,15,11,3,9,2,4,10"
14611,commdev-image-keyboard-response,57,308773,learnblock1,85.80000000074506,img/planet13_right.png,13,Community 2,NA,TRUE,j,j,NA,NA,NA,2,6,"14,5,7,12,8,1,13,6,15,11,3,9,2,4,10"
14611,commdev-image-keyboard-response,58,310025,learnblock1,55.700000000186265,img/planet11_left.png,11,Community 2,NA,FALSE,j,f,NA,NA,NA,2,6,"14,5,7,12,8,1,13,6,15,11,3,9,2,4,10"
14611,commdev-image-keyboard-response,59,311283,learnblock1,157.5,img/planet6_left.png,6,Community 2,NA,TRUE,f,f,NA,NA,NA,2,6,"14,5,7,12,8,1,13,6,15,11,3,9,2,4,10"
14611,commdev-image-keyboard-response,60,312554,learnblock1,153.70000000018626,img/planet9_left.png,9,Community 3,NA,FALSE,j,f,NA,NA,NA,2,6,"14,5,7,12,8,1,13,6,15,11,3,9,2,4,10"
14611,commdev-image-keyboard-response,61,313820,learnblock1,0.2999999998137355,img/planet6_right.png,6,Community 2,NA,FALSE,f,j,NA,NA,NA,2,6,"14,5,7,12,8,1,13,6,15,11,3,9,2,4,10"
14611,commdev-image-keyboard-response,62,315083,learnblock1,41.200000000186265,img/planet11_left.png,11,Community 2,NA,FALSE,j,f,NA,NA,NA,2,6,"14,5,7,12,8,1,13,6,15,11,3,9,2,4,10"
14611,commdev-image-keyboard-response,63,316341,learnblock1,7.1000000005587935,img/planet6_right.png,6,Community 2,NA,FALSE,f,j,NA,NA,NA,2,6,"14,5,7,12,8,1,13,6,15,11,3,9,2,4,10"
14611,commdev-image-keyboard-response,64,317603,learnblock1,242.90000000037253,img/planet15_left.png,15,Community 2,NA,TRUE,f,f,NA,NA,NA,2,6,"14,5,7,12,8,1,13,6,15,11,3,9,2,4,10"
14611,commdev-image-keyboard-response,65,318861,learnblock1,50.60000000055879,img/planet1_left.png,1,Community 2,NA,FALSE,j,f,NA,NA,NA,2,6,"14,5,7,12,8,1,13,6,15,11,3,9,2,4,10"
14611,commdev-image-keyboard-response,66,320124,learnblock1,28.5,img/planet11_right.png,11,Community 2,NA,FALSE,f,j,NA,NA,NA,2,6,"14,5,7,12,8,1,13,6,15,11,3,9,2,4,10"
14611,commdev-image-keyboard-response,67,321385,learnblock1,9.5,img/planet1_right.png,1,Community 2,NA,FALSE,f,j,NA,NA,NA,2,6,"14,5,7,12,8,1,13,6,15,11,3,9,2,4,10"
14611,commdev-image-keyboard-response,68,322637,learnblock1,69.19999999925494,img/planet12_right.png,12,Community 1,NA,TRUE,j,j,NA,NA,NA,2,6,"14,5,7,12,8,1,13,6,15,11,3,9,2,4,10"
14611,commdev-image-keyboard-response,69,323892,learnblock1,64.79999999981374,img/planet1_right.png,1,Community 2,NA,TRUE,j,j,NA,NA,NA,2,6,"14,5,7,12,8,1,13,6,15,11,3,9,2,4,10"
14611,commdev-image-keyboard-response,70,325149,learnblock1,479.3999999994412,img/planet13_left.png,13,Community 2,NA,TRUE,f,f,NA,NA,NA,2,6,"14,5,7,12,8,1,13,6,15,11,3,9,2,4,10"
14611,commdev-image-keyboard-response,71,326404,learnblock1,74.09999999962747,img/planet6_right.png,6,Community 2,NA,FALSE,f,j,NA,NA,NA,2,6,"14,5,7,12,8,1,13,6,15,11,3,9,2,4,10"
14611,commdev-image-keyboard-response,72,327661,learnblock1,147.40000000037253,img/planet11_left.png,11,Community 2,NA,FALSE,j,f,NA,NA,NA,2,6,"14,5,7,12,8,1,13,6,15,11,3,9,2,4,10"
14611,commdev-image-keyboard-response,73,328920,learnblock1,3.400000000372529,img/planet6_right.png,6,Community 2,NA,FALSE,f,j,NA,NA,NA,2,6,"14,5,7,12,8,1,13,6,15,11,3,9,2,4,10"
14611,commdev-image-keyboard-response,74,330174,learnblock1,165.5,img/planet9_left.png,9,Community 3,NA,FALSE,j,f,NA,NA,NA,2,6,"14,5,7,12,8,1,13,6,15,11,3,9,2,4,10"
14611,commdev-image-keyboard-response,75,331427,learnblock1,39.30000000074506,img/planet6_right.png,6,Community 2,NA,FALSE,f,j,NA,NA,NA,2,6,"14,5,7,12,8,1,13,6,15,11,3,9,2,4,10"
14611,commdev-image-keyboard-response,76,332683,learnblock1,1.599999999627471,img/planet11_right.png,11,Community 2,NA,TRUE,j,j,NA,NA,NA,2,6,"14,5,7,12,8,1,13,6,15,11,3,9,2,4,10"
14611,commdev-image-keyboard-response,77,333942,learnblock1,60.700000000186265,img/planet13_right.png,13,Community 2,NA,FALSE,f,j,NA,NA,NA,2,6,"14,5,7,12,8,1,13,6,15,11,3,9,2,4,10"
14611,commdev-image-keyboard-response,78,335208,learnblock1,83.20000000018626,img/planet11_left.png,11,Community 2,NA,FALSE,j,f,NA,NA,NA,2,6,"14,5,7,12,8,1,13,6,15,11,3,9,2,4,10"
14611,commdev-image-keyboard-response,79,336461,learnblock1,161.29999999981374,img/planet1_right.png,1,Community 2,NA,TRUE,j,j,NA,NA,NA,2,6,"14,5,7,12,8,1,13,6,15,11,3,9,2,4,10"
14611,commdev-image-keyboard-response,80,337712,learnblock1,215.8999999994412,img/planet13_right.png,13,Community 2,NA,FALSE,f,j,NA,NA,NA,2,6,"14,5,7,12,8,1,13,6,15,11,3,9,2,4,10"
14611,commdev-image-keyboard-response,81,338967,learnblock1,147.19999999925494,img/planet11_left.png,11,Community 2,NA,FALSE,j,f,NA,NA,NA,2,6,"14,5,7,12,8,1,13,6,15,11,3,9,2,4,10"
14611,commdev-image-keyboard-response,82,340226,learnblock1,252.90000000037253,img/planet6_right.png,6,Community 2,NA,TRUE,j,j,NA,NA,NA,2,6,"14,5,7,12,8,1,13,6,15,11,3,9,2,4,10"
14611,commdev-image-keyboard-response,83,341482,learnblock1,130,img/planet9_left.png,9,Community 3,NA,FALSE,j,f,NA,NA,NA,2,6,"14,5,7,12,8,1,13,6,15,11,3,9,2,4,10"
14611,commdev-image-keyboard-response,84,342734,learnblock1,97.70000000018626,img/planet4_left.png,4,Community 3,NA,TRUE,f,f,NA,NA,NA,2,6,"14,5,7,12,8,1,13,6,15,11,3,9,2,4,10"
14611,commdev-image-keyboard-response,85,343986,learnblock1,132.79999999981374,img/planet9_left.png,9,Community 3,NA,TRUE,f,f,NA,NA,NA,2,6,"14,5,7,12,8,1,13,6,15,11,3,9,2,4,10"
14611,commdev-image-keyboard-response,86,345243,learnblock1,110,img/planet4_left.png,4,Community 3,NA,FALSE,j,f,NA,NA,NA,2,6,"14,5,7,12,8,1,13,6,15,11,3,9,2,4,10"
14611,commdev-image-keyboard-response,87,346499,learnblock1,122,img/planet3_left.png,3,Community 3,NA,FALSE,j,f,NA,NA,NA,2,6,"14,5,7,12,8,1,13,6,15,11,3,9,2,4,10"
14611,commdev-image-keyboard-response,88,347804,learnblock1,285.6000000005588,img/planet8_right.png,8,Community 1,NA,TRUE,j,j,NA,NA,NA,2,6,"14,5,7,12,8,1,13,6,15,11,3,9,2,4,10"
14611,commdev-image-keyboard-response,89,349063,learnblock1,173.79999999981374,img/planet5_left.png,5,Community 1,NA,FALSE,j,f,NA,NA,NA,2,6,"14,5,7,12,8,1,13,6,15,11,3,9,2,4,10"
14611,commdev-image-keyboard-response,90,350315,learnblock1,164.90000000037253,img/planet8_left.png,8,Community 1,NA,FALSE,j,f,NA,NA,NA,2,6,"14,5,7,12,8,1,13,6,15,11,3,9,2,4,10"
14611,commdev-image-keyboard-response,91,351575,learnblock1,122.29999999981374,img/planet14_left.png,14,Community 1,NA,FALSE,j,f,NA,NA,NA,2,6,"14,5,7,12,8,1,13,6,15,11,3,9,2,4,10"
14611,commdev-image-keyboard-response,92,352840,learnblock1,51.5,img/planet5_right.png,5,Community 1,NA,FALSE,f,j,NA,NA,NA,2,6,"14,5,7,12,8,1,13,6,15,11,3,9,2,4,10"
14611,commdev-image-keyboard-response,93,354095,learnblock1,114.29999999981374,img/planet14_right.png,14,Community 1,NA,TRUE,j,j,NA,NA,NA,2,6,"14,5,7,12,8,1,13,6,15,11,3,9,2,4,10"
14611,commdev-image-keyboard-response,94,355347,learnblock1,69,img/planet8_right.png,8,Community 1,NA,TRUE,j,j,NA,NA,NA,2,6,"14,5,7,12,8,1,13,6,15,11,3,9,2,4,10"
14611,commdev-image-keyboard-response,95,356606,learnblock1,247.20000000018626,img/planet3_left.png,3,Community 3,NA,FALSE,j,f,NA,NA,NA,2,6,"14,5,7,12,8,1,13,6,15,11,3,9,2,4,10"
14611,commdev-image-keyboard-response,96,357870,learnblock1,196.1000000005588,img/planet4_left.png,4,Community 3,NA,TRUE,f,f,NA,NA,NA,2,6,"14,5,7,12,8,1,13,6,15,11,3,9,2,4,10"
14611,commdev-image-keyboard-response,97,359128,learnblock1,1112.5,img/planet2_left.png,2,Community 3,NA,TRUE,f,f,NA,NA,NA,2,6,"14,5,7,12,8,1,13,6,15,11,3,9,2,4,10"
14611,commdev-image-keyboard-response,98,360382,learnblock1,112.79999999981374,img/planet10_left.png,10,Community 3,NA,TRUE,f,f,NA,NA,NA,2,6,"14,5,7,12,8,1,13,6,15,11,3,9,2,4,10"
14611,commdev-image-keyboard-response,99,361635,learnblock1,390.1000000005588,img/planet4_right.png,4,Community 3,NA,FALSE,f,j,NA,NA,NA,2,6,"14,5,7,12,8,1,13,6,15,11,3,9,2,4,10"
14611,commdev-image-keyboard-response,100,362891,learnblock1,812.0999999996275,img/planet2_right.png,2,Community 3,NA,FALSE,f,j,NA,NA,NA,2,6,"14,5,7,12,8,1,13,6,15,11,3,9,2,4,10"
14611,commdev-image-keyboard-response,101,364149,learnblock1,83,img/planet3_left.png,3,Community 3,NA,TRUE,f,f,NA,NA,NA,2,6,"14,5,7,12,8,1,13,6,15,11,3,9,2,4,10"
14611,commdev-image-keyboard-response,102,365408,learnblock1,274.6000000005588,img/planet10_right.png,10,Community 3,NA,TRUE,j,j,NA,NA,NA,2,6,"14,5,7,12,8,1,13,6,15,11,3,9,2,4,10"
14611,commdev-image-keyboard-response,103,366660,learnblock1,381.90000000037253,img/planet4_left.png,4,Community 3,NA,TRUE,f,f,NA,NA,NA,2,6,"14,5,7,12,8,1,13,6,15,11,3,9,2,4,10"
14611,commdev-image-keyboard-response,104,367914,learnblock1,238.30000000074506,img/planet9_left.png,9,Community 3,NA,TRUE,f,f,NA,NA,NA,2,6,"14,5,7,12,8,1,13,6,15,11,3,9,2,4,10"
14611,commdev-image-keyboard-response,105,369166,learnblock1,46.10000000055879,img/planet2_left.png,2,Community 3,NA,FALSE,j,f,NA,NA,NA,2,6,"14,5,7,12,8,1,13,6,15,11,3,9,2,4,10"
14611,commdev-image-keyboard-response,106,370422,learnblock1,124.3999999994412,img/planet3_left.png,3,Community 3,NA,FALSE,j,f,NA,NA,NA,2,6,"14,5,7,12,8,1,13,6,15,11,3,9,2,4,10"
14611,commdev-image-keyboard-response,107,371676,learnblock1,null,img/planet4_left.png,4,Community 3,NA,FALSE,null,f,NA,NA,NA,2,6,"14,5,7,12,8,1,13,6,15,11,3,9,2,4,10"
14611,commdev-image-keyboard-response,108,372928,learnblock1,299.59999999962747,img/planet9_right.png,9,Community 3,NA,FALSE,f,j,NA,NA,NA,2,6,"14,5,7,12,8,1,13,6,15,11,3,9,2,4,10"
14611,commdev-image-keyboard-response,109,374179,learnblock1,151.70000000018626,img/planet4_right.png,4,Community 3,NA,FALSE,f,j,NA,NA,NA,2,6,"14,5,7,12,8,1,13,6,15,11,3,9,2,4,10"
14611,commdev-image-keyboard-response,110,375433,learnblock1,172.40000000037253,img/planet10_right.png,10,Community 3,NA,TRUE,j,j,NA,NA,NA,2,6,"14,5,7,12,8,1,13,6,15,11,3,9,2,4,10"
14611,commdev-image-keyboard-response,111,376685,learnblock1,11.599999999627471,img/planet9_left.png,9,Community 3,NA,FALSE,j,f,NA,NA,NA,2,6,"14,5,7,12,8,1,13,6,15,11,3,9,2,4,10"
14611,commdev-image-keyboard-response,112,377944,learnblock1,262.59999999962747,img/planet4_right.png,4,Community 3,NA,FALSE,f,j,NA,NA,NA,2,6,"14,5,7,12,8,1,13,6,15,11,3,9,2,4,10"
14611,commdev-image-keyboard-response,113,379202,learnblock1,18.5,img/planet9_right.png,9,Community 3,NA,TRUE,j,j,NA,NA,NA,2,6,"14,5,7,12,8,1,13,6,15,11,3,9,2,4,10"
14611,commdev-image-keyboard-response,114,380455,learnblock1,98,img/planet10_left.png,10,Community 3,NA,TRUE,f,f,NA,NA,NA,2,6,"14,5,7,12,8,1,13,6,15,11,3,9,2,4,10"
14611,commdev-image-keyboard-response,115,381711,learnblock1,62.700000000186265,img/planet4_left.png,4,Community 3,NA,TRUE,f,f,NA,NA,NA,2,6,"14,5,7,12,8,1,13,6,15,11,3,9,2,4,10"
14611,commdev-image-keyboard-response,116,382969,learnblock1,229.40000000037253,img/planet10_right.png,10,Community 3,NA,TRUE,j,j,NA,NA,NA,2,6,"14,5,7,12,8,1,13,6,15,11,3,9,2,4,10"
14611,commdev-image-keyboard-response,117,384225,learnblock1,140.09999999962747,img/planet9_left.png,9,Community 3,NA,FALSE,j,f,NA,NA,NA,2,6,"14,5,7,12,8,1,13,6,15,11,3,9,2,4,10"
14611,commdev-image-keyboard-response,118,385491,learnblock1,34.60000000055879,img/planet10_left.png,10,Community 3,NA,FALSE,j,f,NA,NA,NA,2,6,"14,5,7,12,8,1,13,6,15,11,3,9,2,4,10"
14611,commdev-image-keyboard-response,119,386755,learnblock1,23.59999999962747,img/planet9_left.png,9,Community 3,NA,TRUE,f,f,NA,NA,NA,2,6,"14,5,7,12,8,1,13,6,15,11,3,9,2,4,10"
14611,commdev-image-keyboard-response,120,388020,learnblock1,271.20000000018626,img/planet6_left.png,6,Community 2,NA,TRUE,f,f,NA,NA,NA,2,6,"14,5,7,12,8,1,13,6,15,11,3,9,2,4,10"
14611,commdev-image-keyboard-response,121,389272,learnblock1,1.2999999998137355,img/planet15_left.png,15,Community 2,NA,FALSE,j,f,NA,NA,NA,2,6,"14,5,7,12,8,1,13,6,15,11,3,9,2,4,10"
14611,commdev-image-keyboard-response,122,390530,learnblock1,33.799999999813735,img/planet13_left.png,13,Community 2,NA,FALSE,j,f,NA,NA,NA,2,6,"14,5,7,12,8,1,13,6,15,11,3,9,2,4,10"
14611,commdev-image-keyboard-response,123,391788,learnblock1,36.299999999813735,img/planet15_right.png,15,Community 2,NA,FALSE,f,j,NA,NA,NA,2,6,"14,5,7,12,8,1,13,6,15,11,3,9,2,4,10"
14611,commdev-image-keyboard-response,124,393046,learnblock1,52.200000000186265,img/planet1_left.png,1,Community 2,NA,FALSE,j,f,NA,NA,NA,2,6,"14,5,7,12,8,1,13,6,15,11,3,9,2,4,10"
14611,commdev-image-keyboard-response,125,394302,learnblock1,144,img/planet12_left.png,12,Community 1,NA,TRUE,f,f,NA,NA,NA,2,6,"14,5,7,12,8,1,13,6,15,11,3,9,2,4,10"
14611,commdev-image-keyboard-response,126,395558,learnblock1,28.90000000037253,img/planet5_left.png,5,Community 1,NA,TRUE,f,f,NA,NA,NA,2,6,"14,5,7,12,8,1,13,6,15,11,3,9,2,4,10"
14611,commdev-image-keyboard-response,127,396824,learnblock1,205.09999999962747,img/planet14_left.png,14,Community 1,NA,FALSE,j,f,NA,NA,NA,2,6,"14,5,7,12,8,1,13,6,15,11,3,9,2,4,10"
14611,commdev-image-keyboard-response,128,398080,learnblock1,7.2000000001862645,img/planet7_right.png,7,Community 1,NA,TRUE,j,j,NA,NA,NA,2,6,"14,5,7,12,8,1,13,6,15,11,3,9,2,4,10"
14611,commdev-image-keyboard-response,129,399336,learnblock1,313.29999999981374,img/planet5_left.png,5,Community 1,NA,FALSE,j,f,NA,NA,NA,2,6,"14,5,7,12,8,1,13,6,15,11,3,9,2,4,10"
14611,commdev-image-keyboard-response,130,400588,learnblock1,85.70000000018626,img/planet8_left.png,8,Community 1,NA,FALSE,j,f,NA,NA,NA,2,6,"14,5,7,12,8,1,13,6,15,11,3,9,2,4,10"
14611,commdev-image-keyboard-response,131,401845,learnblock1,214.29999999981374,img/planet3_left.png,3,Community 3,NA,TRUE,f,f,NA,NA,NA,2,6,"14,5,7,12,8,1,13,6,15,11,3,9,2,4,10"
14611,commdev-image-keyboard-response,132,403105,learnblock1,349.40000000037253,img/planet8_right.png,8,Community 1,NA,TRUE,j,j,NA,NA,NA,2,6,"14,5,7,12,8,1,13,6,15,11,3,9,2,4,10"
14611,commdev-image-keyboard-response,133,404362,learnblock1,285.8999999994412,img/planet7_left.png,7,Community 1,NA,TRUE,f,f,NA,NA,NA,2,6,"14,5,7,12,8,1,13,6,15,11,3,9,2,4,10"
14611,commdev-image-keyboard-response,134,405619,learnblock1,821.8000000007451,img/planet8_right.png,8,Community 1,NA,TRUE,j,j,NA,NA,NA,2,6,"14,5,7,12,8,1,13,6,15,11,3,9,2,4,10"
14611,commdev-image-keyboard-response,135,406874,learnblock1,213.30000000074506,img/planet3_left.png,3,Community 3,NA,FALSE,j,f,NA,NA,NA,2,6,"14,5,7,12,8,1,13,6,15,11,3,9,2,4,10"
14611,commdev-image-keyboard-response,136,408184,learnblock1,187.1000000005588,img/planet8_right.png,8,Community 1,NA,TRUE,j,j,NA,NA,NA,2,6,"14,5,7,12,8,1,13,6,15,11,3,9,2,4,10"
14611,commdev-image-keyboard-response,137,409442,learnblock1,462,img/planet14_left.png,14,Community 1,NA,TRUE,f,f,NA,NA,NA,2,6,"14,5,7,12,8,1,13,6,15,11,3,9,2,4,10"
14611,commdev-image-keyboard-response,138,410698,learnblock1,461.6000000005588,img/planet5_left.png,5,Community 1,NA,FALSE,j,f,NA,NA,NA,2,6,"14,5,7,12,8,1,13,6,15,11,3,9,2,4,10"
14611,commdev-image-keyboard-response,139,411954,learnblock1,74.20000000018626,img/planet12_right.png,12,Community 1,NA,FALSE,f,j,NA,NA,NA,2,6,"14,5,7,12,8,1,13,6,15,11,3,9,2,4,10"
14611,commdev-image-keyboard-response,140,413215,learnblock1,535.5999999996275,img/planet5_right.png,5,Community 1,NA,FALSE,f,j,NA,NA,NA,2,6,"14,5,7,12,8,1,13,6,15,11,3,9,2,4,10"
14611,commdev-image-keyboard-response,141,414468,learnblock1,74.09999999962747,img/planet8_left.png,8,Community 1,NA,TRUE,f,f,NA,NA,NA,2,6,"14,5,7,12,8,1,13,6,15,11,3,9,2,4,10"
14611,commdev-image-keyboard-response,142,415722,learnblock1,99.69999999925494,img/planet7_left.png,7,Community 1,NA,FALSE,j,f,NA,NA,NA,2,6,"14,5,7,12,8,1,13,6,15,11,3,9,2,4,10"
14611,commdev-image-keyboard-response,143,416980,learnblock1,100.70000000018626,img/planet12_right.png,12,Community 1,NA,TRUE,j,j,NA,NA,NA,2,6,"14,5,7,12,8,1,13,6,15,11,3,9,2,4,10"
14611,commdev-image-keyboard-response,144,418232,learnblock1,103,img/planet14_left.png,14,Community 1,NA,FALSE,j,f,NA,NA,NA,2,6,"14,5,7,12,8,1,13,6,15,11,3,9,2,4,10"
14611,commdev-image-keyboard-response,145,419489,learnblock1,42.299999999813735,img/planet12_left.png,12,Community 1,NA,FALSE,j,f,NA,NA,NA,2,6,"14,5,7,12,8,1,13,6,15,11,3,9,2,4,10"
14611,commdev-image-keyboard-response,146,420743,learnblock1,319.70000000018626,img/planet14_right.png,14,Community 1,NA,FALSE,f,j,NA,NA,NA,2,6,"14,5,7,12,8,1,13,6,15,11,3,9,2,4,10"
14611,commdev-image-keyboard-response,147,421998,learnblock1,172.5,img/planet8_left.png,8,Community 1,NA,TRUE,f,f,NA,NA,NA,2,6,"14,5,7,12,8,1,13,6,15,11,3,9,2,4,10"
14611,commdev-image-keyboard-response,148,423255,learnblock1,115.59999999962747,img/planet5_right.png,5,Community 1,NA,FALSE,f,j,NA,NA,NA,2,6,"14,5,7,12,8,1,13,6,15,11,3,9,2,4,10"
14611,commdev-image-keyboard-response,149,424509,learnblock1,346.59999999962747,img/planet12_right.png,12,Community 1,NA,TRUE,j,j,NA,NA,NA,2,6,"14,5,7,12,8,1,13,6,15,11,3,9,2,4,10"
14611,commdev-image-keyboard-response,150,425765,learnblock1,261.59999999962747,img/planet5_right.png,5,Community 1,NA,FALSE,f,j,NA,NA,NA,2,6,"14,5,7,12,8,1,13,6,15,11,3,9,2,4,10"
14611,commdev-image-keyboard-response,151,427030,learnblock1,4.800000000745058,img/planet12_left.png,12,Community 1,NA,TRUE,f,f,NA,NA,NA,2,6,"14,5,7,12,8,1,13,6,15,11,3,9,2,4,10"
14611,commdev-image-keyboard-response,152,428289,learnblock1,132.1000000005588,img/planet5_right.png,5,Community 1,NA,TRUE,j,j,NA,NA,NA,2,6,"14,5,7,12,8,1,13,6,15,11,3,9,2,4,10"
14611,commdev-image-keyboard-response,153,429543,learnblock1,281.20000000018626,img/planet7_right.png,7,Community 1,NA,FALSE,f,j,NA,NA,NA,2,6,"14,5,7,12,8,1,13,6,15,11,3,9,2,4,10"
14611,commdev-image-keyboard-response,154,430797,learnblock1,468.29999999981374,img/planet8_right.png,8,Community 1,NA,TRUE,j,j,NA,NA,NA,2,6,"14,5,7,12,8,1,13,6,15,11,3,9,2,4,10"
14611,commdev-image-keyboard-response,155,432055,learnblock1,176,img/planet5_left.png,5,Community 1,NA,FALSE,j,f,NA,NA,NA,2,6,"14,5,7,12,8,1,13,6,15,11,3,9,2,4,10"
14611,commdev-image-keyboard-response,156,433315,learnblock1,111.8999999994412,img/planet7_left.png,7,Community 1,NA,TRUE,f,f,NA,NA,NA,2,6,"14,5,7,12,8,1,13,6,15,11,3,9,2,4,10"
14611,commdev-image-keyboard-response,157,434572,learnblock1,192.6000000005588,img/planet12_right.png,12,Community 1,NA,FALSE,f,j,NA,NA,NA,2,6,"14,5,7,12,8,1,13,6,15,11,3,9,2,4,10"
14611,commdev-image-keyboard-response,158,435831,learnblock1,160.09999999962747,img/planet7_left.png,7,Community 1,NA,TRUE,f,f,NA,NA,NA,2,6,"14,5,7,12,8,1,13,6,15,11,3,9,2,4,10"
14611,commdev-image-keyboard-response,159,437083,learnblock1,316.5,img/planet5_right.png,5,Community 1,NA,FALSE,f,j,NA,NA,NA,2,6,"14,5,7,12,8,1,13,6,15,11,3,9,2,4,10"
14611,commdev-image-keyboard-response,160,438341,learnblock1,161.30000000074506,img/planet12_right.png,12,Community 1,NA,FALSE,f,j,NA,NA,NA,2,6,"14,5,7,12,8,1,13,6,15,11,3,9,2,4,10"
14611,commdev-image-keyboard-response,161,439596,learnblock1,52.299999999813735,img/planet1_right.png,1,Community 2,NA,TRUE,j,j,NA,NA,NA,2,6,"14,5,7,12,8,1,13,6,15,11,3,9,2,4,10"
14611,commdev-image-keyboard-response,162,440847,learnblock1,267.20000000018626,img/planet15_right.png,15,Community 2,NA,TRUE,j,j,NA,NA,NA,2,6,"14,5,7,12,8,1,13,6,15,11,3,9,2,4,10"
14611,commdev-image-keyboard-response,163,442106,learnblock1,843,img/planet6_right.png,6,Community 2,NA,TRUE,j,j,NA,NA,NA,2,6,"14,5,7,12,8,1,13,6,15,11,3,9,2,4,10"
14611,commdev-image-keyboard-response,164,443361,learnblock1,622.1999999992549,img/planet15_right.png,15,Community 2,NA,TRUE,j,j,NA,NA,NA,2,6,"14,5,7,12,8,1,13,6,15,11,3,9,2,4,10"
14611,commdev-image-keyboard-response,165,444612,learnblock1,174.3999999994412,img/planet1_left.png,1,Community 2,NA,FALSE,j,f,NA,NA,NA,2,6,"14,5,7,12,8,1,13,6,15,11,3,9,2,4,10"
14611,commdev-image-keyboard-response,166,445868,learnblock1,129.29999999981374,img/planet11_right.png,11,Community 2,NA,FALSE,f,j,NA,NA,NA,2,6,"14,5,7,12,8,1,13,6,15,11,3,9,2,4,10"
14611,commdev-image-keyboard-response,167,447122,learnblock1,490.70000000018626,img/planet15_right.png,15,Community 2,NA,FALSE,f,j,NA,NA,NA,2,6,"14,5,7,12,8,1,13,6,15,11,3,9,2,4,10"
14611,commdev-image-keyboard-response,168,448376,learnblock1,161.70000000018626,img/planet11_left.png,11,Community 2,NA,TRUE,f,f,NA,NA,NA,2,6,"14,5,7,12,8,1,13,6,15,11,3,9,2,4,10"
14611,commdev-image-keyboard-response,169,449633,learnblock1,22.399999999441206,img/planet13_left.png,13,Community 2,NA,TRUE,f,f,NA,NA,NA,2,6,"14,5,7,12,8,1,13,6,15,11,3,9,2,4,10"
14611,commdev-image-keyboard-response,170,450900,learnblock1,247.40000000037253,img/planet6_right.png,6,Community 2,NA,FALSE,f,j,NA,NA,NA,2,6,"14,5,7,12,8,1,13,6,15,11,3,9,2,4,10"
14611,commdev-image-keyboard-response,171,452153,learnblock1,19.700000000186265,img/planet13_left.png,13,Community 2,NA,FALSE,j,f,NA,NA,NA,2,6,"14,5,7,12,8,1,13,6,15,11,3,9,2,4,10"
14611,commdev-image-keyboard-response,172,453412,learnblock1,131.40000000037253,img/planet15_right.png,15,Community 2,NA,TRUE,j,j,NA,NA,NA,2,6,"14,5,7,12,8,1,13,6,15,11,3,9,2,4,10"
14611,commdev-image-keyboard-response,173,454670,learnblock1,98.3999999994412,img/planet11_left.png,11,Community 2,NA,TRUE,f,f,NA,NA,NA,2,6,"14,5,7,12,8,1,13,6,15,11,3,9,2,4,10"
14611,commdev-image-keyboard-response,174,455927,learnblock1,139.5,img/planet1_left.png,1,Community 2,NA,TRUE,f,f,NA,NA,NA,2,6,"14,5,7,12,8,1,13,6,15,11,3,9,2,4,10"
14611,commdev-image-keyboard-response,175,457182,learnblock1,38.5,img/planet13_right.png,13,Community 2,NA,TRUE,j,j,NA,NA,NA,2,6,"14,5,7,12,8,1,13,6,15,11,3,9,2,4,10"
14611,commdev-image-keyboard-response,176,458433,learnblock1,115.29999999981374,img/planet15_left.png,15,Community 2,NA,FALSE,j,f,NA,NA,NA,2,6,"14,5,7,12,8,1,13,6,15,11,3,9,2,4,10"
14611,commdev-image-keyboard-response,177,459688,learnblock1,129.29999999981374,img/planet13_right.png,13,Community 2,NA,TRUE,j,j,NA,NA,NA,2,6,"14,5,7,12,8,1,13,6,15,11,3,9,2,4,10"
14611,commdev-image-keyboard-response,178,460943,learnblock1,110.29999999981374,img/planet1_left.png,1,Community 2,NA,TRUE,f,f,NA,NA,NA,2,6,"14,5,7,12,8,1,13,6,15,11,3,9,2,4,10"
14611,commdev-image-keyboard-response,179,462198,learnblock1,77.79999999981374,img/planet11_right.png,11,Community 2,NA,FALSE,f,j,NA,NA,NA,2,6,"14,5,7,12,8,1,13,6,15,11,3,9,2,4,10"
14611,commdev-image-keyboard-response,180,463452,learnblock1,49.39999999944121,img/planet1_left.png,1,Community 2,NA,FALSE,j,f,NA,NA,NA,2,6,"14,5,7,12,8,1,13,6,15,11,3,9,2,4,10"
14611,commdev-image-keyboard-response,181,464708,learnblock1,89.09999999962747,img/planet13_left.png,13,Community 2,NA,TRUE,f,f,NA,NA,NA,2,6,"14,5,7,12,8,1,13,6,15,11,3,9,2,4,10"
14611,commdev-image-keyboard-response,182,465962,learnblock1,115.5,img/planet1_left.png,1,Community 2,NA,TRUE,f,f,NA,NA,NA,2,6,"14,5,7,12,8,1,13,6,15,11,3,9,2,4,10"
14611,commdev-image-keyboard-response,183,467219,learnblock1,193.3999999994412,img/planet11_right.png,11,Community 2,NA,FALSE,f,j,NA,NA,NA,2,6,"14,5,7,12,8,1,13,6,15,11,3,9,2,4,10"
14611,commdev-image-keyboard-response,184,468530,learnblock1,228.6000000005588,img/planet13_left.png,13,Community 2,NA,FALSE,j,f,NA,NA,NA,2,6,"14,5,7,12,8,1,13,6,15,11,3,9,2,4,10"
14611,commdev-image-keyboard-response,185,469797,learnblock1,174.79999999981374,img/planet1_right.png,1,Community 2,NA,FALSE,f,j,NA,NA,NA,2,6,"14,5,7,12,8,1,13,6,15,11,3,9,2,4,10"
14611,commdev-image-keyboard-response,186,471059,learnblock1,125.59999999962747,img/planet12_right.png,12,Community 1,NA,FALSE,f,j,NA,NA,NA,2,6,"14,5,7,12,8,1,13,6,15,11,3,9,2,4,10"
14611,commdev-image-keyboard-response,187,472310,learnblock1,167.5,img/planet1_right.png,1,Community 2,NA,TRUE,j,j,NA,NA,NA,2,6,"14,5,7,12,8,1,13,6,15,11,3,9,2,4,10"
14611,commdev-image-keyboard-response,188,473568,learnblock1,102.29999999981374,img/planet13_right.png,13,Community 2,NA,TRUE,j,j,NA,NA,NA,2,6,"14,5,7,12,8,1,13,6,15,11,3,9,2,4,10"
14611,commdev-image-keyboard-response,189,474825,learnblock1,2.199999999254942,img/planet1_right.png,1,Community 2,NA,FALSE,f,j,NA,NA,NA,2,6,"14,5,7,12,8,1,13,6,15,11,3,9,2,4,10"
14611,commdev-image-keyboard-response,190,476082,learnblock1,252.40000000037253,img/planet15_left.png,15,Community 2,NA,FALSE,j,f,NA,NA,NA,2,6,"14,5,7,12,8,1,13,6,15,11,3,9,2,4,10"
14611,commdev-image-keyboard-response,191,477338,learnblock1,220.40000000037253,img/planet6_left.png,6,Community 2,NA,FALSE,j,f,NA,NA,NA,2,6,"14,5,7,12,8,1,13,6,15,11,3,9,2,4,10"
14611,commdev-image-keyboard-response,192,478591,learnblock1,64.29999999981374,img/planet15_left.png,15,Community 2,NA,TRUE,f,f,NA,NA,NA,2,6,"14,5,7,12,8,1,13,6,15,11,3,9,2,4,10"
14611,commdev-image-keyboard-response,193,479845,learnblock1,219.8999999994412,img/planet11_right.png,11,Community 2,NA,FALSE,f,j,NA,NA,NA,2,6,"14,5,7,12,8,1,13,6,15,11,3,9,2,4,10"
14611,commdev-image-keyboard-response,194,481099,learnblock1,145.20000000018626,img/planet15_left.png,15,Community 2,NA,FALSE,j,f,NA,NA,NA,2,6,"14,5,7,12,8,1,13,6,15,11,3,9,2,4,10"
14611,commdev-image-keyboard-response,195,482354,learnblock1,103.19999999925494,img/planet11_right.png,11,Community 2,NA,TRUE,j,j,NA,NA,NA,2,6,"14,5,7,12,8,1,13,6,15,11,3,9,2,4,10"
14611,commdev-image-keyboard-response,196,483609,learnblock1,102.30000000074506,img/planet13_left.png,13,Community 2,NA,FALSE,j,f,NA,NA,NA,2,6,"14,5,7,12,8,1,13,6,15,11,3,9,2,4,10"
14611,commdev-image-keyboard-response,197,484861,learnblock1,239,img/planet1_left.png,1,Community 2,NA,TRUE,f,f,NA,NA,NA,2,6,"14,5,7,12,8,1,13,6,15,11,3,9,2,4,10"
14611,commdev-image-keyboard-response,198,486117,learnblock1,21.09999999962747,img/planet12_left.png,12,Community 1,NA,TRUE,f,f,NA,NA,NA,2,6,"14,5,7,12,8,1,13,6,15,11,3,9,2,4,10"
14611,commdev-image-keyboard-response,199,487373,learnblock1,24.299999999813735,img/planet7_left.png,7,Community 1,NA,FALSE,j,f,NA,NA,NA,2,6,"14,5,7,12,8,1,13,6,15,11,3,9,2,4,10"
14611,commdev-image-keyboard-response,200,488629,learnblock1,105.40000000037253,img/planet14_right.png,14,Community 1,NA,TRUE,j,j,NA,NA,NA,2,6,"14,5,7,12,8,1,13,6,15,11,3,9,2,4,10"
14611,commdev-image-keyboard-response,201,489882,learnblock1,74.8999999994412,img/planet8_left.png,8,Community 1,NA,FALSE,j,f,NA,NA,NA,2,6,"14,5,7,12,8,1,13,6,15,11,3,9,2,4,10"
14611,commdev-image-keyboard-response,202,491136,learnblock1,17.09999999962747,img/planet14_left.png,14,Community 1,NA,FALSE,j,f,NA,NA,NA,2,6,"14,5,7,12,8,1,13,6,15,11,3,9,2,4,10"
14611,commdev-image-keyboard-response,203,492388,learnblock1,110.8999999994412,img/planet8_right.png,8,Community 1,NA,TRUE,j,j,NA,NA,NA,2,6,"14,5,7,12,8,1,13,6,15,11,3,9,2,4,10"
14611,commdev-image-keyboard-response,204,493646,learnblock1,14.100000000558794,img/planet14_left.png,14,Community 1,NA,TRUE,f,f,NA,NA,NA,2,6,"14,5,7,12,8,1,13,6,15,11,3,9,2,4,10"
14611,commdev-image-keyboard-response,205,494897,learnblock1,230.29999999981374,img/planet12_right.png,12,Community 1,NA,TRUE,j,j,NA,NA,NA,2,6,"14,5,7,12,8,1,13,6,15,11,3,9,2,4,10"
14611,commdev-image-keyboard-response,206,496154,learnblock1,179.20000000018626,img/planet7_right.png,7,Community 1,NA,TRUE,j,j,NA,NA,NA,2,6,"14,5,7,12,8,1,13,6,15,11,3,9,2,4,10"
14611,commdev-image-keyboard-response,207,497407,learnblock1,51.10000000055879,img/planet12_left.png,12,Community 1,NA,FALSE,j,f,NA,NA,NA,2,6,"14,5,7,12,8,1,13,6,15,11,3,9,2,4,10"
14611,commdev-image-keyboard-response,208,498665,learnblock1,124.30000000074506,img/planet5_right.png,5,Community 1,NA,FALSE,f,j,NA,NA,NA,2,6,"14,5,7,12,8,1,13,6,15,11,3,9,2,4,10"
14611,commdev-image-keyboard-response,209,499920,learnblock1,220.90000000037253,img/planet14_right.png,14,Community 1,NA,TRUE,j,j,NA,NA,NA,2,6,"14,5,7,12,8,1,13,6,15,11,3,9,2,4,10"
14611,commdev-image-keyboard-response,210,501178,learnblock1,7.099999999627471,img/planet5_left.png,5,Community 1,NA,FALSE,j,f,NA,NA,NA,2,6,"14,5,7,12,8,1,13,6,15,11,3,9,2,4,10"
14611,commdev-image-keyboard-response,211,502432,learnblock1,425.30000000074506,img/planet7_left.png,7,Community 1,NA,FALSE,j,f,NA,NA,NA,2,6,"14,5,7,12,8,1,13,6,15,11,3,9,2,4,10"
14611,commdev-image-keyboard-response,212,503689,learnblock1,125,img/planet5_left.png,5,Community 1,NA,TRUE,f,f,NA,NA,NA,2,6,"14,5,7,12,8,1,13,6,15,11,3,9,2,4,10"
14611,commdev-image-keyboard-response,213,504941,learnblock1,266.20000000018626,img/planet14_right.png,14,Community 1,NA,TRUE,j,j,NA,NA,NA,2,6,"14,5,7,12,8,1,13,6,15,11,3,9,2,4,10"
14611,commdev-image-keyboard-response,214,506193,learnblock1,73,img/planet8_right.png,8,Community 1,NA,FALSE,f,j,NA,NA,NA,2,6,"14,5,7,12,8,1,13,6,15,11,3,9,2,4,10"
14611,commdev-image-keyboard-response,215,507446,learnblock1,296.70000000018626,img/planet5_left.png,5,Community 1,NA,TRUE,f,f,NA,NA,NA,2,6,"14,5,7,12,8,1,13,6,15,11,3,9,2,4,10"
14611,commdev-image-keyboard-response,216,508701,learnblock1,143.40000000037253,img/planet8_right.png,8,Community 1,NA,FALSE,f,j,NA,NA,NA,2,6,"14,5,7,12,8,1,13,6,15,11,3,9,2,4,10"
14611,commdev-image-keyboard-response,217,509959,learnblock1,3.8999999994412065,img/planet5_right.png,5,Community 1,NA,FALSE,f,j,NA,NA,NA,2,6,"14,5,7,12,8,1,13,6,15,11,3,9,2,4,10"
14611,commdev-image-keyboard-response,218,511210,learnblock1,346.20000000018626,img/planet14_right.png,14,Community 1,NA,TRUE,j,j,NA,NA,NA,2,6,"14,5,7,12,8,1,13,6,15,11,3,9,2,4,10"
14611,commdev-image-keyboard-response,219,512462,learnblock1,27.899999999441206,img/planet5_right.png,5,Community 1,NA,FALSE,f,j,NA,NA,NA,2,6,"14,5,7,12,8,1,13,6,15,11,3,9,2,4,10"
14611,commdev-image-keyboard-response,220,513715,learnblock1,758.2000000001863,img/planet14_right.png,14,Community 1,NA,FALSE,f,j,NA,NA,NA,2,6,"14,5,7,12,8,1,13,6,15,11,3,9,2,4,10"
14611,commdev-image-keyboard-response,221,514967,learnblock1,199.09999999962747,img/planet7_left.png,7,Community 1,NA,FALSE,j,f,NA,NA,NA,2,6,"14,5,7,12,8,1,13,6,15,11,3,9,2,4,10"
14611,commdev-image-keyboard-response,222,516219,learnblock1,94.79999999981374,img/planet12_right.png,12,Community 1,NA,FALSE,f,j,NA,NA,NA,2,6,"14,5,7,12,8,1,13,6,15,11,3,9,2,4,10"
14611,commdev-image-keyboard-response,223,517471,learnblock1,103.70000000018626,img/planet1_right.png,1,Community 2,NA,FALSE,f,j,NA,NA,NA,2,6,"14,5,7,12,8,1,13,6,15,11,3,9,2,4,10"
14611,commdev-image-keyboard-response,224,518731,learnblock1,166.29999999981374,img/planet12_left.png,12,Community 1,NA,TRUE,f,f,NA,NA,NA,2,6,"14,5,7,12,8,1,13,6,15,11,3,9,2,4,10"
14611,commdev-image-keyboard-response,225,519987,learnblock1,795.4000000003725,img/planet14_right.png,14,Community 1,NA,FALSE,f,j,NA,NA,NA,2,6,"14,5,7,12,8,1,13,6,15,11,3,9,2,4,10"
14611,commdev-image-keyboard-response,226,521244,learnblock1,15,img/planet5_right.png,5,Community 1,NA,FALSE,f,j,NA,NA,NA,2,6,"14,5,7,12,8,1,13,6,15,11,3,9,2,4,10"
14611,commdev-image-keyboard-response,227,522508,learnblock1,188.09999999962747,img/planet14_left.png,14,Community 1,NA,FALSE,j,f,NA,NA,NA,2,6,"14,5,7,12,8,1,13,6,15,11,3,9,2,4,10"
14611,commdev-image-keyboard-response,228,523763,learnblock1,205.8999999994412,img/planet12_right.png,12,Community 1,NA,TRUE,j,j,NA,NA,NA,2,6,"14,5,7,12,8,1,13,6,15,11,3,9,2,4,10"
14611,commdev-image-keyboard-response,229,525017,learnblock1,86.8999999994412,img/planet7_left.png,7,Community 1,NA,FALSE,j,f,NA,NA,NA,2,6,"14,5,7,12,8,1,13,6,15,11,3,9,2,4,10"
14611,commdev-image-keyboard-response,230,526275,learnblock1,64.79999999981374,img/planet12_right.png,12,Community 1,NA,TRUE,j,j,NA,NA,NA,2,6,"14,5,7,12,8,1,13,6,15,11,3,9,2,4,10"
14611,commdev-image-keyboard-response,231,527529,learnblock1,20.799999999813735,img/planet5_left.png,5,Community 1,NA,TRUE,f,f,NA,NA,NA,2,6,"14,5,7,12,8,1,13,6,15,11,3,9,2,4,10"
14611,commdev-image-keyboard-response,232,528804,learnblock1,53.90000000037253,img/planet8_left.png,8,Community 1,NA,FALSE,j,f,NA,NA,NA,2,6,"14,5,7,12,8,1,13,6,15,11,3,9,2,4,10"
14611,commdev-image-keyboard-response,233,530055,learnblock1,170.29999999981374,img/planet5_right.png,5,Community 1,NA,FALSE,f,j,NA,NA,NA,2,6,"14,5,7,12,8,1,13,6,15,11,3,9,2,4,10"
14611,commdev-image-keyboard-response,234,531309,learnblock1,55.80000000074506,img/planet14_right.png,14,Community 1,NA,FALSE,f,j,NA,NA,NA,2,6,"14,5,7,12,8,1,13,6,15,11,3,9,2,4,10"
14611,commdev-image-keyboard-response,235,532571,learnblock1,164.1000000005588,img/planet5_left.png,5,Community 1,NA,TRUE,f,f,NA,NA,NA,2,6,"14,5,7,12,8,1,13,6,15,11,3,9,2,4,10"
14611,commdev-image-keyboard-response,236,533827,learnblock1,27.59999999962747,img/planet7_left.png,7,Community 1,NA,FALSE,j,f,NA,NA,NA,2,6,"14,5,7,12,8,1,13,6,15,11,3,9,2,4,10"
14611,commdev-image-keyboard-response,237,535085,learnblock1,134.8999999994412,img/planet8_right.png,8,Community 1,NA,TRUE,j,j,NA,NA,NA,2,6,"14,5,7,12,8,1,13,6,15,11,3,9,2,4,10"
14611,commdev-image-keyboard-response,238,536339,learnblock1,187.09999999962747,img/planet14_right.png,14,Community 1,NA,FALSE,f,j,NA,NA,NA,2,6,"14,5,7,12,8,1,13,6,15,11,3,9,2,4,10"
14611,commdev-image-keyboard-response,239,537594,learnblock1,46.5,img/planet8_left.png,8,Community 1,NA,TRUE,f,f,NA,NA,NA,2,6,"14,5,7,12,8,1,13,6,15,11,3,9,2,4,10"
14611,commdev-image-keyboard-response,240,538853,learnblock1,163.5,img/planet3_right.png,3,Community 3,NA,TRUE,j,j,NA,NA,NA,2,6,"14,5,7,12,8,1,13,6,15,11,3,9,2,4,10"
14611,commdev-image-keyboard-response,241,540105,learnblock1,98.40000000037253,img/planet4_left.png,4,Community 3,NA,TRUE,f,f,NA,NA,NA,2,6,"14,5,7,12,8,1,13,6,15,11,3,9,2,4,10"
14611,commdev-image-keyboard-response,242,541359,learnblock1,32.200000000186265,img/planet3_left.png,3,Community 3,NA,FALSE,j,f,NA,NA,NA,2,6,"14,5,7,12,8,1,13,6,15,11,3,9,2,4,10"
14611,commdev-image-keyboard-response,243,542616,learnblock1,343.6000000005588,img/planet4_right.png,4,Community 3,NA,TRUE,j,j,NA,NA,NA,2,6,"14,5,7,12,8,1,13,6,15,11,3,9,2,4,10"
14611,commdev-image-keyboard-response,244,543868,learnblock1,183.29999999981374,img/planet2_right.png,2,Community 3,NA,TRUE,j,j,NA,NA,NA,2,6,"14,5,7,12,8,1,13,6,15,11,3,9,2,4,10"
14611,commdev-image-keyboard-response,245,545124,learnblock1,462.59999999962747,img/planet10_left.png,10,Community 3,NA,TRUE,f,f,NA,NA,NA,2,6,"14,5,7,12,8,1,13,6,15,11,3,9,2,4,10"
14611,commdev-image-keyboard-response,246,546379,learnblock1,752,img/planet2_right.png,2,Community 3,NA,TRUE,j,j,NA,NA,NA,2,6,"14,5,7,12,8,1,13,6,15,11,3,9,2,4,10"
14611,commdev-image-keyboard-response,247,547636,learnblock1,0.20000000018626451,img/planet10_left.png,10,Community 3,NA,TRUE,f,f,NA,NA,NA,2,6,"14,5,7,12,8,1,13,6,15,11,3,9,2,4,10"
14611,commdev-image-keyboard-response,248,548890,learnblock1,150.20000000018626,img/planet9_right.png,9,Community 3,NA,TRUE,j,j,NA,NA,NA,2,6,"14,5,7,12,8,1,13,6,15,11,3,9,2,4,10"
14611,commdev-image-keyboard-response,249,550146,learnblock1,81,img/planet10_right.png,10,Community 3,NA,TRUE,j,j,NA,NA,NA,2,6,"14,5,7,12,8,1,13,6,15,11,3,9,2,4,10"
14611,commdev-image-keyboard-response,250,551405,learnblock1,null,img/planet3_left.png,3,Community 3,NA,FALSE,null,f,NA,NA,NA,2,6,"14,5,7,12,8,1,13,6,15,11,3,9,2,4,10"
14611,commdev-image-keyboard-response,251,552661,learnblock1,null,img/planet4_left.png,4,Community 3,NA,FALSE,null,f,NA,NA,NA,2,6,"14,5,7,12,8,1,13,6,15,11,3,9,2,4,10"
14611,commdev-image-keyboard-response,252,553913,learnblock1,488.30000000074506,img/planet2_right.png,2,Community 3,NA,TRUE,j,j,NA,NA,NA,2,6,"14,5,7,12,8,1,13,6,15,11,3,9,2,4,10"
14611,commdev-image-keyboard-response,253,555165,learnblock1,43,img/planet10_left.png,10,Community 3,NA,FALSE,j,f,NA,NA,NA,2,6,"14,5,7,12,8,1,13,6,15,11,3,9,2,4,10"
14611,commdev-image-keyboard-response,254,556422,learnblock1,288,img/planet3_right.png,3,Community 3,NA,TRUE,j,j,NA,NA,NA,2,6,"14,5,7,12,8,1,13,6,15,11,3,9,2,4,10"
14611,commdev-image-keyboard-response,255,557677,learnblock1,215.59999999962747,img/planet8_right.png,8,Community 1,NA,TRUE,j,j,NA,NA,NA,2,6,"14,5,7,12,8,1,13,6,15,11,3,9,2,4,10"
14611,commdev-image-keyboard-response,256,558931,learnblock1,156.79999999981374,img/planet3_right.png,3,Community 3,NA,FALSE,f,j,NA,NA,NA,2,6,"14,5,7,12,8,1,13,6,15,11,3,9,2,4,10"
14611,commdev-image-keyboard-response,257,560197,learnblock1,44.19999999925494,img/planet4_left.png,4,Community 3,NA,FALSE,j,f,NA,NA,NA,2,6,"14,5,7,12,8,1,13,6,15,11,3,9,2,4,10"
14611,commdev-image-keyboard-response,258,561451,learnblock1,491.79999999981374,img/planet10_right.png,10,Community 3,NA,TRUE,j,j,NA,NA,NA,2,6,"14,5,7,12,8,1,13,6,15,11,3,9,2,4,10"
14611,commdev-image-keyboard-response,259,562708,learnblock1,103.70000000018626,img/planet2_right.png,2,Community 3,NA,TRUE,j,j,NA,NA,NA,2,6,"14,5,7,12,8,1,13,6,15,11,3,9,2,4,10"
14611,commdev-image-keyboard-response,260,563959,learnblock1,15.299999999813735,img/planet3_left.png,3,Community 3,NA,FALSE,j,f,NA,NA,NA,2,6,"14,5,7,12,8,1,13,6,15,11,3,9,2,4,10"
14611,commdev-image-keyboard-response,261,565218,learnblock1,83.8999999994412,img/planet2_left.png,2,Community 3,NA,FALSE,j,f,NA,NA,NA,2,6,"14,5,7,12,8,1,13,6,15,11,3,9,2,4,10"
14611,commdev-image-keyboard-response,262,566471,learnblock1,267.5,img/planet9_right.png,9,Community 3,NA,FALSE,f,j,NA,NA,NA,2,6,"14,5,7,12,8,1,13,6,15,11,3,9,2,4,10"
14611,commdev-image-keyboard-response,263,567726,learnblock1,null,img/planet10_right.png,10,Community 3,NA,FALSE,null,j,NA,NA,NA,2,6,"14,5,7,12,8,1,13,6,15,11,3,9,2,4,10"
14611,commdev-image-keyboard-response,264,568980,learnblock1,null,img/planet9_right.png,9,Community 3,NA,FALSE,null,j,NA,NA,NA,2,6,"14,5,7,12,8,1,13,6,15,11,3,9,2,4,10"
14611,commdev-image-keyboard-response,265,570232,learnblock1,null,img/planet2_right.png,2,Community 3,NA,FALSE,null,j,NA,NA,NA,2,6,"14,5,7,12,8,1,13,6,15,11,3,9,2,4,10"
14611,commdev-image-keyboard-response,266,571484,learnblock1,null,img/planet10_right.png,10,Community 3,NA,FALSE,null,j,NA,NA,NA,2,6,"14,5,7,12,8,1,13,6,15,11,3,9,2,4,10"
14611,commdev-image-keyboard-response,267,572736,learnblock1,null,img/planet3_right.png,3,Community 3,NA,FALSE,null,j,NA,NA,NA,2,6,"14,5,7,12,8,1,13,6,15,11,3,9,2,4,10"
14611,commdev-image-keyboard-response,268,573994,learnblock1,null,img/planet2_right.png,2,Community 3,NA,FALSE,null,j,NA,NA,NA,2,6,"14,5,7,12,8,1,13,6,15,11,3,9,2,4,10"
14611,commdev-image-keyboard-response,269,575250,learnblock1,1059.3999999994412,img/planet4_right.png,4,Community 3,NA,FALSE,f,j,NA,NA,NA,2,6,"14,5,7,12,8,1,13,6,15,11,3,9,2,4,10"
14611,commdev-image-keyboard-response,270,576506,learnblock1,82,img/planet10_left.png,10,Community 3,NA,TRUE,f,f,NA,NA,NA,2,6,"14,5,7,12,8,1,13,6,15,11,3,9,2,4,10"
14611,commdev-image-keyboard-response,271,577761,learnblock1,139.09999999962747,img/planet3_right.png,3,Community 3,NA,FALSE,f,j,NA,NA,NA,2,6,"14,5,7,12,8,1,13,6,15,11,3,9,2,4,10"
14611,commdev-image-keyboard-response,272,579016,learnblock1,732,img/planet4_right.png,4,Community 3,NA,TRUE,j,j,NA,NA,NA,2,6,"14,5,7,12,8,1,13,6,15,11,3,9,2,4,10"
14611,commdev-image-keyboard-response,273,580274,learnblock1,104.90000000037253,img/planet9_left.png,9,Community 3,NA,FALSE,j,f,NA,NA,NA,2,6,"14,5,7,12,8,1,13,6,15,11,3,9,2,4,10"
14611,commdev-image-keyboard-response,274,581526,learnblock1,218.20000000018626,img/planet10_left.png,10,Community 3,NA,TRUE,f,f,NA,NA,NA,2,6,"14,5,7,12,8,1,13,6,15,11,3,9,2,4,10"
14611,commdev-image-keyboard-response,275,582780,learnblock1,167.79999999981374,img/planet3_right.png,3,Community 3,NA,TRUE,j,j,NA,NA,NA,2,6,"14,5,7,12,8,1,13,6,15,11,3,9,2,4,10"
14611,commdev-image-keyboard-response,276,584034,learnblock1,32.80000000074506,img/planet2_right.png,2,Community 3,NA,TRUE,j,j,NA,NA,NA,2,6,"14,5,7,12,8,1,13,6,15,11,3,9,2,4,10"
14611,commdev-image-keyboard-response,277,585290,learnblock1,2.3999999994412065,img/planet10_right.png,10,Community 3,NA,FALSE,f,j,NA,NA,NA,2,6,"14,5,7,12,8,1,13,6,15,11,3,9,2,4,10"
14611,commdev-image-keyboard-response,278,586547,learnblock1,144.8999999994412,img/planet4_right.png,4,Community 3,NA,FALSE,f,j,NA,NA,NA,2,6,"14,5,7,12,8,1,13,6,15,11,3,9,2,4,10"
14611,commdev-image-keyboard-response,279,587800,learnblock1,128.59999999962747,img/planet9_right.png,9,Community 3,NA,TRUE,j,j,NA,NA,NA,2,6,"14,5,7,12,8,1,13,6,15,11,3,9,2,4,10"
14611,commdev-image-keyboard-response,280,589051,learnblock1,108.09999999962747,img/planet2_left.png,2,Community 3,NA,TRUE,f,f,NA,NA,NA,2,6,"14,5,7,12,8,1,13,6,15,11,3,9,2,4,10"
14611,commdev-image-keyboard-response,281,590304,learnblock1,135.30000000074506,img/planet10_left.png,10,Community 3,NA,FALSE,j,f,NA,NA,NA,2,6,"14,5,7,12,8,1,13,6,15,11,3,9,2,4,10"
14611,commdev-image-keyboard-response,282,591560,learnblock1,29.799999999813735,img/planet9_right.png,9,Community 3,NA,FALSE,f,j,NA,NA,NA,2,6,"14,5,7,12,8,1,13,6,15,11,3,9,2,4,10"
14611,commdev-image-keyboard-response,283,592816,learnblock1,139.29999999981374,img/planet6_right.png,6,Community 2,NA,TRUE,j,j,NA,NA,NA,2,6,"14,5,7,12,8,1,13,6,15,11,3,9,2,4,10"
14611,commdev-image-keyboard-response,284,594068,learnblock1,111.80000000074506,img/planet11_right.png,11,Community 2,NA,FALSE,f,j,NA,NA,NA,2,6,"14,5,7,12,8,1,13,6,15,11,3,9,2,4,10"
14611,commdev-image-keyboard-response,285,595325,learnblock1,19.200000000186265,img/planet15_left.png,15,Community 2,NA,FALSE,j,f,NA,NA,NA,2,6,"14,5,7,12,8,1,13,6,15,11,3,9,2,4,10"
14611,commdev-image-keyboard-response,286,596582,learnblock1,218.59999999962747,img/planet1_right.png,1,Community 2,NA,FALSE,f,j,NA,NA,NA,2,6,"14,5,7,12,8,1,13,6,15,11,3,9,2,4,10"
14611,commdev-image-keyboard-response,287,597842,learnblock1,88,img/planet11_left.png,11,Community 2,NA,TRUE,f,f,NA,NA,NA,2,6,"14,5,7,12,8,1,13,6,15,11,3,9,2,4,10"
14611,commdev-image-keyboard-response,288,599098,learnblock1,215.19999999925494,img/planet13_left.png,13,Community 2,NA,FALSE,j,f,NA,NA,NA,2,6,"14,5,7,12,8,1,13,6,15,11,3,9,2,4,10"
14611,commdev-image-keyboard-response,289,600348,learnblock1,1225.9000000003725,img/planet6_left.png,6,Community 2,NA,TRUE,f,f,NA,NA,NA,2,6,"14,5,7,12,8,1,13,6,15,11,3,9,2,4,10"
14611,commdev-image-keyboard-response,290,601602,learnblock1,201.3999999994412,img/planet11_left.png,11,Community 2,NA,FALSE,j,f,NA,NA,NA,2,6,"14,5,7,12,8,1,13,6,15,11,3,9,2,4,10"
14611,commdev-image-keyboard-response,291,602855,learnblock1,183.5,img/planet6_left.png,6,Community 2,NA,TRUE,f,f,NA,NA,NA,2,6,"14,5,7,12,8,1,13,6,15,11,3,9,2,4,10"
14611,commdev-image-keyboard-response,292,604108,learnblock1,133.70000000018626,img/planet15_left.png,15,Community 2,NA,FALSE,j,f,NA,NA,NA,2,6,"14,5,7,12,8,1,13,6,15,11,3,9,2,4,10"
14611,commdev-image-keyboard-response,293,605360,learnblock1,314.70000000018626,img/planet11_left.png,11,Community 2,NA,FALSE,j,f,NA,NA,NA,2,6,"14,5,7,12,8,1,13,6,15,11,3,9,2,4,10"
14611,commdev-image-keyboard-response,294,606613,learnblock1,276.70000000018626,img/planet15_right.png,15,Community 2,NA,TRUE,j,j,NA,NA,NA,2,6,"14,5,7,12,8,1,13,6,15,11,3,9,2,4,10"
14611,commdev-image-keyboard-response,295,607868,learnblock1,102.40000000037253,img/planet1_right.png,1,Community 2,NA,TRUE,j,j,NA,NA,NA,2,6,"14,5,7,12,8,1,13,6,15,11,3,9,2,4,10"
14611,commdev-image-keyboard-response,296,609120,learnblock1,167.1000000005588,img/planet12_left.png,12,Community 1,NA,FALSE,j,f,NA,NA,NA,2,6,"14,5,7,12,8,1,13,6,15,11,3,9,2,4,10"
14611,commdev-image-keyboard-response,297,610377,learnblock1,471.59999999962747,img/planet1_left.png,1,Community 2,NA,FALSE,j,f,NA,NA,NA,2,6,"14,5,7,12,8,1,13,6,15,11,3,9,2,4,10"
14611,commdev-image-keyboard-response,298,611635,learnblock1,378.5,img/planet13_right.png,13,Community 2,NA,TRUE,j,j,NA,NA,NA,2,6,"14,5,7,12,8,1,13,6,15,11,3,9,2,4,10"
14611,commdev-image-keyboard-response,299,612889,learnblock1,708.2999999998137,img/planet1_left.png,1,Community 2,NA,TRUE,f,f,NA,NA,NA,2,6,"14,5,7,12,8,1,13,6,15,11,3,9,2,4,10"
14611,commdev-image-keyboard-response,300,614144,learnblock1,80.8999999994412,img/planet13_right.png,13,Community 2,NA,TRUE,j,j,NA,NA,NA,2,6,"14,5,7,12,8,1,13,6,15,11,3,9,2,4,10"
14611,commdev-image-keyboard-response,301,615396,learnblock1,25.299999999813735,img/planet11_right.png,11,Community 2,NA,TRUE,j,j,NA,NA,NA,2,6,"14,5,7,12,8,1,13,6,15,11,3,9,2,4,10"
14611,commdev-image-keyboard-response,302,616656,learnblock1,88.09999999962747,img/planet1_right.png,1,Community 2,NA,FALSE,f,j,NA,NA,NA,2,6,"14,5,7,12,8,1,13,6,15,11,3,9,2,4,10"
14611,commdev-image-keyboard-response,303,617908,learnblock1,45,img/planet13_left.png,13,Community 2,NA,FALSE,j,f,NA,NA,NA,2,6,"14,5,7,12,8,1,13,6,15,11,3,9,2,4,10"
14611,commdev-image-keyboard-response,304,619163,learnblock1,244.79999999981374,img/planet15_right.png,15,Community 2,NA,TRUE,j,j,NA,NA,NA,2,6,"14,5,7,12,8,1,13,6,15,11,3,9,2,4,10"
14611,commdev-image-keyboard-response,305,620416,learnblock1,114.79999999981374,img/planet1_left.png,1,Community 2,NA,FALSE,j,f,NA,NA,NA,2,6,"14,5,7,12,8,1,13,6,15,11,3,9,2,4,10"
14611,commdev-image-keyboard-response,306,621675,learnblock1,109.70000000018626,img/planet15_right.png,15,Community 2,NA,TRUE,j,j,NA,NA,NA,2,6,"14,5,7,12,8,1,13,6,15,11,3,9,2,4,10"
14611,commdev-image-keyboard-response,307,622931,learnblock1,82.90000000037253,img/planet6_left.png,6,Community 2,NA,FALSE,j,f,NA,NA,NA,2,6,"14,5,7,12,8,1,13,6,15,11,3,9,2,4,10"
14611,commdev-image-keyboard-response,308,624196,learnblock1,17.90000000037253,img/planet15_left.png,15,Community 2,NA,FALSE,j,f,NA,NA,NA,2,6,"14,5,7,12,8,1,13,6,15,11,3,9,2,4,10"
14611,commdev-image-keyboard-response,309,625448,learnblock1,73.90000000037253,img/planet11_left.png,11,Community 2,NA,TRUE,f,f,NA,NA,NA,2,6,"14,5,7,12,8,1,13,6,15,11,3,9,2,4,10"
14611,commdev-image-keyboard-response,310,626702,learnblock1,332.59999999962747,img/planet1_left.png,1,Community 2,NA,FALSE,j,f,NA,NA,NA,2,6,"14,5,7,12,8,1,13,6,15,11,3,9,2,4,10"
14611,commdev-image-keyboard-response,311,627955,learnblock1,488.90000000037253,img/planet12_left.png,12,Community 1,NA,TRUE,f,f,NA,NA,NA,2,6,"14,5,7,12,8,1,13,6,15,11,3,9,2,4,10"
14611,commdev-image-keyboard-response,312,629208,learnblock1,133.09999999962747,img/planet1_left.png,1,Community 2,NA,FALSE,j,f,NA,NA,NA,2,6,"14,5,7,12,8,1,13,6,15,11,3,9,2,4,10"
14611,commdev-image-keyboard-response,313,630461,learnblock1,234.79999999981374,img/planet13_left.png,13,Community 2,NA,TRUE,f,f,NA,NA,NA,2,6,"14,5,7,12,8,1,13,6,15,11,3,9,2,4,10"
14611,commdev-image-keyboard-response,314,631719,learnblock1,170.1000000005588,img/planet11_left.png,11,Community 2,NA,FALSE,j,f,NA,NA,NA,2,6,"14,5,7,12,8,1,13,6,15,11,3,9,2,4,10"
14611,commdev-image-keyboard-response,315,632974,learnblock1,469.5,img/planet1_left.png,1,Community 2,NA,FALSE,j,f,NA,NA,NA,2,6,"14,5,7,12,8,1,13,6,15,11,3,9,2,4,10"
14611,commdev-image-keyboard-response,316,634228,learnblock1,533,img/planet13_left.png,13,Community 2,NA,FALSE,j,f,NA,NA,NA,2,6,"14,5,7,12,8,1,13,6,15,11,3,9,2,4,10"
14611,commdev-image-keyboard-response,317,635482,learnblock1,84.5,img/planet6_left.png,6,Community 2,NA,FALSE,j,f,NA,NA,NA,2,6,"14,5,7,12,8,1,13,6,15,11,3,9,2,4,10"
14611,commdev-image-keyboard-response,318,636735,learnblock1,310.40000000037253,img/planet9_left.png,9,Community 3,NA,FALSE,j,f,NA,NA,NA,2,6,"14,5,7,12,8,1,13,6,15,11,3,9,2,4,10"
14611,commdev-image-keyboard-response,319,637988,learnblock1,951,img/planet10_right.png,10,Community 3,NA,TRUE,j,j,NA,NA,NA,2,6,"14,5,7,12,8,1,13,6,15,11,3,9,2,4,10"
14611,commdev-image-keyboard-response,320,639240,learnblock1,96.20000000018626,img/planet3_right.png,3,Community 3,NA,TRUE,j,j,NA,NA,NA,2,6,"14,5,7,12,8,1,13,6,15,11,3,9,2,4,10"
14611,commdev-image-keyboard-response,321,640503,learnblock1,253.90000000037253,img/planet10_left.png,10,Community 3,NA,FALSE,j,f,NA,NA,NA,2,6,"14,5,7,12,8,1,13,6,15,11,3,9,2,4,10"
14611,commdev-image-keyboard-response,322,641759,learnblock1,388.1000000005588,img/planet9_left.png,9,Community 3,NA,FALSE,j,f,NA,NA,NA,2,6,"14,5,7,12,8,1,13,6,15,11,3,9,2,4,10"
14611,commdev-image-keyboard-response,323,643017,learnblock1,650.4000000003725,img/planet2_left.png,2,Community 3,NA,FALSE,j,f,NA,NA,NA,2,6,"14,5,7,12,8,1,13,6,15,11,3,9,2,4,10"
14611,commdev-image-keyboard-response,324,644276,learnblock1,464.3999999994412,img/planet9_right.png,9,Community 3,NA,TRUE,j,j,NA,NA,NA,2,6,"14,5,7,12,8,1,13,6,15,11,3,9,2,4,10"
14611,commdev-image-keyboard-response,325,645531,learnblock1,394.8999999994412,img/planet4_right.png,4,Community 3,NA,TRUE,j,j,NA,NA,NA,2,6,"14,5,7,12,8,1,13,6,15,11,3,9,2,4,10"
14611,commdev-image-keyboard-response,326,646784,learnblock1,332.69999999925494,img/planet9_left.png,9,Community 3,NA,FALSE,j,f,NA,NA,NA,2,6,"14,5,7,12,8,1,13,6,15,11,3,9,2,4,10"
14611,commdev-image-keyboard-response,327,648043,learnblock1,25.5,img/planet4_left.png,4,Community 3,NA,FALSE,j,f,NA,NA,NA,2,6,"14,5,7,12,8,1,13,6,15,11,3,9,2,4,10"
14611,commdev-image-keyboard-response,328,649296,learnblock1,910.7999999998137,img/planet9_right.png,9,Community 3,NA,TRUE,j,j,NA,NA,NA,2,6,"14,5,7,12,8,1,13,6,15,11,3,9,2,4,10"
14611,commdev-image-keyboard-response,329,650557,learnblock1,466.90000000037253,img/planet6_right.png,6,Community 2,NA,TRUE,j,j,NA,NA,NA,2,6,"14,5,7,12,8,1,13,6,15,11,3,9,2,4,10"
14611,commdev-image-keyboard-response,330,651808,learnblock1,null,img/planet15_right.png,15,Community 2,NA,FALSE,null,j,NA,NA,NA,2,6,"14,5,7,12,8,1,13,6,15,11,3,9,2,4,10"
14611,commdev-image-keyboard-response,331,653067,learnblock1,41.799999999813735,img/planet6_right.png,6,Community 2,NA,TRUE,j,j,NA,NA,NA,2,6,"14,5,7,12,8,1,13,6,15,11,3,9,2,4,10"
14611,commdev-image-keyboard-response,332,654319,learnblock1,240.70000000018626,img/planet13_left.png,13,Community 2,NA,FALSE,j,f,NA,NA,NA,2,6,"14,5,7,12,8,1,13,6,15,11,3,9,2,4,10"
14611,commdev-image-keyboard-response,333,655575,learnblock1,381.19999999925494,img/planet6_left.png,6,Community 2,NA,FALSE,j,f,NA,NA,NA,2,6,"14,5,7,12,8,1,13,6,15,11,3,9,2,4,10"
14611,commdev-image-keyboard-response,334,656832,learnblock1,247.09999999962747,img/planet13_right.png,13,Community 2,NA,TRUE,j,j,NA,NA,NA,2,6,"14,5,7,12,8,1,13,6,15,11,3,9,2,4,10"
14611,commdev-image-keyboard-response,335,658091,learnblock1,155.59999999962747,img/planet1_right.png,1,Community 2,NA,TRUE,j,j,NA,NA,NA,2,6,"14,5,7,12,8,1,13,6,15,11,3,9,2,4,10"
14611,commdev-image-keyboard-response,336,659344,learnblock1,69.70000000018626,img/planet15_left.png,15,Community 2,NA,FALSE,j,f,NA,NA,NA,2,6,"14,5,7,12,8,1,13,6,15,11,3,9,2,4,10"
14611,commdev-image-keyboard-response,337,660598,learnblock1,138.6000000005588,img/planet13_right.png,13,Community 2,NA,TRUE,j,j,NA,NA,NA,2,6,"14,5,7,12,8,1,13,6,15,11,3,9,2,4,10"
14611,commdev-image-keyboard-response,338,661854,learnblock1,340.5,img/planet6_right.png,6,Community 2,NA,TRUE,j,j,NA,NA,NA,2,6,"14,5,7,12,8,1,13,6,15,11,3,9,2,4,10"
14611,commdev-image-keyboard-response,339,663107,learnblock1,770.4000000003725,img/planet15_left.png,15,Community 2,NA,FALSE,j,f,NA,NA,NA,2,6,"14,5,7,12,8,1,13,6,15,11,3,9,2,4,10"
14611,commdev-image-keyboard-response,340,664358,learnblock1,70,img/planet6_left.png,6,Community 2,NA,TRUE,f,f,NA,NA,NA,2,6,"14,5,7,12,8,1,13,6,15,11,3,9,2,4,10"
14611,commdev-image-keyboard-response,341,665616,learnblock1,142,img/planet13_left.png,13,Community 2,NA,FALSE,j,f,NA,NA,NA,2,6,"14,5,7,12,8,1,13,6,15,11,3,9,2,4,10"
14611,commdev-image-keyboard-response,342,666873,learnblock1,26.200000000186265,img/planet1_right.png,1,Community 2,NA,TRUE,j,j,NA,NA,NA,2,6,"14,5,7,12,8,1,13,6,15,11,3,9,2,4,10"
14611,commdev-image-keyboard-response,343,668127,learnblock1,146.09999999962747,img/planet12_left.png,12,Community 1,NA,TRUE,f,f,NA,NA,NA,2,6,"14,5,7,12,8,1,13,6,15,11,3,9,2,4,10"
14611,commdev-image-keyboard-response,344,669379,learnblock1,32.59999999962747,img/planet7_right.png,7,Community 1,NA,FALSE,f,j,NA,NA,NA,2,6,"14,5,7,12,8,1,13,6,15,11,3,9,2,4,10"
14611,commdev-image-keyboard-response,345,670638,learnblock1,95,img/planet12_left.png,12,Community 1,NA,TRUE,f,f,NA,NA,NA,2,6,"14,5,7,12,8,1,13,6,15,11,3,9,2,4,10"
14611,commdev-image-keyboard-response,346,671893,learnblock1,28.90000000037253,img/planet14_right.png,14,Community 1,NA,TRUE,j,j,NA,NA,NA,2,6,"14,5,7,12,8,1,13,6,15,11,3,9,2,4,10"
14611,commdev-image-keyboard-response,347,673145,learnblock1,492,img/planet5_right.png,5,Community 1,NA,FALSE,f,j,NA,NA,NA,2,6,"14,5,7,12,8,1,13,6,15,11,3,9,2,4,10"
14611,commdev-image-keyboard-response,351,704136,learnblock2,1095.9000000003725,img/planet10_right.png,10,Community 3,NA,FALSE,f,j,NA,NA,NA,2,6,"14,5,7,12,8,1,13,6,15,11,3,9,2,4,10"
14611,commdev-image-keyboard-response,352,705392,learnblock2,110.20000000111759,img/planet2_right.png,2,Community 3,NA,FALSE,f,j,NA,NA,NA,2,6,"14,5,7,12,8,1,13,6,15,11,3,9,2,4,10"
14611,commdev-image-keyboard-response,353,706647,learnblock2,15.300000000745058,img/planet3_left.png,3,Community 3,NA,TRUE,f,f,NA,NA,NA,2,6,"14,5,7,12,8,1,13,6,15,11,3,9,2,4,10"
14611,commdev-image-keyboard-response,354,707898,learnblock2,163.69999999925494,img/planet2_right.png,2,Community 3,NA,TRUE,j,j,NA,NA,NA,2,6,"14,5,7,12,8,1,13,6,15,11,3,9,2,4,10"
14611,commdev-image-keyboard-response,355,709150,learnblock2,74.10000000149012,img/planet10_right.png,10,Community 3,NA,TRUE,j,j,NA,NA,NA,2,6,"14,5,7,12,8,1,13,6,15,11,3,9,2,4,10"
14611,commdev-image-keyboard-response,356,710403,learnblock2,116.10000000149012,img/planet4_right.png,4,Community 3,NA,TRUE,j,j,NA,NA,NA,2,6,"14,5,7,12,8,1,13,6,15,11,3,9,2,4,10"
14611,commdev-image-keyboard-response,357,711654,learnblock2,23.299999998882413,img/planet2_left.png,2,Community 3,NA,TRUE,f,f,NA,NA,NA,2,6,"14,5,7,12,8,1,13,6,15,11,3,9,2,4,10"
14611,commdev-image-keyboard-response,358,712906,learnblock2,89.89999999850988,img/planet4_left.png,4,Community 3,NA,TRUE,f,f,NA,NA,NA,2,6,"14,5,7,12,8,1,13,6,15,11,3,9,2,4,10"
14611,commdev-image-keyboard-response,359,714165,learnblock2,113.20000000111759,img/planet10_right.png,10,Community 3,NA,FALSE,f,j,NA,NA,NA,2,6,"14,5,7,12,8,1,13,6,15,11,3,9,2,4,10"
14611,commdev-image-keyboard-response,360,715423,learnblock2,85.40000000037253,img/planet2_right.png,2,Community 3,NA,TRUE,j,j,NA,NA,NA,2,6,"14,5,7,12,8,1,13,6,15,11,3,9,2,4,10"
14611,commdev-image-keyboard-response,361,716681,learnblock2,251.7000000011176,img/planet9_right.png,9,Community 3,NA,FALSE,f,j,NA,NA,NA,2,6,"14,5,7,12,8,1,13,6,15,11,3,9,2,4,10"
14611,commdev-image-keyboard-response,362,717948,learnblock2,23.09999999962747,img/planet4_right.png,4,Community 3,NA,TRUE,j,j,NA,NA,NA,2,6,"14,5,7,12,8,1,13,6,15,11,3,9,2,4,10"
14611,commdev-image-keyboard-response,363,719199,learnblock2,40.29999999888241,img/planet3_left.png,3,Community 3,NA,FALSE,j,f,NA,NA,NA,2,6,"14,5,7,12,8,1,13,6,15,11,3,9,2,4,10"
14611,commdev-image-keyboard-response,364,720457,learnblock2,247.19999999925494,img/planet10_right.png,10,Community 3,NA,FALSE,f,j,NA,NA,NA,2,6,"14,5,7,12,8,1,13,6,15,11,3,9,2,4,10"
14611,commdev-image-keyboard-response,365,721710,learnblock2,61.90000000037253,img/planet4_right.png,4,Community 3,NA,TRUE,j,j,NA,NA,NA,2,6,"14,5,7,12,8,1,13,6,15,11,3,9,2,4,10"
14611,commdev-image-keyboard-response,366,722977,learnblock2,226.30000000074506,img/planet2_left.png,2,Community 3,NA,TRUE,f,f,NA,NA,NA,2,6,"14,5,7,12,8,1,13,6,15,11,3,9,2,4,10"
14611,commdev-image-keyboard-response,367,724228,learnblock2,0.19999999925494194,img/planet4_left.png,4,Community 3,NA,TRUE,f,f,NA,NA,NA,2,6,"14,5,7,12,8,1,13,6,15,11,3,9,2,4,10"
14611,commdev-image-keyboard-response,368,725480,learnblock2,423.5,img/planet9_left.png,9,Community 3,NA,FALSE,j,f,NA,NA,NA,2,6,"14,5,7,12,8,1,13,6,15,11,3,9,2,4,10"
14611,commdev-image-keyboard-response,369,726737,learnblock2,64.89999999850988,img/planet4_right.png,4,Community 3,NA,TRUE,j,j,NA,NA,NA,2,6,"14,5,7,12,8,1,13,6,15,11,3,9,2,4,10"
14611,commdev-image-keyboard-response,370,727995,learnblock2,1207,img/planet3_right.png,3,Community 3,NA,TRUE,j,j,NA,NA,NA,2,6,"14,5,7,12,8,1,13,6,15,11,3,9,2,4,10"
14611,commdev-image-keyboard-response,371,729251,learnblock2,324.5,img/planet10_right.png,10,Community 3,NA,TRUE,j,j,NA,NA,NA,2,6,"14,5,7,12,8,1,13,6,15,11,3,9,2,4,10"
14611,commdev-image-keyboard-response,372,730510,learnblock2,92.69999999925494,img/planet2_left.png,2,Community 3,NA,TRUE,f,f,NA,NA,NA,2,6,"14,5,7,12,8,1,13,6,15,11,3,9,2,4,10"
14611,commdev-image-keyboard-response,373,731764,learnblock2,109.60000000149012,img/planet4_left.png,4,Community 3,NA,FALSE,j,f,NA,NA,NA,2,6,"14,5,7,12,8,1,13,6,15,11,3,9,2,4,10"
14611,commdev-image-keyboard-response,374,733021,learnblock2,105.60000000149012,img/planet9_left.png,9,Community 3,NA,FALSE,j,f,NA,NA,NA,2,6,"14,5,7,12,8,1,13,6,15,11,3,9,2,4,10"
14611,commdev-image-keyboard-response,375,734276,learnblock2,185.2999999988824,img/planet6_right.png,6,Community 2,NA,TRUE,j,j,NA,NA,NA,2,6,"14,5,7,12,8,1,13,6,15,11,3,9,2,4,10"
14611,commdev-image-keyboard-response,376,735531,learnblock2,662.3000000007451,img/planet15_right.png,15,Community 2,NA,TRUE,j,j,NA,NA,NA,2,6,"14,5,7,12,8,1,13,6,15,11,3,9,2,4,10"
14611,commdev-image-keyboard-response,377,736787,learnblock2,260.7000000011176,img/planet1_right.png,1,Community 2,NA,TRUE,j,j,NA,NA,NA,2,6,"14,5,7,12,8,1,13,6,15,11,3,9,2,4,10"
14611,commdev-image-keyboard-response,378,738043,learnblock2,139.7000000011176,img/planet15_right.png,15,Community 2,NA,TRUE,j,j,NA,NA,NA,2,6,"14,5,7,12,8,1,13,6,15,11,3,9,2,4,10"
14611,commdev-image-keyboard-response,379,739298,learnblock2,45.5,img/planet13_right.png,13,Community 2,NA,TRUE,j,j,NA,NA,NA,2,6,"14,5,7,12,8,1,13,6,15,11,3,9,2,4,10"
14611,commdev-image-keyboard-response,380,740559,learnblock2,14.799999998882413,img/planet1_right.png,1,Community 2,NA,TRUE,j,j,NA,NA,NA,2,6,"14,5,7,12,8,1,13,6,15,11,3,9,2,4,10"
14611,commdev-image-keyboard-response,381,741816,learnblock2,642.4000000003725,img/planet13_left.png,13,Community 2,NA,TRUE,f,f,NA,NA,NA,2,6,"14,5,7,12,8,1,13,6,15,11,3,9,2,4,10"
14611,commdev-image-keyboard-response,382,743069,learnblock2,51.899999998509884,img/planet15_right.png,15,Community 2,NA,TRUE,j,j,NA,NA,NA,2,6,"14,5,7,12,8,1,13,6,15,11,3,9,2,4,10"
14611,commdev-image-keyboard-response,383,744326,learnblock2,17.5,img/planet6_left.png,6,Community 2,NA,FALSE,j,f,NA,NA,NA,2,6,"14,5,7,12,8,1,13,6,15,11,3,9,2,4,10"
14611,commdev-image-keyboard-response,384,745583,learnblock2,80.5,img/planet13_right.png,13,Community 2,NA,TRUE,j,j,NA,NA,NA,2,6,"14,5,7,12,8,1,13,6,15,11,3,9,2,4,10"
14611,commdev-image-keyboard-response,385,746838,learnblock2,245.40000000037253,img/planet1_right.png,1,Community 2,NA,TRUE,j,j,NA,NA,NA,2,6,"14,5,7,12,8,1,13,6,15,11,3,9,2,4,10"
14611,commdev-image-keyboard-response,386,748091,learnblock2,121.59999999962747,img/planet13_right.png,13,Community 2,NA,TRUE,j,j,NA,NA,NA,2,6,"14,5,7,12,8,1,13,6,15,11,3,9,2,4,10"
14611,commdev-image-keyboard-response,387,749347,learnblock2,23.799999998882413,img/planet15_left.png,15,Community 2,NA,FALSE,j,f,NA,NA,NA,2,6,"14,5,7,12,8,1,13,6,15,11,3,9,2,4,10"
14611,commdev-image-keyboard-response,388,750606,learnblock2,324,img/planet6_left.png,6,Community 2,NA,TRUE,f,f,NA,NA,NA,2,6,"14,5,7,12,8,1,13,6,15,11,3,9,2,4,10"
14611,commdev-image-keyboard-response,389,751863,learnblock2,55.19999999925494,img/planet13_left.png,13,Community 2,NA,TRUE,f,f,NA,NA,NA,2,6,"14,5,7,12,8,1,13,6,15,11,3,9,2,4,10"
14611,commdev-image-keyboard-response,390,753119,learnblock2,285.40000000037253,img/planet15_right.png,15,Community 2,NA,TRUE,j,j,NA,NA,NA,2,6,"14,5,7,12,8,1,13,6,15,11,3,9,2,4,10"
14611,commdev-image-keyboard-response,391,754386,learnblock2,291.69999999925494,img/planet13_left.png,13,Community 2,NA,FALSE,j,f,NA,NA,NA,2,6,"14,5,7,12,8,1,13,6,15,11,3,9,2,4,10"
14611,commdev-image-keyboard-response,392,755641,learnblock2,166.2000000011176,img/planet11_right.png,11,Community 2,NA,TRUE,j,j,NA,NA,NA,2,6,"14,5,7,12,8,1,13,6,15,11,3,9,2,4,10"
14611,commdev-image-keyboard-response,393,756896,learnblock2,0.09999999962747097,img/planet6_left.png,6,Community 2,NA,TRUE,f,f,NA,NA,NA,2,6,"14,5,7,12,8,1,13,6,15,11,3,9,2,4,10"
14611,commdev-image-keyboard-response,394,758150,learnblock2,216.19999999925494,img/planet11_right.png,11,Community 2,NA,TRUE,j,j,NA,NA,NA,2,6,"14,5,7,12,8,1,13,6,15,11,3,9,2,4,10"
14611,commdev-image-keyboard-response,395,759406,learnblock2,503.59999999962747,img/planet13_left.png,13,Community 2,NA,TRUE,f,f,NA,NA,NA,2,6,"14,5,7,12,8,1,13,6,15,11,3,9,2,4,10"
14611,commdev-image-keyboard-response,396,760659,learnblock2,93.40000000037253,img/planet6_right.png,6,Community 2,NA,TRUE,j,j,NA,NA,NA,2,6,"14,5,7,12,8,1,13,6,15,11,3,9,2,4,10"
14611,commdev-image-keyboard-response,397,761913,learnblock2,315.7999999988824,img/planet15_left.png,15,Community 2,NA,TRUE,f,f,NA,NA,NA,2,6,"14,5,7,12,8,1,13,6,15,11,3,9,2,4,10"
14611,commdev-image-keyboard-response,398,763169,learnblock2,344.19999999925494,img/planet6_left.png,6,Community 2,NA,TRUE,f,f,NA,NA,NA,2,6,"14,5,7,12,8,1,13,6,15,11,3,9,2,4,10"
14611,commdev-image-keyboard-response,399,764424,learnblock2,391.90000000037253,img/planet15_left.png,15,Community 2,NA,FALSE,j,f,NA,NA,NA,2,6,"14,5,7,12,8,1,13,6,15,11,3,9,2,4,10"
14611,commdev-image-keyboard-response,400,765680,learnblock2,320.90000000037253,img/planet1_left.png,1,Community 2,NA,FALSE,j,f,NA,NA,NA,2,6,"14,5,7,12,8,1,13,6,15,11,3,9,2,4,10"
14611,commdev-image-keyboard-response,401,766937,learnblock2,1007.9000000003725,img/planet11_left.png,11,Community 2,NA,TRUE,f,f,NA,NA,NA,2,6,"14,5,7,12,8,1,13,6,15,11,3,9,2,4,10"
14611,commdev-image-keyboard-response,402,768195,learnblock2,885,img/planet1_right.png,1,Community 2,NA,FALSE,f,j,NA,NA,NA,2,6,"14,5,7,12,8,1,13,6,15,11,3,9,2,4,10"
14611,commdev-image-keyboard-response,403,769449,learnblock2,463,img/planet11_right.png,11,Community 2,NA,FALSE,f,j,NA,NA,NA,2,6,"14,5,7,12,8,1,13,6,15,11,3,9,2,4,10"
14611,commdev-image-keyboard-response,404,770704,learnblock2,439.7000000011176,img/planet15_left.png,15,Community 2,NA,TRUE,f,f,NA,NA,NA,2,6,"14,5,7,12,8,1,13,6,15,11,3,9,2,4,10"
14611,commdev-image-keyboard-response,405,771961,learnblock2,null,img/planet1_left.png,1,Community 2,NA,FALSE,null,f,NA,NA,NA,2,6,"14,5,7,12,8,1,13,6,15,11,3,9,2,4,10"
14611,commdev-image-keyboard-response,406,773212,learnblock2,null,img/planet15_left.png,15,Community 2,NA,FALSE,null,f,NA,NA,NA,2,6,"14,5,7,12,8,1,13,6,15,11,3,9,2,4,10"
14611,commdev-image-keyboard-response,407,774470,learnblock2,1185.0999999996275,img/planet13_left.png,13,Community 2,NA,FALSE,j,f,NA,NA,NA,2,6,"14,5,7,12,8,1,13,6,15,11,3,9,2,4,10"
14611,commdev-image-keyboard-response,408,775729,learnblock2,273.40000000037253,img/planet1_right.png,1,Community 2,NA,TRUE,j,j,NA,NA,NA,2,6,"14,5,7,12,8,1,13,6,15,11,3,9,2,4,10"
14611,commdev-image-keyboard-response,409,776982,learnblock2,116.69999999925494,img/planet15_left.png,15,Community 2,NA,FALSE,j,f,NA,NA,NA,2,6,"14,5,7,12,8,1,13,6,15,11,3,9,2,4,10"
14611,commdev-image-keyboard-response,410,778236,learnblock2,17.299999998882413,img/planet11_left.png,11,Community 2,NA,FALSE,j,f,NA,NA,NA,2,6,"14,5,7,12,8,1,13,6,15,11,3,9,2,4,10"
14611,commdev-image-keyboard-response,411,779495,learnblock2,57,img/planet1_right.png,1,Community 2,NA,TRUE,j,j,NA,NA,NA,2,6,"14,5,7,12,8,1,13,6,15,11,3,9,2,4,10"
14611,commdev-image-keyboard-response,412,780752,learnblock2,1.699999999254942,img/planet12_right.png,12,Community 1,NA,TRUE,j,j,NA,NA,NA,2,6,"14,5,7,12,8,1,13,6,15,11,3,9,2,4,10"
14611,commdev-image-keyboard-response,413,782015,learnblock2,75.69999999925494,img/planet5_left.png,5,Community 1,NA,FALSE,j,f,NA,NA,NA,2,6,"14,5,7,12,8,1,13,6,15,11,3,9,2,4,10"
14611,commdev-image-keyboard-response,414,783275,learnblock2,233.5,img/planet14_right.png,14,Community 1,NA,TRUE,j,j,NA,NA,NA,2,6,"14,5,7,12,8,1,13,6,15,11,3,9,2,4,10"
14611,commdev-image-keyboard-response,415,784532,learnblock2,23.300000000745058,img/planet12_right.png,12,Community 1,NA,TRUE,j,j,NA,NA,NA,2,6,"14,5,7,12,8,1,13,6,15,11,3,9,2,4,10"
14611,commdev-image-keyboard-response,416,785785,learnblock2,43,img/planet14_left.png,14,Community 1,NA,TRUE,f,f,NA,NA,NA,2,6,"14,5,7,12,8,1,13,6,15,11,3,9,2,4,10"
14611,commdev-image-keyboard-response,417,787038,learnblock2,56.40000000037253,img/planet5_right.png,5,Community 1,NA,FALSE,f,j,NA,NA,NA,2,6,"14,5,7,12,8,1,13,6,15,11,3,9,2,4,10"
14611,commdev-image-keyboard-response,418,788291,learnblock2,176.7999999988824,img/planet8_left.png,8,Community 1,NA,FALSE,j,f,NA,NA,NA,2,6,"14,5,7,12,8,1,13,6,15,11,3,9,2,4,10"
14611,commdev-image-keyboard-response,419,789551,learnblock2,95.09999999962747,img/planet7_right.png,7,Community 1,NA,TRUE,j,j,NA,NA,NA,2,6,"14,5,7,12,8,1,13,6,15,11,3,9,2,4,10"
14611,commdev-image-keyboard-response,420,790804,learnblock2,179.90000000037253,img/planet5_right.png,5,Community 1,NA,FALSE,f,j,NA,NA,NA,2,6,"14,5,7,12,8,1,13,6,15,11,3,9,2,4,10"
14611,commdev-image-keyboard-response,421,792056,learnblock2,44.29999999888241,img/planet14_right.png,14,Community 1,NA,TRUE,j,j,NA,NA,NA,2,6,"14,5,7,12,8,1,13,6,15,11,3,9,2,4,10"
14611,commdev-image-keyboard-response,422,793313,learnblock2,78.39999999850988,img/planet12_right.png,12,Community 1,NA,TRUE,j,j,NA,NA,NA,2,6,"14,5,7,12,8,1,13,6,15,11,3,9,2,4,10"
14611,commdev-image-keyboard-response,423,794568,learnblock2,11.299999998882413,img/planet14_right.png,14,Community 1,NA,TRUE,j,j,NA,NA,NA,2,6,"14,5,7,12,8,1,13,6,15,11,3,9,2,4,10"
14611,commdev-image-keyboard-response,424,795822,learnblock2,4.900000000372529,img/planet12_right.png,12,Community 1,NA,TRUE,j,j,NA,NA,NA,2,6,"14,5,7,12,8,1,13,6,15,11,3,9,2,4,10"
14611,commdev-image-keyboard-response,425,797082,learnblock2,32.29999999888241,img/planet7_right.png,7,Community 1,NA,TRUE,j,j,NA,NA,NA,2,6,"14,5,7,12,8,1,13,6,15,11,3,9,2,4,10"
14611,commdev-image-keyboard-response,426,798338,learnblock2,191.19999999925494,img/planet14_left.png,14,Community 1,NA,FALSE,j,f,NA,NA,NA,2,6,"14,5,7,12,8,1,13,6,15,11,3,9,2,4,10"
14611,commdev-image-keyboard-response,427,799590,learnblock2,19.800000000745058,img/planet12_right.png,12,Community 1,NA,FALSE,f,j,NA,NA,NA,2,6,"14,5,7,12,8,1,13,6,15,11,3,9,2,4,10"
14611,commdev-image-keyboard-response,428,800844,learnblock2,96.69999999925494,img/planet5_right.png,5,Community 1,NA,TRUE,j,j,NA,NA,NA,2,6,"14,5,7,12,8,1,13,6,15,11,3,9,2,4,10"
14611,commdev-image-keyboard-response,429,802096,learnblock2,155.90000000037253,img/planet14_left.png,14,Community 1,NA,FALSE,j,f,NA,NA,NA,2,6,"14,5,7,12,8,1,13,6,15,11,3,9,2,4,10"
14611,commdev-image-keyboard-response,430,803348,learnblock2,99.90000000037253,img/planet8_left.png,8,Community 1,NA,TRUE,f,f,NA,NA,NA,2,6,"14,5,7,12,8,1,13,6,15,11,3,9,2,4,10"
14611,commdev-image-keyboard-response,431,804604,learnblock2,50.09999999962747,img/planet7_left.png,7,Community 1,NA,TRUE,f,f,NA,NA,NA,2,6,"14,5,7,12,8,1,13,6,15,11,3,9,2,4,10"
14611,commdev-image-keyboard-response,432,805859,learnblock2,103.09999999962747,img/planet5_right.png,5,Community 1,NA,TRUE,j,j,NA,NA,NA,2,6,"14,5,7,12,8,1,13,6,15,11,3,9,2,4,10"
14611,commdev-image-keyboard-response,433,807117,learnblock2,0.09999999962747097,img/planet12_right.png,12,Community 1,NA,TRUE,j,j,NA,NA,NA,2,6,"14,5,7,12,8,1,13,6,15,11,3,9,2,4,10"
14611,commdev-image-keyboard-response,434,808370,learnblock2,64.69999999925494,img/planet7_right.png,7,Community 1,NA,FALSE,f,j,NA,NA,NA,2,6,"14,5,7,12,8,1,13,6,15,11,3,9,2,4,10"
14611,commdev-image-keyboard-response,435,809627,learnblock2,24.09999999962747,img/planet14_left.png,14,Community 1,NA,TRUE,f,f,NA,NA,NA,2,6,"14,5,7,12,8,1,13,6,15,11,3,9,2,4,10"
14611,commdev-image-keyboard-response,436,810886,learnblock2,172,img/planet7_left.png,7,Community 1,NA,FALSE,j,f,NA,NA,NA,2,6,"14,5,7,12,8,1,13,6,15,11,3,9,2,4,10"
14611,commdev-image-keyboard-response,437,812137,learnblock2,37.5,img/planet8_left.png,8,Community 1,NA,TRUE,f,f,NA,NA,NA,2,6,"14,5,7,12,8,1,13,6,15,11,3,9,2,4,10"
14611,commdev-image-keyboard-response,438,813405,learnblock2,231.7999999988824,img/planet3_left.png,3,Community 3,NA,TRUE,f,f,NA,NA,NA,2,6,"14,5,7,12,8,1,13,6,15,11,3,9,2,4,10"
14611,commdev-image-keyboard-response,439,814662,learnblock2,97.5,img/planet2_left.png,2,Community 3,NA,TRUE,f,f,NA,NA,NA,2,6,"14,5,7,12,8,1,13,6,15,11,3,9,2,4,10"
14611,commdev-image-keyboard-response,440,815918,learnblock2,126.30000000074506,img/planet9_left.png,9,Community 3,NA,TRUE,f,f,NA,NA,NA,2,6,"14,5,7,12,8,1,13,6,15,11,3,9,2,4,10"
14611,commdev-image-keyboard-response,441,817171,learnblock2,66.40000000037253,img/planet2_right.png,2,Community 3,NA,FALSE,f,j,NA,NA,NA,2,6,"14,5,7,12,8,1,13,6,15,11,3,9,2,4,10"
14611,commdev-image-keyboard-response,442,818430,learnblock2,62.40000000037253,img/planet9_right.png,9,Community 3,NA,TRUE,j,j,NA,NA,NA,2,6,"14,5,7,12,8,1,13,6,15,11,3,9,2,4,10"
14611,commdev-image-keyboard-response,443,819690,learnblock2,202.59999999962747,img/planet4_right.png,4,Community 3,NA,TRUE,j,j,NA,NA,NA,2,6,"14,5,7,12,8,1,13,6,15,11,3,9,2,4,10"
14611,commdev-image-keyboard-response,444,820957,learnblock2,0.10000000149011612,img/planet3_right.png,3,Community 3,NA,TRUE,j,j,NA,NA,NA,2,6,"14,5,7,12,8,1,13,6,15,11,3,9,2,4,10"
14611,commdev-image-keyboard-response,445,822217,learnblock2,117.19999999925494,img/planet10_right.png,10,Community 3,NA,TRUE,j,j,NA,NA,NA,2,6,"14,5,7,12,8,1,13,6,15,11,3,9,2,4,10"
14611,commdev-image-keyboard-response,446,823473,learnblock2,1026.5999999996275,img/planet4_right.png,4,Community 3,NA,TRUE,j,j,NA,NA,NA,2,6,"14,5,7,12,8,1,13,6,15,11,3,9,2,4,10"
14611,commdev-image-keyboard-response,447,824725,learnblock2,546.8000000007451,img/planet2_left.png,2,Community 3,NA,FALSE,j,f,NA,NA,NA,2,6,"14,5,7,12,8,1,13,6,15,11,3,9,2,4,10"
14611,commdev-image-keyboard-response,448,825984,learnblock2,96.90000000037253,img/planet4_left.png,4,Community 3,NA,TRUE,f,f,NA,NA,NA,2,6,"14,5,7,12,8,1,13,6,15,11,3,9,2,4,10"
14611,commdev-image-keyboard-response,449,827236,learnblock2,486.7999999988824,img/planet10_left.png,10,Community 3,NA,TRUE,f,f,NA,NA,NA,2,6,"14,5,7,12,8,1,13,6,15,11,3,9,2,4,10"
14611,commdev-image-keyboard-response,450,828502,learnblock2,482.40000000037253,img/planet4_left.png,4,Community 3,NA,TRUE,f,f,NA,NA,NA,2,6,"14,5,7,12,8,1,13,6,15,11,3,9,2,4,10"
14611,commdev-image-keyboard-response,451,829755,learnblock2,482.59999999962747,img/planet3_right.png,3,Community 3,NA,FALSE,f,j,NA,NA,NA,2,6,"14,5,7,12,8,1,13,6,15,11,3,9,2,4,10"
14611,commdev-image-keyboard-response,452,831015,learnblock2,573.6999999992549,img/planet8_left.png,8,Community 1,NA,TRUE,f,f,NA,NA,NA,2,6,"14,5,7,12,8,1,13,6,15,11,3,9,2,4,10"
14611,commdev-image-keyboard-response,453,832272,learnblock2,600,img/planet5_left.png,5,Community 1,NA,TRUE,f,f,NA,NA,NA,2,6,"14,5,7,12,8,1,13,6,15,11,3,9,2,4,10"
14611,commdev-image-keyboard-response,454,833538,learnblock2,585.5,img/planet8_left.png,8,Community 1,NA,TRUE,f,f,NA,NA,NA,2,6,"14,5,7,12,8,1,13,6,15,11,3,9,2,4,10"
14611,commdev-image-keyboard-response,455,834793,learnblock2,675.1999999992549,img/planet7_left.png,7,Community 1,NA,TRUE,f,f,NA,NA,NA,2,6,"14,5,7,12,8,1,13,6,15,11,3,9,2,4,10"
14611,commdev-image-keyboard-response,456,836046,learnblock2,683.8000000007451,img/planet12_right.png,12,Community 1,NA,TRUE,j,j,NA,NA,NA,2,6,"14,5,7,12,8,1,13,6,15,11,3,9,2,4,10"
14611,commdev-image-keyboard-response,457,837308,learnblock2,190.40000000037253,img/planet5_left.png,5,Community 1,NA,FALSE,j,f,NA,NA,NA,2,6,"14,5,7,12,8,1,13,6,15,11,3,9,2,4,10"
14611,commdev-image-keyboard-response,458,838565,learnblock2,301.69999999925494,img/planet7_left.png,7,Community 1,NA,FALSE,j,f,NA,NA,NA,2,6,"14,5,7,12,8,1,13,6,15,11,3,9,2,4,10"
14611,commdev-image-keyboard-response,459,839821,learnblock2,40.59999999962747,img/planet8_right.png,8,Community 1,NA,TRUE,j,j,NA,NA,NA,2,6,"14,5,7,12,8,1,13,6,15,11,3,9,2,4,10"
14611,commdev-image-keyboard-response,460,841077,learnblock2,711.2999999988824,img/planet7_right.png,7,Community 1,NA,TRUE,j,j,NA,NA,NA,2,6,"14,5,7,12,8,1,13,6,15,11,3,9,2,4,10"
14611,commdev-image-keyboard-response,461,842332,learnblock2,440.80000000074506,img/planet5_left.png,5,Community 1,NA,FALSE,j,f,NA,NA,NA,2,6,"14,5,7,12,8,1,13,6,15,11,3,9,2,4,10"
14611,commdev-image-keyboard-response,462,843595,learnblock2,594.0999999996275,img/planet7_left.png,7,Community 1,NA,FALSE,j,f,NA,NA,NA,2,6,"14,5,7,12,8,1,13,6,15,11,3,9,2,4,10"
14611,commdev-image-keyboard-response,463,844851,learnblock2,401.09999999962747,img/planet5_left.png,5,Community 1,NA,FALSE,j,f,NA,NA,NA,2,6,"14,5,7,12,8,1,13,6,15,11,3,9,2,4,10"
14611,commdev-image-keyboard-response,464,846105,learnblock2,841.1999999992549,img/planet12_right.png,12,Community 1,NA,FALSE,f,j,NA,NA,NA,2,6,"14,5,7,12,8,1,13,6,15,11,3,9,2,4,10"
14611,commdev-image-keyboard-response,465,847368,learnblock2,280.19999999925494,img/planet7_left.png,7,Community 1,NA,TRUE,f,f,NA,NA,NA,2,6,"14,5,7,12,8,1,13,6,15,11,3,9,2,4,10"
14611,commdev-image-keyboard-response,466,848631,learnblock2,58.5,img/planet12_left.png,12,Community 1,NA,TRUE,f,f,NA,NA,NA,2,6,"14,5,7,12,8,1,13,6,15,11,3,9,2,4,10"
14611,commdev-image-keyboard-response,467,849883,learnblock2,6.900000000372529,img/planet1_left.png,1,Community 2,NA,TRUE,f,f,NA,NA,NA,2,6,"14,5,7,12,8,1,13,6,15,11,3,9,2,4,10"
14611,commdev-image-keyboard-response,468,851135,learnblock2,177.90000000037253,img/planet13_left.png,13,Community 2,NA,TRUE,f,f,NA,NA,NA,2,6,"14,5,7,12,8,1,13,6,15,11,3,9,2,4,10"
14611,commdev-image-keyboard-response,469,852387,learnblock2,82.59999999962747,img/planet11_right.png,11,Community 2,NA,FALSE,f,j,NA,NA,NA,2,6,"14,5,7,12,8,1,13,6,15,11,3,9,2,4,10"
14611,commdev-image-keyboard-response,470,853647,learnblock2,169.2000000011176,img/planet15_right.png,15,Community 2,NA,TRUE,j,j,NA,NA,NA,2,6,"14,5,7,12,8,1,13,6,15,11,3,9,2,4,10"
14611,commdev-image-keyboard-response,471,854906,learnblock2,21.199999999254942,img/planet13_left.png,13,Community 2,NA,FALSE,j,f,NA,NA,NA,2,6,"14,5,7,12,8,1,13,6,15,11,3,9,2,4,10"
14611,commdev-image-keyboard-response,472,856165,learnblock2,109.40000000037253,img/planet15_right.png,15,Community 2,NA,FALSE,f,j,NA,NA,NA,2,6,"14,5,7,12,8,1,13,6,15,11,3,9,2,4,10"
14611,commdev-image-keyboard-response,473,857431,learnblock2,345.30000000074506,img/planet6_left.png,6,Community 2,NA,TRUE,f,f,NA,NA,NA,2,6,"14,5,7,12,8,1,13,6,15,11,3,9,2,4,10"
14611,commdev-image-keyboard-response,474,858686,learnblock2,418.5,img/planet13_left.png,13,Community 2,NA,FALSE,j,f,NA,NA,NA,2,6,"14,5,7,12,8,1,13,6,15,11,3,9,2,4,10"
14611,commdev-image-keyboard-response,475,859945,learnblock2,73.69999999925494,img/planet15_left.png,15,Community 2,NA,TRUE,f,f,NA,NA,NA,2,6,"14,5,7,12,8,1,13,6,15,11,3,9,2,4,10"
14611,commdev-image-keyboard-response,476,861203,learnblock2,659.5,img/planet13_right.png,13,Community 2,NA,TRUE,j,j,NA,NA,NA,2,6,"14,5,7,12,8,1,13,6,15,11,3,9,2,4,10"
14611,commdev-image-keyboard-response,477,862466,learnblock2,515.2000000011176,img/planet1_left.png,1,Community 2,NA,TRUE,f,f,NA,NA,NA,2,6,"14,5,7,12,8,1,13,6,15,11,3,9,2,4,10"
14611,commdev-image-keyboard-response,478,863722,learnblock2,732.1999999992549,img/planet11_right.png,11,Community 2,NA,TRUE,j,j,NA,NA,NA,2,6,"14,5,7,12,8,1,13,6,15,11,3,9,2,4,10"
14611,commdev-image-keyboard-response,479,864976,learnblock2,845.8999999985099,img/planet6_left.png,6,Community 2,NA,TRUE,f,f,NA,NA,NA,2,6,"14,5,7,12,8,1,13,6,15,11,3,9,2,4,10"
14611,commdev-image-keyboard-response,480,866232,learnblock2,558.3000000007451,img/planet13_left.png,13,Community 2,NA,FALSE,j,f,NA,NA,NA,2,6,"14,5,7,12,8,1,13,6,15,11,3,9,2,4,10"
14611,commdev-image-keyboard-response,481,867485,learnblock2,875,img/planet1_right.png,1,Community 2,NA,TRUE,j,j,NA,NA,NA,2,6,"14,5,7,12,8,1,13,6,15,11,3,9,2,4,10"
14611,commdev-image-keyboard-response,482,868741,learnblock2,71.60000000149012,img/planet12_left.png,12,Community 1,NA,TRUE,f,f,NA,NA,NA,2,6,"14,5,7,12,8,1,13,6,15,11,3,9,2,4,10"
14611,commdev-image-keyboard-response,483,869996,learnblock2,643.5,img/planet5_right.png,5,Community 1,NA,FALSE,f,j,NA,NA,NA,2,6,"14,5,7,12,8,1,13,6,15,11,3,9,2,4,10"
14611,commdev-image-keyboard-response,484,871255,learnblock2,33.20000000111759,img/planet14_right.png,14,Community 1,NA,FALSE,f,j,NA,NA,NA,2,6,"14,5,7,12,8,1,13,6,15,11,3,9,2,4,10"
14611,commdev-image-keyboard-response,485,872512,learnblock2,156,img/planet8_left.png,8,Community 1,NA,FALSE,j,f,NA,NA,NA,2,6,"14,5,7,12,8,1,13,6,15,11,3,9,2,4,10"
14611,commdev-image-keyboard-response,486,873769,learnblock2,264.09999999962747,img/planet3_left.png,3,Community 3,NA,FALSE,j,f,NA,NA,NA,2,6,"14,5,7,12,8,1,13,6,15,11,3,9,2,4,10"
14611,commdev-image-keyboard-response,487,875025,learnblock2,20.09999999962747,img/planet4_right.png,4,Community 3,NA,TRUE,j,j,NA,NA,NA,2,6,"14,5,7,12,8,1,13,6,15,11,3,9,2,4,10"
14611,commdev-image-keyboard-response,488,876282,learnblock2,233.90000000037253,img/planet9_left.png,9,Community 3,NA,TRUE,f,f,NA,NA,NA,2,6,"14,5,7,12,8,1,13,6,15,11,3,9,2,4,10"
14611,commdev-image-keyboard-response,489,877536,learnblock2,47,img/planet2_right.png,2,Community 3,NA,TRUE,j,j,NA,NA,NA,2,6,"14,5,7,12,8,1,13,6,15,11,3,9,2,4,10"
14611,commdev-image-keyboard-response,490,878793,learnblock2,null,img/planet9_left.png,9,Community 3,NA,FALSE,null,f,NA,NA,NA,2,6,"14,5,7,12,8,1,13,6,15,11,3,9,2,4,10"
14611,commdev-image-keyboard-response,491,880050,learnblock2,null,img/planet2_left.png,2,Community 3,NA,FALSE,null,f,NA,NA,NA,2,6,"14,5,7,12,8,1,13,6,15,11,3,9,2,4,10"
14611,commdev-image-keyboard-response,492,881307,learnblock2,null,img/planet3_right.png,3,Community 3,NA,FALSE,null,j,NA,NA,NA,2,6,"14,5,7,12,8,1,13,6,15,11,3,9,2,4,10"
14611,commdev-image-keyboard-response,493,882559,learnblock2,null,img/planet4_right.png,4,Community 3,NA,FALSE,null,j,NA,NA,NA,2,6,"14,5,7,12,8,1,13,6,15,11,3,9,2,4,10"
14611,commdev-image-keyboard-response,494,883813,learnblock2,695.4000000003725,img/planet10_right.png,10,Community 3,NA,TRUE,j,j,NA,NA,NA,2,6,"14,5,7,12,8,1,13,6,15,11,3,9,2,4,10"
14611,commdev-image-keyboard-response,495,885065,learnblock2,101.69999999925494,img/planet9_left.png,9,Community 3,NA,FALSE,j,f,NA,NA,NA,2,6,"14,5,7,12,8,1,13,6,15,11,3,9,2,4,10"
14611,commdev-image-keyboard-response,496,886318,learnblock2,151.5,img/planet2_left.png,2,Community 3,NA,TRUE,f,f,NA,NA,NA,2,6,"14,5,7,12,8,1,13,6,15,11,3,9,2,4,10"
14611,commdev-image-keyboard-response,497,887574,learnblock2,56.90000000037253,img/planet9_right.png,9,Community 3,NA,FALSE,f,j,NA,NA,NA,2,6,"14,5,7,12,8,1,13,6,15,11,3,9,2,4,10"
14611,commdev-image-keyboard-response,498,888828,learnblock2,65.59999999962747,img/planet4_right.png,4,Community 3,NA,TRUE,j,j,NA,NA,NA,2,6,"14,5,7,12,8,1,13,6,15,11,3,9,2,4,10"
14611,commdev-image-keyboard-response,499,890079,learnblock2,77.29999999888241,img/planet2_left.png,2,Community 3,NA,FALSE,j,f,NA,NA,NA,2,6,"14,5,7,12,8,1,13,6,15,11,3,9,2,4,10"
14611,commdev-image-keyboard-response,500,891328,learnblock2,38.600000001490116,img/planet10_left.png,10,Community 3,NA,TRUE,f,f,NA,NA,NA,2,6,"14,5,7,12,8,1,13,6,15,11,3,9,2,4,10"
14611,commdev-image-keyboard-response,501,892583,learnblock2,194.90000000037253,img/planet2_left.png,2,Community 3,NA,TRUE,f,f,NA,NA,NA,2,6,"14,5,7,12,8,1,13,6,15,11,3,9,2,4,10"
14611,commdev-image-keyboard-response,502,893842,learnblock2,124.30000000074506,img/planet4_right.png,4,Community 3,NA,FALSE,f,j,NA,NA,NA,2,6,"14,5,7,12,8,1,13,6,15,11,3,9,2,4,10"
14611,commdev-image-keyboard-response,503,895108,learnblock2,140.60000000149012,img/planet3_left.png,3,Community 3,NA,FALSE,j,f,NA,NA,NA,2,6,"14,5,7,12,8,1,13,6,15,11,3,9,2,4,10"
14611,commdev-image-keyboard-response,504,896361,learnblock2,256.90000000037253,img/planet4_right.png,4,Community 3,NA,FALSE,f,j,NA,NA,NA,2,6,"14,5,7,12,8,1,13,6,15,11,3,9,2,4,10"
14611,commdev-image-keyboard-response,505,897617,learnblock2,9.5,img/planet10_left.png,10,Community 3,NA,FALSE,j,f,NA,NA,NA,2,6,"14,5,7,12,8,1,13,6,15,11,3,9,2,4,10"
14611,commdev-image-keyboard-response,506,898871,learnblock2,123,img/planet4_right.png,4,Community 3,NA,FALSE,f,j,NA,NA,NA,2,6,"14,5,7,12,8,1,13,6,15,11,3,9,2,4,10"
14611,commdev-image-keyboard-response,507,900123,learnblock2,18.199999999254942,img/planet10_left.png,10,Community 3,NA,FALSE,j,f,NA,NA,NA,2,6,"14,5,7,12,8,1,13,6,15,11,3,9,2,4,10"
14611,commdev-image-keyboard-response,508,901381,learnblock2,73.40000000037253,img/planet4_right.png,4,Community 3,NA,FALSE,f,j,NA,NA,NA,2,6,"14,5,7,12,8,1,13,6,15,11,3,9,2,4,10"
14611,commdev-image-keyboard-response,509,902633,learnblock2,126.09999999962747,img/planet9_right.png,9,Community 3,NA,TRUE,j,j,NA,NA,NA,2,6,"14,5,7,12,8,1,13,6,15,11,3,9,2,4,10"
14611,commdev-image-keyboard-response,510,903890,learnblock2,84.69999999925494,img/planet10_left.png,10,Community 3,NA,TRUE,f,f,NA,NA,NA,2,6,"14,5,7,12,8,1,13,6,15,11,3,9,2,4,10"
14611,commdev-image-keyboard-response,511,905146,learnblock2,65.09999999962747,img/planet2_left.png,2,Community 3,NA,FALSE,j,f,NA,NA,NA,2,6,"14,5,7,12,8,1,13,6,15,11,3,9,2,4,10"
14611,commdev-image-keyboard-response,512,906398,learnblock2,722.1000000014901,img/planet10_left.png,10,Community 3,NA,FALSE,j,f,NA,NA,NA,2,6,"14,5,7,12,8,1,13,6,15,11,3,9,2,4,10"
14611,commdev-image-keyboard-response,513,907653,learnblock2,123,img/planet9_left.png,9,Community 3,NA,TRUE,f,f,NA,NA,NA,2,6,"14,5,7,12,8,1,13,6,15,11,3,9,2,4,10"
14611,commdev-image-keyboard-response,514,908913,learnblock2,76.20000000111759,img/planet6_right.png,6,Community 2,NA,TRUE,j,j,NA,NA,NA,2,6,"14,5,7,12,8,1,13,6,15,11,3,9,2,4,10"
14611,commdev-image-keyboard-response,515,910169,learnblock2,131.7000000011176,img/planet11_right.png,11,Community 2,NA,FALSE,f,j,NA,NA,NA,2,6,"14,5,7,12,8,1,13,6,15,11,3,9,2,4,10"
14611,commdev-image-keyboard-response,516,911422,learnblock2,94.30000000074506,img/planet15_right.png,15,Community 2,NA,FALSE,f,j,NA,NA,NA,2,6,"14,5,7,12,8,1,13,6,15,11,3,9,2,4,10"
14611,commdev-image-keyboard-response,517,912675,learnblock2,42.59999999962747,img/planet1_right.png,1,Community 2,NA,TRUE,j,j,NA,NA,NA,2,6,"14,5,7,12,8,1,13,6,15,11,3,9,2,4,10"
14611,commdev-image-keyboard-response,518,913926,learnblock2,113.09999999962747,img/planet15_left.png,15,Community 2,NA,FALSE,j,f,NA,NA,NA,2,6,"14,5,7,12,8,1,13,6,15,11,3,9,2,4,10"
14611,commdev-image-keyboard-response,519,915178,learnblock2,156.7999999988824,img/planet6_right.png,6,Community 2,NA,TRUE,j,j,NA,NA,NA,2,6,"14,5,7,12,8,1,13,6,15,11,3,9,2,4,10"
14611,commdev-image-keyboard-response,520,916435,learnblock2,121.69999999925494,img/planet9_right.png,9,Community 3,NA,TRUE,j,j,NA,NA,NA,2,6,"14,5,7,12,8,1,13,6,15,11,3,9,2,4,10"
14611,commdev-image-keyboard-response,521,917692,learnblock2,183.69999999925494,img/planet4_left.png,4,Community 3,NA,TRUE,f,f,NA,NA,NA,2,6,"14,5,7,12,8,1,13,6,15,11,3,9,2,4,10"
14611,commdev-image-keyboard-response,522,918948,learnblock2,220.7999999988824,img/planet3_right.png,3,Community 3,NA,TRUE,j,j,NA,NA,NA,2,6,"14,5,7,12,8,1,13,6,15,11,3,9,2,4,10"
14611,commdev-image-keyboard-response,523,920199,learnblock2,431.40000000037253,img/planet4_right.png,4,Community 3,NA,TRUE,j,j,NA,NA,NA,2,6,"14,5,7,12,8,1,13,6,15,11,3,9,2,4,10"
14611,commdev-image-keyboard-response,524,921457,learnblock2,140,img/planet3_right.png,3,Community 3,NA,TRUE,j,j,NA,NA,NA,2,6,"14,5,7,12,8,1,13,6,15,11,3,9,2,4,10"
14611,commdev-image-keyboard-response,525,922712,learnblock2,243,img/planet2_right.png,2,Community 3,NA,TRUE,j,j,NA,NA,NA,2,6,"14,5,7,12,8,1,13,6,15,11,3,9,2,4,10"
14611,commdev-image-keyboard-response,526,923970,learnblock2,153.59999999962747,img/planet4_left.png,4,Community 3,NA,FALSE,j,f,NA,NA,NA,2,6,"14,5,7,12,8,1,13,6,15,11,3,9,2,4,10"
14611,commdev-image-keyboard-response,527,925234,learnblock2,24.800000000745058,img/planet10_right.png,10,Community 3,NA,TRUE,j,j,NA,NA,NA,2,6,"14,5,7,12,8,1,13,6,15,11,3,9,2,4,10"
14611,commdev-image-keyboard-response,528,926493,learnblock2,57.40000000037253,img/planet9_right.png,9,Community 3,NA,TRUE,j,j,NA,NA,NA,2,6,"14,5,7,12,8,1,13,6,15,11,3,9,2,4,10"
14611,commdev-image-keyboard-response,529,927749,learnblock2,221.30000000074506,img/planet2_right.png,2,Community 3,NA,TRUE,j,j,NA,NA,NA,2,6,"14,5,7,12,8,1,13,6,15,11,3,9,2,4,10"
14611,commdev-image-keyboard-response,530,929007,learnblock2,195.7999999988824,img/planet4_left.png,4,Community 3,NA,TRUE,f,f,NA,NA,NA,2,6,"14,5,7,12,8,1,13,6,15,11,3,9,2,4,10"
14611,commdev-image-keyboard-response,531,930266,learnblock2,518.2999999988824,img/planet3_left.png,3,Community 3,NA,FALSE,j,f,NA,NA,NA,2,6,"14,5,7,12,8,1,13,6,15,11,3,9,2,4,10"
14611,commdev-image-keyboard-response,532,931520,learnblock2,231.5,img/planet4_right.png,4,Community 3,NA,TRUE,j,j,NA,NA,NA,2,6,"14,5,7,12,8,1,13,6,15,11,3,9,2,4,10"
14611,commdev-image-keyboard-response,533,932772,learnblock2,1217.300000000745,img/planet10_left.png,10,Community 3,NA,TRUE,f,f,NA,NA,NA,2,6,"14,5,7,12,8,1,13,6,15,11,3,9,2,4,10"
14611,commdev-image-keyboard-response,534,934027,learnblock2,204.90000000037253,img/planet9_left.png,9,Community 3,NA,TRUE,f,f,NA,NA,NA,2,6,"14,5,7,12,8,1,13,6,15,11,3,9,2,4,10"
14611,commdev-image-keyboard-response,535,935286,learnblock2,294.59999999962747,img/planet4_left.png,4,Community 3,NA,TRUE,f,f,NA,NA,NA,2,6,"14,5,7,12,8,1,13,6,15,11,3,9,2,4,10"
14611,commdev-image-keyboard-response,536,936539,learnblock2,122,img/planet2_left.png,2,Community 3,NA,TRUE,f,f,NA,NA,NA,2,6,"14,5,7,12,8,1,13,6,15,11,3,9,2,4,10"
14611,commdev-image-keyboard-response,537,937791,learnblock2,118.80000000074506,img/planet9_left.png,9,Community 3,NA,FALSE,j,f,NA,NA,NA,2,6,"14,5,7,12,8,1,13,6,15,11,3,9,2,4,10"
14611,commdev-image-keyboard-response,538,939048,learnblock2,157.59999999962747,img/planet4_left.png,4,Community 3,NA,FALSE,j,f,NA,NA,NA,2,6,"14,5,7,12,8,1,13,6,15,11,3,9,2,4,10"
14611,commdev-image-keyboard-response,539,940300,learnblock2,206.80000000074506,img/planet9_right.png,9,Community 3,NA,TRUE,j,j,NA,NA,NA,2,6,"14,5,7,12,8,1,13,6,15,11,3,9,2,4,10"
14611,commdev-image-keyboard-response,540,941558,learnblock2,150.89999999850988,img/planet2_left.png,2,Community 3,NA,FALSE,j,f,NA,NA,NA,2,6,"14,5,7,12,8,1,13,6,15,11,3,9,2,4,10"
14611,commdev-image-keyboard-response,541,942809,learnblock2,280.40000000037253,img/planet10_right.png,10,Community 3,NA,TRUE,j,j,NA,NA,NA,2,6,"14,5,7,12,8,1,13,6,15,11,3,9,2,4,10"
14611,commdev-image-keyboard-response,542,944068,learnblock2,257.09999999962747,img/planet9_left.png,9,Community 3,NA,FALSE,j,f,NA,NA,NA,2,6,"14,5,7,12,8,1,13,6,15,11,3,9,2,4,10"
14611,commdev-image-keyboard-response,543,945323,learnblock2,104.69999999925494,img/planet6_right.png,6,Community 2,NA,FALSE,f,j,NA,NA,NA,2,6,"14,5,7,12,8,1,13,6,15,11,3,9,2,4,10"
14611,commdev-image-keyboard-response,544,946575,learnblock2,147.60000000149012,img/planet11_right.png,11,Community 2,NA,TRUE,j,j,NA,NA,NA,2,6,"14,5,7,12,8,1,13,6,15,11,3,9,2,4,10"
14611,commdev-image-keyboard-response,545,947829,learnblock2,59.70000000111759,img/planet6_left.png,6,Community 2,NA,TRUE,f,f,NA,NA,NA,2,6,"14,5,7,12,8,1,13,6,15,11,3,9,2,4,10"
14611,commdev-image-keyboard-response,546,949082,learnblock2,326.2000000011176,img/planet13_left.png,13,Community 2,NA,TRUE,f,f,NA,NA,NA,2,6,"14,5,7,12,8,1,13,6,15,11,3,9,2,4,10"
14611,commdev-image-keyboard-response,547,950337,learnblock2,436.2000000011176,img/planet15_right.png,15,Community 2,NA,FALSE,f,j,NA,NA,NA,2,6,"14,5,7,12,8,1,13,6,15,11,3,9,2,4,10"
14611,commdev-image-keyboard-response,548,951596,learnblock2,139,img/planet11_left.png,11,Community 2,NA,TRUE,f,f,NA,NA,NA,2,6,"14,5,7,12,8,1,13,6,15,11,3,9,2,4,10"
14611,commdev-image-keyboard-response,549,952847,learnblock2,60.30000000074506,img/planet13_left.png,13,Community 2,NA,FALSE,j,f,NA,NA,NA,2,6,"14,5,7,12,8,1,13,6,15,11,3,9,2,4,10"
14611,commdev-image-keyboard-response,550,954105,learnblock2,28.40000000037253,img/planet11_right.png,11,Community 2,NA,FALSE,f,j,NA,NA,NA,2,6,"14,5,7,12,8,1,13,6,15,11,3,9,2,4,10"
14611,commdev-image-keyboard-response,551,955358,learnblock2,71.19999999925494,img/planet1_right.png,1,Community 2,NA,TRUE,j,j,NA,NA,NA,2,6,"14,5,7,12,8,1,13,6,15,11,3,9,2,4,10"
14611,commdev-image-keyboard-response,552,956616,learnblock2,181.2000000011176,img/planet11_right.png,11,Community 2,NA,TRUE,j,j,NA,NA,NA,2,6,"14,5,7,12,8,1,13,6,15,11,3,9,2,4,10"
14611,commdev-image-keyboard-response,553,957870,learnblock2,145.2000000011176,img/planet1_left.png,1,Community 2,NA,FALSE,j,f,NA,NA,NA,2,6,"14,5,7,12,8,1,13,6,15,11,3,9,2,4,10"
14611,commdev-image-keyboard-response,554,959127,learnblock2,147.80000000074506,img/planet11_left.png,11,Community 2,NA,TRUE,f,f,NA,NA,NA,2,6,"14,5,7,12,8,1,13,6,15,11,3,9,2,4,10"
14611,commdev-image-keyboard-response,555,960382,learnblock2,131.90000000037253,img/planet6_right.png,6,Community 2,NA,FALSE,f,j,NA,NA,NA,2,6,"14,5,7,12,8,1,13,6,15,11,3,9,2,4,10"
14611,commdev-image-keyboard-response,556,961639,learnblock2,53.90000000037253,img/planet15_left.png,15,Community 2,NA,FALSE,j,f,NA,NA,NA,2,6,"14,5,7,12,8,1,13,6,15,11,3,9,2,4,10"
14611,commdev-image-keyboard-response,557,962898,learnblock2,193,img/planet13_left.png,13,Community 2,NA,FALSE,j,f,NA,NA,NA,2,6,"14,5,7,12,8,1,13,6,15,11,3,9,2,4,10"
14611,commdev-image-keyboard-response,558,964156,learnblock2,170.69999999925494,img/planet6_right.png,6,Community 2,NA,TRUE,j,j,NA,NA,NA,2,6,"14,5,7,12,8,1,13,6,15,11,3,9,2,4,10"
14611,commdev-image-keyboard-response,559,965413,learnblock2,217,img/planet13_left.png,13,Community 2,NA,FALSE,j,f,NA,NA,NA,2,6,"14,5,7,12,8,1,13,6,15,11,3,9,2,4,10"
14611,commdev-image-keyboard-response,560,966672,learnblock2,170.2999999988824,img/planet1_left.png,1,Community 2,NA,TRUE,f,f,NA,NA,NA,2,6,"14,5,7,12,8,1,13,6,15,11,3,9,2,4,10"
14611,commdev-image-keyboard-response,561,967929,learnblock2,631.9000000003725,img/planet13_right.png,13,Community 2,NA,TRUE,j,j,NA,NA,NA,2,6,"14,5,7,12,8,1,13,6,15,11,3,9,2,4,10"
14611,commdev-image-keyboard-response,562,969181,learnblock2,425.5,img/planet11_left.png,11,Community 2,NA,TRUE,f,f,NA,NA,NA,2,6,"14,5,7,12,8,1,13,6,15,11,3,9,2,4,10"
14611,commdev-image-keyboard-response,563,970433,learnblock2,155.30000000074506,img/planet1_left.png,1,Community 2,NA,FALSE,j,f,NA,NA,NA,2,6,"14,5,7,12,8,1,13,6,15,11,3,9,2,4,10"
14611,commdev-image-keyboard-response,564,971693,learnblock2,7.099999999627471,img/planet15_left.png,15,Community 2,NA,FALSE,j,f,NA,NA,NA,2,6,"14,5,7,12,8,1,13,6,15,11,3,9,2,4,10"
14611,commdev-image-keyboard-response,565,972944,learnblock2,479.30000000074506,img/planet6_left.png,6,Community 2,NA,FALSE,j,f,NA,NA,NA,2,6,"14,5,7,12,8,1,13,6,15,11,3,9,2,4,10"
14611,commdev-image-keyboard-response,566,974203,learnblock2,441.30000000074506,img/planet11_left.png,11,Community 2,NA,FALSE,j,f,NA,NA,NA,2,6,"14,5,7,12,8,1,13,6,15,11,3,9,2,4,10"
14611,commdev-image-keyboard-response,567,975460,learnblock2,15.100000001490116,img/planet15_right.png,15,Community 2,NA,FALSE,f,j,NA,NA,NA,2,6,"14,5,7,12,8,1,13,6,15,11,3,9,2,4,10"
14611,commdev-image-keyboard-response,568,976714,learnblock2,157.2999999988824,img/planet6_left.png,6,Community 2,NA,FALSE,j,f,NA,NA,NA,2,6,"14,5,7,12,8,1,13,6,15,11,3,9,2,4,10"
14611,commdev-image-keyboard-response,569,977966,learnblock2,413.7000000011176,img/planet11_right.png,11,Community 2,NA,TRUE,j,j,NA,NA,NA,2,6,"14,5,7,12,8,1,13,6,15,11,3,9,2,4,10"
14611,commdev-image-keyboard-response,570,979224,learnblock2,165.80000000074506,img/planet1_right.png,1,Community 2,NA,FALSE,f,j,NA,NA,NA,2,6,"14,5,7,12,8,1,13,6,15,11,3,9,2,4,10"
14611,commdev-image-keyboard-response,571,980481,learnblock2,365.40000000037253,img/planet13_left.png,13,Community 2,NA,FALSE,j,f,NA,NA,NA,2,6,"14,5,7,12,8,1,13,6,15,11,3,9,2,4,10"
14611,commdev-image-keyboard-response,572,981737,learnblock2,1.200000001117587,img/planet15_left.png,15,Community 2,NA,FALSE,j,f,NA,NA,NA,2,6,"14,5,7,12,8,1,13,6,15,11,3,9,2,4,10"
14611,commdev-image-keyboard-response,573,982995,learnblock2,17.200000001117587,img/planet1_right.png,1,Community 2,NA,FALSE,f,j,NA,NA,NA,2,6,"14,5,7,12,8,1,13,6,15,11,3,9,2,4,10"
14611,commdev-image-keyboard-response,574,984248,learnblock2,11.599999999627471,img/planet13_right.png,13,Community 2,NA,TRUE,j,j,NA,NA,NA,2,6,"14,5,7,12,8,1,13,6,15,11,3,9,2,4,10"
14611,commdev-image-keyboard-response,575,985502,learnblock2,364.2000000011176,img/planet6_left.png,6,Community 2,NA,FALSE,j,f,NA,NA,NA,2,6,"14,5,7,12,8,1,13,6,15,11,3,9,2,4,10"
14611,commdev-image-keyboard-response,576,986753,learnblock2,257.59999999962747,img/planet15_left.png,15,Community 2,NA,TRUE,f,f,NA,NA,NA,2,6,"14,5,7,12,8,1,13,6,15,11,3,9,2,4,10"
14611,commdev-image-keyboard-response,577,988015,learnblock2,135.39999999850988,img/planet1_right.png,1,Community 2,NA,TRUE,j,j,NA,NA,NA,2,6,"14,5,7,12,8,1,13,6,15,11,3,9,2,4,10"
14611,commdev-image-keyboard-response,578,989279,learnblock2,92.89999999850988,img/planet11_left.png,11,Community 2,NA,TRUE,f,f,NA,NA,NA,2,6,"14,5,7,12,8,1,13,6,15,11,3,9,2,4,10"
14611,commdev-image-keyboard-response,579,990534,learnblock2,234.19999999925494,img/planet1_left.png,1,Community 2,NA,FALSE,j,f,NA,NA,NA,2,6,"14,5,7,12,8,1,13,6,15,11,3,9,2,4,10"
14611,commdev-image-keyboard-response,580,991786,learnblock2,436.5,img/planet13_right.png,13,Community 2,NA,TRUE,j,j,NA,NA,NA,2,6,"14,5,7,12,8,1,13,6,15,11,3,9,2,4,10"
14611,commdev-image-keyboard-response,581,993037,learnblock2,127.80000000074506,img/planet11_left.png,11,Community 2,NA,FALSE,j,f,NA,NA,NA,2,6,"14,5,7,12,8,1,13,6,15,11,3,9,2,4,10"
14611,commdev-image-keyboard-response,582,994297,learnblock2,152.09999999962747,img/planet6_right.png,6,Community 2,NA,FALSE,f,j,NA,NA,NA,2,6,"14,5,7,12,8,1,13,6,15,11,3,9,2,4,10"
14611,commdev-image-keyboard-response,583,995556,learnblock2,122.80000000074506,img/planet9_right.png,9,Community 3,NA,TRUE,j,j,NA,NA,NA,2,6,"14,5,7,12,8,1,13,6,15,11,3,9,2,4,10"
