subject_id,trial_type,trial_index,time_elapsed,block,rt,stimulus,planet,community,response,correct,key_press,learning_correct_response,parse,init_locations,final_locations,browser_interactions,num_comp,planet_map
15560,commdev-instructions,7,41533,NA,1659.2999999821186,"<p>In this game, you will be shown a 3x3 grid of patterns.</p> <p>The last one in the bottom right-hand corner, <strong>will be missing:</strong></p> <div style='width: 700px;'><div style='float: top;'><img style='width: 200px;' src='practice/p1_M1.png'></img><p class='small'>You need to select<strong> which of the four possible patterns </strong>along the bottom<strong> fits into the gap:</strong></p></div><div style='float: top;'><img style='width: 300px;' src='practice/p1_T1.png'></img></div><br>",NA,NA,NA,NA,NA,NA,NA,NA,NA,3,6,"12,7,10,6,9,15,13,11,3,8,14,2,1,5,4"
15560,commdev-instructions,8,61006,NA,1213.5999999940395,"<p>Try to be as fast and as accurate as you can be.</p> <p>If you cannot solve the puzzle then you should guess - you will not be penalised for an incorrect answer.</p> <p>The task contains a shuffled mix of easy, medium and hard puzzles.</p> <p>You will have <strong>30 seconds</strong> to complete each puzzle.</p><br>",NA,NA,NA,NA,NA,NA,NA,NA,NA,3,6,"12,7,10,6,9,15,13,11,3,8,14,2,1,5,4"
15560,commdev-instructions,17,93360,NA,487.59999999403954,<p><strong>Success!</strong></p> <p>You seem to be getting the hang of this...</p> <p>Let's move on to the real trials.</p><br>,NA,NA,NA,NA,NA,NA,NA,NA,NA,3,6,"12,7,10,6,9,15,13,11,3,8,14,2,1,5,4"
15560,commdev-instructions,135,588845,NA,2577.699999988079,"<p>In this game, you are a scientist on board a space shuttle. </p><p> On each mission, you will visit planets all across the universe.</p><img src=""img/controlroom.jpg"" width=300vw>",NA,NA,NA,NA,NA,NA,NA,NA,NA,3,6,"12,7,10,6,9,15,13,11,3,8,14,2,1,5,4"
15560,commdev-instructions,136,593845,NA,2927.4000000059605,"<p>Here are a few planets you might see:</p><img src=""img/practice1.png"" width=200vw><img src=""img/practice2.png"" width=200vw><img src=""img/practice3.png"" width=200vw>",NA,NA,NA,NA,NA,NA,NA,NA,NA,3,6,"12,7,10,6,9,15,13,11,3,8,14,2,1,5,4"
15560,commdev-instructions,137,602705,NA,1458,"<p>Your job as a scientist is to record which direction the winds are moving on each planet.</p><p>There are two types of wind directions:</p><img src=""img/practice1_left.png"" width=200vw><img src=""img/practice1_right.png"" width=200vw>",NA,NA,NA,NA,NA,NA,NA,NA,NA,3,6,"12,7,10,6,9,15,13,11,3,8,14,2,1,5,4"
15560,commdev-instructions,138,610589,NA,3003.0999999940395,"<p>If the winds are moving this way, press the letter <strong>F</strong> on the keyboard as fast as you can.</p><img src=""img/leftwind.png"" width=250vw>",NA,NA,NA,NA,NA,NA,NA,NA,NA,3,6,"12,7,10,6,9,15,13,11,3,8,14,2,1,5,4"
15560,commdev-instructions,139,616357,NA,1271,"<p>If the winds are moving this way, press the letter <strong>J</strong> on the keyboard as fast as you can.</p><img src=""img/rightwind.png"" width=350vw>",NA,NA,NA,NA,NA,NA,NA,NA,NA,3,6,"12,7,10,6,9,15,13,11,3,8,14,2,1,5,4"
15560,commdev-instructions,140,621702,NA,925.2999999821186,<p>You will have 1 second to respond. Try to respond before the time runs out!,NA,NA,NA,NA,NA,NA,NA,NA,NA,3,6,"12,7,10,6,9,15,13,11,3,8,14,2,1,5,4"
15560,commdev-instructions,141,627733,NA,586.1000000238419,<p>The planets you will visit will look different from each other.</p><p>You should respond <strong>only</strong> based on wind direction.,NA,NA,NA,NA,NA,NA,NA,NA,NA,3,6,"12,7,10,6,9,15,13,11,3,8,14,2,1,5,4"
15560,commdev-instructions,142,633538,NA,621.6999999880791,"<p> Ready to start the practice round? </p><p> Remember, press <strong>F</strong> or <strong>J</strong> depending on the wind direction.<br><img src=""img/categorize_planet_example.png""",NA,NA,NA,NA,NA,NA,NA,NA,NA,3,6,"12,7,10,6,9,15,13,11,3,8,14,2,1,5,4"
15560,commdev-instructions,154,682261,NA,610.5,"<p>Great, now try a short practice mission. </p><p> This time, you will have 1 second to respond and you won't know whether you pressed the right or wrong key for each planet.</p>",NA,NA,NA,NA,NA,NA,NA,NA,NA,3,6,"12,7,10,6,9,15,13,11,3,8,14,2,1,5,4"
15560,commdev-image-keyboard-response,155,683636,practice,583.0999999940395,img/practice4_right.png,NA,Number not found in mappings,NA,FALSE,f,j,NA,NA,NA,3,6,"12,7,10,6,9,15,13,11,3,8,14,2,1,5,4"
15560,commdev-image-keyboard-response,156,684899,practice,144.59999999403954,img/practice2_left.png,NA,Number not found in mappings,NA,FALSE,j,f,NA,NA,NA,3,6,"12,7,10,6,9,15,13,11,3,8,14,2,1,5,4"
15560,commdev-image-keyboard-response,157,686161,practice,804,img/practice4_right.png,NA,Number not found in mappings,NA,TRUE,j,j,NA,NA,NA,3,6,"12,7,10,6,9,15,13,11,3,8,14,2,1,5,4"
15560,commdev-image-keyboard-response,158,687425,practice,723.2000000178814,img/practice2_right.png,NA,Number not found in mappings,NA,TRUE,j,j,NA,NA,NA,3,6,"12,7,10,6,9,15,13,11,3,8,14,2,1,5,4"
15560,commdev-image-keyboard-response,159,688688,practice,455.40000000596046,img/practice4_right.png,NA,Number not found in mappings,NA,TRUE,j,j,NA,NA,NA,3,6,"12,7,10,6,9,15,13,11,3,8,14,2,1,5,4"
15560,commdev-image-keyboard-response,160,689953,practice,498.69999998807907,img/practice2_left.png,NA,Number not found in mappings,NA,TRUE,f,f,NA,NA,NA,3,6,"12,7,10,6,9,15,13,11,3,8,14,2,1,5,4"
15560,commdev-image-keyboard-response,161,691215,practice,431.39999997615814,img/practice4_right.png,NA,Number not found in mappings,NA,TRUE,j,j,NA,NA,NA,3,6,"12,7,10,6,9,15,13,11,3,8,14,2,1,5,4"
15560,commdev-image-keyboard-response,162,692479,practice,690.5,img/practice2_right.png,NA,Number not found in mappings,NA,TRUE,j,j,NA,NA,NA,3,6,"12,7,10,6,9,15,13,11,3,8,14,2,1,5,4"
15560,commdev-instructions,163,702662,NA,631.7999999821186,"<p>Great job with the practice round.</p><p>During real missions, you won't know whether you pressed the right or wrong key for each planet.</p><p>But between missions, we will tell you how you did overall.</p>",NA,NA,NA,NA,NA,NA,NA,NA,NA,3,6,"12,7,10,6,9,15,13,11,3,8,14,2,1,5,4"
15560,commdev-instructions,164,711264,NA,363.10000002384186,<p>Try your best! You will be paid a bonus based on how many correct responses you make!</p><p>Responses that are too slow will not count toward your bonus.</p>,NA,NA,NA,NA,NA,NA,NA,NA,NA,3,6,"12,7,10,6,9,15,13,11,3,8,14,2,1,5,4"
15560,commdev-instructions,165,717842,NA,370.40000000596046,"<p>You are almost ready to start the real game.</p><p> First, we are going to ask you some questions about how the game works.</p>",NA,NA,NA,NA,NA,NA,NA,NA,NA,3,6,"12,7,10,6,9,15,13,11,3,8,14,2,1,5,4"
15560,commdev-instructions,174,799790,NA,879.0999999940395,"<p> Nice work! It is now time to start the real game.<p></p>You will go on two missions to record wind directions of different planets.<p></p>Each one will take about 5 minutes. You will get to take a break between missions.<p><p> Remember, press <strong>F</strong> or <strong>J</strong> depending on the wind direction. Good luck!<br><img src=""img/categorize_planet_example.png""",NA,NA,NA,NA,NA,NA,NA,NA,NA,3,6,"12,7,10,6,9,15,13,11,3,8,14,2,1,5,4"
15560,commdev-image-keyboard-response,176,802998,learnblock1,1081.5999999940395,img/planet12_left.png,12,Community 1,NA,TRUE,f,f,NA,NA,NA,3,6,"12,7,10,6,9,15,13,11,3,8,14,2,1,5,4"
15560,commdev-image-keyboard-response,177,804259,learnblock1,690.0999999940395,img/planet10_left.png,10,Community 1,NA,TRUE,f,f,NA,NA,NA,3,6,"12,7,10,6,9,15,13,11,3,8,14,2,1,5,4"
15560,commdev-image-keyboard-response,178,805521,learnblock1,721.4000000059605,img/planet7_right.png,7,Community 1,NA,TRUE,j,j,NA,NA,NA,3,6,"12,7,10,6,9,15,13,11,3,8,14,2,1,5,4"
15560,commdev-image-keyboard-response,179,806773,learnblock1,802.0999999940395,img/planet6_right.png,6,Community 1,NA,TRUE,j,j,NA,NA,NA,3,6,"12,7,10,6,9,15,13,11,3,8,14,2,1,5,4"
15560,commdev-image-keyboard-response,180,808037,learnblock1,695.3000000119209,img/planet7_right.png,7,Community 1,NA,TRUE,j,j,NA,NA,NA,3,6,"12,7,10,6,9,15,13,11,3,8,14,2,1,5,4"
15560,commdev-image-keyboard-response,181,809299,learnblock1,712.4000000059605,img/planet12_right.png,12,Community 1,NA,TRUE,j,j,NA,NA,NA,3,6,"12,7,10,6,9,15,13,11,3,8,14,2,1,5,4"
15560,commdev-image-keyboard-response,182,810559,learnblock1,556.5999999940395,img/planet7_left.png,7,Community 1,NA,TRUE,f,f,NA,NA,NA,3,6,"12,7,10,6,9,15,13,11,3,8,14,2,1,5,4"
15560,commdev-image-keyboard-response,183,811825,learnblock1,535.0999999940395,img/planet6_right.png,6,Community 1,NA,FALSE,f,j,NA,NA,NA,3,6,"12,7,10,6,9,15,13,11,3,8,14,2,1,5,4"
15560,commdev-image-keyboard-response,184,813088,learnblock1,108.2000000178814,img/planet15_left.png,15,Community 2,NA,FALSE,j,f,NA,NA,NA,3,6,"12,7,10,6,9,15,13,11,3,8,14,2,1,5,4"
15560,commdev-image-keyboard-response,185,814351,learnblock1,20,img/planet8_right.png,8,Community 2,NA,FALSE,f,j,NA,NA,NA,3,6,"12,7,10,6,9,15,13,11,3,8,14,2,1,5,4"
15560,commdev-image-keyboard-response,186,815611,learnblock1,651.3000000119209,img/planet15_right.png,15,Community 2,NA,TRUE,j,j,NA,NA,NA,3,6,"12,7,10,6,9,15,13,11,3,8,14,2,1,5,4"
15560,commdev-image-keyboard-response,187,816876,learnblock1,750.5999999940395,img/planet13_right.png,13,Community 2,NA,TRUE,j,j,NA,NA,NA,3,6,"12,7,10,6,9,15,13,11,3,8,14,2,1,5,4"
15560,commdev-image-keyboard-response,188,818140,learnblock1,719.9000000059605,img/planet11_right.png,11,Community 2,NA,TRUE,j,j,NA,NA,NA,3,6,"12,7,10,6,9,15,13,11,3,8,14,2,1,5,4"
15560,commdev-image-keyboard-response,189,819403,learnblock1,498.5,img/planet2_right.png,2,Community 3,NA,TRUE,j,j,NA,NA,NA,3,6,"12,7,10,6,9,15,13,11,3,8,14,2,1,5,4"
15560,commdev-image-keyboard-response,190,820666,learnblock1,521.5999999940395,img/planet11_right.png,11,Community 2,NA,TRUE,j,j,NA,NA,NA,3,6,"12,7,10,6,9,15,13,11,3,8,14,2,1,5,4"
15560,commdev-image-keyboard-response,191,821931,learnblock1,741.3000000119209,img/planet13_left.png,13,Community 2,NA,TRUE,f,f,NA,NA,NA,3,6,"12,7,10,6,9,15,13,11,3,8,14,2,1,5,4"
15560,commdev-image-keyboard-response,192,823193,learnblock1,618.9000000059605,img/planet3_right.png,3,Community 2,NA,TRUE,j,j,NA,NA,NA,3,6,"12,7,10,6,9,15,13,11,3,8,14,2,1,5,4"
15560,commdev-image-keyboard-response,193,824457,learnblock1,561.5999999940395,img/planet11_left.png,11,Community 2,NA,TRUE,f,f,NA,NA,NA,3,6,"12,7,10,6,9,15,13,11,3,8,14,2,1,5,4"
15560,commdev-image-keyboard-response,194,825718,learnblock1,778.9000000059605,img/planet3_left.png,3,Community 2,NA,TRUE,f,f,NA,NA,NA,3,6,"12,7,10,6,9,15,13,11,3,8,14,2,1,5,4"
15560,commdev-image-keyboard-response,195,826980,learnblock1,590.2000000178814,img/planet11_right.png,11,Community 2,NA,TRUE,j,j,NA,NA,NA,3,6,"12,7,10,6,9,15,13,11,3,8,14,2,1,5,4"
15560,commdev-image-keyboard-response,196,828245,learnblock1,576.5999999940395,img/planet13_left.png,13,Community 2,NA,TRUE,f,f,NA,NA,NA,3,6,"12,7,10,6,9,15,13,11,3,8,14,2,1,5,4"
15560,commdev-image-keyboard-response,197,829497,learnblock1,701.0999999940395,img/planet11_right.png,11,Community 2,NA,TRUE,j,j,NA,NA,NA,3,6,"12,7,10,6,9,15,13,11,3,8,14,2,1,5,4"
15560,commdev-image-keyboard-response,198,830749,learnblock1,579.8000000119209,img/planet13_right.png,13,Community 2,NA,TRUE,j,j,NA,NA,NA,3,6,"12,7,10,6,9,15,13,11,3,8,14,2,1,5,4"
15560,commdev-image-keyboard-response,199,832009,learnblock1,590.9000000059605,img/planet15_left.png,15,Community 2,NA,TRUE,f,f,NA,NA,NA,3,6,"12,7,10,6,9,15,13,11,3,8,14,2,1,5,4"
15560,commdev-image-keyboard-response,200,833260,learnblock1,613.4000000059605,img/planet6_right.png,6,Community 1,NA,TRUE,j,j,NA,NA,NA,3,6,"12,7,10,6,9,15,13,11,3,8,14,2,1,5,4"
15560,commdev-image-keyboard-response,201,834512,learnblock1,643,img/planet12_left.png,12,Community 1,NA,TRUE,f,f,NA,NA,NA,3,6,"12,7,10,6,9,15,13,11,3,8,14,2,1,5,4"
15560,commdev-image-keyboard-response,202,835764,learnblock1,699.9000000059605,img/planet7_right.png,7,Community 1,NA,TRUE,j,j,NA,NA,NA,3,6,"12,7,10,6,9,15,13,11,3,8,14,2,1,5,4"
15560,commdev-image-keyboard-response,203,837016,learnblock1,782.4000000059605,img/planet6_right.png,6,Community 1,NA,TRUE,j,j,NA,NA,NA,3,6,"12,7,10,6,9,15,13,11,3,8,14,2,1,5,4"
15560,commdev-image-keyboard-response,204,838268,learnblock1,671.3000000119209,img/planet15_right.png,15,Community 2,NA,TRUE,j,j,NA,NA,NA,3,6,"12,7,10,6,9,15,13,11,3,8,14,2,1,5,4"
15560,commdev-image-keyboard-response,205,839521,learnblock1,572.5,img/planet13_right.png,13,Community 2,NA,TRUE,j,j,NA,NA,NA,3,6,"12,7,10,6,9,15,13,11,3,8,14,2,1,5,4"
15560,commdev-image-keyboard-response,206,840773,learnblock1,457.90000000596046,img/planet8_right.png,8,Community 2,NA,TRUE,j,j,NA,NA,NA,3,6,"12,7,10,6,9,15,13,11,3,8,14,2,1,5,4"
15560,commdev-image-keyboard-response,207,842025,learnblock1,444.69999998807907,img/planet11_right.png,11,Community 2,NA,TRUE,j,j,NA,NA,NA,3,6,"12,7,10,6,9,15,13,11,3,8,14,2,1,5,4"
15560,commdev-image-keyboard-response,208,843277,learnblock1,478.89999997615814,img/planet3_right.png,3,Community 2,NA,TRUE,j,j,NA,NA,NA,3,6,"12,7,10,6,9,15,13,11,3,8,14,2,1,5,4"
15560,commdev-image-keyboard-response,209,844529,learnblock1,524.1999999880791,img/planet8_right.png,8,Community 2,NA,TRUE,j,j,NA,NA,NA,3,6,"12,7,10,6,9,15,13,11,3,8,14,2,1,5,4"
15560,commdev-image-keyboard-response,210,845781,learnblock1,554.0999999940395,img/planet15_right.png,15,Community 2,NA,TRUE,j,j,NA,NA,NA,3,6,"12,7,10,6,9,15,13,11,3,8,14,2,1,5,4"
15560,commdev-image-keyboard-response,211,847032,learnblock1,413.40000000596046,img/planet3_right.png,3,Community 2,NA,TRUE,j,j,NA,NA,NA,3,6,"12,7,10,6,9,15,13,11,3,8,14,2,1,5,4"
15560,commdev-image-keyboard-response,212,848284,learnblock1,619.5,img/planet8_left.png,8,Community 2,NA,TRUE,f,f,NA,NA,NA,3,6,"12,7,10,6,9,15,13,11,3,8,14,2,1,5,4"
15560,commdev-image-keyboard-response,213,849536,learnblock1,579.9000000059605,img/planet15_right.png,15,Community 2,NA,TRUE,j,j,NA,NA,NA,3,6,"12,7,10,6,9,15,13,11,3,8,14,2,1,5,4"
15560,commdev-image-keyboard-response,214,850787,learnblock1,553.4000000059605,img/planet3_right.png,3,Community 2,NA,TRUE,j,j,NA,NA,NA,3,6,"12,7,10,6,9,15,13,11,3,8,14,2,1,5,4"
15560,commdev-image-keyboard-response,215,852038,learnblock1,499.30000001192093,img/planet13_left.png,13,Community 2,NA,TRUE,f,f,NA,NA,NA,3,6,"12,7,10,6,9,15,13,11,3,8,14,2,1,5,4"
15560,commdev-image-keyboard-response,216,853290,learnblock1,487.40000000596046,img/planet3_left.png,3,Community 2,NA,TRUE,f,f,NA,NA,NA,3,6,"12,7,10,6,9,15,13,11,3,8,14,2,1,5,4"
15560,commdev-image-keyboard-response,217,854543,learnblock1,464.40000000596046,img/planet11_left.png,11,Community 2,NA,TRUE,f,f,NA,NA,NA,3,6,"12,7,10,6,9,15,13,11,3,8,14,2,1,5,4"
15560,commdev-image-keyboard-response,218,855795,learnblock1,458.09999999403954,img/planet13_left.png,13,Community 2,NA,TRUE,f,f,NA,NA,NA,3,6,"12,7,10,6,9,15,13,11,3,8,14,2,1,5,4"
15560,commdev-image-keyboard-response,219,857046,learnblock1,707.6999999880791,img/planet8_left.png,8,Community 2,NA,TRUE,f,f,NA,NA,NA,3,6,"12,7,10,6,9,15,13,11,3,8,14,2,1,5,4"
15560,commdev-image-keyboard-response,220,858299,learnblock1,530.2000000178814,img/planet11_right.png,11,Community 2,NA,TRUE,j,j,NA,NA,NA,3,6,"12,7,10,6,9,15,13,11,3,8,14,2,1,5,4"
15560,commdev-image-keyboard-response,221,859551,learnblock1,612.7999999821186,img/planet8_left.png,8,Community 2,NA,TRUE,f,f,NA,NA,NA,3,6,"12,7,10,6,9,15,13,11,3,8,14,2,1,5,4"
15560,commdev-image-keyboard-response,222,860804,learnblock1,652.7000000178814,img/planet3_left.png,3,Community 2,NA,TRUE,f,f,NA,NA,NA,3,6,"12,7,10,6,9,15,13,11,3,8,14,2,1,5,4"
15560,commdev-image-keyboard-response,223,862056,learnblock1,602.7999999821186,img/planet15_left.png,15,Community 2,NA,TRUE,f,f,NA,NA,NA,3,6,"12,7,10,6,9,15,13,11,3,8,14,2,1,5,4"
15560,commdev-image-keyboard-response,224,863314,learnblock1,426.09999999403954,img/planet3_left.png,3,Community 2,NA,TRUE,f,f,NA,NA,NA,3,6,"12,7,10,6,9,15,13,11,3,8,14,2,1,5,4"
15560,commdev-image-keyboard-response,225,864566,learnblock1,480,img/planet8_left.png,8,Community 2,NA,TRUE,f,f,NA,NA,NA,3,6,"12,7,10,6,9,15,13,11,3,8,14,2,1,5,4"
15560,commdev-image-keyboard-response,226,865817,learnblock1,541.5999999940395,img/planet11_right.png,11,Community 2,NA,TRUE,j,j,NA,NA,NA,3,6,"12,7,10,6,9,15,13,11,3,8,14,2,1,5,4"
15560,commdev-image-keyboard-response,227,867069,learnblock1,424.39999997615814,img/planet2_right.png,2,Community 3,NA,TRUE,j,j,NA,NA,NA,3,6,"12,7,10,6,9,15,13,11,3,8,14,2,1,5,4"
15560,commdev-image-keyboard-response,228,868321,learnblock1,560.1999999880791,img/planet4_left.png,4,Community 3,NA,TRUE,f,f,NA,NA,NA,3,6,"12,7,10,6,9,15,13,11,3,8,14,2,1,5,4"
15560,commdev-image-keyboard-response,229,869573,learnblock1,779.1000000238419,img/planet14_left.png,14,Community 3,NA,TRUE,f,f,NA,NA,NA,3,6,"12,7,10,6,9,15,13,11,3,8,14,2,1,5,4"
15560,commdev-image-keyboard-response,230,870825,learnblock1,544.7000000178814,img/planet9_right.png,9,Community 1,NA,TRUE,j,j,NA,NA,NA,3,6,"12,7,10,6,9,15,13,11,3,8,14,2,1,5,4"
15560,commdev-image-keyboard-response,231,872077,learnblock1,679.7000000178814,img/planet10_left.png,10,Community 1,NA,TRUE,f,f,NA,NA,NA,3,6,"12,7,10,6,9,15,13,11,3,8,14,2,1,5,4"
15560,commdev-image-keyboard-response,232,873328,learnblock1,607.4000000059605,img/planet12_right.png,12,Community 1,NA,TRUE,j,j,NA,NA,NA,3,6,"12,7,10,6,9,15,13,11,3,8,14,2,1,5,4"
15560,commdev-image-keyboard-response,233,874581,learnblock1,684.9000000059605,img/planet9_right.png,9,Community 1,NA,TRUE,j,j,NA,NA,NA,3,6,"12,7,10,6,9,15,13,11,3,8,14,2,1,5,4"
15560,commdev-image-keyboard-response,234,875833,learnblock1,543.2999999821186,img/planet14_right.png,14,Community 3,NA,TRUE,j,j,NA,NA,NA,3,6,"12,7,10,6,9,15,13,11,3,8,14,2,1,5,4"
15560,commdev-image-keyboard-response,235,877085,learnblock1,539.1999999880791,img/planet4_left.png,4,Community 3,NA,TRUE,f,f,NA,NA,NA,3,6,"12,7,10,6,9,15,13,11,3,8,14,2,1,5,4"
15560,commdev-image-keyboard-response,236,878336,learnblock1,522.8000000119209,img/planet1_left.png,1,Community 3,NA,TRUE,f,f,NA,NA,NA,3,6,"12,7,10,6,9,15,13,11,3,8,14,2,1,5,4"
15560,commdev-image-keyboard-response,237,879588,learnblock1,577.7000000178814,img/planet2_left.png,2,Community 3,NA,TRUE,f,f,NA,NA,NA,3,6,"12,7,10,6,9,15,13,11,3,8,14,2,1,5,4"
15560,commdev-image-keyboard-response,238,880840,learnblock1,615.8999999761581,img/planet4_right.png,4,Community 3,NA,TRUE,j,j,NA,NA,NA,3,6,"12,7,10,6,9,15,13,11,3,8,14,2,1,5,4"
15560,commdev-image-keyboard-response,239,882092,learnblock1,608.2999999821186,img/planet5_right.png,5,Community 3,NA,TRUE,j,j,NA,NA,NA,3,6,"12,7,10,6,9,15,13,11,3,8,14,2,1,5,4"
15560,commdev-image-keyboard-response,240,883343,learnblock1,476.7000000178814,img/planet2_right.png,2,Community 3,NA,TRUE,j,j,NA,NA,NA,3,6,"12,7,10,6,9,15,13,11,3,8,14,2,1,5,4"
15560,commdev-image-keyboard-response,241,884595,learnblock1,592.1999999880791,img/planet4_right.png,4,Community 3,NA,TRUE,j,j,NA,NA,NA,3,6,"12,7,10,6,9,15,13,11,3,8,14,2,1,5,4"
15560,commdev-image-keyboard-response,242,885847,learnblock1,647,img/planet1_left.png,1,Community 3,NA,TRUE,f,f,NA,NA,NA,3,6,"12,7,10,6,9,15,13,11,3,8,14,2,1,5,4"
15560,commdev-image-keyboard-response,243,887100,learnblock1,571.5,img/planet2_right.png,2,Community 3,NA,TRUE,j,j,NA,NA,NA,3,6,"12,7,10,6,9,15,13,11,3,8,14,2,1,5,4"
15560,commdev-image-keyboard-response,244,888351,learnblock1,486.09999999403954,img/planet4_left.png,4,Community 3,NA,TRUE,f,f,NA,NA,NA,3,6,"12,7,10,6,9,15,13,11,3,8,14,2,1,5,4"
15560,commdev-image-keyboard-response,245,889603,learnblock1,531,img/planet5_left.png,5,Community 3,NA,TRUE,f,f,NA,NA,NA,3,6,"12,7,10,6,9,15,13,11,3,8,14,2,1,5,4"
15560,commdev-image-keyboard-response,246,890854,learnblock1,421,img/planet2_left.png,2,Community 3,NA,TRUE,f,f,NA,NA,NA,3,6,"12,7,10,6,9,15,13,11,3,8,14,2,1,5,4"
15560,commdev-image-keyboard-response,247,892105,learnblock1,436.59999999403954,img/planet5_left.png,5,Community 3,NA,TRUE,f,f,NA,NA,NA,3,6,"12,7,10,6,9,15,13,11,3,8,14,2,1,5,4"
15560,commdev-image-keyboard-response,248,893357,learnblock1,508.19999998807907,img/planet1_left.png,1,Community 3,NA,TRUE,f,f,NA,NA,NA,3,6,"12,7,10,6,9,15,13,11,3,8,14,2,1,5,4"
15560,commdev-image-keyboard-response,249,894609,learnblock1,501.5,img/planet2_right.png,2,Community 3,NA,TRUE,j,j,NA,NA,NA,3,6,"12,7,10,6,9,15,13,11,3,8,14,2,1,5,4"
15560,commdev-image-keyboard-response,250,895861,learnblock1,465.59999999403954,img/planet11_left.png,11,Community 2,NA,TRUE,f,f,NA,NA,NA,3,6,"12,7,10,6,9,15,13,11,3,8,14,2,1,5,4"
15560,commdev-image-keyboard-response,251,897112,learnblock1,466.19999998807907,img/planet8_left.png,8,Community 2,NA,TRUE,f,f,NA,NA,NA,3,6,"12,7,10,6,9,15,13,11,3,8,14,2,1,5,4"
15560,commdev-image-keyboard-response,252,898364,learnblock1,516.5,img/planet11_left.png,11,Community 2,NA,TRUE,f,f,NA,NA,NA,3,6,"12,7,10,6,9,15,13,11,3,8,14,2,1,5,4"
15560,commdev-image-keyboard-response,253,899616,learnblock1,620.9000000059605,img/planet3_right.png,3,Community 2,NA,TRUE,j,j,NA,NA,NA,3,6,"12,7,10,6,9,15,13,11,3,8,14,2,1,5,4"
15560,commdev-image-keyboard-response,254,900867,learnblock1,431.40000000596046,img/planet13_left.png,13,Community 2,NA,TRUE,f,f,NA,NA,NA,3,6,"12,7,10,6,9,15,13,11,3,8,14,2,1,5,4"
15560,commdev-image-keyboard-response,255,902119,learnblock1,550.8999999761581,img/planet11_right.png,11,Community 2,NA,TRUE,j,j,NA,NA,NA,3,6,"12,7,10,6,9,15,13,11,3,8,14,2,1,5,4"
15560,commdev-image-keyboard-response,256,903371,learnblock1,525.7999999821186,img/planet3_left.png,3,Community 2,NA,TRUE,f,f,NA,NA,NA,3,6,"12,7,10,6,9,15,13,11,3,8,14,2,1,5,4"
15560,commdev-image-keyboard-response,257,904622,learnblock1,630.3000000119209,img/planet15_right.png,15,Community 2,NA,TRUE,j,j,NA,NA,NA,3,6,"12,7,10,6,9,15,13,11,3,8,14,2,1,5,4"
15560,commdev-image-keyboard-response,258,905874,learnblock1,642.4000000059605,img/planet13_right.png,13,Community 2,NA,TRUE,j,j,NA,NA,NA,3,6,"12,7,10,6,9,15,13,11,3,8,14,2,1,5,4"
15560,commdev-image-keyboard-response,259,907126,learnblock1,606,img/planet3_right.png,3,Community 2,NA,TRUE,j,j,NA,NA,NA,3,6,"12,7,10,6,9,15,13,11,3,8,14,2,1,5,4"
15560,commdev-image-keyboard-response,260,908378,learnblock1,454.59999999403954,img/planet15_right.png,15,Community 2,NA,TRUE,j,j,NA,NA,NA,3,6,"12,7,10,6,9,15,13,11,3,8,14,2,1,5,4"
15560,commdev-image-keyboard-response,261,909630,learnblock1,605.9000000059605,img/planet13_right.png,13,Community 2,NA,TRUE,j,j,NA,NA,NA,3,6,"12,7,10,6,9,15,13,11,3,8,14,2,1,5,4"
15560,commdev-image-keyboard-response,262,910881,learnblock1,635.4000000059605,img/planet8_left.png,8,Community 2,NA,TRUE,f,f,NA,NA,NA,3,6,"12,7,10,6,9,15,13,11,3,8,14,2,1,5,4"
15560,commdev-image-keyboard-response,263,912133,learnblock1,666.3000000119209,img/planet3_right.png,3,Community 2,NA,TRUE,j,j,NA,NA,NA,3,6,"12,7,10,6,9,15,13,11,3,8,14,2,1,5,4"
15560,commdev-image-keyboard-response,264,913386,learnblock1,514.6000000238419,img/planet11_left.png,11,Community 2,NA,TRUE,f,f,NA,NA,NA,3,6,"12,7,10,6,9,15,13,11,3,8,14,2,1,5,4"
15560,commdev-image-keyboard-response,265,914638,learnblock1,504.5,img/planet2_left.png,2,Community 3,NA,TRUE,f,f,NA,NA,NA,3,6,"12,7,10,6,9,15,13,11,3,8,14,2,1,5,4"
15560,commdev-image-keyboard-response,266,915889,learnblock1,420.2999999821186,img/planet1_left.png,1,Community 3,NA,TRUE,f,f,NA,NA,NA,3,6,"12,7,10,6,9,15,13,11,3,8,14,2,1,5,4"
15560,commdev-image-keyboard-response,267,917140,learnblock1,493.7999999821186,img/planet4_right.png,4,Community 3,NA,TRUE,j,j,NA,NA,NA,3,6,"12,7,10,6,9,15,13,11,3,8,14,2,1,5,4"
15560,commdev-image-keyboard-response,268,918400,learnblock1,538,img/planet2_right.png,2,Community 3,NA,TRUE,j,j,NA,NA,NA,3,6,"12,7,10,6,9,15,13,11,3,8,14,2,1,5,4"
15560,commdev-image-keyboard-response,269,919651,learnblock1,457.69999998807907,img/planet5_right.png,5,Community 3,NA,TRUE,j,j,NA,NA,NA,3,6,"12,7,10,6,9,15,13,11,3,8,14,2,1,5,4"
15560,commdev-image-keyboard-response,270,920903,learnblock1,402.10000002384186,img/planet4_right.png,4,Community 3,NA,TRUE,j,j,NA,NA,NA,3,6,"12,7,10,6,9,15,13,11,3,8,14,2,1,5,4"
15560,commdev-image-keyboard-response,271,922156,learnblock1,576.1999999880791,img/planet14_right.png,14,Community 3,NA,TRUE,j,j,NA,NA,NA,3,6,"12,7,10,6,9,15,13,11,3,8,14,2,1,5,4"
15560,commdev-image-keyboard-response,272,923407,learnblock1,466.90000000596046,img/planet9_right.png,9,Community 1,NA,TRUE,j,j,NA,NA,NA,3,6,"12,7,10,6,9,15,13,11,3,8,14,2,1,5,4"
15560,commdev-image-keyboard-response,273,924659,learnblock1,400.7000000178814,img/planet10_right.png,10,Community 1,NA,TRUE,j,j,NA,NA,NA,3,6,"12,7,10,6,9,15,13,11,3,8,14,2,1,5,4"
15560,commdev-image-keyboard-response,274,925911,learnblock1,360.80000001192093,img/planet9_right.png,9,Community 1,NA,TRUE,j,j,NA,NA,NA,3,6,"12,7,10,6,9,15,13,11,3,8,14,2,1,5,4"
15560,commdev-image-keyboard-response,275,927163,learnblock1,424.80000001192093,img/planet12_left.png,12,Community 1,NA,TRUE,f,f,NA,NA,NA,3,6,"12,7,10,6,9,15,13,11,3,8,14,2,1,5,4"
15560,commdev-image-keyboard-response,276,928414,learnblock1,495.59999999403954,img/planet9_right.png,9,Community 1,NA,TRUE,j,j,NA,NA,NA,3,6,"12,7,10,6,9,15,13,11,3,8,14,2,1,5,4"
15560,commdev-image-keyboard-response,277,929667,learnblock1,706.7000000178814,img/planet7_left.png,7,Community 1,NA,TRUE,f,f,NA,NA,NA,3,6,"12,7,10,6,9,15,13,11,3,8,14,2,1,5,4"
15560,commdev-image-keyboard-response,278,930929,learnblock1,594.4000000059605,img/planet6_right.png,6,Community 1,NA,TRUE,j,j,NA,NA,NA,3,6,"12,7,10,6,9,15,13,11,3,8,14,2,1,5,4"
15560,commdev-image-keyboard-response,279,932181,learnblock1,524.8999999761581,img/planet12_left.png,12,Community 1,NA,TRUE,f,f,NA,NA,NA,3,6,"12,7,10,6,9,15,13,11,3,8,14,2,1,5,4"
15560,commdev-image-keyboard-response,280,933439,learnblock1,449.59999999403954,img/planet9_right.png,9,Community 1,NA,TRUE,j,j,NA,NA,NA,3,6,"12,7,10,6,9,15,13,11,3,8,14,2,1,5,4"
15560,commdev-image-keyboard-response,281,934691,learnblock1,506.80000001192093,img/planet12_right.png,12,Community 1,NA,TRUE,j,j,NA,NA,NA,3,6,"12,7,10,6,9,15,13,11,3,8,14,2,1,5,4"
15560,commdev-image-keyboard-response,282,935942,learnblock1,547,img/planet9_left.png,9,Community 1,NA,TRUE,f,f,NA,NA,NA,3,6,"12,7,10,6,9,15,13,11,3,8,14,2,1,5,4"
15560,commdev-image-keyboard-response,283,937194,learnblock1,531.3999999761581,img/planet12_right.png,12,Community 1,NA,TRUE,j,j,NA,NA,NA,3,6,"12,7,10,6,9,15,13,11,3,8,14,2,1,5,4"
15560,commdev-image-keyboard-response,284,938461,learnblock1,476.2999999821186,img/planet7_right.png,7,Community 1,NA,TRUE,j,j,NA,NA,NA,3,6,"12,7,10,6,9,15,13,11,3,8,14,2,1,5,4"
15560,commdev-image-keyboard-response,285,939713,learnblock1,556.7000000178814,img/planet9_right.png,9,Community 1,NA,TRUE,j,j,NA,NA,NA,3,6,"12,7,10,6,9,15,13,11,3,8,14,2,1,5,4"
15560,commdev-image-keyboard-response,286,940965,learnblock1,670.8999999761581,img/planet12_right.png,12,Community 1,NA,TRUE,j,j,NA,NA,NA,3,6,"12,7,10,6,9,15,13,11,3,8,14,2,1,5,4"
15560,commdev-image-keyboard-response,287,942216,learnblock1,465.09999999403954,img/planet9_left.png,9,Community 1,NA,TRUE,f,f,NA,NA,NA,3,6,"12,7,10,6,9,15,13,11,3,8,14,2,1,5,4"
15560,commdev-image-keyboard-response,288,943468,learnblock1,596,img/planet12_left.png,12,Community 1,NA,TRUE,f,f,NA,NA,NA,3,6,"12,7,10,6,9,15,13,11,3,8,14,2,1,5,4"
15560,commdev-image-keyboard-response,289,944720,learnblock1,472.90000000596046,img/planet9_right.png,9,Community 1,NA,TRUE,j,j,NA,NA,NA,3,6,"12,7,10,6,9,15,13,11,3,8,14,2,1,5,4"
15560,commdev-image-keyboard-response,290,945972,learnblock1,482.59999999403954,img/planet12_right.png,12,Community 1,NA,TRUE,j,j,NA,NA,NA,3,6,"12,7,10,6,9,15,13,11,3,8,14,2,1,5,4"
15560,commdev-image-keyboard-response,291,947223,learnblock1,503.09999999403954,img/planet6_left.png,6,Community 1,NA,TRUE,f,f,NA,NA,NA,3,6,"12,7,10,6,9,15,13,11,3,8,14,2,1,5,4"
15560,commdev-image-keyboard-response,292,948474,learnblock1,648.4000000059605,img/planet15_right.png,15,Community 2,NA,TRUE,j,j,NA,NA,NA,3,6,"12,7,10,6,9,15,13,11,3,8,14,2,1,5,4"
15560,commdev-image-keyboard-response,293,949726,learnblock1,552.6999999880791,img/planet13_right.png,13,Community 2,NA,TRUE,j,j,NA,NA,NA,3,6,"12,7,10,6,9,15,13,11,3,8,14,2,1,5,4"
15560,commdev-image-keyboard-response,294,950979,learnblock1,537.4000000059605,img/planet3_right.png,3,Community 2,NA,TRUE,j,j,NA,NA,NA,3,6,"12,7,10,6,9,15,13,11,3,8,14,2,1,5,4"
15560,commdev-image-keyboard-response,295,952230,learnblock1,456.7999999821186,img/planet8_right.png,8,Community 2,NA,TRUE,j,j,NA,NA,NA,3,6,"12,7,10,6,9,15,13,11,3,8,14,2,1,5,4"
15560,commdev-image-keyboard-response,296,953482,learnblock1,602.5,img/planet3_left.png,3,Community 2,NA,TRUE,f,f,NA,NA,NA,3,6,"12,7,10,6,9,15,13,11,3,8,14,2,1,5,4"
15560,commdev-image-keyboard-response,297,954734,learnblock1,661.1000000238419,img/planet8_left.png,8,Community 2,NA,TRUE,f,f,NA,NA,NA,3,6,"12,7,10,6,9,15,13,11,3,8,14,2,1,5,4"
15560,commdev-image-keyboard-response,298,955986,learnblock1,575.8000000119209,img/planet11_right.png,11,Community 2,NA,TRUE,j,j,NA,NA,NA,3,6,"12,7,10,6,9,15,13,11,3,8,14,2,1,5,4"
15560,commdev-image-keyboard-response,299,957239,learnblock1,636.4000000059605,img/planet2_left.png,2,Community 3,NA,TRUE,f,f,NA,NA,NA,3,6,"12,7,10,6,9,15,13,11,3,8,14,2,1,5,4"
15560,commdev-image-keyboard-response,300,958491,learnblock1,519.4000000059605,img/planet11_left.png,11,Community 2,NA,TRUE,f,f,NA,NA,NA,3,6,"12,7,10,6,9,15,13,11,3,8,14,2,1,5,4"
15560,commdev-image-keyboard-response,301,959743,learnblock1,588.4000000059605,img/planet2_right.png,2,Community 3,NA,TRUE,j,j,NA,NA,NA,3,6,"12,7,10,6,9,15,13,11,3,8,14,2,1,5,4"
15560,commdev-image-keyboard-response,302,960995,learnblock1,532.6999999880791,img/planet11_right.png,11,Community 2,NA,TRUE,j,j,NA,NA,NA,3,6,"12,7,10,6,9,15,13,11,3,8,14,2,1,5,4"
15560,commdev-image-keyboard-response,303,962248,learnblock1,477.40000000596046,img/planet8_right.png,8,Community 2,NA,TRUE,j,j,NA,NA,NA,3,6,"12,7,10,6,9,15,13,11,3,8,14,2,1,5,4"
15560,commdev-image-keyboard-response,304,963499,learnblock1,566.9000000059605,img/planet3_right.png,3,Community 2,NA,TRUE,j,j,NA,NA,NA,3,6,"12,7,10,6,9,15,13,11,3,8,14,2,1,5,4"
15560,commdev-image-keyboard-response,305,964751,learnblock1,461.90000000596046,img/planet8_right.png,8,Community 2,NA,TRUE,j,j,NA,NA,NA,3,6,"12,7,10,6,9,15,13,11,3,8,14,2,1,5,4"
15560,commdev-image-keyboard-response,306,966003,learnblock1,371,img/planet3_right.png,3,Community 2,NA,TRUE,j,j,NA,NA,NA,3,6,"12,7,10,6,9,15,13,11,3,8,14,2,1,5,4"
15560,commdev-image-keyboard-response,307,967254,learnblock1,565.0999999940395,img/planet13_left.png,13,Community 2,NA,TRUE,f,f,NA,NA,NA,3,6,"12,7,10,6,9,15,13,11,3,8,14,2,1,5,4"
15560,commdev-image-keyboard-response,308,968506,learnblock1,557.1999999880791,img/planet3_left.png,3,Community 2,NA,TRUE,f,f,NA,NA,NA,3,6,"12,7,10,6,9,15,13,11,3,8,14,2,1,5,4"
15560,commdev-image-keyboard-response,309,969758,learnblock1,535.6999999880791,img/planet13_left.png,13,Community 2,NA,TRUE,f,f,NA,NA,NA,3,6,"12,7,10,6,9,15,13,11,3,8,14,2,1,5,4"
15560,commdev-image-keyboard-response,310,971010,learnblock1,602.4000000059605,img/planet8_left.png,8,Community 2,NA,TRUE,f,f,NA,NA,NA,3,6,"12,7,10,6,9,15,13,11,3,8,14,2,1,5,4"
15560,commdev-image-keyboard-response,311,972261,learnblock1,611,img/planet3_left.png,3,Community 2,NA,TRUE,f,f,NA,NA,NA,3,6,"12,7,10,6,9,15,13,11,3,8,14,2,1,5,4"
15560,commdev-image-keyboard-response,312,973513,learnblock1,615.4000000059605,img/planet15_left.png,15,Community 2,NA,TRUE,f,f,NA,NA,NA,3,6,"12,7,10,6,9,15,13,11,3,8,14,2,1,5,4"
15560,commdev-image-keyboard-response,313,974765,learnblock1,650,img/planet13_left.png,13,Community 2,NA,TRUE,f,f,NA,NA,NA,3,6,"12,7,10,6,9,15,13,11,3,8,14,2,1,5,4"
15560,commdev-image-keyboard-response,314,976017,learnblock1,655.1000000238419,img/planet3_right.png,3,Community 2,NA,FALSE,f,j,NA,NA,NA,3,6,"12,7,10,6,9,15,13,11,3,8,14,2,1,5,4"
15560,commdev-image-keyboard-response,315,977269,learnblock1,990.8000000119209,img/planet15_right.png,15,Community 2,NA,TRUE,j,j,NA,NA,NA,3,6,"12,7,10,6,9,15,13,11,3,8,14,2,1,5,4"
15560,commdev-image-keyboard-response,316,978521,learnblock1,634.7000000178814,img/planet13_left.png,13,Community 2,NA,TRUE,f,f,NA,NA,NA,3,6,"12,7,10,6,9,15,13,11,3,8,14,2,1,5,4"
15560,commdev-image-keyboard-response,317,979773,learnblock1,1136.2000000178814,img/planet3_left.png,3,Community 2,NA,TRUE,f,f,NA,NA,NA,3,6,"12,7,10,6,9,15,13,11,3,8,14,2,1,5,4"
15560,commdev-image-keyboard-response,318,981037,learnblock1,638.1999999880791,img/planet8_right.png,8,Community 2,NA,TRUE,j,j,NA,NA,NA,3,6,"12,7,10,6,9,15,13,11,3,8,14,2,1,5,4"
15560,commdev-image-keyboard-response,319,982288,learnblock1,911.9000000059605,img/planet13_right.png,13,Community 2,NA,TRUE,j,j,NA,NA,NA,3,6,"12,7,10,6,9,15,13,11,3,8,14,2,1,5,4"
15560,commdev-image-keyboard-response,320,983540,learnblock1,1237.2000000178814,img/planet15_right.png,15,Community 2,NA,TRUE,j,j,NA,NA,NA,3,6,"12,7,10,6,9,15,13,11,3,8,14,2,1,5,4"
15560,commdev-image-keyboard-response,321,984791,learnblock1,692.6999999880791,img/planet8_left.png,8,Community 2,NA,TRUE,f,f,NA,NA,NA,3,6,"12,7,10,6,9,15,13,11,3,8,14,2,1,5,4"
15560,commdev-image-keyboard-response,322,986043,learnblock1,871.9000000059605,img/planet3_left.png,3,Community 2,NA,TRUE,f,f,NA,NA,NA,3,6,"12,7,10,6,9,15,13,11,3,8,14,2,1,5,4"
15560,commdev-image-keyboard-response,323,987295,learnblock1,700.3000000119209,img/planet13_right.png,13,Community 2,NA,TRUE,j,j,NA,NA,NA,3,6,"12,7,10,6,9,15,13,11,3,8,14,2,1,5,4"
15560,commdev-image-keyboard-response,324,988550,learnblock1,625.4000000059605,img/planet11_right.png,11,Community 2,NA,TRUE,j,j,NA,NA,NA,3,6,"12,7,10,6,9,15,13,11,3,8,14,2,1,5,4"
15560,commdev-image-keyboard-response,325,989802,learnblock1,708.6999999880791,img/planet8_left.png,8,Community 2,NA,TRUE,f,f,NA,NA,NA,3,6,"12,7,10,6,9,15,13,11,3,8,14,2,1,5,4"
15560,commdev-image-keyboard-response,326,991055,learnblock1,486.09999999403954,img/planet13_left.png,13,Community 2,NA,TRUE,f,f,NA,NA,NA,3,6,"12,7,10,6,9,15,13,11,3,8,14,2,1,5,4"
15560,commdev-image-keyboard-response,327,992306,learnblock1,670.9000000059605,img/planet11_left.png,11,Community 2,NA,TRUE,f,f,NA,NA,NA,3,6,"12,7,10,6,9,15,13,11,3,8,14,2,1,5,4"
15560,commdev-image-keyboard-response,328,993558,learnblock1,540.8000000119209,img/planet3_right.png,3,Community 2,NA,TRUE,j,j,NA,NA,NA,3,6,"12,7,10,6,9,15,13,11,3,8,14,2,1,5,4"
15560,commdev-image-keyboard-response,329,994809,learnblock1,686.5,img/planet15_right.png,15,Community 2,NA,TRUE,j,j,NA,NA,NA,3,6,"12,7,10,6,9,15,13,11,3,8,14,2,1,5,4"
15560,commdev-image-keyboard-response,330,996061,learnblock1,840.9000000059605,img/planet6_left.png,6,Community 1,NA,TRUE,f,f,NA,NA,NA,3,6,"12,7,10,6,9,15,13,11,3,8,14,2,1,5,4"
15560,commdev-image-keyboard-response,331,997313,learnblock1,791.2000000178814,img/planet10_right.png,10,Community 1,NA,TRUE,j,j,NA,NA,NA,3,6,"12,7,10,6,9,15,13,11,3,8,14,2,1,5,4"
15560,commdev-image-keyboard-response,332,998564,learnblock1,500.69999998807907,img/planet6_left.png,6,Community 1,NA,TRUE,f,f,NA,NA,NA,3,6,"12,7,10,6,9,15,13,11,3,8,14,2,1,5,4"
15560,commdev-image-keyboard-response,333,999817,learnblock1,605.2999999821186,img/planet12_left.png,12,Community 1,NA,TRUE,f,f,NA,NA,NA,3,6,"12,7,10,6,9,15,13,11,3,8,14,2,1,5,4"
15560,commdev-image-keyboard-response,334,1001069,learnblock1,600.6000000238419,img/planet6_left.png,6,Community 1,NA,TRUE,f,f,NA,NA,NA,3,6,"12,7,10,6,9,15,13,11,3,8,14,2,1,5,4"
15560,commdev-image-keyboard-response,335,1002321,learnblock1,664.7999999821186,img/planet12_right.png,12,Community 1,NA,TRUE,j,j,NA,NA,NA,3,6,"12,7,10,6,9,15,13,11,3,8,14,2,1,5,4"
15560,commdev-image-keyboard-response,336,1003573,learnblock1,543.4000000059605,img/planet7_right.png,7,Community 1,NA,TRUE,j,j,NA,NA,NA,3,6,"12,7,10,6,9,15,13,11,3,8,14,2,1,5,4"
15560,commdev-image-keyboard-response,337,1004825,learnblock1,602.2000000178814,img/planet10_left.png,10,Community 1,NA,TRUE,f,f,NA,NA,NA,3,6,"12,7,10,6,9,15,13,11,3,8,14,2,1,5,4"
15560,commdev-image-keyboard-response,338,1006078,learnblock1,862.4000000059605,img/planet7_left.png,7,Community 1,NA,TRUE,f,f,NA,NA,NA,3,6,"12,7,10,6,9,15,13,11,3,8,14,2,1,5,4"
15560,commdev-image-keyboard-response,339,1007329,learnblock1,706.5,img/planet12_left.png,12,Community 1,NA,TRUE,f,f,NA,NA,NA,3,6,"12,7,10,6,9,15,13,11,3,8,14,2,1,5,4"
15560,commdev-image-keyboard-response,340,1008581,learnblock1,606.4000000059605,img/planet7_left.png,7,Community 1,NA,TRUE,f,f,NA,NA,NA,3,6,"12,7,10,6,9,15,13,11,3,8,14,2,1,5,4"
15560,commdev-image-keyboard-response,341,1009834,learnblock1,534.9000000059605,img/planet9_right.png,9,Community 1,NA,TRUE,j,j,NA,NA,NA,3,6,"12,7,10,6,9,15,13,11,3,8,14,2,1,5,4"
15560,commdev-image-keyboard-response,342,1011086,learnblock1,559.5,img/planet12_right.png,12,Community 1,NA,TRUE,j,j,NA,NA,NA,3,6,"12,7,10,6,9,15,13,11,3,8,14,2,1,5,4"
15560,commdev-image-keyboard-response,343,1012338,learnblock1,508.7999999821186,img/planet10_left.png,10,Community 1,NA,TRUE,f,f,NA,NA,NA,3,6,"12,7,10,6,9,15,13,11,3,8,14,2,1,5,4"
15560,commdev-image-keyboard-response,344,1013589,learnblock1,594.7999999821186,img/planet12_right.png,12,Community 1,NA,TRUE,j,j,NA,NA,NA,3,6,"12,7,10,6,9,15,13,11,3,8,14,2,1,5,4"
15560,commdev-image-keyboard-response,345,1014841,learnblock1,443.5,img/planet7_left.png,7,Community 1,NA,TRUE,f,f,NA,NA,NA,3,6,"12,7,10,6,9,15,13,11,3,8,14,2,1,5,4"
15560,commdev-image-keyboard-response,346,1016093,learnblock1,473.90000000596046,img/planet10_left.png,10,Community 1,NA,TRUE,f,f,NA,NA,NA,3,6,"12,7,10,6,9,15,13,11,3,8,14,2,1,5,4"
15560,commdev-image-keyboard-response,347,1017345,learnblock1,572.7000000178814,img/planet6_right.png,6,Community 1,NA,TRUE,j,j,NA,NA,NA,3,6,"12,7,10,6,9,15,13,11,3,8,14,2,1,5,4"
15560,commdev-image-keyboard-response,348,1018597,learnblock1,544.3000000119209,img/planet7_left.png,7,Community 1,NA,TRUE,f,f,NA,NA,NA,3,6,"12,7,10,6,9,15,13,11,3,8,14,2,1,5,4"
15560,commdev-image-keyboard-response,349,1019855,learnblock1,503.09999999403954,img/planet12_left.png,12,Community 1,NA,TRUE,f,f,NA,NA,NA,3,6,"12,7,10,6,9,15,13,11,3,8,14,2,1,5,4"
15560,commdev-image-keyboard-response,350,1021108,learnblock1,470.19999998807907,img/planet9_right.png,9,Community 1,NA,TRUE,j,j,NA,NA,NA,3,6,"12,7,10,6,9,15,13,11,3,8,14,2,1,5,4"
15560,commdev-image-keyboard-response,351,1022360,learnblock1,465.40000000596046,img/planet7_left.png,7,Community 1,NA,FALSE,j,f,NA,NA,NA,3,6,"12,7,10,6,9,15,13,11,3,8,14,2,1,5,4"
15560,commdev-image-keyboard-response,352,1023612,learnblock1,634.5,img/planet10_right.png,10,Community 1,NA,TRUE,j,j,NA,NA,NA,3,6,"12,7,10,6,9,15,13,11,3,8,14,2,1,5,4"
15560,commdev-image-keyboard-response,353,1024879,learnblock1,474.2999999821186,img/planet6_right.png,6,Community 1,NA,TRUE,j,j,NA,NA,NA,3,6,"12,7,10,6,9,15,13,11,3,8,14,2,1,5,4"
15560,commdev-image-keyboard-response,354,1026130,learnblock1,590.0999999940395,img/planet15_left.png,15,Community 2,NA,TRUE,f,f,NA,NA,NA,3,6,"12,7,10,6,9,15,13,11,3,8,14,2,1,5,4"
15560,commdev-image-keyboard-response,355,1027381,learnblock1,632.5999999940395,img/planet3_right.png,3,Community 2,NA,TRUE,j,j,NA,NA,NA,3,6,"12,7,10,6,9,15,13,11,3,8,14,2,1,5,4"
15560,commdev-image-keyboard-response,356,1028633,learnblock1,636.1999999880791,img/planet11_right.png,11,Community 2,NA,TRUE,j,j,NA,NA,NA,3,6,"12,7,10,6,9,15,13,11,3,8,14,2,1,5,4"
15560,commdev-image-keyboard-response,357,1029885,learnblock1,510.7999999821186,img/planet2_right.png,2,Community 3,NA,TRUE,j,j,NA,NA,NA,3,6,"12,7,10,6,9,15,13,11,3,8,14,2,1,5,4"
15560,commdev-image-keyboard-response,358,1031137,learnblock1,720,img/planet1_right.png,1,Community 3,NA,TRUE,j,j,NA,NA,NA,3,6,"12,7,10,6,9,15,13,11,3,8,14,2,1,5,4"
15560,commdev-image-keyboard-response,359,1032390,learnblock1,539.9000000059605,img/planet14_left.png,14,Community 3,NA,TRUE,f,f,NA,NA,NA,3,6,"12,7,10,6,9,15,13,11,3,8,14,2,1,5,4"
15560,commdev-image-keyboard-response,360,1033641,learnblock1,605.5999999940395,img/planet5_left.png,5,Community 3,NA,TRUE,f,f,NA,NA,NA,3,6,"12,7,10,6,9,15,13,11,3,8,14,2,1,5,4"
15560,commdev-image-keyboard-response,361,1034896,learnblock1,844.9000000059605,img/planet4_left.png,4,Community 3,NA,TRUE,f,f,NA,NA,NA,3,6,"12,7,10,6,9,15,13,11,3,8,14,2,1,5,4"
15560,commdev-image-keyboard-response,362,1036148,learnblock1,621.1999999880791,img/planet5_left.png,5,Community 3,NA,TRUE,f,f,NA,NA,NA,3,6,"12,7,10,6,9,15,13,11,3,8,14,2,1,5,4"
15560,commdev-image-keyboard-response,363,1037400,learnblock1,806.3000000119209,img/planet14_right.png,14,Community 3,NA,TRUE,j,j,NA,NA,NA,3,6,"12,7,10,6,9,15,13,11,3,8,14,2,1,5,4"
15560,commdev-image-keyboard-response,364,1038652,learnblock1,675,img/planet5_left.png,5,Community 3,NA,TRUE,f,f,NA,NA,NA,3,6,"12,7,10,6,9,15,13,11,3,8,14,2,1,5,4"
15560,commdev-image-keyboard-response,365,1039908,learnblock1,479.40000000596046,img/planet2_right.png,2,Community 3,NA,TRUE,j,j,NA,NA,NA,3,6,"12,7,10,6,9,15,13,11,3,8,14,2,1,5,4"
15560,commdev-image-keyboard-response,366,1041160,learnblock1,799.6999999880791,img/planet4_right.png,4,Community 3,NA,TRUE,j,j,NA,NA,NA,3,6,"12,7,10,6,9,15,13,11,3,8,14,2,1,5,4"
15560,commdev-image-keyboard-response,367,1042412,learnblock1,609.3000000119209,img/planet14_left.png,14,Community 3,NA,TRUE,f,f,NA,NA,NA,3,6,"12,7,10,6,9,15,13,11,3,8,14,2,1,5,4"
15560,commdev-image-keyboard-response,368,1043663,learnblock1,504.5,img/planet5_right.png,5,Community 3,NA,TRUE,j,j,NA,NA,NA,3,6,"12,7,10,6,9,15,13,11,3,8,14,2,1,5,4"
15560,commdev-image-keyboard-response,369,1044915,learnblock1,424.30000001192093,img/planet1_left.png,1,Community 3,NA,TRUE,f,f,NA,NA,NA,3,6,"12,7,10,6,9,15,13,11,3,8,14,2,1,5,4"
15560,commdev-image-keyboard-response,370,1046167,learnblock1,444.19999998807907,img/planet14_right.png,14,Community 3,NA,TRUE,j,j,NA,NA,NA,3,6,"12,7,10,6,9,15,13,11,3,8,14,2,1,5,4"
15560,commdev-image-keyboard-response,371,1047419,learnblock1,725.0999999940395,img/planet4_right.png,4,Community 3,NA,TRUE,j,j,NA,NA,NA,3,6,"12,7,10,6,9,15,13,11,3,8,14,2,1,5,4"
15560,commdev-image-keyboard-response,372,1048670,learnblock1,609.2000000178814,img/planet14_left.png,14,Community 3,NA,FALSE,j,f,NA,NA,NA,3,6,"12,7,10,6,9,15,13,11,3,8,14,2,1,5,4"
15560,commdev-image-keyboard-response,373,1049922,learnblock1,465.40000000596046,img/planet9_left.png,9,Community 1,NA,FALSE,j,f,NA,NA,NA,3,6,"12,7,10,6,9,15,13,11,3,8,14,2,1,5,4"
15560,commdev-image-keyboard-response,374,1051177,learnblock1,538.5999999940395,img/planet14_right.png,14,Community 3,NA,TRUE,j,j,NA,NA,NA,3,6,"12,7,10,6,9,15,13,11,3,8,14,2,1,5,4"
15560,commdev-image-keyboard-response,375,1052429,learnblock1,586.5,img/planet9_left.png,9,Community 1,NA,TRUE,f,f,NA,NA,NA,3,6,"12,7,10,6,9,15,13,11,3,8,14,2,1,5,4"
15560,commdev-image-keyboard-response,376,1053681,learnblock1,815.1999999880791,img/planet7_right.png,7,Community 1,NA,TRUE,j,j,NA,NA,NA,3,6,"12,7,10,6,9,15,13,11,3,8,14,2,1,5,4"
15560,commdev-image-keyboard-response,377,1054932,learnblock1,594.9000000059605,img/planet9_left.png,9,Community 1,NA,TRUE,f,f,NA,NA,NA,3,6,"12,7,10,6,9,15,13,11,3,8,14,2,1,5,4"
15560,commdev-image-keyboard-response,378,1056185,learnblock1,704.5,img/planet7_left.png,7,Community 1,NA,TRUE,f,f,NA,NA,NA,3,6,"12,7,10,6,9,15,13,11,3,8,14,2,1,5,4"
15560,commdev-image-keyboard-response,379,1057437,learnblock1,634.0999999940395,img/planet10_left.png,10,Community 1,NA,TRUE,f,f,NA,NA,NA,3,6,"12,7,10,6,9,15,13,11,3,8,14,2,1,5,4"
15560,commdev-image-keyboard-response,380,1058689,learnblock1,557.5,img/planet7_left.png,7,Community 1,NA,TRUE,f,f,NA,NA,NA,3,6,"12,7,10,6,9,15,13,11,3,8,14,2,1,5,4"
15560,commdev-image-keyboard-response,381,1059940,learnblock1,492.69999998807907,img/planet6_right.png,6,Community 1,NA,TRUE,j,j,NA,NA,NA,3,6,"12,7,10,6,9,15,13,11,3,8,14,2,1,5,4"
15560,commdev-image-keyboard-response,382,1061193,learnblock1,698.1999999880791,img/planet12_right.png,12,Community 1,NA,TRUE,j,j,NA,NA,NA,3,6,"12,7,10,6,9,15,13,11,3,8,14,2,1,5,4"
15560,commdev-image-keyboard-response,383,1062446,learnblock1,577.5,img/planet7_left.png,7,Community 1,NA,TRUE,f,f,NA,NA,NA,3,6,"12,7,10,6,9,15,13,11,3,8,14,2,1,5,4"
15560,commdev-image-keyboard-response,384,1063697,learnblock1,807.1999999880791,img/planet9_right.png,9,Community 1,NA,TRUE,j,j,NA,NA,NA,3,6,"12,7,10,6,9,15,13,11,3,8,14,2,1,5,4"
15560,commdev-image-keyboard-response,385,1064948,learnblock1,766.4000000059605,img/planet10_right.png,10,Community 1,NA,TRUE,j,j,NA,NA,NA,3,6,"12,7,10,6,9,15,13,11,3,8,14,2,1,5,4"
15560,commdev-image-keyboard-response,386,1066199,learnblock1,592.2000000178814,img/planet12_left.png,12,Community 1,NA,TRUE,f,f,NA,NA,NA,3,6,"12,7,10,6,9,15,13,11,3,8,14,2,1,5,4"
15560,commdev-image-keyboard-response,387,1067451,learnblock1,708.0999999940395,img/planet6_left.png,6,Community 1,NA,TRUE,f,f,NA,NA,NA,3,6,"12,7,10,6,9,15,13,11,3,8,14,2,1,5,4"
15560,commdev-image-keyboard-response,388,1068703,learnblock1,791.6999999880791,img/planet15_right.png,15,Community 2,NA,TRUE,j,j,NA,NA,NA,3,6,"12,7,10,6,9,15,13,11,3,8,14,2,1,5,4"
15560,commdev-image-keyboard-response,389,1069956,learnblock1,586,img/planet8_left.png,8,Community 2,NA,FALSE,j,f,NA,NA,NA,3,6,"12,7,10,6,9,15,13,11,3,8,14,2,1,5,4"
15560,commdev-image-keyboard-response,390,1071208,learnblock1,779.8000000119209,img/planet13_left.png,13,Community 2,NA,TRUE,f,f,NA,NA,NA,3,6,"12,7,10,6,9,15,13,11,3,8,14,2,1,5,4"
15560,commdev-image-keyboard-response,391,1072460,learnblock1,620.1999999880791,img/planet3_right.png,3,Community 2,NA,TRUE,j,j,NA,NA,NA,3,6,"12,7,10,6,9,15,13,11,3,8,14,2,1,5,4"
15560,commdev-image-keyboard-response,392,1073711,learnblock1,553.9000000059605,img/planet8_left.png,8,Community 2,NA,TRUE,f,f,NA,NA,NA,3,6,"12,7,10,6,9,15,13,11,3,8,14,2,1,5,4"
15560,commdev-image-keyboard-response,393,1074963,learnblock1,650.8000000119209,img/planet13_right.png,13,Community 2,NA,TRUE,j,j,NA,NA,NA,3,6,"12,7,10,6,9,15,13,11,3,8,14,2,1,5,4"
15560,commdev-image-keyboard-response,394,1076215,learnblock1,584.5999999940395,img/planet8_right.png,8,Community 2,NA,TRUE,j,j,NA,NA,NA,3,6,"12,7,10,6,9,15,13,11,3,8,14,2,1,5,4"
15560,commdev-image-keyboard-response,395,1077467,learnblock1,555.0999999940395,img/planet15_right.png,15,Community 2,NA,TRUE,j,j,NA,NA,NA,3,6,"12,7,10,6,9,15,13,11,3,8,14,2,1,5,4"
15560,commdev-image-keyboard-response,396,1078719,learnblock1,578.6999999880791,img/planet13_left.png,13,Community 2,NA,TRUE,f,f,NA,NA,NA,3,6,"12,7,10,6,9,15,13,11,3,8,14,2,1,5,4"
15560,commdev-image-keyboard-response,397,1079971,learnblock1,543.1999999880791,img/planet8_right.png,8,Community 2,NA,TRUE,j,j,NA,NA,NA,3,6,"12,7,10,6,9,15,13,11,3,8,14,2,1,5,4"
15560,commdev-image-keyboard-response,398,1081222,learnblock1,537.5,img/planet13_right.png,13,Community 2,NA,TRUE,j,j,NA,NA,NA,3,6,"12,7,10,6,9,15,13,11,3,8,14,2,1,5,4"
15560,commdev-image-keyboard-response,399,1082482,learnblock1,507.90000000596046,img/planet3_left.png,3,Community 2,NA,TRUE,f,f,NA,NA,NA,3,6,"12,7,10,6,9,15,13,11,3,8,14,2,1,5,4"
15560,commdev-image-keyboard-response,400,1083735,learnblock1,954.7000000178814,img/planet11_left.png,11,Community 2,NA,TRUE,f,f,NA,NA,NA,3,6,"12,7,10,6,9,15,13,11,3,8,14,2,1,5,4"
15560,commdev-image-keyboard-response,401,1084988,learnblock1,778.1999999880791,img/planet3_left.png,3,Community 2,NA,TRUE,f,f,NA,NA,NA,3,6,"12,7,10,6,9,15,13,11,3,8,14,2,1,5,4"
15560,commdev-image-keyboard-response,402,1086240,learnblock1,622.5999999940395,img/planet13_left.png,13,Community 2,NA,TRUE,f,f,NA,NA,NA,3,6,"12,7,10,6,9,15,13,11,3,8,14,2,1,5,4"
15560,commdev-image-keyboard-response,403,1087492,learnblock1,860.0999999940395,img/planet3_left.png,3,Community 2,NA,TRUE,f,f,NA,NA,NA,3,6,"12,7,10,6,9,15,13,11,3,8,14,2,1,5,4"
15560,commdev-image-keyboard-response,404,1088744,learnblock1,610.5999999940395,img/planet11_right.png,11,Community 2,NA,TRUE,j,j,NA,NA,NA,3,6,"12,7,10,6,9,15,13,11,3,8,14,2,1,5,4"
15560,commdev-image-keyboard-response,405,1089995,learnblock1,576.5999999940395,img/planet13_right.png,13,Community 2,NA,TRUE,j,j,NA,NA,NA,3,6,"12,7,10,6,9,15,13,11,3,8,14,2,1,5,4"
15560,commdev-image-keyboard-response,406,1091248,learnblock1,475,img/planet11_right.png,11,Community 2,NA,TRUE,j,j,NA,NA,NA,3,6,"12,7,10,6,9,15,13,11,3,8,14,2,1,5,4"
15560,commdev-image-keyboard-response,407,1092499,learnblock1,619.6000000238419,img/planet2_left.png,2,Community 3,NA,TRUE,f,f,NA,NA,NA,3,6,"12,7,10,6,9,15,13,11,3,8,14,2,1,5,4"
15560,commdev-image-keyboard-response,408,1093752,learnblock1,454.40000000596046,img/planet4_right.png,4,Community 3,NA,FALSE,f,j,NA,NA,NA,3,6,"12,7,10,6,9,15,13,11,3,8,14,2,1,5,4"
15560,commdev-image-keyboard-response,409,1095004,learnblock1,1004.5,img/planet14_left.png,14,Community 3,NA,TRUE,f,f,NA,NA,NA,3,6,"12,7,10,6,9,15,13,11,3,8,14,2,1,5,4"
15560,commdev-image-keyboard-response,410,1096255,learnblock1,594.7999999821186,img/planet4_right.png,4,Community 3,NA,TRUE,j,j,NA,NA,NA,3,6,"12,7,10,6,9,15,13,11,3,8,14,2,1,5,4"
15560,commdev-image-keyboard-response,411,1097507,learnblock1,699.3000000119209,img/planet2_left.png,2,Community 3,NA,TRUE,f,f,NA,NA,NA,3,6,"12,7,10,6,9,15,13,11,3,8,14,2,1,5,4"
15560,commdev-image-keyboard-response,412,1098759,learnblock1,638.8000000119209,img/planet4_right.png,4,Community 3,NA,TRUE,j,j,NA,NA,NA,3,6,"12,7,10,6,9,15,13,11,3,8,14,2,1,5,4"
15560,commdev-image-keyboard-response,413,1100010,learnblock1,609.5,img/planet2_right.png,2,Community 3,NA,TRUE,j,j,NA,NA,NA,3,6,"12,7,10,6,9,15,13,11,3,8,14,2,1,5,4"
15560,commdev-image-keyboard-response,414,1101261,learnblock1,639,img/planet11_right.png,11,Community 2,NA,TRUE,j,j,NA,NA,NA,3,6,"12,7,10,6,9,15,13,11,3,8,14,2,1,5,4"
15560,commdev-image-keyboard-response,415,1102513,learnblock1,578.8000000119209,img/planet8_left.png,8,Community 2,NA,TRUE,f,f,NA,NA,NA,3,6,"12,7,10,6,9,15,13,11,3,8,14,2,1,5,4"
15560,commdev-image-keyboard-response,416,1103764,learnblock1,623.8000000119209,img/planet15_right.png,15,Community 2,NA,TRUE,j,j,NA,NA,NA,3,6,"12,7,10,6,9,15,13,11,3,8,14,2,1,5,4"
15560,commdev-image-keyboard-response,417,1105016,learnblock1,538.3000000119209,img/planet3_left.png,3,Community 2,NA,TRUE,f,f,NA,NA,NA,3,6,"12,7,10,6,9,15,13,11,3,8,14,2,1,5,4"
15560,commdev-image-keyboard-response,418,1106267,learnblock1,634.4000000059605,img/planet8_left.png,8,Community 2,NA,TRUE,f,f,NA,NA,NA,3,6,"12,7,10,6,9,15,13,11,3,8,14,2,1,5,4"
15560,commdev-image-keyboard-response,419,1107519,learnblock1,589.7999999821186,img/planet13_right.png,13,Community 2,NA,TRUE,j,j,NA,NA,NA,3,6,"12,7,10,6,9,15,13,11,3,8,14,2,1,5,4"
15560,commdev-image-keyboard-response,420,1108771,learnblock1,688.6000000238419,img/planet11_right.png,11,Community 2,NA,FALSE,f,j,NA,NA,NA,3,6,"12,7,10,6,9,15,13,11,3,8,14,2,1,5,4"
15560,commdev-image-keyboard-response,421,1110023,learnblock1,47.400000005960464,img/planet8_right.png,8,Community 2,NA,TRUE,j,j,NA,NA,NA,3,6,"12,7,10,6,9,15,13,11,3,8,14,2,1,5,4"
15560,commdev-image-keyboard-response,422,1111274,learnblock1,579,img/planet3_right.png,3,Community 2,NA,TRUE,j,j,NA,NA,NA,3,6,"12,7,10,6,9,15,13,11,3,8,14,2,1,5,4"
15560,commdev-image-keyboard-response,423,1112526,learnblock1,489.59999999403954,img/planet13_right.png,13,Community 2,NA,TRUE,j,j,NA,NA,NA,3,6,"12,7,10,6,9,15,13,11,3,8,14,2,1,5,4"
15560,commdev-image-keyboard-response,424,1113778,learnblock1,493.2999999821186,img/planet8_right.png,8,Community 2,NA,TRUE,j,j,NA,NA,NA,3,6,"12,7,10,6,9,15,13,11,3,8,14,2,1,5,4"
15560,commdev-image-keyboard-response,425,1115030,learnblock1,463.40000000596046,img/planet3_right.png,3,Community 2,NA,TRUE,j,j,NA,NA,NA,3,6,"12,7,10,6,9,15,13,11,3,8,14,2,1,5,4"
15560,commdev-image-keyboard-response,426,1116282,learnblock1,503.69999998807907,img/planet8_left.png,8,Community 2,NA,TRUE,f,f,NA,NA,NA,3,6,"12,7,10,6,9,15,13,11,3,8,14,2,1,5,4"
15560,commdev-image-keyboard-response,427,1117533,learnblock1,864.5,img/planet11_right.png,11,Community 2,NA,TRUE,j,j,NA,NA,NA,3,6,"12,7,10,6,9,15,13,11,3,8,14,2,1,5,4"
15560,commdev-image-keyboard-response,428,1118785,learnblock1,566.7999999821186,img/planet8_right.png,8,Community 2,NA,TRUE,j,j,NA,NA,NA,3,6,"12,7,10,6,9,15,13,11,3,8,14,2,1,5,4"
15560,commdev-image-keyboard-response,429,1120037,learnblock1,517.0999999940395,img/planet11_right.png,11,Community 2,NA,TRUE,j,j,NA,NA,NA,3,6,"12,7,10,6,9,15,13,11,3,8,14,2,1,5,4"
15560,commdev-image-keyboard-response,430,1121289,learnblock1,617.3000000119209,img/planet3_left.png,3,Community 2,NA,TRUE,f,f,NA,NA,NA,3,6,"12,7,10,6,9,15,13,11,3,8,14,2,1,5,4"
15560,commdev-image-keyboard-response,431,1122541,learnblock1,507.30000001192093,img/planet8_right.png,8,Community 2,NA,TRUE,j,j,NA,NA,NA,3,6,"12,7,10,6,9,15,13,11,3,8,14,2,1,5,4"
15560,commdev-image-keyboard-response,432,1123793,learnblock1,525.5999999940395,img/planet11_right.png,11,Community 2,NA,TRUE,j,j,NA,NA,NA,3,6,"12,7,10,6,9,15,13,11,3,8,14,2,1,5,4"
15560,commdev-image-keyboard-response,433,1125044,learnblock1,595.9000000059605,img/planet3_left.png,3,Community 2,NA,TRUE,f,f,NA,NA,NA,3,6,"12,7,10,6,9,15,13,11,3,8,14,2,1,5,4"
15560,commdev-image-keyboard-response,434,1126296,learnblock1,465.2999999821186,img/planet15_left.png,15,Community 2,NA,TRUE,f,f,NA,NA,NA,3,6,"12,7,10,6,9,15,13,11,3,8,14,2,1,5,4"
15560,commdev-image-keyboard-response,435,1127548,learnblock1,536.6999999880791,img/planet8_right.png,8,Community 2,NA,FALSE,f,j,NA,NA,NA,3,6,"12,7,10,6,9,15,13,11,3,8,14,2,1,5,4"
15560,commdev-image-keyboard-response,436,1128800,learnblock1,585.1000000238419,img/planet13_right.png,13,Community 2,NA,TRUE,j,j,NA,NA,NA,3,6,"12,7,10,6,9,15,13,11,3,8,14,2,1,5,4"
15560,commdev-image-keyboard-response,437,1130052,learnblock1,670.5999999940395,img/planet3_right.png,3,Community 2,NA,TRUE,j,j,NA,NA,NA,3,6,"12,7,10,6,9,15,13,11,3,8,14,2,1,5,4"
15560,commdev-image-keyboard-response,438,1131303,learnblock1,594.5,img/planet15_left.png,15,Community 2,NA,TRUE,f,f,NA,NA,NA,3,6,"12,7,10,6,9,15,13,11,3,8,14,2,1,5,4"
15560,commdev-image-keyboard-response,439,1132556,learnblock1,509.19999998807907,img/planet6_left.png,6,Community 1,NA,TRUE,f,f,NA,NA,NA,3,6,"12,7,10,6,9,15,13,11,3,8,14,2,1,5,4"
15560,commdev-image-keyboard-response,440,1133807,learnblock1,549.5,img/planet12_left.png,12,Community 1,NA,TRUE,f,f,NA,NA,NA,3,6,"12,7,10,6,9,15,13,11,3,8,14,2,1,5,4"
15560,commdev-image-keyboard-response,441,1135060,learnblock1,543.9000000059605,img/planet6_left.png,6,Community 1,NA,TRUE,f,f,NA,NA,NA,3,6,"12,7,10,6,9,15,13,11,3,8,14,2,1,5,4"
15560,commdev-image-keyboard-response,442,1136313,learnblock1,488.5,img/planet7_right.png,7,Community 1,NA,TRUE,j,j,NA,NA,NA,3,6,"12,7,10,6,9,15,13,11,3,8,14,2,1,5,4"
15560,commdev-image-keyboard-response,443,1137565,learnblock1,692.9000000059605,img/planet9_left.png,9,Community 1,NA,TRUE,f,f,NA,NA,NA,3,6,"12,7,10,6,9,15,13,11,3,8,14,2,1,5,4"
15560,commdev-image-keyboard-response,444,1138816,learnblock1,486.69999998807907,img/planet10_right.png,10,Community 1,NA,TRUE,j,j,NA,NA,NA,3,6,"12,7,10,6,9,15,13,11,3,8,14,2,1,5,4"
15560,commdev-image-keyboard-response,445,1140069,learnblock1,531.8000000119209,img/planet12_left.png,12,Community 1,NA,TRUE,f,f,NA,NA,NA,3,6,"12,7,10,6,9,15,13,11,3,8,14,2,1,5,4"
15560,commdev-image-keyboard-response,446,1141320,learnblock1,530.7999999821186,img/planet10_left.png,10,Community 1,NA,TRUE,f,f,NA,NA,NA,3,6,"12,7,10,6,9,15,13,11,3,8,14,2,1,5,4"
15560,commdev-image-keyboard-response,447,1142571,learnblock1,480.40000000596046,img/planet7_right.png,7,Community 1,NA,TRUE,j,j,NA,NA,NA,3,6,"12,7,10,6,9,15,13,11,3,8,14,2,1,5,4"
15560,commdev-image-keyboard-response,448,1143823,learnblock1,581.1000000238419,img/planet6_right.png,6,Community 1,NA,TRUE,j,j,NA,NA,NA,3,6,"12,7,10,6,9,15,13,11,3,8,14,2,1,5,4"
15560,commdev-image-keyboard-response,449,1145074,learnblock1,521.2000000178814,img/planet15_left.png,15,Community 2,NA,TRUE,f,f,NA,NA,NA,3,6,"12,7,10,6,9,15,13,11,3,8,14,2,1,5,4"
15560,commdev-image-keyboard-response,450,1146326,learnblock1,657.2000000178814,img/planet13_left.png,13,Community 2,NA,TRUE,f,f,NA,NA,NA,3,6,"12,7,10,6,9,15,13,11,3,8,14,2,1,5,4"
15560,commdev-image-keyboard-response,451,1147579,learnblock1,502.69999998807907,img/planet11_left.png,11,Community 2,NA,TRUE,f,f,NA,NA,NA,3,6,"12,7,10,6,9,15,13,11,3,8,14,2,1,5,4"
15560,commdev-image-keyboard-response,452,1148830,learnblock1,655.4000000059605,img/planet13_right.png,13,Community 2,NA,TRUE,j,j,NA,NA,NA,3,6,"12,7,10,6,9,15,13,11,3,8,14,2,1,5,4"
15560,commdev-image-keyboard-response,453,1150083,learnblock1,540.6000000238419,img/planet8_right.png,8,Community 2,NA,TRUE,j,j,NA,NA,NA,3,6,"12,7,10,6,9,15,13,11,3,8,14,2,1,5,4"
15560,commdev-image-keyboard-response,454,1151336,learnblock1,519.2999999821186,img/planet11_left.png,11,Community 2,NA,TRUE,f,f,NA,NA,NA,3,6,"12,7,10,6,9,15,13,11,3,8,14,2,1,5,4"
15560,commdev-image-keyboard-response,455,1152587,learnblock1,783.5,img/planet3_left.png,3,Community 2,NA,TRUE,f,f,NA,NA,NA,3,6,"12,7,10,6,9,15,13,11,3,8,14,2,1,5,4"
15560,commdev-image-keyboard-response,456,1153841,learnblock1,573.7999999821186,img/planet13_left.png,13,Community 2,NA,TRUE,f,f,NA,NA,NA,3,6,"12,7,10,6,9,15,13,11,3,8,14,2,1,5,4"
15560,commdev-image-keyboard-response,457,1155093,learnblock1,456.2000000178814,img/planet11_left.png,11,Community 2,NA,TRUE,f,f,NA,NA,NA,3,6,"12,7,10,6,9,15,13,11,3,8,14,2,1,5,4"
15560,commdev-image-keyboard-response,458,1156345,learnblock1,601.4000000059605,img/planet3_right.png,3,Community 2,NA,TRUE,j,j,NA,NA,NA,3,6,"12,7,10,6,9,15,13,11,3,8,14,2,1,5,4"
15560,commdev-image-keyboard-response,459,1157597,learnblock1,650.5999999940395,img/planet8_left.png,8,Community 2,NA,TRUE,f,f,NA,NA,NA,3,6,"12,7,10,6,9,15,13,11,3,8,14,2,1,5,4"
15560,commdev-image-keyboard-response,460,1158849,learnblock1,484.60000002384186,img/planet15_right.png,15,Community 2,NA,TRUE,j,j,NA,NA,NA,3,6,"12,7,10,6,9,15,13,11,3,8,14,2,1,5,4"
15560,commdev-image-keyboard-response,461,1160101,learnblock1,515,img/planet13_left.png,13,Community 2,NA,FALSE,j,f,NA,NA,NA,3,6,"12,7,10,6,9,15,13,11,3,8,14,2,1,5,4"
15560,commdev-image-keyboard-response,462,1161353,learnblock1,905.8999999761581,img/planet8_left.png,8,Community 2,NA,TRUE,f,f,NA,NA,NA,3,6,"12,7,10,6,9,15,13,11,3,8,14,2,1,5,4"
15560,commdev-image-keyboard-response,463,1162605,learnblock1,630.0999999940395,img/planet15_right.png,15,Community 2,NA,TRUE,j,j,NA,NA,NA,3,6,"12,7,10,6,9,15,13,11,3,8,14,2,1,5,4"
15560,commdev-image-keyboard-response,464,1163857,learnblock1,763.4000000059605,img/planet6_right.png,6,Community 1,NA,TRUE,j,j,NA,NA,NA,3,6,"12,7,10,6,9,15,13,11,3,8,14,2,1,5,4"
15560,commdev-image-keyboard-response,465,1165108,learnblock1,517.7999999821186,img/planet10_left.png,10,Community 1,NA,FALSE,j,f,NA,NA,NA,3,6,"12,7,10,6,9,15,13,11,3,8,14,2,1,5,4"
15560,commdev-image-keyboard-response,466,1166359,learnblock1,613.4000000059605,img/planet6_right.png,6,Community 1,NA,TRUE,j,j,NA,NA,NA,3,6,"12,7,10,6,9,15,13,11,3,8,14,2,1,5,4"
15560,commdev-image-keyboard-response,467,1167611,learnblock1,599.1000000238419,img/planet10_left.png,10,Community 1,NA,TRUE,f,f,NA,NA,NA,3,6,"12,7,10,6,9,15,13,11,3,8,14,2,1,5,4"
15560,commdev-image-keyboard-response,468,1168863,learnblock1,609.2000000178814,img/planet6_left.png,6,Community 1,NA,TRUE,f,f,NA,NA,NA,3,6,"12,7,10,6,9,15,13,11,3,8,14,2,1,5,4"
15560,commdev-image-keyboard-response,469,1170115,learnblock1,549,img/planet12_right.png,12,Community 1,NA,TRUE,j,j,NA,NA,NA,3,6,"12,7,10,6,9,15,13,11,3,8,14,2,1,5,4"
15560,commdev-image-keyboard-response,470,1171366,learnblock1,523.5,img/planet6_right.png,6,Community 1,NA,TRUE,j,j,NA,NA,NA,3,6,"12,7,10,6,9,15,13,11,3,8,14,2,1,5,4"
15560,commdev-image-keyboard-response,471,1172618,learnblock1,462.90000000596046,img/planet10_left.png,10,Community 1,NA,TRUE,f,f,NA,NA,NA,3,6,"12,7,10,6,9,15,13,11,3,8,14,2,1,5,4"
15560,commdev-image-keyboard-response,472,1173870,learnblock1,683.4000000059605,img/planet9_left.png,9,Community 1,NA,TRUE,f,f,NA,NA,NA,3,6,"12,7,10,6,9,15,13,11,3,8,14,2,1,5,4"
15560,commdev-image-keyboard-response,473,1175122,learnblock1,423.2000000178814,img/planet10_right.png,10,Community 1,NA,FALSE,f,j,NA,NA,NA,3,6,"12,7,10,6,9,15,13,11,3,8,14,2,1,5,4"
15560,commdev-image-keyboard-response,474,1176374,learnblock1,692.3000000119209,img/planet7_right.png,7,Community 1,NA,TRUE,j,j,NA,NA,NA,3,6,"12,7,10,6,9,15,13,11,3,8,14,2,1,5,4"
15560,commdev-image-keyboard-response,475,1177631,learnblock1,537.6000000238419,img/planet10_left.png,10,Community 1,NA,TRUE,f,f,NA,NA,NA,3,6,"12,7,10,6,9,15,13,11,3,8,14,2,1,5,4"
15560,commdev-image-keyboard-response,479,1938632,learnblock2,774.4000000059605,img/planet4_left.png,4,Community 3,NA,TRUE,f,f,NA,NA,NA,3,6,"12,7,10,6,9,15,13,11,3,8,14,2,1,5,4"
15560,commdev-image-keyboard-response,480,1939884,learnblock2,619.6000000238419,img/planet14_left.png,14,Community 3,NA,TRUE,f,f,NA,NA,NA,3,6,"12,7,10,6,9,15,13,11,3,8,14,2,1,5,4"
15560,commdev-image-keyboard-response,481,1941137,learnblock2,673.3000000119209,img/planet5_left.png,5,Community 3,NA,TRUE,f,f,NA,NA,NA,3,6,"12,7,10,6,9,15,13,11,3,8,14,2,1,5,4"
15560,commdev-image-keyboard-response,482,1942389,learnblock2,565.0999999940395,img/planet1_left.png,1,Community 3,NA,TRUE,f,f,NA,NA,NA,3,6,"12,7,10,6,9,15,13,11,3,8,14,2,1,5,4"
15560,commdev-image-keyboard-response,483,1943641,learnblock2,516.4000000059605,img/planet5_right.png,5,Community 3,NA,TRUE,j,j,NA,NA,NA,3,6,"12,7,10,6,9,15,13,11,3,8,14,2,1,5,4"
15560,commdev-image-keyboard-response,484,1944892,learnblock2,492.39999997615814,img/planet4_right.png,4,Community 3,NA,TRUE,j,j,NA,NA,NA,3,6,"12,7,10,6,9,15,13,11,3,8,14,2,1,5,4"
15560,commdev-image-keyboard-response,485,1946144,learnblock2,556.4000000059605,img/planet5_left.png,5,Community 3,NA,TRUE,f,f,NA,NA,NA,3,6,"12,7,10,6,9,15,13,11,3,8,14,2,1,5,4"
15560,commdev-image-keyboard-response,486,1947396,learnblock2,432.89999997615814,img/planet2_left.png,2,Community 3,NA,TRUE,f,f,NA,NA,NA,3,6,"12,7,10,6,9,15,13,11,3,8,14,2,1,5,4"
15560,commdev-image-keyboard-response,487,1948648,learnblock2,516.5,img/planet5_right.png,5,Community 3,NA,TRUE,j,j,NA,NA,NA,3,6,"12,7,10,6,9,15,13,11,3,8,14,2,1,5,4"
15560,commdev-image-keyboard-response,488,1949900,learnblock2,512.6999999880791,img/planet1_right.png,1,Community 3,NA,TRUE,j,j,NA,NA,NA,3,6,"12,7,10,6,9,15,13,11,3,8,14,2,1,5,4"
15560,commdev-image-keyboard-response,489,1951152,learnblock2,450.30000001192093,img/planet2_right.png,2,Community 3,NA,FALSE,f,j,NA,NA,NA,3,6,"12,7,10,6,9,15,13,11,3,8,14,2,1,5,4"
15560,commdev-image-keyboard-response,490,1952415,learnblock2,564.7000000178814,img/planet5_left.png,5,Community 3,NA,TRUE,f,f,NA,NA,NA,3,6,"12,7,10,6,9,15,13,11,3,8,14,2,1,5,4"
15560,commdev-image-keyboard-response,491,1953666,learnblock2,500.09999999403954,img/planet2_left.png,2,Community 3,NA,TRUE,f,f,NA,NA,NA,3,6,"12,7,10,6,9,15,13,11,3,8,14,2,1,5,4"
15560,commdev-image-keyboard-response,492,1954918,learnblock2,565.1999999880791,img/planet11_left.png,11,Community 2,NA,TRUE,f,f,NA,NA,NA,3,6,"12,7,10,6,9,15,13,11,3,8,14,2,1,5,4"
15560,commdev-image-keyboard-response,493,1956170,learnblock2,599.1999999880791,img/planet8_left.png,8,Community 2,NA,TRUE,f,f,NA,NA,NA,3,6,"12,7,10,6,9,15,13,11,3,8,14,2,1,5,4"
15560,commdev-image-keyboard-response,494,1957422,learnblock2,522.7000000178814,img/planet15_right.png,15,Community 2,NA,TRUE,j,j,NA,NA,NA,3,6,"12,7,10,6,9,15,13,11,3,8,14,2,1,5,4"
15560,commdev-image-keyboard-response,495,1958674,learnblock2,643.3000000119209,img/planet8_left.png,8,Community 2,NA,TRUE,f,f,NA,NA,NA,3,6,"12,7,10,6,9,15,13,11,3,8,14,2,1,5,4"
15560,commdev-image-keyboard-response,496,1959926,learnblock2,567.6999999880791,img/planet15_right.png,15,Community 2,NA,TRUE,j,j,NA,NA,NA,3,6,"12,7,10,6,9,15,13,11,3,8,14,2,1,5,4"
15560,commdev-image-keyboard-response,497,1961179,learnblock2,542,img/planet8_left.png,8,Community 2,NA,TRUE,f,f,NA,NA,NA,3,6,"12,7,10,6,9,15,13,11,3,8,14,2,1,5,4"
15560,commdev-image-keyboard-response,498,1962430,learnblock2,546,img/planet15_left.png,15,Community 2,NA,TRUE,f,f,NA,NA,NA,3,6,"12,7,10,6,9,15,13,11,3,8,14,2,1,5,4"
15560,commdev-image-keyboard-response,499,1963682,learnblock2,705.5999999940395,img/planet8_left.png,8,Community 2,NA,TRUE,f,f,NA,NA,NA,3,6,"12,7,10,6,9,15,13,11,3,8,14,2,1,5,4"
15560,commdev-image-keyboard-response,500,1964933,learnblock2,481.59999999403954,img/planet15_left.png,15,Community 2,NA,TRUE,f,f,NA,NA,NA,3,6,"12,7,10,6,9,15,13,11,3,8,14,2,1,5,4"
15560,commdev-image-keyboard-response,501,1966184,learnblock2,562.1999999880791,img/planet6_right.png,6,Community 1,NA,TRUE,j,j,NA,NA,NA,3,6,"12,7,10,6,9,15,13,11,3,8,14,2,1,5,4"
15560,commdev-image-keyboard-response,502,1967437,learnblock2,592,img/planet15_left.png,15,Community 2,NA,TRUE,f,f,NA,NA,NA,3,6,"12,7,10,6,9,15,13,11,3,8,14,2,1,5,4"
15560,commdev-image-keyboard-response,503,1968689,learnblock2,536.5999999940395,img/planet13_left.png,13,Community 2,NA,TRUE,f,f,NA,NA,NA,3,6,"12,7,10,6,9,15,13,11,3,8,14,2,1,5,4"
15560,commdev-image-keyboard-response,504,1969940,learnblock2,706.0999999940395,img/planet15_left.png,15,Community 2,NA,TRUE,f,f,NA,NA,NA,3,6,"12,7,10,6,9,15,13,11,3,8,14,2,1,5,4"
15560,commdev-image-keyboard-response,505,1971192,learnblock2,662.1000000238419,img/planet6_left.png,6,Community 1,NA,TRUE,f,f,NA,NA,NA,3,6,"12,7,10,6,9,15,13,11,3,8,14,2,1,5,4"
15560,commdev-image-keyboard-response,506,1972444,learnblock2,479.19999998807907,img/planet15_right.png,15,Community 2,NA,TRUE,j,j,NA,NA,NA,3,6,"12,7,10,6,9,15,13,11,3,8,14,2,1,5,4"
15560,commdev-image-keyboard-response,507,1973697,learnblock2,661,img/planet6_left.png,6,Community 1,NA,TRUE,f,f,NA,NA,NA,3,6,"12,7,10,6,9,15,13,11,3,8,14,2,1,5,4"
15560,commdev-image-keyboard-response,508,1974949,learnblock2,493.7999999821186,img/planet10_left.png,10,Community 1,NA,TRUE,f,f,NA,NA,NA,3,6,"12,7,10,6,9,15,13,11,3,8,14,2,1,5,4"
15560,commdev-image-keyboard-response,509,1976201,learnblock2,723.6999999880791,img/planet12_right.png,12,Community 1,NA,TRUE,j,j,NA,NA,NA,3,6,"12,7,10,6,9,15,13,11,3,8,14,2,1,5,4"
15560,commdev-image-keyboard-response,510,1977453,learnblock2,592.5,img/planet9_left.png,9,Community 1,NA,TRUE,f,f,NA,NA,NA,3,6,"12,7,10,6,9,15,13,11,3,8,14,2,1,5,4"
15560,commdev-image-keyboard-response,511,1978705,learnblock2,498.19999998807907,img/planet14_left.png,14,Community 3,NA,TRUE,f,f,NA,NA,NA,3,6,"12,7,10,6,9,15,13,11,3,8,14,2,1,5,4"
15560,commdev-image-keyboard-response,512,1979957,learnblock2,658.3999999761581,img/planet4_right.png,4,Community 3,NA,TRUE,j,j,NA,NA,NA,3,6,"12,7,10,6,9,15,13,11,3,8,14,2,1,5,4"
15560,commdev-image-keyboard-response,513,1981208,learnblock2,592.8000000119209,img/planet2_right.png,2,Community 3,NA,TRUE,j,j,NA,NA,NA,3,6,"12,7,10,6,9,15,13,11,3,8,14,2,1,5,4"
15560,commdev-image-keyboard-response,514,1982460,learnblock2,492.7999999821186,img/planet1_left.png,1,Community 3,NA,TRUE,f,f,NA,NA,NA,3,6,"12,7,10,6,9,15,13,11,3,8,14,2,1,5,4"
15560,commdev-image-keyboard-response,515,1983712,learnblock2,568.6999999880791,img/planet4_right.png,4,Community 3,NA,TRUE,j,j,NA,NA,NA,3,6,"12,7,10,6,9,15,13,11,3,8,14,2,1,5,4"
15560,commdev-image-keyboard-response,516,1984963,learnblock2,661.3999999761581,img/planet1_right.png,1,Community 3,NA,TRUE,j,j,NA,NA,NA,3,6,"12,7,10,6,9,15,13,11,3,8,14,2,1,5,4"
15560,commdev-image-keyboard-response,517,1986215,learnblock2,742.8999999761581,img/planet5_left.png,5,Community 3,NA,TRUE,f,f,NA,NA,NA,3,6,"12,7,10,6,9,15,13,11,3,8,14,2,1,5,4"
15560,commdev-image-keyboard-response,518,1987467,learnblock2,512.8000000119209,img/planet1_right.png,1,Community 3,NA,TRUE,j,j,NA,NA,NA,3,6,"12,7,10,6,9,15,13,11,3,8,14,2,1,5,4"
15560,commdev-image-keyboard-response,519,1988718,learnblock2,692.1999999880791,img/planet4_left.png,4,Community 3,NA,TRUE,f,f,NA,NA,NA,3,6,"12,7,10,6,9,15,13,11,3,8,14,2,1,5,4"
15560,commdev-image-keyboard-response,520,1989970,learnblock2,510.5,img/planet14_left.png,14,Community 3,NA,TRUE,f,f,NA,NA,NA,3,6,"12,7,10,6,9,15,13,11,3,8,14,2,1,5,4"
15560,commdev-image-keyboard-response,521,1991222,learnblock2,505.59999999403954,img/planet5_right.png,5,Community 3,NA,TRUE,j,j,NA,NA,NA,3,6,"12,7,10,6,9,15,13,11,3,8,14,2,1,5,4"
15560,commdev-image-keyboard-response,522,1992474,learnblock2,567.6999999880791,img/planet2_left.png,2,Community 3,NA,TRUE,f,f,NA,NA,NA,3,6,"12,7,10,6,9,15,13,11,3,8,14,2,1,5,4"
15560,commdev-image-keyboard-response,523,1993726,learnblock2,506.2000000178814,img/planet11_left.png,11,Community 2,NA,TRUE,f,f,NA,NA,NA,3,6,"12,7,10,6,9,15,13,11,3,8,14,2,1,5,4"
15560,commdev-image-keyboard-response,524,1994978,learnblock2,561.9000000059605,img/planet8_right.png,8,Community 2,NA,TRUE,j,j,NA,NA,NA,3,6,"12,7,10,6,9,15,13,11,3,8,14,2,1,5,4"
15560,commdev-image-keyboard-response,525,1996230,learnblock2,1010.8000000119209,img/planet13_right.png,13,Community 2,NA,TRUE,j,j,NA,NA,NA,3,6,"12,7,10,6,9,15,13,11,3,8,14,2,1,5,4"
15560,commdev-image-keyboard-response,526,1997483,learnblock2,705.5,img/planet11_right.png,11,Community 2,NA,TRUE,j,j,NA,NA,NA,3,6,"12,7,10,6,9,15,13,11,3,8,14,2,1,5,4"
15560,commdev-image-keyboard-response,527,1998735,learnblock2,538.5,img/planet8_right.png,8,Community 2,NA,TRUE,j,j,NA,NA,NA,3,6,"12,7,10,6,9,15,13,11,3,8,14,2,1,5,4"
15560,commdev-image-keyboard-response,528,1999986,learnblock2,558.3000000119209,img/planet15_right.png,15,Community 2,NA,FALSE,f,j,NA,NA,NA,3,6,"12,7,10,6,9,15,13,11,3,8,14,2,1,5,4"
15560,commdev-image-keyboard-response,529,2001247,learnblock2,593.7000000178814,img/planet8_right.png,8,Community 2,NA,TRUE,j,j,NA,NA,NA,3,6,"12,7,10,6,9,15,13,11,3,8,14,2,1,5,4"
15560,commdev-image-keyboard-response,530,2002499,learnblock2,519,img/planet3_right.png,3,Community 2,NA,TRUE,j,j,NA,NA,NA,3,6,"12,7,10,6,9,15,13,11,3,8,14,2,1,5,4"
15560,commdev-image-keyboard-response,531,2003750,learnblock2,524.2999999821186,img/planet15_right.png,15,Community 2,NA,TRUE,j,j,NA,NA,NA,3,6,"12,7,10,6,9,15,13,11,3,8,14,2,1,5,4"
15560,commdev-image-keyboard-response,532,2005001,learnblock2,559.4000000059605,img/planet3_left.png,3,Community 2,NA,TRUE,f,f,NA,NA,NA,3,6,"12,7,10,6,9,15,13,11,3,8,14,2,1,5,4"
15560,commdev-image-keyboard-response,533,2006260,learnblock2,509.69999998807907,img/planet15_left.png,15,Community 2,NA,TRUE,f,f,NA,NA,NA,3,6,"12,7,10,6,9,15,13,11,3,8,14,2,1,5,4"
15560,commdev-image-keyboard-response,534,2007512,learnblock2,672.6999999880791,img/planet13_right.png,13,Community 2,NA,TRUE,j,j,NA,NA,NA,3,6,"12,7,10,6,9,15,13,11,3,8,14,2,1,5,4"
15560,commdev-image-keyboard-response,535,2008763,learnblock2,492.2000000178814,img/planet8_right.png,8,Community 2,NA,TRUE,j,j,NA,NA,NA,3,6,"12,7,10,6,9,15,13,11,3,8,14,2,1,5,4"
15560,commdev-image-keyboard-response,536,2010015,learnblock2,546.3000000119209,img/planet15_left.png,15,Community 2,NA,TRUE,f,f,NA,NA,NA,3,6,"12,7,10,6,9,15,13,11,3,8,14,2,1,5,4"
15560,commdev-image-keyboard-response,537,2011268,learnblock2,558.3000000119209,img/planet3_right.png,3,Community 2,NA,FALSE,f,j,NA,NA,NA,3,6,"12,7,10,6,9,15,13,11,3,8,14,2,1,5,4"
15560,commdev-image-keyboard-response,538,2012520,learnblock2,541.5,img/planet15_left.png,15,Community 2,NA,TRUE,f,f,NA,NA,NA,3,6,"12,7,10,6,9,15,13,11,3,8,14,2,1,5,4"
15560,commdev-image-keyboard-response,539,2013772,learnblock2,645.7999999821186,img/planet8_right.png,8,Community 2,NA,TRUE,j,j,NA,NA,NA,3,6,"12,7,10,6,9,15,13,11,3,8,14,2,1,5,4"
15560,commdev-image-keyboard-response,540,2015024,learnblock2,450.40000000596046,img/planet13_left.png,13,Community 2,NA,FALSE,j,f,NA,NA,NA,3,6,"12,7,10,6,9,15,13,11,3,8,14,2,1,5,4"
15560,commdev-image-keyboard-response,541,2016275,learnblock2,530.2000000178814,img/planet3_right.png,3,Community 2,NA,TRUE,j,j,NA,NA,NA,3,6,"12,7,10,6,9,15,13,11,3,8,14,2,1,5,4"
15560,commdev-image-keyboard-response,542,2017529,learnblock2,506,img/planet13_right.png,13,Community 2,NA,TRUE,j,j,NA,NA,NA,3,6,"12,7,10,6,9,15,13,11,3,8,14,2,1,5,4"
15560,commdev-image-keyboard-response,543,2018781,learnblock2,533.1999999880791,img/planet15_right.png,15,Community 2,NA,TRUE,j,j,NA,NA,NA,3,6,"12,7,10,6,9,15,13,11,3,8,14,2,1,5,4"
15560,commdev-image-keyboard-response,544,2020033,learnblock2,477.19999998807907,img/planet13_left.png,13,Community 2,NA,TRUE,f,f,NA,NA,NA,3,6,"12,7,10,6,9,15,13,11,3,8,14,2,1,5,4"
15560,commdev-image-keyboard-response,545,2021285,learnblock2,597,img/planet11_left.png,11,Community 2,NA,TRUE,f,f,NA,NA,NA,3,6,"12,7,10,6,9,15,13,11,3,8,14,2,1,5,4"
15560,commdev-image-keyboard-response,546,2022537,learnblock2,696.8000000119209,img/planet3_left.png,3,Community 2,NA,TRUE,f,f,NA,NA,NA,3,6,"12,7,10,6,9,15,13,11,3,8,14,2,1,5,4"
15560,commdev-image-keyboard-response,547,2023789,learnblock2,563.8999999761581,img/planet8_right.png,8,Community 2,NA,TRUE,j,j,NA,NA,NA,3,6,"12,7,10,6,9,15,13,11,3,8,14,2,1,5,4"
15560,commdev-image-keyboard-response,548,2025052,learnblock2,486.30000001192093,img/planet3_right.png,3,Community 2,NA,TRUE,j,j,NA,NA,NA,3,6,"12,7,10,6,9,15,13,11,3,8,14,2,1,5,4"
15560,commdev-image-keyboard-response,549,2026303,learnblock2,624.3000000119209,img/planet11_left.png,11,Community 2,NA,FALSE,j,f,NA,NA,NA,3,6,"12,7,10,6,9,15,13,11,3,8,14,2,1,5,4"
15560,commdev-image-keyboard-response,550,2027555,learnblock2,539.7999999821186,img/planet8_right.png,8,Community 2,NA,TRUE,j,j,NA,NA,NA,3,6,"12,7,10,6,9,15,13,11,3,8,14,2,1,5,4"
15560,commdev-image-keyboard-response,551,2028807,learnblock2,905.1999999880791,img/planet11_left.png,11,Community 2,NA,TRUE,f,f,NA,NA,NA,3,6,"12,7,10,6,9,15,13,11,3,8,14,2,1,5,4"
15560,commdev-image-keyboard-response,552,2030059,learnblock2,689.5999999940395,img/planet13_left.png,13,Community 2,NA,TRUE,f,f,NA,NA,NA,3,6,"12,7,10,6,9,15,13,11,3,8,14,2,1,5,4"
15560,commdev-image-keyboard-response,553,2031311,learnblock2,1089.5999999940395,img/planet15_right.png,15,Community 2,NA,TRUE,j,j,NA,NA,NA,3,6,"12,7,10,6,9,15,13,11,3,8,14,2,1,5,4"
15560,commdev-image-keyboard-response,554,2032563,learnblock2,738,img/planet6_left.png,6,Community 1,NA,TRUE,f,f,NA,NA,NA,3,6,"12,7,10,6,9,15,13,11,3,8,14,2,1,5,4"
15560,commdev-image-keyboard-response,555,2033815,learnblock2,603.4000000059605,img/planet7_right.png,7,Community 1,NA,TRUE,j,j,NA,NA,NA,3,6,"12,7,10,6,9,15,13,11,3,8,14,2,1,5,4"
15560,commdev-image-keyboard-response,556,2035066,learnblock2,567.7000000178814,img/planet12_right.png,12,Community 1,NA,TRUE,j,j,NA,NA,NA,3,6,"12,7,10,6,9,15,13,11,3,8,14,2,1,5,4"
15560,commdev-image-keyboard-response,557,2036318,learnblock2,477.2000000178814,img/planet10_right.png,10,Community 1,NA,TRUE,j,j,NA,NA,NA,3,6,"12,7,10,6,9,15,13,11,3,8,14,2,1,5,4"
15560,commdev-image-keyboard-response,558,2037570,learnblock2,532.8000000119209,img/planet6_left.png,6,Community 1,NA,TRUE,f,f,NA,NA,NA,3,6,"12,7,10,6,9,15,13,11,3,8,14,2,1,5,4"
15560,commdev-image-keyboard-response,559,2038822,learnblock2,526.7999999821186,img/planet10_right.png,10,Community 1,NA,FALSE,f,j,NA,NA,NA,3,6,"12,7,10,6,9,15,13,11,3,8,14,2,1,5,4"
15560,commdev-image-keyboard-response,560,2040074,learnblock2,512,img/planet6_left.png,6,Community 1,NA,TRUE,f,f,NA,NA,NA,3,6,"12,7,10,6,9,15,13,11,3,8,14,2,1,5,4"
15560,commdev-image-keyboard-response,561,2041326,learnblock2,531.1999999880791,img/planet12_left.png,12,Community 1,NA,TRUE,f,f,NA,NA,NA,3,6,"12,7,10,6,9,15,13,11,3,8,14,2,1,5,4"
15560,commdev-image-keyboard-response,562,2042578,learnblock2,596.9000000059605,img/planet9_left.png,9,Community 1,NA,TRUE,f,f,NA,NA,NA,3,6,"12,7,10,6,9,15,13,11,3,8,14,2,1,5,4"
15560,commdev-image-keyboard-response,563,2043829,learnblock2,510.80000001192093,img/planet14_right.png,14,Community 3,NA,TRUE,j,j,NA,NA,NA,3,6,"12,7,10,6,9,15,13,11,3,8,14,2,1,5,4"
15560,commdev-image-keyboard-response,564,2045082,learnblock2,460.89999997615814,img/planet4_right.png,4,Community 3,NA,TRUE,j,j,NA,NA,NA,3,6,"12,7,10,6,9,15,13,11,3,8,14,2,1,5,4"
15560,commdev-image-keyboard-response,565,2046334,learnblock2,549.3000000119209,img/planet1_right.png,1,Community 3,NA,TRUE,j,j,NA,NA,NA,3,6,"12,7,10,6,9,15,13,11,3,8,14,2,1,5,4"
15560,commdev-image-keyboard-response,566,2047586,learnblock2,579.2000000178814,img/planet2_right.png,2,Community 3,NA,TRUE,j,j,NA,NA,NA,3,6,"12,7,10,6,9,15,13,11,3,8,14,2,1,5,4"
15560,commdev-image-keyboard-response,567,2048838,learnblock2,569.1999999880791,img/planet5_right.png,5,Community 3,NA,TRUE,j,j,NA,NA,NA,3,6,"12,7,10,6,9,15,13,11,3,8,14,2,1,5,4"
15560,commdev-image-keyboard-response,568,2050090,learnblock2,638.0999999940395,img/planet4_left.png,4,Community 3,NA,TRUE,f,f,NA,NA,NA,3,6,"12,7,10,6,9,15,13,11,3,8,14,2,1,5,4"
15560,commdev-image-keyboard-response,569,2051341,learnblock2,588.9000000059605,img/planet14_right.png,14,Community 3,NA,TRUE,j,j,NA,NA,NA,3,6,"12,7,10,6,9,15,13,11,3,8,14,2,1,5,4"
15560,commdev-image-keyboard-response,570,2052592,learnblock2,699.0999999940395,img/planet5_right.png,5,Community 3,NA,FALSE,f,j,NA,NA,NA,3,6,"12,7,10,6,9,15,13,11,3,8,14,2,1,5,4"
15560,commdev-image-keyboard-response,571,2053845,learnblock2,549.9000000059605,img/planet4_left.png,4,Community 3,NA,TRUE,f,f,NA,NA,NA,3,6,"12,7,10,6,9,15,13,11,3,8,14,2,1,5,4"
15560,commdev-image-keyboard-response,572,2055096,learnblock2,796.1999999880791,img/planet14_left.png,14,Community 3,NA,TRUE,f,f,NA,NA,NA,3,6,"12,7,10,6,9,15,13,11,3,8,14,2,1,5,4"
15560,commdev-image-keyboard-response,573,2056348,learnblock2,608.4000000059605,img/planet4_right.png,4,Community 3,NA,TRUE,j,j,NA,NA,NA,3,6,"12,7,10,6,9,15,13,11,3,8,14,2,1,5,4"
15560,commdev-image-keyboard-response,574,2057600,learnblock2,498.59999999403954,img/planet2_right.png,2,Community 3,NA,TRUE,j,j,NA,NA,NA,3,6,"12,7,10,6,9,15,13,11,3,8,14,2,1,5,4"
15560,commdev-image-keyboard-response,575,2058852,learnblock2,419.2000000178814,img/planet4_right.png,4,Community 3,NA,TRUE,j,j,NA,NA,NA,3,6,"12,7,10,6,9,15,13,11,3,8,14,2,1,5,4"
15560,commdev-image-keyboard-response,576,2060103,learnblock2,649.0999999940395,img/planet14_right.png,14,Community 3,NA,TRUE,j,j,NA,NA,NA,3,6,"12,7,10,6,9,15,13,11,3,8,14,2,1,5,4"
15560,commdev-image-keyboard-response,577,2061355,learnblock2,497.59999999403954,img/planet5_right.png,5,Community 3,NA,TRUE,j,j,NA,NA,NA,3,6,"12,7,10,6,9,15,13,11,3,8,14,2,1,5,4"
15560,commdev-image-keyboard-response,578,2062607,learnblock2,678.2000000178814,img/planet1_left.png,1,Community 3,NA,TRUE,f,f,NA,NA,NA,3,6,"12,7,10,6,9,15,13,11,3,8,14,2,1,5,4"
15560,commdev-image-keyboard-response,579,2063859,learnblock2,703.5,img/planet5_left.png,5,Community 3,NA,TRUE,f,f,NA,NA,NA,3,6,"12,7,10,6,9,15,13,11,3,8,14,2,1,5,4"
15560,commdev-image-keyboard-response,580,2065110,learnblock2,818.1999999880791,img/planet2_right.png,2,Community 3,NA,TRUE,j,j,NA,NA,NA,3,6,"12,7,10,6,9,15,13,11,3,8,14,2,1,5,4"
15560,commdev-image-keyboard-response,581,2066361,learnblock2,522.7999999821186,img/planet1_right.png,1,Community 3,NA,TRUE,j,j,NA,NA,NA,3,6,"12,7,10,6,9,15,13,11,3,8,14,2,1,5,4"
15560,commdev-image-keyboard-response,582,2067613,learnblock2,605.5999999940395,img/planet5_right.png,5,Community 3,NA,TRUE,j,j,NA,NA,NA,3,6,"12,7,10,6,9,15,13,11,3,8,14,2,1,5,4"
15560,commdev-image-keyboard-response,583,2068864,learnblock2,537.7999999821186,img/planet4_right.png,4,Community 3,NA,TRUE,j,j,NA,NA,NA,3,6,"12,7,10,6,9,15,13,11,3,8,14,2,1,5,4"
15560,commdev-image-keyboard-response,584,2070117,learnblock2,558.4000000059605,img/planet1_right.png,1,Community 3,NA,TRUE,j,j,NA,NA,NA,3,6,"12,7,10,6,9,15,13,11,3,8,14,2,1,5,4"
15560,commdev-image-keyboard-response,585,2071369,learnblock2,603.0999999940395,img/planet5_left.png,5,Community 3,NA,TRUE,f,f,NA,NA,NA,3,6,"12,7,10,6,9,15,13,11,3,8,14,2,1,5,4"
15560,commdev-image-keyboard-response,586,2072621,learnblock2,596.9000000059605,img/planet14_left.png,14,Community 3,NA,TRUE,f,f,NA,NA,NA,3,6,"12,7,10,6,9,15,13,11,3,8,14,2,1,5,4"
15560,commdev-image-keyboard-response,587,2073873,learnblock2,509.2000000178814,img/planet4_right.png,4,Community 3,NA,TRUE,j,j,NA,NA,NA,3,6,"12,7,10,6,9,15,13,11,3,8,14,2,1,5,4"
15560,commdev-image-keyboard-response,588,2075125,learnblock2,486.19999998807907,img/planet2_right.png,2,Community 3,NA,TRUE,j,j,NA,NA,NA,3,6,"12,7,10,6,9,15,13,11,3,8,14,2,1,5,4"
15560,commdev-image-keyboard-response,589,2076391,learnblock2,450.5,img/planet4_right.png,4,Community 3,NA,TRUE,j,j,NA,NA,NA,3,6,"12,7,10,6,9,15,13,11,3,8,14,2,1,5,4"
15560,commdev-image-keyboard-response,590,2077643,learnblock2,395.89999997615814,img/planet2_left.png,2,Community 3,NA,TRUE,f,f,NA,NA,NA,3,6,"12,7,10,6,9,15,13,11,3,8,14,2,1,5,4"
15560,commdev-image-keyboard-response,591,2078894,learnblock2,572.5,img/planet5_right.png,5,Community 3,NA,TRUE,j,j,NA,NA,NA,3,6,"12,7,10,6,9,15,13,11,3,8,14,2,1,5,4"
15560,commdev-image-keyboard-response,592,2080146,learnblock2,551.5999999940395,img/planet2_right.png,2,Community 3,NA,TRUE,j,j,NA,NA,NA,3,6,"12,7,10,6,9,15,13,11,3,8,14,2,1,5,4"
15560,commdev-image-keyboard-response,593,2081399,learnblock2,470.80000001192093,img/planet11_left.png,11,Community 2,NA,TRUE,f,f,NA,NA,NA,3,6,"12,7,10,6,9,15,13,11,3,8,14,2,1,5,4"
15560,commdev-image-keyboard-response,594,2082651,learnblock2,461,img/planet2_right.png,2,Community 3,NA,TRUE,j,j,NA,NA,NA,3,6,"12,7,10,6,9,15,13,11,3,8,14,2,1,5,4"
15560,commdev-image-keyboard-response,595,2083901,learnblock2,459.80000001192093,img/planet4_right.png,4,Community 3,NA,TRUE,j,j,NA,NA,NA,3,6,"12,7,10,6,9,15,13,11,3,8,14,2,1,5,4"
15560,commdev-image-keyboard-response,596,2085153,learnblock2,551.4000000059605,img/planet14_left.png,14,Community 3,NA,TRUE,f,f,NA,NA,NA,3,6,"12,7,10,6,9,15,13,11,3,8,14,2,1,5,4"
15560,commdev-image-keyboard-response,597,2086405,learnblock2,514.7999999821186,img/planet9_right.png,9,Community 1,NA,TRUE,j,j,NA,NA,NA,3,6,"12,7,10,6,9,15,13,11,3,8,14,2,1,5,4"
15560,commdev-image-keyboard-response,598,2087656,learnblock2,465.30000001192093,img/planet10_left.png,10,Community 1,NA,FALSE,j,f,NA,NA,NA,3,6,"12,7,10,6,9,15,13,11,3,8,14,2,1,5,4"
15560,commdev-image-keyboard-response,599,2088909,learnblock2,540.1000000238419,img/planet9_left.png,9,Community 1,NA,TRUE,f,f,NA,NA,NA,3,6,"12,7,10,6,9,15,13,11,3,8,14,2,1,5,4"
15560,commdev-image-keyboard-response,600,2090160,learnblock2,539.3000000119209,img/planet10_right.png,10,Community 1,NA,FALSE,f,j,NA,NA,NA,3,6,"12,7,10,6,9,15,13,11,3,8,14,2,1,5,4"
15560,commdev-image-keyboard-response,601,2091413,learnblock2,704.8000000119209,img/planet6_right.png,6,Community 1,NA,TRUE,j,j,NA,NA,NA,3,6,"12,7,10,6,9,15,13,11,3,8,14,2,1,5,4"
15560,commdev-image-keyboard-response,602,2092666,learnblock2,758,img/planet7_right.png,7,Community 1,NA,TRUE,j,j,NA,NA,NA,3,6,"12,7,10,6,9,15,13,11,3,8,14,2,1,5,4"
15560,commdev-image-keyboard-response,603,2093917,learnblock2,507,img/planet10_right.png,10,Community 1,NA,TRUE,j,j,NA,NA,NA,3,6,"12,7,10,6,9,15,13,11,3,8,14,2,1,5,4"
15560,commdev-image-keyboard-response,604,2095169,learnblock2,437.5,img/planet12_right.png,12,Community 1,NA,TRUE,j,j,NA,NA,NA,3,6,"12,7,10,6,9,15,13,11,3,8,14,2,1,5,4"
15560,commdev-image-keyboard-response,605,2096421,learnblock2,537.8000000119209,img/planet10_left.png,10,Community 1,NA,TRUE,f,f,NA,NA,NA,3,6,"12,7,10,6,9,15,13,11,3,8,14,2,1,5,4"
15560,commdev-image-keyboard-response,606,2097673,learnblock2,822.4000000059605,img/planet6_left.png,6,Community 1,NA,TRUE,f,f,NA,NA,NA,3,6,"12,7,10,6,9,15,13,11,3,8,14,2,1,5,4"
15560,commdev-image-keyboard-response,607,2098937,learnblock2,677.2999999821186,img/planet7_right.png,7,Community 1,NA,TRUE,j,j,NA,NA,NA,3,6,"12,7,10,6,9,15,13,11,3,8,14,2,1,5,4"
15560,commdev-image-keyboard-response,608,2100188,learnblock2,580,img/planet6_right.png,6,Community 1,NA,TRUE,j,j,NA,NA,NA,3,6,"12,7,10,6,9,15,13,11,3,8,14,2,1,5,4"
15560,commdev-image-keyboard-response,609,2101453,learnblock2,512.1999999880791,img/planet7_left.png,7,Community 1,NA,TRUE,f,f,NA,NA,NA,3,6,"12,7,10,6,9,15,13,11,3,8,14,2,1,5,4"
15560,commdev-image-keyboard-response,610,2102710,learnblock2,681.9000000059605,img/planet9_left.png,9,Community 1,NA,TRUE,f,f,NA,NA,NA,3,6,"12,7,10,6,9,15,13,11,3,8,14,2,1,5,4"
15560,commdev-image-keyboard-response,611,2103961,learnblock2,556.1000000238419,img/planet12_right.png,12,Community 1,NA,TRUE,j,j,NA,NA,NA,3,6,"12,7,10,6,9,15,13,11,3,8,14,2,1,5,4"
15560,commdev-image-keyboard-response,612,2105213,learnblock2,642.2000000178814,img/planet6_right.png,6,Community 1,NA,TRUE,j,j,NA,NA,NA,3,6,"12,7,10,6,9,15,13,11,3,8,14,2,1,5,4"
15560,commdev-image-keyboard-response,613,2106465,learnblock2,537.8000000119209,img/planet10_right.png,10,Community 1,NA,TRUE,j,j,NA,NA,NA,3,6,"12,7,10,6,9,15,13,11,3,8,14,2,1,5,4"
15560,commdev-image-keyboard-response,614,2107717,learnblock2,496.59999999403954,img/planet9_right.png,9,Community 1,NA,TRUE,j,j,NA,NA,NA,3,6,"12,7,10,6,9,15,13,11,3,8,14,2,1,5,4"
15560,commdev-image-keyboard-response,615,2108969,learnblock2,721.1999999880791,img/planet14_right.png,14,Community 3,NA,TRUE,j,j,NA,NA,NA,3,6,"12,7,10,6,9,15,13,11,3,8,14,2,1,5,4"
15560,commdev-image-keyboard-response,616,2110220,learnblock2,606,img/planet1_right.png,1,Community 3,NA,TRUE,j,j,NA,NA,NA,3,6,"12,7,10,6,9,15,13,11,3,8,14,2,1,5,4"
15560,commdev-image-keyboard-response,617,2111473,learnblock2,636,img/planet5_left.png,5,Community 3,NA,TRUE,f,f,NA,NA,NA,3,6,"12,7,10,6,9,15,13,11,3,8,14,2,1,5,4"
15560,commdev-image-keyboard-response,618,2112725,learnblock2,515.5999999940395,img/planet2_left.png,2,Community 3,NA,TRUE,f,f,NA,NA,NA,3,6,"12,7,10,6,9,15,13,11,3,8,14,2,1,5,4"
15560,commdev-image-keyboard-response,619,2113977,learnblock2,789.0999999940395,img/planet5_right.png,5,Community 3,NA,TRUE,j,j,NA,NA,NA,3,6,"12,7,10,6,9,15,13,11,3,8,14,2,1,5,4"
15560,commdev-image-keyboard-response,620,2115229,learnblock2,1120.5999999940395,img/planet1_right.png,1,Community 3,NA,TRUE,j,j,NA,NA,NA,3,6,"12,7,10,6,9,15,13,11,3,8,14,2,1,5,4"
15560,commdev-image-keyboard-response,621,2116481,learnblock2,634.8000000119209,img/planet14_right.png,14,Community 3,NA,TRUE,j,j,NA,NA,NA,3,6,"12,7,10,6,9,15,13,11,3,8,14,2,1,5,4"
15560,commdev-image-keyboard-response,622,2117733,learnblock2,563.1999999880791,img/planet5_left.png,5,Community 3,NA,TRUE,f,f,NA,NA,NA,3,6,"12,7,10,6,9,15,13,11,3,8,14,2,1,5,4"
15560,commdev-image-keyboard-response,623,2118984,learnblock2,548.7999999821186,img/planet4_right.png,4,Community 3,NA,TRUE,j,j,NA,NA,NA,3,6,"12,7,10,6,9,15,13,11,3,8,14,2,1,5,4"
15560,commdev-image-keyboard-response,624,2120236,learnblock2,403.40000000596046,img/planet2_right.png,2,Community 3,NA,TRUE,j,j,NA,NA,NA,3,6,"12,7,10,6,9,15,13,11,3,8,14,2,1,5,4"
15560,commdev-image-keyboard-response,625,2121488,learnblock2,498.69999998807907,img/planet5_right.png,5,Community 3,NA,TRUE,j,j,NA,NA,NA,3,6,"12,7,10,6,9,15,13,11,3,8,14,2,1,5,4"
15560,commdev-image-keyboard-response,626,2122740,learnblock2,523.5,img/planet1_right.png,1,Community 3,NA,TRUE,j,j,NA,NA,NA,3,6,"12,7,10,6,9,15,13,11,3,8,14,2,1,5,4"
15560,commdev-image-keyboard-response,627,2123993,learnblock2,426.40000000596046,img/planet2_right.png,2,Community 3,NA,TRUE,j,j,NA,NA,NA,3,6,"12,7,10,6,9,15,13,11,3,8,14,2,1,5,4"
15560,commdev-image-keyboard-response,628,2125245,learnblock2,505.80000001192093,img/planet11_right.png,11,Community 2,NA,TRUE,j,j,NA,NA,NA,3,6,"12,7,10,6,9,15,13,11,3,8,14,2,1,5,4"
15560,commdev-image-keyboard-response,629,2126496,learnblock2,441.69999998807907,img/planet13_right.png,13,Community 2,NA,TRUE,j,j,NA,NA,NA,3,6,"12,7,10,6,9,15,13,11,3,8,14,2,1,5,4"
15560,commdev-image-keyboard-response,630,2127748,learnblock2,442.40000000596046,img/planet11_right.png,11,Community 2,NA,TRUE,j,j,NA,NA,NA,3,6,"12,7,10,6,9,15,13,11,3,8,14,2,1,5,4"
15560,commdev-image-keyboard-response,631,2129000,learnblock2,426.90000000596046,img/planet3_right.png,3,Community 2,NA,TRUE,j,j,NA,NA,NA,3,6,"12,7,10,6,9,15,13,11,3,8,14,2,1,5,4"
15560,commdev-image-keyboard-response,632,2130253,learnblock2,631.7000000178814,img/planet8_left.png,8,Community 2,NA,TRUE,f,f,NA,NA,NA,3,6,"12,7,10,6,9,15,13,11,3,8,14,2,1,5,4"
15560,commdev-image-keyboard-response,633,2131504,learnblock2,549.5,img/planet3_left.png,3,Community 2,NA,TRUE,f,f,NA,NA,NA,3,6,"12,7,10,6,9,15,13,11,3,8,14,2,1,5,4"
15560,commdev-image-keyboard-response,634,2132756,learnblock2,530.2000000178814,img/planet13_right.png,13,Community 2,NA,TRUE,j,j,NA,NA,NA,3,6,"12,7,10,6,9,15,13,11,3,8,14,2,1,5,4"
15560,commdev-image-keyboard-response,635,2134008,learnblock2,629.2000000178814,img/planet11_left.png,11,Community 2,NA,TRUE,f,f,NA,NA,NA,3,6,"12,7,10,6,9,15,13,11,3,8,14,2,1,5,4"
15560,commdev-image-keyboard-response,636,2135260,learnblock2,595.9000000059605,img/planet8_left.png,8,Community 2,NA,TRUE,f,f,NA,NA,NA,3,6,"12,7,10,6,9,15,13,11,3,8,14,2,1,5,4"
15560,commdev-image-keyboard-response,637,2136511,learnblock2,399.09999999403954,img/planet15_left.png,15,Community 2,NA,TRUE,f,f,NA,NA,NA,3,6,"12,7,10,6,9,15,13,11,3,8,14,2,1,5,4"
15560,commdev-image-keyboard-response,638,2137763,learnblock2,624.5,img/planet13_right.png,13,Community 2,NA,TRUE,j,j,NA,NA,NA,3,6,"12,7,10,6,9,15,13,11,3,8,14,2,1,5,4"
15560,commdev-image-keyboard-response,639,2139015,learnblock2,425.69999998807907,img/planet3_right.png,3,Community 2,NA,TRUE,j,j,NA,NA,NA,3,6,"12,7,10,6,9,15,13,11,3,8,14,2,1,5,4"
15560,commdev-image-keyboard-response,640,2140267,learnblock2,433.80000001192093,img/planet8_left.png,8,Community 2,NA,TRUE,f,f,NA,NA,NA,3,6,"12,7,10,6,9,15,13,11,3,8,14,2,1,5,4"
15560,commdev-image-keyboard-response,641,2141518,learnblock2,448,img/planet13_left.png,13,Community 2,NA,TRUE,f,f,NA,NA,NA,3,6,"12,7,10,6,9,15,13,11,3,8,14,2,1,5,4"
15560,commdev-image-keyboard-response,642,2142780,learnblock2,553.5999999940395,img/planet3_left.png,3,Community 2,NA,TRUE,f,f,NA,NA,NA,3,6,"12,7,10,6,9,15,13,11,3,8,14,2,1,5,4"
15560,commdev-image-keyboard-response,643,2144037,learnblock2,469.40000000596046,img/planet15_left.png,15,Community 2,NA,TRUE,f,f,NA,NA,NA,3,6,"12,7,10,6,9,15,13,11,3,8,14,2,1,5,4"
15560,commdev-image-keyboard-response,644,2145288,learnblock2,519.2999999821186,img/planet8_left.png,8,Community 2,NA,TRUE,f,f,NA,NA,NA,3,6,"12,7,10,6,9,15,13,11,3,8,14,2,1,5,4"
15560,commdev-image-keyboard-response,645,2146539,learnblock2,550.9000000059605,img/planet3_left.png,3,Community 2,NA,TRUE,f,f,NA,NA,NA,3,6,"12,7,10,6,9,15,13,11,3,8,14,2,1,5,4"
15560,commdev-image-keyboard-response,646,2147791,learnblock2,433.40000000596046,img/planet11_left.png,11,Community 2,NA,TRUE,f,f,NA,NA,NA,3,6,"12,7,10,6,9,15,13,11,3,8,14,2,1,5,4"
15560,commdev-image-keyboard-response,647,2149047,learnblock2,499.30000001192093,img/planet3_right.png,3,Community 2,NA,TRUE,j,j,NA,NA,NA,3,6,"12,7,10,6,9,15,13,11,3,8,14,2,1,5,4"
15560,commdev-image-keyboard-response,648,2150298,learnblock2,420.59999999403954,img/planet13_right.png,13,Community 2,NA,TRUE,j,j,NA,NA,NA,3,6,"12,7,10,6,9,15,13,11,3,8,14,2,1,5,4"
15560,commdev-image-keyboard-response,649,2151550,learnblock2,604.9000000059605,img/planet8_right.png,8,Community 2,NA,TRUE,j,j,NA,NA,NA,3,6,"12,7,10,6,9,15,13,11,3,8,14,2,1,5,4"
15560,commdev-image-keyboard-response,650,2152802,learnblock2,544.6000000238419,img/planet13_left.png,13,Community 2,NA,TRUE,f,f,NA,NA,NA,3,6,"12,7,10,6,9,15,13,11,3,8,14,2,1,5,4"
15560,commdev-image-keyboard-response,651,2154054,learnblock2,459,img/planet15_left.png,15,Community 2,NA,TRUE,f,f,NA,NA,NA,3,6,"12,7,10,6,9,15,13,11,3,8,14,2,1,5,4"
15560,commdev-image-keyboard-response,652,2155306,learnblock2,538.3000000119209,img/planet6_right.png,6,Community 1,NA,TRUE,j,j,NA,NA,NA,3,6,"12,7,10,6,9,15,13,11,3,8,14,2,1,5,4"
15560,commdev-image-keyboard-response,653,2156557,learnblock2,888.9000000059605,img/planet15_left.png,15,Community 2,NA,TRUE,f,f,NA,NA,NA,3,6,"12,7,10,6,9,15,13,11,3,8,14,2,1,5,4"
15560,commdev-image-keyboard-response,654,2157809,learnblock2,559.3000000119209,img/planet3_right.png,3,Community 2,NA,TRUE,j,j,NA,NA,NA,3,6,"12,7,10,6,9,15,13,11,3,8,14,2,1,5,4"
15560,commdev-image-keyboard-response,655,2159060,learnblock2,599.5,img/planet11_left.png,11,Community 2,NA,TRUE,f,f,NA,NA,NA,3,6,"12,7,10,6,9,15,13,11,3,8,14,2,1,5,4"
15560,commdev-image-keyboard-response,656,2160312,learnblock2,619.1000000238419,img/planet3_right.png,3,Community 2,NA,TRUE,j,j,NA,NA,NA,3,6,"12,7,10,6,9,15,13,11,3,8,14,2,1,5,4"
15560,commdev-image-keyboard-response,657,2161563,learnblock2,940.4000000059605,img/planet8_right.png,8,Community 2,NA,TRUE,j,j,NA,NA,NA,3,6,"12,7,10,6,9,15,13,11,3,8,14,2,1,5,4"
15560,commdev-image-keyboard-response,658,2162815,learnblock2,668.1000000238419,img/planet15_right.png,15,Community 2,NA,TRUE,j,j,NA,NA,NA,3,6,"12,7,10,6,9,15,13,11,3,8,14,2,1,5,4"
15560,commdev-image-keyboard-response,659,2164067,learnblock2,504.40000000596046,img/planet8_right.png,8,Community 2,NA,TRUE,j,j,NA,NA,NA,3,6,"12,7,10,6,9,15,13,11,3,8,14,2,1,5,4"
15560,commdev-image-keyboard-response,660,2165327,learnblock2,443,img/planet3_right.png,3,Community 2,NA,TRUE,j,j,NA,NA,NA,3,6,"12,7,10,6,9,15,13,11,3,8,14,2,1,5,4"
15560,commdev-image-keyboard-response,661,2166580,learnblock2,504.69999998807907,img/planet8_right.png,8,Community 2,NA,TRUE,j,j,NA,NA,NA,3,6,"12,7,10,6,9,15,13,11,3,8,14,2,1,5,4"
15560,commdev-image-keyboard-response,662,2167831,learnblock2,402.59999999403954,img/planet13_right.png,13,Community 2,NA,TRUE,j,j,NA,NA,NA,3,6,"12,7,10,6,9,15,13,11,3,8,14,2,1,5,4"
15560,commdev-image-keyboard-response,663,2169083,learnblock2,505.90000000596046,img/planet8_right.png,8,Community 2,NA,TRUE,j,j,NA,NA,NA,3,6,"12,7,10,6,9,15,13,11,3,8,14,2,1,5,4"
15560,commdev-image-keyboard-response,664,2170335,learnblock2,623.3000000119209,img/planet11_left.png,11,Community 2,NA,TRUE,f,f,NA,NA,NA,3,6,"12,7,10,6,9,15,13,11,3,8,14,2,1,5,4"
15560,commdev-image-keyboard-response,665,2171588,learnblock2,518.2999999821186,img/planet13_right.png,13,Community 2,NA,TRUE,j,j,NA,NA,NA,3,6,"12,7,10,6,9,15,13,11,3,8,14,2,1,5,4"
15560,commdev-image-keyboard-response,666,2172841,learnblock2,607.4000000059605,img/planet15_right.png,15,Community 2,NA,TRUE,j,j,NA,NA,NA,3,6,"12,7,10,6,9,15,13,11,3,8,14,2,1,5,4"
15560,commdev-image-keyboard-response,667,2174092,learnblock2,586.4000000059605,img/planet13_left.png,13,Community 2,NA,TRUE,f,f,NA,NA,NA,3,6,"12,7,10,6,9,15,13,11,3,8,14,2,1,5,4"
15560,commdev-image-keyboard-response,668,2175350,learnblock2,710.5,img/planet8_right.png,8,Community 2,NA,TRUE,j,j,NA,NA,NA,3,6,"12,7,10,6,9,15,13,11,3,8,14,2,1,5,4"
15560,commdev-image-keyboard-response,669,2176602,learnblock2,523.9000000059605,img/planet3_right.png,3,Community 2,NA,TRUE,j,j,NA,NA,NA,3,6,"12,7,10,6,9,15,13,11,3,8,14,2,1,5,4"
15560,commdev-image-keyboard-response,670,2177855,learnblock2,578.5999999940395,img/planet8_left.png,8,Community 2,NA,TRUE,f,f,NA,NA,NA,3,6,"12,7,10,6,9,15,13,11,3,8,14,2,1,5,4"
15560,commdev-image-keyboard-response,671,2179107,learnblock2,562.0999999940395,img/planet11_right.png,11,Community 2,NA,TRUE,j,j,NA,NA,NA,3,6,"12,7,10,6,9,15,13,11,3,8,14,2,1,5,4"
15560,commdev-image-keyboard-response,672,2180358,learnblock2,727.6000000238419,img/planet3_right.png,3,Community 2,NA,TRUE,j,j,NA,NA,NA,3,6,"12,7,10,6,9,15,13,11,3,8,14,2,1,5,4"
15560,commdev-image-keyboard-response,673,2181611,learnblock2,507.2999999821186,img/planet13_left.png,13,Community 2,NA,TRUE,f,f,NA,NA,NA,3,6,"12,7,10,6,9,15,13,11,3,8,14,2,1,5,4"
15560,commdev-image-keyboard-response,674,2182868,learnblock2,852.5999999940395,img/planet15_left.png,15,Community 2,NA,TRUE,f,f,NA,NA,NA,3,6,"12,7,10,6,9,15,13,11,3,8,14,2,1,5,4"
15560,commdev-image-keyboard-response,675,2184120,learnblock2,776.4000000059605,img/planet6_right.png,6,Community 1,NA,TRUE,j,j,NA,NA,NA,3,6,"12,7,10,6,9,15,13,11,3,8,14,2,1,5,4"
15560,commdev-image-keyboard-response,676,2185372,learnblock2,556.0999999940395,img/planet12_left.png,12,Community 1,NA,TRUE,f,f,NA,NA,NA,3,6,"12,7,10,6,9,15,13,11,3,8,14,2,1,5,4"
15560,commdev-image-keyboard-response,677,2186623,learnblock2,564.5,img/planet10_right.png,10,Community 1,NA,TRUE,j,j,NA,NA,NA,3,6,"12,7,10,6,9,15,13,11,3,8,14,2,1,5,4"
15560,commdev-image-keyboard-response,678,2187876,learnblock2,615.9000000059605,img/planet12_left.png,12,Community 1,NA,TRUE,f,f,NA,NA,NA,3,6,"12,7,10,6,9,15,13,11,3,8,14,2,1,5,4"
15560,commdev-image-keyboard-response,679,2189128,learnblock2,936.7999999821186,img/planet6_left.png,6,Community 1,NA,FALSE,j,f,NA,NA,NA,3,6,"12,7,10,6,9,15,13,11,3,8,14,2,1,5,4"
15560,commdev-image-keyboard-response,680,2190382,learnblock2,null,img/planet12_left.png,12,Community 1,NA,FALSE,null,f,NA,NA,NA,3,6,"12,7,10,6,9,15,13,11,3,8,14,2,1,5,4"
15560,commdev-image-keyboard-response,681,2191634,learnblock2,141.10000002384186,img/planet9_right.png,9,Community 1,NA,FALSE,f,j,NA,NA,NA,3,6,"12,7,10,6,9,15,13,11,3,8,14,2,1,5,4"
15560,commdev-image-keyboard-response,682,2192886,learnblock2,788.0999999940395,img/planet14_right.png,14,Community 3,NA,TRUE,j,j,NA,NA,NA,3,6,"12,7,10,6,9,15,13,11,3,8,14,2,1,5,4"
15560,commdev-image-keyboard-response,683,2194138,learnblock2,526.1000000238419,img/planet9_left.png,9,Community 1,NA,TRUE,f,f,NA,NA,NA,3,6,"12,7,10,6,9,15,13,11,3,8,14,2,1,5,4"
15560,commdev-image-keyboard-response,684,2195390,learnblock2,763.9000000059605,img/planet12_left.png,12,Community 1,NA,TRUE,f,f,NA,NA,NA,3,6,"12,7,10,6,9,15,13,11,3,8,14,2,1,5,4"
15560,commdev-image-keyboard-response,685,2196642,learnblock2,694.2999999821186,img/planet7_right.png,7,Community 1,NA,TRUE,j,j,NA,NA,NA,3,6,"12,7,10,6,9,15,13,11,3,8,14,2,1,5,4"
15560,commdev-image-keyboard-response,686,2197894,learnblock2,1145.3999999761581,img/planet12_right.png,12,Community 1,NA,TRUE,j,j,NA,NA,NA,3,6,"12,7,10,6,9,15,13,11,3,8,14,2,1,5,4"
15560,commdev-image-keyboard-response,687,2199145,learnblock2,690.0999999940395,img/planet6_left.png,6,Community 1,NA,TRUE,f,f,NA,NA,NA,3,6,"12,7,10,6,9,15,13,11,3,8,14,2,1,5,4"
15560,commdev-image-keyboard-response,688,2200397,learnblock2,598.5,img/planet10_left.png,10,Community 1,NA,TRUE,f,f,NA,NA,NA,3,6,"12,7,10,6,9,15,13,11,3,8,14,2,1,5,4"
15560,commdev-image-keyboard-response,689,2201649,learnblock2,808.2999999821186,img/planet7_left.png,7,Community 1,NA,TRUE,f,f,NA,NA,NA,3,6,"12,7,10,6,9,15,13,11,3,8,14,2,1,5,4"
15560,commdev-image-keyboard-response,690,2202901,learnblock2,793.4000000059605,img/planet10_right.png,10,Community 1,NA,TRUE,j,j,NA,NA,NA,3,6,"12,7,10,6,9,15,13,11,3,8,14,2,1,5,4"
15560,commdev-image-keyboard-response,691,2204153,learnblock2,547.4000000059605,img/planet9_left.png,9,Community 1,NA,TRUE,f,f,NA,NA,NA,3,6,"12,7,10,6,9,15,13,11,3,8,14,2,1,5,4"
15560,commdev-image-keyboard-response,692,2205406,learnblock2,442.19999998807907,img/planet10_right.png,10,Community 1,NA,TRUE,j,j,NA,NA,NA,3,6,"12,7,10,6,9,15,13,11,3,8,14,2,1,5,4"
15560,commdev-image-keyboard-response,693,2206657,learnblock2,896.4000000059605,img/planet12_right.png,12,Community 1,NA,TRUE,j,j,NA,NA,NA,3,6,"12,7,10,6,9,15,13,11,3,8,14,2,1,5,4"
15560,commdev-image-keyboard-response,694,2207909,learnblock2,1160,img/planet9_right.png,9,Community 1,NA,TRUE,j,j,NA,NA,NA,3,6,"12,7,10,6,9,15,13,11,3,8,14,2,1,5,4"
15560,commdev-image-keyboard-response,695,2209161,learnblock2,812,img/planet10_right.png,10,Community 1,NA,TRUE,j,j,NA,NA,NA,3,6,"12,7,10,6,9,15,13,11,3,8,14,2,1,5,4"
15560,commdev-image-keyboard-response,696,2210421,learnblock2,545.7999999821186,img/planet9_left.png,9,Community 1,NA,TRUE,f,f,NA,NA,NA,3,6,"12,7,10,6,9,15,13,11,3,8,14,2,1,5,4"
15560,commdev-image-keyboard-response,697,2211672,learnblock2,722.5999999940395,img/planet14_left.png,14,Community 3,NA,FALSE,j,f,NA,NA,NA,3,6,"12,7,10,6,9,15,13,11,3,8,14,2,1,5,4"
15560,commdev-image-keyboard-response,698,2212924,learnblock2,87.2000000178814,img/planet9_right.png,9,Community 1,NA,FALSE,f,j,NA,NA,NA,3,6,"12,7,10,6,9,15,13,11,3,8,14,2,1,5,4"
15560,commdev-image-keyboard-response,699,2214177,learnblock2,687.1999999880791,img/planet14_right.png,14,Community 3,NA,TRUE,j,j,NA,NA,NA,3,6,"12,7,10,6,9,15,13,11,3,8,14,2,1,5,4"
15560,commdev-image-keyboard-response,700,2215429,learnblock2,1008.0999999940395,img/planet5_left.png,5,Community 3,NA,FALSE,j,f,NA,NA,NA,3,6,"12,7,10,6,9,15,13,11,3,8,14,2,1,5,4"
15560,commdev-image-keyboard-response,701,2216681,learnblock2,745.7999999821186,img/planet4_right.png,4,Community 3,NA,TRUE,j,j,NA,NA,NA,3,6,"12,7,10,6,9,15,13,11,3,8,14,2,1,5,4"
15560,commdev-image-keyboard-response,702,2217933,learnblock2,575.7000000178814,img/planet1_left.png,1,Community 3,NA,TRUE,f,f,NA,NA,NA,3,6,"12,7,10,6,9,15,13,11,3,8,14,2,1,5,4"
