subject_id,trial_type,trial_index,time_elapsed,block,rt,stimulus,planet,community,response,correct,key_press,learning_correct_response,parse,init_locations,final_locations,browser_interactions,num_comp,planet_map
14998,commdev-instructions,7,54507,NA,1464.300000011921,"<p>In this game, you are a scientist on board a space shuttle. </p><p> On each mission, you will visit planets all across the universe.</p><img src=""img/controlroom.jpg"" width=300vw>",NA,NA,NA,NA,NA,NA,NA,NA,NA,10,7,"6,7,12,4,15,11,13,9,14,8,3,10,5,1,2"
14998,commdev-instructions,8,58500,NA,1906.300000011921,"<p>Here are a few planets you might see:</p><img src=""img/practice1.png"" width=200vw><img src=""img/practice2.png"" width=200vw><img src=""img/practice3.png"" width=200vw>",NA,NA,NA,NA,NA,NA,NA,NA,NA,10,7,"6,7,12,4,15,11,13,9,14,8,3,10,5,1,2"
14998,commdev-instructions,9,68006,NA,2103,"<p>Your job as a scientist is to record which direction the winds are moving on each planet.</p><p>There are two types of wind directions:</p><img src=""img/practice1_left.png"" width=200vw><img src=""img/practice1_right.png"" width=200vw>",NA,NA,NA,NA,NA,NA,NA,NA,NA,10,7,"6,7,12,4,15,11,13,9,14,8,3,10,5,1,2"
14998,commdev-instructions,10,73795,NA,912,"<p>If the winds are moving this way, press the letter <strong>F</strong> on the keyboard as fast as you can.</p><img src=""img/leftwind.png"" width=250vw>",NA,NA,NA,NA,NA,NA,NA,NA,NA,10,7,"6,7,12,4,15,11,13,9,14,8,3,10,5,1,2"
14998,commdev-instructions,11,79297,NA,994,"<p>If the winds are moving this way, press the letter <strong>J</strong> on the keyboard as fast as you can.</p><img src=""img/rightwind.png"" width=350vw>",NA,NA,NA,NA,NA,NA,NA,NA,NA,10,7,"6,7,12,4,15,11,13,9,14,8,3,10,5,1,2"
14998,commdev-instructions,12,85773,NA,2049.399999976158,<p>You will have 1 second to respond. Try to respond before the time runs out!,NA,NA,NA,NA,NA,NA,NA,NA,NA,10,7,"6,7,12,4,15,11,13,9,14,8,3,10,5,1,2"
14998,commdev-instructions,13,92003,NA,798.3999999761581,<p>The planets you will visit will look different from each other.</p><p>You should respond <strong>only</strong> based on wind direction.,NA,NA,NA,NA,NA,NA,NA,NA,NA,10,7,"6,7,12,4,15,11,13,9,14,8,3,10,5,1,2"
14998,commdev-instructions,14,97989,NA,815.3999999761581,"<p> Ready to start the practice round? </p><p> Remember, press <strong>F</strong> or <strong>J</strong> depending on the wind direction.<br><img src=""img/categorize_planet_example.png""",NA,NA,NA,NA,NA,NA,NA,NA,NA,10,7,"6,7,12,4,15,11,13,9,14,8,3,10,5,1,2"
14998,commdev-instructions,26,153703,NA,1180.800000011921,"<p>Great, now try a short practice mission. </p><p> This time, you will have 1 second to respond and you won't know whether you pressed the right or wrong key for each planet.</p>",NA,NA,NA,NA,NA,NA,NA,NA,NA,10,7,"6,7,12,4,15,11,13,9,14,8,3,10,5,1,2"
14998,commdev-image-keyboard-response,27,155071,practice,655,img/practice3_right.png,NA,Number not found in mappings,NA,TRUE,j,j,NA,NA,NA,10,7,"6,7,12,4,15,11,13,9,14,8,3,10,5,1,2"
14998,commdev-image-keyboard-response,28,156332,practice,619.3000000119209,img/practice4_left.png,NA,Number not found in mappings,NA,FALSE,j,f,NA,NA,NA,10,7,"6,7,12,4,15,11,13,9,14,8,3,10,5,1,2"
14998,commdev-image-keyboard-response,29,157591,practice,109.60000002384186,img/practice2_left.png,NA,Number not found in mappings,NA,FALSE,j,f,NA,NA,NA,10,7,"6,7,12,4,15,11,13,9,14,8,3,10,5,1,2"
14998,commdev-image-keyboard-response,30,158857,practice,281.10000002384186,img/practice4_left.png,NA,Number not found in mappings,NA,FALSE,j,f,NA,NA,NA,10,7,"6,7,12,4,15,11,13,9,14,8,3,10,5,1,2"
14998,commdev-image-keyboard-response,31,160117,practice,341.7000000476837,img/practice2_left.png,NA,Number not found in mappings,NA,TRUE,f,f,NA,NA,NA,10,7,"6,7,12,4,15,11,13,9,14,8,3,10,5,1,2"
14998,commdev-image-keyboard-response,32,161390,practice,163.69999998807907,img/practice3_left.png,NA,Number not found in mappings,NA,TRUE,f,f,NA,NA,NA,10,7,"6,7,12,4,15,11,13,9,14,8,3,10,5,1,2"
14998,commdev-image-keyboard-response,33,162650,practice,238.10000002384186,img/practice2_left.png,NA,Number not found in mappings,NA,TRUE,f,f,NA,NA,NA,10,7,"6,7,12,4,15,11,13,9,14,8,3,10,5,1,2"
14998,commdev-image-keyboard-response,34,163923,practice,195.30000001192093,img/practice3_right.png,NA,Number not found in mappings,NA,TRUE,j,j,NA,NA,NA,10,7,"6,7,12,4,15,11,13,9,14,8,3,10,5,1,2"
14998,commdev-instructions,35,365266,NA,191783,"<p>Great job with the practice round.</p><p>During real missions, you won't know whether you pressed the right or wrong key for each planet.</p><p>But between missions, we will tell you how you did overall.</p>",NA,NA,NA,NA,NA,NA,NA,NA,NA,10,7,"6,7,12,4,15,11,13,9,14,8,3,10,5,1,2"
14998,commdev-instructions,36,375707,NA,1139.300000011921,<p>Try your best! You will be paid a bonus based on how many correct responses you make!</p><p>Responses that are too slow will not count toward your bonus.</p>,NA,NA,NA,NA,NA,NA,NA,NA,NA,10,7,"6,7,12,4,15,11,13,9,14,8,3,10,5,1,2"
14998,commdev-instructions,37,383289,NA,1371.5999999642372,"<p>You are almost ready to start the real game.</p><p> First, we are going to ask you some questions about how the game works.</p>",NA,NA,NA,NA,NA,NA,NA,NA,NA,10,7,"6,7,12,4,15,11,13,9,14,8,3,10,5,1,2"
14998,commdev-instructions,48,485928,NA,1322.0999999642372,"<p> Nice work! It is now time to start the real game.<p></p>You will go on two missions to record wind directions of different planets.<p></p>Each one will take about 5 minutes. You will get to take a break between missions.<p><p> Remember, press <strong>F</strong> or <strong>J</strong> depending on the wind direction. Good luck!<br><img src=""img/categorize_planet_example.png""",NA,NA,NA,NA,NA,NA,NA,NA,NA,10,7,"6,7,12,4,15,11,13,9,14,8,3,10,5,1,2"
14998,commdev-image-keyboard-response,50,489739,learnblock1,900.1999999880791,img/planet13_right.png,13,Community 2,NA,FALSE,f,j,NA,NA,NA,10,7,"6,7,12,4,15,11,13,9,14,8,3,10,5,1,2"
14998,commdev-image-keyboard-response,51,490996,learnblock1,1256.699999988079,img/planet8_right.png,8,Community 2,NA,TRUE,j,j,NA,NA,NA,10,7,"6,7,12,4,15,11,13,9,14,8,3,10,5,1,2"
14998,commdev-image-keyboard-response,52,492250,learnblock1,1215.5999999642372,img/planet13_right.png,13,Community 2,NA,TRUE,j,j,NA,NA,NA,10,7,"6,7,12,4,15,11,13,9,14,8,3,10,5,1,2"
14998,commdev-image-keyboard-response,53,493516,learnblock1,null,img/planet9_right.png,9,Community 2,NA,FALSE,null,j,NA,NA,NA,10,7,"6,7,12,4,15,11,13,9,14,8,3,10,5,1,2"
14998,commdev-image-keyboard-response,54,494792,learnblock1,660.2999999523163,img/planet8_left.png,8,Community 2,NA,TRUE,f,f,NA,NA,NA,10,7,"6,7,12,4,15,11,13,9,14,8,3,10,5,1,2"
14998,commdev-image-keyboard-response,55,496058,learnblock1,164,img/planet14_right.png,14,Community 2,NA,FALSE,f,j,NA,NA,NA,10,7,"6,7,12,4,15,11,13,9,14,8,3,10,5,1,2"
14998,commdev-image-keyboard-response,56,497328,learnblock1,232.5,img/planet8_left.png,8,Community 2,NA,TRUE,f,f,NA,NA,NA,10,7,"6,7,12,4,15,11,13,9,14,8,3,10,5,1,2"
14998,commdev-image-keyboard-response,57,498587,learnblock1,287.60000002384186,img/planet11_left.png,11,Community 2,NA,TRUE,f,f,NA,NA,NA,10,7,"6,7,12,4,15,11,13,9,14,8,3,10,5,1,2"
14998,commdev-image-keyboard-response,58,499845,learnblock1,427.30000001192093,img/planet4_right.png,4,Community 1,NA,FALSE,f,j,NA,NA,NA,10,7,"6,7,12,4,15,11,13,9,14,8,3,10,5,1,2"
14998,commdev-image-keyboard-response,59,501097,learnblock1,107.90000003576279,img/planet7_right.png,7,Community 1,NA,TRUE,j,j,NA,NA,NA,10,7,"6,7,12,4,15,11,13,9,14,8,3,10,5,1,2"
14998,commdev-image-keyboard-response,60,502351,learnblock1,368,img/planet15_left.png,15,Community 1,NA,FALSE,j,f,NA,NA,NA,10,7,"6,7,12,4,15,11,13,9,14,8,3,10,5,1,2"
14998,commdev-image-keyboard-response,61,503616,learnblock1,391.60000002384186,img/planet12_left.png,12,Community 1,NA,TRUE,f,f,NA,NA,NA,10,7,"6,7,12,4,15,11,13,9,14,8,3,10,5,1,2"
14998,commdev-image-keyboard-response,62,504878,learnblock1,232,img/planet7_left.png,7,Community 1,NA,TRUE,f,f,NA,NA,NA,10,7,"6,7,12,4,15,11,13,9,14,8,3,10,5,1,2"
14998,commdev-image-keyboard-response,63,506149,learnblock1,276.30000001192093,img/planet4_left.png,4,Community 1,NA,FALSE,j,f,NA,NA,NA,10,7,"6,7,12,4,15,11,13,9,14,8,3,10,5,1,2"
14998,commdev-image-keyboard-response,64,507404,learnblock1,12.699999988079071,img/planet12_right.png,12,Community 1,NA,TRUE,j,j,NA,NA,NA,10,7,"6,7,12,4,15,11,13,9,14,8,3,10,5,1,2"
14998,commdev-image-keyboard-response,65,508662,learnblock1,65.19999998807907,img/planet15_right.png,15,Community 1,NA,FALSE,f,j,NA,NA,NA,10,7,"6,7,12,4,15,11,13,9,14,8,3,10,5,1,2"
14998,commdev-image-keyboard-response,66,509914,learnblock1,13.699999988079071,img/planet6_right.png,6,Community 1,NA,TRUE,j,j,NA,NA,NA,10,7,"6,7,12,4,15,11,13,9,14,8,3,10,5,1,2"
14998,commdev-image-keyboard-response,67,511166,learnblock1,160.19999998807907,img/planet4_left.png,4,Community 1,NA,TRUE,f,f,NA,NA,NA,10,7,"6,7,12,4,15,11,13,9,14,8,3,10,5,1,2"
14998,commdev-image-keyboard-response,68,512433,learnblock1,27.30000001192093,img/planet12_left.png,12,Community 1,NA,TRUE,f,f,NA,NA,NA,10,7,"6,7,12,4,15,11,13,9,14,8,3,10,5,1,2"
14998,commdev-image-keyboard-response,69,513685,learnblock1,66.59999996423721,img/planet15_right.png,15,Community 1,NA,FALSE,f,j,NA,NA,NA,10,7,"6,7,12,4,15,11,13,9,14,8,3,10,5,1,2"
14998,commdev-image-keyboard-response,70,514941,learnblock1,37.59999996423721,img/planet6_right.png,6,Community 1,NA,TRUE,j,j,NA,NA,NA,10,7,"6,7,12,4,15,11,13,9,14,8,3,10,5,1,2"
14998,commdev-image-keyboard-response,71,516193,learnblock1,329.30000001192093,img/planet7_right.png,7,Community 1,NA,TRUE,j,j,NA,NA,NA,10,7,"6,7,12,4,15,11,13,9,14,8,3,10,5,1,2"
14998,commdev-image-keyboard-response,72,517449,learnblock1,222.80000001192093,img/planet12_right.png,12,Community 1,NA,TRUE,j,j,NA,NA,NA,10,7,"6,7,12,4,15,11,13,9,14,8,3,10,5,1,2"
14998,commdev-image-keyboard-response,73,518703,learnblock1,null,img/planet15_right.png,15,Community 1,NA,FALSE,null,j,NA,NA,NA,10,7,"6,7,12,4,15,11,13,9,14,8,3,10,5,1,2"
14998,commdev-image-keyboard-response,74,519968,learnblock1,34.19999998807907,img/planet7_right.png,7,Community 1,NA,TRUE,j,j,NA,NA,NA,10,7,"6,7,12,4,15,11,13,9,14,8,3,10,5,1,2"
14998,commdev-image-keyboard-response,75,521221,learnblock1,213.19999998807907,img/planet4_left.png,4,Community 1,NA,TRUE,f,f,NA,NA,NA,10,7,"6,7,12,4,15,11,13,9,14,8,3,10,5,1,2"
14998,commdev-image-keyboard-response,76,522477,learnblock1,284.39999997615814,img/planet11_right.png,11,Community 2,NA,FALSE,f,j,NA,NA,NA,10,7,"6,7,12,4,15,11,13,9,14,8,3,10,5,1,2"
14998,commdev-image-keyboard-response,77,523731,learnblock1,346.5,img/planet8_left.png,8,Community 2,NA,FALSE,j,f,NA,NA,NA,10,7,"6,7,12,4,15,11,13,9,14,8,3,10,5,1,2"
14998,commdev-image-keyboard-response,78,524992,learnblock1,247.80000001192093,img/planet13_left.png,13,Community 2,NA,TRUE,f,f,NA,NA,NA,10,7,"6,7,12,4,15,11,13,9,14,8,3,10,5,1,2"
14998,commdev-image-keyboard-response,79,526253,learnblock1,209.5,img/planet11_left.png,11,Community 2,NA,TRUE,f,f,NA,NA,NA,10,7,"6,7,12,4,15,11,13,9,14,8,3,10,5,1,2"
14998,commdev-image-keyboard-response,80,527521,learnblock1,330.10000002384186,img/planet4_left.png,4,Community 1,NA,FALSE,j,f,NA,NA,NA,10,7,"6,7,12,4,15,11,13,9,14,8,3,10,5,1,2"
14998,commdev-image-keyboard-response,81,528775,learnblock1,166.80000001192093,img/planet12_right.png,12,Community 1,NA,FALSE,f,j,NA,NA,NA,10,7,"6,7,12,4,15,11,13,9,14,8,3,10,5,1,2"
14998,commdev-image-keyboard-response,82,530029,learnblock1,null,img/planet7_left.png,7,Community 1,NA,FALSE,null,f,NA,NA,NA,10,7,"6,7,12,4,15,11,13,9,14,8,3,10,5,1,2"
14998,commdev-image-keyboard-response,83,531287,learnblock1,144.39999997615814,img/planet4_left.png,4,Community 1,NA,TRUE,f,f,NA,NA,NA,10,7,"6,7,12,4,15,11,13,9,14,8,3,10,5,1,2"
14998,commdev-image-keyboard-response,84,532544,learnblock1,91.79999995231628,img/planet12_left.png,12,Community 1,NA,TRUE,f,f,NA,NA,NA,10,7,"6,7,12,4,15,11,13,9,14,8,3,10,5,1,2"
14998,commdev-image-keyboard-response,85,533799,learnblock1,201,img/planet15_right.png,15,Community 1,NA,TRUE,j,j,NA,NA,NA,10,7,"6,7,12,4,15,11,13,9,14,8,3,10,5,1,2"
14998,commdev-image-keyboard-response,86,535060,learnblock1,56,img/planet3_right.png,3,Community 3,NA,TRUE,j,j,NA,NA,NA,10,7,"6,7,12,4,15,11,13,9,14,8,3,10,5,1,2"
14998,commdev-image-keyboard-response,87,536313,learnblock1,341.60000002384186,img/planet15_left.png,15,Community 1,NA,FALSE,j,f,NA,NA,NA,10,7,"6,7,12,4,15,11,13,9,14,8,3,10,5,1,2"
14998,commdev-image-keyboard-response,88,537568,learnblock1,108.69999998807907,img/planet3_left.png,3,Community 3,NA,FALSE,j,f,NA,NA,NA,10,7,"6,7,12,4,15,11,13,9,14,8,3,10,5,1,2"
14998,commdev-image-keyboard-response,89,538825,learnblock1,0.699999988079071,img/planet15_right.png,15,Community 1,NA,TRUE,j,j,NA,NA,NA,10,7,"6,7,12,4,15,11,13,9,14,8,3,10,5,1,2"
14998,commdev-image-keyboard-response,90,540077,learnblock1,52.19999998807907,img/planet6_right.png,6,Community 1,NA,TRUE,j,j,NA,NA,NA,10,7,"6,7,12,4,15,11,13,9,14,8,3,10,5,1,2"
14998,commdev-image-keyboard-response,91,541328,learnblock1,168.39999997615814,img/planet15_left.png,15,Community 1,NA,FALSE,j,f,NA,NA,NA,10,7,"6,7,12,4,15,11,13,9,14,8,3,10,5,1,2"
14998,commdev-image-keyboard-response,92,542582,learnblock1,124.59999996423721,img/planet3_right.png,3,Community 3,NA,TRUE,j,j,NA,NA,NA,10,7,"6,7,12,4,15,11,13,9,14,8,3,10,5,1,2"
14998,commdev-image-keyboard-response,93,543836,learnblock1,24.400000035762787,img/planet2_left.png,2,Community 3,NA,TRUE,f,f,NA,NA,NA,10,7,"6,7,12,4,15,11,13,9,14,8,3,10,5,1,2"
14998,commdev-image-keyboard-response,94,545103,learnblock1,165.9000000357628,img/planet3_left.png,3,Community 3,NA,TRUE,f,f,NA,NA,NA,10,7,"6,7,12,4,15,11,13,9,14,8,3,10,5,1,2"
14998,commdev-image-keyboard-response,95,546355,learnblock1,5.599999964237213,img/planet2_left.png,2,Community 3,NA,FALSE,j,f,NA,NA,NA,10,7,"6,7,12,4,15,11,13,9,14,8,3,10,5,1,2"
14998,commdev-image-keyboard-response,96,547612,learnblock1,68.89999997615814,img/planet5_left.png,5,Community 3,NA,FALSE,j,f,NA,NA,NA,10,7,"6,7,12,4,15,11,13,9,14,8,3,10,5,1,2"
14998,commdev-image-keyboard-response,97,548873,learnblock1,16.899999976158142,img/planet2_right.png,2,Community 3,NA,FALSE,f,j,NA,NA,NA,10,7,"6,7,12,4,15,11,13,9,14,8,3,10,5,1,2"
14998,commdev-image-keyboard-response,98,550134,learnblock1,39.5,img/planet5_left.png,5,Community 3,NA,FALSE,j,f,NA,NA,NA,10,7,"6,7,12,4,15,11,13,9,14,8,3,10,5,1,2"
14998,commdev-image-keyboard-response,99,551396,learnblock1,74,img/planet3_right.png,3,Community 3,NA,TRUE,j,j,NA,NA,NA,10,7,"6,7,12,4,15,11,13,9,14,8,3,10,5,1,2"
14998,commdev-image-keyboard-response,100,552650,learnblock1,4.099999964237213,img/planet1_left.png,1,Community 3,NA,TRUE,f,f,NA,NA,NA,10,7,"6,7,12,4,15,11,13,9,14,8,3,10,5,1,2"
14998,commdev-image-keyboard-response,101,553907,learnblock1,132.5,img/planet5_right.png,5,Community 3,NA,FALSE,f,j,NA,NA,NA,10,7,"6,7,12,4,15,11,13,9,14,8,3,10,5,1,2"
14998,commdev-image-keyboard-response,102,555165,learnblock1,53.30000001192093,img/planet2_left.png,2,Community 3,NA,FALSE,j,f,NA,NA,NA,10,7,"6,7,12,4,15,11,13,9,14,8,3,10,5,1,2"
14998,commdev-image-keyboard-response,103,556423,learnblock1,120.59999996423721,img/planet1_right.png,1,Community 3,NA,TRUE,j,j,NA,NA,NA,10,7,"6,7,12,4,15,11,13,9,14,8,3,10,5,1,2"
14998,commdev-image-keyboard-response,104,557678,learnblock1,1.199999988079071,img/planet5_left.png,5,Community 3,NA,TRUE,f,f,NA,NA,NA,10,7,"6,7,12,4,15,11,13,9,14,8,3,10,5,1,2"
14998,commdev-image-keyboard-response,105,558939,learnblock1,43.10000002384186,img/planet2_left.png,2,Community 3,NA,FALSE,j,f,NA,NA,NA,10,7,"6,7,12,4,15,11,13,9,14,8,3,10,5,1,2"
14998,commdev-image-keyboard-response,106,560198,learnblock1,19.399999976158142,img/planet1_left.png,1,Community 3,NA,FALSE,j,f,NA,NA,NA,10,7,"6,7,12,4,15,11,13,9,14,8,3,10,5,1,2"
14998,commdev-image-keyboard-response,107,561455,learnblock1,104.09999996423721,img/planet2_right.png,2,Community 3,NA,TRUE,j,j,NA,NA,NA,10,7,"6,7,12,4,15,11,13,9,14,8,3,10,5,1,2"
14998,commdev-image-keyboard-response,108,562708,learnblock1,163.0999999642372,img/planet5_left.png,5,Community 3,NA,TRUE,f,f,NA,NA,NA,10,7,"6,7,12,4,15,11,13,9,14,8,3,10,5,1,2"
14998,commdev-image-keyboard-response,109,563966,learnblock1,60.30000001192093,img/planet3_left.png,3,Community 3,NA,TRUE,f,f,NA,NA,NA,10,7,"6,7,12,4,15,11,13,9,14,8,3,10,5,1,2"
14998,commdev-image-keyboard-response,110,565219,learnblock1,137.60000002384186,img/planet5_left.png,5,Community 3,NA,TRUE,f,f,NA,NA,NA,10,7,"6,7,12,4,15,11,13,9,14,8,3,10,5,1,2"
14998,commdev-image-keyboard-response,111,566471,learnblock1,41.59999996423721,img/planet1_left.png,1,Community 3,NA,FALSE,j,f,NA,NA,NA,10,7,"6,7,12,4,15,11,13,9,14,8,3,10,5,1,2"
14998,commdev-image-keyboard-response,112,567724,learnblock1,155.5999999642372,img/planet2_left.png,2,Community 3,NA,FALSE,j,f,NA,NA,NA,10,7,"6,7,12,4,15,11,13,9,14,8,3,10,5,1,2"
14998,commdev-image-keyboard-response,113,568979,learnblock1,41.5,img/planet1_left.png,1,Community 3,NA,TRUE,f,f,NA,NA,NA,10,7,"6,7,12,4,15,11,13,9,14,8,3,10,5,1,2"
14998,commdev-image-keyboard-response,114,570237,learnblock1,122.60000002384186,img/planet5_left.png,5,Community 3,NA,TRUE,f,f,NA,NA,NA,10,7,"6,7,12,4,15,11,13,9,14,8,3,10,5,1,2"
14998,commdev-image-keyboard-response,115,571490,learnblock1,79.69999998807907,img/planet10_left.png,10,Community 3,NA,TRUE,f,f,NA,NA,NA,10,7,"6,7,12,4,15,11,13,9,14,8,3,10,5,1,2"
14998,commdev-image-keyboard-response,116,572754,learnblock1,150.5999999642372,img/planet5_right.png,5,Community 3,NA,FALSE,f,j,NA,NA,NA,10,7,"6,7,12,4,15,11,13,9,14,8,3,10,5,1,2"
14998,commdev-image-keyboard-response,117,574007,learnblock1,5.600000023841858,img/planet10_right.png,10,Community 3,NA,FALSE,f,j,NA,NA,NA,10,7,"6,7,12,4,15,11,13,9,14,8,3,10,5,1,2"
14998,commdev-image-keyboard-response,118,575262,learnblock1,34.09999996423721,img/planet2_left.png,2,Community 3,NA,FALSE,j,f,NA,NA,NA,10,7,"6,7,12,4,15,11,13,9,14,8,3,10,5,1,2"
14998,commdev-image-keyboard-response,119,576513,learnblock1,97.09999996423721,img/planet1_right.png,1,Community 3,NA,TRUE,j,j,NA,NA,NA,10,7,"6,7,12,4,15,11,13,9,14,8,3,10,5,1,2"
14998,commdev-image-keyboard-response,120,577772,learnblock1,757.0999999642372,img/planet2_left.png,2,Community 3,NA,FALSE,j,f,NA,NA,NA,10,7,"6,7,12,4,15,11,13,9,14,8,3,10,5,1,2"
14998,commdev-image-keyboard-response,121,579024,learnblock1,94.89999997615814,img/planet10_right.png,10,Community 3,NA,TRUE,j,j,NA,NA,NA,10,7,"6,7,12,4,15,11,13,9,14,8,3,10,5,1,2"
14998,commdev-image-keyboard-response,122,580289,learnblock1,110.90000003576279,img/planet2_left.png,2,Community 3,NA,TRUE,f,f,NA,NA,NA,10,7,"6,7,12,4,15,11,13,9,14,8,3,10,5,1,2"
14998,commdev-image-keyboard-response,123,581562,learnblock1,41.10000002384186,img/planet3_left.png,3,Community 3,NA,TRUE,f,f,NA,NA,NA,10,7,"6,7,12,4,15,11,13,9,14,8,3,10,5,1,2"
14998,commdev-image-keyboard-response,124,582825,learnblock1,77.79999995231628,img/planet2_right.png,2,Community 3,NA,TRUE,j,j,NA,NA,NA,10,7,"6,7,12,4,15,11,13,9,14,8,3,10,5,1,2"
14998,commdev-image-keyboard-response,125,584078,learnblock1,85.5,img/planet1_left.png,1,Community 3,NA,TRUE,f,f,NA,NA,NA,10,7,"6,7,12,4,15,11,13,9,14,8,3,10,5,1,2"
14998,commdev-image-keyboard-response,126,585343,learnblock1,0.40000003576278687,img/planet10_left.png,10,Community 3,NA,TRUE,f,f,NA,NA,NA,10,7,"6,7,12,4,15,11,13,9,14,8,3,10,5,1,2"
14998,commdev-image-keyboard-response,127,586604,learnblock1,16.899999976158142,img/planet5_right.png,5,Community 3,NA,TRUE,j,j,NA,NA,NA,10,7,"6,7,12,4,15,11,13,9,14,8,3,10,5,1,2"
14998,commdev-image-keyboard-response,128,587875,learnblock1,180,img/planet1_left.png,1,Community 3,NA,TRUE,f,f,NA,NA,NA,10,7,"6,7,12,4,15,11,13,9,14,8,3,10,5,1,2"
14998,commdev-image-keyboard-response,129,589132,learnblock1,50.10000002384186,img/planet3_right.png,3,Community 3,NA,FALSE,f,j,NA,NA,NA,10,7,"6,7,12,4,15,11,13,9,14,8,3,10,5,1,2"
14998,commdev-image-keyboard-response,130,590390,learnblock1,239.80000001192093,img/planet15_left.png,15,Community 1,NA,TRUE,f,f,NA,NA,NA,10,7,"6,7,12,4,15,11,13,9,14,8,3,10,5,1,2"
14998,commdev-image-keyboard-response,131,591653,learnblock1,193,img/planet7_right.png,7,Community 1,NA,TRUE,j,j,NA,NA,NA,10,7,"6,7,12,4,15,11,13,9,14,8,3,10,5,1,2"
14998,commdev-image-keyboard-response,132,592912,learnblock1,149.10000002384186,img/planet6_right.png,6,Community 1,NA,TRUE,j,j,NA,NA,NA,10,7,"6,7,12,4,15,11,13,9,14,8,3,10,5,1,2"
14998,commdev-image-keyboard-response,133,594165,learnblock1,143.4000000357628,img/planet15_right.png,15,Community 1,NA,FALSE,f,j,NA,NA,NA,10,7,"6,7,12,4,15,11,13,9,14,8,3,10,5,1,2"
14998,commdev-image-keyboard-response,134,595435,learnblock1,206.30000001192093,img/planet6_right.png,6,Community 1,NA,FALSE,f,j,NA,NA,NA,10,7,"6,7,12,4,15,11,13,9,14,8,3,10,5,1,2"
14998,commdev-image-keyboard-response,135,596687,learnblock1,24.899999976158142,img/planet4_right.png,4,Community 1,NA,TRUE,j,j,NA,NA,NA,10,7,"6,7,12,4,15,11,13,9,14,8,3,10,5,1,2"
14998,commdev-image-keyboard-response,136,597941,learnblock1,19.599999964237213,img/planet11_left.png,11,Community 2,NA,FALSE,j,f,NA,NA,NA,10,7,"6,7,12,4,15,11,13,9,14,8,3,10,5,1,2"
14998,commdev-image-keyboard-response,137,599203,learnblock1,417,img/planet14_right.png,14,Community 2,NA,TRUE,j,j,NA,NA,NA,10,7,"6,7,12,4,15,11,13,9,14,8,3,10,5,1,2"
14998,commdev-image-keyboard-response,138,600462,learnblock1,19.30000001192093,img/planet8_right.png,8,Community 2,NA,FALSE,f,j,NA,NA,NA,10,7,"6,7,12,4,15,11,13,9,14,8,3,10,5,1,2"
14998,commdev-image-keyboard-response,139,601719,learnblock1,429.0999999642372,img/planet11_left.png,11,Community 2,NA,FALSE,j,f,NA,NA,NA,10,7,"6,7,12,4,15,11,13,9,14,8,3,10,5,1,2"
14998,commdev-image-keyboard-response,140,602985,learnblock1,21.899999976158142,img/planet8_left.png,8,Community 2,NA,FALSE,j,f,NA,NA,NA,10,7,"6,7,12,4,15,11,13,9,14,8,3,10,5,1,2"
14998,commdev-image-keyboard-response,141,604246,learnblock1,13.699999988079071,img/planet9_left.png,9,Community 2,NA,FALSE,j,f,NA,NA,NA,10,7,"6,7,12,4,15,11,13,9,14,8,3,10,5,1,2"
14998,commdev-image-keyboard-response,142,605498,learnblock1,4.099999964237213,img/planet10_right.png,10,Community 3,NA,TRUE,j,j,NA,NA,NA,10,7,"6,7,12,4,15,11,13,9,14,8,3,10,5,1,2"
14998,commdev-image-keyboard-response,143,606752,learnblock1,80.09999996423721,img/planet2_left.png,2,Community 3,NA,TRUE,f,f,NA,NA,NA,10,7,"6,7,12,4,15,11,13,9,14,8,3,10,5,1,2"
14998,commdev-image-keyboard-response,144,608031,learnblock1,82,img/planet1_right.png,1,Community 3,NA,FALSE,f,j,NA,NA,NA,10,7,"6,7,12,4,15,11,13,9,14,8,3,10,5,1,2"
14998,commdev-image-keyboard-response,145,609287,learnblock1,676,img/planet10_right.png,10,Community 3,NA,TRUE,j,j,NA,NA,NA,10,7,"6,7,12,4,15,11,13,9,14,8,3,10,5,1,2"
14998,commdev-image-keyboard-response,146,610546,learnblock1,12,img/planet1_left.png,1,Community 3,NA,FALSE,j,f,NA,NA,NA,10,7,"6,7,12,4,15,11,13,9,14,8,3,10,5,1,2"
14998,commdev-image-keyboard-response,147,611803,learnblock1,235.19999998807907,img/planet2_left.png,2,Community 3,NA,FALSE,j,f,NA,NA,NA,10,7,"6,7,12,4,15,11,13,9,14,8,3,10,5,1,2"
14998,commdev-image-keyboard-response,148,613062,learnblock1,95.20000004768372,img/planet3_right.png,3,Community 3,NA,TRUE,j,j,NA,NA,NA,10,7,"6,7,12,4,15,11,13,9,14,8,3,10,5,1,2"
14998,commdev-image-keyboard-response,149,614315,learnblock1,7.899999976158142,img/planet15_right.png,15,Community 1,NA,TRUE,j,j,NA,NA,NA,10,7,"6,7,12,4,15,11,13,9,14,8,3,10,5,1,2"
14998,commdev-image-keyboard-response,150,615574,learnblock1,87.19999998807907,img/planet12_left.png,12,Community 1,NA,FALSE,j,f,NA,NA,NA,10,7,"6,7,12,4,15,11,13,9,14,8,3,10,5,1,2"
14998,commdev-image-keyboard-response,151,616843,learnblock1,324.19999998807907,img/planet7_left.png,7,Community 1,NA,TRUE,f,f,NA,NA,NA,10,7,"6,7,12,4,15,11,13,9,14,8,3,10,5,1,2"
14998,commdev-image-keyboard-response,152,618106,learnblock1,101.69999998807907,img/planet12_right.png,12,Community 1,NA,FALSE,f,j,NA,NA,NA,10,7,"6,7,12,4,15,11,13,9,14,8,3,10,5,1,2"
14998,commdev-image-keyboard-response,153,619358,learnblock1,3.600000023841858,img/planet7_left.png,7,Community 1,NA,TRUE,f,f,NA,NA,NA,10,7,"6,7,12,4,15,11,13,9,14,8,3,10,5,1,2"
14998,commdev-image-keyboard-response,154,620616,learnblock1,35.200000047683716,img/planet4_right.png,4,Community 1,NA,FALSE,f,j,NA,NA,NA,10,7,"6,7,12,4,15,11,13,9,14,8,3,10,5,1,2"
14998,commdev-image-keyboard-response,155,621872,learnblock1,8,img/planet12_right.png,12,Community 1,NA,FALSE,f,j,NA,NA,NA,10,7,"6,7,12,4,15,11,13,9,14,8,3,10,5,1,2"
14998,commdev-image-keyboard-response,156,623137,learnblock1,1.100000023841858,img/planet4_left.png,4,Community 1,NA,FALSE,j,f,NA,NA,NA,10,7,"6,7,12,4,15,11,13,9,14,8,3,10,5,1,2"
14998,commdev-image-keyboard-response,157,624399,learnblock1,147.5,img/planet12_left.png,12,Community 1,NA,FALSE,j,f,NA,NA,NA,10,7,"6,7,12,4,15,11,13,9,14,8,3,10,5,1,2"
14998,commdev-image-keyboard-response,158,625652,learnblock1,30.899999976158142,img/planet7_right.png,7,Community 1,NA,FALSE,f,j,NA,NA,NA,10,7,"6,7,12,4,15,11,13,9,14,8,3,10,5,1,2"
14998,commdev-image-keyboard-response,159,626917,learnblock1,75.39999997615814,img/planet12_left.png,12,Community 1,NA,TRUE,f,f,NA,NA,NA,10,7,"6,7,12,4,15,11,13,9,14,8,3,10,5,1,2"
14998,commdev-image-keyboard-response,160,628169,learnblock1,43.89999997615814,img/planet7_right.png,7,Community 1,NA,TRUE,j,j,NA,NA,NA,10,7,"6,7,12,4,15,11,13,9,14,8,3,10,5,1,2"
14998,commdev-image-keyboard-response,161,629422,learnblock1,8.599999964237213,img/planet12_left.png,12,Community 1,NA,TRUE,f,f,NA,NA,NA,10,7,"6,7,12,4,15,11,13,9,14,8,3,10,5,1,2"
14998,commdev-image-keyboard-response,162,630685,learnblock1,45.39999997615814,img/planet15_left.png,15,Community 1,NA,TRUE,f,f,NA,NA,NA,10,7,"6,7,12,4,15,11,13,9,14,8,3,10,5,1,2"
14998,commdev-image-keyboard-response,163,631952,learnblock1,160.30000001192093,img/planet12_right.png,12,Community 1,NA,FALSE,f,j,NA,NA,NA,10,7,"6,7,12,4,15,11,13,9,14,8,3,10,5,1,2"
14998,commdev-image-keyboard-response,164,633214,learnblock1,55.19999998807907,img/planet6_left.png,6,Community 1,NA,TRUE,f,f,NA,NA,NA,10,7,"6,7,12,4,15,11,13,9,14,8,3,10,5,1,2"
14998,commdev-image-keyboard-response,165,634477,learnblock1,102.30000001192093,img/planet4_left.png,4,Community 1,NA,FALSE,j,f,NA,NA,NA,10,7,"6,7,12,4,15,11,13,9,14,8,3,10,5,1,2"
14998,commdev-image-keyboard-response,166,635738,learnblock1,44.30000001192093,img/planet6_right.png,6,Community 1,NA,TRUE,j,j,NA,NA,NA,10,7,"6,7,12,4,15,11,13,9,14,8,3,10,5,1,2"
14998,commdev-image-keyboard-response,167,637000,learnblock1,111.10000002384186,img/planet12_left.png,12,Community 1,NA,TRUE,f,f,NA,NA,NA,10,7,"6,7,12,4,15,11,13,9,14,8,3,10,5,1,2"
14998,commdev-image-keyboard-response,168,638259,learnblock1,44,img/planet6_right.png,6,Community 1,NA,TRUE,j,j,NA,NA,NA,10,7,"6,7,12,4,15,11,13,9,14,8,3,10,5,1,2"
14998,commdev-image-keyboard-response,169,639512,learnblock1,4.5,img/planet12_right.png,12,Community 1,NA,FALSE,f,j,NA,NA,NA,10,7,"6,7,12,4,15,11,13,9,14,8,3,10,5,1,2"
14998,commdev-image-keyboard-response,170,640770,learnblock1,122.5,img/planet6_left.png,6,Community 1,NA,TRUE,f,f,NA,NA,NA,10,7,"6,7,12,4,15,11,13,9,14,8,3,10,5,1,2"
14998,commdev-image-keyboard-response,171,642024,learnblock1,10.200000047683716,img/planet15_left.png,15,Community 1,NA,TRUE,f,f,NA,NA,NA,10,7,"6,7,12,4,15,11,13,9,14,8,3,10,5,1,2"
14998,commdev-image-keyboard-response,172,643278,learnblock1,37.19999998807907,img/planet12_left.png,12,Community 1,NA,TRUE,f,f,NA,NA,NA,10,7,"6,7,12,4,15,11,13,9,14,8,3,10,5,1,2"
14998,commdev-image-keyboard-response,173,644539,learnblock1,19.30000001192093,img/planet15_right.png,15,Community 1,NA,FALSE,f,j,NA,NA,NA,10,7,"6,7,12,4,15,11,13,9,14,8,3,10,5,1,2"
14998,commdev-image-keyboard-response,174,645797,learnblock1,10.599999964237213,img/planet3_left.png,3,Community 3,NA,TRUE,f,f,NA,NA,NA,10,7,"6,7,12,4,15,11,13,9,14,8,3,10,5,1,2"
14998,commdev-image-keyboard-response,175,647054,learnblock1,57.19999998807907,img/planet2_left.png,2,Community 3,NA,FALSE,j,f,NA,NA,NA,10,7,"6,7,12,4,15,11,13,9,14,8,3,10,5,1,2"
14998,commdev-image-keyboard-response,176,648309,learnblock1,25.30000001192093,img/planet5_left.png,5,Community 3,NA,TRUE,f,f,NA,NA,NA,10,7,"6,7,12,4,15,11,13,9,14,8,3,10,5,1,2"
14998,commdev-image-keyboard-response,177,649561,learnblock1,5.699999988079071,img/planet1_right.png,1,Community 3,NA,FALSE,f,j,NA,NA,NA,10,7,"6,7,12,4,15,11,13,9,14,8,3,10,5,1,2"
14998,commdev-image-keyboard-response,178,650814,learnblock1,5.300000011920929,img/planet3_left.png,3,Community 3,NA,TRUE,f,f,NA,NA,NA,10,7,"6,7,12,4,15,11,13,9,14,8,3,10,5,1,2"
14998,commdev-image-keyboard-response,179,652079,learnblock1,98.80000001192093,img/planet15_left.png,15,Community 1,NA,FALSE,j,f,NA,NA,NA,10,7,"6,7,12,4,15,11,13,9,14,8,3,10,5,1,2"
14998,commdev-image-keyboard-response,180,653342,learnblock1,22.19999998807907,img/planet6_right.png,6,Community 1,NA,FALSE,f,j,NA,NA,NA,10,7,"6,7,12,4,15,11,13,9,14,8,3,10,5,1,2"
14998,commdev-image-keyboard-response,181,654606,learnblock1,133.30000001192093,img/planet4_left.png,4,Community 1,NA,TRUE,f,f,NA,NA,NA,10,7,"6,7,12,4,15,11,13,9,14,8,3,10,5,1,2"
14998,commdev-image-keyboard-response,182,655873,learnblock1,59.5,img/planet7_right.png,7,Community 1,NA,FALSE,f,j,NA,NA,NA,10,7,"6,7,12,4,15,11,13,9,14,8,3,10,5,1,2"
14998,commdev-image-keyboard-response,183,657127,learnblock1,7.300000011920929,img/planet15_right.png,15,Community 1,NA,FALSE,f,j,NA,NA,NA,10,7,"6,7,12,4,15,11,13,9,14,8,3,10,5,1,2"
14998,commdev-image-keyboard-response,184,658385,learnblock1,185.29999995231628,img/planet7_right.png,7,Community 1,NA,FALSE,f,j,NA,NA,NA,10,7,"6,7,12,4,15,11,13,9,14,8,3,10,5,1,2"
14998,commdev-image-keyboard-response,185,659643,learnblock1,95.90000003576279,img/planet6_left.png,6,Community 1,NA,FALSE,j,f,NA,NA,NA,10,7,"6,7,12,4,15,11,13,9,14,8,3,10,5,1,2"
14998,commdev-image-keyboard-response,186,660904,learnblock1,36.30000001192093,img/planet4_right.png,4,Community 1,NA,TRUE,j,j,NA,NA,NA,10,7,"6,7,12,4,15,11,13,9,14,8,3,10,5,1,2"
14998,commdev-image-keyboard-response,187,662165,learnblock1,53,img/planet12_right.png,12,Community 1,NA,TRUE,j,j,NA,NA,NA,10,7,"6,7,12,4,15,11,13,9,14,8,3,10,5,1,2"
14998,commdev-image-keyboard-response,188,663424,learnblock1,137.5,img/planet4_right.png,4,Community 1,NA,FALSE,f,j,NA,NA,NA,10,7,"6,7,12,4,15,11,13,9,14,8,3,10,5,1,2"
14998,commdev-image-keyboard-response,189,664684,learnblock1,5.5,img/planet7_right.png,7,Community 1,NA,FALSE,f,j,NA,NA,NA,10,7,"6,7,12,4,15,11,13,9,14,8,3,10,5,1,2"
14998,commdev-image-keyboard-response,190,665940,learnblock1,132.69999998807907,img/planet15_left.png,15,Community 1,NA,TRUE,f,f,NA,NA,NA,10,7,"6,7,12,4,15,11,13,9,14,8,3,10,5,1,2"
14998,commdev-image-keyboard-response,191,667201,learnblock1,168.19999998807907,img/planet6_left.png,6,Community 1,NA,FALSE,j,f,NA,NA,NA,10,7,"6,7,12,4,15,11,13,9,14,8,3,10,5,1,2"
14998,commdev-image-keyboard-response,192,668462,learnblock1,15.5,img/planet15_right.png,15,Community 1,NA,TRUE,j,j,NA,NA,NA,10,7,"6,7,12,4,15,11,13,9,14,8,3,10,5,1,2"
14998,commdev-image-keyboard-response,193,669720,learnblock1,132.80000001192093,img/planet6_right.png,6,Community 1,NA,FALSE,f,j,NA,NA,NA,10,7,"6,7,12,4,15,11,13,9,14,8,3,10,5,1,2"
14998,commdev-image-keyboard-response,194,670980,learnblock1,15.899999976158142,img/planet7_right.png,7,Community 1,NA,FALSE,f,j,NA,NA,NA,10,7,"6,7,12,4,15,11,13,9,14,8,3,10,5,1,2"
14998,commdev-image-keyboard-response,195,672244,learnblock1,151.0999999642372,img/planet15_right.png,15,Community 1,NA,TRUE,j,j,NA,NA,NA,10,7,"6,7,12,4,15,11,13,9,14,8,3,10,5,1,2"
14998,commdev-image-keyboard-response,196,673508,learnblock1,119.10000002384186,img/planet3_right.png,3,Community 3,NA,TRUE,j,j,NA,NA,NA,10,7,"6,7,12,4,15,11,13,9,14,8,3,10,5,1,2"
14998,commdev-image-keyboard-response,197,674759,learnblock1,106.90000003576279,img/planet15_left.png,15,Community 1,NA,TRUE,f,f,NA,NA,NA,10,7,"6,7,12,4,15,11,13,9,14,8,3,10,5,1,2"
14998,commdev-image-keyboard-response,198,676020,learnblock1,22.69999998807907,img/planet12_left.png,12,Community 1,NA,TRUE,f,f,NA,NA,NA,10,7,"6,7,12,4,15,11,13,9,14,8,3,10,5,1,2"
14998,commdev-image-keyboard-response,199,677282,learnblock1,6.399999976158142,img/planet6_left.png,6,Community 1,NA,FALSE,j,f,NA,NA,NA,10,7,"6,7,12,4,15,11,13,9,14,8,3,10,5,1,2"
14998,commdev-image-keyboard-response,200,678548,learnblock1,428.69999998807907,img/planet7_right.png,7,Community 1,NA,TRUE,j,j,NA,NA,NA,10,7,"6,7,12,4,15,11,13,9,14,8,3,10,5,1,2"
14998,commdev-image-keyboard-response,201,679801,learnblock1,23.400000035762787,img/planet15_left.png,15,Community 1,NA,TRUE,f,f,NA,NA,NA,10,7,"6,7,12,4,15,11,13,9,14,8,3,10,5,1,2"
14998,commdev-image-keyboard-response,202,681059,learnblock1,55.5,img/planet12_right.png,12,Community 1,NA,TRUE,j,j,NA,NA,NA,10,7,"6,7,12,4,15,11,13,9,14,8,3,10,5,1,2"
14998,commdev-image-keyboard-response,203,682318,learnblock1,64.30000001192093,img/planet6_right.png,6,Community 1,NA,FALSE,f,j,NA,NA,NA,10,7,"6,7,12,4,15,11,13,9,14,8,3,10,5,1,2"
14998,commdev-image-keyboard-response,204,683581,learnblock1,34.30000001192093,img/planet15_left.png,15,Community 1,NA,FALSE,j,f,NA,NA,NA,10,7,"6,7,12,4,15,11,13,9,14,8,3,10,5,1,2"
14998,commdev-image-keyboard-response,205,684839,learnblock1,246.0999999642372,img/planet3_left.png,3,Community 3,NA,FALSE,j,f,NA,NA,NA,10,7,"6,7,12,4,15,11,13,9,14,8,3,10,5,1,2"
14998,commdev-image-keyboard-response,206,686092,learnblock1,118.19999998807907,img/planet5_left.png,5,Community 3,NA,TRUE,f,f,NA,NA,NA,10,7,"6,7,12,4,15,11,13,9,14,8,3,10,5,1,2"
14998,commdev-image-keyboard-response,207,687357,learnblock1,45.19999998807907,img/planet3_right.png,3,Community 3,NA,FALSE,f,j,NA,NA,NA,10,7,"6,7,12,4,15,11,13,9,14,8,3,10,5,1,2"
14998,commdev-image-keyboard-response,208,688608,learnblock1,51.60000002384186,img/planet1_left.png,1,Community 3,NA,TRUE,f,f,NA,NA,NA,10,7,"6,7,12,4,15,11,13,9,14,8,3,10,5,1,2"
14998,commdev-image-keyboard-response,209,689873,learnblock1,100.5,img/planet5_right.png,5,Community 3,NA,TRUE,j,j,NA,NA,NA,10,7,"6,7,12,4,15,11,13,9,14,8,3,10,5,1,2"
14998,commdev-image-keyboard-response,210,691130,learnblock1,167,img/planet1_right.png,1,Community 3,NA,FALSE,f,j,NA,NA,NA,10,7,"6,7,12,4,15,11,13,9,14,8,3,10,5,1,2"
14998,commdev-image-keyboard-response,211,692388,learnblock1,220.89999997615814,img/planet5_left.png,5,Community 3,NA,FALSE,j,f,NA,NA,NA,10,7,"6,7,12,4,15,11,13,9,14,8,3,10,5,1,2"
14998,commdev-image-keyboard-response,212,693661,learnblock1,163.19999998807907,img/planet1_left.png,1,Community 3,NA,FALSE,j,f,NA,NA,NA,10,7,"6,7,12,4,15,11,13,9,14,8,3,10,5,1,2"
14998,commdev-image-keyboard-response,213,694919,learnblock1,567.3000000119209,img/planet2_right.png,2,Community 3,NA,FALSE,f,j,NA,NA,NA,10,7,"6,7,12,4,15,11,13,9,14,8,3,10,5,1,2"
14998,commdev-image-keyboard-response,214,696189,learnblock1,37.30000001192093,img/planet5_right.png,5,Community 3,NA,FALSE,f,j,NA,NA,NA,10,7,"6,7,12,4,15,11,13,9,14,8,3,10,5,1,2"
14998,commdev-image-keyboard-response,215,697450,learnblock1,203.5,img/planet1_right.png,1,Community 3,NA,FALSE,f,j,NA,NA,NA,10,7,"6,7,12,4,15,11,13,9,14,8,3,10,5,1,2"
14998,commdev-image-keyboard-response,216,698714,learnblock1,197,img/planet2_right.png,2,Community 3,NA,FALSE,f,j,NA,NA,NA,10,7,"6,7,12,4,15,11,13,9,14,8,3,10,5,1,2"
14998,commdev-image-keyboard-response,217,699973,learnblock1,30.099999964237213,img/planet5_right.png,5,Community 3,NA,TRUE,j,j,NA,NA,NA,10,7,"6,7,12,4,15,11,13,9,14,8,3,10,5,1,2"
14998,commdev-image-keyboard-response,218,701230,learnblock1,165.9000000357628,img/planet3_right.png,3,Community 3,NA,TRUE,j,j,NA,NA,NA,10,7,"6,7,12,4,15,11,13,9,14,8,3,10,5,1,2"
14998,commdev-image-keyboard-response,219,702485,learnblock1,66.5,img/planet2_left.png,2,Community 3,NA,FALSE,j,f,NA,NA,NA,10,7,"6,7,12,4,15,11,13,9,14,8,3,10,5,1,2"
14998,commdev-image-keyboard-response,220,703740,learnblock1,572.1999999880791,img/planet5_right.png,5,Community 3,NA,FALSE,f,j,NA,NA,NA,10,7,"6,7,12,4,15,11,13,9,14,8,3,10,5,1,2"
14998,commdev-image-keyboard-response,221,704998,learnblock1,75.89999997615814,img/planet1_right.png,1,Community 3,NA,TRUE,j,j,NA,NA,NA,10,7,"6,7,12,4,15,11,13,9,14,8,3,10,5,1,2"
14998,commdev-image-keyboard-response,222,706255,learnblock1,116.69999998807907,img/planet10_right.png,10,Community 3,NA,TRUE,j,j,NA,NA,NA,10,7,"6,7,12,4,15,11,13,9,14,8,3,10,5,1,2"
14998,commdev-image-keyboard-response,223,707509,learnblock1,8.299999952316284,img/planet5_left.png,5,Community 3,NA,FALSE,j,f,NA,NA,NA,10,7,"6,7,12,4,15,11,13,9,14,8,3,10,5,1,2"
14998,commdev-image-keyboard-response,224,708770,learnblock1,83.09999996423721,img/planet2_left.png,2,Community 3,NA,FALSE,j,f,NA,NA,NA,10,7,"6,7,12,4,15,11,13,9,14,8,3,10,5,1,2"
14998,commdev-image-keyboard-response,225,710023,learnblock1,169.30000001192093,img/planet1_left.png,1,Community 3,NA,TRUE,f,f,NA,NA,NA,10,7,"6,7,12,4,15,11,13,9,14,8,3,10,5,1,2"
14998,commdev-image-keyboard-response,226,711286,learnblock1,209.60000002384186,img/planet3_left.png,3,Community 3,NA,TRUE,f,f,NA,NA,NA,10,7,"6,7,12,4,15,11,13,9,14,8,3,10,5,1,2"
14998,commdev-image-keyboard-response,227,712541,learnblock1,94.60000002384186,img/planet15_right.png,15,Community 1,NA,TRUE,j,j,NA,NA,NA,10,7,"6,7,12,4,15,11,13,9,14,8,3,10,5,1,2"
14998,commdev-image-keyboard-response,228,713801,learnblock1,95.70000004768372,img/planet3_right.png,3,Community 3,NA,FALSE,f,j,NA,NA,NA,10,7,"6,7,12,4,15,11,13,9,14,8,3,10,5,1,2"
14998,commdev-image-keyboard-response,229,715060,learnblock1,286.19999998807907,img/planet2_right.png,2,Community 3,NA,TRUE,j,j,NA,NA,NA,10,7,"6,7,12,4,15,11,13,9,14,8,3,10,5,1,2"
14998,commdev-image-keyboard-response,230,716319,learnblock1,127.10000002384186,img/planet5_right.png,5,Community 3,NA,TRUE,j,j,NA,NA,NA,10,7,"6,7,12,4,15,11,13,9,14,8,3,10,5,1,2"
14998,commdev-image-keyboard-response,231,717579,learnblock1,275.4000000357628,img/planet2_right.png,2,Community 3,NA,FALSE,f,j,NA,NA,NA,10,7,"6,7,12,4,15,11,13,9,14,8,3,10,5,1,2"
14998,commdev-image-keyboard-response,232,718837,learnblock1,80.70000004768372,img/planet5_left.png,5,Community 3,NA,FALSE,j,f,NA,NA,NA,10,7,"6,7,12,4,15,11,13,9,14,8,3,10,5,1,2"
14998,commdev-image-keyboard-response,233,720098,learnblock1,141,img/planet2_left.png,2,Community 3,NA,TRUE,f,f,NA,NA,NA,10,7,"6,7,12,4,15,11,13,9,14,8,3,10,5,1,2"
14998,commdev-image-keyboard-response,234,721354,learnblock1,98.40000003576279,img/planet10_right.png,10,Community 3,NA,TRUE,j,j,NA,NA,NA,10,7,"6,7,12,4,15,11,13,9,14,8,3,10,5,1,2"
14998,commdev-image-keyboard-response,235,722618,learnblock1,144.9000000357628,img/planet9_left.png,9,Community 2,NA,FALSE,j,f,NA,NA,NA,10,7,"6,7,12,4,15,11,13,9,14,8,3,10,5,1,2"
14998,commdev-image-keyboard-response,236,723885,learnblock1,19.30000001192093,img/planet13_left.png,13,Community 2,NA,FALSE,j,f,NA,NA,NA,10,7,"6,7,12,4,15,11,13,9,14,8,3,10,5,1,2"
14998,commdev-image-keyboard-response,237,725143,learnblock1,46.69999998807907,img/planet14_right.png,14,Community 2,NA,FALSE,f,j,NA,NA,NA,10,7,"6,7,12,4,15,11,13,9,14,8,3,10,5,1,2"
14998,commdev-image-keyboard-response,238,726394,learnblock1,119.89999997615814,img/planet9_left.png,9,Community 2,NA,TRUE,f,f,NA,NA,NA,10,7,"6,7,12,4,15,11,13,9,14,8,3,10,5,1,2"
14998,commdev-image-keyboard-response,239,727649,learnblock1,506.89999997615814,img/planet10_right.png,10,Community 3,NA,TRUE,j,j,NA,NA,NA,10,7,"6,7,12,4,15,11,13,9,14,8,3,10,5,1,2"
14998,commdev-image-keyboard-response,240,728908,learnblock1,165.20000004768372,img/planet1_right.png,1,Community 3,NA,TRUE,j,j,NA,NA,NA,10,7,"6,7,12,4,15,11,13,9,14,8,3,10,5,1,2"
14998,commdev-image-keyboard-response,241,730160,learnblock1,772.1000000238419,img/planet10_right.png,10,Community 3,NA,TRUE,j,j,NA,NA,NA,10,7,"6,7,12,4,15,11,13,9,14,8,3,10,5,1,2"
14998,commdev-image-keyboard-response,242,731425,learnblock1,85.30000001192093,img/planet2_right.png,2,Community 3,NA,TRUE,j,j,NA,NA,NA,10,7,"6,7,12,4,15,11,13,9,14,8,3,10,5,1,2"
14998,commdev-image-keyboard-response,243,732677,learnblock1,128.19999998807907,img/planet10_left.png,10,Community 3,NA,TRUE,f,f,NA,NA,NA,10,7,"6,7,12,4,15,11,13,9,14,8,3,10,5,1,2"
14998,commdev-image-keyboard-response,244,733943,learnblock1,18.5,img/planet9_right.png,9,Community 2,NA,TRUE,j,j,NA,NA,NA,10,7,"6,7,12,4,15,11,13,9,14,8,3,10,5,1,2"
14998,commdev-image-keyboard-response,245,735202,learnblock1,32,img/planet13_right.png,13,Community 2,NA,TRUE,j,j,NA,NA,NA,10,7,"6,7,12,4,15,11,13,9,14,8,3,10,5,1,2"
14998,commdev-image-keyboard-response,246,736454,learnblock1,12.399999976158142,img/planet8_left.png,8,Community 2,NA,FALSE,j,f,NA,NA,NA,10,7,"6,7,12,4,15,11,13,9,14,8,3,10,5,1,2"
14998,commdev-image-keyboard-response,247,737707,learnblock1,117.30000001192093,img/planet9_right.png,9,Community 2,NA,FALSE,f,j,NA,NA,NA,10,7,"6,7,12,4,15,11,13,9,14,8,3,10,5,1,2"
14998,commdev-image-keyboard-response,248,738972,learnblock1,7.5,img/planet13_right.png,13,Community 2,NA,TRUE,j,j,NA,NA,NA,10,7,"6,7,12,4,15,11,13,9,14,8,3,10,5,1,2"
14998,commdev-image-keyboard-response,249,740231,learnblock1,274.10000002384186,img/planet8_left.png,8,Community 2,NA,TRUE,f,f,NA,NA,NA,10,7,"6,7,12,4,15,11,13,9,14,8,3,10,5,1,2"
14998,commdev-image-keyboard-response,250,741491,learnblock1,186.70000004768372,img/planet11_right.png,11,Community 2,NA,FALSE,f,j,NA,NA,NA,10,7,"6,7,12,4,15,11,13,9,14,8,3,10,5,1,2"
14998,commdev-image-keyboard-response,251,742743,learnblock1,195.10000002384186,img/planet4_left.png,4,Community 1,NA,TRUE,f,f,NA,NA,NA,10,7,"6,7,12,4,15,11,13,9,14,8,3,10,5,1,2"
14998,commdev-image-keyboard-response,252,744003,learnblock1,186.19999998807907,img/planet6_right.png,6,Community 1,NA,TRUE,j,j,NA,NA,NA,10,7,"6,7,12,4,15,11,13,9,14,8,3,10,5,1,2"
14998,commdev-image-keyboard-response,253,745261,learnblock1,273,img/planet4_left.png,4,Community 1,NA,TRUE,f,f,NA,NA,NA,10,7,"6,7,12,4,15,11,13,9,14,8,3,10,5,1,2"
14998,commdev-image-keyboard-response,254,746513,learnblock1,258.9000000357628,img/planet11_right.png,11,Community 2,NA,FALSE,f,j,NA,NA,NA,10,7,"6,7,12,4,15,11,13,9,14,8,3,10,5,1,2"
14998,commdev-image-keyboard-response,255,747776,learnblock1,252.70000004768372,img/planet13_left.png,13,Community 2,NA,FALSE,j,f,NA,NA,NA,10,7,"6,7,12,4,15,11,13,9,14,8,3,10,5,1,2"
14998,commdev-image-keyboard-response,256,749037,learnblock1,198.80000001192093,img/planet9_left.png,9,Community 2,NA,TRUE,f,f,NA,NA,NA,10,7,"6,7,12,4,15,11,13,9,14,8,3,10,5,1,2"
14998,commdev-image-keyboard-response,257,750291,learnblock1,228.60000002384186,img/planet8_left.png,8,Community 2,NA,TRUE,f,f,NA,NA,NA,10,7,"6,7,12,4,15,11,13,9,14,8,3,10,5,1,2"
14998,commdev-image-keyboard-response,258,751543,learnblock1,292.89999997615814,img/planet11_left.png,11,Community 2,NA,FALSE,j,f,NA,NA,NA,10,7,"6,7,12,4,15,11,13,9,14,8,3,10,5,1,2"
14998,commdev-image-keyboard-response,259,752797,learnblock1,399.9000000357628,img/planet4_left.png,4,Community 1,NA,TRUE,f,f,NA,NA,NA,10,7,"6,7,12,4,15,11,13,9,14,8,3,10,5,1,2"
14998,commdev-image-keyboard-response,260,754061,learnblock1,173.5,img/planet12_left.png,12,Community 1,NA,TRUE,f,f,NA,NA,NA,10,7,"6,7,12,4,15,11,13,9,14,8,3,10,5,1,2"
14998,commdev-image-keyboard-response,261,755315,learnblock1,84.19999998807907,img/planet7_left.png,7,Community 1,NA,FALSE,j,f,NA,NA,NA,10,7,"6,7,12,4,15,11,13,9,14,8,3,10,5,1,2"
14998,commdev-image-keyboard-response,262,756576,learnblock1,291.39999997615814,img/planet12_right.png,12,Community 1,NA,TRUE,j,j,NA,NA,NA,10,7,"6,7,12,4,15,11,13,9,14,8,3,10,5,1,2"
14998,commdev-image-keyboard-response,263,757838,learnblock1,294.0999999642372,img/planet7_left.png,7,Community 1,NA,FALSE,j,f,NA,NA,NA,10,7,"6,7,12,4,15,11,13,9,14,8,3,10,5,1,2"
14998,commdev-image-keyboard-response,264,759101,learnblock1,257.10000002384186,img/planet4_right.png,4,Community 1,NA,TRUE,j,j,NA,NA,NA,10,7,"6,7,12,4,15,11,13,9,14,8,3,10,5,1,2"
14998,commdev-image-keyboard-response,265,760360,learnblock1,66.70000004768372,img/planet6_right.png,6,Community 1,NA,TRUE,j,j,NA,NA,NA,10,7,"6,7,12,4,15,11,13,9,14,8,3,10,5,1,2"
14998,commdev-image-keyboard-response,266,761618,learnblock1,168.5,img/planet4_right.png,4,Community 1,NA,TRUE,j,j,NA,NA,NA,10,7,"6,7,12,4,15,11,13,9,14,8,3,10,5,1,2"
14998,commdev-image-keyboard-response,267,762892,learnblock1,268.10000002384186,img/planet12_right.png,12,Community 1,NA,TRUE,j,j,NA,NA,NA,10,7,"6,7,12,4,15,11,13,9,14,8,3,10,5,1,2"
14998,commdev-image-keyboard-response,268,764147,learnblock1,27.899999976158142,img/planet15_left.png,15,Community 1,NA,TRUE,f,f,NA,NA,NA,10,7,"6,7,12,4,15,11,13,9,14,8,3,10,5,1,2"
14998,commdev-image-keyboard-response,269,765413,learnblock1,233.0999999642372,img/planet12_right.png,12,Community 1,NA,TRUE,j,j,NA,NA,NA,10,7,"6,7,12,4,15,11,13,9,14,8,3,10,5,1,2"
14998,commdev-image-keyboard-response,270,766671,learnblock1,70.40000003576279,img/planet6_left.png,6,Community 1,NA,TRUE,f,f,NA,NA,NA,10,7,"6,7,12,4,15,11,13,9,14,8,3,10,5,1,2"
14998,commdev-image-keyboard-response,271,767937,learnblock1,226.10000002384186,img/planet15_left.png,15,Community 1,NA,FALSE,j,f,NA,NA,NA,10,7,"6,7,12,4,15,11,13,9,14,8,3,10,5,1,2"
14998,commdev-image-keyboard-response,272,769195,learnblock1,1077.9000000357628,img/planet6_left.png,6,Community 1,NA,FALSE,j,f,NA,NA,NA,10,7,"6,7,12,4,15,11,13,9,14,8,3,10,5,1,2"
14998,commdev-image-keyboard-response,273,770460,learnblock1,90.19999998807907,img/planet7_right.png,7,Community 1,NA,TRUE,j,j,NA,NA,NA,10,7,"6,7,12,4,15,11,13,9,14,8,3,10,5,1,2"
14998,commdev-image-keyboard-response,274,771721,learnblock1,325.5,img/planet12_left.png,12,Community 1,NA,FALSE,j,f,NA,NA,NA,10,7,"6,7,12,4,15,11,13,9,14,8,3,10,5,1,2"
14998,commdev-image-keyboard-response,275,772979,learnblock1,82.89999997615814,img/planet6_left.png,6,Community 1,NA,FALSE,j,f,NA,NA,NA,10,7,"6,7,12,4,15,11,13,9,14,8,3,10,5,1,2"
14998,commdev-image-keyboard-response,276,774241,learnblock1,21.399999976158142,img/planet15_left.png,15,Community 1,NA,FALSE,j,f,NA,NA,NA,10,7,"6,7,12,4,15,11,13,9,14,8,3,10,5,1,2"
14998,commdev-image-keyboard-response,277,775491,learnblock1,205.19999998807907,img/planet3_left.png,3,Community 3,NA,TRUE,f,f,NA,NA,NA,10,7,"6,7,12,4,15,11,13,9,14,8,3,10,5,1,2"
14998,commdev-image-keyboard-response,278,776750,learnblock1,43.09999996423721,img/planet5_left.png,5,Community 3,NA,FALSE,j,f,NA,NA,NA,10,7,"6,7,12,4,15,11,13,9,14,8,3,10,5,1,2"
14998,commdev-image-keyboard-response,279,778017,learnblock1,154.80000001192093,img/planet3_right.png,3,Community 3,NA,TRUE,j,j,NA,NA,NA,10,7,"6,7,12,4,15,11,13,9,14,8,3,10,5,1,2"
14998,commdev-image-keyboard-response,280,779278,learnblock1,158.10000002384186,img/planet1_left.png,1,Community 3,NA,FALSE,j,f,NA,NA,NA,10,7,"6,7,12,4,15,11,13,9,14,8,3,10,5,1,2"
14998,commdev-image-keyboard-response,281,780541,learnblock1,818.1000000238419,img/planet2_right.png,2,Community 3,NA,TRUE,j,j,NA,NA,NA,10,7,"6,7,12,4,15,11,13,9,14,8,3,10,5,1,2"
14998,commdev-image-keyboard-response,282,781803,learnblock1,13.700000047683716,img/planet10_left.png,10,Community 3,NA,TRUE,f,f,NA,NA,NA,10,7,"6,7,12,4,15,11,13,9,14,8,3,10,5,1,2"
14998,commdev-image-keyboard-response,283,783071,learnblock1,33.59999996423721,img/planet5_left.png,5,Community 3,NA,FALSE,j,f,NA,NA,NA,10,7,"6,7,12,4,15,11,13,9,14,8,3,10,5,1,2"
14998,commdev-image-keyboard-response,284,784332,learnblock1,30.69999998807907,img/planet2_right.png,2,Community 3,NA,TRUE,j,j,NA,NA,NA,10,7,"6,7,12,4,15,11,13,9,14,8,3,10,5,1,2"
14998,commdev-image-keyboard-response,285,785597,learnblock1,80.29999995231628,img/planet10_left.png,10,Community 3,NA,TRUE,f,f,NA,NA,NA,10,7,"6,7,12,4,15,11,13,9,14,8,3,10,5,1,2"
14998,commdev-image-keyboard-response,286,786859,learnblock1,30.399999976158142,img/planet1_left.png,1,Community 3,NA,TRUE,f,f,NA,NA,NA,10,7,"6,7,12,4,15,11,13,9,14,8,3,10,5,1,2"
14998,commdev-image-keyboard-response,287,788124,learnblock1,18.5,img/planet10_right.png,10,Community 3,NA,TRUE,j,j,NA,NA,NA,10,7,"6,7,12,4,15,11,13,9,14,8,3,10,5,1,2"
14998,commdev-image-keyboard-response,288,789382,learnblock1,119.30000001192093,img/planet2_right.png,2,Community 3,NA,TRUE,j,j,NA,NA,NA,10,7,"6,7,12,4,15,11,13,9,14,8,3,10,5,1,2"
14998,commdev-image-keyboard-response,289,790651,learnblock1,27.399999976158142,img/planet10_right.png,10,Community 3,NA,FALSE,f,j,NA,NA,NA,10,7,"6,7,12,4,15,11,13,9,14,8,3,10,5,1,2"
14998,commdev-image-keyboard-response,290,791904,learnblock1,47.59999996423721,img/planet5_left.png,5,Community 3,NA,TRUE,f,f,NA,NA,NA,10,7,"6,7,12,4,15,11,13,9,14,8,3,10,5,1,2"
14998,commdev-image-keyboard-response,291,793167,learnblock1,57,img/planet10_left.png,10,Community 3,NA,FALSE,j,f,NA,NA,NA,10,7,"6,7,12,4,15,11,13,9,14,8,3,10,5,1,2"
14998,commdev-image-keyboard-response,292,794428,learnblock1,59.19999998807907,img/planet5_right.png,5,Community 3,NA,TRUE,j,j,NA,NA,NA,10,7,"6,7,12,4,15,11,13,9,14,8,3,10,5,1,2"
14998,commdev-image-keyboard-response,293,795684,learnblock1,198.89999997615814,img/planet2_left.png,2,Community 3,NA,TRUE,f,f,NA,NA,NA,10,7,"6,7,12,4,15,11,13,9,14,8,3,10,5,1,2"
14998,commdev-image-keyboard-response,294,796935,learnblock1,77.30000001192093,img/planet1_right.png,1,Community 3,NA,FALSE,f,j,NA,NA,NA,10,7,"6,7,12,4,15,11,13,9,14,8,3,10,5,1,2"
14998,commdev-image-keyboard-response,295,798196,learnblock1,19.19999998807907,img/planet3_right.png,3,Community 3,NA,TRUE,j,j,NA,NA,NA,10,7,"6,7,12,4,15,11,13,9,14,8,3,10,5,1,2"
14998,commdev-image-keyboard-response,296,799448,learnblock1,43.80000001192093,img/planet1_left.png,1,Community 3,NA,TRUE,f,f,NA,NA,NA,10,7,"6,7,12,4,15,11,13,9,14,8,3,10,5,1,2"
14998,commdev-image-keyboard-response,297,800713,learnblock1,89.79999995231628,img/planet2_left.png,2,Community 3,NA,TRUE,f,f,NA,NA,NA,10,7,"6,7,12,4,15,11,13,9,14,8,3,10,5,1,2"
14998,commdev-image-keyboard-response,298,801964,learnblock1,27,img/planet10_right.png,10,Community 3,NA,FALSE,f,j,NA,NA,NA,10,7,"6,7,12,4,15,11,13,9,14,8,3,10,5,1,2"
14998,commdev-image-keyboard-response,299,803228,learnblock1,68.79999995231628,img/planet9_right.png,9,Community 2,NA,TRUE,j,j,NA,NA,NA,10,7,"6,7,12,4,15,11,13,9,14,8,3,10,5,1,2"
14998,commdev-image-keyboard-response,300,804480,learnblock1,18.69999998807907,img/planet13_left.png,13,Community 2,NA,FALSE,j,f,NA,NA,NA,10,7,"6,7,12,4,15,11,13,9,14,8,3,10,5,1,2"
14998,commdev-image-keyboard-response,301,805734,learnblock1,173.60000002384186,img/planet9_right.png,9,Community 2,NA,FALSE,f,j,NA,NA,NA,10,7,"6,7,12,4,15,11,13,9,14,8,3,10,5,1,2"
14998,commdev-image-keyboard-response,302,806986,learnblock1,46.19999998807907,img/planet8_left.png,8,Community 2,NA,FALSE,j,f,NA,NA,NA,10,7,"6,7,12,4,15,11,13,9,14,8,3,10,5,1,2"
14998,commdev-image-keyboard-response,303,808246,learnblock1,57.39999997615814,img/planet11_right.png,11,Community 2,NA,TRUE,j,j,NA,NA,NA,10,7,"6,7,12,4,15,11,13,9,14,8,3,10,5,1,2"
14998,commdev-image-keyboard-response,304,809509,learnblock1,51.59999996423721,img/planet4_right.png,4,Community 1,NA,TRUE,j,j,NA,NA,NA,10,7,"6,7,12,4,15,11,13,9,14,8,3,10,5,1,2"
14998,commdev-image-keyboard-response,305,810764,learnblock1,16.5,img/planet12_right.png,12,Community 1,NA,TRUE,j,j,NA,NA,NA,10,7,"6,7,12,4,15,11,13,9,14,8,3,10,5,1,2"
14998,commdev-image-keyboard-response,306,812027,learnblock1,127.30000001192093,img/planet4_left.png,4,Community 1,NA,TRUE,f,f,NA,NA,NA,10,7,"6,7,12,4,15,11,13,9,14,8,3,10,5,1,2"
14998,commdev-image-keyboard-response,307,813292,learnblock1,17.19999998807907,img/planet6_left.png,6,Community 1,NA,FALSE,j,f,NA,NA,NA,10,7,"6,7,12,4,15,11,13,9,14,8,3,10,5,1,2"
14998,commdev-image-keyboard-response,308,814551,learnblock1,11.199999988079071,img/planet12_left.png,12,Community 1,NA,FALSE,j,f,NA,NA,NA,10,7,"6,7,12,4,15,11,13,9,14,8,3,10,5,1,2"
14998,commdev-image-keyboard-response,309,815814,learnblock1,79.5,img/planet4_left.png,4,Community 1,NA,FALSE,j,f,NA,NA,NA,10,7,"6,7,12,4,15,11,13,9,14,8,3,10,5,1,2"
14998,commdev-image-keyboard-response,310,817066,learnblock1,43.69999998807907,img/planet11_left.png,11,Community 2,NA,TRUE,f,f,NA,NA,NA,10,7,"6,7,12,4,15,11,13,9,14,8,3,10,5,1,2"
14998,commdev-image-keyboard-response,311,818325,learnblock1,130.39999997615814,img/planet4_right.png,4,Community 1,NA,FALSE,f,j,NA,NA,NA,10,7,"6,7,12,4,15,11,13,9,14,8,3,10,5,1,2"
14998,commdev-image-keyboard-response,312,819589,learnblock1,104.40000003576279,img/planet12_right.png,12,Community 1,NA,TRUE,j,j,NA,NA,NA,10,7,"6,7,12,4,15,11,13,9,14,8,3,10,5,1,2"
14998,commdev-image-keyboard-response,313,820856,learnblock1,85.19999998807907,img/planet6_right.png,6,Community 1,NA,FALSE,f,j,NA,NA,NA,10,7,"6,7,12,4,15,11,13,9,14,8,3,10,5,1,2"
14998,commdev-image-keyboard-response,314,822109,learnblock1,33.40000003576279,img/planet15_right.png,15,Community 1,NA,TRUE,j,j,NA,NA,NA,10,7,"6,7,12,4,15,11,13,9,14,8,3,10,5,1,2"
14998,commdev-image-keyboard-response,315,823370,learnblock1,164.10000002384186,img/planet6_right.png,6,Community 1,NA,TRUE,j,j,NA,NA,NA,10,7,"6,7,12,4,15,11,13,9,14,8,3,10,5,1,2"
14998,commdev-image-keyboard-response,316,824633,learnblock1,159.30000001192093,img/planet4_left.png,4,Community 1,NA,TRUE,f,f,NA,NA,NA,10,7,"6,7,12,4,15,11,13,9,14,8,3,10,5,1,2"
14998,commdev-image-keyboard-response,317,825896,learnblock1,182.19999998807907,img/planet11_right.png,11,Community 2,NA,TRUE,j,j,NA,NA,NA,10,7,"6,7,12,4,15,11,13,9,14,8,3,10,5,1,2"
14998,commdev-image-keyboard-response,318,827156,learnblock1,29.899999976158142,img/planet8_right.png,8,Community 2,NA,FALSE,f,j,NA,NA,NA,10,7,"6,7,12,4,15,11,13,9,14,8,3,10,5,1,2"
14998,commdev-image-keyboard-response,319,828411,learnblock1,83,img/planet14_right.png,14,Community 2,NA,FALSE,f,j,NA,NA,NA,10,7,"6,7,12,4,15,11,13,9,14,8,3,10,5,1,2"
14998,commdev-image-keyboard-response,320,829676,learnblock1,86.59999996423721,img/planet11_right.png,11,Community 2,NA,FALSE,f,j,NA,NA,NA,10,7,"6,7,12,4,15,11,13,9,14,8,3,10,5,1,2"
14998,commdev-image-keyboard-response,321,830937,learnblock1,151.80000001192093,img/planet14_left.png,14,Community 2,NA,TRUE,f,f,NA,NA,NA,10,7,"6,7,12,4,15,11,13,9,14,8,3,10,5,1,2"
14998,commdev-image-keyboard-response,322,832200,learnblock1,175.89999997615814,img/planet11_right.png,11,Community 2,NA,FALSE,f,j,NA,NA,NA,10,7,"6,7,12,4,15,11,13,9,14,8,3,10,5,1,2"
14998,commdev-image-keyboard-response,323,833464,learnblock1,4.599999964237213,img/planet4_right.png,4,Community 1,NA,TRUE,j,j,NA,NA,NA,10,7,"6,7,12,4,15,11,13,9,14,8,3,10,5,1,2"
14998,commdev-image-keyboard-response,324,834720,learnblock1,76,img/planet11_right.png,11,Community 2,NA,TRUE,j,j,NA,NA,NA,10,7,"6,7,12,4,15,11,13,9,14,8,3,10,5,1,2"
14998,commdev-image-keyboard-response,325,835974,learnblock1,374.2000000476837,img/planet14_left.png,14,Community 2,NA,FALSE,j,f,NA,NA,NA,10,7,"6,7,12,4,15,11,13,9,14,8,3,10,5,1,2"
14998,commdev-image-keyboard-response,326,837231,learnblock1,29.600000023841858,img/planet8_right.png,8,Community 2,NA,FALSE,f,j,NA,NA,NA,10,7,"6,7,12,4,15,11,13,9,14,8,3,10,5,1,2"
14998,commdev-image-keyboard-response,327,838494,learnblock1,94.80000001192093,img/planet13_left.png,13,Community 2,NA,FALSE,j,f,NA,NA,NA,10,7,"6,7,12,4,15,11,13,9,14,8,3,10,5,1,2"
14998,commdev-image-keyboard-response,328,839749,learnblock1,47.5,img/planet14_right.png,14,Community 2,NA,FALSE,f,j,NA,NA,NA,10,7,"6,7,12,4,15,11,13,9,14,8,3,10,5,1,2"
14998,commdev-image-keyboard-response,329,841006,learnblock1,148.79999995231628,img/planet13_left.png,13,Community 2,NA,TRUE,f,f,NA,NA,NA,10,7,"6,7,12,4,15,11,13,9,14,8,3,10,5,1,2"
14998,commdev-image-keyboard-response,330,842260,learnblock1,33.89999997615814,img/planet14_right.png,14,Community 2,NA,TRUE,j,j,NA,NA,NA,10,7,"6,7,12,4,15,11,13,9,14,8,3,10,5,1,2"
14998,commdev-image-keyboard-response,331,843525,learnblock1,203.9000000357628,img/planet8_right.png,8,Community 2,NA,FALSE,f,j,NA,NA,NA,10,7,"6,7,12,4,15,11,13,9,14,8,3,10,5,1,2"
14998,commdev-image-keyboard-response,332,844778,learnblock1,195.5999999642372,img/planet9_right.png,9,Community 2,NA,FALSE,f,j,NA,NA,NA,10,7,"6,7,12,4,15,11,13,9,14,8,3,10,5,1,2"
14998,commdev-image-keyboard-response,333,846037,learnblock1,101.30000001192093,img/planet14_right.png,14,Community 2,NA,TRUE,j,j,NA,NA,NA,10,7,"6,7,12,4,15,11,13,9,14,8,3,10,5,1,2"
14998,commdev-image-keyboard-response,334,847294,learnblock1,121.19999998807907,img/planet8_left.png,8,Community 2,NA,FALSE,j,f,NA,NA,NA,10,7,"6,7,12,4,15,11,13,9,14,8,3,10,5,1,2"
14998,commdev-image-keyboard-response,335,848552,learnblock1,112.09999996423721,img/planet14_right.png,14,Community 2,NA,TRUE,j,j,NA,NA,NA,10,7,"6,7,12,4,15,11,13,9,14,8,3,10,5,1,2"
14998,commdev-image-keyboard-response,336,849808,learnblock1,5.699999988079071,img/planet9_right.png,9,Community 2,NA,TRUE,j,j,NA,NA,NA,10,7,"6,7,12,4,15,11,13,9,14,8,3,10,5,1,2"
14998,commdev-image-keyboard-response,337,851061,learnblock1,20,img/planet13_left.png,13,Community 2,NA,TRUE,f,f,NA,NA,NA,10,7,"6,7,12,4,15,11,13,9,14,8,3,10,5,1,2"
14998,commdev-image-keyboard-response,338,852315,learnblock1,49.90000003576279,img/planet8_left.png,8,Community 2,NA,TRUE,f,f,NA,NA,NA,10,7,"6,7,12,4,15,11,13,9,14,8,3,10,5,1,2"
14998,commdev-image-keyboard-response,339,853581,learnblock1,135.30000001192093,img/planet14_right.png,14,Community 2,NA,FALSE,f,j,NA,NA,NA,10,7,"6,7,12,4,15,11,13,9,14,8,3,10,5,1,2"
14998,commdev-image-keyboard-response,340,854834,learnblock1,17.599999964237213,img/planet8_right.png,8,Community 2,NA,FALSE,f,j,NA,NA,NA,10,7,"6,7,12,4,15,11,13,9,14,8,3,10,5,1,2"
14998,commdev-image-keyboard-response,341,856100,learnblock1,928.8999999761581,img/planet13_right.png,13,Community 2,NA,FALSE,f,j,NA,NA,NA,10,7,"6,7,12,4,15,11,13,9,14,8,3,10,5,1,2"
14998,commdev-image-keyboard-response,342,857358,learnblock1,269.9000000357628,img/planet11_right.png,11,Community 2,NA,FALSE,f,j,NA,NA,NA,10,7,"6,7,12,4,15,11,13,9,14,8,3,10,5,1,2"
14998,commdev-image-keyboard-response,343,858622,learnblock1,781.4000000357628,img/planet14_left.png,14,Community 2,NA,FALSE,j,f,NA,NA,NA,10,7,"6,7,12,4,15,11,13,9,14,8,3,10,5,1,2"
14998,commdev-image-keyboard-response,344,859877,learnblock1,326.5,img/planet9_left.png,9,Community 2,NA,TRUE,f,f,NA,NA,NA,10,7,"6,7,12,4,15,11,13,9,14,8,3,10,5,1,2"
14998,commdev-image-keyboard-response,345,861133,learnblock1,null,img/planet10_right.png,10,Community 3,NA,FALSE,null,j,NA,NA,NA,10,7,"6,7,12,4,15,11,13,9,14,8,3,10,5,1,2"
14998,commdev-image-keyboard-response,346,862389,learnblock1,null,img/planet2_right.png,2,Community 3,NA,FALSE,null,j,NA,NA,NA,10,7,"6,7,12,4,15,11,13,9,14,8,3,10,5,1,2"
14998,commdev-image-keyboard-response,347,863645,learnblock1,null,img/planet10_left.png,10,Community 3,NA,FALSE,null,f,NA,NA,NA,10,7,"6,7,12,4,15,11,13,9,14,8,3,10,5,1,2"
14998,commdev-image-keyboard-response,348,864918,learnblock1,211.5,img/planet5_right.png,5,Community 3,NA,FALSE,f,j,NA,NA,NA,10,7,"6,7,12,4,15,11,13,9,14,8,3,10,5,1,2"
14998,commdev-image-keyboard-response,349,866177,learnblock1,196.30000001192093,img/planet2_right.png,2,Community 3,NA,FALSE,f,j,NA,NA,NA,10,7,"6,7,12,4,15,11,13,9,14,8,3,10,5,1,2"
14998,commdev-image-keyboard-response,353,945897,learnblock2,1220.5,img/planet13_left.png,13,Community 2,NA,TRUE,f,f,NA,NA,NA,10,7,"6,7,12,4,15,11,13,9,14,8,3,10,5,1,2"
14998,commdev-image-keyboard-response,354,947163,learnblock2,646.1999999880791,img/planet11_right.png,11,Community 2,NA,FALSE,f,j,NA,NA,NA,10,7,"6,7,12,4,15,11,13,9,14,8,3,10,5,1,2"
14998,commdev-image-keyboard-response,355,948424,learnblock2,1158.5,img/planet4_left.png,4,Community 1,NA,TRUE,f,f,NA,NA,NA,10,7,"6,7,12,4,15,11,13,9,14,8,3,10,5,1,2"
14998,commdev-image-keyboard-response,356,949688,learnblock2,692.0999999642372,img/planet7_left.png,7,Community 1,NA,FALSE,j,f,NA,NA,NA,10,7,"6,7,12,4,15,11,13,9,14,8,3,10,5,1,2"
14998,commdev-image-keyboard-response,357,950952,learnblock2,327.5999999642372,img/planet4_right.png,4,Community 1,NA,FALSE,f,j,NA,NA,NA,10,7,"6,7,12,4,15,11,13,9,14,8,3,10,5,1,2"
14998,commdev-image-keyboard-response,358,952215,learnblock2,215.70000004768372,img/planet11_right.png,11,Community 2,NA,FALSE,f,j,NA,NA,NA,10,7,"6,7,12,4,15,11,13,9,14,8,3,10,5,1,2"
14998,commdev-image-keyboard-response,359,953472,learnblock2,1033.1000000238419,img/planet13_right.png,13,Community 2,NA,FALSE,f,j,NA,NA,NA,10,7,"6,7,12,4,15,11,13,9,14,8,3,10,5,1,2"
14998,commdev-image-keyboard-response,360,954729,learnblock2,257.30000001192093,img/planet9_right.png,9,Community 2,NA,TRUE,j,j,NA,NA,NA,10,7,"6,7,12,4,15,11,13,9,14,8,3,10,5,1,2"
14998,commdev-image-keyboard-response,361,955980,learnblock2,818.1000000238419,img/planet8_right.png,8,Community 2,NA,FALSE,f,j,NA,NA,NA,10,7,"6,7,12,4,15,11,13,9,14,8,3,10,5,1,2"
14998,commdev-image-keyboard-response,362,957237,learnblock2,45.09999996423721,img/planet14_right.png,14,Community 2,NA,TRUE,j,j,NA,NA,NA,10,7,"6,7,12,4,15,11,13,9,14,8,3,10,5,1,2"
14998,commdev-image-keyboard-response,363,958496,learnblock2,134.5,img/planet11_right.png,11,Community 2,NA,FALSE,f,j,NA,NA,NA,10,7,"6,7,12,4,15,11,13,9,14,8,3,10,5,1,2"
14998,commdev-image-keyboard-response,364,959748,learnblock2,139.5,img/planet14_right.png,14,Community 2,NA,FALSE,f,j,NA,NA,NA,10,7,"6,7,12,4,15,11,13,9,14,8,3,10,5,1,2"
14998,commdev-image-keyboard-response,365,961006,learnblock2,99.5,img/planet9_left.png,9,Community 2,NA,TRUE,f,f,NA,NA,NA,10,7,"6,7,12,4,15,11,13,9,14,8,3,10,5,1,2"
14998,commdev-image-keyboard-response,366,962270,learnblock2,53,img/planet14_right.png,14,Community 2,NA,TRUE,j,j,NA,NA,NA,10,7,"6,7,12,4,15,11,13,9,14,8,3,10,5,1,2"
14998,commdev-image-keyboard-response,367,963536,learnblock2,43.10000002384186,img/planet8_right.png,8,Community 2,NA,FALSE,f,j,NA,NA,NA,10,7,"6,7,12,4,15,11,13,9,14,8,3,10,5,1,2"
14998,commdev-image-keyboard-response,368,964795,learnblock2,134.80000001192093,img/planet11_right.png,11,Community 2,NA,TRUE,j,j,NA,NA,NA,10,7,"6,7,12,4,15,11,13,9,14,8,3,10,5,1,2"
14998,commdev-image-keyboard-response,369,966055,learnblock2,12,img/planet8_left.png,8,Community 2,NA,TRUE,f,f,NA,NA,NA,10,7,"6,7,12,4,15,11,13,9,14,8,3,10,5,1,2"
14998,commdev-image-keyboard-response,370,967316,learnblock2,306.7000000476837,img/planet9_left.png,9,Community 2,NA,FALSE,j,f,NA,NA,NA,10,7,"6,7,12,4,15,11,13,9,14,8,3,10,5,1,2"
14998,commdev-image-keyboard-response,371,968572,learnblock2,746.1000000238419,img/planet10_left.png,10,Community 3,NA,TRUE,f,f,NA,NA,NA,10,7,"6,7,12,4,15,11,13,9,14,8,3,10,5,1,2"
14998,commdev-image-keyboard-response,372,969829,learnblock2,206.39999997615814,img/planet1_left.png,1,Community 3,NA,FALSE,j,f,NA,NA,NA,10,7,"6,7,12,4,15,11,13,9,14,8,3,10,5,1,2"
14998,commdev-image-keyboard-response,373,971089,learnblock2,91.30000001192093,img/planet3_left.png,3,Community 3,NA,FALSE,j,f,NA,NA,NA,10,7,"6,7,12,4,15,11,13,9,14,8,3,10,5,1,2"
14998,commdev-image-keyboard-response,374,972342,learnblock2,359.69999998807907,img/planet1_left.png,1,Community 3,NA,FALSE,j,f,NA,NA,NA,10,7,"6,7,12,4,15,11,13,9,14,8,3,10,5,1,2"
14998,commdev-image-keyboard-response,375,973597,learnblock2,8.899999976158142,img/planet3_left.png,3,Community 3,NA,TRUE,f,f,NA,NA,NA,10,7,"6,7,12,4,15,11,13,9,14,8,3,10,5,1,2"
14998,commdev-image-keyboard-response,376,974856,learnblock2,15.600000023841858,img/planet5_left.png,5,Community 3,NA,FALSE,j,f,NA,NA,NA,10,7,"6,7,12,4,15,11,13,9,14,8,3,10,5,1,2"
14998,commdev-image-keyboard-response,377,976115,learnblock2,10.5,img/planet3_left.png,3,Community 3,NA,TRUE,f,f,NA,NA,NA,10,7,"6,7,12,4,15,11,13,9,14,8,3,10,5,1,2"
14998,commdev-image-keyboard-response,378,977371,learnblock2,109.39999997615814,img/planet2_left.png,2,Community 3,NA,FALSE,j,f,NA,NA,NA,10,7,"6,7,12,4,15,11,13,9,14,8,3,10,5,1,2"
14998,commdev-image-keyboard-response,379,978629,learnblock2,93.59999996423721,img/planet1_right.png,1,Community 3,NA,TRUE,j,j,NA,NA,NA,10,7,"6,7,12,4,15,11,13,9,14,8,3,10,5,1,2"
14998,commdev-image-keyboard-response,380,979887,learnblock2,66.79999995231628,img/planet2_left.png,2,Community 3,NA,FALSE,j,f,NA,NA,NA,10,7,"6,7,12,4,15,11,13,9,14,8,3,10,5,1,2"
14998,commdev-image-keyboard-response,381,981140,learnblock2,170.19999998807907,img/planet10_left.png,10,Community 3,NA,FALSE,j,f,NA,NA,NA,10,7,"6,7,12,4,15,11,13,9,14,8,3,10,5,1,2"
14998,commdev-image-keyboard-response,382,982406,learnblock2,23.100000023841858,img/planet1_right.png,1,Community 3,NA,TRUE,j,j,NA,NA,NA,10,7,"6,7,12,4,15,11,13,9,14,8,3,10,5,1,2"
14998,commdev-image-keyboard-response,383,983664,learnblock2,20.399999976158142,img/planet10_right.png,10,Community 3,NA,FALSE,f,j,NA,NA,NA,10,7,"6,7,12,4,15,11,13,9,14,8,3,10,5,1,2"
14998,commdev-image-keyboard-response,384,984916,learnblock2,57.60000002384186,img/planet5_left.png,5,Community 3,NA,FALSE,j,f,NA,NA,NA,10,7,"6,7,12,4,15,11,13,9,14,8,3,10,5,1,2"
14998,commdev-image-keyboard-response,385,986171,learnblock2,16.400000035762787,img/planet10_left.png,10,Community 3,NA,FALSE,j,f,NA,NA,NA,10,7,"6,7,12,4,15,11,13,9,14,8,3,10,5,1,2"
14998,commdev-image-keyboard-response,386,987437,learnblock2,167.39999997615814,img/planet9_right.png,9,Community 2,NA,FALSE,f,j,NA,NA,NA,10,7,"6,7,12,4,15,11,13,9,14,8,3,10,5,1,2"
14998,commdev-image-keyboard-response,387,988702,learnblock2,17.899999976158142,img/planet10_right.png,10,Community 3,NA,TRUE,j,j,NA,NA,NA,10,7,"6,7,12,4,15,11,13,9,14,8,3,10,5,1,2"
14998,commdev-image-keyboard-response,388,989957,learnblock2,50.80000001192093,img/planet5_left.png,5,Community 3,NA,TRUE,f,f,NA,NA,NA,10,7,"6,7,12,4,15,11,13,9,14,8,3,10,5,1,2"
14998,commdev-image-keyboard-response,389,991209,learnblock2,212.39999997615814,img/planet1_left.png,1,Community 3,NA,TRUE,f,f,NA,NA,NA,10,7,"6,7,12,4,15,11,13,9,14,8,3,10,5,1,2"
14998,commdev-image-keyboard-response,390,992469,learnblock2,10.399999976158142,img/planet2_left.png,2,Community 3,NA,TRUE,f,f,NA,NA,NA,10,7,"6,7,12,4,15,11,13,9,14,8,3,10,5,1,2"
14998,commdev-image-keyboard-response,391,993731,learnblock2,39.799999952316284,img/planet1_left.png,1,Community 3,NA,FALSE,j,f,NA,NA,NA,10,7,"6,7,12,4,15,11,13,9,14,8,3,10,5,1,2"
14998,commdev-image-keyboard-response,392,994983,learnblock2,166.10000002384186,img/planet3_right.png,3,Community 3,NA,FALSE,f,j,NA,NA,NA,10,7,"6,7,12,4,15,11,13,9,14,8,3,10,5,1,2"
14998,commdev-image-keyboard-response,393,996243,learnblock2,227.9000000357628,img/planet5_left.png,5,Community 3,NA,FALSE,j,f,NA,NA,NA,10,7,"6,7,12,4,15,11,13,9,14,8,3,10,5,1,2"
14998,commdev-image-keyboard-response,394,997511,learnblock2,50.80000001192093,img/planet1_right.png,1,Community 3,NA,TRUE,j,j,NA,NA,NA,10,7,"6,7,12,4,15,11,13,9,14,8,3,10,5,1,2"
14998,commdev-image-keyboard-response,395,998773,learnblock2,159.0999999642372,img/planet10_right.png,10,Community 3,NA,FALSE,f,j,NA,NA,NA,10,7,"6,7,12,4,15,11,13,9,14,8,3,10,5,1,2"
14998,commdev-image-keyboard-response,396,1000026,learnblock2,4.899999976158142,img/planet9_right.png,9,Community 2,NA,TRUE,j,j,NA,NA,NA,10,7,"6,7,12,4,15,11,13,9,14,8,3,10,5,1,2"
14998,commdev-image-keyboard-response,397,1001277,learnblock2,72.90000003576279,img/planet13_left.png,13,Community 2,NA,TRUE,f,f,NA,NA,NA,10,7,"6,7,12,4,15,11,13,9,14,8,3,10,5,1,2"
14998,commdev-image-keyboard-response,398,1002537,learnblock2,48.09999996423721,img/planet9_right.png,9,Community 2,NA,TRUE,j,j,NA,NA,NA,10,7,"6,7,12,4,15,11,13,9,14,8,3,10,5,1,2"
14998,commdev-image-keyboard-response,399,1003795,learnblock2,55.39999997615814,img/planet8_right.png,8,Community 2,NA,FALSE,f,j,NA,NA,NA,10,7,"6,7,12,4,15,11,13,9,14,8,3,10,5,1,2"
14998,commdev-image-keyboard-response,400,1005059,learnblock2,72.40000003576279,img/planet14_left.png,14,Community 2,NA,FALSE,j,f,NA,NA,NA,10,7,"6,7,12,4,15,11,13,9,14,8,3,10,5,1,2"
14998,commdev-image-keyboard-response,401,1006320,learnblock2,4.700000047683716,img/planet9_right.png,9,Community 2,NA,FALSE,f,j,NA,NA,NA,10,7,"6,7,12,4,15,11,13,9,14,8,3,10,5,1,2"
14998,commdev-image-keyboard-response,402,1007573,learnblock2,15.700000047683716,img/planet13_left.png,13,Community 2,NA,TRUE,f,f,NA,NA,NA,10,7,"6,7,12,4,15,11,13,9,14,8,3,10,5,1,2"
14998,commdev-image-keyboard-response,403,1008836,learnblock2,60.19999998807907,img/planet9_left.png,9,Community 2,NA,TRUE,f,f,NA,NA,NA,10,7,"6,7,12,4,15,11,13,9,14,8,3,10,5,1,2"
14998,commdev-image-keyboard-response,404,1010094,learnblock2,49.69999998807907,img/planet8_right.png,8,Community 2,NA,FALSE,f,j,NA,NA,NA,10,7,"6,7,12,4,15,11,13,9,14,8,3,10,5,1,2"
14998,commdev-image-keyboard-response,405,1011346,learnblock2,86.10000002384186,img/planet14_left.png,14,Community 2,NA,FALSE,j,f,NA,NA,NA,10,7,"6,7,12,4,15,11,13,9,14,8,3,10,5,1,2"
14998,commdev-image-keyboard-response,406,1012609,learnblock2,133.5999999642372,img/planet9_left.png,9,Community 2,NA,TRUE,f,f,NA,NA,NA,10,7,"6,7,12,4,15,11,13,9,14,8,3,10,5,1,2"
14998,commdev-image-keyboard-response,407,1013867,learnblock2,171.5999999642372,img/planet10_right.png,10,Community 3,NA,TRUE,j,j,NA,NA,NA,10,7,"6,7,12,4,15,11,13,9,14,8,3,10,5,1,2"
14998,commdev-image-keyboard-response,408,1015131,learnblock2,134,img/planet5_left.png,5,Community 3,NA,TRUE,f,f,NA,NA,NA,10,7,"6,7,12,4,15,11,13,9,14,8,3,10,5,1,2"
14998,commdev-image-keyboard-response,409,1016387,learnblock2,40,img/planet3_left.png,3,Community 3,NA,TRUE,f,f,NA,NA,NA,10,7,"6,7,12,4,15,11,13,9,14,8,3,10,5,1,2"
14998,commdev-image-keyboard-response,410,1017641,learnblock2,101.59999996423721,img/planet15_left.png,15,Community 1,NA,FALSE,j,f,NA,NA,NA,10,7,"6,7,12,4,15,11,13,9,14,8,3,10,5,1,2"
14998,commdev-image-keyboard-response,411,1018901,learnblock2,49,img/planet7_left.png,7,Community 1,NA,FALSE,j,f,NA,NA,NA,10,7,"6,7,12,4,15,11,13,9,14,8,3,10,5,1,2"
14998,commdev-image-keyboard-response,412,1020167,learnblock2,112.30000001192093,img/planet6_right.png,6,Community 1,NA,TRUE,j,j,NA,NA,NA,10,7,"6,7,12,4,15,11,13,9,14,8,3,10,5,1,2"
14998,commdev-image-keyboard-response,413,1021423,learnblock2,75.80000001192093,img/planet12_right.png,12,Community 1,NA,FALSE,f,j,NA,NA,NA,10,7,"6,7,12,4,15,11,13,9,14,8,3,10,5,1,2"
14998,commdev-image-keyboard-response,414,1022683,learnblock2,167.5,img/planet7_right.png,7,Community 1,NA,FALSE,f,j,NA,NA,NA,10,7,"6,7,12,4,15,11,13,9,14,8,3,10,5,1,2"
14998,commdev-image-keyboard-response,415,1023947,learnblock2,38.40000003576279,img/planet6_right.png,6,Community 1,NA,FALSE,f,j,NA,NA,NA,10,7,"6,7,12,4,15,11,13,9,14,8,3,10,5,1,2"
14998,commdev-image-keyboard-response,416,1025200,learnblock2,78.5,img/planet15_right.png,15,Community 1,NA,TRUE,j,j,NA,NA,NA,10,7,"6,7,12,4,15,11,13,9,14,8,3,10,5,1,2"
14998,commdev-image-keyboard-response,417,1026465,learnblock2,180.80000001192093,img/planet6_right.png,6,Community 1,NA,TRUE,j,j,NA,NA,NA,10,7,"6,7,12,4,15,11,13,9,14,8,3,10,5,1,2"
14998,commdev-image-keyboard-response,418,1027729,learnblock2,100.69999998807907,img/planet12_right.png,12,Community 1,NA,FALSE,f,j,NA,NA,NA,10,7,"6,7,12,4,15,11,13,9,14,8,3,10,5,1,2"
14998,commdev-image-keyboard-response,419,1028986,learnblock2,133.69999998807907,img/planet4_left.png,4,Community 1,NA,FALSE,j,f,NA,NA,NA,10,7,"6,7,12,4,15,11,13,9,14,8,3,10,5,1,2"
14998,commdev-image-keyboard-response,420,1030243,learnblock2,15.199999988079071,img/planet12_right.png,12,Community 1,NA,FALSE,f,j,NA,NA,NA,10,7,"6,7,12,4,15,11,13,9,14,8,3,10,5,1,2"
14998,commdev-image-keyboard-response,421,1031496,learnblock2,127.69999998807907,img/planet4_right.png,4,Community 1,NA,FALSE,f,j,NA,NA,NA,10,7,"6,7,12,4,15,11,13,9,14,8,3,10,5,1,2"
14998,commdev-image-keyboard-response,422,1032752,learnblock2,73.90000003576279,img/planet7_left.png,7,Community 1,NA,TRUE,f,f,NA,NA,NA,10,7,"6,7,12,4,15,11,13,9,14,8,3,10,5,1,2"
14998,commdev-image-keyboard-response,423,1034006,learnblock2,37.10000002384186,img/planet12_left.png,12,Community 1,NA,FALSE,j,f,NA,NA,NA,10,7,"6,7,12,4,15,11,13,9,14,8,3,10,5,1,2"
14998,commdev-image-keyboard-response,424,1035265,learnblock2,113,img/planet7_left.png,7,Community 1,NA,TRUE,f,f,NA,NA,NA,10,7,"6,7,12,4,15,11,13,9,14,8,3,10,5,1,2"
14998,commdev-image-keyboard-response,425,1036518,learnblock2,68.19999998807907,img/planet15_right.png,15,Community 1,NA,TRUE,j,j,NA,NA,NA,10,7,"6,7,12,4,15,11,13,9,14,8,3,10,5,1,2"
14998,commdev-image-keyboard-response,426,1037772,learnblock2,83.5,img/planet7_right.png,7,Community 1,NA,TRUE,j,j,NA,NA,NA,10,7,"6,7,12,4,15,11,13,9,14,8,3,10,5,1,2"
14998,commdev-image-keyboard-response,427,1039030,learnblock2,94.20000004768372,img/planet12_left.png,12,Community 1,NA,FALSE,j,f,NA,NA,NA,10,7,"6,7,12,4,15,11,13,9,14,8,3,10,5,1,2"
14998,commdev-image-keyboard-response,428,1040297,learnblock2,123.30000001192093,img/planet4_left.png,4,Community 1,NA,TRUE,f,f,NA,NA,NA,10,7,"6,7,12,4,15,11,13,9,14,8,3,10,5,1,2"
14998,commdev-image-keyboard-response,429,1041561,learnblock2,175,img/planet7_right.png,7,Community 1,NA,TRUE,j,j,NA,NA,NA,10,7,"6,7,12,4,15,11,13,9,14,8,3,10,5,1,2"
14998,commdev-image-keyboard-response,430,1042818,learnblock2,140.5999999642372,img/planet15_right.png,15,Community 1,NA,FALSE,f,j,NA,NA,NA,10,7,"6,7,12,4,15,11,13,9,14,8,3,10,5,1,2"
14998,commdev-image-keyboard-response,431,1044078,learnblock2,24.700000047683716,img/planet12_left.png,12,Community 1,NA,FALSE,j,f,NA,NA,NA,10,7,"6,7,12,4,15,11,13,9,14,8,3,10,5,1,2"
14998,commdev-image-keyboard-response,432,1045332,learnblock2,2.100000023841858,img/planet4_left.png,4,Community 1,NA,TRUE,f,f,NA,NA,NA,10,7,"6,7,12,4,15,11,13,9,14,8,3,10,5,1,2"
14998,commdev-image-keyboard-response,433,1046597,learnblock2,84,img/planet6_left.png,6,Community 1,NA,TRUE,f,f,NA,NA,NA,10,7,"6,7,12,4,15,11,13,9,14,8,3,10,5,1,2"
14998,commdev-image-keyboard-response,434,1047864,learnblock2,67.30000001192093,img/planet7_right.png,7,Community 1,NA,TRUE,j,j,NA,NA,NA,10,7,"6,7,12,4,15,11,13,9,14,8,3,10,5,1,2"
14998,commdev-image-keyboard-response,435,1049115,learnblock2,90.30000001192093,img/planet4_left.png,4,Community 1,NA,FALSE,j,f,NA,NA,NA,10,7,"6,7,12,4,15,11,13,9,14,8,3,10,5,1,2"
14998,commdev-image-keyboard-response,436,1050375,learnblock2,8.5,img/planet7_left.png,7,Community 1,NA,TRUE,f,f,NA,NA,NA,10,7,"6,7,12,4,15,11,13,9,14,8,3,10,5,1,2"
14998,commdev-image-keyboard-response,437,1051636,learnblock2,94.10000002384186,img/planet12_right.png,12,Community 1,NA,FALSE,f,j,NA,NA,NA,10,7,"6,7,12,4,15,11,13,9,14,8,3,10,5,1,2"
14998,commdev-image-keyboard-response,438,1052890,learnblock2,28.69999998807907,img/planet15_right.png,15,Community 1,NA,TRUE,j,j,NA,NA,NA,10,7,"6,7,12,4,15,11,13,9,14,8,3,10,5,1,2"
14998,commdev-image-keyboard-response,439,1054152,learnblock2,24.599999964237213,img/planet7_right.png,7,Community 1,NA,FALSE,f,j,NA,NA,NA,10,7,"6,7,12,4,15,11,13,9,14,8,3,10,5,1,2"
14998,commdev-image-keyboard-response,440,1055404,learnblock2,71.80000001192093,img/planet6_right.png,6,Community 1,NA,TRUE,j,j,NA,NA,NA,10,7,"6,7,12,4,15,11,13,9,14,8,3,10,5,1,2"
14998,commdev-image-keyboard-response,441,1056665,learnblock2,190.69999998807907,img/planet12_left.png,12,Community 1,NA,FALSE,j,f,NA,NA,NA,10,7,"6,7,12,4,15,11,13,9,14,8,3,10,5,1,2"
14998,commdev-image-keyboard-response,442,1057924,learnblock2,3.299999952316284,img/planet6_right.png,6,Community 1,NA,TRUE,j,j,NA,NA,NA,10,7,"6,7,12,4,15,11,13,9,14,8,3,10,5,1,2"
14998,commdev-image-keyboard-response,443,1059187,learnblock2,36,img/planet12_right.png,12,Community 1,NA,TRUE,j,j,NA,NA,NA,10,7,"6,7,12,4,15,11,13,9,14,8,3,10,5,1,2"
14998,commdev-image-keyboard-response,444,1060448,learnblock2,28.100000023841858,img/planet7_right.png,7,Community 1,NA,FALSE,f,j,NA,NA,NA,10,7,"6,7,12,4,15,11,13,9,14,8,3,10,5,1,2"
14998,commdev-image-keyboard-response,445,1061707,learnblock2,180,img/planet15_left.png,15,Community 1,NA,TRUE,f,f,NA,NA,NA,10,7,"6,7,12,4,15,11,13,9,14,8,3,10,5,1,2"
14998,commdev-image-keyboard-response,446,1062965,learnblock2,71.39999997615814,img/planet7_right.png,7,Community 1,NA,TRUE,j,j,NA,NA,NA,10,7,"6,7,12,4,15,11,13,9,14,8,3,10,5,1,2"
14998,commdev-image-keyboard-response,447,1064218,learnblock2,175.39999997615814,img/planet6_right.png,6,Community 1,NA,TRUE,j,j,NA,NA,NA,10,7,"6,7,12,4,15,11,13,9,14,8,3,10,5,1,2"
14998,commdev-image-keyboard-response,448,1065484,learnblock2,84.60000002384186,img/planet7_left.png,7,Community 1,NA,TRUE,f,f,NA,NA,NA,10,7,"6,7,12,4,15,11,13,9,14,8,3,10,5,1,2"
14998,commdev-image-keyboard-response,449,1066737,learnblock2,133.80000001192093,img/planet4_right.png,4,Community 1,NA,FALSE,f,j,NA,NA,NA,10,7,"6,7,12,4,15,11,13,9,14,8,3,10,5,1,2"
14998,commdev-image-keyboard-response,450,1067995,learnblock2,108,img/planet6_right.png,6,Community 1,NA,TRUE,j,j,NA,NA,NA,10,7,"6,7,12,4,15,11,13,9,14,8,3,10,5,1,2"
14998,commdev-image-keyboard-response,451,1069269,learnblock2,0.5,img/planet12_left.png,12,Community 1,NA,TRUE,f,f,NA,NA,NA,10,7,"6,7,12,4,15,11,13,9,14,8,3,10,5,1,2"
14998,commdev-image-keyboard-response,452,1070527,learnblock2,2,img/planet15_right.png,15,Community 1,NA,TRUE,j,j,NA,NA,NA,10,7,"6,7,12,4,15,11,13,9,14,8,3,10,5,1,2"
14998,commdev-image-keyboard-response,453,1071786,learnblock2,23.30000001192093,img/planet6_right.png,6,Community 1,NA,TRUE,j,j,NA,NA,NA,10,7,"6,7,12,4,15,11,13,9,14,8,3,10,5,1,2"
14998,commdev-image-keyboard-response,454,1073044,learnblock2,40.89999997615814,img/planet12_left.png,12,Community 1,NA,TRUE,f,f,NA,NA,NA,10,7,"6,7,12,4,15,11,13,9,14,8,3,10,5,1,2"
14998,commdev-image-keyboard-response,455,1074302,learnblock2,58.59999996423721,img/planet15_left.png,15,Community 1,NA,TRUE,f,f,NA,NA,NA,10,7,"6,7,12,4,15,11,13,9,14,8,3,10,5,1,2"
14998,commdev-image-keyboard-response,456,1075556,learnblock2,4.399999976158142,img/planet3_right.png,3,Community 3,NA,FALSE,f,j,NA,NA,NA,10,7,"6,7,12,4,15,11,13,9,14,8,3,10,5,1,2"
14998,commdev-image-keyboard-response,457,1076810,learnblock2,21.80000001192093,img/planet2_left.png,2,Community 3,NA,TRUE,f,f,NA,NA,NA,10,7,"6,7,12,4,15,11,13,9,14,8,3,10,5,1,2"
14998,commdev-image-keyboard-response,458,1078062,learnblock2,36.5,img/planet10_right.png,10,Community 3,NA,TRUE,j,j,NA,NA,NA,10,7,"6,7,12,4,15,11,13,9,14,8,3,10,5,1,2"
14998,commdev-image-keyboard-response,459,1079319,learnblock2,50.69999998807907,img/planet9_left.png,9,Community 2,NA,FALSE,j,f,NA,NA,NA,10,7,"6,7,12,4,15,11,13,9,14,8,3,10,5,1,2"
14998,commdev-image-keyboard-response,460,1080583,learnblock2,6.600000023841858,img/planet13_right.png,13,Community 2,NA,FALSE,f,j,NA,NA,NA,10,7,"6,7,12,4,15,11,13,9,14,8,3,10,5,1,2"
14998,commdev-image-keyboard-response,461,1081842,learnblock2,15.800000011920929,img/planet9_left.png,9,Community 2,NA,TRUE,f,f,NA,NA,NA,10,7,"6,7,12,4,15,11,13,9,14,8,3,10,5,1,2"
14998,commdev-image-keyboard-response,462,1083105,learnblock2,34.89999997615814,img/planet13_right.png,13,Community 2,NA,TRUE,j,j,NA,NA,NA,10,7,"6,7,12,4,15,11,13,9,14,8,3,10,5,1,2"
14998,commdev-image-keyboard-response,463,1084369,learnblock2,24.5,img/planet9_right.png,9,Community 2,NA,TRUE,j,j,NA,NA,NA,10,7,"6,7,12,4,15,11,13,9,14,8,3,10,5,1,2"
14998,commdev-image-keyboard-response,464,1085623,learnblock2,56.60000002384186,img/planet8_left.png,8,Community 2,NA,TRUE,f,f,NA,NA,NA,10,7,"6,7,12,4,15,11,13,9,14,8,3,10,5,1,2"
14998,commdev-image-keyboard-response,465,1086876,learnblock2,21.799999952316284,img/planet13_right.png,13,Community 2,NA,FALSE,f,j,NA,NA,NA,10,7,"6,7,12,4,15,11,13,9,14,8,3,10,5,1,2"
14998,commdev-image-keyboard-response,466,1088132,learnblock2,58.90000003576279,img/planet14_right.png,14,Community 2,NA,TRUE,j,j,NA,NA,NA,10,7,"6,7,12,4,15,11,13,9,14,8,3,10,5,1,2"
14998,commdev-image-keyboard-response,467,1089390,learnblock2,108,img/planet11_right.png,11,Community 2,NA,TRUE,j,j,NA,NA,NA,10,7,"6,7,12,4,15,11,13,9,14,8,3,10,5,1,2"
14998,commdev-image-keyboard-response,468,1090652,learnblock2,16.69999998807907,img/planet13_right.png,13,Community 2,NA,TRUE,j,j,NA,NA,NA,10,7,"6,7,12,4,15,11,13,9,14,8,3,10,5,1,2"
14998,commdev-image-keyboard-response,469,1091918,learnblock2,91.10000002384186,img/planet11_right.png,11,Community 2,NA,FALSE,f,j,NA,NA,NA,10,7,"6,7,12,4,15,11,13,9,14,8,3,10,5,1,2"
14998,commdev-image-keyboard-response,470,1093171,learnblock2,38.60000002384186,img/planet4_left.png,4,Community 1,NA,TRUE,f,f,NA,NA,NA,10,7,"6,7,12,4,15,11,13,9,14,8,3,10,5,1,2"
14998,commdev-image-keyboard-response,471,1094434,learnblock2,134,img/planet7_left.png,7,Community 1,NA,TRUE,f,f,NA,NA,NA,10,7,"6,7,12,4,15,11,13,9,14,8,3,10,5,1,2"
14998,commdev-image-keyboard-response,472,1095687,learnblock2,44.69999998807907,img/planet15_left.png,15,Community 1,NA,FALSE,j,f,NA,NA,NA,10,7,"6,7,12,4,15,11,13,9,14,8,3,10,5,1,2"
14998,commdev-image-keyboard-response,473,1096950,learnblock2,94,img/planet3_left.png,3,Community 3,NA,TRUE,f,f,NA,NA,NA,10,7,"6,7,12,4,15,11,13,9,14,8,3,10,5,1,2"
14998,commdev-image-keyboard-response,474,1098212,learnblock2,159.5999999642372,img/planet5_right.png,5,Community 3,NA,FALSE,f,j,NA,NA,NA,10,7,"6,7,12,4,15,11,13,9,14,8,3,10,5,1,2"
14998,commdev-image-keyboard-response,475,1099473,learnblock2,21,img/planet10_right.png,10,Community 3,NA,FALSE,f,j,NA,NA,NA,10,7,"6,7,12,4,15,11,13,9,14,8,3,10,5,1,2"
14998,commdev-image-keyboard-response,476,1100736,learnblock2,2.800000011920929,img/planet9_left.png,9,Community 2,NA,FALSE,j,f,NA,NA,NA,10,7,"6,7,12,4,15,11,13,9,14,8,3,10,5,1,2"
14998,commdev-image-keyboard-response,477,1102001,learnblock2,74.80000001192093,img/planet14_right.png,14,Community 2,NA,TRUE,j,j,NA,NA,NA,10,7,"6,7,12,4,15,11,13,9,14,8,3,10,5,1,2"
14998,commdev-image-keyboard-response,478,1103267,learnblock2,22.700000047683716,img/planet13_left.png,13,Community 2,NA,FALSE,j,f,NA,NA,NA,10,7,"6,7,12,4,15,11,13,9,14,8,3,10,5,1,2"
14998,commdev-image-keyboard-response,479,1104530,learnblock2,43.80000001192093,img/planet14_left.png,14,Community 2,NA,TRUE,f,f,NA,NA,NA,10,7,"6,7,12,4,15,11,13,9,14,8,3,10,5,1,2"
14998,commdev-image-keyboard-response,480,1105782,learnblock2,33.39999997615814,img/planet8_right.png,8,Community 2,NA,TRUE,j,j,NA,NA,NA,10,7,"6,7,12,4,15,11,13,9,14,8,3,10,5,1,2"
14998,commdev-image-keyboard-response,481,1107047,learnblock2,58.5,img/planet9_right.png,9,Community 2,NA,TRUE,j,j,NA,NA,NA,10,7,"6,7,12,4,15,11,13,9,14,8,3,10,5,1,2"
14998,commdev-image-keyboard-response,482,1108305,learnblock2,26.30000001192093,img/planet8_right.png,8,Community 2,NA,TRUE,j,j,NA,NA,NA,10,7,"6,7,12,4,15,11,13,9,14,8,3,10,5,1,2"
14998,commdev-image-keyboard-response,483,1109570,learnblock2,46.200000047683716,img/planet11_left.png,11,Community 2,NA,TRUE,f,f,NA,NA,NA,10,7,"6,7,12,4,15,11,13,9,14,8,3,10,5,1,2"
14998,commdev-image-keyboard-response,484,1110829,learnblock2,97.5,img/planet8_right.png,8,Community 2,NA,FALSE,f,j,NA,NA,NA,10,7,"6,7,12,4,15,11,13,9,14,8,3,10,5,1,2"
14998,commdev-image-keyboard-response,485,1112081,learnblock2,66.60000002384186,img/planet9_left.png,9,Community 2,NA,FALSE,j,f,NA,NA,NA,10,7,"6,7,12,4,15,11,13,9,14,8,3,10,5,1,2"
14998,commdev-image-keyboard-response,486,1113340,learnblock2,25.80000001192093,img/planet13_left.png,13,Community 2,NA,TRUE,f,f,NA,NA,NA,10,7,"6,7,12,4,15,11,13,9,14,8,3,10,5,1,2"
14998,commdev-image-keyboard-response,487,1114593,learnblock2,50.10000002384186,img/planet9_right.png,9,Community 2,NA,FALSE,f,j,NA,NA,NA,10,7,"6,7,12,4,15,11,13,9,14,8,3,10,5,1,2"
14998,commdev-image-keyboard-response,488,1115850,learnblock2,16.19999998807907,img/planet13_left.png,13,Community 2,NA,FALSE,j,f,NA,NA,NA,10,7,"6,7,12,4,15,11,13,9,14,8,3,10,5,1,2"
14998,commdev-image-keyboard-response,489,1117101,learnblock2,76.39999997615814,img/planet9_right.png,9,Community 2,NA,TRUE,j,j,NA,NA,NA,10,7,"6,7,12,4,15,11,13,9,14,8,3,10,5,1,2"
14998,commdev-image-keyboard-response,490,1118355,learnblock2,30.200000047683716,img/planet14_right.png,14,Community 2,NA,FALSE,f,j,NA,NA,NA,10,7,"6,7,12,4,15,11,13,9,14,8,3,10,5,1,2"
14998,commdev-image-keyboard-response,491,1119615,learnblock2,11,img/planet13_left.png,13,Community 2,NA,TRUE,f,f,NA,NA,NA,10,7,"6,7,12,4,15,11,13,9,14,8,3,10,5,1,2"
14998,commdev-image-keyboard-response,492,1120872,learnblock2,94.39999997615814,img/planet14_left.png,14,Community 2,NA,FALSE,j,f,NA,NA,NA,10,7,"6,7,12,4,15,11,13,9,14,8,3,10,5,1,2"
14998,commdev-image-keyboard-response,493,1122128,learnblock2,62.60000002384186,img/planet11_left.png,11,Community 2,NA,TRUE,f,f,NA,NA,NA,10,7,"6,7,12,4,15,11,13,9,14,8,3,10,5,1,2"
14998,commdev-image-keyboard-response,494,1123382,learnblock2,22.69999998807907,img/planet14_left.png,14,Community 2,NA,FALSE,j,f,NA,NA,NA,10,7,"6,7,12,4,15,11,13,9,14,8,3,10,5,1,2"
14998,commdev-image-keyboard-response,495,1124633,learnblock2,127.79999995231628,img/planet8_right.png,8,Community 2,NA,TRUE,j,j,NA,NA,NA,10,7,"6,7,12,4,15,11,13,9,14,8,3,10,5,1,2"
14998,commdev-image-keyboard-response,496,1125885,learnblock2,90.79999995231628,img/planet9_right.png,9,Community 2,NA,FALSE,f,j,NA,NA,NA,10,7,"6,7,12,4,15,11,13,9,14,8,3,10,5,1,2"
14998,commdev-image-keyboard-response,497,1127159,learnblock2,47.30000001192093,img/planet13_right.png,13,Community 2,NA,FALSE,f,j,NA,NA,NA,10,7,"6,7,12,4,15,11,13,9,14,8,3,10,5,1,2"
14998,commdev-image-keyboard-response,498,1128413,learnblock2,279.0999999642372,img/planet11_right.png,11,Community 2,NA,FALSE,f,j,NA,NA,NA,10,7,"6,7,12,4,15,11,13,9,14,8,3,10,5,1,2"
14998,commdev-image-keyboard-response,499,1129676,learnblock2,273,img/planet13_left.png,13,Community 2,NA,FALSE,j,f,NA,NA,NA,10,7,"6,7,12,4,15,11,13,9,14,8,3,10,5,1,2"
14998,commdev-image-keyboard-response,500,1130928,learnblock2,285.10000002384186,img/planet11_left.png,11,Community 2,NA,FALSE,j,f,NA,NA,NA,10,7,"6,7,12,4,15,11,13,9,14,8,3,10,5,1,2"
14998,commdev-image-keyboard-response,501,1132188,learnblock2,833.6000000238419,img/planet14_left.png,14,Community 2,NA,TRUE,f,f,NA,NA,NA,10,7,"6,7,12,4,15,11,13,9,14,8,3,10,5,1,2"
14998,commdev-image-keyboard-response,502,1133444,learnblock2,218.10000002384186,img/planet9_right.png,9,Community 2,NA,TRUE,j,j,NA,NA,NA,10,7,"6,7,12,4,15,11,13,9,14,8,3,10,5,1,2"
14998,commdev-image-keyboard-response,503,1134703,learnblock2,271.69999998807907,img/planet10_left.png,10,Community 3,NA,TRUE,f,f,NA,NA,NA,10,7,"6,7,12,4,15,11,13,9,14,8,3,10,5,1,2"
14998,commdev-image-keyboard-response,504,1135959,learnblock2,1232.5,img/planet5_left.png,5,Community 3,NA,TRUE,f,f,NA,NA,NA,10,7,"6,7,12,4,15,11,13,9,14,8,3,10,5,1,2"
14998,commdev-image-keyboard-response,505,1137210,learnblock2,503.30000001192093,img/planet2_right.png,2,Community 3,NA,TRUE,j,j,NA,NA,NA,10,7,"6,7,12,4,15,11,13,9,14,8,3,10,5,1,2"
14998,commdev-image-keyboard-response,506,1138471,learnblock2,769.9000000357628,img/planet3_left.png,3,Community 3,NA,TRUE,f,f,NA,NA,NA,10,7,"6,7,12,4,15,11,13,9,14,8,3,10,5,1,2"
14998,commdev-image-keyboard-response,507,1139724,learnblock2,25.399999976158142,img/planet5_left.png,5,Community 3,NA,FALSE,j,f,NA,NA,NA,10,7,"6,7,12,4,15,11,13,9,14,8,3,10,5,1,2"
14998,commdev-image-keyboard-response,508,1140981,learnblock2,300.30000001192093,img/planet3_left.png,3,Community 3,NA,TRUE,f,f,NA,NA,NA,10,7,"6,7,12,4,15,11,13,9,14,8,3,10,5,1,2"
14998,commdev-image-keyboard-response,509,1142242,learnblock2,null,img/planet5_right.png,5,Community 3,NA,FALSE,null,j,NA,NA,NA,10,7,"6,7,12,4,15,11,13,9,14,8,3,10,5,1,2"
14998,commdev-image-keyboard-response,510,1143494,learnblock2,113.60000002384186,img/planet3_left.png,3,Community 3,NA,FALSE,j,f,NA,NA,NA,10,7,"6,7,12,4,15,11,13,9,14,8,3,10,5,1,2"
14998,commdev-image-keyboard-response,511,1144752,learnblock2,651.1999999880791,img/planet1_left.png,1,Community 3,NA,FALSE,j,f,NA,NA,NA,10,7,"6,7,12,4,15,11,13,9,14,8,3,10,5,1,2"
14998,commdev-image-keyboard-response,512,1146007,learnblock2,89.70000004768372,img/planet3_right.png,3,Community 3,NA,FALSE,f,j,NA,NA,NA,10,7,"6,7,12,4,15,11,13,9,14,8,3,10,5,1,2"
14998,commdev-image-keyboard-response,513,1147271,learnblock2,185.79999995231628,img/planet5_left.png,5,Community 3,NA,FALSE,j,f,NA,NA,NA,10,7,"6,7,12,4,15,11,13,9,14,8,3,10,5,1,2"
14998,commdev-image-keyboard-response,514,1148532,learnblock2,961.8000000119209,img/planet1_left.png,1,Community 3,NA,FALSE,j,f,NA,NA,NA,10,7,"6,7,12,4,15,11,13,9,14,8,3,10,5,1,2"
14998,commdev-image-keyboard-response,515,1149805,learnblock2,255,img/planet3_left.png,3,Community 3,NA,TRUE,f,f,NA,NA,NA,10,7,"6,7,12,4,15,11,13,9,14,8,3,10,5,1,2"
14998,commdev-image-keyboard-response,516,1151081,learnblock2,446.30000001192093,img/planet5_left.png,5,Community 3,NA,FALSE,j,f,NA,NA,NA,10,7,"6,7,12,4,15,11,13,9,14,8,3,10,5,1,2"
14998,commdev-image-keyboard-response,517,1152344,learnblock2,null,img/planet1_left.png,1,Community 3,NA,FALSE,null,f,NA,NA,NA,10,7,"6,7,12,4,15,11,13,9,14,8,3,10,5,1,2"
14998,commdev-image-keyboard-response,518,1153606,learnblock2,18.200000047683716,img/planet2_left.png,2,Community 3,NA,FALSE,j,f,NA,NA,NA,10,7,"6,7,12,4,15,11,13,9,14,8,3,10,5,1,2"
14998,commdev-image-keyboard-response,519,1154865,learnblock2,442.10000002384186,img/planet10_right.png,10,Community 3,NA,TRUE,j,j,NA,NA,NA,10,7,"6,7,12,4,15,11,13,9,14,8,3,10,5,1,2"
14998,commdev-image-keyboard-response,520,1156128,learnblock2,154.80000001192093,img/planet2_right.png,2,Community 3,NA,FALSE,f,j,NA,NA,NA,10,7,"6,7,12,4,15,11,13,9,14,8,3,10,5,1,2"
14998,commdev-image-keyboard-response,521,1157383,learnblock2,null,img/planet10_left.png,10,Community 3,NA,FALSE,null,f,NA,NA,NA,10,7,"6,7,12,4,15,11,13,9,14,8,3,10,5,1,2"
14998,commdev-image-keyboard-response,522,1158647,learnblock2,199.30000001192093,img/planet1_left.png,1,Community 3,NA,FALSE,j,f,NA,NA,NA,10,7,"6,7,12,4,15,11,13,9,14,8,3,10,5,1,2"
14998,commdev-image-keyboard-response,523,1159907,learnblock2,828.3999999761581,img/planet10_left.png,10,Community 3,NA,FALSE,j,f,NA,NA,NA,10,7,"6,7,12,4,15,11,13,9,14,8,3,10,5,1,2"
14998,commdev-image-keyboard-response,524,1161163,learnblock2,646.3999999761581,img/planet9_left.png,9,Community 2,NA,TRUE,f,f,NA,NA,NA,10,7,"6,7,12,4,15,11,13,9,14,8,3,10,5,1,2"
14998,commdev-image-keyboard-response,525,1162420,learnblock2,312.19999998807907,img/planet14_right.png,14,Community 2,NA,TRUE,j,j,NA,NA,NA,10,7,"6,7,12,4,15,11,13,9,14,8,3,10,5,1,2"
14998,commdev-image-keyboard-response,526,1163680,learnblock2,909,img/planet8_left.png,8,Community 2,NA,FALSE,j,f,NA,NA,NA,10,7,"6,7,12,4,15,11,13,9,14,8,3,10,5,1,2"
14998,commdev-image-keyboard-response,527,1164934,learnblock2,663.6000000238419,img/planet11_left.png,11,Community 2,NA,TRUE,f,f,NA,NA,NA,10,7,"6,7,12,4,15,11,13,9,14,8,3,10,5,1,2"
14998,commdev-image-keyboard-response,528,1166195,learnblock2,287.69999998807907,img/planet14_right.png,14,Community 2,NA,TRUE,j,j,NA,NA,NA,10,7,"6,7,12,4,15,11,13,9,14,8,3,10,5,1,2"
14998,commdev-image-keyboard-response,529,1167460,learnblock2,958,img/planet8_left.png,8,Community 2,NA,FALSE,j,f,NA,NA,NA,10,7,"6,7,12,4,15,11,13,9,14,8,3,10,5,1,2"
14998,commdev-image-keyboard-response,530,1168731,learnblock2,909.6000000238419,img/planet9_right.png,9,Community 2,NA,FALSE,f,j,NA,NA,NA,10,7,"6,7,12,4,15,11,13,9,14,8,3,10,5,1,2"
14998,commdev-image-keyboard-response,531,1169996,learnblock2,684.3999999761581,img/planet14_left.png,14,Community 2,NA,FALSE,j,f,NA,NA,NA,10,7,"6,7,12,4,15,11,13,9,14,8,3,10,5,1,2"
14998,commdev-image-keyboard-response,532,1171260,learnblock2,289.80000001192093,img/planet11_left.png,11,Community 2,NA,TRUE,f,f,NA,NA,NA,10,7,"6,7,12,4,15,11,13,9,14,8,3,10,5,1,2"
14998,commdev-image-keyboard-response,533,1172535,learnblock2,272.39999997615814,img/planet14_left.png,14,Community 2,NA,FALSE,j,f,NA,NA,NA,10,7,"6,7,12,4,15,11,13,9,14,8,3,10,5,1,2"
14998,commdev-image-keyboard-response,534,1173798,learnblock2,172.79999995231628,img/planet8_left.png,8,Community 2,NA,TRUE,f,f,NA,NA,NA,10,7,"6,7,12,4,15,11,13,9,14,8,3,10,5,1,2"
14998,commdev-image-keyboard-response,535,1175057,learnblock2,925,img/planet9_right.png,9,Community 2,NA,FALSE,f,j,NA,NA,NA,10,7,"6,7,12,4,15,11,13,9,14,8,3,10,5,1,2"
14998,commdev-image-keyboard-response,536,1176321,learnblock2,589.1999999880791,img/planet10_right.png,10,Community 3,NA,TRUE,j,j,NA,NA,NA,10,7,"6,7,12,4,15,11,13,9,14,8,3,10,5,1,2"
14998,commdev-image-keyboard-response,537,1177582,learnblock2,277.39999997615814,img/planet1_right.png,1,Community 3,NA,FALSE,f,j,NA,NA,NA,10,7,"6,7,12,4,15,11,13,9,14,8,3,10,5,1,2"
14998,commdev-image-keyboard-response,538,1178843,learnblock2,135.39999997615814,img/planet5_right.png,5,Community 3,NA,TRUE,j,j,NA,NA,NA,10,7,"6,7,12,4,15,11,13,9,14,8,3,10,5,1,2"
14998,commdev-image-keyboard-response,539,1180109,learnblock2,75.60000002384186,img/planet2_left.png,2,Community 3,NA,FALSE,j,f,NA,NA,NA,10,7,"6,7,12,4,15,11,13,9,14,8,3,10,5,1,2"
14998,commdev-image-keyboard-response,540,1181367,learnblock2,1189.8999999761581,img/planet10_left.png,10,Community 3,NA,TRUE,f,f,NA,NA,NA,10,7,"6,7,12,4,15,11,13,9,14,8,3,10,5,1,2"
14998,commdev-image-keyboard-response,541,1182625,learnblock2,303.4000000357628,img/planet9_left.png,9,Community 2,NA,FALSE,j,f,NA,NA,NA,10,7,"6,7,12,4,15,11,13,9,14,8,3,10,5,1,2"
14998,commdev-image-keyboard-response,542,1183899,learnblock2,244.80000001192093,img/planet13_right.png,13,Community 2,NA,FALSE,f,j,NA,NA,NA,10,7,"6,7,12,4,15,11,13,9,14,8,3,10,5,1,2"
14998,commdev-image-keyboard-response,543,1185163,learnblock2,14.899999976158142,img/planet8_right.png,8,Community 2,NA,TRUE,j,j,NA,NA,NA,10,7,"6,7,12,4,15,11,13,9,14,8,3,10,5,1,2"
14998,commdev-image-keyboard-response,544,1186423,learnblock2,154.79999995231628,img/planet13_right.png,13,Community 2,NA,TRUE,j,j,NA,NA,NA,10,7,"6,7,12,4,15,11,13,9,14,8,3,10,5,1,2"
14998,commdev-image-keyboard-response,545,1187687,learnblock2,415.7000000476837,img/planet9_right.png,9,Community 2,NA,TRUE,j,j,NA,NA,NA,10,7,"6,7,12,4,15,11,13,9,14,8,3,10,5,1,2"
14998,commdev-image-keyboard-response,546,1188947,learnblock2,220.30000001192093,img/planet8_right.png,8,Community 2,NA,FALSE,f,j,NA,NA,NA,10,7,"6,7,12,4,15,11,13,9,14,8,3,10,5,1,2"
14998,commdev-image-keyboard-response,547,1190207,learnblock2,838.3999999761581,img/planet11_left.png,11,Community 2,NA,TRUE,f,f,NA,NA,NA,10,7,"6,7,12,4,15,11,13,9,14,8,3,10,5,1,2"
14998,commdev-image-keyboard-response,548,1191473,learnblock2,300.5,img/planet8_left.png,8,Community 2,NA,FALSE,j,f,NA,NA,NA,10,7,"6,7,12,4,15,11,13,9,14,8,3,10,5,1,2"
14998,commdev-image-keyboard-response,549,1192737,learnblock2,172.80000001192093,img/planet9_left.png,9,Community 2,NA,TRUE,f,f,NA,NA,NA,10,7,"6,7,12,4,15,11,13,9,14,8,3,10,5,1,2"
14998,commdev-image-keyboard-response,550,1193997,learnblock2,39.10000002384186,img/planet10_right.png,10,Community 3,NA,TRUE,j,j,NA,NA,NA,10,7,"6,7,12,4,15,11,13,9,14,8,3,10,5,1,2"
14998,commdev-image-keyboard-response,551,1195259,learnblock2,202.69999998807907,img/planet5_left.png,5,Community 3,NA,TRUE,f,f,NA,NA,NA,10,7,"6,7,12,4,15,11,13,9,14,8,3,10,5,1,2"
14998,commdev-image-keyboard-response,552,1196519,learnblock2,141.39999997615814,img/planet3_right.png,3,Community 3,NA,TRUE,j,j,NA,NA,NA,10,7,"6,7,12,4,15,11,13,9,14,8,3,10,5,1,2"
14998,commdev-image-keyboard-response,553,1197782,learnblock2,236.5,img/planet15_left.png,15,Community 1,NA,FALSE,j,f,NA,NA,NA,10,7,"6,7,12,4,15,11,13,9,14,8,3,10,5,1,2"
14998,commdev-image-keyboard-response,554,1199043,learnblock2,321.10000002384186,img/planet7_right.png,7,Community 1,NA,FALSE,f,j,NA,NA,NA,10,7,"6,7,12,4,15,11,13,9,14,8,3,10,5,1,2"
14998,commdev-image-keyboard-response,555,1200293,learnblock2,204.79999995231628,img/planet4_right.png,4,Community 1,NA,TRUE,j,j,NA,NA,NA,10,7,"6,7,12,4,15,11,13,9,14,8,3,10,5,1,2"
14998,commdev-image-keyboard-response,556,1201550,learnblock2,null,img/planet6_left.png,6,Community 1,NA,FALSE,null,f,NA,NA,NA,10,7,"6,7,12,4,15,11,13,9,14,8,3,10,5,1,2"
14998,commdev-image-keyboard-response,557,1202804,learnblock2,185,img/planet12_left.png,12,Community 1,NA,TRUE,f,f,NA,NA,NA,10,7,"6,7,12,4,15,11,13,9,14,8,3,10,5,1,2"
14998,commdev-image-keyboard-response,558,1204057,learnblock2,227.5999999642372,img/planet7_right.png,7,Community 1,NA,TRUE,j,j,NA,NA,NA,10,7,"6,7,12,4,15,11,13,9,14,8,3,10,5,1,2"
14998,commdev-image-keyboard-response,559,1205331,learnblock2,240.30000001192093,img/planet15_left.png,15,Community 1,NA,TRUE,f,f,NA,NA,NA,10,7,"6,7,12,4,15,11,13,9,14,8,3,10,5,1,2"
14998,commdev-image-keyboard-response,560,1206589,learnblock2,1077.8999999761581,img/planet12_left.png,12,Community 1,NA,TRUE,f,f,NA,NA,NA,10,7,"6,7,12,4,15,11,13,9,14,8,3,10,5,1,2"
14998,commdev-image-keyboard-response,561,1207847,learnblock2,981.1000000238419,img/planet7_right.png,7,Community 1,NA,TRUE,j,j,NA,NA,NA,10,7,"6,7,12,4,15,11,13,9,14,8,3,10,5,1,2"
14998,commdev-image-keyboard-response,562,1209103,learnblock2,1111.1000000238419,img/planet15_left.png,15,Community 1,NA,TRUE,f,f,NA,NA,NA,10,7,"6,7,12,4,15,11,13,9,14,8,3,10,5,1,2"
14998,commdev-image-keyboard-response,563,1210360,learnblock2,null,img/planet7_left.png,7,Community 1,NA,FALSE,null,f,NA,NA,NA,10,7,"6,7,12,4,15,11,13,9,14,8,3,10,5,1,2"
14998,commdev-image-keyboard-response,564,1211612,learnblock2,106.10000002384186,img/planet4_left.png,4,Community 1,NA,FALSE,j,f,NA,NA,NA,10,7,"6,7,12,4,15,11,13,9,14,8,3,10,5,1,2"
14998,commdev-image-keyboard-response,565,1212863,learnblock2,207.4000000357628,img/planet11_left.png,11,Community 2,NA,TRUE,f,f,NA,NA,NA,10,7,"6,7,12,4,15,11,13,9,14,8,3,10,5,1,2"
14998,commdev-image-keyboard-response,566,1214119,learnblock2,125.89999997615814,img/planet13_right.png,13,Community 2,NA,TRUE,j,j,NA,NA,NA,10,7,"6,7,12,4,15,11,13,9,14,8,3,10,5,1,2"
14998,commdev-image-keyboard-response,567,1215372,learnblock2,43.299999952316284,img/planet14_left.png,14,Community 2,NA,TRUE,f,f,NA,NA,NA,10,7,"6,7,12,4,15,11,13,9,14,8,3,10,5,1,2"
14998,commdev-image-keyboard-response,568,1216626,learnblock2,11.399999976158142,img/planet8_right.png,8,Community 2,NA,TRUE,j,j,NA,NA,NA,10,7,"6,7,12,4,15,11,13,9,14,8,3,10,5,1,2"
14998,commdev-image-keyboard-response,569,1217883,learnblock2,266.0999999642372,img/planet14_left.png,14,Community 2,NA,FALSE,j,f,NA,NA,NA,10,7,"6,7,12,4,15,11,13,9,14,8,3,10,5,1,2"
14998,commdev-image-keyboard-response,570,1219152,learnblock2,55.5,img/planet8_right.png,8,Community 2,NA,FALSE,f,j,NA,NA,NA,10,7,"6,7,12,4,15,11,13,9,14,8,3,10,5,1,2"
14998,commdev-image-keyboard-response,571,1220420,learnblock2,null,img/planet11_right.png,11,Community 2,NA,FALSE,null,j,NA,NA,NA,10,7,"6,7,12,4,15,11,13,9,14,8,3,10,5,1,2"
14998,commdev-image-keyboard-response,572,1221681,learnblock2,53.69999998807907,img/planet8_left.png,8,Community 2,NA,TRUE,f,f,NA,NA,NA,10,7,"6,7,12,4,15,11,13,9,14,8,3,10,5,1,2"
14998,commdev-image-keyboard-response,573,1222954,learnblock2,null,img/planet11_right.png,11,Community 2,NA,FALSE,null,j,NA,NA,NA,10,7,"6,7,12,4,15,11,13,9,14,8,3,10,5,1,2"
14998,commdev-image-keyboard-response,574,1224215,learnblock2,121.60000002384186,img/planet8_left.png,8,Community 2,NA,TRUE,f,f,NA,NA,NA,10,7,"6,7,12,4,15,11,13,9,14,8,3,10,5,1,2"
14998,commdev-image-keyboard-response,575,1225475,learnblock2,846.5,img/planet13_left.png,13,Community 2,NA,FALSE,j,f,NA,NA,NA,10,7,"6,7,12,4,15,11,13,9,14,8,3,10,5,1,2"
14998,commdev-image-keyboard-response,576,1226737,learnblock2,281.10000002384186,img/planet9_left.png,9,Community 2,NA,TRUE,f,f,NA,NA,NA,10,7,"6,7,12,4,15,11,13,9,14,8,3,10,5,1,2"
14998,commdev-image-keyboard-response,577,1227999,learnblock2,1014.4000000357628,img/planet14_right.png,14,Community 2,NA,FALSE,f,j,NA,NA,NA,10,7,"6,7,12,4,15,11,13,9,14,8,3,10,5,1,2"
14998,commdev-image-keyboard-response,578,1229257,learnblock2,385,img/planet8_left.png,8,Community 2,NA,FALSE,j,f,NA,NA,NA,10,7,"6,7,12,4,15,11,13,9,14,8,3,10,5,1,2"
14998,commdev-image-keyboard-response,579,1230519,learnblock2,272,img/planet14_left.png,14,Community 2,NA,TRUE,f,f,NA,NA,NA,10,7,"6,7,12,4,15,11,13,9,14,8,3,10,5,1,2"
14998,commdev-image-keyboard-response,580,1231777,learnblock2,147.39999997615814,img/planet13_right.png,13,Community 2,NA,FALSE,f,j,NA,NA,NA,10,7,"6,7,12,4,15,11,13,9,14,8,3,10,5,1,2"
14998,commdev-image-keyboard-response,581,1233037,learnblock2,1108.5,img/planet9_left.png,9,Community 2,NA,TRUE,f,f,NA,NA,NA,10,7,"6,7,12,4,15,11,13,9,14,8,3,10,5,1,2"
14998,commdev-image-keyboard-response,582,1234294,learnblock2,991.1999999880791,img/planet10_left.png,10,Community 3,NA,FALSE,j,f,NA,NA,NA,10,7,"6,7,12,4,15,11,13,9,14,8,3,10,5,1,2"
