subject_id,trial_type,trial_index,time_elapsed,block,rt,stimulus,planet,community,response,correct,key_press,learning_correct_response,parse,init_locations,final_locations,browser_interactions,num_comp,planet_map
15147,commdev-instructions,7,35807,NA,4221.700000047684,"<p>In this game, you are a scientist on board a space shuttle. </p><p> On each mission, you will visit planets all across the universe.</p><img src=""img/controlroom.jpg"" width=300vw>",NA,NA,NA,NA,NA,NA,NA,NA,NA,11,6,"7,3,1,10,15,2,9,12,14,11,4,5,13,8,6"
15147,commdev-instructions,8,38701,NA,816.7999999523163,"<p>Here are a few planets you might see:</p><img src=""img/practice1.png"" width=200vw><img src=""img/practice2.png"" width=200vw><img src=""img/practice3.png"" width=200vw>",NA,NA,NA,NA,NA,NA,NA,NA,NA,11,6,"7,3,1,10,15,2,9,12,14,11,4,5,13,8,6"
15147,commdev-instructions,9,46859,NA,753.8999999761581,"<p>Your job as a scientist is to record which direction the winds are moving on each planet.</p><p>There are two types of wind directions:</p><img src=""img/practice1_left.png"" width=200vw><img src=""img/practice1_right.png"" width=200vw>",NA,NA,NA,NA,NA,NA,NA,NA,NA,11,6,"7,3,1,10,15,2,9,12,14,11,4,5,13,8,6"
15147,commdev-instructions,10,56250,NA,4503.799999952316,"<p>If the winds are moving this way, press the letter <strong>F</strong> on the keyboard as fast as you can.</p><img src=""img/leftwind.png"" width=250vw>",NA,NA,NA,NA,NA,NA,NA,NA,NA,11,6,"7,3,1,10,15,2,9,12,14,11,4,5,13,8,6"
15147,commdev-instructions,11,62872,NA,2125.7999999523163,"<p>If the winds are moving this way, press the letter <strong>J</strong> on the keyboard as fast as you can.</p><img src=""img/rightwind.png"" width=350vw>",NA,NA,NA,NA,NA,NA,NA,NA,NA,11,6,"7,3,1,10,15,2,9,12,14,11,4,5,13,8,6"
15147,commdev-instructions,12,68060,NA,764.3999999761581,<p>You will have 1 second to respond. Try to respond before the time runs out!,NA,NA,NA,NA,NA,NA,NA,NA,NA,11,6,"7,3,1,10,15,2,9,12,14,11,4,5,13,8,6"
15147,commdev-instructions,13,74376,NA,880.1999999284744,<p>The planets you will visit will look different from each other.</p><p>You should respond <strong>only</strong> based on wind direction.,NA,NA,NA,NA,NA,NA,NA,NA,NA,11,6,"7,3,1,10,15,2,9,12,14,11,4,5,13,8,6"
15147,commdev-instructions,14,80714,NA,1168,"<p> Ready to start the practice round? </p><p> Remember, press <strong>F</strong> or <strong>J</strong> depending on the wind direction.<br><img src=""img/categorize_planet_example.png""",NA,NA,NA,NA,NA,NA,NA,NA,NA,11,6,"7,3,1,10,15,2,9,12,14,11,4,5,13,8,6"
15147,commdev-instructions,26,133643,NA,788.3999999761581,"<p>Great, now try a short practice mission. </p><p> This time, you will have 1 second to respond and you won't know whether you pressed the right or wrong key for each planet.</p>",NA,NA,NA,NA,NA,NA,NA,NA,NA,11,6,"7,3,1,10,15,2,9,12,14,11,4,5,13,8,6"
15147,commdev-image-keyboard-response,27,135013,practice,1090.6999999284744,img/practice1_right.png,NA,Number not found in mappings,NA,TRUE,j,j,NA,NA,NA,11,6,"7,3,1,10,15,2,9,12,14,11,4,5,13,8,6"
15147,commdev-image-keyboard-response,28,136277,practice,985.8999999761581,img/practice2_left.png,NA,Number not found in mappings,NA,TRUE,f,f,NA,NA,NA,11,6,"7,3,1,10,15,2,9,12,14,11,4,5,13,8,6"
15147,commdev-image-keyboard-response,29,137539,practice,634.3999999761581,img/practice4_left.png,NA,Number not found in mappings,NA,TRUE,f,f,NA,NA,NA,11,6,"7,3,1,10,15,2,9,12,14,11,4,5,13,8,6"
15147,commdev-image-keyboard-response,30,138803,practice,468.39999997615814,img/practice1_left.png,NA,Number not found in mappings,NA,TRUE,f,f,NA,NA,NA,11,6,"7,3,1,10,15,2,9,12,14,11,4,5,13,8,6"
15147,commdev-image-keyboard-response,31,140065,practice,412.2999999523163,img/practice4_left.png,NA,Number not found in mappings,NA,TRUE,f,f,NA,NA,NA,11,6,"7,3,1,10,15,2,9,12,14,11,4,5,13,8,6"
15147,commdev-image-keyboard-response,32,141328,practice,551.9000000953674,img/practice2_left.png,NA,Number not found in mappings,NA,TRUE,f,f,NA,NA,NA,11,6,"7,3,1,10,15,2,9,12,14,11,4,5,13,8,6"
15147,commdev-image-keyboard-response,33,142593,practice,423.7000000476837,img/practice4_left.png,NA,Number not found in mappings,NA,TRUE,f,f,NA,NA,NA,11,6,"7,3,1,10,15,2,9,12,14,11,4,5,13,8,6"
15147,commdev-image-keyboard-response,34,143856,practice,436.5,img/practice1_left.png,NA,Number not found in mappings,NA,TRUE,f,f,NA,NA,NA,11,6,"7,3,1,10,15,2,9,12,14,11,4,5,13,8,6"
15147,commdev-instructions,35,154757,NA,1342.7999999523163,"<p>Great job with the practice round.</p><p>During real missions, you won't know whether you pressed the right or wrong key for each planet.</p><p>But between missions, we will tell you how you did overall.</p>",NA,NA,NA,NA,NA,NA,NA,NA,NA,11,6,"7,3,1,10,15,2,9,12,14,11,4,5,13,8,6"
15147,commdev-instructions,36,163507,NA,502.59999990463257,<p>Try your best! You will be paid a bonus based on how many correct responses you make!</p><p>Responses that are too slow will not count toward your bonus.</p>,NA,NA,NA,NA,NA,NA,NA,NA,NA,11,6,"7,3,1,10,15,2,9,12,14,11,4,5,13,8,6"
15147,commdev-instructions,37,170429,NA,724.7000000476837,"<p>You are almost ready to start the real game.</p><p> First, we are going to ask you some questions about how the game works.</p>",NA,NA,NA,NA,NA,NA,NA,NA,NA,11,6,"7,3,1,10,15,2,9,12,14,11,4,5,13,8,6"
15147,commdev-instructions,46,254750,NA,1634.5999999046326,"<p> Nice work! It is now time to start the real game.<p></p>You will go on two missions to record wind directions of different planets.<p></p>Each one will take about 5 minutes. You will get to take a break between missions.<p><p> Remember, press <strong>F</strong> or <strong>J</strong> depending on the wind direction. Good luck!<br><img src=""img/categorize_planet_example.png""",NA,NA,NA,NA,NA,NA,NA,NA,NA,11,6,"7,3,1,10,15,2,9,12,14,11,4,5,13,8,6"
15147,commdev-image-keyboard-response,48,258719,learnblock1,null,img/planet15_left.png,15,Community 1,NA,FALSE,null,f,NA,NA,NA,11,6,"7,3,1,10,15,2,9,12,14,11,4,5,13,8,6"
15147,commdev-image-keyboard-response,49,259982,learnblock1,1112.6999999284744,img/planet7_right.png,7,Community 1,NA,TRUE,j,j,NA,NA,NA,11,6,"7,3,1,10,15,2,9,12,14,11,4,5,13,8,6"
15147,commdev-image-keyboard-response,50,261241,learnblock1,674.6000000238419,img/planet10_right.png,10,Community 1,NA,TRUE,j,j,NA,NA,NA,11,6,"7,3,1,10,15,2,9,12,14,11,4,5,13,8,6"
15147,commdev-image-keyboard-response,51,262498,learnblock1,null,img/planet3_left.png,3,Community 1,NA,FALSE,null,f,NA,NA,NA,11,6,"7,3,1,10,15,2,9,12,14,11,4,5,13,8,6"
15147,commdev-image-keyboard-response,52,263758,learnblock1,null,img/planet7_left.png,7,Community 1,NA,FALSE,null,f,NA,NA,NA,11,6,"7,3,1,10,15,2,9,12,14,11,4,5,13,8,6"
15147,commdev-image-keyboard-response,53,265022,learnblock1,null,img/planet3_left.png,3,Community 1,NA,FALSE,null,f,NA,NA,NA,11,6,"7,3,1,10,15,2,9,12,14,11,4,5,13,8,6"
15147,commdev-image-keyboard-response,54,266282,learnblock1,null,img/planet10_left.png,10,Community 1,NA,FALSE,null,f,NA,NA,NA,11,6,"7,3,1,10,15,2,9,12,14,11,4,5,13,8,6"
15147,commdev-image-keyboard-response,55,267534,learnblock1,414.2000000476837,img/planet2_left.png,2,Community 2,NA,TRUE,f,f,NA,NA,NA,11,6,"7,3,1,10,15,2,9,12,14,11,4,5,13,8,6"
15147,commdev-image-keyboard-response,56,268797,learnblock1,819,img/planet10_right.png,10,Community 1,NA,TRUE,j,j,NA,NA,NA,11,6,"7,3,1,10,15,2,9,12,14,11,4,5,13,8,6"
15147,commdev-image-keyboard-response,57,270061,learnblock1,null,img/planet3_right.png,3,Community 1,NA,FALSE,null,j,NA,NA,NA,11,6,"7,3,1,10,15,2,9,12,14,11,4,5,13,8,6"
15147,commdev-image-keyboard-response,58,271324,learnblock1,419.39999997615814,img/planet15_right.png,15,Community 1,NA,TRUE,j,j,NA,NA,NA,11,6,"7,3,1,10,15,2,9,12,14,11,4,5,13,8,6"
15147,commdev-image-keyboard-response,59,272582,learnblock1,null,img/planet1_right.png,1,Community 1,NA,FALSE,null,j,NA,NA,NA,11,6,"7,3,1,10,15,2,9,12,14,11,4,5,13,8,6"
15147,commdev-image-keyboard-response,60,273844,learnblock1,234.5,img/planet7_right.png,7,Community 1,NA,TRUE,j,j,NA,NA,NA,11,6,"7,3,1,10,15,2,9,12,14,11,4,5,13,8,6"
15147,commdev-image-keyboard-response,61,275106,learnblock1,659.1999999284744,img/planet10_left.png,10,Community 1,NA,TRUE,f,f,NA,NA,NA,11,6,"7,3,1,10,15,2,9,12,14,11,4,5,13,8,6"
15147,commdev-image-keyboard-response,62,276371,learnblock1,719.3999999761581,img/planet3_right.png,3,Community 1,NA,TRUE,j,j,NA,NA,NA,11,6,"7,3,1,10,15,2,9,12,14,11,4,5,13,8,6"
15147,commdev-image-keyboard-response,63,277630,learnblock1,564.1999999284744,img/planet1_right.png,1,Community 1,NA,TRUE,j,j,NA,NA,NA,11,6,"7,3,1,10,15,2,9,12,14,11,4,5,13,8,6"
15147,commdev-image-keyboard-response,64,278894,learnblock1,569.1999999284744,img/planet7_right.png,7,Community 1,NA,TRUE,j,j,NA,NA,NA,11,6,"7,3,1,10,15,2,9,12,14,11,4,5,13,8,6"
15147,commdev-image-keyboard-response,65,280157,learnblock1,608.6000000238419,img/planet3_right.png,3,Community 1,NA,TRUE,j,j,NA,NA,NA,11,6,"7,3,1,10,15,2,9,12,14,11,4,5,13,8,6"
15147,commdev-image-keyboard-response,66,281419,learnblock1,555.5,img/planet1_right.png,1,Community 1,NA,TRUE,j,j,NA,NA,NA,11,6,"7,3,1,10,15,2,9,12,14,11,4,5,13,8,6"
15147,commdev-image-keyboard-response,67,282683,learnblock1,476.2000000476837,img/planet3_right.png,3,Community 1,NA,TRUE,j,j,NA,NA,NA,11,6,"7,3,1,10,15,2,9,12,14,11,4,5,13,8,6"
15147,commdev-image-keyboard-response,68,283935,learnblock1,437.2000000476837,img/planet15_left.png,15,Community 1,NA,TRUE,f,f,NA,NA,NA,11,6,"7,3,1,10,15,2,9,12,14,11,4,5,13,8,6"
15147,commdev-image-keyboard-response,69,285186,learnblock1,528.5,img/planet1_right.png,1,Community 1,NA,TRUE,j,j,NA,NA,NA,11,6,"7,3,1,10,15,2,9,12,14,11,4,5,13,8,6"
15147,commdev-image-keyboard-response,70,286437,learnblock1,685.3999999761581,img/planet3_right.png,3,Community 1,NA,TRUE,j,j,NA,NA,NA,11,6,"7,3,1,10,15,2,9,12,14,11,4,5,13,8,6"
15147,commdev-image-keyboard-response,71,287689,learnblock1,595.5999999046326,img/planet15_right.png,15,Community 1,NA,TRUE,j,j,NA,NA,NA,11,6,"7,3,1,10,15,2,9,12,14,11,4,5,13,8,6"
15147,commdev-image-keyboard-response,72,288940,learnblock1,614.7000000476837,img/planet1_right.png,1,Community 1,NA,TRUE,j,j,NA,NA,NA,11,6,"7,3,1,10,15,2,9,12,14,11,4,5,13,8,6"
15147,commdev-image-keyboard-response,73,290197,learnblock1,483.89999997615814,img/planet10_left.png,10,Community 1,NA,FALSE,j,f,NA,NA,NA,11,6,"7,3,1,10,15,2,9,12,14,11,4,5,13,8,6"
15147,commdev-image-keyboard-response,74,291448,learnblock1,738.8000000715256,img/planet7_right.png,7,Community 1,NA,TRUE,j,j,NA,NA,NA,11,6,"7,3,1,10,15,2,9,12,14,11,4,5,13,8,6"
15147,commdev-image-keyboard-response,75,292700,learnblock1,734.1999999284744,img/planet3_left.png,3,Community 1,NA,TRUE,f,f,NA,NA,NA,11,6,"7,3,1,10,15,2,9,12,14,11,4,5,13,8,6"
15147,commdev-image-keyboard-response,76,293952,learnblock1,652,img/planet7_left.png,7,Community 1,NA,TRUE,f,f,NA,NA,NA,11,6,"7,3,1,10,15,2,9,12,14,11,4,5,13,8,6"
15147,commdev-image-keyboard-response,77,295204,learnblock1,703.2000000476837,img/planet3_left.png,3,Community 1,NA,TRUE,f,f,NA,NA,NA,11,6,"7,3,1,10,15,2,9,12,14,11,4,5,13,8,6"
15147,commdev-image-keyboard-response,78,296456,learnblock1,556.2000000476837,img/planet15_left.png,15,Community 1,NA,TRUE,f,f,NA,NA,NA,11,6,"7,3,1,10,15,2,9,12,14,11,4,5,13,8,6"
15147,commdev-image-keyboard-response,79,297707,learnblock1,null,img/planet4_right.png,4,Community 3,NA,FALSE,null,j,NA,NA,NA,11,6,"7,3,1,10,15,2,9,12,14,11,4,5,13,8,6"
15147,commdev-image-keyboard-response,80,298958,learnblock1,805.3000000715256,img/planet13_right.png,13,Community 3,NA,TRUE,j,j,NA,NA,NA,11,6,"7,3,1,10,15,2,9,12,14,11,4,5,13,8,6"
15147,commdev-image-keyboard-response,81,300208,learnblock1,null,img/planet6_left.png,6,Community 3,NA,FALSE,null,f,NA,NA,NA,11,6,"7,3,1,10,15,2,9,12,14,11,4,5,13,8,6"
15147,commdev-image-keyboard-response,82,301460,learnblock1,95.39999997615814,img/planet4_right.png,4,Community 3,NA,FALSE,f,j,NA,NA,NA,11,6,"7,3,1,10,15,2,9,12,14,11,4,5,13,8,6"
15147,commdev-image-keyboard-response,83,302713,learnblock1,null,img/planet8_right.png,8,Community 3,NA,FALSE,null,j,NA,NA,NA,11,6,"7,3,1,10,15,2,9,12,14,11,4,5,13,8,6"
15147,commdev-image-keyboard-response,84,303965,learnblock1,822.2000000476837,img/planet5_right.png,5,Community 3,NA,FALSE,f,j,NA,NA,NA,11,6,"7,3,1,10,15,2,9,12,14,11,4,5,13,8,6"
15147,commdev-image-keyboard-response,85,305215,learnblock1,1083,img/planet6_right.png,6,Community 3,NA,TRUE,j,j,NA,NA,NA,11,6,"7,3,1,10,15,2,9,12,14,11,4,5,13,8,6"
15147,commdev-image-keyboard-response,86,306467,learnblock1,1008,img/planet5_left.png,5,Community 3,NA,TRUE,f,f,NA,NA,NA,11,6,"7,3,1,10,15,2,9,12,14,11,4,5,13,8,6"
15147,commdev-image-keyboard-response,87,307718,learnblock1,1133.3999999761581,img/planet13_left.png,13,Community 3,NA,TRUE,f,f,NA,NA,NA,11,6,"7,3,1,10,15,2,9,12,14,11,4,5,13,8,6"
15147,commdev-image-keyboard-response,88,308971,learnblock1,753.2999999523163,img/planet5_right.png,5,Community 3,NA,TRUE,j,j,NA,NA,NA,11,6,"7,3,1,10,15,2,9,12,14,11,4,5,13,8,6"
15147,commdev-image-keyboard-response,89,310223,learnblock1,null,img/planet12_left.png,12,Community 2,NA,FALSE,null,f,NA,NA,NA,11,6,"7,3,1,10,15,2,9,12,14,11,4,5,13,8,6"
15147,commdev-image-keyboard-response,90,311475,learnblock1,888.3999999761581,img/planet14_left.png,14,Community 2,NA,FALSE,j,f,NA,NA,NA,11,6,"7,3,1,10,15,2,9,12,14,11,4,5,13,8,6"
15147,commdev-image-keyboard-response,91,312727,learnblock1,836.6000000238419,img/planet12_right.png,12,Community 2,NA,TRUE,j,j,NA,NA,NA,11,6,"7,3,1,10,15,2,9,12,14,11,4,5,13,8,6"
15147,commdev-image-keyboard-response,92,313979,learnblock1,681.1000000238419,img/planet14_left.png,14,Community 2,NA,TRUE,f,f,NA,NA,NA,11,6,"7,3,1,10,15,2,9,12,14,11,4,5,13,8,6"
15147,commdev-image-keyboard-response,93,315230,learnblock1,637,img/planet12_right.png,12,Community 2,NA,TRUE,j,j,NA,NA,NA,11,6,"7,3,1,10,15,2,9,12,14,11,4,5,13,8,6"
15147,commdev-image-keyboard-response,94,316480,learnblock1,731,img/planet5_right.png,5,Community 3,NA,TRUE,j,j,NA,NA,NA,11,6,"7,3,1,10,15,2,9,12,14,11,4,5,13,8,6"
15147,commdev-image-keyboard-response,95,317732,learnblock1,695.1000000238419,img/planet13_left.png,13,Community 3,NA,TRUE,f,f,NA,NA,NA,11,6,"7,3,1,10,15,2,9,12,14,11,4,5,13,8,6"
15147,commdev-image-keyboard-response,96,318983,learnblock1,850.3000000715256,img/planet6_right.png,6,Community 3,NA,TRUE,j,j,NA,NA,NA,11,6,"7,3,1,10,15,2,9,12,14,11,4,5,13,8,6"
15147,commdev-image-keyboard-response,97,320235,learnblock1,986.1000000238419,img/planet8_right.png,8,Community 3,NA,TRUE,j,j,NA,NA,NA,11,6,"7,3,1,10,15,2,9,12,14,11,4,5,13,8,6"
15147,commdev-image-keyboard-response,98,321486,learnblock1,836.7999999523163,img/planet5_left.png,5,Community 3,NA,TRUE,f,f,NA,NA,NA,11,6,"7,3,1,10,15,2,9,12,14,11,4,5,13,8,6"
15147,commdev-image-keyboard-response,99,322748,learnblock1,627.7999999523163,img/planet13_right.png,13,Community 3,NA,TRUE,j,j,NA,NA,NA,11,6,"7,3,1,10,15,2,9,12,14,11,4,5,13,8,6"
15147,commdev-image-keyboard-response,100,324001,learnblock1,739.4000000953674,img/planet6_right.png,6,Community 3,NA,TRUE,j,j,NA,NA,NA,11,6,"7,3,1,10,15,2,9,12,14,11,4,5,13,8,6"
15147,commdev-image-keyboard-response,101,325252,learnblock1,728.7000000476837,img/planet5_right.png,5,Community 3,NA,TRUE,j,j,NA,NA,NA,11,6,"7,3,1,10,15,2,9,12,14,11,4,5,13,8,6"
15147,commdev-image-keyboard-response,102,326503,learnblock1,843.5,img/planet6_left.png,6,Community 3,NA,TRUE,f,f,NA,NA,NA,11,6,"7,3,1,10,15,2,9,12,14,11,4,5,13,8,6"
15147,commdev-image-keyboard-response,103,327755,learnblock1,616.7000000476837,img/planet8_right.png,8,Community 3,NA,TRUE,j,j,NA,NA,NA,11,6,"7,3,1,10,15,2,9,12,14,11,4,5,13,8,6"
15147,commdev-image-keyboard-response,104,329007,learnblock1,772.7000000476837,img/planet6_left.png,6,Community 3,NA,TRUE,f,f,NA,NA,NA,11,6,"7,3,1,10,15,2,9,12,14,11,4,5,13,8,6"
15147,commdev-image-keyboard-response,105,330259,learnblock1,851.0999999046326,img/planet4_right.png,4,Community 3,NA,TRUE,j,j,NA,NA,NA,11,6,"7,3,1,10,15,2,9,12,14,11,4,5,13,8,6"
15147,commdev-image-keyboard-response,106,331510,learnblock1,782.9000000953674,img/planet8_right.png,8,Community 3,NA,FALSE,f,j,NA,NA,NA,11,6,"7,3,1,10,15,2,9,12,14,11,4,5,13,8,6"
15147,commdev-image-keyboard-response,107,332763,learnblock1,null,img/planet4_left.png,4,Community 3,NA,FALSE,null,f,NA,NA,NA,11,6,"7,3,1,10,15,2,9,12,14,11,4,5,13,8,6"
15147,commdev-image-keyboard-response,108,334013,learnblock1,793.5,img/planet6_left.png,6,Community 3,NA,FALSE,j,f,NA,NA,NA,11,6,"7,3,1,10,15,2,9,12,14,11,4,5,13,8,6"
15147,commdev-image-keyboard-response,109,335267,learnblock1,794.5,img/planet4_right.png,4,Community 3,NA,TRUE,j,j,NA,NA,NA,11,6,"7,3,1,10,15,2,9,12,14,11,4,5,13,8,6"
15147,commdev-image-keyboard-response,110,336518,learnblock1,679.1000000238419,img/planet8_right.png,8,Community 3,NA,TRUE,j,j,NA,NA,NA,11,6,"7,3,1,10,15,2,9,12,14,11,4,5,13,8,6"
15147,commdev-image-keyboard-response,111,337770,learnblock1,683.1000000238419,img/planet6_left.png,6,Community 3,NA,TRUE,f,f,NA,NA,NA,11,6,"7,3,1,10,15,2,9,12,14,11,4,5,13,8,6"
15147,commdev-image-keyboard-response,112,339021,learnblock1,685.4000000953674,img/planet4_right.png,4,Community 3,NA,TRUE,j,j,NA,NA,NA,11,6,"7,3,1,10,15,2,9,12,14,11,4,5,13,8,6"
15147,commdev-image-keyboard-response,113,340273,learnblock1,618.3999999761581,img/planet6_left.png,6,Community 3,NA,TRUE,f,f,NA,NA,NA,11,6,"7,3,1,10,15,2,9,12,14,11,4,5,13,8,6"
15147,commdev-image-keyboard-response,114,341524,learnblock1,735.8999999761581,img/planet13_right.png,13,Community 3,NA,TRUE,j,j,NA,NA,NA,11,6,"7,3,1,10,15,2,9,12,14,11,4,5,13,8,6"
15147,commdev-image-keyboard-response,115,342776,learnblock1,790.2999999523163,img/planet4_left.png,4,Community 3,NA,TRUE,f,f,NA,NA,NA,11,6,"7,3,1,10,15,2,9,12,14,11,4,5,13,8,6"
15147,commdev-image-keyboard-response,116,344027,learnblock1,817,img/planet15_left.png,15,Community 1,NA,TRUE,f,f,NA,NA,NA,11,6,"7,3,1,10,15,2,9,12,14,11,4,5,13,8,6"
15147,commdev-image-keyboard-response,117,345278,learnblock1,963.4000000953674,img/planet4_left.png,4,Community 3,NA,TRUE,f,f,NA,NA,NA,11,6,"7,3,1,10,15,2,9,12,14,11,4,5,13,8,6"
15147,commdev-image-keyboard-response,118,346529,learnblock1,656.8999999761581,img/planet13_left.png,13,Community 3,NA,TRUE,f,f,NA,NA,NA,11,6,"7,3,1,10,15,2,9,12,14,11,4,5,13,8,6"
15147,commdev-image-keyboard-response,119,347780,learnblock1,543.5,img/planet5_right.png,5,Community 3,NA,TRUE,j,j,NA,NA,NA,11,6,"7,3,1,10,15,2,9,12,14,11,4,5,13,8,6"
15147,commdev-image-keyboard-response,120,349032,learnblock1,426.89999997615814,img/planet12_left.png,12,Community 2,NA,FALSE,j,f,NA,NA,NA,11,6,"7,3,1,10,15,2,9,12,14,11,4,5,13,8,6"
15147,commdev-image-keyboard-response,121,350283,learnblock1,639.4000000953674,img/planet5_right.png,5,Community 3,NA,TRUE,j,j,NA,NA,NA,11,6,"7,3,1,10,15,2,9,12,14,11,4,5,13,8,6"
15147,commdev-image-keyboard-response,122,351534,learnblock1,595.8999999761581,img/planet12_left.png,12,Community 2,NA,TRUE,f,f,NA,NA,NA,11,6,"7,3,1,10,15,2,9,12,14,11,4,5,13,8,6"
15147,commdev-image-keyboard-response,123,352787,learnblock1,609.7000000476837,img/planet5_left.png,5,Community 3,NA,FALSE,j,f,NA,NA,NA,11,6,"7,3,1,10,15,2,9,12,14,11,4,5,13,8,6"
15147,commdev-image-keyboard-response,124,354038,learnblock1,726.8999999761581,img/planet6_right.png,6,Community 3,NA,TRUE,j,j,NA,NA,NA,11,6,"7,3,1,10,15,2,9,12,14,11,4,5,13,8,6"
15147,commdev-image-keyboard-response,125,355289,learnblock1,659.3000000715256,img/planet13_right.png,13,Community 3,NA,FALSE,f,j,NA,NA,NA,11,6,"7,3,1,10,15,2,9,12,14,11,4,5,13,8,6"
15147,commdev-image-keyboard-response,126,356540,learnblock1,null,img/planet8_left.png,8,Community 3,NA,FALSE,null,f,NA,NA,NA,11,6,"7,3,1,10,15,2,9,12,14,11,4,5,13,8,6"
15147,commdev-image-keyboard-response,127,357792,learnblock1,667.3000000715256,img/planet4_right.png,4,Community 3,NA,FALSE,f,j,NA,NA,NA,11,6,"7,3,1,10,15,2,9,12,14,11,4,5,13,8,6"
15147,commdev-image-keyboard-response,128,359044,learnblock1,695.8000000715256,img/planet6_right.png,6,Community 3,NA,TRUE,j,j,NA,NA,NA,11,6,"7,3,1,10,15,2,9,12,14,11,4,5,13,8,6"
15147,commdev-image-keyboard-response,129,360296,learnblock1,546.9000000953674,img/planet13_left.png,13,Community 3,NA,TRUE,f,f,NA,NA,NA,11,6,"7,3,1,10,15,2,9,12,14,11,4,5,13,8,6"
15147,commdev-image-keyboard-response,130,361547,learnblock1,776.0999999046326,img/planet8_right.png,8,Community 3,NA,TRUE,j,j,NA,NA,NA,11,6,"7,3,1,10,15,2,9,12,14,11,4,5,13,8,6"
15147,commdev-image-keyboard-response,131,362799,learnblock1,652.7999999523163,img/planet5_right.png,5,Community 3,NA,TRUE,j,j,NA,NA,NA,11,6,"7,3,1,10,15,2,9,12,14,11,4,5,13,8,6"
15147,commdev-image-keyboard-response,132,364050,learnblock1,704.5,img/planet8_right.png,8,Community 3,NA,TRUE,j,j,NA,NA,NA,11,6,"7,3,1,10,15,2,9,12,14,11,4,5,13,8,6"
15147,commdev-image-keyboard-response,133,365302,learnblock1,605.0999999046326,img/planet5_left.png,5,Community 3,NA,TRUE,f,f,NA,NA,NA,11,6,"7,3,1,10,15,2,9,12,14,11,4,5,13,8,6"
15147,commdev-image-keyboard-response,134,366554,learnblock1,657.8000000715256,img/planet12_left.png,12,Community 2,NA,TRUE,f,f,NA,NA,NA,11,6,"7,3,1,10,15,2,9,12,14,11,4,5,13,8,6"
15147,commdev-image-keyboard-response,135,367806,learnblock1,null,img/planet11_left.png,11,Community 2,NA,FALSE,null,f,NA,NA,NA,11,6,"7,3,1,10,15,2,9,12,14,11,4,5,13,8,6"
15147,commdev-image-keyboard-response,136,369057,learnblock1,667.7000000476837,img/planet12_right.png,12,Community 2,NA,FALSE,f,j,NA,NA,NA,11,6,"7,3,1,10,15,2,9,12,14,11,4,5,13,8,6"
15147,commdev-image-keyboard-response,137,370309,learnblock1,623.3000000715256,img/planet14_left.png,14,Community 2,NA,TRUE,f,f,NA,NA,NA,11,6,"7,3,1,10,15,2,9,12,14,11,4,5,13,8,6"
15147,commdev-image-keyboard-response,138,371560,learnblock1,698.6000000238419,img/planet11_left.png,11,Community 2,NA,TRUE,f,f,NA,NA,NA,11,6,"7,3,1,10,15,2,9,12,14,11,4,5,13,8,6"
15147,commdev-image-keyboard-response,139,372811,learnblock1,722.5,img/planet14_right.png,14,Community 2,NA,TRUE,j,j,NA,NA,NA,11,6,"7,3,1,10,15,2,9,12,14,11,4,5,13,8,6"
15147,commdev-image-keyboard-response,140,374063,learnblock1,660.5,img/planet12_right.png,12,Community 2,NA,TRUE,j,j,NA,NA,NA,11,6,"7,3,1,10,15,2,9,12,14,11,4,5,13,8,6"
15147,commdev-image-keyboard-response,141,375314,learnblock1,680,img/planet14_right.png,14,Community 2,NA,TRUE,j,j,NA,NA,NA,11,6,"7,3,1,10,15,2,9,12,14,11,4,5,13,8,6"
15147,commdev-image-keyboard-response,142,376566,learnblock1,null,img/planet2_right.png,2,Community 2,NA,FALSE,null,j,NA,NA,NA,11,6,"7,3,1,10,15,2,9,12,14,11,4,5,13,8,6"
15147,commdev-image-keyboard-response,143,377823,learnblock1,789.3999999761581,img/planet9_right.png,9,Community 2,NA,FALSE,f,j,NA,NA,NA,11,6,"7,3,1,10,15,2,9,12,14,11,4,5,13,8,6"
15147,commdev-image-keyboard-response,144,379075,learnblock1,671.8000000715256,img/planet14_left.png,14,Community 2,NA,TRUE,f,f,NA,NA,NA,11,6,"7,3,1,10,15,2,9,12,14,11,4,5,13,8,6"
15147,commdev-image-keyboard-response,145,380326,learnblock1,580.1000000238419,img/planet11_right.png,11,Community 2,NA,TRUE,j,j,NA,NA,NA,11,6,"7,3,1,10,15,2,9,12,14,11,4,5,13,8,6"
15147,commdev-image-keyboard-response,146,381577,learnblock1,627.3999999761581,img/planet14_right.png,14,Community 2,NA,TRUE,j,j,NA,NA,NA,11,6,"7,3,1,10,15,2,9,12,14,11,4,5,13,8,6"
15147,commdev-image-keyboard-response,147,382828,learnblock1,518.3000000715256,img/planet12_left.png,12,Community 2,NA,TRUE,f,f,NA,NA,NA,11,6,"7,3,1,10,15,2,9,12,14,11,4,5,13,8,6"
15147,commdev-image-keyboard-response,148,384079,learnblock1,613.1000000238419,img/planet5_left.png,5,Community 3,NA,TRUE,f,f,NA,NA,NA,11,6,"7,3,1,10,15,2,9,12,14,11,4,5,13,8,6"
15147,commdev-image-keyboard-response,149,385332,learnblock1,583.3000000715256,img/planet12_right.png,12,Community 2,NA,TRUE,j,j,NA,NA,NA,11,6,"7,3,1,10,15,2,9,12,14,11,4,5,13,8,6"
15147,commdev-image-keyboard-response,150,386583,learnblock1,667.3999999761581,img/planet5_right.png,5,Community 3,NA,TRUE,j,j,NA,NA,NA,11,6,"7,3,1,10,15,2,9,12,14,11,4,5,13,8,6"
15147,commdev-image-keyboard-response,151,387835,learnblock1,664,img/planet6_left.png,6,Community 3,NA,TRUE,f,f,NA,NA,NA,11,6,"7,3,1,10,15,2,9,12,14,11,4,5,13,8,6"
15147,commdev-image-keyboard-response,152,389086,learnblock1,629.5999999046326,img/planet13_right.png,13,Community 3,NA,TRUE,j,j,NA,NA,NA,11,6,"7,3,1,10,15,2,9,12,14,11,4,5,13,8,6"
15147,commdev-image-keyboard-response,153,390338,learnblock1,594.1999999284744,img/planet6_right.png,6,Community 3,NA,TRUE,j,j,NA,NA,NA,11,6,"7,3,1,10,15,2,9,12,14,11,4,5,13,8,6"
15147,commdev-image-keyboard-response,154,391590,learnblock1,623.3999999761581,img/planet4_left.png,4,Community 3,NA,TRUE,f,f,NA,NA,NA,11,6,"7,3,1,10,15,2,9,12,14,11,4,5,13,8,6"
15147,commdev-image-keyboard-response,155,392840,learnblock1,722.2999999523163,img/planet15_left.png,15,Community 1,NA,TRUE,f,f,NA,NA,NA,11,6,"7,3,1,10,15,2,9,12,14,11,4,5,13,8,6"
15147,commdev-image-keyboard-response,156,394092,learnblock1,520.3999999761581,img/planet4_right.png,4,Community 3,NA,TRUE,j,j,NA,NA,NA,11,6,"7,3,1,10,15,2,9,12,14,11,4,5,13,8,6"
15147,commdev-image-keyboard-response,157,395344,learnblock1,595.6000000238419,img/planet6_right.png,6,Community 3,NA,TRUE,j,j,NA,NA,NA,11,6,"7,3,1,10,15,2,9,12,14,11,4,5,13,8,6"
15147,commdev-image-keyboard-response,158,396596,learnblock1,472.2000000476837,img/planet5_left.png,5,Community 3,NA,TRUE,f,f,NA,NA,NA,11,6,"7,3,1,10,15,2,9,12,14,11,4,5,13,8,6"
15147,commdev-image-keyboard-response,159,397847,learnblock1,836.1999999284744,img/planet13_right.png,13,Community 3,NA,TRUE,j,j,NA,NA,NA,11,6,"7,3,1,10,15,2,9,12,14,11,4,5,13,8,6"
15147,commdev-image-keyboard-response,160,399103,learnblock1,617.2999999523163,img/planet6_left.png,6,Community 3,NA,TRUE,f,f,NA,NA,NA,11,6,"7,3,1,10,15,2,9,12,14,11,4,5,13,8,6"
15147,commdev-image-keyboard-response,161,400355,learnblock1,576.1000000238419,img/planet5_left.png,5,Community 3,NA,FALSE,j,f,NA,NA,NA,11,6,"7,3,1,10,15,2,9,12,14,11,4,5,13,8,6"
15147,commdev-image-keyboard-response,162,401607,learnblock1,572.6000000238419,img/planet13_right.png,13,Community 3,NA,TRUE,j,j,NA,NA,NA,11,6,"7,3,1,10,15,2,9,12,14,11,4,5,13,8,6"
15147,commdev-image-keyboard-response,163,402858,learnblock1,623.8000000715256,img/planet6_left.png,6,Community 3,NA,TRUE,f,f,NA,NA,NA,11,6,"7,3,1,10,15,2,9,12,14,11,4,5,13,8,6"
15147,commdev-image-keyboard-response,164,404110,learnblock1,845.1000000238419,img/planet8_left.png,8,Community 3,NA,TRUE,f,f,NA,NA,NA,11,6,"7,3,1,10,15,2,9,12,14,11,4,5,13,8,6"
15147,commdev-image-keyboard-response,165,405362,learnblock1,705.3999999761581,img/planet4_left.png,4,Community 3,NA,TRUE,f,f,NA,NA,NA,11,6,"7,3,1,10,15,2,9,12,14,11,4,5,13,8,6"
15147,commdev-image-keyboard-response,166,406614,learnblock1,662.8999999761581,img/planet6_right.png,6,Community 3,NA,TRUE,j,j,NA,NA,NA,11,6,"7,3,1,10,15,2,9,12,14,11,4,5,13,8,6"
15147,commdev-image-keyboard-response,167,407874,learnblock1,658.2999999523163,img/planet13_right.png,13,Community 3,NA,TRUE,j,j,NA,NA,NA,11,6,"7,3,1,10,15,2,9,12,14,11,4,5,13,8,6"
15147,commdev-image-keyboard-response,168,409126,learnblock1,870.2999999523163,img/planet8_left.png,8,Community 3,NA,TRUE,f,f,NA,NA,NA,11,6,"7,3,1,10,15,2,9,12,14,11,4,5,13,8,6"
15147,commdev-image-keyboard-response,169,410378,learnblock1,641.3999999761581,img/planet4_right.png,4,Community 3,NA,TRUE,j,j,NA,NA,NA,11,6,"7,3,1,10,15,2,9,12,14,11,4,5,13,8,6"
15147,commdev-image-keyboard-response,170,411630,learnblock1,664.3999999761581,img/planet13_left.png,13,Community 3,NA,TRUE,f,f,NA,NA,NA,11,6,"7,3,1,10,15,2,9,12,14,11,4,5,13,8,6"
15147,commdev-image-keyboard-response,171,412882,learnblock1,737,img/planet5_left.png,5,Community 3,NA,TRUE,f,f,NA,NA,NA,11,6,"7,3,1,10,15,2,9,12,14,11,4,5,13,8,6"
15147,commdev-image-keyboard-response,172,414141,learnblock1,651.8999999761581,img/planet12_right.png,12,Community 2,NA,TRUE,j,j,NA,NA,NA,11,6,"7,3,1,10,15,2,9,12,14,11,4,5,13,8,6"
15147,commdev-image-keyboard-response,173,415392,learnblock1,714.9000000953674,img/planet14_left.png,14,Community 2,NA,TRUE,f,f,NA,NA,NA,11,6,"7,3,1,10,15,2,9,12,14,11,4,5,13,8,6"
15147,commdev-image-keyboard-response,174,416644,learnblock1,864.6999999284744,img/planet12_left.png,12,Community 2,NA,TRUE,f,f,NA,NA,NA,11,6,"7,3,1,10,15,2,9,12,14,11,4,5,13,8,6"
15147,commdev-image-keyboard-response,175,417895,learnblock1,677,img/planet9_right.png,9,Community 2,NA,TRUE,j,j,NA,NA,NA,11,6,"7,3,1,10,15,2,9,12,14,11,4,5,13,8,6"
15147,commdev-image-keyboard-response,176,419147,learnblock1,null,img/planet11_right.png,11,Community 2,NA,FALSE,null,j,NA,NA,NA,11,6,"7,3,1,10,15,2,9,12,14,11,4,5,13,8,6"
15147,commdev-image-keyboard-response,177,420397,learnblock1,36.800000071525574,img/planet9_left.png,9,Community 2,NA,FALSE,j,f,NA,NA,NA,11,6,"7,3,1,10,15,2,9,12,14,11,4,5,13,8,6"
15147,commdev-image-keyboard-response,178,421648,learnblock1,813.6999999284744,img/planet2_left.png,2,Community 2,NA,TRUE,f,f,NA,NA,NA,11,6,"7,3,1,10,15,2,9,12,14,11,4,5,13,8,6"
15147,commdev-image-keyboard-response,179,422900,learnblock1,566.6999999284744,img/planet9_right.png,9,Community 2,NA,TRUE,j,j,NA,NA,NA,11,6,"7,3,1,10,15,2,9,12,14,11,4,5,13,8,6"
15147,commdev-image-keyboard-response,180,424150,learnblock1,597.3000000715256,img/planet12_left.png,12,Community 2,NA,TRUE,f,f,NA,NA,NA,11,6,"7,3,1,10,15,2,9,12,14,11,4,5,13,8,6"
15147,commdev-image-keyboard-response,181,425402,learnblock1,585.5,img/planet5_right.png,5,Community 3,NA,TRUE,j,j,NA,NA,NA,11,6,"7,3,1,10,15,2,9,12,14,11,4,5,13,8,6"
15147,commdev-image-keyboard-response,182,426653,learnblock1,934.9000000953674,img/planet6_right.png,6,Community 3,NA,TRUE,j,j,NA,NA,NA,11,6,"7,3,1,10,15,2,9,12,14,11,4,5,13,8,6"
15147,commdev-image-keyboard-response,183,427906,learnblock1,754.6999999284744,img/planet13_right.png,13,Community 3,NA,TRUE,j,j,NA,NA,NA,11,6,"7,3,1,10,15,2,9,12,14,11,4,5,13,8,6"
15147,commdev-image-keyboard-response,184,429157,learnblock1,559.8999999761581,img/planet5_left.png,5,Community 3,NA,TRUE,f,f,NA,NA,NA,11,6,"7,3,1,10,15,2,9,12,14,11,4,5,13,8,6"
15147,commdev-image-keyboard-response,185,430407,learnblock1,667.6000000238419,img/planet13_left.png,13,Community 3,NA,TRUE,f,f,NA,NA,NA,11,6,"7,3,1,10,15,2,9,12,14,11,4,5,13,8,6"
15147,commdev-image-keyboard-response,186,431660,learnblock1,575.2000000476837,img/planet6_left.png,6,Community 3,NA,TRUE,f,f,NA,NA,NA,11,6,"7,3,1,10,15,2,9,12,14,11,4,5,13,8,6"
15147,commdev-image-keyboard-response,187,432912,learnblock1,699.5,img/planet5_left.png,5,Community 3,NA,TRUE,f,f,NA,NA,NA,11,6,"7,3,1,10,15,2,9,12,14,11,4,5,13,8,6"
15147,commdev-image-keyboard-response,188,434163,learnblock1,623.4000000953674,img/planet6_right.png,6,Community 3,NA,TRUE,j,j,NA,NA,NA,11,6,"7,3,1,10,15,2,9,12,14,11,4,5,13,8,6"
15147,commdev-image-keyboard-response,189,435415,learnblock1,869.1999999284744,img/planet5_right.png,5,Community 3,NA,TRUE,j,j,NA,NA,NA,11,6,"7,3,1,10,15,2,9,12,14,11,4,5,13,8,6"
15147,commdev-image-keyboard-response,190,436666,learnblock1,744.7000000476837,img/planet8_right.png,8,Community 3,NA,TRUE,j,j,NA,NA,NA,11,6,"7,3,1,10,15,2,9,12,14,11,4,5,13,8,6"
15147,commdev-image-keyboard-response,191,437918,learnblock1,613.3999999761581,img/planet13_right.png,13,Community 3,NA,TRUE,j,j,NA,NA,NA,11,6,"7,3,1,10,15,2,9,12,14,11,4,5,13,8,6"
15147,commdev-image-keyboard-response,192,439169,learnblock1,570.1000000238419,img/planet5_right.png,5,Community 3,NA,TRUE,j,j,NA,NA,NA,11,6,"7,3,1,10,15,2,9,12,14,11,4,5,13,8,6"
15147,commdev-image-keyboard-response,193,440420,learnblock1,550,img/planet12_right.png,12,Community 2,NA,TRUE,j,j,NA,NA,NA,11,6,"7,3,1,10,15,2,9,12,14,11,4,5,13,8,6"
15147,commdev-image-keyboard-response,194,441673,learnblock1,644,img/planet11_left.png,11,Community 2,NA,TRUE,f,f,NA,NA,NA,11,6,"7,3,1,10,15,2,9,12,14,11,4,5,13,8,6"
15147,commdev-image-keyboard-response,195,442925,learnblock1,855.7000000476837,img/planet9_left.png,9,Community 2,NA,TRUE,f,f,NA,NA,NA,11,6,"7,3,1,10,15,2,9,12,14,11,4,5,13,8,6"
15147,commdev-image-keyboard-response,196,444176,learnblock1,701.5,img/planet2_right.png,2,Community 2,NA,TRUE,j,j,NA,NA,NA,11,6,"7,3,1,10,15,2,9,12,14,11,4,5,13,8,6"
15147,commdev-image-keyboard-response,197,445427,learnblock1,623.1000000238419,img/planet9_right.png,9,Community 2,NA,TRUE,j,j,NA,NA,NA,11,6,"7,3,1,10,15,2,9,12,14,11,4,5,13,8,6"
15147,commdev-image-keyboard-response,198,446679,learnblock1,725.3999999761581,img/planet14_right.png,14,Community 2,NA,TRUE,j,j,NA,NA,NA,11,6,"7,3,1,10,15,2,9,12,14,11,4,5,13,8,6"
15147,commdev-image-keyboard-response,199,447931,learnblock1,682.1999999284744,img/planet2_left.png,2,Community 2,NA,FALSE,j,f,NA,NA,NA,11,6,"7,3,1,10,15,2,9,12,14,11,4,5,13,8,6"
15147,commdev-image-keyboard-response,200,449184,learnblock1,884.1000000238419,img/planet10_right.png,10,Community 1,NA,TRUE,j,j,NA,NA,NA,11,6,"7,3,1,10,15,2,9,12,14,11,4,5,13,8,6"
15147,commdev-image-keyboard-response,201,450435,learnblock1,841.7999999523163,img/planet3_left.png,3,Community 1,NA,TRUE,f,f,NA,NA,NA,11,6,"7,3,1,10,15,2,9,12,14,11,4,5,13,8,6"
15147,commdev-image-keyboard-response,202,451687,learnblock1,715.5,img/planet7_right.png,7,Community 1,NA,TRUE,j,j,NA,NA,NA,11,6,"7,3,1,10,15,2,9,12,14,11,4,5,13,8,6"
15147,commdev-image-keyboard-response,203,452937,learnblock1,657.6000000238419,img/planet1_right.png,1,Community 1,NA,TRUE,j,j,NA,NA,NA,11,6,"7,3,1,10,15,2,9,12,14,11,4,5,13,8,6"
15147,commdev-image-keyboard-response,204,454189,learnblock1,823.3999999761581,img/planet15_right.png,15,Community 1,NA,TRUE,j,j,NA,NA,NA,11,6,"7,3,1,10,15,2,9,12,14,11,4,5,13,8,6"
15147,commdev-image-keyboard-response,205,455440,learnblock1,700.5999999046326,img/planet4_left.png,4,Community 3,NA,TRUE,f,f,NA,NA,NA,11,6,"7,3,1,10,15,2,9,12,14,11,4,5,13,8,6"
15147,commdev-image-keyboard-response,206,456692,learnblock1,608,img/planet15_right.png,15,Community 1,NA,TRUE,j,j,NA,NA,NA,11,6,"7,3,1,10,15,2,9,12,14,11,4,5,13,8,6"
15147,commdev-image-keyboard-response,207,457943,learnblock1,635.3999999761581,img/planet3_left.png,3,Community 1,NA,TRUE,f,f,NA,NA,NA,11,6,"7,3,1,10,15,2,9,12,14,11,4,5,13,8,6"
15147,commdev-image-keyboard-response,208,459194,learnblock1,770.8000000715256,img/planet7_left.png,7,Community 1,NA,TRUE,f,f,NA,NA,NA,11,6,"7,3,1,10,15,2,9,12,14,11,4,5,13,8,6"
15147,commdev-image-keyboard-response,209,460446,learnblock1,669.7000000476837,img/planet3_right.png,3,Community 1,NA,TRUE,j,j,NA,NA,NA,11,6,"7,3,1,10,15,2,9,12,14,11,4,5,13,8,6"
15147,commdev-image-keyboard-response,210,461698,learnblock1,745.1000000238419,img/planet7_right.png,7,Community 1,NA,TRUE,j,j,NA,NA,NA,11,6,"7,3,1,10,15,2,9,12,14,11,4,5,13,8,6"
15147,commdev-image-keyboard-response,211,462949,learnblock1,678.2000000476837,img/planet10_right.png,10,Community 1,NA,TRUE,j,j,NA,NA,NA,11,6,"7,3,1,10,15,2,9,12,14,11,4,5,13,8,6"
15147,commdev-image-keyboard-response,212,464201,learnblock1,771.5,img/planet3_right.png,3,Community 1,NA,TRUE,j,j,NA,NA,NA,11,6,"7,3,1,10,15,2,9,12,14,11,4,5,13,8,6"
15147,commdev-image-keyboard-response,213,465451,learnblock1,null,img/planet1_left.png,1,Community 1,NA,FALSE,null,f,NA,NA,NA,11,6,"7,3,1,10,15,2,9,12,14,11,4,5,13,8,6"
15147,commdev-image-keyboard-response,214,466702,learnblock1,851.7999999523163,img/planet10_left.png,10,Community 1,NA,TRUE,f,f,NA,NA,NA,11,6,"7,3,1,10,15,2,9,12,14,11,4,5,13,8,6"
15147,commdev-image-keyboard-response,215,467954,learnblock1,665.6999999284744,img/planet1_right.png,1,Community 1,NA,TRUE,j,j,NA,NA,NA,11,6,"7,3,1,10,15,2,9,12,14,11,4,5,13,8,6"
15147,commdev-image-keyboard-response,216,469206,learnblock1,1022.6999999284744,img/planet7_right.png,7,Community 1,NA,FALSE,f,j,NA,NA,NA,11,6,"7,3,1,10,15,2,9,12,14,11,4,5,13,8,6"
15147,commdev-image-keyboard-response,217,470457,learnblock1,705.5,img/planet1_left.png,1,Community 1,NA,TRUE,f,f,NA,NA,NA,11,6,"7,3,1,10,15,2,9,12,14,11,4,5,13,8,6"
15147,commdev-image-keyboard-response,218,471709,learnblock1,613.1000000238419,img/planet10_right.png,10,Community 1,NA,TRUE,j,j,NA,NA,NA,11,6,"7,3,1,10,15,2,9,12,14,11,4,5,13,8,6"
15147,commdev-image-keyboard-response,219,472961,learnblock1,1177.2999999523163,img/planet7_left.png,7,Community 1,NA,TRUE,f,f,NA,NA,NA,11,6,"7,3,1,10,15,2,9,12,14,11,4,5,13,8,6"
15147,commdev-image-keyboard-response,220,474213,learnblock1,710.1000000238419,img/planet3_right.png,3,Community 1,NA,TRUE,j,j,NA,NA,NA,11,6,"7,3,1,10,15,2,9,12,14,11,4,5,13,8,6"
15147,commdev-image-keyboard-response,221,475465,learnblock1,784.8999999761581,img/planet10_right.png,10,Community 1,NA,TRUE,j,j,NA,NA,NA,11,6,"7,3,1,10,15,2,9,12,14,11,4,5,13,8,6"
15147,commdev-image-keyboard-response,222,476716,learnblock1,623.7000000476837,img/planet7_left.png,7,Community 1,NA,TRUE,f,f,NA,NA,NA,11,6,"7,3,1,10,15,2,9,12,14,11,4,5,13,8,6"
15147,commdev-image-keyboard-response,223,477967,learnblock1,594.5999999046326,img/planet1_right.png,1,Community 1,NA,TRUE,j,j,NA,NA,NA,11,6,"7,3,1,10,15,2,9,12,14,11,4,5,13,8,6"
15147,commdev-image-keyboard-response,224,479218,learnblock1,632.8000000715256,img/planet15_right.png,15,Community 1,NA,TRUE,j,j,NA,NA,NA,11,6,"7,3,1,10,15,2,9,12,14,11,4,5,13,8,6"
15147,commdev-image-keyboard-response,225,480470,learnblock1,581.7999999523163,img/planet3_left.png,3,Community 1,NA,TRUE,f,f,NA,NA,NA,11,6,"7,3,1,10,15,2,9,12,14,11,4,5,13,8,6"
15147,commdev-image-keyboard-response,226,481721,learnblock1,515.7999999523163,img/planet7_right.png,7,Community 1,NA,TRUE,j,j,NA,NA,NA,11,6,"7,3,1,10,15,2,9,12,14,11,4,5,13,8,6"
15147,commdev-image-keyboard-response,227,482972,learnblock1,544.1000000238419,img/planet1_right.png,1,Community 1,NA,TRUE,j,j,NA,NA,NA,11,6,"7,3,1,10,15,2,9,12,14,11,4,5,13,8,6"
15147,commdev-image-keyboard-response,228,484223,learnblock1,804.6000000238419,img/planet10_right.png,10,Community 1,NA,TRUE,j,j,NA,NA,NA,11,6,"7,3,1,10,15,2,9,12,14,11,4,5,13,8,6"
15147,commdev-image-keyboard-response,229,485475,learnblock1,647.6000000238419,img/planet3_left.png,3,Community 1,NA,TRUE,f,f,NA,NA,NA,11,6,"7,3,1,10,15,2,9,12,14,11,4,5,13,8,6"
15147,commdev-image-keyboard-response,230,486727,learnblock1,651.6999999284744,img/planet1_left.png,1,Community 1,NA,TRUE,f,f,NA,NA,NA,11,6,"7,3,1,10,15,2,9,12,14,11,4,5,13,8,6"
15147,commdev-image-keyboard-response,231,487994,learnblock1,753.3000000715256,img/planet7_right.png,7,Community 1,NA,TRUE,j,j,NA,NA,NA,11,6,"7,3,1,10,15,2,9,12,14,11,4,5,13,8,6"
15147,commdev-image-keyboard-response,232,489245,learnblock1,624.3999999761581,img/planet15_right.png,15,Community 1,NA,FALSE,f,j,NA,NA,NA,11,6,"7,3,1,10,15,2,9,12,14,11,4,5,13,8,6"
15147,commdev-image-keyboard-response,233,490497,learnblock1,698.6000000238419,img/planet7_right.png,7,Community 1,NA,TRUE,j,j,NA,NA,NA,11,6,"7,3,1,10,15,2,9,12,14,11,4,5,13,8,6"
15147,commdev-image-keyboard-response,234,491749,learnblock1,798.3000000715256,img/planet3_right.png,3,Community 1,NA,TRUE,j,j,NA,NA,NA,11,6,"7,3,1,10,15,2,9,12,14,11,4,5,13,8,6"
15147,commdev-image-keyboard-response,235,493001,learnblock1,778.5,img/planet1_left.png,1,Community 1,NA,TRUE,f,f,NA,NA,NA,11,6,"7,3,1,10,15,2,9,12,14,11,4,5,13,8,6"
15147,commdev-image-keyboard-response,236,494252,learnblock1,511.5,img/planet3_right.png,3,Community 1,NA,TRUE,j,j,NA,NA,NA,11,6,"7,3,1,10,15,2,9,12,14,11,4,5,13,8,6"
15147,commdev-image-keyboard-response,237,495504,learnblock1,634,img/planet7_right.png,7,Community 1,NA,TRUE,j,j,NA,NA,NA,11,6,"7,3,1,10,15,2,9,12,14,11,4,5,13,8,6"
15147,commdev-image-keyboard-response,238,496756,learnblock1,631.2999999523163,img/planet3_right.png,3,Community 1,NA,TRUE,j,j,NA,NA,NA,11,6,"7,3,1,10,15,2,9,12,14,11,4,5,13,8,6"
15147,commdev-image-keyboard-response,239,498007,learnblock1,539.6000000238419,img/planet1_left.png,1,Community 1,NA,TRUE,f,f,NA,NA,NA,11,6,"7,3,1,10,15,2,9,12,14,11,4,5,13,8,6"
15147,commdev-image-keyboard-response,240,499258,learnblock1,528.1000000238419,img/planet3_right.png,3,Community 1,NA,TRUE,j,j,NA,NA,NA,11,6,"7,3,1,10,15,2,9,12,14,11,4,5,13,8,6"
15147,commdev-image-keyboard-response,241,500509,learnblock1,599.5,img/planet15_left.png,15,Community 1,NA,TRUE,f,f,NA,NA,NA,11,6,"7,3,1,10,15,2,9,12,14,11,4,5,13,8,6"
15147,commdev-image-keyboard-response,242,501760,learnblock1,697.7999999523163,img/planet4_left.png,4,Community 3,NA,TRUE,f,f,NA,NA,NA,11,6,"7,3,1,10,15,2,9,12,14,11,4,5,13,8,6"
15147,commdev-image-keyboard-response,243,503011,learnblock1,898.7999999523163,img/planet15_left.png,15,Community 1,NA,TRUE,f,f,NA,NA,NA,11,6,"7,3,1,10,15,2,9,12,14,11,4,5,13,8,6"
15147,commdev-image-keyboard-response,244,504263,learnblock1,827.8999999761581,img/planet7_left.png,7,Community 1,NA,TRUE,f,f,NA,NA,NA,11,6,"7,3,1,10,15,2,9,12,14,11,4,5,13,8,6"
15147,commdev-image-keyboard-response,245,505514,learnblock1,591.7999999523163,img/planet3_left.png,3,Community 1,NA,TRUE,f,f,NA,NA,NA,11,6,"7,3,1,10,15,2,9,12,14,11,4,5,13,8,6"
15147,commdev-image-keyboard-response,246,506766,learnblock1,483.59999990463257,img/planet1_right.png,1,Community 1,NA,TRUE,j,j,NA,NA,NA,11,6,"7,3,1,10,15,2,9,12,14,11,4,5,13,8,6"
15147,commdev-image-keyboard-response,247,508018,learnblock1,441.39999997615814,img/planet15_right.png,15,Community 1,NA,TRUE,j,j,NA,NA,NA,11,6,"7,3,1,10,15,2,9,12,14,11,4,5,13,8,6"
15147,commdev-image-keyboard-response,248,509270,learnblock1,549.8999999761581,img/planet3_left.png,3,Community 1,NA,TRUE,f,f,NA,NA,NA,11,6,"7,3,1,10,15,2,9,12,14,11,4,5,13,8,6"
15147,commdev-image-keyboard-response,249,510521,learnblock1,659.3000000715256,img/planet1_right.png,1,Community 1,NA,FALSE,f,j,NA,NA,NA,11,6,"7,3,1,10,15,2,9,12,14,11,4,5,13,8,6"
15147,commdev-image-keyboard-response,250,511773,learnblock1,654.1000000238419,img/planet3_left.png,3,Community 1,NA,TRUE,f,f,NA,NA,NA,11,6,"7,3,1,10,15,2,9,12,14,11,4,5,13,8,6"
15147,commdev-image-keyboard-response,251,513025,learnblock1,571.2999999523163,img/planet7_left.png,7,Community 1,NA,TRUE,f,f,NA,NA,NA,11,6,"7,3,1,10,15,2,9,12,14,11,4,5,13,8,6"
15147,commdev-image-keyboard-response,252,514277,learnblock1,601.3999999761581,img/planet15_left.png,15,Community 1,NA,TRUE,f,f,NA,NA,NA,11,6,"7,3,1,10,15,2,9,12,14,11,4,5,13,8,6"
15147,commdev-image-keyboard-response,253,515528,learnblock1,625.3999999761581,img/planet3_left.png,3,Community 1,NA,TRUE,f,f,NA,NA,NA,11,6,"7,3,1,10,15,2,9,12,14,11,4,5,13,8,6"
15147,commdev-image-keyboard-response,254,516780,learnblock1,630.1999999284744,img/planet15_left.png,15,Community 1,NA,TRUE,f,f,NA,NA,NA,11,6,"7,3,1,10,15,2,9,12,14,11,4,5,13,8,6"
15147,commdev-image-keyboard-response,255,518032,learnblock1,539.5,img/planet1_left.png,1,Community 1,NA,TRUE,f,f,NA,NA,NA,11,6,"7,3,1,10,15,2,9,12,14,11,4,5,13,8,6"
15147,commdev-image-keyboard-response,256,519283,learnblock1,608,img/planet10_right.png,10,Community 1,NA,TRUE,j,j,NA,NA,NA,11,6,"7,3,1,10,15,2,9,12,14,11,4,5,13,8,6"
15147,commdev-image-keyboard-response,257,520535,learnblock1,431.90000009536743,img/planet1_right.png,1,Community 1,NA,TRUE,j,j,NA,NA,NA,11,6,"7,3,1,10,15,2,9,12,14,11,4,5,13,8,6"
15147,commdev-image-keyboard-response,258,521786,learnblock1,400.7999999523163,img/planet10_right.png,10,Community 1,NA,TRUE,j,j,NA,NA,NA,11,6,"7,3,1,10,15,2,9,12,14,11,4,5,13,8,6"
15147,commdev-image-keyboard-response,259,523037,learnblock1,473.60000002384186,img/planet1_left.png,1,Community 1,NA,FALSE,j,f,NA,NA,NA,11,6,"7,3,1,10,15,2,9,12,14,11,4,5,13,8,6"
15147,commdev-image-keyboard-response,260,524289,learnblock1,521.8000000715256,img/planet10_left.png,10,Community 1,NA,TRUE,f,f,NA,NA,NA,11,6,"7,3,1,10,15,2,9,12,14,11,4,5,13,8,6"
15147,commdev-image-keyboard-response,261,525540,learnblock1,696,img/planet7_right.png,7,Community 1,NA,TRUE,j,j,NA,NA,NA,11,6,"7,3,1,10,15,2,9,12,14,11,4,5,13,8,6"
15147,commdev-image-keyboard-response,262,526792,learnblock1,651.6000000238419,img/planet1_right.png,1,Community 1,NA,TRUE,j,j,NA,NA,NA,11,6,"7,3,1,10,15,2,9,12,14,11,4,5,13,8,6"
15147,commdev-image-keyboard-response,263,528043,learnblock1,727.5,img/planet10_left.png,10,Community 1,NA,TRUE,f,f,NA,NA,NA,11,6,"7,3,1,10,15,2,9,12,14,11,4,5,13,8,6"
15147,commdev-image-keyboard-response,264,529295,learnblock1,707.8999999761581,img/planet2_right.png,2,Community 2,NA,TRUE,j,j,NA,NA,NA,11,6,"7,3,1,10,15,2,9,12,14,11,4,5,13,8,6"
15147,commdev-image-keyboard-response,265,530547,learnblock1,704.1999999284744,img/planet14_left.png,14,Community 2,NA,TRUE,f,f,NA,NA,NA,11,6,"7,3,1,10,15,2,9,12,14,11,4,5,13,8,6"
15147,commdev-image-keyboard-response,266,531799,learnblock1,756.8999999761581,img/planet11_right.png,11,Community 2,NA,TRUE,j,j,NA,NA,NA,11,6,"7,3,1,10,15,2,9,12,14,11,4,5,13,8,6"
15147,commdev-image-keyboard-response,267,533049,learnblock1,865.2000000476837,img/planet2_right.png,2,Community 2,NA,TRUE,j,j,NA,NA,NA,11,6,"7,3,1,10,15,2,9,12,14,11,4,5,13,8,6"
15147,commdev-image-keyboard-response,268,534301,learnblock1,728.7000000476837,img/planet11_left.png,11,Community 2,NA,TRUE,f,f,NA,NA,NA,11,6,"7,3,1,10,15,2,9,12,14,11,4,5,13,8,6"
15147,commdev-image-keyboard-response,269,535553,learnblock1,587.3999999761581,img/planet2_right.png,2,Community 2,NA,TRUE,j,j,NA,NA,NA,11,6,"7,3,1,10,15,2,9,12,14,11,4,5,13,8,6"
15147,commdev-image-keyboard-response,270,536805,learnblock1,664.2999999523163,img/planet10_left.png,10,Community 1,NA,TRUE,f,f,NA,NA,NA,11,6,"7,3,1,10,15,2,9,12,14,11,4,5,13,8,6"
15147,commdev-image-keyboard-response,271,538056,learnblock1,988.2999999523163,img/planet3_right.png,3,Community 1,NA,TRUE,j,j,NA,NA,NA,11,6,"7,3,1,10,15,2,9,12,14,11,4,5,13,8,6"
15147,commdev-image-keyboard-response,272,539308,learnblock1,625,img/planet10_left.png,10,Community 1,NA,TRUE,f,f,NA,NA,NA,11,6,"7,3,1,10,15,2,9,12,14,11,4,5,13,8,6"
15147,commdev-image-keyboard-response,273,540559,learnblock1,764.8000000715256,img/planet7_left.png,7,Community 1,NA,TRUE,f,f,NA,NA,NA,11,6,"7,3,1,10,15,2,9,12,14,11,4,5,13,8,6"
15147,commdev-image-keyboard-response,274,541812,learnblock1,857.7000000476837,img/planet15_left.png,15,Community 1,NA,TRUE,f,f,NA,NA,NA,11,6,"7,3,1,10,15,2,9,12,14,11,4,5,13,8,6"
15147,commdev-image-keyboard-response,275,543063,learnblock1,788.3999999761581,img/planet7_left.png,7,Community 1,NA,TRUE,f,f,NA,NA,NA,11,6,"7,3,1,10,15,2,9,12,14,11,4,5,13,8,6"
15147,commdev-image-keyboard-response,276,544315,learnblock1,650.3000000715256,img/planet10_left.png,10,Community 1,NA,FALSE,j,f,NA,NA,NA,11,6,"7,3,1,10,15,2,9,12,14,11,4,5,13,8,6"
15147,commdev-image-keyboard-response,277,545566,learnblock1,700.5999999046326,img/planet1_left.png,1,Community 1,NA,TRUE,f,f,NA,NA,NA,11,6,"7,3,1,10,15,2,9,12,14,11,4,5,13,8,6"
15147,commdev-image-keyboard-response,278,546818,learnblock1,442.6999999284744,img/planet3_left.png,3,Community 1,NA,TRUE,f,f,NA,NA,NA,11,6,"7,3,1,10,15,2,9,12,14,11,4,5,13,8,6"
15147,commdev-image-keyboard-response,279,548069,learnblock1,543.1000000238419,img/planet1_right.png,1,Community 1,NA,TRUE,j,j,NA,NA,NA,11,6,"7,3,1,10,15,2,9,12,14,11,4,5,13,8,6"
15147,commdev-image-keyboard-response,280,549321,learnblock1,898.2999999523163,img/planet7_left.png,7,Community 1,NA,TRUE,f,f,NA,NA,NA,11,6,"7,3,1,10,15,2,9,12,14,11,4,5,13,8,6"
15147,commdev-image-keyboard-response,281,550573,learnblock1,677.6000000238419,img/planet1_right.png,1,Community 1,NA,TRUE,j,j,NA,NA,NA,11,6,"7,3,1,10,15,2,9,12,14,11,4,5,13,8,6"
15147,commdev-image-keyboard-response,282,551825,learnblock1,651.2000000476837,img/planet10_right.png,10,Community 1,NA,TRUE,j,j,NA,NA,NA,11,6,"7,3,1,10,15,2,9,12,14,11,4,5,13,8,6"
15147,commdev-image-keyboard-response,283,553076,learnblock1,753,img/planet2_left.png,2,Community 2,NA,TRUE,f,f,NA,NA,NA,11,6,"7,3,1,10,15,2,9,12,14,11,4,5,13,8,6"
15147,commdev-image-keyboard-response,284,554327,learnblock1,1035.5,img/planet14_left.png,14,Community 2,NA,TRUE,f,f,NA,NA,NA,11,6,"7,3,1,10,15,2,9,12,14,11,4,5,13,8,6"
15147,commdev-image-keyboard-response,285,555578,learnblock1,881.1000000238419,img/planet9_right.png,9,Community 2,NA,TRUE,j,j,NA,NA,NA,11,6,"7,3,1,10,15,2,9,12,14,11,4,5,13,8,6"
15147,commdev-image-keyboard-response,286,556830,learnblock1,807.1000000238419,img/planet14_right.png,14,Community 2,NA,FALSE,f,j,NA,NA,NA,11,6,"7,3,1,10,15,2,9,12,14,11,4,5,13,8,6"
15147,commdev-image-keyboard-response,287,558081,learnblock1,null,img/planet9_left.png,9,Community 2,NA,FALSE,null,f,NA,NA,NA,11,6,"7,3,1,10,15,2,9,12,14,11,4,5,13,8,6"
15147,commdev-image-keyboard-response,288,559333,learnblock1,151.59999990463257,img/planet14_right.png,14,Community 2,NA,FALSE,f,j,NA,NA,NA,11,6,"7,3,1,10,15,2,9,12,14,11,4,5,13,8,6"
15147,commdev-image-keyboard-response,289,560585,learnblock1,874.9000000953674,img/planet9_right.png,9,Community 2,NA,FALSE,f,j,NA,NA,NA,11,6,"7,3,1,10,15,2,9,12,14,11,4,5,13,8,6"
15147,commdev-image-keyboard-response,290,561836,learnblock1,711.5,img/planet2_right.png,2,Community 2,NA,TRUE,j,j,NA,NA,NA,11,6,"7,3,1,10,15,2,9,12,14,11,4,5,13,8,6"
15147,commdev-image-keyboard-response,291,563088,learnblock1,758.1000000238419,img/planet14_right.png,14,Community 2,NA,TRUE,j,j,NA,NA,NA,11,6,"7,3,1,10,15,2,9,12,14,11,4,5,13,8,6"
15147,commdev-image-keyboard-response,292,564339,learnblock1,904.6000000238419,img/planet12_right.png,12,Community 2,NA,TRUE,j,j,NA,NA,NA,11,6,"7,3,1,10,15,2,9,12,14,11,4,5,13,8,6"
15147,commdev-image-keyboard-response,293,565592,learnblock1,null,img/planet11_right.png,11,Community 2,NA,FALSE,null,j,NA,NA,NA,11,6,"7,3,1,10,15,2,9,12,14,11,4,5,13,8,6"
15147,commdev-image-keyboard-response,294,566844,learnblock1,null,img/planet12_right.png,12,Community 2,NA,FALSE,null,j,NA,NA,NA,11,6,"7,3,1,10,15,2,9,12,14,11,4,5,13,8,6"
15147,commdev-image-keyboard-response,295,568094,learnblock1,78.20000004768372,img/planet14_right.png,14,Community 2,NA,TRUE,j,j,NA,NA,NA,11,6,"7,3,1,10,15,2,9,12,14,11,4,5,13,8,6"
15147,commdev-image-keyboard-response,296,569346,learnblock1,602.5,img/planet9_right.png,9,Community 2,NA,TRUE,j,j,NA,NA,NA,11,6,"7,3,1,10,15,2,9,12,14,11,4,5,13,8,6"
15147,commdev-image-keyboard-response,297,570597,learnblock1,758.3000000715256,img/planet2_left.png,2,Community 2,NA,TRUE,f,f,NA,NA,NA,11,6,"7,3,1,10,15,2,9,12,14,11,4,5,13,8,6"
15147,commdev-image-keyboard-response,298,571849,learnblock1,645.6999999284744,img/planet14_right.png,14,Community 2,NA,TRUE,j,j,NA,NA,NA,11,6,"7,3,1,10,15,2,9,12,14,11,4,5,13,8,6"
15147,commdev-image-keyboard-response,299,573102,learnblock1,940,img/planet9_left.png,9,Community 2,NA,FALSE,j,f,NA,NA,NA,11,6,"7,3,1,10,15,2,9,12,14,11,4,5,13,8,6"
15147,commdev-image-keyboard-response,300,574353,learnblock1,809.7999999523163,img/planet14_left.png,14,Community 2,NA,TRUE,f,f,NA,NA,NA,11,6,"7,3,1,10,15,2,9,12,14,11,4,5,13,8,6"
15147,commdev-image-keyboard-response,301,575605,learnblock1,677.6999999284744,img/planet9_left.png,9,Community 2,NA,TRUE,f,f,NA,NA,NA,11,6,"7,3,1,10,15,2,9,12,14,11,4,5,13,8,6"
15147,commdev-image-keyboard-response,302,576856,learnblock1,986,img/planet14_right.png,14,Community 2,NA,TRUE,j,j,NA,NA,NA,11,6,"7,3,1,10,15,2,9,12,14,11,4,5,13,8,6"
15147,commdev-image-keyboard-response,303,578107,learnblock1,655.2000000476837,img/planet9_left.png,9,Community 2,NA,TRUE,f,f,NA,NA,NA,11,6,"7,3,1,10,15,2,9,12,14,11,4,5,13,8,6"
15147,commdev-image-keyboard-response,304,579358,learnblock1,755.8000000715256,img/planet2_left.png,2,Community 2,NA,TRUE,f,f,NA,NA,NA,11,6,"7,3,1,10,15,2,9,12,14,11,4,5,13,8,6"
15147,commdev-image-keyboard-response,305,580609,learnblock1,657.3999999761581,img/planet10_left.png,10,Community 1,NA,TRUE,f,f,NA,NA,NA,11,6,"7,3,1,10,15,2,9,12,14,11,4,5,13,8,6"
15147,commdev-image-keyboard-response,306,581861,learnblock1,575.8000000715256,img/planet7_left.png,7,Community 1,NA,TRUE,f,f,NA,NA,NA,11,6,"7,3,1,10,15,2,9,12,14,11,4,5,13,8,6"
15147,commdev-image-keyboard-response,307,583112,learnblock1,651.3999999761581,img/planet15_right.png,15,Community 1,NA,TRUE,j,j,NA,NA,NA,11,6,"7,3,1,10,15,2,9,12,14,11,4,5,13,8,6"
15147,commdev-image-keyboard-response,308,584363,learnblock1,655.7000000476837,img/planet7_left.png,7,Community 1,NA,TRUE,f,f,NA,NA,NA,11,6,"7,3,1,10,15,2,9,12,14,11,4,5,13,8,6"
15147,commdev-image-keyboard-response,309,585615,learnblock1,636,img/planet10_left.png,10,Community 1,NA,TRUE,f,f,NA,NA,NA,11,6,"7,3,1,10,15,2,9,12,14,11,4,5,13,8,6"
15147,commdev-image-keyboard-response,310,586867,learnblock1,872.6000000238419,img/planet7_left.png,7,Community 1,NA,TRUE,f,f,NA,NA,NA,11,6,"7,3,1,10,15,2,9,12,14,11,4,5,13,8,6"
15147,commdev-image-keyboard-response,311,588118,learnblock1,684.7000000476837,img/planet15_left.png,15,Community 1,NA,TRUE,f,f,NA,NA,NA,11,6,"7,3,1,10,15,2,9,12,14,11,4,5,13,8,6"
15147,commdev-image-keyboard-response,312,589369,learnblock1,556.8999999761581,img/planet7_left.png,7,Community 1,NA,TRUE,f,f,NA,NA,NA,11,6,"7,3,1,10,15,2,9,12,14,11,4,5,13,8,6"
15147,commdev-image-keyboard-response,313,590620,learnblock1,694.7999999523163,img/planet15_right.png,15,Community 1,NA,TRUE,j,j,NA,NA,NA,11,6,"7,3,1,10,15,2,9,12,14,11,4,5,13,8,6"
15147,commdev-image-keyboard-response,314,591873,learnblock1,692,img/planet1_right.png,1,Community 1,NA,TRUE,j,j,NA,NA,NA,11,6,"7,3,1,10,15,2,9,12,14,11,4,5,13,8,6"
15147,commdev-image-keyboard-response,315,593125,learnblock1,597.5,img/planet3_left.png,3,Community 1,NA,TRUE,f,f,NA,NA,NA,11,6,"7,3,1,10,15,2,9,12,14,11,4,5,13,8,6"
15147,commdev-image-keyboard-response,316,594376,learnblock1,474.1999999284744,img/planet10_left.png,10,Community 1,NA,TRUE,f,f,NA,NA,NA,11,6,"7,3,1,10,15,2,9,12,14,11,4,5,13,8,6"
15147,commdev-image-keyboard-response,317,595628,learnblock1,463.1999999284744,img/planet1_left.png,1,Community 1,NA,TRUE,f,f,NA,NA,NA,11,6,"7,3,1,10,15,2,9,12,14,11,4,5,13,8,6"
15147,commdev-image-keyboard-response,318,596879,learnblock1,661.2999999523163,img/planet7_left.png,7,Community 1,NA,TRUE,f,f,NA,NA,NA,11,6,"7,3,1,10,15,2,9,12,14,11,4,5,13,8,6"
15147,commdev-image-keyboard-response,319,598131,learnblock1,841.5,img/planet10_left.png,10,Community 1,NA,TRUE,f,f,NA,NA,NA,11,6,"7,3,1,10,15,2,9,12,14,11,4,5,13,8,6"
15147,commdev-image-keyboard-response,320,599381,learnblock1,1151,img/planet2_left.png,2,Community 2,NA,TRUE,f,f,NA,NA,NA,11,6,"7,3,1,10,15,2,9,12,14,11,4,5,13,8,6"
15147,commdev-image-keyboard-response,321,600633,learnblock1,635.2999999523163,img/planet9_left.png,9,Community 2,NA,TRUE,f,f,NA,NA,NA,11,6,"7,3,1,10,15,2,9,12,14,11,4,5,13,8,6"
15147,commdev-image-keyboard-response,322,601885,learnblock1,655.8999999761581,img/planet12_left.png,12,Community 2,NA,TRUE,f,f,NA,NA,NA,11,6,"7,3,1,10,15,2,9,12,14,11,4,5,13,8,6"
15147,commdev-image-keyboard-response,323,603136,learnblock1,702.1000000238419,img/planet14_right.png,14,Community 2,NA,TRUE,j,j,NA,NA,NA,11,6,"7,3,1,10,15,2,9,12,14,11,4,5,13,8,6"
15147,commdev-image-keyboard-response,324,604388,learnblock1,735.7000000476837,img/planet12_right.png,12,Community 2,NA,TRUE,j,j,NA,NA,NA,11,6,"7,3,1,10,15,2,9,12,14,11,4,5,13,8,6"
15147,commdev-image-keyboard-response,325,605639,learnblock1,803.1000000238419,img/planet14_left.png,14,Community 2,NA,TRUE,f,f,NA,NA,NA,11,6,"7,3,1,10,15,2,9,12,14,11,4,5,13,8,6"
15147,commdev-image-keyboard-response,326,606890,learnblock1,888.7000000476837,img/planet11_left.png,11,Community 2,NA,TRUE,f,f,NA,NA,NA,11,6,"7,3,1,10,15,2,9,12,14,11,4,5,13,8,6"
15147,commdev-image-keyboard-response,327,608141,learnblock1,556.8999999761581,img/planet12_left.png,12,Community 2,NA,TRUE,f,f,NA,NA,NA,11,6,"7,3,1,10,15,2,9,12,14,11,4,5,13,8,6"
15147,commdev-image-keyboard-response,328,609393,learnblock1,541.2999999523163,img/planet14_left.png,14,Community 2,NA,TRUE,f,f,NA,NA,NA,11,6,"7,3,1,10,15,2,9,12,14,11,4,5,13,8,6"
15147,commdev-image-keyboard-response,329,610644,learnblock1,702.7000000476837,img/planet12_right.png,12,Community 2,NA,TRUE,j,j,NA,NA,NA,11,6,"7,3,1,10,15,2,9,12,14,11,4,5,13,8,6"
15147,commdev-image-keyboard-response,330,611895,learnblock1,659.7999999523163,img/planet11_right.png,11,Community 2,NA,TRUE,j,j,NA,NA,NA,11,6,"7,3,1,10,15,2,9,12,14,11,4,5,13,8,6"
15147,commdev-image-keyboard-response,331,613147,learnblock1,664.7000000476837,img/planet14_right.png,14,Community 2,NA,TRUE,j,j,NA,NA,NA,11,6,"7,3,1,10,15,2,9,12,14,11,4,5,13,8,6"
15147,commdev-image-keyboard-response,332,614398,learnblock1,646.7000000476837,img/planet11_right.png,11,Community 2,NA,TRUE,j,j,NA,NA,NA,11,6,"7,3,1,10,15,2,9,12,14,11,4,5,13,8,6"
15147,commdev-image-keyboard-response,333,615650,learnblock1,617.1999999284744,img/planet14_left.png,14,Community 2,NA,TRUE,f,f,NA,NA,NA,11,6,"7,3,1,10,15,2,9,12,14,11,4,5,13,8,6"
15147,commdev-image-keyboard-response,334,616902,learnblock1,555.6000000238419,img/planet11_right.png,11,Community 2,NA,TRUE,j,j,NA,NA,NA,11,6,"7,3,1,10,15,2,9,12,14,11,4,5,13,8,6"
15147,commdev-image-keyboard-response,335,618153,learnblock1,585.3999999761581,img/planet14_right.png,14,Community 2,NA,TRUE,j,j,NA,NA,NA,11,6,"7,3,1,10,15,2,9,12,14,11,4,5,13,8,6"
15147,commdev-image-keyboard-response,336,619406,learnblock1,582.1000000238419,img/planet9_left.png,9,Community 2,NA,TRUE,f,f,NA,NA,NA,11,6,"7,3,1,10,15,2,9,12,14,11,4,5,13,8,6"
15147,commdev-image-keyboard-response,337,620656,learnblock1,570.7999999523163,img/planet12_right.png,12,Community 2,NA,TRUE,j,j,NA,NA,NA,11,6,"7,3,1,10,15,2,9,12,14,11,4,5,13,8,6"
15147,commdev-image-keyboard-response,338,621907,learnblock1,735.4000000953674,img/planet11_right.png,11,Community 2,NA,TRUE,j,j,NA,NA,NA,11,6,"7,3,1,10,15,2,9,12,14,11,4,5,13,8,6"
15147,commdev-image-keyboard-response,339,623159,learnblock1,620.3000000715256,img/planet9_left.png,9,Community 2,NA,TRUE,f,f,NA,NA,NA,11,6,"7,3,1,10,15,2,9,12,14,11,4,5,13,8,6"
15147,commdev-image-keyboard-response,340,624411,learnblock1,672.0999999046326,img/planet14_right.png,14,Community 2,NA,TRUE,j,j,NA,NA,NA,11,6,"7,3,1,10,15,2,9,12,14,11,4,5,13,8,6"
15147,commdev-image-keyboard-response,341,625663,learnblock1,796.2999999523163,img/planet2_left.png,2,Community 2,NA,FALSE,j,f,NA,NA,NA,11,6,"7,3,1,10,15,2,9,12,14,11,4,5,13,8,6"
15147,commdev-image-keyboard-response,342,626915,learnblock1,696.6000000238419,img/planet10_left.png,10,Community 1,NA,TRUE,f,f,NA,NA,NA,11,6,"7,3,1,10,15,2,9,12,14,11,4,5,13,8,6"
15147,commdev-image-keyboard-response,343,628166,learnblock1,652.4000000953674,img/planet7_right.png,7,Community 1,NA,TRUE,j,j,NA,NA,NA,11,6,"7,3,1,10,15,2,9,12,14,11,4,5,13,8,6"
15147,commdev-image-keyboard-response,344,629418,learnblock1,680.8999999761581,img/planet15_right.png,15,Community 1,NA,TRUE,j,j,NA,NA,NA,11,6,"7,3,1,10,15,2,9,12,14,11,4,5,13,8,6"
15147,commdev-image-keyboard-response,345,630670,learnblock1,805,img/planet3_left.png,3,Community 1,NA,TRUE,f,f,NA,NA,NA,11,6,"7,3,1,10,15,2,9,12,14,11,4,5,13,8,6"
15147,commdev-image-keyboard-response,346,631921,learnblock1,666.3999999761581,img/planet7_right.png,7,Community 1,NA,TRUE,j,j,NA,NA,NA,11,6,"7,3,1,10,15,2,9,12,14,11,4,5,13,8,6"
15147,commdev-image-keyboard-response,347,633179,learnblock1,608,img/planet15_left.png,15,Community 1,NA,FALSE,j,f,NA,NA,NA,11,6,"7,3,1,10,15,2,9,12,14,11,4,5,13,8,6"
15147,commdev-image-keyboard-response,351,669411,learnblock2,966.8000000715256,img/planet2_left.png,2,Community 2,NA,TRUE,f,f,NA,NA,NA,11,6,"7,3,1,10,15,2,9,12,14,11,4,5,13,8,6"
15147,commdev-image-keyboard-response,352,670663,learnblock2,829.6999999284744,img/planet9_left.png,9,Community 2,NA,TRUE,f,f,NA,NA,NA,11,6,"7,3,1,10,15,2,9,12,14,11,4,5,13,8,6"
15147,commdev-image-keyboard-response,353,671914,learnblock2,584,img/planet2_left.png,2,Community 2,NA,TRUE,f,f,NA,NA,NA,11,6,"7,3,1,10,15,2,9,12,14,11,4,5,13,8,6"
15147,commdev-image-keyboard-response,354,673166,learnblock2,653.5,img/planet10_right.png,10,Community 1,NA,TRUE,j,j,NA,NA,NA,11,6,"7,3,1,10,15,2,9,12,14,11,4,5,13,8,6"
15147,commdev-image-keyboard-response,355,674429,learnblock2,777.3999999761581,img/planet1_left.png,1,Community 1,NA,TRUE,f,f,NA,NA,NA,11,6,"7,3,1,10,15,2,9,12,14,11,4,5,13,8,6"
15147,commdev-image-keyboard-response,356,675681,learnblock2,770.3000000715256,img/planet15_right.png,15,Community 1,NA,TRUE,j,j,NA,NA,NA,11,6,"7,3,1,10,15,2,9,12,14,11,4,5,13,8,6"
15147,commdev-image-keyboard-response,357,676933,learnblock2,671.6999999284744,img/planet3_right.png,3,Community 1,NA,TRUE,j,j,NA,NA,NA,11,6,"7,3,1,10,15,2,9,12,14,11,4,5,13,8,6"
15147,commdev-image-keyboard-response,358,678185,learnblock2,684,img/planet7_left.png,7,Community 1,NA,TRUE,f,f,NA,NA,NA,11,6,"7,3,1,10,15,2,9,12,14,11,4,5,13,8,6"
15147,commdev-image-keyboard-response,359,679436,learnblock2,737.3000000715256,img/planet10_left.png,10,Community 1,NA,TRUE,f,f,NA,NA,NA,11,6,"7,3,1,10,15,2,9,12,14,11,4,5,13,8,6"
15147,commdev-image-keyboard-response,360,680687,learnblock2,541,img/planet2_left.png,2,Community 2,NA,TRUE,f,f,NA,NA,NA,11,6,"7,3,1,10,15,2,9,12,14,11,4,5,13,8,6"
15147,commdev-image-keyboard-response,361,681939,learnblock2,403.60000002384186,img/planet10_left.png,10,Community 1,NA,TRUE,f,f,NA,NA,NA,11,6,"7,3,1,10,15,2,9,12,14,11,4,5,13,8,6"
15147,commdev-image-keyboard-response,362,683190,learnblock2,576.5,img/planet1_left.png,1,Community 1,NA,TRUE,f,f,NA,NA,NA,11,6,"7,3,1,10,15,2,9,12,14,11,4,5,13,8,6"
15147,commdev-image-keyboard-response,363,684452,learnblock2,514.1000000238419,img/planet15_left.png,15,Community 1,NA,TRUE,f,f,NA,NA,NA,11,6,"7,3,1,10,15,2,9,12,14,11,4,5,13,8,6"
15147,commdev-image-keyboard-response,364,685703,learnblock2,685.5,img/planet7_left.png,7,Community 1,NA,TRUE,f,f,NA,NA,NA,11,6,"7,3,1,10,15,2,9,12,14,11,4,5,13,8,6"
15147,commdev-image-keyboard-response,365,686954,learnblock2,673,img/planet1_right.png,1,Community 1,NA,TRUE,j,j,NA,NA,NA,11,6,"7,3,1,10,15,2,9,12,14,11,4,5,13,8,6"
15147,commdev-image-keyboard-response,366,688205,learnblock2,718.1000000238419,img/planet3_left.png,3,Community 1,NA,TRUE,f,f,NA,NA,NA,11,6,"7,3,1,10,15,2,9,12,14,11,4,5,13,8,6"
15147,commdev-image-keyboard-response,367,689457,learnblock2,656.7999999523163,img/planet15_left.png,15,Community 1,NA,TRUE,f,f,NA,NA,NA,11,6,"7,3,1,10,15,2,9,12,14,11,4,5,13,8,6"
15147,commdev-image-keyboard-response,368,690709,learnblock2,654.5,img/planet7_left.png,7,Community 1,NA,TRUE,f,f,NA,NA,NA,11,6,"7,3,1,10,15,2,9,12,14,11,4,5,13,8,6"
15147,commdev-image-keyboard-response,369,691961,learnblock2,778.8999999761581,img/planet15_left.png,15,Community 1,NA,TRUE,f,f,NA,NA,NA,11,6,"7,3,1,10,15,2,9,12,14,11,4,5,13,8,6"
15147,commdev-image-keyboard-response,370,693213,learnblock2,598.7999999523163,img/planet3_right.png,3,Community 1,NA,TRUE,j,j,NA,NA,NA,11,6,"7,3,1,10,15,2,9,12,14,11,4,5,13,8,6"
15147,commdev-image-keyboard-response,371,694464,learnblock2,661.1000000238419,img/planet1_left.png,1,Community 1,NA,TRUE,f,f,NA,NA,NA,11,6,"7,3,1,10,15,2,9,12,14,11,4,5,13,8,6"
15147,commdev-image-keyboard-response,372,695715,learnblock2,591.5,img/planet3_right.png,3,Community 1,NA,TRUE,j,j,NA,NA,NA,11,6,"7,3,1,10,15,2,9,12,14,11,4,5,13,8,6"
15147,commdev-image-keyboard-response,373,696967,learnblock2,605.3999999761581,img/planet7_right.png,7,Community 1,NA,TRUE,j,j,NA,NA,NA,11,6,"7,3,1,10,15,2,9,12,14,11,4,5,13,8,6"
15147,commdev-image-keyboard-response,374,698218,learnblock2,656,img/planet15_left.png,15,Community 1,NA,TRUE,f,f,NA,NA,NA,11,6,"7,3,1,10,15,2,9,12,14,11,4,5,13,8,6"
15147,commdev-image-keyboard-response,375,699469,learnblock2,654.7999999523163,img/planet7_right.png,7,Community 1,NA,TRUE,j,j,NA,NA,NA,11,6,"7,3,1,10,15,2,9,12,14,11,4,5,13,8,6"
15147,commdev-image-keyboard-response,376,700720,learnblock2,587.2000000476837,img/planet10_left.png,10,Community 1,NA,TRUE,f,f,NA,NA,NA,11,6,"7,3,1,10,15,2,9,12,14,11,4,5,13,8,6"
15147,commdev-image-keyboard-response,377,701972,learnblock2,503.60000002384186,img/planet1_left.png,1,Community 1,NA,TRUE,f,f,NA,NA,NA,11,6,"7,3,1,10,15,2,9,12,14,11,4,5,13,8,6"
15147,commdev-image-keyboard-response,378,703223,learnblock2,479.2999999523163,img/planet3_left.png,3,Community 1,NA,TRUE,f,f,NA,NA,NA,11,6,"7,3,1,10,15,2,9,12,14,11,4,5,13,8,6"
15147,commdev-image-keyboard-response,379,704490,learnblock2,560,img/planet15_right.png,15,Community 1,NA,TRUE,j,j,NA,NA,NA,11,6,"7,3,1,10,15,2,9,12,14,11,4,5,13,8,6"
15147,commdev-image-keyboard-response,380,705741,learnblock2,613.7999999523163,img/planet4_right.png,4,Community 3,NA,TRUE,j,j,NA,NA,NA,11,6,"7,3,1,10,15,2,9,12,14,11,4,5,13,8,6"
15147,commdev-image-keyboard-response,381,706994,learnblock2,636.1000000238419,img/planet15_right.png,15,Community 1,NA,TRUE,j,j,NA,NA,NA,11,6,"7,3,1,10,15,2,9,12,14,11,4,5,13,8,6"
15147,commdev-image-keyboard-response,382,708254,learnblock2,629.8999999761581,img/planet3_left.png,3,Community 1,NA,TRUE,f,f,NA,NA,NA,11,6,"7,3,1,10,15,2,9,12,14,11,4,5,13,8,6"
15147,commdev-image-keyboard-response,383,709506,learnblock2,512.6000000238419,img/planet15_left.png,15,Community 1,NA,TRUE,f,f,NA,NA,NA,11,6,"7,3,1,10,15,2,9,12,14,11,4,5,13,8,6"
15147,commdev-image-keyboard-response,384,710757,learnblock2,493.60000002384186,img/planet1_right.png,1,Community 1,NA,TRUE,j,j,NA,NA,NA,11,6,"7,3,1,10,15,2,9,12,14,11,4,5,13,8,6"
15147,commdev-image-keyboard-response,385,712010,learnblock2,555.5999999046326,img/planet3_left.png,3,Community 1,NA,TRUE,f,f,NA,NA,NA,11,6,"7,3,1,10,15,2,9,12,14,11,4,5,13,8,6"
15147,commdev-image-keyboard-response,386,713262,learnblock2,606.1999999284744,img/planet10_left.png,10,Community 1,NA,FALSE,j,f,NA,NA,NA,11,6,"7,3,1,10,15,2,9,12,14,11,4,5,13,8,6"
15147,commdev-image-keyboard-response,387,714514,learnblock2,530.6999999284744,img/planet1_right.png,1,Community 1,NA,FALSE,f,j,NA,NA,NA,11,6,"7,3,1,10,15,2,9,12,14,11,4,5,13,8,6"
15147,commdev-image-keyboard-response,388,715766,learnblock2,701.7000000476837,img/planet7_right.png,7,Community 1,NA,FALSE,f,j,NA,NA,NA,11,6,"7,3,1,10,15,2,9,12,14,11,4,5,13,8,6"
15147,commdev-image-keyboard-response,389,717017,learnblock2,1035.6000000238419,img/planet15_right.png,15,Community 1,NA,TRUE,j,j,NA,NA,NA,11,6,"7,3,1,10,15,2,9,12,14,11,4,5,13,8,6"
15147,commdev-image-keyboard-response,390,718269,learnblock2,678.2000000476837,img/planet7_right.png,7,Community 1,NA,TRUE,j,j,NA,NA,NA,11,6,"7,3,1,10,15,2,9,12,14,11,4,5,13,8,6"
15147,commdev-image-keyboard-response,391,719521,learnblock2,621.2999999523163,img/planet15_right.png,15,Community 1,NA,TRUE,j,j,NA,NA,NA,11,6,"7,3,1,10,15,2,9,12,14,11,4,5,13,8,6"
15147,commdev-image-keyboard-response,392,720774,learnblock2,637.5,img/planet4_right.png,4,Community 3,NA,TRUE,j,j,NA,NA,NA,11,6,"7,3,1,10,15,2,9,12,14,11,4,5,13,8,6"
15147,commdev-image-keyboard-response,393,722024,learnblock2,594.8999999761581,img/planet13_right.png,13,Community 3,NA,TRUE,j,j,NA,NA,NA,11,6,"7,3,1,10,15,2,9,12,14,11,4,5,13,8,6"
15147,commdev-image-keyboard-response,394,723275,learnblock2,489.10000002384186,img/planet6_left.png,6,Community 3,NA,TRUE,f,f,NA,NA,NA,11,6,"7,3,1,10,15,2,9,12,14,11,4,5,13,8,6"
15147,commdev-image-keyboard-response,395,724527,learnblock2,587.8999999761581,img/planet4_right.png,4,Community 3,NA,TRUE,j,j,NA,NA,NA,11,6,"7,3,1,10,15,2,9,12,14,11,4,5,13,8,6"
15147,commdev-image-keyboard-response,396,725779,learnblock2,647.9000000953674,img/planet13_right.png,13,Community 3,NA,TRUE,j,j,NA,NA,NA,11,6,"7,3,1,10,15,2,9,12,14,11,4,5,13,8,6"
15147,commdev-image-keyboard-response,397,727031,learnblock2,611.3999999761581,img/planet6_right.png,6,Community 3,NA,TRUE,j,j,NA,NA,NA,11,6,"7,3,1,10,15,2,9,12,14,11,4,5,13,8,6"
15147,commdev-image-keyboard-response,398,728283,learnblock2,608.2000000476837,img/planet4_right.png,4,Community 3,NA,TRUE,j,j,NA,NA,NA,11,6,"7,3,1,10,15,2,9,12,14,11,4,5,13,8,6"
15147,commdev-image-keyboard-response,399,729533,learnblock2,761.2999999523163,img/planet6_left.png,6,Community 3,NA,TRUE,f,f,NA,NA,NA,11,6,"7,3,1,10,15,2,9,12,14,11,4,5,13,8,6"
15147,commdev-image-keyboard-response,400,730784,learnblock2,666,img/planet5_right.png,5,Community 3,NA,TRUE,j,j,NA,NA,NA,11,6,"7,3,1,10,15,2,9,12,14,11,4,5,13,8,6"
15147,commdev-image-keyboard-response,401,732036,learnblock2,554.3999999761581,img/planet13_right.png,13,Community 3,NA,TRUE,j,j,NA,NA,NA,11,6,"7,3,1,10,15,2,9,12,14,11,4,5,13,8,6"
15147,commdev-image-keyboard-response,402,733288,learnblock2,493.2999999523163,img/planet6_left.png,6,Community 3,NA,TRUE,f,f,NA,NA,NA,11,6,"7,3,1,10,15,2,9,12,14,11,4,5,13,8,6"
15147,commdev-image-keyboard-response,403,734539,learnblock2,728.7999999523163,img/planet8_left.png,8,Community 3,NA,TRUE,f,f,NA,NA,NA,11,6,"7,3,1,10,15,2,9,12,14,11,4,5,13,8,6"
15147,commdev-image-keyboard-response,404,735790,learnblock2,892.7999999523163,img/planet5_right.png,5,Community 3,NA,TRUE,j,j,NA,NA,NA,11,6,"7,3,1,10,15,2,9,12,14,11,4,5,13,8,6"
15147,commdev-image-keyboard-response,405,737041,learnblock2,692.1000000238419,img/planet13_right.png,13,Community 3,NA,TRUE,j,j,NA,NA,NA,11,6,"7,3,1,10,15,2,9,12,14,11,4,5,13,8,6"
15147,commdev-image-keyboard-response,406,738293,learnblock2,647.4000000953674,img/planet5_left.png,5,Community 3,NA,TRUE,f,f,NA,NA,NA,11,6,"7,3,1,10,15,2,9,12,14,11,4,5,13,8,6"
15147,commdev-image-keyboard-response,407,739545,learnblock2,715.2000000476837,img/planet12_left.png,12,Community 2,NA,TRUE,f,f,NA,NA,NA,11,6,"7,3,1,10,15,2,9,12,14,11,4,5,13,8,6"
15147,commdev-image-keyboard-response,408,740796,learnblock2,862.6000000238419,img/planet5_left.png,5,Community 3,NA,TRUE,f,f,NA,NA,NA,11,6,"7,3,1,10,15,2,9,12,14,11,4,5,13,8,6"
15147,commdev-image-keyboard-response,409,742048,learnblock2,604.3000000715256,img/planet12_left.png,12,Community 2,NA,TRUE,f,f,NA,NA,NA,11,6,"7,3,1,10,15,2,9,12,14,11,4,5,13,8,6"
15147,commdev-image-keyboard-response,410,743299,learnblock2,640.2999999523163,img/planet14_left.png,14,Community 2,NA,TRUE,f,f,NA,NA,NA,11,6,"7,3,1,10,15,2,9,12,14,11,4,5,13,8,6"
15147,commdev-image-keyboard-response,411,744565,learnblock2,644.6000000238419,img/planet11_left.png,11,Community 2,NA,TRUE,f,f,NA,NA,NA,11,6,"7,3,1,10,15,2,9,12,14,11,4,5,13,8,6"
15147,commdev-image-keyboard-response,412,745817,learnblock2,697.2999999523163,img/planet9_left.png,9,Community 2,NA,TRUE,f,f,NA,NA,NA,11,6,"7,3,1,10,15,2,9,12,14,11,4,5,13,8,6"
15147,commdev-image-keyboard-response,413,747069,learnblock2,706.1999999284744,img/planet14_right.png,14,Community 2,NA,TRUE,j,j,NA,NA,NA,11,6,"7,3,1,10,15,2,9,12,14,11,4,5,13,8,6"
15147,commdev-image-keyboard-response,414,748319,learnblock2,543.1000000238419,img/planet9_right.png,9,Community 2,NA,TRUE,j,j,NA,NA,NA,11,6,"7,3,1,10,15,2,9,12,14,11,4,5,13,8,6"
15147,commdev-image-keyboard-response,415,749571,learnblock2,632.8999999761581,img/planet2_left.png,2,Community 2,NA,TRUE,f,f,NA,NA,NA,11,6,"7,3,1,10,15,2,9,12,14,11,4,5,13,8,6"
15147,commdev-image-keyboard-response,416,750823,learnblock2,600.1000000238419,img/planet11_left.png,11,Community 2,NA,TRUE,f,f,NA,NA,NA,11,6,"7,3,1,10,15,2,9,12,14,11,4,5,13,8,6"
15147,commdev-image-keyboard-response,417,752082,learnblock2,647.8999999761581,img/planet14_right.png,14,Community 2,NA,TRUE,j,j,NA,NA,NA,11,6,"7,3,1,10,15,2,9,12,14,11,4,5,13,8,6"
15147,commdev-image-keyboard-response,418,753333,learnblock2,591.8999999761581,img/planet12_right.png,12,Community 2,NA,TRUE,j,j,NA,NA,NA,11,6,"7,3,1,10,15,2,9,12,14,11,4,5,13,8,6"
15147,commdev-image-keyboard-response,419,754585,learnblock2,603.2000000476837,img/planet14_left.png,14,Community 2,NA,TRUE,f,f,NA,NA,NA,11,6,"7,3,1,10,15,2,9,12,14,11,4,5,13,8,6"
15147,commdev-image-keyboard-response,420,755836,learnblock2,697.7000000476837,img/planet2_right.png,2,Community 2,NA,TRUE,j,j,NA,NA,NA,11,6,"7,3,1,10,15,2,9,12,14,11,4,5,13,8,6"
15147,commdev-image-keyboard-response,421,757087,learnblock2,580.5,img/planet10_right.png,10,Community 1,NA,TRUE,j,j,NA,NA,NA,11,6,"7,3,1,10,15,2,9,12,14,11,4,5,13,8,6"
15147,commdev-image-keyboard-response,422,758339,learnblock2,801.8999999761581,img/planet7_left.png,7,Community 1,NA,TRUE,f,f,NA,NA,NA,11,6,"7,3,1,10,15,2,9,12,14,11,4,5,13,8,6"
15147,commdev-image-keyboard-response,423,759591,learnblock2,628.6999999284744,img/planet3_right.png,3,Community 1,NA,TRUE,j,j,NA,NA,NA,11,6,"7,3,1,10,15,2,9,12,14,11,4,5,13,8,6"
15147,commdev-image-keyboard-response,424,760843,learnblock2,760,img/planet10_right.png,10,Community 1,NA,TRUE,j,j,NA,NA,NA,11,6,"7,3,1,10,15,2,9,12,14,11,4,5,13,8,6"
15147,commdev-image-keyboard-response,425,762094,learnblock2,739.6000000238419,img/planet3_right.png,3,Community 1,NA,TRUE,j,j,NA,NA,NA,11,6,"7,3,1,10,15,2,9,12,14,11,4,5,13,8,6"
15147,commdev-image-keyboard-response,426,763346,learnblock2,617.6999999284744,img/planet10_left.png,10,Community 1,NA,TRUE,f,f,NA,NA,NA,11,6,"7,3,1,10,15,2,9,12,14,11,4,5,13,8,6"
15147,commdev-image-keyboard-response,427,764598,learnblock2,621.6000000238419,img/planet1_right.png,1,Community 1,NA,TRUE,j,j,NA,NA,NA,11,6,"7,3,1,10,15,2,9,12,14,11,4,5,13,8,6"
15147,commdev-image-keyboard-response,428,765849,learnblock2,698.5,img/planet7_right.png,7,Community 1,NA,TRUE,j,j,NA,NA,NA,11,6,"7,3,1,10,15,2,9,12,14,11,4,5,13,8,6"
15147,commdev-image-keyboard-response,429,767101,learnblock2,670.3999999761581,img/planet1_right.png,1,Community 1,NA,TRUE,j,j,NA,NA,NA,11,6,"7,3,1,10,15,2,9,12,14,11,4,5,13,8,6"
15147,commdev-image-keyboard-response,430,768353,learnblock2,706.1000000238419,img/planet10_right.png,10,Community 1,NA,TRUE,j,j,NA,NA,NA,11,6,"7,3,1,10,15,2,9,12,14,11,4,5,13,8,6"
15147,commdev-image-keyboard-response,431,769605,learnblock2,655,img/planet3_left.png,3,Community 1,NA,TRUE,f,f,NA,NA,NA,11,6,"7,3,1,10,15,2,9,12,14,11,4,5,13,8,6"
15147,commdev-image-keyboard-response,432,770856,learnblock2,587.6000000238419,img/planet10_right.png,10,Community 1,NA,TRUE,j,j,NA,NA,NA,11,6,"7,3,1,10,15,2,9,12,14,11,4,5,13,8,6"
15147,commdev-image-keyboard-response,433,772109,learnblock2,671.7000000476837,img/planet3_left.png,3,Community 1,NA,TRUE,f,f,NA,NA,NA,11,6,"7,3,1,10,15,2,9,12,14,11,4,5,13,8,6"
15147,commdev-image-keyboard-response,434,773360,learnblock2,858.7000000476837,img/planet15_left.png,15,Community 1,NA,TRUE,f,f,NA,NA,NA,11,6,"7,3,1,10,15,2,9,12,14,11,4,5,13,8,6"
15147,commdev-image-keyboard-response,435,774610,learnblock2,687.6000000238419,img/planet7_right.png,7,Community 1,NA,TRUE,j,j,NA,NA,NA,11,6,"7,3,1,10,15,2,9,12,14,11,4,5,13,8,6"
15147,commdev-image-keyboard-response,436,775862,learnblock2,672.7999999523163,img/planet3_right.png,3,Community 1,NA,TRUE,j,j,NA,NA,NA,11,6,"7,3,1,10,15,2,9,12,14,11,4,5,13,8,6"
15147,commdev-image-keyboard-response,437,777114,learnblock2,587.2999999523163,img/planet15_right.png,15,Community 1,NA,TRUE,j,j,NA,NA,NA,11,6,"7,3,1,10,15,2,9,12,14,11,4,5,13,8,6"
15147,commdev-image-keyboard-response,438,778367,learnblock2,568.1999999284744,img/planet7_right.png,7,Community 1,NA,TRUE,j,j,NA,NA,NA,11,6,"7,3,1,10,15,2,9,12,14,11,4,5,13,8,6"
15147,commdev-image-keyboard-response,439,779617,learnblock2,497,img/planet1_left.png,1,Community 1,NA,TRUE,f,f,NA,NA,NA,11,6,"7,3,1,10,15,2,9,12,14,11,4,5,13,8,6"
15147,commdev-image-keyboard-response,440,780869,learnblock2,566.2000000476837,img/planet7_left.png,7,Community 1,NA,TRUE,f,f,NA,NA,NA,11,6,"7,3,1,10,15,2,9,12,14,11,4,5,13,8,6"
15147,commdev-image-keyboard-response,441,782121,learnblock2,594,img/planet15_right.png,15,Community 1,NA,TRUE,j,j,NA,NA,NA,11,6,"7,3,1,10,15,2,9,12,14,11,4,5,13,8,6"
15147,commdev-image-keyboard-response,442,783373,learnblock2,814.4000000953674,img/planet4_left.png,4,Community 3,NA,TRUE,f,f,NA,NA,NA,11,6,"7,3,1,10,15,2,9,12,14,11,4,5,13,8,6"
15147,commdev-image-keyboard-response,443,784623,learnblock2,763,img/planet6_right.png,6,Community 3,NA,TRUE,j,j,NA,NA,NA,11,6,"7,3,1,10,15,2,9,12,14,11,4,5,13,8,6"
15147,commdev-image-keyboard-response,444,785875,learnblock2,943.5999999046326,img/planet8_left.png,8,Community 3,NA,TRUE,f,f,NA,NA,NA,11,6,"7,3,1,10,15,2,9,12,14,11,4,5,13,8,6"
15147,commdev-image-keyboard-response,445,787127,learnblock2,652.3000000715256,img/planet6_right.png,6,Community 3,NA,TRUE,j,j,NA,NA,NA,11,6,"7,3,1,10,15,2,9,12,14,11,4,5,13,8,6"
15147,commdev-image-keyboard-response,446,788379,learnblock2,927.5,img/planet4_right.png,4,Community 3,NA,TRUE,j,j,NA,NA,NA,11,6,"7,3,1,10,15,2,9,12,14,11,4,5,13,8,6"
15147,commdev-image-keyboard-response,447,789630,learnblock2,789.8999999761581,img/planet8_right.png,8,Community 3,NA,TRUE,j,j,NA,NA,NA,11,6,"7,3,1,10,15,2,9,12,14,11,4,5,13,8,6"
15147,commdev-image-keyboard-response,448,790882,learnblock2,690.3999999761581,img/planet6_right.png,6,Community 3,NA,TRUE,j,j,NA,NA,NA,11,6,"7,3,1,10,15,2,9,12,14,11,4,5,13,8,6"
15147,commdev-image-keyboard-response,449,792133,learnblock2,727.3000000715256,img/planet4_right.png,4,Community 3,NA,TRUE,j,j,NA,NA,NA,11,6,"7,3,1,10,15,2,9,12,14,11,4,5,13,8,6"
15147,commdev-image-keyboard-response,450,793385,learnblock2,658.2999999523163,img/planet13_left.png,13,Community 3,NA,TRUE,f,f,NA,NA,NA,11,6,"7,3,1,10,15,2,9,12,14,11,4,5,13,8,6"
15147,commdev-image-keyboard-response,451,794636,learnblock2,790,img/planet5_left.png,5,Community 3,NA,TRUE,f,f,NA,NA,NA,11,6,"7,3,1,10,15,2,9,12,14,11,4,5,13,8,6"
15147,commdev-image-keyboard-response,452,795888,learnblock2,755.1999999284744,img/planet8_right.png,8,Community 3,NA,TRUE,j,j,NA,NA,NA,11,6,"7,3,1,10,15,2,9,12,14,11,4,5,13,8,6"
15147,commdev-image-keyboard-response,453,797139,learnblock2,688.7999999523163,img/planet4_right.png,4,Community 3,NA,TRUE,j,j,NA,NA,NA,11,6,"7,3,1,10,15,2,9,12,14,11,4,5,13,8,6"
15147,commdev-image-keyboard-response,454,798390,learnblock2,564.0999999046326,img/planet8_right.png,8,Community 3,NA,TRUE,j,j,NA,NA,NA,11,6,"7,3,1,10,15,2,9,12,14,11,4,5,13,8,6"
15147,commdev-image-keyboard-response,455,799642,learnblock2,424.8000000715256,img/planet6_right.png,6,Community 3,NA,FALSE,f,j,NA,NA,NA,11,6,"7,3,1,10,15,2,9,12,14,11,4,5,13,8,6"
15147,commdev-image-keyboard-response,456,800894,learnblock2,550.5,img/planet5_left.png,5,Community 3,NA,TRUE,f,f,NA,NA,NA,11,6,"7,3,1,10,15,2,9,12,14,11,4,5,13,8,6"
15147,commdev-image-keyboard-response,457,802146,learnblock2,649.6999999284744,img/planet12_right.png,12,Community 2,NA,TRUE,j,j,NA,NA,NA,11,6,"7,3,1,10,15,2,9,12,14,11,4,5,13,8,6"
15147,commdev-image-keyboard-response,458,803398,learnblock2,614.7999999523163,img/planet5_left.png,5,Community 3,NA,TRUE,f,f,NA,NA,NA,11,6,"7,3,1,10,15,2,9,12,14,11,4,5,13,8,6"
15147,commdev-image-keyboard-response,459,804648,learnblock2,971.7999999523163,img/planet6_left.png,6,Community 3,NA,TRUE,f,f,NA,NA,NA,11,6,"7,3,1,10,15,2,9,12,14,11,4,5,13,8,6"
15147,commdev-image-keyboard-response,460,805900,learnblock2,598.1000000238419,img/planet4_right.png,4,Community 3,NA,TRUE,j,j,NA,NA,NA,11,6,"7,3,1,10,15,2,9,12,14,11,4,5,13,8,6"
15147,commdev-image-keyboard-response,461,807152,learnblock2,549.5,img/planet6_right.png,6,Community 3,NA,FALSE,f,j,NA,NA,NA,11,6,"7,3,1,10,15,2,9,12,14,11,4,5,13,8,6"
15147,commdev-image-keyboard-response,462,808405,learnblock2,552.1000000238419,img/planet5_right.png,5,Community 3,NA,TRUE,j,j,NA,NA,NA,11,6,"7,3,1,10,15,2,9,12,14,11,4,5,13,8,6"
15147,commdev-image-keyboard-response,463,809658,learnblock2,593.5,img/planet8_left.png,8,Community 3,NA,TRUE,f,f,NA,NA,NA,11,6,"7,3,1,10,15,2,9,12,14,11,4,5,13,8,6"
15147,commdev-image-keyboard-response,464,810910,learnblock2,581.0999999046326,img/planet5_right.png,5,Community 3,NA,TRUE,j,j,NA,NA,NA,11,6,"7,3,1,10,15,2,9,12,14,11,4,5,13,8,6"
15147,commdev-image-keyboard-response,465,812162,learnblock2,660.9000000953674,img/planet12_left.png,12,Community 2,NA,TRUE,f,f,NA,NA,NA,11,6,"7,3,1,10,15,2,9,12,14,11,4,5,13,8,6"
15147,commdev-image-keyboard-response,466,813414,learnblock2,726.2999999523163,img/planet11_right.png,11,Community 2,NA,TRUE,j,j,NA,NA,NA,11,6,"7,3,1,10,15,2,9,12,14,11,4,5,13,8,6"
15147,commdev-image-keyboard-response,467,814666,learnblock2,667.3000000715256,img/planet12_left.png,12,Community 2,NA,TRUE,f,f,NA,NA,NA,11,6,"7,3,1,10,15,2,9,12,14,11,4,5,13,8,6"
15147,commdev-image-keyboard-response,468,815918,learnblock2,821.3999999761581,img/planet11_left.png,11,Community 2,NA,TRUE,f,f,NA,NA,NA,11,6,"7,3,1,10,15,2,9,12,14,11,4,5,13,8,6"
15147,commdev-image-keyboard-response,469,817170,learnblock2,641.2000000476837,img/planet14_right.png,14,Community 2,NA,TRUE,j,j,NA,NA,NA,11,6,"7,3,1,10,15,2,9,12,14,11,4,5,13,8,6"
15147,commdev-image-keyboard-response,470,818424,learnblock2,981.6000000238419,img/planet12_right.png,12,Community 2,NA,TRUE,j,j,NA,NA,NA,11,6,"7,3,1,10,15,2,9,12,14,11,4,5,13,8,6"
15147,commdev-image-keyboard-response,471,819676,learnblock2,622.7999999523163,img/planet11_right.png,11,Community 2,NA,TRUE,j,j,NA,NA,NA,11,6,"7,3,1,10,15,2,9,12,14,11,4,5,13,8,6"
15147,commdev-image-keyboard-response,472,820929,learnblock2,386.2999999523163,img/planet2_right.png,2,Community 2,NA,TRUE,j,j,NA,NA,NA,11,6,"7,3,1,10,15,2,9,12,14,11,4,5,13,8,6"
15147,commdev-image-keyboard-response,473,822180,learnblock2,510.5,img/planet10_right.png,10,Community 1,NA,TRUE,j,j,NA,NA,NA,11,6,"7,3,1,10,15,2,9,12,14,11,4,5,13,8,6"
15147,commdev-image-keyboard-response,474,823439,learnblock2,563.5,img/planet3_right.png,3,Community 1,NA,TRUE,j,j,NA,NA,NA,11,6,"7,3,1,10,15,2,9,12,14,11,4,5,13,8,6"
15147,commdev-image-keyboard-response,475,824690,learnblock2,609.8000000715256,img/planet7_left.png,7,Community 1,NA,TRUE,f,f,NA,NA,NA,11,6,"7,3,1,10,15,2,9,12,14,11,4,5,13,8,6"
15147,commdev-image-keyboard-response,476,825942,learnblock2,821.8000000715256,img/planet10_left.png,10,Community 1,NA,FALSE,j,f,NA,NA,NA,11,6,"7,3,1,10,15,2,9,12,14,11,4,5,13,8,6"
15147,commdev-image-keyboard-response,477,827194,learnblock2,673.7000000476837,img/planet1_left.png,1,Community 1,NA,TRUE,f,f,NA,NA,NA,11,6,"7,3,1,10,15,2,9,12,14,11,4,5,13,8,6"
15147,commdev-image-keyboard-response,478,828445,learnblock2,701.6999999284744,img/planet10_left.png,10,Community 1,NA,TRUE,f,f,NA,NA,NA,11,6,"7,3,1,10,15,2,9,12,14,11,4,5,13,8,6"
15147,commdev-image-keyboard-response,479,829697,learnblock2,714.5,img/planet7_right.png,7,Community 1,NA,TRUE,j,j,NA,NA,NA,11,6,"7,3,1,10,15,2,9,12,14,11,4,5,13,8,6"
15147,commdev-image-keyboard-response,480,830949,learnblock2,718.8999999761581,img/planet15_right.png,15,Community 1,NA,TRUE,j,j,NA,NA,NA,11,6,"7,3,1,10,15,2,9,12,14,11,4,5,13,8,6"
15147,commdev-image-keyboard-response,481,832200,learnblock2,620.8999999761581,img/planet1_left.png,1,Community 1,NA,TRUE,f,f,NA,NA,NA,11,6,"7,3,1,10,15,2,9,12,14,11,4,5,13,8,6"
15147,commdev-image-keyboard-response,482,833457,learnblock2,585,img/planet15_right.png,15,Community 1,NA,TRUE,j,j,NA,NA,NA,11,6,"7,3,1,10,15,2,9,12,14,11,4,5,13,8,6"
15147,commdev-image-keyboard-response,483,834709,learnblock2,695.5,img/planet3_left.png,3,Community 1,NA,TRUE,f,f,NA,NA,NA,11,6,"7,3,1,10,15,2,9,12,14,11,4,5,13,8,6"
15147,commdev-image-keyboard-response,484,835961,learnblock2,660.2999999523163,img/planet1_left.png,1,Community 1,NA,TRUE,f,f,NA,NA,NA,11,6,"7,3,1,10,15,2,9,12,14,11,4,5,13,8,6"
15147,commdev-image-keyboard-response,485,837213,learnblock2,1006.5,img/planet3_left.png,3,Community 1,NA,TRUE,f,f,NA,NA,NA,11,6,"7,3,1,10,15,2,9,12,14,11,4,5,13,8,6"
15147,commdev-image-keyboard-response,486,838465,learnblock2,null,img/planet1_left.png,1,Community 1,NA,FALSE,null,f,NA,NA,NA,11,6,"7,3,1,10,15,2,9,12,14,11,4,5,13,8,6"
15147,commdev-image-keyboard-response,487,839716,learnblock2,582.8000000715256,img/planet10_left.png,10,Community 1,NA,TRUE,f,f,NA,NA,NA,11,6,"7,3,1,10,15,2,9,12,14,11,4,5,13,8,6"
15147,commdev-image-keyboard-response,488,840968,learnblock2,498.7999999523163,img/planet7_right.png,7,Community 1,NA,TRUE,j,j,NA,NA,NA,11,6,"7,3,1,10,15,2,9,12,14,11,4,5,13,8,6"
15147,commdev-image-keyboard-response,489,842220,learnblock2,623.2000000476837,img/planet15_left.png,15,Community 1,NA,TRUE,f,f,NA,NA,NA,11,6,"7,3,1,10,15,2,9,12,14,11,4,5,13,8,6"
15147,commdev-image-keyboard-response,490,843472,learnblock2,548.3999999761581,img/planet1_right.png,1,Community 1,NA,TRUE,j,j,NA,NA,NA,11,6,"7,3,1,10,15,2,9,12,14,11,4,5,13,8,6"
15147,commdev-image-keyboard-response,491,844723,learnblock2,719.8999999761581,img/planet7_right.png,7,Community 1,NA,TRUE,j,j,NA,NA,NA,11,6,"7,3,1,10,15,2,9,12,14,11,4,5,13,8,6"
15147,commdev-image-keyboard-response,492,845975,learnblock2,666.6999999284744,img/planet3_left.png,3,Community 1,NA,TRUE,f,f,NA,NA,NA,11,6,"7,3,1,10,15,2,9,12,14,11,4,5,13,8,6"
15147,commdev-image-keyboard-response,493,847227,learnblock2,769.1999999284744,img/planet10_right.png,10,Community 1,NA,TRUE,j,j,NA,NA,NA,11,6,"7,3,1,10,15,2,9,12,14,11,4,5,13,8,6"
15147,commdev-image-keyboard-response,494,848479,learnblock2,636.1000000238419,img/planet3_left.png,3,Community 1,NA,TRUE,f,f,NA,NA,NA,11,6,"7,3,1,10,15,2,9,12,14,11,4,5,13,8,6"
15147,commdev-image-keyboard-response,495,849731,learnblock2,688.8999999761581,img/planet15_left.png,15,Community 1,NA,TRUE,f,f,NA,NA,NA,11,6,"7,3,1,10,15,2,9,12,14,11,4,5,13,8,6"
15147,commdev-image-keyboard-response,496,850982,learnblock2,780.5,img/planet4_left.png,4,Community 3,NA,TRUE,f,f,NA,NA,NA,11,6,"7,3,1,10,15,2,9,12,14,11,4,5,13,8,6"
15147,commdev-image-keyboard-response,497,852233,learnblock2,720.7000000476837,img/planet6_left.png,6,Community 3,NA,TRUE,f,f,NA,NA,NA,11,6,"7,3,1,10,15,2,9,12,14,11,4,5,13,8,6"
15147,commdev-image-keyboard-response,498,853484,learnblock2,621.6000000238419,img/planet4_left.png,4,Community 3,NA,TRUE,f,f,NA,NA,NA,11,6,"7,3,1,10,15,2,9,12,14,11,4,5,13,8,6"
15147,commdev-image-keyboard-response,499,854736,learnblock2,610.2000000476837,img/planet13_left.png,13,Community 3,NA,TRUE,f,f,NA,NA,NA,11,6,"7,3,1,10,15,2,9,12,14,11,4,5,13,8,6"
15147,commdev-image-keyboard-response,500,855987,learnblock2,670.5,img/planet6_right.png,6,Community 3,NA,TRUE,j,j,NA,NA,NA,11,6,"7,3,1,10,15,2,9,12,14,11,4,5,13,8,6"
15147,commdev-image-keyboard-response,501,857239,learnblock2,661.8999999761581,img/planet4_left.png,4,Community 3,NA,TRUE,f,f,NA,NA,NA,11,6,"7,3,1,10,15,2,9,12,14,11,4,5,13,8,6"
15147,commdev-image-keyboard-response,502,858491,learnblock2,617.8999999761581,img/planet13_right.png,13,Community 3,NA,FALSE,f,j,NA,NA,NA,11,6,"7,3,1,10,15,2,9,12,14,11,4,5,13,8,6"
15147,commdev-image-keyboard-response,503,859742,learnblock2,518.2999999523163,img/planet6_left.png,6,Community 3,NA,TRUE,f,f,NA,NA,NA,11,6,"7,3,1,10,15,2,9,12,14,11,4,5,13,8,6"
15147,commdev-image-keyboard-response,504,860994,learnblock2,570.7999999523163,img/planet5_right.png,5,Community 3,NA,TRUE,j,j,NA,NA,NA,11,6,"7,3,1,10,15,2,9,12,14,11,4,5,13,8,6"
15147,commdev-image-keyboard-response,505,862246,learnblock2,705.8000000715256,img/planet6_right.png,6,Community 3,NA,TRUE,j,j,NA,NA,NA,11,6,"7,3,1,10,15,2,9,12,14,11,4,5,13,8,6"
15147,commdev-image-keyboard-response,506,863497,learnblock2,631.7000000476837,img/planet4_right.png,4,Community 3,NA,TRUE,j,j,NA,NA,NA,11,6,"7,3,1,10,15,2,9,12,14,11,4,5,13,8,6"
15147,commdev-image-keyboard-response,507,864749,learnblock2,750.2000000476837,img/planet8_right.png,8,Community 3,NA,TRUE,j,j,NA,NA,NA,11,6,"7,3,1,10,15,2,9,12,14,11,4,5,13,8,6"
15147,commdev-image-keyboard-response,508,866000,learnblock2,852.6000000238419,img/planet4_left.png,4,Community 3,NA,FALSE,j,f,NA,NA,NA,11,6,"7,3,1,10,15,2,9,12,14,11,4,5,13,8,6"
15147,commdev-image-keyboard-response,509,867253,learnblock2,581.8999999761581,img/planet6_right.png,6,Community 3,NA,TRUE,j,j,NA,NA,NA,11,6,"7,3,1,10,15,2,9,12,14,11,4,5,13,8,6"
15147,commdev-image-keyboard-response,510,868504,learnblock2,610.3999999761581,img/planet4_right.png,4,Community 3,NA,TRUE,j,j,NA,NA,NA,11,6,"7,3,1,10,15,2,9,12,14,11,4,5,13,8,6"
15147,commdev-image-keyboard-response,511,869761,learnblock2,600.2999999523163,img/planet15_left.png,15,Community 1,NA,TRUE,f,f,NA,NA,NA,11,6,"7,3,1,10,15,2,9,12,14,11,4,5,13,8,6"
15147,commdev-image-keyboard-response,512,871014,learnblock2,549.7000000476837,img/planet7_right.png,7,Community 1,NA,TRUE,j,j,NA,NA,NA,11,6,"7,3,1,10,15,2,9,12,14,11,4,5,13,8,6"
15147,commdev-image-keyboard-response,513,872264,learnblock2,498.2000000476837,img/planet10_left.png,10,Community 1,NA,TRUE,f,f,NA,NA,NA,11,6,"7,3,1,10,15,2,9,12,14,11,4,5,13,8,6"
15147,commdev-image-keyboard-response,514,873515,learnblock2,552.3000000715256,img/planet1_left.png,1,Community 1,NA,FALSE,j,f,NA,NA,NA,11,6,"7,3,1,10,15,2,9,12,14,11,4,5,13,8,6"
15147,commdev-image-keyboard-response,515,874767,learnblock2,773.8999999761581,img/planet15_right.png,15,Community 1,NA,TRUE,j,j,NA,NA,NA,11,6,"7,3,1,10,15,2,9,12,14,11,4,5,13,8,6"
15147,commdev-image-keyboard-response,516,876018,learnblock2,657.6999999284744,img/planet4_left.png,4,Community 3,NA,TRUE,f,f,NA,NA,NA,11,6,"7,3,1,10,15,2,9,12,14,11,4,5,13,8,6"
15147,commdev-image-keyboard-response,517,877270,learnblock2,700.5999999046326,img/planet8_left.png,8,Community 3,NA,TRUE,f,f,NA,NA,NA,11,6,"7,3,1,10,15,2,9,12,14,11,4,5,13,8,6"
15147,commdev-image-keyboard-response,518,878522,learnblock2,690.7000000476837,img/planet4_left.png,4,Community 3,NA,TRUE,f,f,NA,NA,NA,11,6,"7,3,1,10,15,2,9,12,14,11,4,5,13,8,6"
15147,commdev-image-keyboard-response,519,879773,learnblock2,638.6000000238419,img/planet15_right.png,15,Community 1,NA,TRUE,j,j,NA,NA,NA,11,6,"7,3,1,10,15,2,9,12,14,11,4,5,13,8,6"
15147,commdev-image-keyboard-response,520,881024,learnblock2,785.3000000715256,img/planet7_left.png,7,Community 1,NA,TRUE,f,f,NA,NA,NA,11,6,"7,3,1,10,15,2,9,12,14,11,4,5,13,8,6"
15147,commdev-image-keyboard-response,521,882275,learnblock2,1174.1000000238419,img/planet3_left.png,3,Community 1,NA,FALSE,j,f,NA,NA,NA,11,6,"7,3,1,10,15,2,9,12,14,11,4,5,13,8,6"
15147,commdev-image-keyboard-response,522,883528,learnblock2,787.1000000238419,img/planet10_right.png,10,Community 1,NA,TRUE,j,j,NA,NA,NA,11,6,"7,3,1,10,15,2,9,12,14,11,4,5,13,8,6"
15147,commdev-image-keyboard-response,523,884779,learnblock2,511,img/planet3_left.png,3,Community 1,NA,TRUE,f,f,NA,NA,NA,11,6,"7,3,1,10,15,2,9,12,14,11,4,5,13,8,6"
15147,commdev-image-keyboard-response,524,886031,learnblock2,748.5,img/planet7_left.png,7,Community 1,NA,TRUE,f,f,NA,NA,NA,11,6,"7,3,1,10,15,2,9,12,14,11,4,5,13,8,6"
15147,commdev-image-keyboard-response,525,887282,learnblock2,594.1000000238419,img/planet3_left.png,3,Community 1,NA,TRUE,f,f,NA,NA,NA,11,6,"7,3,1,10,15,2,9,12,14,11,4,5,13,8,6"
15147,commdev-image-keyboard-response,526,888533,learnblock2,565.3000000715256,img/planet1_right.png,1,Community 1,NA,TRUE,j,j,NA,NA,NA,11,6,"7,3,1,10,15,2,9,12,14,11,4,5,13,8,6"
15147,commdev-image-keyboard-response,527,889785,learnblock2,740.2000000476837,img/planet3_right.png,3,Community 1,NA,TRUE,j,j,NA,NA,NA,11,6,"7,3,1,10,15,2,9,12,14,11,4,5,13,8,6"
15147,commdev-image-keyboard-response,528,891036,learnblock2,574.1000000238419,img/planet7_right.png,7,Community 1,NA,TRUE,j,j,NA,NA,NA,11,6,"7,3,1,10,15,2,9,12,14,11,4,5,13,8,6"
15147,commdev-image-keyboard-response,529,892288,learnblock2,396,img/planet1_left.png,1,Community 1,NA,FALSE,j,f,NA,NA,NA,11,6,"7,3,1,10,15,2,9,12,14,11,4,5,13,8,6"
15147,commdev-image-keyboard-response,530,893539,learnblock2,622.2000000476837,img/planet3_left.png,3,Community 1,NA,TRUE,f,f,NA,NA,NA,11,6,"7,3,1,10,15,2,9,12,14,11,4,5,13,8,6"
15147,commdev-image-keyboard-response,531,894792,learnblock2,844.7999999523163,img/planet7_left.png,7,Community 1,NA,TRUE,f,f,NA,NA,NA,11,6,"7,3,1,10,15,2,9,12,14,11,4,5,13,8,6"
15147,commdev-image-keyboard-response,532,896044,learnblock2,560.3999999761581,img/planet3_right.png,3,Community 1,NA,FALSE,f,j,NA,NA,NA,11,6,"7,3,1,10,15,2,9,12,14,11,4,5,13,8,6"
15147,commdev-image-keyboard-response,533,897295,learnblock2,756.1000000238419,img/planet15_right.png,15,Community 1,NA,TRUE,j,j,NA,NA,NA,11,6,"7,3,1,10,15,2,9,12,14,11,4,5,13,8,6"
15147,commdev-image-keyboard-response,534,898547,learnblock2,671.8999999761581,img/planet1_left.png,1,Community 1,NA,TRUE,f,f,NA,NA,NA,11,6,"7,3,1,10,15,2,9,12,14,11,4,5,13,8,6"
15147,commdev-image-keyboard-response,535,899800,learnblock2,690.7999999523163,img/planet10_right.png,10,Community 1,NA,TRUE,j,j,NA,NA,NA,11,6,"7,3,1,10,15,2,9,12,14,11,4,5,13,8,6"
15147,commdev-image-keyboard-response,536,901051,learnblock2,694.5,img/planet1_left.png,1,Community 1,NA,TRUE,f,f,NA,NA,NA,11,6,"7,3,1,10,15,2,9,12,14,11,4,5,13,8,6"
15147,commdev-image-keyboard-response,537,902303,learnblock2,699.7999999523163,img/planet7_right.png,7,Community 1,NA,TRUE,j,j,NA,NA,NA,11,6,"7,3,1,10,15,2,9,12,14,11,4,5,13,8,6"
15147,commdev-image-keyboard-response,538,903555,learnblock2,800.8999999761581,img/planet1_left.png,1,Community 1,NA,TRUE,f,f,NA,NA,NA,11,6,"7,3,1,10,15,2,9,12,14,11,4,5,13,8,6"
15147,commdev-image-keyboard-response,539,904807,learnblock2,556.3999999761581,img/planet10_left.png,10,Community 1,NA,TRUE,f,f,NA,NA,NA,11,6,"7,3,1,10,15,2,9,12,14,11,4,5,13,8,6"
15147,commdev-image-keyboard-response,540,906059,learnblock2,584.3999999761581,img/planet7_left.png,7,Community 1,NA,TRUE,f,f,NA,NA,NA,11,6,"7,3,1,10,15,2,9,12,14,11,4,5,13,8,6"
15147,commdev-image-keyboard-response,541,907311,learnblock2,524.7999999523163,img/planet10_left.png,10,Community 1,NA,TRUE,f,f,NA,NA,NA,11,6,"7,3,1,10,15,2,9,12,14,11,4,5,13,8,6"
15147,commdev-image-keyboard-response,542,908562,learnblock2,639.2999999523163,img/planet3_left.png,3,Community 1,NA,FALSE,j,f,NA,NA,NA,11,6,"7,3,1,10,15,2,9,12,14,11,4,5,13,8,6"
15147,commdev-image-keyboard-response,543,909813,learnblock2,526.1000000238419,img/planet1_left.png,1,Community 1,NA,TRUE,f,f,NA,NA,NA,11,6,"7,3,1,10,15,2,9,12,14,11,4,5,13,8,6"
15147,commdev-image-keyboard-response,544,911065,learnblock2,537.1000000238419,img/planet15_left.png,15,Community 1,NA,TRUE,f,f,NA,NA,NA,11,6,"7,3,1,10,15,2,9,12,14,11,4,5,13,8,6"
15147,commdev-image-keyboard-response,545,912317,learnblock2,518.5999999046326,img/planet3_left.png,3,Community 1,NA,TRUE,f,f,NA,NA,NA,11,6,"7,3,1,10,15,2,9,12,14,11,4,5,13,8,6"
15147,commdev-image-keyboard-response,546,913568,learnblock2,627.6999999284744,img/planet15_right.png,15,Community 1,NA,TRUE,j,j,NA,NA,NA,11,6,"7,3,1,10,15,2,9,12,14,11,4,5,13,8,6"
15147,commdev-image-keyboard-response,547,914820,learnblock2,632.6000000238419,img/planet3_right.png,3,Community 1,NA,TRUE,j,j,NA,NA,NA,11,6,"7,3,1,10,15,2,9,12,14,11,4,5,13,8,6"
15147,commdev-image-keyboard-response,548,916072,learnblock2,563,img/planet10_left.png,10,Community 1,NA,TRUE,f,f,NA,NA,NA,11,6,"7,3,1,10,15,2,9,12,14,11,4,5,13,8,6"
15147,commdev-image-keyboard-response,549,917323,learnblock2,578,img/planet2_right.png,2,Community 2,NA,TRUE,j,j,NA,NA,NA,11,6,"7,3,1,10,15,2,9,12,14,11,4,5,13,8,6"
15147,commdev-image-keyboard-response,550,918583,learnblock2,690.7000000476837,img/planet14_left.png,14,Community 2,NA,TRUE,f,f,NA,NA,NA,11,6,"7,3,1,10,15,2,9,12,14,11,4,5,13,8,6"
15147,commdev-image-keyboard-response,551,919835,learnblock2,623.8999999761581,img/planet11_right.png,11,Community 2,NA,TRUE,j,j,NA,NA,NA,11,6,"7,3,1,10,15,2,9,12,14,11,4,5,13,8,6"
15147,commdev-image-keyboard-response,552,921087,learnblock2,789.2999999523163,img/planet9_right.png,9,Community 2,NA,TRUE,j,j,NA,NA,NA,11,6,"7,3,1,10,15,2,9,12,14,11,4,5,13,8,6"
15147,commdev-image-keyboard-response,553,922339,learnblock2,904,img/planet11_left.png,11,Community 2,NA,FALSE,j,f,NA,NA,NA,11,6,"7,3,1,10,15,2,9,12,14,11,4,5,13,8,6"
15147,commdev-image-keyboard-response,554,923590,learnblock2,603.8000000715256,img/planet12_right.png,12,Community 2,NA,TRUE,j,j,NA,NA,NA,11,6,"7,3,1,10,15,2,9,12,14,11,4,5,13,8,6"
15147,commdev-image-keyboard-response,555,924842,learnblock2,992.0999999046326,img/planet11_left.png,11,Community 2,NA,TRUE,f,f,NA,NA,NA,11,6,"7,3,1,10,15,2,9,12,14,11,4,5,13,8,6"
15147,commdev-image-keyboard-response,556,926094,learnblock2,637.3000000715256,img/planet14_right.png,14,Community 2,NA,TRUE,j,j,NA,NA,NA,11,6,"7,3,1,10,15,2,9,12,14,11,4,5,13,8,6"
15147,commdev-image-keyboard-response,557,927346,learnblock2,736.2000000476837,img/planet12_right.png,12,Community 2,NA,TRUE,j,j,NA,NA,NA,11,6,"7,3,1,10,15,2,9,12,14,11,4,5,13,8,6"
15147,commdev-image-keyboard-response,558,928598,learnblock2,732.7999999523163,img/planet11_right.png,11,Community 2,NA,TRUE,j,j,NA,NA,NA,11,6,"7,3,1,10,15,2,9,12,14,11,4,5,13,8,6"
15147,commdev-image-keyboard-response,559,929849,learnblock2,595,img/planet12_right.png,12,Community 2,NA,TRUE,j,j,NA,NA,NA,11,6,"7,3,1,10,15,2,9,12,14,11,4,5,13,8,6"
15147,commdev-image-keyboard-response,560,931100,learnblock2,627,img/planet5_right.png,5,Community 3,NA,TRUE,j,j,NA,NA,NA,11,6,"7,3,1,10,15,2,9,12,14,11,4,5,13,8,6"
15147,commdev-image-keyboard-response,561,932351,learnblock2,620.1000000238419,img/planet8_left.png,8,Community 3,NA,TRUE,f,f,NA,NA,NA,11,6,"7,3,1,10,15,2,9,12,14,11,4,5,13,8,6"
15147,commdev-image-keyboard-response,562,933603,learnblock2,632.3000000715256,img/planet4_left.png,4,Community 3,NA,TRUE,f,f,NA,NA,NA,11,6,"7,3,1,10,15,2,9,12,14,11,4,5,13,8,6"
15147,commdev-image-keyboard-response,563,934855,learnblock2,963.5,img/planet15_left.png,15,Community 1,NA,FALSE,j,f,NA,NA,NA,11,6,"7,3,1,10,15,2,9,12,14,11,4,5,13,8,6"
15147,commdev-image-keyboard-response,564,936106,learnblock2,751.5,img/planet4_left.png,4,Community 3,NA,TRUE,f,f,NA,NA,NA,11,6,"7,3,1,10,15,2,9,12,14,11,4,5,13,8,6"
15147,commdev-image-keyboard-response,565,937358,learnblock2,517.5,img/planet15_left.png,15,Community 1,NA,TRUE,f,f,NA,NA,NA,11,6,"7,3,1,10,15,2,9,12,14,11,4,5,13,8,6"
15147,commdev-image-keyboard-response,566,938611,learnblock2,600.3999999761581,img/planet7_left.png,7,Community 1,NA,TRUE,f,f,NA,NA,NA,11,6,"7,3,1,10,15,2,9,12,14,11,4,5,13,8,6"
15147,commdev-image-keyboard-response,567,939862,learnblock2,484.7000000476837,img/planet1_left.png,1,Community 1,NA,TRUE,f,f,NA,NA,NA,11,6,"7,3,1,10,15,2,9,12,14,11,4,5,13,8,6"
15147,commdev-image-keyboard-response,568,941114,learnblock2,617.1000000238419,img/planet3_left.png,3,Community 1,NA,TRUE,f,f,NA,NA,NA,11,6,"7,3,1,10,15,2,9,12,14,11,4,5,13,8,6"
15147,commdev-image-keyboard-response,569,942365,learnblock2,940.6000000238419,img/planet15_right.png,15,Community 1,NA,FALSE,f,j,NA,NA,NA,11,6,"7,3,1,10,15,2,9,12,14,11,4,5,13,8,6"
15147,commdev-image-keyboard-response,570,943616,learnblock2,529.6000000238419,img/planet1_left.png,1,Community 1,NA,TRUE,f,f,NA,NA,NA,11,6,"7,3,1,10,15,2,9,12,14,11,4,5,13,8,6"
15147,commdev-image-keyboard-response,571,944876,learnblock2,821.7999999523163,img/planet15_left.png,15,Community 1,NA,TRUE,f,f,NA,NA,NA,11,6,"7,3,1,10,15,2,9,12,14,11,4,5,13,8,6"
15147,commdev-image-keyboard-response,572,946127,learnblock2,771.3999999761581,img/planet7_left.png,7,Community 1,NA,TRUE,f,f,NA,NA,NA,11,6,"7,3,1,10,15,2,9,12,14,11,4,5,13,8,6"
15147,commdev-image-keyboard-response,573,947379,learnblock2,664.5,img/planet3_left.png,3,Community 1,NA,TRUE,f,f,NA,NA,NA,11,6,"7,3,1,10,15,2,9,12,14,11,4,5,13,8,6"
15147,commdev-image-keyboard-response,574,948631,learnblock2,518.7000000476837,img/planet15_right.png,15,Community 1,NA,FALSE,f,j,NA,NA,NA,11,6,"7,3,1,10,15,2,9,12,14,11,4,5,13,8,6"
15147,commdev-image-keyboard-response,575,949883,learnblock2,753.8999999761581,img/planet4_right.png,4,Community 3,NA,TRUE,j,j,NA,NA,NA,11,6,"7,3,1,10,15,2,9,12,14,11,4,5,13,8,6"
15147,commdev-image-keyboard-response,576,951134,learnblock2,853.2000000476837,img/planet15_right.png,15,Community 1,NA,TRUE,j,j,NA,NA,NA,11,6,"7,3,1,10,15,2,9,12,14,11,4,5,13,8,6"
15147,commdev-image-keyboard-response,577,952398,learnblock2,761.2000000476837,img/planet7_right.png,7,Community 1,NA,TRUE,j,j,NA,NA,NA,11,6,"7,3,1,10,15,2,9,12,14,11,4,5,13,8,6"
15147,commdev-image-keyboard-response,578,953650,learnblock2,593.8999999761581,img/planet1_right.png,1,Community 1,NA,TRUE,j,j,NA,NA,NA,11,6,"7,3,1,10,15,2,9,12,14,11,4,5,13,8,6"
15147,commdev-image-keyboard-response,579,954902,learnblock2,1013.2999999523163,img/planet7_left.png,7,Community 1,NA,TRUE,f,f,NA,NA,NA,11,6,"7,3,1,10,15,2,9,12,14,11,4,5,13,8,6"
15147,commdev-image-keyboard-response,580,956153,learnblock2,664.3999999761581,img/planet10_left.png,10,Community 1,NA,TRUE,f,f,NA,NA,NA,11,6,"7,3,1,10,15,2,9,12,14,11,4,5,13,8,6"
15147,commdev-image-keyboard-response,581,957405,learnblock2,606.7999999523163,img/planet3_right.png,3,Community 1,NA,TRUE,j,j,NA,NA,NA,11,6,"7,3,1,10,15,2,9,12,14,11,4,5,13,8,6"
15147,commdev-image-keyboard-response,582,958657,learnblock2,689.4000000953674,img/planet15_right.png,15,Community 1,NA,TRUE,j,j,NA,NA,NA,11,6,"7,3,1,10,15,2,9,12,14,11,4,5,13,8,6"
15147,commdev-image-keyboard-response,583,959908,learnblock2,702.1000000238419,img/planet7_right.png,7,Community 1,NA,TRUE,j,j,NA,NA,NA,11,6,"7,3,1,10,15,2,9,12,14,11,4,5,13,8,6"
