subject_id,trial_type,trial_index,time_elapsed,block,rt,stimulus,planet,community,response,correct,key_press,learning_correct_response,parse,init_locations,final_locations,browser_interactions,num_comp,planet_map
14653,commdev-instructions,7,71891,NA,25197.400000002235,"<p>In this game, you will be shown a 3x3 grid of patterns.</p> <p>The last one in the bottom right-hand corner, <strong>will be missing:</strong></p> <div style='width: 700px;'><div style='float: top;'><img style='width: 200px;' src='practice/p1_M1.png'></img><p class='small'>You need to select<strong> which of the four possible patterns </strong>along the bottom<strong> fits into the gap:</strong></p></div><div style='float: top;'><img style='width: 300px;' src='practice/p1_T1.png'></img></div><br>",NA,NA,NA,NA,NA,NA,NA,NA,NA,2,6,"4,6,3,15,7,1,9,2,11,10,8,14,13,12,5"
14653,commdev-instructions,8,92288,NA,1598.9000000022352,"<p>Try to be as fast and as accurate as you can be.</p> <p>If you cannot solve the puzzle then you should guess - you will not be penalised for an incorrect answer.</p> <p>The task contains a shuffled mix of easy, medium and hard puzzles.</p> <p>You will have <strong>30 seconds</strong> to complete each puzzle.</p><br>",NA,NA,NA,NA,NA,NA,NA,NA,NA,2,6,"4,6,3,15,7,1,9,2,11,10,8,14,13,12,5"
14653,commdev-instructions,15,115340,NA,1663.800000000745,<p><strong>Success!</strong></p> <p>You seem to be getting the hang of this...</p> <p>Let's move on to the real trials.</p><br>,NA,NA,NA,NA,NA,NA,NA,NA,NA,2,6,"4,6,3,15,7,1,9,2,11,10,8,14,13,12,5"
14653,commdev-instructions,109,609339,NA,2072.5,"<p>In this game, you are a scientist on board a space shuttle. </p><p> On each mission, you will visit planets all across the universe.</p><img src=""img/controlroom.jpg"" width=300vw>",NA,NA,NA,NA,NA,NA,NA,NA,NA,2,6,"4,6,3,15,7,1,9,2,11,10,8,14,13,12,5"
14653,commdev-instructions,110,612236,NA,818.8999999985099,"<p>Here are a few planets you might see:</p><img src=""img/practice1.png"" width=200vw><img src=""img/practice2.png"" width=200vw><img src=""img/practice3.png"" width=200vw>",NA,NA,NA,NA,NA,NA,NA,NA,NA,2,6,"4,6,3,15,7,1,9,2,11,10,8,14,13,12,5"
14653,commdev-instructions,111,644339,NA,24702.300000000745,"<p>Your job as a scientist is to record which direction the winds are moving on each planet.</p><p>There are two types of wind directions:</p><img src=""img/practice1_left.png"" width=200vw><img src=""img/practice1_right.png"" width=200vw>",NA,NA,NA,NA,NA,NA,NA,NA,NA,2,6,"4,6,3,15,7,1,9,2,11,10,8,14,13,12,5"
14653,commdev-instructions,112,650020,NA,800.5,"<p>If the winds are moving this way, press the letter <strong>F</strong> on the keyboard as fast as you can.</p><img src=""img/leftwind.png"" width=250vw>",NA,NA,NA,NA,NA,NA,NA,NA,NA,2,6,"4,6,3,15,7,1,9,2,11,10,8,14,13,12,5"
14653,commdev-instructions,113,655537,NA,1017.5,"<p>If the winds are moving this way, press the letter <strong>J</strong> on the keyboard as fast as you can.</p><img src=""img/rightwind.png"" width=350vw>",NA,NA,NA,NA,NA,NA,NA,NA,NA,2,6,"4,6,3,15,7,1,9,2,11,10,8,14,13,12,5"
14653,commdev-instructions,114,662070,NA,2106.7000000029802,<p>You will have 1 second to respond. Try to respond before the time runs out!,NA,NA,NA,NA,NA,NA,NA,NA,NA,2,6,"4,6,3,15,7,1,9,2,11,10,8,14,13,12,5"
14653,commdev-instructions,115,668155,NA,650.8000000007451,<p>The planets you will visit will look different from each other.</p><p>You should respond <strong>only</strong> based on wind direction.,NA,NA,NA,NA,NA,NA,NA,NA,NA,2,6,"4,6,3,15,7,1,9,2,11,10,8,14,13,12,5"
14653,commdev-instructions,116,674353,NA,1026.2999999970198,"<p> Ready to start the practice round? </p><p> Remember, press <strong>F</strong> or <strong>J</strong> depending on the wind direction.<br><img src=""img/categorize_planet_example.png""",NA,NA,NA,NA,NA,NA,NA,NA,NA,2,6,"4,6,3,15,7,1,9,2,11,10,8,14,13,12,5"
14653,commdev-instructions,128,725837,NA,1139.3999999985099,"<p>Great, now try a short practice mission. </p><p> This time, you will have 1 second to respond and you won't know whether you pressed the right or wrong key for each planet.</p>",NA,NA,NA,NA,NA,NA,NA,NA,NA,2,6,"4,6,3,15,7,1,9,2,11,10,8,14,13,12,5"
14653,commdev-image-keyboard-response,129,727201,practice,723.5,img/practice1_left.png,NA,Number not found in mappings,NA,TRUE,f,f,NA,NA,NA,2,6,"4,6,3,15,7,1,9,2,11,10,8,14,13,12,5"
14653,commdev-image-keyboard-response,130,728458,practice,715.5,img/practice2_left.png,NA,Number not found in mappings,NA,TRUE,f,f,NA,NA,NA,2,6,"4,6,3,15,7,1,9,2,11,10,8,14,13,12,5"
14653,commdev-image-keyboard-response,131,729715,practice,562.9000000022352,img/practice4_right.png,NA,Number not found in mappings,NA,FALSE,f,j,NA,NA,NA,2,6,"4,6,3,15,7,1,9,2,11,10,8,14,13,12,5"
14653,commdev-image-keyboard-response,132,730968,practice,39.29999999701977,img/practice2_right.png,NA,Number not found in mappings,NA,TRUE,j,j,NA,NA,NA,2,6,"4,6,3,15,7,1,9,2,11,10,8,14,13,12,5"
14653,commdev-image-keyboard-response,133,732223,practice,596.9000000022352,img/practice4_left.png,NA,Number not found in mappings,NA,TRUE,f,f,NA,NA,NA,2,6,"4,6,3,15,7,1,9,2,11,10,8,14,13,12,5"
14653,commdev-image-keyboard-response,134,733480,practice,534.6999999992549,img/practice2_right.png,NA,Number not found in mappings,NA,TRUE,j,j,NA,NA,NA,2,6,"4,6,3,15,7,1,9,2,11,10,8,14,13,12,5"
14653,commdev-image-keyboard-response,135,734737,practice,602.1000000014901,img/practice1_right.png,NA,Number not found in mappings,NA,TRUE,j,j,NA,NA,NA,2,6,"4,6,3,15,7,1,9,2,11,10,8,14,13,12,5"
14653,commdev-image-keyboard-response,136,735990,practice,807.1999999992549,img/practice3_right.png,NA,Number not found in mappings,NA,TRUE,j,j,NA,NA,NA,2,6,"4,6,3,15,7,1,9,2,11,10,8,14,13,12,5"
14653,commdev-instructions,137,746536,NA,992.7000000029802,"<p>Great job with the practice round.</p><p>During real missions, you won't know whether you pressed the right or wrong key for each planet.</p><p>But between missions, we will tell you how you did overall.</p>",NA,NA,NA,NA,NA,NA,NA,NA,NA,2,6,"4,6,3,15,7,1,9,2,11,10,8,14,13,12,5"
14653,commdev-instructions,138,756587,NA,1807.6000000014901,<p>Try your best! You will be paid a bonus based on how many correct responses you make!</p><p>Responses that are too slow will not count toward your bonus.</p>,NA,NA,NA,NA,NA,NA,NA,NA,NA,2,6,"4,6,3,15,7,1,9,2,11,10,8,14,13,12,5"
14653,commdev-instructions,139,763386,NA,596.1999999992549,"<p>You are almost ready to start the real game.</p><p> First, we are going to ask you some questions about how the game works.</p>",NA,NA,NA,NA,NA,NA,NA,NA,NA,2,6,"4,6,3,15,7,1,9,2,11,10,8,14,13,12,5"
14653,commdev-instructions,148,840785,NA,1416.2999999970198,"<p> Nice work! It is now time to start the real game.<p></p>You will go on two missions to record wind directions of different planets.<p></p>Each one will take about 5 minutes. You will get to take a break between missions.<p><p> Remember, press <strong>F</strong> or <strong>J</strong> depending on the wind direction. Good luck!<br><img src=""img/categorize_planet_example.png""",NA,NA,NA,NA,NA,NA,NA,NA,NA,2,6,"4,6,3,15,7,1,9,2,11,10,8,14,13,12,5"
14653,commdev-image-keyboard-response,150,844000,learnblock1,null,img/planet14_left.png,14,Community 3,NA,FALSE,null,f,NA,NA,NA,2,6,"4,6,3,15,7,1,9,2,11,10,8,14,13,12,5"
14653,commdev-image-keyboard-response,151,845255,learnblock1,59.20000000298023,img/planet13_right.png,13,Community 3,NA,TRUE,j,j,NA,NA,NA,2,6,"4,6,3,15,7,1,9,2,11,10,8,14,13,12,5"
14653,commdev-image-keyboard-response,152,846512,learnblock1,null,img/planet8_right.png,8,Community 3,NA,FALSE,null,j,NA,NA,NA,2,6,"4,6,3,15,7,1,9,2,11,10,8,14,13,12,5"
14653,commdev-image-keyboard-response,153,847767,learnblock1,282,img/planet12_right.png,12,Community 3,NA,TRUE,j,j,NA,NA,NA,2,6,"4,6,3,15,7,1,9,2,11,10,8,14,13,12,5"
14653,commdev-image-keyboard-response,154,849024,learnblock1,727.1000000014901,img/planet14_left.png,14,Community 3,NA,TRUE,f,f,NA,NA,NA,2,6,"4,6,3,15,7,1,9,2,11,10,8,14,13,12,5"
14653,commdev-image-keyboard-response,155,850282,learnblock1,523.7000000029802,img/planet12_right.png,12,Community 3,NA,TRUE,j,j,NA,NA,NA,2,6,"4,6,3,15,7,1,9,2,11,10,8,14,13,12,5"
14653,commdev-image-keyboard-response,156,851539,learnblock1,544.8999999985099,img/planet14_left.png,14,Community 3,NA,TRUE,f,f,NA,NA,NA,2,6,"4,6,3,15,7,1,9,2,11,10,8,14,13,12,5"
14653,commdev-image-keyboard-response,157,852794,learnblock1,639.5,img/planet2_left.png,2,Community 2,NA,TRUE,f,f,NA,NA,NA,2,6,"4,6,3,15,7,1,9,2,11,10,8,14,13,12,5"
14653,commdev-image-keyboard-response,158,854051,learnblock1,577,img/planet9_right.png,9,Community 2,NA,TRUE,j,j,NA,NA,NA,2,6,"4,6,3,15,7,1,9,2,11,10,8,14,13,12,5"
14653,commdev-image-keyboard-response,159,855308,learnblock1,841.3999999985099,img/planet11_right.png,11,Community 2,NA,TRUE,j,j,NA,NA,NA,2,6,"4,6,3,15,7,1,9,2,11,10,8,14,13,12,5"
14653,commdev-image-keyboard-response,160,856565,learnblock1,795.0999999977648,img/planet2_right.png,2,Community 2,NA,TRUE,j,j,NA,NA,NA,2,6,"4,6,3,15,7,1,9,2,11,10,8,14,13,12,5"
14653,commdev-image-keyboard-response,161,857817,learnblock1,827.6999999992549,img/planet14_right.png,14,Community 3,NA,TRUE,j,j,NA,NA,NA,2,6,"4,6,3,15,7,1,9,2,11,10,8,14,13,12,5"
14653,commdev-image-keyboard-response,162,859074,learnblock1,555.1000000014901,img/planet2_right.png,2,Community 2,NA,TRUE,j,j,NA,NA,NA,2,6,"4,6,3,15,7,1,9,2,11,10,8,14,13,12,5"
14653,commdev-image-keyboard-response,163,860329,learnblock1,584.6999999992549,img/planet14_right.png,14,Community 3,NA,TRUE,j,j,NA,NA,NA,2,6,"4,6,3,15,7,1,9,2,11,10,8,14,13,12,5"
14653,commdev-image-keyboard-response,164,861582,learnblock1,579.6000000014901,img/planet2_right.png,2,Community 2,NA,TRUE,j,j,NA,NA,NA,2,6,"4,6,3,15,7,1,9,2,11,10,8,14,13,12,5"
14653,commdev-image-keyboard-response,165,862840,learnblock1,899,img/planet11_right.png,11,Community 2,NA,TRUE,j,j,NA,NA,NA,2,6,"4,6,3,15,7,1,9,2,11,10,8,14,13,12,5"
14653,commdev-image-keyboard-response,166,864097,learnblock1,645.1999999992549,img/planet2_left.png,2,Community 2,NA,TRUE,f,f,NA,NA,NA,2,6,"4,6,3,15,7,1,9,2,11,10,8,14,13,12,5"
14653,commdev-image-keyboard-response,167,865352,learnblock1,734.9000000022352,img/planet14_right.png,14,Community 3,NA,TRUE,j,j,NA,NA,NA,2,6,"4,6,3,15,7,1,9,2,11,10,8,14,13,12,5"
14653,commdev-image-keyboard-response,168,866609,learnblock1,1025.8999999985099,img/planet12_left.png,12,Community 3,NA,TRUE,f,f,NA,NA,NA,2,6,"4,6,3,15,7,1,9,2,11,10,8,14,13,12,5"
14653,commdev-image-keyboard-response,169,867861,learnblock1,661.1999999992549,img/planet5_right.png,5,Community 3,NA,TRUE,j,j,NA,NA,NA,2,6,"4,6,3,15,7,1,9,2,11,10,8,14,13,12,5"
14653,commdev-image-keyboard-response,170,869118,learnblock1,785.3000000007451,img/planet8_left.png,8,Community 3,NA,TRUE,f,f,NA,NA,NA,2,6,"4,6,3,15,7,1,9,2,11,10,8,14,13,12,5"
14653,commdev-image-keyboard-response,171,870374,learnblock1,528.6999999992549,img/planet5_right.png,5,Community 3,NA,TRUE,j,j,NA,NA,NA,2,6,"4,6,3,15,7,1,9,2,11,10,8,14,13,12,5"
14653,commdev-image-keyboard-response,172,871631,learnblock1,819.3000000007451,img/planet14_left.png,14,Community 3,NA,TRUE,f,f,NA,NA,NA,2,6,"4,6,3,15,7,1,9,2,11,10,8,14,13,12,5"
14653,commdev-image-keyboard-response,173,872884,learnblock1,670.2999999970198,img/planet12_left.png,12,Community 3,NA,TRUE,f,f,NA,NA,NA,2,6,"4,6,3,15,7,1,9,2,11,10,8,14,13,12,5"
14653,commdev-image-keyboard-response,174,874141,learnblock1,554.0999999977648,img/planet14_right.png,14,Community 3,NA,TRUE,j,j,NA,NA,NA,2,6,"4,6,3,15,7,1,9,2,11,10,8,14,13,12,5"
14653,commdev-image-keyboard-response,175,875395,learnblock1,821.4000000022352,img/planet12_right.png,12,Community 3,NA,TRUE,j,j,NA,NA,NA,2,6,"4,6,3,15,7,1,9,2,11,10,8,14,13,12,5"
14653,commdev-image-keyboard-response,176,876652,learnblock1,663,img/planet13_left.png,13,Community 3,NA,TRUE,f,f,NA,NA,NA,2,6,"4,6,3,15,7,1,9,2,11,10,8,14,13,12,5"
14653,commdev-image-keyboard-response,177,877909,learnblock1,597.5999999977648,img/planet12_right.png,12,Community 3,NA,TRUE,j,j,NA,NA,NA,2,6,"4,6,3,15,7,1,9,2,11,10,8,14,13,12,5"
14653,commdev-image-keyboard-response,178,879162,learnblock1,1042.699999999255,img/planet13_right.png,13,Community 3,NA,TRUE,j,j,NA,NA,NA,2,6,"4,6,3,15,7,1,9,2,11,10,8,14,13,12,5"
14653,commdev-image-keyboard-response,179,880419,learnblock1,853.5999999977648,img/planet8_left.png,8,Community 3,NA,TRUE,f,f,NA,NA,NA,2,6,"4,6,3,15,7,1,9,2,11,10,8,14,13,12,5"
14653,commdev-image-keyboard-response,180,881676,learnblock1,682.4000000022352,img/planet12_right.png,12,Community 3,NA,TRUE,j,j,NA,NA,NA,2,6,"4,6,3,15,7,1,9,2,11,10,8,14,13,12,5"
14653,commdev-image-keyboard-response,181,882933,learnblock1,778.2999999970198,img/planet5_left.png,5,Community 3,NA,TRUE,f,f,NA,NA,NA,2,6,"4,6,3,15,7,1,9,2,11,10,8,14,13,12,5"
14653,commdev-image-keyboard-response,182,884185,learnblock1,627,img/planet13_left.png,13,Community 3,NA,TRUE,f,f,NA,NA,NA,2,6,"4,6,3,15,7,1,9,2,11,10,8,14,13,12,5"
14653,commdev-image-keyboard-response,183,885442,learnblock1,1152.3999999985099,img/planet12_left.png,12,Community 3,NA,TRUE,f,f,NA,NA,NA,2,6,"4,6,3,15,7,1,9,2,11,10,8,14,13,12,5"
14653,commdev-image-keyboard-response,184,886700,learnblock1,775.6000000014901,img/planet14_right.png,14,Community 3,NA,TRUE,j,j,NA,NA,NA,2,6,"4,6,3,15,7,1,9,2,11,10,8,14,13,12,5"
14653,commdev-image-keyboard-response,185,887957,learnblock1,null,img/planet5_right.png,5,Community 3,NA,FALSE,null,j,NA,NA,NA,2,6,"4,6,3,15,7,1,9,2,11,10,8,14,13,12,5"
14653,commdev-image-keyboard-response,186,889214,learnblock1,0.20000000298023224,img/planet13_right.png,13,Community 3,NA,TRUE,j,j,NA,NA,NA,2,6,"4,6,3,15,7,1,9,2,11,10,8,14,13,12,5"
14653,commdev-image-keyboard-response,187,890470,learnblock1,841,img/planet8_left.png,8,Community 3,NA,TRUE,f,f,NA,NA,NA,2,6,"4,6,3,15,7,1,9,2,11,10,8,14,13,12,5"
14653,commdev-image-keyboard-response,188,891725,learnblock1,557.1999999992549,img/planet7_right.png,7,Community 1,NA,TRUE,j,j,NA,NA,NA,2,6,"4,6,3,15,7,1,9,2,11,10,8,14,13,12,5"
14653,commdev-image-keyboard-response,189,892978,learnblock1,609.8999999985099,img/planet8_left.png,8,Community 3,NA,TRUE,f,f,NA,NA,NA,2,6,"4,6,3,15,7,1,9,2,11,10,8,14,13,12,5"
14653,commdev-image-keyboard-response,190,894235,learnblock1,455.19999999925494,img/planet12_left.png,12,Community 3,NA,FALSE,j,f,NA,NA,NA,2,6,"4,6,3,15,7,1,9,2,11,10,8,14,13,12,5"
14653,commdev-image-keyboard-response,191,895491,learnblock1,618.3999999985099,img/planet13_right.png,13,Community 3,NA,TRUE,j,j,NA,NA,NA,2,6,"4,6,3,15,7,1,9,2,11,10,8,14,13,12,5"
14653,commdev-image-keyboard-response,192,896747,learnblock1,664.4000000022352,img/planet14_right.png,14,Community 3,NA,TRUE,j,j,NA,NA,NA,2,6,"4,6,3,15,7,1,9,2,11,10,8,14,13,12,5"
14653,commdev-image-keyboard-response,193,898004,learnblock1,481.4000000022352,img/planet5_right.png,5,Community 3,NA,TRUE,j,j,NA,NA,NA,2,6,"4,6,3,15,7,1,9,2,11,10,8,14,13,12,5"
14653,commdev-image-keyboard-response,194,899261,learnblock1,477.5999999977648,img/planet8_left.png,8,Community 3,NA,TRUE,f,f,NA,NA,NA,2,6,"4,6,3,15,7,1,9,2,11,10,8,14,13,12,5"
14653,commdev-image-keyboard-response,195,900518,learnblock1,507.19999999925494,img/planet13_right.png,13,Community 3,NA,TRUE,j,j,NA,NA,NA,2,6,"4,6,3,15,7,1,9,2,11,10,8,14,13,12,5"
14653,commdev-image-keyboard-response,196,901771,learnblock1,741.1000000014901,img/planet8_right.png,8,Community 3,NA,TRUE,j,j,NA,NA,NA,2,6,"4,6,3,15,7,1,9,2,11,10,8,14,13,12,5"
14653,commdev-image-keyboard-response,197,903028,learnblock1,435.29999999701977,img/planet13_left.png,13,Community 3,NA,TRUE,f,f,NA,NA,NA,2,6,"4,6,3,15,7,1,9,2,11,10,8,14,13,12,5"
14653,commdev-image-keyboard-response,198,904286,learnblock1,639.7000000029802,img/planet8_left.png,8,Community 3,NA,TRUE,f,f,NA,NA,NA,2,6,"4,6,3,15,7,1,9,2,11,10,8,14,13,12,5"
14653,commdev-image-keyboard-response,199,905540,learnblock1,636.6999999992549,img/planet7_left.png,7,Community 1,NA,TRUE,f,f,NA,NA,NA,2,6,"4,6,3,15,7,1,9,2,11,10,8,14,13,12,5"
14653,commdev-image-keyboard-response,200,906797,learnblock1,656,img/planet4_right.png,4,Community 1,NA,TRUE,j,j,NA,NA,NA,2,6,"4,6,3,15,7,1,9,2,11,10,8,14,13,12,5"
14653,commdev-image-keyboard-response,201,908054,learnblock1,723.6999999992549,img/planet3_left.png,3,Community 1,NA,TRUE,f,f,NA,NA,NA,2,6,"4,6,3,15,7,1,9,2,11,10,8,14,13,12,5"
14653,commdev-image-keyboard-response,202,909308,learnblock1,569,img/planet15_right.png,15,Community 1,NA,TRUE,j,j,NA,NA,NA,2,6,"4,6,3,15,7,1,9,2,11,10,8,14,13,12,5"
14653,commdev-image-keyboard-response,203,910565,learnblock1,569.3999999985099,img/planet3_right.png,3,Community 1,NA,TRUE,j,j,NA,NA,NA,2,6,"4,6,3,15,7,1,9,2,11,10,8,14,13,12,5"
14653,commdev-image-keyboard-response,204,911822,learnblock1,891.1999999992549,img/planet6_right.png,6,Community 1,NA,TRUE,j,j,NA,NA,NA,2,6,"4,6,3,15,7,1,9,2,11,10,8,14,13,12,5"
14653,commdev-image-keyboard-response,205,913080,learnblock1,649.1000000014901,img/planet15_right.png,15,Community 1,NA,TRUE,j,j,NA,NA,NA,2,6,"4,6,3,15,7,1,9,2,11,10,8,14,13,12,5"
14653,commdev-image-keyboard-response,206,914336,learnblock1,651.1999999992549,img/planet4_right.png,4,Community 1,NA,TRUE,j,j,NA,NA,NA,2,6,"4,6,3,15,7,1,9,2,11,10,8,14,13,12,5"
14653,commdev-image-keyboard-response,207,915594,learnblock1,538.8999999985099,img/planet6_left.png,6,Community 1,NA,TRUE,f,f,NA,NA,NA,2,6,"4,6,3,15,7,1,9,2,11,10,8,14,13,12,5"
14653,commdev-image-keyboard-response,208,916851,learnblock1,693.6000000014901,img/planet15_right.png,15,Community 1,NA,FALSE,f,j,NA,NA,NA,2,6,"4,6,3,15,7,1,9,2,11,10,8,14,13,12,5"
14653,commdev-image-keyboard-response,209,918103,learnblock1,785.5,img/planet4_right.png,4,Community 1,NA,TRUE,j,j,NA,NA,NA,2,6,"4,6,3,15,7,1,9,2,11,10,8,14,13,12,5"
14653,commdev-image-keyboard-response,210,919355,learnblock1,648.2999999970198,img/planet15_right.png,15,Community 1,NA,TRUE,j,j,NA,NA,NA,2,6,"4,6,3,15,7,1,9,2,11,10,8,14,13,12,5"
14653,commdev-image-keyboard-response,211,920610,learnblock1,684.3000000007451,img/planet6_left.png,6,Community 1,NA,TRUE,f,f,NA,NA,NA,2,6,"4,6,3,15,7,1,9,2,11,10,8,14,13,12,5"
14653,commdev-image-keyboard-response,212,921867,learnblock1,526,img/planet15_right.png,15,Community 1,NA,TRUE,j,j,NA,NA,NA,2,6,"4,6,3,15,7,1,9,2,11,10,8,14,13,12,5"
14653,commdev-image-keyboard-response,213,923123,learnblock1,642.8999999985099,img/planet4_left.png,4,Community 1,NA,TRUE,f,f,NA,NA,NA,2,6,"4,6,3,15,7,1,9,2,11,10,8,14,13,12,5"
14653,commdev-image-keyboard-response,214,924381,learnblock1,658.8999999985099,img/planet6_right.png,6,Community 1,NA,TRUE,j,j,NA,NA,NA,2,6,"4,6,3,15,7,1,9,2,11,10,8,14,13,12,5"
14653,commdev-image-keyboard-response,215,925638,learnblock1,755.1000000014901,img/planet15_right.png,15,Community 1,NA,TRUE,j,j,NA,NA,NA,2,6,"4,6,3,15,7,1,9,2,11,10,8,14,13,12,5"
14653,commdev-image-keyboard-response,216,926895,learnblock1,689,img/planet1_left.png,1,Community 2,NA,TRUE,f,f,NA,NA,NA,2,6,"4,6,3,15,7,1,9,2,11,10,8,14,13,12,5"
14653,commdev-image-keyboard-response,217,928152,learnblock1,1120.2999999970198,img/planet9_left.png,9,Community 2,NA,TRUE,f,f,NA,NA,NA,2,6,"4,6,3,15,7,1,9,2,11,10,8,14,13,12,5"
14653,commdev-image-keyboard-response,218,929409,learnblock1,677,img/planet2_right.png,2,Community 2,NA,TRUE,j,j,NA,NA,NA,2,6,"4,6,3,15,7,1,9,2,11,10,8,14,13,12,5"
14653,commdev-image-keyboard-response,219,930663,learnblock1,619.1000000014901,img/planet10_left.png,10,Community 2,NA,TRUE,f,f,NA,NA,NA,2,6,"4,6,3,15,7,1,9,2,11,10,8,14,13,12,5"
14653,commdev-image-keyboard-response,220,931917,learnblock1,795.8000000007451,img/planet11_left.png,11,Community 2,NA,TRUE,f,f,NA,NA,NA,2,6,"4,6,3,15,7,1,9,2,11,10,8,14,13,12,5"
14653,commdev-image-keyboard-response,221,933171,learnblock1,783.8000000007451,img/planet9_left.png,9,Community 2,NA,TRUE,f,f,NA,NA,NA,2,6,"4,6,3,15,7,1,9,2,11,10,8,14,13,12,5"
14653,commdev-image-keyboard-response,222,934427,learnblock1,718.8999999985099,img/planet11_right.png,11,Community 2,NA,TRUE,j,j,NA,NA,NA,2,6,"4,6,3,15,7,1,9,2,11,10,8,14,13,12,5"
14653,commdev-image-keyboard-response,223,935685,learnblock1,777.8999999985099,img/planet9_right.png,9,Community 2,NA,TRUE,j,j,NA,NA,NA,2,6,"4,6,3,15,7,1,9,2,11,10,8,14,13,12,5"
14653,commdev-image-keyboard-response,224,936942,learnblock1,583.1000000014901,img/planet10_left.png,10,Community 2,NA,TRUE,f,f,NA,NA,NA,2,6,"4,6,3,15,7,1,9,2,11,10,8,14,13,12,5"
14653,commdev-image-keyboard-response,225,938194,learnblock1,821.6000000014901,img/planet1_right.png,1,Community 2,NA,TRUE,j,j,NA,NA,NA,2,6,"4,6,3,15,7,1,9,2,11,10,8,14,13,12,5"
14653,commdev-image-keyboard-response,226,939450,learnblock1,763.8999999985099,img/planet15_right.png,15,Community 1,NA,TRUE,j,j,NA,NA,NA,2,6,"4,6,3,15,7,1,9,2,11,10,8,14,13,12,5"
14653,commdev-image-keyboard-response,227,940708,learnblock1,560.0999999977648,img/planet4_left.png,4,Community 1,NA,TRUE,f,f,NA,NA,NA,2,6,"4,6,3,15,7,1,9,2,11,10,8,14,13,12,5"
14653,commdev-image-keyboard-response,228,941961,learnblock1,481.69999999925494,img/planet3_right.png,3,Community 1,NA,TRUE,j,j,NA,NA,NA,2,6,"4,6,3,15,7,1,9,2,11,10,8,14,13,12,5"
14653,commdev-image-keyboard-response,229,943218,learnblock1,431.3999999985099,img/planet4_left.png,4,Community 1,NA,TRUE,f,f,NA,NA,NA,2,6,"4,6,3,15,7,1,9,2,11,10,8,14,13,12,5"
14653,commdev-image-keyboard-response,230,944475,learnblock1,444.29999999701977,img/planet7_right.png,7,Community 1,NA,TRUE,j,j,NA,NA,NA,2,6,"4,6,3,15,7,1,9,2,11,10,8,14,13,12,5"
14653,commdev-image-keyboard-response,231,945732,learnblock1,446.69999999925494,img/planet4_left.png,4,Community 1,NA,TRUE,f,f,NA,NA,NA,2,6,"4,6,3,15,7,1,9,2,11,10,8,14,13,12,5"
14653,commdev-image-keyboard-response,232,946986,learnblock1,592.2000000029802,img/planet15_left.png,15,Community 1,NA,TRUE,f,f,NA,NA,NA,2,6,"4,6,3,15,7,1,9,2,11,10,8,14,13,12,5"
14653,commdev-image-keyboard-response,233,948241,learnblock1,814.5999999977648,img/planet1_left.png,1,Community 2,NA,TRUE,f,f,NA,NA,NA,2,6,"4,6,3,15,7,1,9,2,11,10,8,14,13,12,5"
14653,commdev-image-keyboard-response,234,949498,learnblock1,558.1999999992549,img/planet15_right.png,15,Community 1,NA,FALSE,f,j,NA,NA,NA,2,6,"4,6,3,15,7,1,9,2,11,10,8,14,13,12,5"
14653,commdev-image-keyboard-response,235,950753,learnblock1,642.3000000007451,img/planet1_right.png,1,Community 2,NA,TRUE,j,j,NA,NA,NA,2,6,"4,6,3,15,7,1,9,2,11,10,8,14,13,12,5"
14653,commdev-image-keyboard-response,236,952008,learnblock1,517.3999999985099,img/planet15_right.png,15,Community 1,NA,TRUE,j,j,NA,NA,NA,2,6,"4,6,3,15,7,1,9,2,11,10,8,14,13,12,5"
14653,commdev-image-keyboard-response,237,953265,learnblock1,686.1999999992549,img/planet6_right.png,6,Community 1,NA,TRUE,j,j,NA,NA,NA,2,6,"4,6,3,15,7,1,9,2,11,10,8,14,13,12,5"
14653,commdev-image-keyboard-response,238,954521,learnblock1,525.2999999970198,img/planet3_right.png,3,Community 1,NA,TRUE,j,j,NA,NA,NA,2,6,"4,6,3,15,7,1,9,2,11,10,8,14,13,12,5"
14653,commdev-image-keyboard-response,239,955778,learnblock1,969.5,img/planet6_left.png,6,Community 1,NA,TRUE,f,f,NA,NA,NA,2,6,"4,6,3,15,7,1,9,2,11,10,8,14,13,12,5"
14653,commdev-image-keyboard-response,240,957034,learnblock1,668.5999999977648,img/planet15_left.png,15,Community 1,NA,TRUE,f,f,NA,NA,NA,2,6,"4,6,3,15,7,1,9,2,11,10,8,14,13,12,5"
14653,commdev-image-keyboard-response,241,958286,learnblock1,692.3000000007451,img/planet3_right.png,3,Community 1,NA,TRUE,j,j,NA,NA,NA,2,6,"4,6,3,15,7,1,9,2,11,10,8,14,13,12,5"
14653,commdev-image-keyboard-response,242,959543,learnblock1,578.0999999977648,img/planet6_left.png,6,Community 1,NA,TRUE,f,f,NA,NA,NA,2,6,"4,6,3,15,7,1,9,2,11,10,8,14,13,12,5"
14653,commdev-image-keyboard-response,243,960800,learnblock1,512.3000000007451,img/planet3_right.png,3,Community 1,NA,TRUE,j,j,NA,NA,NA,2,6,"4,6,3,15,7,1,9,2,11,10,8,14,13,12,5"
14653,commdev-image-keyboard-response,244,962057,learnblock1,728.1000000014901,img/planet6_right.png,6,Community 1,NA,TRUE,j,j,NA,NA,NA,2,6,"4,6,3,15,7,1,9,2,11,10,8,14,13,12,5"
14653,commdev-image-keyboard-response,245,963309,learnblock1,593.8999999985099,img/planet15_right.png,15,Community 1,NA,TRUE,j,j,NA,NA,NA,2,6,"4,6,3,15,7,1,9,2,11,10,8,14,13,12,5"
14653,commdev-image-keyboard-response,246,964566,learnblock1,469.0999999977648,img/planet4_left.png,4,Community 1,NA,TRUE,f,f,NA,NA,NA,2,6,"4,6,3,15,7,1,9,2,11,10,8,14,13,12,5"
14653,commdev-image-keyboard-response,247,965823,learnblock1,533,img/planet15_left.png,15,Community 1,NA,TRUE,f,f,NA,NA,NA,2,6,"4,6,3,15,7,1,9,2,11,10,8,14,13,12,5"
14653,commdev-image-keyboard-response,248,967080,learnblock1,679.2000000029802,img/planet3_left.png,3,Community 1,NA,TRUE,f,f,NA,NA,NA,2,6,"4,6,3,15,7,1,9,2,11,10,8,14,13,12,5"
14653,commdev-image-keyboard-response,249,968333,learnblock1,625.5999999977648,img/planet6_left.png,6,Community 1,NA,TRUE,f,f,NA,NA,NA,2,6,"4,6,3,15,7,1,9,2,11,10,8,14,13,12,5"
14653,commdev-image-keyboard-response,250,969590,learnblock1,722.1999999992549,img/planet4_left.png,4,Community 1,NA,TRUE,f,f,NA,NA,NA,2,6,"4,6,3,15,7,1,9,2,11,10,8,14,13,12,5"
14653,commdev-image-keyboard-response,251,970847,learnblock1,550.8000000007451,img/planet6_right.png,6,Community 1,NA,TRUE,j,j,NA,NA,NA,2,6,"4,6,3,15,7,1,9,2,11,10,8,14,13,12,5"
14653,commdev-image-keyboard-response,252,972104,learnblock1,591,img/planet15_right.png,15,Community 1,NA,TRUE,j,j,NA,NA,NA,2,6,"4,6,3,15,7,1,9,2,11,10,8,14,13,12,5"
14653,commdev-image-keyboard-response,253,973358,learnblock1,443.30000000074506,img/planet6_right.png,6,Community 1,NA,TRUE,j,j,NA,NA,NA,2,6,"4,6,3,15,7,1,9,2,11,10,8,14,13,12,5"
14653,commdev-image-keyboard-response,254,974615,learnblock1,561.3000000007451,img/planet3_left.png,3,Community 1,NA,FALSE,j,f,NA,NA,NA,2,6,"4,6,3,15,7,1,9,2,11,10,8,14,13,12,5"
14653,commdev-image-keyboard-response,255,975872,learnblock1,604,img/planet6_left.png,6,Community 1,NA,TRUE,f,f,NA,NA,NA,2,6,"4,6,3,15,7,1,9,2,11,10,8,14,13,12,5"
14653,commdev-image-keyboard-response,256,977126,learnblock1,673.8999999985099,img/planet15_left.png,15,Community 1,NA,TRUE,f,f,NA,NA,NA,2,6,"4,6,3,15,7,1,9,2,11,10,8,14,13,12,5"
14653,commdev-image-keyboard-response,257,978380,learnblock1,514.0999999977648,img/planet4_right.png,4,Community 1,NA,TRUE,j,j,NA,NA,NA,2,6,"4,6,3,15,7,1,9,2,11,10,8,14,13,12,5"
14653,commdev-image-keyboard-response,258,979637,learnblock1,591.6999999992549,img/planet6_right.png,6,Community 1,NA,TRUE,j,j,NA,NA,NA,2,6,"4,6,3,15,7,1,9,2,11,10,8,14,13,12,5"
14653,commdev-image-keyboard-response,259,980894,learnblock1,428.5999999977648,img/planet3_left.png,3,Community 1,NA,FALSE,j,f,NA,NA,NA,2,6,"4,6,3,15,7,1,9,2,11,10,8,14,13,12,5"
14653,commdev-image-keyboard-response,260,982152,learnblock1,556.5,img/planet7_left.png,7,Community 1,NA,TRUE,f,f,NA,NA,NA,2,6,"4,6,3,15,7,1,9,2,11,10,8,14,13,12,5"
14653,commdev-image-keyboard-response,261,983409,learnblock1,583.1000000014901,img/planet4_left.png,4,Community 1,NA,TRUE,f,f,NA,NA,NA,2,6,"4,6,3,15,7,1,9,2,11,10,8,14,13,12,5"
14653,commdev-image-keyboard-response,262,984666,learnblock1,818.3000000007451,img/planet3_left.png,3,Community 1,NA,TRUE,f,f,NA,NA,NA,2,6,"4,6,3,15,7,1,9,2,11,10,8,14,13,12,5"
14653,commdev-image-keyboard-response,263,985923,learnblock1,587,img/planet15_right.png,15,Community 1,NA,TRUE,j,j,NA,NA,NA,2,6,"4,6,3,15,7,1,9,2,11,10,8,14,13,12,5"
14653,commdev-image-keyboard-response,264,987180,learnblock1,611.6999999992549,img/planet1_left.png,1,Community 2,NA,TRUE,f,f,NA,NA,NA,2,6,"4,6,3,15,7,1,9,2,11,10,8,14,13,12,5"
14653,commdev-image-keyboard-response,265,988433,learnblock1,570.6000000014901,img/planet10_right.png,10,Community 2,NA,TRUE,j,j,NA,NA,NA,2,6,"4,6,3,15,7,1,9,2,11,10,8,14,13,12,5"
14653,commdev-image-keyboard-response,266,989689,learnblock1,446.8999999985099,img/planet11_left.png,11,Community 2,NA,TRUE,f,f,NA,NA,NA,2,6,"4,6,3,15,7,1,9,2,11,10,8,14,13,12,5"
14653,commdev-image-keyboard-response,267,990947,learnblock1,619.5999999977648,img/planet9_right.png,9,Community 2,NA,TRUE,j,j,NA,NA,NA,2,6,"4,6,3,15,7,1,9,2,11,10,8,14,13,12,5"
14653,commdev-image-keyboard-response,268,992203,learnblock1,469,img/planet11_left.png,11,Community 2,NA,TRUE,f,f,NA,NA,NA,2,6,"4,6,3,15,7,1,9,2,11,10,8,14,13,12,5"
14653,commdev-image-keyboard-response,269,993457,learnblock1,471.4000000022352,img/planet2_right.png,2,Community 2,NA,TRUE,j,j,NA,NA,NA,2,6,"4,6,3,15,7,1,9,2,11,10,8,14,13,12,5"
14653,commdev-image-keyboard-response,270,994714,learnblock1,611.7999999970198,img/planet10_right.png,10,Community 2,NA,TRUE,j,j,NA,NA,NA,2,6,"4,6,3,15,7,1,9,2,11,10,8,14,13,12,5"
14653,commdev-image-keyboard-response,271,995971,learnblock1,534.6999999992549,img/planet1_right.png,1,Community 2,NA,TRUE,j,j,NA,NA,NA,2,6,"4,6,3,15,7,1,9,2,11,10,8,14,13,12,5"
14653,commdev-image-keyboard-response,272,997228,learnblock1,611.5,img/planet11_right.png,11,Community 2,NA,TRUE,j,j,NA,NA,NA,2,6,"4,6,3,15,7,1,9,2,11,10,8,14,13,12,5"
14653,commdev-image-keyboard-response,273,998481,learnblock1,521.6000000014901,img/planet1_right.png,1,Community 2,NA,TRUE,j,j,NA,NA,NA,2,6,"4,6,3,15,7,1,9,2,11,10,8,14,13,12,5"
14653,commdev-image-keyboard-response,274,999738,learnblock1,596.8000000007451,img/planet10_right.png,10,Community 2,NA,TRUE,j,j,NA,NA,NA,2,6,"4,6,3,15,7,1,9,2,11,10,8,14,13,12,5"
14653,commdev-image-keyboard-response,275,1000993,learnblock1,732.9000000022352,img/planet11_left.png,11,Community 2,NA,TRUE,f,f,NA,NA,NA,2,6,"4,6,3,15,7,1,9,2,11,10,8,14,13,12,5"
14653,commdev-image-keyboard-response,276,1002248,learnblock1,549,img/planet10_right.png,10,Community 2,NA,TRUE,j,j,NA,NA,NA,2,6,"4,6,3,15,7,1,9,2,11,10,8,14,13,12,5"
14653,commdev-image-keyboard-response,277,1003502,learnblock1,700.4000000022352,img/planet11_left.png,11,Community 2,NA,TRUE,f,f,NA,NA,NA,2,6,"4,6,3,15,7,1,9,2,11,10,8,14,13,12,5"
14653,commdev-image-keyboard-response,278,1004759,learnblock1,883.5,img/planet2_left.png,2,Community 2,NA,TRUE,f,f,NA,NA,NA,2,6,"4,6,3,15,7,1,9,2,11,10,8,14,13,12,5"
14653,commdev-image-keyboard-response,279,1006016,learnblock1,713.7999999970198,img/planet14_right.png,14,Community 3,NA,TRUE,j,j,NA,NA,NA,2,6,"4,6,3,15,7,1,9,2,11,10,8,14,13,12,5"
14653,commdev-image-keyboard-response,280,1007270,learnblock1,695.4000000022352,img/planet5_right.png,5,Community 3,NA,TRUE,j,j,NA,NA,NA,2,6,"4,6,3,15,7,1,9,2,11,10,8,14,13,12,5"
14653,commdev-image-keyboard-response,281,1008525,learnblock1,652.8999999985099,img/planet8_left.png,8,Community 3,NA,TRUE,f,f,NA,NA,NA,2,6,"4,6,3,15,7,1,9,2,11,10,8,14,13,12,5"
14653,commdev-image-keyboard-response,282,1009782,learnblock1,643.8000000007451,img/planet7_right.png,7,Community 1,NA,TRUE,j,j,NA,NA,NA,2,6,"4,6,3,15,7,1,9,2,11,10,8,14,13,12,5"
14653,commdev-image-keyboard-response,283,1011038,learnblock1,680.8999999985099,img/planet6_left.png,6,Community 1,NA,TRUE,f,f,NA,NA,NA,2,6,"4,6,3,15,7,1,9,2,11,10,8,14,13,12,5"
14653,commdev-image-keyboard-response,284,1012296,learnblock1,879.1000000014901,img/planet15_left.png,15,Community 1,NA,TRUE,f,f,NA,NA,NA,2,6,"4,6,3,15,7,1,9,2,11,10,8,14,13,12,5"
14653,commdev-image-keyboard-response,285,1013548,learnblock1,720.5,img/planet6_left.png,6,Community 1,NA,TRUE,f,f,NA,NA,NA,2,6,"4,6,3,15,7,1,9,2,11,10,8,14,13,12,5"
14653,commdev-image-keyboard-response,286,1014806,learnblock1,758.2999999970198,img/planet15_left.png,15,Community 1,NA,TRUE,f,f,NA,NA,NA,2,6,"4,6,3,15,7,1,9,2,11,10,8,14,13,12,5"
14653,commdev-image-keyboard-response,287,1016063,learnblock1,598.6999999992549,img/planet4_left.png,4,Community 1,NA,TRUE,f,f,NA,NA,NA,2,6,"4,6,3,15,7,1,9,2,11,10,8,14,13,12,5"
14653,commdev-image-keyboard-response,288,1017318,learnblock1,596.0999999977648,img/planet3_left.png,3,Community 1,NA,TRUE,f,f,NA,NA,NA,2,6,"4,6,3,15,7,1,9,2,11,10,8,14,13,12,5"
14653,commdev-image-keyboard-response,289,1018573,learnblock1,484.6000000014901,img/planet6_left.png,6,Community 1,NA,TRUE,f,f,NA,NA,NA,2,6,"4,6,3,15,7,1,9,2,11,10,8,14,13,12,5"
14653,commdev-image-keyboard-response,290,1019826,learnblock1,613.1999999992549,img/planet3_left.png,3,Community 1,NA,TRUE,f,f,NA,NA,NA,2,6,"4,6,3,15,7,1,9,2,11,10,8,14,13,12,5"
14653,commdev-image-keyboard-response,291,1021079,learnblock1,720.5999999977648,img/planet6_right.png,6,Community 1,NA,TRUE,j,j,NA,NA,NA,2,6,"4,6,3,15,7,1,9,2,11,10,8,14,13,12,5"
14653,commdev-image-keyboard-response,292,1022337,learnblock1,579.7999999970198,img/planet7_left.png,7,Community 1,NA,TRUE,f,f,NA,NA,NA,2,6,"4,6,3,15,7,1,9,2,11,10,8,14,13,12,5"
14653,commdev-image-keyboard-response,293,1023589,learnblock1,497,img/planet4_right.png,4,Community 1,NA,TRUE,j,j,NA,NA,NA,2,6,"4,6,3,15,7,1,9,2,11,10,8,14,13,12,5"
14653,commdev-image-keyboard-response,294,1024846,learnblock1,609.5,img/planet7_right.png,7,Community 1,NA,TRUE,j,j,NA,NA,NA,2,6,"4,6,3,15,7,1,9,2,11,10,8,14,13,12,5"
14653,commdev-image-keyboard-response,295,1026103,learnblock1,512.7999999970198,img/planet8_right.png,8,Community 3,NA,TRUE,j,j,NA,NA,NA,2,6,"4,6,3,15,7,1,9,2,11,10,8,14,13,12,5"
14653,commdev-image-keyboard-response,296,1027360,learnblock1,597.3000000007451,img/planet5_right.png,5,Community 3,NA,TRUE,j,j,NA,NA,NA,2,6,"4,6,3,15,7,1,9,2,11,10,8,14,13,12,5"
14653,commdev-image-keyboard-response,297,1028618,learnblock1,983,img/planet12_right.png,12,Community 3,NA,TRUE,j,j,NA,NA,NA,2,6,"4,6,3,15,7,1,9,2,11,10,8,14,13,12,5"
14653,commdev-image-keyboard-response,298,1029870,learnblock1,804.3000000007451,img/planet13_left.png,13,Community 3,NA,FALSE,j,f,NA,NA,NA,2,6,"4,6,3,15,7,1,9,2,11,10,8,14,13,12,5"
14653,commdev-image-keyboard-response,299,1031127,learnblock1,650.1999999992549,img/planet5_left.png,5,Community 3,NA,TRUE,f,f,NA,NA,NA,2,6,"4,6,3,15,7,1,9,2,11,10,8,14,13,12,5"
14653,commdev-image-keyboard-response,300,1032385,learnblock1,896.8999999985099,img/planet12_left.png,12,Community 3,NA,TRUE,f,f,NA,NA,NA,2,6,"4,6,3,15,7,1,9,2,11,10,8,14,13,12,5"
14653,commdev-image-keyboard-response,301,1033641,learnblock1,626.3999999985099,img/planet5_left.png,5,Community 3,NA,TRUE,f,f,NA,NA,NA,2,6,"4,6,3,15,7,1,9,2,11,10,8,14,13,12,5"
14653,commdev-image-keyboard-response,302,1034894,learnblock1,692.5999999977648,img/planet8_left.png,8,Community 3,NA,TRUE,f,f,NA,NA,NA,2,6,"4,6,3,15,7,1,9,2,11,10,8,14,13,12,5"
14653,commdev-image-keyboard-response,303,1036147,learnblock1,535.3000000007451,img/planet12_left.png,12,Community 3,NA,TRUE,f,f,NA,NA,NA,2,6,"4,6,3,15,7,1,9,2,11,10,8,14,13,12,5"
14653,commdev-image-keyboard-response,304,1037404,learnblock1,702.0999999977648,img/planet5_right.png,5,Community 3,NA,FALSE,f,j,NA,NA,NA,2,6,"4,6,3,15,7,1,9,2,11,10,8,14,13,12,5"
14653,commdev-image-keyboard-response,305,1038661,learnblock1,555,img/planet13_left.png,13,Community 3,NA,TRUE,f,f,NA,NA,NA,2,6,"4,6,3,15,7,1,9,2,11,10,8,14,13,12,5"
14653,commdev-image-keyboard-response,306,1039918,learnblock1,null,img/planet14_right.png,14,Community 3,NA,FALSE,null,j,NA,NA,NA,2,6,"4,6,3,15,7,1,9,2,11,10,8,14,13,12,5"
14653,commdev-image-keyboard-response,307,1041175,learnblock1,980.8000000007451,img/planet2_right.png,2,Community 2,NA,TRUE,j,j,NA,NA,NA,2,6,"4,6,3,15,7,1,9,2,11,10,8,14,13,12,5"
14653,commdev-image-keyboard-response,308,1042430,learnblock1,563.0999999977648,img/planet11_right.png,11,Community 2,NA,TRUE,j,j,NA,NA,NA,2,6,"4,6,3,15,7,1,9,2,11,10,8,14,13,12,5"
14653,commdev-image-keyboard-response,309,1043686,learnblock1,502.9000000022352,img/planet10_right.png,10,Community 2,NA,TRUE,j,j,NA,NA,NA,2,6,"4,6,3,15,7,1,9,2,11,10,8,14,13,12,5"
14653,commdev-image-keyboard-response,310,1044939,learnblock1,385.79999999701977,img/planet11_right.png,11,Community 2,NA,TRUE,j,j,NA,NA,NA,2,6,"4,6,3,15,7,1,9,2,11,10,8,14,13,12,5"
14653,commdev-image-keyboard-response,311,1046196,learnblock1,531.3000000007451,img/planet9_left.png,9,Community 2,NA,TRUE,f,f,NA,NA,NA,2,6,"4,6,3,15,7,1,9,2,11,10,8,14,13,12,5"
14653,commdev-image-keyboard-response,312,1047453,learnblock1,475.30000000074506,img/planet11_right.png,11,Community 2,NA,TRUE,j,j,NA,NA,NA,2,6,"4,6,3,15,7,1,9,2,11,10,8,14,13,12,5"
14653,commdev-image-keyboard-response,313,1048710,learnblock1,408.6000000014901,img/planet10_left.png,10,Community 2,NA,TRUE,f,f,NA,NA,NA,2,6,"4,6,3,15,7,1,9,2,11,10,8,14,13,12,5"
14653,commdev-image-keyboard-response,314,1049963,learnblock1,808.4000000022352,img/planet11_left.png,11,Community 2,NA,TRUE,f,f,NA,NA,NA,2,6,"4,6,3,15,7,1,9,2,11,10,8,14,13,12,5"
14653,commdev-image-keyboard-response,315,1051219,learnblock1,860.7000000029802,img/planet9_left.png,9,Community 2,NA,TRUE,f,f,NA,NA,NA,2,6,"4,6,3,15,7,1,9,2,11,10,8,14,13,12,5"
14653,commdev-image-keyboard-response,316,1052472,learnblock1,675.8999999985099,img/planet1_left.png,1,Community 2,NA,TRUE,f,f,NA,NA,NA,2,6,"4,6,3,15,7,1,9,2,11,10,8,14,13,12,5"
14653,commdev-image-keyboard-response,317,1053726,learnblock1,675.1999999992549,img/planet15_right.png,15,Community 1,NA,TRUE,j,j,NA,NA,NA,2,6,"4,6,3,15,7,1,9,2,11,10,8,14,13,12,5"
14653,commdev-image-keyboard-response,318,1054981,learnblock1,819.3999999985099,img/planet6_right.png,6,Community 1,NA,TRUE,j,j,NA,NA,NA,2,6,"4,6,3,15,7,1,9,2,11,10,8,14,13,12,5"
14653,commdev-image-keyboard-response,319,1056238,learnblock1,709.8000000007451,img/planet7_right.png,7,Community 1,NA,TRUE,j,j,NA,NA,NA,2,6,"4,6,3,15,7,1,9,2,11,10,8,14,13,12,5"
14653,commdev-image-keyboard-response,320,1057493,learnblock1,523.5999999977648,img/planet6_left.png,6,Community 1,NA,TRUE,f,f,NA,NA,NA,2,6,"4,6,3,15,7,1,9,2,11,10,8,14,13,12,5"
14653,commdev-image-keyboard-response,321,1058750,learnblock1,617.0999999977648,img/planet7_left.png,7,Community 1,NA,TRUE,f,f,NA,NA,NA,2,6,"4,6,3,15,7,1,9,2,11,10,8,14,13,12,5"
14653,commdev-image-keyboard-response,322,1060007,learnblock1,566.1000000014901,img/planet4_right.png,4,Community 1,NA,TRUE,j,j,NA,NA,NA,2,6,"4,6,3,15,7,1,9,2,11,10,8,14,13,12,5"
14653,commdev-image-keyboard-response,323,1061261,learnblock1,476.1000000014901,img/planet7_right.png,7,Community 1,NA,TRUE,j,j,NA,NA,NA,2,6,"4,6,3,15,7,1,9,2,11,10,8,14,13,12,5"
14653,commdev-image-keyboard-response,324,1062515,learnblock1,652,img/planet6_left.png,6,Community 1,NA,TRUE,f,f,NA,NA,NA,2,6,"4,6,3,15,7,1,9,2,11,10,8,14,13,12,5"
14653,commdev-image-keyboard-response,325,1063772,learnblock1,541.6999999992549,img/planet3_right.png,3,Community 1,NA,TRUE,j,j,NA,NA,NA,2,6,"4,6,3,15,7,1,9,2,11,10,8,14,13,12,5"
14653,commdev-image-keyboard-response,326,1065029,learnblock1,724.3000000007451,img/planet6_left.png,6,Community 1,NA,TRUE,f,f,NA,NA,NA,2,6,"4,6,3,15,7,1,9,2,11,10,8,14,13,12,5"
14653,commdev-image-keyboard-response,327,1066287,learnblock1,622.8000000007451,img/planet15_right.png,15,Community 1,NA,FALSE,f,j,NA,NA,NA,2,6,"4,6,3,15,7,1,9,2,11,10,8,14,13,12,5"
14653,commdev-image-keyboard-response,328,1067543,learnblock1,633.5,img/planet1_right.png,1,Community 2,NA,TRUE,j,j,NA,NA,NA,2,6,"4,6,3,15,7,1,9,2,11,10,8,14,13,12,5"
14653,commdev-image-keyboard-response,329,1068800,learnblock1,630.5999999977648,img/planet15_right.png,15,Community 1,NA,TRUE,j,j,NA,NA,NA,2,6,"4,6,3,15,7,1,9,2,11,10,8,14,13,12,5"
14653,commdev-image-keyboard-response,330,1070052,learnblock1,531.1999999992549,img/planet6_right.png,6,Community 1,NA,TRUE,j,j,NA,NA,NA,2,6,"4,6,3,15,7,1,9,2,11,10,8,14,13,12,5"
14653,commdev-image-keyboard-response,331,1071309,learnblock1,657.6999999992549,img/planet3_left.png,3,Community 1,NA,TRUE,f,f,NA,NA,NA,2,6,"4,6,3,15,7,1,9,2,11,10,8,14,13,12,5"
14653,commdev-image-keyboard-response,332,1072564,learnblock1,577.1000000014901,img/planet6_right.png,6,Community 1,NA,FALSE,f,j,NA,NA,NA,2,6,"4,6,3,15,7,1,9,2,11,10,8,14,13,12,5"
14653,commdev-image-keyboard-response,333,1073821,learnblock1,633,img/planet7_left.png,7,Community 1,NA,TRUE,f,f,NA,NA,NA,2,6,"4,6,3,15,7,1,9,2,11,10,8,14,13,12,5"
14653,commdev-image-keyboard-response,334,1075076,learnblock1,459.9000000022352,img/planet4_right.png,4,Community 1,NA,TRUE,j,j,NA,NA,NA,2,6,"4,6,3,15,7,1,9,2,11,10,8,14,13,12,5"
14653,commdev-image-keyboard-response,335,1076330,learnblock1,760.6000000014901,img/planet7_right.png,7,Community 1,NA,TRUE,j,j,NA,NA,NA,2,6,"4,6,3,15,7,1,9,2,11,10,8,14,13,12,5"
14653,commdev-image-keyboard-response,336,1077587,learnblock1,643.8999999985099,img/planet6_left.png,6,Community 1,NA,TRUE,f,f,NA,NA,NA,2,6,"4,6,3,15,7,1,9,2,11,10,8,14,13,12,5"
14653,commdev-image-keyboard-response,337,1078841,learnblock1,888.6999999992549,img/planet15_left.png,15,Community 1,NA,TRUE,f,f,NA,NA,NA,2,6,"4,6,3,15,7,1,9,2,11,10,8,14,13,12,5"
14653,commdev-image-keyboard-response,338,1080095,learnblock1,739.3999999985099,img/planet1_right.png,1,Community 2,NA,TRUE,j,j,NA,NA,NA,2,6,"4,6,3,15,7,1,9,2,11,10,8,14,13,12,5"
14653,commdev-image-keyboard-response,339,1081347,learnblock1,740.5,img/planet15_left.png,15,Community 1,NA,TRUE,f,f,NA,NA,NA,2,6,"4,6,3,15,7,1,9,2,11,10,8,14,13,12,5"
14653,commdev-image-keyboard-response,340,1082603,learnblock1,865.8000000007451,img/planet1_left.png,1,Community 2,NA,TRUE,f,f,NA,NA,NA,2,6,"4,6,3,15,7,1,9,2,11,10,8,14,13,12,5"
14653,commdev-image-keyboard-response,341,1083860,learnblock1,713,img/planet10_right.png,10,Community 2,NA,TRUE,j,j,NA,NA,NA,2,6,"4,6,3,15,7,1,9,2,11,10,8,14,13,12,5"
14653,commdev-image-keyboard-response,342,1085112,learnblock1,562.4000000022352,img/planet1_left.png,1,Community 2,NA,TRUE,f,f,NA,NA,NA,2,6,"4,6,3,15,7,1,9,2,11,10,8,14,13,12,5"
14653,commdev-image-keyboard-response,343,1086369,learnblock1,816.8000000007451,img/planet9_left.png,9,Community 2,NA,TRUE,f,f,NA,NA,NA,2,6,"4,6,3,15,7,1,9,2,11,10,8,14,13,12,5"
14653,commdev-image-keyboard-response,344,1087626,learnblock1,671,img/planet10_right.png,10,Community 2,NA,TRUE,j,j,NA,NA,NA,2,6,"4,6,3,15,7,1,9,2,11,10,8,14,13,12,5"
14653,commdev-image-keyboard-response,345,1088883,learnblock1,627.6999999992549,img/planet11_right.png,11,Community 2,NA,TRUE,j,j,NA,NA,NA,2,6,"4,6,3,15,7,1,9,2,11,10,8,14,13,12,5"
14653,commdev-image-keyboard-response,346,1090138,learnblock1,736.5,img/planet9_right.png,9,Community 2,NA,TRUE,j,j,NA,NA,NA,2,6,"4,6,3,15,7,1,9,2,11,10,8,14,13,12,5"
14653,commdev-image-keyboard-response,347,1091395,learnblock1,605.7999999970198,img/planet1_left.png,1,Community 2,NA,TRUE,f,f,NA,NA,NA,2,6,"4,6,3,15,7,1,9,2,11,10,8,14,13,12,5"
14653,commdev-image-keyboard-response,348,1092652,learnblock1,573.1000000014901,img/planet11_right.png,11,Community 2,NA,TRUE,j,j,NA,NA,NA,2,6,"4,6,3,15,7,1,9,2,11,10,8,14,13,12,5"
14653,commdev-image-keyboard-response,349,1093909,learnblock1,606,img/planet10_right.png,10,Community 2,NA,TRUE,j,j,NA,NA,NA,2,6,"4,6,3,15,7,1,9,2,11,10,8,14,13,12,5"
14653,commdev-image-keyboard-response,350,1095163,learnblock1,644.8000000007451,img/planet2_left.png,2,Community 2,NA,TRUE,f,f,NA,NA,NA,2,6,"4,6,3,15,7,1,9,2,11,10,8,14,13,12,5"
14653,commdev-image-keyboard-response,351,1096420,learnblock1,955.3000000007451,img/planet11_right.png,11,Community 2,NA,TRUE,j,j,NA,NA,NA,2,6,"4,6,3,15,7,1,9,2,11,10,8,14,13,12,5"
14653,commdev-image-keyboard-response,352,1097675,learnblock1,683.5,img/planet10_left.png,10,Community 2,NA,TRUE,f,f,NA,NA,NA,2,6,"4,6,3,15,7,1,9,2,11,10,8,14,13,12,5"
14653,commdev-image-keyboard-response,353,1098932,learnblock1,750.2000000029802,img/planet9_right.png,9,Community 2,NA,TRUE,j,j,NA,NA,NA,2,6,"4,6,3,15,7,1,9,2,11,10,8,14,13,12,5"
14653,commdev-image-keyboard-response,354,1100189,learnblock1,599.8999999985099,img/planet2_right.png,2,Community 2,NA,TRUE,j,j,NA,NA,NA,2,6,"4,6,3,15,7,1,9,2,11,10,8,14,13,12,5"
14653,commdev-image-keyboard-response,355,1101446,learnblock1,809.8999999985099,img/planet9_right.png,9,Community 2,NA,TRUE,j,j,NA,NA,NA,2,6,"4,6,3,15,7,1,9,2,11,10,8,14,13,12,5"
14653,commdev-image-keyboard-response,356,1102702,learnblock1,709.6000000014901,img/planet1_left.png,1,Community 2,NA,TRUE,f,f,NA,NA,NA,2,6,"4,6,3,15,7,1,9,2,11,10,8,14,13,12,5"
14653,commdev-image-keyboard-response,357,1103958,learnblock1,615.2999999970198,img/planet11_left.png,11,Community 2,NA,FALSE,j,f,NA,NA,NA,2,6,"4,6,3,15,7,1,9,2,11,10,8,14,13,12,5"
14653,commdev-image-keyboard-response,358,1105216,learnblock1,683.1999999992549,img/planet10_right.png,10,Community 2,NA,TRUE,j,j,NA,NA,NA,2,6,"4,6,3,15,7,1,9,2,11,10,8,14,13,12,5"
14653,commdev-image-keyboard-response,359,1106472,learnblock1,572.8000000007451,img/planet9_left.png,9,Community 2,NA,TRUE,f,f,NA,NA,NA,2,6,"4,6,3,15,7,1,9,2,11,10,8,14,13,12,5"
14653,commdev-image-keyboard-response,360,1107730,learnblock1,478.20000000298023,img/planet11_right.png,11,Community 2,NA,TRUE,j,j,NA,NA,NA,2,6,"4,6,3,15,7,1,9,2,11,10,8,14,13,12,5"
14653,commdev-image-keyboard-response,361,1108982,learnblock1,925.7000000029802,img/planet9_right.png,9,Community 2,NA,TRUE,j,j,NA,NA,NA,2,6,"4,6,3,15,7,1,9,2,11,10,8,14,13,12,5"
14653,commdev-image-keyboard-response,362,1110238,learnblock1,899.1000000014901,img/planet11_left.png,11,Community 2,NA,TRUE,f,f,NA,NA,NA,2,6,"4,6,3,15,7,1,9,2,11,10,8,14,13,12,5"
14653,commdev-image-keyboard-response,363,1111490,learnblock1,575.1000000014901,img/planet9_right.png,9,Community 2,NA,TRUE,j,j,NA,NA,NA,2,6,"4,6,3,15,7,1,9,2,11,10,8,14,13,12,5"
14653,commdev-image-keyboard-response,364,1112744,learnblock1,1080.5,img/planet11_left.png,11,Community 2,NA,TRUE,f,f,NA,NA,NA,2,6,"4,6,3,15,7,1,9,2,11,10,8,14,13,12,5"
14653,commdev-image-keyboard-response,365,1114001,learnblock1,778.5,img/planet2_right.png,2,Community 2,NA,TRUE,j,j,NA,NA,NA,2,6,"4,6,3,15,7,1,9,2,11,10,8,14,13,12,5"
14653,commdev-image-keyboard-response,366,1115257,learnblock1,695,img/planet10_left.png,10,Community 2,NA,TRUE,f,f,NA,NA,NA,2,6,"4,6,3,15,7,1,9,2,11,10,8,14,13,12,5"
14653,commdev-image-keyboard-response,367,1116511,learnblock1,658,img/planet11_left.png,11,Community 2,NA,TRUE,f,f,NA,NA,NA,2,6,"4,6,3,15,7,1,9,2,11,10,8,14,13,12,5"
14653,commdev-image-keyboard-response,368,1117769,learnblock1,608.1000000014901,img/planet9_right.png,9,Community 2,NA,TRUE,j,j,NA,NA,NA,2,6,"4,6,3,15,7,1,9,2,11,10,8,14,13,12,5"
14653,commdev-image-keyboard-response,369,1119025,learnblock1,728.5999999977648,img/planet11_right.png,11,Community 2,NA,TRUE,j,j,NA,NA,NA,2,6,"4,6,3,15,7,1,9,2,11,10,8,14,13,12,5"
14653,commdev-image-keyboard-response,370,1120282,learnblock1,677.2000000029802,img/planet1_left.png,1,Community 2,NA,TRUE,f,f,NA,NA,NA,2,6,"4,6,3,15,7,1,9,2,11,10,8,14,13,12,5"
14653,commdev-image-keyboard-response,371,1121538,learnblock1,795.1999999992549,img/planet9_left.png,9,Community 2,NA,TRUE,f,f,NA,NA,NA,2,6,"4,6,3,15,7,1,9,2,11,10,8,14,13,12,5"
14653,commdev-image-keyboard-response,372,1122792,learnblock1,654,img/planet11_right.png,11,Community 2,NA,TRUE,j,j,NA,NA,NA,2,6,"4,6,3,15,7,1,9,2,11,10,8,14,13,12,5"
14653,commdev-image-keyboard-response,373,1124048,learnblock1,1058.5,img/planet1_right.png,1,Community 2,NA,TRUE,j,j,NA,NA,NA,2,6,"4,6,3,15,7,1,9,2,11,10,8,14,13,12,5"
14653,commdev-image-keyboard-response,374,1125305,learnblock1,670.2000000029802,img/planet10_left.png,10,Community 2,NA,TRUE,f,f,NA,NA,NA,2,6,"4,6,3,15,7,1,9,2,11,10,8,14,13,12,5"
14653,commdev-image-keyboard-response,375,1126559,learnblock1,866.6999999992549,img/planet11_right.png,11,Community 2,NA,TRUE,j,j,NA,NA,NA,2,6,"4,6,3,15,7,1,9,2,11,10,8,14,13,12,5"
14653,commdev-image-keyboard-response,376,1127817,learnblock1,524.6999999992549,img/planet10_right.png,10,Community 2,NA,FALSE,f,j,NA,NA,NA,2,6,"4,6,3,15,7,1,9,2,11,10,8,14,13,12,5"
14653,commdev-image-keyboard-response,377,1129073,learnblock1,903.5999999977648,img/planet9_left.png,9,Community 2,NA,TRUE,f,f,NA,NA,NA,2,6,"4,6,3,15,7,1,9,2,11,10,8,14,13,12,5"
14653,commdev-image-keyboard-response,378,1130327,learnblock1,524,img/planet1_right.png,1,Community 2,NA,TRUE,j,j,NA,NA,NA,2,6,"4,6,3,15,7,1,9,2,11,10,8,14,13,12,5"
14653,commdev-image-keyboard-response,379,1131584,learnblock1,502.19999999925494,img/planet15_left.png,15,Community 1,NA,TRUE,f,f,NA,NA,NA,2,6,"4,6,3,15,7,1,9,2,11,10,8,14,13,12,5"
14653,commdev-image-keyboard-response,380,1132841,learnblock1,710,img/planet4_left.png,4,Community 1,NA,TRUE,f,f,NA,NA,NA,2,6,"4,6,3,15,7,1,9,2,11,10,8,14,13,12,5"
14653,commdev-image-keyboard-response,381,1134094,learnblock1,595.8999999985099,img/planet15_right.png,15,Community 1,NA,TRUE,j,j,NA,NA,NA,2,6,"4,6,3,15,7,1,9,2,11,10,8,14,13,12,5"
14653,commdev-image-keyboard-response,382,1135349,learnblock1,617,img/planet1_right.png,1,Community 2,NA,TRUE,j,j,NA,NA,NA,2,6,"4,6,3,15,7,1,9,2,11,10,8,14,13,12,5"
14653,commdev-image-keyboard-response,383,1136602,learnblock1,858,img/planet15_right.png,15,Community 1,NA,TRUE,j,j,NA,NA,NA,2,6,"4,6,3,15,7,1,9,2,11,10,8,14,13,12,5"
14653,commdev-image-keyboard-response,384,1137856,learnblock1,578,img/planet1_left.png,1,Community 2,NA,FALSE,j,f,NA,NA,NA,2,6,"4,6,3,15,7,1,9,2,11,10,8,14,13,12,5"
14653,commdev-image-keyboard-response,385,1139113,learnblock1,771.1999999992549,img/planet9_left.png,9,Community 2,NA,TRUE,f,f,NA,NA,NA,2,6,"4,6,3,15,7,1,9,2,11,10,8,14,13,12,5"
14653,commdev-image-keyboard-response,386,1140370,learnblock1,590.1999999992549,img/planet10_left.png,10,Community 2,NA,TRUE,f,f,NA,NA,NA,2,6,"4,6,3,15,7,1,9,2,11,10,8,14,13,12,5"
14653,commdev-image-keyboard-response,387,1141627,learnblock1,619.3000000007451,img/planet1_right.png,1,Community 2,NA,TRUE,j,j,NA,NA,NA,2,6,"4,6,3,15,7,1,9,2,11,10,8,14,13,12,5"
14653,commdev-image-keyboard-response,388,1142884,learnblock1,652.5,img/planet10_right.png,10,Community 2,NA,TRUE,j,j,NA,NA,NA,2,6,"4,6,3,15,7,1,9,2,11,10,8,14,13,12,5"
14653,commdev-image-keyboard-response,389,1144137,learnblock1,684.7999999970198,img/planet1_left.png,1,Community 2,NA,TRUE,f,f,NA,NA,NA,2,6,"4,6,3,15,7,1,9,2,11,10,8,14,13,12,5"
14653,commdev-image-keyboard-response,390,1145395,learnblock1,612.4000000022352,img/planet15_right.png,15,Community 1,NA,TRUE,j,j,NA,NA,NA,2,6,"4,6,3,15,7,1,9,2,11,10,8,14,13,12,5"
14653,commdev-image-keyboard-response,391,1146652,learnblock1,558.1000000014901,img/planet4_left.png,4,Community 1,NA,TRUE,f,f,NA,NA,NA,2,6,"4,6,3,15,7,1,9,2,11,10,8,14,13,12,5"
14653,commdev-image-keyboard-response,392,1147908,learnblock1,530.0999999977648,img/planet15_right.png,15,Community 1,NA,TRUE,j,j,NA,NA,NA,2,6,"4,6,3,15,7,1,9,2,11,10,8,14,13,12,5"
14653,commdev-image-keyboard-response,393,1149162,learnblock1,740.5,img/planet1_right.png,1,Community 2,NA,TRUE,j,j,NA,NA,NA,2,6,"4,6,3,15,7,1,9,2,11,10,8,14,13,12,5"
14653,commdev-image-keyboard-response,394,1150419,learnblock1,553.0999999977648,img/planet9_left.png,9,Community 2,NA,TRUE,f,f,NA,NA,NA,2,6,"4,6,3,15,7,1,9,2,11,10,8,14,13,12,5"
14653,commdev-image-keyboard-response,395,1151676,learnblock1,496.5,img/planet10_right.png,10,Community 2,NA,TRUE,j,j,NA,NA,NA,2,6,"4,6,3,15,7,1,9,2,11,10,8,14,13,12,5"
14653,commdev-image-keyboard-response,396,1152931,learnblock1,559.3999999985099,img/planet1_right.png,1,Community 2,NA,TRUE,j,j,NA,NA,NA,2,6,"4,6,3,15,7,1,9,2,11,10,8,14,13,12,5"
14653,commdev-image-keyboard-response,397,1154185,learnblock1,534.5999999977648,img/planet10_left.png,10,Community 2,NA,TRUE,f,f,NA,NA,NA,2,6,"4,6,3,15,7,1,9,2,11,10,8,14,13,12,5"
14653,commdev-image-keyboard-response,398,1155441,learnblock1,789.6999999992549,img/planet11_left.png,11,Community 2,NA,TRUE,f,f,NA,NA,NA,2,6,"4,6,3,15,7,1,9,2,11,10,8,14,13,12,5"
14653,commdev-image-keyboard-response,399,1156699,learnblock1,527.1999999992549,img/planet2_left.png,2,Community 2,NA,TRUE,f,f,NA,NA,NA,2,6,"4,6,3,15,7,1,9,2,11,10,8,14,13,12,5"
14653,commdev-image-keyboard-response,400,1157956,learnblock1,645.1000000014901,img/planet11_right.png,11,Community 2,NA,TRUE,j,j,NA,NA,NA,2,6,"4,6,3,15,7,1,9,2,11,10,8,14,13,12,5"
14653,commdev-image-keyboard-response,401,1159212,learnblock1,587,img/planet9_right.png,9,Community 2,NA,TRUE,j,j,NA,NA,NA,2,6,"4,6,3,15,7,1,9,2,11,10,8,14,13,12,5"
14653,commdev-image-keyboard-response,402,1160469,learnblock1,479.69999999925494,img/planet11_left.png,11,Community 2,NA,TRUE,f,f,NA,NA,NA,2,6,"4,6,3,15,7,1,9,2,11,10,8,14,13,12,5"
14653,commdev-image-keyboard-response,403,1161722,learnblock1,463.5,img/planet2_right.png,2,Community 2,NA,TRUE,j,j,NA,NA,NA,2,6,"4,6,3,15,7,1,9,2,11,10,8,14,13,12,5"
14653,commdev-image-keyboard-response,404,1162979,learnblock1,516.8999999985099,img/planet10_right.png,10,Community 2,NA,TRUE,j,j,NA,NA,NA,2,6,"4,6,3,15,7,1,9,2,11,10,8,14,13,12,5"
14653,commdev-image-keyboard-response,405,1164236,learnblock1,488.19999999925494,img/planet2_right.png,2,Community 2,NA,TRUE,j,j,NA,NA,NA,2,6,"4,6,3,15,7,1,9,2,11,10,8,14,13,12,5"
14653,commdev-image-keyboard-response,406,1165492,learnblock1,623.5999999977648,img/planet11_left.png,11,Community 2,NA,FALSE,j,f,NA,NA,NA,2,6,"4,6,3,15,7,1,9,2,11,10,8,14,13,12,5"
14653,commdev-image-keyboard-response,407,1166744,learnblock1,793.1999999992549,img/planet10_right.png,10,Community 2,NA,TRUE,j,j,NA,NA,NA,2,6,"4,6,3,15,7,1,9,2,11,10,8,14,13,12,5"
14653,commdev-image-keyboard-response,408,1168001,learnblock1,549.5,img/planet2_right.png,2,Community 2,NA,TRUE,j,j,NA,NA,NA,2,6,"4,6,3,15,7,1,9,2,11,10,8,14,13,12,5"
14653,commdev-image-keyboard-response,409,1169257,learnblock1,598.8999999985099,img/planet11_left.png,11,Community 2,NA,TRUE,f,f,NA,NA,NA,2,6,"4,6,3,15,7,1,9,2,11,10,8,14,13,12,5"
14653,commdev-image-keyboard-response,410,1170514,learnblock1,790.6000000014901,img/planet9_left.png,9,Community 2,NA,TRUE,f,f,NA,NA,NA,2,6,"4,6,3,15,7,1,9,2,11,10,8,14,13,12,5"
14653,commdev-image-keyboard-response,411,1171770,learnblock1,659.2999999970198,img/planet2_left.png,2,Community 2,NA,TRUE,f,f,NA,NA,NA,2,6,"4,6,3,15,7,1,9,2,11,10,8,14,13,12,5"
14653,commdev-image-keyboard-response,412,1173027,learnblock1,498.19999999925494,img/planet10_left.png,10,Community 2,NA,TRUE,f,f,NA,NA,NA,2,6,"4,6,3,15,7,1,9,2,11,10,8,14,13,12,5"
14653,commdev-image-keyboard-response,413,1174282,learnblock1,566.0999999977648,img/planet1_left.png,1,Community 2,NA,TRUE,f,f,NA,NA,NA,2,6,"4,6,3,15,7,1,9,2,11,10,8,14,13,12,5"
14653,commdev-image-keyboard-response,414,1175535,learnblock1,725.1999999992549,img/planet15_right.png,15,Community 1,NA,TRUE,j,j,NA,NA,NA,2,6,"4,6,3,15,7,1,9,2,11,10,8,14,13,12,5"
14653,commdev-image-keyboard-response,415,1176790,learnblock1,806.1000000014901,img/planet4_left.png,4,Community 1,NA,TRUE,f,f,NA,NA,NA,2,6,"4,6,3,15,7,1,9,2,11,10,8,14,13,12,5"
14653,commdev-image-keyboard-response,416,1178044,learnblock1,893.3999999985099,img/planet6_right.png,6,Community 1,NA,TRUE,j,j,NA,NA,NA,2,6,"4,6,3,15,7,1,9,2,11,10,8,14,13,12,5"
14653,commdev-image-keyboard-response,417,1179299,learnblock1,669.9000000022352,img/planet4_left.png,4,Community 1,NA,TRUE,f,f,NA,NA,NA,2,6,"4,6,3,15,7,1,9,2,11,10,8,14,13,12,5"
14653,commdev-image-keyboard-response,418,1180557,learnblock1,757.8999999985099,img/planet3_left.png,3,Community 1,NA,TRUE,f,f,NA,NA,NA,2,6,"4,6,3,15,7,1,9,2,11,10,8,14,13,12,5"
14653,commdev-image-keyboard-response,419,1181812,learnblock1,583.5,img/planet15_right.png,15,Community 1,NA,TRUE,j,j,NA,NA,NA,2,6,"4,6,3,15,7,1,9,2,11,10,8,14,13,12,5"
14653,commdev-image-keyboard-response,420,1183064,learnblock1,729.8999999985099,img/planet6_left.png,6,Community 1,NA,TRUE,f,f,NA,NA,NA,2,6,"4,6,3,15,7,1,9,2,11,10,8,14,13,12,5"
14653,commdev-image-keyboard-response,421,1184321,learnblock1,682,img/planet3_left.png,3,Community 1,NA,TRUE,f,f,NA,NA,NA,2,6,"4,6,3,15,7,1,9,2,11,10,8,14,13,12,5"
14653,commdev-image-keyboard-response,422,1185578,learnblock1,597.8999999985099,img/planet6_left.png,6,Community 1,NA,TRUE,f,f,NA,NA,NA,2,6,"4,6,3,15,7,1,9,2,11,10,8,14,13,12,5"
14653,commdev-image-keyboard-response,423,1186832,learnblock1,681.8999999985099,img/planet7_right.png,7,Community 1,NA,TRUE,j,j,NA,NA,NA,2,6,"4,6,3,15,7,1,9,2,11,10,8,14,13,12,5"
14653,commdev-image-keyboard-response,424,1188089,learnblock1,827.4000000022352,img/planet8_left.png,8,Community 3,NA,TRUE,f,f,NA,NA,NA,2,6,"4,6,3,15,7,1,9,2,11,10,8,14,13,12,5"
14653,commdev-image-keyboard-response,425,1189345,learnblock1,722.8000000007451,img/planet7_right.png,7,Community 1,NA,TRUE,j,j,NA,NA,NA,2,6,"4,6,3,15,7,1,9,2,11,10,8,14,13,12,5"
14653,commdev-image-keyboard-response,426,1190602,learnblock1,779.8999999985099,img/planet8_right.png,8,Community 3,NA,TRUE,j,j,NA,NA,NA,2,6,"4,6,3,15,7,1,9,2,11,10,8,14,13,12,5"
14653,commdev-image-keyboard-response,427,1191859,learnblock1,645.8000000007451,img/planet5_left.png,5,Community 3,NA,TRUE,f,f,NA,NA,NA,2,6,"4,6,3,15,7,1,9,2,11,10,8,14,13,12,5"
14653,commdev-image-keyboard-response,428,1193112,learnblock1,805.7999999970198,img/planet14_left.png,14,Community 3,NA,TRUE,f,f,NA,NA,NA,2,6,"4,6,3,15,7,1,9,2,11,10,8,14,13,12,5"
14653,commdev-image-keyboard-response,429,1194366,learnblock1,570.9000000022352,img/planet13_left.png,13,Community 3,NA,TRUE,f,f,NA,NA,NA,2,6,"4,6,3,15,7,1,9,2,11,10,8,14,13,12,5"
14653,commdev-image-keyboard-response,430,1195623,learnblock1,706.8000000007451,img/planet12_left.png,12,Community 3,NA,TRUE,f,f,NA,NA,NA,2,6,"4,6,3,15,7,1,9,2,11,10,8,14,13,12,5"
14653,commdev-image-keyboard-response,431,1196880,learnblock1,885.6000000014901,img/planet5_right.png,5,Community 3,NA,TRUE,j,j,NA,NA,NA,2,6,"4,6,3,15,7,1,9,2,11,10,8,14,13,12,5"
14653,commdev-image-keyboard-response,432,1198138,learnblock1,null,img/planet14_right.png,14,Community 3,NA,FALSE,null,j,NA,NA,NA,2,6,"4,6,3,15,7,1,9,2,11,10,8,14,13,12,5"
14653,commdev-image-keyboard-response,433,1199394,learnblock1,209.30000000074506,img/planet12_left.png,12,Community 3,NA,FALSE,j,f,NA,NA,NA,2,6,"4,6,3,15,7,1,9,2,11,10,8,14,13,12,5"
14653,commdev-image-keyboard-response,434,1200651,learnblock1,509.5,img/planet8_right.png,8,Community 3,NA,TRUE,j,j,NA,NA,NA,2,6,"4,6,3,15,7,1,9,2,11,10,8,14,13,12,5"
14653,commdev-image-keyboard-response,435,1201908,learnblock1,437.29999999701977,img/planet5_right.png,5,Community 3,NA,FALSE,f,j,NA,NA,NA,2,6,"4,6,3,15,7,1,9,2,11,10,8,14,13,12,5"
14653,commdev-image-keyboard-response,436,1203160,learnblock1,869.3999999985099,img/planet12_right.png,12,Community 3,NA,TRUE,j,j,NA,NA,NA,2,6,"4,6,3,15,7,1,9,2,11,10,8,14,13,12,5"
14653,commdev-image-keyboard-response,437,1204418,learnblock1,702.5,img/planet5_left.png,5,Community 3,NA,TRUE,f,f,NA,NA,NA,2,6,"4,6,3,15,7,1,9,2,11,10,8,14,13,12,5"
14653,commdev-image-keyboard-response,438,1205675,learnblock1,521.3999999985099,img/planet12_right.png,12,Community 3,NA,TRUE,j,j,NA,NA,NA,2,6,"4,6,3,15,7,1,9,2,11,10,8,14,13,12,5"
14653,commdev-image-keyboard-response,439,1206928,learnblock1,756.7000000029802,img/planet8_right.png,8,Community 3,NA,TRUE,j,j,NA,NA,NA,2,6,"4,6,3,15,7,1,9,2,11,10,8,14,13,12,5"
14653,commdev-image-keyboard-response,440,1208186,learnblock1,828.6999999992549,img/planet13_right.png,13,Community 3,NA,TRUE,j,j,NA,NA,NA,2,6,"4,6,3,15,7,1,9,2,11,10,8,14,13,12,5"
14653,commdev-image-keyboard-response,441,1209442,learnblock1,637.8999999985099,img/planet12_left.png,12,Community 3,NA,TRUE,f,f,NA,NA,NA,2,6,"4,6,3,15,7,1,9,2,11,10,8,14,13,12,5"
14653,commdev-image-keyboard-response,442,1210695,learnblock1,888.3999999985099,img/planet5_left.png,5,Community 3,NA,TRUE,f,f,NA,NA,NA,2,6,"4,6,3,15,7,1,9,2,11,10,8,14,13,12,5"
14653,commdev-image-keyboard-response,443,1211953,learnblock1,665.3999999985099,img/planet13_right.png,13,Community 3,NA,TRUE,j,j,NA,NA,NA,2,6,"4,6,3,15,7,1,9,2,11,10,8,14,13,12,5"
14653,commdev-image-keyboard-response,444,1213205,learnblock1,859.6000000014901,img/planet12_right.png,12,Community 3,NA,TRUE,j,j,NA,NA,NA,2,6,"4,6,3,15,7,1,9,2,11,10,8,14,13,12,5"
14653,commdev-image-keyboard-response,445,1214462,learnblock1,553,img/planet5_left.png,5,Community 3,NA,TRUE,f,f,NA,NA,NA,2,6,"4,6,3,15,7,1,9,2,11,10,8,14,13,12,5"
14653,commdev-image-keyboard-response,446,1215714,learnblock1,1074.6000000014901,img/planet13_left.png,13,Community 3,NA,TRUE,f,f,NA,NA,NA,2,6,"4,6,3,15,7,1,9,2,11,10,8,14,13,12,5"
14653,commdev-image-keyboard-response,447,1216972,learnblock1,922.1000000014901,img/planet12_right.png,12,Community 3,NA,TRUE,j,j,NA,NA,NA,2,6,"4,6,3,15,7,1,9,2,11,10,8,14,13,12,5"
14653,commdev-image-keyboard-response,448,1218229,learnblock1,561.4000000022352,img/planet14_left.png,14,Community 3,NA,TRUE,f,f,NA,NA,NA,2,6,"4,6,3,15,7,1,9,2,11,10,8,14,13,12,5"
14653,commdev-image-keyboard-response,449,1219486,learnblock1,496.8999999985099,img/planet13_left.png,13,Community 3,NA,FALSE,j,f,NA,NA,NA,2,6,"4,6,3,15,7,1,9,2,11,10,8,14,13,12,5"
14653,commdev-image-keyboard-response,453,1982917,learnblock2,null,img/planet9_left.png,9,Community 2,NA,FALSE,null,f,NA,NA,NA,2,6,"4,6,3,15,7,1,9,2,11,10,8,14,13,12,5"
14653,commdev-image-keyboard-response,454,1984175,learnblock2,296,img/planet2_left.png,2,Community 2,NA,TRUE,f,f,NA,NA,NA,2,6,"4,6,3,15,7,1,9,2,11,10,8,14,13,12,5"
14653,commdev-image-keyboard-response,455,1985429,learnblock2,813.3999999985099,img/planet9_right.png,9,Community 2,NA,TRUE,j,j,NA,NA,NA,2,6,"4,6,3,15,7,1,9,2,11,10,8,14,13,12,5"
14653,commdev-image-keyboard-response,456,1986683,learnblock2,782.7000000029802,img/planet1_left.png,1,Community 2,NA,TRUE,f,f,NA,NA,NA,2,6,"4,6,3,15,7,1,9,2,11,10,8,14,13,12,5"
14653,commdev-image-keyboard-response,457,1987941,learnblock2,609.3000000007451,img/planet9_left.png,9,Community 2,NA,TRUE,f,f,NA,NA,NA,2,6,"4,6,3,15,7,1,9,2,11,10,8,14,13,12,5"
14653,commdev-image-keyboard-response,458,1989195,learnblock2,423.30000000074506,img/planet11_right.png,11,Community 2,NA,TRUE,j,j,NA,NA,NA,2,6,"4,6,3,15,7,1,9,2,11,10,8,14,13,12,5"
14653,commdev-image-keyboard-response,459,1990450,learnblock2,413.5999999977648,img/planet1_left.png,1,Community 2,NA,TRUE,f,f,NA,NA,NA,2,6,"4,6,3,15,7,1,9,2,11,10,8,14,13,12,5"
14653,commdev-image-keyboard-response,460,1991705,learnblock2,471.0999999977648,img/planet10_left.png,10,Community 2,NA,TRUE,f,f,NA,NA,NA,2,6,"4,6,3,15,7,1,9,2,11,10,8,14,13,12,5"
14653,commdev-image-keyboard-response,461,1992963,learnblock2,434.80000000074506,img/planet2_right.png,2,Community 2,NA,TRUE,j,j,NA,NA,NA,2,6,"4,6,3,15,7,1,9,2,11,10,8,14,13,12,5"
14653,commdev-image-keyboard-response,462,1994221,learnblock2,463.79999999701977,img/planet10_right.png,10,Community 2,NA,TRUE,j,j,NA,NA,NA,2,6,"4,6,3,15,7,1,9,2,11,10,8,14,13,12,5"
14653,commdev-image-keyboard-response,463,1995478,learnblock2,415.19999999925494,img/planet1_right.png,1,Community 2,NA,TRUE,j,j,NA,NA,NA,2,6,"4,6,3,15,7,1,9,2,11,10,8,14,13,12,5"
14653,commdev-image-keyboard-response,464,1996733,learnblock2,376.80000000074506,img/planet10_left.png,10,Community 2,NA,TRUE,f,f,NA,NA,NA,2,6,"4,6,3,15,7,1,9,2,11,10,8,14,13,12,5"
14653,commdev-image-keyboard-response,465,1997990,learnblock2,403.69999999925494,img/planet1_right.png,1,Community 2,NA,TRUE,j,j,NA,NA,NA,2,6,"4,6,3,15,7,1,9,2,11,10,8,14,13,12,5"
14653,commdev-image-keyboard-response,466,1999243,learnblock2,399.0999999977648,img/planet10_left.png,10,Community 2,NA,TRUE,f,f,NA,NA,NA,2,6,"4,6,3,15,7,1,9,2,11,10,8,14,13,12,5"
14653,commdev-image-keyboard-response,467,2000500,learnblock2,405.5,img/planet9_right.png,9,Community 2,NA,TRUE,j,j,NA,NA,NA,2,6,"4,6,3,15,7,1,9,2,11,10,8,14,13,12,5"
14653,commdev-image-keyboard-response,468,2001756,learnblock2,442.69999999925494,img/planet2_left.png,2,Community 2,NA,TRUE,f,f,NA,NA,NA,2,6,"4,6,3,15,7,1,9,2,11,10,8,14,13,12,5"
14653,commdev-image-keyboard-response,469,2003009,learnblock2,378.80000000074506,img/planet10_right.png,10,Community 2,NA,TRUE,j,j,NA,NA,NA,2,6,"4,6,3,15,7,1,9,2,11,10,8,14,13,12,5"
14653,commdev-image-keyboard-response,470,2004266,learnblock2,470.19999999925494,img/planet11_left.png,11,Community 2,NA,FALSE,j,f,NA,NA,NA,2,6,"4,6,3,15,7,1,9,2,11,10,8,14,13,12,5"
14653,commdev-image-keyboard-response,471,2005523,learnblock2,536,img/planet1_left.png,1,Community 2,NA,TRUE,f,f,NA,NA,NA,2,6,"4,6,3,15,7,1,9,2,11,10,8,14,13,12,5"
14653,commdev-image-keyboard-response,472,2006777,learnblock2,476.80000000074506,img/planet9_left.png,9,Community 2,NA,TRUE,f,f,NA,NA,NA,2,6,"4,6,3,15,7,1,9,2,11,10,8,14,13,12,5"
14653,commdev-image-keyboard-response,473,2008031,learnblock2,418.19999999925494,img/planet11_right.png,11,Community 2,NA,TRUE,j,j,NA,NA,NA,2,6,"4,6,3,15,7,1,9,2,11,10,8,14,13,12,5"
14653,commdev-image-keyboard-response,474,2009288,learnblock2,548.0999999977648,img/planet2_right.png,2,Community 2,NA,TRUE,j,j,NA,NA,NA,2,6,"4,6,3,15,7,1,9,2,11,10,8,14,13,12,5"
14653,commdev-image-keyboard-response,475,2010546,learnblock2,443.69999999925494,img/planet9_right.png,9,Community 2,NA,TRUE,j,j,NA,NA,NA,2,6,"4,6,3,15,7,1,9,2,11,10,8,14,13,12,5"
14653,commdev-image-keyboard-response,476,2011800,learnblock2,399.3999999985099,img/planet10_right.png,10,Community 2,NA,TRUE,j,j,NA,NA,NA,2,6,"4,6,3,15,7,1,9,2,11,10,8,14,13,12,5"
14653,commdev-image-keyboard-response,477,2013057,learnblock2,423.30000000074506,img/planet1_right.png,1,Community 2,NA,TRUE,j,j,NA,NA,NA,2,6,"4,6,3,15,7,1,9,2,11,10,8,14,13,12,5"
14653,commdev-image-keyboard-response,478,2014314,learnblock2,453.5,img/planet9_right.png,9,Community 2,NA,TRUE,j,j,NA,NA,NA,2,6,"4,6,3,15,7,1,9,2,11,10,8,14,13,12,5"
14653,commdev-image-keyboard-response,479,2015571,learnblock2,534,img/planet10_left.png,10,Community 2,NA,TRUE,f,f,NA,NA,NA,2,6,"4,6,3,15,7,1,9,2,11,10,8,14,13,12,5"
14653,commdev-image-keyboard-response,480,2016824,learnblock2,396.30000000074506,img/planet1_left.png,1,Community 2,NA,TRUE,f,f,NA,NA,NA,2,6,"4,6,3,15,7,1,9,2,11,10,8,14,13,12,5"
14653,commdev-image-keyboard-response,481,2018080,learnblock2,438.5,img/planet9_right.png,9,Community 2,NA,TRUE,j,j,NA,NA,NA,2,6,"4,6,3,15,7,1,9,2,11,10,8,14,13,12,5"
14653,commdev-image-keyboard-response,482,2019337,learnblock2,503,img/planet2_right.png,2,Community 2,NA,FALSE,f,j,NA,NA,NA,2,6,"4,6,3,15,7,1,9,2,11,10,8,14,13,12,5"
14653,commdev-image-keyboard-response,483,2020593,learnblock2,533.8000000007451,img/planet10_right.png,10,Community 2,NA,TRUE,j,j,NA,NA,NA,2,6,"4,6,3,15,7,1,9,2,11,10,8,14,13,12,5"
14653,commdev-image-keyboard-response,484,2021847,learnblock2,581.5999999977648,img/planet1_left.png,1,Community 2,NA,TRUE,f,f,NA,NA,NA,2,6,"4,6,3,15,7,1,9,2,11,10,8,14,13,12,5"
14653,commdev-image-keyboard-response,485,2023104,learnblock2,556.1999999992549,img/planet11_right.png,11,Community 2,NA,TRUE,j,j,NA,NA,NA,2,6,"4,6,3,15,7,1,9,2,11,10,8,14,13,12,5"
14653,commdev-image-keyboard-response,486,2024358,learnblock2,572.8000000007451,img/planet2_left.png,2,Community 2,NA,TRUE,f,f,NA,NA,NA,2,6,"4,6,3,15,7,1,9,2,11,10,8,14,13,12,5"
14653,commdev-image-keyboard-response,487,2025611,learnblock2,740,img/planet14_right.png,14,Community 3,NA,TRUE,j,j,NA,NA,NA,2,6,"4,6,3,15,7,1,9,2,11,10,8,14,13,12,5"
14653,commdev-image-keyboard-response,488,2026869,learnblock2,534.6000000014901,img/planet12_left.png,12,Community 3,NA,TRUE,f,f,NA,NA,NA,2,6,"4,6,3,15,7,1,9,2,11,10,8,14,13,12,5"
14653,commdev-image-keyboard-response,489,2028123,learnblock2,425,img/planet14_right.png,14,Community 3,NA,TRUE,j,j,NA,NA,NA,2,6,"4,6,3,15,7,1,9,2,11,10,8,14,13,12,5"
14653,commdev-image-keyboard-response,490,2029380,learnblock2,615.5999999977648,img/planet5_right.png,5,Community 3,NA,TRUE,j,j,NA,NA,NA,2,6,"4,6,3,15,7,1,9,2,11,10,8,14,13,12,5"
14653,commdev-image-keyboard-response,491,2030637,learnblock2,569.8000000007451,img/planet8_right.png,8,Community 3,NA,TRUE,j,j,NA,NA,NA,2,6,"4,6,3,15,7,1,9,2,11,10,8,14,13,12,5"
14653,commdev-image-keyboard-response,492,2031891,learnblock2,514.2000000029802,img/planet7_left.png,7,Community 1,NA,TRUE,f,f,NA,NA,NA,2,6,"4,6,3,15,7,1,9,2,11,10,8,14,13,12,5"
14653,commdev-image-keyboard-response,493,2033144,learnblock2,474,img/planet6_right.png,6,Community 1,NA,TRUE,j,j,NA,NA,NA,2,6,"4,6,3,15,7,1,9,2,11,10,8,14,13,12,5"
14653,commdev-image-keyboard-response,494,2034402,learnblock2,448.1000000014901,img/planet15_left.png,15,Community 1,NA,TRUE,f,f,NA,NA,NA,2,6,"4,6,3,15,7,1,9,2,11,10,8,14,13,12,5"
14653,commdev-image-keyboard-response,495,2035658,learnblock2,486.3999999985099,img/planet3_right.png,3,Community 1,NA,TRUE,j,j,NA,NA,NA,2,6,"4,6,3,15,7,1,9,2,11,10,8,14,13,12,5"
14653,commdev-image-keyboard-response,496,2036911,learnblock2,499.69999999925494,img/planet7_right.png,7,Community 1,NA,TRUE,j,j,NA,NA,NA,2,6,"4,6,3,15,7,1,9,2,11,10,8,14,13,12,5"
14653,commdev-image-keyboard-response,497,2038165,learnblock2,590.5,img/planet6_right.png,6,Community 1,NA,TRUE,j,j,NA,NA,NA,2,6,"4,6,3,15,7,1,9,2,11,10,8,14,13,12,5"
14653,commdev-image-keyboard-response,498,2039422,learnblock2,512.1000000014901,img/planet7_left.png,7,Community 1,NA,TRUE,f,f,NA,NA,NA,2,6,"4,6,3,15,7,1,9,2,11,10,8,14,13,12,5"
14653,commdev-image-keyboard-response,499,2040679,learnblock2,528.9000000022352,img/planet4_left.png,4,Community 1,NA,TRUE,f,f,NA,NA,NA,2,6,"4,6,3,15,7,1,9,2,11,10,8,14,13,12,5"
14653,commdev-image-keyboard-response,500,2041933,learnblock2,573.6000000014901,img/planet15_left.png,15,Community 1,NA,TRUE,f,f,NA,NA,NA,2,6,"4,6,3,15,7,1,9,2,11,10,8,14,13,12,5"
14653,commdev-image-keyboard-response,501,2043187,learnblock2,467.6000000014901,img/planet3_right.png,3,Community 1,NA,TRUE,j,j,NA,NA,NA,2,6,"4,6,3,15,7,1,9,2,11,10,8,14,13,12,5"
14653,commdev-image-keyboard-response,502,2044445,learnblock2,449,img/planet6_right.png,6,Community 1,NA,TRUE,j,j,NA,NA,NA,2,6,"4,6,3,15,7,1,9,2,11,10,8,14,13,12,5"
14653,commdev-image-keyboard-response,503,2045702,learnblock2,680.0999999977648,img/planet7_right.png,7,Community 1,NA,TRUE,j,j,NA,NA,NA,2,6,"4,6,3,15,7,1,9,2,11,10,8,14,13,12,5"
14653,commdev-image-keyboard-response,504,2046954,learnblock2,719.8000000007451,img/planet4_right.png,4,Community 1,NA,TRUE,j,j,NA,NA,NA,2,6,"4,6,3,15,7,1,9,2,11,10,8,14,13,12,5"
14653,commdev-image-keyboard-response,505,2048211,learnblock2,501.30000000074506,img/planet7_right.png,7,Community 1,NA,TRUE,j,j,NA,NA,NA,2,6,"4,6,3,15,7,1,9,2,11,10,8,14,13,12,5"
14653,commdev-image-keyboard-response,506,2049468,learnblock2,524.8000000007451,img/planet6_left.png,6,Community 1,NA,TRUE,f,f,NA,NA,NA,2,6,"4,6,3,15,7,1,9,2,11,10,8,14,13,12,5"
14653,commdev-image-keyboard-response,507,2050725,learnblock2,536.8000000007451,img/planet15_right.png,15,Community 1,NA,TRUE,j,j,NA,NA,NA,2,6,"4,6,3,15,7,1,9,2,11,10,8,14,13,12,5"
14653,commdev-image-keyboard-response,508,2051982,learnblock2,444.0999999977648,img/planet4_left.png,4,Community 1,NA,TRUE,f,f,NA,NA,NA,2,6,"4,6,3,15,7,1,9,2,11,10,8,14,13,12,5"
14653,commdev-image-keyboard-response,509,2053236,learnblock2,454.5999999977648,img/planet6_right.png,6,Community 1,NA,TRUE,j,j,NA,NA,NA,2,6,"4,6,3,15,7,1,9,2,11,10,8,14,13,12,5"
14653,commdev-image-keyboard-response,510,2054489,learnblock2,434.9000000022352,img/planet7_left.png,7,Community 1,NA,TRUE,f,f,NA,NA,NA,2,6,"4,6,3,15,7,1,9,2,11,10,8,14,13,12,5"
14653,commdev-image-keyboard-response,511,2055743,learnblock2,519.3000000007451,img/planet3_left.png,3,Community 1,NA,TRUE,f,f,NA,NA,NA,2,6,"4,6,3,15,7,1,9,2,11,10,8,14,13,12,5"
14653,commdev-image-keyboard-response,512,2057000,learnblock2,449.1000000014901,img/planet4_right.png,4,Community 1,NA,TRUE,j,j,NA,NA,NA,2,6,"4,6,3,15,7,1,9,2,11,10,8,14,13,12,5"
14653,commdev-image-keyboard-response,513,2058253,learnblock2,556.3000000007451,img/planet15_right.png,15,Community 1,NA,TRUE,j,j,NA,NA,NA,2,6,"4,6,3,15,7,1,9,2,11,10,8,14,13,12,5"
14653,commdev-image-keyboard-response,514,2059510,learnblock2,470.69999999925494,img/planet4_right.png,4,Community 1,NA,TRUE,j,j,NA,NA,NA,2,6,"4,6,3,15,7,1,9,2,11,10,8,14,13,12,5"
14653,commdev-image-keyboard-response,515,2060766,learnblock2,433.79999999701977,img/planet3_right.png,3,Community 1,NA,FALSE,f,j,NA,NA,NA,2,6,"4,6,3,15,7,1,9,2,11,10,8,14,13,12,5"
14653,commdev-image-keyboard-response,516,2062024,learnblock2,457.5,img/planet6_left.png,6,Community 1,NA,TRUE,f,f,NA,NA,NA,2,6,"4,6,3,15,7,1,9,2,11,10,8,14,13,12,5"
14653,commdev-image-keyboard-response,517,2063277,learnblock2,448.1000000014901,img/planet3_right.png,3,Community 1,NA,TRUE,j,j,NA,NA,NA,2,6,"4,6,3,15,7,1,9,2,11,10,8,14,13,12,5"
14653,commdev-image-keyboard-response,518,2064534,learnblock2,399,img/planet15_right.png,15,Community 1,NA,TRUE,j,j,NA,NA,NA,2,6,"4,6,3,15,7,1,9,2,11,10,8,14,13,12,5"
14653,commdev-image-keyboard-response,519,2065791,learnblock2,553.6000000014901,img/planet6_right.png,6,Community 1,NA,TRUE,j,j,NA,NA,NA,2,6,"4,6,3,15,7,1,9,2,11,10,8,14,13,12,5"
14653,commdev-image-keyboard-response,520,2067048,learnblock2,441.5,img/planet4_left.png,4,Community 1,NA,FALSE,j,f,NA,NA,NA,2,6,"4,6,3,15,7,1,9,2,11,10,8,14,13,12,5"
14653,commdev-image-keyboard-response,521,2068304,learnblock2,433,img/planet3_right.png,3,Community 1,NA,TRUE,j,j,NA,NA,NA,2,6,"4,6,3,15,7,1,9,2,11,10,8,14,13,12,5"
14653,commdev-image-keyboard-response,522,2069561,learnblock2,490.30000000074506,img/planet7_right.png,7,Community 1,NA,TRUE,j,j,NA,NA,NA,2,6,"4,6,3,15,7,1,9,2,11,10,8,14,13,12,5"
14653,commdev-image-keyboard-response,523,2070816,learnblock2,505.69999999925494,img/planet3_left.png,3,Community 1,NA,TRUE,f,f,NA,NA,NA,2,6,"4,6,3,15,7,1,9,2,11,10,8,14,13,12,5"
14653,commdev-image-keyboard-response,524,2072073,learnblock2,447.5,img/planet15_left.png,15,Community 1,NA,TRUE,f,f,NA,NA,NA,2,6,"4,6,3,15,7,1,9,2,11,10,8,14,13,12,5"
14653,commdev-image-keyboard-response,525,2073326,learnblock2,425.8999999985099,img/planet6_right.png,6,Community 1,NA,TRUE,j,j,NA,NA,NA,2,6,"4,6,3,15,7,1,9,2,11,10,8,14,13,12,5"
14653,commdev-image-keyboard-response,526,2074583,learnblock2,485.19999999925494,img/planet15_left.png,15,Community 1,NA,TRUE,f,f,NA,NA,NA,2,6,"4,6,3,15,7,1,9,2,11,10,8,14,13,12,5"
14653,commdev-image-keyboard-response,527,2075841,learnblock2,530.2999999970198,img/planet3_right.png,3,Community 1,NA,TRUE,j,j,NA,NA,NA,2,6,"4,6,3,15,7,1,9,2,11,10,8,14,13,12,5"
14653,commdev-image-keyboard-response,528,2077098,learnblock2,423,img/planet4_right.png,4,Community 1,NA,TRUE,j,j,NA,NA,NA,2,6,"4,6,3,15,7,1,9,2,11,10,8,14,13,12,5"
14653,commdev-image-keyboard-response,529,2078354,learnblock2,527.8999999985099,img/planet6_right.png,6,Community 1,NA,TRUE,j,j,NA,NA,NA,2,6,"4,6,3,15,7,1,9,2,11,10,8,14,13,12,5"
14653,commdev-image-keyboard-response,530,2079607,learnblock2,564.6000000014901,img/planet15_left.png,15,Community 1,NA,TRUE,f,f,NA,NA,NA,2,6,"4,6,3,15,7,1,9,2,11,10,8,14,13,12,5"
14653,commdev-image-keyboard-response,531,2080864,learnblock2,443.79999999701977,img/planet1_right.png,1,Community 2,NA,TRUE,j,j,NA,NA,NA,2,6,"4,6,3,15,7,1,9,2,11,10,8,14,13,12,5"
14653,commdev-image-keyboard-response,532,2082121,learnblock2,461.30000000074506,img/planet11_right.png,11,Community 2,NA,TRUE,j,j,NA,NA,NA,2,6,"4,6,3,15,7,1,9,2,11,10,8,14,13,12,5"
14653,commdev-image-keyboard-response,533,2083374,learnblock2,475.69999999925494,img/planet10_right.png,10,Community 2,NA,FALSE,f,j,NA,NA,NA,2,6,"4,6,3,15,7,1,9,2,11,10,8,14,13,12,5"
14653,commdev-image-keyboard-response,534,2084632,learnblock2,479.20000000298023,img/planet2_left.png,2,Community 2,NA,TRUE,f,f,NA,NA,NA,2,6,"4,6,3,15,7,1,9,2,11,10,8,14,13,12,5"
14653,commdev-image-keyboard-response,535,2085890,learnblock2,540.3999999985099,img/planet11_left.png,11,Community 2,NA,TRUE,f,f,NA,NA,NA,2,6,"4,6,3,15,7,1,9,2,11,10,8,14,13,12,5"
14653,commdev-image-keyboard-response,536,2087147,learnblock2,463.8999999985099,img/planet10_left.png,10,Community 2,NA,TRUE,f,f,NA,NA,NA,2,6,"4,6,3,15,7,1,9,2,11,10,8,14,13,12,5"
14653,commdev-image-keyboard-response,537,2088401,learnblock2,381.20000000298023,img/planet11_right.png,11,Community 2,NA,TRUE,j,j,NA,NA,NA,2,6,"4,6,3,15,7,1,9,2,11,10,8,14,13,12,5"
14653,commdev-image-keyboard-response,538,2089657,learnblock2,573.2000000029802,img/planet10_right.png,10,Community 2,NA,TRUE,j,j,NA,NA,NA,2,6,"4,6,3,15,7,1,9,2,11,10,8,14,13,12,5"
14653,commdev-image-keyboard-response,539,2090915,learnblock2,438,img/planet2_left.png,2,Community 2,NA,TRUE,f,f,NA,NA,NA,2,6,"4,6,3,15,7,1,9,2,11,10,8,14,13,12,5"
14653,commdev-image-keyboard-response,540,2092172,learnblock2,464.70000000298023,img/planet10_right.png,10,Community 2,NA,TRUE,j,j,NA,NA,NA,2,6,"4,6,3,15,7,1,9,2,11,10,8,14,13,12,5"
14653,commdev-image-keyboard-response,541,2093429,learnblock2,399.70000000298023,img/planet2_right.png,2,Community 2,NA,TRUE,j,j,NA,NA,NA,2,6,"4,6,3,15,7,1,9,2,11,10,8,14,13,12,5"
14653,commdev-image-keyboard-response,542,2094687,learnblock2,503.19999999925494,img/planet11_right.png,11,Community 2,NA,TRUE,j,j,NA,NA,NA,2,6,"4,6,3,15,7,1,9,2,11,10,8,14,13,12,5"
14653,commdev-image-keyboard-response,543,2095942,learnblock2,448,img/planet2_right.png,2,Community 2,NA,TRUE,j,j,NA,NA,NA,2,6,"4,6,3,15,7,1,9,2,11,10,8,14,13,12,5"
14653,commdev-image-keyboard-response,544,2097199,learnblock2,399.80000000074506,img/planet14_right.png,14,Community 3,NA,TRUE,j,j,NA,NA,NA,2,6,"4,6,3,15,7,1,9,2,11,10,8,14,13,12,5"
14653,commdev-image-keyboard-response,545,2098455,learnblock2,493.8999999985099,img/planet13_right.png,13,Community 3,NA,TRUE,j,j,NA,NA,NA,2,6,"4,6,3,15,7,1,9,2,11,10,8,14,13,12,5"
14653,commdev-image-keyboard-response,546,2099709,learnblock2,517,img/planet12_left.png,12,Community 3,NA,TRUE,f,f,NA,NA,NA,2,6,"4,6,3,15,7,1,9,2,11,10,8,14,13,12,5"
14653,commdev-image-keyboard-response,547,2100963,learnblock2,626.6999999992549,img/planet8_left.png,8,Community 3,NA,TRUE,f,f,NA,NA,NA,2,6,"4,6,3,15,7,1,9,2,11,10,8,14,13,12,5"
14653,commdev-image-keyboard-response,548,2102221,learnblock2,485.30000000074506,img/planet5_right.png,5,Community 3,NA,TRUE,j,j,NA,NA,NA,2,6,"4,6,3,15,7,1,9,2,11,10,8,14,13,12,5"
14653,commdev-image-keyboard-response,549,2103477,learnblock2,562.2999999970198,img/planet8_right.png,8,Community 3,NA,TRUE,j,j,NA,NA,NA,2,6,"4,6,3,15,7,1,9,2,11,10,8,14,13,12,5"
14653,commdev-image-keyboard-response,550,2104734,learnblock2,609.1999999992549,img/planet13_left.png,13,Community 3,NA,TRUE,f,f,NA,NA,NA,2,6,"4,6,3,15,7,1,9,2,11,10,8,14,13,12,5"
14653,commdev-image-keyboard-response,551,2105991,learnblock2,557.8999999985099,img/planet14_right.png,14,Community 3,NA,TRUE,j,j,NA,NA,NA,2,6,"4,6,3,15,7,1,9,2,11,10,8,14,13,12,5"
14653,commdev-image-keyboard-response,552,2107248,learnblock2,620.3999999985099,img/planet5_left.png,5,Community 3,NA,TRUE,f,f,NA,NA,NA,2,6,"4,6,3,15,7,1,9,2,11,10,8,14,13,12,5"
14653,commdev-image-keyboard-response,553,2108501,learnblock2,590.2999999970198,img/planet8_left.png,8,Community 3,NA,TRUE,f,f,NA,NA,NA,2,6,"4,6,3,15,7,1,9,2,11,10,8,14,13,12,5"
14653,commdev-image-keyboard-response,554,2109755,learnblock2,564.7000000029802,img/planet5_right.png,5,Community 3,NA,TRUE,j,j,NA,NA,NA,2,6,"4,6,3,15,7,1,9,2,11,10,8,14,13,12,5"
14653,commdev-image-keyboard-response,555,2111011,learnblock2,724.3999999985099,img/planet13_left.png,13,Community 3,NA,TRUE,f,f,NA,NA,NA,2,6,"4,6,3,15,7,1,9,2,11,10,8,14,13,12,5"
14653,commdev-image-keyboard-response,556,2112265,learnblock2,544.1999999992549,img/planet12_left.png,12,Community 3,NA,TRUE,f,f,NA,NA,NA,2,6,"4,6,3,15,7,1,9,2,11,10,8,14,13,12,5"
14653,commdev-image-keyboard-response,557,2113522,learnblock2,489.3999999985099,img/planet8_right.png,8,Community 3,NA,TRUE,j,j,NA,NA,NA,2,6,"4,6,3,15,7,1,9,2,11,10,8,14,13,12,5"
14653,commdev-image-keyboard-response,558,2114779,learnblock2,439.30000000074506,img/planet5_left.png,5,Community 3,NA,FALSE,j,f,NA,NA,NA,2,6,"4,6,3,15,7,1,9,2,11,10,8,14,13,12,5"
14653,commdev-image-keyboard-response,559,2116033,learnblock2,411.5999999977648,img/planet12_right.png,12,Community 3,NA,TRUE,j,j,NA,NA,NA,2,6,"4,6,3,15,7,1,9,2,11,10,8,14,13,12,5"
14653,commdev-image-keyboard-response,560,2117290,learnblock2,498.20000000298023,img/planet8_right.png,8,Community 3,NA,TRUE,j,j,NA,NA,NA,2,6,"4,6,3,15,7,1,9,2,11,10,8,14,13,12,5"
14653,commdev-image-keyboard-response,561,2118543,learnblock2,426.6000000014901,img/planet7_left.png,7,Community 1,NA,TRUE,f,f,NA,NA,NA,2,6,"4,6,3,15,7,1,9,2,11,10,8,14,13,12,5"
14653,commdev-image-keyboard-response,562,2119800,learnblock2,453.6000000014901,img/planet8_right.png,8,Community 3,NA,TRUE,j,j,NA,NA,NA,2,6,"4,6,3,15,7,1,9,2,11,10,8,14,13,12,5"
14653,commdev-image-keyboard-response,563,2121057,learnblock2,448.69999999925494,img/planet12_left.png,12,Community 3,NA,TRUE,f,f,NA,NA,NA,2,6,"4,6,3,15,7,1,9,2,11,10,8,14,13,12,5"
14653,commdev-image-keyboard-response,564,2122313,learnblock2,552.4000000022352,img/planet8_left.png,8,Community 3,NA,TRUE,f,f,NA,NA,NA,2,6,"4,6,3,15,7,1,9,2,11,10,8,14,13,12,5"
14653,commdev-image-keyboard-response,565,2123570,learnblock2,404.8999999985099,img/planet7_right.png,7,Community 1,NA,TRUE,j,j,NA,NA,NA,2,6,"4,6,3,15,7,1,9,2,11,10,8,14,13,12,5"
14653,commdev-image-keyboard-response,566,2124827,learnblock2,465.5,img/planet8_right.png,8,Community 3,NA,TRUE,j,j,NA,NA,NA,2,6,"4,6,3,15,7,1,9,2,11,10,8,14,13,12,5"
14653,commdev-image-keyboard-response,567,2126083,learnblock2,397.5,img/planet7_left.png,7,Community 1,NA,TRUE,f,f,NA,NA,NA,2,6,"4,6,3,15,7,1,9,2,11,10,8,14,13,12,5"
14653,commdev-image-keyboard-response,568,2127337,learnblock2,389.80000000074506,img/planet4_right.png,4,Community 1,NA,TRUE,j,j,NA,NA,NA,2,6,"4,6,3,15,7,1,9,2,11,10,8,14,13,12,5"
14653,commdev-image-keyboard-response,569,2128594,learnblock2,447.1000000014901,img/planet6_right.png,6,Community 1,NA,TRUE,j,j,NA,NA,NA,2,6,"4,6,3,15,7,1,9,2,11,10,8,14,13,12,5"
14653,commdev-image-keyboard-response,570,2129852,learnblock2,491.8999999985099,img/planet7_left.png,7,Community 1,NA,FALSE,j,f,NA,NA,NA,2,6,"4,6,3,15,7,1,9,2,11,10,8,14,13,12,5"
14653,commdev-image-keyboard-response,571,2131108,learnblock2,654.8000000007451,img/planet4_left.png,4,Community 1,NA,TRUE,f,f,NA,NA,NA,2,6,"4,6,3,15,7,1,9,2,11,10,8,14,13,12,5"
14653,commdev-image-keyboard-response,572,2132363,learnblock2,582.6000000014901,img/planet15_right.png,15,Community 1,NA,TRUE,j,j,NA,NA,NA,2,6,"4,6,3,15,7,1,9,2,11,10,8,14,13,12,5"
14653,commdev-image-keyboard-response,573,2133617,learnblock2,432.69999999925494,img/planet4_left.png,4,Community 1,NA,TRUE,f,f,NA,NA,NA,2,6,"4,6,3,15,7,1,9,2,11,10,8,14,13,12,5"
14653,commdev-image-keyboard-response,574,2134875,learnblock2,578.1000000014901,img/planet3_left.png,3,Community 1,NA,TRUE,f,f,NA,NA,NA,2,6,"4,6,3,15,7,1,9,2,11,10,8,14,13,12,5"
14653,commdev-image-keyboard-response,575,2136132,learnblock2,537.2999999970198,img/planet4_left.png,4,Community 1,NA,TRUE,f,f,NA,NA,NA,2,6,"4,6,3,15,7,1,9,2,11,10,8,14,13,12,5"
14653,commdev-image-keyboard-response,576,2137390,learnblock2,595,img/planet7_left.png,7,Community 1,NA,TRUE,f,f,NA,NA,NA,2,6,"4,6,3,15,7,1,9,2,11,10,8,14,13,12,5"
14653,commdev-image-keyboard-response,577,2138643,learnblock2,567.5,img/planet8_right.png,8,Community 3,NA,TRUE,j,j,NA,NA,NA,2,6,"4,6,3,15,7,1,9,2,11,10,8,14,13,12,5"
14653,commdev-image-keyboard-response,578,2139897,learnblock2,483.5,img/planet5_right.png,5,Community 3,NA,TRUE,j,j,NA,NA,NA,2,6,"4,6,3,15,7,1,9,2,11,10,8,14,13,12,5"
14653,commdev-image-keyboard-response,579,2141153,learnblock2,486.69999999925494,img/planet14_right.png,14,Community 3,NA,TRUE,j,j,NA,NA,NA,2,6,"4,6,3,15,7,1,9,2,11,10,8,14,13,12,5"
14653,commdev-image-keyboard-response,580,2142410,learnblock2,534,img/planet12_left.png,12,Community 3,NA,FALSE,j,f,NA,NA,NA,2,6,"4,6,3,15,7,1,9,2,11,10,8,14,13,12,5"
14653,commdev-image-keyboard-response,581,2143668,learnblock2,579.1999999992549,img/planet14_left.png,14,Community 3,NA,TRUE,f,f,NA,NA,NA,2,6,"4,6,3,15,7,1,9,2,11,10,8,14,13,12,5"
14653,commdev-image-keyboard-response,582,2144925,learnblock2,481.80000000074506,img/planet12_left.png,12,Community 3,NA,TRUE,f,f,NA,NA,NA,2,6,"4,6,3,15,7,1,9,2,11,10,8,14,13,12,5"
14653,commdev-image-keyboard-response,583,2146182,learnblock2,633.1999999992549,img/planet13_right.png,13,Community 3,NA,TRUE,j,j,NA,NA,NA,2,6,"4,6,3,15,7,1,9,2,11,10,8,14,13,12,5"
14653,commdev-image-keyboard-response,584,2147439,learnblock2,519.1999999992549,img/planet14_left.png,14,Community 3,NA,FALSE,j,f,NA,NA,NA,2,6,"4,6,3,15,7,1,9,2,11,10,8,14,13,12,5"
14653,commdev-image-keyboard-response,585,2148693,learnblock2,445.5,img/planet13_right.png,13,Community 3,NA,TRUE,j,j,NA,NA,NA,2,6,"4,6,3,15,7,1,9,2,11,10,8,14,13,12,5"
14653,commdev-image-keyboard-response,586,2149950,learnblock2,498,img/planet8_left.png,8,Community 3,NA,TRUE,f,f,NA,NA,NA,2,6,"4,6,3,15,7,1,9,2,11,10,8,14,13,12,5"
14653,commdev-image-keyboard-response,587,2151205,learnblock2,565,img/planet12_left.png,12,Community 3,NA,TRUE,f,f,NA,NA,NA,2,6,"4,6,3,15,7,1,9,2,11,10,8,14,13,12,5"
14653,commdev-image-keyboard-response,588,2152462,learnblock2,660.5999999977648,img/planet13_left.png,13,Community 3,NA,TRUE,f,f,NA,NA,NA,2,6,"4,6,3,15,7,1,9,2,11,10,8,14,13,12,5"
14653,commdev-image-keyboard-response,589,2153716,learnblock2,525.0999999977648,img/planet14_left.png,14,Community 3,NA,TRUE,f,f,NA,NA,NA,2,6,"4,6,3,15,7,1,9,2,11,10,8,14,13,12,5"
14653,commdev-image-keyboard-response,590,2154974,learnblock2,330,img/planet13_left.png,13,Community 3,NA,TRUE,f,f,NA,NA,NA,2,6,"4,6,3,15,7,1,9,2,11,10,8,14,13,12,5"
14653,commdev-image-keyboard-response,591,2156231,learnblock2,381.30000000074506,img/planet12_left.png,12,Community 3,NA,TRUE,f,f,NA,NA,NA,2,6,"4,6,3,15,7,1,9,2,11,10,8,14,13,12,5"
14653,commdev-image-keyboard-response,592,2157485,learnblock2,510,img/planet8_right.png,8,Community 3,NA,TRUE,j,j,NA,NA,NA,2,6,"4,6,3,15,7,1,9,2,11,10,8,14,13,12,5"
14653,commdev-image-keyboard-response,593,2158740,learnblock2,492.5,img/planet7_left.png,7,Community 1,NA,TRUE,f,f,NA,NA,NA,2,6,"4,6,3,15,7,1,9,2,11,10,8,14,13,12,5"
14653,commdev-image-keyboard-response,594,2159998,learnblock2,423.6000000014901,img/planet4_right.png,4,Community 1,NA,TRUE,j,j,NA,NA,NA,2,6,"4,6,3,15,7,1,9,2,11,10,8,14,13,12,5"
14653,commdev-image-keyboard-response,595,2161253,learnblock2,612.2999999970198,img/planet15_right.png,15,Community 1,NA,TRUE,j,j,NA,NA,NA,2,6,"4,6,3,15,7,1,9,2,11,10,8,14,13,12,5"
14653,commdev-image-keyboard-response,596,2162510,learnblock2,499.20000000298023,img/planet4_left.png,4,Community 1,NA,TRUE,f,f,NA,NA,NA,2,6,"4,6,3,15,7,1,9,2,11,10,8,14,13,12,5"
14653,commdev-image-keyboard-response,597,2163763,learnblock2,726.1999999992549,img/planet6_right.png,6,Community 1,NA,TRUE,j,j,NA,NA,NA,2,6,"4,6,3,15,7,1,9,2,11,10,8,14,13,12,5"
14653,commdev-image-keyboard-response,598,2165020,learnblock2,610.1999999992549,img/planet3_left.png,3,Community 1,NA,TRUE,f,f,NA,NA,NA,2,6,"4,6,3,15,7,1,9,2,11,10,8,14,13,12,5"
14653,commdev-image-keyboard-response,599,2166277,learnblock2,1059,img/planet4_left.png,4,Community 1,NA,TRUE,f,f,NA,NA,NA,2,6,"4,6,3,15,7,1,9,2,11,10,8,14,13,12,5"
14653,commdev-image-keyboard-response,600,2167532,learnblock2,733.8999999985099,img/planet6_right.png,6,Community 1,NA,TRUE,j,j,NA,NA,NA,2,6,"4,6,3,15,7,1,9,2,11,10,8,14,13,12,5"
14653,commdev-image-keyboard-response,601,2168789,learnblock2,514.6000000014901,img/planet3_left.png,3,Community 1,NA,TRUE,f,f,NA,NA,NA,2,6,"4,6,3,15,7,1,9,2,11,10,8,14,13,12,5"
14653,commdev-image-keyboard-response,602,2170047,learnblock2,502.1000000014901,img/planet15_left.png,15,Community 1,NA,TRUE,f,f,NA,NA,NA,2,6,"4,6,3,15,7,1,9,2,11,10,8,14,13,12,5"
14653,commdev-image-keyboard-response,603,2171301,learnblock2,429.5,img/planet3_left.png,3,Community 1,NA,TRUE,f,f,NA,NA,NA,2,6,"4,6,3,15,7,1,9,2,11,10,8,14,13,12,5"
14653,commdev-image-keyboard-response,604,2172556,learnblock2,373,img/planet15_right.png,15,Community 1,NA,FALSE,f,j,NA,NA,NA,2,6,"4,6,3,15,7,1,9,2,11,10,8,14,13,12,5"
14653,commdev-image-keyboard-response,605,2173811,learnblock2,451.5,img/planet4_left.png,4,Community 1,NA,TRUE,f,f,NA,NA,NA,2,6,"4,6,3,15,7,1,9,2,11,10,8,14,13,12,5"
14653,commdev-image-keyboard-response,606,2175068,learnblock2,453.30000000074506,img/planet15_right.png,15,Community 1,NA,FALSE,f,j,NA,NA,NA,2,6,"4,6,3,15,7,1,9,2,11,10,8,14,13,12,5"
14653,commdev-image-keyboard-response,607,2176326,learnblock2,686.8000000007451,img/planet1_right.png,1,Community 2,NA,TRUE,j,j,NA,NA,NA,2,6,"4,6,3,15,7,1,9,2,11,10,8,14,13,12,5"
14653,commdev-image-keyboard-response,608,2177583,learnblock2,605,img/planet11_left.png,11,Community 2,NA,TRUE,f,f,NA,NA,NA,2,6,"4,6,3,15,7,1,9,2,11,10,8,14,13,12,5"
14653,commdev-image-keyboard-response,609,2178836,learnblock2,374.9000000022352,img/planet2_right.png,2,Community 2,NA,TRUE,j,j,NA,NA,NA,2,6,"4,6,3,15,7,1,9,2,11,10,8,14,13,12,5"
14653,commdev-image-keyboard-response,610,2180093,learnblock2,432.5999999977648,img/planet9_right.png,9,Community 2,NA,FALSE,f,j,NA,NA,NA,2,6,"4,6,3,15,7,1,9,2,11,10,8,14,13,12,5"
14653,commdev-image-keyboard-response,611,2181350,learnblock2,437,img/planet10_left.png,10,Community 2,NA,TRUE,f,f,NA,NA,NA,2,6,"4,6,3,15,7,1,9,2,11,10,8,14,13,12,5"
14653,commdev-image-keyboard-response,612,2182603,learnblock2,553,img/planet11_left.png,11,Community 2,NA,TRUE,f,f,NA,NA,NA,2,6,"4,6,3,15,7,1,9,2,11,10,8,14,13,12,5"
14653,commdev-image-keyboard-response,613,2183857,learnblock2,443.5,img/planet9_right.png,9,Community 2,NA,TRUE,j,j,NA,NA,NA,2,6,"4,6,3,15,7,1,9,2,11,10,8,14,13,12,5"
14653,commdev-image-keyboard-response,614,2185111,learnblock2,361.70000000298023,img/planet10_left.png,10,Community 2,NA,TRUE,f,f,NA,NA,NA,2,6,"4,6,3,15,7,1,9,2,11,10,8,14,13,12,5"
14653,commdev-image-keyboard-response,615,2186365,learnblock2,456.5,img/planet11_right.png,11,Community 2,NA,TRUE,j,j,NA,NA,NA,2,6,"4,6,3,15,7,1,9,2,11,10,8,14,13,12,5"
14653,commdev-image-keyboard-response,616,2187620,learnblock2,503.9000000022352,img/planet9_right.png,9,Community 2,NA,TRUE,j,j,NA,NA,NA,2,6,"4,6,3,15,7,1,9,2,11,10,8,14,13,12,5"
14653,commdev-image-keyboard-response,617,2188873,learnblock2,645.6000000014901,img/planet10_right.png,10,Community 2,NA,TRUE,j,j,NA,NA,NA,2,6,"4,6,3,15,7,1,9,2,11,10,8,14,13,12,5"
14653,commdev-image-keyboard-response,618,2190125,learnblock2,633.5,img/planet1_right.png,1,Community 2,NA,TRUE,j,j,NA,NA,NA,2,6,"4,6,3,15,7,1,9,2,11,10,8,14,13,12,5"
14653,commdev-image-keyboard-response,619,2191382,learnblock2,615.8000000007451,img/planet11_left.png,11,Community 2,NA,TRUE,f,f,NA,NA,NA,2,6,"4,6,3,15,7,1,9,2,11,10,8,14,13,12,5"
14653,commdev-image-keyboard-response,620,2192639,learnblock2,507.9000000022352,img/planet2_left.png,2,Community 2,NA,TRUE,f,f,NA,NA,NA,2,6,"4,6,3,15,7,1,9,2,11,10,8,14,13,12,5"
14653,commdev-image-keyboard-response,621,2193896,learnblock2,459.80000000074506,img/planet9_right.png,9,Community 2,NA,TRUE,j,j,NA,NA,NA,2,6,"4,6,3,15,7,1,9,2,11,10,8,14,13,12,5"
14653,commdev-image-keyboard-response,622,2195149,learnblock2,483.5999999977648,img/planet11_right.png,11,Community 2,NA,FALSE,f,j,NA,NA,NA,2,6,"4,6,3,15,7,1,9,2,11,10,8,14,13,12,5"
14653,commdev-image-keyboard-response,623,2196402,learnblock2,711.6999999992549,img/planet10_right.png,10,Community 2,NA,TRUE,j,j,NA,NA,NA,2,6,"4,6,3,15,7,1,9,2,11,10,8,14,13,12,5"
14653,commdev-image-keyboard-response,624,2197659,learnblock2,519.5999999977648,img/planet9_right.png,9,Community 2,NA,TRUE,j,j,NA,NA,NA,2,6,"4,6,3,15,7,1,9,2,11,10,8,14,13,12,5"
14653,commdev-image-keyboard-response,625,2198915,learnblock2,504.8999999985099,img/planet10_left.png,10,Community 2,NA,TRUE,f,f,NA,NA,NA,2,6,"4,6,3,15,7,1,9,2,11,10,8,14,13,12,5"
14653,commdev-image-keyboard-response,626,2200169,learnblock2,504.19999999925494,img/planet2_left.png,2,Community 2,NA,FALSE,j,f,NA,NA,NA,2,6,"4,6,3,15,7,1,9,2,11,10,8,14,13,12,5"
14653,commdev-image-keyboard-response,627,2201426,learnblock2,1046.5,img/planet9_right.png,9,Community 2,NA,TRUE,j,j,NA,NA,NA,2,6,"4,6,3,15,7,1,9,2,11,10,8,14,13,12,5"
14653,commdev-image-keyboard-response,628,2202683,learnblock2,565.6000000014901,img/planet2_right.png,2,Community 2,NA,TRUE,j,j,NA,NA,NA,2,6,"4,6,3,15,7,1,9,2,11,10,8,14,13,12,5"
14653,commdev-image-keyboard-response,629,2203940,learnblock2,498.30000000074506,img/planet9_right.png,9,Community 2,NA,TRUE,j,j,NA,NA,NA,2,6,"4,6,3,15,7,1,9,2,11,10,8,14,13,12,5"
14653,commdev-image-keyboard-response,630,2205194,learnblock2,514.0999999977648,img/planet10_left.png,10,Community 2,NA,TRUE,f,f,NA,NA,NA,2,6,"4,6,3,15,7,1,9,2,11,10,8,14,13,12,5"
14653,commdev-image-keyboard-response,631,2206448,learnblock2,738.3000000007451,img/planet1_left.png,1,Community 2,NA,TRUE,f,f,NA,NA,NA,2,6,"4,6,3,15,7,1,9,2,11,10,8,14,13,12,5"
14653,commdev-image-keyboard-response,632,2207704,learnblock2,734.0999999977648,img/planet11_left.png,11,Community 2,NA,TRUE,f,f,NA,NA,NA,2,6,"4,6,3,15,7,1,9,2,11,10,8,14,13,12,5"
14653,commdev-image-keyboard-response,633,2208961,learnblock2,577.8000000007451,img/planet9_right.png,9,Community 2,NA,TRUE,j,j,NA,NA,NA,2,6,"4,6,3,15,7,1,9,2,11,10,8,14,13,12,5"
14653,commdev-image-keyboard-response,634,2210214,learnblock2,null,img/planet10_right.png,10,Community 2,NA,FALSE,null,j,NA,NA,NA,2,6,"4,6,3,15,7,1,9,2,11,10,8,14,13,12,5"
14653,commdev-image-keyboard-response,635,2211472,learnblock2,6.899999998509884,img/planet11_left.png,11,Community 2,NA,FALSE,j,f,NA,NA,NA,2,6,"4,6,3,15,7,1,9,2,11,10,8,14,13,12,5"
14653,commdev-image-keyboard-response,636,2212726,learnblock2,678.0999999977648,img/planet9_right.png,9,Community 2,NA,TRUE,j,j,NA,NA,NA,2,6,"4,6,3,15,7,1,9,2,11,10,8,14,13,12,5"
14653,commdev-image-keyboard-response,637,2213983,learnblock2,498.30000000074506,img/planet11_right.png,11,Community 2,NA,TRUE,j,j,NA,NA,NA,2,6,"4,6,3,15,7,1,9,2,11,10,8,14,13,12,5"
14653,commdev-image-keyboard-response,638,2215238,learnblock2,456.8999999985099,img/planet1_right.png,1,Community 2,NA,TRUE,j,j,NA,NA,NA,2,6,"4,6,3,15,7,1,9,2,11,10,8,14,13,12,5"
14653,commdev-image-keyboard-response,639,2216495,learnblock2,460.29999999701977,img/planet15_right.png,15,Community 1,NA,FALSE,f,j,NA,NA,NA,2,6,"4,6,3,15,7,1,9,2,11,10,8,14,13,12,5"
14653,commdev-image-keyboard-response,640,2217752,learnblock2,550.5,img/planet3_right.png,3,Community 1,NA,TRUE,j,j,NA,NA,NA,2,6,"4,6,3,15,7,1,9,2,11,10,8,14,13,12,5"
14653,commdev-image-keyboard-response,641,2219009,learnblock2,474.9000000022352,img/planet4_right.png,4,Community 1,NA,TRUE,j,j,NA,NA,NA,2,6,"4,6,3,15,7,1,9,2,11,10,8,14,13,12,5"
14653,commdev-image-keyboard-response,642,2220262,learnblock2,512.1000000014901,img/planet7_right.png,7,Community 1,NA,TRUE,j,j,NA,NA,NA,2,6,"4,6,3,15,7,1,9,2,11,10,8,14,13,12,5"
14653,commdev-image-keyboard-response,643,2221519,learnblock2,535.1000000014901,img/planet4_left.png,4,Community 1,NA,TRUE,f,f,NA,NA,NA,2,6,"4,6,3,15,7,1,9,2,11,10,8,14,13,12,5"
14653,commdev-image-keyboard-response,644,2222777,learnblock2,436.9000000022352,img/planet15_right.png,15,Community 1,NA,TRUE,j,j,NA,NA,NA,2,6,"4,6,3,15,7,1,9,2,11,10,8,14,13,12,5"
14653,commdev-image-keyboard-response,645,2224035,learnblock2,416.29999999701977,img/planet1_right.png,1,Community 2,NA,TRUE,j,j,NA,NA,NA,2,6,"4,6,3,15,7,1,9,2,11,10,8,14,13,12,5"
14653,commdev-image-keyboard-response,646,2225290,learnblock2,414.4000000022352,img/planet9_right.png,9,Community 2,NA,TRUE,j,j,NA,NA,NA,2,6,"4,6,3,15,7,1,9,2,11,10,8,14,13,12,5"
14653,commdev-image-keyboard-response,647,2226548,learnblock2,470,img/planet11_right.png,11,Community 2,NA,TRUE,j,j,NA,NA,NA,2,6,"4,6,3,15,7,1,9,2,11,10,8,14,13,12,5"
14653,commdev-image-keyboard-response,648,2227801,learnblock2,410,img/planet10_left.png,10,Community 2,NA,FALSE,j,f,NA,NA,NA,2,6,"4,6,3,15,7,1,9,2,11,10,8,14,13,12,5"
14653,commdev-image-keyboard-response,649,2229054,learnblock2,601.0999999977648,img/planet1_left.png,1,Community 2,NA,TRUE,f,f,NA,NA,NA,2,6,"4,6,3,15,7,1,9,2,11,10,8,14,13,12,5"
14653,commdev-image-keyboard-response,650,2230308,learnblock2,491.30000000074506,img/planet10_right.png,10,Community 2,NA,TRUE,j,j,NA,NA,NA,2,6,"4,6,3,15,7,1,9,2,11,10,8,14,13,12,5"
14653,commdev-image-keyboard-response,651,2231562,learnblock2,536.3999999985099,img/planet1_right.png,1,Community 2,NA,TRUE,j,j,NA,NA,NA,2,6,"4,6,3,15,7,1,9,2,11,10,8,14,13,12,5"
14653,commdev-image-keyboard-response,652,2232819,learnblock2,513.4000000022352,img/planet9_left.png,9,Community 2,NA,TRUE,f,f,NA,NA,NA,2,6,"4,6,3,15,7,1,9,2,11,10,8,14,13,12,5"
14653,commdev-image-keyboard-response,653,2234075,learnblock2,635.9000000022352,img/planet11_left.png,11,Community 2,NA,FALSE,j,f,NA,NA,NA,2,6,"4,6,3,15,7,1,9,2,11,10,8,14,13,12,5"
14653,commdev-image-keyboard-response,654,2235329,learnblock2,562.5,img/planet1_right.png,1,Community 2,NA,TRUE,j,j,NA,NA,NA,2,6,"4,6,3,15,7,1,9,2,11,10,8,14,13,12,5"
14653,commdev-image-keyboard-response,655,2236584,learnblock2,541.9000000022352,img/planet10_right.png,10,Community 2,NA,TRUE,j,j,NA,NA,NA,2,6,"4,6,3,15,7,1,9,2,11,10,8,14,13,12,5"
14653,commdev-image-keyboard-response,656,2237842,learnblock2,549.6999999992549,img/planet9_left.png,9,Community 2,NA,TRUE,f,f,NA,NA,NA,2,6,"4,6,3,15,7,1,9,2,11,10,8,14,13,12,5"
14653,commdev-image-keyboard-response,657,2239097,learnblock2,584.5999999977648,img/planet2_left.png,2,Community 2,NA,TRUE,f,f,NA,NA,NA,2,6,"4,6,3,15,7,1,9,2,11,10,8,14,13,12,5"
14653,commdev-image-keyboard-response,658,2240354,learnblock2,488.5999999977648,img/planet9_right.png,9,Community 2,NA,TRUE,j,j,NA,NA,NA,2,6,"4,6,3,15,7,1,9,2,11,10,8,14,13,12,5"
14653,commdev-image-keyboard-response,659,2241612,learnblock2,558.1000000014901,img/planet11_left.png,11,Community 2,NA,TRUE,f,f,NA,NA,NA,2,6,"4,6,3,15,7,1,9,2,11,10,8,14,13,12,5"
14653,commdev-image-keyboard-response,660,2242866,learnblock2,874.1999999992549,img/planet9_left.png,9,Community 2,NA,TRUE,f,f,NA,NA,NA,2,6,"4,6,3,15,7,1,9,2,11,10,8,14,13,12,5"
14653,commdev-image-keyboard-response,661,2244123,learnblock2,500.8999999985099,img/planet10_left.png,10,Community 2,NA,TRUE,f,f,NA,NA,NA,2,6,"4,6,3,15,7,1,9,2,11,10,8,14,13,12,5"
14653,commdev-image-keyboard-response,662,2245380,learnblock2,495.20000000298023,img/planet11_right.png,11,Community 2,NA,TRUE,j,j,NA,NA,NA,2,6,"4,6,3,15,7,1,9,2,11,10,8,14,13,12,5"
14653,commdev-image-keyboard-response,663,2246631,learnblock2,659,img/planet9_right.png,9,Community 2,NA,FALSE,f,j,NA,NA,NA,2,6,"4,6,3,15,7,1,9,2,11,10,8,14,13,12,5"
14653,commdev-image-keyboard-response,664,2247889,learnblock2,816,img/planet10_left.png,10,Community 2,NA,TRUE,f,f,NA,NA,NA,2,6,"4,6,3,15,7,1,9,2,11,10,8,14,13,12,5"
14653,commdev-image-keyboard-response,665,2249146,learnblock2,441.79999999701977,img/planet1_right.png,1,Community 2,NA,TRUE,j,j,NA,NA,NA,2,6,"4,6,3,15,7,1,9,2,11,10,8,14,13,12,5"
14653,commdev-image-keyboard-response,666,2250404,learnblock2,639,img/planet15_right.png,15,Community 1,NA,TRUE,j,j,NA,NA,NA,2,6,"4,6,3,15,7,1,9,2,11,10,8,14,13,12,5"
14653,commdev-image-keyboard-response,667,2251657,learnblock2,525.2999999970198,img/planet4_right.png,4,Community 1,NA,TRUE,j,j,NA,NA,NA,2,6,"4,6,3,15,7,1,9,2,11,10,8,14,13,12,5"
14653,commdev-image-keyboard-response,668,2252912,learnblock2,454.80000000074506,img/planet7_right.png,7,Community 1,NA,TRUE,j,j,NA,NA,NA,2,6,"4,6,3,15,7,1,9,2,11,10,8,14,13,12,5"
14653,commdev-image-keyboard-response,669,2254169,learnblock2,606.6000000014901,img/planet4_left.png,4,Community 1,NA,TRUE,f,f,NA,NA,NA,2,6,"4,6,3,15,7,1,9,2,11,10,8,14,13,12,5"
14653,commdev-image-keyboard-response,670,2255426,learnblock2,662.8999999985099,img/planet3_left.png,3,Community 1,NA,TRUE,f,f,NA,NA,NA,2,6,"4,6,3,15,7,1,9,2,11,10,8,14,13,12,5"
14653,commdev-image-keyboard-response,671,2256680,learnblock2,470.1000000014901,img/planet4_right.png,4,Community 1,NA,TRUE,j,j,NA,NA,NA,2,6,"4,6,3,15,7,1,9,2,11,10,8,14,13,12,5"
14653,commdev-image-keyboard-response,672,2257937,learnblock2,614.0999999977648,img/planet3_left.png,3,Community 1,NA,TRUE,f,f,NA,NA,NA,2,6,"4,6,3,15,7,1,9,2,11,10,8,14,13,12,5"
14653,commdev-image-keyboard-response,673,2259194,learnblock2,532,img/planet7_right.png,7,Community 1,NA,TRUE,j,j,NA,NA,NA,2,6,"4,6,3,15,7,1,9,2,11,10,8,14,13,12,5"
14653,commdev-image-keyboard-response,674,2260451,learnblock2,535,img/planet8_right.png,8,Community 3,NA,TRUE,j,j,NA,NA,NA,2,6,"4,6,3,15,7,1,9,2,11,10,8,14,13,12,5"
14653,commdev-image-keyboard-response,675,2261704,learnblock2,469.79999999701977,img/planet13_left.png,13,Community 3,NA,FALSE,j,f,NA,NA,NA,2,6,"4,6,3,15,7,1,9,2,11,10,8,14,13,12,5"
14653,commdev-image-keyboard-response,676,2262961,learnblock2,459.3999999985099,img/planet12_right.png,12,Community 3,NA,TRUE,j,j,NA,NA,NA,2,6,"4,6,3,15,7,1,9,2,11,10,8,14,13,12,5"
14653,commdev-image-keyboard-response,677,2264219,learnblock2,457.69999999925494,img/planet14_left.png,14,Community 3,NA,TRUE,f,f,NA,NA,NA,2,6,"4,6,3,15,7,1,9,2,11,10,8,14,13,12,5"
14653,commdev-image-keyboard-response,678,2265475,learnblock2,451.30000000074506,img/planet13_left.png,13,Community 3,NA,TRUE,f,f,NA,NA,NA,2,6,"4,6,3,15,7,1,9,2,11,10,8,14,13,12,5"
