subject_id,trial_type,trial_index,time_elapsed,block,rt,stimulus,planet,community,response,correct,key_press,learning_correct_response,parse,init_locations,final_locations,browser_interactions,num_comp,planet_map
14086,commdev-instructions,7,54487,NA,4053.2999999523163,"<p>In this game, you will be shown a 3x3 grid of patterns.</p> <p>The last one in the bottom right-hand corner, <strong>will be missing:</strong></p> <div style='width: 700px;'><div style='float: top;'><img style='width: 200px;' src='practice/p1_M1.png'></img><p class='small'>You need to select<strong> which of the four possible patterns </strong>along the bottom<strong> fits into the gap:</strong></p></div><div style='float: top;'><img style='width: 300px;' src='practice/p1_T1.png'></img></div><br>",NA,NA,NA,NA,NA,NA,NA,NA,NA,1,6,"15,7,12,5,13,8,10,2,6,14,3,4,1,11,9"
14086,commdev-instructions,8,76238,NA,2575.7999999523163,"<p>Try to be as fast and as accurate as you can be.</p> <p>If you cannot solve the puzzle then you should guess - you will not be penalised for an incorrect answer.</p> <p>The task contains a shuffled mix of easy, medium and hard puzzles.</p> <p>You will have <strong>30 seconds</strong> to complete each puzzle.</p><br>",NA,NA,NA,NA,NA,NA,NA,NA,NA,1,6,"15,7,12,5,13,8,10,2,6,14,3,4,1,11,9"
14086,commdev-instructions,15,102478,NA,2095.2000000476837,<p><strong>Success!</strong></p> <p>You seem to be getting the hang of this...</p> <p>Let's move on to the real trials.</p><br>,NA,NA,NA,NA,NA,NA,NA,NA,NA,1,6,"15,7,12,5,13,8,10,2,6,14,3,4,1,11,9"
14086,commdev-instructions,79,597621,NA,2614.5,"<p>In this game, you are a scientist on board a space shuttle. </p><p> On each mission, you will visit planets all across the universe.</p><img src=""img/controlroom.jpg"" width=300vw>",NA,NA,NA,NA,NA,NA,NA,NA,NA,1,6,"15,7,12,5,13,8,10,2,6,14,3,4,1,11,9"
14086,commdev-instructions,80,600645,NA,959,"<p>Here are a few planets you might see:</p><img src=""img/practice1.png"" width=200vw><img src=""img/practice2.png"" width=200vw><img src=""img/practice3.png"" width=200vw>",NA,NA,NA,NA,NA,NA,NA,NA,NA,1,6,"15,7,12,5,13,8,10,2,6,14,3,4,1,11,9"
14086,commdev-instructions,81,609293,NA,1247,"<p>Your job as a scientist is to record which direction the winds are moving on each planet.</p><p>There are two types of wind directions:</p><img src=""img/practice1_left.png"" width=200vw><img src=""img/practice1_right.png"" width=200vw>",NA,NA,NA,NA,NA,NA,NA,NA,NA,1,6,"15,7,12,5,13,8,10,2,6,14,3,4,1,11,9"
14086,commdev-instructions,82,616173,NA,1985.5999999046326,"<p>If the winds are moving this way, press the letter <strong>F</strong> on the keyboard as fast as you can.</p><img src=""img/leftwind.png"" width=250vw>",NA,NA,NA,NA,NA,NA,NA,NA,NA,1,6,"15,7,12,5,13,8,10,2,6,14,3,4,1,11,9"
14086,commdev-instructions,83,623783,NA,3105.7999999523163,"<p>If the winds are moving this way, press the letter <strong>J</strong> on the keyboard as fast as you can.</p><img src=""img/rightwind.png"" width=350vw>",NA,NA,NA,NA,NA,NA,NA,NA,NA,1,6,"15,7,12,5,13,8,10,2,6,14,3,4,1,11,9"
14086,commdev-instructions,84,630191,NA,1984.1000000238419,<p>You will have 1 second to respond. Try to respond before the time runs out!,NA,NA,NA,NA,NA,NA,NA,NA,NA,1,6,"15,7,12,5,13,8,10,2,6,14,3,4,1,11,9"
14086,commdev-instructions,85,637170,NA,1533.8999999761581,<p>The planets you will visit will look different from each other.</p><p>You should respond <strong>only</strong> based on wind direction.,NA,NA,NA,NA,NA,NA,NA,NA,NA,1,6,"15,7,12,5,13,8,10,2,6,14,3,4,1,11,9"
14086,commdev-instructions,86,645085,NA,2738.1999999284744,"<p> Ready to start the practice round? </p><p> Remember, press <strong>F</strong> or <strong>J</strong> depending on the wind direction.<br><img src=""img/categorize_planet_example.png""",NA,NA,NA,NA,NA,NA,NA,NA,NA,1,6,"15,7,12,5,13,8,10,2,6,14,3,4,1,11,9"
14086,commdev-instructions,98,696386,NA,1610.5999999046326,"<p>Great, now try a short practice mission. </p><p> This time, you will have 1 second to respond and you won't know whether you pressed the right or wrong key for each planet.</p>",NA,NA,NA,NA,NA,NA,NA,NA,NA,1,6,"15,7,12,5,13,8,10,2,6,14,3,4,1,11,9"
14086,commdev-image-keyboard-response,99,697747,practice,1251.1000000238419,img/practice3_left.png,NA,Number not found in mappings,NA,FALSE,j,f,NA,NA,NA,1,6,"15,7,12,5,13,8,10,2,6,14,3,4,1,11,9"
14086,commdev-image-keyboard-response,100,699001,practice,735.1000000238419,img/practice2_right.png,NA,Number not found in mappings,NA,FALSE,f,j,NA,NA,NA,1,6,"15,7,12,5,13,8,10,2,6,14,3,4,1,11,9"
14086,commdev-image-keyboard-response,101,700260,practice,346.10000002384186,img/practice3_left.png,NA,Number not found in mappings,NA,TRUE,f,f,NA,NA,NA,1,6,"15,7,12,5,13,8,10,2,6,14,3,4,1,11,9"
14086,commdev-image-keyboard-response,102,701522,practice,927.0999999046326,img/practice4_left.png,NA,Number not found in mappings,NA,TRUE,f,f,NA,NA,NA,1,6,"15,7,12,5,13,8,10,2,6,14,3,4,1,11,9"
14086,commdev-image-keyboard-response,103,702786,practice,542.8000000715256,img/practice2_right.png,NA,Number not found in mappings,NA,TRUE,j,j,NA,NA,NA,1,6,"15,7,12,5,13,8,10,2,6,14,3,4,1,11,9"
14086,commdev-image-keyboard-response,104,704050,practice,701.9000000953674,img/practice4_right.png,NA,Number not found in mappings,NA,TRUE,j,j,NA,NA,NA,1,6,"15,7,12,5,13,8,10,2,6,14,3,4,1,11,9"
14086,commdev-image-keyboard-response,105,705311,practice,701.1000000238419,img/practice3_left.png,NA,Number not found in mappings,NA,TRUE,f,f,NA,NA,NA,1,6,"15,7,12,5,13,8,10,2,6,14,3,4,1,11,9"
14086,commdev-image-keyboard-response,106,706566,practice,638,img/practice1_left.png,NA,Number not found in mappings,NA,TRUE,f,f,NA,NA,NA,1,6,"15,7,12,5,13,8,10,2,6,14,3,4,1,11,9"
14086,commdev-instructions,107,718753,NA,2637.399999976158,"<p>Great job with the practice round.</p><p>During real missions, you won't know whether you pressed the right or wrong key for each planet.</p><p>But between missions, we will tell you how you did overall.</p>",NA,NA,NA,NA,NA,NA,NA,NA,NA,1,6,"15,7,12,5,13,8,10,2,6,14,3,4,1,11,9"
14086,commdev-instructions,108,730186,NA,3190,<p>Try your best! You will be paid a bonus based on how many correct responses you make!</p><p>Responses that are too slow will not count toward your bonus.</p>,NA,NA,NA,NA,NA,NA,NA,NA,NA,1,6,"15,7,12,5,13,8,10,2,6,14,3,4,1,11,9"
14086,commdev-instructions,109,737173,NA,787.7999999523163,"<p>You are almost ready to start the real game.</p><p> First, we are going to ask you some questions about how the game works.</p>",NA,NA,NA,NA,NA,NA,NA,NA,NA,1,6,"15,7,12,5,13,8,10,2,6,14,3,4,1,11,9"
14086,commdev-instructions,118,819916,NA,2120.7000000476837,"<p> Nice work! It is now time to start the real game.<p></p>You will go on two missions to record wind directions of different planets.<p></p>Each one will take about 5 minutes. You will get to take a break between missions.<p><p> Remember, press <strong>F</strong> or <strong>J</strong> depending on the wind direction. Good luck!<br><img src=""img/categorize_planet_example.png""",NA,NA,NA,NA,NA,NA,NA,NA,NA,1,6,"15,7,12,5,13,8,10,2,6,14,3,4,1,11,9"
14086,commdev-image-keyboard-response,120,824046,learnblock1,null,img/planet2_left.png,2,Community 2,NA,FALSE,null,f,NA,NA,NA,1,6,"15,7,12,5,13,8,10,2,6,14,3,4,1,11,9"
14086,commdev-image-keyboard-response,121,825303,learnblock1,143.5,img/planet4_left.png,4,Community 3,NA,TRUE,f,f,NA,NA,NA,1,6,"15,7,12,5,13,8,10,2,6,14,3,4,1,11,9"
14086,commdev-image-keyboard-response,122,826566,learnblock1,761.5,img/planet1_left.png,1,Community 3,NA,TRUE,f,f,NA,NA,NA,1,6,"15,7,12,5,13,8,10,2,6,14,3,4,1,11,9"
14086,commdev-image-keyboard-response,123,827825,learnblock1,739.2000000476837,img/planet3_right.png,3,Community 3,NA,TRUE,j,j,NA,NA,NA,1,6,"15,7,12,5,13,8,10,2,6,14,3,4,1,11,9"
14086,commdev-image-keyboard-response,124,829091,learnblock1,524.5,img/planet9_right.png,9,Community 3,NA,TRUE,j,j,NA,NA,NA,1,6,"15,7,12,5,13,8,10,2,6,14,3,4,1,11,9"
14086,commdev-image-keyboard-response,125,830350,learnblock1,753.7000000476837,img/planet4_left.png,4,Community 3,NA,FALSE,j,f,NA,NA,NA,1,6,"15,7,12,5,13,8,10,2,6,14,3,4,1,11,9"
14086,commdev-image-keyboard-response,126,831606,learnblock1,1026.1000000238419,img/planet2_left.png,2,Community 2,NA,TRUE,f,f,NA,NA,NA,1,6,"15,7,12,5,13,8,10,2,6,14,3,4,1,11,9"
14086,commdev-image-keyboard-response,127,832866,learnblock1,904.7000000476837,img/planet6_right.png,6,Community 2,NA,TRUE,j,j,NA,NA,NA,1,6,"15,7,12,5,13,8,10,2,6,14,3,4,1,11,9"
14086,commdev-image-keyboard-response,128,834125,learnblock1,904,img/planet14_left.png,14,Community 2,NA,TRUE,f,f,NA,NA,NA,1,6,"15,7,12,5,13,8,10,2,6,14,3,4,1,11,9"
14086,commdev-image-keyboard-response,129,835381,learnblock1,759,img/planet2_left.png,2,Community 2,NA,TRUE,f,f,NA,NA,NA,1,6,"15,7,12,5,13,8,10,2,6,14,3,4,1,11,9"
14086,commdev-image-keyboard-response,130,836647,learnblock1,715.5,img/planet6_right.png,6,Community 2,NA,TRUE,j,j,NA,NA,NA,1,6,"15,7,12,5,13,8,10,2,6,14,3,4,1,11,9"
14086,commdev-image-keyboard-response,131,837906,learnblock1,546,img/planet10_right.png,10,Community 2,NA,TRUE,j,j,NA,NA,NA,1,6,"15,7,12,5,13,8,10,2,6,14,3,4,1,11,9"
14086,commdev-image-keyboard-response,132,839157,learnblock1,799.5,img/planet2_right.png,2,Community 2,NA,TRUE,j,j,NA,NA,NA,1,6,"15,7,12,5,13,8,10,2,6,14,3,4,1,11,9"
14086,commdev-image-keyboard-response,133,840419,learnblock1,922.8999999761581,img/planet6_right.png,6,Community 2,NA,FALSE,f,j,NA,NA,NA,1,6,"15,7,12,5,13,8,10,2,6,14,3,4,1,11,9"
14086,commdev-image-keyboard-response,134,841672,learnblock1,35.60000002384186,img/planet8_left.png,8,Community 2,NA,TRUE,f,f,NA,NA,NA,1,6,"15,7,12,5,13,8,10,2,6,14,3,4,1,11,9"
14086,commdev-image-keyboard-response,135,842935,learnblock1,588.2999999523163,img/planet5_right.png,5,Community 1,NA,TRUE,j,j,NA,NA,NA,1,6,"15,7,12,5,13,8,10,2,6,14,3,4,1,11,9"
14086,commdev-image-keyboard-response,136,844198,learnblock1,686.1000000238419,img/planet8_right.png,8,Community 2,NA,TRUE,j,j,NA,NA,NA,1,6,"15,7,12,5,13,8,10,2,6,14,3,4,1,11,9"
14086,commdev-image-keyboard-response,137,845450,learnblock1,599.3999999761581,img/planet10_left.png,10,Community 2,NA,TRUE,f,f,NA,NA,NA,1,6,"15,7,12,5,13,8,10,2,6,14,3,4,1,11,9"
14086,commdev-image-keyboard-response,138,846705,learnblock1,908.5,img/planet6_left.png,6,Community 2,NA,FALSE,j,f,NA,NA,NA,1,6,"15,7,12,5,13,8,10,2,6,14,3,4,1,11,9"
14086,commdev-image-keyboard-response,139,847957,learnblock1,877,img/planet10_left.png,10,Community 2,NA,TRUE,f,f,NA,NA,NA,1,6,"15,7,12,5,13,8,10,2,6,14,3,4,1,11,9"
14086,commdev-image-keyboard-response,140,849208,learnblock1,682.6000000238419,img/planet2_right.png,2,Community 2,NA,TRUE,j,j,NA,NA,NA,1,6,"15,7,12,5,13,8,10,2,6,14,3,4,1,11,9"
14086,commdev-image-keyboard-response,141,850460,learnblock1,619.1000000238419,img/planet4_right.png,4,Community 3,NA,TRUE,j,j,NA,NA,NA,1,6,"15,7,12,5,13,8,10,2,6,14,3,4,1,11,9"
14086,commdev-image-keyboard-response,142,851712,learnblock1,657.5,img/planet11_right.png,11,Community 3,NA,TRUE,j,j,NA,NA,NA,1,6,"15,7,12,5,13,8,10,2,6,14,3,4,1,11,9"
14086,commdev-image-keyboard-response,143,852963,learnblock1,669.1000000238419,img/planet4_right.png,4,Community 3,NA,TRUE,j,j,NA,NA,NA,1,6,"15,7,12,5,13,8,10,2,6,14,3,4,1,11,9"
14086,commdev-image-keyboard-response,144,854214,learnblock1,740.5,img/planet2_right.png,2,Community 2,NA,TRUE,j,j,NA,NA,NA,1,6,"15,7,12,5,13,8,10,2,6,14,3,4,1,11,9"
14086,commdev-image-keyboard-response,145,855466,learnblock1,644.8000000715256,img/planet6_left.png,6,Community 2,NA,TRUE,f,f,NA,NA,NA,1,6,"15,7,12,5,13,8,10,2,6,14,3,4,1,11,9"
14086,commdev-image-keyboard-response,146,856717,learnblock1,725.8999999761581,img/planet8_left.png,8,Community 2,NA,TRUE,f,f,NA,NA,NA,1,6,"15,7,12,5,13,8,10,2,6,14,3,4,1,11,9"
14086,commdev-image-keyboard-response,147,857969,learnblock1,645.3999999761581,img/planet5_left.png,5,Community 1,NA,TRUE,f,f,NA,NA,NA,1,6,"15,7,12,5,13,8,10,2,6,14,3,4,1,11,9"
14086,commdev-image-keyboard-response,148,859220,learnblock1,763.9000000953674,img/planet7_right.png,7,Community 1,NA,TRUE,j,j,NA,NA,NA,1,6,"15,7,12,5,13,8,10,2,6,14,3,4,1,11,9"
14086,commdev-image-keyboard-response,149,860472,learnblock1,724.7999999523163,img/planet5_right.png,5,Community 1,NA,TRUE,j,j,NA,NA,NA,1,6,"15,7,12,5,13,8,10,2,6,14,3,4,1,11,9"
14086,commdev-image-keyboard-response,150,861731,learnblock1,738.5,img/planet7_left.png,7,Community 1,NA,TRUE,f,f,NA,NA,NA,1,6,"15,7,12,5,13,8,10,2,6,14,3,4,1,11,9"
14086,commdev-image-keyboard-response,151,862984,learnblock1,805.6000000238419,img/planet5_left.png,5,Community 1,NA,TRUE,f,f,NA,NA,NA,1,6,"15,7,12,5,13,8,10,2,6,14,3,4,1,11,9"
14086,commdev-image-keyboard-response,152,864235,learnblock1,791.5,img/planet8_left.png,8,Community 2,NA,TRUE,f,f,NA,NA,NA,1,6,"15,7,12,5,13,8,10,2,6,14,3,4,1,11,9"
14086,commdev-image-keyboard-response,153,865489,learnblock1,777.3000000715256,img/planet5_right.png,5,Community 1,NA,TRUE,j,j,NA,NA,NA,1,6,"15,7,12,5,13,8,10,2,6,14,3,4,1,11,9"
14086,commdev-image-keyboard-response,154,866740,learnblock1,655.5,img/planet7_right.png,7,Community 1,NA,TRUE,j,j,NA,NA,NA,1,6,"15,7,12,5,13,8,10,2,6,14,3,4,1,11,9"
14086,commdev-image-keyboard-response,155,867992,learnblock1,556.5999999046326,img/planet12_left.png,12,Community 1,NA,TRUE,f,f,NA,NA,NA,1,6,"15,7,12,5,13,8,10,2,6,14,3,4,1,11,9"
14086,commdev-image-keyboard-response,156,869244,learnblock1,573,img/planet7_left.png,7,Community 1,NA,TRUE,f,f,NA,NA,NA,1,6,"15,7,12,5,13,8,10,2,6,14,3,4,1,11,9"
14086,commdev-image-keyboard-response,157,870495,learnblock1,695.5,img/planet5_left.png,5,Community 1,NA,TRUE,f,f,NA,NA,NA,1,6,"15,7,12,5,13,8,10,2,6,14,3,4,1,11,9"
14086,commdev-image-keyboard-response,158,871747,learnblock1,565.2000000476837,img/planet7_right.png,7,Community 1,NA,TRUE,j,j,NA,NA,NA,1,6,"15,7,12,5,13,8,10,2,6,14,3,4,1,11,9"
14086,commdev-image-keyboard-response,159,872998,learnblock1,745.8999999761581,img/planet15_right.png,15,Community 1,NA,TRUE,j,j,NA,NA,NA,1,6,"15,7,12,5,13,8,10,2,6,14,3,4,1,11,9"
14086,commdev-image-keyboard-response,160,874249,learnblock1,830.7999999523163,img/planet5_right.png,5,Community 1,NA,TRUE,j,j,NA,NA,NA,1,6,"15,7,12,5,13,8,10,2,6,14,3,4,1,11,9"
14086,commdev-image-keyboard-response,161,875500,learnblock1,881.5,img/planet15_right.png,15,Community 1,NA,FALSE,f,j,NA,NA,NA,1,6,"15,7,12,5,13,8,10,2,6,14,3,4,1,11,9"
14086,commdev-image-keyboard-response,162,876752,learnblock1,null,img/planet7_right.png,7,Community 1,NA,FALSE,null,j,NA,NA,NA,1,6,"15,7,12,5,13,8,10,2,6,14,3,4,1,11,9"
14086,commdev-image-keyboard-response,163,878003,learnblock1,193.40000009536743,img/planet5_left.png,5,Community 1,NA,FALSE,j,f,NA,NA,NA,1,6,"15,7,12,5,13,8,10,2,6,14,3,4,1,11,9"
14086,commdev-image-keyboard-response,164,879254,learnblock1,745.7000000476837,img/planet7_left.png,7,Community 1,NA,TRUE,f,f,NA,NA,NA,1,6,"15,7,12,5,13,8,10,2,6,14,3,4,1,11,9"
14086,commdev-image-keyboard-response,165,880505,learnblock1,748.1000000238419,img/planet13_left.png,13,Community 1,NA,TRUE,f,f,NA,NA,NA,1,6,"15,7,12,5,13,8,10,2,6,14,3,4,1,11,9"
14086,commdev-image-keyboard-response,166,881757,learnblock1,962.3999999761581,img/planet3_left.png,3,Community 3,NA,TRUE,f,f,NA,NA,NA,1,6,"15,7,12,5,13,8,10,2,6,14,3,4,1,11,9"
14086,commdev-image-keyboard-response,167,883009,learnblock1,737.7999999523163,img/planet13_left.png,13,Community 1,NA,TRUE,f,f,NA,NA,NA,1,6,"15,7,12,5,13,8,10,2,6,14,3,4,1,11,9"
14086,commdev-image-keyboard-response,168,884260,learnblock1,609.6999999284744,img/planet3_right.png,3,Community 3,NA,FALSE,f,j,NA,NA,NA,1,6,"15,7,12,5,13,8,10,2,6,14,3,4,1,11,9"
14086,commdev-image-keyboard-response,169,885512,learnblock1,669.2999999523163,img/planet9_right.png,9,Community 3,NA,TRUE,j,j,NA,NA,NA,1,6,"15,7,12,5,13,8,10,2,6,14,3,4,1,11,9"
14086,commdev-image-keyboard-response,170,886764,learnblock1,567,img/planet4_right.png,4,Community 3,NA,TRUE,j,j,NA,NA,NA,1,6,"15,7,12,5,13,8,10,2,6,14,3,4,1,11,9"
14086,commdev-image-keyboard-response,171,888017,learnblock1,582.5,img/planet1_left.png,1,Community 3,NA,TRUE,f,f,NA,NA,NA,1,6,"15,7,12,5,13,8,10,2,6,14,3,4,1,11,9"
14086,commdev-image-keyboard-response,172,889268,learnblock1,702.6999999284744,img/planet3_right.png,3,Community 3,NA,TRUE,j,j,NA,NA,NA,1,6,"15,7,12,5,13,8,10,2,6,14,3,4,1,11,9"
14086,commdev-image-keyboard-response,173,890519,learnblock1,679.3999999761581,img/planet9_right.png,9,Community 3,NA,TRUE,j,j,NA,NA,NA,1,6,"15,7,12,5,13,8,10,2,6,14,3,4,1,11,9"
14086,commdev-image-keyboard-response,174,891771,learnblock1,606.3999999761581,img/planet11_right.png,11,Community 3,NA,TRUE,j,j,NA,NA,NA,1,6,"15,7,12,5,13,8,10,2,6,14,3,4,1,11,9"
14086,commdev-image-keyboard-response,175,893022,learnblock1,562.6000000238419,img/planet9_left.png,9,Community 3,NA,TRUE,f,f,NA,NA,NA,1,6,"15,7,12,5,13,8,10,2,6,14,3,4,1,11,9"
14086,commdev-image-keyboard-response,176,894274,learnblock1,644,img/planet11_left.png,11,Community 3,NA,TRUE,f,f,NA,NA,NA,1,6,"15,7,12,5,13,8,10,2,6,14,3,4,1,11,9"
14086,commdev-image-keyboard-response,177,895526,learnblock1,542.2000000476837,img/planet4_right.png,4,Community 3,NA,TRUE,j,j,NA,NA,NA,1,6,"15,7,12,5,13,8,10,2,6,14,3,4,1,11,9"
14086,commdev-image-keyboard-response,178,896777,learnblock1,673.7000000476837,img/planet1_right.png,1,Community 3,NA,TRUE,j,j,NA,NA,NA,1,6,"15,7,12,5,13,8,10,2,6,14,3,4,1,11,9"
14086,commdev-image-keyboard-response,179,898028,learnblock1,612.7000000476837,img/planet4_left.png,4,Community 3,NA,TRUE,f,f,NA,NA,NA,1,6,"15,7,12,5,13,8,10,2,6,14,3,4,1,11,9"
14086,commdev-image-keyboard-response,180,899280,learnblock1,674.6000000238419,img/planet11_left.png,11,Community 3,NA,TRUE,f,f,NA,NA,NA,1,6,"15,7,12,5,13,8,10,2,6,14,3,4,1,11,9"
14086,commdev-image-keyboard-response,181,900532,learnblock1,515.1999999284744,img/planet4_right.png,4,Community 3,NA,TRUE,j,j,NA,NA,NA,1,6,"15,7,12,5,13,8,10,2,6,14,3,4,1,11,9"
14086,commdev-image-keyboard-response,182,901784,learnblock1,550.2999999523163,img/planet11_right.png,11,Community 3,NA,TRUE,j,j,NA,NA,NA,1,6,"15,7,12,5,13,8,10,2,6,14,3,4,1,11,9"
14086,commdev-image-keyboard-response,183,903035,learnblock1,581.1000000238419,img/planet4_right.png,4,Community 3,NA,TRUE,j,j,NA,NA,NA,1,6,"15,7,12,5,13,8,10,2,6,14,3,4,1,11,9"
14086,commdev-image-keyboard-response,184,904287,learnblock1,484.60000002384186,img/planet9_right.png,9,Community 3,NA,TRUE,j,j,NA,NA,NA,1,6,"15,7,12,5,13,8,10,2,6,14,3,4,1,11,9"
14086,commdev-image-keyboard-response,185,905539,learnblock1,688.3000000715256,img/planet11_right.png,11,Community 3,NA,TRUE,j,j,NA,NA,NA,1,6,"15,7,12,5,13,8,10,2,6,14,3,4,1,11,9"
14086,commdev-image-keyboard-response,186,906790,learnblock1,623.8999999761581,img/planet1_right.png,1,Community 3,NA,TRUE,j,j,NA,NA,NA,1,6,"15,7,12,5,13,8,10,2,6,14,3,4,1,11,9"
14086,commdev-image-keyboard-response,187,908042,learnblock1,587.6000000238419,img/planet9_left.png,9,Community 3,NA,TRUE,f,f,NA,NA,NA,1,6,"15,7,12,5,13,8,10,2,6,14,3,4,1,11,9"
14086,commdev-image-keyboard-response,188,909293,learnblock1,757.5999999046326,img/planet3_left.png,3,Community 3,NA,TRUE,f,f,NA,NA,NA,1,6,"15,7,12,5,13,8,10,2,6,14,3,4,1,11,9"
14086,commdev-image-keyboard-response,189,910545,learnblock1,669.8000000715256,img/planet13_left.png,13,Community 1,NA,TRUE,f,f,NA,NA,NA,1,6,"15,7,12,5,13,8,10,2,6,14,3,4,1,11,9"
14086,commdev-image-keyboard-response,190,911797,learnblock1,571.2999999523163,img/planet3_left.png,3,Community 3,NA,TRUE,f,f,NA,NA,NA,1,6,"15,7,12,5,13,8,10,2,6,14,3,4,1,11,9"
14086,commdev-image-keyboard-response,191,913049,learnblock1,630.2999999523163,img/planet9_left.png,9,Community 3,NA,TRUE,f,f,NA,NA,NA,1,6,"15,7,12,5,13,8,10,2,6,14,3,4,1,11,9"
14086,commdev-image-keyboard-response,192,914301,learnblock1,877.8999999761581,img/planet4_right.png,4,Community 3,NA,TRUE,j,j,NA,NA,NA,1,6,"15,7,12,5,13,8,10,2,6,14,3,4,1,11,9"
14086,commdev-image-keyboard-response,193,915552,learnblock1,760,img/planet2_left.png,2,Community 2,NA,TRUE,f,f,NA,NA,NA,1,6,"15,7,12,5,13,8,10,2,6,14,3,4,1,11,9"
14086,commdev-image-keyboard-response,194,916804,learnblock1,688.8999999761581,img/planet6_left.png,6,Community 2,NA,TRUE,f,f,NA,NA,NA,1,6,"15,7,12,5,13,8,10,2,6,14,3,4,1,11,9"
14086,commdev-image-keyboard-response,195,918055,learnblock1,633.3999999761581,img/planet8_right.png,8,Community 2,NA,TRUE,j,j,NA,NA,NA,1,6,"15,7,12,5,13,8,10,2,6,14,3,4,1,11,9"
14086,commdev-image-keyboard-response,196,919307,learnblock1,746.6000000238419,img/planet5_right.png,5,Community 1,NA,TRUE,j,j,NA,NA,NA,1,6,"15,7,12,5,13,8,10,2,6,14,3,4,1,11,9"
14086,commdev-image-keyboard-response,197,920558,learnblock1,1223.7000000476837,img/planet15_right.png,15,Community 1,NA,FALSE,f,j,NA,NA,NA,1,6,"15,7,12,5,13,8,10,2,6,14,3,4,1,11,9"
14086,commdev-image-keyboard-response,198,921810,learnblock1,1068.7999999523163,img/planet12_right.png,12,Community 1,NA,TRUE,j,j,NA,NA,NA,1,6,"15,7,12,5,13,8,10,2,6,14,3,4,1,11,9"
14086,commdev-image-keyboard-response,199,923062,learnblock1,1243.1000000238419,img/planet13_right.png,13,Community 1,NA,TRUE,j,j,NA,NA,NA,1,6,"15,7,12,5,13,8,10,2,6,14,3,4,1,11,9"
14086,commdev-image-keyboard-response,200,924313,learnblock1,629.1999999284744,img/planet3_left.png,3,Community 3,NA,TRUE,f,f,NA,NA,NA,1,6,"15,7,12,5,13,8,10,2,6,14,3,4,1,11,9"
14086,commdev-image-keyboard-response,201,925564,learnblock1,669.2000000476837,img/planet13_left.png,13,Community 1,NA,TRUE,f,f,NA,NA,NA,1,6,"15,7,12,5,13,8,10,2,6,14,3,4,1,11,9"
14086,commdev-image-keyboard-response,202,926817,learnblock1,666.8000000715256,img/planet15_left.png,15,Community 1,NA,TRUE,f,f,NA,NA,NA,1,6,"15,7,12,5,13,8,10,2,6,14,3,4,1,11,9"
14086,commdev-image-keyboard-response,203,928068,learnblock1,926.6000000238419,img/planet7_left.png,7,Community 1,NA,FALSE,j,f,NA,NA,NA,1,6,"15,7,12,5,13,8,10,2,6,14,3,4,1,11,9"
14086,commdev-image-keyboard-response,204,929319,learnblock1,677.9000000953674,img/planet12_right.png,12,Community 1,NA,TRUE,j,j,NA,NA,NA,1,6,"15,7,12,5,13,8,10,2,6,14,3,4,1,11,9"
14086,commdev-image-keyboard-response,205,930571,learnblock1,723.8999999761581,img/planet5_right.png,5,Community 1,NA,TRUE,j,j,NA,NA,NA,1,6,"15,7,12,5,13,8,10,2,6,14,3,4,1,11,9"
14086,commdev-image-keyboard-response,206,931823,learnblock1,901.7000000476837,img/planet7_right.png,7,Community 1,NA,TRUE,j,j,NA,NA,NA,1,6,"15,7,12,5,13,8,10,2,6,14,3,4,1,11,9"
14086,commdev-image-keyboard-response,207,933074,learnblock1,1028,img/planet5_left.png,5,Community 1,NA,TRUE,f,f,NA,NA,NA,1,6,"15,7,12,5,13,8,10,2,6,14,3,4,1,11,9"
14086,commdev-image-keyboard-response,208,934325,learnblock1,789.1000000238419,img/planet8_left.png,8,Community 2,NA,TRUE,f,f,NA,NA,NA,1,6,"15,7,12,5,13,8,10,2,6,14,3,4,1,11,9"
14086,commdev-image-keyboard-response,209,935577,learnblock1,972.6999999284744,img/planet14_left.png,14,Community 2,NA,TRUE,f,f,NA,NA,NA,1,6,"15,7,12,5,13,8,10,2,6,14,3,4,1,11,9"
14086,commdev-image-keyboard-response,210,936828,learnblock1,910,img/planet8_left.png,8,Community 2,NA,TRUE,f,f,NA,NA,NA,1,6,"15,7,12,5,13,8,10,2,6,14,3,4,1,11,9"
14086,commdev-image-keyboard-response,211,938081,learnblock1,667.2000000476837,img/planet10_left.png,10,Community 2,NA,TRUE,f,f,NA,NA,NA,1,6,"15,7,12,5,13,8,10,2,6,14,3,4,1,11,9"
14086,commdev-image-keyboard-response,212,939332,learnblock1,758.8999999761581,img/planet8_left.png,8,Community 2,NA,TRUE,f,f,NA,NA,NA,1,6,"15,7,12,5,13,8,10,2,6,14,3,4,1,11,9"
14086,commdev-image-keyboard-response,213,940583,learnblock1,787.1000000238419,img/planet10_left.png,10,Community 2,NA,TRUE,f,f,NA,NA,NA,1,6,"15,7,12,5,13,8,10,2,6,14,3,4,1,11,9"
14086,commdev-image-keyboard-response,214,941835,learnblock1,759.5,img/planet6_right.png,6,Community 2,NA,TRUE,j,j,NA,NA,NA,1,6,"15,7,12,5,13,8,10,2,6,14,3,4,1,11,9"
14086,commdev-image-keyboard-response,215,943087,learnblock1,992.1000000238419,img/planet14_right.png,14,Community 2,NA,TRUE,j,j,NA,NA,NA,1,6,"15,7,12,5,13,8,10,2,6,14,3,4,1,11,9"
14086,commdev-image-keyboard-response,216,944339,learnblock1,707.5,img/planet6_left.png,6,Community 2,NA,TRUE,f,f,NA,NA,NA,1,6,"15,7,12,5,13,8,10,2,6,14,3,4,1,11,9"
14086,commdev-image-keyboard-response,217,945590,learnblock1,520.3000000715256,img/planet10_right.png,10,Community 2,NA,TRUE,j,j,NA,NA,NA,1,6,"15,7,12,5,13,8,10,2,6,14,3,4,1,11,9"
14086,commdev-image-keyboard-response,218,946841,learnblock1,583.6000000238419,img/planet8_right.png,8,Community 2,NA,TRUE,j,j,NA,NA,NA,1,6,"15,7,12,5,13,8,10,2,6,14,3,4,1,11,9"
14086,commdev-image-keyboard-response,219,948092,learnblock1,550.7000000476837,img/planet10_right.png,10,Community 2,NA,TRUE,j,j,NA,NA,NA,1,6,"15,7,12,5,13,8,10,2,6,14,3,4,1,11,9"
14086,commdev-image-keyboard-response,220,949344,learnblock1,489.59999990463257,img/planet8_right.png,8,Community 2,NA,TRUE,j,j,NA,NA,NA,1,6,"15,7,12,5,13,8,10,2,6,14,3,4,1,11,9"
14086,commdev-image-keyboard-response,221,950596,learnblock1,730.2000000476837,img/planet6_right.png,6,Community 2,NA,TRUE,j,j,NA,NA,NA,1,6,"15,7,12,5,13,8,10,2,6,14,3,4,1,11,9"
14086,commdev-image-keyboard-response,222,951847,learnblock1,719.6000000238419,img/planet14_left.png,14,Community 2,NA,TRUE,f,f,NA,NA,NA,1,6,"15,7,12,5,13,8,10,2,6,14,3,4,1,11,9"
14086,commdev-image-keyboard-response,223,953099,learnblock1,734.7000000476837,img/planet8_right.png,8,Community 2,NA,TRUE,j,j,NA,NA,NA,1,6,"15,7,12,5,13,8,10,2,6,14,3,4,1,11,9"
14086,commdev-image-keyboard-response,224,954351,learnblock1,635.1999999284744,img/planet5_left.png,5,Community 1,NA,TRUE,f,f,NA,NA,NA,1,6,"15,7,12,5,13,8,10,2,6,14,3,4,1,11,9"
14086,commdev-image-keyboard-response,225,955603,learnblock1,745.3000000715256,img/planet8_left.png,8,Community 2,NA,TRUE,f,f,NA,NA,NA,1,6,"15,7,12,5,13,8,10,2,6,14,3,4,1,11,9"
14086,commdev-image-keyboard-response,226,956854,learnblock1,504.10000002384186,img/planet5_left.png,5,Community 1,NA,FALSE,j,f,NA,NA,NA,1,6,"15,7,12,5,13,8,10,2,6,14,3,4,1,11,9"
14086,commdev-image-keyboard-response,227,958107,learnblock1,505.89999997615814,img/planet12_left.png,12,Community 1,NA,FALSE,j,f,NA,NA,NA,1,6,"15,7,12,5,13,8,10,2,6,14,3,4,1,11,9"
14086,commdev-image-keyboard-response,228,959369,learnblock1,534.6000000238419,img/planet15_right.png,15,Community 1,NA,TRUE,j,j,NA,NA,NA,1,6,"15,7,12,5,13,8,10,2,6,14,3,4,1,11,9"
14086,commdev-image-keyboard-response,229,960621,learnblock1,814.7999999523163,img/planet13_left.png,13,Community 1,NA,TRUE,f,f,NA,NA,NA,1,6,"15,7,12,5,13,8,10,2,6,14,3,4,1,11,9"
14086,commdev-image-keyboard-response,230,961872,learnblock1,764.8999999761581,img/planet7_right.png,7,Community 1,NA,TRUE,j,j,NA,NA,NA,1,6,"15,7,12,5,13,8,10,2,6,14,3,4,1,11,9"
14086,commdev-image-keyboard-response,231,963123,learnblock1,683.3999999761581,img/planet5_left.png,5,Community 1,NA,TRUE,f,f,NA,NA,NA,1,6,"15,7,12,5,13,8,10,2,6,14,3,4,1,11,9"
14086,commdev-image-keyboard-response,232,964375,learnblock1,576.5,img/planet7_right.png,7,Community 1,NA,TRUE,j,j,NA,NA,NA,1,6,"15,7,12,5,13,8,10,2,6,14,3,4,1,11,9"
14086,commdev-image-keyboard-response,233,965627,learnblock1,735.2000000476837,img/planet5_right.png,5,Community 1,NA,TRUE,j,j,NA,NA,NA,1,6,"15,7,12,5,13,8,10,2,6,14,3,4,1,11,9"
14086,commdev-image-keyboard-response,234,966878,learnblock1,694.8999999761581,img/planet8_right.png,8,Community 2,NA,TRUE,j,j,NA,NA,NA,1,6,"15,7,12,5,13,8,10,2,6,14,3,4,1,11,9"
14086,commdev-image-keyboard-response,235,968129,learnblock1,633.5,img/planet6_right.png,6,Community 2,NA,TRUE,j,j,NA,NA,NA,1,6,"15,7,12,5,13,8,10,2,6,14,3,4,1,11,9"
14086,commdev-image-keyboard-response,236,969380,learnblock1,584.1999999284744,img/planet8_left.png,8,Community 2,NA,TRUE,f,f,NA,NA,NA,1,6,"15,7,12,5,13,8,10,2,6,14,3,4,1,11,9"
14086,commdev-image-keyboard-response,237,970632,learnblock1,558.1999999284744,img/planet14_right.png,14,Community 2,NA,TRUE,j,j,NA,NA,NA,1,6,"15,7,12,5,13,8,10,2,6,14,3,4,1,11,9"
14086,commdev-image-keyboard-response,238,971884,learnblock1,490.8000000715256,img/planet6_right.png,6,Community 2,NA,TRUE,j,j,NA,NA,NA,1,6,"15,7,12,5,13,8,10,2,6,14,3,4,1,11,9"
14086,commdev-image-keyboard-response,239,973137,learnblock1,554.6999999284744,img/planet8_left.png,8,Community 2,NA,TRUE,f,f,NA,NA,NA,1,6,"15,7,12,5,13,8,10,2,6,14,3,4,1,11,9"
14086,commdev-image-keyboard-response,240,974395,learnblock1,702.8999999761581,img/planet14_left.png,14,Community 2,NA,TRUE,f,f,NA,NA,NA,1,6,"15,7,12,5,13,8,10,2,6,14,3,4,1,11,9"
14086,commdev-image-keyboard-response,241,975648,learnblock1,536.5,img/planet2_right.png,2,Community 2,NA,TRUE,j,j,NA,NA,NA,1,6,"15,7,12,5,13,8,10,2,6,14,3,4,1,11,9"
14086,commdev-image-keyboard-response,242,976899,learnblock1,null,img/planet14_left.png,14,Community 2,NA,FALSE,null,f,NA,NA,NA,1,6,"15,7,12,5,13,8,10,2,6,14,3,4,1,11,9"
14086,commdev-image-keyboard-response,243,978158,learnblock1,824,img/planet8_right.png,8,Community 2,NA,TRUE,j,j,NA,NA,NA,1,6,"15,7,12,5,13,8,10,2,6,14,3,4,1,11,9"
14086,commdev-image-keyboard-response,244,979409,learnblock1,749.2999999523163,img/planet10_right.png,10,Community 2,NA,TRUE,j,j,NA,NA,NA,1,6,"15,7,12,5,13,8,10,2,6,14,3,4,1,11,9"
14086,commdev-image-keyboard-response,245,980660,learnblock1,633.3999999761581,img/planet6_right.png,6,Community 2,NA,TRUE,j,j,NA,NA,NA,1,6,"15,7,12,5,13,8,10,2,6,14,3,4,1,11,9"
14086,commdev-image-keyboard-response,246,981911,learnblock1,485.3000000715256,img/planet10_right.png,10,Community 2,NA,TRUE,j,j,NA,NA,NA,1,6,"15,7,12,5,13,8,10,2,6,14,3,4,1,11,9"
14086,commdev-image-keyboard-response,247,983162,learnblock1,500.10000002384186,img/planet6_left.png,6,Community 2,NA,FALSE,j,f,NA,NA,NA,1,6,"15,7,12,5,13,8,10,2,6,14,3,4,1,11,9"
14086,commdev-image-keyboard-response,248,984414,learnblock1,553.8000000715256,img/planet8_right.png,8,Community 2,NA,TRUE,j,j,NA,NA,NA,1,6,"15,7,12,5,13,8,10,2,6,14,3,4,1,11,9"
14086,commdev-image-keyboard-response,249,985665,learnblock1,null,img/planet14_right.png,14,Community 2,NA,FALSE,null,j,NA,NA,NA,1,6,"15,7,12,5,13,8,10,2,6,14,3,4,1,11,9"
14086,commdev-image-keyboard-response,250,986917,learnblock1,null,img/planet2_right.png,2,Community 2,NA,FALSE,null,j,NA,NA,NA,1,6,"15,7,12,5,13,8,10,2,6,14,3,4,1,11,9"
14086,commdev-image-keyboard-response,251,988168,learnblock1,null,img/planet10_right.png,10,Community 2,NA,FALSE,null,j,NA,NA,NA,1,6,"15,7,12,5,13,8,10,2,6,14,3,4,1,11,9"
14086,commdev-image-keyboard-response,252,989420,learnblock1,null,img/planet14_right.png,14,Community 2,NA,FALSE,null,j,NA,NA,NA,1,6,"15,7,12,5,13,8,10,2,6,14,3,4,1,11,9"
14086,commdev-image-keyboard-response,253,990672,learnblock1,627.4000000953674,img/planet8_left.png,8,Community 2,NA,TRUE,f,f,NA,NA,NA,1,6,"15,7,12,5,13,8,10,2,6,14,3,4,1,11,9"
14086,commdev-image-keyboard-response,254,991924,learnblock1,null,img/planet6_right.png,6,Community 2,NA,FALSE,null,j,NA,NA,NA,1,6,"15,7,12,5,13,8,10,2,6,14,3,4,1,11,9"
14086,commdev-image-keyboard-response,255,993176,learnblock1,712.3999999761581,img/planet14_right.png,14,Community 2,NA,TRUE,j,j,NA,NA,NA,1,6,"15,7,12,5,13,8,10,2,6,14,3,4,1,11,9"
14086,commdev-image-keyboard-response,256,994430,learnblock1,566.8999999761581,img/planet2_left.png,2,Community 2,NA,TRUE,f,f,NA,NA,NA,1,6,"15,7,12,5,13,8,10,2,6,14,3,4,1,11,9"
14086,commdev-image-keyboard-response,257,995681,learnblock1,761.5,img/planet6_left.png,6,Community 2,NA,TRUE,f,f,NA,NA,NA,1,6,"15,7,12,5,13,8,10,2,6,14,3,4,1,11,9"
14086,commdev-image-keyboard-response,258,996933,learnblock1,551.2000000476837,img/planet8_left.png,8,Community 2,NA,FALSE,j,f,NA,NA,NA,1,6,"15,7,12,5,13,8,10,2,6,14,3,4,1,11,9"
14086,commdev-image-keyboard-response,259,998185,learnblock1,521.1000000238419,img/planet6_right.png,6,Community 2,NA,TRUE,j,j,NA,NA,NA,1,6,"15,7,12,5,13,8,10,2,6,14,3,4,1,11,9"
14086,commdev-image-keyboard-response,260,999437,learnblock1,null,img/planet2_right.png,2,Community 2,NA,FALSE,null,j,NA,NA,NA,1,6,"15,7,12,5,13,8,10,2,6,14,3,4,1,11,9"
14086,commdev-image-keyboard-response,261,1000689,learnblock1,751.6999999284744,img/planet10_left.png,10,Community 2,NA,TRUE,f,f,NA,NA,NA,1,6,"15,7,12,5,13,8,10,2,6,14,3,4,1,11,9"
14086,commdev-image-keyboard-response,262,1001940,learnblock1,1222,img/planet2_left.png,2,Community 2,NA,TRUE,f,f,NA,NA,NA,1,6,"15,7,12,5,13,8,10,2,6,14,3,4,1,11,9"
14086,commdev-image-keyboard-response,263,1003192,learnblock1,735.1000000238419,img/planet4_left.png,4,Community 3,NA,FALSE,j,f,NA,NA,NA,1,6,"15,7,12,5,13,8,10,2,6,14,3,4,1,11,9"
14086,commdev-image-keyboard-response,264,1004444,learnblock1,615.5,img/planet1_right.png,1,Community 3,NA,TRUE,j,j,NA,NA,NA,1,6,"15,7,12,5,13,8,10,2,6,14,3,4,1,11,9"
14086,commdev-image-keyboard-response,265,1005695,learnblock1,772.6000000238419,img/planet4_right.png,4,Community 3,NA,TRUE,j,j,NA,NA,NA,1,6,"15,7,12,5,13,8,10,2,6,14,3,4,1,11,9"
14086,commdev-image-keyboard-response,266,1006947,learnblock1,658.2000000476837,img/planet9_right.png,9,Community 3,NA,TRUE,j,j,NA,NA,NA,1,6,"15,7,12,5,13,8,10,2,6,14,3,4,1,11,9"
14086,commdev-image-keyboard-response,267,1008199,learnblock1,725,img/planet3_left.png,3,Community 3,NA,TRUE,f,f,NA,NA,NA,1,6,"15,7,12,5,13,8,10,2,6,14,3,4,1,11,9"
14086,commdev-image-keyboard-response,268,1009450,learnblock1,813.8000000715256,img/planet11_left.png,11,Community 3,NA,TRUE,f,f,NA,NA,NA,1,6,"15,7,12,5,13,8,10,2,6,14,3,4,1,11,9"
14086,commdev-image-keyboard-response,269,1010701,learnblock1,null,img/planet3_left.png,3,Community 3,NA,FALSE,null,f,NA,NA,NA,1,6,"15,7,12,5,13,8,10,2,6,14,3,4,1,11,9"
14086,commdev-image-keyboard-response,270,1011962,learnblock1,473.60000002384186,img/planet9_left.png,9,Community 3,NA,TRUE,f,f,NA,NA,NA,1,6,"15,7,12,5,13,8,10,2,6,14,3,4,1,11,9"
14086,commdev-image-keyboard-response,271,1013213,learnblock1,588.8999999761581,img/planet11_left.png,11,Community 3,NA,TRUE,f,f,NA,NA,NA,1,6,"15,7,12,5,13,8,10,2,6,14,3,4,1,11,9"
14086,commdev-image-keyboard-response,272,1014464,learnblock1,1032.2000000476837,img/planet3_left.png,3,Community 3,NA,TRUE,f,f,NA,NA,NA,1,6,"15,7,12,5,13,8,10,2,6,14,3,4,1,11,9"
14086,commdev-image-keyboard-response,273,1015715,learnblock1,846.3999999761581,img/planet1_left.png,1,Community 3,NA,TRUE,f,f,NA,NA,NA,1,6,"15,7,12,5,13,8,10,2,6,14,3,4,1,11,9"
14086,commdev-image-keyboard-response,274,1016967,learnblock1,700.2000000476837,img/planet9_right.png,9,Community 3,NA,TRUE,j,j,NA,NA,NA,1,6,"15,7,12,5,13,8,10,2,6,14,3,4,1,11,9"
14086,commdev-image-keyboard-response,275,1018219,learnblock1,976.5,img/planet11_right.png,11,Community 3,NA,TRUE,j,j,NA,NA,NA,1,6,"15,7,12,5,13,8,10,2,6,14,3,4,1,11,9"
14086,commdev-image-keyboard-response,276,1019478,learnblock1,788.8999999761581,img/planet1_left.png,1,Community 3,NA,TRUE,f,f,NA,NA,NA,1,6,"15,7,12,5,13,8,10,2,6,14,3,4,1,11,9"
14086,commdev-image-keyboard-response,277,1020730,learnblock1,null,img/planet4_left.png,4,Community 3,NA,FALSE,null,f,NA,NA,NA,1,6,"15,7,12,5,13,8,10,2,6,14,3,4,1,11,9"
14086,commdev-image-keyboard-response,278,1021981,learnblock1,221,img/planet2_right.png,2,Community 2,NA,FALSE,f,j,NA,NA,NA,1,6,"15,7,12,5,13,8,10,2,6,14,3,4,1,11,9"
14086,commdev-image-keyboard-response,279,1023233,learnblock1,898.1999999284744,img/planet4_right.png,4,Community 3,NA,TRUE,j,j,NA,NA,NA,1,6,"15,7,12,5,13,8,10,2,6,14,3,4,1,11,9"
14086,commdev-image-keyboard-response,280,1024484,learnblock1,716.7000000476837,img/planet1_left.png,1,Community 3,NA,TRUE,f,f,NA,NA,NA,1,6,"15,7,12,5,13,8,10,2,6,14,3,4,1,11,9"
14086,commdev-image-keyboard-response,281,1025736,learnblock1,693.8999999761581,img/planet11_left.png,11,Community 3,NA,TRUE,f,f,NA,NA,NA,1,6,"15,7,12,5,13,8,10,2,6,14,3,4,1,11,9"
14086,commdev-image-keyboard-response,282,1026988,learnblock1,832.3999999761581,img/planet3_left.png,3,Community 3,NA,TRUE,f,f,NA,NA,NA,1,6,"15,7,12,5,13,8,10,2,6,14,3,4,1,11,9"
14086,commdev-image-keyboard-response,283,1028240,learnblock1,901,img/planet9_left.png,9,Community 3,NA,TRUE,f,f,NA,NA,NA,1,6,"15,7,12,5,13,8,10,2,6,14,3,4,1,11,9"
14086,commdev-image-keyboard-response,284,1029492,learnblock1,690.3999999761581,img/planet11_right.png,11,Community 3,NA,TRUE,j,j,NA,NA,NA,1,6,"15,7,12,5,13,8,10,2,6,14,3,4,1,11,9"
14086,commdev-image-keyboard-response,285,1030743,learnblock1,881,img/planet3_left.png,3,Community 3,NA,TRUE,f,f,NA,NA,NA,1,6,"15,7,12,5,13,8,10,2,6,14,3,4,1,11,9"
14086,commdev-image-keyboard-response,286,1031994,learnblock1,1235.5,img/planet11_left.png,11,Community 3,NA,TRUE,f,f,NA,NA,NA,1,6,"15,7,12,5,13,8,10,2,6,14,3,4,1,11,9"
14086,commdev-image-keyboard-response,287,1033247,learnblock1,null,img/planet3_left.png,3,Community 3,NA,FALSE,null,f,NA,NA,NA,1,6,"15,7,12,5,13,8,10,2,6,14,3,4,1,11,9"
14086,commdev-image-keyboard-response,288,1034498,learnblock1,64.89999997615814,img/planet13_right.png,13,Community 1,NA,TRUE,j,j,NA,NA,NA,1,6,"15,7,12,5,13,8,10,2,6,14,3,4,1,11,9"
14086,commdev-image-keyboard-response,289,1035750,learnblock1,312.5,img/planet15_right.png,15,Community 1,NA,TRUE,j,j,NA,NA,NA,1,6,"15,7,12,5,13,8,10,2,6,14,3,4,1,11,9"
14086,commdev-image-keyboard-response,290,1037001,learnblock1,579.3999999761581,img/planet13_right.png,13,Community 1,NA,TRUE,j,j,NA,NA,NA,1,6,"15,7,12,5,13,8,10,2,6,14,3,4,1,11,9"
14086,commdev-image-keyboard-response,291,1038252,learnblock1,null,img/planet12_left.png,12,Community 1,NA,FALSE,null,f,NA,NA,NA,1,6,"15,7,12,5,13,8,10,2,6,14,3,4,1,11,9"
14086,commdev-image-keyboard-response,292,1039504,learnblock1,977.7999999523163,img/planet5_right.png,5,Community 1,NA,TRUE,j,j,NA,NA,NA,1,6,"15,7,12,5,13,8,10,2,6,14,3,4,1,11,9"
14086,commdev-image-keyboard-response,293,1040755,learnblock1,1136.7999999523163,img/planet12_right.png,12,Community 1,NA,TRUE,j,j,NA,NA,NA,1,6,"15,7,12,5,13,8,10,2,6,14,3,4,1,11,9"
14086,commdev-image-keyboard-response,294,1042007,learnblock1,884.0999999046326,img/planet15_right.png,15,Community 1,NA,TRUE,j,j,NA,NA,NA,1,6,"15,7,12,5,13,8,10,2,6,14,3,4,1,11,9"
14086,commdev-image-keyboard-response,295,1043258,learnblock1,790.2000000476837,img/planet7_left.png,7,Community 1,NA,TRUE,f,f,NA,NA,NA,1,6,"15,7,12,5,13,8,10,2,6,14,3,4,1,11,9"
14086,commdev-image-keyboard-response,296,1044509,learnblock1,881.3000000715256,img/planet12_left.png,12,Community 1,NA,TRUE,f,f,NA,NA,NA,1,6,"15,7,12,5,13,8,10,2,6,14,3,4,1,11,9"
14086,commdev-image-keyboard-response,297,1045761,learnblock1,1039.1000000238419,img/planet7_left.png,7,Community 1,NA,TRUE,f,f,NA,NA,NA,1,6,"15,7,12,5,13,8,10,2,6,14,3,4,1,11,9"
14086,commdev-image-keyboard-response,298,1047014,learnblock1,823.1000000238419,img/planet13_right.png,13,Community 1,NA,TRUE,j,j,NA,NA,NA,1,6,"15,7,12,5,13,8,10,2,6,14,3,4,1,11,9"
14086,commdev-image-keyboard-response,299,1048266,learnblock1,759.1000000238419,img/planet15_left.png,15,Community 1,NA,FALSE,j,f,NA,NA,NA,1,6,"15,7,12,5,13,8,10,2,6,14,3,4,1,11,9"
14086,commdev-image-keyboard-response,300,1049517,learnblock1,1033,img/planet7_right.png,7,Community 1,NA,TRUE,j,j,NA,NA,NA,1,6,"15,7,12,5,13,8,10,2,6,14,3,4,1,11,9"
14086,commdev-image-keyboard-response,301,1050768,learnblock1,841.9000000953674,img/planet12_right.png,12,Community 1,NA,TRUE,j,j,NA,NA,NA,1,6,"15,7,12,5,13,8,10,2,6,14,3,4,1,11,9"
14086,commdev-image-keyboard-response,302,1052019,learnblock1,762.1000000238419,img/planet5_right.png,5,Community 1,NA,TRUE,j,j,NA,NA,NA,1,6,"15,7,12,5,13,8,10,2,6,14,3,4,1,11,9"
14086,commdev-image-keyboard-response,303,1053272,learnblock1,812.5,img/planet7_left.png,7,Community 1,NA,TRUE,f,f,NA,NA,NA,1,6,"15,7,12,5,13,8,10,2,6,14,3,4,1,11,9"
14086,commdev-image-keyboard-response,304,1054523,learnblock1,649.6999999284744,img/planet5_left.png,5,Community 1,NA,FALSE,j,f,NA,NA,NA,1,6,"15,7,12,5,13,8,10,2,6,14,3,4,1,11,9"
14086,commdev-image-keyboard-response,305,1055774,learnblock1,899.2999999523163,img/planet12_left.png,12,Community 1,NA,TRUE,f,f,NA,NA,NA,1,6,"15,7,12,5,13,8,10,2,6,14,3,4,1,11,9"
14086,commdev-image-keyboard-response,306,1057025,learnblock1,909.3000000715256,img/planet7_left.png,7,Community 1,NA,TRUE,f,f,NA,NA,NA,1,6,"15,7,12,5,13,8,10,2,6,14,3,4,1,11,9"
14086,commdev-image-keyboard-response,307,1058277,learnblock1,662.2000000476837,img/planet5_right.png,5,Community 1,NA,TRUE,j,j,NA,NA,NA,1,6,"15,7,12,5,13,8,10,2,6,14,3,4,1,11,9"
14086,commdev-image-keyboard-response,308,1059528,learnblock1,954.6000000238419,img/planet12_right.png,12,Community 1,NA,TRUE,j,j,NA,NA,NA,1,6,"15,7,12,5,13,8,10,2,6,14,3,4,1,11,9"
14086,commdev-image-keyboard-response,309,1060779,learnblock1,1152.1999999284744,img/planet15_right.png,15,Community 1,NA,FALSE,f,j,NA,NA,NA,1,6,"15,7,12,5,13,8,10,2,6,14,3,4,1,11,9"
14086,commdev-image-keyboard-response,310,1062032,learnblock1,null,img/planet12_right.png,12,Community 1,NA,FALSE,null,j,NA,NA,NA,1,6,"15,7,12,5,13,8,10,2,6,14,3,4,1,11,9"
14086,commdev-image-keyboard-response,311,1063287,learnblock1,624.5,img/planet5_left.png,5,Community 1,NA,FALSE,j,f,NA,NA,NA,1,6,"15,7,12,5,13,8,10,2,6,14,3,4,1,11,9"
14086,commdev-image-keyboard-response,312,1064538,learnblock1,595.7000000476837,img/planet8_right.png,8,Community 2,NA,TRUE,j,j,NA,NA,NA,1,6,"15,7,12,5,13,8,10,2,6,14,3,4,1,11,9"
14086,commdev-image-keyboard-response,313,1065790,learnblock1,null,img/planet14_right.png,14,Community 2,NA,FALSE,null,j,NA,NA,NA,1,6,"15,7,12,5,13,8,10,2,6,14,3,4,1,11,9"
14086,commdev-image-keyboard-response,314,1067042,learnblock1,1015.6000000238419,img/planet10_right.png,10,Community 2,NA,TRUE,j,j,NA,NA,NA,1,6,"15,7,12,5,13,8,10,2,6,14,3,4,1,11,9"
14086,commdev-image-keyboard-response,315,1068294,learnblock1,674.5,img/planet2_left.png,2,Community 2,NA,TRUE,f,f,NA,NA,NA,1,6,"15,7,12,5,13,8,10,2,6,14,3,4,1,11,9"
14086,commdev-image-keyboard-response,316,1069545,learnblock1,566.8999999761581,img/planet10_right.png,10,Community 2,NA,TRUE,j,j,NA,NA,NA,1,6,"15,7,12,5,13,8,10,2,6,14,3,4,1,11,9"
14086,commdev-image-keyboard-response,317,1070811,learnblock1,684.5,img/planet2_left.png,2,Community 2,NA,TRUE,f,f,NA,NA,NA,1,6,"15,7,12,5,13,8,10,2,6,14,3,4,1,11,9"
14086,commdev-image-keyboard-response,318,1072064,learnblock1,649.0999999046326,img/planet6_right.png,6,Community 2,NA,TRUE,j,j,NA,NA,NA,1,6,"15,7,12,5,13,8,10,2,6,14,3,4,1,11,9"
14086,commdev-image-keyboard-response,319,1073315,learnblock1,510.40000009536743,img/planet10_left.png,10,Community 2,NA,TRUE,f,f,NA,NA,NA,1,6,"15,7,12,5,13,8,10,2,6,14,3,4,1,11,9"
14086,commdev-image-keyboard-response,320,1074576,learnblock1,817.8999999761581,img/planet2_left.png,2,Community 2,NA,FALSE,j,f,NA,NA,NA,1,6,"15,7,12,5,13,8,10,2,6,14,3,4,1,11,9"
14086,commdev-image-keyboard-response,321,1075828,learnblock1,567.2999999523163,img/planet6_left.png,6,Community 2,NA,FALSE,j,f,NA,NA,NA,1,6,"15,7,12,5,13,8,10,2,6,14,3,4,1,11,9"
14086,commdev-image-keyboard-response,322,1077079,learnblock1,null,img/planet14_right.png,14,Community 2,NA,FALSE,null,j,NA,NA,NA,1,6,"15,7,12,5,13,8,10,2,6,14,3,4,1,11,9"
14086,commdev-image-keyboard-response,323,1078339,learnblock1,null,img/planet10_left.png,10,Community 2,NA,FALSE,null,f,NA,NA,NA,1,6,"15,7,12,5,13,8,10,2,6,14,3,4,1,11,9"
14086,commdev-image-keyboard-response,324,1079590,learnblock1,null,img/planet8_left.png,8,Community 2,NA,FALSE,null,f,NA,NA,NA,1,6,"15,7,12,5,13,8,10,2,6,14,3,4,1,11,9"
14086,commdev-image-keyboard-response,325,1080842,learnblock1,17.199999928474426,img/planet14_left.png,14,Community 2,NA,TRUE,f,f,NA,NA,NA,1,6,"15,7,12,5,13,8,10,2,6,14,3,4,1,11,9"
14086,commdev-image-keyboard-response,326,1082094,learnblock1,647.2000000476837,img/planet10_right.png,10,Community 2,NA,FALSE,f,j,NA,NA,NA,1,6,"15,7,12,5,13,8,10,2,6,14,3,4,1,11,9"
14086,commdev-image-keyboard-response,327,1083345,learnblock1,959.1000000238419,img/planet14_right.png,14,Community 2,NA,TRUE,j,j,NA,NA,NA,1,6,"15,7,12,5,13,8,10,2,6,14,3,4,1,11,9"
14086,commdev-image-keyboard-response,328,1084596,learnblock1,672.2999999523163,img/planet8_left.png,8,Community 2,NA,TRUE,f,f,NA,NA,NA,1,6,"15,7,12,5,13,8,10,2,6,14,3,4,1,11,9"
14086,commdev-image-keyboard-response,329,1085848,learnblock1,575.6000000238419,img/planet5_right.png,5,Community 1,NA,TRUE,j,j,NA,NA,NA,1,6,"15,7,12,5,13,8,10,2,6,14,3,4,1,11,9"
14086,commdev-image-keyboard-response,330,1087100,learnblock1,601.2999999523163,img/planet12_right.png,12,Community 1,NA,TRUE,j,j,NA,NA,NA,1,6,"15,7,12,5,13,8,10,2,6,14,3,4,1,11,9"
14086,commdev-image-keyboard-response,331,1088351,learnblock1,710.0999999046326,img/planet7_right.png,7,Community 1,NA,TRUE,j,j,NA,NA,NA,1,6,"15,7,12,5,13,8,10,2,6,14,3,4,1,11,9"
14086,commdev-image-keyboard-response,332,1089602,learnblock1,705.7000000476837,img/planet15_left.png,15,Community 1,NA,TRUE,f,f,NA,NA,NA,1,6,"15,7,12,5,13,8,10,2,6,14,3,4,1,11,9"
14086,commdev-image-keyboard-response,333,1090854,learnblock1,582.9000000953674,img/planet5_right.png,5,Community 1,NA,TRUE,j,j,NA,NA,NA,1,6,"15,7,12,5,13,8,10,2,6,14,3,4,1,11,9"
14086,commdev-image-keyboard-response,334,1092105,learnblock1,816.8000000715256,img/planet12_left.png,12,Community 1,NA,TRUE,f,f,NA,NA,NA,1,6,"15,7,12,5,13,8,10,2,6,14,3,4,1,11,9"
14086,commdev-image-keyboard-response,335,1093357,learnblock1,837.1999999284744,img/planet13_left.png,13,Community 1,NA,TRUE,f,f,NA,NA,NA,1,6,"15,7,12,5,13,8,10,2,6,14,3,4,1,11,9"
14086,commdev-image-keyboard-response,336,1094608,learnblock1,555.9000000953674,img/planet12_right.png,12,Community 1,NA,TRUE,j,j,NA,NA,NA,1,6,"15,7,12,5,13,8,10,2,6,14,3,4,1,11,9"
14086,commdev-image-keyboard-response,337,1095860,learnblock1,497.5,img/planet15_left.png,15,Community 1,NA,TRUE,f,f,NA,NA,NA,1,6,"15,7,12,5,13,8,10,2,6,14,3,4,1,11,9"
14086,commdev-image-keyboard-response,338,1097111,learnblock1,771.3999999761581,img/planet7_right.png,7,Community 1,NA,TRUE,j,j,NA,NA,NA,1,6,"15,7,12,5,13,8,10,2,6,14,3,4,1,11,9"
14086,commdev-image-keyboard-response,339,1098362,learnblock1,677.5999999046326,img/planet12_left.png,12,Community 1,NA,TRUE,f,f,NA,NA,NA,1,6,"15,7,12,5,13,8,10,2,6,14,3,4,1,11,9"
14086,commdev-image-keyboard-response,340,1099614,learnblock1,610.1000000238419,img/planet5_right.png,5,Community 1,NA,TRUE,j,j,NA,NA,NA,1,6,"15,7,12,5,13,8,10,2,6,14,3,4,1,11,9"
14086,commdev-image-keyboard-response,341,1100865,learnblock1,701.3999999761581,img/planet8_right.png,8,Community 2,NA,TRUE,j,j,NA,NA,NA,1,6,"15,7,12,5,13,8,10,2,6,14,3,4,1,11,9"
14086,commdev-image-keyboard-response,342,1102116,learnblock1,544.2999999523163,img/planet5_left.png,5,Community 1,NA,TRUE,f,f,NA,NA,NA,1,6,"15,7,12,5,13,8,10,2,6,14,3,4,1,11,9"
14086,commdev-image-keyboard-response,343,1103368,learnblock1,767.1000000238419,img/planet12_left.png,12,Community 1,NA,TRUE,f,f,NA,NA,NA,1,6,"15,7,12,5,13,8,10,2,6,14,3,4,1,11,9"
14086,commdev-image-keyboard-response,344,1104619,learnblock1,632.5,img/planet7_right.png,7,Community 1,NA,TRUE,j,j,NA,NA,NA,1,6,"15,7,12,5,13,8,10,2,6,14,3,4,1,11,9"
14086,commdev-image-keyboard-response,345,1105870,learnblock1,718.6000000238419,img/planet5_right.png,5,Community 1,NA,TRUE,j,j,NA,NA,NA,1,6,"15,7,12,5,13,8,10,2,6,14,3,4,1,11,9"
14086,commdev-image-keyboard-response,346,1107122,learnblock1,690.1999999284744,img/planet15_left.png,15,Community 1,NA,TRUE,f,f,NA,NA,NA,1,6,"15,7,12,5,13,8,10,2,6,14,3,4,1,11,9"
14086,commdev-image-keyboard-response,347,1108374,learnblock1,840.6999999284744,img/planet5_left.png,5,Community 1,NA,TRUE,f,f,NA,NA,NA,1,6,"15,7,12,5,13,8,10,2,6,14,3,4,1,11,9"
14086,commdev-image-keyboard-response,348,1109626,learnblock1,854.3999999761581,img/planet15_left.png,15,Community 1,NA,TRUE,f,f,NA,NA,NA,1,6,"15,7,12,5,13,8,10,2,6,14,3,4,1,11,9"
14086,commdev-image-keyboard-response,349,1110878,learnblock1,710.6000000238419,img/planet12_right.png,12,Community 1,NA,TRUE,j,j,NA,NA,NA,1,6,"15,7,12,5,13,8,10,2,6,14,3,4,1,11,9"
14086,commdev-image-keyboard-response,350,1112129,learnblock1,604.5,img/planet13_left.png,13,Community 1,NA,TRUE,f,f,NA,NA,NA,1,6,"15,7,12,5,13,8,10,2,6,14,3,4,1,11,9"
14086,commdev-image-keyboard-response,351,1113380,learnblock1,626.7000000476837,img/planet12_left.png,12,Community 1,NA,TRUE,f,f,NA,NA,NA,1,6,"15,7,12,5,13,8,10,2,6,14,3,4,1,11,9"
14086,commdev-image-keyboard-response,352,1114632,learnblock1,793.2999999523163,img/planet7_left.png,7,Community 1,NA,FALSE,j,f,NA,NA,NA,1,6,"15,7,12,5,13,8,10,2,6,14,3,4,1,11,9"
14086,commdev-image-keyboard-response,353,1115883,learnblock1,null,img/planet12_left.png,12,Community 1,NA,FALSE,null,f,NA,NA,NA,1,6,"15,7,12,5,13,8,10,2,6,14,3,4,1,11,9"
14086,commdev-image-keyboard-response,354,1117135,learnblock1,null,img/planet5_left.png,5,Community 1,NA,FALSE,null,f,NA,NA,NA,1,6,"15,7,12,5,13,8,10,2,6,14,3,4,1,11,9"
14086,commdev-image-keyboard-response,355,1118387,learnblock1,766.1000000238419,img/planet12_right.png,12,Community 1,NA,TRUE,j,j,NA,NA,NA,1,6,"15,7,12,5,13,8,10,2,6,14,3,4,1,11,9"
14086,commdev-image-keyboard-response,356,1119639,learnblock1,634.6000000238419,img/planet5_left.png,5,Community 1,NA,TRUE,f,f,NA,NA,NA,1,6,"15,7,12,5,13,8,10,2,6,14,3,4,1,11,9"
14086,commdev-image-keyboard-response,357,1120890,learnblock1,750.7000000476837,img/planet12_right.png,12,Community 1,NA,TRUE,j,j,NA,NA,NA,1,6,"15,7,12,5,13,8,10,2,6,14,3,4,1,11,9"
14086,commdev-image-keyboard-response,358,1122142,learnblock1,875.5,img/planet7_right.png,7,Community 1,NA,TRUE,j,j,NA,NA,NA,1,6,"15,7,12,5,13,8,10,2,6,14,3,4,1,11,9"
14086,commdev-image-keyboard-response,359,1123393,learnblock1,1061,img/planet12_right.png,12,Community 1,NA,TRUE,j,j,NA,NA,NA,1,6,"15,7,12,5,13,8,10,2,6,14,3,4,1,11,9"
14086,commdev-image-keyboard-response,360,1124644,learnblock1,1115.1999999284744,img/planet15_left.png,15,Community 1,NA,TRUE,f,f,NA,NA,NA,1,6,"15,7,12,5,13,8,10,2,6,14,3,4,1,11,9"
14086,commdev-image-keyboard-response,361,1125895,learnblock1,687.6999999284744,img/planet13_right.png,13,Community 1,NA,TRUE,j,j,NA,NA,NA,1,6,"15,7,12,5,13,8,10,2,6,14,3,4,1,11,9"
14086,commdev-image-keyboard-response,362,1127147,learnblock1,797.0999999046326,img/planet3_right.png,3,Community 3,NA,TRUE,j,j,NA,NA,NA,1,6,"15,7,12,5,13,8,10,2,6,14,3,4,1,11,9"
14086,commdev-image-keyboard-response,363,1128398,learnblock1,721.3000000715256,img/planet1_right.png,1,Community 3,NA,TRUE,j,j,NA,NA,NA,1,6,"15,7,12,5,13,8,10,2,6,14,3,4,1,11,9"
14086,commdev-image-keyboard-response,364,1129650,learnblock1,814.2999999523163,img/planet3_left.png,3,Community 3,NA,TRUE,f,f,NA,NA,NA,1,6,"15,7,12,5,13,8,10,2,6,14,3,4,1,11,9"
14086,commdev-image-keyboard-response,365,1130901,learnblock1,597.4000000953674,img/planet1_right.png,1,Community 3,NA,TRUE,j,j,NA,NA,NA,1,6,"15,7,12,5,13,8,10,2,6,14,3,4,1,11,9"
14086,commdev-image-keyboard-response,366,1132152,learnblock1,571,img/planet9_right.png,9,Community 3,NA,FALSE,f,j,NA,NA,NA,1,6,"15,7,12,5,13,8,10,2,6,14,3,4,1,11,9"
14086,commdev-image-keyboard-response,367,1133404,learnblock1,472,img/planet4_right.png,4,Community 3,NA,TRUE,j,j,NA,NA,NA,1,6,"15,7,12,5,13,8,10,2,6,14,3,4,1,11,9"
14086,commdev-image-keyboard-response,368,1134655,learnblock1,827.0999999046326,img/planet1_right.png,1,Community 3,NA,FALSE,f,j,NA,NA,NA,1,6,"15,7,12,5,13,8,10,2,6,14,3,4,1,11,9"
14086,commdev-image-keyboard-response,369,1135907,learnblock1,628.3000000715256,img/planet11_left.png,11,Community 3,NA,TRUE,f,f,NA,NA,NA,1,6,"15,7,12,5,13,8,10,2,6,14,3,4,1,11,9"
14086,commdev-image-keyboard-response,370,1137158,learnblock1,483.60000002384186,img/planet1_right.png,1,Community 3,NA,TRUE,j,j,NA,NA,NA,1,6,"15,7,12,5,13,8,10,2,6,14,3,4,1,11,9"
14086,commdev-image-keyboard-response,371,1138410,learnblock1,842.1999999284744,img/planet11_right.png,11,Community 3,NA,TRUE,j,j,NA,NA,NA,1,6,"15,7,12,5,13,8,10,2,6,14,3,4,1,11,9"
14086,commdev-image-keyboard-response,372,1139661,learnblock1,575.5,img/planet1_right.png,1,Community 3,NA,FALSE,f,j,NA,NA,NA,1,6,"15,7,12,5,13,8,10,2,6,14,3,4,1,11,9"
14086,commdev-image-keyboard-response,373,1140913,learnblock1,732.3999999761581,img/planet4_right.png,4,Community 3,NA,TRUE,j,j,NA,NA,NA,1,6,"15,7,12,5,13,8,10,2,6,14,3,4,1,11,9"
14086,commdev-image-keyboard-response,374,1142170,learnblock1,755,img/planet1_left.png,1,Community 3,NA,TRUE,f,f,NA,NA,NA,1,6,"15,7,12,5,13,8,10,2,6,14,3,4,1,11,9"
14086,commdev-image-keyboard-response,375,1143421,learnblock1,836.5999999046326,img/planet9_left.png,9,Community 3,NA,TRUE,f,f,NA,NA,NA,1,6,"15,7,12,5,13,8,10,2,6,14,3,4,1,11,9"
14086,commdev-image-keyboard-response,376,1144673,learnblock1,878.7000000476837,img/planet3_left.png,3,Community 3,NA,TRUE,f,f,NA,NA,NA,1,6,"15,7,12,5,13,8,10,2,6,14,3,4,1,11,9"
14086,commdev-image-keyboard-response,377,1145925,learnblock1,742.7999999523163,img/planet1_right.png,1,Community 3,NA,TRUE,j,j,NA,NA,NA,1,6,"15,7,12,5,13,8,10,2,6,14,3,4,1,11,9"
14086,commdev-image-keyboard-response,378,1147176,learnblock1,651.4000000953674,img/planet9_right.png,9,Community 3,NA,TRUE,j,j,NA,NA,NA,1,6,"15,7,12,5,13,8,10,2,6,14,3,4,1,11,9"
14086,commdev-image-keyboard-response,379,1148429,learnblock1,760.3999999761581,img/planet11_right.png,11,Community 3,NA,TRUE,j,j,NA,NA,NA,1,6,"15,7,12,5,13,8,10,2,6,14,3,4,1,11,9"
14086,commdev-image-keyboard-response,380,1149680,learnblock1,951.6000000238419,img/planet9_right.png,9,Community 3,NA,TRUE,j,j,NA,NA,NA,1,6,"15,7,12,5,13,8,10,2,6,14,3,4,1,11,9"
14086,commdev-image-keyboard-response,381,1150931,learnblock1,746.7000000476837,img/planet11_right.png,11,Community 3,NA,TRUE,j,j,NA,NA,NA,1,6,"15,7,12,5,13,8,10,2,6,14,3,4,1,11,9"
14086,commdev-image-keyboard-response,382,1152183,learnblock1,null,img/planet9_right.png,9,Community 3,NA,FALSE,null,j,NA,NA,NA,1,6,"15,7,12,5,13,8,10,2,6,14,3,4,1,11,9"
14086,commdev-image-keyboard-response,383,1153434,learnblock1,null,img/planet4_right.png,4,Community 3,NA,FALSE,null,j,NA,NA,NA,1,6,"15,7,12,5,13,8,10,2,6,14,3,4,1,11,9"
14086,commdev-image-keyboard-response,384,1154686,learnblock1,null,img/planet11_right.png,11,Community 3,NA,FALSE,null,j,NA,NA,NA,1,6,"15,7,12,5,13,8,10,2,6,14,3,4,1,11,9"
14086,commdev-image-keyboard-response,385,1155937,learnblock1,null,img/planet4_right.png,4,Community 3,NA,FALSE,null,j,NA,NA,NA,1,6,"15,7,12,5,13,8,10,2,6,14,3,4,1,11,9"
14086,commdev-image-keyboard-response,386,1157188,learnblock1,null,img/planet11_left.png,11,Community 3,NA,FALSE,null,f,NA,NA,NA,1,6,"15,7,12,5,13,8,10,2,6,14,3,4,1,11,9"
14086,commdev-image-keyboard-response,387,1158440,learnblock1,null,img/planet4_right.png,4,Community 3,NA,FALSE,null,j,NA,NA,NA,1,6,"15,7,12,5,13,8,10,2,6,14,3,4,1,11,9"
14086,commdev-image-keyboard-response,388,1159692,learnblock1,770.7000000476837,img/planet1_right.png,1,Community 3,NA,TRUE,j,j,NA,NA,NA,1,6,"15,7,12,5,13,8,10,2,6,14,3,4,1,11,9"
14086,commdev-image-keyboard-response,389,1160944,learnblock1,623,img/planet9_left.png,9,Community 3,NA,TRUE,f,f,NA,NA,NA,1,6,"15,7,12,5,13,8,10,2,6,14,3,4,1,11,9"
14086,commdev-image-keyboard-response,390,1162195,learnblock1,767.6000000238419,img/planet3_left.png,3,Community 3,NA,TRUE,f,f,NA,NA,NA,1,6,"15,7,12,5,13,8,10,2,6,14,3,4,1,11,9"
14086,commdev-image-keyboard-response,391,1163446,learnblock1,810.1000000238419,img/planet13_left.png,13,Community 1,NA,FALSE,j,f,NA,NA,NA,1,6,"15,7,12,5,13,8,10,2,6,14,3,4,1,11,9"
14086,commdev-image-keyboard-response,392,1164698,learnblock1,595.1999999284744,img/planet15_right.png,15,Community 1,NA,TRUE,j,j,NA,NA,NA,1,6,"15,7,12,5,13,8,10,2,6,14,3,4,1,11,9"
14086,commdev-image-keyboard-response,393,1165949,learnblock1,871.9000000953674,img/planet13_right.png,13,Community 1,NA,TRUE,j,j,NA,NA,NA,1,6,"15,7,12,5,13,8,10,2,6,14,3,4,1,11,9"
14086,commdev-image-keyboard-response,394,1167200,learnblock1,920.6000000238419,img/planet12_left.png,12,Community 1,NA,TRUE,f,f,NA,NA,NA,1,6,"15,7,12,5,13,8,10,2,6,14,3,4,1,11,9"
14086,commdev-image-keyboard-response,395,1168452,learnblock1,795.7999999523163,img/planet13_left.png,13,Community 1,NA,TRUE,f,f,NA,NA,NA,1,6,"15,7,12,5,13,8,10,2,6,14,3,4,1,11,9"
14086,commdev-image-keyboard-response,396,1169703,learnblock1,616.7000000476837,img/planet12_right.png,12,Community 1,NA,TRUE,j,j,NA,NA,NA,1,6,"15,7,12,5,13,8,10,2,6,14,3,4,1,11,9"
14086,commdev-image-keyboard-response,397,1170956,learnblock1,801.8000000715256,img/planet7_left.png,7,Community 1,NA,TRUE,f,f,NA,NA,NA,1,6,"15,7,12,5,13,8,10,2,6,14,3,4,1,11,9"
14086,commdev-image-keyboard-response,398,1172207,learnblock1,750,img/planet13_right.png,13,Community 1,NA,TRUE,j,j,NA,NA,NA,1,6,"15,7,12,5,13,8,10,2,6,14,3,4,1,11,9"
14086,commdev-image-keyboard-response,399,1173459,learnblock1,1054.9000000953674,img/planet7_left.png,7,Community 1,NA,TRUE,f,f,NA,NA,NA,1,6,"15,7,12,5,13,8,10,2,6,14,3,4,1,11,9"
14086,commdev-image-keyboard-response,400,1174710,learnblock1,664.3999999761581,img/planet12_left.png,12,Community 1,NA,TRUE,f,f,NA,NA,NA,1,6,"15,7,12,5,13,8,10,2,6,14,3,4,1,11,9"
14086,commdev-image-keyboard-response,401,1175963,learnblock1,710.2000000476837,img/planet7_right.png,7,Community 1,NA,TRUE,j,j,NA,NA,NA,1,6,"15,7,12,5,13,8,10,2,6,14,3,4,1,11,9"
14086,commdev-image-keyboard-response,402,1177214,learnblock1,978.2999999523163,img/planet12_right.png,12,Community 1,NA,TRUE,j,j,NA,NA,NA,1,6,"15,7,12,5,13,8,10,2,6,14,3,4,1,11,9"
14086,commdev-image-keyboard-response,403,1178472,learnblock1,648.6000000238419,img/planet13_left.png,13,Community 1,NA,TRUE,f,f,NA,NA,NA,1,6,"15,7,12,5,13,8,10,2,6,14,3,4,1,11,9"
14086,commdev-image-keyboard-response,404,1179724,learnblock1,916,img/planet12_right.png,12,Community 1,NA,TRUE,j,j,NA,NA,NA,1,6,"15,7,12,5,13,8,10,2,6,14,3,4,1,11,9"
14086,commdev-image-keyboard-response,405,1180976,learnblock1,821.3000000715256,img/planet5_right.png,5,Community 1,NA,FALSE,f,j,NA,NA,NA,1,6,"15,7,12,5,13,8,10,2,6,14,3,4,1,11,9"
14086,commdev-image-keyboard-response,406,1182228,learnblock1,960.1999999284744,img/planet7_right.png,7,Community 1,NA,TRUE,j,j,NA,NA,NA,1,6,"15,7,12,5,13,8,10,2,6,14,3,4,1,11,9"
14086,commdev-image-keyboard-response,407,1183479,learnblock1,634.1000000238419,img/planet15_left.png,15,Community 1,NA,TRUE,f,f,NA,NA,NA,1,6,"15,7,12,5,13,8,10,2,6,14,3,4,1,11,9"
14086,commdev-image-keyboard-response,408,1184730,learnblock1,null,img/planet12_left.png,12,Community 1,NA,FALSE,null,f,NA,NA,NA,1,6,"15,7,12,5,13,8,10,2,6,14,3,4,1,11,9"
14086,commdev-image-keyboard-response,409,1185982,learnblock1,35.89999997615814,img/planet7_right.png,7,Community 1,NA,FALSE,f,j,NA,NA,NA,1,6,"15,7,12,5,13,8,10,2,6,14,3,4,1,11,9"
14086,commdev-image-keyboard-response,410,1187234,learnblock1,null,img/planet12_right.png,12,Community 1,NA,FALSE,null,j,NA,NA,NA,1,6,"15,7,12,5,13,8,10,2,6,14,3,4,1,11,9"
14086,commdev-image-keyboard-response,411,1188487,learnblock1,419.8000000715256,img/planet13_left.png,13,Community 1,NA,FALSE,j,f,NA,NA,NA,1,6,"15,7,12,5,13,8,10,2,6,14,3,4,1,11,9"
14086,commdev-image-keyboard-response,412,1189738,learnblock1,1176.2000000476837,img/planet7_left.png,7,Community 1,NA,TRUE,f,f,NA,NA,NA,1,6,"15,7,12,5,13,8,10,2,6,14,3,4,1,11,9"
14086,commdev-image-keyboard-response,413,1190989,learnblock1,null,img/planet12_right.png,12,Community 1,NA,FALSE,null,j,NA,NA,NA,1,6,"15,7,12,5,13,8,10,2,6,14,3,4,1,11,9"
14086,commdev-image-keyboard-response,414,1192240,learnblock1,573.2999999523163,img/planet13_right.png,13,Community 1,NA,TRUE,j,j,NA,NA,NA,1,6,"15,7,12,5,13,8,10,2,6,14,3,4,1,11,9"
14086,commdev-image-keyboard-response,415,1193491,learnblock1,1184.6000000238419,img/planet15_right.png,15,Community 1,NA,FALSE,f,j,NA,NA,NA,1,6,"15,7,12,5,13,8,10,2,6,14,3,4,1,11,9"
14086,commdev-image-keyboard-response,416,1194744,learnblock1,916.3000000715256,img/planet5_left.png,5,Community 1,NA,TRUE,f,f,NA,NA,NA,1,6,"15,7,12,5,13,8,10,2,6,14,3,4,1,11,9"
14086,commdev-image-keyboard-response,417,1195995,learnblock1,964,img/planet12_left.png,12,Community 1,NA,TRUE,f,f,NA,NA,NA,1,6,"15,7,12,5,13,8,10,2,6,14,3,4,1,11,9"
14086,commdev-image-keyboard-response,418,1197247,learnblock1,755.8999999761581,img/planet15_right.png,15,Community 1,NA,TRUE,j,j,NA,NA,NA,1,6,"15,7,12,5,13,8,10,2,6,14,3,4,1,11,9"
14086,commdev-image-keyboard-response,419,1198498,learnblock1,null,img/planet7_right.png,7,Community 1,NA,FALSE,null,j,NA,NA,NA,1,6,"15,7,12,5,13,8,10,2,6,14,3,4,1,11,9"
14086,commdev-image-keyboard-response,423,1253500,learnblock2,1070.2000000476837,img/planet3_right.png,3,Community 3,NA,TRUE,j,j,NA,NA,NA,1,6,"15,7,12,5,13,8,10,2,6,14,3,4,1,11,9"
14086,commdev-image-keyboard-response,424,1254752,learnblock2,620.1000000238419,img/planet11_left.png,11,Community 3,NA,TRUE,f,f,NA,NA,NA,1,6,"15,7,12,5,13,8,10,2,6,14,3,4,1,11,9"
14086,commdev-image-keyboard-response,425,1256003,learnblock2,778,img/planet3_right.png,3,Community 3,NA,TRUE,j,j,NA,NA,NA,1,6,"15,7,12,5,13,8,10,2,6,14,3,4,1,11,9"
14086,commdev-image-keyboard-response,426,1257256,learnblock2,689.2000000476837,img/planet1_right.png,1,Community 3,NA,TRUE,j,j,NA,NA,NA,1,6,"15,7,12,5,13,8,10,2,6,14,3,4,1,11,9"
14086,commdev-image-keyboard-response,427,1258508,learnblock2,547.1999999284744,img/planet11_left.png,11,Community 3,NA,TRUE,f,f,NA,NA,NA,1,6,"15,7,12,5,13,8,10,2,6,14,3,4,1,11,9"
14086,commdev-image-keyboard-response,428,1259759,learnblock2,506.2999999523163,img/planet4_right.png,4,Community 3,NA,TRUE,j,j,NA,NA,NA,1,6,"15,7,12,5,13,8,10,2,6,14,3,4,1,11,9"
14086,commdev-image-keyboard-response,429,1261011,learnblock2,933.6999999284744,img/planet11_left.png,11,Community 3,NA,TRUE,f,f,NA,NA,NA,1,6,"15,7,12,5,13,8,10,2,6,14,3,4,1,11,9"
14086,commdev-image-keyboard-response,430,1262263,learnblock2,777.3999999761581,img/planet3_left.png,3,Community 3,NA,TRUE,f,f,NA,NA,NA,1,6,"15,7,12,5,13,8,10,2,6,14,3,4,1,11,9"
14086,commdev-image-keyboard-response,431,1263514,learnblock2,639.8999999761581,img/planet13_left.png,13,Community 1,NA,TRUE,f,f,NA,NA,NA,1,6,"15,7,12,5,13,8,10,2,6,14,3,4,1,11,9"
14086,commdev-image-keyboard-response,432,1264767,learnblock2,511.2000000476837,img/planet7_right.png,7,Community 1,NA,TRUE,j,j,NA,NA,NA,1,6,"15,7,12,5,13,8,10,2,6,14,3,4,1,11,9"
14086,commdev-image-keyboard-response,433,1266018,learnblock2,536.2999999523163,img/planet12_right.png,12,Community 1,NA,TRUE,j,j,NA,NA,NA,1,6,"15,7,12,5,13,8,10,2,6,14,3,4,1,11,9"
14086,commdev-image-keyboard-response,434,1267270,learnblock2,623.5,img/planet13_left.png,13,Community 1,NA,TRUE,f,f,NA,NA,NA,1,6,"15,7,12,5,13,8,10,2,6,14,3,4,1,11,9"
14086,commdev-image-keyboard-response,435,1268522,learnblock2,430.1999999284744,img/planet15_right.png,15,Community 1,NA,TRUE,j,j,NA,NA,NA,1,6,"15,7,12,5,13,8,10,2,6,14,3,4,1,11,9"
14086,commdev-image-keyboard-response,436,1269773,learnblock2,593.2999999523163,img/planet13_left.png,13,Community 1,NA,TRUE,f,f,NA,NA,NA,1,6,"15,7,12,5,13,8,10,2,6,14,3,4,1,11,9"
14086,commdev-image-keyboard-response,437,1271025,learnblock2,611.8000000715256,img/planet3_left.png,3,Community 3,NA,TRUE,f,f,NA,NA,NA,1,6,"15,7,12,5,13,8,10,2,6,14,3,4,1,11,9"
14086,commdev-image-keyboard-response,438,1272277,learnblock2,498.39999997615814,img/planet9_right.png,9,Community 3,NA,TRUE,j,j,NA,NA,NA,1,6,"15,7,12,5,13,8,10,2,6,14,3,4,1,11,9"
14086,commdev-image-keyboard-response,439,1273528,learnblock2,532.5,img/planet1_right.png,1,Community 3,NA,TRUE,j,j,NA,NA,NA,1,6,"15,7,12,5,13,8,10,2,6,14,3,4,1,11,9"
14086,commdev-image-keyboard-response,440,1274780,learnblock2,598.9000000953674,img/planet9_right.png,9,Community 3,NA,TRUE,j,j,NA,NA,NA,1,6,"15,7,12,5,13,8,10,2,6,14,3,4,1,11,9"
14086,commdev-image-keyboard-response,441,1276032,learnblock2,614.4000000953674,img/planet4_left.png,4,Community 3,NA,TRUE,f,f,NA,NA,NA,1,6,"15,7,12,5,13,8,10,2,6,14,3,4,1,11,9"
14086,commdev-image-keyboard-response,442,1277283,learnblock2,728.0999999046326,img/planet11_left.png,11,Community 3,NA,TRUE,f,f,NA,NA,NA,1,6,"15,7,12,5,13,8,10,2,6,14,3,4,1,11,9"
14086,commdev-image-keyboard-response,443,1278535,learnblock2,654.5,img/planet1_left.png,1,Community 3,NA,TRUE,f,f,NA,NA,NA,1,6,"15,7,12,5,13,8,10,2,6,14,3,4,1,11,9"
14086,commdev-image-keyboard-response,444,1279787,learnblock2,740,img/planet3_right.png,3,Community 3,NA,TRUE,j,j,NA,NA,NA,1,6,"15,7,12,5,13,8,10,2,6,14,3,4,1,11,9"
14086,commdev-image-keyboard-response,445,1281038,learnblock2,575,img/planet13_left.png,13,Community 1,NA,TRUE,f,f,NA,NA,NA,1,6,"15,7,12,5,13,8,10,2,6,14,3,4,1,11,9"
14086,commdev-image-keyboard-response,446,1282289,learnblock2,519.6999999284744,img/planet12_right.png,12,Community 1,NA,TRUE,j,j,NA,NA,NA,1,6,"15,7,12,5,13,8,10,2,6,14,3,4,1,11,9"
14086,commdev-image-keyboard-response,447,1283540,learnblock2,742.2999999523163,img/planet7_right.png,7,Community 1,NA,TRUE,j,j,NA,NA,NA,1,6,"15,7,12,5,13,8,10,2,6,14,3,4,1,11,9"
14086,commdev-image-keyboard-response,448,1284792,learnblock2,707.6999999284744,img/planet15_left.png,15,Community 1,NA,TRUE,f,f,NA,NA,NA,1,6,"15,7,12,5,13,8,10,2,6,14,3,4,1,11,9"
14086,commdev-image-keyboard-response,449,1286043,learnblock2,506.5,img/planet5_left.png,5,Community 1,NA,FALSE,j,f,NA,NA,NA,1,6,"15,7,12,5,13,8,10,2,6,14,3,4,1,11,9"
14086,commdev-image-keyboard-response,450,1287294,learnblock2,664.5,img/planet12_right.png,12,Community 1,NA,TRUE,j,j,NA,NA,NA,1,6,"15,7,12,5,13,8,10,2,6,14,3,4,1,11,9"
14086,commdev-image-keyboard-response,451,1288546,learnblock2,964.7000000476837,img/planet15_right.png,15,Community 1,NA,TRUE,j,j,NA,NA,NA,1,6,"15,7,12,5,13,8,10,2,6,14,3,4,1,11,9"
14086,commdev-image-keyboard-response,452,1289797,learnblock2,875.5,img/planet7_left.png,7,Community 1,NA,TRUE,f,f,NA,NA,NA,1,6,"15,7,12,5,13,8,10,2,6,14,3,4,1,11,9"
14086,commdev-image-keyboard-response,453,1291049,learnblock2,601.5,img/planet12_right.png,12,Community 1,NA,TRUE,j,j,NA,NA,NA,1,6,"15,7,12,5,13,8,10,2,6,14,3,4,1,11,9"
14086,commdev-image-keyboard-response,454,1292301,learnblock2,595.5,img/planet13_right.png,13,Community 1,NA,TRUE,j,j,NA,NA,NA,1,6,"15,7,12,5,13,8,10,2,6,14,3,4,1,11,9"
14086,commdev-image-keyboard-response,455,1293552,learnblock2,591.7000000476837,img/planet7_left.png,7,Community 1,NA,TRUE,f,f,NA,NA,NA,1,6,"15,7,12,5,13,8,10,2,6,14,3,4,1,11,9"
14086,commdev-image-keyboard-response,456,1294804,learnblock2,629.6000000238419,img/planet13_right.png,13,Community 1,NA,TRUE,j,j,NA,NA,NA,1,6,"15,7,12,5,13,8,10,2,6,14,3,4,1,11,9"
14086,commdev-image-keyboard-response,457,1296055,learnblock2,643.8999999761581,img/planet3_left.png,3,Community 3,NA,TRUE,f,f,NA,NA,NA,1,6,"15,7,12,5,13,8,10,2,6,14,3,4,1,11,9"
14086,commdev-image-keyboard-response,458,1297306,learnblock2,582.2000000476837,img/planet1_right.png,1,Community 3,NA,TRUE,j,j,NA,NA,NA,1,6,"15,7,12,5,13,8,10,2,6,14,3,4,1,11,9"
14086,commdev-image-keyboard-response,459,1298557,learnblock2,854.7999999523163,img/planet9_left.png,9,Community 3,NA,TRUE,f,f,NA,NA,NA,1,6,"15,7,12,5,13,8,10,2,6,14,3,4,1,11,9"
14086,commdev-image-keyboard-response,460,1299809,learnblock2,784.8999999761581,img/planet4_left.png,4,Community 3,NA,TRUE,f,f,NA,NA,NA,1,6,"15,7,12,5,13,8,10,2,6,14,3,4,1,11,9"
14086,commdev-image-keyboard-response,461,1301061,learnblock2,648.1999999284744,img/planet11_left.png,11,Community 3,NA,TRUE,f,f,NA,NA,NA,1,6,"15,7,12,5,13,8,10,2,6,14,3,4,1,11,9"
14086,commdev-image-keyboard-response,462,1302312,learnblock2,669,img/planet1_right.png,1,Community 3,NA,TRUE,j,j,NA,NA,NA,1,6,"15,7,12,5,13,8,10,2,6,14,3,4,1,11,9"
14086,commdev-image-keyboard-response,463,1303564,learnblock2,910.2000000476837,img/planet11_right.png,11,Community 3,NA,TRUE,j,j,NA,NA,NA,1,6,"15,7,12,5,13,8,10,2,6,14,3,4,1,11,9"
14086,commdev-image-keyboard-response,464,1304816,learnblock2,781.3000000715256,img/planet1_right.png,1,Community 3,NA,TRUE,j,j,NA,NA,NA,1,6,"15,7,12,5,13,8,10,2,6,14,3,4,1,11,9"
14086,commdev-image-keyboard-response,465,1306067,learnblock2,694.2000000476837,img/planet4_left.png,4,Community 3,NA,TRUE,f,f,NA,NA,NA,1,6,"15,7,12,5,13,8,10,2,6,14,3,4,1,11,9"
14086,commdev-image-keyboard-response,466,1307319,learnblock2,711.1999999284744,img/planet2_left.png,2,Community 2,NA,TRUE,f,f,NA,NA,NA,1,6,"15,7,12,5,13,8,10,2,6,14,3,4,1,11,9"
14086,commdev-image-keyboard-response,467,1308570,learnblock2,716.1000000238419,img/planet4_right.png,4,Community 3,NA,TRUE,j,j,NA,NA,NA,1,6,"15,7,12,5,13,8,10,2,6,14,3,4,1,11,9"
14086,commdev-image-keyboard-response,468,1309821,learnblock2,640.8999999761581,img/planet1_left.png,1,Community 3,NA,TRUE,f,f,NA,NA,NA,1,6,"15,7,12,5,13,8,10,2,6,14,3,4,1,11,9"
14086,commdev-image-keyboard-response,469,1311072,learnblock2,715.6999999284744,img/planet3_right.png,3,Community 3,NA,TRUE,j,j,NA,NA,NA,1,6,"15,7,12,5,13,8,10,2,6,14,3,4,1,11,9"
14086,commdev-image-keyboard-response,470,1312324,learnblock2,776.9000000953674,img/planet1_left.png,1,Community 3,NA,TRUE,f,f,NA,NA,NA,1,6,"15,7,12,5,13,8,10,2,6,14,3,4,1,11,9"
14086,commdev-image-keyboard-response,471,1313576,learnblock2,null,img/planet4_left.png,4,Community 3,NA,FALSE,null,f,NA,NA,NA,1,6,"15,7,12,5,13,8,10,2,6,14,3,4,1,11,9"
14086,commdev-image-keyboard-response,472,1314829,learnblock2,17.799999952316284,img/planet11_right.png,11,Community 3,NA,FALSE,f,j,NA,NA,NA,1,6,"15,7,12,5,13,8,10,2,6,14,3,4,1,11,9"
14086,commdev-image-keyboard-response,473,1316081,learnblock2,539,img/planet9_right.png,9,Community 3,NA,TRUE,j,j,NA,NA,NA,1,6,"15,7,12,5,13,8,10,2,6,14,3,4,1,11,9"
14086,commdev-image-keyboard-response,474,1317332,learnblock2,790.6000000238419,img/planet1_left.png,1,Community 3,NA,TRUE,f,f,NA,NA,NA,1,6,"15,7,12,5,13,8,10,2,6,14,3,4,1,11,9"
14086,commdev-image-keyboard-response,475,1318583,learnblock2,576.2999999523163,img/planet9_right.png,9,Community 3,NA,TRUE,j,j,NA,NA,NA,1,6,"15,7,12,5,13,8,10,2,6,14,3,4,1,11,9"
14086,commdev-image-keyboard-response,476,1319835,learnblock2,720.6999999284744,img/planet4_right.png,4,Community 3,NA,TRUE,j,j,NA,NA,NA,1,6,"15,7,12,5,13,8,10,2,6,14,3,4,1,11,9"
14086,commdev-image-keyboard-response,477,1321087,learnblock2,624,img/planet1_left.png,1,Community 3,NA,TRUE,f,f,NA,NA,NA,1,6,"15,7,12,5,13,8,10,2,6,14,3,4,1,11,9"
14086,commdev-image-keyboard-response,478,1322338,learnblock2,586,img/planet11_right.png,11,Community 3,NA,TRUE,j,j,NA,NA,NA,1,6,"15,7,12,5,13,8,10,2,6,14,3,4,1,11,9"
14086,commdev-image-keyboard-response,479,1323589,learnblock2,520.8999999761581,img/planet1_left.png,1,Community 3,NA,TRUE,f,f,NA,NA,NA,1,6,"15,7,12,5,13,8,10,2,6,14,3,4,1,11,9"
14086,commdev-image-keyboard-response,480,1324841,learnblock2,1035.7999999523163,img/planet9_left.png,9,Community 3,NA,TRUE,f,f,NA,NA,NA,1,6,"15,7,12,5,13,8,10,2,6,14,3,4,1,11,9"
14086,commdev-image-keyboard-response,481,1326092,learnblock2,604.4000000953674,img/planet4_left.png,4,Community 3,NA,FALSE,j,f,NA,NA,NA,1,6,"15,7,12,5,13,8,10,2,6,14,3,4,1,11,9"
14086,commdev-image-keyboard-response,482,1327344,learnblock2,509.7999999523163,img/planet1_right.png,1,Community 3,NA,TRUE,j,j,NA,NA,NA,1,6,"15,7,12,5,13,8,10,2,6,14,3,4,1,11,9"
14086,commdev-image-keyboard-response,483,1328595,learnblock2,646.5,img/planet3_left.png,3,Community 3,NA,FALSE,j,f,NA,NA,NA,1,6,"15,7,12,5,13,8,10,2,6,14,3,4,1,11,9"
14086,commdev-image-keyboard-response,484,1329846,learnblock2,760.7999999523163,img/planet1_left.png,1,Community 3,NA,TRUE,f,f,NA,NA,NA,1,6,"15,7,12,5,13,8,10,2,6,14,3,4,1,11,9"
14086,commdev-image-keyboard-response,485,1331097,learnblock2,562.5,img/planet4_right.png,4,Community 3,NA,TRUE,j,j,NA,NA,NA,1,6,"15,7,12,5,13,8,10,2,6,14,3,4,1,11,9"
14086,commdev-image-keyboard-response,486,1332348,learnblock2,491.2999999523163,img/planet1_left.png,1,Community 3,NA,TRUE,f,f,NA,NA,NA,1,6,"15,7,12,5,13,8,10,2,6,14,3,4,1,11,9"
14086,commdev-image-keyboard-response,487,1333600,learnblock2,641.8999999761581,img/planet11_right.png,11,Community 3,NA,TRUE,j,j,NA,NA,NA,1,6,"15,7,12,5,13,8,10,2,6,14,3,4,1,11,9"
14086,commdev-image-keyboard-response,488,1334853,learnblock2,802.7000000476837,img/planet9_right.png,9,Community 3,NA,TRUE,j,j,NA,NA,NA,1,6,"15,7,12,5,13,8,10,2,6,14,3,4,1,11,9"
14086,commdev-image-keyboard-response,489,1336105,learnblock2,565.6000000238419,img/planet4_left.png,4,Community 3,NA,TRUE,f,f,NA,NA,NA,1,6,"15,7,12,5,13,8,10,2,6,14,3,4,1,11,9"
14086,commdev-image-keyboard-response,490,1337357,learnblock2,617.7000000476837,img/planet11_right.png,11,Community 3,NA,TRUE,j,j,NA,NA,NA,1,6,"15,7,12,5,13,8,10,2,6,14,3,4,1,11,9"
14086,commdev-image-keyboard-response,491,1338608,learnblock2,615.2000000476837,img/planet3_left.png,3,Community 3,NA,TRUE,f,f,NA,NA,NA,1,6,"15,7,12,5,13,8,10,2,6,14,3,4,1,11,9"
14086,commdev-image-keyboard-response,492,1339860,learnblock2,602.3999999761581,img/planet9_right.png,9,Community 3,NA,TRUE,j,j,NA,NA,NA,1,6,"15,7,12,5,13,8,10,2,6,14,3,4,1,11,9"
14086,commdev-image-keyboard-response,493,1341111,learnblock2,678.1999999284744,img/planet4_left.png,4,Community 3,NA,TRUE,f,f,NA,NA,NA,1,6,"15,7,12,5,13,8,10,2,6,14,3,4,1,11,9"
14086,commdev-image-keyboard-response,494,1342363,learnblock2,816.7999999523163,img/planet2_left.png,2,Community 2,NA,TRUE,f,f,NA,NA,NA,1,6,"15,7,12,5,13,8,10,2,6,14,3,4,1,11,9"
14086,commdev-image-keyboard-response,495,1343614,learnblock2,763.8999999761581,img/planet6_right.png,6,Community 2,NA,TRUE,j,j,NA,NA,NA,1,6,"15,7,12,5,13,8,10,2,6,14,3,4,1,11,9"
14086,commdev-image-keyboard-response,496,1344867,learnblock2,852.7000000476837,img/planet14_left.png,14,Community 2,NA,TRUE,f,f,NA,NA,NA,1,6,"15,7,12,5,13,8,10,2,6,14,3,4,1,11,9"
14086,commdev-image-keyboard-response,497,1346118,learnblock2,972.1000000238419,img/planet2_left.png,2,Community 2,NA,TRUE,f,f,NA,NA,NA,1,6,"15,7,12,5,13,8,10,2,6,14,3,4,1,11,9"
14086,commdev-image-keyboard-response,498,1347370,learnblock2,872.2000000476837,img/planet14_right.png,14,Community 2,NA,TRUE,j,j,NA,NA,NA,1,6,"15,7,12,5,13,8,10,2,6,14,3,4,1,11,9"
14086,commdev-image-keyboard-response,499,1348621,learnblock2,808.8000000715256,img/planet8_right.png,8,Community 2,NA,TRUE,j,j,NA,NA,NA,1,6,"15,7,12,5,13,8,10,2,6,14,3,4,1,11,9"
14086,commdev-image-keyboard-response,500,1349872,learnblock2,739.8000000715256,img/planet5_left.png,5,Community 1,NA,TRUE,f,f,NA,NA,NA,1,6,"15,7,12,5,13,8,10,2,6,14,3,4,1,11,9"
14086,commdev-image-keyboard-response,501,1351124,learnblock2,657.6000000238419,img/planet8_right.png,8,Community 2,NA,TRUE,j,j,NA,NA,NA,1,6,"15,7,12,5,13,8,10,2,6,14,3,4,1,11,9"
14086,commdev-image-keyboard-response,502,1352376,learnblock2,837.2999999523163,img/planet6_right.png,6,Community 2,NA,TRUE,j,j,NA,NA,NA,1,6,"15,7,12,5,13,8,10,2,6,14,3,4,1,11,9"
14086,commdev-image-keyboard-response,503,1353627,learnblock2,636,img/planet10_right.png,10,Community 2,NA,FALSE,f,j,NA,NA,NA,1,6,"15,7,12,5,13,8,10,2,6,14,3,4,1,11,9"
14086,commdev-image-keyboard-response,504,1354879,learnblock2,1217,img/planet6_right.png,6,Community 2,NA,FALSE,f,j,NA,NA,NA,1,6,"15,7,12,5,13,8,10,2,6,14,3,4,1,11,9"
14086,commdev-image-keyboard-response,505,1356130,learnblock2,1031.5,img/planet8_right.png,8,Community 2,NA,TRUE,j,j,NA,NA,NA,1,6,"15,7,12,5,13,8,10,2,6,14,3,4,1,11,9"
14086,commdev-image-keyboard-response,506,1357396,learnblock2,883.3000000715256,img/planet5_right.png,5,Community 1,NA,TRUE,j,j,NA,NA,NA,1,6,"15,7,12,5,13,8,10,2,6,14,3,4,1,11,9"
14086,commdev-image-keyboard-response,507,1358647,learnblock2,736,img/planet12_left.png,12,Community 1,NA,TRUE,f,f,NA,NA,NA,1,6,"15,7,12,5,13,8,10,2,6,14,3,4,1,11,9"
14086,commdev-image-keyboard-response,508,1359898,learnblock2,627.3000000715256,img/planet13_right.png,13,Community 1,NA,TRUE,j,j,NA,NA,NA,1,6,"15,7,12,5,13,8,10,2,6,14,3,4,1,11,9"
14086,commdev-image-keyboard-response,509,1361150,learnblock2,632.2999999523163,img/planet3_left.png,3,Community 3,NA,TRUE,f,f,NA,NA,NA,1,6,"15,7,12,5,13,8,10,2,6,14,3,4,1,11,9"
14086,commdev-image-keyboard-response,510,1362402,learnblock2,497.6999999284744,img/planet9_right.png,9,Community 3,NA,TRUE,j,j,NA,NA,NA,1,6,"15,7,12,5,13,8,10,2,6,14,3,4,1,11,9"
14086,commdev-image-keyboard-response,511,1363653,learnblock2,677.8999999761581,img/planet11_right.png,11,Community 3,NA,TRUE,j,j,NA,NA,NA,1,6,"15,7,12,5,13,8,10,2,6,14,3,4,1,11,9"
14086,commdev-image-keyboard-response,512,1364904,learnblock2,433.3000000715256,img/planet1_right.png,1,Community 3,NA,FALSE,f,j,NA,NA,NA,1,6,"15,7,12,5,13,8,10,2,6,14,3,4,1,11,9"
14086,commdev-image-keyboard-response,513,1366156,learnblock2,655.7999999523163,img/planet4_right.png,4,Community 3,NA,TRUE,j,j,NA,NA,NA,1,6,"15,7,12,5,13,8,10,2,6,14,3,4,1,11,9"
14086,commdev-image-keyboard-response,514,1367407,learnblock2,542.5,img/planet9_right.png,9,Community 3,NA,TRUE,j,j,NA,NA,NA,1,6,"15,7,12,5,13,8,10,2,6,14,3,4,1,11,9"
14086,commdev-image-keyboard-response,515,1368658,learnblock2,648.1000000238419,img/planet3_left.png,3,Community 3,NA,TRUE,f,f,NA,NA,NA,1,6,"15,7,12,5,13,8,10,2,6,14,3,4,1,11,9"
14086,commdev-image-keyboard-response,516,1369910,learnblock2,654,img/planet13_left.png,13,Community 1,NA,FALSE,j,f,NA,NA,NA,1,6,"15,7,12,5,13,8,10,2,6,14,3,4,1,11,9"
14086,commdev-image-keyboard-response,517,1371161,learnblock2,851.1999999284744,img/planet3_left.png,3,Community 3,NA,TRUE,f,f,NA,NA,NA,1,6,"15,7,12,5,13,8,10,2,6,14,3,4,1,11,9"
14086,commdev-image-keyboard-response,518,1372413,learnblock2,745.5,img/planet9_left.png,9,Community 3,NA,TRUE,f,f,NA,NA,NA,1,6,"15,7,12,5,13,8,10,2,6,14,3,4,1,11,9"
14086,commdev-image-keyboard-response,519,1373665,learnblock2,632,img/planet11_left.png,11,Community 3,NA,TRUE,f,f,NA,NA,NA,1,6,"15,7,12,5,13,8,10,2,6,14,3,4,1,11,9"
14086,commdev-image-keyboard-response,520,1374916,learnblock2,597.8000000715256,img/planet9_left.png,9,Community 3,NA,TRUE,f,f,NA,NA,NA,1,6,"15,7,12,5,13,8,10,2,6,14,3,4,1,11,9"
14086,commdev-image-keyboard-response,521,1376168,learnblock2,657.5,img/planet3_right.png,3,Community 3,NA,TRUE,j,j,NA,NA,NA,1,6,"15,7,12,5,13,8,10,2,6,14,3,4,1,11,9"
14086,commdev-image-keyboard-response,522,1377420,learnblock2,703.5999999046326,img/planet1_left.png,1,Community 3,NA,TRUE,f,f,NA,NA,NA,1,6,"15,7,12,5,13,8,10,2,6,14,3,4,1,11,9"
14086,commdev-image-keyboard-response,523,1378672,learnblock2,529.3000000715256,img/planet4_right.png,4,Community 3,NA,TRUE,j,j,NA,NA,NA,1,6,"15,7,12,5,13,8,10,2,6,14,3,4,1,11,9"
14086,commdev-image-keyboard-response,524,1379924,learnblock2,646.2000000476837,img/planet1_right.png,1,Community 3,NA,TRUE,j,j,NA,NA,NA,1,6,"15,7,12,5,13,8,10,2,6,14,3,4,1,11,9"
14086,commdev-image-keyboard-response,525,1381176,learnblock2,683,img/planet3_right.png,3,Community 3,NA,TRUE,j,j,NA,NA,NA,1,6,"15,7,12,5,13,8,10,2,6,14,3,4,1,11,9"
14086,commdev-image-keyboard-response,526,1382427,learnblock2,589.6000000238419,img/planet9_left.png,9,Community 3,NA,TRUE,f,f,NA,NA,NA,1,6,"15,7,12,5,13,8,10,2,6,14,3,4,1,11,9"
14086,commdev-image-keyboard-response,527,1383679,learnblock2,614.7000000476837,img/planet4_right.png,4,Community 3,NA,TRUE,j,j,NA,NA,NA,1,6,"15,7,12,5,13,8,10,2,6,14,3,4,1,11,9"
14086,commdev-image-keyboard-response,528,1384930,learnblock2,645.8999999761581,img/planet9_left.png,9,Community 3,NA,TRUE,f,f,NA,NA,NA,1,6,"15,7,12,5,13,8,10,2,6,14,3,4,1,11,9"
14086,commdev-image-keyboard-response,529,1386182,learnblock2,715.1000000238419,img/planet1_left.png,1,Community 3,NA,TRUE,f,f,NA,NA,NA,1,6,"15,7,12,5,13,8,10,2,6,14,3,4,1,11,9"
14086,commdev-image-keyboard-response,530,1387433,learnblock2,624,img/planet3_right.png,3,Community 3,NA,TRUE,j,j,NA,NA,NA,1,6,"15,7,12,5,13,8,10,2,6,14,3,4,1,11,9"
14086,commdev-image-keyboard-response,531,1388686,learnblock2,669.5,img/planet1_right.png,1,Community 3,NA,TRUE,j,j,NA,NA,NA,1,6,"15,7,12,5,13,8,10,2,6,14,3,4,1,11,9"
14086,commdev-image-keyboard-response,532,1389938,learnblock2,794.6000000238419,img/planet4_right.png,4,Community 3,NA,TRUE,j,j,NA,NA,NA,1,6,"15,7,12,5,13,8,10,2,6,14,3,4,1,11,9"
14086,commdev-image-keyboard-response,533,1391189,learnblock2,727.6000000238419,img/planet2_left.png,2,Community 2,NA,TRUE,f,f,NA,NA,NA,1,6,"15,7,12,5,13,8,10,2,6,14,3,4,1,11,9"
14086,commdev-image-keyboard-response,534,1392441,learnblock2,546.1000000238419,img/planet4_right.png,4,Community 3,NA,TRUE,j,j,NA,NA,NA,1,6,"15,7,12,5,13,8,10,2,6,14,3,4,1,11,9"
14086,commdev-image-keyboard-response,535,1393693,learnblock2,520.5,img/planet9_left.png,9,Community 3,NA,TRUE,f,f,NA,NA,NA,1,6,"15,7,12,5,13,8,10,2,6,14,3,4,1,11,9"
14086,commdev-image-keyboard-response,536,1394944,learnblock2,593.3999999761581,img/planet3_right.png,3,Community 3,NA,TRUE,j,j,NA,NA,NA,1,6,"15,7,12,5,13,8,10,2,6,14,3,4,1,11,9"
14086,commdev-image-keyboard-response,537,1396196,learnblock2,614.1000000238419,img/planet11_left.png,11,Community 3,NA,TRUE,f,f,NA,NA,NA,1,6,"15,7,12,5,13,8,10,2,6,14,3,4,1,11,9"
14086,commdev-image-keyboard-response,538,1397448,learnblock2,875.1000000238419,img/planet4_left.png,4,Community 3,NA,TRUE,f,f,NA,NA,NA,1,6,"15,7,12,5,13,8,10,2,6,14,3,4,1,11,9"
14086,commdev-image-keyboard-response,539,1398699,learnblock2,934.3999999761581,img/planet11_right.png,11,Community 3,NA,TRUE,j,j,NA,NA,NA,1,6,"15,7,12,5,13,8,10,2,6,14,3,4,1,11,9"
14086,commdev-image-keyboard-response,540,1399965,learnblock2,841.6000000238419,img/planet3_left.png,3,Community 3,NA,TRUE,f,f,NA,NA,NA,1,6,"15,7,12,5,13,8,10,2,6,14,3,4,1,11,9"
14086,commdev-image-keyboard-response,541,1401217,learnblock2,652.6999999284744,img/planet13_right.png,13,Community 1,NA,TRUE,j,j,NA,NA,NA,1,6,"15,7,12,5,13,8,10,2,6,14,3,4,1,11,9"
14086,commdev-image-keyboard-response,542,1402469,learnblock2,null,img/planet15_right.png,15,Community 1,NA,FALSE,null,j,NA,NA,NA,1,6,"15,7,12,5,13,8,10,2,6,14,3,4,1,11,9"
14086,commdev-image-keyboard-response,543,1403720,learnblock2,163.5,img/planet5_right.png,5,Community 1,NA,TRUE,j,j,NA,NA,NA,1,6,"15,7,12,5,13,8,10,2,6,14,3,4,1,11,9"
14086,commdev-image-keyboard-response,544,1404972,learnblock2,137.29999995231628,img/planet15_left.png,15,Community 1,NA,FALSE,j,f,NA,NA,NA,1,6,"15,7,12,5,13,8,10,2,6,14,3,4,1,11,9"
14086,commdev-image-keyboard-response,545,1406223,learnblock2,778.5,img/planet7_left.png,7,Community 1,NA,TRUE,f,f,NA,NA,NA,1,6,"15,7,12,5,13,8,10,2,6,14,3,4,1,11,9"
14086,commdev-image-keyboard-response,546,1407476,learnblock2,759.3999999761581,img/planet12_left.png,12,Community 1,NA,TRUE,f,f,NA,NA,NA,1,6,"15,7,12,5,13,8,10,2,6,14,3,4,1,11,9"
14086,commdev-image-keyboard-response,547,1408727,learnblock2,1030.1999999284744,img/planet7_left.png,7,Community 1,NA,TRUE,f,f,NA,NA,NA,1,6,"15,7,12,5,13,8,10,2,6,14,3,4,1,11,9"
14086,commdev-image-keyboard-response,548,1409979,learnblock2,1185.8999999761581,img/planet12_left.png,12,Community 1,NA,TRUE,f,f,NA,NA,NA,1,6,"15,7,12,5,13,8,10,2,6,14,3,4,1,11,9"
14086,commdev-image-keyboard-response,549,1411236,learnblock2,683.1000000238419,img/planet7_right.png,7,Community 1,NA,TRUE,j,j,NA,NA,NA,1,6,"15,7,12,5,13,8,10,2,6,14,3,4,1,11,9"
14086,commdev-image-keyboard-response,550,1412487,learnblock2,578.5,img/planet12_right.png,12,Community 1,NA,FALSE,f,j,NA,NA,NA,1,6,"15,7,12,5,13,8,10,2,6,14,3,4,1,11,9"
14086,commdev-image-keyboard-response,551,1413739,learnblock2,721.8999999761581,img/planet5_right.png,5,Community 1,NA,TRUE,j,j,NA,NA,NA,1,6,"15,7,12,5,13,8,10,2,6,14,3,4,1,11,9"
14086,commdev-image-keyboard-response,552,1414990,learnblock2,715.6000000238419,img/planet8_left.png,8,Community 2,NA,TRUE,f,f,NA,NA,NA,1,6,"15,7,12,5,13,8,10,2,6,14,3,4,1,11,9"
14086,commdev-image-keyboard-response,553,1416256,learnblock2,936.8000000715256,img/planet6_right.png,6,Community 2,NA,TRUE,j,j,NA,NA,NA,1,6,"15,7,12,5,13,8,10,2,6,14,3,4,1,11,9"
14086,commdev-image-keyboard-response,554,1417508,learnblock2,725.7000000476837,img/planet10_right.png,10,Community 2,NA,TRUE,j,j,NA,NA,NA,1,6,"15,7,12,5,13,8,10,2,6,14,3,4,1,11,9"
14086,commdev-image-keyboard-response,555,1418759,learnblock2,917.0999999046326,img/planet14_right.png,14,Community 2,NA,TRUE,j,j,NA,NA,NA,1,6,"15,7,12,5,13,8,10,2,6,14,3,4,1,11,9"
14086,commdev-image-keyboard-response,556,1420010,learnblock2,866.2999999523163,img/planet10_right.png,10,Community 2,NA,TRUE,j,j,NA,NA,NA,1,6,"15,7,12,5,13,8,10,2,6,14,3,4,1,11,9"
14086,commdev-image-keyboard-response,557,1421261,learnblock2,758,img/planet6_right.png,6,Community 2,NA,TRUE,j,j,NA,NA,NA,1,6,"15,7,12,5,13,8,10,2,6,14,3,4,1,11,9"
14086,commdev-image-keyboard-response,558,1422513,learnblock2,844.8999999761581,img/planet14_left.png,14,Community 2,NA,TRUE,f,f,NA,NA,NA,1,6,"15,7,12,5,13,8,10,2,6,14,3,4,1,11,9"
14086,commdev-image-keyboard-response,559,1423764,learnblock2,579.3000000715256,img/planet10_left.png,10,Community 2,NA,TRUE,f,f,NA,NA,NA,1,6,"15,7,12,5,13,8,10,2,6,14,3,4,1,11,9"
14086,commdev-image-keyboard-response,560,1425017,learnblock2,525.6000000238419,img/planet6_right.png,6,Community 2,NA,TRUE,j,j,NA,NA,NA,1,6,"15,7,12,5,13,8,10,2,6,14,3,4,1,11,9"
14086,commdev-image-keyboard-response,561,1426269,learnblock2,902.6999999284744,img/planet10_left.png,10,Community 2,NA,TRUE,f,f,NA,NA,NA,1,6,"15,7,12,5,13,8,10,2,6,14,3,4,1,11,9"
14086,commdev-image-keyboard-response,562,1427520,learnblock2,1060.7000000476837,img/planet14_left.png,14,Community 2,NA,TRUE,f,f,NA,NA,NA,1,6,"15,7,12,5,13,8,10,2,6,14,3,4,1,11,9"
14086,commdev-image-keyboard-response,563,1428771,learnblock2,625.2999999523163,img/planet10_right.png,10,Community 2,NA,TRUE,j,j,NA,NA,NA,1,6,"15,7,12,5,13,8,10,2,6,14,3,4,1,11,9"
14086,commdev-image-keyboard-response,564,1430023,learnblock2,843.2000000476837,img/planet14_left.png,14,Community 2,NA,TRUE,f,f,NA,NA,NA,1,6,"15,7,12,5,13,8,10,2,6,14,3,4,1,11,9"
14086,commdev-image-keyboard-response,565,1431276,learnblock2,608,img/planet6_right.png,6,Community 2,NA,TRUE,j,j,NA,NA,NA,1,6,"15,7,12,5,13,8,10,2,6,14,3,4,1,11,9"
14086,commdev-image-keyboard-response,566,1432528,learnblock2,751.1000000238419,img/planet8_left.png,8,Community 2,NA,TRUE,f,f,NA,NA,NA,1,6,"15,7,12,5,13,8,10,2,6,14,3,4,1,11,9"
14086,commdev-image-keyboard-response,567,1433779,learnblock2,940.8999999761581,img/planet14_right.png,14,Community 2,NA,TRUE,j,j,NA,NA,NA,1,6,"15,7,12,5,13,8,10,2,6,14,3,4,1,11,9"
14086,commdev-image-keyboard-response,568,1435030,learnblock2,608.5,img/planet10_left.png,10,Community 2,NA,TRUE,f,f,NA,NA,NA,1,6,"15,7,12,5,13,8,10,2,6,14,3,4,1,11,9"
14086,commdev-image-keyboard-response,569,1436282,learnblock2,722.6000000238419,img/planet6_left.png,6,Community 2,NA,FALSE,j,f,NA,NA,NA,1,6,"15,7,12,5,13,8,10,2,6,14,3,4,1,11,9"
14086,commdev-image-keyboard-response,570,1437533,learnblock2,588.5999999046326,img/planet2_right.png,2,Community 2,NA,TRUE,j,j,NA,NA,NA,1,6,"15,7,12,5,13,8,10,2,6,14,3,4,1,11,9"
14086,commdev-image-keyboard-response,571,1438785,learnblock2,605.1999999284744,img/planet6_left.png,6,Community 2,NA,TRUE,f,f,NA,NA,NA,1,6,"15,7,12,5,13,8,10,2,6,14,3,4,1,11,9"
14086,commdev-image-keyboard-response,572,1440050,learnblock2,689.1000000238419,img/planet8_left.png,8,Community 2,NA,FALSE,j,f,NA,NA,NA,1,6,"15,7,12,5,13,8,10,2,6,14,3,4,1,11,9"
14086,commdev-image-keyboard-response,573,1441302,learnblock2,1099.5,img/planet10_left.png,10,Community 2,NA,TRUE,f,f,NA,NA,NA,1,6,"15,7,12,5,13,8,10,2,6,14,3,4,1,11,9"
14086,commdev-image-keyboard-response,574,1442554,learnblock2,576.1000000238419,img/planet8_right.png,8,Community 2,NA,TRUE,j,j,NA,NA,NA,1,6,"15,7,12,5,13,8,10,2,6,14,3,4,1,11,9"
14086,commdev-image-keyboard-response,575,1443805,learnblock2,648.3999999761581,img/planet5_left.png,5,Community 1,NA,TRUE,f,f,NA,NA,NA,1,6,"15,7,12,5,13,8,10,2,6,14,3,4,1,11,9"
14086,commdev-image-keyboard-response,576,1445057,learnblock2,515,img/planet12_right.png,12,Community 1,NA,TRUE,j,j,NA,NA,NA,1,6,"15,7,12,5,13,8,10,2,6,14,3,4,1,11,9"
14086,commdev-image-keyboard-response,577,1446309,learnblock2,810,img/planet5_right.png,5,Community 1,NA,TRUE,j,j,NA,NA,NA,1,6,"15,7,12,5,13,8,10,2,6,14,3,4,1,11,9"
14086,commdev-image-keyboard-response,578,1447561,learnblock2,764.1000000238419,img/planet12_right.png,12,Community 1,NA,TRUE,j,j,NA,NA,NA,1,6,"15,7,12,5,13,8,10,2,6,14,3,4,1,11,9"
14086,commdev-image-keyboard-response,579,1448812,learnblock2,698.2000000476837,img/planet5_right.png,5,Community 1,NA,TRUE,j,j,NA,NA,NA,1,6,"15,7,12,5,13,8,10,2,6,14,3,4,1,11,9"
14086,commdev-image-keyboard-response,580,1450063,learnblock2,546.3000000715256,img/planet12_left.png,12,Community 1,NA,TRUE,f,f,NA,NA,NA,1,6,"15,7,12,5,13,8,10,2,6,14,3,4,1,11,9"
14086,commdev-image-keyboard-response,581,1451316,learnblock2,753.5,img/planet7_left.png,7,Community 1,NA,TRUE,f,f,NA,NA,NA,1,6,"15,7,12,5,13,8,10,2,6,14,3,4,1,11,9"
14086,commdev-image-keyboard-response,582,1452567,learnblock2,684.7999999523163,img/planet5_left.png,5,Community 1,NA,TRUE,f,f,NA,NA,NA,1,6,"15,7,12,5,13,8,10,2,6,14,3,4,1,11,9"
14086,commdev-image-keyboard-response,583,1453825,learnblock2,826.2000000476837,img/planet7_left.png,7,Community 1,NA,TRUE,f,f,NA,NA,NA,1,6,"15,7,12,5,13,8,10,2,6,14,3,4,1,11,9"
14086,commdev-image-keyboard-response,584,1455077,learnblock2,743.5,img/planet12_right.png,12,Community 1,NA,TRUE,j,j,NA,NA,NA,1,6,"15,7,12,5,13,8,10,2,6,14,3,4,1,11,9"
14086,commdev-image-keyboard-response,585,1456329,learnblock2,638.2999999523163,img/planet5_left.png,5,Community 1,NA,TRUE,f,f,NA,NA,NA,1,6,"15,7,12,5,13,8,10,2,6,14,3,4,1,11,9"
14086,commdev-image-keyboard-response,586,1457581,learnblock2,606,img/planet15_right.png,15,Community 1,NA,TRUE,j,j,NA,NA,NA,1,6,"15,7,12,5,13,8,10,2,6,14,3,4,1,11,9"
14086,commdev-image-keyboard-response,587,1458832,learnblock2,829,img/planet12_right.png,12,Community 1,NA,TRUE,j,j,NA,NA,NA,1,6,"15,7,12,5,13,8,10,2,6,14,3,4,1,11,9"
14086,commdev-image-keyboard-response,588,1460083,learnblock2,779,img/planet5_left.png,5,Community 1,NA,TRUE,f,f,NA,NA,NA,1,6,"15,7,12,5,13,8,10,2,6,14,3,4,1,11,9"
14086,commdev-image-keyboard-response,589,1461334,learnblock2,669.1000000238419,img/planet12_right.png,12,Community 1,NA,TRUE,j,j,NA,NA,NA,1,6,"15,7,12,5,13,8,10,2,6,14,3,4,1,11,9"
14086,commdev-image-keyboard-response,590,1462587,learnblock2,732.5,img/planet13_left.png,13,Community 1,NA,TRUE,f,f,NA,NA,NA,1,6,"15,7,12,5,13,8,10,2,6,14,3,4,1,11,9"
14086,commdev-image-keyboard-response,591,1463838,learnblock2,886.1999999284744,img/planet15_left.png,15,Community 1,NA,TRUE,f,f,NA,NA,NA,1,6,"15,7,12,5,13,8,10,2,6,14,3,4,1,11,9"
14086,commdev-image-keyboard-response,592,1465089,learnblock2,651.3999999761581,img/planet13_right.png,13,Community 1,NA,TRUE,j,j,NA,NA,NA,1,6,"15,7,12,5,13,8,10,2,6,14,3,4,1,11,9"
14086,commdev-image-keyboard-response,593,1466340,learnblock2,765.7000000476837,img/planet3_right.png,3,Community 3,NA,TRUE,j,j,NA,NA,NA,1,6,"15,7,12,5,13,8,10,2,6,14,3,4,1,11,9"
14086,commdev-image-keyboard-response,594,1467592,learnblock2,919,img/planet1_left.png,1,Community 3,NA,TRUE,f,f,NA,NA,NA,1,6,"15,7,12,5,13,8,10,2,6,14,3,4,1,11,9"
14086,commdev-image-keyboard-response,595,1468844,learnblock2,690,img/planet3_left.png,3,Community 3,NA,TRUE,f,f,NA,NA,NA,1,6,"15,7,12,5,13,8,10,2,6,14,3,4,1,11,9"
14086,commdev-image-keyboard-response,596,1470096,learnblock2,773.6000000238419,img/planet11_left.png,11,Community 3,NA,TRUE,f,f,NA,NA,NA,1,6,"15,7,12,5,13,8,10,2,6,14,3,4,1,11,9"
14086,commdev-image-keyboard-response,597,1471347,learnblock2,925.2000000476837,img/planet1_left.png,1,Community 3,NA,TRUE,f,f,NA,NA,NA,1,6,"15,7,12,5,13,8,10,2,6,14,3,4,1,11,9"
14086,commdev-image-keyboard-response,598,1472599,learnblock2,678.3999999761581,img/planet4_right.png,4,Community 3,NA,TRUE,j,j,NA,NA,NA,1,6,"15,7,12,5,13,8,10,2,6,14,3,4,1,11,9"
14086,commdev-image-keyboard-response,599,1473850,learnblock2,625,img/planet11_left.png,11,Community 3,NA,TRUE,f,f,NA,NA,NA,1,6,"15,7,12,5,13,8,10,2,6,14,3,4,1,11,9"
14086,commdev-image-keyboard-response,600,1475102,learnblock2,1008.3999999761581,img/planet4_left.png,4,Community 3,NA,TRUE,f,f,NA,NA,NA,1,6,"15,7,12,5,13,8,10,2,6,14,3,4,1,11,9"
14086,commdev-image-keyboard-response,601,1476353,learnblock2,630.6000000238419,img/planet11_left.png,11,Community 3,NA,TRUE,f,f,NA,NA,NA,1,6,"15,7,12,5,13,8,10,2,6,14,3,4,1,11,9"
14086,commdev-image-keyboard-response,602,1477606,learnblock2,661.1000000238419,img/planet1_left.png,1,Community 3,NA,TRUE,f,f,NA,NA,NA,1,6,"15,7,12,5,13,8,10,2,6,14,3,4,1,11,9"
14086,commdev-image-keyboard-response,603,1478857,learnblock2,490.1999999284744,img/planet3_left.png,3,Community 3,NA,TRUE,f,f,NA,NA,NA,1,6,"15,7,12,5,13,8,10,2,6,14,3,4,1,11,9"
14086,commdev-image-keyboard-response,604,1480108,learnblock2,645.2999999523163,img/planet9_left.png,9,Community 3,NA,TRUE,f,f,NA,NA,NA,1,6,"15,7,12,5,13,8,10,2,6,14,3,4,1,11,9"
14086,commdev-image-keyboard-response,605,1481360,learnblock2,705.1999999284744,img/planet3_left.png,3,Community 3,NA,TRUE,f,f,NA,NA,NA,1,6,"15,7,12,5,13,8,10,2,6,14,3,4,1,11,9"
14086,commdev-image-keyboard-response,606,1482612,learnblock2,784.1000000238419,img/planet11_left.png,11,Community 3,NA,FALSE,j,f,NA,NA,NA,1,6,"15,7,12,5,13,8,10,2,6,14,3,4,1,11,9"
14086,commdev-image-keyboard-response,607,1483864,learnblock2,647.1000000238419,img/planet1_left.png,1,Community 3,NA,TRUE,f,f,NA,NA,NA,1,6,"15,7,12,5,13,8,10,2,6,14,3,4,1,11,9"
14086,commdev-image-keyboard-response,608,1485116,learnblock2,625.3000000715256,img/planet3_left.png,3,Community 3,NA,TRUE,f,f,NA,NA,NA,1,6,"15,7,12,5,13,8,10,2,6,14,3,4,1,11,9"
14086,commdev-image-keyboard-response,609,1486367,learnblock2,526.1000000238419,img/planet13_right.png,13,Community 1,NA,TRUE,j,j,NA,NA,NA,1,6,"15,7,12,5,13,8,10,2,6,14,3,4,1,11,9"
14086,commdev-image-keyboard-response,610,1487619,learnblock2,643.5,img/planet3_left.png,3,Community 3,NA,TRUE,f,f,NA,NA,NA,1,6,"15,7,12,5,13,8,10,2,6,14,3,4,1,11,9"
14086,commdev-image-keyboard-response,611,1488870,learnblock2,537.7999999523163,img/planet13_right.png,13,Community 1,NA,TRUE,j,j,NA,NA,NA,1,6,"15,7,12,5,13,8,10,2,6,14,3,4,1,11,9"
14086,commdev-image-keyboard-response,612,1490121,learnblock2,741.8999999761581,img/planet7_left.png,7,Community 1,NA,TRUE,f,f,NA,NA,NA,1,6,"15,7,12,5,13,8,10,2,6,14,3,4,1,11,9"
14086,commdev-image-keyboard-response,613,1491372,learnblock2,709.8999999761581,img/planet13_left.png,13,Community 1,NA,TRUE,f,f,NA,NA,NA,1,6,"15,7,12,5,13,8,10,2,6,14,3,4,1,11,9"
14086,commdev-image-keyboard-response,614,1492625,learnblock2,788.3000000715256,img/planet12_left.png,12,Community 1,NA,TRUE,f,f,NA,NA,NA,1,6,"15,7,12,5,13,8,10,2,6,14,3,4,1,11,9"
14086,commdev-image-keyboard-response,615,1493876,learnblock2,null,img/planet15_right.png,15,Community 1,NA,FALSE,null,j,NA,NA,NA,1,6,"15,7,12,5,13,8,10,2,6,14,3,4,1,11,9"
14086,commdev-image-keyboard-response,616,1495128,learnblock2,576.2000000476837,img/planet7_right.png,7,Community 1,NA,TRUE,j,j,NA,NA,NA,1,6,"15,7,12,5,13,8,10,2,6,14,3,4,1,11,9"
14086,commdev-image-keyboard-response,617,1496379,learnblock2,650.1000000238419,img/planet12_right.png,12,Community 1,NA,TRUE,j,j,NA,NA,NA,1,6,"15,7,12,5,13,8,10,2,6,14,3,4,1,11,9"
14086,commdev-image-keyboard-response,618,1497631,learnblock2,545.7999999523163,img/planet15_right.png,15,Community 1,NA,FALSE,f,j,NA,NA,NA,1,6,"15,7,12,5,13,8,10,2,6,14,3,4,1,11,9"
14086,commdev-image-keyboard-response,619,1498882,learnblock2,579.7999999523163,img/planet7_left.png,7,Community 1,NA,TRUE,f,f,NA,NA,NA,1,6,"15,7,12,5,13,8,10,2,6,14,3,4,1,11,9"
14086,commdev-image-keyboard-response,620,1500134,learnblock2,652.8000000715256,img/planet12_right.png,12,Community 1,NA,TRUE,j,j,NA,NA,NA,1,6,"15,7,12,5,13,8,10,2,6,14,3,4,1,11,9"
14086,commdev-image-keyboard-response,621,1501385,learnblock2,590.7999999523163,img/planet5_left.png,5,Community 1,NA,TRUE,f,f,NA,NA,NA,1,6,"15,7,12,5,13,8,10,2,6,14,3,4,1,11,9"
14086,commdev-image-keyboard-response,622,1502636,learnblock2,885.1999999284744,img/planet7_left.png,7,Community 1,NA,TRUE,f,f,NA,NA,NA,1,6,"15,7,12,5,13,8,10,2,6,14,3,4,1,11,9"
14086,commdev-image-keyboard-response,623,1503888,learnblock2,949,img/planet15_right.png,15,Community 1,NA,TRUE,j,j,NA,NA,NA,1,6,"15,7,12,5,13,8,10,2,6,14,3,4,1,11,9"
14086,commdev-image-keyboard-response,624,1505140,learnblock2,711.6000000238419,img/planet5_left.png,5,Community 1,NA,TRUE,f,f,NA,NA,NA,1,6,"15,7,12,5,13,8,10,2,6,14,3,4,1,11,9"
14086,commdev-image-keyboard-response,625,1506392,learnblock2,1058.7000000476837,img/planet12_left.png,12,Community 1,NA,TRUE,f,f,NA,NA,NA,1,6,"15,7,12,5,13,8,10,2,6,14,3,4,1,11,9"
14086,commdev-image-keyboard-response,626,1507644,learnblock2,921,img/planet7_left.png,7,Community 1,NA,TRUE,f,f,NA,NA,NA,1,6,"15,7,12,5,13,8,10,2,6,14,3,4,1,11,9"
14086,commdev-image-keyboard-response,627,1508896,learnblock2,645.5999999046326,img/planet13_left.png,13,Community 1,NA,TRUE,f,f,NA,NA,NA,1,6,"15,7,12,5,13,8,10,2,6,14,3,4,1,11,9"
14086,commdev-image-keyboard-response,628,1510148,learnblock2,674.3999999761581,img/planet12_left.png,12,Community 1,NA,TRUE,f,f,NA,NA,NA,1,6,"15,7,12,5,13,8,10,2,6,14,3,4,1,11,9"
14086,commdev-image-keyboard-response,629,1511400,learnblock2,637,img/planet15_right.png,15,Community 1,NA,TRUE,j,j,NA,NA,NA,1,6,"15,7,12,5,13,8,10,2,6,14,3,4,1,11,9"
14086,commdev-image-keyboard-response,630,1512651,learnblock2,903.5999999046326,img/planet13_right.png,13,Community 1,NA,TRUE,j,j,NA,NA,NA,1,6,"15,7,12,5,13,8,10,2,6,14,3,4,1,11,9"
14086,commdev-image-keyboard-response,631,1513903,learnblock2,860.6999999284744,img/planet12_left.png,12,Community 1,NA,TRUE,f,f,NA,NA,NA,1,6,"15,7,12,5,13,8,10,2,6,14,3,4,1,11,9"
14086,commdev-image-keyboard-response,632,1515154,learnblock2,725.0999999046326,img/planet15_left.png,15,Community 1,NA,TRUE,f,f,NA,NA,NA,1,6,"15,7,12,5,13,8,10,2,6,14,3,4,1,11,9"
14086,commdev-image-keyboard-response,633,1516406,learnblock2,595.6000000238419,img/planet13_right.png,13,Community 1,NA,TRUE,j,j,NA,NA,NA,1,6,"15,7,12,5,13,8,10,2,6,14,3,4,1,11,9"
14086,commdev-image-keyboard-response,634,1517658,learnblock2,802.2000000476837,img/planet12_right.png,12,Community 1,NA,TRUE,j,j,NA,NA,NA,1,6,"15,7,12,5,13,8,10,2,6,14,3,4,1,11,9"
14086,commdev-image-keyboard-response,635,1518910,learnblock2,1198.7999999523163,img/planet15_right.png,15,Community 1,NA,FALSE,f,j,NA,NA,NA,1,6,"15,7,12,5,13,8,10,2,6,14,3,4,1,11,9"
14086,commdev-image-keyboard-response,636,1520163,learnblock2,919.5,img/planet7_left.png,7,Community 1,NA,TRUE,f,f,NA,NA,NA,1,6,"15,7,12,5,13,8,10,2,6,14,3,4,1,11,9"
14086,commdev-image-keyboard-response,637,1521414,learnblock2,782.4000000953674,img/planet12_left.png,12,Community 1,NA,TRUE,f,f,NA,NA,NA,1,6,"15,7,12,5,13,8,10,2,6,14,3,4,1,11,9"
14086,commdev-image-keyboard-response,638,1522666,learnblock2,637.6000000238419,img/planet5_left.png,5,Community 1,NA,TRUE,f,f,NA,NA,NA,1,6,"15,7,12,5,13,8,10,2,6,14,3,4,1,11,9"
14086,commdev-image-keyboard-response,639,1523918,learnblock2,572,img/planet12_right.png,12,Community 1,NA,TRUE,j,j,NA,NA,NA,1,6,"15,7,12,5,13,8,10,2,6,14,3,4,1,11,9"
14086,commdev-image-keyboard-response,640,1525170,learnblock2,639.7000000476837,img/planet15_left.png,15,Community 1,NA,TRUE,f,f,NA,NA,NA,1,6,"15,7,12,5,13,8,10,2,6,14,3,4,1,11,9"
14086,commdev-image-keyboard-response,641,1526422,learnblock2,645.7999999523163,img/planet5_right.png,5,Community 1,NA,TRUE,j,j,NA,NA,NA,1,6,"15,7,12,5,13,8,10,2,6,14,3,4,1,11,9"
14086,commdev-image-keyboard-response,642,1527673,learnblock2,879.1000000238419,img/planet7_right.png,7,Community 1,NA,TRUE,j,j,NA,NA,NA,1,6,"15,7,12,5,13,8,10,2,6,14,3,4,1,11,9"
14086,commdev-image-keyboard-response,643,1528926,learnblock2,1001.1999999284744,img/planet12_right.png,12,Community 1,NA,FALSE,f,j,NA,NA,NA,1,6,"15,7,12,5,13,8,10,2,6,14,3,4,1,11,9"
14086,commdev-image-keyboard-response,644,1530177,learnblock2,622.6999999284744,img/planet5_left.png,5,Community 1,NA,TRUE,f,f,NA,NA,NA,1,6,"15,7,12,5,13,8,10,2,6,14,3,4,1,11,9"
14086,commdev-image-keyboard-response,645,1531428,learnblock2,645,img/planet8_right.png,8,Community 2,NA,TRUE,j,j,NA,NA,NA,1,6,"15,7,12,5,13,8,10,2,6,14,3,4,1,11,9"
14086,commdev-image-keyboard-response,646,1532679,learnblock2,728.3999999761581,img/planet5_left.png,5,Community 1,NA,TRUE,f,f,NA,NA,NA,1,6,"15,7,12,5,13,8,10,2,6,14,3,4,1,11,9"
14086,commdev-image-keyboard-response,647,1533931,learnblock2,null,img/planet12_left.png,12,Community 1,NA,FALSE,null,f,NA,NA,NA,1,6,"15,7,12,5,13,8,10,2,6,14,3,4,1,11,9"
14086,commdev-image-keyboard-response,648,1535182,learnblock2,34.10000002384186,img/planet13_left.png,13,Community 1,NA,TRUE,f,f,NA,NA,NA,1,6,"15,7,12,5,13,8,10,2,6,14,3,4,1,11,9"
14086,commdev-image-keyboard-response,649,1536433,learnblock2,898,img/planet12_left.png,12,Community 1,NA,TRUE,f,f,NA,NA,NA,1,6,"15,7,12,5,13,8,10,2,6,14,3,4,1,11,9"
14086,commdev-image-keyboard-response,650,1537686,learnblock2,783.7000000476837,img/planet15_right.png,15,Community 1,NA,TRUE,j,j,NA,NA,NA,1,6,"15,7,12,5,13,8,10,2,6,14,3,4,1,11,9"
