subject_id,trial_type,trial_index,time_elapsed,block,rt,stimulus,planet,community,response,correct,key_press,learning_correct_response,parse,init_locations,final_locations,browser_interactions,num_comp,planet_map
14820,commdev-instructions,7,37560,NA,1107.1000000089407,"<p>In this game, you will be shown a 3x3 grid of patterns.</p> <p>The last one in the bottom right-hand corner, <strong>will be missing:</strong></p> <div style='width: 700px;'><div style='float: top;'><img style='width: 200px;' src='practice/p1_M1.png'></img><p class='small'>You need to select<strong> which of the four possible patterns </strong>along the bottom<strong> fits into the gap:</strong></p></div><div style='float: top;'><img style='width: 300px;' src='practice/p1_T1.png'></img></div><br>",NA,NA,NA,NA,NA,NA,NA,NA,NA,1,6,"10,14,3,12,9,8,1,2,6,11,13,5,7,4,15"
14820,commdev-instructions,8,60537,NA,2826.5,"<p>Try to be as fast and as accurate as you can be.</p> <p>If you cannot solve the puzzle then you should guess - you will not be penalised for an incorrect answer.</p> <p>The task contains a shuffled mix of easy, medium and hard puzzles.</p> <p>You will have <strong>30 seconds</strong> to complete each puzzle.</p><br>",NA,NA,NA,NA,NA,NA,NA,NA,NA,1,6,"10,14,3,12,9,8,1,2,6,11,13,5,7,4,15"
14820,commdev-instructions,15,87733,NA,2993.2000000029802,<p><strong>Success!</strong></p> <p>You seem to be getting the hang of this...</p> <p>Let's move on to the real trials.</p><br>,NA,NA,NA,NA,NA,NA,NA,NA,NA,1,6,"10,14,3,12,9,8,1,2,6,11,13,5,7,4,15"
14820,commdev-instructions,79,584612,NA,4816.699999988079,"<p>In this game, you are a scientist on board a space shuttle. </p><p> On each mission, you will visit planets all across the universe.</p><img src=""img/controlroom.jpg"" width=300vw>",NA,NA,NA,NA,NA,NA,NA,NA,NA,1,6,"10,14,3,12,9,8,1,2,6,11,13,5,7,4,15"
14820,commdev-instructions,80,589051,NA,2364.7999999970198,"<p>Here are a few planets you might see:</p><img src=""img/practice1.png"" width=200vw><img src=""img/practice2.png"" width=200vw><img src=""img/practice3.png"" width=200vw>",NA,NA,NA,NA,NA,NA,NA,NA,NA,1,6,"10,14,3,12,9,8,1,2,6,11,13,5,7,4,15"
14820,commdev-instructions,81,598149,NA,1702.699999988079,"<p>Your job as a scientist is to record which direction the winds are moving on each planet.</p><p>There are two types of wind directions:</p><img src=""img/practice1_left.png"" width=200vw><img src=""img/practice1_right.png"" width=200vw>",NA,NA,NA,NA,NA,NA,NA,NA,NA,1,6,"10,14,3,12,9,8,1,2,6,11,13,5,7,4,15"
14820,commdev-instructions,82,604020,NA,993.0999999940395,"<p>If the winds are moving this way, press the letter <strong>F</strong> on the keyboard as fast as you can.</p><img src=""img/leftwind.png"" width=250vw>",NA,NA,NA,NA,NA,NA,NA,NA,NA,1,6,"10,14,3,12,9,8,1,2,6,11,13,5,7,4,15"
14820,commdev-instructions,83,609923,NA,1401.9000000059605,"<p>If the winds are moving this way, press the letter <strong>J</strong> on the keyboard as fast as you can.</p><img src=""img/rightwind.png"" width=350vw>",NA,NA,NA,NA,NA,NA,NA,NA,NA,1,6,"10,14,3,12,9,8,1,2,6,11,13,5,7,4,15"
14820,commdev-instructions,84,616973,NA,2628.5,<p>You will have 1 second to respond. Try to respond before the time runs out!,NA,NA,NA,NA,NA,NA,NA,NA,NA,1,6,"10,14,3,12,9,8,1,2,6,11,13,5,7,4,15"
14820,commdev-instructions,85,623368,NA,959.6999999880791,<p>The planets you will visit will look different from each other.</p><p>You should respond <strong>only</strong> based on wind direction.,NA,NA,NA,NA,NA,NA,NA,NA,NA,1,6,"10,14,3,12,9,8,1,2,6,11,13,5,7,4,15"
14820,commdev-instructions,86,630176,NA,1634,"<p> Ready to start the practice round? </p><p> Remember, press <strong>F</strong> or <strong>J</strong> depending on the wind direction.<br><img src=""img/categorize_planet_example.png""",NA,NA,NA,NA,NA,NA,NA,NA,NA,1,6,"10,14,3,12,9,8,1,2,6,11,13,5,7,4,15"
14820,commdev-instructions,98,686800,NA,2949.5,"<p>Great, now try a short practice mission. </p><p> This time, you will have 1 second to respond and you won't know whether you pressed the right or wrong key for each planet.</p>",NA,NA,NA,NA,NA,NA,NA,NA,NA,1,6,"10,14,3,12,9,8,1,2,6,11,13,5,7,4,15"
14820,commdev-image-keyboard-response,99,688164,practice,579.4000000059605,img/practice4_left.png,NA,Number not found in mappings,NA,TRUE,f,f,NA,NA,NA,1,6,"10,14,3,12,9,8,1,2,6,11,13,5,7,4,15"
14820,commdev-image-keyboard-response,100,689419,practice,597.7999999970198,img/practice1_right.png,NA,Number not found in mappings,NA,TRUE,j,j,NA,NA,NA,1,6,"10,14,3,12,9,8,1,2,6,11,13,5,7,4,15"
14820,commdev-image-keyboard-response,101,690676,practice,572.2000000029802,img/practice3_left.png,NA,Number not found in mappings,NA,TRUE,f,f,NA,NA,NA,1,6,"10,14,3,12,9,8,1,2,6,11,13,5,7,4,15"
14820,commdev-image-keyboard-response,102,691931,practice,464.70000000298023,img/practice4_right.png,NA,Number not found in mappings,NA,TRUE,j,j,NA,NA,NA,1,6,"10,14,3,12,9,8,1,2,6,11,13,5,7,4,15"
14820,commdev-image-keyboard-response,103,693187,practice,723.2999999970198,img/practice3_right.png,NA,Number not found in mappings,NA,TRUE,j,j,NA,NA,NA,1,6,"10,14,3,12,9,8,1,2,6,11,13,5,7,4,15"
14820,commdev-image-keyboard-response,104,694443,practice,706.5999999940395,img/practice4_left.png,NA,Number not found in mappings,NA,TRUE,f,f,NA,NA,NA,1,6,"10,14,3,12,9,8,1,2,6,11,13,5,7,4,15"
14820,commdev-image-keyboard-response,105,695699,practice,706.7999999970198,img/practice1_left.png,NA,Number not found in mappings,NA,TRUE,f,f,NA,NA,NA,1,6,"10,14,3,12,9,8,1,2,6,11,13,5,7,4,15"
14820,commdev-image-keyboard-response,106,696955,practice,647.1999999880791,img/practice2_right.png,NA,Number not found in mappings,NA,TRUE,j,j,NA,NA,NA,1,6,"10,14,3,12,9,8,1,2,6,11,13,5,7,4,15"
14820,commdev-instructions,107,709402,NA,2895.6000000089407,"<p>Great job with the practice round.</p><p>During real missions, you won't know whether you pressed the right or wrong key for each planet.</p><p>But between missions, we will tell you how you did overall.</p>",NA,NA,NA,NA,NA,NA,NA,NA,NA,1,6,"10,14,3,12,9,8,1,2,6,11,13,5,7,4,15"
14820,commdev-instructions,108,720886,NA,3243.5999999940395,<p>Try your best! You will be paid a bonus based on how many correct responses you make!</p><p>Responses that are too slow will not count toward your bonus.</p>,NA,NA,NA,NA,NA,NA,NA,NA,NA,1,6,"10,14,3,12,9,8,1,2,6,11,13,5,7,4,15"
14820,commdev-instructions,109,729364,NA,2280.8999999910593,"<p>You are almost ready to start the real game.</p><p> First, we are going to ask you some questions about how the game works.</p>",NA,NA,NA,NA,NA,NA,NA,NA,NA,1,6,"10,14,3,12,9,8,1,2,6,11,13,5,7,4,15"
14820,commdev-instructions,118,817878,NA,5067.79999999702,"<p> Nice work! It is now time to start the real game.<p></p>You will go on two missions to record wind directions of different planets.<p></p>Each one will take about 5 minutes. You will get to take a break between missions.<p><p> Remember, press <strong>F</strong> or <strong>J</strong> depending on the wind direction. Good luck!<br><img src=""img/categorize_planet_example.png""",NA,NA,NA,NA,NA,NA,NA,NA,NA,1,6,"10,14,3,12,9,8,1,2,6,11,13,5,7,4,15"
14820,commdev-image-keyboard-response,120,823219,learnblock1,900.2000000029802,img/planet1_left.png,1,Community 2,NA,TRUE,f,f,NA,NA,NA,1,6,"10,14,3,12,9,8,1,2,6,11,13,5,7,4,15"
14820,commdev-image-keyboard-response,121,824476,learnblock1,1133.2999999970198,img/planet6_right.png,6,Community 2,NA,TRUE,j,j,NA,NA,NA,1,6,"10,14,3,12,9,8,1,2,6,11,13,5,7,4,15"
14820,commdev-image-keyboard-response,122,825731,learnblock1,1023.5,img/planet8_left.png,8,Community 2,NA,TRUE,f,f,NA,NA,NA,1,6,"10,14,3,12,9,8,1,2,6,11,13,5,7,4,15"
14820,commdev-image-keyboard-response,123,826987,learnblock1,null,img/planet11_left.png,11,Community 2,NA,FALSE,null,f,NA,NA,NA,1,6,"10,14,3,12,9,8,1,2,6,11,13,5,7,4,15"
14820,commdev-image-keyboard-response,124,828243,learnblock1,1069.7000000029802,img/planet1_left.png,1,Community 2,NA,TRUE,f,f,NA,NA,NA,1,6,"10,14,3,12,9,8,1,2,6,11,13,5,7,4,15"
14820,commdev-image-keyboard-response,125,829499,learnblock1,1002.2000000029802,img/planet8_left.png,8,Community 2,NA,TRUE,f,f,NA,NA,NA,1,6,"10,14,3,12,9,8,1,2,6,11,13,5,7,4,15"
14820,commdev-image-keyboard-response,126,830756,learnblock1,945.7000000029802,img/planet6_left.png,6,Community 2,NA,TRUE,f,f,NA,NA,NA,1,6,"10,14,3,12,9,8,1,2,6,11,13,5,7,4,15"
14820,commdev-image-keyboard-response,127,832012,learnblock1,999.5,img/planet11_right.png,11,Community 2,NA,TRUE,j,j,NA,NA,NA,1,6,"10,14,3,12,9,8,1,2,6,11,13,5,7,4,15"
14820,commdev-image-keyboard-response,128,833267,learnblock1,846,img/planet1_left.png,1,Community 2,NA,TRUE,f,f,NA,NA,NA,1,6,"10,14,3,12,9,8,1,2,6,11,13,5,7,4,15"
14820,commdev-image-keyboard-response,129,834524,learnblock1,859.2999999970198,img/planet11_right.png,11,Community 2,NA,TRUE,j,j,NA,NA,NA,1,6,"10,14,3,12,9,8,1,2,6,11,13,5,7,4,15"
14820,commdev-image-keyboard-response,130,835779,learnblock1,696.3000000119209,img/planet6_left.png,6,Community 2,NA,TRUE,f,f,NA,NA,NA,1,6,"10,14,3,12,9,8,1,2,6,11,13,5,7,4,15"
14820,commdev-image-keyboard-response,131,837035,learnblock1,769.2000000029802,img/planet2_right.png,2,Community 2,NA,TRUE,j,j,NA,NA,NA,1,6,"10,14,3,12,9,8,1,2,6,11,13,5,7,4,15"
14820,commdev-image-keyboard-response,132,838291,learnblock1,788.5999999940395,img/planet6_right.png,6,Community 2,NA,TRUE,j,j,NA,NA,NA,1,6,"10,14,3,12,9,8,1,2,6,11,13,5,7,4,15"
14820,commdev-image-keyboard-response,133,839548,learnblock1,727.6000000089407,img/planet1_left.png,1,Community 2,NA,TRUE,f,f,NA,NA,NA,1,6,"10,14,3,12,9,8,1,2,6,11,13,5,7,4,15"
14820,commdev-image-keyboard-response,134,840803,learnblock1,770.6000000089407,img/planet2_left.png,2,Community 2,NA,TRUE,f,f,NA,NA,NA,1,6,"10,14,3,12,9,8,1,2,6,11,13,5,7,4,15"
14820,commdev-image-keyboard-response,135,842059,learnblock1,827.5999999940395,img/planet5_right.png,5,Community 3,NA,TRUE,j,j,NA,NA,NA,1,6,"10,14,3,12,9,8,1,2,6,11,13,5,7,4,15"
14820,commdev-image-keyboard-response,136,843315,learnblock1,743.7999999970198,img/planet4_left.png,4,Community 3,NA,TRUE,f,f,NA,NA,NA,1,6,"10,14,3,12,9,8,1,2,6,11,13,5,7,4,15"
14820,commdev-image-keyboard-response,137,844572,learnblock1,844.6000000089407,img/planet5_left.png,5,Community 3,NA,TRUE,f,f,NA,NA,NA,1,6,"10,14,3,12,9,8,1,2,6,11,13,5,7,4,15"
14820,commdev-image-keyboard-response,138,845827,learnblock1,759,img/planet7_right.png,7,Community 3,NA,TRUE,j,j,NA,NA,NA,1,6,"10,14,3,12,9,8,1,2,6,11,13,5,7,4,15"
14820,commdev-image-keyboard-response,139,847083,learnblock1,674.1000000089407,img/planet15_left.png,15,Community 3,NA,TRUE,f,f,NA,NA,NA,1,6,"10,14,3,12,9,8,1,2,6,11,13,5,7,4,15"
14820,commdev-image-keyboard-response,140,848339,learnblock1,658.1000000089407,img/planet5_left.png,5,Community 3,NA,TRUE,f,f,NA,NA,NA,1,6,"10,14,3,12,9,8,1,2,6,11,13,5,7,4,15"
14820,commdev-image-keyboard-response,141,849596,learnblock1,615,img/planet4_left.png,4,Community 3,NA,TRUE,f,f,NA,NA,NA,1,6,"10,14,3,12,9,8,1,2,6,11,13,5,7,4,15"
14820,commdev-image-keyboard-response,142,850851,learnblock1,618.2000000029802,img/planet5_right.png,5,Community 3,NA,TRUE,j,j,NA,NA,NA,1,6,"10,14,3,12,9,8,1,2,6,11,13,5,7,4,15"
14820,commdev-image-keyboard-response,143,852107,learnblock1,742.0999999940395,img/planet15_right.png,15,Community 3,NA,TRUE,j,j,NA,NA,NA,1,6,"10,14,3,12,9,8,1,2,6,11,13,5,7,4,15"
14820,commdev-image-keyboard-response,144,853363,learnblock1,857,img/planet5_right.png,5,Community 3,NA,TRUE,j,j,NA,NA,NA,1,6,"10,14,3,12,9,8,1,2,6,11,13,5,7,4,15"
14820,commdev-image-keyboard-response,145,854619,learnblock1,1001.6000000089407,img/planet4_right.png,4,Community 3,NA,TRUE,j,j,NA,NA,NA,1,6,"10,14,3,12,9,8,1,2,6,11,13,5,7,4,15"
14820,commdev-image-keyboard-response,146,855875,learnblock1,978.2999999970198,img/planet5_left.png,5,Community 3,NA,TRUE,f,f,NA,NA,NA,1,6,"10,14,3,12,9,8,1,2,6,11,13,5,7,4,15"
14820,commdev-image-keyboard-response,147,857132,learnblock1,991,img/planet2_left.png,2,Community 2,NA,TRUE,f,f,NA,NA,NA,1,6,"10,14,3,12,9,8,1,2,6,11,13,5,7,4,15"
14820,commdev-image-keyboard-response,148,858387,learnblock1,935.9000000059605,img/planet11_left.png,11,Community 2,NA,TRUE,f,f,NA,NA,NA,1,6,"10,14,3,12,9,8,1,2,6,11,13,5,7,4,15"
14820,commdev-image-keyboard-response,149,859643,learnblock1,800.5,img/planet6_right.png,6,Community 2,NA,TRUE,j,j,NA,NA,NA,1,6,"10,14,3,12,9,8,1,2,6,11,13,5,7,4,15"
14820,commdev-image-keyboard-response,150,860899,learnblock1,682.4000000059605,img/planet8_left.png,8,Community 2,NA,TRUE,f,f,NA,NA,NA,1,6,"10,14,3,12,9,8,1,2,6,11,13,5,7,4,15"
14820,commdev-image-keyboard-response,151,862155,learnblock1,1027.0999999940395,img/planet1_right.png,1,Community 2,NA,TRUE,j,j,NA,NA,NA,1,6,"10,14,3,12,9,8,1,2,6,11,13,5,7,4,15"
14820,commdev-image-keyboard-response,152,863411,learnblock1,810.3999999910593,img/planet2_right.png,2,Community 2,NA,TRUE,j,j,NA,NA,NA,1,6,"10,14,3,12,9,8,1,2,6,11,13,5,7,4,15"
14820,commdev-image-keyboard-response,153,864667,learnblock1,650.2000000029802,img/planet5_right.png,5,Community 3,NA,TRUE,j,j,NA,NA,NA,1,6,"10,14,3,12,9,8,1,2,6,11,13,5,7,4,15"
14820,commdev-image-keyboard-response,154,865923,learnblock1,713.2000000029802,img/planet7_left.png,7,Community 3,NA,TRUE,f,f,NA,NA,NA,1,6,"10,14,3,12,9,8,1,2,6,11,13,5,7,4,15"
14820,commdev-image-keyboard-response,155,867179,learnblock1,696.3999999910593,img/planet15_left.png,15,Community 3,NA,TRUE,f,f,NA,NA,NA,1,6,"10,14,3,12,9,8,1,2,6,11,13,5,7,4,15"
14820,commdev-image-keyboard-response,156,868435,learnblock1,681.9000000059605,img/planet4_left.png,4,Community 3,NA,TRUE,f,f,NA,NA,NA,1,6,"10,14,3,12,9,8,1,2,6,11,13,5,7,4,15"
14820,commdev-image-keyboard-response,157,869691,learnblock1,737.7000000029802,img/planet13_right.png,13,Community 3,NA,TRUE,j,j,NA,NA,NA,1,6,"10,14,3,12,9,8,1,2,6,11,13,5,7,4,15"
14820,commdev-image-keyboard-response,158,870948,learnblock1,781.2999999970198,img/planet7_left.png,7,Community 3,NA,TRUE,f,f,NA,NA,NA,1,6,"10,14,3,12,9,8,1,2,6,11,13,5,7,4,15"
14820,commdev-image-keyboard-response,159,872203,learnblock1,668.7999999970198,img/planet5_left.png,5,Community 3,NA,TRUE,f,f,NA,NA,NA,1,6,"10,14,3,12,9,8,1,2,6,11,13,5,7,4,15"
14820,commdev-image-keyboard-response,160,873459,learnblock1,796.8999999910593,img/planet7_right.png,7,Community 3,NA,TRUE,j,j,NA,NA,NA,1,6,"10,14,3,12,9,8,1,2,6,11,13,5,7,4,15"
14820,commdev-image-keyboard-response,161,874715,learnblock1,791.7999999970198,img/planet5_left.png,5,Community 3,NA,TRUE,f,f,NA,NA,NA,1,6,"10,14,3,12,9,8,1,2,6,11,13,5,7,4,15"
14820,commdev-image-keyboard-response,162,875971,learnblock1,944.1000000089407,img/planet7_left.png,7,Community 3,NA,TRUE,f,f,NA,NA,NA,1,6,"10,14,3,12,9,8,1,2,6,11,13,5,7,4,15"
14820,commdev-image-keyboard-response,163,877227,learnblock1,927.2000000029802,img/planet15_right.png,15,Community 3,NA,TRUE,j,j,NA,NA,NA,1,6,"10,14,3,12,9,8,1,2,6,11,13,5,7,4,15"
14820,commdev-image-keyboard-response,164,878483,learnblock1,1070.0999999940395,img/planet13_left.png,13,Community 3,NA,TRUE,f,f,NA,NA,NA,1,6,"10,14,3,12,9,8,1,2,6,11,13,5,7,4,15"
14820,commdev-image-keyboard-response,165,879739,learnblock1,1240.5,img/planet4_right.png,4,Community 3,NA,TRUE,j,j,NA,NA,NA,1,6,"10,14,3,12,9,8,1,2,6,11,13,5,7,4,15"
14820,commdev-image-keyboard-response,166,880996,learnblock1,1066,img/planet15_left.png,15,Community 3,NA,TRUE,f,f,NA,NA,NA,1,6,"10,14,3,12,9,8,1,2,6,11,13,5,7,4,15"
14820,commdev-image-keyboard-response,167,882251,learnblock1,909.6999999880791,img/planet7_right.png,7,Community 3,NA,TRUE,j,j,NA,NA,NA,1,6,"10,14,3,12,9,8,1,2,6,11,13,5,7,4,15"
14820,commdev-image-keyboard-response,168,883507,learnblock1,884.8000000119209,img/planet5_left.png,5,Community 3,NA,TRUE,f,f,NA,NA,NA,1,6,"10,14,3,12,9,8,1,2,6,11,13,5,7,4,15"
14820,commdev-image-keyboard-response,169,884763,learnblock1,702.6999999880791,img/planet7_left.png,7,Community 3,NA,TRUE,f,f,NA,NA,NA,1,6,"10,14,3,12,9,8,1,2,6,11,13,5,7,4,15"
14820,commdev-image-keyboard-response,170,886019,learnblock1,644.8999999910593,img/planet4_left.png,4,Community 3,NA,TRUE,f,f,NA,NA,NA,1,6,"10,14,3,12,9,8,1,2,6,11,13,5,7,4,15"
14820,commdev-image-keyboard-response,171,887275,learnblock1,853.2999999970198,img/planet13_left.png,13,Community 3,NA,TRUE,f,f,NA,NA,NA,1,6,"10,14,3,12,9,8,1,2,6,11,13,5,7,4,15"
14820,commdev-image-keyboard-response,172,888531,learnblock1,682.2999999970198,img/planet4_left.png,4,Community 3,NA,TRUE,f,f,NA,NA,NA,1,6,"10,14,3,12,9,8,1,2,6,11,13,5,7,4,15"
14820,commdev-image-keyboard-response,173,889787,learnblock1,597.1999999880791,img/planet7_left.png,7,Community 3,NA,TRUE,f,f,NA,NA,NA,1,6,"10,14,3,12,9,8,1,2,6,11,13,5,7,4,15"
14820,commdev-image-keyboard-response,174,891043,learnblock1,null,img/planet5_right.png,5,Community 3,NA,FALSE,null,j,NA,NA,NA,1,6,"10,14,3,12,9,8,1,2,6,11,13,5,7,4,15"
14820,commdev-image-keyboard-response,175,892299,learnblock1,991.5999999940395,img/planet2_right.png,2,Community 2,NA,TRUE,j,j,NA,NA,NA,1,6,"10,14,3,12,9,8,1,2,6,11,13,5,7,4,15"
14820,commdev-image-keyboard-response,176,893555,learnblock1,814.2000000029802,img/planet11_left.png,11,Community 2,NA,TRUE,f,f,NA,NA,NA,1,6,"10,14,3,12,9,8,1,2,6,11,13,5,7,4,15"
14820,commdev-image-keyboard-response,177,894812,learnblock1,828.7000000029802,img/planet1_right.png,1,Community 2,NA,TRUE,j,j,NA,NA,NA,1,6,"10,14,3,12,9,8,1,2,6,11,13,5,7,4,15"
14820,commdev-image-keyboard-response,178,896068,learnblock1,884.5999999940395,img/planet6_right.png,6,Community 2,NA,TRUE,j,j,NA,NA,NA,1,6,"10,14,3,12,9,8,1,2,6,11,13,5,7,4,15"
14820,commdev-image-keyboard-response,179,897323,learnblock1,731.2000000029802,img/planet2_right.png,2,Community 2,NA,TRUE,j,j,NA,NA,NA,1,6,"10,14,3,12,9,8,1,2,6,11,13,5,7,4,15"
14820,commdev-image-keyboard-response,180,898580,learnblock1,679.5,img/planet1_left.png,1,Community 2,NA,TRUE,f,f,NA,NA,NA,1,6,"10,14,3,12,9,8,1,2,6,11,13,5,7,4,15"
14820,commdev-image-keyboard-response,181,899835,learnblock1,832.1000000089407,img/planet11_right.png,11,Community 2,NA,TRUE,j,j,NA,NA,NA,1,6,"10,14,3,12,9,8,1,2,6,11,13,5,7,4,15"
14820,commdev-image-keyboard-response,182,901091,learnblock1,718.7999999970198,img/planet1_left.png,1,Community 2,NA,TRUE,f,f,NA,NA,NA,1,6,"10,14,3,12,9,8,1,2,6,11,13,5,7,4,15"
14820,commdev-image-keyboard-response,183,902347,learnblock1,503,img/planet11_left.png,11,Community 2,NA,TRUE,f,f,NA,NA,NA,1,6,"10,14,3,12,9,8,1,2,6,11,13,5,7,4,15"
14820,commdev-image-keyboard-response,184,903603,learnblock1,773.7000000029802,img/planet6_right.png,6,Community 2,NA,TRUE,j,j,NA,NA,NA,1,6,"10,14,3,12,9,8,1,2,6,11,13,5,7,4,15"
14820,commdev-image-keyboard-response,185,904860,learnblock1,898.0999999940395,img/planet1_left.png,1,Community 2,NA,TRUE,f,f,NA,NA,NA,1,6,"10,14,3,12,9,8,1,2,6,11,13,5,7,4,15"
14820,commdev-image-keyboard-response,186,906115,learnblock1,745,img/planet6_left.png,6,Community 2,NA,TRUE,f,f,NA,NA,NA,1,6,"10,14,3,12,9,8,1,2,6,11,13,5,7,4,15"
14820,commdev-image-keyboard-response,187,907371,learnblock1,627.2000000029802,img/planet2_right.png,2,Community 2,NA,TRUE,j,j,NA,NA,NA,1,6,"10,14,3,12,9,8,1,2,6,11,13,5,7,4,15"
14820,commdev-image-keyboard-response,188,908628,learnblock1,662.2000000029802,img/planet6_right.png,6,Community 2,NA,TRUE,j,j,NA,NA,NA,1,6,"10,14,3,12,9,8,1,2,6,11,13,5,7,4,15"
14820,commdev-image-keyboard-response,189,909884,learnblock1,808.3999999910593,img/planet11_right.png,11,Community 2,NA,TRUE,j,j,NA,NA,NA,1,6,"10,14,3,12,9,8,1,2,6,11,13,5,7,4,15"
14820,commdev-image-keyboard-response,190,911139,learnblock1,817.0999999940395,img/planet2_left.png,2,Community 2,NA,TRUE,f,f,NA,NA,NA,1,6,"10,14,3,12,9,8,1,2,6,11,13,5,7,4,15"
14820,commdev-image-keyboard-response,191,912395,learnblock1,860.9000000059605,img/planet1_right.png,1,Community 2,NA,TRUE,j,j,NA,NA,NA,1,6,"10,14,3,12,9,8,1,2,6,11,13,5,7,4,15"
14820,commdev-image-keyboard-response,192,913651,learnblock1,739.1999999880791,img/planet8_left.png,8,Community 2,NA,TRUE,f,f,NA,NA,NA,1,6,"10,14,3,12,9,8,1,2,6,11,13,5,7,4,15"
14820,commdev-image-keyboard-response,193,914907,learnblock1,898.2000000029802,img/planet11_right.png,11,Community 2,NA,TRUE,j,j,NA,NA,NA,1,6,"10,14,3,12,9,8,1,2,6,11,13,5,7,4,15"
14820,commdev-image-keyboard-response,194,916163,learnblock1,1128.9000000059605,img/planet8_left.png,8,Community 2,NA,TRUE,f,f,NA,NA,NA,1,6,"10,14,3,12,9,8,1,2,6,11,13,5,7,4,15"
14820,commdev-image-keyboard-response,195,917419,learnblock1,1014.6000000089407,img/planet12_left.png,12,Community 1,NA,TRUE,f,f,NA,NA,NA,1,6,"10,14,3,12,9,8,1,2,6,11,13,5,7,4,15"
14820,commdev-image-keyboard-response,196,918676,learnblock1,580.7000000029802,img/planet14_left.png,14,Community 1,NA,TRUE,f,f,NA,NA,NA,1,6,"10,14,3,12,9,8,1,2,6,11,13,5,7,4,15"
14820,commdev-image-keyboard-response,197,919932,learnblock1,752.8000000119209,img/planet12_left.png,12,Community 1,NA,TRUE,f,f,NA,NA,NA,1,6,"10,14,3,12,9,8,1,2,6,11,13,5,7,4,15"
14820,commdev-image-keyboard-response,198,921187,learnblock1,523.0999999940395,img/planet10_left.png,10,Community 1,NA,TRUE,f,f,NA,NA,NA,1,6,"10,14,3,12,9,8,1,2,6,11,13,5,7,4,15"
14820,commdev-image-keyboard-response,199,922443,learnblock1,548.7000000029802,img/planet14_left.png,14,Community 1,NA,TRUE,f,f,NA,NA,NA,1,6,"10,14,3,12,9,8,1,2,6,11,13,5,7,4,15"
14820,commdev-image-keyboard-response,200,923699,learnblock1,814.1999999880791,img/planet9_left.png,9,Community 1,NA,TRUE,f,f,NA,NA,NA,1,6,"10,14,3,12,9,8,1,2,6,11,13,5,7,4,15"
14820,commdev-image-keyboard-response,201,924955,learnblock1,971.8999999910593,img/planet10_left.png,10,Community 1,NA,TRUE,f,f,NA,NA,NA,1,6,"10,14,3,12,9,8,1,2,6,11,13,5,7,4,15"
14820,commdev-image-keyboard-response,202,926211,learnblock1,829.3999999910593,img/planet12_left.png,12,Community 1,NA,TRUE,f,f,NA,NA,NA,1,6,"10,14,3,12,9,8,1,2,6,11,13,5,7,4,15"
14820,commdev-image-keyboard-response,203,927467,learnblock1,null,img/planet10_right.png,10,Community 1,NA,FALSE,null,j,NA,NA,NA,1,6,"10,14,3,12,9,8,1,2,6,11,13,5,7,4,15"
14820,commdev-image-keyboard-response,204,928723,learnblock1,966.2000000029802,img/planet14_right.png,14,Community 1,NA,TRUE,j,j,NA,NA,NA,1,6,"10,14,3,12,9,8,1,2,6,11,13,5,7,4,15"
14820,commdev-image-keyboard-response,205,929979,learnblock1,720.2999999970198,img/planet10_left.png,10,Community 1,NA,TRUE,f,f,NA,NA,NA,1,6,"10,14,3,12,9,8,1,2,6,11,13,5,7,4,15"
14820,commdev-image-keyboard-response,206,931235,learnblock1,710.2000000029802,img/planet12_left.png,12,Community 1,NA,TRUE,f,f,NA,NA,NA,1,6,"10,14,3,12,9,8,1,2,6,11,13,5,7,4,15"
14820,commdev-image-keyboard-response,207,932491,learnblock1,698.6000000089407,img/planet14_right.png,14,Community 1,NA,TRUE,j,j,NA,NA,NA,1,6,"10,14,3,12,9,8,1,2,6,11,13,5,7,4,15"
14820,commdev-image-keyboard-response,208,933747,learnblock1,771.8999999910593,img/planet9_left.png,9,Community 1,NA,TRUE,f,f,NA,NA,NA,1,6,"10,14,3,12,9,8,1,2,6,11,13,5,7,4,15"
14820,commdev-image-keyboard-response,209,935003,learnblock1,917.4000000059605,img/planet10_right.png,10,Community 1,NA,TRUE,j,j,NA,NA,NA,1,6,"10,14,3,12,9,8,1,2,6,11,13,5,7,4,15"
14820,commdev-image-keyboard-response,210,936259,learnblock1,961.3999999910593,img/planet12_right.png,12,Community 1,NA,TRUE,j,j,NA,NA,NA,1,6,"10,14,3,12,9,8,1,2,6,11,13,5,7,4,15"
14820,commdev-image-keyboard-response,211,937515,learnblock1,954.5999999940395,img/planet8_left.png,8,Community 2,NA,TRUE,f,f,NA,NA,NA,1,6,"10,14,3,12,9,8,1,2,6,11,13,5,7,4,15"
14820,commdev-image-keyboard-response,212,938772,learnblock1,1113.7999999970198,img/planet1_right.png,1,Community 2,NA,TRUE,j,j,NA,NA,NA,1,6,"10,14,3,12,9,8,1,2,6,11,13,5,7,4,15"
14820,commdev-image-keyboard-response,213,940027,learnblock1,1004.6999999880791,img/planet11_right.png,11,Community 2,NA,TRUE,j,j,NA,NA,NA,1,6,"10,14,3,12,9,8,1,2,6,11,13,5,7,4,15"
14820,commdev-image-keyboard-response,214,941283,learnblock1,774.0999999940395,img/planet2_right.png,2,Community 2,NA,TRUE,j,j,NA,NA,NA,1,6,"10,14,3,12,9,8,1,2,6,11,13,5,7,4,15"
14820,commdev-image-keyboard-response,215,942539,learnblock1,793.0999999940395,img/planet5_right.png,5,Community 3,NA,TRUE,j,j,NA,NA,NA,1,6,"10,14,3,12,9,8,1,2,6,11,13,5,7,4,15"
14820,commdev-image-keyboard-response,216,943795,learnblock1,820.8999999910593,img/planet2_left.png,2,Community 2,NA,TRUE,f,f,NA,NA,NA,1,6,"10,14,3,12,9,8,1,2,6,11,13,5,7,4,15"
14820,commdev-image-keyboard-response,217,945052,learnblock1,809.8999999910593,img/planet11_left.png,11,Community 2,NA,TRUE,f,f,NA,NA,NA,1,6,"10,14,3,12,9,8,1,2,6,11,13,5,7,4,15"
14820,commdev-image-keyboard-response,218,946307,learnblock1,729.5,img/planet2_left.png,2,Community 2,NA,TRUE,f,f,NA,NA,NA,1,6,"10,14,3,12,9,8,1,2,6,11,13,5,7,4,15"
14820,commdev-image-keyboard-response,219,947564,learnblock1,918,img/planet6_right.png,6,Community 2,NA,TRUE,j,j,NA,NA,NA,1,6,"10,14,3,12,9,8,1,2,6,11,13,5,7,4,15"
14820,commdev-image-keyboard-response,220,948820,learnblock1,1045.2000000029802,img/planet1_right.png,1,Community 2,NA,TRUE,j,j,NA,NA,NA,1,6,"10,14,3,12,9,8,1,2,6,11,13,5,7,4,15"
14820,commdev-image-keyboard-response,221,950076,learnblock1,null,img/planet8_left.png,8,Community 2,NA,FALSE,null,f,NA,NA,NA,1,6,"10,14,3,12,9,8,1,2,6,11,13,5,7,4,15"
14820,commdev-image-keyboard-response,222,951331,learnblock1,841.4000000059605,img/planet11_left.png,11,Community 2,NA,TRUE,f,f,NA,NA,NA,1,6,"10,14,3,12,9,8,1,2,6,11,13,5,7,4,15"
14820,commdev-image-keyboard-response,223,952587,learnblock1,608,img/planet6_left.png,6,Community 2,NA,TRUE,f,f,NA,NA,NA,1,6,"10,14,3,12,9,8,1,2,6,11,13,5,7,4,15"
14820,commdev-image-keyboard-response,224,953843,learnblock1,648.7000000029802,img/planet11_left.png,11,Community 2,NA,TRUE,f,f,NA,NA,NA,1,6,"10,14,3,12,9,8,1,2,6,11,13,5,7,4,15"
14820,commdev-image-keyboard-response,225,955099,learnblock1,589.9000000059605,img/planet2_left.png,2,Community 2,NA,TRUE,f,f,NA,NA,NA,1,6,"10,14,3,12,9,8,1,2,6,11,13,5,7,4,15"
14820,commdev-image-keyboard-response,226,956355,learnblock1,532.5,img/planet11_left.png,11,Community 2,NA,TRUE,f,f,NA,NA,NA,1,6,"10,14,3,12,9,8,1,2,6,11,13,5,7,4,15"
14820,commdev-image-keyboard-response,227,957611,learnblock1,578.4000000059605,img/planet2_left.png,2,Community 2,NA,TRUE,f,f,NA,NA,NA,1,6,"10,14,3,12,9,8,1,2,6,11,13,5,7,4,15"
14820,commdev-image-keyboard-response,228,958867,learnblock1,538.4000000059605,img/planet5_right.png,5,Community 3,NA,TRUE,j,j,NA,NA,NA,1,6,"10,14,3,12,9,8,1,2,6,11,13,5,7,4,15"
14820,commdev-image-keyboard-response,229,960124,learnblock1,542,img/planet2_right.png,2,Community 2,NA,TRUE,j,j,NA,NA,NA,1,6,"10,14,3,12,9,8,1,2,6,11,13,5,7,4,15"
14820,commdev-image-keyboard-response,230,961379,learnblock1,900.6000000089407,img/planet1_right.png,1,Community 2,NA,TRUE,j,j,NA,NA,NA,1,6,"10,14,3,12,9,8,1,2,6,11,13,5,7,4,15"
14820,commdev-image-keyboard-response,231,962635,learnblock1,681.6000000089407,img/planet2_right.png,2,Community 2,NA,TRUE,j,j,NA,NA,NA,1,6,"10,14,3,12,9,8,1,2,6,11,13,5,7,4,15"
14820,commdev-image-keyboard-response,232,963892,learnblock1,752.5999999940395,img/planet6_left.png,6,Community 2,NA,TRUE,f,f,NA,NA,NA,1,6,"10,14,3,12,9,8,1,2,6,11,13,5,7,4,15"
14820,commdev-image-keyboard-response,233,965147,learnblock1,545.5999999940395,img/planet11_right.png,11,Community 2,NA,TRUE,j,j,NA,NA,NA,1,6,"10,14,3,12,9,8,1,2,6,11,13,5,7,4,15"
14820,commdev-image-keyboard-response,234,966404,learnblock1,714.2000000029802,img/planet8_left.png,8,Community 2,NA,TRUE,f,f,NA,NA,NA,1,6,"10,14,3,12,9,8,1,2,6,11,13,5,7,4,15"
14820,commdev-image-keyboard-response,235,967659,learnblock1,622.0999999940395,img/planet1_left.png,1,Community 2,NA,TRUE,f,f,NA,NA,NA,1,6,"10,14,3,12,9,8,1,2,6,11,13,5,7,4,15"
14820,commdev-image-keyboard-response,236,968915,learnblock1,571.3999999910593,img/planet2_right.png,2,Community 2,NA,TRUE,j,j,NA,NA,NA,1,6,"10,14,3,12,9,8,1,2,6,11,13,5,7,4,15"
14820,commdev-image-keyboard-response,237,970171,learnblock1,823.6000000089407,img/planet11_right.png,11,Community 2,NA,TRUE,j,j,NA,NA,NA,1,6,"10,14,3,12,9,8,1,2,6,11,13,5,7,4,15"
14820,commdev-image-keyboard-response,238,971427,learnblock1,610.8999999910593,img/planet2_left.png,2,Community 2,NA,TRUE,f,f,NA,NA,NA,1,6,"10,14,3,12,9,8,1,2,6,11,13,5,7,4,15"
14820,commdev-image-keyboard-response,239,972684,learnblock1,1134.4000000059605,img/planet6_right.png,6,Community 2,NA,TRUE,j,j,NA,NA,NA,1,6,"10,14,3,12,9,8,1,2,6,11,13,5,7,4,15"
14820,commdev-image-keyboard-response,240,973939,learnblock1,1117.7000000029802,img/planet11_right.png,11,Community 2,NA,FALSE,f,j,NA,NA,NA,1,6,"10,14,3,12,9,8,1,2,6,11,13,5,7,4,15"
14820,commdev-image-keyboard-response,241,975195,learnblock1,null,img/planet1_left.png,1,Community 2,NA,FALSE,null,f,NA,NA,NA,1,6,"10,14,3,12,9,8,1,2,6,11,13,5,7,4,15"
14820,commdev-image-keyboard-response,242,976451,learnblock1,60.1000000089407,img/planet8_left.png,8,Community 2,NA,TRUE,f,f,NA,NA,NA,1,6,"10,14,3,12,9,8,1,2,6,11,13,5,7,4,15"
14820,commdev-image-keyboard-response,243,977707,learnblock1,788.7000000029802,img/planet6_left.png,6,Community 2,NA,TRUE,f,f,NA,NA,NA,1,6,"10,14,3,12,9,8,1,2,6,11,13,5,7,4,15"
14820,commdev-image-keyboard-response,244,978964,learnblock1,949,img/planet2_right.png,2,Community 2,NA,TRUE,j,j,NA,NA,NA,1,6,"10,14,3,12,9,8,1,2,6,11,13,5,7,4,15"
14820,commdev-image-keyboard-response,245,980219,learnblock1,754.5999999940395,img/planet1_left.png,1,Community 2,NA,TRUE,f,f,NA,NA,NA,1,6,"10,14,3,12,9,8,1,2,6,11,13,5,7,4,15"
14820,commdev-image-keyboard-response,246,981475,learnblock1,696,img/planet6_right.png,6,Community 2,NA,TRUE,j,j,NA,NA,NA,1,6,"10,14,3,12,9,8,1,2,6,11,13,5,7,4,15"
14820,commdev-image-keyboard-response,247,982731,learnblock1,null,img/planet1_left.png,1,Community 2,NA,FALSE,null,f,NA,NA,NA,1,6,"10,14,3,12,9,8,1,2,6,11,13,5,7,4,15"
14820,commdev-image-keyboard-response,248,983987,learnblock1,66.1000000089407,img/planet2_left.png,2,Community 2,NA,TRUE,f,f,NA,NA,NA,1,6,"10,14,3,12,9,8,1,2,6,11,13,5,7,4,15"
14820,commdev-image-keyboard-response,249,985243,learnblock1,675.4000000059605,img/planet1_left.png,1,Community 2,NA,TRUE,f,f,NA,NA,NA,1,6,"10,14,3,12,9,8,1,2,6,11,13,5,7,4,15"
14820,commdev-image-keyboard-response,250,986500,learnblock1,629.3000000119209,img/planet6_left.png,6,Community 2,NA,TRUE,f,f,NA,NA,NA,1,6,"10,14,3,12,9,8,1,2,6,11,13,5,7,4,15"
14820,commdev-image-keyboard-response,251,987755,learnblock1,588.7000000029802,img/planet1_right.png,1,Community 2,NA,TRUE,j,j,NA,NA,NA,1,6,"10,14,3,12,9,8,1,2,6,11,13,5,7,4,15"
14820,commdev-image-keyboard-response,252,989011,learnblock1,922.9000000059605,img/planet8_right.png,8,Community 2,NA,TRUE,j,j,NA,NA,NA,1,6,"10,14,3,12,9,8,1,2,6,11,13,5,7,4,15"
14820,commdev-image-keyboard-response,253,990267,learnblock1,808,img/planet6_right.png,6,Community 2,NA,TRUE,j,j,NA,NA,NA,1,6,"10,14,3,12,9,8,1,2,6,11,13,5,7,4,15"
14820,commdev-image-keyboard-response,254,991523,learnblock1,934.7999999970198,img/planet1_right.png,1,Community 2,NA,TRUE,j,j,NA,NA,NA,1,6,"10,14,3,12,9,8,1,2,6,11,13,5,7,4,15"
14820,commdev-image-keyboard-response,255,992779,learnblock1,738.9000000059605,img/planet6_left.png,6,Community 2,NA,TRUE,f,f,NA,NA,NA,1,6,"10,14,3,12,9,8,1,2,6,11,13,5,7,4,15"
14820,commdev-image-keyboard-response,256,994035,learnblock1,1043.7000000029802,img/planet1_left.png,1,Community 2,NA,TRUE,f,f,NA,NA,NA,1,6,"10,14,3,12,9,8,1,2,6,11,13,5,7,4,15"
14820,commdev-image-keyboard-response,257,995291,learnblock1,814.5,img/planet8_left.png,8,Community 2,NA,TRUE,f,f,NA,NA,NA,1,6,"10,14,3,12,9,8,1,2,6,11,13,5,7,4,15"
14820,commdev-image-keyboard-response,258,996548,learnblock1,598.1000000089407,img/planet6_right.png,6,Community 2,NA,TRUE,j,j,NA,NA,NA,1,6,"10,14,3,12,9,8,1,2,6,11,13,5,7,4,15"
14820,commdev-image-keyboard-response,259,997803,learnblock1,649.4000000059605,img/planet8_left.png,8,Community 2,NA,TRUE,f,f,NA,NA,NA,1,6,"10,14,3,12,9,8,1,2,6,11,13,5,7,4,15"
14820,commdev-image-keyboard-response,260,999059,learnblock1,687.3999999910593,img/planet12_right.png,12,Community 1,NA,TRUE,j,j,NA,NA,NA,1,6,"10,14,3,12,9,8,1,2,6,11,13,5,7,4,15"
14820,commdev-image-keyboard-response,261,1000315,learnblock1,914,img/planet8_left.png,8,Community 2,NA,TRUE,f,f,NA,NA,NA,1,6,"10,14,3,12,9,8,1,2,6,11,13,5,7,4,15"
14820,commdev-image-keyboard-response,262,1001571,learnblock1,1169.5999999940395,img/planet11_right.png,11,Community 2,NA,TRUE,j,j,NA,NA,NA,1,6,"10,14,3,12,9,8,1,2,6,11,13,5,7,4,15"
14820,commdev-image-keyboard-response,263,1002827,learnblock1,1001.9000000059605,img/planet8_right.png,8,Community 2,NA,TRUE,j,j,NA,NA,NA,1,6,"10,14,3,12,9,8,1,2,6,11,13,5,7,4,15"
14820,commdev-image-keyboard-response,264,1004083,learnblock1,677.5,img/planet6_left.png,6,Community 2,NA,TRUE,f,f,NA,NA,NA,1,6,"10,14,3,12,9,8,1,2,6,11,13,5,7,4,15"
14820,commdev-image-keyboard-response,265,1005340,learnblock1,553,img/planet2_right.png,2,Community 2,NA,TRUE,j,j,NA,NA,NA,1,6,"10,14,3,12,9,8,1,2,6,11,13,5,7,4,15"
14820,commdev-image-keyboard-response,266,1006596,learnblock1,716.3999999910593,img/planet1_right.png,1,Community 2,NA,TRUE,j,j,NA,NA,NA,1,6,"10,14,3,12,9,8,1,2,6,11,13,5,7,4,15"
14820,commdev-image-keyboard-response,267,1007851,learnblock1,1022.8999999910593,img/planet6_left.png,6,Community 2,NA,TRUE,f,f,NA,NA,NA,1,6,"10,14,3,12,9,8,1,2,6,11,13,5,7,4,15"
14820,commdev-image-keyboard-response,268,1009107,learnblock1,664.3000000119209,img/planet2_left.png,2,Community 2,NA,TRUE,f,f,NA,NA,NA,1,6,"10,14,3,12,9,8,1,2,6,11,13,5,7,4,15"
14820,commdev-image-keyboard-response,269,1010363,learnblock1,459.20000000298023,img/planet1_left.png,1,Community 2,NA,TRUE,f,f,NA,NA,NA,1,6,"10,14,3,12,9,8,1,2,6,11,13,5,7,4,15"
14820,commdev-image-keyboard-response,270,1011619,learnblock1,431.59999999403954,img/planet2_right.png,2,Community 2,NA,TRUE,j,j,NA,NA,NA,1,6,"10,14,3,12,9,8,1,2,6,11,13,5,7,4,15"
14820,commdev-image-keyboard-response,271,1012875,learnblock1,578.5999999940395,img/planet6_left.png,6,Community 2,NA,TRUE,f,f,NA,NA,NA,1,6,"10,14,3,12,9,8,1,2,6,11,13,5,7,4,15"
14820,commdev-image-keyboard-response,272,1014132,learnblock1,558,img/planet2_right.png,2,Community 2,NA,TRUE,j,j,NA,NA,NA,1,6,"10,14,3,12,9,8,1,2,6,11,13,5,7,4,15"
14820,commdev-image-keyboard-response,273,1015387,learnblock1,788.1000000089407,img/planet6_right.png,6,Community 2,NA,TRUE,j,j,NA,NA,NA,1,6,"10,14,3,12,9,8,1,2,6,11,13,5,7,4,15"
14820,commdev-image-keyboard-response,274,1016644,learnblock1,703.1000000089407,img/planet11_left.png,11,Community 2,NA,TRUE,f,f,NA,NA,NA,1,6,"10,14,3,12,9,8,1,2,6,11,13,5,7,4,15"
14820,commdev-image-keyboard-response,275,1017899,learnblock1,777.0999999940395,img/planet2_right.png,2,Community 2,NA,TRUE,j,j,NA,NA,NA,1,6,"10,14,3,12,9,8,1,2,6,11,13,5,7,4,15"
14820,commdev-image-keyboard-response,276,1019156,learnblock1,544.7000000029802,img/planet1_right.png,1,Community 2,NA,TRUE,j,j,NA,NA,NA,1,6,"10,14,3,12,9,8,1,2,6,11,13,5,7,4,15"
14820,commdev-image-keyboard-response,277,1020411,learnblock1,581.7000000029802,img/planet8_right.png,8,Community 2,NA,TRUE,j,j,NA,NA,NA,1,6,"10,14,3,12,9,8,1,2,6,11,13,5,7,4,15"
14820,commdev-image-keyboard-response,278,1021667,learnblock1,1052.7999999970198,img/planet11_right.png,11,Community 2,NA,TRUE,j,j,NA,NA,NA,1,6,"10,14,3,12,9,8,1,2,6,11,13,5,7,4,15"
14820,commdev-image-keyboard-response,279,1022924,learnblock1,994.6999999880791,img/planet6_left.png,6,Community 2,NA,TRUE,f,f,NA,NA,NA,1,6,"10,14,3,12,9,8,1,2,6,11,13,5,7,4,15"
14820,commdev-image-keyboard-response,280,1024179,learnblock1,904.4000000059605,img/planet1_left.png,1,Community 2,NA,FALSE,j,f,NA,NA,NA,1,6,"10,14,3,12,9,8,1,2,6,11,13,5,7,4,15"
14820,commdev-image-keyboard-response,281,1025435,learnblock1,670.7000000029802,img/planet8_left.png,8,Community 2,NA,TRUE,f,f,NA,NA,NA,1,6,"10,14,3,12,9,8,1,2,6,11,13,5,7,4,15"
14820,commdev-image-keyboard-response,282,1026691,learnblock1,703,img/planet6_right.png,6,Community 2,NA,TRUE,j,j,NA,NA,NA,1,6,"10,14,3,12,9,8,1,2,6,11,13,5,7,4,15"
14820,commdev-image-keyboard-response,283,1027947,learnblock1,729.1999999880791,img/planet8_right.png,8,Community 2,NA,TRUE,j,j,NA,NA,NA,1,6,"10,14,3,12,9,8,1,2,6,11,13,5,7,4,15"
14820,commdev-image-keyboard-response,284,1029203,learnblock1,485.59999999403954,img/planet11_left.png,11,Community 2,NA,TRUE,f,f,NA,NA,NA,1,6,"10,14,3,12,9,8,1,2,6,11,13,5,7,4,15"
14820,commdev-image-keyboard-response,285,1030459,learnblock1,1168.5,img/planet6_right.png,6,Community 2,NA,TRUE,j,j,NA,NA,NA,1,6,"10,14,3,12,9,8,1,2,6,11,13,5,7,4,15"
14820,commdev-image-keyboard-response,286,1031715,learnblock1,511.79999999701977,img/planet2_left.png,2,Community 2,NA,TRUE,f,f,NA,NA,NA,1,6,"10,14,3,12,9,8,1,2,6,11,13,5,7,4,15"
14820,commdev-image-keyboard-response,287,1032971,learnblock1,673.2000000029802,img/planet5_left.png,5,Community 3,NA,TRUE,f,f,NA,NA,NA,1,6,"10,14,3,12,9,8,1,2,6,11,13,5,7,4,15"
14820,commdev-image-keyboard-response,288,1034227,learnblock1,715.2999999970198,img/planet15_right.png,15,Community 3,NA,TRUE,j,j,NA,NA,NA,1,6,"10,14,3,12,9,8,1,2,6,11,13,5,7,4,15"
14820,commdev-image-keyboard-response,289,1035483,learnblock1,1007.1000000089407,img/planet7_left.png,7,Community 3,NA,TRUE,f,f,NA,NA,NA,1,6,"10,14,3,12,9,8,1,2,6,11,13,5,7,4,15"
14820,commdev-image-keyboard-response,290,1036740,learnblock1,730.3000000119209,img/planet13_left.png,13,Community 3,NA,TRUE,f,f,NA,NA,NA,1,6,"10,14,3,12,9,8,1,2,6,11,13,5,7,4,15"
14820,commdev-image-keyboard-response,291,1037995,learnblock1,609.2000000029802,img/planet15_left.png,15,Community 3,NA,TRUE,f,f,NA,NA,NA,1,6,"10,14,3,12,9,8,1,2,6,11,13,5,7,4,15"
14820,commdev-image-keyboard-response,292,1039252,learnblock1,945.8999999910593,img/planet7_right.png,7,Community 3,NA,TRUE,j,j,NA,NA,NA,1,6,"10,14,3,12,9,8,1,2,6,11,13,5,7,4,15"
14820,commdev-image-keyboard-response,293,1040507,learnblock1,629.6999999880791,img/planet15_left.png,15,Community 3,NA,TRUE,f,f,NA,NA,NA,1,6,"10,14,3,12,9,8,1,2,6,11,13,5,7,4,15"
14820,commdev-image-keyboard-response,294,1041763,learnblock1,738.9000000059605,img/planet7_right.png,7,Community 3,NA,TRUE,j,j,NA,NA,NA,1,6,"10,14,3,12,9,8,1,2,6,11,13,5,7,4,15"
14820,commdev-image-keyboard-response,295,1043028,learnblock1,594.2000000029802,img/planet15_left.png,15,Community 3,NA,TRUE,f,f,NA,NA,NA,1,6,"10,14,3,12,9,8,1,2,6,11,13,5,7,4,15"
14820,commdev-image-keyboard-response,296,1044283,learnblock1,555.9000000059605,img/planet13_left.png,13,Community 3,NA,TRUE,f,f,NA,NA,NA,1,6,"10,14,3,12,9,8,1,2,6,11,13,5,7,4,15"
14820,commdev-image-keyboard-response,297,1045539,learnblock1,457.20000000298023,img/planet15_right.png,15,Community 3,NA,TRUE,j,j,NA,NA,NA,1,6,"10,14,3,12,9,8,1,2,6,11,13,5,7,4,15"
14820,commdev-image-keyboard-response,298,1046795,learnblock1,746.6000000089407,img/planet4_left.png,4,Community 3,NA,TRUE,f,f,NA,NA,NA,1,6,"10,14,3,12,9,8,1,2,6,11,13,5,7,4,15"
14820,commdev-image-keyboard-response,299,1048051,learnblock1,589.1999999880791,img/planet5_right.png,5,Community 3,NA,TRUE,j,j,NA,NA,NA,1,6,"10,14,3,12,9,8,1,2,6,11,13,5,7,4,15"
14820,commdev-image-keyboard-response,300,1049307,learnblock1,486.09999999403954,img/planet15_right.png,15,Community 3,NA,FALSE,f,j,NA,NA,NA,1,6,"10,14,3,12,9,8,1,2,6,11,13,5,7,4,15"
14820,commdev-image-keyboard-response,301,1050563,learnblock1,1150.6000000089407,img/planet13_right.png,13,Community 3,NA,TRUE,j,j,NA,NA,NA,1,6,"10,14,3,12,9,8,1,2,6,11,13,5,7,4,15"
14820,commdev-image-keyboard-response,302,1051819,learnblock1,1032.4000000059605,img/planet9_right.png,9,Community 1,NA,TRUE,j,j,NA,NA,NA,1,6,"10,14,3,12,9,8,1,2,6,11,13,5,7,4,15"
14820,commdev-image-keyboard-response,303,1053075,learnblock1,1066,img/planet14_right.png,14,Community 1,NA,TRUE,j,j,NA,NA,NA,1,6,"10,14,3,12,9,8,1,2,6,11,13,5,7,4,15"
14820,commdev-image-keyboard-response,304,1054331,learnblock1,null,img/planet9_right.png,9,Community 1,NA,FALSE,null,j,NA,NA,NA,1,6,"10,14,3,12,9,8,1,2,6,11,13,5,7,4,15"
14820,commdev-image-keyboard-response,305,1055587,learnblock1,808.2000000029802,img/planet13_right.png,13,Community 3,NA,TRUE,j,j,NA,NA,NA,1,6,"10,14,3,12,9,8,1,2,6,11,13,5,7,4,15"
14820,commdev-image-keyboard-response,306,1056843,learnblock1,648,img/planet7_left.png,7,Community 3,NA,TRUE,f,f,NA,NA,NA,1,6,"10,14,3,12,9,8,1,2,6,11,13,5,7,4,15"
14820,commdev-image-keyboard-response,307,1058099,learnblock1,739.5,img/planet15_right.png,15,Community 3,NA,TRUE,j,j,NA,NA,NA,1,6,"10,14,3,12,9,8,1,2,6,11,13,5,7,4,15"
14820,commdev-image-keyboard-response,308,1059355,learnblock1,788.2999999970198,img/planet5_right.png,5,Community 3,NA,TRUE,j,j,NA,NA,NA,1,6,"10,14,3,12,9,8,1,2,6,11,13,5,7,4,15"
14820,commdev-image-keyboard-response,309,1060612,learnblock1,841.4000000059605,img/planet15_right.png,15,Community 3,NA,TRUE,j,j,NA,NA,NA,1,6,"10,14,3,12,9,8,1,2,6,11,13,5,7,4,15"
14820,commdev-image-keyboard-response,310,1061868,learnblock1,762.7000000029802,img/planet4_left.png,4,Community 3,NA,TRUE,f,f,NA,NA,NA,1,6,"10,14,3,12,9,8,1,2,6,11,13,5,7,4,15"
14820,commdev-image-keyboard-response,311,1063123,learnblock1,846.1000000089407,img/planet13_left.png,13,Community 3,NA,TRUE,f,f,NA,NA,NA,1,6,"10,14,3,12,9,8,1,2,6,11,13,5,7,4,15"
14820,commdev-image-keyboard-response,312,1064379,learnblock1,940.1000000089407,img/planet9_left.png,9,Community 1,NA,TRUE,f,f,NA,NA,NA,1,6,"10,14,3,12,9,8,1,2,6,11,13,5,7,4,15"
14820,commdev-image-keyboard-response,313,1065635,learnblock1,845.5,img/planet13_left.png,13,Community 3,NA,TRUE,f,f,NA,NA,NA,1,6,"10,14,3,12,9,8,1,2,6,11,13,5,7,4,15"
14820,commdev-image-keyboard-response,314,1066891,learnblock1,1055.0999999940395,img/planet9_right.png,9,Community 1,NA,TRUE,j,j,NA,NA,NA,1,6,"10,14,3,12,9,8,1,2,6,11,13,5,7,4,15"
14820,commdev-image-keyboard-response,315,1068147,learnblock1,1074.2999999970198,img/planet14_left.png,14,Community 1,NA,TRUE,f,f,NA,NA,NA,1,6,"10,14,3,12,9,8,1,2,6,11,13,5,7,4,15"
14820,commdev-image-keyboard-response,316,1069404,learnblock1,833.5999999940395,img/planet12_right.png,12,Community 1,NA,TRUE,j,j,NA,NA,NA,1,6,"10,14,3,12,9,8,1,2,6,11,13,5,7,4,15"
14820,commdev-image-keyboard-response,317,1070659,learnblock1,784,img/planet10_right.png,10,Community 1,NA,TRUE,j,j,NA,NA,NA,1,6,"10,14,3,12,9,8,1,2,6,11,13,5,7,4,15"
14820,commdev-image-keyboard-response,318,1071915,learnblock1,980.9000000059605,img/planet9_right.png,9,Community 1,NA,TRUE,j,j,NA,NA,NA,1,6,"10,14,3,12,9,8,1,2,6,11,13,5,7,4,15"
14820,commdev-image-keyboard-response,319,1073171,learnblock1,588.2999999970198,img/planet10_left.png,10,Community 1,NA,TRUE,f,f,NA,NA,NA,1,6,"10,14,3,12,9,8,1,2,6,11,13,5,7,4,15"
14820,commdev-image-keyboard-response,320,1074427,learnblock1,496.5,img/planet12_right.png,12,Community 1,NA,TRUE,j,j,NA,NA,NA,1,6,"10,14,3,12,9,8,1,2,6,11,13,5,7,4,15"
14820,commdev-image-keyboard-response,321,1075683,learnblock1,495.8999999910593,img/planet8_left.png,8,Community 2,NA,TRUE,f,f,NA,NA,NA,1,6,"10,14,3,12,9,8,1,2,6,11,13,5,7,4,15"
14820,commdev-image-keyboard-response,322,1076939,learnblock1,726.4000000059605,img/planet12_right.png,12,Community 1,NA,TRUE,j,j,NA,NA,NA,1,6,"10,14,3,12,9,8,1,2,6,11,13,5,7,4,15"
14820,commdev-image-keyboard-response,323,1078195,learnblock1,615,img/planet10_right.png,10,Community 1,NA,TRUE,j,j,NA,NA,NA,1,6,"10,14,3,12,9,8,1,2,6,11,13,5,7,4,15"
14820,commdev-image-keyboard-response,324,1079452,learnblock1,522,img/planet9_left.png,9,Community 1,NA,TRUE,f,f,NA,NA,NA,1,6,"10,14,3,12,9,8,1,2,6,11,13,5,7,4,15"
14820,commdev-image-keyboard-response,325,1080707,learnblock1,618.2000000029802,img/planet10_left.png,10,Community 1,NA,TRUE,f,f,NA,NA,NA,1,6,"10,14,3,12,9,8,1,2,6,11,13,5,7,4,15"
14820,commdev-image-keyboard-response,326,1081963,learnblock1,668.6000000089407,img/planet14_right.png,14,Community 1,NA,TRUE,j,j,NA,NA,NA,1,6,"10,14,3,12,9,8,1,2,6,11,13,5,7,4,15"
14820,commdev-image-keyboard-response,327,1083219,learnblock1,691.0999999940395,img/planet3_left.png,3,Community 1,NA,TRUE,f,f,NA,NA,NA,1,6,"10,14,3,12,9,8,1,2,6,11,13,5,7,4,15"
14820,commdev-image-keyboard-response,328,1084475,learnblock1,678.2000000029802,img/planet14_left.png,14,Community 1,NA,TRUE,f,f,NA,NA,NA,1,6,"10,14,3,12,9,8,1,2,6,11,13,5,7,4,15"
14820,commdev-image-keyboard-response,329,1085731,learnblock1,667.4000000059605,img/planet3_right.png,3,Community 1,NA,TRUE,j,j,NA,NA,NA,1,6,"10,14,3,12,9,8,1,2,6,11,13,5,7,4,15"
14820,commdev-image-keyboard-response,330,1086987,learnblock1,594.5,img/planet14_left.png,14,Community 1,NA,TRUE,f,f,NA,NA,NA,1,6,"10,14,3,12,9,8,1,2,6,11,13,5,7,4,15"
14820,commdev-image-keyboard-response,331,1088243,learnblock1,887.0999999940395,img/planet10_right.png,10,Community 1,NA,TRUE,j,j,NA,NA,NA,1,6,"10,14,3,12,9,8,1,2,6,11,13,5,7,4,15"
14820,commdev-image-keyboard-response,332,1089499,learnblock1,831.7999999970198,img/planet14_right.png,14,Community 1,NA,TRUE,j,j,NA,NA,NA,1,6,"10,14,3,12,9,8,1,2,6,11,13,5,7,4,15"
14820,commdev-image-keyboard-response,333,1090756,learnblock1,923.9000000059605,img/planet12_right.png,12,Community 1,NA,TRUE,j,j,NA,NA,NA,1,6,"10,14,3,12,9,8,1,2,6,11,13,5,7,4,15"
14820,commdev-image-keyboard-response,334,1092011,learnblock1,717.2000000029802,img/planet3_left.png,3,Community 1,NA,TRUE,f,f,NA,NA,NA,1,6,"10,14,3,12,9,8,1,2,6,11,13,5,7,4,15"
14820,commdev-image-keyboard-response,335,1093267,learnblock1,727.1000000089407,img/planet9_left.png,9,Community 1,NA,TRUE,f,f,NA,NA,NA,1,6,"10,14,3,12,9,8,1,2,6,11,13,5,7,4,15"
14820,commdev-image-keyboard-response,336,1094523,learnblock1,822.8000000119209,img/planet14_left.png,14,Community 1,NA,TRUE,f,f,NA,NA,NA,1,6,"10,14,3,12,9,8,1,2,6,11,13,5,7,4,15"
14820,commdev-image-keyboard-response,337,1095779,learnblock1,646.8999999910593,img/planet10_left.png,10,Community 1,NA,TRUE,f,f,NA,NA,NA,1,6,"10,14,3,12,9,8,1,2,6,11,13,5,7,4,15"
14820,commdev-image-keyboard-response,338,1097036,learnblock1,620.5999999940395,img/planet3_right.png,3,Community 1,NA,TRUE,j,j,NA,NA,NA,1,6,"10,14,3,12,9,8,1,2,6,11,13,5,7,4,15"
14820,commdev-image-keyboard-response,339,1098291,learnblock1,480.5,img/planet9_left.png,9,Community 1,NA,TRUE,f,f,NA,NA,NA,1,6,"10,14,3,12,9,8,1,2,6,11,13,5,7,4,15"
14820,commdev-image-keyboard-response,340,1099547,learnblock1,550.5,img/planet3_right.png,3,Community 1,NA,TRUE,j,j,NA,NA,NA,1,6,"10,14,3,12,9,8,1,2,6,11,13,5,7,4,15"
14820,commdev-image-keyboard-response,341,1100803,learnblock1,742.9000000059605,img/planet14_right.png,14,Community 1,NA,TRUE,j,j,NA,NA,NA,1,6,"10,14,3,12,9,8,1,2,6,11,13,5,7,4,15"
14820,commdev-image-keyboard-response,342,1102059,learnblock1,796.6999999880791,img/planet3_right.png,3,Community 1,NA,TRUE,j,j,NA,NA,NA,1,6,"10,14,3,12,9,8,1,2,6,11,13,5,7,4,15"
14820,commdev-image-keyboard-response,343,1103315,learnblock1,646.7000000029802,img/planet12_left.png,12,Community 1,NA,TRUE,f,f,NA,NA,NA,1,6,"10,14,3,12,9,8,1,2,6,11,13,5,7,4,15"
14820,commdev-image-keyboard-response,344,1104571,learnblock1,773.7000000029802,img/planet10_right.png,10,Community 1,NA,TRUE,j,j,NA,NA,NA,1,6,"10,14,3,12,9,8,1,2,6,11,13,5,7,4,15"
14820,commdev-image-keyboard-response,345,1105827,learnblock1,1051.5999999940395,img/planet14_right.png,14,Community 1,NA,TRUE,j,j,NA,NA,NA,1,6,"10,14,3,12,9,8,1,2,6,11,13,5,7,4,15"
14820,commdev-image-keyboard-response,346,1107083,learnblock1,856.2000000029802,img/planet9_right.png,9,Community 1,NA,TRUE,j,j,NA,NA,NA,1,6,"10,14,3,12,9,8,1,2,6,11,13,5,7,4,15"
14820,commdev-image-keyboard-response,347,1108339,learnblock1,621,img/planet10_right.png,10,Community 1,NA,TRUE,j,j,NA,NA,NA,1,6,"10,14,3,12,9,8,1,2,6,11,13,5,7,4,15"
14820,commdev-image-keyboard-response,348,1109596,learnblock1,549.5,img/planet9_left.png,9,Community 1,NA,TRUE,f,f,NA,NA,NA,1,6,"10,14,3,12,9,8,1,2,6,11,13,5,7,4,15"
14820,commdev-image-keyboard-response,349,1110852,learnblock1,761.7999999970198,img/planet13_right.png,13,Community 3,NA,TRUE,j,j,NA,NA,NA,1,6,"10,14,3,12,9,8,1,2,6,11,13,5,7,4,15"
14820,commdev-image-keyboard-response,350,1112107,learnblock1,695.5999999940395,img/planet7_left.png,7,Community 3,NA,TRUE,f,f,NA,NA,NA,1,6,"10,14,3,12,9,8,1,2,6,11,13,5,7,4,15"
14820,commdev-image-keyboard-response,351,1113363,learnblock1,619.5999999940395,img/planet13_left.png,13,Community 3,NA,TRUE,f,f,NA,NA,NA,1,6,"10,14,3,12,9,8,1,2,6,11,13,5,7,4,15"
14820,commdev-image-keyboard-response,352,1114619,learnblock1,856,img/planet4_right.png,4,Community 3,NA,TRUE,j,j,NA,NA,NA,1,6,"10,14,3,12,9,8,1,2,6,11,13,5,7,4,15"
14820,commdev-image-keyboard-response,353,1115875,learnblock1,1122.9000000059605,img/planet13_right.png,13,Community 3,NA,TRUE,j,j,NA,NA,NA,1,6,"10,14,3,12,9,8,1,2,6,11,13,5,7,4,15"
14820,commdev-image-keyboard-response,354,1117131,learnblock1,1147.1000000089407,img/planet15_right.png,15,Community 3,NA,TRUE,j,j,NA,NA,NA,1,6,"10,14,3,12,9,8,1,2,6,11,13,5,7,4,15"
14820,commdev-image-keyboard-response,355,1118387,learnblock1,642.7000000029802,img/planet5_left.png,5,Community 3,NA,TRUE,f,f,NA,NA,NA,1,6,"10,14,3,12,9,8,1,2,6,11,13,5,7,4,15"
14820,commdev-image-keyboard-response,356,1119643,learnblock1,null,img/planet2_right.png,2,Community 2,NA,FALSE,null,j,NA,NA,NA,1,6,"10,14,3,12,9,8,1,2,6,11,13,5,7,4,15"
14820,commdev-image-keyboard-response,357,1120900,learnblock1,45,img/planet11_right.png,11,Community 2,NA,TRUE,j,j,NA,NA,NA,1,6,"10,14,3,12,9,8,1,2,6,11,13,5,7,4,15"
14820,commdev-image-keyboard-response,358,1122155,learnblock1,139,img/planet2_right.png,2,Community 2,NA,TRUE,j,j,NA,NA,NA,1,6,"10,14,3,12,9,8,1,2,6,11,13,5,7,4,15"
14820,commdev-image-keyboard-response,359,1123411,learnblock1,913.9000000059605,img/planet11_left.png,11,Community 2,NA,TRUE,f,f,NA,NA,NA,1,6,"10,14,3,12,9,8,1,2,6,11,13,5,7,4,15"
14820,commdev-image-keyboard-response,360,1124667,learnblock1,744.8999999910593,img/planet6_right.png,6,Community 2,NA,TRUE,j,j,NA,NA,NA,1,6,"10,14,3,12,9,8,1,2,6,11,13,5,7,4,15"
14820,commdev-image-keyboard-response,361,1125923,learnblock1,null,img/planet8_left.png,8,Community 2,NA,FALSE,null,f,NA,NA,NA,1,6,"10,14,3,12,9,8,1,2,6,11,13,5,7,4,15"
14820,commdev-image-keyboard-response,362,1127180,learnblock1,785.7000000029802,img/planet6_left.png,6,Community 2,NA,TRUE,f,f,NA,NA,NA,1,6,"10,14,3,12,9,8,1,2,6,11,13,5,7,4,15"
14820,commdev-image-keyboard-response,363,1128435,learnblock1,961.2999999970198,img/planet1_right.png,1,Community 2,NA,TRUE,j,j,NA,NA,NA,1,6,"10,14,3,12,9,8,1,2,6,11,13,5,7,4,15"
14820,commdev-image-keyboard-response,364,1129691,learnblock1,801.5999999940395,img/planet8_right.png,8,Community 2,NA,TRUE,j,j,NA,NA,NA,1,6,"10,14,3,12,9,8,1,2,6,11,13,5,7,4,15"
14820,commdev-image-keyboard-response,365,1130948,learnblock1,807.5,img/planet12_right.png,12,Community 1,NA,TRUE,j,j,NA,NA,NA,1,6,"10,14,3,12,9,8,1,2,6,11,13,5,7,4,15"
14820,commdev-image-keyboard-response,366,1132203,learnblock1,739.7999999970198,img/planet3_left.png,3,Community 1,NA,TRUE,f,f,NA,NA,NA,1,6,"10,14,3,12,9,8,1,2,6,11,13,5,7,4,15"
14820,commdev-image-keyboard-response,367,1133460,learnblock1,null,img/planet9_right.png,9,Community 1,NA,FALSE,null,j,NA,NA,NA,1,6,"10,14,3,12,9,8,1,2,6,11,13,5,7,4,15"
14820,commdev-image-keyboard-response,368,1134715,learnblock1,71.20000000298023,img/planet3_left.png,3,Community 1,NA,FALSE,j,f,NA,NA,NA,1,6,"10,14,3,12,9,8,1,2,6,11,13,5,7,4,15"
14820,commdev-image-keyboard-response,369,1135971,learnblock1,602.2000000029802,img/planet9_left.png,9,Community 1,NA,TRUE,f,f,NA,NA,NA,1,6,"10,14,3,12,9,8,1,2,6,11,13,5,7,4,15"
14820,commdev-image-keyboard-response,370,1137227,learnblock1,722.9000000059605,img/planet3_right.png,3,Community 1,NA,TRUE,j,j,NA,NA,NA,1,6,"10,14,3,12,9,8,1,2,6,11,13,5,7,4,15"
14820,commdev-image-keyboard-response,371,1138483,learnblock1,997.6000000089407,img/planet12_left.png,12,Community 1,NA,TRUE,f,f,NA,NA,NA,1,6,"10,14,3,12,9,8,1,2,6,11,13,5,7,4,15"
14820,commdev-image-keyboard-response,372,1139740,learnblock1,781.2999999970198,img/planet8_right.png,8,Community 2,NA,TRUE,j,j,NA,NA,NA,1,6,"10,14,3,12,9,8,1,2,6,11,13,5,7,4,15"
14820,commdev-image-keyboard-response,373,1140995,learnblock1,null,img/planet1_left.png,1,Community 2,NA,FALSE,null,f,NA,NA,NA,1,6,"10,14,3,12,9,8,1,2,6,11,13,5,7,4,15"
14820,commdev-image-keyboard-response,374,1142251,learnblock1,42,img/planet6_right.png,6,Community 2,NA,FALSE,f,j,NA,NA,NA,1,6,"10,14,3,12,9,8,1,2,6,11,13,5,7,4,15"
14820,commdev-image-keyboard-response,375,1143507,learnblock1,638.2000000029802,img/planet1_left.png,1,Community 2,NA,TRUE,f,f,NA,NA,NA,1,6,"10,14,3,12,9,8,1,2,6,11,13,5,7,4,15"
14820,commdev-image-keyboard-response,376,1144763,learnblock1,676.0999999940395,img/planet11_left.png,11,Community 2,NA,TRUE,f,f,NA,NA,NA,1,6,"10,14,3,12,9,8,1,2,6,11,13,5,7,4,15"
14820,commdev-image-keyboard-response,377,1146019,learnblock1,483,img/planet6_right.png,6,Community 2,NA,TRUE,j,j,NA,NA,NA,1,6,"10,14,3,12,9,8,1,2,6,11,13,5,7,4,15"
14820,commdev-image-keyboard-response,378,1147276,learnblock1,608.6999999880791,img/planet11_left.png,11,Community 2,NA,TRUE,f,f,NA,NA,NA,1,6,"10,14,3,12,9,8,1,2,6,11,13,5,7,4,15"
14820,commdev-image-keyboard-response,379,1148531,learnblock1,1074.8999999910593,img/planet8_right.png,8,Community 2,NA,TRUE,j,j,NA,NA,NA,1,6,"10,14,3,12,9,8,1,2,6,11,13,5,7,4,15"
14820,commdev-image-keyboard-response,380,1149788,learnblock1,689,img/planet1_right.png,1,Community 2,NA,TRUE,j,j,NA,NA,NA,1,6,"10,14,3,12,9,8,1,2,6,11,13,5,7,4,15"
14820,commdev-image-keyboard-response,381,1151043,learnblock1,617.0999999940395,img/planet11_left.png,11,Community 2,NA,TRUE,f,f,NA,NA,NA,1,6,"10,14,3,12,9,8,1,2,6,11,13,5,7,4,15"
14820,commdev-image-keyboard-response,382,1152299,learnblock1,774.2999999970198,img/planet1_left.png,1,Community 2,NA,TRUE,f,f,NA,NA,NA,1,6,"10,14,3,12,9,8,1,2,6,11,13,5,7,4,15"
14820,commdev-image-keyboard-response,383,1153555,learnblock1,806.7999999970198,img/planet11_right.png,11,Community 2,NA,TRUE,j,j,NA,NA,NA,1,6,"10,14,3,12,9,8,1,2,6,11,13,5,7,4,15"
14820,commdev-image-keyboard-response,384,1154811,learnblock1,1058,img/planet2_left.png,2,Community 2,NA,TRUE,f,f,NA,NA,NA,1,6,"10,14,3,12,9,8,1,2,6,11,13,5,7,4,15"
14820,commdev-image-keyboard-response,385,1156067,learnblock1,1146,img/planet5_right.png,5,Community 3,NA,TRUE,j,j,NA,NA,NA,1,6,"10,14,3,12,9,8,1,2,6,11,13,5,7,4,15"
14820,commdev-image-keyboard-response,386,1157323,learnblock1,855.7000000029802,img/planet4_right.png,4,Community 3,NA,TRUE,j,j,NA,NA,NA,1,6,"10,14,3,12,9,8,1,2,6,11,13,5,7,4,15"
14820,commdev-image-keyboard-response,387,1158579,learnblock1,1104.7999999970198,img/planet7_right.png,7,Community 3,NA,TRUE,j,j,NA,NA,NA,1,6,"10,14,3,12,9,8,1,2,6,11,13,5,7,4,15"
14820,commdev-image-keyboard-response,388,1159835,learnblock1,663.5,img/planet13_right.png,13,Community 3,NA,TRUE,j,j,NA,NA,NA,1,6,"10,14,3,12,9,8,1,2,6,11,13,5,7,4,15"
14820,commdev-image-keyboard-response,389,1161091,learnblock1,629,img/planet4_left.png,4,Community 3,NA,TRUE,f,f,NA,NA,NA,1,6,"10,14,3,12,9,8,1,2,6,11,13,5,7,4,15"
14820,commdev-image-keyboard-response,390,1162347,learnblock1,852.5,img/planet13_right.png,13,Community 3,NA,TRUE,j,j,NA,NA,NA,1,6,"10,14,3,12,9,8,1,2,6,11,13,5,7,4,15"
14820,commdev-image-keyboard-response,391,1163603,learnblock1,775.7000000029802,img/planet7_left.png,7,Community 3,NA,TRUE,f,f,NA,NA,NA,1,6,"10,14,3,12,9,8,1,2,6,11,13,5,7,4,15"
14820,commdev-image-keyboard-response,392,1164860,learnblock1,1051.5999999940395,img/planet5_right.png,5,Community 3,NA,TRUE,j,j,NA,NA,NA,1,6,"10,14,3,12,9,8,1,2,6,11,13,5,7,4,15"
14820,commdev-image-keyboard-response,393,1166115,learnblock1,907.7999999970198,img/planet4_right.png,4,Community 3,NA,TRUE,j,j,NA,NA,NA,1,6,"10,14,3,12,9,8,1,2,6,11,13,5,7,4,15"
14820,commdev-image-keyboard-response,394,1167372,learnblock1,null,img/planet15_right.png,15,Community 3,NA,FALSE,null,j,NA,NA,NA,1,6,"10,14,3,12,9,8,1,2,6,11,13,5,7,4,15"
14820,commdev-image-keyboard-response,395,1168627,learnblock1,41.20000000298023,img/planet5_left.png,5,Community 3,NA,FALSE,j,f,NA,NA,NA,1,6,"10,14,3,12,9,8,1,2,6,11,13,5,7,4,15"
14820,commdev-image-keyboard-response,396,1169883,learnblock1,658.7999999970198,img/planet2_right.png,2,Community 2,NA,TRUE,j,j,NA,NA,NA,1,6,"10,14,3,12,9,8,1,2,6,11,13,5,7,4,15"
14820,commdev-image-keyboard-response,397,1171139,learnblock1,null,img/planet11_right.png,11,Community 2,NA,FALSE,null,j,NA,NA,NA,1,6,"10,14,3,12,9,8,1,2,6,11,13,5,7,4,15"
14820,commdev-image-keyboard-response,398,1172395,learnblock1,127.40000000596046,img/planet2_left.png,2,Community 2,NA,FALSE,j,f,NA,NA,NA,1,6,"10,14,3,12,9,8,1,2,6,11,13,5,7,4,15"
14820,commdev-image-keyboard-response,399,1173651,learnblock1,587.8999999910593,img/planet1_left.png,1,Community 2,NA,TRUE,f,f,NA,NA,NA,1,6,"10,14,3,12,9,8,1,2,6,11,13,5,7,4,15"
14820,commdev-image-keyboard-response,400,1174907,learnblock1,484.70000000298023,img/planet11_left.png,11,Community 2,NA,TRUE,f,f,NA,NA,NA,1,6,"10,14,3,12,9,8,1,2,6,11,13,5,7,4,15"
14820,commdev-image-keyboard-response,401,1176163,learnblock1,976.4000000059605,img/planet8_right.png,8,Community 2,NA,TRUE,j,j,NA,NA,NA,1,6,"10,14,3,12,9,8,1,2,6,11,13,5,7,4,15"
14820,commdev-image-keyboard-response,402,1177419,learnblock1,809.8999999910593,img/planet12_left.png,12,Community 1,NA,TRUE,f,f,NA,NA,NA,1,6,"10,14,3,12,9,8,1,2,6,11,13,5,7,4,15"
14820,commdev-image-keyboard-response,403,1178675,learnblock1,752.5,img/planet10_right.png,10,Community 1,NA,TRUE,j,j,NA,NA,NA,1,6,"10,14,3,12,9,8,1,2,6,11,13,5,7,4,15"
14820,commdev-image-keyboard-response,404,1179931,learnblock1,637.7999999970198,img/planet9_right.png,9,Community 1,NA,TRUE,j,j,NA,NA,NA,1,6,"10,14,3,12,9,8,1,2,6,11,13,5,7,4,15"
14820,commdev-image-keyboard-response,405,1181187,learnblock1,755.0999999940395,img/planet14_right.png,14,Community 1,NA,TRUE,j,j,NA,NA,NA,1,6,"10,14,3,12,9,8,1,2,6,11,13,5,7,4,15"
14820,commdev-image-keyboard-response,406,1182444,learnblock1,733.2999999970198,img/planet10_right.png,10,Community 1,NA,TRUE,j,j,NA,NA,NA,1,6,"10,14,3,12,9,8,1,2,6,11,13,5,7,4,15"
14820,commdev-image-keyboard-response,407,1183699,learnblock1,637.7999999970198,img/planet12_left.png,12,Community 1,NA,TRUE,f,f,NA,NA,NA,1,6,"10,14,3,12,9,8,1,2,6,11,13,5,7,4,15"
14820,commdev-image-keyboard-response,408,1184955,learnblock1,762.9000000059605,img/planet8_right.png,8,Community 2,NA,TRUE,j,j,NA,NA,NA,1,6,"10,14,3,12,9,8,1,2,6,11,13,5,7,4,15"
14820,commdev-image-keyboard-response,409,1186211,learnblock1,1038.5,img/planet1_right.png,1,Community 2,NA,TRUE,j,j,NA,NA,NA,1,6,"10,14,3,12,9,8,1,2,6,11,13,5,7,4,15"
14820,commdev-image-keyboard-response,410,1187467,learnblock1,800.5999999940395,img/planet2_left.png,2,Community 2,NA,TRUE,f,f,NA,NA,NA,1,6,"10,14,3,12,9,8,1,2,6,11,13,5,7,4,15"
14820,commdev-image-keyboard-response,411,1188723,learnblock1,675.7999999970198,img/planet5_left.png,5,Community 3,NA,TRUE,f,f,NA,NA,NA,1,6,"10,14,3,12,9,8,1,2,6,11,13,5,7,4,15"
14820,commdev-image-keyboard-response,412,1189979,learnblock1,684.5,img/planet15_left.png,15,Community 3,NA,TRUE,f,f,NA,NA,NA,1,6,"10,14,3,12,9,8,1,2,6,11,13,5,7,4,15"
14820,commdev-image-keyboard-response,413,1191236,learnblock1,921.7000000029802,img/planet13_left.png,13,Community 3,NA,TRUE,f,f,NA,NA,NA,1,6,"10,14,3,12,9,8,1,2,6,11,13,5,7,4,15"
14820,commdev-image-keyboard-response,414,1192492,learnblock1,943.6999999880791,img/planet4_left.png,4,Community 3,NA,TRUE,f,f,NA,NA,NA,1,6,"10,14,3,12,9,8,1,2,6,11,13,5,7,4,15"
14820,commdev-image-keyboard-response,415,1193747,learnblock1,760.5,img/planet15_right.png,15,Community 3,NA,TRUE,j,j,NA,NA,NA,1,6,"10,14,3,12,9,8,1,2,6,11,13,5,7,4,15"
14820,commdev-image-keyboard-response,416,1195003,learnblock1,579.8999999910593,img/planet5_left.png,5,Community 3,NA,TRUE,f,f,NA,NA,NA,1,6,"10,14,3,12,9,8,1,2,6,11,13,5,7,4,15"
14820,commdev-image-keyboard-response,417,1196259,learnblock1,546.7999999970198,img/planet2_right.png,2,Community 2,NA,TRUE,j,j,NA,NA,NA,1,6,"10,14,3,12,9,8,1,2,6,11,13,5,7,4,15"
14820,commdev-image-keyboard-response,418,1197515,learnblock1,522,img/planet6_left.png,6,Community 2,NA,TRUE,f,f,NA,NA,NA,1,6,"10,14,3,12,9,8,1,2,6,11,13,5,7,4,15"
14820,commdev-image-keyboard-response,419,1198772,learnblock1,582.9000000059605,img/planet11_right.png,11,Community 2,NA,TRUE,j,j,NA,NA,NA,1,6,"10,14,3,12,9,8,1,2,6,11,13,5,7,4,15"
14820,commdev-image-keyboard-response,423,1341771,learnblock2,666.5,img/planet9_left.png,9,Community 1,NA,TRUE,f,f,NA,NA,NA,1,6,"10,14,3,12,9,8,1,2,6,11,13,5,7,4,15"
14820,commdev-image-keyboard-response,424,1343027,learnblock2,573.7000000029802,img/planet10_left.png,10,Community 1,NA,TRUE,f,f,NA,NA,NA,1,6,"10,14,3,12,9,8,1,2,6,11,13,5,7,4,15"
14820,commdev-image-keyboard-response,425,1344284,learnblock2,548.3999999910593,img/planet14_right.png,14,Community 1,NA,TRUE,j,j,NA,NA,NA,1,6,"10,14,3,12,9,8,1,2,6,11,13,5,7,4,15"
14820,commdev-image-keyboard-response,426,1345539,learnblock2,447.90000000596046,img/planet9_left.png,9,Community 1,NA,TRUE,f,f,NA,NA,NA,1,6,"10,14,3,12,9,8,1,2,6,11,13,5,7,4,15"
14820,commdev-image-keyboard-response,427,1346795,learnblock2,533.4000000059605,img/planet10_right.png,10,Community 1,NA,TRUE,j,j,NA,NA,NA,1,6,"10,14,3,12,9,8,1,2,6,11,13,5,7,4,15"
14820,commdev-image-keyboard-response,428,1348051,learnblock2,842.5999999940395,img/planet14_right.png,14,Community 1,NA,TRUE,j,j,NA,NA,NA,1,6,"10,14,3,12,9,8,1,2,6,11,13,5,7,4,15"
14820,commdev-image-keyboard-response,429,1349307,learnblock2,844,img/planet3_right.png,3,Community 1,NA,FALSE,f,j,NA,NA,NA,1,6,"10,14,3,12,9,8,1,2,6,11,13,5,7,4,15"
14820,commdev-image-keyboard-response,430,1350563,learnblock2,1212.2999999970198,img/planet10_right.png,10,Community 1,NA,TRUE,j,j,NA,NA,NA,1,6,"10,14,3,12,9,8,1,2,6,11,13,5,7,4,15"
14820,commdev-image-keyboard-response,431,1351819,learnblock2,845.5,img/planet12_right.png,12,Community 1,NA,TRUE,j,j,NA,NA,NA,1,6,"10,14,3,12,9,8,1,2,6,11,13,5,7,4,15"
14820,commdev-image-keyboard-response,432,1353075,learnblock2,651.7000000029802,img/planet14_right.png,14,Community 1,NA,TRUE,j,j,NA,NA,NA,1,6,"10,14,3,12,9,8,1,2,6,11,13,5,7,4,15"
14820,commdev-image-keyboard-response,433,1354332,learnblock2,473.20000000298023,img/planet10_left.png,10,Community 1,NA,TRUE,f,f,NA,NA,NA,1,6,"10,14,3,12,9,8,1,2,6,11,13,5,7,4,15"
14820,commdev-image-keyboard-response,434,1355588,learnblock2,551.1000000089407,img/planet12_left.png,12,Community 1,NA,TRUE,f,f,NA,NA,NA,1,6,"10,14,3,12,9,8,1,2,6,11,13,5,7,4,15"
14820,commdev-image-keyboard-response,435,1356843,learnblock2,509,img/planet8_left.png,8,Community 2,NA,TRUE,f,f,NA,NA,NA,1,6,"10,14,3,12,9,8,1,2,6,11,13,5,7,4,15"
14820,commdev-image-keyboard-response,436,1358099,learnblock2,592.9000000059605,img/planet6_right.png,6,Community 2,NA,TRUE,j,j,NA,NA,NA,1,6,"10,14,3,12,9,8,1,2,6,11,13,5,7,4,15"
14820,commdev-image-keyboard-response,437,1359355,learnblock2,768.2000000029802,img/planet2_right.png,2,Community 2,NA,TRUE,j,j,NA,NA,NA,1,6,"10,14,3,12,9,8,1,2,6,11,13,5,7,4,15"
14820,commdev-image-keyboard-response,438,1360611,learnblock2,743.2000000029802,img/planet5_right.png,5,Community 3,NA,TRUE,j,j,NA,NA,NA,1,6,"10,14,3,12,9,8,1,2,6,11,13,5,7,4,15"
14820,commdev-image-keyboard-response,439,1361867,learnblock2,640.2999999970198,img/planet4_right.png,4,Community 3,NA,TRUE,j,j,NA,NA,NA,1,6,"10,14,3,12,9,8,1,2,6,11,13,5,7,4,15"
14820,commdev-image-keyboard-response,440,1363123,learnblock2,575.7000000029802,img/planet13_right.png,13,Community 3,NA,TRUE,j,j,NA,NA,NA,1,6,"10,14,3,12,9,8,1,2,6,11,13,5,7,4,15"
14820,commdev-image-keyboard-response,441,1364379,learnblock2,522.7000000029802,img/planet9_left.png,9,Community 1,NA,TRUE,f,f,NA,NA,NA,1,6,"10,14,3,12,9,8,1,2,6,11,13,5,7,4,15"
14820,commdev-image-keyboard-response,442,1365635,learnblock2,575.1999999880791,img/planet3_right.png,3,Community 1,NA,TRUE,j,j,NA,NA,NA,1,6,"10,14,3,12,9,8,1,2,6,11,13,5,7,4,15"
14820,commdev-image-keyboard-response,443,1366891,learnblock2,613.2000000029802,img/planet12_right.png,12,Community 1,NA,TRUE,j,j,NA,NA,NA,1,6,"10,14,3,12,9,8,1,2,6,11,13,5,7,4,15"
14820,commdev-image-keyboard-response,444,1368148,learnblock2,518.5999999940395,img/planet3_right.png,3,Community 1,NA,TRUE,j,j,NA,NA,NA,1,6,"10,14,3,12,9,8,1,2,6,11,13,5,7,4,15"
14820,commdev-image-keyboard-response,445,1369403,learnblock2,571.9000000059605,img/planet14_right.png,14,Community 1,NA,TRUE,j,j,NA,NA,NA,1,6,"10,14,3,12,9,8,1,2,6,11,13,5,7,4,15"
14820,commdev-image-keyboard-response,446,1370659,learnblock2,523.8999999910593,img/planet9_left.png,9,Community 1,NA,TRUE,f,f,NA,NA,NA,1,6,"10,14,3,12,9,8,1,2,6,11,13,5,7,4,15"
14820,commdev-image-keyboard-response,447,1371915,learnblock2,555.0999999940395,img/planet13_right.png,13,Community 3,NA,TRUE,j,j,NA,NA,NA,1,6,"10,14,3,12,9,8,1,2,6,11,13,5,7,4,15"
14820,commdev-image-keyboard-response,448,1373171,learnblock2,434.69999998807907,img/planet4_left.png,4,Community 3,NA,TRUE,f,f,NA,NA,NA,1,6,"10,14,3,12,9,8,1,2,6,11,13,5,7,4,15"
14820,commdev-image-keyboard-response,449,1374428,learnblock2,567.6000000089407,img/planet5_right.png,5,Community 3,NA,TRUE,j,j,NA,NA,NA,1,6,"10,14,3,12,9,8,1,2,6,11,13,5,7,4,15"
14820,commdev-image-keyboard-response,450,1375683,learnblock2,569.4000000059605,img/planet4_right.png,4,Community 3,NA,TRUE,j,j,NA,NA,NA,1,6,"10,14,3,12,9,8,1,2,6,11,13,5,7,4,15"
14820,commdev-image-keyboard-response,451,1376939,learnblock2,517.9000000059605,img/planet5_left.png,5,Community 3,NA,TRUE,f,f,NA,NA,NA,1,6,"10,14,3,12,9,8,1,2,6,11,13,5,7,4,15"
14820,commdev-image-keyboard-response,452,1378195,learnblock2,527.2000000029802,img/planet7_left.png,7,Community 3,NA,TRUE,f,f,NA,NA,NA,1,6,"10,14,3,12,9,8,1,2,6,11,13,5,7,4,15"
14820,commdev-image-keyboard-response,453,1379451,learnblock2,512.7999999970198,img/planet13_right.png,13,Community 3,NA,TRUE,j,j,NA,NA,NA,1,6,"10,14,3,12,9,8,1,2,6,11,13,5,7,4,15"
14820,commdev-image-keyboard-response,454,1380708,learnblock2,560.4000000059605,img/planet15_left.png,15,Community 3,NA,TRUE,f,f,NA,NA,NA,1,6,"10,14,3,12,9,8,1,2,6,11,13,5,7,4,15"
14820,commdev-image-keyboard-response,455,1381963,learnblock2,505.70000000298023,img/planet4_left.png,4,Community 3,NA,TRUE,f,f,NA,NA,NA,1,6,"10,14,3,12,9,8,1,2,6,11,13,5,7,4,15"
14820,commdev-image-keyboard-response,456,1383219,learnblock2,592.1000000089407,img/planet13_right.png,13,Community 3,NA,TRUE,j,j,NA,NA,NA,1,6,"10,14,3,12,9,8,1,2,6,11,13,5,7,4,15"
14820,commdev-image-keyboard-response,457,1384475,learnblock2,590.9000000059605,img/planet4_right.png,4,Community 3,NA,TRUE,j,j,NA,NA,NA,1,6,"10,14,3,12,9,8,1,2,6,11,13,5,7,4,15"
14820,commdev-image-keyboard-response,458,1385731,learnblock2,651.1999999880791,img/planet5_left.png,5,Community 3,NA,TRUE,f,f,NA,NA,NA,1,6,"10,14,3,12,9,8,1,2,6,11,13,5,7,4,15"
14820,commdev-image-keyboard-response,459,1386987,learnblock2,487.8999999910593,img/planet2_right.png,2,Community 2,NA,TRUE,j,j,NA,NA,NA,1,6,"10,14,3,12,9,8,1,2,6,11,13,5,7,4,15"
14820,commdev-image-keyboard-response,460,1388243,learnblock2,619.7999999970198,img/planet11_left.png,11,Community 2,NA,TRUE,f,f,NA,NA,NA,1,6,"10,14,3,12,9,8,1,2,6,11,13,5,7,4,15"
14820,commdev-image-keyboard-response,461,1389499,learnblock2,574.3000000119209,img/planet6_right.png,6,Community 2,NA,TRUE,j,j,NA,NA,NA,1,6,"10,14,3,12,9,8,1,2,6,11,13,5,7,4,15"
14820,commdev-image-keyboard-response,462,1390756,learnblock2,513.5,img/planet8_right.png,8,Community 2,NA,TRUE,j,j,NA,NA,NA,1,6,"10,14,3,12,9,8,1,2,6,11,13,5,7,4,15"
14820,commdev-image-keyboard-response,463,1392011,learnblock2,514.7999999970198,img/planet12_right.png,12,Community 1,NA,TRUE,j,j,NA,NA,NA,1,6,"10,14,3,12,9,8,1,2,6,11,13,5,7,4,15"
14820,commdev-image-keyboard-response,464,1393267,learnblock2,702.2000000029802,img/planet8_right.png,8,Community 2,NA,TRUE,j,j,NA,NA,NA,1,6,"10,14,3,12,9,8,1,2,6,11,13,5,7,4,15"
14820,commdev-image-keyboard-response,465,1394523,learnblock2,921.4000000059605,img/planet1_left.png,1,Community 2,NA,TRUE,f,f,NA,NA,NA,1,6,"10,14,3,12,9,8,1,2,6,11,13,5,7,4,15"
14820,commdev-image-keyboard-response,466,1395780,learnblock2,1005.5,img/planet6_left.png,6,Community 2,NA,TRUE,f,f,NA,NA,NA,1,6,"10,14,3,12,9,8,1,2,6,11,13,5,7,4,15"
14820,commdev-image-keyboard-response,467,1397035,learnblock2,779.8999999910593,img/planet1_left.png,1,Community 2,NA,TRUE,f,f,NA,NA,NA,1,6,"10,14,3,12,9,8,1,2,6,11,13,5,7,4,15"
14820,commdev-image-keyboard-response,468,1398291,learnblock2,523.2000000029802,img/planet11_right.png,11,Community 2,NA,TRUE,j,j,NA,NA,NA,1,6,"10,14,3,12,9,8,1,2,6,11,13,5,7,4,15"
14820,commdev-image-keyboard-response,469,1399548,learnblock2,548.5,img/planet6_left.png,6,Community 2,NA,TRUE,f,f,NA,NA,NA,1,6,"10,14,3,12,9,8,1,2,6,11,13,5,7,4,15"
14820,commdev-image-keyboard-response,470,1400803,learnblock2,null,img/planet2_left.png,2,Community 2,NA,FALSE,null,f,NA,NA,NA,1,6,"10,14,3,12,9,8,1,2,6,11,13,5,7,4,15"
14820,commdev-image-keyboard-response,471,1402060,learnblock2,5.4000000059604645,img/planet5_right.png,5,Community 3,NA,FALSE,f,j,NA,NA,NA,1,6,"10,14,3,12,9,8,1,2,6,11,13,5,7,4,15"
14820,commdev-image-keyboard-response,472,1403315,learnblock2,559.2999999970198,img/planet7_left.png,7,Community 3,NA,TRUE,f,f,NA,NA,NA,1,6,"10,14,3,12,9,8,1,2,6,11,13,5,7,4,15"
14820,commdev-image-keyboard-response,473,1404571,learnblock2,630.1999999880791,img/planet15_left.png,15,Community 3,NA,TRUE,f,f,NA,NA,NA,1,6,"10,14,3,12,9,8,1,2,6,11,13,5,7,4,15"
14820,commdev-image-keyboard-response,474,1405827,learnblock2,583.4000000059605,img/planet7_left.png,7,Community 3,NA,TRUE,f,f,NA,NA,NA,1,6,"10,14,3,12,9,8,1,2,6,11,13,5,7,4,15"
14820,commdev-image-keyboard-response,475,1407083,learnblock2,580.8999999910593,img/planet15_right.png,15,Community 3,NA,TRUE,j,j,NA,NA,NA,1,6,"10,14,3,12,9,8,1,2,6,11,13,5,7,4,15"
14820,commdev-image-keyboard-response,476,1408339,learnblock2,536,img/planet7_left.png,7,Community 3,NA,TRUE,f,f,NA,NA,NA,1,6,"10,14,3,12,9,8,1,2,6,11,13,5,7,4,15"
14820,commdev-image-keyboard-response,477,1409596,learnblock2,436.5,img/planet13_right.png,13,Community 3,NA,TRUE,j,j,NA,NA,NA,1,6,"10,14,3,12,9,8,1,2,6,11,13,5,7,4,15"
14820,commdev-image-keyboard-response,478,1410851,learnblock2,493.70000000298023,img/planet9_right.png,9,Community 1,NA,TRUE,j,j,NA,NA,NA,1,6,"10,14,3,12,9,8,1,2,6,11,13,5,7,4,15"
14820,commdev-image-keyboard-response,479,1412107,learnblock2,615.2999999970198,img/planet3_left.png,3,Community 1,NA,TRUE,f,f,NA,NA,NA,1,6,"10,14,3,12,9,8,1,2,6,11,13,5,7,4,15"
14820,commdev-image-keyboard-response,480,1413363,learnblock2,451.20000000298023,img/planet9_left.png,9,Community 1,NA,TRUE,f,f,NA,NA,NA,1,6,"10,14,3,12,9,8,1,2,6,11,13,5,7,4,15"
14820,commdev-image-keyboard-response,481,1414619,learnblock2,505.70000000298023,img/planet14_right.png,14,Community 1,NA,TRUE,j,j,NA,NA,NA,1,6,"10,14,3,12,9,8,1,2,6,11,13,5,7,4,15"
14820,commdev-image-keyboard-response,482,1415875,learnblock2,584.4000000059605,img/planet9_right.png,9,Community 1,NA,TRUE,j,j,NA,NA,NA,1,6,"10,14,3,12,9,8,1,2,6,11,13,5,7,4,15"
14820,commdev-image-keyboard-response,483,1417131,learnblock2,558.7999999970198,img/planet10_left.png,10,Community 1,NA,TRUE,f,f,NA,NA,NA,1,6,"10,14,3,12,9,8,1,2,6,11,13,5,7,4,15"
14820,commdev-image-keyboard-response,484,1418388,learnblock2,654.5,img/planet9_right.png,9,Community 1,NA,TRUE,j,j,NA,NA,NA,1,6,"10,14,3,12,9,8,1,2,6,11,13,5,7,4,15"
14820,commdev-image-keyboard-response,485,1419644,learnblock2,618.2000000029802,img/planet14_left.png,14,Community 1,NA,TRUE,f,f,NA,NA,NA,1,6,"10,14,3,12,9,8,1,2,6,11,13,5,7,4,15"
14820,commdev-image-keyboard-response,486,1420900,learnblock2,1077.2000000029802,img/planet3_left.png,3,Community 1,NA,TRUE,f,f,NA,NA,NA,1,6,"10,14,3,12,9,8,1,2,6,11,13,5,7,4,15"
14820,commdev-image-keyboard-response,487,1422155,learnblock2,733.7999999970198,img/planet9_left.png,9,Community 1,NA,TRUE,f,f,NA,NA,NA,1,6,"10,14,3,12,9,8,1,2,6,11,13,5,7,4,15"
14820,commdev-image-keyboard-response,488,1423411,learnblock2,516.8999999910593,img/planet3_right.png,3,Community 1,NA,TRUE,j,j,NA,NA,NA,1,6,"10,14,3,12,9,8,1,2,6,11,13,5,7,4,15"
14820,commdev-image-keyboard-response,489,1424667,learnblock2,476.8999999910593,img/planet14_left.png,14,Community 1,NA,TRUE,f,f,NA,NA,NA,1,6,"10,14,3,12,9,8,1,2,6,11,13,5,7,4,15"
14820,commdev-image-keyboard-response,490,1425923,learnblock2,536,img/planet10_right.png,10,Community 1,NA,TRUE,j,j,NA,NA,NA,1,6,"10,14,3,12,9,8,1,2,6,11,13,5,7,4,15"
14820,commdev-image-keyboard-response,491,1427179,learnblock2,554.2000000029802,img/planet12_right.png,12,Community 1,NA,TRUE,j,j,NA,NA,NA,1,6,"10,14,3,12,9,8,1,2,6,11,13,5,7,4,15"
14820,commdev-image-keyboard-response,492,1428436,learnblock2,515.2000000029802,img/planet10_left.png,10,Community 1,NA,TRUE,f,f,NA,NA,NA,1,6,"10,14,3,12,9,8,1,2,6,11,13,5,7,4,15"
14820,commdev-image-keyboard-response,493,1429691,learnblock2,627.0999999940395,img/planet14_left.png,14,Community 1,NA,TRUE,f,f,NA,NA,NA,1,6,"10,14,3,12,9,8,1,2,6,11,13,5,7,4,15"
14820,commdev-image-keyboard-response,494,1430947,learnblock2,546.3999999910593,img/planet12_right.png,12,Community 1,NA,TRUE,j,j,NA,NA,NA,1,6,"10,14,3,12,9,8,1,2,6,11,13,5,7,4,15"
14820,commdev-image-keyboard-response,495,1432203,learnblock2,602.7000000029802,img/planet3_right.png,3,Community 1,NA,TRUE,j,j,NA,NA,NA,1,6,"10,14,3,12,9,8,1,2,6,11,13,5,7,4,15"
14820,commdev-image-keyboard-response,496,1433459,learnblock2,538.6000000089407,img/planet12_left.png,12,Community 1,NA,TRUE,f,f,NA,NA,NA,1,6,"10,14,3,12,9,8,1,2,6,11,13,5,7,4,15"
14820,commdev-image-keyboard-response,497,1434715,learnblock2,992,img/planet10_right.png,10,Community 1,NA,TRUE,j,j,NA,NA,NA,1,6,"10,14,3,12,9,8,1,2,6,11,13,5,7,4,15"
14820,commdev-image-keyboard-response,498,1435971,learnblock2,795.6999999880791,img/planet12_right.png,12,Community 1,NA,TRUE,j,j,NA,NA,NA,1,6,"10,14,3,12,9,8,1,2,6,11,13,5,7,4,15"
14820,commdev-image-keyboard-response,499,1437227,learnblock2,797.6000000089407,img/planet3_right.png,3,Community 1,NA,TRUE,j,j,NA,NA,NA,1,6,"10,14,3,12,9,8,1,2,6,11,13,5,7,4,15"
14820,commdev-image-keyboard-response,500,1438483,learnblock2,586.4000000059605,img/planet10_left.png,10,Community 1,NA,TRUE,f,f,NA,NA,NA,1,6,"10,14,3,12,9,8,1,2,6,11,13,5,7,4,15"
14820,commdev-image-keyboard-response,501,1439740,learnblock2,706.4000000059605,img/planet12_left.png,12,Community 1,NA,TRUE,f,f,NA,NA,NA,1,6,"10,14,3,12,9,8,1,2,6,11,13,5,7,4,15"
14820,commdev-image-keyboard-response,502,1440995,learnblock2,558.7000000029802,img/planet14_right.png,14,Community 1,NA,TRUE,j,j,NA,NA,NA,1,6,"10,14,3,12,9,8,1,2,6,11,13,5,7,4,15"
14820,commdev-image-keyboard-response,503,1442251,learnblock2,555.7000000029802,img/planet9_right.png,9,Community 1,NA,TRUE,j,j,NA,NA,NA,1,6,"10,14,3,12,9,8,1,2,6,11,13,5,7,4,15"
14820,commdev-image-keyboard-response,504,1443507,learnblock2,566.5,img/planet3_right.png,3,Community 1,NA,TRUE,j,j,NA,NA,NA,1,6,"10,14,3,12,9,8,1,2,6,11,13,5,7,4,15"
14820,commdev-image-keyboard-response,505,1444763,learnblock2,656.6000000089407,img/planet10_left.png,10,Community 1,NA,TRUE,f,f,NA,NA,NA,1,6,"10,14,3,12,9,8,1,2,6,11,13,5,7,4,15"
14820,commdev-image-keyboard-response,506,1446019,learnblock2,613.3999999910593,img/planet9_right.png,9,Community 1,NA,TRUE,j,j,NA,NA,NA,1,6,"10,14,3,12,9,8,1,2,6,11,13,5,7,4,15"
14820,commdev-image-keyboard-response,507,1447275,learnblock2,585.3999999910593,img/planet14_right.png,14,Community 1,NA,TRUE,j,j,NA,NA,NA,1,6,"10,14,3,12,9,8,1,2,6,11,13,5,7,4,15"
14820,commdev-image-keyboard-response,508,1448531,learnblock2,524.5,img/planet9_left.png,9,Community 1,NA,TRUE,f,f,NA,NA,NA,1,6,"10,14,3,12,9,8,1,2,6,11,13,5,7,4,15"
14820,commdev-image-keyboard-response,509,1449787,learnblock2,493.29999999701977,img/planet10_right.png,10,Community 1,NA,TRUE,j,j,NA,NA,NA,1,6,"10,14,3,12,9,8,1,2,6,11,13,5,7,4,15"
14820,commdev-image-keyboard-response,510,1451043,learnblock2,647.6000000089407,img/planet3_left.png,3,Community 1,NA,TRUE,f,f,NA,NA,NA,1,6,"10,14,3,12,9,8,1,2,6,11,13,5,7,4,15"
14820,commdev-image-keyboard-response,511,1452300,learnblock2,1022.2000000029802,img/planet9_left.png,9,Community 1,NA,TRUE,f,f,NA,NA,NA,1,6,"10,14,3,12,9,8,1,2,6,11,13,5,7,4,15"
14820,commdev-image-keyboard-response,512,1453555,learnblock2,673.6000000089407,img/planet14_right.png,14,Community 1,NA,TRUE,j,j,NA,NA,NA,1,6,"10,14,3,12,9,8,1,2,6,11,13,5,7,4,15"
14820,commdev-image-keyboard-response,513,1454811,learnblock2,781.2000000029802,img/planet12_left.png,12,Community 1,NA,TRUE,f,f,NA,NA,NA,1,6,"10,14,3,12,9,8,1,2,6,11,13,5,7,4,15"
14820,commdev-image-keyboard-response,514,1456068,learnblock2,557.6000000089407,img/planet10_left.png,10,Community 1,NA,TRUE,f,f,NA,NA,NA,1,6,"10,14,3,12,9,8,1,2,6,11,13,5,7,4,15"
14820,commdev-image-keyboard-response,515,1457323,learnblock2,518.1000000089407,img/planet14_right.png,14,Community 1,NA,TRUE,j,j,NA,NA,NA,1,6,"10,14,3,12,9,8,1,2,6,11,13,5,7,4,15"
14820,commdev-image-keyboard-response,516,1458579,learnblock2,579.5,img/planet12_right.png,12,Community 1,NA,TRUE,j,j,NA,NA,NA,1,6,"10,14,3,12,9,8,1,2,6,11,13,5,7,4,15"
14820,commdev-image-keyboard-response,517,1459835,learnblock2,483.6000000089407,img/planet14_right.png,14,Community 1,NA,TRUE,j,j,NA,NA,NA,1,6,"10,14,3,12,9,8,1,2,6,11,13,5,7,4,15"
14820,commdev-image-keyboard-response,518,1461092,learnblock2,640.4000000059605,img/planet3_left.png,3,Community 1,NA,TRUE,f,f,NA,NA,NA,1,6,"10,14,3,12,9,8,1,2,6,11,13,5,7,4,15"
14820,commdev-image-keyboard-response,519,1462347,learnblock2,505,img/planet9_left.png,9,Community 1,NA,TRUE,f,f,NA,NA,NA,1,6,"10,14,3,12,9,8,1,2,6,11,13,5,7,4,15"
14820,commdev-image-keyboard-response,520,1463604,learnblock2,640.9000000059605,img/planet3_left.png,3,Community 1,NA,TRUE,f,f,NA,NA,NA,1,6,"10,14,3,12,9,8,1,2,6,11,13,5,7,4,15"
14820,commdev-image-keyboard-response,521,1464860,learnblock2,629.2000000029802,img/planet12_right.png,12,Community 1,NA,TRUE,j,j,NA,NA,NA,1,6,"10,14,3,12,9,8,1,2,6,11,13,5,7,4,15"
14820,commdev-image-keyboard-response,522,1466115,learnblock2,724.8999999910593,img/planet3_right.png,3,Community 1,NA,TRUE,j,j,NA,NA,NA,1,6,"10,14,3,12,9,8,1,2,6,11,13,5,7,4,15"
14820,commdev-image-keyboard-response,523,1467372,learnblock2,583.2999999970198,img/planet12_left.png,12,Community 1,NA,TRUE,f,f,NA,NA,NA,1,6,"10,14,3,12,9,8,1,2,6,11,13,5,7,4,15"
14820,commdev-image-keyboard-response,524,1468627,learnblock2,685.7000000029802,img/planet3_left.png,3,Community 1,NA,TRUE,f,f,NA,NA,NA,1,6,"10,14,3,12,9,8,1,2,6,11,13,5,7,4,15"
14820,commdev-image-keyboard-response,525,1469883,learnblock2,563.6000000089407,img/planet14_left.png,14,Community 1,NA,TRUE,f,f,NA,NA,NA,1,6,"10,14,3,12,9,8,1,2,6,11,13,5,7,4,15"
14820,commdev-image-keyboard-response,526,1471139,learnblock2,592.8000000119209,img/planet12_left.png,12,Community 1,NA,TRUE,f,f,NA,NA,NA,1,6,"10,14,3,12,9,8,1,2,6,11,13,5,7,4,15"
14820,commdev-image-keyboard-response,527,1472395,learnblock2,609.4000000059605,img/planet8_left.png,8,Community 2,NA,TRUE,f,f,NA,NA,NA,1,6,"10,14,3,12,9,8,1,2,6,11,13,5,7,4,15"
14820,commdev-image-keyboard-response,528,1473651,learnblock2,460.40000000596046,img/planet11_right.png,11,Community 2,NA,TRUE,j,j,NA,NA,NA,1,6,"10,14,3,12,9,8,1,2,6,11,13,5,7,4,15"
14820,commdev-image-keyboard-response,529,1474907,learnblock2,669.2999999970198,img/planet1_left.png,1,Community 2,NA,TRUE,f,f,NA,NA,NA,1,6,"10,14,3,12,9,8,1,2,6,11,13,5,7,4,15"
14820,commdev-image-keyboard-response,530,1476163,learnblock2,513.4000000059605,img/planet11_right.png,11,Community 2,NA,TRUE,j,j,NA,NA,NA,1,6,"10,14,3,12,9,8,1,2,6,11,13,5,7,4,15"
14820,commdev-image-keyboard-response,531,1477419,learnblock2,521.5,img/planet6_right.png,6,Community 2,NA,TRUE,j,j,NA,NA,NA,1,6,"10,14,3,12,9,8,1,2,6,11,13,5,7,4,15"
14820,commdev-image-keyboard-response,532,1478676,learnblock2,628.7999999970198,img/planet8_right.png,8,Community 2,NA,TRUE,j,j,NA,NA,NA,1,6,"10,14,3,12,9,8,1,2,6,11,13,5,7,4,15"
14820,commdev-image-keyboard-response,533,1479931,learnblock2,491.70000000298023,img/planet12_right.png,12,Community 1,NA,TRUE,j,j,NA,NA,NA,1,6,"10,14,3,12,9,8,1,2,6,11,13,5,7,4,15"
14820,commdev-image-keyboard-response,534,1481187,learnblock2,615.5,img/planet3_right.png,3,Community 1,NA,TRUE,j,j,NA,NA,NA,1,6,"10,14,3,12,9,8,1,2,6,11,13,5,7,4,15"
14820,commdev-image-keyboard-response,535,1482443,learnblock2,503.59999999403954,img/planet12_left.png,12,Community 1,NA,TRUE,f,f,NA,NA,NA,1,6,"10,14,3,12,9,8,1,2,6,11,13,5,7,4,15"
14820,commdev-image-keyboard-response,536,1483699,learnblock2,425.1000000089407,img/planet3_left.png,3,Community 1,NA,FALSE,j,f,NA,NA,NA,1,6,"10,14,3,12,9,8,1,2,6,11,13,5,7,4,15"
14820,commdev-image-keyboard-response,537,1484955,learnblock2,563.5,img/planet14_left.png,14,Community 1,NA,TRUE,f,f,NA,NA,NA,1,6,"10,14,3,12,9,8,1,2,6,11,13,5,7,4,15"
14820,commdev-image-keyboard-response,538,1486211,learnblock2,548.4000000059605,img/planet10_left.png,10,Community 1,NA,TRUE,f,f,NA,NA,NA,1,6,"10,14,3,12,9,8,1,2,6,11,13,5,7,4,15"
14820,commdev-image-keyboard-response,539,1487468,learnblock2,518.9000000059605,img/planet14_right.png,14,Community 1,NA,TRUE,j,j,NA,NA,NA,1,6,"10,14,3,12,9,8,1,2,6,11,13,5,7,4,15"
14820,commdev-image-keyboard-response,540,1488723,learnblock2,587.5,img/planet3_right.png,3,Community 1,NA,TRUE,j,j,NA,NA,NA,1,6,"10,14,3,12,9,8,1,2,6,11,13,5,7,4,15"
14820,commdev-image-keyboard-response,541,1489979,learnblock2,646.2000000029802,img/planet12_left.png,12,Community 1,NA,TRUE,f,f,NA,NA,NA,1,6,"10,14,3,12,9,8,1,2,6,11,13,5,7,4,15"
14820,commdev-image-keyboard-response,542,1491235,learnblock2,879.6000000089407,img/planet3_right.png,3,Community 1,NA,TRUE,j,j,NA,NA,NA,1,6,"10,14,3,12,9,8,1,2,6,11,13,5,7,4,15"
14820,commdev-image-keyboard-response,543,1492491,learnblock2,519.1000000089407,img/planet12_right.png,12,Community 1,NA,TRUE,j,j,NA,NA,NA,1,6,"10,14,3,12,9,8,1,2,6,11,13,5,7,4,15"
14820,commdev-image-keyboard-response,544,1493747,learnblock2,598.7999999970198,img/planet10_right.png,10,Community 1,NA,TRUE,j,j,NA,NA,NA,1,6,"10,14,3,12,9,8,1,2,6,11,13,5,7,4,15"
14820,commdev-image-keyboard-response,545,1495003,learnblock2,442.3999999910593,img/planet12_right.png,12,Community 1,NA,TRUE,j,j,NA,NA,NA,1,6,"10,14,3,12,9,8,1,2,6,11,13,5,7,4,15"
14820,commdev-image-keyboard-response,546,1496259,learnblock2,510.90000000596046,img/planet8_left.png,8,Community 2,NA,TRUE,f,f,NA,NA,NA,1,6,"10,14,3,12,9,8,1,2,6,11,13,5,7,4,15"
14820,commdev-image-keyboard-response,547,1497515,learnblock2,616,img/planet11_right.png,11,Community 2,NA,TRUE,j,j,NA,NA,NA,1,6,"10,14,3,12,9,8,1,2,6,11,13,5,7,4,15"
14820,commdev-image-keyboard-response,548,1498772,learnblock2,678,img/planet8_right.png,8,Community 2,NA,TRUE,j,j,NA,NA,NA,1,6,"10,14,3,12,9,8,1,2,6,11,13,5,7,4,15"
14820,commdev-image-keyboard-response,549,1500028,learnblock2,632.8000000119209,img/planet6_left.png,6,Community 2,NA,TRUE,f,f,NA,NA,NA,1,6,"10,14,3,12,9,8,1,2,6,11,13,5,7,4,15"
14820,commdev-image-keyboard-response,550,1501283,learnblock2,736.9000000059605,img/planet8_right.png,8,Community 2,NA,TRUE,j,j,NA,NA,NA,1,6,"10,14,3,12,9,8,1,2,6,11,13,5,7,4,15"
14820,commdev-image-keyboard-response,551,1502540,learnblock2,611.5,img/planet1_right.png,1,Community 2,NA,TRUE,j,j,NA,NA,NA,1,6,"10,14,3,12,9,8,1,2,6,11,13,5,7,4,15"
14820,commdev-image-keyboard-response,552,1503795,learnblock2,530.7999999970198,img/planet2_right.png,2,Community 2,NA,TRUE,j,j,NA,NA,NA,1,6,"10,14,3,12,9,8,1,2,6,11,13,5,7,4,15"
14820,commdev-image-keyboard-response,553,1505051,learnblock2,583.7999999970198,img/planet6_left.png,6,Community 2,NA,TRUE,f,f,NA,NA,NA,1,6,"10,14,3,12,9,8,1,2,6,11,13,5,7,4,15"
14820,commdev-image-keyboard-response,554,1506307,learnblock2,772.7999999970198,img/planet8_right.png,8,Community 2,NA,TRUE,j,j,NA,NA,NA,1,6,"10,14,3,12,9,8,1,2,6,11,13,5,7,4,15"
14820,commdev-image-keyboard-response,555,1507563,learnblock2,611,img/planet11_right.png,11,Community 2,NA,TRUE,j,j,NA,NA,NA,1,6,"10,14,3,12,9,8,1,2,6,11,13,5,7,4,15"
14820,commdev-image-keyboard-response,556,1508820,learnblock2,750,img/planet6_left.png,6,Community 2,NA,TRUE,f,f,NA,NA,NA,1,6,"10,14,3,12,9,8,1,2,6,11,13,5,7,4,15"
14820,commdev-image-keyboard-response,557,1510075,learnblock2,641.2000000029802,img/planet11_left.png,11,Community 2,NA,TRUE,f,f,NA,NA,NA,1,6,"10,14,3,12,9,8,1,2,6,11,13,5,7,4,15"
14820,commdev-image-keyboard-response,558,1511332,learnblock2,537.0999999940395,img/planet2_right.png,2,Community 2,NA,TRUE,j,j,NA,NA,NA,1,6,"10,14,3,12,9,8,1,2,6,11,13,5,7,4,15"
14820,commdev-image-keyboard-response,559,1512587,learnblock2,709,img/planet5_left.png,5,Community 3,NA,TRUE,f,f,NA,NA,NA,1,6,"10,14,3,12,9,8,1,2,6,11,13,5,7,4,15"
14820,commdev-image-keyboard-response,560,1513843,learnblock2,593.5,img/planet2_left.png,2,Community 2,NA,TRUE,f,f,NA,NA,NA,1,6,"10,14,3,12,9,8,1,2,6,11,13,5,7,4,15"
14820,commdev-image-keyboard-response,561,1515099,learnblock2,613.5,img/planet11_left.png,11,Community 2,NA,TRUE,f,f,NA,NA,NA,1,6,"10,14,3,12,9,8,1,2,6,11,13,5,7,4,15"
14820,commdev-image-keyboard-response,562,1516355,learnblock2,685.9000000059605,img/planet8_right.png,8,Community 2,NA,TRUE,j,j,NA,NA,NA,1,6,"10,14,3,12,9,8,1,2,6,11,13,5,7,4,15"
14820,commdev-image-keyboard-response,563,1517611,learnblock2,742.2000000029802,img/planet6_right.png,6,Community 2,NA,TRUE,j,j,NA,NA,NA,1,6,"10,14,3,12,9,8,1,2,6,11,13,5,7,4,15"
14820,commdev-image-keyboard-response,564,1518867,learnblock2,544,img/planet1_left.png,1,Community 2,NA,TRUE,f,f,NA,NA,NA,1,6,"10,14,3,12,9,8,1,2,6,11,13,5,7,4,15"
14820,commdev-image-keyboard-response,565,1520124,learnblock2,522.5,img/planet2_left.png,2,Community 2,NA,TRUE,f,f,NA,NA,NA,1,6,"10,14,3,12,9,8,1,2,6,11,13,5,7,4,15"
14820,commdev-image-keyboard-response,566,1521380,learnblock2,518.7999999970198,img/planet5_right.png,5,Community 3,NA,TRUE,j,j,NA,NA,NA,1,6,"10,14,3,12,9,8,1,2,6,11,13,5,7,4,15"
14820,commdev-image-keyboard-response,567,1522635,learnblock2,611.5999999940395,img/planet15_left.png,15,Community 3,NA,TRUE,f,f,NA,NA,NA,1,6,"10,14,3,12,9,8,1,2,6,11,13,5,7,4,15"
14820,commdev-image-keyboard-response,568,1523891,learnblock2,659.2000000029802,img/planet7_left.png,7,Community 3,NA,TRUE,f,f,NA,NA,NA,1,6,"10,14,3,12,9,8,1,2,6,11,13,5,7,4,15"
14820,commdev-image-keyboard-response,569,1525147,learnblock2,547.6000000089407,img/planet4_right.png,4,Community 3,NA,TRUE,j,j,NA,NA,NA,1,6,"10,14,3,12,9,8,1,2,6,11,13,5,7,4,15"
14820,commdev-image-keyboard-response,570,1526403,learnblock2,913.2999999970198,img/planet7_right.png,7,Community 3,NA,TRUE,j,j,NA,NA,NA,1,6,"10,14,3,12,9,8,1,2,6,11,13,5,7,4,15"
14820,commdev-image-keyboard-response,571,1527659,learnblock2,662.8999999910593,img/planet4_left.png,4,Community 3,NA,TRUE,f,f,NA,NA,NA,1,6,"10,14,3,12,9,8,1,2,6,11,13,5,7,4,15"
14820,commdev-image-keyboard-response,572,1528916,learnblock2,654.5,img/planet13_left.png,13,Community 3,NA,TRUE,f,f,NA,NA,NA,1,6,"10,14,3,12,9,8,1,2,6,11,13,5,7,4,15"
14820,commdev-image-keyboard-response,573,1530171,learnblock2,570.6000000089407,img/planet9_left.png,9,Community 1,NA,TRUE,f,f,NA,NA,NA,1,6,"10,14,3,12,9,8,1,2,6,11,13,5,7,4,15"
14820,commdev-image-keyboard-response,574,1531427,learnblock2,831.2000000029802,img/planet3_right.png,3,Community 1,NA,TRUE,j,j,NA,NA,NA,1,6,"10,14,3,12,9,8,1,2,6,11,13,5,7,4,15"
14820,commdev-image-keyboard-response,575,1532683,learnblock2,993.8000000119209,img/planet14_right.png,14,Community 1,NA,TRUE,j,j,NA,NA,NA,1,6,"10,14,3,12,9,8,1,2,6,11,13,5,7,4,15"
14820,commdev-image-keyboard-response,576,1533939,learnblock2,547.4000000059605,img/planet9_left.png,9,Community 1,NA,TRUE,f,f,NA,NA,NA,1,6,"10,14,3,12,9,8,1,2,6,11,13,5,7,4,15"
14820,commdev-image-keyboard-response,577,1535195,learnblock2,744.4000000059605,img/planet14_left.png,14,Community 1,NA,TRUE,f,f,NA,NA,NA,1,6,"10,14,3,12,9,8,1,2,6,11,13,5,7,4,15"
14820,commdev-image-keyboard-response,578,1536452,learnblock2,561.9000000059605,img/planet10_left.png,10,Community 1,NA,TRUE,f,f,NA,NA,NA,1,6,"10,14,3,12,9,8,1,2,6,11,13,5,7,4,15"
14820,commdev-image-keyboard-response,579,1537707,learnblock2,606.7000000029802,img/planet9_right.png,9,Community 1,NA,TRUE,j,j,NA,NA,NA,1,6,"10,14,3,12,9,8,1,2,6,11,13,5,7,4,15"
14820,commdev-image-keyboard-response,580,1538963,learnblock2,562.5,img/planet10_left.png,10,Community 1,NA,TRUE,f,f,NA,NA,NA,1,6,"10,14,3,12,9,8,1,2,6,11,13,5,7,4,15"
14820,commdev-image-keyboard-response,581,1540220,learnblock2,667.7999999970198,img/planet3_right.png,3,Community 1,NA,TRUE,j,j,NA,NA,NA,1,6,"10,14,3,12,9,8,1,2,6,11,13,5,7,4,15"
14820,commdev-image-keyboard-response,582,1541476,learnblock2,421.6000000089407,img/planet9_left.png,9,Community 1,NA,TRUE,f,f,NA,NA,NA,1,6,"10,14,3,12,9,8,1,2,6,11,13,5,7,4,15"
14820,commdev-image-keyboard-response,583,1542731,learnblock2,878.6000000089407,img/planet13_right.png,13,Community 3,NA,TRUE,j,j,NA,NA,NA,1,6,"10,14,3,12,9,8,1,2,6,11,13,5,7,4,15"
14820,commdev-image-keyboard-response,584,1543987,learnblock2,777.5,img/planet15_left.png,15,Community 3,NA,TRUE,f,f,NA,NA,NA,1,6,"10,14,3,12,9,8,1,2,6,11,13,5,7,4,15"
14820,commdev-image-keyboard-response,585,1545243,learnblock2,578.5,img/planet5_right.png,5,Community 3,NA,TRUE,j,j,NA,NA,NA,1,6,"10,14,3,12,9,8,1,2,6,11,13,5,7,4,15"
14820,commdev-image-keyboard-response,586,1546500,learnblock2,473.8999999910593,img/planet15_right.png,15,Community 3,NA,FALSE,f,j,NA,NA,NA,1,6,"10,14,3,12,9,8,1,2,6,11,13,5,7,4,15"
14820,commdev-image-keyboard-response,587,1547755,learnblock2,588.2999999970198,img/planet13_left.png,13,Community 3,NA,TRUE,f,f,NA,NA,NA,1,6,"10,14,3,12,9,8,1,2,6,11,13,5,7,4,15"
14820,commdev-image-keyboard-response,588,1549012,learnblock2,848.7999999970198,img/planet7_left.png,7,Community 3,NA,TRUE,f,f,NA,NA,NA,1,6,"10,14,3,12,9,8,1,2,6,11,13,5,7,4,15"
14820,commdev-image-keyboard-response,589,1550267,learnblock2,791.0999999940395,img/planet13_right.png,13,Community 3,NA,TRUE,j,j,NA,NA,NA,1,6,"10,14,3,12,9,8,1,2,6,11,13,5,7,4,15"
14820,commdev-image-keyboard-response,590,1551523,learnblock2,658.2999999970198,img/planet4_left.png,4,Community 3,NA,TRUE,f,f,NA,NA,NA,1,6,"10,14,3,12,9,8,1,2,6,11,13,5,7,4,15"
14820,commdev-image-keyboard-response,591,1552779,learnblock2,602.1999999880791,img/planet15_left.png,15,Community 3,NA,TRUE,f,f,NA,NA,NA,1,6,"10,14,3,12,9,8,1,2,6,11,13,5,7,4,15"
14820,commdev-image-keyboard-response,592,1554035,learnblock2,552.7999999970198,img/planet13_left.png,13,Community 3,NA,TRUE,f,f,NA,NA,NA,1,6,"10,14,3,12,9,8,1,2,6,11,13,5,7,4,15"
14820,commdev-image-keyboard-response,593,1555291,learnblock2,674.4000000059605,img/planet9_left.png,9,Community 1,NA,TRUE,f,f,NA,NA,NA,1,6,"10,14,3,12,9,8,1,2,6,11,13,5,7,4,15"
14820,commdev-image-keyboard-response,594,1556547,learnblock2,579.2000000029802,img/planet14_left.png,14,Community 1,NA,TRUE,f,f,NA,NA,NA,1,6,"10,14,3,12,9,8,1,2,6,11,13,5,7,4,15"
14820,commdev-image-keyboard-response,595,1557803,learnblock2,1046,img/planet3_left.png,3,Community 1,NA,TRUE,f,f,NA,NA,NA,1,6,"10,14,3,12,9,8,1,2,6,11,13,5,7,4,15"
14820,commdev-image-keyboard-response,596,1559059,learnblock2,736.8999999910593,img/planet12_left.png,12,Community 1,NA,TRUE,f,f,NA,NA,NA,1,6,"10,14,3,12,9,8,1,2,6,11,13,5,7,4,15"
14820,commdev-image-keyboard-response,597,1560315,learnblock2,549.2000000029802,img/planet14_right.png,14,Community 1,NA,TRUE,j,j,NA,NA,NA,1,6,"10,14,3,12,9,8,1,2,6,11,13,5,7,4,15"
14820,commdev-image-keyboard-response,598,1561571,learnblock2,664.7000000029802,img/planet10_right.png,10,Community 1,NA,TRUE,j,j,NA,NA,NA,1,6,"10,14,3,12,9,8,1,2,6,11,13,5,7,4,15"
14820,commdev-image-keyboard-response,599,1562827,learnblock2,741.0999999940395,img/planet12_left.png,12,Community 1,NA,TRUE,f,f,NA,NA,NA,1,6,"10,14,3,12,9,8,1,2,6,11,13,5,7,4,15"
14820,commdev-image-keyboard-response,600,1564083,learnblock2,739.7999999970198,img/planet14_left.png,14,Community 1,NA,TRUE,f,f,NA,NA,NA,1,6,"10,14,3,12,9,8,1,2,6,11,13,5,7,4,15"
14820,commdev-image-keyboard-response,601,1565339,learnblock2,653.5999999940395,img/planet3_left.png,3,Community 1,NA,TRUE,f,f,NA,NA,NA,1,6,"10,14,3,12,9,8,1,2,6,11,13,5,7,4,15"
14820,commdev-image-keyboard-response,602,1566596,learnblock2,523.2999999970198,img/planet9_right.png,9,Community 1,NA,TRUE,j,j,NA,NA,NA,1,6,"10,14,3,12,9,8,1,2,6,11,13,5,7,4,15"
14820,commdev-image-keyboard-response,603,1567851,learnblock2,569.2000000029802,img/planet10_right.png,10,Community 1,NA,TRUE,j,j,NA,NA,NA,1,6,"10,14,3,12,9,8,1,2,6,11,13,5,7,4,15"
14820,commdev-image-keyboard-response,604,1569107,learnblock2,513.3999999910593,img/planet3_left.png,3,Community 1,NA,TRUE,f,f,NA,NA,NA,1,6,"10,14,3,12,9,8,1,2,6,11,13,5,7,4,15"
14820,commdev-image-keyboard-response,605,1570364,learnblock2,540.7000000029802,img/planet12_right.png,12,Community 1,NA,TRUE,j,j,NA,NA,NA,1,6,"10,14,3,12,9,8,1,2,6,11,13,5,7,4,15"
14820,commdev-image-keyboard-response,606,1571619,learnblock2,506.79999999701977,img/planet10_left.png,10,Community 1,NA,TRUE,f,f,NA,NA,NA,1,6,"10,14,3,12,9,8,1,2,6,11,13,5,7,4,15"
14820,commdev-image-keyboard-response,607,1572875,learnblock2,511.3999999910593,img/planet9_right.png,9,Community 1,NA,TRUE,j,j,NA,NA,NA,1,6,"10,14,3,12,9,8,1,2,6,11,13,5,7,4,15"
14820,commdev-image-keyboard-response,608,1574131,learnblock2,672.3999999910593,img/planet13_right.png,13,Community 3,NA,TRUE,j,j,NA,NA,NA,1,6,"10,14,3,12,9,8,1,2,6,11,13,5,7,4,15"
14820,commdev-image-keyboard-response,609,1575414,learnblock2,582.9000000059605,img/planet9_left.png,9,Community 1,NA,TRUE,f,f,NA,NA,NA,1,6,"10,14,3,12,9,8,1,2,6,11,13,5,7,4,15"
14820,commdev-image-keyboard-response,610,1576667,learnblock2,584.1000000089407,img/planet3_right.png,3,Community 1,NA,TRUE,j,j,NA,NA,NA,1,6,"10,14,3,12,9,8,1,2,6,11,13,5,7,4,15"
14820,commdev-image-keyboard-response,611,1577923,learnblock2,848.1000000089407,img/planet12_right.png,12,Community 1,NA,TRUE,j,j,NA,NA,NA,1,6,"10,14,3,12,9,8,1,2,6,11,13,5,7,4,15"
14820,commdev-image-keyboard-response,612,1579179,learnblock2,632.0999999940395,img/planet3_right.png,3,Community 1,NA,TRUE,j,j,NA,NA,NA,1,6,"10,14,3,12,9,8,1,2,6,11,13,5,7,4,15"
14820,commdev-image-keyboard-response,613,1580435,learnblock2,647.6999999880791,img/planet14_right.png,14,Community 1,NA,TRUE,j,j,NA,NA,NA,1,6,"10,14,3,12,9,8,1,2,6,11,13,5,7,4,15"
14820,commdev-image-keyboard-response,614,1581692,learnblock2,441.40000000596046,img/planet12_left.png,12,Community 1,NA,TRUE,f,f,NA,NA,NA,1,6,"10,14,3,12,9,8,1,2,6,11,13,5,7,4,15"
14820,commdev-image-keyboard-response,615,1582947,learnblock2,516.0999999940395,img/planet10_left.png,10,Community 1,NA,TRUE,f,f,NA,NA,NA,1,6,"10,14,3,12,9,8,1,2,6,11,13,5,7,4,15"
14820,commdev-image-keyboard-response,616,1584203,learnblock2,628.6999999880791,img/planet14_left.png,14,Community 1,NA,TRUE,f,f,NA,NA,NA,1,6,"10,14,3,12,9,8,1,2,6,11,13,5,7,4,15"
14820,commdev-image-keyboard-response,617,1585460,learnblock2,629.3000000119209,img/planet10_left.png,10,Community 1,NA,TRUE,f,f,NA,NA,NA,1,6,"10,14,3,12,9,8,1,2,6,11,13,5,7,4,15"
14820,commdev-image-keyboard-response,618,1586715,learnblock2,463.29999999701977,img/planet14_left.png,14,Community 1,NA,TRUE,f,f,NA,NA,NA,1,6,"10,14,3,12,9,8,1,2,6,11,13,5,7,4,15"
14820,commdev-image-keyboard-response,619,1587971,learnblock2,367.29999999701977,img/planet10_left.png,10,Community 1,NA,TRUE,f,f,NA,NA,NA,1,6,"10,14,3,12,9,8,1,2,6,11,13,5,7,4,15"
14820,commdev-image-keyboard-response,620,1589228,learnblock2,480.29999999701977,img/planet3_right.png,3,Community 1,NA,TRUE,j,j,NA,NA,NA,1,6,"10,14,3,12,9,8,1,2,6,11,13,5,7,4,15"
14820,commdev-image-keyboard-response,621,1590484,learnblock2,null,img/planet14_right.png,14,Community 1,NA,FALSE,null,j,NA,NA,NA,1,6,"10,14,3,12,9,8,1,2,6,11,13,5,7,4,15"
14820,commdev-image-keyboard-response,622,1591739,learnblock2,151.19999998807907,img/planet9_right.png,9,Community 1,NA,TRUE,j,j,NA,NA,NA,1,6,"10,14,3,12,9,8,1,2,6,11,13,5,7,4,15"
14820,commdev-image-keyboard-response,623,1592995,learnblock2,710.2999999970198,img/planet14_right.png,14,Community 1,NA,TRUE,j,j,NA,NA,NA,1,6,"10,14,3,12,9,8,1,2,6,11,13,5,7,4,15"
14820,commdev-image-keyboard-response,624,1594251,learnblock2,713.8000000119209,img/planet9_right.png,9,Community 1,NA,TRUE,j,j,NA,NA,NA,1,6,"10,14,3,12,9,8,1,2,6,11,13,5,7,4,15"
14820,commdev-image-keyboard-response,625,1595507,learnblock2,515.2000000029802,img/planet3_left.png,3,Community 1,NA,TRUE,f,f,NA,NA,NA,1,6,"10,14,3,12,9,8,1,2,6,11,13,5,7,4,15"
14820,commdev-image-keyboard-response,626,1596764,learnblock2,542.5,img/planet12_right.png,12,Community 1,NA,TRUE,j,j,NA,NA,NA,1,6,"10,14,3,12,9,8,1,2,6,11,13,5,7,4,15"
14820,commdev-image-keyboard-response,627,1598019,learnblock2,839.7000000029802,img/planet14_right.png,14,Community 1,NA,TRUE,j,j,NA,NA,NA,1,6,"10,14,3,12,9,8,1,2,6,11,13,5,7,4,15"
14820,commdev-image-keyboard-response,628,1599275,learnblock2,595.0999999940395,img/planet3_right.png,3,Community 1,NA,TRUE,j,j,NA,NA,NA,1,6,"10,14,3,12,9,8,1,2,6,11,13,5,7,4,15"
14820,commdev-image-keyboard-response,629,1600532,learnblock2,668.7000000029802,img/planet10_left.png,10,Community 1,NA,TRUE,f,f,NA,NA,NA,1,6,"10,14,3,12,9,8,1,2,6,11,13,5,7,4,15"
14820,commdev-image-keyboard-response,630,1601787,learnblock2,623.5999999940395,img/planet12_left.png,12,Community 1,NA,TRUE,f,f,NA,NA,NA,1,6,"10,14,3,12,9,8,1,2,6,11,13,5,7,4,15"
14820,commdev-image-keyboard-response,631,1603044,learnblock2,614,img/planet14_right.png,14,Community 1,NA,TRUE,j,j,NA,NA,NA,1,6,"10,14,3,12,9,8,1,2,6,11,13,5,7,4,15"
14820,commdev-image-keyboard-response,632,1604299,learnblock2,798.2999999970198,img/planet12_right.png,12,Community 1,NA,TRUE,j,j,NA,NA,NA,1,6,"10,14,3,12,9,8,1,2,6,11,13,5,7,4,15"
14820,commdev-image-keyboard-response,633,1605557,learnblock2,579.3000000119209,img/planet3_right.png,3,Community 1,NA,TRUE,j,j,NA,NA,NA,1,6,"10,14,3,12,9,8,1,2,6,11,13,5,7,4,15"
14820,commdev-image-keyboard-response,634,1606811,learnblock2,814.5,img/planet14_right.png,14,Community 1,NA,TRUE,j,j,NA,NA,NA,1,6,"10,14,3,12,9,8,1,2,6,11,13,5,7,4,15"
14820,commdev-image-keyboard-response,635,1608067,learnblock2,585,img/planet9_left.png,9,Community 1,NA,TRUE,f,f,NA,NA,NA,1,6,"10,14,3,12,9,8,1,2,6,11,13,5,7,4,15"
14820,commdev-image-keyboard-response,636,1609323,learnblock2,529.8000000119209,img/planet3_right.png,3,Community 1,NA,TRUE,j,j,NA,NA,NA,1,6,"10,14,3,12,9,8,1,2,6,11,13,5,7,4,15"
14820,commdev-image-keyboard-response,637,1610580,learnblock2,600.5999999940395,img/planet10_right.png,10,Community 1,NA,TRUE,j,j,NA,NA,NA,1,6,"10,14,3,12,9,8,1,2,6,11,13,5,7,4,15"
14820,commdev-image-keyboard-response,638,1611835,learnblock2,716,img/planet3_right.png,3,Community 1,NA,TRUE,j,j,NA,NA,NA,1,6,"10,14,3,12,9,8,1,2,6,11,13,5,7,4,15"
14820,commdev-image-keyboard-response,639,1613091,learnblock2,570.6999999880791,img/planet12_left.png,12,Community 1,NA,TRUE,f,f,NA,NA,NA,1,6,"10,14,3,12,9,8,1,2,6,11,13,5,7,4,15"
14820,commdev-image-keyboard-response,640,1614348,learnblock2,789.7999999970198,img/planet14_right.png,14,Community 1,NA,TRUE,j,j,NA,NA,NA,1,6,"10,14,3,12,9,8,1,2,6,11,13,5,7,4,15"
14820,commdev-image-keyboard-response,641,1615603,learnblock2,603.2000000029802,img/planet9_left.png,9,Community 1,NA,TRUE,f,f,NA,NA,NA,1,6,"10,14,3,12,9,8,1,2,6,11,13,5,7,4,15"
14820,commdev-image-keyboard-response,642,1616860,learnblock2,419.29999999701977,img/planet3_left.png,3,Community 1,NA,FALSE,j,f,NA,NA,NA,1,6,"10,14,3,12,9,8,1,2,6,11,13,5,7,4,15"
14820,commdev-image-keyboard-response,643,1618115,learnblock2,567.6000000089407,img/planet9_left.png,9,Community 1,NA,TRUE,f,f,NA,NA,NA,1,6,"10,14,3,12,9,8,1,2,6,11,13,5,7,4,15"
14820,commdev-image-keyboard-response,644,1619371,learnblock2,575.6999999880791,img/planet10_right.png,10,Community 1,NA,TRUE,j,j,NA,NA,NA,1,6,"10,14,3,12,9,8,1,2,6,11,13,5,7,4,15"
14820,commdev-image-keyboard-response,645,1620627,learnblock2,717.9000000059605,img/planet12_left.png,12,Community 1,NA,TRUE,f,f,NA,NA,NA,1,6,"10,14,3,12,9,8,1,2,6,11,13,5,7,4,15"
14820,commdev-image-keyboard-response,646,1621883,learnblock2,626.4000000059605,img/planet14_left.png,14,Community 1,NA,TRUE,f,f,NA,NA,NA,1,6,"10,14,3,12,9,8,1,2,6,11,13,5,7,4,15"
14820,commdev-image-keyboard-response,647,1623139,learnblock2,543,img/planet3_right.png,3,Community 1,NA,TRUE,j,j,NA,NA,NA,1,6,"10,14,3,12,9,8,1,2,6,11,13,5,7,4,15"
14820,commdev-image-keyboard-response,648,1624395,learnblock2,558.5999999940395,img/planet10_left.png,10,Community 1,NA,TRUE,f,f,NA,NA,NA,1,6,"10,14,3,12,9,8,1,2,6,11,13,5,7,4,15"
