subject_id,trial_type,trial_index,time_elapsed,block,rt,stimulus,planet,community,response,correct,key_press,learning_correct_response,parse,init_locations,final_locations,browser_interactions,num_comp,planet_map
14818,commdev-instructions,7,25193,NA,1637.6000001430511,"<p>In this game, you are a scientist on board a space shuttle. </p><p> On each mission, you will visit planets all across the universe.</p><img src=""img/controlroom.jpg"" width=300vw>",NA,NA,NA,NA,NA,NA,NA,NA,NA,1,6,"8,5,15,7,4,2,10,9,6,13,1,11,3,12,14"
14818,commdev-instructions,8,28002,NA,727.7000000476837,"<p>Here are a few planets you might see:</p><img src=""img/practice1.png"" width=200vw><img src=""img/practice2.png"" width=200vw><img src=""img/practice3.png"" width=200vw>",NA,NA,NA,NA,NA,NA,NA,NA,NA,1,6,"8,5,15,7,4,2,10,9,6,13,1,11,3,12,14"
14818,commdev-instructions,9,36959,NA,1543.2999999523163,"<p>Your job as a scientist is to record which direction the winds are moving on each planet.</p><p>There are two types of wind directions:</p><img src=""img/practice1_left.png"" width=200vw><img src=""img/practice1_right.png"" width=200vw>",NA,NA,NA,NA,NA,NA,NA,NA,NA,1,6,"8,5,15,7,4,2,10,9,6,13,1,11,3,12,14"
14818,commdev-instructions,10,43660,NA,1815.5999999046326,"<p>If the winds are moving this way, press the letter <strong>F</strong> on the keyboard as fast as you can.</p><img src=""img/leftwind.png"" width=250vw>",NA,NA,NA,NA,NA,NA,NA,NA,NA,1,6,"8,5,15,7,4,2,10,9,6,13,1,11,3,12,14"
14818,commdev-instructions,11,49765,NA,1600,"<p>If the winds are moving this way, press the letter <strong>J</strong> on the keyboard as fast as you can.</p><img src=""img/rightwind.png"" width=350vw>",NA,NA,NA,NA,NA,NA,NA,NA,NA,1,6,"8,5,15,7,4,2,10,9,6,13,1,11,3,12,14"
14818,commdev-instructions,12,56762,NA,2576.7000000476837,<p>You will have 1 second to respond. Try to respond before the time runs out!,NA,NA,NA,NA,NA,NA,NA,NA,NA,1,6,"8,5,15,7,4,2,10,9,6,13,1,11,3,12,14"
14818,commdev-instructions,13,64016,NA,1830.8999998569489,<p>The planets you will visit will look different from each other.</p><p>You should respond <strong>only</strong> based on wind direction.,NA,NA,NA,NA,NA,NA,NA,NA,NA,1,6,"8,5,15,7,4,2,10,9,6,13,1,11,3,12,14"
14818,commdev-instructions,14,71289,NA,2093.5,"<p> Ready to start the practice round? </p><p> Remember, press <strong>F</strong> or <strong>J</strong> depending on the wind direction.<br><img src=""img/categorize_planet_example.png""",NA,NA,NA,NA,NA,NA,NA,NA,NA,1,6,"8,5,15,7,4,2,10,9,6,13,1,11,3,12,14"
14818,commdev-instructions,26,128429,NA,2526.2999999523163,"<p>Great, now try a short practice mission. </p><p> This time, you will have 1 second to respond and you won't know whether you pressed the right or wrong key for each planet.</p>",NA,NA,NA,NA,NA,NA,NA,NA,NA,1,6,"8,5,15,7,4,2,10,9,6,13,1,11,3,12,14"
14818,commdev-image-keyboard-response,27,129800,practice,719.0999999046326,img/practice3_left.png,NA,Number not found in mappings,NA,TRUE,f,f,NA,NA,NA,1,6,"8,5,15,7,4,2,10,9,6,13,1,11,3,12,14"
14818,commdev-image-keyboard-response,28,131063,practice,730.7999999523163,img/practice4_left.png,NA,Number not found in mappings,NA,TRUE,f,f,NA,NA,NA,1,6,"8,5,15,7,4,2,10,9,6,13,1,11,3,12,14"
14818,commdev-image-keyboard-response,29,132328,practice,751.2999999523163,img/practice3_left.png,NA,Number not found in mappings,NA,TRUE,f,f,NA,NA,NA,1,6,"8,5,15,7,4,2,10,9,6,13,1,11,3,12,14"
14818,commdev-image-keyboard-response,30,133592,practice,682,img/practice1_right.png,NA,Number not found in mappings,NA,TRUE,j,j,NA,NA,NA,1,6,"8,5,15,7,4,2,10,9,6,13,1,11,3,12,14"
14818,commdev-image-keyboard-response,31,134856,practice,609.2999999523163,img/practice3_right.png,NA,Number not found in mappings,NA,FALSE,f,j,NA,NA,NA,1,6,"8,5,15,7,4,2,10,9,6,13,1,11,3,12,14"
14818,commdev-image-keyboard-response,32,136121,practice,1127.2000000476837,img/practice4_left.png,NA,Number not found in mappings,NA,TRUE,f,f,NA,NA,NA,1,6,"8,5,15,7,4,2,10,9,6,13,1,11,3,12,14"
14818,commdev-image-keyboard-response,33,137379,practice,808.5,img/practice2_left.png,NA,Number not found in mappings,NA,TRUE,f,f,NA,NA,NA,1,6,"8,5,15,7,4,2,10,9,6,13,1,11,3,12,14"
14818,commdev-image-keyboard-response,34,138641,practice,633.7999999523163,img/practice1_left.png,NA,Number not found in mappings,NA,TRUE,f,f,NA,NA,NA,1,6,"8,5,15,7,4,2,10,9,6,13,1,11,3,12,14"
14818,commdev-instructions,35,149556,NA,1372.5,"<p>Great job with the practice round.</p><p>During real missions, you won't know whether you pressed the right or wrong key for each planet.</p><p>But between missions, we will tell you how you did overall.</p>",NA,NA,NA,NA,NA,NA,NA,NA,NA,1,6,"8,5,15,7,4,2,10,9,6,13,1,11,3,12,14"
14818,commdev-instructions,36,159133,NA,1329.8000001907349,<p>Try your best! You will be paid a bonus based on how many correct responses you make!</p><p>Responses that are too slow will not count toward your bonus.</p>,NA,NA,NA,NA,NA,NA,NA,NA,NA,1,6,"8,5,15,7,4,2,10,9,6,13,1,11,3,12,14"
14818,commdev-instructions,37,166029,NA,696.2999999523163,"<p>You are almost ready to start the real game.</p><p> First, we are going to ask you some questions about how the game works.</p>",NA,NA,NA,NA,NA,NA,NA,NA,NA,1,6,"8,5,15,7,4,2,10,9,6,13,1,11,3,12,14"
14818,commdev-instructions,46,248610,NA,1757.6999998092651,"<p> Nice work! It is now time to start the real game.<p></p>You will go on two missions to record wind directions of different planets.<p></p>Each one will take about 5 minutes. You will get to take a break between missions.<p><p> Remember, press <strong>F</strong> or <strong>J</strong> depending on the wind direction. Good luck!<br><img src=""img/categorize_planet_example.png""",NA,NA,NA,NA,NA,NA,NA,NA,NA,1,6,"8,5,15,7,4,2,10,9,6,13,1,11,3,12,14"
14818,commdev-image-keyboard-response,48,251974,learnblock1,900.5999999046326,img/planet6_right.png,6,Community 2,NA,TRUE,j,j,NA,NA,NA,1,6,"8,5,15,7,4,2,10,9,6,13,1,11,3,12,14"
14818,commdev-image-keyboard-response,49,253228,learnblock1,587,img/planet9_left.png,9,Community 2,NA,TRUE,f,f,NA,NA,NA,1,6,"8,5,15,7,4,2,10,9,6,13,1,11,3,12,14"
14818,commdev-image-keyboard-response,50,254489,learnblock1,597.5999999046326,img/planet6_right.png,6,Community 2,NA,TRUE,j,j,NA,NA,NA,1,6,"8,5,15,7,4,2,10,9,6,13,1,11,3,12,14"
14818,commdev-image-keyboard-response,51,255751,learnblock1,643.7999999523163,img/planet2_left.png,2,Community 2,NA,TRUE,f,f,NA,NA,NA,1,6,"8,5,15,7,4,2,10,9,6,13,1,11,3,12,14"
14818,commdev-image-keyboard-response,52,257011,learnblock1,735,img/planet7_right.png,7,Community 1,NA,TRUE,j,j,NA,NA,NA,1,6,"8,5,15,7,4,2,10,9,6,13,1,11,3,12,14"
14818,commdev-image-keyboard-response,53,258276,learnblock1,689.8999998569489,img/planet8_right.png,8,Community 1,NA,TRUE,j,j,NA,NA,NA,1,6,"8,5,15,7,4,2,10,9,6,13,1,11,3,12,14"
14818,commdev-image-keyboard-response,54,259541,learnblock1,713.8999998569489,img/planet15_left.png,15,Community 1,NA,TRUE,f,f,NA,NA,NA,1,6,"8,5,15,7,4,2,10,9,6,13,1,11,3,12,14"
14818,commdev-image-keyboard-response,55,260803,learnblock1,622.2999999523163,img/planet4_right.png,4,Community 1,NA,TRUE,j,j,NA,NA,NA,1,6,"8,5,15,7,4,2,10,9,6,13,1,11,3,12,14"
14818,commdev-image-keyboard-response,56,262056,learnblock1,675.5,img/planet5_right.png,5,Community 1,NA,TRUE,j,j,NA,NA,NA,1,6,"8,5,15,7,4,2,10,9,6,13,1,11,3,12,14"
14818,commdev-image-keyboard-response,57,263319,learnblock1,629,img/planet8_left.png,8,Community 1,NA,TRUE,f,f,NA,NA,NA,1,6,"8,5,15,7,4,2,10,9,6,13,1,11,3,12,14"
14818,commdev-image-keyboard-response,58,264582,learnblock1,636.0999999046326,img/planet4_right.png,4,Community 1,NA,TRUE,j,j,NA,NA,NA,1,6,"8,5,15,7,4,2,10,9,6,13,1,11,3,12,14"
14818,commdev-image-keyboard-response,59,265842,learnblock1,810.7999999523163,img/planet5_right.png,5,Community 1,NA,TRUE,j,j,NA,NA,NA,1,6,"8,5,15,7,4,2,10,9,6,13,1,11,3,12,14"
14818,commdev-image-keyboard-response,60,267097,learnblock1,704.8999998569489,img/planet15_right.png,15,Community 1,NA,TRUE,j,j,NA,NA,NA,1,6,"8,5,15,7,4,2,10,9,6,13,1,11,3,12,14"
14818,commdev-image-keyboard-response,61,268358,learnblock1,730.1999998092651,img/planet5_right.png,5,Community 1,NA,TRUE,j,j,NA,NA,NA,1,6,"8,5,15,7,4,2,10,9,6,13,1,11,3,12,14"
14818,commdev-image-keyboard-response,62,269617,learnblock1,656.7999999523163,img/planet15_left.png,15,Community 1,NA,TRUE,f,f,NA,NA,NA,1,6,"8,5,15,7,4,2,10,9,6,13,1,11,3,12,14"
14818,commdev-image-keyboard-response,63,270879,learnblock1,593.4000000953674,img/planet5_right.png,5,Community 1,NA,TRUE,j,j,NA,NA,NA,1,6,"8,5,15,7,4,2,10,9,6,13,1,11,3,12,14"
14818,commdev-image-keyboard-response,64,272141,learnblock1,601,img/planet8_left.png,8,Community 1,NA,TRUE,f,f,NA,NA,NA,1,6,"8,5,15,7,4,2,10,9,6,13,1,11,3,12,14"
14818,commdev-image-keyboard-response,65,273403,learnblock1,568.2999999523163,img/planet7_right.png,7,Community 1,NA,TRUE,j,j,NA,NA,NA,1,6,"8,5,15,7,4,2,10,9,6,13,1,11,3,12,14"
14818,commdev-image-keyboard-response,66,274665,learnblock1,543.6000001430511,img/planet5_left.png,5,Community 1,NA,TRUE,f,f,NA,NA,NA,1,6,"8,5,15,7,4,2,10,9,6,13,1,11,3,12,14"
14818,commdev-image-keyboard-response,67,275920,learnblock1,563.0999999046326,img/planet15_right.png,15,Community 1,NA,TRUE,j,j,NA,NA,NA,1,6,"8,5,15,7,4,2,10,9,6,13,1,11,3,12,14"
14818,commdev-image-keyboard-response,68,277172,learnblock1,780.0999999046326,img/planet5_left.png,5,Community 1,NA,TRUE,f,f,NA,NA,NA,1,6,"8,5,15,7,4,2,10,9,6,13,1,11,3,12,14"
14818,commdev-image-keyboard-response,69,278424,learnblock1,689.4000000953674,img/planet4_left.png,4,Community 1,NA,FALSE,j,f,NA,NA,NA,1,6,"8,5,15,7,4,2,10,9,6,13,1,11,3,12,14"
14818,commdev-image-keyboard-response,70,279677,learnblock1,684.7000000476837,img/planet8_right.png,8,Community 1,NA,TRUE,j,j,NA,NA,NA,1,6,"8,5,15,7,4,2,10,9,6,13,1,11,3,12,14"
14818,commdev-image-keyboard-response,71,280942,learnblock1,591.2999999523163,img/planet4_right.png,4,Community 1,NA,TRUE,j,j,NA,NA,NA,1,6,"8,5,15,7,4,2,10,9,6,13,1,11,3,12,14"
14818,commdev-image-keyboard-response,72,282195,learnblock1,626.7000000476837,img/planet5_right.png,5,Community 1,NA,TRUE,j,j,NA,NA,NA,1,6,"8,5,15,7,4,2,10,9,6,13,1,11,3,12,14"
14818,commdev-image-keyboard-response,73,283447,learnblock1,521.5999999046326,img/planet4_right.png,4,Community 1,NA,TRUE,j,j,NA,NA,NA,1,6,"8,5,15,7,4,2,10,9,6,13,1,11,3,12,14"
14818,commdev-image-keyboard-response,74,284698,learnblock1,556.0999999046326,img/planet5_right.png,5,Community 1,NA,TRUE,j,j,NA,NA,NA,1,6,"8,5,15,7,4,2,10,9,6,13,1,11,3,12,14"
14818,commdev-image-keyboard-response,75,285950,learnblock1,659.2000000476837,img/planet7_left.png,7,Community 1,NA,TRUE,f,f,NA,NA,NA,1,6,"8,5,15,7,4,2,10,9,6,13,1,11,3,12,14"
14818,commdev-image-keyboard-response,76,287202,learnblock1,635.7000000476837,img/planet8_left.png,8,Community 1,NA,TRUE,f,f,NA,NA,NA,1,6,"8,5,15,7,4,2,10,9,6,13,1,11,3,12,14"
14818,commdev-image-keyboard-response,77,288454,learnblock1,647.3000001907349,img/planet15_left.png,15,Community 1,NA,TRUE,f,f,NA,NA,NA,1,6,"8,5,15,7,4,2,10,9,6,13,1,11,3,12,14"
14818,commdev-image-keyboard-response,78,289705,learnblock1,748.5,img/planet5_left.png,5,Community 1,NA,TRUE,f,f,NA,NA,NA,1,6,"8,5,15,7,4,2,10,9,6,13,1,11,3,12,14"
14818,commdev-image-keyboard-response,79,290957,learnblock1,639.5,img/planet15_right.png,15,Community 1,NA,TRUE,j,j,NA,NA,NA,1,6,"8,5,15,7,4,2,10,9,6,13,1,11,3,12,14"
14818,commdev-image-keyboard-response,80,292208,learnblock1,728,img/planet4_left.png,4,Community 1,NA,FALSE,j,f,NA,NA,NA,1,6,"8,5,15,7,4,2,10,9,6,13,1,11,3,12,14"
14818,commdev-image-keyboard-response,81,293460,learnblock1,629.6999998092651,img/planet5_right.png,5,Community 1,NA,TRUE,j,j,NA,NA,NA,1,6,"8,5,15,7,4,2,10,9,6,13,1,11,3,12,14"
14818,commdev-image-keyboard-response,82,294712,learnblock1,771.2999999523163,img/planet4_left.png,4,Community 1,NA,TRUE,f,f,NA,NA,NA,1,6,"8,5,15,7,4,2,10,9,6,13,1,11,3,12,14"
14818,commdev-image-keyboard-response,83,295967,learnblock1,637.5999999046326,img/planet1_right.png,1,Community 3,NA,TRUE,j,j,NA,NA,NA,1,6,"8,5,15,7,4,2,10,9,6,13,1,11,3,12,14"
14818,commdev-image-keyboard-response,84,297219,learnblock1,630.9000000953674,img/planet3_right.png,3,Community 3,NA,TRUE,j,j,NA,NA,NA,1,6,"8,5,15,7,4,2,10,9,6,13,1,11,3,12,14"
14818,commdev-image-keyboard-response,85,298471,learnblock1,583.1999998092651,img/planet1_right.png,1,Community 3,NA,TRUE,j,j,NA,NA,NA,1,6,"8,5,15,7,4,2,10,9,6,13,1,11,3,12,14"
14818,commdev-image-keyboard-response,86,299724,learnblock1,523.0999999046326,img/planet4_right.png,4,Community 1,NA,TRUE,j,j,NA,NA,NA,1,6,"8,5,15,7,4,2,10,9,6,13,1,11,3,12,14"
14818,commdev-image-keyboard-response,87,300975,learnblock1,483.7000000476837,img/planet5_right.png,5,Community 1,NA,TRUE,j,j,NA,NA,NA,1,6,"8,5,15,7,4,2,10,9,6,13,1,11,3,12,14"
14818,commdev-image-keyboard-response,88,302227,learnblock1,678.2999999523163,img/planet15_left.png,15,Community 1,NA,TRUE,f,f,NA,NA,NA,1,6,"8,5,15,7,4,2,10,9,6,13,1,11,3,12,14"
14818,commdev-image-keyboard-response,89,303479,learnblock1,524.2000000476837,img/planet4_right.png,4,Community 1,NA,TRUE,j,j,NA,NA,NA,1,6,"8,5,15,7,4,2,10,9,6,13,1,11,3,12,14"
14818,commdev-image-keyboard-response,90,304731,learnblock1,850.2999999523163,img/planet15_right.png,15,Community 1,NA,TRUE,j,j,NA,NA,NA,1,6,"8,5,15,7,4,2,10,9,6,13,1,11,3,12,14"
14818,commdev-image-keyboard-response,91,305983,learnblock1,782.1000001430511,img/planet7_left.png,7,Community 1,NA,TRUE,f,f,NA,NA,NA,1,6,"8,5,15,7,4,2,10,9,6,13,1,11,3,12,14"
14818,commdev-image-keyboard-response,92,307247,learnblock1,557.8999998569489,img/planet15_left.png,15,Community 1,NA,TRUE,f,f,NA,NA,NA,1,6,"8,5,15,7,4,2,10,9,6,13,1,11,3,12,14"
14818,commdev-image-keyboard-response,93,308500,learnblock1,656.0999999046326,img/planet7_left.png,7,Community 1,NA,TRUE,f,f,NA,NA,NA,1,6,"8,5,15,7,4,2,10,9,6,13,1,11,3,12,14"
14818,commdev-image-keyboard-response,94,309752,learnblock1,658.2999999523163,img/planet2_left.png,2,Community 2,NA,TRUE,f,f,NA,NA,NA,1,6,"8,5,15,7,4,2,10,9,6,13,1,11,3,12,14"
14818,commdev-image-keyboard-response,95,311003,learnblock1,876,img/planet13_left.png,13,Community 2,NA,TRUE,f,f,NA,NA,NA,1,6,"8,5,15,7,4,2,10,9,6,13,1,11,3,12,14"
14818,commdev-image-keyboard-response,96,312254,learnblock1,775.2999999523163,img/planet9_left.png,9,Community 2,NA,TRUE,f,f,NA,NA,NA,1,6,"8,5,15,7,4,2,10,9,6,13,1,11,3,12,14"
14818,commdev-image-keyboard-response,97,313511,learnblock1,862.2000000476837,img/planet11_right.png,11,Community 3,NA,TRUE,j,j,NA,NA,NA,1,6,"8,5,15,7,4,2,10,9,6,13,1,11,3,12,14"
14818,commdev-image-keyboard-response,98,314762,learnblock1,809.2000000476837,img/planet3_left.png,3,Community 3,NA,TRUE,f,f,NA,NA,NA,1,6,"8,5,15,7,4,2,10,9,6,13,1,11,3,12,14"
14818,commdev-image-keyboard-response,99,316014,learnblock1,802.8999998569489,img/planet12_left.png,12,Community 3,NA,TRUE,f,f,NA,NA,NA,1,6,"8,5,15,7,4,2,10,9,6,13,1,11,3,12,14"
14818,commdev-image-keyboard-response,100,317270,learnblock1,932.0999999046326,img/planet14_right.png,14,Community 3,NA,TRUE,j,j,NA,NA,NA,1,6,"8,5,15,7,4,2,10,9,6,13,1,11,3,12,14"
14818,commdev-image-keyboard-response,101,318521,learnblock1,938.2999999523163,img/planet11_left.png,11,Community 3,NA,TRUE,f,f,NA,NA,NA,1,6,"8,5,15,7,4,2,10,9,6,13,1,11,3,12,14"
14818,commdev-image-keyboard-response,102,319773,learnblock1,931.7000000476837,img/planet14_left.png,14,Community 3,NA,FALSE,j,f,NA,NA,NA,1,6,"8,5,15,7,4,2,10,9,6,13,1,11,3,12,14"
14818,commdev-image-keyboard-response,103,321024,learnblock1,1085.2999999523163,img/planet3_right.png,3,Community 3,NA,TRUE,j,j,NA,NA,NA,1,6,"8,5,15,7,4,2,10,9,6,13,1,11,3,12,14"
14818,commdev-image-keyboard-response,104,322276,learnblock1,1050.9000000953674,img/planet11_right.png,11,Community 3,NA,TRUE,j,j,NA,NA,NA,1,6,"8,5,15,7,4,2,10,9,6,13,1,11,3,12,14"
14818,commdev-image-keyboard-response,105,323528,learnblock1,885.5999999046326,img/planet14_left.png,14,Community 3,NA,TRUE,f,f,NA,NA,NA,1,6,"8,5,15,7,4,2,10,9,6,13,1,11,3,12,14"
14818,commdev-image-keyboard-response,106,324780,learnblock1,864.5999999046326,img/planet12_right.png,12,Community 3,NA,TRUE,j,j,NA,NA,NA,1,6,"8,5,15,7,4,2,10,9,6,13,1,11,3,12,14"
14818,commdev-image-keyboard-response,107,326031,learnblock1,855.5999999046326,img/planet3_right.png,3,Community 3,NA,TRUE,j,j,NA,NA,NA,1,6,"8,5,15,7,4,2,10,9,6,13,1,11,3,12,14"
14818,commdev-image-keyboard-response,108,327283,learnblock1,825.7000000476837,img/planet12_right.png,12,Community 3,NA,TRUE,j,j,NA,NA,NA,1,6,"8,5,15,7,4,2,10,9,6,13,1,11,3,12,14"
14818,commdev-image-keyboard-response,109,328535,learnblock1,971.8999998569489,img/planet14_right.png,14,Community 3,NA,TRUE,j,j,NA,NA,NA,1,6,"8,5,15,7,4,2,10,9,6,13,1,11,3,12,14"
14818,commdev-image-keyboard-response,110,329787,learnblock1,878.8999998569489,img/planet12_left.png,12,Community 3,NA,TRUE,f,f,NA,NA,NA,1,6,"8,5,15,7,4,2,10,9,6,13,1,11,3,12,14"
14818,commdev-image-keyboard-response,111,331039,learnblock1,791.0999999046326,img/planet11_left.png,11,Community 3,NA,TRUE,f,f,NA,NA,NA,1,6,"8,5,15,7,4,2,10,9,6,13,1,11,3,12,14"
14818,commdev-image-keyboard-response,112,332291,learnblock1,620.9000000953674,img/planet9_left.png,9,Community 2,NA,TRUE,f,f,NA,NA,NA,1,6,"8,5,15,7,4,2,10,9,6,13,1,11,3,12,14"
14818,commdev-image-keyboard-response,113,333544,learnblock1,612.2999999523163,img/planet13_left.png,13,Community 2,NA,TRUE,f,f,NA,NA,NA,1,6,"8,5,15,7,4,2,10,9,6,13,1,11,3,12,14"
14818,commdev-image-keyboard-response,114,334796,learnblock1,585.2999999523163,img/planet6_right.png,6,Community 2,NA,TRUE,j,j,NA,NA,NA,1,6,"8,5,15,7,4,2,10,9,6,13,1,11,3,12,14"
14818,commdev-image-keyboard-response,115,336048,learnblock1,486.5,img/planet2_right.png,2,Community 2,NA,TRUE,j,j,NA,NA,NA,1,6,"8,5,15,7,4,2,10,9,6,13,1,11,3,12,14"
14818,commdev-image-keyboard-response,116,337299,learnblock1,617.3999998569489,img/planet7_right.png,7,Community 1,NA,TRUE,j,j,NA,NA,NA,1,6,"8,5,15,7,4,2,10,9,6,13,1,11,3,12,14"
14818,commdev-image-keyboard-response,117,338551,learnblock1,612.1999998092651,img/planet2_left.png,2,Community 2,NA,TRUE,f,f,NA,NA,NA,1,6,"8,5,15,7,4,2,10,9,6,13,1,11,3,12,14"
14818,commdev-image-keyboard-response,118,339803,learnblock1,840,img/planet13_right.png,13,Community 2,NA,TRUE,j,j,NA,NA,NA,1,6,"8,5,15,7,4,2,10,9,6,13,1,11,3,12,14"
14818,commdev-image-keyboard-response,119,341056,learnblock1,705.7999999523163,img/planet9_right.png,9,Community 2,NA,TRUE,j,j,NA,NA,NA,1,6,"8,5,15,7,4,2,10,9,6,13,1,11,3,12,14"
14818,commdev-image-keyboard-response,120,342307,learnblock1,683.1000001430511,img/planet10_left.png,10,Community 2,NA,TRUE,f,f,NA,NA,NA,1,6,"8,5,15,7,4,2,10,9,6,13,1,11,3,12,14"
14818,commdev-image-keyboard-response,121,343559,learnblock1,532.2999999523163,img/planet2_left.png,2,Community 2,NA,TRUE,f,f,NA,NA,NA,1,6,"8,5,15,7,4,2,10,9,6,13,1,11,3,12,14"
14818,commdev-image-keyboard-response,122,344811,learnblock1,442.69999980926514,img/planet6_right.png,6,Community 2,NA,TRUE,j,j,NA,NA,NA,1,6,"8,5,15,7,4,2,10,9,6,13,1,11,3,12,14"
14818,commdev-image-keyboard-response,123,346063,learnblock1,516.7999999523163,img/planet2_left.png,2,Community 2,NA,TRUE,f,f,NA,NA,NA,1,6,"8,5,15,7,4,2,10,9,6,13,1,11,3,12,14"
14818,commdev-image-keyboard-response,124,347315,learnblock1,706.6000001430511,img/planet13_left.png,13,Community 2,NA,TRUE,f,f,NA,NA,NA,1,6,"8,5,15,7,4,2,10,9,6,13,1,11,3,12,14"
14818,commdev-image-keyboard-response,125,348567,learnblock1,575.4000000953674,img/planet2_left.png,2,Community 2,NA,TRUE,f,f,NA,NA,NA,1,6,"8,5,15,7,4,2,10,9,6,13,1,11,3,12,14"
14818,commdev-image-keyboard-response,126,349820,learnblock1,619.2000000476837,img/planet13_right.png,13,Community 2,NA,TRUE,j,j,NA,NA,NA,1,6,"8,5,15,7,4,2,10,9,6,13,1,11,3,12,14"
14818,commdev-image-keyboard-response,127,351072,learnblock1,667.9000000953674,img/planet2_left.png,2,Community 2,NA,TRUE,f,f,NA,NA,NA,1,6,"8,5,15,7,4,2,10,9,6,13,1,11,3,12,14"
14818,commdev-image-keyboard-response,128,352337,learnblock1,738.8000001907349,img/planet7_left.png,7,Community 1,NA,TRUE,f,f,NA,NA,NA,1,6,"8,5,15,7,4,2,10,9,6,13,1,11,3,12,14"
14818,commdev-image-keyboard-response,129,353588,learnblock1,650.4000000953674,img/planet8_right.png,8,Community 1,NA,TRUE,j,j,NA,NA,NA,1,6,"8,5,15,7,4,2,10,9,6,13,1,11,3,12,14"
14818,commdev-image-keyboard-response,130,354854,learnblock1,582.9000000953674,img/planet4_left.png,4,Community 1,NA,TRUE,f,f,NA,NA,NA,1,6,"8,5,15,7,4,2,10,9,6,13,1,11,3,12,14"
14818,commdev-image-keyboard-response,131,356106,learnblock1,662.9000000953674,img/planet1_right.png,1,Community 3,NA,TRUE,j,j,NA,NA,NA,1,6,"8,5,15,7,4,2,10,9,6,13,1,11,3,12,14"
14818,commdev-image-keyboard-response,132,357358,learnblock1,631.7999999523163,img/planet14_left.png,14,Community 3,NA,TRUE,f,f,NA,NA,NA,1,6,"8,5,15,7,4,2,10,9,6,13,1,11,3,12,14"
14818,commdev-image-keyboard-response,133,358610,learnblock1,703.2999999523163,img/planet1_left.png,1,Community 3,NA,TRUE,f,f,NA,NA,NA,1,6,"8,5,15,7,4,2,10,9,6,13,1,11,3,12,14"
14818,commdev-image-keyboard-response,134,359862,learnblock1,673.3000001907349,img/planet3_right.png,3,Community 3,NA,TRUE,j,j,NA,NA,NA,1,6,"8,5,15,7,4,2,10,9,6,13,1,11,3,12,14"
14818,commdev-image-keyboard-response,135,361113,learnblock1,665.0999999046326,img/planet1_right.png,1,Community 3,NA,TRUE,j,j,NA,NA,NA,1,6,"8,5,15,7,4,2,10,9,6,13,1,11,3,12,14"
14818,commdev-image-keyboard-response,136,362365,learnblock1,615.2000000476837,img/planet14_left.png,14,Community 3,NA,TRUE,f,f,NA,NA,NA,1,6,"8,5,15,7,4,2,10,9,6,13,1,11,3,12,14"
14818,commdev-image-keyboard-response,137,363617,learnblock1,592.6000001430511,img/planet3_right.png,3,Community 3,NA,TRUE,j,j,NA,NA,NA,1,6,"8,5,15,7,4,2,10,9,6,13,1,11,3,12,14"
14818,commdev-image-keyboard-response,138,364869,learnblock1,597.0999999046326,img/planet14_left.png,14,Community 3,NA,TRUE,f,f,NA,NA,NA,1,6,"8,5,15,7,4,2,10,9,6,13,1,11,3,12,14"
14818,commdev-image-keyboard-response,139,366120,learnblock1,547.1999998092651,img/planet12_right.png,12,Community 3,NA,TRUE,j,j,NA,NA,NA,1,6,"8,5,15,7,4,2,10,9,6,13,1,11,3,12,14"
14818,commdev-image-keyboard-response,140,367372,learnblock1,549.2999999523163,img/planet11_left.png,11,Community 3,NA,TRUE,f,f,NA,NA,NA,1,6,"8,5,15,7,4,2,10,9,6,13,1,11,3,12,14"
14818,commdev-image-keyboard-response,141,368623,learnblock1,446.39999985694885,img/planet3_right.png,3,Community 3,NA,TRUE,j,j,NA,NA,NA,1,6,"8,5,15,7,4,2,10,9,6,13,1,11,3,12,14"
14818,commdev-image-keyboard-response,142,369875,learnblock1,570.8999998569489,img/planet11_right.png,11,Community 3,NA,TRUE,j,j,NA,NA,NA,1,6,"8,5,15,7,4,2,10,9,6,13,1,11,3,12,14"
14818,commdev-image-keyboard-response,143,371126,learnblock1,595.2000000476837,img/planet9_left.png,9,Community 2,NA,TRUE,f,f,NA,NA,NA,1,6,"8,5,15,7,4,2,10,9,6,13,1,11,3,12,14"
14818,commdev-image-keyboard-response,144,372377,learnblock1,497.19999980926514,img/planet6_right.png,6,Community 2,NA,TRUE,j,j,NA,NA,NA,1,6,"8,5,15,7,4,2,10,9,6,13,1,11,3,12,14"
14818,commdev-image-keyboard-response,145,373630,learnblock1,638.2999999523163,img/planet9_left.png,9,Community 2,NA,TRUE,f,f,NA,NA,NA,1,6,"8,5,15,7,4,2,10,9,6,13,1,11,3,12,14"
14818,commdev-image-keyboard-response,146,374882,learnblock1,569.9000000953674,img/planet11_left.png,11,Community 3,NA,TRUE,f,f,NA,NA,NA,1,6,"8,5,15,7,4,2,10,9,6,13,1,11,3,12,14"
14818,commdev-image-keyboard-response,147,376135,learnblock1,690.5999999046326,img/planet3_left.png,3,Community 3,NA,FALSE,j,f,NA,NA,NA,1,6,"8,5,15,7,4,2,10,9,6,13,1,11,3,12,14"
14818,commdev-image-keyboard-response,148,377387,learnblock1,849.3999998569489,img/planet11_left.png,11,Community 3,NA,TRUE,f,f,NA,NA,NA,1,6,"8,5,15,7,4,2,10,9,6,13,1,11,3,12,14"
14818,commdev-image-keyboard-response,149,378638,learnblock1,636.5,img/planet3_right.png,3,Community 3,NA,TRUE,j,j,NA,NA,NA,1,6,"8,5,15,7,4,2,10,9,6,13,1,11,3,12,14"
14818,commdev-image-keyboard-response,150,379890,learnblock1,585.1999998092651,img/planet1_right.png,1,Community 3,NA,TRUE,j,j,NA,NA,NA,1,6,"8,5,15,7,4,2,10,9,6,13,1,11,3,12,14"
14818,commdev-image-keyboard-response,151,381143,learnblock1,555.1999998092651,img/planet4_left.png,4,Community 1,NA,TRUE,f,f,NA,NA,NA,1,6,"8,5,15,7,4,2,10,9,6,13,1,11,3,12,14"
14818,commdev-image-keyboard-response,152,382394,learnblock1,582.1000001430511,img/planet8_right.png,8,Community 1,NA,FALSE,f,j,NA,NA,NA,1,6,"8,5,15,7,4,2,10,9,6,13,1,11,3,12,14"
14818,commdev-image-keyboard-response,153,383646,learnblock1,1248.2000000476837,img/planet4_right.png,4,Community 1,NA,TRUE,j,j,NA,NA,NA,1,6,"8,5,15,7,4,2,10,9,6,13,1,11,3,12,14"
14818,commdev-image-keyboard-response,154,384898,learnblock1,1117.6000001430511,img/planet1_left.png,1,Community 3,NA,TRUE,f,f,NA,NA,NA,1,6,"8,5,15,7,4,2,10,9,6,13,1,11,3,12,14"
14818,commdev-image-keyboard-response,155,386165,learnblock1,null,img/planet12_right.png,12,Community 3,NA,FALSE,null,j,NA,NA,NA,1,6,"8,5,15,7,4,2,10,9,6,13,1,11,3,12,14"
14818,commdev-image-keyboard-response,156,387421,learnblock1,null,img/planet11_left.png,11,Community 3,NA,FALSE,null,f,NA,NA,NA,1,6,"8,5,15,7,4,2,10,9,6,13,1,11,3,12,14"
14818,commdev-image-keyboard-response,157,388673,learnblock1,null,img/planet12_right.png,12,Community 3,NA,FALSE,null,j,NA,NA,NA,1,6,"8,5,15,7,4,2,10,9,6,13,1,11,3,12,14"
14818,commdev-image-keyboard-response,158,389925,learnblock1,null,img/planet1_left.png,1,Community 3,NA,FALSE,null,f,NA,NA,NA,1,6,"8,5,15,7,4,2,10,9,6,13,1,11,3,12,14"
14818,commdev-image-keyboard-response,159,391189,learnblock1,546.2000000476837,img/planet4_left.png,4,Community 1,NA,FALSE,j,f,NA,NA,NA,1,6,"8,5,15,7,4,2,10,9,6,13,1,11,3,12,14"
14818,commdev-image-keyboard-response,160,392442,learnblock1,589.6999998092651,img/planet15_left.png,15,Community 1,NA,TRUE,f,f,NA,NA,NA,1,6,"8,5,15,7,4,2,10,9,6,13,1,11,3,12,14"
14818,commdev-image-keyboard-response,161,393694,learnblock1,555.6000001430511,img/planet5_right.png,5,Community 1,NA,TRUE,j,j,NA,NA,NA,1,6,"8,5,15,7,4,2,10,9,6,13,1,11,3,12,14"
14818,commdev-image-keyboard-response,162,394956,learnblock1,500.60000014305115,img/planet7_left.png,7,Community 1,NA,TRUE,f,f,NA,NA,NA,1,6,"8,5,15,7,4,2,10,9,6,13,1,11,3,12,14"
14818,commdev-image-keyboard-response,163,396207,learnblock1,614.5999999046326,img/planet15_left.png,15,Community 1,NA,TRUE,f,f,NA,NA,NA,1,6,"8,5,15,7,4,2,10,9,6,13,1,11,3,12,14"
14818,commdev-image-keyboard-response,164,397460,learnblock1,689.3000001907349,img/planet4_left.png,4,Community 1,NA,TRUE,f,f,NA,NA,NA,1,6,"8,5,15,7,4,2,10,9,6,13,1,11,3,12,14"
14818,commdev-image-keyboard-response,165,398711,learnblock1,638.0999999046326,img/planet1_right.png,1,Community 3,NA,TRUE,j,j,NA,NA,NA,1,6,"8,5,15,7,4,2,10,9,6,13,1,11,3,12,14"
14818,commdev-image-keyboard-response,166,399962,learnblock1,636.1000001430511,img/planet4_right.png,4,Community 1,NA,FALSE,f,j,NA,NA,NA,1,6,"8,5,15,7,4,2,10,9,6,13,1,11,3,12,14"
14818,commdev-image-keyboard-response,167,401215,learnblock1,591.3000001907349,img/planet8_left.png,8,Community 1,NA,TRUE,f,f,NA,NA,NA,1,6,"8,5,15,7,4,2,10,9,6,13,1,11,3,12,14"
14818,commdev-image-keyboard-response,168,402467,learnblock1,480,img/planet5_left.png,5,Community 1,NA,TRUE,f,f,NA,NA,NA,1,6,"8,5,15,7,4,2,10,9,6,13,1,11,3,12,14"
14818,commdev-image-keyboard-response,169,403719,learnblock1,521.3999998569489,img/planet4_right.png,4,Community 1,NA,TRUE,j,j,NA,NA,NA,1,6,"8,5,15,7,4,2,10,9,6,13,1,11,3,12,14"
14818,commdev-image-keyboard-response,170,404971,learnblock1,409.7999999523163,img/planet8_right.png,8,Community 1,NA,FALSE,f,j,NA,NA,NA,1,6,"8,5,15,7,4,2,10,9,6,13,1,11,3,12,14"
14818,commdev-image-keyboard-response,171,406222,learnblock1,616.5,img/planet5_left.png,5,Community 1,NA,TRUE,f,f,NA,NA,NA,1,6,"8,5,15,7,4,2,10,9,6,13,1,11,3,12,14"
14818,commdev-image-keyboard-response,172,407474,learnblock1,479.60000014305115,img/planet8_right.png,8,Community 1,NA,TRUE,j,j,NA,NA,NA,1,6,"8,5,15,7,4,2,10,9,6,13,1,11,3,12,14"
14818,commdev-image-keyboard-response,173,408727,learnblock1,547.2999999523163,img/planet7_right.png,7,Community 1,NA,TRUE,j,j,NA,NA,NA,1,6,"8,5,15,7,4,2,10,9,6,13,1,11,3,12,14"
14818,commdev-image-keyboard-response,174,409979,learnblock1,547.2000000476837,img/planet2_left.png,2,Community 2,NA,TRUE,f,f,NA,NA,NA,1,6,"8,5,15,7,4,2,10,9,6,13,1,11,3,12,14"
14818,commdev-image-keyboard-response,175,411232,learnblock1,698.2999999523163,img/planet6_right.png,6,Community 2,NA,TRUE,j,j,NA,NA,NA,1,6,"8,5,15,7,4,2,10,9,6,13,1,11,3,12,14"
14818,commdev-image-keyboard-response,176,412483,learnblock1,654.1999998092651,img/planet13_left.png,13,Community 2,NA,TRUE,f,f,NA,NA,NA,1,6,"8,5,15,7,4,2,10,9,6,13,1,11,3,12,14"
14818,commdev-image-keyboard-response,177,413735,learnblock1,538,img/planet10_right.png,10,Community 2,NA,TRUE,j,j,NA,NA,NA,1,6,"8,5,15,7,4,2,10,9,6,13,1,11,3,12,14"
14818,commdev-image-keyboard-response,178,414987,learnblock1,615.5,img/planet9_right.png,9,Community 2,NA,TRUE,j,j,NA,NA,NA,1,6,"8,5,15,7,4,2,10,9,6,13,1,11,3,12,14"
14818,commdev-image-keyboard-response,179,416239,learnblock1,567,img/planet10_left.png,10,Community 2,NA,TRUE,f,f,NA,NA,NA,1,6,"8,5,15,7,4,2,10,9,6,13,1,11,3,12,14"
14818,commdev-image-keyboard-response,180,417490,learnblock1,565.4000000953674,img/planet2_right.png,2,Community 2,NA,TRUE,j,j,NA,NA,NA,1,6,"8,5,15,7,4,2,10,9,6,13,1,11,3,12,14"
14818,commdev-image-keyboard-response,181,418741,learnblock1,601,img/planet13_right.png,13,Community 2,NA,FALSE,f,j,NA,NA,NA,1,6,"8,5,15,7,4,2,10,9,6,13,1,11,3,12,14"
14818,commdev-image-keyboard-response,182,419994,learnblock1,673.5,img/planet6_left.png,6,Community 2,NA,TRUE,f,f,NA,NA,NA,1,6,"8,5,15,7,4,2,10,9,6,13,1,11,3,12,14"
14818,commdev-image-keyboard-response,183,421246,learnblock1,668.7999999523163,img/planet9_left.png,9,Community 2,NA,TRUE,f,f,NA,NA,NA,1,6,"8,5,15,7,4,2,10,9,6,13,1,11,3,12,14"
14818,commdev-image-keyboard-response,184,422498,learnblock1,691.7000000476837,img/planet11_left.png,11,Community 3,NA,TRUE,f,f,NA,NA,NA,1,6,"8,5,15,7,4,2,10,9,6,13,1,11,3,12,14"
14818,commdev-image-keyboard-response,185,423750,learnblock1,559.5,img/planet12_right.png,12,Community 3,NA,TRUE,j,j,NA,NA,NA,1,6,"8,5,15,7,4,2,10,9,6,13,1,11,3,12,14"
14818,commdev-image-keyboard-response,186,425002,learnblock1,620.5,img/planet3_left.png,3,Community 3,NA,TRUE,f,f,NA,NA,NA,1,6,"8,5,15,7,4,2,10,9,6,13,1,11,3,12,14"
14818,commdev-image-keyboard-response,187,426254,learnblock1,623.3999998569489,img/planet1_left.png,1,Community 3,NA,TRUE,f,f,NA,NA,NA,1,6,"8,5,15,7,4,2,10,9,6,13,1,11,3,12,14"
14818,commdev-image-keyboard-response,188,427506,learnblock1,1024.4000000953674,img/planet14_right.png,14,Community 3,NA,TRUE,j,j,NA,NA,NA,1,6,"8,5,15,7,4,2,10,9,6,13,1,11,3,12,14"
14818,commdev-image-keyboard-response,189,428758,learnblock1,967.2999999523163,img/planet3_left.png,3,Community 3,NA,TRUE,f,f,NA,NA,NA,1,6,"8,5,15,7,4,2,10,9,6,13,1,11,3,12,14"
14818,commdev-image-keyboard-response,190,430010,learnblock1,824.2000000476837,img/planet14_left.png,14,Community 3,NA,TRUE,f,f,NA,NA,NA,1,6,"8,5,15,7,4,2,10,9,6,13,1,11,3,12,14"
14818,commdev-image-keyboard-response,191,431261,learnblock1,794.1000001430511,img/planet11_right.png,11,Community 3,NA,TRUE,j,j,NA,NA,NA,1,6,"8,5,15,7,4,2,10,9,6,13,1,11,3,12,14"
14818,commdev-image-keyboard-response,192,432513,learnblock1,802.4000000953674,img/planet9_left.png,9,Community 2,NA,TRUE,f,f,NA,NA,NA,1,6,"8,5,15,7,4,2,10,9,6,13,1,11,3,12,14"
14818,commdev-image-keyboard-response,193,433765,learnblock1,734.7000000476837,img/planet6_right.png,6,Community 2,NA,TRUE,j,j,NA,NA,NA,1,6,"8,5,15,7,4,2,10,9,6,13,1,11,3,12,14"
14818,commdev-image-keyboard-response,194,435018,learnblock1,604.5,img/planet10_right.png,10,Community 2,NA,TRUE,j,j,NA,NA,NA,1,6,"8,5,15,7,4,2,10,9,6,13,1,11,3,12,14"
14818,commdev-image-keyboard-response,195,436280,learnblock1,522.8000001907349,img/planet9_right.png,9,Community 2,NA,TRUE,j,j,NA,NA,NA,1,6,"8,5,15,7,4,2,10,9,6,13,1,11,3,12,14"
14818,commdev-image-keyboard-response,196,437533,learnblock1,527.5,img/planet10_left.png,10,Community 2,NA,TRUE,f,f,NA,NA,NA,1,6,"8,5,15,7,4,2,10,9,6,13,1,11,3,12,14"
14818,commdev-image-keyboard-response,197,438785,learnblock1,587.2999999523163,img/planet6_left.png,6,Community 2,NA,TRUE,f,f,NA,NA,NA,1,6,"8,5,15,7,4,2,10,9,6,13,1,11,3,12,14"
14818,commdev-image-keyboard-response,198,440037,learnblock1,483.09999990463257,img/planet9_right.png,9,Community 2,NA,FALSE,f,j,NA,NA,NA,1,6,"8,5,15,7,4,2,10,9,6,13,1,11,3,12,14"
14818,commdev-image-keyboard-response,199,441294,learnblock1,585.2000000476837,img/planet13_left.png,13,Community 2,NA,TRUE,f,f,NA,NA,NA,1,6,"8,5,15,7,4,2,10,9,6,13,1,11,3,12,14"
14818,commdev-image-keyboard-response,200,442546,learnblock1,555.5,img/planet6_right.png,6,Community 2,NA,TRUE,j,j,NA,NA,NA,1,6,"8,5,15,7,4,2,10,9,6,13,1,11,3,12,14"
14818,commdev-image-keyboard-response,201,443798,learnblock1,716.6000001430511,img/planet10_right.png,10,Community 2,NA,TRUE,j,j,NA,NA,NA,1,6,"8,5,15,7,4,2,10,9,6,13,1,11,3,12,14"
14818,commdev-image-keyboard-response,202,445049,learnblock1,698.4000000953674,img/planet13_left.png,13,Community 2,NA,TRUE,f,f,NA,NA,NA,1,6,"8,5,15,7,4,2,10,9,6,13,1,11,3,12,14"
14818,commdev-image-keyboard-response,203,446301,learnblock1,766,img/planet6_left.png,6,Community 2,NA,TRUE,f,f,NA,NA,NA,1,6,"8,5,15,7,4,2,10,9,6,13,1,11,3,12,14"
14818,commdev-image-keyboard-response,204,447552,learnblock1,742.5,img/planet2_right.png,2,Community 2,NA,TRUE,j,j,NA,NA,NA,1,6,"8,5,15,7,4,2,10,9,6,13,1,11,3,12,14"
14818,commdev-image-keyboard-response,205,448805,learnblock1,731.5,img/planet6_right.png,6,Community 2,NA,TRUE,j,j,NA,NA,NA,1,6,"8,5,15,7,4,2,10,9,6,13,1,11,3,12,14"
14818,commdev-image-keyboard-response,206,450057,learnblock1,649,img/planet13_left.png,13,Community 2,NA,TRUE,f,f,NA,NA,NA,1,6,"8,5,15,7,4,2,10,9,6,13,1,11,3,12,14"
14818,commdev-image-keyboard-response,207,451312,learnblock1,604,img/planet2_left.png,2,Community 2,NA,TRUE,f,f,NA,NA,NA,1,6,"8,5,15,7,4,2,10,9,6,13,1,11,3,12,14"
14818,commdev-image-keyboard-response,208,452564,learnblock1,602.8999998569489,img/planet7_left.png,7,Community 1,NA,TRUE,f,f,NA,NA,NA,1,6,"8,5,15,7,4,2,10,9,6,13,1,11,3,12,14"
14818,commdev-image-keyboard-response,209,453816,learnblock1,705.0999999046326,img/planet15_right.png,15,Community 1,NA,TRUE,j,j,NA,NA,NA,1,6,"8,5,15,7,4,2,10,9,6,13,1,11,3,12,14"
14818,commdev-image-keyboard-response,210,455068,learnblock1,823.0999999046326,img/planet5_left.png,5,Community 1,NA,TRUE,f,f,NA,NA,NA,1,6,"8,5,15,7,4,2,10,9,6,13,1,11,3,12,14"
14818,commdev-image-keyboard-response,211,456320,learnblock1,772.4000000953674,img/planet8_right.png,8,Community 1,NA,TRUE,j,j,NA,NA,NA,1,6,"8,5,15,7,4,2,10,9,6,13,1,11,3,12,14"
14818,commdev-image-keyboard-response,212,457573,learnblock1,767.9000000953674,img/planet4_left.png,4,Community 1,NA,TRUE,f,f,NA,NA,NA,1,6,"8,5,15,7,4,2,10,9,6,13,1,11,3,12,14"
14818,commdev-image-keyboard-response,213,458826,learnblock1,667.7999999523163,img/planet8_left.png,8,Community 1,NA,TRUE,f,f,NA,NA,NA,1,6,"8,5,15,7,4,2,10,9,6,13,1,11,3,12,14"
14818,commdev-image-keyboard-response,214,460078,learnblock1,647.7000000476837,img/planet5_right.png,5,Community 1,NA,TRUE,j,j,NA,NA,NA,1,6,"8,5,15,7,4,2,10,9,6,13,1,11,3,12,14"
14818,commdev-image-keyboard-response,215,461329,learnblock1,585.7999999523163,img/planet15_left.png,15,Community 1,NA,TRUE,f,f,NA,NA,NA,1,6,"8,5,15,7,4,2,10,9,6,13,1,11,3,12,14"
14818,commdev-image-keyboard-response,216,462581,learnblock1,672.4000000953674,img/planet4_left.png,4,Community 1,NA,TRUE,f,f,NA,NA,NA,1,6,"8,5,15,7,4,2,10,9,6,13,1,11,3,12,14"
14818,commdev-image-keyboard-response,217,463832,learnblock1,578.8000001907349,img/planet15_left.png,15,Community 1,NA,TRUE,f,f,NA,NA,NA,1,6,"8,5,15,7,4,2,10,9,6,13,1,11,3,12,14"
14818,commdev-image-keyboard-response,218,465085,learnblock1,593.5,img/planet7_right.png,7,Community 1,NA,TRUE,j,j,NA,NA,NA,1,6,"8,5,15,7,4,2,10,9,6,13,1,11,3,12,14"
14818,commdev-image-keyboard-response,219,466337,learnblock1,630.2000000476837,img/planet2_right.png,2,Community 2,NA,TRUE,j,j,NA,NA,NA,1,6,"8,5,15,7,4,2,10,9,6,13,1,11,3,12,14"
14818,commdev-image-keyboard-response,220,467589,learnblock1,514.1999998092651,img/planet6_left.png,6,Community 2,NA,TRUE,f,f,NA,NA,NA,1,6,"8,5,15,7,4,2,10,9,6,13,1,11,3,12,14"
14818,commdev-image-keyboard-response,221,468840,learnblock1,615.1999998092651,img/planet13_left.png,13,Community 2,NA,TRUE,f,f,NA,NA,NA,1,6,"8,5,15,7,4,2,10,9,6,13,1,11,3,12,14"
14818,commdev-image-keyboard-response,222,470092,learnblock1,618.1000001430511,img/planet2_right.png,2,Community 2,NA,TRUE,j,j,NA,NA,NA,1,6,"8,5,15,7,4,2,10,9,6,13,1,11,3,12,14"
14818,commdev-image-keyboard-response,223,471343,learnblock1,671.1000001430511,img/planet7_left.png,7,Community 1,NA,TRUE,f,f,NA,NA,NA,1,6,"8,5,15,7,4,2,10,9,6,13,1,11,3,12,14"
14818,commdev-image-keyboard-response,224,472594,learnblock1,641.2000000476837,img/planet15_right.png,15,Community 1,NA,TRUE,j,j,NA,NA,NA,1,6,"8,5,15,7,4,2,10,9,6,13,1,11,3,12,14"
14818,commdev-image-keyboard-response,225,473846,learnblock1,708.2999999523163,img/planet4_right.png,4,Community 1,NA,TRUE,j,j,NA,NA,NA,1,6,"8,5,15,7,4,2,10,9,6,13,1,11,3,12,14"
14818,commdev-image-keyboard-response,226,475098,learnblock1,722.2999999523163,img/planet8_right.png,8,Community 1,NA,TRUE,j,j,NA,NA,NA,1,6,"8,5,15,7,4,2,10,9,6,13,1,11,3,12,14"
14818,commdev-image-keyboard-response,227,476349,learnblock1,707.7999999523163,img/planet4_left.png,4,Community 1,NA,TRUE,f,f,NA,NA,NA,1,6,"8,5,15,7,4,2,10,9,6,13,1,11,3,12,14"
14818,commdev-image-keyboard-response,228,477602,learnblock1,771.7999999523163,img/planet5_right.png,5,Community 1,NA,TRUE,j,j,NA,NA,NA,1,6,"8,5,15,7,4,2,10,9,6,13,1,11,3,12,14"
14818,commdev-image-keyboard-response,229,478853,learnblock1,691.1000001430511,img/planet4_right.png,4,Community 1,NA,TRUE,j,j,NA,NA,NA,1,6,"8,5,15,7,4,2,10,9,6,13,1,11,3,12,14"
14818,commdev-image-keyboard-response,230,480105,learnblock1,665.0999999046326,img/planet1_left.png,1,Community 3,NA,TRUE,f,f,NA,NA,NA,1,6,"8,5,15,7,4,2,10,9,6,13,1,11,3,12,14"
14818,commdev-image-keyboard-response,231,481357,learnblock1,615,img/planet4_left.png,4,Community 1,NA,FALSE,j,f,NA,NA,NA,1,6,"8,5,15,7,4,2,10,9,6,13,1,11,3,12,14"
14818,commdev-image-keyboard-response,232,482608,learnblock1,506.09999990463257,img/planet8_right.png,8,Community 1,NA,TRUE,j,j,NA,NA,NA,1,6,"8,5,15,7,4,2,10,9,6,13,1,11,3,12,14"
14818,commdev-image-keyboard-response,233,483859,learnblock1,673.4000000953674,img/planet15_right.png,15,Community 1,NA,TRUE,j,j,NA,NA,NA,1,6,"8,5,15,7,4,2,10,9,6,13,1,11,3,12,14"
14818,commdev-image-keyboard-response,234,485112,learnblock1,557,img/planet7_left.png,7,Community 1,NA,TRUE,f,f,NA,NA,NA,1,6,"8,5,15,7,4,2,10,9,6,13,1,11,3,12,14"
14818,commdev-image-keyboard-response,235,486364,learnblock1,533.2000000476837,img/planet2_left.png,2,Community 2,NA,TRUE,f,f,NA,NA,NA,1,6,"8,5,15,7,4,2,10,9,6,13,1,11,3,12,14"
14818,commdev-image-keyboard-response,236,487616,learnblock1,652.5999999046326,img/planet7_right.png,7,Community 1,NA,TRUE,j,j,NA,NA,NA,1,6,"8,5,15,7,4,2,10,9,6,13,1,11,3,12,14"
14818,commdev-image-keyboard-response,237,488868,learnblock1,593.3999998569489,img/planet8_left.png,8,Community 1,NA,TRUE,f,f,NA,NA,NA,1,6,"8,5,15,7,4,2,10,9,6,13,1,11,3,12,14"
14818,commdev-image-keyboard-response,238,490119,learnblock1,729.7999999523163,img/planet5_left.png,5,Community 1,NA,TRUE,f,f,NA,NA,NA,1,6,"8,5,15,7,4,2,10,9,6,13,1,11,3,12,14"
14818,commdev-image-keyboard-response,239,491371,learnblock1,892.9000000953674,img/planet4_right.png,4,Community 1,NA,TRUE,j,j,NA,NA,NA,1,6,"8,5,15,7,4,2,10,9,6,13,1,11,3,12,14"
14818,commdev-image-keyboard-response,240,492623,learnblock1,799.7999999523163,img/planet1_left.png,1,Community 3,NA,TRUE,f,f,NA,NA,NA,1,6,"8,5,15,7,4,2,10,9,6,13,1,11,3,12,14"
14818,commdev-image-keyboard-response,241,493875,learnblock1,750.9000000953674,img/planet3_left.png,3,Community 3,NA,TRUE,f,f,NA,NA,NA,1,6,"8,5,15,7,4,2,10,9,6,13,1,11,3,12,14"
14818,commdev-image-keyboard-response,242,495128,learnblock1,783.2000000476837,img/planet14_left.png,14,Community 3,NA,TRUE,f,f,NA,NA,NA,1,6,"8,5,15,7,4,2,10,9,6,13,1,11,3,12,14"
14818,commdev-image-keyboard-response,243,496380,learnblock1,736,img/planet1_left.png,1,Community 3,NA,TRUE,f,f,NA,NA,NA,1,6,"8,5,15,7,4,2,10,9,6,13,1,11,3,12,14"
14818,commdev-image-keyboard-response,244,497632,learnblock1,719.9000000953674,img/planet12_right.png,12,Community 3,NA,TRUE,j,j,NA,NA,NA,1,6,"8,5,15,7,4,2,10,9,6,13,1,11,3,12,14"
14818,commdev-image-keyboard-response,245,498884,learnblock1,760.8999998569489,img/planet3_left.png,3,Community 3,NA,TRUE,f,f,NA,NA,NA,1,6,"8,5,15,7,4,2,10,9,6,13,1,11,3,12,14"
14818,commdev-image-keyboard-response,246,500135,learnblock1,601.7000000476837,img/planet12_left.png,12,Community 3,NA,FALSE,j,f,NA,NA,NA,1,6,"8,5,15,7,4,2,10,9,6,13,1,11,3,12,14"
14818,commdev-image-keyboard-response,247,501387,learnblock1,null,img/planet11_right.png,11,Community 3,NA,FALSE,null,j,NA,NA,NA,1,6,"8,5,15,7,4,2,10,9,6,13,1,11,3,12,14"
14818,commdev-image-keyboard-response,248,502639,learnblock1,175.90000009536743,img/planet9_right.png,9,Community 2,NA,TRUE,j,j,NA,NA,NA,1,6,"8,5,15,7,4,2,10,9,6,13,1,11,3,12,14"
14818,commdev-image-keyboard-response,249,503890,learnblock1,null,img/planet11_left.png,11,Community 3,NA,FALSE,null,f,NA,NA,NA,1,6,"8,5,15,7,4,2,10,9,6,13,1,11,3,12,14"
14818,commdev-image-keyboard-response,250,505142,learnblock1,null,img/planet14_left.png,14,Community 3,NA,FALSE,null,f,NA,NA,NA,1,6,"8,5,15,7,4,2,10,9,6,13,1,11,3,12,14"
14818,commdev-image-keyboard-response,251,506394,learnblock1,null,img/planet3_left.png,3,Community 3,NA,FALSE,null,f,NA,NA,NA,1,6,"8,5,15,7,4,2,10,9,6,13,1,11,3,12,14"
14818,commdev-image-keyboard-response,252,507646,learnblock1,523.3000001907349,img/planet14_right.png,14,Community 3,NA,TRUE,j,j,NA,NA,NA,1,6,"8,5,15,7,4,2,10,9,6,13,1,11,3,12,14"
14818,commdev-image-keyboard-response,253,508898,learnblock1,574.1999998092651,img/planet12_left.png,12,Community 3,NA,TRUE,f,f,NA,NA,NA,1,6,"8,5,15,7,4,2,10,9,6,13,1,11,3,12,14"
14818,commdev-image-keyboard-response,254,510149,learnblock1,945.7000000476837,img/planet14_right.png,14,Community 3,NA,TRUE,j,j,NA,NA,NA,1,6,"8,5,15,7,4,2,10,9,6,13,1,11,3,12,14"
14818,commdev-image-keyboard-response,255,511401,learnblock1,1025.2999999523163,img/planet11_right.png,11,Community 3,NA,TRUE,j,j,NA,NA,NA,1,6,"8,5,15,7,4,2,10,9,6,13,1,11,3,12,14"
14818,commdev-image-keyboard-response,256,512653,learnblock1,897.5999999046326,img/planet3_left.png,3,Community 3,NA,TRUE,f,f,NA,NA,NA,1,6,"8,5,15,7,4,2,10,9,6,13,1,11,3,12,14"
14818,commdev-image-keyboard-response,257,513905,learnblock1,860.7000000476837,img/planet14_left.png,14,Community 3,NA,TRUE,f,f,NA,NA,NA,1,6,"8,5,15,7,4,2,10,9,6,13,1,11,3,12,14"
14818,commdev-image-keyboard-response,258,515157,learnblock1,631,img/planet11_left.png,11,Community 3,NA,TRUE,f,f,NA,NA,NA,1,6,"8,5,15,7,4,2,10,9,6,13,1,11,3,12,14"
14818,commdev-image-keyboard-response,259,516409,learnblock1,575.5,img/planet12_right.png,12,Community 3,NA,TRUE,j,j,NA,NA,NA,1,6,"8,5,15,7,4,2,10,9,6,13,1,11,3,12,14"
14818,commdev-image-keyboard-response,260,517661,learnblock1,632.4000000953674,img/planet1_left.png,1,Community 3,NA,FALSE,j,f,NA,NA,NA,1,6,"8,5,15,7,4,2,10,9,6,13,1,11,3,12,14"
14818,commdev-image-keyboard-response,261,518912,learnblock1,618.5,img/planet14_left.png,14,Community 3,NA,TRUE,f,f,NA,NA,NA,1,6,"8,5,15,7,4,2,10,9,6,13,1,11,3,12,14"
14818,commdev-image-keyboard-response,262,520164,learnblock1,464.60000014305115,img/planet3_left.png,3,Community 3,NA,TRUE,f,f,NA,NA,NA,1,6,"8,5,15,7,4,2,10,9,6,13,1,11,3,12,14"
14818,commdev-image-keyboard-response,263,521415,learnblock1,586,img/planet11_left.png,11,Community 3,NA,TRUE,f,f,NA,NA,NA,1,6,"8,5,15,7,4,2,10,9,6,13,1,11,3,12,14"
14818,commdev-image-keyboard-response,264,522667,learnblock1,718.8000001907349,img/planet14_right.png,14,Community 3,NA,TRUE,j,j,NA,NA,NA,1,6,"8,5,15,7,4,2,10,9,6,13,1,11,3,12,14"
14818,commdev-image-keyboard-response,265,523919,learnblock1,689.4000000953674,img/planet1_right.png,1,Community 3,NA,TRUE,j,j,NA,NA,NA,1,6,"8,5,15,7,4,2,10,9,6,13,1,11,3,12,14"
14818,commdev-image-keyboard-response,266,525181,learnblock1,703,img/planet12_right.png,12,Community 3,NA,TRUE,j,j,NA,NA,NA,1,6,"8,5,15,7,4,2,10,9,6,13,1,11,3,12,14"
14818,commdev-image-keyboard-response,267,526433,learnblock1,714,img/planet3_left.png,3,Community 3,NA,TRUE,f,f,NA,NA,NA,1,6,"8,5,15,7,4,2,10,9,6,13,1,11,3,12,14"
14818,commdev-image-keyboard-response,268,527684,learnblock1,965,img/planet12_left.png,12,Community 3,NA,TRUE,f,f,NA,NA,NA,1,6,"8,5,15,7,4,2,10,9,6,13,1,11,3,12,14"
14818,commdev-image-keyboard-response,269,528936,learnblock1,915.5999999046326,img/planet14_right.png,14,Community 3,NA,TRUE,j,j,NA,NA,NA,1,6,"8,5,15,7,4,2,10,9,6,13,1,11,3,12,14"
14818,commdev-image-keyboard-response,270,530188,learnblock1,885.5,img/planet11_right.png,11,Community 3,NA,TRUE,j,j,NA,NA,NA,1,6,"8,5,15,7,4,2,10,9,6,13,1,11,3,12,14"
14818,commdev-image-keyboard-response,271,531439,learnblock1,881.2999999523163,img/planet3_right.png,3,Community 3,NA,TRUE,j,j,NA,NA,NA,1,6,"8,5,15,7,4,2,10,9,6,13,1,11,3,12,14"
14818,commdev-image-keyboard-response,272,532692,learnblock1,789.6000001430511,img/planet1_left.png,1,Community 3,NA,TRUE,f,f,NA,NA,NA,1,6,"8,5,15,7,4,2,10,9,6,13,1,11,3,12,14"
14818,commdev-image-keyboard-response,273,533943,learnblock1,1034.1000001430511,img/planet4_right.png,4,Community 1,NA,TRUE,j,j,NA,NA,NA,1,6,"8,5,15,7,4,2,10,9,6,13,1,11,3,12,14"
14818,commdev-image-keyboard-response,274,535195,learnblock1,734.9000000953674,img/planet5_right.png,5,Community 1,NA,TRUE,j,j,NA,NA,NA,1,6,"8,5,15,7,4,2,10,9,6,13,1,11,3,12,14"
14818,commdev-image-keyboard-response,275,536448,learnblock1,575.8999998569489,img/planet4_right.png,4,Community 1,NA,TRUE,j,j,NA,NA,NA,1,6,"8,5,15,7,4,2,10,9,6,13,1,11,3,12,14"
14818,commdev-image-keyboard-response,276,537699,learnblock1,573.5999999046326,img/planet8_right.png,8,Community 1,NA,TRUE,j,j,NA,NA,NA,1,6,"8,5,15,7,4,2,10,9,6,13,1,11,3,12,14"
14818,commdev-image-keyboard-response,277,538952,learnblock1,747.2000000476837,img/planet5_left.png,5,Community 1,NA,TRUE,f,f,NA,NA,NA,1,6,"8,5,15,7,4,2,10,9,6,13,1,11,3,12,14"
14818,commdev-image-keyboard-response,278,540205,learnblock1,927,img/planet7_right.png,7,Community 1,NA,TRUE,j,j,NA,NA,NA,1,6,"8,5,15,7,4,2,10,9,6,13,1,11,3,12,14"
14818,commdev-image-keyboard-response,279,541456,learnblock1,1040.5,img/planet15_right.png,15,Community 1,NA,TRUE,j,j,NA,NA,NA,1,6,"8,5,15,7,4,2,10,9,6,13,1,11,3,12,14"
14818,commdev-image-keyboard-response,280,542708,learnblock1,965.2999999523163,img/planet8_left.png,8,Community 1,NA,TRUE,f,f,NA,NA,NA,1,6,"8,5,15,7,4,2,10,9,6,13,1,11,3,12,14"
14818,commdev-image-keyboard-response,281,543961,learnblock1,919.5,img/planet4_left.png,4,Community 1,NA,TRUE,f,f,NA,NA,NA,1,6,"8,5,15,7,4,2,10,9,6,13,1,11,3,12,14"
14818,commdev-image-keyboard-response,282,545213,learnblock1,1244.7000000476837,img/planet5_left.png,5,Community 1,NA,TRUE,f,f,NA,NA,NA,1,6,"8,5,15,7,4,2,10,9,6,13,1,11,3,12,14"
14818,commdev-image-keyboard-response,283,546464,learnblock1,1011.5,img/planet7_left.png,7,Community 1,NA,TRUE,f,f,NA,NA,NA,1,6,"8,5,15,7,4,2,10,9,6,13,1,11,3,12,14"
14818,commdev-image-keyboard-response,284,547716,learnblock1,808.5999999046326,img/planet8_left.png,8,Community 1,NA,TRUE,f,f,NA,NA,NA,1,6,"8,5,15,7,4,2,10,9,6,13,1,11,3,12,14"
14818,commdev-image-keyboard-response,285,548967,learnblock1,711.1000001430511,img/planet15_right.png,15,Community 1,NA,TRUE,j,j,NA,NA,NA,1,6,"8,5,15,7,4,2,10,9,6,13,1,11,3,12,14"
14818,commdev-image-keyboard-response,286,550219,learnblock1,786.0999999046326,img/planet4_right.png,4,Community 1,NA,TRUE,j,j,NA,NA,NA,1,6,"8,5,15,7,4,2,10,9,6,13,1,11,3,12,14"
14818,commdev-image-keyboard-response,287,551471,learnblock1,816.5,img/planet15_right.png,15,Community 1,NA,TRUE,j,j,NA,NA,NA,1,6,"8,5,15,7,4,2,10,9,6,13,1,11,3,12,14"
14818,commdev-image-keyboard-response,288,552723,learnblock1,713.1999998092651,img/planet5_right.png,5,Community 1,NA,TRUE,j,j,NA,NA,NA,1,6,"8,5,15,7,4,2,10,9,6,13,1,11,3,12,14"
14818,commdev-image-keyboard-response,289,553974,learnblock1,744.5,img/planet7_left.png,7,Community 1,NA,TRUE,f,f,NA,NA,NA,1,6,"8,5,15,7,4,2,10,9,6,13,1,11,3,12,14"
14818,commdev-image-keyboard-response,290,555225,learnblock1,655.3999998569489,img/planet5_left.png,5,Community 1,NA,TRUE,f,f,NA,NA,NA,1,6,"8,5,15,7,4,2,10,9,6,13,1,11,3,12,14"
14818,commdev-image-keyboard-response,291,556477,learnblock1,428.90000009536743,img/planet7_right.png,7,Community 1,NA,FALSE,f,j,NA,NA,NA,1,6,"8,5,15,7,4,2,10,9,6,13,1,11,3,12,14"
14818,commdev-image-keyboard-response,292,557729,learnblock1,845.2000000476837,img/planet5_right.png,5,Community 1,NA,TRUE,j,j,NA,NA,NA,1,6,"8,5,15,7,4,2,10,9,6,13,1,11,3,12,14"
14818,commdev-image-keyboard-response,293,558983,learnblock1,805.2000000476837,img/planet7_left.png,7,Community 1,NA,TRUE,f,f,NA,NA,NA,1,6,"8,5,15,7,4,2,10,9,6,13,1,11,3,12,14"
14818,commdev-image-keyboard-response,294,560235,learnblock1,973.7999999523163,img/planet15_right.png,15,Community 1,NA,TRUE,j,j,NA,NA,NA,1,6,"8,5,15,7,4,2,10,9,6,13,1,11,3,12,14"
14818,commdev-image-keyboard-response,295,561486,learnblock1,797.9000000953674,img/planet8_left.png,8,Community 1,NA,TRUE,f,f,NA,NA,NA,1,6,"8,5,15,7,4,2,10,9,6,13,1,11,3,12,14"
14818,commdev-image-keyboard-response,296,562738,learnblock1,797.2999999523163,img/planet7_right.png,7,Community 1,NA,TRUE,j,j,NA,NA,NA,1,6,"8,5,15,7,4,2,10,9,6,13,1,11,3,12,14"
14818,commdev-image-keyboard-response,297,563989,learnblock1,677.9000000953674,img/planet2_left.png,2,Community 2,NA,FALSE,j,f,NA,NA,NA,1,6,"8,5,15,7,4,2,10,9,6,13,1,11,3,12,14"
14818,commdev-image-keyboard-response,298,565241,learnblock1,725,img/planet10_left.png,10,Community 2,NA,TRUE,f,f,NA,NA,NA,1,6,"8,5,15,7,4,2,10,9,6,13,1,11,3,12,14"
14818,commdev-image-keyboard-response,299,566494,learnblock1,1045.0999999046326,img/planet9_right.png,9,Community 2,NA,TRUE,j,j,NA,NA,NA,1,6,"8,5,15,7,4,2,10,9,6,13,1,11,3,12,14"
14818,commdev-image-keyboard-response,300,567746,learnblock1,951.5999999046326,img/planet13_left.png,13,Community 2,NA,FALSE,j,f,NA,NA,NA,1,6,"8,5,15,7,4,2,10,9,6,13,1,11,3,12,14"
14818,commdev-image-keyboard-response,301,568998,learnblock1,749.7999999523163,img/planet6_right.png,6,Community 2,NA,TRUE,j,j,NA,NA,NA,1,6,"8,5,15,7,4,2,10,9,6,13,1,11,3,12,14"
14818,commdev-image-keyboard-response,302,570251,learnblock1,546.8000001907349,img/planet9_left.png,9,Community 2,NA,TRUE,f,f,NA,NA,NA,1,6,"8,5,15,7,4,2,10,9,6,13,1,11,3,12,14"
14818,commdev-image-keyboard-response,303,571503,learnblock1,869.7999999523163,img/planet11_left.png,11,Community 3,NA,TRUE,f,f,NA,NA,NA,1,6,"8,5,15,7,4,2,10,9,6,13,1,11,3,12,14"
14818,commdev-image-keyboard-response,304,572754,learnblock1,723.0999999046326,img/planet12_right.png,12,Community 3,NA,TRUE,j,j,NA,NA,NA,1,6,"8,5,15,7,4,2,10,9,6,13,1,11,3,12,14"
14818,commdev-image-keyboard-response,305,574007,learnblock1,703.2000000476837,img/planet3_left.png,3,Community 3,NA,TRUE,f,f,NA,NA,NA,1,6,"8,5,15,7,4,2,10,9,6,13,1,11,3,12,14"
14818,commdev-image-keyboard-response,306,575258,learnblock1,773.4000000953674,img/planet11_left.png,11,Community 3,NA,FALSE,j,f,NA,NA,NA,1,6,"8,5,15,7,4,2,10,9,6,13,1,11,3,12,14"
14818,commdev-image-keyboard-response,307,576510,learnblock1,775.3999998569489,img/planet3_left.png,3,Community 3,NA,TRUE,f,f,NA,NA,NA,1,6,"8,5,15,7,4,2,10,9,6,13,1,11,3,12,14"
14818,commdev-image-keyboard-response,308,577762,learnblock1,651.2999999523163,img/planet1_left.png,1,Community 3,NA,TRUE,f,f,NA,NA,NA,1,6,"8,5,15,7,4,2,10,9,6,13,1,11,3,12,14"
14818,commdev-image-keyboard-response,309,579015,learnblock1,618.5999999046326,img/planet4_left.png,4,Community 1,NA,TRUE,f,f,NA,NA,NA,1,6,"8,5,15,7,4,2,10,9,6,13,1,11,3,12,14"
14818,commdev-image-keyboard-response,310,580267,learnblock1,623.5,img/planet5_right.png,5,Community 1,NA,TRUE,j,j,NA,NA,NA,1,6,"8,5,15,7,4,2,10,9,6,13,1,11,3,12,14"
14818,commdev-image-keyboard-response,311,581519,learnblock1,564.3999998569489,img/planet4_left.png,4,Community 1,NA,TRUE,f,f,NA,NA,NA,1,6,"8,5,15,7,4,2,10,9,6,13,1,11,3,12,14"
14818,commdev-image-keyboard-response,312,582770,learnblock1,436.80000019073486,img/planet5_left.png,5,Community 1,NA,TRUE,f,f,NA,NA,NA,1,6,"8,5,15,7,4,2,10,9,6,13,1,11,3,12,14"
14818,commdev-image-keyboard-response,313,584021,learnblock1,603.0999999046326,img/planet4_right.png,4,Community 1,NA,TRUE,j,j,NA,NA,NA,1,6,"8,5,15,7,4,2,10,9,6,13,1,11,3,12,14"
14818,commdev-image-keyboard-response,314,585273,learnblock1,706.2000000476837,img/planet1_right.png,1,Community 3,NA,TRUE,j,j,NA,NA,NA,1,6,"8,5,15,7,4,2,10,9,6,13,1,11,3,12,14"
14818,commdev-image-keyboard-response,315,586525,learnblock1,595.7999999523163,img/planet4_right.png,4,Community 1,NA,TRUE,j,j,NA,NA,NA,1,6,"8,5,15,7,4,2,10,9,6,13,1,11,3,12,14"
14818,commdev-image-keyboard-response,316,587779,learnblock1,626.3999998569489,img/planet5_left.png,5,Community 1,NA,TRUE,f,f,NA,NA,NA,1,6,"8,5,15,7,4,2,10,9,6,13,1,11,3,12,14"
14818,commdev-image-keyboard-response,317,589031,learnblock1,524.5,img/planet4_right.png,4,Community 1,NA,TRUE,j,j,NA,NA,NA,1,6,"8,5,15,7,4,2,10,9,6,13,1,11,3,12,14"
14818,commdev-image-keyboard-response,318,590284,learnblock1,589.9000000953674,img/planet5_left.png,5,Community 1,NA,TRUE,f,f,NA,NA,NA,1,6,"8,5,15,7,4,2,10,9,6,13,1,11,3,12,14"
14818,commdev-image-keyboard-response,319,591536,learnblock1,539.0999999046326,img/planet8_right.png,8,Community 1,NA,TRUE,j,j,NA,NA,NA,1,6,"8,5,15,7,4,2,10,9,6,13,1,11,3,12,14"
14818,commdev-image-keyboard-response,320,592788,learnblock1,856.1999998092651,img/planet7_right.png,7,Community 1,NA,TRUE,j,j,NA,NA,NA,1,6,"8,5,15,7,4,2,10,9,6,13,1,11,3,12,14"
14818,commdev-image-keyboard-response,321,594040,learnblock1,842.2999999523163,img/planet8_right.png,8,Community 1,NA,TRUE,j,j,NA,NA,NA,1,6,"8,5,15,7,4,2,10,9,6,13,1,11,3,12,14"
14818,commdev-image-keyboard-response,322,595292,learnblock1,976.5999999046326,img/planet4_right.png,4,Community 1,NA,TRUE,j,j,NA,NA,NA,1,6,"8,5,15,7,4,2,10,9,6,13,1,11,3,12,14"
14818,commdev-image-keyboard-response,323,596543,learnblock1,743.2000000476837,img/planet1_left.png,1,Community 3,NA,TRUE,f,f,NA,NA,NA,1,6,"8,5,15,7,4,2,10,9,6,13,1,11,3,12,14"
14818,commdev-image-keyboard-response,324,597795,learnblock1,733.2999999523163,img/planet12_left.png,12,Community 3,NA,TRUE,f,f,NA,NA,NA,1,6,"8,5,15,7,4,2,10,9,6,13,1,11,3,12,14"
14818,commdev-image-keyboard-response,325,599057,learnblock1,677,img/planet14_right.png,14,Community 3,NA,FALSE,f,j,NA,NA,NA,1,6,"8,5,15,7,4,2,10,9,6,13,1,11,3,12,14"
14818,commdev-image-keyboard-response,326,600309,learnblock1,857.5,img/planet11_right.png,11,Community 3,NA,TRUE,j,j,NA,NA,NA,1,6,"8,5,15,7,4,2,10,9,6,13,1,11,3,12,14"
14818,commdev-image-keyboard-response,327,601560,learnblock1,893,img/planet9_right.png,9,Community 2,NA,TRUE,j,j,NA,NA,NA,1,6,"8,5,15,7,4,2,10,9,6,13,1,11,3,12,14"
14818,commdev-image-keyboard-response,328,602812,learnblock1,687.5999999046326,img/planet13_left.png,13,Community 2,NA,TRUE,f,f,NA,NA,NA,1,6,"8,5,15,7,4,2,10,9,6,13,1,11,3,12,14"
14818,commdev-image-keyboard-response,329,604064,learnblock1,579,img/planet6_left.png,6,Community 2,NA,FALSE,j,f,NA,NA,NA,1,6,"8,5,15,7,4,2,10,9,6,13,1,11,3,12,14"
14818,commdev-image-keyboard-response,330,605316,learnblock1,777.0999999046326,img/planet10_left.png,10,Community 2,NA,TRUE,f,f,NA,NA,NA,1,6,"8,5,15,7,4,2,10,9,6,13,1,11,3,12,14"
14818,commdev-image-keyboard-response,331,606567,learnblock1,541.7999999523163,img/planet9_left.png,9,Community 2,NA,TRUE,f,f,NA,NA,NA,1,6,"8,5,15,7,4,2,10,9,6,13,1,11,3,12,14"
14818,commdev-image-keyboard-response,332,607819,learnblock1,799.9000000953674,img/planet11_left.png,11,Community 3,NA,TRUE,f,f,NA,NA,NA,1,6,"8,5,15,7,4,2,10,9,6,13,1,11,3,12,14"
14818,commdev-image-keyboard-response,333,609070,learnblock1,695.9000000953674,img/planet14_left.png,14,Community 3,NA,TRUE,f,f,NA,NA,NA,1,6,"8,5,15,7,4,2,10,9,6,13,1,11,3,12,14"
14818,commdev-image-keyboard-response,334,610322,learnblock1,659,img/planet1_right.png,1,Community 3,NA,TRUE,j,j,NA,NA,NA,1,6,"8,5,15,7,4,2,10,9,6,13,1,11,3,12,14"
14818,commdev-image-keyboard-response,335,611574,learnblock1,727.6000001430511,img/planet14_left.png,14,Community 3,NA,TRUE,f,f,NA,NA,NA,1,6,"8,5,15,7,4,2,10,9,6,13,1,11,3,12,14"
14818,commdev-image-keyboard-response,336,612826,learnblock1,673.9000000953674,img/planet3_right.png,3,Community 3,NA,TRUE,j,j,NA,NA,NA,1,6,"8,5,15,7,4,2,10,9,6,13,1,11,3,12,14"
14818,commdev-image-keyboard-response,337,614078,learnblock1,648.5,img/planet11_left.png,11,Community 3,NA,TRUE,f,f,NA,NA,NA,1,6,"8,5,15,7,4,2,10,9,6,13,1,11,3,12,14"
14818,commdev-image-keyboard-response,338,615330,learnblock1,687.9000000953674,img/planet14_right.png,14,Community 3,NA,TRUE,j,j,NA,NA,NA,1,6,"8,5,15,7,4,2,10,9,6,13,1,11,3,12,14"
14818,commdev-image-keyboard-response,339,616582,learnblock1,579.6000001430511,img/planet3_right.png,3,Community 3,NA,TRUE,j,j,NA,NA,NA,1,6,"8,5,15,7,4,2,10,9,6,13,1,11,3,12,14"
14818,commdev-image-keyboard-response,340,617834,learnblock1,695.1999998092651,img/planet12_left.png,12,Community 3,NA,TRUE,f,f,NA,NA,NA,1,6,"8,5,15,7,4,2,10,9,6,13,1,11,3,12,14"
14818,commdev-image-keyboard-response,341,619086,learnblock1,680,img/planet1_left.png,1,Community 3,NA,TRUE,f,f,NA,NA,NA,1,6,"8,5,15,7,4,2,10,9,6,13,1,11,3,12,14"
14818,commdev-image-keyboard-response,342,620337,learnblock1,789.5999999046326,img/planet12_right.png,12,Community 3,NA,TRUE,j,j,NA,NA,NA,1,6,"8,5,15,7,4,2,10,9,6,13,1,11,3,12,14"
14818,commdev-image-keyboard-response,343,621589,learnblock1,696.7000000476837,img/planet14_left.png,14,Community 3,NA,TRUE,f,f,NA,NA,NA,1,6,"8,5,15,7,4,2,10,9,6,13,1,11,3,12,14"
14818,commdev-image-keyboard-response,344,622846,learnblock1,650.3000001907349,img/planet12_right.png,12,Community 3,NA,TRUE,j,j,NA,NA,NA,1,6,"8,5,15,7,4,2,10,9,6,13,1,11,3,12,14"
14818,commdev-image-keyboard-response,345,624097,learnblock1,608,img/planet1_left.png,1,Community 3,NA,TRUE,f,f,NA,NA,NA,1,6,"8,5,15,7,4,2,10,9,6,13,1,11,3,12,14"
14818,commdev-image-keyboard-response,346,625349,learnblock1,495,img/planet4_left.png,4,Community 1,NA,FALSE,j,f,NA,NA,NA,1,6,"8,5,15,7,4,2,10,9,6,13,1,11,3,12,14"
14818,commdev-image-keyboard-response,347,626602,learnblock1,695,img/planet15_right.png,15,Community 1,NA,TRUE,j,j,NA,NA,NA,1,6,"8,5,15,7,4,2,10,9,6,13,1,11,3,12,14"
14818,commdev-image-keyboard-response,351,652780,learnblock2,915.6000001430511,img/planet5_left.png,5,Community 1,NA,TRUE,f,f,NA,NA,NA,1,6,"8,5,15,7,4,2,10,9,6,13,1,11,3,12,14"
14818,commdev-image-keyboard-response,352,654032,learnblock2,643,img/planet4_left.png,4,Community 1,NA,TRUE,f,f,NA,NA,NA,1,6,"8,5,15,7,4,2,10,9,6,13,1,11,3,12,14"
14818,commdev-image-keyboard-response,353,655284,learnblock2,576.3000001907349,img/planet5_left.png,5,Community 1,NA,TRUE,f,f,NA,NA,NA,1,6,"8,5,15,7,4,2,10,9,6,13,1,11,3,12,14"
14818,commdev-image-keyboard-response,354,656536,learnblock2,563.0999999046326,img/planet8_left.png,8,Community 1,NA,TRUE,f,f,NA,NA,NA,1,6,"8,5,15,7,4,2,10,9,6,13,1,11,3,12,14"
14818,commdev-image-keyboard-response,355,657788,learnblock2,572.5999999046326,img/planet7_right.png,7,Community 1,NA,TRUE,j,j,NA,NA,NA,1,6,"8,5,15,7,4,2,10,9,6,13,1,11,3,12,14"
14818,commdev-image-keyboard-response,356,659040,learnblock2,708.2999999523163,img/planet2_right.png,2,Community 2,NA,TRUE,j,j,NA,NA,NA,1,6,"8,5,15,7,4,2,10,9,6,13,1,11,3,12,14"
14818,commdev-image-keyboard-response,357,660292,learnblock2,585.3999998569489,img/planet7_right.png,7,Community 1,NA,TRUE,j,j,NA,NA,NA,1,6,"8,5,15,7,4,2,10,9,6,13,1,11,3,12,14"
14818,commdev-image-keyboard-response,358,661544,learnblock2,621,img/planet8_left.png,8,Community 1,NA,FALSE,j,f,NA,NA,NA,1,6,"8,5,15,7,4,2,10,9,6,13,1,11,3,12,14"
14818,commdev-image-keyboard-response,359,662796,learnblock2,75.5,img/planet5_left.png,5,Community 1,NA,TRUE,f,f,NA,NA,NA,1,6,"8,5,15,7,4,2,10,9,6,13,1,11,3,12,14"
14818,commdev-image-keyboard-response,360,664047,learnblock2,800.8000001907349,img/planet7_right.png,7,Community 1,NA,TRUE,j,j,NA,NA,NA,1,6,"8,5,15,7,4,2,10,9,6,13,1,11,3,12,14"
14818,commdev-image-keyboard-response,361,665299,learnblock2,787.1000001430511,img/planet15_right.png,15,Community 1,NA,TRUE,j,j,NA,NA,NA,1,6,"8,5,15,7,4,2,10,9,6,13,1,11,3,12,14"
14818,commdev-image-keyboard-response,362,666551,learnblock2,743.1000001430511,img/planet4_left.png,4,Community 1,NA,TRUE,f,f,NA,NA,NA,1,6,"8,5,15,7,4,2,10,9,6,13,1,11,3,12,14"
14818,commdev-image-keyboard-response,363,667802,learnblock2,615.8999998569489,img/planet8_right.png,8,Community 1,NA,FALSE,f,j,NA,NA,NA,1,6,"8,5,15,7,4,2,10,9,6,13,1,11,3,12,14"
14818,commdev-image-keyboard-response,364,669053,learnblock2,668.5999999046326,img/planet15_left.png,15,Community 1,NA,TRUE,f,f,NA,NA,NA,1,6,"8,5,15,7,4,2,10,9,6,13,1,11,3,12,14"
14818,commdev-image-keyboard-response,365,670306,learnblock2,622.2000000476837,img/planet4_left.png,4,Community 1,NA,TRUE,f,f,NA,NA,NA,1,6,"8,5,15,7,4,2,10,9,6,13,1,11,3,12,14"
14818,commdev-image-keyboard-response,366,671557,learnblock2,510.59999990463257,img/planet15_left.png,15,Community 1,NA,TRUE,f,f,NA,NA,NA,1,6,"8,5,15,7,4,2,10,9,6,13,1,11,3,12,14"
14818,commdev-image-keyboard-response,367,672809,learnblock2,557.5999999046326,img/planet7_left.png,7,Community 1,NA,TRUE,f,f,NA,NA,NA,1,6,"8,5,15,7,4,2,10,9,6,13,1,11,3,12,14"
14818,commdev-image-keyboard-response,368,674060,learnblock2,571.8000001907349,img/planet15_left.png,15,Community 1,NA,TRUE,f,f,NA,NA,NA,1,6,"8,5,15,7,4,2,10,9,6,13,1,11,3,12,14"
14818,commdev-image-keyboard-response,369,675312,learnblock2,596.0999999046326,img/planet4_left.png,4,Community 1,NA,TRUE,f,f,NA,NA,NA,1,6,"8,5,15,7,4,2,10,9,6,13,1,11,3,12,14"
14818,commdev-image-keyboard-response,370,676565,learnblock2,597.7999999523163,img/planet1_right.png,1,Community 3,NA,TRUE,j,j,NA,NA,NA,1,6,"8,5,15,7,4,2,10,9,6,13,1,11,3,12,14"
14818,commdev-image-keyboard-response,371,677816,learnblock2,null,img/planet12_right.png,12,Community 3,NA,FALSE,null,j,NA,NA,NA,1,6,"8,5,15,7,4,2,10,9,6,13,1,11,3,12,14"
14818,commdev-image-keyboard-response,372,679068,learnblock2,560.2999999523163,img/planet14_left.png,14,Community 3,NA,TRUE,f,f,NA,NA,NA,1,6,"8,5,15,7,4,2,10,9,6,13,1,11,3,12,14"
14818,commdev-image-keyboard-response,373,680320,learnblock2,621.1000001430511,img/planet3_right.png,3,Community 3,NA,TRUE,j,j,NA,NA,NA,1,6,"8,5,15,7,4,2,10,9,6,13,1,11,3,12,14"
14818,commdev-image-keyboard-response,374,681571,learnblock2,656.6000001430511,img/planet1_right.png,1,Community 3,NA,TRUE,j,j,NA,NA,NA,1,6,"8,5,15,7,4,2,10,9,6,13,1,11,3,12,14"
14818,commdev-image-keyboard-response,375,682823,learnblock2,665.4000000953674,img/planet12_left.png,12,Community 3,NA,FALSE,j,f,NA,NA,NA,1,6,"8,5,15,7,4,2,10,9,6,13,1,11,3,12,14"
14818,commdev-image-keyboard-response,376,684074,learnblock2,634.5,img/planet1_right.png,1,Community 3,NA,TRUE,j,j,NA,NA,NA,1,6,"8,5,15,7,4,2,10,9,6,13,1,11,3,12,14"
14818,commdev-image-keyboard-response,377,685326,learnblock2,741.2999999523163,img/planet12_right.png,12,Community 3,NA,TRUE,j,j,NA,NA,NA,1,6,"8,5,15,7,4,2,10,9,6,13,1,11,3,12,14"
14818,commdev-image-keyboard-response,378,686579,learnblock2,717,img/planet11_left.png,11,Community 3,NA,TRUE,f,f,NA,NA,NA,1,6,"8,5,15,7,4,2,10,9,6,13,1,11,3,12,14"
14818,commdev-image-keyboard-response,379,687831,learnblock2,760.0999999046326,img/planet14_left.png,14,Community 3,NA,TRUE,f,f,NA,NA,NA,1,6,"8,5,15,7,4,2,10,9,6,13,1,11,3,12,14"
14818,commdev-image-keyboard-response,380,689087,learnblock2,721.2000000476837,img/planet3_right.png,3,Community 3,NA,TRUE,j,j,NA,NA,NA,1,6,"8,5,15,7,4,2,10,9,6,13,1,11,3,12,14"
14818,commdev-image-keyboard-response,381,690340,learnblock2,589.1000001430511,img/planet12_right.png,12,Community 3,NA,TRUE,j,j,NA,NA,NA,1,6,"8,5,15,7,4,2,10,9,6,13,1,11,3,12,14"
14818,commdev-image-keyboard-response,382,691592,learnblock2,995.1000001430511,img/planet11_left.png,11,Community 3,NA,TRUE,f,f,NA,NA,NA,1,6,"8,5,15,7,4,2,10,9,6,13,1,11,3,12,14"
14818,commdev-image-keyboard-response,383,692844,learnblock2,815.0999999046326,img/planet9_left.png,9,Community 2,NA,TRUE,f,f,NA,NA,NA,1,6,"8,5,15,7,4,2,10,9,6,13,1,11,3,12,14"
14818,commdev-image-keyboard-response,384,694095,learnblock2,698.5,img/planet6_left.png,6,Community 2,NA,TRUE,f,f,NA,NA,NA,1,6,"8,5,15,7,4,2,10,9,6,13,1,11,3,12,14"
14818,commdev-image-keyboard-response,385,695347,learnblock2,543.4000000953674,img/planet9_left.png,9,Community 2,NA,TRUE,f,f,NA,NA,NA,1,6,"8,5,15,7,4,2,10,9,6,13,1,11,3,12,14"
14818,commdev-image-keyboard-response,386,696598,learnblock2,536.4000000953674,img/planet6_right.png,6,Community 2,NA,TRUE,j,j,NA,NA,NA,1,6,"8,5,15,7,4,2,10,9,6,13,1,11,3,12,14"
14818,commdev-image-keyboard-response,387,697851,learnblock2,586.8999998569489,img/planet10_left.png,10,Community 2,NA,TRUE,f,f,NA,NA,NA,1,6,"8,5,15,7,4,2,10,9,6,13,1,11,3,12,14"
14818,commdev-image-keyboard-response,388,699102,learnblock2,545.9000000953674,img/planet2_left.png,2,Community 2,NA,TRUE,f,f,NA,NA,NA,1,6,"8,5,15,7,4,2,10,9,6,13,1,11,3,12,14"
14818,commdev-image-keyboard-response,389,700354,learnblock2,430.59999990463257,img/planet10_right.png,10,Community 2,NA,FALSE,f,j,NA,NA,NA,1,6,"8,5,15,7,4,2,10,9,6,13,1,11,3,12,14"
14818,commdev-image-keyboard-response,390,701606,learnblock2,519.7000000476837,img/planet2_left.png,2,Community 2,NA,TRUE,f,f,NA,NA,NA,1,6,"8,5,15,7,4,2,10,9,6,13,1,11,3,12,14"
14818,commdev-image-keyboard-response,391,702872,learnblock2,716,img/planet6_left.png,6,Community 2,NA,TRUE,f,f,NA,NA,NA,1,6,"8,5,15,7,4,2,10,9,6,13,1,11,3,12,14"
14818,commdev-image-keyboard-response,392,704124,learnblock2,514.7000000476837,img/planet2_left.png,2,Community 2,NA,TRUE,f,f,NA,NA,NA,1,6,"8,5,15,7,4,2,10,9,6,13,1,11,3,12,14"
14818,commdev-image-keyboard-response,393,705375,learnblock2,522,img/planet10_right.png,10,Community 2,NA,TRUE,j,j,NA,NA,NA,1,6,"8,5,15,7,4,2,10,9,6,13,1,11,3,12,14"
14818,commdev-image-keyboard-response,394,706631,learnblock2,null,img/planet13_right.png,13,Community 2,NA,FALSE,null,j,NA,NA,NA,1,6,"8,5,15,7,4,2,10,9,6,13,1,11,3,12,14"
14818,commdev-image-keyboard-response,395,707883,learnblock2,156.60000014305115,img/planet9_right.png,9,Community 2,NA,TRUE,j,j,NA,NA,NA,1,6,"8,5,15,7,4,2,10,9,6,13,1,11,3,12,14"
14818,commdev-image-keyboard-response,396,709134,learnblock2,823.8999998569489,img/planet11_right.png,11,Community 3,NA,TRUE,j,j,NA,NA,NA,1,6,"8,5,15,7,4,2,10,9,6,13,1,11,3,12,14"
14818,commdev-image-keyboard-response,397,710387,learnblock2,652.2000000476837,img/planet14_right.png,14,Community 3,NA,TRUE,j,j,NA,NA,NA,1,6,"8,5,15,7,4,2,10,9,6,13,1,11,3,12,14"
14818,commdev-image-keyboard-response,398,711638,learnblock2,547.7000000476837,img/planet1_left.png,1,Community 3,NA,FALSE,j,f,NA,NA,NA,1,6,"8,5,15,7,4,2,10,9,6,13,1,11,3,12,14"
14818,commdev-image-keyboard-response,399,712891,learnblock2,747,img/planet3_left.png,3,Community 3,NA,TRUE,f,f,NA,NA,NA,1,6,"8,5,15,7,4,2,10,9,6,13,1,11,3,12,14"
14818,commdev-image-keyboard-response,400,714143,learnblock2,677.2000000476837,img/planet1_right.png,1,Community 3,NA,TRUE,j,j,NA,NA,NA,1,6,"8,5,15,7,4,2,10,9,6,13,1,11,3,12,14"
14818,commdev-image-keyboard-response,401,715395,learnblock2,556.4000000953674,img/planet3_left.png,3,Community 3,NA,TRUE,f,f,NA,NA,NA,1,6,"8,5,15,7,4,2,10,9,6,13,1,11,3,12,14"
14818,commdev-image-keyboard-response,402,716648,learnblock2,642.0999999046326,img/planet12_left.png,12,Community 3,NA,TRUE,f,f,NA,NA,NA,1,6,"8,5,15,7,4,2,10,9,6,13,1,11,3,12,14"
14818,commdev-image-keyboard-response,403,717906,learnblock2,642.5,img/planet11_right.png,11,Community 3,NA,TRUE,j,j,NA,NA,NA,1,6,"8,5,15,7,4,2,10,9,6,13,1,11,3,12,14"
14818,commdev-image-keyboard-response,404,719158,learnblock2,784.3999998569489,img/planet14_right.png,14,Community 3,NA,FALSE,f,j,NA,NA,NA,1,6,"8,5,15,7,4,2,10,9,6,13,1,11,3,12,14"
14818,commdev-image-keyboard-response,405,720410,learnblock2,696.1999998092651,img/planet11_left.png,11,Community 3,NA,TRUE,f,f,NA,NA,NA,1,6,"8,5,15,7,4,2,10,9,6,13,1,11,3,12,14"
14818,commdev-image-keyboard-response,406,721662,learnblock2,780.0999999046326,img/planet12_left.png,12,Community 3,NA,TRUE,f,f,NA,NA,NA,1,6,"8,5,15,7,4,2,10,9,6,13,1,11,3,12,14"
14818,commdev-image-keyboard-response,407,722914,learnblock2,880.2000000476837,img/planet11_right.png,11,Community 3,NA,TRUE,j,j,NA,NA,NA,1,6,"8,5,15,7,4,2,10,9,6,13,1,11,3,12,14"
14818,commdev-image-keyboard-response,408,724166,learnblock2,750.4000000953674,img/planet9_left.png,9,Community 2,NA,TRUE,f,f,NA,NA,NA,1,6,"8,5,15,7,4,2,10,9,6,13,1,11,3,12,14"
14818,commdev-image-keyboard-response,409,725418,learnblock2,616,img/planet13_right.png,13,Community 2,NA,TRUE,j,j,NA,NA,NA,1,6,"8,5,15,7,4,2,10,9,6,13,1,11,3,12,14"
14818,commdev-image-keyboard-response,410,726670,learnblock2,458.39999985694885,img/planet2_left.png,2,Community 2,NA,TRUE,f,f,NA,NA,NA,1,6,"8,5,15,7,4,2,10,9,6,13,1,11,3,12,14"
14818,commdev-image-keyboard-response,411,727922,learnblock2,503.90000009536743,img/planet10_right.png,10,Community 2,NA,TRUE,j,j,NA,NA,NA,1,6,"8,5,15,7,4,2,10,9,6,13,1,11,3,12,14"
14818,commdev-image-keyboard-response,412,729174,learnblock2,646.0999999046326,img/planet2_right.png,2,Community 2,NA,TRUE,j,j,NA,NA,NA,1,6,"8,5,15,7,4,2,10,9,6,13,1,11,3,12,14"
14818,commdev-image-keyboard-response,413,730427,learnblock2,699.2999999523163,img/planet10_left.png,10,Community 2,NA,TRUE,f,f,NA,NA,NA,1,6,"8,5,15,7,4,2,10,9,6,13,1,11,3,12,14"
14818,commdev-image-keyboard-response,414,731680,learnblock2,758.1999998092651,img/planet2_left.png,2,Community 2,NA,TRUE,f,f,NA,NA,NA,1,6,"8,5,15,7,4,2,10,9,6,13,1,11,3,12,14"
14818,commdev-image-keyboard-response,415,732932,learnblock2,846.2000000476837,img/planet10_left.png,10,Community 2,NA,TRUE,f,f,NA,NA,NA,1,6,"8,5,15,7,4,2,10,9,6,13,1,11,3,12,14"
14818,commdev-image-keyboard-response,416,734183,learnblock2,null,img/planet9_right.png,9,Community 2,NA,FALSE,null,j,NA,NA,NA,1,6,"8,5,15,7,4,2,10,9,6,13,1,11,3,12,14"
14818,commdev-image-keyboard-response,417,735436,learnblock2,null,img/planet10_right.png,10,Community 2,NA,FALSE,null,j,NA,NA,NA,1,6,"8,5,15,7,4,2,10,9,6,13,1,11,3,12,14"
14818,commdev-image-keyboard-response,418,736687,learnblock2,950.9000000953674,img/planet6_right.png,6,Community 2,NA,TRUE,j,j,NA,NA,NA,1,6,"8,5,15,7,4,2,10,9,6,13,1,11,3,12,14"
14818,commdev-image-keyboard-response,419,737939,learnblock2,653.3000001907349,img/planet9_right.png,9,Community 2,NA,TRUE,j,j,NA,NA,NA,1,6,"8,5,15,7,4,2,10,9,6,13,1,11,3,12,14"
14818,commdev-image-keyboard-response,420,739192,learnblock2,707.7999999523163,img/planet10_left.png,10,Community 2,NA,TRUE,f,f,NA,NA,NA,1,6,"8,5,15,7,4,2,10,9,6,13,1,11,3,12,14"
14818,commdev-image-keyboard-response,421,740443,learnblock2,737.2000000476837,img/planet13_right.png,13,Community 2,NA,TRUE,j,j,NA,NA,NA,1,6,"8,5,15,7,4,2,10,9,6,13,1,11,3,12,14"
14818,commdev-image-keyboard-response,422,741695,learnblock2,666.2000000476837,img/planet2_right.png,2,Community 2,NA,TRUE,j,j,NA,NA,NA,1,6,"8,5,15,7,4,2,10,9,6,13,1,11,3,12,14"
14818,commdev-image-keyboard-response,423,742946,learnblock2,645.2000000476837,img/planet6_left.png,6,Community 2,NA,TRUE,f,f,NA,NA,NA,1,6,"8,5,15,7,4,2,10,9,6,13,1,11,3,12,14"
14818,commdev-image-keyboard-response,424,744198,learnblock2,978.9000000953674,img/planet13_left.png,13,Community 2,NA,FALSE,j,f,NA,NA,NA,1,6,"8,5,15,7,4,2,10,9,6,13,1,11,3,12,14"
14818,commdev-image-keyboard-response,425,745450,learnblock2,874.8999998569489,img/planet10_right.png,10,Community 2,NA,TRUE,j,j,NA,NA,NA,1,6,"8,5,15,7,4,2,10,9,6,13,1,11,3,12,14"
14818,commdev-image-keyboard-response,426,746702,learnblock2,635.3000001907349,img/planet9_right.png,9,Community 2,NA,TRUE,j,j,NA,NA,NA,1,6,"8,5,15,7,4,2,10,9,6,13,1,11,3,12,14"
14818,commdev-image-keyboard-response,427,747962,learnblock2,599.5,img/planet10_right.png,10,Community 2,NA,TRUE,j,j,NA,NA,NA,1,6,"8,5,15,7,4,2,10,9,6,13,1,11,3,12,14"
14818,commdev-image-keyboard-response,428,749213,learnblock2,778.3999998569489,img/planet6_right.png,6,Community 2,NA,TRUE,j,j,NA,NA,NA,1,6,"8,5,15,7,4,2,10,9,6,13,1,11,3,12,14"
14818,commdev-image-keyboard-response,429,750464,learnblock2,589,img/planet9_right.png,9,Community 2,NA,TRUE,j,j,NA,NA,NA,1,6,"8,5,15,7,4,2,10,9,6,13,1,11,3,12,14"
14818,commdev-image-keyboard-response,430,751717,learnblock2,709.2000000476837,img/planet11_right.png,11,Community 3,NA,TRUE,j,j,NA,NA,NA,1,6,"8,5,15,7,4,2,10,9,6,13,1,11,3,12,14"
14818,commdev-image-keyboard-response,431,752968,learnblock2,625.5,img/planet9_left.png,9,Community 2,NA,TRUE,f,f,NA,NA,NA,1,6,"8,5,15,7,4,2,10,9,6,13,1,11,3,12,14"
14818,commdev-image-keyboard-response,432,754220,learnblock2,926.8000001907349,img/planet13_left.png,13,Community 2,NA,TRUE,f,f,NA,NA,NA,1,6,"8,5,15,7,4,2,10,9,6,13,1,11,3,12,14"
14818,commdev-image-keyboard-response,433,755473,learnblock2,823.6000001430511,img/planet6_right.png,6,Community 2,NA,TRUE,j,j,NA,NA,NA,1,6,"8,5,15,7,4,2,10,9,6,13,1,11,3,12,14"
14818,commdev-image-keyboard-response,434,756724,learnblock2,null,img/planet9_right.png,9,Community 2,NA,FALSE,null,j,NA,NA,NA,1,6,"8,5,15,7,4,2,10,9,6,13,1,11,3,12,14"
14818,commdev-image-keyboard-response,435,757976,learnblock2,776.5,img/planet6_right.png,6,Community 2,NA,TRUE,j,j,NA,NA,NA,1,6,"8,5,15,7,4,2,10,9,6,13,1,11,3,12,14"
14818,commdev-image-keyboard-response,436,759231,learnblock2,521,img/planet2_right.png,2,Community 2,NA,TRUE,j,j,NA,NA,NA,1,6,"8,5,15,7,4,2,10,9,6,13,1,11,3,12,14"
14818,commdev-image-keyboard-response,437,760483,learnblock2,600.2000000476837,img/planet6_right.png,6,Community 2,NA,TRUE,j,j,NA,NA,NA,1,6,"8,5,15,7,4,2,10,9,6,13,1,11,3,12,14"
14818,commdev-image-keyboard-response,438,761735,learnblock2,716.8999998569489,img/planet13_left.png,13,Community 2,NA,TRUE,f,f,NA,NA,NA,1,6,"8,5,15,7,4,2,10,9,6,13,1,11,3,12,14"
14818,commdev-image-keyboard-response,439,762987,learnblock2,639.6000001430511,img/planet2_left.png,2,Community 2,NA,TRUE,f,f,NA,NA,NA,1,6,"8,5,15,7,4,2,10,9,6,13,1,11,3,12,14"
14818,commdev-image-keyboard-response,440,764239,learnblock2,586.5999999046326,img/planet10_left.png,10,Community 2,NA,TRUE,f,f,NA,NA,NA,1,6,"8,5,15,7,4,2,10,9,6,13,1,11,3,12,14"
14818,commdev-image-keyboard-response,441,765500,learnblock2,476.7999999523163,img/planet2_left.png,2,Community 2,NA,TRUE,f,f,NA,NA,NA,1,6,"8,5,15,7,4,2,10,9,6,13,1,11,3,12,14"
14818,commdev-image-keyboard-response,442,766752,learnblock2,608.3999998569489,img/planet6_right.png,6,Community 2,NA,TRUE,j,j,NA,NA,NA,1,6,"8,5,15,7,4,2,10,9,6,13,1,11,3,12,14"
14818,commdev-image-keyboard-response,443,768004,learnblock2,993,img/planet13_left.png,13,Community 2,NA,TRUE,f,f,NA,NA,NA,1,6,"8,5,15,7,4,2,10,9,6,13,1,11,3,12,14"
14818,commdev-image-keyboard-response,444,769255,learnblock2,898,img/planet9_right.png,9,Community 2,NA,TRUE,j,j,NA,NA,NA,1,6,"8,5,15,7,4,2,10,9,6,13,1,11,3,12,14"
14818,commdev-image-keyboard-response,445,770507,learnblock2,760.5,img/planet13_left.png,13,Community 2,NA,FALSE,j,f,NA,NA,NA,1,6,"8,5,15,7,4,2,10,9,6,13,1,11,3,12,14"
14818,commdev-image-keyboard-response,446,771759,learnblock2,586.3999998569489,img/planet2_right.png,2,Community 2,NA,FALSE,f,j,NA,NA,NA,1,6,"8,5,15,7,4,2,10,9,6,13,1,11,3,12,14"
14818,commdev-image-keyboard-response,447,773010,learnblock2,846.5999999046326,img/planet7_right.png,7,Community 1,NA,TRUE,j,j,NA,NA,NA,1,6,"8,5,15,7,4,2,10,9,6,13,1,11,3,12,14"
14818,commdev-image-keyboard-response,448,774261,learnblock2,504.90000009536743,img/planet2_right.png,2,Community 2,NA,TRUE,j,j,NA,NA,NA,1,6,"8,5,15,7,4,2,10,9,6,13,1,11,3,12,14"
14818,commdev-image-keyboard-response,449,775513,learnblock2,282.90000009536743,img/planet10_left.png,10,Community 2,NA,FALSE,j,f,NA,NA,NA,1,6,"8,5,15,7,4,2,10,9,6,13,1,11,3,12,14"
14818,commdev-image-keyboard-response,450,776765,learnblock2,560.5999999046326,img/planet13_right.png,13,Community 2,NA,TRUE,j,j,NA,NA,NA,1,6,"8,5,15,7,4,2,10,9,6,13,1,11,3,12,14"
14818,commdev-image-keyboard-response,451,778018,learnblock2,790.2999999523163,img/planet2_left.png,2,Community 2,NA,TRUE,f,f,NA,NA,NA,1,6,"8,5,15,7,4,2,10,9,6,13,1,11,3,12,14"
14818,commdev-image-keyboard-response,452,779271,learnblock2,742.4000000953674,img/planet6_left.png,6,Community 2,NA,FALSE,j,f,NA,NA,NA,1,6,"8,5,15,7,4,2,10,9,6,13,1,11,3,12,14"
14818,commdev-image-keyboard-response,453,780522,learnblock2,null,img/planet9_left.png,9,Community 2,NA,FALSE,null,f,NA,NA,NA,1,6,"8,5,15,7,4,2,10,9,6,13,1,11,3,12,14"
14818,commdev-image-keyboard-response,454,781773,learnblock2,212.79999995231628,img/planet10_right.png,10,Community 2,NA,FALSE,f,j,NA,NA,NA,1,6,"8,5,15,7,4,2,10,9,6,13,1,11,3,12,14"
14818,commdev-image-keyboard-response,455,783025,learnblock2,492,img/planet9_right.png,9,Community 2,NA,TRUE,j,j,NA,NA,NA,1,6,"8,5,15,7,4,2,10,9,6,13,1,11,3,12,14"
14818,commdev-image-keyboard-response,456,784277,learnblock2,1144.9000000953674,img/planet11_left.png,11,Community 3,NA,TRUE,f,f,NA,NA,NA,1,6,"8,5,15,7,4,2,10,9,6,13,1,11,3,12,14"
14818,commdev-image-keyboard-response,457,785529,learnblock2,null,img/planet12_right.png,12,Community 3,NA,FALSE,null,j,NA,NA,NA,1,6,"8,5,15,7,4,2,10,9,6,13,1,11,3,12,14"
14818,commdev-image-keyboard-response,458,786781,learnblock2,null,img/planet1_right.png,1,Community 3,NA,FALSE,null,j,NA,NA,NA,1,6,"8,5,15,7,4,2,10,9,6,13,1,11,3,12,14"
14818,commdev-image-keyboard-response,459,788034,learnblock2,762.1000001430511,img/planet14_right.png,14,Community 3,NA,TRUE,j,j,NA,NA,NA,1,6,"8,5,15,7,4,2,10,9,6,13,1,11,3,12,14"
14818,commdev-image-keyboard-response,460,789286,learnblock2,867.1000001430511,img/planet3_left.png,3,Community 3,NA,TRUE,f,f,NA,NA,NA,1,6,"8,5,15,7,4,2,10,9,6,13,1,11,3,12,14"
14818,commdev-image-keyboard-response,461,790537,learnblock2,696.3999998569489,img/planet12_right.png,12,Community 3,NA,TRUE,j,j,NA,NA,NA,1,6,"8,5,15,7,4,2,10,9,6,13,1,11,3,12,14"
14818,commdev-image-keyboard-response,462,791789,learnblock2,379.30000019073486,img/planet1_right.png,1,Community 3,NA,TRUE,j,j,NA,NA,NA,1,6,"8,5,15,7,4,2,10,9,6,13,1,11,3,12,14"
14818,commdev-image-keyboard-response,463,793041,learnblock2,823.7999999523163,img/planet4_right.png,4,Community 1,NA,TRUE,j,j,NA,NA,NA,1,6,"8,5,15,7,4,2,10,9,6,13,1,11,3,12,14"
14818,commdev-image-keyboard-response,464,794307,learnblock2,771.7000000476837,img/planet5_left.png,5,Community 1,NA,TRUE,f,f,NA,NA,NA,1,6,"8,5,15,7,4,2,10,9,6,13,1,11,3,12,14"
14818,commdev-image-keyboard-response,465,795560,learnblock2,672.2000000476837,img/planet7_left.png,7,Community 1,NA,TRUE,f,f,NA,NA,NA,1,6,"8,5,15,7,4,2,10,9,6,13,1,11,3,12,14"
14818,commdev-image-keyboard-response,466,796810,learnblock2,752.8999998569489,img/planet2_right.png,2,Community 2,NA,FALSE,f,j,NA,NA,NA,1,6,"8,5,15,7,4,2,10,9,6,13,1,11,3,12,14"
14818,commdev-image-keyboard-response,467,798062,learnblock2,759.7999999523163,img/planet13_left.png,13,Community 2,NA,FALSE,j,f,NA,NA,NA,1,6,"8,5,15,7,4,2,10,9,6,13,1,11,3,12,14"
14818,commdev-image-keyboard-response,468,799315,learnblock2,646,img/planet10_left.png,10,Community 2,NA,TRUE,f,f,NA,NA,NA,1,6,"8,5,15,7,4,2,10,9,6,13,1,11,3,12,14"
14818,commdev-image-keyboard-response,469,800566,learnblock2,592.6999998092651,img/planet9_right.png,9,Community 2,NA,TRUE,j,j,NA,NA,NA,1,6,"8,5,15,7,4,2,10,9,6,13,1,11,3,12,14"
14818,commdev-image-keyboard-response,470,801818,learnblock2,621.3999998569489,img/planet11_right.png,11,Community 3,NA,TRUE,j,j,NA,NA,NA,1,6,"8,5,15,7,4,2,10,9,6,13,1,11,3,12,14"
14818,commdev-image-keyboard-response,471,803070,learnblock2,702.0999999046326,img/planet12_right.png,12,Community 3,NA,TRUE,j,j,NA,NA,NA,1,6,"8,5,15,7,4,2,10,9,6,13,1,11,3,12,14"
14818,commdev-image-keyboard-response,472,804322,learnblock2,583.1000001430511,img/planet11_right.png,11,Community 3,NA,TRUE,j,j,NA,NA,NA,1,6,"8,5,15,7,4,2,10,9,6,13,1,11,3,12,14"
14818,commdev-image-keyboard-response,473,805574,learnblock2,659.5999999046326,img/planet12_left.png,12,Community 3,NA,TRUE,f,f,NA,NA,NA,1,6,"8,5,15,7,4,2,10,9,6,13,1,11,3,12,14"
14818,commdev-image-keyboard-response,474,806826,learnblock2,738.0999999046326,img/planet14_right.png,14,Community 3,NA,TRUE,j,j,NA,NA,NA,1,6,"8,5,15,7,4,2,10,9,6,13,1,11,3,12,14"
14818,commdev-image-keyboard-response,475,808078,learnblock2,734.8999998569489,img/planet1_left.png,1,Community 3,NA,TRUE,f,f,NA,NA,NA,1,6,"8,5,15,7,4,2,10,9,6,13,1,11,3,12,14"
14818,commdev-image-keyboard-response,476,809331,learnblock2,724.1999998092651,img/planet14_left.png,14,Community 3,NA,TRUE,f,f,NA,NA,NA,1,6,"8,5,15,7,4,2,10,9,6,13,1,11,3,12,14"
14818,commdev-image-keyboard-response,477,810583,learnblock2,710,img/planet12_right.png,12,Community 3,NA,TRUE,j,j,NA,NA,NA,1,6,"8,5,15,7,4,2,10,9,6,13,1,11,3,12,14"
14818,commdev-image-keyboard-response,478,811835,learnblock2,664.9000000953674,img/planet1_right.png,1,Community 3,NA,TRUE,j,j,NA,NA,NA,1,6,"8,5,15,7,4,2,10,9,6,13,1,11,3,12,14"
14818,commdev-image-keyboard-response,479,813087,learnblock2,593.4000000953674,img/planet14_left.png,14,Community 3,NA,TRUE,f,f,NA,NA,NA,1,6,"8,5,15,7,4,2,10,9,6,13,1,11,3,12,14"
14818,commdev-image-keyboard-response,480,814339,learnblock2,656.7000000476837,img/planet3_left.png,3,Community 3,NA,FALSE,j,f,NA,NA,NA,1,6,"8,5,15,7,4,2,10,9,6,13,1,11,3,12,14"
14818,commdev-image-keyboard-response,481,815591,learnblock2,649.9000000953674,img/planet1_left.png,1,Community 3,NA,TRUE,f,f,NA,NA,NA,1,6,"8,5,15,7,4,2,10,9,6,13,1,11,3,12,14"
14818,commdev-image-keyboard-response,482,816842,learnblock2,593.2000000476837,img/planet3_right.png,3,Community 3,NA,TRUE,j,j,NA,NA,NA,1,6,"8,5,15,7,4,2,10,9,6,13,1,11,3,12,14"
14818,commdev-image-keyboard-response,483,818094,learnblock2,459.2000000476837,img/planet11_left.png,11,Community 3,NA,TRUE,f,f,NA,NA,NA,1,6,"8,5,15,7,4,2,10,9,6,13,1,11,3,12,14"
14818,commdev-image-keyboard-response,484,819345,learnblock2,387.5,img/planet9_right.png,9,Community 2,NA,FALSE,f,j,NA,NA,NA,1,6,"8,5,15,7,4,2,10,9,6,13,1,11,3,12,14"
14818,commdev-image-keyboard-response,485,820597,learnblock2,336.09999990463257,img/planet10_left.png,10,Community 2,NA,TRUE,f,f,NA,NA,NA,1,6,"8,5,15,7,4,2,10,9,6,13,1,11,3,12,14"
14818,commdev-image-keyboard-response,486,821849,learnblock2,649,img/planet13_left.png,13,Community 2,NA,TRUE,f,f,NA,NA,NA,1,6,"8,5,15,7,4,2,10,9,6,13,1,11,3,12,14"
14818,commdev-image-keyboard-response,487,823100,learnblock2,445.2000000476837,img/planet2_left.png,2,Community 2,NA,TRUE,f,f,NA,NA,NA,1,6,"8,5,15,7,4,2,10,9,6,13,1,11,3,12,14"
14818,commdev-image-keyboard-response,488,824354,learnblock2,553.6000001430511,img/planet13_right.png,13,Community 2,NA,FALSE,f,j,NA,NA,NA,1,6,"8,5,15,7,4,2,10,9,6,13,1,11,3,12,14"
14818,commdev-image-keyboard-response,489,825605,learnblock2,475.59999990463257,img/planet9_left.png,9,Community 2,NA,TRUE,f,f,NA,NA,NA,1,6,"8,5,15,7,4,2,10,9,6,13,1,11,3,12,14"
14818,commdev-image-keyboard-response,490,826857,learnblock2,null,img/planet13_right.png,13,Community 2,NA,FALSE,null,j,NA,NA,NA,1,6,"8,5,15,7,4,2,10,9,6,13,1,11,3,12,14"
14818,commdev-image-keyboard-response,491,828109,learnblock2,471.59999990463257,img/planet6_left.png,6,Community 2,NA,TRUE,f,f,NA,NA,NA,1,6,"8,5,15,7,4,2,10,9,6,13,1,11,3,12,14"
14818,commdev-image-keyboard-response,492,829360,learnblock2,457.59999990463257,img/planet9_left.png,9,Community 2,NA,FALSE,j,f,NA,NA,NA,1,6,"8,5,15,7,4,2,10,9,6,13,1,11,3,12,14"
14818,commdev-image-keyboard-response,493,830613,learnblock2,483,img/planet13_left.png,13,Community 2,NA,TRUE,f,f,NA,NA,NA,1,6,"8,5,15,7,4,2,10,9,6,13,1,11,3,12,14"
14818,commdev-image-keyboard-response,494,831865,learnblock2,570.3000001907349,img/planet10_right.png,10,Community 2,NA,TRUE,j,j,NA,NA,NA,1,6,"8,5,15,7,4,2,10,9,6,13,1,11,3,12,14"
14818,commdev-image-keyboard-response,495,833116,learnblock2,678.2999999523163,img/planet6_right.png,6,Community 2,NA,TRUE,j,j,NA,NA,NA,1,6,"8,5,15,7,4,2,10,9,6,13,1,11,3,12,14"
14818,commdev-image-keyboard-response,496,834368,learnblock2,525,img/planet10_right.png,10,Community 2,NA,TRUE,j,j,NA,NA,NA,1,6,"8,5,15,7,4,2,10,9,6,13,1,11,3,12,14"
14818,commdev-image-keyboard-response,497,835620,learnblock2,769.2000000476837,img/planet13_right.png,13,Community 2,NA,TRUE,j,j,NA,NA,NA,1,6,"8,5,15,7,4,2,10,9,6,13,1,11,3,12,14"
14818,commdev-image-keyboard-response,498,836873,learnblock2,593.1999998092651,img/planet10_left.png,10,Community 2,NA,TRUE,f,f,NA,NA,NA,1,6,"8,5,15,7,4,2,10,9,6,13,1,11,3,12,14"
14818,commdev-image-keyboard-response,499,838124,learnblock2,635,img/planet9_right.png,9,Community 2,NA,TRUE,j,j,NA,NA,NA,1,6,"8,5,15,7,4,2,10,9,6,13,1,11,3,12,14"
14818,commdev-image-keyboard-response,500,839375,learnblock2,658.5,img/planet11_left.png,11,Community 3,NA,TRUE,f,f,NA,NA,NA,1,6,"8,5,15,7,4,2,10,9,6,13,1,11,3,12,14"
14818,commdev-image-keyboard-response,501,840627,learnblock2,750.5999999046326,img/planet14_right.png,14,Community 3,NA,TRUE,j,j,NA,NA,NA,1,6,"8,5,15,7,4,2,10,9,6,13,1,11,3,12,14"
14818,commdev-image-keyboard-response,502,841879,learnblock2,638.8999998569489,img/planet11_left.png,11,Community 3,NA,TRUE,f,f,NA,NA,NA,1,6,"8,5,15,7,4,2,10,9,6,13,1,11,3,12,14"
14818,commdev-image-keyboard-response,503,843130,learnblock2,501.10000014305115,img/planet12_left.png,12,Community 3,NA,TRUE,f,f,NA,NA,NA,1,6,"8,5,15,7,4,2,10,9,6,13,1,11,3,12,14"
14818,commdev-image-keyboard-response,504,844381,learnblock2,518.0999999046326,img/planet1_right.png,1,Community 3,NA,TRUE,j,j,NA,NA,NA,1,6,"8,5,15,7,4,2,10,9,6,13,1,11,3,12,14"
14818,commdev-image-keyboard-response,505,845633,learnblock2,505.7000000476837,img/planet12_left.png,12,Community 3,NA,TRUE,f,f,NA,NA,NA,1,6,"8,5,15,7,4,2,10,9,6,13,1,11,3,12,14"
14818,commdev-image-keyboard-response,506,846885,learnblock2,571.9000000953674,img/planet14_right.png,14,Community 3,NA,FALSE,f,j,NA,NA,NA,1,6,"8,5,15,7,4,2,10,9,6,13,1,11,3,12,14"
14818,commdev-image-keyboard-response,507,848137,learnblock2,697.8999998569489,img/planet3_right.png,3,Community 3,NA,TRUE,j,j,NA,NA,NA,1,6,"8,5,15,7,4,2,10,9,6,13,1,11,3,12,14"
14818,commdev-image-keyboard-response,508,849389,learnblock2,752,img/planet12_right.png,12,Community 3,NA,TRUE,j,j,NA,NA,NA,1,6,"8,5,15,7,4,2,10,9,6,13,1,11,3,12,14"
14818,commdev-image-keyboard-response,509,850641,learnblock2,669.0999999046326,img/planet11_left.png,11,Community 3,NA,TRUE,f,f,NA,NA,NA,1,6,"8,5,15,7,4,2,10,9,6,13,1,11,3,12,14"
14818,commdev-image-keyboard-response,510,851894,learnblock2,539.1000001430511,img/planet12_left.png,12,Community 3,NA,TRUE,f,f,NA,NA,NA,1,6,"8,5,15,7,4,2,10,9,6,13,1,11,3,12,14"
14818,commdev-image-keyboard-response,511,853146,learnblock2,536.4000000953674,img/planet14_left.png,14,Community 3,NA,TRUE,f,f,NA,NA,NA,1,6,"8,5,15,7,4,2,10,9,6,13,1,11,3,12,14"
14818,commdev-image-keyboard-response,512,854398,learnblock2,504.2999999523163,img/planet12_left.png,12,Community 3,NA,TRUE,f,f,NA,NA,NA,1,6,"8,5,15,7,4,2,10,9,6,13,1,11,3,12,14"
14818,commdev-image-keyboard-response,513,855650,learnblock2,473.69999980926514,img/planet1_left.png,1,Community 3,NA,TRUE,f,f,NA,NA,NA,1,6,"8,5,15,7,4,2,10,9,6,13,1,11,3,12,14"
14818,commdev-image-keyboard-response,514,856902,learnblock2,462.40000009536743,img/planet12_right.png,12,Community 3,NA,TRUE,j,j,NA,NA,NA,1,6,"8,5,15,7,4,2,10,9,6,13,1,11,3,12,14"
14818,commdev-image-keyboard-response,515,858154,learnblock2,423.09999990463257,img/planet3_left.png,3,Community 3,NA,TRUE,f,f,NA,NA,NA,1,6,"8,5,15,7,4,2,10,9,6,13,1,11,3,12,14"
14818,commdev-image-keyboard-response,516,859407,learnblock2,576,img/planet14_left.png,14,Community 3,NA,TRUE,f,f,NA,NA,NA,1,6,"8,5,15,7,4,2,10,9,6,13,1,11,3,12,14"
14818,commdev-image-keyboard-response,517,860660,learnblock2,645.8999998569489,img/planet3_left.png,3,Community 3,NA,TRUE,f,f,NA,NA,NA,1,6,"8,5,15,7,4,2,10,9,6,13,1,11,3,12,14"
14818,commdev-image-keyboard-response,518,861911,learnblock2,656.6000001430511,img/planet12_right.png,12,Community 3,NA,TRUE,j,j,NA,NA,NA,1,6,"8,5,15,7,4,2,10,9,6,13,1,11,3,12,14"
14818,commdev-image-keyboard-response,519,863164,learnblock2,569.5,img/planet3_right.png,3,Community 3,NA,TRUE,j,j,NA,NA,NA,1,6,"8,5,15,7,4,2,10,9,6,13,1,11,3,12,14"
14818,commdev-image-keyboard-response,520,864415,learnblock2,520,img/planet14_left.png,14,Community 3,NA,TRUE,f,f,NA,NA,NA,1,6,"8,5,15,7,4,2,10,9,6,13,1,11,3,12,14"
14818,commdev-image-keyboard-response,521,865668,learnblock2,477.7000000476837,img/planet12_left.png,12,Community 3,NA,TRUE,f,f,NA,NA,NA,1,6,"8,5,15,7,4,2,10,9,6,13,1,11,3,12,14"
14818,commdev-image-keyboard-response,522,866920,learnblock2,552.7999999523163,img/planet11_left.png,11,Community 3,NA,TRUE,f,f,NA,NA,NA,1,6,"8,5,15,7,4,2,10,9,6,13,1,11,3,12,14"
14818,commdev-image-keyboard-response,523,868171,learnblock2,418.19999980926514,img/planet9_left.png,9,Community 2,NA,TRUE,f,f,NA,NA,NA,1,6,"8,5,15,7,4,2,10,9,6,13,1,11,3,12,14"
14818,commdev-image-keyboard-response,524,869423,learnblock2,771.4000000953674,img/planet13_right.png,13,Community 2,NA,TRUE,j,j,NA,NA,NA,1,6,"8,5,15,7,4,2,10,9,6,13,1,11,3,12,14"
14818,commdev-image-keyboard-response,525,870675,learnblock2,611.7999999523163,img/planet6_left.png,6,Community 2,NA,TRUE,f,f,NA,NA,NA,1,6,"8,5,15,7,4,2,10,9,6,13,1,11,3,12,14"
14818,commdev-image-keyboard-response,526,871927,learnblock2,540.8999998569489,img/planet2_left.png,2,Community 2,NA,TRUE,f,f,NA,NA,NA,1,6,"8,5,15,7,4,2,10,9,6,13,1,11,3,12,14"
14818,commdev-image-keyboard-response,527,873178,learnblock2,557.7999999523163,img/planet6_left.png,6,Community 2,NA,FALSE,j,f,NA,NA,NA,1,6,"8,5,15,7,4,2,10,9,6,13,1,11,3,12,14"
14818,commdev-image-keyboard-response,528,874430,learnblock2,491.60000014305115,img/planet2_left.png,2,Community 2,NA,TRUE,f,f,NA,NA,NA,1,6,"8,5,15,7,4,2,10,9,6,13,1,11,3,12,14"
14818,commdev-image-keyboard-response,529,875682,learnblock2,320.5,img/planet7_right.png,7,Community 1,NA,FALSE,f,j,NA,NA,NA,1,6,"8,5,15,7,4,2,10,9,6,13,1,11,3,12,14"
14818,commdev-image-keyboard-response,530,876934,learnblock2,622.2000000476837,img/planet15_left.png,15,Community 1,NA,TRUE,f,f,NA,NA,NA,1,6,"8,5,15,7,4,2,10,9,6,13,1,11,3,12,14"
14818,commdev-image-keyboard-response,531,878187,learnblock2,591.9000000953674,img/planet8_left.png,8,Community 1,NA,TRUE,f,f,NA,NA,NA,1,6,"8,5,15,7,4,2,10,9,6,13,1,11,3,12,14"
14818,commdev-image-keyboard-response,532,879438,learnblock2,490,img/planet4_left.png,4,Community 1,NA,TRUE,f,f,NA,NA,NA,1,6,"8,5,15,7,4,2,10,9,6,13,1,11,3,12,14"
14818,commdev-image-keyboard-response,533,880689,learnblock2,null,img/planet8_right.png,8,Community 1,NA,FALSE,null,j,NA,NA,NA,1,6,"8,5,15,7,4,2,10,9,6,13,1,11,3,12,14"
14818,commdev-image-keyboard-response,534,881941,learnblock2,581.7999999523163,img/planet5_left.png,5,Community 1,NA,TRUE,f,f,NA,NA,NA,1,6,"8,5,15,7,4,2,10,9,6,13,1,11,3,12,14"
14818,commdev-image-keyboard-response,535,883193,learnblock2,413.2000000476837,img/planet7_right.png,7,Community 1,NA,FALSE,f,j,NA,NA,NA,1,6,"8,5,15,7,4,2,10,9,6,13,1,11,3,12,14"
14818,commdev-image-keyboard-response,536,884445,learnblock2,533.5999999046326,img/planet2_left.png,2,Community 2,NA,TRUE,f,f,NA,NA,NA,1,6,"8,5,15,7,4,2,10,9,6,13,1,11,3,12,14"
14818,commdev-image-keyboard-response,537,885697,learnblock2,null,img/planet13_right.png,13,Community 2,NA,FALSE,null,j,NA,NA,NA,1,6,"8,5,15,7,4,2,10,9,6,13,1,11,3,12,14"
14818,commdev-image-keyboard-response,538,886950,learnblock2,423.59999990463257,img/planet9_right.png,9,Community 2,NA,FALSE,f,j,NA,NA,NA,1,6,"8,5,15,7,4,2,10,9,6,13,1,11,3,12,14"
14818,commdev-image-keyboard-response,539,888202,learnblock2,null,img/planet10_right.png,10,Community 2,NA,FALSE,null,j,NA,NA,NA,1,6,"8,5,15,7,4,2,10,9,6,13,1,11,3,12,14"
14818,commdev-image-keyboard-response,540,889454,learnblock2,615.5,img/planet6_left.png,6,Community 2,NA,TRUE,f,f,NA,NA,NA,1,6,"8,5,15,7,4,2,10,9,6,13,1,11,3,12,14"
14818,commdev-image-keyboard-response,541,890706,learnblock2,null,img/planet9_right.png,9,Community 2,NA,FALSE,null,j,NA,NA,NA,1,6,"8,5,15,7,4,2,10,9,6,13,1,11,3,12,14"
14818,commdev-image-keyboard-response,542,891958,learnblock2,386.2999999523163,img/planet13_right.png,13,Community 2,NA,FALSE,f,j,NA,NA,NA,1,6,"8,5,15,7,4,2,10,9,6,13,1,11,3,12,14"
14818,commdev-image-keyboard-response,543,893211,learnblock2,null,img/planet10_right.png,10,Community 2,NA,FALSE,null,j,NA,NA,NA,1,6,"8,5,15,7,4,2,10,9,6,13,1,11,3,12,14"
14818,commdev-image-keyboard-response,544,894463,learnblock2,638.4000000953674,img/planet13_left.png,13,Community 2,NA,TRUE,f,f,NA,NA,NA,1,6,"8,5,15,7,4,2,10,9,6,13,1,11,3,12,14"
14818,commdev-image-keyboard-response,545,895715,learnblock2,null,img/planet10_right.png,10,Community 2,NA,FALSE,null,j,NA,NA,NA,1,6,"8,5,15,7,4,2,10,9,6,13,1,11,3,12,14"
14818,commdev-image-keyboard-response,546,896966,learnblock2,485.2000000476837,img/planet2_left.png,2,Community 2,NA,TRUE,f,f,NA,NA,NA,1,6,"8,5,15,7,4,2,10,9,6,13,1,11,3,12,14"
14818,commdev-image-keyboard-response,547,898219,learnblock2,null,img/planet10_left.png,10,Community 2,NA,FALSE,null,f,NA,NA,NA,1,6,"8,5,15,7,4,2,10,9,6,13,1,11,3,12,14"
14818,commdev-image-keyboard-response,548,899471,learnblock2,529.1000001430511,img/planet9_left.png,9,Community 2,NA,TRUE,f,f,NA,NA,NA,1,6,"8,5,15,7,4,2,10,9,6,13,1,11,3,12,14"
14818,commdev-image-keyboard-response,549,900724,learnblock2,295.2999999523163,img/planet13_right.png,13,Community 2,NA,FALSE,f,j,NA,NA,NA,1,6,"8,5,15,7,4,2,10,9,6,13,1,11,3,12,14"
14818,commdev-image-keyboard-response,550,901975,learnblock2,null,img/planet10_left.png,10,Community 2,NA,FALSE,null,f,NA,NA,NA,1,6,"8,5,15,7,4,2,10,9,6,13,1,11,3,12,14"
14818,commdev-image-keyboard-response,551,903227,learnblock2,null,img/planet6_left.png,6,Community 2,NA,FALSE,null,f,NA,NA,NA,1,6,"8,5,15,7,4,2,10,9,6,13,1,11,3,12,14"
14818,commdev-image-keyboard-response,552,904481,learnblock2,null,img/planet9_left.png,9,Community 2,NA,FALSE,null,f,NA,NA,NA,1,6,"8,5,15,7,4,2,10,9,6,13,1,11,3,12,14"
14818,commdev-image-keyboard-response,553,905734,learnblock2,null,img/planet10_left.png,10,Community 2,NA,FALSE,null,f,NA,NA,NA,1,6,"8,5,15,7,4,2,10,9,6,13,1,11,3,12,14"
14818,commdev-image-keyboard-response,554,906985,learnblock2,null,img/planet9_right.png,9,Community 2,NA,FALSE,null,j,NA,NA,NA,1,6,"8,5,15,7,4,2,10,9,6,13,1,11,3,12,14"
14818,commdev-image-keyboard-response,555,908236,learnblock2,878.4000000953674,img/planet10_right.png,10,Community 2,NA,TRUE,j,j,NA,NA,NA,1,6,"8,5,15,7,4,2,10,9,6,13,1,11,3,12,14"
14818,commdev-image-keyboard-response,556,909487,learnblock2,691.0999999046326,img/planet9_left.png,9,Community 2,NA,TRUE,f,f,NA,NA,NA,1,6,"8,5,15,7,4,2,10,9,6,13,1,11,3,12,14"
14818,commdev-image-keyboard-response,557,910739,learnblock2,518.7000000476837,img/planet6_left.png,6,Community 2,NA,FALSE,j,f,NA,NA,NA,1,6,"8,5,15,7,4,2,10,9,6,13,1,11,3,12,14"
14818,commdev-image-keyboard-response,558,911991,learnblock2,480,img/planet13_left.png,13,Community 2,NA,TRUE,f,f,NA,NA,NA,1,6,"8,5,15,7,4,2,10,9,6,13,1,11,3,12,14"
14818,commdev-image-keyboard-response,559,913243,learnblock2,679.5999999046326,img/planet9_right.png,9,Community 2,NA,TRUE,j,j,NA,NA,NA,1,6,"8,5,15,7,4,2,10,9,6,13,1,11,3,12,14"
14818,commdev-image-keyboard-response,560,914496,learnblock2,null,img/planet11_left.png,11,Community 3,NA,FALSE,null,f,NA,NA,NA,1,6,"8,5,15,7,4,2,10,9,6,13,1,11,3,12,14"
14818,commdev-image-keyboard-response,561,915747,learnblock2,null,img/planet14_left.png,14,Community 3,NA,FALSE,null,f,NA,NA,NA,1,6,"8,5,15,7,4,2,10,9,6,13,1,11,3,12,14"
14818,commdev-image-keyboard-response,562,917000,learnblock2,798.0999999046326,img/planet1_left.png,1,Community 3,NA,TRUE,f,f,NA,NA,NA,1,6,"8,5,15,7,4,2,10,9,6,13,1,11,3,12,14"
14818,commdev-image-keyboard-response,563,918252,learnblock2,681.2999999523163,img/planet4_left.png,4,Community 1,NA,TRUE,f,f,NA,NA,NA,1,6,"8,5,15,7,4,2,10,9,6,13,1,11,3,12,14"
14818,commdev-image-keyboard-response,564,919503,learnblock2,623.1999998092651,img/planet5_left.png,5,Community 1,NA,TRUE,f,f,NA,NA,NA,1,6,"8,5,15,7,4,2,10,9,6,13,1,11,3,12,14"
14818,commdev-image-keyboard-response,565,920754,learnblock2,null,img/planet8_right.png,8,Community 1,NA,FALSE,null,j,NA,NA,NA,1,6,"8,5,15,7,4,2,10,9,6,13,1,11,3,12,14"
14818,commdev-image-keyboard-response,566,922006,learnblock2,664.3000001907349,img/planet7_left.png,7,Community 1,NA,TRUE,f,f,NA,NA,NA,1,6,"8,5,15,7,4,2,10,9,6,13,1,11,3,12,14"
14818,commdev-image-keyboard-response,567,923258,learnblock2,636.5,img/planet8_right.png,8,Community 1,NA,FALSE,f,j,NA,NA,NA,1,6,"8,5,15,7,4,2,10,9,6,13,1,11,3,12,14"
14818,commdev-image-keyboard-response,568,924510,learnblock2,529.2000000476837,img/planet7_left.png,7,Community 1,NA,TRUE,f,f,NA,NA,NA,1,6,"8,5,15,7,4,2,10,9,6,13,1,11,3,12,14"
14818,commdev-image-keyboard-response,569,925762,learnblock2,754.6000001430511,img/planet2_left.png,2,Community 2,NA,TRUE,f,f,NA,NA,NA,1,6,"8,5,15,7,4,2,10,9,6,13,1,11,3,12,14"
14818,commdev-image-keyboard-response,570,927015,learnblock2,665.5,img/planet7_right.png,7,Community 1,NA,TRUE,j,j,NA,NA,NA,1,6,"8,5,15,7,4,2,10,9,6,13,1,11,3,12,14"
14818,commdev-image-keyboard-response,571,928277,learnblock2,536.9000000953674,img/planet8_left.png,8,Community 1,NA,TRUE,f,f,NA,NA,NA,1,6,"8,5,15,7,4,2,10,9,6,13,1,11,3,12,14"
14818,commdev-image-keyboard-response,572,929528,learnblock2,587.5,img/planet5_left.png,5,Community 1,NA,TRUE,f,f,NA,NA,NA,1,6,"8,5,15,7,4,2,10,9,6,13,1,11,3,12,14"
14818,commdev-image-keyboard-response,573,930781,learnblock2,735.5,img/planet4_right.png,4,Community 1,NA,TRUE,j,j,NA,NA,NA,1,6,"8,5,15,7,4,2,10,9,6,13,1,11,3,12,14"
14818,commdev-image-keyboard-response,574,932033,learnblock2,497.59999990463257,img/planet15_right.png,15,Community 1,NA,FALSE,f,j,NA,NA,NA,1,6,"8,5,15,7,4,2,10,9,6,13,1,11,3,12,14"
14818,commdev-image-keyboard-response,575,933285,learnblock2,848.2000000476837,img/planet7_right.png,7,Community 1,NA,FALSE,f,j,NA,NA,NA,1,6,"8,5,15,7,4,2,10,9,6,13,1,11,3,12,14"
14818,commdev-image-keyboard-response,576,934537,learnblock2,966.3999998569489,img/planet15_right.png,15,Community 1,NA,FALSE,f,j,NA,NA,NA,1,6,"8,5,15,7,4,2,10,9,6,13,1,11,3,12,14"
14818,commdev-image-keyboard-response,577,935788,learnblock2,779,img/planet5_left.png,5,Community 1,NA,TRUE,f,f,NA,NA,NA,1,6,"8,5,15,7,4,2,10,9,6,13,1,11,3,12,14"
14818,commdev-image-keyboard-response,578,937040,learnblock2,755,img/planet4_right.png,4,Community 1,NA,TRUE,j,j,NA,NA,NA,1,6,"8,5,15,7,4,2,10,9,6,13,1,11,3,12,14"
14818,commdev-image-keyboard-response,579,938293,learnblock2,556.7000000476837,img/planet15_right.png,15,Community 1,NA,FALSE,f,j,NA,NA,NA,1,6,"8,5,15,7,4,2,10,9,6,13,1,11,3,12,14"
14818,commdev-image-keyboard-response,580,939545,learnblock2,666.0999999046326,img/planet5_right.png,5,Community 1,NA,TRUE,j,j,NA,NA,NA,1,6,"8,5,15,7,4,2,10,9,6,13,1,11,3,12,14"
14818,commdev-image-keyboard-response,581,940797,learnblock2,596.7000000476837,img/planet15_right.png,15,Community 1,NA,TRUE,j,j,NA,NA,NA,1,6,"8,5,15,7,4,2,10,9,6,13,1,11,3,12,14"
14818,commdev-image-keyboard-response,582,942048,learnblock2,598.5999999046326,img/planet4_right.png,4,Community 1,NA,TRUE,j,j,NA,NA,NA,1,6,"8,5,15,7,4,2,10,9,6,13,1,11,3,12,14"
14818,commdev-image-keyboard-response,583,943300,learnblock2,562,img/planet1_right.png,1,Community 3,NA,TRUE,j,j,NA,NA,NA,1,6,"8,5,15,7,4,2,10,9,6,13,1,11,3,12,14"
14818,commdev-image-keyboard-response,584,944551,learnblock2,607.7999999523163,img/planet3_left.png,3,Community 3,NA,TRUE,f,f,NA,NA,NA,1,6,"8,5,15,7,4,2,10,9,6,13,1,11,3,12,14"
14818,commdev-image-keyboard-response,585,945803,learnblock2,610.4000000953674,img/planet14_right.png,14,Community 3,NA,TRUE,j,j,NA,NA,NA,1,6,"8,5,15,7,4,2,10,9,6,13,1,11,3,12,14"
14818,commdev-image-keyboard-response,586,947054,learnblock2,515.2999999523163,img/planet11_left.png,11,Community 3,NA,TRUE,f,f,NA,NA,NA,1,6,"8,5,15,7,4,2,10,9,6,13,1,11,3,12,14"
14818,commdev-image-keyboard-response,587,948306,learnblock2,426.39999985694885,img/planet12_right.png,12,Community 3,NA,TRUE,j,j,NA,NA,NA,1,6,"8,5,15,7,4,2,10,9,6,13,1,11,3,12,14"
