subject_id,trial_type,trial_index,time_elapsed,block,rt,stimulus,planet,community,response,correct,key_press,learning_correct_response,parse,init_locations,final_locations,browser_interactions,num_comp,planet_map
14460,commdev-instructions,7,35005,NA,1915,"<p>In this game, you are a scientist on board a space shuttle. </p><p> On each mission, you will visit planets all across the universe.</p><img src=""img/controlroom.jpg"" width=300vw>",NA,NA,NA,NA,NA,NA,NA,NA,NA,1,6,"7,1,12,3,14,2,10,13,15,8,9,5,4,11,6"
14460,commdev-instructions,8,39281,NA,2201.099999964237,"<p>Here are a few planets you might see:</p><img src=""img/practice1.png"" width=200vw><img src=""img/practice2.png"" width=200vw><img src=""img/practice3.png"" width=200vw>",NA,NA,NA,NA,NA,NA,NA,NA,NA,1,6,"7,1,12,3,14,2,10,13,15,8,9,5,4,11,6"
14460,commdev-instructions,9,48263,NA,1573.2999999523163,"<p>Your job as a scientist is to record which direction the winds are moving on each planet.</p><p>There are two types of wind directions:</p><img src=""img/practice1_left.png"" width=200vw><img src=""img/practice1_right.png"" width=200vw>",NA,NA,NA,NA,NA,NA,NA,NA,NA,1,6,"7,1,12,3,14,2,10,13,15,8,9,5,4,11,6"
14460,commdev-instructions,10,54548,NA,1399.199999988079,"<p>If the winds are moving this way, press the letter <strong>F</strong> on the keyboard as fast as you can.</p><img src=""img/leftwind.png"" width=250vw>",NA,NA,NA,NA,NA,NA,NA,NA,NA,1,6,"7,1,12,3,14,2,10,13,15,8,9,5,4,11,6"
14460,commdev-instructions,11,59839,NA,799.1999999880791,"<p>If the winds are moving this way, press the letter <strong>J</strong> on the keyboard as fast as you can.</p><img src=""img/rightwind.png"" width=350vw>",NA,NA,NA,NA,NA,NA,NA,NA,NA,1,6,"7,1,12,3,14,2,10,13,15,8,9,5,4,11,6"
14460,commdev-instructions,12,66531,NA,2260.800000011921,<p>You will have 1 second to respond. Try to respond before the time runs out!,NA,NA,NA,NA,NA,NA,NA,NA,NA,1,6,"7,1,12,3,14,2,10,13,15,8,9,5,4,11,6"
14460,commdev-instructions,13,79209,NA,7248.699999988079,<p>The planets you will visit will look different from each other.</p><p>You should respond <strong>only</strong> based on wind direction.,NA,NA,NA,NA,NA,NA,NA,NA,NA,1,6,"7,1,12,3,14,2,10,13,15,8,9,5,4,11,6"
14460,commdev-instructions,14,92341,NA,7960.800000011921,"<p> Ready to start the practice round? </p><p> Remember, press <strong>F</strong> or <strong>J</strong> depending on the wind direction.<br><img src=""img/categorize_planet_example.png""",NA,NA,NA,NA,NA,NA,NA,NA,NA,1,6,"7,1,12,3,14,2,10,13,15,8,9,5,4,11,6"
14460,commdev-instructions,26,145982,NA,754.3000000119209,"<p>Great, now try a short practice mission. </p><p> This time, you will have 1 second to respond and you won't know whether you pressed the right or wrong key for each planet.</p>",NA,NA,NA,NA,NA,NA,NA,NA,NA,1,6,"7,1,12,3,14,2,10,13,15,8,9,5,4,11,6"
14460,commdev-image-keyboard-response,27,147348,practice,1098.199999988079,img/practice3_left.png,NA,Number not found in mappings,NA,TRUE,f,f,NA,NA,NA,1,6,"7,1,12,3,14,2,10,13,15,8,9,5,4,11,6"
14460,commdev-image-keyboard-response,28,148604,practice,779.5,img/practice4_right.png,NA,Number not found in mappings,NA,TRUE,j,j,NA,NA,NA,1,6,"7,1,12,3,14,2,10,13,15,8,9,5,4,11,6"
14460,commdev-image-keyboard-response,29,149869,practice,900.1999999880791,img/practice3_right.png,NA,Number not found in mappings,NA,TRUE,j,j,NA,NA,NA,1,6,"7,1,12,3,14,2,10,13,15,8,9,5,4,11,6"
14460,commdev-image-keyboard-response,30,151123,practice,897.8999999761581,img/practice1_right.png,NA,Number not found in mappings,NA,TRUE,j,j,NA,NA,NA,1,6,"7,1,12,3,14,2,10,13,15,8,9,5,4,11,6"
14460,commdev-image-keyboard-response,31,152377,practice,716.1999999880791,img/practice4_right.png,NA,Number not found in mappings,NA,TRUE,j,j,NA,NA,NA,1,6,"7,1,12,3,14,2,10,13,15,8,9,5,4,11,6"
14460,commdev-image-keyboard-response,32,153636,practice,695,img/practice1_right.png,NA,Number not found in mappings,NA,TRUE,j,j,NA,NA,NA,1,6,"7,1,12,3,14,2,10,13,15,8,9,5,4,11,6"
14460,commdev-image-keyboard-response,33,154897,practice,715.1999999880791,img/practice4_right.png,NA,Number not found in mappings,NA,TRUE,j,j,NA,NA,NA,1,6,"7,1,12,3,14,2,10,13,15,8,9,5,4,11,6"
14460,commdev-image-keyboard-response,34,156149,practice,526.6999999880791,img/practice1_left.png,NA,Number not found in mappings,NA,TRUE,f,f,NA,NA,NA,1,6,"7,1,12,3,14,2,10,13,15,8,9,5,4,11,6"
14460,commdev-instructions,35,170230,NA,4522.100000023842,"<p>Great job with the practice round.</p><p>During real missions, you won't know whether you pressed the right or wrong key for each planet.</p><p>But between missions, we will tell you how you did overall.</p>",NA,NA,NA,NA,NA,NA,NA,NA,NA,1,6,"7,1,12,3,14,2,10,13,15,8,9,5,4,11,6"
14460,commdev-instructions,36,180502,NA,2034.0999999642372,<p>Try your best! You will be paid a bonus based on how many correct responses you make!</p><p>Responses that are too slow will not count toward your bonus.</p>,NA,NA,NA,NA,NA,NA,NA,NA,NA,1,6,"7,1,12,3,14,2,10,13,15,8,9,5,4,11,6"
14460,commdev-instructions,37,197801,NA,11103.700000047684,"<p>You are almost ready to start the real game.</p><p> First, we are going to ask you some questions about how the game works.</p>",NA,NA,NA,NA,NA,NA,NA,NA,NA,1,6,"7,1,12,3,14,2,10,13,15,8,9,5,4,11,6"
14460,commdev-instructions,46,281117,NA,888.6999999880791,"<p> Nice work! It is now time to start the real game.<p></p>You will go on two missions to record wind directions of different planets.<p></p>Each one will take about 5 minutes. You will get to take a break between missions.<p><p> Remember, press <strong>F</strong> or <strong>J</strong> depending on the wind direction. Good luck!<br><img src=""img/categorize_planet_example.png""",NA,NA,NA,NA,NA,NA,NA,NA,NA,1,6,"7,1,12,3,14,2,10,13,15,8,9,5,4,11,6"
14460,commdev-image-keyboard-response,48,284597,learnblock1,879.1000000238419,img/planet5_right.png,5,Community 3,NA,TRUE,j,j,NA,NA,NA,1,6,"7,1,12,3,14,2,10,13,15,8,9,5,4,11,6"
14460,commdev-image-keyboard-response,49,285849,learnblock1,920.1999999880791,img/planet6_right.png,6,Community 3,NA,TRUE,j,j,NA,NA,NA,1,6,"7,1,12,3,14,2,10,13,15,8,9,5,4,11,6"
14460,commdev-image-keyboard-response,50,287104,learnblock1,708.8999999761581,img/planet11_right.png,11,Community 3,NA,TRUE,j,j,NA,NA,NA,1,6,"7,1,12,3,14,2,10,13,15,8,9,5,4,11,6"
14460,commdev-image-keyboard-response,51,288369,learnblock1,909.2999999523163,img/planet5_left.png,5,Community 3,NA,TRUE,f,f,NA,NA,NA,1,6,"7,1,12,3,14,2,10,13,15,8,9,5,4,11,6"
14460,commdev-image-keyboard-response,52,289621,learnblock1,764.3000000119209,img/planet4_right.png,4,Community 3,NA,TRUE,j,j,NA,NA,NA,1,6,"7,1,12,3,14,2,10,13,15,8,9,5,4,11,6"
14460,commdev-image-keyboard-response,53,290877,learnblock1,824.7000000476837,img/planet11_right.png,11,Community 3,NA,TRUE,j,j,NA,NA,NA,1,6,"7,1,12,3,14,2,10,13,15,8,9,5,4,11,6"
14460,commdev-image-keyboard-response,54,292130,learnblock1,640.9000000357628,img/planet6_right.png,6,Community 3,NA,TRUE,j,j,NA,NA,NA,1,6,"7,1,12,3,14,2,10,13,15,8,9,5,4,11,6"
14460,commdev-image-keyboard-response,55,293387,learnblock1,747.8000000119209,img/planet9_right.png,9,Community 3,NA,TRUE,j,j,NA,NA,NA,1,6,"7,1,12,3,14,2,10,13,15,8,9,5,4,11,6"
14460,commdev-image-keyboard-response,56,294638,learnblock1,802.5,img/planet11_right.png,11,Community 3,NA,TRUE,j,j,NA,NA,NA,1,6,"7,1,12,3,14,2,10,13,15,8,9,5,4,11,6"
14460,commdev-image-keyboard-response,57,295891,learnblock1,959.6000000238419,img/planet4_right.png,4,Community 3,NA,TRUE,j,j,NA,NA,NA,1,6,"7,1,12,3,14,2,10,13,15,8,9,5,4,11,6"
14460,commdev-image-keyboard-response,58,297157,learnblock1,1002.7999999523163,img/planet9_right.png,9,Community 3,NA,TRUE,j,j,NA,NA,NA,1,6,"7,1,12,3,14,2,10,13,15,8,9,5,4,11,6"
14460,commdev-image-keyboard-response,59,298419,learnblock1,600.6999999880791,img/planet4_right.png,4,Community 3,NA,TRUE,j,j,NA,NA,NA,1,6,"7,1,12,3,14,2,10,13,15,8,9,5,4,11,6"
14460,commdev-image-keyboard-response,60,299684,learnblock1,714.3000000119209,img/planet6_left.png,6,Community 3,NA,TRUE,f,f,NA,NA,NA,1,6,"7,1,12,3,14,2,10,13,15,8,9,5,4,11,6"
14460,commdev-image-keyboard-response,61,300949,learnblock1,712.7000000476837,img/planet4_right.png,4,Community 3,NA,TRUE,j,j,NA,NA,NA,1,6,"7,1,12,3,14,2,10,13,15,8,9,5,4,11,6"
14460,commdev-image-keyboard-response,62,302203,learnblock1,888.0999999642372,img/planet11_right.png,11,Community 3,NA,TRUE,j,j,NA,NA,NA,1,6,"7,1,12,3,14,2,10,13,15,8,9,5,4,11,6"
14460,commdev-image-keyboard-response,63,303468,learnblock1,833.8000000119209,img/planet4_left.png,4,Community 3,NA,TRUE,f,f,NA,NA,NA,1,6,"7,1,12,3,14,2,10,13,15,8,9,5,4,11,6"
14460,commdev-image-keyboard-response,64,304731,learnblock1,688.6999999880791,img/planet6_left.png,6,Community 3,NA,TRUE,f,f,NA,NA,NA,1,6,"7,1,12,3,14,2,10,13,15,8,9,5,4,11,6"
14460,commdev-image-keyboard-response,65,305988,learnblock1,1218.1000000238419,img/planet11_right.png,11,Community 3,NA,TRUE,j,j,NA,NA,NA,1,6,"7,1,12,3,14,2,10,13,15,8,9,5,4,11,6"
14460,commdev-image-keyboard-response,66,307241,learnblock1,761.3000000119209,img/planet6_right.png,6,Community 3,NA,TRUE,j,j,NA,NA,NA,1,6,"7,1,12,3,14,2,10,13,15,8,9,5,4,11,6"
14460,commdev-image-keyboard-response,67,308499,learnblock1,724.7999999523163,img/planet4_left.png,4,Community 3,NA,TRUE,f,f,NA,NA,NA,1,6,"7,1,12,3,14,2,10,13,15,8,9,5,4,11,6"
14460,commdev-image-keyboard-response,68,309761,learnblock1,618.3000000119209,img/planet5_right.png,5,Community 3,NA,TRUE,j,j,NA,NA,NA,1,6,"7,1,12,3,14,2,10,13,15,8,9,5,4,11,6"
14460,commdev-image-keyboard-response,69,311012,learnblock1,683.5,img/planet11_left.png,11,Community 3,NA,TRUE,f,f,NA,NA,NA,1,6,"7,1,12,3,14,2,10,13,15,8,9,5,4,11,6"
14460,commdev-image-keyboard-response,70,312270,learnblock1,1225,img/planet6_right.png,6,Community 3,NA,TRUE,j,j,NA,NA,NA,1,6,"7,1,12,3,14,2,10,13,15,8,9,5,4,11,6"
14460,commdev-image-keyboard-response,71,313521,learnblock1,1039.4000000357628,img/planet4_right.png,4,Community 3,NA,TRUE,j,j,NA,NA,NA,1,6,"7,1,12,3,14,2,10,13,15,8,9,5,4,11,6"
14460,commdev-image-keyboard-response,72,314772,learnblock1,1004.3000000119209,img/planet9_right.png,9,Community 3,NA,TRUE,j,j,NA,NA,NA,1,6,"7,1,12,3,14,2,10,13,15,8,9,5,4,11,6"
14460,commdev-image-keyboard-response,73,316024,learnblock1,840.7999999523163,img/planet11_right.png,11,Community 3,NA,TRUE,j,j,NA,NA,NA,1,6,"7,1,12,3,14,2,10,13,15,8,9,5,4,11,6"
14460,commdev-image-keyboard-response,74,317276,learnblock1,708.7999999523163,img/planet4_left.png,4,Community 3,NA,TRUE,f,f,NA,NA,NA,1,6,"7,1,12,3,14,2,10,13,15,8,9,5,4,11,6"
14460,commdev-image-keyboard-response,75,318528,learnblock1,864.6999999880791,img/planet5_right.png,5,Community 3,NA,TRUE,j,j,NA,NA,NA,1,6,"7,1,12,3,14,2,10,13,15,8,9,5,4,11,6"
14460,commdev-image-keyboard-response,76,319778,learnblock1,861.5,img/planet4_left.png,4,Community 3,NA,TRUE,f,f,NA,NA,NA,1,6,"7,1,12,3,14,2,10,13,15,8,9,5,4,11,6"
14460,commdev-image-keyboard-response,77,321030,learnblock1,731,img/planet9_left.png,9,Community 3,NA,TRUE,f,f,NA,NA,NA,1,6,"7,1,12,3,14,2,10,13,15,8,9,5,4,11,6"
14460,commdev-image-keyboard-response,78,322281,learnblock1,855.6999999880791,img/planet11_right.png,11,Community 3,NA,TRUE,j,j,NA,NA,NA,1,6,"7,1,12,3,14,2,10,13,15,8,9,5,4,11,6"
14460,commdev-image-keyboard-response,79,323542,learnblock1,852.1999999880791,img/planet9_right.png,9,Community 3,NA,TRUE,j,j,NA,NA,NA,1,6,"7,1,12,3,14,2,10,13,15,8,9,5,4,11,6"
14460,commdev-image-keyboard-response,80,324792,learnblock1,615.6999999880791,img/planet6_left.png,6,Community 3,NA,TRUE,f,f,NA,NA,NA,1,6,"7,1,12,3,14,2,10,13,15,8,9,5,4,11,6"
14460,commdev-image-keyboard-response,81,326043,learnblock1,1188.5,img/planet11_left.png,11,Community 3,NA,TRUE,f,f,NA,NA,NA,1,6,"7,1,12,3,14,2,10,13,15,8,9,5,4,11,6"
14460,commdev-image-keyboard-response,82,327295,learnblock1,737.9000000357628,img/planet9_right.png,9,Community 3,NA,TRUE,j,j,NA,NA,NA,1,6,"7,1,12,3,14,2,10,13,15,8,9,5,4,11,6"
14460,commdev-image-keyboard-response,83,328545,learnblock1,542.1999999880791,img/planet6_right.png,6,Community 3,NA,TRUE,j,j,NA,NA,NA,1,6,"7,1,12,3,14,2,10,13,15,8,9,5,4,11,6"
14460,commdev-image-keyboard-response,84,329796,learnblock1,731.6999999880791,img/planet9_right.png,9,Community 3,NA,TRUE,j,j,NA,NA,NA,1,6,"7,1,12,3,14,2,10,13,15,8,9,5,4,11,6"
14460,commdev-image-keyboard-response,85,331051,learnblock1,824.6999999880791,img/planet11_left.png,11,Community 3,NA,TRUE,f,f,NA,NA,NA,1,6,"7,1,12,3,14,2,10,13,15,8,9,5,4,11,6"
14460,commdev-image-keyboard-response,86,332302,learnblock1,690.3000000119209,img/planet4_right.png,4,Community 3,NA,TRUE,j,j,NA,NA,NA,1,6,"7,1,12,3,14,2,10,13,15,8,9,5,4,11,6"
14460,commdev-image-keyboard-response,87,333552,learnblock1,671.2000000476837,img/planet11_right.png,11,Community 3,NA,TRUE,j,j,NA,NA,NA,1,6,"7,1,12,3,14,2,10,13,15,8,9,5,4,11,6"
14460,commdev-image-keyboard-response,88,334804,learnblock1,716.6999999880791,img/planet6_left.png,6,Community 3,NA,TRUE,f,f,NA,NA,NA,1,6,"7,1,12,3,14,2,10,13,15,8,9,5,4,11,6"
14460,commdev-image-keyboard-response,89,336055,learnblock1,921.3999999761581,img/planet11_left.png,11,Community 3,NA,TRUE,f,f,NA,NA,NA,1,6,"7,1,12,3,14,2,10,13,15,8,9,5,4,11,6"
14460,commdev-image-keyboard-response,90,337307,learnblock1,997.1999999880791,img/planet5_right.png,5,Community 3,NA,TRUE,j,j,NA,NA,NA,1,6,"7,1,12,3,14,2,10,13,15,8,9,5,4,11,6"
14460,commdev-image-keyboard-response,91,338558,learnblock1,689.8999999761581,img/planet6_left.png,6,Community 3,NA,TRUE,f,f,NA,NA,NA,1,6,"7,1,12,3,14,2,10,13,15,8,9,5,4,11,6"
14460,commdev-image-keyboard-response,92,339809,learnblock1,814.6999999880791,img/planet4_left.png,4,Community 3,NA,TRUE,f,f,NA,NA,NA,1,6,"7,1,12,3,14,2,10,13,15,8,9,5,4,11,6"
14460,commdev-image-keyboard-response,93,341060,learnblock1,716.0999999642372,img/planet9_right.png,9,Community 3,NA,TRUE,j,j,NA,NA,NA,1,6,"7,1,12,3,14,2,10,13,15,8,9,5,4,11,6"
14460,commdev-image-keyboard-response,94,342311,learnblock1,792.5,img/planet11_right.png,11,Community 3,NA,TRUE,j,j,NA,NA,NA,1,6,"7,1,12,3,14,2,10,13,15,8,9,5,4,11,6"
14460,commdev-image-keyboard-response,95,343563,learnblock1,693.6000000238419,img/planet6_left.png,6,Community 3,NA,FALSE,j,f,NA,NA,NA,1,6,"7,1,12,3,14,2,10,13,15,8,9,5,4,11,6"
14460,commdev-image-keyboard-response,96,344814,learnblock1,962,img/planet11_right.png,11,Community 3,NA,TRUE,j,j,NA,NA,NA,1,6,"7,1,12,3,14,2,10,13,15,8,9,5,4,11,6"
14460,commdev-image-keyboard-response,97,346069,learnblock1,734.8000000119209,img/planet4_right.png,4,Community 3,NA,TRUE,j,j,NA,NA,NA,1,6,"7,1,12,3,14,2,10,13,15,8,9,5,4,11,6"
14460,commdev-image-keyboard-response,98,347320,learnblock1,823.7999999523163,img/planet9_right.png,9,Community 3,NA,TRUE,j,j,NA,NA,NA,1,6,"7,1,12,3,14,2,10,13,15,8,9,5,4,11,6"
14460,commdev-image-keyboard-response,99,348571,learnblock1,708.9000000357628,img/planet4_left.png,4,Community 3,NA,TRUE,f,f,NA,NA,NA,1,6,"7,1,12,3,14,2,10,13,15,8,9,5,4,11,6"
14460,commdev-image-keyboard-response,100,349821,learnblock1,753.8999999761581,img/planet9_left.png,9,Community 3,NA,TRUE,f,f,NA,NA,NA,1,6,"7,1,12,3,14,2,10,13,15,8,9,5,4,11,6"
14460,commdev-image-keyboard-response,101,351073,learnblock1,783.9000000357628,img/planet6_left.png,6,Community 3,NA,TRUE,f,f,NA,NA,NA,1,6,"7,1,12,3,14,2,10,13,15,8,9,5,4,11,6"
14460,commdev-image-keyboard-response,102,352324,learnblock1,891.6999999880791,img/planet4_right.png,4,Community 3,NA,TRUE,j,j,NA,NA,NA,1,6,"7,1,12,3,14,2,10,13,15,8,9,5,4,11,6"
14460,commdev-image-keyboard-response,103,353575,learnblock1,744.5,img/planet5_right.png,5,Community 3,NA,TRUE,j,j,NA,NA,NA,1,6,"7,1,12,3,14,2,10,13,15,8,9,5,4,11,6"
14460,commdev-image-keyboard-response,104,354827,learnblock1,709.1000000238419,img/planet11_left.png,11,Community 3,NA,TRUE,f,f,NA,NA,NA,1,6,"7,1,12,3,14,2,10,13,15,8,9,5,4,11,6"
14460,commdev-image-keyboard-response,105,356078,learnblock1,705.1999999880791,img/planet5_left.png,5,Community 3,NA,TRUE,f,f,NA,NA,NA,1,6,"7,1,12,3,14,2,10,13,15,8,9,5,4,11,6"
14460,commdev-image-keyboard-response,106,357330,learnblock1,798.0999999642372,img/planet6_left.png,6,Community 3,NA,TRUE,f,f,NA,NA,NA,1,6,"7,1,12,3,14,2,10,13,15,8,9,5,4,11,6"
14460,commdev-image-keyboard-response,107,358581,learnblock1,890.5,img/planet5_left.png,5,Community 3,NA,TRUE,f,f,NA,NA,NA,1,6,"7,1,12,3,14,2,10,13,15,8,9,5,4,11,6"
14460,commdev-image-keyboard-response,108,359833,learnblock1,663.3000000119209,img/planet4_left.png,4,Community 3,NA,TRUE,f,f,NA,NA,NA,1,6,"7,1,12,3,14,2,10,13,15,8,9,5,4,11,6"
14460,commdev-image-keyboard-response,109,361084,learnblock1,675.3000000119209,img/planet5_right.png,5,Community 3,NA,TRUE,j,j,NA,NA,NA,1,6,"7,1,12,3,14,2,10,13,15,8,9,5,4,11,6"
14460,commdev-image-keyboard-response,110,362336,learnblock1,751.8000000119209,img/planet11_left.png,11,Community 3,NA,TRUE,f,f,NA,NA,NA,1,6,"7,1,12,3,14,2,10,13,15,8,9,5,4,11,6"
14460,commdev-image-keyboard-response,111,363589,learnblock1,843.6999999880791,img/planet4_left.png,4,Community 3,NA,TRUE,f,f,NA,NA,NA,1,6,"7,1,12,3,14,2,10,13,15,8,9,5,4,11,6"
14460,commdev-image-keyboard-response,112,364841,learnblock1,919.7999999523163,img/planet5_left.png,5,Community 3,NA,TRUE,f,f,NA,NA,NA,1,6,"7,1,12,3,14,2,10,13,15,8,9,5,4,11,6"
14460,commdev-image-keyboard-response,113,366091,learnblock1,740,img/planet13_left.png,13,Community 2,NA,TRUE,f,f,NA,NA,NA,1,6,"7,1,12,3,14,2,10,13,15,8,9,5,4,11,6"
14460,commdev-image-keyboard-response,114,367342,learnblock1,657,img/planet15_right.png,15,Community 2,NA,TRUE,j,j,NA,NA,NA,1,6,"7,1,12,3,14,2,10,13,15,8,9,5,4,11,6"
14460,commdev-image-keyboard-response,115,368593,learnblock1,589.9000000357628,img/planet10_left.png,10,Community 2,NA,TRUE,f,f,NA,NA,NA,1,6,"7,1,12,3,14,2,10,13,15,8,9,5,4,11,6"
14460,commdev-image-keyboard-response,116,369844,learnblock1,666.6999999880791,img/planet15_right.png,15,Community 2,NA,TRUE,j,j,NA,NA,NA,1,6,"7,1,12,3,14,2,10,13,15,8,9,5,4,11,6"
14460,commdev-image-keyboard-response,117,371096,learnblock1,584.1000000238419,img/planet13_right.png,13,Community 2,NA,TRUE,j,j,NA,NA,NA,1,6,"7,1,12,3,14,2,10,13,15,8,9,5,4,11,6"
14460,commdev-image-keyboard-response,118,372347,learnblock1,788.6999999880791,img/planet8_right.png,8,Community 2,NA,TRUE,j,j,NA,NA,NA,1,6,"7,1,12,3,14,2,10,13,15,8,9,5,4,11,6"
14460,commdev-image-keyboard-response,119,373598,learnblock1,609.4000000357628,img/planet15_left.png,15,Community 2,NA,TRUE,f,f,NA,NA,NA,1,6,"7,1,12,3,14,2,10,13,15,8,9,5,4,11,6"
14460,commdev-image-keyboard-response,120,374849,learnblock1,1102.300000011921,img/planet8_left.png,8,Community 2,NA,TRUE,f,f,NA,NA,NA,1,6,"7,1,12,3,14,2,10,13,15,8,9,5,4,11,6"
14460,commdev-image-keyboard-response,121,376100,learnblock1,683,img/planet2_left.png,2,Community 2,NA,TRUE,f,f,NA,NA,NA,1,6,"7,1,12,3,14,2,10,13,15,8,9,5,4,11,6"
14460,commdev-image-keyboard-response,122,377352,learnblock1,696.3000000119209,img/planet15_right.png,15,Community 2,NA,TRUE,j,j,NA,NA,NA,1,6,"7,1,12,3,14,2,10,13,15,8,9,5,4,11,6"
14460,commdev-image-keyboard-response,123,378603,learnblock1,820.5,img/planet13_right.png,13,Community 2,NA,TRUE,j,j,NA,NA,NA,1,6,"7,1,12,3,14,2,10,13,15,8,9,5,4,11,6"
14460,commdev-image-keyboard-response,124,379855,learnblock1,769.1000000238419,img/planet15_left.png,15,Community 2,NA,TRUE,f,f,NA,NA,NA,1,6,"7,1,12,3,14,2,10,13,15,8,9,5,4,11,6"
14460,commdev-image-keyboard-response,125,381106,learnblock1,813.3999999761581,img/planet2_left.png,2,Community 2,NA,TRUE,f,f,NA,NA,NA,1,6,"7,1,12,3,14,2,10,13,15,8,9,5,4,11,6"
14460,commdev-image-keyboard-response,126,382357,learnblock1,857.8000000119209,img/planet3_left.png,3,Community 1,NA,TRUE,f,f,NA,NA,NA,1,6,"7,1,12,3,14,2,10,13,15,8,9,5,4,11,6"
14460,commdev-image-keyboard-response,127,383620,learnblock1,902.8000000119209,img/planet12_right.png,12,Community 1,NA,TRUE,j,j,NA,NA,NA,1,6,"7,1,12,3,14,2,10,13,15,8,9,5,4,11,6"
14460,commdev-image-keyboard-response,128,384872,learnblock1,1223.5,img/planet7_left.png,7,Community 1,NA,TRUE,f,f,NA,NA,NA,1,6,"7,1,12,3,14,2,10,13,15,8,9,5,4,11,6"
14460,commdev-image-keyboard-response,129,386124,learnblock1,723.3999999761581,img/planet1_left.png,1,Community 1,NA,TRUE,f,f,NA,NA,NA,1,6,"7,1,12,3,14,2,10,13,15,8,9,5,4,11,6"
14460,commdev-image-keyboard-response,130,387376,learnblock1,1168.1000000238419,img/planet14_left.png,14,Community 1,NA,TRUE,f,f,NA,NA,NA,1,6,"7,1,12,3,14,2,10,13,15,8,9,5,4,11,6"
14460,commdev-image-keyboard-response,131,388627,learnblock1,748.3000000119209,img/planet9_right.png,9,Community 3,NA,TRUE,j,j,NA,NA,NA,1,6,"7,1,12,3,14,2,10,13,15,8,9,5,4,11,6"
14460,commdev-image-keyboard-response,132,389878,learnblock1,744.1999999880791,img/planet4_left.png,4,Community 3,NA,TRUE,f,f,NA,NA,NA,1,6,"7,1,12,3,14,2,10,13,15,8,9,5,4,11,6"
14460,commdev-image-keyboard-response,133,391129,learnblock1,726.0999999642372,img/planet9_left.png,9,Community 3,NA,TRUE,f,f,NA,NA,NA,1,6,"7,1,12,3,14,2,10,13,15,8,9,5,4,11,6"
14460,commdev-image-keyboard-response,134,392380,learnblock1,818.6000000238419,img/planet14_left.png,14,Community 1,NA,TRUE,f,f,NA,NA,NA,1,6,"7,1,12,3,14,2,10,13,15,8,9,5,4,11,6"
14460,commdev-image-keyboard-response,135,393631,learnblock1,752.1999999880791,img/planet7_right.png,7,Community 1,NA,TRUE,j,j,NA,NA,NA,1,6,"7,1,12,3,14,2,10,13,15,8,9,5,4,11,6"
14460,commdev-image-keyboard-response,136,394882,learnblock1,652.8000000119209,img/planet1_left.png,1,Community 1,NA,TRUE,f,f,NA,NA,NA,1,6,"7,1,12,3,14,2,10,13,15,8,9,5,4,11,6"
14460,commdev-image-keyboard-response,137,396134,learnblock1,793.5,img/planet14_right.png,14,Community 1,NA,TRUE,j,j,NA,NA,NA,1,6,"7,1,12,3,14,2,10,13,15,8,9,5,4,11,6"
14460,commdev-image-keyboard-response,138,397385,learnblock1,1190.0999999642372,img/planet12_right.png,12,Community 1,NA,TRUE,j,j,NA,NA,NA,1,6,"7,1,12,3,14,2,10,13,15,8,9,5,4,11,6"
14460,commdev-image-keyboard-response,139,398636,learnblock1,1027.1000000238419,img/planet3_left.png,3,Community 1,NA,TRUE,f,f,NA,NA,NA,1,6,"7,1,12,3,14,2,10,13,15,8,9,5,4,11,6"
14460,commdev-image-keyboard-response,140,399887,learnblock1,863.6999999880791,img/planet7_right.png,7,Community 1,NA,TRUE,j,j,NA,NA,NA,1,6,"7,1,12,3,14,2,10,13,15,8,9,5,4,11,6"
14460,commdev-image-keyboard-response,141,401139,learnblock1,636.5,img/planet3_left.png,3,Community 1,NA,TRUE,f,f,NA,NA,NA,1,6,"7,1,12,3,14,2,10,13,15,8,9,5,4,11,6"
14460,commdev-image-keyboard-response,142,402390,learnblock1,633.1999999880791,img/planet1_left.png,1,Community 1,NA,TRUE,f,f,NA,NA,NA,1,6,"7,1,12,3,14,2,10,13,15,8,9,5,4,11,6"
14460,commdev-image-keyboard-response,143,403641,learnblock1,662.1000000238419,img/planet3_right.png,3,Community 1,NA,TRUE,j,j,NA,NA,NA,1,6,"7,1,12,3,14,2,10,13,15,8,9,5,4,11,6"
14460,commdev-image-keyboard-response,144,404892,learnblock1,770.5,img/planet2_right.png,2,Community 2,NA,TRUE,j,j,NA,NA,NA,1,6,"7,1,12,3,14,2,10,13,15,8,9,5,4,11,6"
14460,commdev-image-keyboard-response,145,406144,learnblock1,719.3000000119209,img/planet10_left.png,10,Community 2,NA,TRUE,f,f,NA,NA,NA,1,6,"7,1,12,3,14,2,10,13,15,8,9,5,4,11,6"
14460,commdev-image-keyboard-response,146,407408,learnblock1,955.6999999880791,img/planet15_left.png,15,Community 2,NA,TRUE,f,f,NA,NA,NA,1,6,"7,1,12,3,14,2,10,13,15,8,9,5,4,11,6"
14460,commdev-image-keyboard-response,147,408659,learnblock1,1115.300000011921,img/planet2_right.png,2,Community 2,NA,TRUE,j,j,NA,NA,NA,1,6,"7,1,12,3,14,2,10,13,15,8,9,5,4,11,6"
14460,commdev-image-keyboard-response,148,409910,learnblock1,888.3000000119209,img/planet8_right.png,8,Community 2,NA,TRUE,j,j,NA,NA,NA,1,6,"7,1,12,3,14,2,10,13,15,8,9,5,4,11,6"
14460,commdev-image-keyboard-response,149,411162,learnblock1,837.5,img/planet10_right.png,10,Community 2,NA,TRUE,j,j,NA,NA,NA,1,6,"7,1,12,3,14,2,10,13,15,8,9,5,4,11,6"
14460,commdev-image-keyboard-response,150,412413,learnblock1,785.3999999761581,img/planet15_left.png,15,Community 2,NA,TRUE,f,f,NA,NA,NA,1,6,"7,1,12,3,14,2,10,13,15,8,9,5,4,11,6"
14460,commdev-image-keyboard-response,151,413664,learnblock1,767.1000000238419,img/planet13_right.png,13,Community 2,NA,TRUE,j,j,NA,NA,NA,1,6,"7,1,12,3,14,2,10,13,15,8,9,5,4,11,6"
14460,commdev-image-keyboard-response,152,414915,learnblock1,715.8000000119209,img/planet15_right.png,15,Community 2,NA,TRUE,j,j,NA,NA,NA,1,6,"7,1,12,3,14,2,10,13,15,8,9,5,4,11,6"
14460,commdev-image-keyboard-response,153,416166,learnblock1,1000.8000000119209,img/planet10_right.png,10,Community 2,NA,TRUE,j,j,NA,NA,NA,1,6,"7,1,12,3,14,2,10,13,15,8,9,5,4,11,6"
14460,commdev-image-keyboard-response,154,417416,learnblock1,614,img/planet2_left.png,2,Community 2,NA,TRUE,f,f,NA,NA,NA,1,6,"7,1,12,3,14,2,10,13,15,8,9,5,4,11,6"
14460,commdev-image-keyboard-response,155,418668,learnblock1,819.2000000476837,img/planet8_right.png,8,Community 2,NA,TRUE,j,j,NA,NA,NA,1,6,"7,1,12,3,14,2,10,13,15,8,9,5,4,11,6"
14460,commdev-image-keyboard-response,156,419919,learnblock1,863.6000000238419,img/planet15_right.png,15,Community 2,NA,TRUE,j,j,NA,NA,NA,1,6,"7,1,12,3,14,2,10,13,15,8,9,5,4,11,6"
14460,commdev-image-keyboard-response,157,421171,learnblock1,716.3000000119209,img/planet13_right.png,13,Community 2,NA,TRUE,j,j,NA,NA,NA,1,6,"7,1,12,3,14,2,10,13,15,8,9,5,4,11,6"
14460,commdev-image-keyboard-response,158,422422,learnblock1,680.9000000357628,img/planet8_left.png,8,Community 2,NA,TRUE,f,f,NA,NA,NA,1,6,"7,1,12,3,14,2,10,13,15,8,9,5,4,11,6"
14460,commdev-image-keyboard-response,159,423672,learnblock1,789.8999999761581,img/planet10_right.png,10,Community 2,NA,TRUE,j,j,NA,NA,NA,1,6,"7,1,12,3,14,2,10,13,15,8,9,5,4,11,6"
14460,commdev-image-keyboard-response,160,424923,learnblock1,691.1000000238419,img/planet13_left.png,13,Community 2,NA,TRUE,f,f,NA,NA,NA,1,6,"7,1,12,3,14,2,10,13,15,8,9,5,4,11,6"
14460,commdev-image-keyboard-response,161,426174,learnblock1,656.6999999880791,img/planet15_right.png,15,Community 2,NA,TRUE,j,j,NA,NA,NA,1,6,"7,1,12,3,14,2,10,13,15,8,9,5,4,11,6"
14460,commdev-image-keyboard-response,162,427426,learnblock1,749,img/planet8_right.png,8,Community 2,NA,TRUE,j,j,NA,NA,NA,1,6,"7,1,12,3,14,2,10,13,15,8,9,5,4,11,6"
14460,commdev-image-keyboard-response,163,428676,learnblock1,601.8999999761581,img/planet10_left.png,10,Community 2,NA,TRUE,f,f,NA,NA,NA,1,6,"7,1,12,3,14,2,10,13,15,8,9,5,4,11,6"
14460,commdev-image-keyboard-response,164,429927,learnblock1,792,img/planet13_left.png,13,Community 2,NA,TRUE,f,f,NA,NA,NA,1,6,"7,1,12,3,14,2,10,13,15,8,9,5,4,11,6"
14460,commdev-image-keyboard-response,165,431178,learnblock1,884.0999999642372,img/planet8_right.png,8,Community 2,NA,TRUE,j,j,NA,NA,NA,1,6,"7,1,12,3,14,2,10,13,15,8,9,5,4,11,6"
14460,commdev-image-keyboard-response,166,432429,learnblock1,864.8000000119209,img/planet2_right.png,2,Community 2,NA,TRUE,j,j,NA,NA,NA,1,6,"7,1,12,3,14,2,10,13,15,8,9,5,4,11,6"
14460,commdev-image-keyboard-response,167,433680,learnblock1,1006,img/planet3_left.png,3,Community 1,NA,TRUE,f,f,NA,NA,NA,1,6,"7,1,12,3,14,2,10,13,15,8,9,5,4,11,6"
14460,commdev-image-keyboard-response,168,434932,learnblock1,null,img/planet7_right.png,7,Community 1,NA,FALSE,null,j,NA,NA,NA,1,6,"7,1,12,3,14,2,10,13,15,8,9,5,4,11,6"
14460,commdev-image-keyboard-response,169,436182,learnblock1,7.5,img/planet1_right.png,1,Community 1,NA,TRUE,j,j,NA,NA,NA,1,6,"7,1,12,3,14,2,10,13,15,8,9,5,4,11,6"
14460,commdev-image-keyboard-response,170,437433,learnblock1,741.4000000357628,img/planet12_left.png,12,Community 1,NA,TRUE,f,f,NA,NA,NA,1,6,"7,1,12,3,14,2,10,13,15,8,9,5,4,11,6"
14460,commdev-image-keyboard-response,171,438685,learnblock1,1010.5,img/planet14_left.png,14,Community 1,NA,TRUE,f,f,NA,NA,NA,1,6,"7,1,12,3,14,2,10,13,15,8,9,5,4,11,6"
14460,commdev-image-keyboard-response,172,439937,learnblock1,846.6000000238419,img/planet7_left.png,7,Community 1,NA,TRUE,f,f,NA,NA,NA,1,6,"7,1,12,3,14,2,10,13,15,8,9,5,4,11,6"
14460,commdev-image-keyboard-response,173,441188,learnblock1,970.1999999880791,img/planet14_left.png,14,Community 1,NA,TRUE,f,f,NA,NA,NA,1,6,"7,1,12,3,14,2,10,13,15,8,9,5,4,11,6"
14460,commdev-image-keyboard-response,174,442439,learnblock1,null,img/planet12_left.png,12,Community 1,NA,FALSE,null,f,NA,NA,NA,1,6,"7,1,12,3,14,2,10,13,15,8,9,5,4,11,6"
14460,commdev-image-keyboard-response,175,443691,learnblock1,35.60000002384186,img/planet14_left.png,14,Community 1,NA,TRUE,f,f,NA,NA,NA,1,6,"7,1,12,3,14,2,10,13,15,8,9,5,4,11,6"
14460,commdev-image-keyboard-response,176,444942,learnblock1,880.5,img/planet7_left.png,7,Community 1,NA,TRUE,f,f,NA,NA,NA,1,6,"7,1,12,3,14,2,10,13,15,8,9,5,4,11,6"
14460,commdev-image-keyboard-response,177,446195,learnblock1,925,img/planet3_left.png,3,Community 1,NA,TRUE,f,f,NA,NA,NA,1,6,"7,1,12,3,14,2,10,13,15,8,9,5,4,11,6"
14460,commdev-image-keyboard-response,178,447446,learnblock1,1127.5999999642372,img/planet12_left.png,12,Community 1,NA,TRUE,f,f,NA,NA,NA,1,6,"7,1,12,3,14,2,10,13,15,8,9,5,4,11,6"
14460,commdev-image-keyboard-response,179,448698,learnblock1,1028.6000000238419,img/planet3_left.png,3,Community 1,NA,TRUE,f,f,NA,NA,NA,1,6,"7,1,12,3,14,2,10,13,15,8,9,5,4,11,6"
14460,commdev-image-keyboard-response,180,449949,learnblock1,753,img/planet1_left.png,1,Community 1,NA,TRUE,f,f,NA,NA,NA,1,6,"7,1,12,3,14,2,10,13,15,8,9,5,4,11,6"
14460,commdev-image-keyboard-response,181,451200,learnblock1,1085.4000000357628,img/planet12_left.png,12,Community 1,NA,TRUE,f,f,NA,NA,NA,1,6,"7,1,12,3,14,2,10,13,15,8,9,5,4,11,6"
14460,commdev-image-keyboard-response,182,452454,learnblock1,747.1000000238419,img/planet7_left.png,7,Community 1,NA,TRUE,f,f,NA,NA,NA,1,6,"7,1,12,3,14,2,10,13,15,8,9,5,4,11,6"
14460,commdev-image-keyboard-response,183,453705,learnblock1,628.5,img/planet3_left.png,3,Community 1,NA,TRUE,f,f,NA,NA,NA,1,6,"7,1,12,3,14,2,10,13,15,8,9,5,4,11,6"
14460,commdev-image-keyboard-response,184,454956,learnblock1,705.5,img/planet7_right.png,7,Community 1,NA,TRUE,j,j,NA,NA,NA,1,6,"7,1,12,3,14,2,10,13,15,8,9,5,4,11,6"
14460,commdev-image-keyboard-response,185,456208,learnblock1,590.5999999642372,img/planet3_right.png,3,Community 1,NA,TRUE,j,j,NA,NA,NA,1,6,"7,1,12,3,14,2,10,13,15,8,9,5,4,11,6"
14460,commdev-image-keyboard-response,186,457459,learnblock1,842.9000000357628,img/planet7_left.png,7,Community 1,NA,TRUE,f,f,NA,NA,NA,1,6,"7,1,12,3,14,2,10,13,15,8,9,5,4,11,6"
14460,commdev-image-keyboard-response,187,458710,learnblock1,679.6999999880791,img/planet1_left.png,1,Community 1,NA,TRUE,f,f,NA,NA,NA,1,6,"7,1,12,3,14,2,10,13,15,8,9,5,4,11,6"
14460,commdev-image-keyboard-response,188,459961,learnblock1,741.3000000119209,img/planet7_left.png,7,Community 1,NA,TRUE,f,f,NA,NA,NA,1,6,"7,1,12,3,14,2,10,13,15,8,9,5,4,11,6"
14460,commdev-image-keyboard-response,189,461212,learnblock1,513.6999999880791,img/planet1_right.png,1,Community 1,NA,TRUE,j,j,NA,NA,NA,1,6,"7,1,12,3,14,2,10,13,15,8,9,5,4,11,6"
14460,commdev-image-keyboard-response,190,462463,learnblock1,750.6999999880791,img/planet7_left.png,7,Community 1,NA,TRUE,f,f,NA,NA,NA,1,6,"7,1,12,3,14,2,10,13,15,8,9,5,4,11,6"
14460,commdev-image-keyboard-response,191,463715,learnblock1,763.6999999880791,img/planet12_left.png,12,Community 1,NA,TRUE,f,f,NA,NA,NA,1,6,"7,1,12,3,14,2,10,13,15,8,9,5,4,11,6"
14460,commdev-image-keyboard-response,192,464966,learnblock1,583.6000000238419,img/planet7_left.png,7,Community 1,NA,TRUE,f,f,NA,NA,NA,1,6,"7,1,12,3,14,2,10,13,15,8,9,5,4,11,6"
14460,commdev-image-keyboard-response,193,466219,learnblock1,484.60000002384186,img/planet1_left.png,1,Community 1,NA,TRUE,f,f,NA,NA,NA,1,6,"7,1,12,3,14,2,10,13,15,8,9,5,4,11,6"
14460,commdev-image-keyboard-response,194,467470,learnblock1,560,img/planet3_left.png,3,Community 1,NA,TRUE,f,f,NA,NA,NA,1,6,"7,1,12,3,14,2,10,13,15,8,9,5,4,11,6"
14460,commdev-image-keyboard-response,195,468722,learnblock1,636.8999999761581,img/planet2_right.png,2,Community 2,NA,TRUE,j,j,NA,NA,NA,1,6,"7,1,12,3,14,2,10,13,15,8,9,5,4,11,6"
14460,commdev-image-keyboard-response,196,469973,learnblock1,936.9000000357628,img/planet3_right.png,3,Community 1,NA,TRUE,j,j,NA,NA,NA,1,6,"7,1,12,3,14,2,10,13,15,8,9,5,4,11,6"
14460,commdev-image-keyboard-response,197,471224,learnblock1,694.5,img/planet12_right.png,12,Community 1,NA,TRUE,j,j,NA,NA,NA,1,6,"7,1,12,3,14,2,10,13,15,8,9,5,4,11,6"
14460,commdev-image-keyboard-response,198,472477,learnblock1,674.5,img/planet7_right.png,7,Community 1,NA,TRUE,j,j,NA,NA,NA,1,6,"7,1,12,3,14,2,10,13,15,8,9,5,4,11,6"
14460,commdev-image-keyboard-response,199,473728,learnblock1,685.5999999642372,img/planet1_right.png,1,Community 1,NA,TRUE,j,j,NA,NA,NA,1,6,"7,1,12,3,14,2,10,13,15,8,9,5,4,11,6"
14460,commdev-image-keyboard-response,200,474979,learnblock1,731.1000000238419,img/planet3_right.png,3,Community 1,NA,TRUE,j,j,NA,NA,NA,1,6,"7,1,12,3,14,2,10,13,15,8,9,5,4,11,6"
14460,commdev-image-keyboard-response,201,476230,learnblock1,583.7000000476837,img/planet1_left.png,1,Community 1,NA,TRUE,f,f,NA,NA,NA,1,6,"7,1,12,3,14,2,10,13,15,8,9,5,4,11,6"
14460,commdev-image-keyboard-response,202,477481,learnblock1,581.1000000238419,img/planet3_right.png,3,Community 1,NA,TRUE,j,j,NA,NA,NA,1,6,"7,1,12,3,14,2,10,13,15,8,9,5,4,11,6"
14460,commdev-image-keyboard-response,203,478732,learnblock1,641.3000000119209,img/planet7_left.png,7,Community 1,NA,TRUE,f,f,NA,NA,NA,1,6,"7,1,12,3,14,2,10,13,15,8,9,5,4,11,6"
14460,commdev-image-keyboard-response,204,479984,learnblock1,782.3000000119209,img/planet12_left.png,12,Community 1,NA,TRUE,f,f,NA,NA,NA,1,6,"7,1,12,3,14,2,10,13,15,8,9,5,4,11,6"
14460,commdev-image-keyboard-response,205,481236,learnblock1,698.8999999761581,img/planet1_left.png,1,Community 1,NA,TRUE,f,f,NA,NA,NA,1,6,"7,1,12,3,14,2,10,13,15,8,9,5,4,11,6"
14460,commdev-image-keyboard-response,206,482487,learnblock1,614.8999999761581,img/planet3_right.png,3,Community 1,NA,TRUE,j,j,NA,NA,NA,1,6,"7,1,12,3,14,2,10,13,15,8,9,5,4,11,6"
14460,commdev-image-keyboard-response,207,483737,learnblock1,708.1000000238419,img/planet2_right.png,2,Community 2,NA,TRUE,j,j,NA,NA,NA,1,6,"7,1,12,3,14,2,10,13,15,8,9,5,4,11,6"
14460,commdev-image-keyboard-response,208,484988,learnblock1,705.7999999523163,img/planet8_left.png,8,Community 2,NA,TRUE,f,f,NA,NA,NA,1,6,"7,1,12,3,14,2,10,13,15,8,9,5,4,11,6"
14460,commdev-image-keyboard-response,209,486239,learnblock1,830.1000000238419,img/planet15_right.png,15,Community 2,NA,TRUE,j,j,NA,NA,NA,1,6,"7,1,12,3,14,2,10,13,15,8,9,5,4,11,6"
14460,commdev-image-keyboard-response,210,487491,learnblock1,971,img/planet13_right.png,13,Community 2,NA,TRUE,j,j,NA,NA,NA,1,6,"7,1,12,3,14,2,10,13,15,8,9,5,4,11,6"
14460,commdev-image-keyboard-response,211,488741,learnblock1,983.7999999523163,img/planet10_left.png,10,Community 2,NA,TRUE,f,f,NA,NA,NA,1,6,"7,1,12,3,14,2,10,13,15,8,9,5,4,11,6"
14460,commdev-image-keyboard-response,212,489992,learnblock1,901.4000000357628,img/planet15_right.png,15,Community 2,NA,TRUE,j,j,NA,NA,NA,1,6,"7,1,12,3,14,2,10,13,15,8,9,5,4,11,6"
14460,commdev-image-keyboard-response,213,491244,learnblock1,658.5,img/planet2_right.png,2,Community 2,NA,TRUE,j,j,NA,NA,NA,1,6,"7,1,12,3,14,2,10,13,15,8,9,5,4,11,6"
14460,commdev-image-keyboard-response,214,492494,learnblock1,670.5999999642372,img/planet8_left.png,8,Community 2,NA,TRUE,f,f,NA,NA,NA,1,6,"7,1,12,3,14,2,10,13,15,8,9,5,4,11,6"
14460,commdev-image-keyboard-response,215,493746,learnblock1,668,img/planet10_left.png,10,Community 2,NA,TRUE,f,f,NA,NA,NA,1,6,"7,1,12,3,14,2,10,13,15,8,9,5,4,11,6"
14460,commdev-image-keyboard-response,216,494997,learnblock1,1127.8999999761581,img/planet2_left.png,2,Community 2,NA,TRUE,f,f,NA,NA,NA,1,6,"7,1,12,3,14,2,10,13,15,8,9,5,4,11,6"
14460,commdev-image-keyboard-response,217,496249,learnblock1,965.1000000238419,img/planet3_left.png,3,Community 1,NA,TRUE,f,f,NA,NA,NA,1,6,"7,1,12,3,14,2,10,13,15,8,9,5,4,11,6"
14460,commdev-image-keyboard-response,218,497500,learnblock1,625.8999999761581,img/planet1_left.png,1,Community 1,NA,TRUE,f,f,NA,NA,NA,1,6,"7,1,12,3,14,2,10,13,15,8,9,5,4,11,6"
14460,commdev-image-keyboard-response,219,498751,learnblock1,622.6000000238419,img/planet3_right.png,3,Community 1,NA,TRUE,j,j,NA,NA,NA,1,6,"7,1,12,3,14,2,10,13,15,8,9,5,4,11,6"
14460,commdev-image-keyboard-response,220,500003,learnblock1,762.8999999761581,img/planet7_right.png,7,Community 1,NA,TRUE,j,j,NA,NA,NA,1,6,"7,1,12,3,14,2,10,13,15,8,9,5,4,11,6"
14460,commdev-image-keyboard-response,221,501254,learnblock1,679.8999999761581,img/planet1_right.png,1,Community 1,NA,TRUE,j,j,NA,NA,NA,1,6,"7,1,12,3,14,2,10,13,15,8,9,5,4,11,6"
14460,commdev-image-keyboard-response,222,502505,learnblock1,836.1000000238419,img/planet14_left.png,14,Community 1,NA,TRUE,f,f,NA,NA,NA,1,6,"7,1,12,3,14,2,10,13,15,8,9,5,4,11,6"
14460,commdev-image-keyboard-response,223,503756,learnblock1,705.5,img/planet9_right.png,9,Community 3,NA,TRUE,j,j,NA,NA,NA,1,6,"7,1,12,3,14,2,10,13,15,8,9,5,4,11,6"
14460,commdev-image-keyboard-response,224,505007,learnblock1,702.3999999761581,img/planet14_left.png,14,Community 1,NA,TRUE,f,f,NA,NA,NA,1,6,"7,1,12,3,14,2,10,13,15,8,9,5,4,11,6"
14460,commdev-image-keyboard-response,225,506269,learnblock1,619,img/planet1_right.png,1,Community 1,NA,TRUE,j,j,NA,NA,NA,1,6,"7,1,12,3,14,2,10,13,15,8,9,5,4,11,6"
14460,commdev-image-keyboard-response,226,507520,learnblock1,1052.800000011921,img/planet12_right.png,12,Community 1,NA,TRUE,j,j,NA,NA,NA,1,6,"7,1,12,3,14,2,10,13,15,8,9,5,4,11,6"
14460,commdev-image-keyboard-response,227,508771,learnblock1,634.5999999642372,img/planet3_left.png,3,Community 1,NA,TRUE,f,f,NA,NA,NA,1,6,"7,1,12,3,14,2,10,13,15,8,9,5,4,11,6"
14460,commdev-image-keyboard-response,228,510022,learnblock1,1063.1000000238419,img/planet2_left.png,2,Community 2,NA,TRUE,f,f,NA,NA,NA,1,6,"7,1,12,3,14,2,10,13,15,8,9,5,4,11,6"
14460,commdev-image-keyboard-response,229,511274,learnblock1,628.4000000357628,img/planet10_left.png,10,Community 2,NA,TRUE,f,f,NA,NA,NA,1,6,"7,1,12,3,14,2,10,13,15,8,9,5,4,11,6"
14460,commdev-image-keyboard-response,230,512524,learnblock1,688.5,img/planet13_right.png,13,Community 2,NA,TRUE,j,j,NA,NA,NA,1,6,"7,1,12,3,14,2,10,13,15,8,9,5,4,11,6"
14460,commdev-image-keyboard-response,231,513788,learnblock1,1022.1999999880791,img/planet10_right.png,10,Community 2,NA,TRUE,j,j,NA,NA,NA,1,6,"7,1,12,3,14,2,10,13,15,8,9,5,4,11,6"
14460,commdev-image-keyboard-response,232,515038,learnblock1,1070.3999999761581,img/planet13_left.png,13,Community 2,NA,TRUE,f,f,NA,NA,NA,1,6,"7,1,12,3,14,2,10,13,15,8,9,5,4,11,6"
14460,commdev-image-keyboard-response,233,516288,learnblock1,924.0999999642372,img/planet10_right.png,10,Community 2,NA,TRUE,j,j,NA,NA,NA,1,6,"7,1,12,3,14,2,10,13,15,8,9,5,4,11,6"
14460,commdev-image-keyboard-response,234,517548,learnblock1,905.3999999761581,img/planet8_right.png,8,Community 2,NA,TRUE,j,j,NA,NA,NA,1,6,"7,1,12,3,14,2,10,13,15,8,9,5,4,11,6"
14460,commdev-image-keyboard-response,235,518800,learnblock1,702.3000000119209,img/planet15_left.png,15,Community 2,NA,TRUE,f,f,NA,NA,NA,1,6,"7,1,12,3,14,2,10,13,15,8,9,5,4,11,6"
14460,commdev-image-keyboard-response,236,520051,learnblock1,954.7000000476837,img/planet8_left.png,8,Community 2,NA,TRUE,f,f,NA,NA,NA,1,6,"7,1,12,3,14,2,10,13,15,8,9,5,4,11,6"
14460,commdev-image-keyboard-response,237,521302,learnblock1,759.3999999761581,img/planet2_right.png,2,Community 2,NA,TRUE,j,j,NA,NA,NA,1,6,"7,1,12,3,14,2,10,13,15,8,9,5,4,11,6"
14460,commdev-image-keyboard-response,238,522552,learnblock1,740.3999999761581,img/planet8_left.png,8,Community 2,NA,TRUE,f,f,NA,NA,NA,1,6,"7,1,12,3,14,2,10,13,15,8,9,5,4,11,6"
14460,commdev-image-keyboard-response,239,523804,learnblock1,961.3999999761581,img/planet13_right.png,13,Community 2,NA,TRUE,j,j,NA,NA,NA,1,6,"7,1,12,3,14,2,10,13,15,8,9,5,4,11,6"
14460,commdev-image-keyboard-response,240,525054,learnblock1,1038.300000011921,img/planet8_right.png,8,Community 2,NA,TRUE,j,j,NA,NA,NA,1,6,"7,1,12,3,14,2,10,13,15,8,9,5,4,11,6"
14460,commdev-image-keyboard-response,241,526314,learnblock1,603.4000000357628,img/planet15_left.png,15,Community 2,NA,TRUE,f,f,NA,NA,NA,1,6,"7,1,12,3,14,2,10,13,15,8,9,5,4,11,6"
14460,commdev-image-keyboard-response,242,527565,learnblock1,928.5,img/planet8_left.png,8,Community 2,NA,TRUE,f,f,NA,NA,NA,1,6,"7,1,12,3,14,2,10,13,15,8,9,5,4,11,6"
14460,commdev-image-keyboard-response,243,528816,learnblock1,1053.300000011921,img/planet2_left.png,2,Community 2,NA,TRUE,f,f,NA,NA,NA,1,6,"7,1,12,3,14,2,10,13,15,8,9,5,4,11,6"
14460,commdev-image-keyboard-response,244,530068,learnblock1,761.5,img/planet3_left.png,3,Community 1,NA,TRUE,f,f,NA,NA,NA,1,6,"7,1,12,3,14,2,10,13,15,8,9,5,4,11,6"
14460,commdev-image-keyboard-response,245,531320,learnblock1,774.2999999523163,img/planet12_right.png,12,Community 1,NA,TRUE,j,j,NA,NA,NA,1,6,"7,1,12,3,14,2,10,13,15,8,9,5,4,11,6"
14460,commdev-image-keyboard-response,246,532572,learnblock1,785.6999999880791,img/planet3_right.png,3,Community 1,NA,TRUE,j,j,NA,NA,NA,1,6,"7,1,12,3,14,2,10,13,15,8,9,5,4,11,6"
14460,commdev-image-keyboard-response,247,533823,learnblock1,718,img/planet7_right.png,7,Community 1,NA,TRUE,j,j,NA,NA,NA,1,6,"7,1,12,3,14,2,10,13,15,8,9,5,4,11,6"
14460,commdev-image-keyboard-response,248,535074,learnblock1,539.5,img/planet1_right.png,1,Community 1,NA,TRUE,j,j,NA,NA,NA,1,6,"7,1,12,3,14,2,10,13,15,8,9,5,4,11,6"
14460,commdev-image-keyboard-response,249,536325,learnblock1,711.5,img/planet7_left.png,7,Community 1,NA,TRUE,f,f,NA,NA,NA,1,6,"7,1,12,3,14,2,10,13,15,8,9,5,4,11,6"
14460,commdev-image-keyboard-response,250,537576,learnblock1,980.8000000119209,img/planet12_left.png,12,Community 1,NA,TRUE,f,f,NA,NA,NA,1,6,"7,1,12,3,14,2,10,13,15,8,9,5,4,11,6"
14460,commdev-image-keyboard-response,251,538827,learnblock1,849.4000000357628,img/planet7_left.png,7,Community 1,NA,TRUE,f,f,NA,NA,NA,1,6,"7,1,12,3,14,2,10,13,15,8,9,5,4,11,6"
14460,commdev-image-keyboard-response,252,540079,learnblock1,686.3000000119209,img/planet1_left.png,1,Community 1,NA,TRUE,f,f,NA,NA,NA,1,6,"7,1,12,3,14,2,10,13,15,8,9,5,4,11,6"
14460,commdev-image-keyboard-response,253,541330,learnblock1,891,img/planet14_right.png,14,Community 1,NA,TRUE,j,j,NA,NA,NA,1,6,"7,1,12,3,14,2,10,13,15,8,9,5,4,11,6"
14460,commdev-image-keyboard-response,254,542581,learnblock1,984.1999999880791,img/planet7_left.png,7,Community 1,NA,TRUE,f,f,NA,NA,NA,1,6,"7,1,12,3,14,2,10,13,15,8,9,5,4,11,6"
14460,commdev-image-keyboard-response,255,543831,learnblock1,788.7999999523163,img/planet3_left.png,3,Community 1,NA,TRUE,f,f,NA,NA,NA,1,6,"7,1,12,3,14,2,10,13,15,8,9,5,4,11,6"
14460,commdev-image-keyboard-response,256,545083,learnblock1,null,img/planet7_right.png,7,Community 1,NA,FALSE,null,j,NA,NA,NA,1,6,"7,1,12,3,14,2,10,13,15,8,9,5,4,11,6"
14460,commdev-image-keyboard-response,257,546334,learnblock1,159,img/planet3_left.png,3,Community 1,NA,FALSE,j,f,NA,NA,NA,1,6,"7,1,12,3,14,2,10,13,15,8,9,5,4,11,6"
14460,commdev-image-keyboard-response,258,547585,learnblock1,1019.5999999642372,img/planet2_left.png,2,Community 2,NA,TRUE,f,f,NA,NA,NA,1,6,"7,1,12,3,14,2,10,13,15,8,9,5,4,11,6"
14460,commdev-image-keyboard-response,259,548835,learnblock1,null,img/planet8_right.png,8,Community 2,NA,FALSE,null,j,NA,NA,NA,1,6,"7,1,12,3,14,2,10,13,15,8,9,5,4,11,6"
14460,commdev-image-keyboard-response,260,550087,learnblock1,37.89999997615814,img/planet13_right.png,13,Community 2,NA,TRUE,j,j,NA,NA,NA,1,6,"7,1,12,3,14,2,10,13,15,8,9,5,4,11,6"
14460,commdev-image-keyboard-response,261,551338,learnblock1,770.6999999880791,img/planet5_right.png,5,Community 3,NA,TRUE,j,j,NA,NA,NA,1,6,"7,1,12,3,14,2,10,13,15,8,9,5,4,11,6"
14460,commdev-image-keyboard-response,262,552589,learnblock1,607.0999999642372,img/planet13_left.png,13,Community 2,NA,TRUE,f,f,NA,NA,NA,1,6,"7,1,12,3,14,2,10,13,15,8,9,5,4,11,6"
14460,commdev-image-keyboard-response,263,553841,learnblock1,795.6999999880791,img/planet10_left.png,10,Community 2,NA,TRUE,f,f,NA,NA,NA,1,6,"7,1,12,3,14,2,10,13,15,8,9,5,4,11,6"
14460,commdev-image-keyboard-response,264,555092,learnblock1,951.8999999761581,img/planet15_left.png,15,Community 2,NA,TRUE,f,f,NA,NA,NA,1,6,"7,1,12,3,14,2,10,13,15,8,9,5,4,11,6"
14460,commdev-image-keyboard-response,265,556342,learnblock1,997.6999999880791,img/planet10_left.png,10,Community 2,NA,TRUE,f,f,NA,NA,NA,1,6,"7,1,12,3,14,2,10,13,15,8,9,5,4,11,6"
14460,commdev-image-keyboard-response,266,557593,learnblock1,946.8999999761581,img/planet15_left.png,15,Community 2,NA,TRUE,f,f,NA,NA,NA,1,6,"7,1,12,3,14,2,10,13,15,8,9,5,4,11,6"
14460,commdev-image-keyboard-response,267,558844,learnblock1,480.19999998807907,img/planet2_right.png,2,Community 2,NA,TRUE,j,j,NA,NA,NA,1,6,"7,1,12,3,14,2,10,13,15,8,9,5,4,11,6"
14460,commdev-image-keyboard-response,268,560095,learnblock1,653.4000000357628,img/planet10_left.png,10,Community 2,NA,TRUE,f,f,NA,NA,NA,1,6,"7,1,12,3,14,2,10,13,15,8,9,5,4,11,6"
14460,commdev-image-keyboard-response,269,561346,learnblock1,889.8999999761581,img/planet2_left.png,2,Community 2,NA,TRUE,f,f,NA,NA,NA,1,6,"7,1,12,3,14,2,10,13,15,8,9,5,4,11,6"
14460,commdev-image-keyboard-response,270,562598,learnblock1,726.6999999880791,img/planet3_right.png,3,Community 1,NA,TRUE,j,j,NA,NA,NA,1,6,"7,1,12,3,14,2,10,13,15,8,9,5,4,11,6"
14460,commdev-image-keyboard-response,271,563849,learnblock1,579.5,img/planet1_left.png,1,Community 1,NA,TRUE,f,f,NA,NA,NA,1,6,"7,1,12,3,14,2,10,13,15,8,9,5,4,11,6"
14460,commdev-image-keyboard-response,272,565100,learnblock1,800.3000000119209,img/planet12_right.png,12,Community 1,NA,TRUE,j,j,NA,NA,NA,1,6,"7,1,12,3,14,2,10,13,15,8,9,5,4,11,6"
14460,commdev-image-keyboard-response,273,566351,learnblock1,1053.199999988079,img/planet14_right.png,14,Community 1,NA,TRUE,j,j,NA,NA,NA,1,6,"7,1,12,3,14,2,10,13,15,8,9,5,4,11,6"
14460,commdev-image-keyboard-response,274,567602,learnblock1,890.6000000238419,img/planet9_left.png,9,Community 3,NA,TRUE,f,f,NA,NA,NA,1,6,"7,1,12,3,14,2,10,13,15,8,9,5,4,11,6"
14460,commdev-image-keyboard-response,275,568853,learnblock1,615.3000000119209,img/planet11_left.png,11,Community 3,NA,TRUE,f,f,NA,NA,NA,1,6,"7,1,12,3,14,2,10,13,15,8,9,5,4,11,6"
14460,commdev-image-keyboard-response,276,570104,learnblock1,740.6000000238419,img/planet6_right.png,6,Community 3,NA,TRUE,j,j,NA,NA,NA,1,6,"7,1,12,3,14,2,10,13,15,8,9,5,4,11,6"
14460,commdev-image-keyboard-response,277,571356,learnblock1,880.8000000119209,img/planet4_left.png,4,Community 3,NA,TRUE,f,f,NA,NA,NA,1,6,"7,1,12,3,14,2,10,13,15,8,9,5,4,11,6"
14460,commdev-image-keyboard-response,278,572608,learnblock1,669,img/planet9_left.png,9,Community 3,NA,TRUE,f,f,NA,NA,NA,1,6,"7,1,12,3,14,2,10,13,15,8,9,5,4,11,6"
14460,commdev-image-keyboard-response,279,573859,learnblock1,761.2000000476837,img/planet11_left.png,11,Community 3,NA,TRUE,f,f,NA,NA,NA,1,6,"7,1,12,3,14,2,10,13,15,8,9,5,4,11,6"
14460,commdev-image-keyboard-response,280,575110,learnblock1,870.8999999761581,img/planet9_left.png,9,Community 3,NA,TRUE,f,f,NA,NA,NA,1,6,"7,1,12,3,14,2,10,13,15,8,9,5,4,11,6"
14460,commdev-image-keyboard-response,281,576361,learnblock1,1075.300000011921,img/planet6_right.png,6,Community 3,NA,TRUE,j,j,NA,NA,NA,1,6,"7,1,12,3,14,2,10,13,15,8,9,5,4,11,6"
14460,commdev-image-keyboard-response,282,577611,learnblock1,784.5,img/planet9_left.png,9,Community 3,NA,TRUE,f,f,NA,NA,NA,1,6,"7,1,12,3,14,2,10,13,15,8,9,5,4,11,6"
14460,commdev-image-keyboard-response,283,578869,learnblock1,957.9000000357628,img/planet14_right.png,14,Community 1,NA,TRUE,j,j,NA,NA,NA,1,6,"7,1,12,3,14,2,10,13,15,8,9,5,4,11,6"
14460,commdev-image-keyboard-response,284,580120,learnblock1,1028.1000000238419,img/planet12_left.png,12,Community 1,NA,TRUE,f,f,NA,NA,NA,1,6,"7,1,12,3,14,2,10,13,15,8,9,5,4,11,6"
14460,commdev-image-keyboard-response,285,581372,learnblock1,896.8999999761581,img/planet7_left.png,7,Community 1,NA,TRUE,f,f,NA,NA,NA,1,6,"7,1,12,3,14,2,10,13,15,8,9,5,4,11,6"
14460,commdev-image-keyboard-response,286,582623,learnblock1,653.0999999642372,img/planet14_right.png,14,Community 1,NA,TRUE,j,j,NA,NA,NA,1,6,"7,1,12,3,14,2,10,13,15,8,9,5,4,11,6"
14460,commdev-image-keyboard-response,287,583875,learnblock1,954.4000000357628,img/planet7_left.png,7,Community 1,NA,TRUE,f,f,NA,NA,NA,1,6,"7,1,12,3,14,2,10,13,15,8,9,5,4,11,6"
14460,commdev-image-keyboard-response,288,585125,learnblock1,1078.699999988079,img/planet3_right.png,3,Community 1,NA,TRUE,j,j,NA,NA,NA,1,6,"7,1,12,3,14,2,10,13,15,8,9,5,4,11,6"
14460,commdev-image-keyboard-response,289,586376,learnblock1,1011.5,img/planet12_left.png,12,Community 1,NA,TRUE,f,f,NA,NA,NA,1,6,"7,1,12,3,14,2,10,13,15,8,9,5,4,11,6"
14460,commdev-image-keyboard-response,290,587631,learnblock1,784.7999999523163,img/planet14_right.png,14,Community 1,NA,TRUE,j,j,NA,NA,NA,1,6,"7,1,12,3,14,2,10,13,15,8,9,5,4,11,6"
14460,commdev-image-keyboard-response,291,588882,learnblock1,745.4000000357628,img/planet9_right.png,9,Community 3,NA,TRUE,j,j,NA,NA,NA,1,6,"7,1,12,3,14,2,10,13,15,8,9,5,4,11,6"
14460,commdev-image-keyboard-response,292,590133,learnblock1,647.1999999880791,img/planet4_left.png,4,Community 3,NA,TRUE,f,f,NA,NA,NA,1,6,"7,1,12,3,14,2,10,13,15,8,9,5,4,11,6"
14460,commdev-image-keyboard-response,293,591384,learnblock1,755.5999999642372,img/planet9_right.png,9,Community 3,NA,TRUE,j,j,NA,NA,NA,1,6,"7,1,12,3,14,2,10,13,15,8,9,5,4,11,6"
14460,commdev-image-keyboard-response,294,592635,learnblock1,976.5,img/planet11_right.png,11,Community 3,NA,TRUE,j,j,NA,NA,NA,1,6,"7,1,12,3,14,2,10,13,15,8,9,5,4,11,6"
14460,commdev-image-keyboard-response,295,593886,learnblock1,717.6999999880791,img/planet9_left.png,9,Community 3,NA,TRUE,f,f,NA,NA,NA,1,6,"7,1,12,3,14,2,10,13,15,8,9,5,4,11,6"
14460,commdev-image-keyboard-response,296,595137,learnblock1,986.6000000238419,img/planet4_left.png,4,Community 3,NA,TRUE,f,f,NA,NA,NA,1,6,"7,1,12,3,14,2,10,13,15,8,9,5,4,11,6"
14460,commdev-image-keyboard-response,297,596388,learnblock1,919.8000000119209,img/planet9_left.png,9,Community 3,NA,TRUE,f,f,NA,NA,NA,1,6,"7,1,12,3,14,2,10,13,15,8,9,5,4,11,6"
14460,commdev-image-keyboard-response,298,597639,learnblock1,692.5999999642372,img/planet11_right.png,11,Community 3,NA,TRUE,j,j,NA,NA,NA,1,6,"7,1,12,3,14,2,10,13,15,8,9,5,4,11,6"
14460,commdev-image-keyboard-response,299,598891,learnblock1,833.7999999523163,img/planet5_left.png,5,Community 3,NA,TRUE,f,f,NA,NA,NA,1,6,"7,1,12,3,14,2,10,13,15,8,9,5,4,11,6"
14460,commdev-image-keyboard-response,300,600142,learnblock1,1054.1000000238419,img/planet13_left.png,13,Community 2,NA,TRUE,f,f,NA,NA,NA,1,6,"7,1,12,3,14,2,10,13,15,8,9,5,4,11,6"
14460,commdev-image-keyboard-response,301,601392,learnblock1,1242.300000011921,img/planet8_left.png,8,Community 2,NA,TRUE,f,f,NA,NA,NA,1,6,"7,1,12,3,14,2,10,13,15,8,9,5,4,11,6"
14460,commdev-image-keyboard-response,302,602644,learnblock1,856.2000000476837,img/planet15_left.png,15,Community 2,NA,TRUE,f,f,NA,NA,NA,1,6,"7,1,12,3,14,2,10,13,15,8,9,5,4,11,6"
14460,commdev-image-keyboard-response,303,603895,learnblock1,740.8999999761581,img/planet2_right.png,2,Community 2,NA,TRUE,j,j,NA,NA,NA,1,6,"7,1,12,3,14,2,10,13,15,8,9,5,4,11,6"
14460,commdev-image-keyboard-response,304,605146,learnblock1,977.3000000119209,img/planet3_right.png,3,Community 1,NA,TRUE,j,j,NA,NA,NA,1,6,"7,1,12,3,14,2,10,13,15,8,9,5,4,11,6"
14460,commdev-image-keyboard-response,305,606397,learnblock1,590.3000000119209,img/planet2_left.png,2,Community 2,NA,TRUE,f,f,NA,NA,NA,1,6,"7,1,12,3,14,2,10,13,15,8,9,5,4,11,6"
14460,commdev-image-keyboard-response,306,607648,learnblock1,923.6000000238419,img/planet10_left.png,10,Community 2,NA,TRUE,f,f,NA,NA,NA,1,6,"7,1,12,3,14,2,10,13,15,8,9,5,4,11,6"
14460,commdev-image-keyboard-response,307,608898,learnblock1,808.7999999523163,img/planet15_right.png,15,Community 2,NA,TRUE,j,j,NA,NA,NA,1,6,"7,1,12,3,14,2,10,13,15,8,9,5,4,11,6"
14460,commdev-image-keyboard-response,308,610149,learnblock1,1094.1000000238419,img/planet10_left.png,10,Community 2,NA,TRUE,f,f,NA,NA,NA,1,6,"7,1,12,3,14,2,10,13,15,8,9,5,4,11,6"
14460,commdev-image-keyboard-response,309,611400,learnblock1,643.7999999523163,img/planet13_right.png,13,Community 2,NA,TRUE,j,j,NA,NA,NA,1,6,"7,1,12,3,14,2,10,13,15,8,9,5,4,11,6"
14460,commdev-image-keyboard-response,310,612651,learnblock1,608,img/planet5_right.png,5,Community 3,NA,TRUE,j,j,NA,NA,NA,1,6,"7,1,12,3,14,2,10,13,15,8,9,5,4,11,6"
14460,commdev-image-keyboard-response,311,613902,learnblock1,701.3999999761581,img/planet13_left.png,13,Community 2,NA,TRUE,f,f,NA,NA,NA,1,6,"7,1,12,3,14,2,10,13,15,8,9,5,4,11,6"
14460,commdev-image-keyboard-response,312,615153,learnblock1,762.1999999880791,img/planet10_left.png,10,Community 2,NA,TRUE,f,f,NA,NA,NA,1,6,"7,1,12,3,14,2,10,13,15,8,9,5,4,11,6"
14460,commdev-image-keyboard-response,313,616405,learnblock1,727.1999999880791,img/planet8_left.png,8,Community 2,NA,TRUE,f,f,NA,NA,NA,1,6,"7,1,12,3,14,2,10,13,15,8,9,5,4,11,6"
14460,commdev-image-keyboard-response,314,617656,learnblock1,675.3999999761581,img/planet15_right.png,15,Community 2,NA,TRUE,j,j,NA,NA,NA,1,6,"7,1,12,3,14,2,10,13,15,8,9,5,4,11,6"
14460,commdev-image-keyboard-response,315,618907,learnblock1,704.6999999880791,img/planet10_right.png,10,Community 2,NA,TRUE,j,j,NA,NA,NA,1,6,"7,1,12,3,14,2,10,13,15,8,9,5,4,11,6"
14460,commdev-image-keyboard-response,316,620158,learnblock1,1036.5,img/planet8_right.png,8,Community 2,NA,TRUE,j,j,NA,NA,NA,1,6,"7,1,12,3,14,2,10,13,15,8,9,5,4,11,6"
14460,commdev-image-keyboard-response,317,621410,learnblock1,714,img/planet10_left.png,10,Community 2,NA,TRUE,f,f,NA,NA,NA,1,6,"7,1,12,3,14,2,10,13,15,8,9,5,4,11,6"
14460,commdev-image-keyboard-response,318,622661,learnblock1,854.0999999642372,img/planet8_left.png,8,Community 2,NA,TRUE,f,f,NA,NA,NA,1,6,"7,1,12,3,14,2,10,13,15,8,9,5,4,11,6"
14460,commdev-image-keyboard-response,319,623913,learnblock1,771.4000000357628,img/planet2_right.png,2,Community 2,NA,TRUE,j,j,NA,NA,NA,1,6,"7,1,12,3,14,2,10,13,15,8,9,5,4,11,6"
14460,commdev-image-keyboard-response,320,625164,learnblock1,831.3999999761581,img/planet3_right.png,3,Community 1,NA,TRUE,j,j,NA,NA,NA,1,6,"7,1,12,3,14,2,10,13,15,8,9,5,4,11,6"
14460,commdev-image-keyboard-response,321,626416,learnblock1,null,img/planet12_right.png,12,Community 1,NA,FALSE,null,j,NA,NA,NA,1,6,"7,1,12,3,14,2,10,13,15,8,9,5,4,11,6"
14460,commdev-image-keyboard-response,322,627668,learnblock1,808,img/planet1_left.png,1,Community 1,NA,TRUE,f,f,NA,NA,NA,1,6,"7,1,12,3,14,2,10,13,15,8,9,5,4,11,6"
14460,commdev-image-keyboard-response,323,628919,learnblock1,724.3000000119209,img/planet7_left.png,7,Community 1,NA,TRUE,f,f,NA,NA,NA,1,6,"7,1,12,3,14,2,10,13,15,8,9,5,4,11,6"
14460,commdev-image-keyboard-response,324,630170,learnblock1,1137.300000011921,img/planet14_left.png,14,Community 1,NA,TRUE,f,f,NA,NA,NA,1,6,"7,1,12,3,14,2,10,13,15,8,9,5,4,11,6"
14460,commdev-image-keyboard-response,325,631421,learnblock1,926.3000000119209,img/planet7_left.png,7,Community 1,NA,TRUE,f,f,NA,NA,NA,1,6,"7,1,12,3,14,2,10,13,15,8,9,5,4,11,6"
14460,commdev-image-keyboard-response,326,632672,learnblock1,651,img/planet12_left.png,12,Community 1,NA,TRUE,f,f,NA,NA,NA,1,6,"7,1,12,3,14,2,10,13,15,8,9,5,4,11,6"
14460,commdev-image-keyboard-response,327,633922,learnblock1,840.3999999761581,img/planet14_right.png,14,Community 1,NA,TRUE,j,j,NA,NA,NA,1,6,"7,1,12,3,14,2,10,13,15,8,9,5,4,11,6"
14460,commdev-image-keyboard-response,328,635173,learnblock1,1094.1000000238419,img/planet1_left.png,1,Community 1,NA,TRUE,f,f,NA,NA,NA,1,6,"7,1,12,3,14,2,10,13,15,8,9,5,4,11,6"
14460,commdev-image-keyboard-response,329,636423,learnblock1,675.3000000119209,img/planet12_left.png,12,Community 1,NA,TRUE,f,f,NA,NA,NA,1,6,"7,1,12,3,14,2,10,13,15,8,9,5,4,11,6"
14460,commdev-image-keyboard-response,330,637674,learnblock1,736.5,img/planet7_left.png,7,Community 1,NA,TRUE,f,f,NA,NA,NA,1,6,"7,1,12,3,14,2,10,13,15,8,9,5,4,11,6"
14460,commdev-image-keyboard-response,331,638924,learnblock1,670.3000000119209,img/planet1_right.png,1,Community 1,NA,TRUE,j,j,NA,NA,NA,1,6,"7,1,12,3,14,2,10,13,15,8,9,5,4,11,6"
14460,commdev-image-keyboard-response,332,640176,learnblock1,779.9000000357628,img/planet12_left.png,12,Community 1,NA,TRUE,f,f,NA,NA,NA,1,6,"7,1,12,3,14,2,10,13,15,8,9,5,4,11,6"
14460,commdev-image-keyboard-response,333,641426,learnblock1,727.8000000119209,img/planet1_right.png,1,Community 1,NA,TRUE,j,j,NA,NA,NA,1,6,"7,1,12,3,14,2,10,13,15,8,9,5,4,11,6"
14460,commdev-image-keyboard-response,334,642677,learnblock1,885.6000000238419,img/planet14_right.png,14,Community 1,NA,FALSE,f,j,NA,NA,NA,1,6,"7,1,12,3,14,2,10,13,15,8,9,5,4,11,6"
14460,commdev-image-keyboard-response,335,643929,learnblock1,722.5999999642372,img/planet1_right.png,1,Community 1,NA,TRUE,j,j,NA,NA,NA,1,6,"7,1,12,3,14,2,10,13,15,8,9,5,4,11,6"
14460,commdev-image-keyboard-response,336,645180,learnblock1,782.8000000119209,img/planet14_left.png,14,Community 1,NA,TRUE,f,f,NA,NA,NA,1,6,"7,1,12,3,14,2,10,13,15,8,9,5,4,11,6"
14460,commdev-image-keyboard-response,337,646431,learnblock1,875.3999999761581,img/planet12_left.png,12,Community 1,NA,TRUE,f,f,NA,NA,NA,1,6,"7,1,12,3,14,2,10,13,15,8,9,5,4,11,6"
14460,commdev-image-keyboard-response,338,647683,learnblock1,744.4000000357628,img/planet3_left.png,3,Community 1,NA,TRUE,f,f,NA,NA,NA,1,6,"7,1,12,3,14,2,10,13,15,8,9,5,4,11,6"
14460,commdev-image-keyboard-response,339,648934,learnblock1,757.1000000238419,img/planet12_left.png,12,Community 1,NA,TRUE,f,f,NA,NA,NA,1,6,"7,1,12,3,14,2,10,13,15,8,9,5,4,11,6"
14460,commdev-image-keyboard-response,340,650199,learnblock1,962.6999999880791,img/planet14_right.png,14,Community 1,NA,TRUE,j,j,NA,NA,NA,1,6,"7,1,12,3,14,2,10,13,15,8,9,5,4,11,6"
14460,commdev-image-keyboard-response,341,651451,learnblock1,672.1999999880791,img/planet9_right.png,9,Community 3,NA,TRUE,j,j,NA,NA,NA,1,6,"7,1,12,3,14,2,10,13,15,8,9,5,4,11,6"
14460,commdev-image-keyboard-response,342,652702,learnblock1,701,img/planet11_left.png,11,Community 3,NA,TRUE,f,f,NA,NA,NA,1,6,"7,1,12,3,14,2,10,13,15,8,9,5,4,11,6"
14460,commdev-image-keyboard-response,343,653953,learnblock1,826,img/planet4_left.png,4,Community 3,NA,TRUE,f,f,NA,NA,NA,1,6,"7,1,12,3,14,2,10,13,15,8,9,5,4,11,6"
14460,commdev-image-keyboard-response,344,655204,learnblock1,1031.0999999642372,img/planet9_left.png,9,Community 3,NA,TRUE,f,f,NA,NA,NA,1,6,"7,1,12,3,14,2,10,13,15,8,9,5,4,11,6"
14460,commdev-image-keyboard-response,345,656454,learnblock1,627.8000000119209,img/planet6_right.png,6,Community 3,NA,TRUE,j,j,NA,NA,NA,1,6,"7,1,12,3,14,2,10,13,15,8,9,5,4,11,6"
14460,commdev-image-keyboard-response,346,657705,learnblock1,625.6000000238419,img/planet4_left.png,4,Community 3,NA,TRUE,f,f,NA,NA,NA,1,6,"7,1,12,3,14,2,10,13,15,8,9,5,4,11,6"
14460,commdev-image-keyboard-response,347,658957,learnblock1,655.1000000238419,img/planet6_right.png,6,Community 3,NA,TRUE,j,j,NA,NA,NA,1,6,"7,1,12,3,14,2,10,13,15,8,9,5,4,11,6"
14460,commdev-image-keyboard-response,351,698874,learnblock2,639.6999999880791,img/planet10_left.png,10,Community 2,NA,TRUE,f,f,NA,NA,NA,1,6,"7,1,12,3,14,2,10,13,15,8,9,5,4,11,6"
14460,commdev-image-keyboard-response,352,700125,learnblock2,716.8000000119209,img/planet15_left.png,15,Community 2,NA,TRUE,f,f,NA,NA,NA,1,6,"7,1,12,3,14,2,10,13,15,8,9,5,4,11,6"
14460,commdev-image-keyboard-response,353,701376,learnblock2,697.4000000357628,img/planet13_left.png,13,Community 2,NA,TRUE,f,f,NA,NA,NA,1,6,"7,1,12,3,14,2,10,13,15,8,9,5,4,11,6"
14460,commdev-image-keyboard-response,354,702627,learnblock2,710,img/planet8_right.png,8,Community 2,NA,TRUE,j,j,NA,NA,NA,1,6,"7,1,12,3,14,2,10,13,15,8,9,5,4,11,6"
14460,commdev-image-keyboard-response,355,703878,learnblock2,771.3000000119209,img/planet15_left.png,15,Community 2,NA,TRUE,f,f,NA,NA,NA,1,6,"7,1,12,3,14,2,10,13,15,8,9,5,4,11,6"
14460,commdev-image-keyboard-response,356,705129,learnblock2,944.3000000119209,img/planet8_right.png,8,Community 2,NA,TRUE,j,j,NA,NA,NA,1,6,"7,1,12,3,14,2,10,13,15,8,9,5,4,11,6"
14460,commdev-image-keyboard-response,357,706381,learnblock2,860.8000000119209,img/planet15_right.png,15,Community 2,NA,TRUE,j,j,NA,NA,NA,1,6,"7,1,12,3,14,2,10,13,15,8,9,5,4,11,6"
14460,commdev-image-keyboard-response,358,707632,learnblock2,857.3000000119209,img/planet10_right.png,10,Community 2,NA,TRUE,j,j,NA,NA,NA,1,6,"7,1,12,3,14,2,10,13,15,8,9,5,4,11,6"
14460,commdev-image-keyboard-response,359,708883,learnblock2,821.5999999642372,img/planet15_left.png,15,Community 2,NA,TRUE,f,f,NA,NA,NA,1,6,"7,1,12,3,14,2,10,13,15,8,9,5,4,11,6"
14460,commdev-image-keyboard-response,360,710134,learnblock2,691.2999999523163,img/planet10_right.png,10,Community 2,NA,TRUE,j,j,NA,NA,NA,1,6,"7,1,12,3,14,2,10,13,15,8,9,5,4,11,6"
14460,commdev-image-keyboard-response,361,711386,learnblock2,864.1999999880791,img/planet2_left.png,2,Community 2,NA,TRUE,f,f,NA,NA,NA,1,6,"7,1,12,3,14,2,10,13,15,8,9,5,4,11,6"
14460,commdev-image-keyboard-response,362,712640,learnblock2,684.1999999880791,img/planet3_right.png,3,Community 1,NA,TRUE,j,j,NA,NA,NA,1,6,"7,1,12,3,14,2,10,13,15,8,9,5,4,11,6"
14460,commdev-image-keyboard-response,363,713890,learnblock2,870.5,img/planet7_right.png,7,Community 1,NA,TRUE,j,j,NA,NA,NA,1,6,"7,1,12,3,14,2,10,13,15,8,9,5,4,11,6"
14460,commdev-image-keyboard-response,364,715142,learnblock2,867.8000000119209,img/planet1_right.png,1,Community 1,NA,TRUE,j,j,NA,NA,NA,1,6,"7,1,12,3,14,2,10,13,15,8,9,5,4,11,6"
14460,commdev-image-keyboard-response,365,716393,learnblock2,928.1999999880791,img/planet3_left.png,3,Community 1,NA,TRUE,f,f,NA,NA,NA,1,6,"7,1,12,3,14,2,10,13,15,8,9,5,4,11,6"
14460,commdev-image-keyboard-response,366,717644,learnblock2,717.0999999642372,img/planet1_left.png,1,Community 1,NA,TRUE,f,f,NA,NA,NA,1,6,"7,1,12,3,14,2,10,13,15,8,9,5,4,11,6"
14460,commdev-image-keyboard-response,367,718896,learnblock2,777.6999999880791,img/planet14_right.png,14,Community 1,NA,TRUE,j,j,NA,NA,NA,1,6,"7,1,12,3,14,2,10,13,15,8,9,5,4,11,6"
14460,commdev-image-keyboard-response,368,720147,learnblock2,837.8999999761581,img/planet12_left.png,12,Community 1,NA,TRUE,f,f,NA,NA,NA,1,6,"7,1,12,3,14,2,10,13,15,8,9,5,4,11,6"
14460,commdev-image-keyboard-response,369,721399,learnblock2,1250.4000000357628,img/planet14_left.png,14,Community 1,NA,TRUE,f,f,NA,NA,NA,1,6,"7,1,12,3,14,2,10,13,15,8,9,5,4,11,6"
14460,commdev-image-keyboard-response,370,722650,learnblock2,863.6999999880791,img/planet9_left.png,9,Community 3,NA,TRUE,f,f,NA,NA,NA,1,6,"7,1,12,3,14,2,10,13,15,8,9,5,4,11,6"
14460,commdev-image-keyboard-response,371,723908,learnblock2,588.2000000476837,img/planet6_left.png,6,Community 3,NA,TRUE,f,f,NA,NA,NA,1,6,"7,1,12,3,14,2,10,13,15,8,9,5,4,11,6"
14460,commdev-image-keyboard-response,372,725159,learnblock2,786.2000000476837,img/planet9_right.png,9,Community 3,NA,TRUE,j,j,NA,NA,NA,1,6,"7,1,12,3,14,2,10,13,15,8,9,5,4,11,6"
14460,commdev-image-keyboard-response,373,726410,learnblock2,751.2000000476837,img/planet11_right.png,11,Community 3,NA,TRUE,j,j,NA,NA,NA,1,6,"7,1,12,3,14,2,10,13,15,8,9,5,4,11,6"
14460,commdev-image-keyboard-response,374,727661,learnblock2,636.5,img/planet4_left.png,4,Community 3,NA,TRUE,f,f,NA,NA,NA,1,6,"7,1,12,3,14,2,10,13,15,8,9,5,4,11,6"
14460,commdev-image-keyboard-response,375,728912,learnblock2,857.4000000357628,img/planet5_right.png,5,Community 3,NA,TRUE,j,j,NA,NA,NA,1,6,"7,1,12,3,14,2,10,13,15,8,9,5,4,11,6"
14460,commdev-image-keyboard-response,376,730164,learnblock2,982.1000000238419,img/planet13_right.png,13,Community 2,NA,TRUE,j,j,NA,NA,NA,1,6,"7,1,12,3,14,2,10,13,15,8,9,5,4,11,6"
14460,commdev-image-keyboard-response,377,731415,learnblock2,866.9000000357628,img/planet5_left.png,5,Community 3,NA,TRUE,f,f,NA,NA,NA,1,6,"7,1,12,3,14,2,10,13,15,8,9,5,4,11,6"
14460,commdev-image-keyboard-response,378,732665,learnblock2,null,img/planet13_right.png,13,Community 2,NA,FALSE,null,j,NA,NA,NA,1,6,"7,1,12,3,14,2,10,13,15,8,9,5,4,11,6"
14460,commdev-image-keyboard-response,379,733917,learnblock2,989,img/planet5_right.png,5,Community 3,NA,TRUE,j,j,NA,NA,NA,1,6,"7,1,12,3,14,2,10,13,15,8,9,5,4,11,6"
14460,commdev-image-keyboard-response,380,735168,learnblock2,649.7000000476837,img/planet11_left.png,11,Community 3,NA,TRUE,f,f,NA,NA,NA,1,6,"7,1,12,3,14,2,10,13,15,8,9,5,4,11,6"
14460,commdev-image-keyboard-response,381,736419,learnblock2,1126.699999988079,img/planet9_left.png,9,Community 3,NA,TRUE,f,f,NA,NA,NA,1,6,"7,1,12,3,14,2,10,13,15,8,9,5,4,11,6"
14460,commdev-image-keyboard-response,382,737670,learnblock2,563.4000000357628,img/planet4_right.png,4,Community 3,NA,TRUE,j,j,NA,NA,NA,1,6,"7,1,12,3,14,2,10,13,15,8,9,5,4,11,6"
14460,commdev-image-keyboard-response,383,738921,learnblock2,688.1999999880791,img/planet6_left.png,6,Community 3,NA,TRUE,f,f,NA,NA,NA,1,6,"7,1,12,3,14,2,10,13,15,8,9,5,4,11,6"
14460,commdev-image-keyboard-response,384,740172,learnblock2,765.5,img/planet9_right.png,9,Community 3,NA,TRUE,j,j,NA,NA,NA,1,6,"7,1,12,3,14,2,10,13,15,8,9,5,4,11,6"
14460,commdev-image-keyboard-response,385,741423,learnblock2,970.0999999642372,img/planet11_right.png,11,Community 3,NA,TRUE,j,j,NA,NA,NA,1,6,"7,1,12,3,14,2,10,13,15,8,9,5,4,11,6"
14460,commdev-image-keyboard-response,386,742674,learnblock2,759.8999999761581,img/planet5_right.png,5,Community 3,NA,TRUE,j,j,NA,NA,NA,1,6,"7,1,12,3,14,2,10,13,15,8,9,5,4,11,6"
14460,commdev-image-keyboard-response,387,743926,learnblock2,676,img/planet6_right.png,6,Community 3,NA,TRUE,j,j,NA,NA,NA,1,6,"7,1,12,3,14,2,10,13,15,8,9,5,4,11,6"
14460,commdev-image-keyboard-response,388,745176,learnblock2,656.1000000238419,img/planet5_right.png,5,Community 3,NA,TRUE,j,j,NA,NA,NA,1,6,"7,1,12,3,14,2,10,13,15,8,9,5,4,11,6"
14460,commdev-image-keyboard-response,389,746427,learnblock2,669.8999999761581,img/planet4_left.png,4,Community 3,NA,TRUE,f,f,NA,NA,NA,1,6,"7,1,12,3,14,2,10,13,15,8,9,5,4,11,6"
14460,commdev-image-keyboard-response,390,747691,learnblock2,699.8000000119209,img/planet6_right.png,6,Community 3,NA,TRUE,j,j,NA,NA,NA,1,6,"7,1,12,3,14,2,10,13,15,8,9,5,4,11,6"
14460,commdev-image-keyboard-response,391,748944,learnblock2,777.8000000119209,img/planet5_right.png,5,Community 3,NA,TRUE,j,j,NA,NA,NA,1,6,"7,1,12,3,14,2,10,13,15,8,9,5,4,11,6"
14460,commdev-image-keyboard-response,392,750195,learnblock2,838,img/planet6_left.png,6,Community 3,NA,TRUE,f,f,NA,NA,NA,1,6,"7,1,12,3,14,2,10,13,15,8,9,5,4,11,6"
14460,commdev-image-keyboard-response,393,751446,learnblock2,915.1999999880791,img/planet4_right.png,4,Community 3,NA,TRUE,j,j,NA,NA,NA,1,6,"7,1,12,3,14,2,10,13,15,8,9,5,4,11,6"
14460,commdev-image-keyboard-response,394,752697,learnblock2,1024.5999999642372,img/planet11_left.png,11,Community 3,NA,TRUE,f,f,NA,NA,NA,1,6,"7,1,12,3,14,2,10,13,15,8,9,5,4,11,6"
14460,commdev-image-keyboard-response,395,753949,learnblock2,989.0999999642372,img/planet6_right.png,6,Community 3,NA,TRUE,j,j,NA,NA,NA,1,6,"7,1,12,3,14,2,10,13,15,8,9,5,4,11,6"
14460,commdev-image-keyboard-response,396,755200,learnblock2,505.10000002384186,img/planet4_right.png,4,Community 3,NA,TRUE,j,j,NA,NA,NA,1,6,"7,1,12,3,14,2,10,13,15,8,9,5,4,11,6"
14460,commdev-image-keyboard-response,397,756451,learnblock2,726.5,img/planet9_right.png,9,Community 3,NA,TRUE,j,j,NA,NA,NA,1,6,"7,1,12,3,14,2,10,13,15,8,9,5,4,11,6"
14460,commdev-image-keyboard-response,398,757703,learnblock2,643.0999999642372,img/planet11_right.png,11,Community 3,NA,TRUE,j,j,NA,NA,NA,1,6,"7,1,12,3,14,2,10,13,15,8,9,5,4,11,6"
14460,commdev-image-keyboard-response,399,758955,learnblock2,591.1999999880791,img/planet5_right.png,5,Community 3,NA,TRUE,j,j,NA,NA,NA,1,6,"7,1,12,3,14,2,10,13,15,8,9,5,4,11,6"
14460,commdev-image-keyboard-response,400,760206,learnblock2,635.4000000357628,img/planet13_left.png,13,Community 2,NA,TRUE,f,f,NA,NA,NA,1,6,"7,1,12,3,14,2,10,13,15,8,9,5,4,11,6"
14460,commdev-image-keyboard-response,401,761457,learnblock2,616.5,img/planet10_right.png,10,Community 2,NA,TRUE,j,j,NA,NA,NA,1,6,"7,1,12,3,14,2,10,13,15,8,9,5,4,11,6"
14460,commdev-image-keyboard-response,402,762708,learnblock2,644.8999999761581,img/planet13_left.png,13,Community 2,NA,TRUE,f,f,NA,NA,NA,1,6,"7,1,12,3,14,2,10,13,15,8,9,5,4,11,6"
14460,commdev-image-keyboard-response,403,763959,learnblock2,706.7999999523163,img/planet8_left.png,8,Community 2,NA,TRUE,f,f,NA,NA,NA,1,6,"7,1,12,3,14,2,10,13,15,8,9,5,4,11,6"
14460,commdev-image-keyboard-response,404,765211,learnblock2,655.1999999880791,img/planet10_right.png,10,Community 2,NA,TRUE,j,j,NA,NA,NA,1,6,"7,1,12,3,14,2,10,13,15,8,9,5,4,11,6"
14460,commdev-image-keyboard-response,405,766462,learnblock2,715.1000000238419,img/planet2_left.png,2,Community 2,NA,TRUE,f,f,NA,NA,NA,1,6,"7,1,12,3,14,2,10,13,15,8,9,5,4,11,6"
14460,commdev-image-keyboard-response,406,767713,learnblock2,631.6999999880791,img/planet15_right.png,15,Community 2,NA,TRUE,j,j,NA,NA,NA,1,6,"7,1,12,3,14,2,10,13,15,8,9,5,4,11,6"
14460,commdev-image-keyboard-response,407,768965,learnblock2,613,img/planet10_right.png,10,Community 2,NA,TRUE,j,j,NA,NA,NA,1,6,"7,1,12,3,14,2,10,13,15,8,9,5,4,11,6"
14460,commdev-image-keyboard-response,408,770215,learnblock2,961.1999999880791,img/planet2_right.png,2,Community 2,NA,TRUE,j,j,NA,NA,NA,1,6,"7,1,12,3,14,2,10,13,15,8,9,5,4,11,6"
14460,commdev-image-keyboard-response,409,771466,learnblock2,670.6999999880791,img/planet8_right.png,8,Community 2,NA,TRUE,j,j,NA,NA,NA,1,6,"7,1,12,3,14,2,10,13,15,8,9,5,4,11,6"
14460,commdev-image-keyboard-response,410,772718,learnblock2,668.1000000238419,img/planet15_right.png,15,Community 2,NA,TRUE,j,j,NA,NA,NA,1,6,"7,1,12,3,14,2,10,13,15,8,9,5,4,11,6"
14460,commdev-image-keyboard-response,411,773969,learnblock2,1127.8999999761581,img/planet2_right.png,2,Community 2,NA,TRUE,j,j,NA,NA,NA,1,6,"7,1,12,3,14,2,10,13,15,8,9,5,4,11,6"
14460,commdev-image-keyboard-response,412,775221,learnblock2,532.5,img/planet10_left.png,10,Community 2,NA,TRUE,f,f,NA,NA,NA,1,6,"7,1,12,3,14,2,10,13,15,8,9,5,4,11,6"
14460,commdev-image-keyboard-response,413,776472,learnblock2,624.6999999880791,img/planet8_right.png,8,Community 2,NA,TRUE,j,j,NA,NA,NA,1,6,"7,1,12,3,14,2,10,13,15,8,9,5,4,11,6"
14460,commdev-image-keyboard-response,414,777722,learnblock2,765.6000000238419,img/planet15_right.png,15,Community 2,NA,TRUE,j,j,NA,NA,NA,1,6,"7,1,12,3,14,2,10,13,15,8,9,5,4,11,6"
14460,commdev-image-keyboard-response,415,778975,learnblock2,731.3000000119209,img/planet8_left.png,8,Community 2,NA,TRUE,f,f,NA,NA,NA,1,6,"7,1,12,3,14,2,10,13,15,8,9,5,4,11,6"
14460,commdev-image-keyboard-response,416,780226,learnblock2,999.1999999880791,img/planet2_right.png,2,Community 2,NA,TRUE,j,j,NA,NA,NA,1,6,"7,1,12,3,14,2,10,13,15,8,9,5,4,11,6"
14460,commdev-image-keyboard-response,417,781477,learnblock2,771.6999999880791,img/planet10_left.png,10,Community 2,NA,TRUE,f,f,NA,NA,NA,1,6,"7,1,12,3,14,2,10,13,15,8,9,5,4,11,6"
14460,commdev-image-keyboard-response,418,782729,learnblock2,1072.8999999761581,img/planet8_left.png,8,Community 2,NA,FALSE,j,f,NA,NA,NA,1,6,"7,1,12,3,14,2,10,13,15,8,9,5,4,11,6"
14460,commdev-image-keyboard-response,419,783980,learnblock2,684.6999999880791,img/planet15_left.png,15,Community 2,NA,TRUE,f,f,NA,NA,NA,1,6,"7,1,12,3,14,2,10,13,15,8,9,5,4,11,6"
14460,commdev-image-keyboard-response,420,785244,learnblock2,841.5,img/planet8_left.png,8,Community 2,NA,TRUE,f,f,NA,NA,NA,1,6,"7,1,12,3,14,2,10,13,15,8,9,5,4,11,6"
14460,commdev-image-keyboard-response,421,786496,learnblock2,777.5,img/planet15_right.png,15,Community 2,NA,TRUE,j,j,NA,NA,NA,1,6,"7,1,12,3,14,2,10,13,15,8,9,5,4,11,6"
14460,commdev-image-keyboard-response,422,787747,learnblock2,661.6999999880791,img/planet10_left.png,10,Community 2,NA,TRUE,f,f,NA,NA,NA,1,6,"7,1,12,3,14,2,10,13,15,8,9,5,4,11,6"
14460,commdev-image-keyboard-response,423,788998,learnblock2,818.3000000119209,img/planet15_right.png,15,Community 2,NA,TRUE,j,j,NA,NA,NA,1,6,"7,1,12,3,14,2,10,13,15,8,9,5,4,11,6"
14460,commdev-image-keyboard-response,424,790250,learnblock2,911.8000000119209,img/planet8_left.png,8,Community 2,NA,TRUE,f,f,NA,NA,NA,1,6,"7,1,12,3,14,2,10,13,15,8,9,5,4,11,6"
14460,commdev-image-keyboard-response,425,791510,learnblock2,796.2000000476837,img/planet15_right.png,15,Community 2,NA,TRUE,j,j,NA,NA,NA,1,6,"7,1,12,3,14,2,10,13,15,8,9,5,4,11,6"
14460,commdev-image-keyboard-response,426,792761,learnblock2,767.6000000238419,img/planet13_left.png,13,Community 2,NA,TRUE,f,f,NA,NA,NA,1,6,"7,1,12,3,14,2,10,13,15,8,9,5,4,11,6"
14460,commdev-image-keyboard-response,427,794012,learnblock2,684.8999999761581,img/planet5_right.png,5,Community 3,NA,TRUE,j,j,NA,NA,NA,1,6,"7,1,12,3,14,2,10,13,15,8,9,5,4,11,6"
14460,commdev-image-keyboard-response,428,795263,learnblock2,729.3000000119209,img/planet11_right.png,11,Community 3,NA,TRUE,j,j,NA,NA,NA,1,6,"7,1,12,3,14,2,10,13,15,8,9,5,4,11,6"
14460,commdev-image-keyboard-response,429,796515,learnblock2,854.5999999642372,img/planet4_right.png,4,Community 3,NA,TRUE,j,j,NA,NA,NA,1,6,"7,1,12,3,14,2,10,13,15,8,9,5,4,11,6"
14460,commdev-image-keyboard-response,430,797766,learnblock2,722.3999999761581,img/planet6_left.png,6,Community 3,NA,TRUE,f,f,NA,NA,NA,1,6,"7,1,12,3,14,2,10,13,15,8,9,5,4,11,6"
14460,commdev-image-keyboard-response,431,799018,learnblock2,815.3999999761581,img/planet11_left.png,11,Community 3,NA,TRUE,f,f,NA,NA,NA,1,6,"7,1,12,3,14,2,10,13,15,8,9,5,4,11,6"
14460,commdev-image-keyboard-response,432,800269,learnblock2,827.1999999880791,img/planet9_right.png,9,Community 3,NA,TRUE,j,j,NA,NA,NA,1,6,"7,1,12,3,14,2,10,13,15,8,9,5,4,11,6"
14460,commdev-image-keyboard-response,433,801521,learnblock2,793.5,img/planet14_left.png,14,Community 1,NA,TRUE,f,f,NA,NA,NA,1,6,"7,1,12,3,14,2,10,13,15,8,9,5,4,11,6"
14460,commdev-image-keyboard-response,434,802773,learnblock2,660.3999999761581,img/planet9_left.png,9,Community 3,NA,TRUE,f,f,NA,NA,NA,1,6,"7,1,12,3,14,2,10,13,15,8,9,5,4,11,6"
14460,commdev-image-keyboard-response,435,804024,learnblock2,640.1999999880791,img/planet6_right.png,6,Community 3,NA,TRUE,j,j,NA,NA,NA,1,6,"7,1,12,3,14,2,10,13,15,8,9,5,4,11,6"
14460,commdev-image-keyboard-response,436,805276,learnblock2,652.9000000357628,img/planet4_left.png,4,Community 3,NA,TRUE,f,f,NA,NA,NA,1,6,"7,1,12,3,14,2,10,13,15,8,9,5,4,11,6"
14460,commdev-image-keyboard-response,437,806526,learnblock2,649.5,img/planet6_right.png,6,Community 3,NA,TRUE,j,j,NA,NA,NA,1,6,"7,1,12,3,14,2,10,13,15,8,9,5,4,11,6"
14460,commdev-image-keyboard-response,438,807777,learnblock2,647,img/planet9_left.png,9,Community 3,NA,TRUE,f,f,NA,NA,NA,1,6,"7,1,12,3,14,2,10,13,15,8,9,5,4,11,6"
14460,commdev-image-keyboard-response,439,809029,learnblock2,803.8999999761581,img/planet11_right.png,11,Community 3,NA,TRUE,j,j,NA,NA,NA,1,6,"7,1,12,3,14,2,10,13,15,8,9,5,4,11,6"
14460,commdev-image-keyboard-response,440,810280,learnblock2,624.1000000238419,img/planet4_right.png,4,Community 3,NA,TRUE,j,j,NA,NA,NA,1,6,"7,1,12,3,14,2,10,13,15,8,9,5,4,11,6"
14460,commdev-image-keyboard-response,441,811531,learnblock2,717.0999999642372,img/planet11_right.png,11,Community 3,NA,TRUE,j,j,NA,NA,NA,1,6,"7,1,12,3,14,2,10,13,15,8,9,5,4,11,6"
14460,commdev-image-keyboard-response,442,812782,learnblock2,713.9000000357628,img/planet6_left.png,6,Community 3,NA,TRUE,f,f,NA,NA,NA,1,6,"7,1,12,3,14,2,10,13,15,8,9,5,4,11,6"
14460,commdev-image-keyboard-response,443,814033,learnblock2,647.3999999761581,img/planet4_right.png,4,Community 3,NA,TRUE,j,j,NA,NA,NA,1,6,"7,1,12,3,14,2,10,13,15,8,9,5,4,11,6"
14460,commdev-image-keyboard-response,444,815284,learnblock2,708.2000000476837,img/planet9_right.png,9,Community 3,NA,TRUE,j,j,NA,NA,NA,1,6,"7,1,12,3,14,2,10,13,15,8,9,5,4,11,6"
14460,commdev-image-keyboard-response,445,816534,learnblock2,689.4000000357628,img/planet4_right.png,4,Community 3,NA,TRUE,j,j,NA,NA,NA,1,6,"7,1,12,3,14,2,10,13,15,8,9,5,4,11,6"
14460,commdev-image-keyboard-response,446,817797,learnblock2,623,img/planet9_left.png,9,Community 3,NA,TRUE,f,f,NA,NA,NA,1,6,"7,1,12,3,14,2,10,13,15,8,9,5,4,11,6"
14460,commdev-image-keyboard-response,447,819050,learnblock2,655.1000000238419,img/planet6_right.png,6,Community 3,NA,TRUE,j,j,NA,NA,NA,1,6,"7,1,12,3,14,2,10,13,15,8,9,5,4,11,6"
14460,commdev-image-keyboard-response,448,820301,learnblock2,682.9000000357628,img/planet4_right.png,4,Community 3,NA,TRUE,j,j,NA,NA,NA,1,6,"7,1,12,3,14,2,10,13,15,8,9,5,4,11,6"
14460,commdev-image-keyboard-response,449,821552,learnblock2,728.4000000357628,img/planet5_left.png,5,Community 3,NA,TRUE,f,f,NA,NA,NA,1,6,"7,1,12,3,14,2,10,13,15,8,9,5,4,11,6"
14460,commdev-image-keyboard-response,450,822803,learnblock2,581.4000000357628,img/planet13_left.png,13,Community 2,NA,TRUE,f,f,NA,NA,NA,1,6,"7,1,12,3,14,2,10,13,15,8,9,5,4,11,6"
14460,commdev-image-keyboard-response,451,824054,learnblock2,594.3999999761581,img/planet15_right.png,15,Community 2,NA,TRUE,j,j,NA,NA,NA,1,6,"7,1,12,3,14,2,10,13,15,8,9,5,4,11,6"
14460,commdev-image-keyboard-response,452,825306,learnblock2,942.8999999761581,img/planet10_right.png,10,Community 2,NA,TRUE,j,j,NA,NA,NA,1,6,"7,1,12,3,14,2,10,13,15,8,9,5,4,11,6"
14460,commdev-image-keyboard-response,453,826557,learnblock2,619.5999999642372,img/planet8_left.png,8,Community 2,NA,TRUE,f,f,NA,NA,NA,1,6,"7,1,12,3,14,2,10,13,15,8,9,5,4,11,6"
14460,commdev-image-keyboard-response,454,827808,learnblock2,567.6999999880791,img/planet15_left.png,15,Community 2,NA,TRUE,f,f,NA,NA,NA,1,6,"7,1,12,3,14,2,10,13,15,8,9,5,4,11,6"
14460,commdev-image-keyboard-response,455,829059,learnblock2,644.8000000119209,img/planet13_left.png,13,Community 2,NA,TRUE,f,f,NA,NA,NA,1,6,"7,1,12,3,14,2,10,13,15,8,9,5,4,11,6"
14460,commdev-image-keyboard-response,456,830310,learnblock2,625.3000000119209,img/planet15_left.png,15,Community 2,NA,TRUE,f,f,NA,NA,NA,1,6,"7,1,12,3,14,2,10,13,15,8,9,5,4,11,6"
14460,commdev-image-keyboard-response,457,831561,learnblock2,638.3999999761581,img/planet8_right.png,8,Community 2,NA,TRUE,j,j,NA,NA,NA,1,6,"7,1,12,3,14,2,10,13,15,8,9,5,4,11,6"
14460,commdev-image-keyboard-response,458,832811,learnblock2,812,img/planet10_right.png,10,Community 2,NA,TRUE,j,j,NA,NA,NA,1,6,"7,1,12,3,14,2,10,13,15,8,9,5,4,11,6"
14460,commdev-image-keyboard-response,459,834063,learnblock2,713.6000000238419,img/planet8_right.png,8,Community 2,NA,TRUE,j,j,NA,NA,NA,1,6,"7,1,12,3,14,2,10,13,15,8,9,5,4,11,6"
14460,commdev-image-keyboard-response,460,835315,learnblock2,933.8000000119209,img/planet13_left.png,13,Community 2,NA,TRUE,f,f,NA,NA,NA,1,6,"7,1,12,3,14,2,10,13,15,8,9,5,4,11,6"
14460,commdev-image-keyboard-response,461,836566,learnblock2,946,img/planet15_right.png,15,Community 2,NA,TRUE,j,j,NA,NA,NA,1,6,"7,1,12,3,14,2,10,13,15,8,9,5,4,11,6"
14460,commdev-image-keyboard-response,462,837817,learnblock2,1022.6000000238419,img/planet2_right.png,2,Community 2,NA,TRUE,j,j,NA,NA,NA,1,6,"7,1,12,3,14,2,10,13,15,8,9,5,4,11,6"
14460,commdev-image-keyboard-response,463,839069,learnblock2,747.8999999761581,img/planet8_left.png,8,Community 2,NA,TRUE,f,f,NA,NA,NA,1,6,"7,1,12,3,14,2,10,13,15,8,9,5,4,11,6"
14460,commdev-image-keyboard-response,464,840319,learnblock2,663.5,img/planet13_left.png,13,Community 2,NA,TRUE,f,f,NA,NA,NA,1,6,"7,1,12,3,14,2,10,13,15,8,9,5,4,11,6"
14460,commdev-image-keyboard-response,465,841570,learnblock2,709.2000000476837,img/planet8_right.png,8,Community 2,NA,TRUE,j,j,NA,NA,NA,1,6,"7,1,12,3,14,2,10,13,15,8,9,5,4,11,6"
14460,commdev-image-keyboard-response,466,842821,learnblock2,706.3999999761581,img/planet10_right.png,10,Community 2,NA,TRUE,j,j,NA,NA,NA,1,6,"7,1,12,3,14,2,10,13,15,8,9,5,4,11,6"
14460,commdev-image-keyboard-response,467,844073,learnblock2,799.1000000238419,img/planet15_left.png,15,Community 2,NA,TRUE,f,f,NA,NA,NA,1,6,"7,1,12,3,14,2,10,13,15,8,9,5,4,11,6"
14460,commdev-image-keyboard-response,468,845324,learnblock2,715.4000000357628,img/planet8_right.png,8,Community 2,NA,TRUE,j,j,NA,NA,NA,1,6,"7,1,12,3,14,2,10,13,15,8,9,5,4,11,6"
14460,commdev-image-keyboard-response,469,846575,learnblock2,728.5,img/planet13_right.png,13,Community 2,NA,TRUE,j,j,NA,NA,NA,1,6,"7,1,12,3,14,2,10,13,15,8,9,5,4,11,6"
14460,commdev-image-keyboard-response,470,847826,learnblock2,821.5,img/planet8_left.png,8,Community 2,NA,TRUE,f,f,NA,NA,NA,1,6,"7,1,12,3,14,2,10,13,15,8,9,5,4,11,6"
14460,commdev-image-keyboard-response,471,849083,learnblock2,754.5999999642372,img/planet13_right.png,13,Community 2,NA,TRUE,j,j,NA,NA,NA,1,6,"7,1,12,3,14,2,10,13,15,8,9,5,4,11,6"
14460,commdev-image-keyboard-response,472,850335,learnblock2,761.6000000238419,img/planet8_left.png,8,Community 2,NA,TRUE,f,f,NA,NA,NA,1,6,"7,1,12,3,14,2,10,13,15,8,9,5,4,11,6"
14460,commdev-image-keyboard-response,473,851586,learnblock2,709.3999999761581,img/planet10_right.png,10,Community 2,NA,TRUE,j,j,NA,NA,NA,1,6,"7,1,12,3,14,2,10,13,15,8,9,5,4,11,6"
14460,commdev-image-keyboard-response,474,852837,learnblock2,818.0999999642372,img/planet15_left.png,15,Community 2,NA,TRUE,f,f,NA,NA,NA,1,6,"7,1,12,3,14,2,10,13,15,8,9,5,4,11,6"
14460,commdev-image-keyboard-response,475,854089,learnblock2,655.1999999880791,img/planet10_right.png,10,Community 2,NA,TRUE,j,j,NA,NA,NA,1,6,"7,1,12,3,14,2,10,13,15,8,9,5,4,11,6"
14460,commdev-image-keyboard-response,476,855341,learnblock2,619.5,img/planet8_left.png,8,Community 2,NA,TRUE,f,f,NA,NA,NA,1,6,"7,1,12,3,14,2,10,13,15,8,9,5,4,11,6"
14460,commdev-image-keyboard-response,477,856592,learnblock2,583.1000000238419,img/planet10_right.png,10,Community 2,NA,TRUE,j,j,NA,NA,NA,1,6,"7,1,12,3,14,2,10,13,15,8,9,5,4,11,6"
14460,commdev-image-keyboard-response,478,857843,learnblock2,612.8000000119209,img/planet8_left.png,8,Community 2,NA,TRUE,f,f,NA,NA,NA,1,6,"7,1,12,3,14,2,10,13,15,8,9,5,4,11,6"
14460,commdev-image-keyboard-response,479,859095,learnblock2,576.8000000119209,img/planet2_right.png,2,Community 2,NA,TRUE,j,j,NA,NA,NA,1,6,"7,1,12,3,14,2,10,13,15,8,9,5,4,11,6"
14460,commdev-image-keyboard-response,480,860346,learnblock2,798,img/planet8_right.png,8,Community 2,NA,TRUE,j,j,NA,NA,NA,1,6,"7,1,12,3,14,2,10,13,15,8,9,5,4,11,6"
14460,commdev-image-keyboard-response,481,861597,learnblock2,714.5,img/planet13_right.png,13,Community 2,NA,TRUE,j,j,NA,NA,NA,1,6,"7,1,12,3,14,2,10,13,15,8,9,5,4,11,6"
14460,commdev-image-keyboard-response,482,862848,learnblock2,663.8000000119209,img/planet10_left.png,10,Community 2,NA,TRUE,f,f,NA,NA,NA,1,6,"7,1,12,3,14,2,10,13,15,8,9,5,4,11,6"
14460,commdev-image-keyboard-response,483,864099,learnblock2,772.8999999761581,img/planet15_left.png,15,Community 2,NA,TRUE,f,f,NA,NA,NA,1,6,"7,1,12,3,14,2,10,13,15,8,9,5,4,11,6"
14460,commdev-image-keyboard-response,484,865350,learnblock2,705.1999999880791,img/planet2_right.png,2,Community 2,NA,TRUE,j,j,NA,NA,NA,1,6,"7,1,12,3,14,2,10,13,15,8,9,5,4,11,6"
14460,commdev-image-keyboard-response,485,866601,learnblock2,734.5,img/planet3_left.png,3,Community 1,NA,TRUE,f,f,NA,NA,NA,1,6,"7,1,12,3,14,2,10,13,15,8,9,5,4,11,6"
14460,commdev-image-keyboard-response,486,867853,learnblock2,667.5,img/planet1_left.png,1,Community 1,NA,TRUE,f,f,NA,NA,NA,1,6,"7,1,12,3,14,2,10,13,15,8,9,5,4,11,6"
14460,commdev-image-keyboard-response,487,869104,learnblock2,1015.6000000238419,img/planet12_left.png,12,Community 1,NA,TRUE,f,f,NA,NA,NA,1,6,"7,1,12,3,14,2,10,13,15,8,9,5,4,11,6"
14460,commdev-image-keyboard-response,488,870355,learnblock2,852,img/planet3_left.png,3,Community 1,NA,TRUE,f,f,NA,NA,NA,1,6,"7,1,12,3,14,2,10,13,15,8,9,5,4,11,6"
14460,commdev-image-keyboard-response,489,871607,learnblock2,688.6000000238419,img/planet12_right.png,12,Community 1,NA,TRUE,j,j,NA,NA,NA,1,6,"7,1,12,3,14,2,10,13,15,8,9,5,4,11,6"
14460,commdev-image-keyboard-response,490,872859,learnblock2,732.6999999880791,img/planet14_left.png,14,Community 1,NA,TRUE,f,f,NA,NA,NA,1,6,"7,1,12,3,14,2,10,13,15,8,9,5,4,11,6"
14460,commdev-image-keyboard-response,491,874110,learnblock2,713.1000000238419,img/planet7_left.png,7,Community 1,NA,TRUE,f,f,NA,NA,NA,1,6,"7,1,12,3,14,2,10,13,15,8,9,5,4,11,6"
14460,commdev-image-keyboard-response,492,875361,learnblock2,805.8999999761581,img/planet3_left.png,3,Community 1,NA,TRUE,f,f,NA,NA,NA,1,6,"7,1,12,3,14,2,10,13,15,8,9,5,4,11,6"
14460,commdev-image-keyboard-response,493,876613,learnblock2,643.0999999642372,img/planet1_left.png,1,Community 1,NA,TRUE,f,f,NA,NA,NA,1,6,"7,1,12,3,14,2,10,13,15,8,9,5,4,11,6"
14460,commdev-image-keyboard-response,494,877864,learnblock2,575.1999999880791,img/planet7_right.png,7,Community 1,NA,TRUE,j,j,NA,NA,NA,1,6,"7,1,12,3,14,2,10,13,15,8,9,5,4,11,6"
14460,commdev-image-keyboard-response,495,879116,learnblock2,667.6999999880791,img/planet3_left.png,3,Community 1,NA,TRUE,f,f,NA,NA,NA,1,6,"7,1,12,3,14,2,10,13,15,8,9,5,4,11,6"
14460,commdev-image-keyboard-response,496,880366,learnblock2,808.1999999880791,img/planet12_left.png,12,Community 1,NA,TRUE,f,f,NA,NA,NA,1,6,"7,1,12,3,14,2,10,13,15,8,9,5,4,11,6"
14460,commdev-image-keyboard-response,497,881617,learnblock2,854.6999999880791,img/planet7_right.png,7,Community 1,NA,TRUE,j,j,NA,NA,NA,1,6,"7,1,12,3,14,2,10,13,15,8,9,5,4,11,6"
14460,commdev-image-keyboard-response,498,882868,learnblock2,1027.5,img/planet12_right.png,12,Community 1,NA,TRUE,j,j,NA,NA,NA,1,6,"7,1,12,3,14,2,10,13,15,8,9,5,4,11,6"
14460,commdev-image-keyboard-response,499,884120,learnblock2,1056.3999999761581,img/planet14_right.png,14,Community 1,NA,TRUE,j,j,NA,NA,NA,1,6,"7,1,12,3,14,2,10,13,15,8,9,5,4,11,6"
14460,commdev-image-keyboard-response,500,885372,learnblock2,796.5999999642372,img/planet7_right.png,7,Community 1,NA,TRUE,j,j,NA,NA,NA,1,6,"7,1,12,3,14,2,10,13,15,8,9,5,4,11,6"
14460,commdev-image-keyboard-response,501,886623,learnblock2,792.6000000238419,img/planet14_right.png,14,Community 1,NA,TRUE,j,j,NA,NA,NA,1,6,"7,1,12,3,14,2,10,13,15,8,9,5,4,11,6"
14460,commdev-image-keyboard-response,502,887874,learnblock2,916.5999999642372,img/planet9_right.png,9,Community 3,NA,TRUE,j,j,NA,NA,NA,1,6,"7,1,12,3,14,2,10,13,15,8,9,5,4,11,6"
14460,commdev-image-keyboard-response,503,889125,learnblock2,865.3999999761581,img/planet14_left.png,14,Community 1,NA,TRUE,f,f,NA,NA,NA,1,6,"7,1,12,3,14,2,10,13,15,8,9,5,4,11,6"
14460,commdev-image-keyboard-response,504,890377,learnblock2,734.6000000238419,img/planet1_right.png,1,Community 1,NA,TRUE,j,j,NA,NA,NA,1,6,"7,1,12,3,14,2,10,13,15,8,9,5,4,11,6"
14460,commdev-image-keyboard-response,505,891628,learnblock2,859,img/planet12_left.png,12,Community 1,NA,TRUE,f,f,NA,NA,NA,1,6,"7,1,12,3,14,2,10,13,15,8,9,5,4,11,6"
14460,commdev-image-keyboard-response,506,892881,learnblock2,807.4000000357628,img/planet7_left.png,7,Community 1,NA,TRUE,f,f,NA,NA,NA,1,6,"7,1,12,3,14,2,10,13,15,8,9,5,4,11,6"
14460,commdev-image-keyboard-response,507,894144,learnblock2,627.5,img/planet3_right.png,3,Community 1,NA,TRUE,j,j,NA,NA,NA,1,6,"7,1,12,3,14,2,10,13,15,8,9,5,4,11,6"
14460,commdev-image-keyboard-response,508,895395,learnblock2,659.1999999880791,img/planet2_right.png,2,Community 2,NA,TRUE,j,j,NA,NA,NA,1,6,"7,1,12,3,14,2,10,13,15,8,9,5,4,11,6"
14460,commdev-image-keyboard-response,509,896646,learnblock2,816.6000000238419,img/planet15_right.png,15,Community 2,NA,TRUE,j,j,NA,NA,NA,1,6,"7,1,12,3,14,2,10,13,15,8,9,5,4,11,6"
14460,commdev-image-keyboard-response,510,897897,learnblock2,716.7999999523163,img/planet2_left.png,2,Community 2,NA,TRUE,f,f,NA,NA,NA,1,6,"7,1,12,3,14,2,10,13,15,8,9,5,4,11,6"
14460,commdev-image-keyboard-response,511,899148,learnblock2,810.6999999880791,img/planet8_left.png,8,Community 2,NA,TRUE,f,f,NA,NA,NA,1,6,"7,1,12,3,14,2,10,13,15,8,9,5,4,11,6"
14460,commdev-image-keyboard-response,512,900399,learnblock2,775.8999999761581,img/planet15_left.png,15,Community 2,NA,TRUE,f,f,NA,NA,NA,1,6,"7,1,12,3,14,2,10,13,15,8,9,5,4,11,6"
14460,commdev-image-keyboard-response,513,901651,learnblock2,627.8000000119209,img/planet2_right.png,2,Community 2,NA,TRUE,j,j,NA,NA,NA,1,6,"7,1,12,3,14,2,10,13,15,8,9,5,4,11,6"
14460,commdev-image-keyboard-response,514,902902,learnblock2,641,img/planet10_left.png,10,Community 2,NA,FALSE,j,f,NA,NA,NA,1,6,"7,1,12,3,14,2,10,13,15,8,9,5,4,11,6"
14460,commdev-image-keyboard-response,515,904152,learnblock2,1101.9000000357628,img/planet2_left.png,2,Community 2,NA,TRUE,f,f,NA,NA,NA,1,6,"7,1,12,3,14,2,10,13,15,8,9,5,4,11,6"
14460,commdev-image-keyboard-response,516,905403,learnblock2,1051.5,img/planet10_right.png,10,Community 2,NA,TRUE,j,j,NA,NA,NA,1,6,"7,1,12,3,14,2,10,13,15,8,9,5,4,11,6"
14460,commdev-image-keyboard-response,517,906655,learnblock2,936.3999999761581,img/planet15_right.png,15,Community 2,NA,TRUE,j,j,NA,NA,NA,1,6,"7,1,12,3,14,2,10,13,15,8,9,5,4,11,6"
14460,commdev-image-keyboard-response,518,907912,learnblock2,821.3000000119209,img/planet2_right.png,2,Community 2,NA,TRUE,j,j,NA,NA,NA,1,6,"7,1,12,3,14,2,10,13,15,8,9,5,4,11,6"
14460,commdev-image-keyboard-response,519,909163,learnblock2,636,img/planet3_left.png,3,Community 1,NA,TRUE,f,f,NA,NA,NA,1,6,"7,1,12,3,14,2,10,13,15,8,9,5,4,11,6"
14460,commdev-image-keyboard-response,520,910414,learnblock2,809,img/planet2_left.png,2,Community 2,NA,TRUE,f,f,NA,NA,NA,1,6,"7,1,12,3,14,2,10,13,15,8,9,5,4,11,6"
14460,commdev-image-keyboard-response,521,911664,learnblock2,853.6000000238419,img/planet3_left.png,3,Community 1,NA,TRUE,f,f,NA,NA,NA,1,6,"7,1,12,3,14,2,10,13,15,8,9,5,4,11,6"
14460,commdev-image-keyboard-response,522,912916,learnblock2,1075.199999988079,img/planet7_right.png,7,Community 1,NA,TRUE,j,j,NA,NA,NA,1,6,"7,1,12,3,14,2,10,13,15,8,9,5,4,11,6"
14460,commdev-image-keyboard-response,523,914168,learnblock2,1248.1000000238419,img/planet12_left.png,12,Community 1,NA,TRUE,f,f,NA,NA,NA,1,6,"7,1,12,3,14,2,10,13,15,8,9,5,4,11,6"
14460,commdev-image-keyboard-response,524,915419,learnblock2,940.1000000238419,img/planet14_right.png,14,Community 1,NA,TRUE,j,j,NA,NA,NA,1,6,"7,1,12,3,14,2,10,13,15,8,9,5,4,11,6"
14460,commdev-image-keyboard-response,525,916670,learnblock2,728.1000000238419,img/planet9_left.png,9,Community 3,NA,TRUE,f,f,NA,NA,NA,1,6,"7,1,12,3,14,2,10,13,15,8,9,5,4,11,6"
14460,commdev-image-keyboard-response,526,917921,learnblock2,773.6999999880791,img/planet14_left.png,14,Community 1,NA,TRUE,f,f,NA,NA,NA,1,6,"7,1,12,3,14,2,10,13,15,8,9,5,4,11,6"
14460,commdev-image-keyboard-response,527,919172,learnblock2,610.1999999880791,img/planet9_right.png,9,Community 3,NA,TRUE,j,j,NA,NA,NA,1,6,"7,1,12,3,14,2,10,13,15,8,9,5,4,11,6"
14460,commdev-image-keyboard-response,528,920423,learnblock2,655.3000000119209,img/planet14_right.png,14,Community 1,NA,TRUE,j,j,NA,NA,NA,1,6,"7,1,12,3,14,2,10,13,15,8,9,5,4,11,6"
14460,commdev-image-keyboard-response,529,921674,learnblock2,652.6000000238419,img/planet7_left.png,7,Community 1,NA,TRUE,f,f,NA,NA,NA,1,6,"7,1,12,3,14,2,10,13,15,8,9,5,4,11,6"
14460,commdev-image-keyboard-response,530,922926,learnblock2,1033.300000011921,img/planet12_left.png,12,Community 1,NA,TRUE,f,f,NA,NA,NA,1,6,"7,1,12,3,14,2,10,13,15,8,9,5,4,11,6"
14460,commdev-image-keyboard-response,531,924177,learnblock2,820.8000000119209,img/planet1_left.png,1,Community 1,NA,TRUE,f,f,NA,NA,NA,1,6,"7,1,12,3,14,2,10,13,15,8,9,5,4,11,6"
14460,commdev-image-keyboard-response,532,925428,learnblock2,834.3000000119209,img/planet7_left.png,7,Community 1,NA,TRUE,f,f,NA,NA,NA,1,6,"7,1,12,3,14,2,10,13,15,8,9,5,4,11,6"
14460,commdev-image-keyboard-response,533,926679,learnblock2,702.8999999761581,img/planet12_left.png,12,Community 1,NA,TRUE,f,f,NA,NA,NA,1,6,"7,1,12,3,14,2,10,13,15,8,9,5,4,11,6"
14460,commdev-image-keyboard-response,534,927930,learnblock2,620.1999999880791,img/planet1_right.png,1,Community 1,NA,TRUE,j,j,NA,NA,NA,1,6,"7,1,12,3,14,2,10,13,15,8,9,5,4,11,6"
14460,commdev-image-keyboard-response,535,929189,learnblock2,697.2000000476837,img/planet3_left.png,3,Community 1,NA,TRUE,f,f,NA,NA,NA,1,6,"7,1,12,3,14,2,10,13,15,8,9,5,4,11,6"
14460,commdev-image-keyboard-response,536,930441,learnblock2,798.6000000238419,img/planet12_left.png,12,Community 1,NA,TRUE,f,f,NA,NA,NA,1,6,"7,1,12,3,14,2,10,13,15,8,9,5,4,11,6"
14460,commdev-image-keyboard-response,537,931692,learnblock2,778.5,img/planet7_left.png,7,Community 1,NA,TRUE,f,f,NA,NA,NA,1,6,"7,1,12,3,14,2,10,13,15,8,9,5,4,11,6"
14460,commdev-image-keyboard-response,538,932943,learnblock2,775.5,img/planet3_left.png,3,Community 1,NA,TRUE,f,f,NA,NA,NA,1,6,"7,1,12,3,14,2,10,13,15,8,9,5,4,11,6"
14460,commdev-image-keyboard-response,539,934195,learnblock2,659.8999999761581,img/planet12_right.png,12,Community 1,NA,TRUE,j,j,NA,NA,NA,1,6,"7,1,12,3,14,2,10,13,15,8,9,5,4,11,6"
14460,commdev-image-keyboard-response,540,935446,learnblock2,704.0999999642372,img/planet3_left.png,3,Community 1,NA,TRUE,f,f,NA,NA,NA,1,6,"7,1,12,3,14,2,10,13,15,8,9,5,4,11,6"
14460,commdev-image-keyboard-response,541,936697,learnblock2,732.9000000357628,img/planet12_left.png,12,Community 1,NA,TRUE,f,f,NA,NA,NA,1,6,"7,1,12,3,14,2,10,13,15,8,9,5,4,11,6"
14460,commdev-image-keyboard-response,542,937947,learnblock2,778.2000000476837,img/planet3_left.png,3,Community 1,NA,TRUE,f,f,NA,NA,NA,1,6,"7,1,12,3,14,2,10,13,15,8,9,5,4,11,6"
14460,commdev-image-keyboard-response,543,939198,learnblock2,1144,img/planet2_left.png,2,Community 2,NA,TRUE,f,f,NA,NA,NA,1,6,"7,1,12,3,14,2,10,13,15,8,9,5,4,11,6"
14460,commdev-image-keyboard-response,544,940450,learnblock2,740.9000000357628,img/planet15_right.png,15,Community 2,NA,TRUE,j,j,NA,NA,NA,1,6,"7,1,12,3,14,2,10,13,15,8,9,5,4,11,6"
14460,commdev-image-keyboard-response,545,941701,learnblock2,865.4000000357628,img/planet10_right.png,10,Community 2,NA,TRUE,j,j,NA,NA,NA,1,6,"7,1,12,3,14,2,10,13,15,8,9,5,4,11,6"
14460,commdev-image-keyboard-response,546,942953,learnblock2,846.6000000238419,img/planet15_left.png,15,Community 2,NA,TRUE,f,f,NA,NA,NA,1,6,"7,1,12,3,14,2,10,13,15,8,9,5,4,11,6"
14460,commdev-image-keyboard-response,547,944203,learnblock2,618.1000000238419,img/planet8_right.png,8,Community 2,NA,TRUE,j,j,NA,NA,NA,1,6,"7,1,12,3,14,2,10,13,15,8,9,5,4,11,6"
14460,commdev-image-keyboard-response,548,945455,learnblock2,823.5,img/planet13_right.png,13,Community 2,NA,TRUE,j,j,NA,NA,NA,1,6,"7,1,12,3,14,2,10,13,15,8,9,5,4,11,6"
14460,commdev-image-keyboard-response,549,946706,learnblock2,660.1999999880791,img/planet5_right.png,5,Community 3,NA,TRUE,j,j,NA,NA,NA,1,6,"7,1,12,3,14,2,10,13,15,8,9,5,4,11,6"
14460,commdev-image-keyboard-response,550,947958,learnblock2,640.5,img/planet4_left.png,4,Community 3,NA,TRUE,f,f,NA,NA,NA,1,6,"7,1,12,3,14,2,10,13,15,8,9,5,4,11,6"
14460,commdev-image-keyboard-response,551,949209,learnblock2,669.1999999880791,img/planet11_left.png,11,Community 3,NA,TRUE,f,f,NA,NA,NA,1,6,"7,1,12,3,14,2,10,13,15,8,9,5,4,11,6"
14460,commdev-image-keyboard-response,552,950460,learnblock2,794.3999999761581,img/planet5_right.png,5,Community 3,NA,TRUE,j,j,NA,NA,NA,1,6,"7,1,12,3,14,2,10,13,15,8,9,5,4,11,6"
14460,commdev-image-keyboard-response,553,951711,learnblock2,646.6999999880791,img/planet13_left.png,13,Community 2,NA,TRUE,f,f,NA,NA,NA,1,6,"7,1,12,3,14,2,10,13,15,8,9,5,4,11,6"
14460,commdev-image-keyboard-response,554,952962,learnblock2,754.8999999761581,img/planet5_right.png,5,Community 3,NA,TRUE,j,j,NA,NA,NA,1,6,"7,1,12,3,14,2,10,13,15,8,9,5,4,11,6"
14460,commdev-image-keyboard-response,555,954213,learnblock2,640.3000000119209,img/planet6_left.png,6,Community 3,NA,TRUE,f,f,NA,NA,NA,1,6,"7,1,12,3,14,2,10,13,15,8,9,5,4,11,6"
14460,commdev-image-keyboard-response,556,955464,learnblock2,749.3000000119209,img/planet11_left.png,11,Community 3,NA,TRUE,f,f,NA,NA,NA,1,6,"7,1,12,3,14,2,10,13,15,8,9,5,4,11,6"
14460,commdev-image-keyboard-response,557,956716,learnblock2,730.6000000238419,img/planet4_right.png,4,Community 3,NA,TRUE,j,j,NA,NA,NA,1,6,"7,1,12,3,14,2,10,13,15,8,9,5,4,11,6"
14460,commdev-image-keyboard-response,558,957968,learnblock2,998.6999999880791,img/planet9_right.png,9,Community 3,NA,TRUE,j,j,NA,NA,NA,1,6,"7,1,12,3,14,2,10,13,15,8,9,5,4,11,6"
14460,commdev-image-keyboard-response,559,959219,learnblock2,739,img/planet14_right.png,14,Community 1,NA,TRUE,j,j,NA,NA,NA,1,6,"7,1,12,3,14,2,10,13,15,8,9,5,4,11,6"
14460,commdev-image-keyboard-response,560,960471,learnblock2,671.4000000357628,img/planet9_left.png,9,Community 3,NA,TRUE,f,f,NA,NA,NA,1,6,"7,1,12,3,14,2,10,13,15,8,9,5,4,11,6"
14460,commdev-image-keyboard-response,561,961722,learnblock2,587.6000000238419,img/planet4_right.png,4,Community 3,NA,TRUE,j,j,NA,NA,NA,1,6,"7,1,12,3,14,2,10,13,15,8,9,5,4,11,6"
14460,commdev-image-keyboard-response,562,962973,learnblock2,712.9000000357628,img/planet11_right.png,11,Community 3,NA,TRUE,j,j,NA,NA,NA,1,6,"7,1,12,3,14,2,10,13,15,8,9,5,4,11,6"
14460,commdev-image-keyboard-response,563,964224,learnblock2,534.0999999642372,img/planet9_left.png,9,Community 3,NA,TRUE,f,f,NA,NA,NA,1,6,"7,1,12,3,14,2,10,13,15,8,9,5,4,11,6"
14460,commdev-image-keyboard-response,564,965476,learnblock2,546.8000000119209,img/planet4_right.png,4,Community 3,NA,TRUE,j,j,NA,NA,NA,1,6,"7,1,12,3,14,2,10,13,15,8,9,5,4,11,6"
14460,commdev-image-keyboard-response,565,966728,learnblock2,542.7000000476837,img/planet11_left.png,11,Community 3,NA,TRUE,f,f,NA,NA,NA,1,6,"7,1,12,3,14,2,10,13,15,8,9,5,4,11,6"
14460,commdev-image-keyboard-response,566,967978,learnblock2,603.3000000119209,img/planet5_right.png,5,Community 3,NA,TRUE,j,j,NA,NA,NA,1,6,"7,1,12,3,14,2,10,13,15,8,9,5,4,11,6"
14460,commdev-image-keyboard-response,567,969234,learnblock2,568.5,img/planet13_left.png,13,Community 2,NA,TRUE,f,f,NA,NA,NA,1,6,"7,1,12,3,14,2,10,13,15,8,9,5,4,11,6"
14460,commdev-image-keyboard-response,568,970485,learnblock2,848.2999999523163,img/planet5_left.png,5,Community 3,NA,TRUE,f,f,NA,NA,NA,1,6,"7,1,12,3,14,2,10,13,15,8,9,5,4,11,6"
14460,commdev-image-keyboard-response,569,971737,learnblock2,573.2000000476837,img/planet13_left.png,13,Community 2,NA,TRUE,f,f,NA,NA,NA,1,6,"7,1,12,3,14,2,10,13,15,8,9,5,4,11,6"
14460,commdev-image-keyboard-response,570,972988,learnblock2,793.8000000119209,img/planet15_left.png,15,Community 2,NA,TRUE,f,f,NA,NA,NA,1,6,"7,1,12,3,14,2,10,13,15,8,9,5,4,11,6"
14460,commdev-image-keyboard-response,571,974239,learnblock2,678.9000000357628,img/planet8_right.png,8,Community 2,NA,TRUE,j,j,NA,NA,NA,1,6,"7,1,12,3,14,2,10,13,15,8,9,5,4,11,6"
14460,commdev-image-keyboard-response,572,975494,learnblock2,563.8000000119209,img/planet13_right.png,13,Community 2,NA,TRUE,j,j,NA,NA,NA,1,6,"7,1,12,3,14,2,10,13,15,8,9,5,4,11,6"
14460,commdev-image-keyboard-response,573,976746,learnblock2,700.1999999880791,img/planet5_left.png,5,Community 3,NA,TRUE,f,f,NA,NA,NA,1,6,"7,1,12,3,14,2,10,13,15,8,9,5,4,11,6"
14460,commdev-image-keyboard-response,574,977997,learnblock2,665.1000000238419,img/planet11_left.png,11,Community 3,NA,TRUE,f,f,NA,NA,NA,1,6,"7,1,12,3,14,2,10,13,15,8,9,5,4,11,6"
14460,commdev-image-keyboard-response,575,979247,learnblock2,757.8000000119209,img/planet9_right.png,9,Community 3,NA,TRUE,j,j,NA,NA,NA,1,6,"7,1,12,3,14,2,10,13,15,8,9,5,4,11,6"
14460,commdev-image-keyboard-response,576,980499,learnblock2,818.9000000357628,img/planet4_right.png,4,Community 3,NA,TRUE,j,j,NA,NA,NA,1,6,"7,1,12,3,14,2,10,13,15,8,9,5,4,11,6"
14460,commdev-image-keyboard-response,577,981750,learnblock2,623.8000000119209,img/planet11_right.png,11,Community 3,NA,TRUE,j,j,NA,NA,NA,1,6,"7,1,12,3,14,2,10,13,15,8,9,5,4,11,6"
14460,commdev-image-keyboard-response,578,983001,learnblock2,572.5,img/planet9_right.png,9,Community 3,NA,TRUE,j,j,NA,NA,NA,1,6,"7,1,12,3,14,2,10,13,15,8,9,5,4,11,6"
14460,commdev-image-keyboard-response,579,984251,learnblock2,521.8000000119209,img/planet11_left.png,11,Community 3,NA,TRUE,f,f,NA,NA,NA,1,6,"7,1,12,3,14,2,10,13,15,8,9,5,4,11,6"
14460,commdev-image-keyboard-response,580,985503,learnblock2,550.9000000357628,img/planet4_left.png,4,Community 3,NA,TRUE,f,f,NA,NA,NA,1,6,"7,1,12,3,14,2,10,13,15,8,9,5,4,11,6"
14460,commdev-image-keyboard-response,581,986754,learnblock2,579.1999999880791,img/planet5_right.png,5,Community 3,NA,TRUE,j,j,NA,NA,NA,1,6,"7,1,12,3,14,2,10,13,15,8,9,5,4,11,6"
14460,commdev-image-keyboard-response,582,988006,learnblock2,640.1000000238419,img/planet4_left.png,4,Community 3,NA,TRUE,f,f,NA,NA,NA,1,6,"7,1,12,3,14,2,10,13,15,8,9,5,4,11,6"
14460,commdev-image-keyboard-response,583,989256,learnblock2,556.9000000357628,img/planet11_right.png,11,Community 3,NA,TRUE,j,j,NA,NA,NA,1,6,"7,1,12,3,14,2,10,13,15,8,9,5,4,11,6"
14460,commdev-image-keyboard-response,584,990508,learnblock2,682.1000000238419,img/planet6_right.png,6,Community 3,NA,TRUE,j,j,NA,NA,NA,1,6,"7,1,12,3,14,2,10,13,15,8,9,5,4,11,6"
14460,commdev-image-keyboard-response,585,991759,learnblock2,646.3000000119209,img/planet5_left.png,5,Community 3,NA,TRUE,f,f,NA,NA,NA,1,6,"7,1,12,3,14,2,10,13,15,8,9,5,4,11,6"
14460,commdev-image-keyboard-response,586,993010,learnblock2,642.8000000119209,img/planet6_left.png,6,Community 3,NA,TRUE,f,f,NA,NA,NA,1,6,"7,1,12,3,14,2,10,13,15,8,9,5,4,11,6"
