subject_id,trial_type,trial_index,time_elapsed,block,rt,stimulus,planet,community,response,correct,key_press,learning_correct_response,parse,init_locations,final_locations,browser_interactions,num_comp,planet_map
14151,commdev-instructions,7,33892,NA,1983.6000000238419,"<p>In this game, you are a scientist on board a space shuttle. </p><p> On each mission, you will visit planets all across the universe.</p><img src=""img/controlroom.jpg"" width=300vw>",NA,NA,NA,NA,NA,NA,NA,NA,NA,1,6,"7,3,11,12,6,13,8,10,9,4,14,2,1,5,15"
14151,commdev-instructions,8,37570,NA,1612.699999988079,"<p>Here are a few planets you might see:</p><img src=""img/practice1.png"" width=200vw><img src=""img/practice2.png"" width=200vw><img src=""img/practice3.png"" width=200vw>",NA,NA,NA,NA,NA,NA,NA,NA,NA,1,6,"7,3,11,12,6,13,8,10,9,4,14,2,1,5,15"
14151,commdev-instructions,9,46196,NA,1219.199999988079,"<p>Your job as a scientist is to record which direction the winds are moving on each planet.</p><p>There are two types of wind directions:</p><img src=""img/practice1_left.png"" width=200vw><img src=""img/practice1_right.png"" width=200vw>",NA,NA,NA,NA,NA,NA,NA,NA,NA,1,6,"7,3,11,12,6,13,8,10,9,4,14,2,1,5,15"
14151,commdev-instructions,10,52464,NA,1387.5999999642372,"<p>If the winds are moving this way, press the letter <strong>F</strong> on the keyboard as fast as you can.</p><img src=""img/leftwind.png"" width=250vw>",NA,NA,NA,NA,NA,NA,NA,NA,NA,1,6,"7,3,11,12,6,13,8,10,9,4,14,2,1,5,15"
14151,commdev-instructions,11,61663,NA,4705,"<p>If the winds are moving this way, press the letter <strong>J</strong> on the keyboard as fast as you can.</p><img src=""img/rightwind.png"" width=350vw>",NA,NA,NA,NA,NA,NA,NA,NA,NA,1,6,"7,3,11,12,6,13,8,10,9,4,14,2,1,5,15"
14151,commdev-instructions,12,67204,NA,1106.5,<p>You will have 1 second to respond. Try to respond before the time runs out!,NA,NA,NA,NA,NA,NA,NA,NA,NA,1,6,"7,3,11,12,6,13,8,10,9,4,14,2,1,5,15"
14151,commdev-instructions,13,73525,NA,896.5,<p>The planets you will visit will look different from each other.</p><p>You should respond <strong>only</strong> based on wind direction.,NA,NA,NA,NA,NA,NA,NA,NA,NA,1,6,"7,3,11,12,6,13,8,10,9,4,14,2,1,5,15"
14151,commdev-instructions,14,82376,NA,3679,"<p> Ready to start the practice round? </p><p> Remember, press <strong>F</strong> or <strong>J</strong> depending on the wind direction.<br><img src=""img/categorize_planet_example.png""",NA,NA,NA,NA,NA,NA,NA,NA,NA,1,6,"7,3,11,12,6,13,8,10,9,4,14,2,1,5,15"
14151,commdev-instructions,26,141494,NA,4087.399999976158,"<p>Great, now try a short practice mission. </p><p> This time, you will have 1 second to respond and you won't know whether you pressed the right or wrong key for each planet.</p>",NA,NA,NA,NA,NA,NA,NA,NA,NA,1,6,"7,3,11,12,6,13,8,10,9,4,14,2,1,5,15"
14151,commdev-image-keyboard-response,27,142857,practice,978.8999999761581,img/practice1_left.png,NA,Number not found in mappings,NA,TRUE,f,f,NA,NA,NA,1,6,"7,3,11,12,6,13,8,10,9,4,14,2,1,5,15"
14151,commdev-image-keyboard-response,28,144115,practice,885.7999999523163,img/practice4_right.png,NA,Number not found in mappings,NA,TRUE,j,j,NA,NA,NA,1,6,"7,3,11,12,6,13,8,10,9,4,14,2,1,5,15"
14151,commdev-image-keyboard-response,29,145373,practice,796.7000000476837,img/practice3_right.png,NA,Number not found in mappings,NA,FALSE,f,j,NA,NA,NA,1,6,"7,3,11,12,6,13,8,10,9,4,14,2,1,5,15"
14151,commdev-image-keyboard-response,30,146633,practice,816.3000000119209,img/practice1_right.png,NA,Number not found in mappings,NA,FALSE,f,j,NA,NA,NA,1,6,"7,3,11,12,6,13,8,10,9,4,14,2,1,5,15"
14151,commdev-image-keyboard-response,31,147893,practice,713.8999999761581,img/practice3_left.png,NA,Number not found in mappings,NA,FALSE,j,f,NA,NA,NA,1,6,"7,3,11,12,6,13,8,10,9,4,14,2,1,5,15"
14151,commdev-image-keyboard-response,32,149152,practice,862.5,img/practice1_left.png,NA,Number not found in mappings,NA,FALSE,j,f,NA,NA,NA,1,6,"7,3,11,12,6,13,8,10,9,4,14,2,1,5,15"
14151,commdev-image-keyboard-response,33,150409,practice,762.2000000476837,img/practice4_right.png,NA,Number not found in mappings,NA,TRUE,j,j,NA,NA,NA,1,6,"7,3,11,12,6,13,8,10,9,4,14,2,1,5,15"
14151,commdev-image-keyboard-response,34,151667,practice,831.1999999880791,img/practice1_left.png,NA,Number not found in mappings,NA,FALSE,j,f,NA,NA,NA,1,6,"7,3,11,12,6,13,8,10,9,4,14,2,1,5,15"
14151,commdev-instructions,35,162261,NA,1034.5,"<p>Great job with the practice round.</p><p>During real missions, you won't know whether you pressed the right or wrong key for each planet.</p><p>But between missions, we will tell you how you did overall.</p>",NA,NA,NA,NA,NA,NA,NA,NA,NA,1,6,"7,3,11,12,6,13,8,10,9,4,14,2,1,5,15"
14151,commdev-instructions,36,173198,NA,2681.099999964237,<p>Try your best! You will be paid a bonus based on how many correct responses you make!</p><p>Responses that are too slow will not count toward your bonus.</p>,NA,NA,NA,NA,NA,NA,NA,NA,NA,1,6,"7,3,11,12,6,13,8,10,9,4,14,2,1,5,15"
14151,commdev-instructions,37,180866,NA,1470,"<p>You are almost ready to start the real game.</p><p> First, we are going to ask you some questions about how the game works.</p>",NA,NA,NA,NA,NA,NA,NA,NA,NA,1,6,"7,3,11,12,6,13,8,10,9,4,14,2,1,5,15"
14151,commdev-instructions,46,264442,NA,5204.800000011921,"<p> Nice work! It is now time to start the real game.<p></p>You will go on two missions to record wind directions of different planets.<p></p>Each one will take about 5 minutes. You will get to take a break between missions.<p><p> Remember, press <strong>F</strong> or <strong>J</strong> depending on the wind direction. Good luck!<br><img src=""img/categorize_planet_example.png""",NA,NA,NA,NA,NA,NA,NA,NA,NA,1,6,"7,3,11,12,6,13,8,10,9,4,14,2,1,5,15"
14151,commdev-image-keyboard-response,48,271216,learnblock1,null,img/planet9_right.png,9,Community 2,NA,FALSE,null,j,NA,NA,NA,1,6,"7,3,11,12,6,13,8,10,9,4,14,2,1,5,15"
14151,commdev-image-keyboard-response,49,272467,learnblock1,198.29999995231628,img/planet10_right.png,10,Community 2,NA,FALSE,f,j,NA,NA,NA,1,6,"7,3,11,12,6,13,8,10,9,4,14,2,1,5,15"
14151,commdev-image-keyboard-response,50,273724,learnblock1,714.5,img/planet9_left.png,9,Community 2,NA,FALSE,j,f,NA,NA,NA,1,6,"7,3,11,12,6,13,8,10,9,4,14,2,1,5,15"
14151,commdev-image-keyboard-response,51,274979,learnblock1,869.3999999761581,img/planet13_left.png,13,Community 2,NA,FALSE,j,f,NA,NA,NA,1,6,"7,3,11,12,6,13,8,10,9,4,14,2,1,5,15"
14151,commdev-image-keyboard-response,52,276239,learnblock1,809,img/planet12_right.png,12,Community 1,NA,FALSE,f,j,NA,NA,NA,1,6,"7,3,11,12,6,13,8,10,9,4,14,2,1,5,15"
14151,commdev-image-keyboard-response,53,277496,learnblock1,1010.1999999880791,img/planet11_left.png,11,Community 1,NA,TRUE,f,f,NA,NA,NA,1,6,"7,3,11,12,6,13,8,10,9,4,14,2,1,5,15"
14151,commdev-image-keyboard-response,54,278757,learnblock1,931.2999999523163,img/planet3_right.png,3,Community 1,NA,FALSE,f,j,NA,NA,NA,1,6,"7,3,11,12,6,13,8,10,9,4,14,2,1,5,15"
14151,commdev-image-keyboard-response,55,280015,learnblock1,830.1999999880791,img/planet12_right.png,12,Community 1,NA,FALSE,f,j,NA,NA,NA,1,6,"7,3,11,12,6,13,8,10,9,4,14,2,1,5,15"
14151,commdev-image-keyboard-response,56,281271,learnblock1,746.7999999523163,img/planet13_left.png,13,Community 2,NA,TRUE,f,f,NA,NA,NA,1,6,"7,3,11,12,6,13,8,10,9,4,14,2,1,5,15"
14151,commdev-image-keyboard-response,57,282530,learnblock1,801.3999999761581,img/planet4_right.png,4,Community 2,NA,TRUE,j,j,NA,NA,NA,1,6,"7,3,11,12,6,13,8,10,9,4,14,2,1,5,15"
14151,commdev-image-keyboard-response,58,283785,learnblock1,211.30000001192093,img/planet8_left.png,8,Community 2,NA,TRUE,f,f,NA,NA,NA,1,6,"7,3,11,12,6,13,8,10,9,4,14,2,1,5,15"
14151,commdev-image-keyboard-response,59,285048,learnblock1,866.1000000238419,img/planet10_left.png,10,Community 2,NA,TRUE,f,f,NA,NA,NA,1,6,"7,3,11,12,6,13,8,10,9,4,14,2,1,5,15"
14151,commdev-image-keyboard-response,60,286309,learnblock1,736.3000000119209,img/planet8_right.png,8,Community 2,NA,TRUE,j,j,NA,NA,NA,1,6,"7,3,11,12,6,13,8,10,9,4,14,2,1,5,15"
14151,commdev-image-keyboard-response,61,287572,learnblock1,1006,img/planet4_right.png,4,Community 2,NA,FALSE,f,j,NA,NA,NA,1,6,"7,3,11,12,6,13,8,10,9,4,14,2,1,5,15"
14151,commdev-image-keyboard-response,62,288831,learnblock1,650,img/planet10_left.png,10,Community 2,NA,FALSE,j,f,NA,NA,NA,1,6,"7,3,11,12,6,13,8,10,9,4,14,2,1,5,15"
14151,commdev-image-keyboard-response,63,290082,learnblock1,829.8000000119209,img/planet4_left.png,4,Community 2,NA,TRUE,f,f,NA,NA,NA,1,6,"7,3,11,12,6,13,8,10,9,4,14,2,1,5,15"
14151,commdev-image-keyboard-response,64,291333,learnblock1,751.8999999761581,img/planet10_left.png,10,Community 2,NA,FALSE,j,f,NA,NA,NA,1,6,"7,3,11,12,6,13,8,10,9,4,14,2,1,5,15"
14151,commdev-image-keyboard-response,65,292584,learnblock1,688.6000000238419,img/planet4_right.png,4,Community 2,NA,FALSE,f,j,NA,NA,NA,1,6,"7,3,11,12,6,13,8,10,9,4,14,2,1,5,15"
14151,commdev-image-keyboard-response,66,293837,learnblock1,787.6999999880791,img/planet9_right.png,9,Community 2,NA,TRUE,j,j,NA,NA,NA,1,6,"7,3,11,12,6,13,8,10,9,4,14,2,1,5,15"
14151,commdev-image-keyboard-response,67,295088,learnblock1,607.6999999880791,img/planet13_left.png,13,Community 2,NA,TRUE,f,f,NA,NA,NA,1,6,"7,3,11,12,6,13,8,10,9,4,14,2,1,5,15"
14151,commdev-image-keyboard-response,68,296340,learnblock1,777.6000000238419,img/planet8_right.png,8,Community 2,NA,FALSE,f,j,NA,NA,NA,1,6,"7,3,11,12,6,13,8,10,9,4,14,2,1,5,15"
14151,commdev-image-keyboard-response,69,297591,learnblock1,966,img/planet13_right.png,13,Community 2,NA,TRUE,j,j,NA,NA,NA,1,6,"7,3,11,12,6,13,8,10,9,4,14,2,1,5,15"
14151,commdev-image-keyboard-response,70,298843,learnblock1,null,img/planet9_right.png,9,Community 2,NA,FALSE,null,j,NA,NA,NA,1,6,"7,3,11,12,6,13,8,10,9,4,14,2,1,5,15"
14151,commdev-image-keyboard-response,71,300094,learnblock1,48.19999998807907,img/planet4_left.png,4,Community 2,NA,TRUE,f,f,NA,NA,NA,1,6,"7,3,11,12,6,13,8,10,9,4,14,2,1,5,15"
14151,commdev-image-keyboard-response,72,301345,learnblock1,686.5999999642372,img/planet13_right.png,13,Community 2,NA,FALSE,f,j,NA,NA,NA,1,6,"7,3,11,12,6,13,8,10,9,4,14,2,1,5,15"
14151,commdev-image-keyboard-response,73,302597,learnblock1,628.4000000357628,img/planet12_right.png,12,Community 1,NA,FALSE,f,j,NA,NA,NA,1,6,"7,3,11,12,6,13,8,10,9,4,14,2,1,5,15"
14151,commdev-image-keyboard-response,74,303848,learnblock1,724.7999999523163,img/planet3_right.png,3,Community 1,NA,FALSE,f,j,NA,NA,NA,1,6,"7,3,11,12,6,13,8,10,9,4,14,2,1,5,15"
14151,commdev-image-keyboard-response,75,305104,learnblock1,837,img/planet7_right.png,7,Community 1,NA,FALSE,f,j,NA,NA,NA,1,6,"7,3,11,12,6,13,8,10,9,4,14,2,1,5,15"
14151,commdev-image-keyboard-response,76,306356,learnblock1,879,img/planet11_left.png,11,Community 1,NA,FALSE,j,f,NA,NA,NA,1,6,"7,3,11,12,6,13,8,10,9,4,14,2,1,5,15"
14151,commdev-image-keyboard-response,77,307617,learnblock1,764.3999999761581,img/planet6_left.png,6,Community 1,NA,TRUE,f,f,NA,NA,NA,1,6,"7,3,11,12,6,13,8,10,9,4,14,2,1,5,15"
14151,commdev-image-keyboard-response,78,308869,learnblock1,797.6000000238419,img/planet14_left.png,14,Community 3,NA,FALSE,j,f,NA,NA,NA,1,6,"7,3,11,12,6,13,8,10,9,4,14,2,1,5,15"
14151,commdev-image-keyboard-response,79,310119,learnblock1,538.1000000238419,img/planet1_left.png,1,Community 3,NA,TRUE,f,f,NA,NA,NA,1,6,"7,3,11,12,6,13,8,10,9,4,14,2,1,5,15"
14151,commdev-image-keyboard-response,80,311371,learnblock1,909.8000000119209,img/planet5_right.png,5,Community 3,NA,FALSE,f,j,NA,NA,NA,1,6,"7,3,11,12,6,13,8,10,9,4,14,2,1,5,15"
14151,commdev-image-keyboard-response,81,312623,learnblock1,805.5999999642372,img/planet1_left.png,1,Community 3,NA,FALSE,j,f,NA,NA,NA,1,6,"7,3,11,12,6,13,8,10,9,4,14,2,1,5,15"
14151,commdev-image-keyboard-response,82,313874,learnblock1,799.6000000238419,img/planet2_left.png,2,Community 3,NA,TRUE,f,f,NA,NA,NA,1,6,"7,3,11,12,6,13,8,10,9,4,14,2,1,5,15"
14151,commdev-image-keyboard-response,83,315125,learnblock1,933.6000000238419,img/planet15_right.png,15,Community 3,NA,TRUE,j,j,NA,NA,NA,1,6,"7,3,11,12,6,13,8,10,9,4,14,2,1,5,15"
14151,commdev-image-keyboard-response,84,316377,learnblock1,175,img/planet2_right.png,2,Community 3,NA,FALSE,f,j,NA,NA,NA,1,6,"7,3,11,12,6,13,8,10,9,4,14,2,1,5,15"
14151,commdev-image-keyboard-response,85,317629,learnblock1,151.39999997615814,img/planet15_right.png,15,Community 3,NA,FALSE,f,j,NA,NA,NA,1,6,"7,3,11,12,6,13,8,10,9,4,14,2,1,5,15"
14151,commdev-image-keyboard-response,86,318880,learnblock1,644.8999999761581,img/planet1_right.png,1,Community 3,NA,TRUE,j,j,NA,NA,NA,1,6,"7,3,11,12,6,13,8,10,9,4,14,2,1,5,15"
14151,commdev-image-keyboard-response,87,320133,learnblock1,639.2999999523163,img/planet14_left.png,14,Community 3,NA,TRUE,f,f,NA,NA,NA,1,6,"7,3,11,12,6,13,8,10,9,4,14,2,1,5,15"
14151,commdev-image-keyboard-response,88,321384,learnblock1,779,img/planet6_right.png,6,Community 1,NA,TRUE,j,j,NA,NA,NA,1,6,"7,3,11,12,6,13,8,10,9,4,14,2,1,5,15"
14151,commdev-image-keyboard-response,89,322636,learnblock1,1023.6999999880791,img/planet3_right.png,3,Community 1,NA,FALSE,f,j,NA,NA,NA,1,6,"7,3,11,12,6,13,8,10,9,4,14,2,1,5,15"
14151,commdev-image-keyboard-response,90,323889,learnblock1,839.0999999642372,img/planet7_left.png,7,Community 1,NA,FALSE,j,f,NA,NA,NA,1,6,"7,3,11,12,6,13,8,10,9,4,14,2,1,5,15"
14151,commdev-image-keyboard-response,91,325140,learnblock1,815.7999999523163,img/planet11_left.png,11,Community 1,NA,FALSE,j,f,NA,NA,NA,1,6,"7,3,11,12,6,13,8,10,9,4,14,2,1,5,15"
14151,commdev-image-keyboard-response,92,326391,learnblock1,917.0999999642372,img/planet3_right.png,3,Community 1,NA,FALSE,f,j,NA,NA,NA,1,6,"7,3,11,12,6,13,8,10,9,4,14,2,1,5,15"
14151,commdev-image-keyboard-response,93,327642,learnblock1,1094.7000000476837,img/planet12_left.png,12,Community 1,NA,FALSE,j,f,NA,NA,NA,1,6,"7,3,11,12,6,13,8,10,9,4,14,2,1,5,15"
14151,commdev-image-keyboard-response,94,328895,learnblock1,1127.199999988079,img/planet3_left.png,3,Community 1,NA,TRUE,f,f,NA,NA,NA,1,6,"7,3,11,12,6,13,8,10,9,4,14,2,1,5,15"
14151,commdev-image-keyboard-response,95,330146,learnblock1,1007.1999999880791,img/planet7_left.png,7,Community 1,NA,FALSE,j,f,NA,NA,NA,1,6,"7,3,11,12,6,13,8,10,9,4,14,2,1,5,15"
14151,commdev-image-keyboard-response,96,331397,learnblock1,778.8999999761581,img/planet12_right.png,12,Community 1,NA,FALSE,f,j,NA,NA,NA,1,6,"7,3,11,12,6,13,8,10,9,4,14,2,1,5,15"
14151,commdev-image-keyboard-response,97,332649,learnblock1,855.1999999880791,img/planet13_right.png,13,Community 2,NA,TRUE,j,j,NA,NA,NA,1,6,"7,3,11,12,6,13,8,10,9,4,14,2,1,5,15"
14151,commdev-image-keyboard-response,98,333901,learnblock1,1004.0999999642372,img/planet8_right.png,8,Community 2,NA,FALSE,f,j,NA,NA,NA,1,6,"7,3,11,12,6,13,8,10,9,4,14,2,1,5,15"
14151,commdev-image-keyboard-response,99,335152,learnblock1,884.5,img/planet10_left.png,10,Community 2,NA,FALSE,j,f,NA,NA,NA,1,6,"7,3,11,12,6,13,8,10,9,4,14,2,1,5,15"
14151,commdev-image-keyboard-response,100,336404,learnblock1,1139.3999999761581,img/planet9_right.png,9,Community 2,NA,TRUE,j,j,NA,NA,NA,1,6,"7,3,11,12,6,13,8,10,9,4,14,2,1,5,15"
14151,commdev-image-keyboard-response,101,337655,learnblock1,0.5999999642372131,img/planet10_left.png,10,Community 2,NA,TRUE,f,f,NA,NA,NA,1,6,"7,3,11,12,6,13,8,10,9,4,14,2,1,5,15"
14151,commdev-image-keyboard-response,102,338908,learnblock1,740.5,img/planet8_right.png,8,Community 2,NA,FALSE,f,j,NA,NA,NA,1,6,"7,3,11,12,6,13,8,10,9,4,14,2,1,5,15"
14151,commdev-image-keyboard-response,103,340159,learnblock1,876.7000000476837,img/planet13_right.png,13,Community 2,NA,FALSE,f,j,NA,NA,NA,1,6,"7,3,11,12,6,13,8,10,9,4,14,2,1,5,15"
14151,commdev-image-keyboard-response,104,341411,learnblock1,899.9000000357628,img/planet4_right.png,4,Community 2,NA,FALSE,f,j,NA,NA,NA,1,6,"7,3,11,12,6,13,8,10,9,4,14,2,1,5,15"
14151,commdev-image-keyboard-response,105,342663,learnblock1,907.5999999642372,img/planet13_right.png,13,Community 2,NA,FALSE,f,j,NA,NA,NA,1,6,"7,3,11,12,6,13,8,10,9,4,14,2,1,5,15"
14151,commdev-image-keyboard-response,106,343914,learnblock1,684.6999999880791,img/planet12_left.png,12,Community 1,NA,FALSE,j,f,NA,NA,NA,1,6,"7,3,11,12,6,13,8,10,9,4,14,2,1,5,15"
14151,commdev-image-keyboard-response,107,345166,learnblock1,746.6999999880791,img/planet11_left.png,11,Community 1,NA,FALSE,j,f,NA,NA,NA,1,6,"7,3,11,12,6,13,8,10,9,4,14,2,1,5,15"
14151,commdev-image-keyboard-response,108,346417,learnblock1,868.8999999761581,img/planet7_right.png,7,Community 1,NA,FALSE,f,j,NA,NA,NA,1,6,"7,3,11,12,6,13,8,10,9,4,14,2,1,5,15"
14151,commdev-image-keyboard-response,109,347670,learnblock1,682.5999999642372,img/planet6_right.png,6,Community 1,NA,FALSE,f,j,NA,NA,NA,1,6,"7,3,11,12,6,13,8,10,9,4,14,2,1,5,15"
14151,commdev-image-keyboard-response,110,348921,learnblock1,776.8000000119209,img/planet3_left.png,3,Community 1,NA,FALSE,j,f,NA,NA,NA,1,6,"7,3,11,12,6,13,8,10,9,4,14,2,1,5,15"
14151,commdev-image-keyboard-response,111,350172,learnblock1,710.0999999642372,img/planet12_left.png,12,Community 1,NA,FALSE,j,f,NA,NA,NA,1,6,"7,3,11,12,6,13,8,10,9,4,14,2,1,5,15"
14151,commdev-image-keyboard-response,112,351424,learnblock1,751.3000000119209,img/planet11_left.png,11,Community 1,NA,FALSE,j,f,NA,NA,NA,1,6,"7,3,11,12,6,13,8,10,9,4,14,2,1,5,15"
14151,commdev-image-keyboard-response,113,352675,learnblock1,543.5,img/planet3_right.png,3,Community 1,NA,FALSE,f,j,NA,NA,NA,1,6,"7,3,11,12,6,13,8,10,9,4,14,2,1,5,15"
14151,commdev-image-keyboard-response,114,353927,learnblock1,811.1999999880791,img/planet12_left.png,12,Community 1,NA,FALSE,j,f,NA,NA,NA,1,6,"7,3,11,12,6,13,8,10,9,4,14,2,1,5,15"
14151,commdev-image-keyboard-response,115,355179,learnblock1,1003.1999999880791,img/planet7_left.png,7,Community 1,NA,FALSE,j,f,NA,NA,NA,1,6,"7,3,11,12,6,13,8,10,9,4,14,2,1,5,15"
14151,commdev-image-keyboard-response,116,356429,learnblock1,918.1000000238419,img/planet3_left.png,3,Community 1,NA,TRUE,f,f,NA,NA,NA,1,6,"7,3,11,12,6,13,8,10,9,4,14,2,1,5,15"
14151,commdev-image-keyboard-response,117,357680,learnblock1,339.89999997615814,img/planet11_left.png,11,Community 1,NA,FALSE,j,f,NA,NA,NA,1,6,"7,3,11,12,6,13,8,10,9,4,14,2,1,5,15"
14151,commdev-image-keyboard-response,118,358931,learnblock1,932.9000000357628,img/planet7_left.png,7,Community 1,NA,FALSE,j,f,NA,NA,NA,1,6,"7,3,11,12,6,13,8,10,9,4,14,2,1,5,15"
14151,commdev-image-keyboard-response,119,360183,learnblock1,984.3999999761581,img/planet6_right.png,6,Community 1,NA,FALSE,f,j,NA,NA,NA,1,6,"7,3,11,12,6,13,8,10,9,4,14,2,1,5,15"
14151,commdev-image-keyboard-response,120,361436,learnblock1,947.6000000238419,img/planet11_right.png,11,Community 1,NA,FALSE,f,j,NA,NA,NA,1,6,"7,3,11,12,6,13,8,10,9,4,14,2,1,5,15"
14151,commdev-image-keyboard-response,121,362687,learnblock1,1070.5,img/planet7_left.png,7,Community 1,NA,TRUE,f,f,NA,NA,NA,1,6,"7,3,11,12,6,13,8,10,9,4,14,2,1,5,15"
14151,commdev-image-keyboard-response,122,363939,learnblock1,1246.800000011921,img/planet3_left.png,3,Community 1,NA,FALSE,j,f,NA,NA,NA,1,6,"7,3,11,12,6,13,8,10,9,4,14,2,1,5,15"
14151,commdev-image-keyboard-response,123,365190,learnblock1,958.6000000238419,img/planet12_right.png,12,Community 1,NA,FALSE,f,j,NA,NA,NA,1,6,"7,3,11,12,6,13,8,10,9,4,14,2,1,5,15"
14151,commdev-image-keyboard-response,124,366441,learnblock1,951,img/planet13_left.png,13,Community 2,NA,TRUE,f,f,NA,NA,NA,1,6,"7,3,11,12,6,13,8,10,9,4,14,2,1,5,15"
14151,commdev-image-keyboard-response,125,367693,learnblock1,1189.5,img/planet8_left.png,8,Community 2,NA,FALSE,j,f,NA,NA,NA,1,6,"7,3,11,12,6,13,8,10,9,4,14,2,1,5,15"
14151,commdev-image-keyboard-response,126,368944,learnblock1,1106.6000000238419,img/planet4_right.png,4,Community 2,NA,FALSE,f,j,NA,NA,NA,1,6,"7,3,11,12,6,13,8,10,9,4,14,2,1,5,15"
14151,commdev-image-keyboard-response,127,370196,learnblock1,1049,img/planet13_left.png,13,Community 2,NA,FALSE,j,f,NA,NA,NA,1,6,"7,3,11,12,6,13,8,10,9,4,14,2,1,5,15"
14151,commdev-image-keyboard-response,128,371447,learnblock1,1021,img/planet12_right.png,12,Community 1,NA,FALSE,f,j,NA,NA,NA,1,6,"7,3,11,12,6,13,8,10,9,4,14,2,1,5,15"
14151,commdev-image-keyboard-response,129,372698,learnblock1,980,img/planet3_right.png,3,Community 1,NA,TRUE,j,j,NA,NA,NA,1,6,"7,3,11,12,6,13,8,10,9,4,14,2,1,5,15"
14151,commdev-image-keyboard-response,130,373950,learnblock1,1079,img/planet11_right.png,11,Community 1,NA,FALSE,f,j,NA,NA,NA,1,6,"7,3,11,12,6,13,8,10,9,4,14,2,1,5,15"
14151,commdev-image-keyboard-response,131,375201,learnblock1,929.6000000238419,img/planet7_left.png,7,Community 1,NA,FALSE,j,f,NA,NA,NA,1,6,"7,3,11,12,6,13,8,10,9,4,14,2,1,5,15"
14151,commdev-image-keyboard-response,132,376453,learnblock1,993.0999999642372,img/planet12_left.png,12,Community 1,NA,FALSE,j,f,NA,NA,NA,1,6,"7,3,11,12,6,13,8,10,9,4,14,2,1,5,15"
14151,commdev-image-keyboard-response,133,377705,learnblock1,1083.1000000238419,img/planet13_left.png,13,Community 2,NA,FALSE,j,f,NA,NA,NA,1,6,"7,3,11,12,6,13,8,10,9,4,14,2,1,5,15"
14151,commdev-image-keyboard-response,134,378957,learnblock1,983.6000000238419,img/planet4_right.png,4,Community 2,NA,FALSE,f,j,NA,NA,NA,1,6,"7,3,11,12,6,13,8,10,9,4,14,2,1,5,15"
14151,commdev-image-keyboard-response,135,380209,learnblock1,834.5,img/planet9_left.png,9,Community 2,NA,FALSE,j,f,NA,NA,NA,1,6,"7,3,11,12,6,13,8,10,9,4,14,2,1,5,15"
14151,commdev-image-keyboard-response,136,381461,learnblock1,822.4000000357628,img/planet4_right.png,4,Community 2,NA,FALSE,f,j,NA,NA,NA,1,6,"7,3,11,12,6,13,8,10,9,4,14,2,1,5,15"
14151,commdev-image-keyboard-response,137,382712,learnblock1,823.5,img/planet10_right.png,10,Community 2,NA,TRUE,j,j,NA,NA,NA,1,6,"7,3,11,12,6,13,8,10,9,4,14,2,1,5,15"
14151,commdev-image-keyboard-response,138,383964,learnblock1,1110.8999999761581,img/planet4_left.png,4,Community 2,NA,FALSE,j,f,NA,NA,NA,1,6,"7,3,11,12,6,13,8,10,9,4,14,2,1,5,15"
14151,commdev-image-keyboard-response,139,385217,learnblock1,1058.699999988079,img/planet9_left.png,9,Community 2,NA,FALSE,j,f,NA,NA,NA,1,6,"7,3,11,12,6,13,8,10,9,4,14,2,1,5,15"
14151,commdev-image-keyboard-response,140,386482,learnblock1,986.3999999761581,img/planet8_left.png,8,Community 2,NA,FALSE,j,f,NA,NA,NA,1,6,"7,3,11,12,6,13,8,10,9,4,14,2,1,5,15"
14151,commdev-image-keyboard-response,141,387733,learnblock1,819.3999999761581,img/planet10_right.png,10,Community 2,NA,FALSE,f,j,NA,NA,NA,1,6,"7,3,11,12,6,13,8,10,9,4,14,2,1,5,15"
14151,commdev-image-keyboard-response,142,388986,learnblock1,858.3000000119209,img/planet4_right.png,4,Community 2,NA,FALSE,f,j,NA,NA,NA,1,6,"7,3,11,12,6,13,8,10,9,4,14,2,1,5,15"
14151,commdev-image-keyboard-response,143,390237,learnblock1,622.8000000119209,img/planet9_left.png,9,Community 2,NA,FALSE,j,f,NA,NA,NA,1,6,"7,3,11,12,6,13,8,10,9,4,14,2,1,5,15"
14151,commdev-image-keyboard-response,144,391489,learnblock1,809.8000000119209,img/planet13_left.png,13,Community 2,NA,FALSE,j,f,NA,NA,NA,1,6,"7,3,11,12,6,13,8,10,9,4,14,2,1,5,15"
14151,commdev-image-keyboard-response,145,392742,learnblock1,668.0999999642372,img/planet12_right.png,12,Community 1,NA,FALSE,f,j,NA,NA,NA,1,6,"7,3,11,12,6,13,8,10,9,4,14,2,1,5,15"
14151,commdev-image-keyboard-response,146,393994,learnblock1,726.3000000119209,img/planet13_right.png,13,Community 2,NA,FALSE,f,j,NA,NA,NA,1,6,"7,3,11,12,6,13,8,10,9,4,14,2,1,5,15"
14151,commdev-image-keyboard-response,147,395246,learnblock1,679.9000000357628,img/planet9_left.png,9,Community 2,NA,TRUE,f,f,NA,NA,NA,1,6,"7,3,11,12,6,13,8,10,9,4,14,2,1,5,15"
14151,commdev-image-keyboard-response,148,396497,learnblock1,1212.800000011921,img/planet10_right.png,10,Community 2,NA,FALSE,f,j,NA,NA,NA,1,6,"7,3,11,12,6,13,8,10,9,4,14,2,1,5,15"
14151,commdev-image-keyboard-response,149,397748,learnblock1,1085.300000011921,img/planet4_right.png,4,Community 2,NA,TRUE,j,j,NA,NA,NA,1,6,"7,3,11,12,6,13,8,10,9,4,14,2,1,5,15"
14151,commdev-image-keyboard-response,150,399000,learnblock1,717,img/planet13_left.png,13,Community 2,NA,FALSE,j,f,NA,NA,NA,1,6,"7,3,11,12,6,13,8,10,9,4,14,2,1,5,15"
14151,commdev-image-keyboard-response,151,400252,learnblock1,644.8999999761581,img/planet8_left.png,8,Community 2,NA,FALSE,j,f,NA,NA,NA,1,6,"7,3,11,12,6,13,8,10,9,4,14,2,1,5,15"
14151,commdev-image-keyboard-response,152,401504,learnblock1,794.8999999761581,img/planet9_right.png,9,Community 2,NA,FALSE,f,j,NA,NA,NA,1,6,"7,3,11,12,6,13,8,10,9,4,14,2,1,5,15"
14151,commdev-image-keyboard-response,153,402756,learnblock1,904.2000000476837,img/planet8_right.png,8,Community 2,NA,FALSE,f,j,NA,NA,NA,1,6,"7,3,11,12,6,13,8,10,9,4,14,2,1,5,15"
14151,commdev-image-keyboard-response,154,404007,learnblock1,730.6000000238419,img/planet10_left.png,10,Community 2,NA,FALSE,j,f,NA,NA,NA,1,6,"7,3,11,12,6,13,8,10,9,4,14,2,1,5,15"
14151,commdev-image-keyboard-response,155,405260,learnblock1,689.3999999761581,img/planet8_left.png,8,Community 2,NA,TRUE,f,f,NA,NA,NA,1,6,"7,3,11,12,6,13,8,10,9,4,14,2,1,5,15"
14151,commdev-image-keyboard-response,156,406516,learnblock1,725.0999999642372,img/planet13_right.png,13,Community 2,NA,FALSE,f,j,NA,NA,NA,1,6,"7,3,11,12,6,13,8,10,9,4,14,2,1,5,15"
14151,commdev-image-keyboard-response,157,407768,learnblock1,1000.0999999642372,img/planet12_right.png,12,Community 1,NA,FALSE,f,j,NA,NA,NA,1,6,"7,3,11,12,6,13,8,10,9,4,14,2,1,5,15"
14151,commdev-image-keyboard-response,158,409023,learnblock1,742,img/planet13_left.png,13,Community 2,NA,FALSE,j,f,NA,NA,NA,1,6,"7,3,11,12,6,13,8,10,9,4,14,2,1,5,15"
14151,commdev-image-keyboard-response,159,410273,learnblock1,605.5999999642372,img/planet4_left.png,4,Community 2,NA,FALSE,j,f,NA,NA,NA,1,6,"7,3,11,12,6,13,8,10,9,4,14,2,1,5,15"
14151,commdev-image-keyboard-response,160,411524,learnblock1,700.3000000119209,img/planet10_left.png,10,Community 2,NA,FALSE,j,f,NA,NA,NA,1,6,"7,3,11,12,6,13,8,10,9,4,14,2,1,5,15"
14151,commdev-image-keyboard-response,161,412776,learnblock1,722.6999999880791,img/planet2_right.png,2,Community 3,NA,FALSE,f,j,NA,NA,NA,1,6,"7,3,11,12,6,13,8,10,9,4,14,2,1,5,15"
14151,commdev-image-keyboard-response,162,414027,learnblock1,878.8000000119209,img/planet15_left.png,15,Community 3,NA,FALSE,j,f,NA,NA,NA,1,6,"7,3,11,12,6,13,8,10,9,4,14,2,1,5,15"
14151,commdev-image-keyboard-response,163,415277,learnblock1,664.1999999880791,img/planet1_right.png,1,Community 3,NA,FALSE,f,j,NA,NA,NA,1,6,"7,3,11,12,6,13,8,10,9,4,14,2,1,5,15"
14151,commdev-image-keyboard-response,164,416529,learnblock1,913.6999999880791,img/planet14_right.png,14,Community 3,NA,TRUE,j,j,NA,NA,NA,1,6,"7,3,11,12,6,13,8,10,9,4,14,2,1,5,15"
14151,commdev-image-keyboard-response,165,417781,learnblock1,684.5999999642372,img/planet5_right.png,5,Community 3,NA,FALSE,f,j,NA,NA,NA,1,6,"7,3,11,12,6,13,8,10,9,4,14,2,1,5,15"
14151,commdev-image-keyboard-response,166,419033,learnblock1,679.5,img/planet2_right.png,2,Community 3,NA,FALSE,f,j,NA,NA,NA,1,6,"7,3,11,12,6,13,8,10,9,4,14,2,1,5,15"
14151,commdev-image-keyboard-response,167,420284,learnblock1,488.39999997615814,img/planet15_left.png,15,Community 3,NA,FALSE,j,f,NA,NA,NA,1,6,"7,3,11,12,6,13,8,10,9,4,14,2,1,5,15"
14151,commdev-image-keyboard-response,168,421536,learnblock1,746.1999999880791,img/planet14_left.png,14,Community 3,NA,TRUE,f,f,NA,NA,NA,1,6,"7,3,11,12,6,13,8,10,9,4,14,2,1,5,15"
14151,commdev-image-keyboard-response,169,422787,learnblock1,920.1000000238419,img/planet1_left.png,1,Community 3,NA,FALSE,j,f,NA,NA,NA,1,6,"7,3,11,12,6,13,8,10,9,4,14,2,1,5,15"
14151,commdev-image-keyboard-response,170,424038,learnblock1,794.1999999880791,img/planet15_right.png,15,Community 3,NA,TRUE,j,j,NA,NA,NA,1,6,"7,3,11,12,6,13,8,10,9,4,14,2,1,5,15"
14151,commdev-image-keyboard-response,171,425289,learnblock1,null,img/planet14_right.png,14,Community 3,NA,FALSE,null,j,NA,NA,NA,1,6,"7,3,11,12,6,13,8,10,9,4,14,2,1,5,15"
14151,commdev-image-keyboard-response,172,426539,learnblock1,102.5,img/planet6_left.png,6,Community 1,NA,TRUE,f,f,NA,NA,NA,1,6,"7,3,11,12,6,13,8,10,9,4,14,2,1,5,15"
14151,commdev-image-keyboard-response,173,427791,learnblock1,864.3999999761581,img/planet7_left.png,7,Community 1,NA,FALSE,j,f,NA,NA,NA,1,6,"7,3,11,12,6,13,8,10,9,4,14,2,1,5,15"
14151,commdev-image-keyboard-response,174,429042,learnblock1,1139.9000000357628,img/planet11_left.png,11,Community 1,NA,TRUE,f,f,NA,NA,NA,1,6,"7,3,11,12,6,13,8,10,9,4,14,2,1,5,15"
14151,commdev-image-keyboard-response,175,430293,learnblock1,1130.5,img/planet7_left.png,7,Community 1,NA,TRUE,f,f,NA,NA,NA,1,6,"7,3,11,12,6,13,8,10,9,4,14,2,1,5,15"
14151,commdev-image-keyboard-response,176,431545,learnblock1,1182.5,img/planet11_left.png,11,Community 1,NA,FALSE,j,f,NA,NA,NA,1,6,"7,3,11,12,6,13,8,10,9,4,14,2,1,5,15"
14151,commdev-image-keyboard-response,177,432796,learnblock1,917.3000000119209,img/planet3_left.png,3,Community 1,NA,TRUE,f,f,NA,NA,NA,1,6,"7,3,11,12,6,13,8,10,9,4,14,2,1,5,15"
14151,commdev-image-keyboard-response,178,434047,learnblock1,960.8999999761581,img/planet12_left.png,12,Community 1,NA,FALSE,j,f,NA,NA,NA,1,6,"7,3,11,12,6,13,8,10,9,4,14,2,1,5,15"
14151,commdev-image-keyboard-response,179,435304,learnblock1,1006.6999999880791,img/planet7_left.png,7,Community 1,NA,FALSE,j,f,NA,NA,NA,1,6,"7,3,11,12,6,13,8,10,9,4,14,2,1,5,15"
14151,commdev-image-keyboard-response,180,436555,learnblock1,847,img/planet11_left.png,11,Community 1,NA,FALSE,j,f,NA,NA,NA,1,6,"7,3,11,12,6,13,8,10,9,4,14,2,1,5,15"
14151,commdev-image-keyboard-response,181,437806,learnblock1,843.6999999880791,img/planet3_left.png,3,Community 1,NA,FALSE,j,f,NA,NA,NA,1,6,"7,3,11,12,6,13,8,10,9,4,14,2,1,5,15"
14151,commdev-image-keyboard-response,182,439058,learnblock1,897.1999999880791,img/planet6_right.png,6,Community 1,NA,FALSE,f,j,NA,NA,NA,1,6,"7,3,11,12,6,13,8,10,9,4,14,2,1,5,15"
14151,commdev-image-keyboard-response,183,440309,learnblock1,969.8999999761581,img/planet14_left.png,14,Community 3,NA,TRUE,f,f,NA,NA,NA,1,6,"7,3,11,12,6,13,8,10,9,4,14,2,1,5,15"
14151,commdev-image-keyboard-response,184,441561,learnblock1,897.3000000119209,img/planet5_left.png,5,Community 3,NA,FALSE,j,f,NA,NA,NA,1,6,"7,3,11,12,6,13,8,10,9,4,14,2,1,5,15"
14151,commdev-image-keyboard-response,185,442813,learnblock1,995.8000000119209,img/planet14_right.png,14,Community 3,NA,FALSE,f,j,NA,NA,NA,1,6,"7,3,11,12,6,13,8,10,9,4,14,2,1,5,15"
14151,commdev-image-keyboard-response,186,444064,learnblock1,1196.0999999642372,img/planet15_left.png,15,Community 3,NA,FALSE,j,f,NA,NA,NA,1,6,"7,3,11,12,6,13,8,10,9,4,14,2,1,5,15"
14151,commdev-image-keyboard-response,187,445317,learnblock1,903.8000000119209,img/planet2_right.png,2,Community 3,NA,FALSE,f,j,NA,NA,NA,1,6,"7,3,11,12,6,13,8,10,9,4,14,2,1,5,15"
14151,commdev-image-keyboard-response,188,446568,learnblock1,862.6999999880791,img/planet1_right.png,1,Community 3,NA,TRUE,j,j,NA,NA,NA,1,6,"7,3,11,12,6,13,8,10,9,4,14,2,1,5,15"
14151,commdev-image-keyboard-response,189,447819,learnblock1,803.6999999880791,img/planet2_left.png,2,Community 3,NA,FALSE,j,f,NA,NA,NA,1,6,"7,3,11,12,6,13,8,10,9,4,14,2,1,5,15"
14151,commdev-image-keyboard-response,190,449071,learnblock1,899.7999999523163,img/planet5_left.png,5,Community 3,NA,FALSE,j,f,NA,NA,NA,1,6,"7,3,11,12,6,13,8,10,9,4,14,2,1,5,15"
14151,commdev-image-keyboard-response,191,450323,learnblock1,857.5,img/planet15_right.png,15,Community 3,NA,FALSE,f,j,NA,NA,NA,1,6,"7,3,11,12,6,13,8,10,9,4,14,2,1,5,15"
14151,commdev-image-keyboard-response,192,451575,learnblock1,797.2000000476837,img/planet2_right.png,2,Community 3,NA,FALSE,f,j,NA,NA,NA,1,6,"7,3,11,12,6,13,8,10,9,4,14,2,1,5,15"
14151,commdev-image-keyboard-response,193,452826,learnblock1,776.1000000238419,img/planet15_right.png,15,Community 3,NA,FALSE,f,j,NA,NA,NA,1,6,"7,3,11,12,6,13,8,10,9,4,14,2,1,5,15"
14151,commdev-image-keyboard-response,194,454077,learnblock1,675,img/planet1_left.png,1,Community 3,NA,FALSE,j,f,NA,NA,NA,1,6,"7,3,11,12,6,13,8,10,9,4,14,2,1,5,15"
14151,commdev-image-keyboard-response,195,455327,learnblock1,591.6999999880791,img/planet14_left.png,14,Community 3,NA,TRUE,f,f,NA,NA,NA,1,6,"7,3,11,12,6,13,8,10,9,4,14,2,1,5,15"
14151,commdev-image-keyboard-response,196,456579,learnblock1,733.1999999880791,img/planet5_left.png,5,Community 3,NA,FALSE,j,f,NA,NA,NA,1,6,"7,3,11,12,6,13,8,10,9,4,14,2,1,5,15"
14151,commdev-image-keyboard-response,197,457831,learnblock1,574.1999999880791,img/planet1_left.png,1,Community 3,NA,FALSE,j,f,NA,NA,NA,1,6,"7,3,11,12,6,13,8,10,9,4,14,2,1,5,15"
14151,commdev-image-keyboard-response,198,459082,learnblock1,724,img/planet2_right.png,2,Community 3,NA,FALSE,f,j,NA,NA,NA,1,6,"7,3,11,12,6,13,8,10,9,4,14,2,1,5,15"
14151,commdev-image-keyboard-response,199,460334,learnblock1,1011.1999999880791,img/planet5_right.png,5,Community 3,NA,FALSE,f,j,NA,NA,NA,1,6,"7,3,11,12,6,13,8,10,9,4,14,2,1,5,15"
14151,commdev-image-keyboard-response,200,461586,learnblock1,958.3999999761581,img/planet2_right.png,2,Community 3,NA,FALSE,f,j,NA,NA,NA,1,6,"7,3,11,12,6,13,8,10,9,4,14,2,1,5,15"
14151,commdev-image-keyboard-response,201,462838,learnblock1,942.7999999523163,img/planet5_right.png,5,Community 3,NA,FALSE,f,j,NA,NA,NA,1,6,"7,3,11,12,6,13,8,10,9,4,14,2,1,5,15"
14151,commdev-image-keyboard-response,202,464088,learnblock1,999.1000000238419,img/planet15_left.png,15,Community 3,NA,FALSE,j,f,NA,NA,NA,1,6,"7,3,11,12,6,13,8,10,9,4,14,2,1,5,15"
14151,commdev-image-keyboard-response,203,465340,learnblock1,718.2999999523163,img/planet2_right.png,2,Community 3,NA,FALSE,f,j,NA,NA,NA,1,6,"7,3,11,12,6,13,8,10,9,4,14,2,1,5,15"
14151,commdev-image-keyboard-response,204,466591,learnblock1,641.9000000357628,img/planet5_right.png,5,Community 3,NA,TRUE,j,j,NA,NA,NA,1,6,"7,3,11,12,6,13,8,10,9,4,14,2,1,5,15"
14151,commdev-image-keyboard-response,205,467842,learnblock1,486,img/planet1_right.png,1,Community 3,NA,FALSE,f,j,NA,NA,NA,1,6,"7,3,11,12,6,13,8,10,9,4,14,2,1,5,15"
14151,commdev-image-keyboard-response,206,469095,learnblock1,799.5,img/planet14_right.png,14,Community 3,NA,FALSE,f,j,NA,NA,NA,1,6,"7,3,11,12,6,13,8,10,9,4,14,2,1,5,15"
14151,commdev-image-keyboard-response,207,470346,learnblock1,799.9000000357628,img/planet1_right.png,1,Community 3,NA,FALSE,f,j,NA,NA,NA,1,6,"7,3,11,12,6,13,8,10,9,4,14,2,1,5,15"
14151,commdev-image-keyboard-response,208,471598,learnblock1,1196.800000011921,img/planet14_left.png,14,Community 3,NA,TRUE,f,f,NA,NA,NA,1,6,"7,3,11,12,6,13,8,10,9,4,14,2,1,5,15"
14151,commdev-image-keyboard-response,209,472849,learnblock1,1074.699999988079,img/planet15_left.png,15,Community 3,NA,FALSE,j,f,NA,NA,NA,1,6,"7,3,11,12,6,13,8,10,9,4,14,2,1,5,15"
14151,commdev-image-keyboard-response,210,474101,learnblock1,1100.800000011921,img/planet14_right.png,14,Community 3,NA,TRUE,j,j,NA,NA,NA,1,6,"7,3,11,12,6,13,8,10,9,4,14,2,1,5,15"
14151,commdev-image-keyboard-response,211,475352,learnblock1,970.4000000357628,img/planet15_left.png,15,Community 3,NA,TRUE,f,f,NA,NA,NA,1,6,"7,3,11,12,6,13,8,10,9,4,14,2,1,5,15"
14151,commdev-image-keyboard-response,212,476604,learnblock1,81.60000002384186,img/planet5_right.png,5,Community 3,NA,TRUE,j,j,NA,NA,NA,1,6,"7,3,11,12,6,13,8,10,9,4,14,2,1,5,15"
14151,commdev-image-keyboard-response,213,477856,learnblock1,0.30000001192092896,img/planet14_right.png,14,Community 3,NA,TRUE,j,j,NA,NA,NA,1,6,"7,3,11,12,6,13,8,10,9,4,14,2,1,5,15"
14151,commdev-image-keyboard-response,214,479107,learnblock1,1064.699999988079,img/planet5_right.png,5,Community 3,NA,FALSE,f,j,NA,NA,NA,1,6,"7,3,11,12,6,13,8,10,9,4,14,2,1,5,15"
14151,commdev-image-keyboard-response,215,480358,learnblock1,885.1000000238419,img/planet14_right.png,14,Community 3,NA,FALSE,f,j,NA,NA,NA,1,6,"7,3,11,12,6,13,8,10,9,4,14,2,1,5,15"
14151,commdev-image-keyboard-response,216,481610,learnblock1,892.3999999761581,img/planet15_left.png,15,Community 3,NA,FALSE,j,f,NA,NA,NA,1,6,"7,3,11,12,6,13,8,10,9,4,14,2,1,5,15"
14151,commdev-image-keyboard-response,217,482861,learnblock1,850.1999999880791,img/planet14_right.png,14,Community 3,NA,FALSE,f,j,NA,NA,NA,1,6,"7,3,11,12,6,13,8,10,9,4,14,2,1,5,15"
14151,commdev-image-keyboard-response,218,484113,learnblock1,737.5,img/planet1_right.png,1,Community 3,NA,TRUE,j,j,NA,NA,NA,1,6,"7,3,11,12,6,13,8,10,9,4,14,2,1,5,15"
14151,commdev-image-keyboard-response,219,485365,learnblock1,899,img/planet15_right.png,15,Community 3,NA,FALSE,f,j,NA,NA,NA,1,6,"7,3,11,12,6,13,8,10,9,4,14,2,1,5,15"
14151,commdev-image-keyboard-response,220,486618,learnblock1,682.9000000357628,img/planet5_right.png,5,Community 3,NA,FALSE,f,j,NA,NA,NA,1,6,"7,3,11,12,6,13,8,10,9,4,14,2,1,5,15"
14151,commdev-image-keyboard-response,221,487879,learnblock1,913.5,img/planet2_left.png,2,Community 3,NA,FALSE,j,f,NA,NA,NA,1,6,"7,3,11,12,6,13,8,10,9,4,14,2,1,5,15"
14151,commdev-image-keyboard-response,222,489130,learnblock1,964.8000000119209,img/planet5_right.png,5,Community 3,NA,FALSE,f,j,NA,NA,NA,1,6,"7,3,11,12,6,13,8,10,9,4,14,2,1,5,15"
14151,commdev-image-keyboard-response,223,490381,learnblock1,734.2999999523163,img/planet2_left.png,2,Community 3,NA,FALSE,j,f,NA,NA,NA,1,6,"7,3,11,12,6,13,8,10,9,4,14,2,1,5,15"
14151,commdev-image-keyboard-response,224,491632,learnblock1,609.3000000119209,img/planet5_right.png,5,Community 3,NA,FALSE,f,j,NA,NA,NA,1,6,"7,3,11,12,6,13,8,10,9,4,14,2,1,5,15"
14151,commdev-image-keyboard-response,225,492883,learnblock1,506.5,img/planet1_left.png,1,Community 3,NA,FALSE,j,f,NA,NA,NA,1,6,"7,3,11,12,6,13,8,10,9,4,14,2,1,5,15"
14151,commdev-image-keyboard-response,226,494139,learnblock1,302.19999998807907,img/planet5_right.png,5,Community 3,NA,FALSE,f,j,NA,NA,NA,1,6,"7,3,11,12,6,13,8,10,9,4,14,2,1,5,15"
14151,commdev-image-keyboard-response,227,495390,learnblock1,306.0999999642372,img/planet2_left.png,2,Community 3,NA,FALSE,j,f,NA,NA,NA,1,6,"7,3,11,12,6,13,8,10,9,4,14,2,1,5,15"
14151,commdev-image-keyboard-response,228,496643,learnblock1,288.5,img/planet15_right.png,15,Community 3,NA,FALSE,f,j,NA,NA,NA,1,6,"7,3,11,12,6,13,8,10,9,4,14,2,1,5,15"
14151,commdev-image-keyboard-response,229,497895,learnblock1,227.5999999642372,img/planet1_right.png,1,Community 3,NA,TRUE,j,j,NA,NA,NA,1,6,"7,3,11,12,6,13,8,10,9,4,14,2,1,5,15"
14151,commdev-image-keyboard-response,230,499146,learnblock1,938.3999999761581,img/planet5_right.png,5,Community 3,NA,FALSE,f,j,NA,NA,NA,1,6,"7,3,11,12,6,13,8,10,9,4,14,2,1,5,15"
14151,commdev-image-keyboard-response,231,500397,learnblock1,841.3000000119209,img/planet14_left.png,14,Community 3,NA,FALSE,j,f,NA,NA,NA,1,6,"7,3,11,12,6,13,8,10,9,4,14,2,1,5,15"
14151,commdev-image-keyboard-response,232,501649,learnblock1,725.5,img/planet6_right.png,6,Community 1,NA,FALSE,f,j,NA,NA,NA,1,6,"7,3,11,12,6,13,8,10,9,4,14,2,1,5,15"
14151,commdev-image-keyboard-response,233,502901,learnblock1,882.4000000357628,img/planet7_right.png,7,Community 1,NA,FALSE,f,j,NA,NA,NA,1,6,"7,3,11,12,6,13,8,10,9,4,14,2,1,5,15"
14151,commdev-image-keyboard-response,234,504153,learnblock1,1095.699999988079,img/planet6_right.png,6,Community 1,NA,TRUE,j,j,NA,NA,NA,1,6,"7,3,11,12,6,13,8,10,9,4,14,2,1,5,15"
14151,commdev-image-keyboard-response,235,505406,learnblock1,227.30000001192093,img/planet14_left.png,14,Community 3,NA,TRUE,f,f,NA,NA,NA,1,6,"7,3,11,12,6,13,8,10,9,4,14,2,1,5,15"
14151,commdev-image-keyboard-response,236,506658,learnblock1,111.60000002384186,img/planet1_left.png,1,Community 3,NA,FALSE,j,f,NA,NA,NA,1,6,"7,3,11,12,6,13,8,10,9,4,14,2,1,5,15"
14151,commdev-image-keyboard-response,237,507910,learnblock1,917.0999999642372,img/planet14_right.png,14,Community 3,NA,TRUE,j,j,NA,NA,NA,1,6,"7,3,11,12,6,13,8,10,9,4,14,2,1,5,15"
14151,commdev-image-keyboard-response,238,509162,learnblock1,894.8000000119209,img/planet6_right.png,6,Community 1,NA,FALSE,f,j,NA,NA,NA,1,6,"7,3,11,12,6,13,8,10,9,4,14,2,1,5,15"
14151,commdev-image-keyboard-response,239,510412,learnblock1,1117.1000000238419,img/planet14_left.png,14,Community 3,NA,TRUE,f,f,NA,NA,NA,1,6,"7,3,11,12,6,13,8,10,9,4,14,2,1,5,15"
14151,commdev-image-keyboard-response,240,511663,learnblock1,995.8000000119209,img/planet5_right.png,5,Community 3,NA,FALSE,f,j,NA,NA,NA,1,6,"7,3,11,12,6,13,8,10,9,4,14,2,1,5,15"
14151,commdev-image-keyboard-response,241,512916,learnblock1,889.5,img/planet14_right.png,14,Community 3,NA,TRUE,j,j,NA,NA,NA,1,6,"7,3,11,12,6,13,8,10,9,4,14,2,1,5,15"
14151,commdev-image-keyboard-response,242,514168,learnblock1,801.4000000357628,img/planet6_left.png,6,Community 1,NA,TRUE,f,f,NA,NA,NA,1,6,"7,3,11,12,6,13,8,10,9,4,14,2,1,5,15"
14151,commdev-image-keyboard-response,243,515418,learnblock1,1106.300000011921,img/planet14_left.png,14,Community 3,NA,FALSE,j,f,NA,NA,NA,1,6,"7,3,11,12,6,13,8,10,9,4,14,2,1,5,15"
14151,commdev-image-keyboard-response,244,516671,learnblock1,1010.4000000357628,img/planet1_left.png,1,Community 3,NA,FALSE,j,f,NA,NA,NA,1,6,"7,3,11,12,6,13,8,10,9,4,14,2,1,5,15"
14151,commdev-image-keyboard-response,245,517935,learnblock1,967.1999999880791,img/planet14_left.png,14,Community 3,NA,TRUE,f,f,NA,NA,NA,1,6,"7,3,11,12,6,13,8,10,9,4,14,2,1,5,15"
14151,commdev-image-keyboard-response,246,519186,learnblock1,766.3999999761581,img/planet5_left.png,5,Community 3,NA,TRUE,f,f,NA,NA,NA,1,6,"7,3,11,12,6,13,8,10,9,4,14,2,1,5,15"
14151,commdev-image-keyboard-response,247,520437,learnblock1,1159.5999999642372,img/planet15_right.png,15,Community 3,NA,FALSE,f,j,NA,NA,NA,1,6,"7,3,11,12,6,13,8,10,9,4,14,2,1,5,15"
14151,commdev-image-keyboard-response,248,521689,learnblock1,925.5,img/planet5_left.png,5,Community 3,NA,FALSE,j,f,NA,NA,NA,1,6,"7,3,11,12,6,13,8,10,9,4,14,2,1,5,15"
14151,commdev-image-keyboard-response,249,522940,learnblock1,887.1000000238419,img/planet14_right.png,14,Community 3,NA,FALSE,f,j,NA,NA,NA,1,6,"7,3,11,12,6,13,8,10,9,4,14,2,1,5,15"
14151,commdev-image-keyboard-response,250,524192,learnblock1,1005.5,img/planet5_right.png,5,Community 3,NA,FALSE,f,j,NA,NA,NA,1,6,"7,3,11,12,6,13,8,10,9,4,14,2,1,5,15"
14151,commdev-image-keyboard-response,251,525455,learnblock1,724.2999999523163,img/planet2_left.png,2,Community 3,NA,FALSE,j,f,NA,NA,NA,1,6,"7,3,11,12,6,13,8,10,9,4,14,2,1,5,15"
14151,commdev-image-keyboard-response,252,526707,learnblock1,568,img/planet5_left.png,5,Community 3,NA,TRUE,f,f,NA,NA,NA,1,6,"7,3,11,12,6,13,8,10,9,4,14,2,1,5,15"
14151,commdev-image-keyboard-response,253,527958,learnblock1,986.3999999761581,img/planet14_left.png,14,Community 3,NA,FALSE,j,f,NA,NA,NA,1,6,"7,3,11,12,6,13,8,10,9,4,14,2,1,5,15"
14151,commdev-image-keyboard-response,254,529210,learnblock1,848.9000000357628,img/planet6_left.png,6,Community 1,NA,FALSE,j,f,NA,NA,NA,1,6,"7,3,11,12,6,13,8,10,9,4,14,2,1,5,15"
14151,commdev-image-keyboard-response,255,530460,learnblock1,1043.1000000238419,img/planet3_right.png,3,Community 1,NA,FALSE,f,j,NA,NA,NA,1,6,"7,3,11,12,6,13,8,10,9,4,14,2,1,5,15"
14151,commdev-image-keyboard-response,256,531713,learnblock1,868.1999999880791,img/planet6_right.png,6,Community 1,NA,FALSE,f,j,NA,NA,NA,1,6,"7,3,11,12,6,13,8,10,9,4,14,2,1,5,15"
14151,commdev-image-keyboard-response,257,532965,learnblock1,853.5,img/planet7_right.png,7,Community 1,NA,FALSE,f,j,NA,NA,NA,1,6,"7,3,11,12,6,13,8,10,9,4,14,2,1,5,15"
14151,commdev-image-keyboard-response,258,534216,learnblock1,1085.5,img/planet3_right.png,3,Community 1,NA,FALSE,f,j,NA,NA,NA,1,6,"7,3,11,12,6,13,8,10,9,4,14,2,1,5,15"
14151,commdev-image-keyboard-response,259,535467,learnblock1,1145.699999988079,img/planet11_right.png,11,Community 1,NA,FALSE,f,j,NA,NA,NA,1,6,"7,3,11,12,6,13,8,10,9,4,14,2,1,5,15"
14151,commdev-image-keyboard-response,260,536718,learnblock1,913.8000000119209,img/planet7_left.png,7,Community 1,NA,FALSE,j,f,NA,NA,NA,1,6,"7,3,11,12,6,13,8,10,9,4,14,2,1,5,15"
14151,commdev-image-keyboard-response,261,537969,learnblock1,713.4000000357628,img/planet11_left.png,11,Community 1,NA,TRUE,f,f,NA,NA,NA,1,6,"7,3,11,12,6,13,8,10,9,4,14,2,1,5,15"
14151,commdev-image-keyboard-response,262,539221,learnblock1,873.6000000238419,img/planet6_right.png,6,Community 1,NA,FALSE,f,j,NA,NA,NA,1,6,"7,3,11,12,6,13,8,10,9,4,14,2,1,5,15"
14151,commdev-image-keyboard-response,263,540472,learnblock1,768.1000000238419,img/planet7_left.png,7,Community 1,NA,FALSE,j,f,NA,NA,NA,1,6,"7,3,11,12,6,13,8,10,9,4,14,2,1,5,15"
14151,commdev-image-keyboard-response,264,541724,learnblock1,820.5,img/planet3_right.png,3,Community 1,NA,FALSE,f,j,NA,NA,NA,1,6,"7,3,11,12,6,13,8,10,9,4,14,2,1,5,15"
14151,commdev-image-keyboard-response,265,542976,learnblock1,915.5,img/planet11_left.png,11,Community 1,NA,FALSE,j,f,NA,NA,NA,1,6,"7,3,11,12,6,13,8,10,9,4,14,2,1,5,15"
14151,commdev-image-keyboard-response,266,544229,learnblock1,702.1999999880791,img/planet3_right.png,3,Community 1,NA,FALSE,f,j,NA,NA,NA,1,6,"7,3,11,12,6,13,8,10,9,4,14,2,1,5,15"
14151,commdev-image-keyboard-response,267,545480,learnblock1,713.6000000238419,img/planet6_right.png,6,Community 1,NA,FALSE,f,j,NA,NA,NA,1,6,"7,3,11,12,6,13,8,10,9,4,14,2,1,5,15"
14151,commdev-image-keyboard-response,268,546732,learnblock1,852.6000000238419,img/planet11_right.png,11,Community 1,NA,FALSE,f,j,NA,NA,NA,1,6,"7,3,11,12,6,13,8,10,9,4,14,2,1,5,15"
14151,commdev-image-keyboard-response,269,547984,learnblock1,884.7000000476837,img/planet12_right.png,12,Community 1,NA,FALSE,f,j,NA,NA,NA,1,6,"7,3,11,12,6,13,8,10,9,4,14,2,1,5,15"
14151,commdev-image-keyboard-response,270,549236,learnblock1,751.7000000476837,img/planet11_left.png,11,Community 1,NA,FALSE,j,f,NA,NA,NA,1,6,"7,3,11,12,6,13,8,10,9,4,14,2,1,5,15"
14151,commdev-image-keyboard-response,271,550488,learnblock1,340.19999998807907,img/planet6_right.png,6,Community 1,NA,FALSE,f,j,NA,NA,NA,1,6,"7,3,11,12,6,13,8,10,9,4,14,2,1,5,15"
14151,commdev-image-keyboard-response,272,551739,learnblock1,280.10000002384186,img/planet3_right.png,3,Community 1,NA,FALSE,f,j,NA,NA,NA,1,6,"7,3,11,12,6,13,8,10,9,4,14,2,1,5,15"
14151,commdev-image-keyboard-response,273,552991,learnblock1,266.0999999642372,img/planet6_left.png,6,Community 1,NA,FALSE,j,f,NA,NA,NA,1,6,"7,3,11,12,6,13,8,10,9,4,14,2,1,5,15"
14151,commdev-image-keyboard-response,274,554243,learnblock1,249.5,img/planet11_right.png,11,Community 1,NA,FALSE,f,j,NA,NA,NA,1,6,"7,3,11,12,6,13,8,10,9,4,14,2,1,5,15"
14151,commdev-image-keyboard-response,275,555494,learnblock1,312,img/planet7_left.png,7,Community 1,NA,FALSE,j,f,NA,NA,NA,1,6,"7,3,11,12,6,13,8,10,9,4,14,2,1,5,15"
14151,commdev-image-keyboard-response,276,556745,learnblock1,658.7999999523163,img/planet6_left.png,6,Community 1,NA,FALSE,j,f,NA,NA,NA,1,6,"7,3,11,12,6,13,8,10,9,4,14,2,1,5,15"
14151,commdev-image-keyboard-response,277,557997,learnblock1,825.5,img/planet11_left.png,11,Community 1,NA,FALSE,j,f,NA,NA,NA,1,6,"7,3,11,12,6,13,8,10,9,4,14,2,1,5,15"
14151,commdev-image-keyboard-response,278,559249,learnblock1,886.8000000119209,img/planet7_left.png,7,Community 1,NA,FALSE,j,f,NA,NA,NA,1,6,"7,3,11,12,6,13,8,10,9,4,14,2,1,5,15"
14151,commdev-image-keyboard-response,279,560501,learnblock1,919.3000000119209,img/planet11_left.png,11,Community 1,NA,FALSE,j,f,NA,NA,NA,1,6,"7,3,11,12,6,13,8,10,9,4,14,2,1,5,15"
14151,commdev-image-keyboard-response,280,561752,learnblock1,927,img/planet12_left.png,12,Community 1,NA,FALSE,j,f,NA,NA,NA,1,6,"7,3,11,12,6,13,8,10,9,4,14,2,1,5,15"
14151,commdev-image-keyboard-response,281,563004,learnblock1,802.8000000119209,img/planet11_right.png,11,Community 1,NA,TRUE,j,j,NA,NA,NA,1,6,"7,3,11,12,6,13,8,10,9,4,14,2,1,5,15"
14151,commdev-image-keyboard-response,282,564255,learnblock1,983.1999999880791,img/planet3_left.png,3,Community 1,NA,FALSE,j,f,NA,NA,NA,1,6,"7,3,11,12,6,13,8,10,9,4,14,2,1,5,15"
14151,commdev-image-keyboard-response,283,565507,learnblock1,942.1999999880791,img/planet6_left.png,6,Community 1,NA,FALSE,j,f,NA,NA,NA,1,6,"7,3,11,12,6,13,8,10,9,4,14,2,1,5,15"
14151,commdev-image-keyboard-response,284,566758,learnblock1,845.3999999761581,img/planet11_left.png,11,Community 1,NA,FALSE,j,f,NA,NA,NA,1,6,"7,3,11,12,6,13,8,10,9,4,14,2,1,5,15"
14151,commdev-image-keyboard-response,285,568011,learnblock1,938.6000000238419,img/planet6_right.png,6,Community 1,NA,FALSE,f,j,NA,NA,NA,1,6,"7,3,11,12,6,13,8,10,9,4,14,2,1,5,15"
14151,commdev-image-keyboard-response,286,569263,learnblock1,1005.3000000119209,img/planet7_left.png,7,Community 1,NA,FALSE,j,f,NA,NA,NA,1,6,"7,3,11,12,6,13,8,10,9,4,14,2,1,5,15"
14151,commdev-image-keyboard-response,287,570513,learnblock1,1140.3999999761581,img/planet12_left.png,12,Community 1,NA,TRUE,f,f,NA,NA,NA,1,6,"7,3,11,12,6,13,8,10,9,4,14,2,1,5,15"
14151,commdev-image-keyboard-response,288,571764,learnblock1,1054.800000011921,img/planet3_left.png,3,Community 1,NA,FALSE,j,f,NA,NA,NA,1,6,"7,3,11,12,6,13,8,10,9,4,14,2,1,5,15"
14151,commdev-image-keyboard-response,289,573015,learnblock1,1093.199999988079,img/planet7_left.png,7,Community 1,NA,TRUE,f,f,NA,NA,NA,1,6,"7,3,11,12,6,13,8,10,9,4,14,2,1,5,15"
14151,commdev-image-keyboard-response,290,574266,learnblock1,1054.699999988079,img/planet6_left.png,6,Community 1,NA,FALSE,j,f,NA,NA,NA,1,6,"7,3,11,12,6,13,8,10,9,4,14,2,1,5,15"
14151,commdev-image-keyboard-response,291,575519,learnblock1,869.5999999642372,img/planet7_left.png,7,Community 1,NA,FALSE,j,f,NA,NA,NA,1,6,"7,3,11,12,6,13,8,10,9,4,14,2,1,5,15"
14151,commdev-image-keyboard-response,292,576770,learnblock1,905,img/planet3_left.png,3,Community 1,NA,FALSE,j,f,NA,NA,NA,1,6,"7,3,11,12,6,13,8,10,9,4,14,2,1,5,15"
14151,commdev-image-keyboard-response,293,578021,learnblock1,992,img/planet11_left.png,11,Community 1,NA,FALSE,j,f,NA,NA,NA,1,6,"7,3,11,12,6,13,8,10,9,4,14,2,1,5,15"
14151,commdev-image-keyboard-response,294,579272,learnblock1,982.1000000238419,img/planet7_right.png,7,Community 1,NA,FALSE,f,j,NA,NA,NA,1,6,"7,3,11,12,6,13,8,10,9,4,14,2,1,5,15"
14151,commdev-image-keyboard-response,295,580524,learnblock1,999.2999999523163,img/planet11_left.png,11,Community 1,NA,FALSE,j,f,NA,NA,NA,1,6,"7,3,11,12,6,13,8,10,9,4,14,2,1,5,15"
14151,commdev-image-keyboard-response,296,581775,learnblock1,865.5,img/planet6_left.png,6,Community 1,NA,TRUE,f,f,NA,NA,NA,1,6,"7,3,11,12,6,13,8,10,9,4,14,2,1,5,15"
14151,commdev-image-keyboard-response,297,583027,learnblock1,126.30000001192093,img/planet11_right.png,11,Community 1,NA,TRUE,j,j,NA,NA,NA,1,6,"7,3,11,12,6,13,8,10,9,4,14,2,1,5,15"
14151,commdev-image-keyboard-response,298,584279,learnblock1,100.59999996423721,img/planet12_right.png,12,Community 1,NA,FALSE,f,j,NA,NA,NA,1,6,"7,3,11,12,6,13,8,10,9,4,14,2,1,5,15"
14151,commdev-image-keyboard-response,299,585539,learnblock1,0.40000003576278687,img/planet11_left.png,11,Community 1,NA,TRUE,f,f,NA,NA,NA,1,6,"7,3,11,12,6,13,8,10,9,4,14,2,1,5,15"
14151,commdev-image-keyboard-response,300,586790,learnblock1,670.6999999880791,img/planet6_right.png,6,Community 1,NA,FALSE,f,j,NA,NA,NA,1,6,"7,3,11,12,6,13,8,10,9,4,14,2,1,5,15"
14151,commdev-image-keyboard-response,301,588041,learnblock1,672.1000000238419,img/planet14_left.png,14,Community 3,NA,FALSE,j,f,NA,NA,NA,1,6,"7,3,11,12,6,13,8,10,9,4,14,2,1,5,15"
14151,commdev-image-keyboard-response,302,589294,learnblock1,597.3999999761581,img/planet1_right.png,1,Community 3,NA,FALSE,f,j,NA,NA,NA,1,6,"7,3,11,12,6,13,8,10,9,4,14,2,1,5,15"
14151,commdev-image-keyboard-response,303,590555,learnblock1,908.2000000476837,img/planet5_right.png,5,Community 3,NA,FALSE,f,j,NA,NA,NA,1,6,"7,3,11,12,6,13,8,10,9,4,14,2,1,5,15"
14151,commdev-image-keyboard-response,304,591806,learnblock1,764.1999999880791,img/planet2_right.png,2,Community 3,NA,FALSE,f,j,NA,NA,NA,1,6,"7,3,11,12,6,13,8,10,9,4,14,2,1,5,15"
14151,commdev-image-keyboard-response,305,593058,learnblock1,834.5,img/planet5_right.png,5,Community 3,NA,FALSE,f,j,NA,NA,NA,1,6,"7,3,11,12,6,13,8,10,9,4,14,2,1,5,15"
14151,commdev-image-keyboard-response,306,594309,learnblock1,1066.199999988079,img/planet14_left.png,14,Community 3,NA,FALSE,j,f,NA,NA,NA,1,6,"7,3,11,12,6,13,8,10,9,4,14,2,1,5,15"
14151,commdev-image-keyboard-response,307,595561,learnblock1,1157.3999999761581,img/planet6_left.png,6,Community 1,NA,FALSE,j,f,NA,NA,NA,1,6,"7,3,11,12,6,13,8,10,9,4,14,2,1,5,15"
14151,commdev-image-keyboard-response,308,596812,learnblock1,1033.5,img/planet7_right.png,7,Community 1,NA,FALSE,f,j,NA,NA,NA,1,6,"7,3,11,12,6,13,8,10,9,4,14,2,1,5,15"
14151,commdev-image-keyboard-response,309,598064,learnblock1,814.8999999761581,img/planet6_left.png,6,Community 1,NA,FALSE,j,f,NA,NA,NA,1,6,"7,3,11,12,6,13,8,10,9,4,14,2,1,5,15"
14151,commdev-image-keyboard-response,310,599315,learnblock1,1003.8000000119209,img/planet7_left.png,7,Community 1,NA,FALSE,j,f,NA,NA,NA,1,6,"7,3,11,12,6,13,8,10,9,4,14,2,1,5,15"
14151,commdev-image-keyboard-response,311,600567,learnblock1,1007.8999999761581,img/planet3_right.png,3,Community 1,NA,FALSE,f,j,NA,NA,NA,1,6,"7,3,11,12,6,13,8,10,9,4,14,2,1,5,15"
14151,commdev-image-keyboard-response,312,601818,learnblock1,810.4000000357628,img/planet6_left.png,6,Community 1,NA,FALSE,j,f,NA,NA,NA,1,6,"7,3,11,12,6,13,8,10,9,4,14,2,1,5,15"
14151,commdev-image-keyboard-response,313,603070,learnblock1,703,img/planet14_right.png,14,Community 3,NA,FALSE,f,j,NA,NA,NA,1,6,"7,3,11,12,6,13,8,10,9,4,14,2,1,5,15"
14151,commdev-image-keyboard-response,314,604321,learnblock1,823.8000000119209,img/planet5_right.png,5,Community 3,NA,FALSE,f,j,NA,NA,NA,1,6,"7,3,11,12,6,13,8,10,9,4,14,2,1,5,15"
14151,commdev-image-keyboard-response,315,605572,learnblock1,660.5,img/planet15_left.png,15,Community 3,NA,FALSE,j,f,NA,NA,NA,1,6,"7,3,11,12,6,13,8,10,9,4,14,2,1,5,15"
14151,commdev-image-keyboard-response,316,606825,learnblock1,757.2999999523163,img/planet14_right.png,14,Community 3,NA,FALSE,f,j,NA,NA,NA,1,6,"7,3,11,12,6,13,8,10,9,4,14,2,1,5,15"
14151,commdev-image-keyboard-response,317,608076,learnblock1,745.6999999880791,img/planet6_left.png,6,Community 1,NA,FALSE,j,f,NA,NA,NA,1,6,"7,3,11,12,6,13,8,10,9,4,14,2,1,5,15"
14151,commdev-image-keyboard-response,318,609327,learnblock1,778.1999999880791,img/planet3_left.png,3,Community 1,NA,FALSE,j,f,NA,NA,NA,1,6,"7,3,11,12,6,13,8,10,9,4,14,2,1,5,15"
14151,commdev-image-keyboard-response,319,610579,learnblock1,906.5,img/planet12_left.png,12,Community 1,NA,FALSE,j,f,NA,NA,NA,1,6,"7,3,11,12,6,13,8,10,9,4,14,2,1,5,15"
14151,commdev-image-keyboard-response,320,611831,learnblock1,825.8000000119209,img/planet7_right.png,7,Community 1,NA,FALSE,f,j,NA,NA,NA,1,6,"7,3,11,12,6,13,8,10,9,4,14,2,1,5,15"
14151,commdev-image-keyboard-response,321,613083,learnblock1,905.9000000357628,img/planet3_right.png,3,Community 1,NA,FALSE,f,j,NA,NA,NA,1,6,"7,3,11,12,6,13,8,10,9,4,14,2,1,5,15"
14151,commdev-image-keyboard-response,322,614334,learnblock1,1032.4000000357628,img/planet6_right.png,6,Community 1,NA,FALSE,f,j,NA,NA,NA,1,6,"7,3,11,12,6,13,8,10,9,4,14,2,1,5,15"
14151,commdev-image-keyboard-response,323,615585,learnblock1,1062.7000000476837,img/planet3_left.png,3,Community 1,NA,FALSE,j,f,NA,NA,NA,1,6,"7,3,11,12,6,13,8,10,9,4,14,2,1,5,15"
14151,commdev-image-keyboard-response,324,616837,learnblock1,808.3000000119209,img/planet11_right.png,11,Community 1,NA,FALSE,f,j,NA,NA,NA,1,6,"7,3,11,12,6,13,8,10,9,4,14,2,1,5,15"
14151,commdev-image-keyboard-response,325,618088,learnblock1,766.5,img/planet7_left.png,7,Community 1,NA,FALSE,j,f,NA,NA,NA,1,6,"7,3,11,12,6,13,8,10,9,4,14,2,1,5,15"
14151,commdev-image-keyboard-response,326,619339,learnblock1,707.8000000119209,img/planet11_right.png,11,Community 1,NA,FALSE,f,j,NA,NA,NA,1,6,"7,3,11,12,6,13,8,10,9,4,14,2,1,5,15"
14151,commdev-image-keyboard-response,327,620590,learnblock1,711,img/planet7_left.png,7,Community 1,NA,FALSE,j,f,NA,NA,NA,1,6,"7,3,11,12,6,13,8,10,9,4,14,2,1,5,15"
14151,commdev-image-keyboard-response,328,621841,learnblock1,736.1999999880791,img/planet12_left.png,12,Community 1,NA,FALSE,j,f,NA,NA,NA,1,6,"7,3,11,12,6,13,8,10,9,4,14,2,1,5,15"
14151,commdev-image-keyboard-response,329,623093,learnblock1,813.1999999880791,img/planet7_right.png,7,Community 1,NA,FALSE,f,j,NA,NA,NA,1,6,"7,3,11,12,6,13,8,10,9,4,14,2,1,5,15"
14151,commdev-image-keyboard-response,330,624344,learnblock1,882.8999999761581,img/planet3_left.png,3,Community 1,NA,FALSE,j,f,NA,NA,NA,1,6,"7,3,11,12,6,13,8,10,9,4,14,2,1,5,15"
14151,commdev-image-keyboard-response,331,625596,learnblock1,1085.300000011921,img/planet12_right.png,12,Community 1,NA,FALSE,f,j,NA,NA,NA,1,6,"7,3,11,12,6,13,8,10,9,4,14,2,1,5,15"
14151,commdev-image-keyboard-response,332,626847,learnblock1,929,img/planet7_left.png,7,Community 1,NA,FALSE,j,f,NA,NA,NA,1,6,"7,3,11,12,6,13,8,10,9,4,14,2,1,5,15"
14151,commdev-image-keyboard-response,333,628099,learnblock1,980.1000000238419,img/planet6_left.png,6,Community 1,NA,TRUE,f,f,NA,NA,NA,1,6,"7,3,11,12,6,13,8,10,9,4,14,2,1,5,15"
14151,commdev-image-keyboard-response,334,629351,learnblock1,1014.8999999761581,img/planet7_right.png,7,Community 1,NA,FALSE,f,j,NA,NA,NA,1,6,"7,3,11,12,6,13,8,10,9,4,14,2,1,5,15"
14151,commdev-image-keyboard-response,335,630603,learnblock1,1091.300000011921,img/planet6_right.png,6,Community 1,NA,FALSE,f,j,NA,NA,NA,1,6,"7,3,11,12,6,13,8,10,9,4,14,2,1,5,15"
14151,commdev-image-keyboard-response,336,631857,learnblock1,877,img/planet3_left.png,3,Community 1,NA,FALSE,j,f,NA,NA,NA,1,6,"7,3,11,12,6,13,8,10,9,4,14,2,1,5,15"
14151,commdev-image-keyboard-response,337,633110,learnblock1,774.3999999761581,img/planet12_left.png,12,Community 1,NA,FALSE,j,f,NA,NA,NA,1,6,"7,3,11,12,6,13,8,10,9,4,14,2,1,5,15"
14151,commdev-image-keyboard-response,338,634362,learnblock1,882.5,img/planet3_left.png,3,Community 1,NA,FALSE,j,f,NA,NA,NA,1,6,"7,3,11,12,6,13,8,10,9,4,14,2,1,5,15"
14151,commdev-image-keyboard-response,339,635614,learnblock1,1071.0999999642372,img/planet7_left.png,7,Community 1,NA,FALSE,j,f,NA,NA,NA,1,6,"7,3,11,12,6,13,8,10,9,4,14,2,1,5,15"
14151,commdev-image-keyboard-response,340,636865,learnblock1,830.1999999880791,img/planet12_right.png,12,Community 1,NA,FALSE,f,j,NA,NA,NA,1,6,"7,3,11,12,6,13,8,10,9,4,14,2,1,5,15"
14151,commdev-image-keyboard-response,341,638117,learnblock1,987.5,img/planet7_left.png,7,Community 1,NA,FALSE,j,f,NA,NA,NA,1,6,"7,3,11,12,6,13,8,10,9,4,14,2,1,5,15"
14151,commdev-image-keyboard-response,342,639368,learnblock1,1210.9000000357628,img/planet3_left.png,3,Community 1,NA,FALSE,j,f,NA,NA,NA,1,6,"7,3,11,12,6,13,8,10,9,4,14,2,1,5,15"
14151,commdev-image-keyboard-response,343,640619,learnblock1,907.0999999642372,img/planet12_right.png,12,Community 1,NA,FALSE,f,j,NA,NA,NA,1,6,"7,3,11,12,6,13,8,10,9,4,14,2,1,5,15"
14151,commdev-image-keyboard-response,344,641870,learnblock1,1081.699999988079,img/planet11_left.png,11,Community 1,NA,FALSE,j,f,NA,NA,NA,1,6,"7,3,11,12,6,13,8,10,9,4,14,2,1,5,15"
14151,commdev-image-keyboard-response,345,643121,learnblock1,1094.300000011921,img/planet6_left.png,6,Community 1,NA,FALSE,j,f,NA,NA,NA,1,6,"7,3,11,12,6,13,8,10,9,4,14,2,1,5,15"
14151,commdev-image-keyboard-response,346,644372,learnblock1,null,img/planet11_left.png,11,Community 1,NA,FALSE,null,f,NA,NA,NA,1,6,"7,3,11,12,6,13,8,10,9,4,14,2,1,5,15"
14151,commdev-image-keyboard-response,347,645624,learnblock1,54.09999996423721,img/planet3_right.png,3,Community 1,NA,TRUE,j,j,NA,NA,NA,1,6,"7,3,11,12,6,13,8,10,9,4,14,2,1,5,15"
14151,commdev-image-keyboard-response,351,675104,learnblock2,1088,img/planet14_left.png,14,Community 3,NA,TRUE,f,f,NA,NA,NA,1,6,"7,3,11,12,6,13,8,10,9,4,14,2,1,5,15"
14151,commdev-image-keyboard-response,352,676358,learnblock2,null,img/planet5_right.png,5,Community 3,NA,FALSE,null,j,NA,NA,NA,1,6,"7,3,11,12,6,13,8,10,9,4,14,2,1,5,15"
14151,commdev-image-keyboard-response,353,677610,learnblock2,43.5,img/planet2_right.png,2,Community 3,NA,FALSE,f,j,NA,NA,NA,1,6,"7,3,11,12,6,13,8,10,9,4,14,2,1,5,15"
14151,commdev-image-keyboard-response,354,678862,learnblock2,812.1999999880791,img/planet5_left.png,5,Community 3,NA,FALSE,j,f,NA,NA,NA,1,6,"7,3,11,12,6,13,8,10,9,4,14,2,1,5,15"
14151,commdev-image-keyboard-response,355,680114,learnblock2,672,img/planet1_left.png,1,Community 3,NA,FALSE,j,f,NA,NA,NA,1,6,"7,3,11,12,6,13,8,10,9,4,14,2,1,5,15"
14151,commdev-image-keyboard-response,356,681366,learnblock2,562.5,img/planet2_right.png,2,Community 3,NA,FALSE,f,j,NA,NA,NA,1,6,"7,3,11,12,6,13,8,10,9,4,14,2,1,5,15"
14151,commdev-image-keyboard-response,357,682617,learnblock2,692.3000000119209,img/planet15_right.png,15,Community 3,NA,FALSE,f,j,NA,NA,NA,1,6,"7,3,11,12,6,13,8,10,9,4,14,2,1,5,15"
14151,commdev-image-keyboard-response,358,683869,learnblock2,562.3999999761581,img/planet1_left.png,1,Community 3,NA,FALSE,j,f,NA,NA,NA,1,6,"7,3,11,12,6,13,8,10,9,4,14,2,1,5,15"
14151,commdev-image-keyboard-response,359,685121,learnblock2,629.4000000357628,img/planet14_right.png,14,Community 3,NA,FALSE,f,j,NA,NA,NA,1,6,"7,3,11,12,6,13,8,10,9,4,14,2,1,5,15"
14151,commdev-image-keyboard-response,360,686373,learnblock2,689.8000000119209,img/planet1_right.png,1,Community 3,NA,FALSE,f,j,NA,NA,NA,1,6,"7,3,11,12,6,13,8,10,9,4,14,2,1,5,15"
14151,commdev-image-keyboard-response,361,687624,learnblock2,602.3999999761581,img/planet5_left.png,5,Community 3,NA,FALSE,j,f,NA,NA,NA,1,6,"7,3,11,12,6,13,8,10,9,4,14,2,1,5,15"
14151,commdev-image-keyboard-response,362,688876,learnblock2,664.7000000476837,img/planet14_left.png,14,Community 3,NA,FALSE,j,f,NA,NA,NA,1,6,"7,3,11,12,6,13,8,10,9,4,14,2,1,5,15"
14151,commdev-image-keyboard-response,363,690126,learnblock2,548.6000000238419,img/planet1_right.png,1,Community 3,NA,FALSE,f,j,NA,NA,NA,1,6,"7,3,11,12,6,13,8,10,9,4,14,2,1,5,15"
14151,commdev-image-keyboard-response,364,691378,learnblock2,545.5,img/planet2_left.png,2,Community 3,NA,FALSE,j,f,NA,NA,NA,1,6,"7,3,11,12,6,13,8,10,9,4,14,2,1,5,15"
14151,commdev-image-keyboard-response,365,692629,learnblock2,495.89999997615814,img/planet1_right.png,1,Community 3,NA,FALSE,f,j,NA,NA,NA,1,6,"7,3,11,12,6,13,8,10,9,4,14,2,1,5,15"
14151,commdev-image-keyboard-response,366,693881,learnblock2,642.3999999761581,img/planet5_right.png,5,Community 3,NA,FALSE,f,j,NA,NA,NA,1,6,"7,3,11,12,6,13,8,10,9,4,14,2,1,5,15"
14151,commdev-image-keyboard-response,367,695133,learnblock2,569.4000000357628,img/planet1_left.png,1,Community 3,NA,FALSE,j,f,NA,NA,NA,1,6,"7,3,11,12,6,13,8,10,9,4,14,2,1,5,15"
14151,commdev-image-keyboard-response,368,696385,learnblock2,476.60000002384186,img/planet14_left.png,14,Community 3,NA,TRUE,f,f,NA,NA,NA,1,6,"7,3,11,12,6,13,8,10,9,4,14,2,1,5,15"
14151,commdev-image-keyboard-response,369,697636,learnblock2,833.6999999880791,img/planet15_right.png,15,Community 3,NA,TRUE,j,j,NA,NA,NA,1,6,"7,3,11,12,6,13,8,10,9,4,14,2,1,5,15"
14151,commdev-image-keyboard-response,370,698888,learnblock2,862.3000000119209,img/planet5_left.png,5,Community 3,NA,FALSE,j,f,NA,NA,NA,1,6,"7,3,11,12,6,13,8,10,9,4,14,2,1,5,15"
14151,commdev-image-keyboard-response,371,700139,learnblock2,715.1999999880791,img/planet15_left.png,15,Community 3,NA,FALSE,j,f,NA,NA,NA,1,6,"7,3,11,12,6,13,8,10,9,4,14,2,1,5,15"
14151,commdev-image-keyboard-response,372,701391,learnblock2,825.5,img/planet2_left.png,2,Community 3,NA,FALSE,j,f,NA,NA,NA,1,6,"7,3,11,12,6,13,8,10,9,4,14,2,1,5,15"
14151,commdev-image-keyboard-response,373,702643,learnblock2,774.6999999880791,img/planet10_right.png,10,Community 2,NA,FALSE,f,j,NA,NA,NA,1,6,"7,3,11,12,6,13,8,10,9,4,14,2,1,5,15"
14151,commdev-image-keyboard-response,374,703894,learnblock2,922.4000000357628,img/planet9_right.png,9,Community 2,NA,FALSE,f,j,NA,NA,NA,1,6,"7,3,11,12,6,13,8,10,9,4,14,2,1,5,15"
14151,commdev-image-keyboard-response,375,705146,learnblock2,1079.5,img/planet13_right.png,13,Community 2,NA,FALSE,f,j,NA,NA,NA,1,6,"7,3,11,12,6,13,8,10,9,4,14,2,1,5,15"
14151,commdev-image-keyboard-response,376,706396,learnblock2,null,img/planet12_left.png,12,Community 1,NA,FALSE,null,f,NA,NA,NA,1,6,"7,3,11,12,6,13,8,10,9,4,14,2,1,5,15"
14151,commdev-image-keyboard-response,377,707647,learnblock2,88.5,img/planet3_left.png,3,Community 1,NA,TRUE,f,f,NA,NA,NA,1,6,"7,3,11,12,6,13,8,10,9,4,14,2,1,5,15"
14151,commdev-image-keyboard-response,378,708899,learnblock2,777.5,img/planet6_left.png,6,Community 1,NA,FALSE,j,f,NA,NA,NA,1,6,"7,3,11,12,6,13,8,10,9,4,14,2,1,5,15"
14151,commdev-image-keyboard-response,379,710151,learnblock2,818.7000000476837,img/planet3_left.png,3,Community 1,NA,FALSE,j,f,NA,NA,NA,1,6,"7,3,11,12,6,13,8,10,9,4,14,2,1,5,15"
14151,commdev-image-keyboard-response,380,711407,learnblock2,664.6000000238419,img/planet7_right.png,7,Community 1,NA,FALSE,f,j,NA,NA,NA,1,6,"7,3,11,12,6,13,8,10,9,4,14,2,1,5,15"
14151,commdev-image-keyboard-response,381,712658,learnblock2,1108,img/planet11_right.png,11,Community 1,NA,FALSE,f,j,NA,NA,NA,1,6,"7,3,11,12,6,13,8,10,9,4,14,2,1,5,15"
14151,commdev-image-keyboard-response,382,713909,learnblock2,null,img/planet7_right.png,7,Community 1,NA,FALSE,null,j,NA,NA,NA,1,6,"7,3,11,12,6,13,8,10,9,4,14,2,1,5,15"
14151,commdev-image-keyboard-response,383,715160,learnblock2,9.100000023841858,img/planet11_right.png,11,Community 1,NA,FALSE,f,j,NA,NA,NA,1,6,"7,3,11,12,6,13,8,10,9,4,14,2,1,5,15"
14151,commdev-image-keyboard-response,384,716411,learnblock2,906.3000000119209,img/planet12_left.png,12,Community 1,NA,FALSE,j,f,NA,NA,NA,1,6,"7,3,11,12,6,13,8,10,9,4,14,2,1,5,15"
14151,commdev-image-keyboard-response,385,717676,learnblock2,781.1999999880791,img/planet7_right.png,7,Community 1,NA,FALSE,f,j,NA,NA,NA,1,6,"7,3,11,12,6,13,8,10,9,4,14,2,1,5,15"
14151,commdev-image-keyboard-response,386,718928,learnblock2,853.6000000238419,img/planet3_right.png,3,Community 1,NA,FALSE,f,j,NA,NA,NA,1,6,"7,3,11,12,6,13,8,10,9,4,14,2,1,5,15"
14151,commdev-image-keyboard-response,387,720179,learnblock2,878.6999999880791,img/planet6_left.png,6,Community 1,NA,FALSE,j,f,NA,NA,NA,1,6,"7,3,11,12,6,13,8,10,9,4,14,2,1,5,15"
14151,commdev-image-keyboard-response,388,721436,learnblock2,762.7999999523163,img/planet11_left.png,11,Community 1,NA,TRUE,f,f,NA,NA,NA,1,6,"7,3,11,12,6,13,8,10,9,4,14,2,1,5,15"
14151,commdev-image-keyboard-response,389,722688,learnblock2,1034.199999988079,img/planet7_left.png,7,Community 1,NA,FALSE,j,f,NA,NA,NA,1,6,"7,3,11,12,6,13,8,10,9,4,14,2,1,5,15"
14151,commdev-image-keyboard-response,390,723940,learnblock2,1047.3999999761581,img/planet12_left.png,12,Community 1,NA,FALSE,j,f,NA,NA,NA,1,6,"7,3,11,12,6,13,8,10,9,4,14,2,1,5,15"
14151,commdev-image-keyboard-response,391,725192,learnblock2,1074,img/planet13_left.png,13,Community 2,NA,FALSE,j,f,NA,NA,NA,1,6,"7,3,11,12,6,13,8,10,9,4,14,2,1,5,15"
14151,commdev-image-keyboard-response,392,726443,learnblock2,796.0999999642372,img/planet9_right.png,9,Community 2,NA,FALSE,f,j,NA,NA,NA,1,6,"7,3,11,12,6,13,8,10,9,4,14,2,1,5,15"
14151,commdev-image-keyboard-response,393,727696,learnblock2,908.3999999761581,img/planet10_left.png,10,Community 2,NA,FALSE,j,f,NA,NA,NA,1,6,"7,3,11,12,6,13,8,10,9,4,14,2,1,5,15"
14151,commdev-image-keyboard-response,394,728947,learnblock2,1115.699999988079,img/planet4_left.png,4,Community 2,NA,FALSE,j,f,NA,NA,NA,1,6,"7,3,11,12,6,13,8,10,9,4,14,2,1,5,15"
14151,commdev-image-keyboard-response,395,730198,learnblock2,778.6999999880791,img/planet10_left.png,10,Community 2,NA,FALSE,j,f,NA,NA,NA,1,6,"7,3,11,12,6,13,8,10,9,4,14,2,1,5,15"
14151,commdev-image-keyboard-response,396,731449,learnblock2,919.6999999880791,img/planet4_right.png,4,Community 2,NA,FALSE,f,j,NA,NA,NA,1,6,"7,3,11,12,6,13,8,10,9,4,14,2,1,5,15"
14151,commdev-image-keyboard-response,397,732700,learnblock2,1056.199999988079,img/planet8_left.png,8,Community 2,NA,FALSE,j,f,NA,NA,NA,1,6,"7,3,11,12,6,13,8,10,9,4,14,2,1,5,15"
14151,commdev-image-keyboard-response,398,733953,learnblock2,1173.699999988079,img/planet9_left.png,9,Community 2,NA,FALSE,j,f,NA,NA,NA,1,6,"7,3,11,12,6,13,8,10,9,4,14,2,1,5,15"
14151,commdev-image-keyboard-response,399,735204,learnblock2,1075.3999999761581,img/planet4_left.png,4,Community 2,NA,FALSE,j,f,NA,NA,NA,1,6,"7,3,11,12,6,13,8,10,9,4,14,2,1,5,15"
14151,commdev-image-keyboard-response,400,736455,learnblock2,934.6999999880791,img/planet8_right.png,8,Community 2,NA,FALSE,f,j,NA,NA,NA,1,6,"7,3,11,12,6,13,8,10,9,4,14,2,1,5,15"
14151,commdev-image-keyboard-response,401,737707,learnblock2,855.8000000119209,img/planet10_right.png,10,Community 2,NA,FALSE,f,j,NA,NA,NA,1,6,"7,3,11,12,6,13,8,10,9,4,14,2,1,5,15"
14151,commdev-image-keyboard-response,402,738958,learnblock2,920.5,img/planet2_right.png,2,Community 3,NA,FALSE,f,j,NA,NA,NA,1,6,"7,3,11,12,6,13,8,10,9,4,14,2,1,5,15"
14151,commdev-image-keyboard-response,403,740211,learnblock2,995.5,img/planet5_right.png,5,Community 3,NA,FALSE,f,j,NA,NA,NA,1,6,"7,3,11,12,6,13,8,10,9,4,14,2,1,5,15"
14151,commdev-image-keyboard-response,404,741463,learnblock2,712.7000000476837,img/planet2_left.png,2,Community 3,NA,FALSE,j,f,NA,NA,NA,1,6,"7,3,11,12,6,13,8,10,9,4,14,2,1,5,15"
14151,commdev-image-keyboard-response,405,742715,learnblock2,778,img/planet5_right.png,5,Community 3,NA,FALSE,f,j,NA,NA,NA,1,6,"7,3,11,12,6,13,8,10,9,4,14,2,1,5,15"
14151,commdev-image-keyboard-response,406,743966,learnblock2,945.3000000119209,img/planet2_right.png,2,Community 3,NA,FALSE,f,j,NA,NA,NA,1,6,"7,3,11,12,6,13,8,10,9,4,14,2,1,5,15"
14151,commdev-image-keyboard-response,407,745219,learnblock2,860.3999999761581,img/planet10_left.png,10,Community 2,NA,FALSE,j,f,NA,NA,NA,1,6,"7,3,11,12,6,13,8,10,9,4,14,2,1,5,15"
14151,commdev-image-keyboard-response,408,746470,learnblock2,504.5,img/planet2_left.png,2,Community 3,NA,TRUE,f,f,NA,NA,NA,1,6,"7,3,11,12,6,13,8,10,9,4,14,2,1,5,15"
14151,commdev-image-keyboard-response,409,747722,learnblock2,835.8000000119209,img/planet1_right.png,1,Community 3,NA,FALSE,f,j,NA,NA,NA,1,6,"7,3,11,12,6,13,8,10,9,4,14,2,1,5,15"
14151,commdev-image-keyboard-response,410,748973,learnblock2,833.9000000357628,img/planet15_right.png,15,Community 3,NA,FALSE,f,j,NA,NA,NA,1,6,"7,3,11,12,6,13,8,10,9,4,14,2,1,5,15"
14151,commdev-image-keyboard-response,411,750224,learnblock2,1055.699999988079,img/planet14_left.png,14,Community 3,NA,TRUE,f,f,NA,NA,NA,1,6,"7,3,11,12,6,13,8,10,9,4,14,2,1,5,15"
14151,commdev-image-keyboard-response,412,751476,learnblock2,1009.1000000238419,img/planet1_left.png,1,Community 3,NA,FALSE,j,f,NA,NA,NA,1,6,"7,3,11,12,6,13,8,10,9,4,14,2,1,5,15"
14151,commdev-image-keyboard-response,413,752727,learnblock2,594,img/planet2_right.png,2,Community 3,NA,FALSE,f,j,NA,NA,NA,1,6,"7,3,11,12,6,13,8,10,9,4,14,2,1,5,15"
14151,commdev-image-keyboard-response,414,753978,learnblock2,667.8000000119209,img/planet5_right.png,5,Community 3,NA,FALSE,f,j,NA,NA,NA,1,6,"7,3,11,12,6,13,8,10,9,4,14,2,1,5,15"
14151,commdev-image-keyboard-response,415,755230,learnblock2,564.3999999761581,img/planet1_left.png,1,Community 3,NA,FALSE,j,f,NA,NA,NA,1,6,"7,3,11,12,6,13,8,10,9,4,14,2,1,5,15"
14151,commdev-image-keyboard-response,416,756482,learnblock2,561.3000000119209,img/planet14_left.png,14,Community 3,NA,TRUE,f,f,NA,NA,NA,1,6,"7,3,11,12,6,13,8,10,9,4,14,2,1,5,15"
14151,commdev-image-keyboard-response,417,757734,learnblock2,1027.8999999761581,img/planet6_right.png,6,Community 1,NA,FALSE,f,j,NA,NA,NA,1,6,"7,3,11,12,6,13,8,10,9,4,14,2,1,5,15"
14151,commdev-image-keyboard-response,418,758985,learnblock2,1088.8999999761581,img/planet14_left.png,14,Community 3,NA,TRUE,f,f,NA,NA,NA,1,6,"7,3,11,12,6,13,8,10,9,4,14,2,1,5,15"
14151,commdev-image-keyboard-response,419,760237,learnblock2,1055.800000011921,img/planet5_left.png,5,Community 3,NA,FALSE,j,f,NA,NA,NA,1,6,"7,3,11,12,6,13,8,10,9,4,14,2,1,5,15"
14151,commdev-image-keyboard-response,420,761489,learnblock2,1010.5,img/planet14_right.png,14,Community 3,NA,FALSE,f,j,NA,NA,NA,1,6,"7,3,11,12,6,13,8,10,9,4,14,2,1,5,15"
14151,commdev-image-keyboard-response,421,762739,learnblock2,1024.5,img/planet15_right.png,15,Community 3,NA,FALSE,f,j,NA,NA,NA,1,6,"7,3,11,12,6,13,8,10,9,4,14,2,1,5,15"
14151,commdev-image-keyboard-response,422,763990,learnblock2,1008.8000000119209,img/planet14_right.png,14,Community 3,NA,FALSE,f,j,NA,NA,NA,1,6,"7,3,11,12,6,13,8,10,9,4,14,2,1,5,15"
14151,commdev-image-keyboard-response,423,765241,learnblock2,930.3999999761581,img/planet5_right.png,5,Community 3,NA,FALSE,f,j,NA,NA,NA,1,6,"7,3,11,12,6,13,8,10,9,4,14,2,1,5,15"
14151,commdev-image-keyboard-response,424,766492,learnblock2,792,img/planet1_left.png,1,Community 3,NA,FALSE,j,f,NA,NA,NA,1,6,"7,3,11,12,6,13,8,10,9,4,14,2,1,5,15"
14151,commdev-image-keyboard-response,425,767744,learnblock2,838.5,img/planet15_left.png,15,Community 3,NA,FALSE,j,f,NA,NA,NA,1,6,"7,3,11,12,6,13,8,10,9,4,14,2,1,5,15"
14151,commdev-image-keyboard-response,426,768995,learnblock2,612.6999999880791,img/planet1_right.png,1,Community 3,NA,FALSE,f,j,NA,NA,NA,1,6,"7,3,11,12,6,13,8,10,9,4,14,2,1,5,15"
14151,commdev-image-keyboard-response,427,770247,learnblock2,772.1000000238419,img/planet5_left.png,5,Community 3,NA,FALSE,j,f,NA,NA,NA,1,6,"7,3,11,12,6,13,8,10,9,4,14,2,1,5,15"
14151,commdev-image-keyboard-response,428,771498,learnblock2,723.4000000357628,img/planet14_right.png,14,Community 3,NA,FALSE,f,j,NA,NA,NA,1,6,"7,3,11,12,6,13,8,10,9,4,14,2,1,5,15"
14151,commdev-image-keyboard-response,429,772751,learnblock2,631.3000000119209,img/planet1_left.png,1,Community 3,NA,TRUE,f,f,NA,NA,NA,1,6,"7,3,11,12,6,13,8,10,9,4,14,2,1,5,15"
14151,commdev-image-keyboard-response,430,774003,learnblock2,952.2000000476837,img/planet14_left.png,14,Community 3,NA,FALSE,j,f,NA,NA,NA,1,6,"7,3,11,12,6,13,8,10,9,4,14,2,1,5,15"
14151,commdev-image-keyboard-response,431,775254,learnblock2,955.3999999761581,img/planet15_left.png,15,Community 3,NA,FALSE,j,f,NA,NA,NA,1,6,"7,3,11,12,6,13,8,10,9,4,14,2,1,5,15"
14151,commdev-image-keyboard-response,432,776507,learnblock2,958.8999999761581,img/planet14_left.png,14,Community 3,NA,FALSE,j,f,NA,NA,NA,1,6,"7,3,11,12,6,13,8,10,9,4,14,2,1,5,15"
14151,commdev-image-keyboard-response,433,777760,learnblock2,812.7000000476837,img/planet1_right.png,1,Community 3,NA,FALSE,f,j,NA,NA,NA,1,6,"7,3,11,12,6,13,8,10,9,4,14,2,1,5,15"
14151,commdev-image-keyboard-response,434,779011,learnblock2,779.3999999761581,img/planet5_left.png,5,Community 3,NA,FALSE,j,f,NA,NA,NA,1,6,"7,3,11,12,6,13,8,10,9,4,14,2,1,5,15"
14151,commdev-image-keyboard-response,435,780261,learnblock2,627.0999999642372,img/planet2_left.png,2,Community 3,NA,FALSE,j,f,NA,NA,NA,1,6,"7,3,11,12,6,13,8,10,9,4,14,2,1,5,15"
14151,commdev-image-keyboard-response,436,781524,learnblock2,618.3999999761581,img/planet5_right.png,5,Community 3,NA,FALSE,f,j,NA,NA,NA,1,6,"7,3,11,12,6,13,8,10,9,4,14,2,1,5,15"
14151,commdev-image-keyboard-response,437,782777,learnblock2,617.3999999761581,img/planet14_left.png,14,Community 3,NA,FALSE,j,f,NA,NA,NA,1,6,"7,3,11,12,6,13,8,10,9,4,14,2,1,5,15"
14151,commdev-image-keyboard-response,438,784028,learnblock2,915.9000000357628,img/planet1_left.png,1,Community 3,NA,FALSE,j,f,NA,NA,NA,1,6,"7,3,11,12,6,13,8,10,9,4,14,2,1,5,15"
14151,commdev-image-keyboard-response,439,785280,learnblock2,760.5999999642372,img/planet14_right.png,14,Community 3,NA,FALSE,f,j,NA,NA,NA,1,6,"7,3,11,12,6,13,8,10,9,4,14,2,1,5,15"
14151,commdev-image-keyboard-response,440,786532,learnblock2,593.5,img/planet5_left.png,5,Community 3,NA,FALSE,j,f,NA,NA,NA,1,6,"7,3,11,12,6,13,8,10,9,4,14,2,1,5,15"
14151,commdev-image-keyboard-response,441,787783,learnblock2,546.5999999642372,img/planet14_right.png,14,Community 3,NA,TRUE,j,j,NA,NA,NA,1,6,"7,3,11,12,6,13,8,10,9,4,14,2,1,5,15"
14151,commdev-image-keyboard-response,442,789034,learnblock2,771.6000000238419,img/planet6_left.png,6,Community 1,NA,FALSE,j,f,NA,NA,NA,1,6,"7,3,11,12,6,13,8,10,9,4,14,2,1,5,15"
14151,commdev-image-keyboard-response,443,790286,learnblock2,898.6999999880791,img/planet7_left.png,7,Community 1,NA,TRUE,f,f,NA,NA,NA,1,6,"7,3,11,12,6,13,8,10,9,4,14,2,1,5,15"
14151,commdev-image-keyboard-response,444,791538,learnblock2,906.1999999880791,img/planet11_right.png,11,Community 1,NA,FALSE,f,j,NA,NA,NA,1,6,"7,3,11,12,6,13,8,10,9,4,14,2,1,5,15"
14151,commdev-image-keyboard-response,445,792793,learnblock2,831,img/planet3_right.png,3,Community 1,NA,FALSE,f,j,NA,NA,NA,1,6,"7,3,11,12,6,13,8,10,9,4,14,2,1,5,15"
14151,commdev-image-keyboard-response,446,794045,learnblock2,943.5,img/planet6_right.png,6,Community 1,NA,FALSE,f,j,NA,NA,NA,1,6,"7,3,11,12,6,13,8,10,9,4,14,2,1,5,15"
14151,commdev-image-keyboard-response,447,795296,learnblock2,1021.4000000357628,img/planet11_right.png,11,Community 1,NA,FALSE,f,j,NA,NA,NA,1,6,"7,3,11,12,6,13,8,10,9,4,14,2,1,5,15"
14151,commdev-image-keyboard-response,448,796547,learnblock2,1114.0999999642372,img/planet3_right.png,3,Community 1,NA,FALSE,f,j,NA,NA,NA,1,6,"7,3,11,12,6,13,8,10,9,4,14,2,1,5,15"
14151,commdev-image-keyboard-response,449,797798,learnblock2,1095.300000011921,img/planet11_left.png,11,Community 1,NA,FALSE,j,f,NA,NA,NA,1,6,"7,3,11,12,6,13,8,10,9,4,14,2,1,5,15"
14151,commdev-image-keyboard-response,450,799049,learnblock2,1037.199999988079,img/planet12_right.png,12,Community 1,NA,FALSE,f,j,NA,NA,NA,1,6,"7,3,11,12,6,13,8,10,9,4,14,2,1,5,15"
14151,commdev-image-keyboard-response,451,800301,learnblock2,1013.0999999642372,img/planet7_left.png,7,Community 1,NA,FALSE,j,f,NA,NA,NA,1,6,"7,3,11,12,6,13,8,10,9,4,14,2,1,5,15"
14151,commdev-image-keyboard-response,452,801553,learnblock2,808.8000000119209,img/planet3_right.png,3,Community 1,NA,FALSE,f,j,NA,NA,NA,1,6,"7,3,11,12,6,13,8,10,9,4,14,2,1,5,15"
14151,commdev-image-keyboard-response,453,802804,learnblock2,824.4000000357628,img/planet6_right.png,6,Community 1,NA,FALSE,f,j,NA,NA,NA,1,6,"7,3,11,12,6,13,8,10,9,4,14,2,1,5,15"
14151,commdev-image-keyboard-response,454,804056,learnblock2,796.6999999880791,img/planet11_left.png,11,Community 1,NA,FALSE,j,f,NA,NA,NA,1,6,"7,3,11,12,6,13,8,10,9,4,14,2,1,5,15"
14151,commdev-image-keyboard-response,455,805307,learnblock2,744.0999999642372,img/planet3_left.png,3,Community 1,NA,FALSE,j,f,NA,NA,NA,1,6,"7,3,11,12,6,13,8,10,9,4,14,2,1,5,15"
14151,commdev-image-keyboard-response,456,806558,learnblock2,674.1000000238419,img/planet6_left.png,6,Community 1,NA,FALSE,j,f,NA,NA,NA,1,6,"7,3,11,12,6,13,8,10,9,4,14,2,1,5,15"
14151,commdev-image-keyboard-response,457,807810,learnblock2,781.5,img/planet3_right.png,3,Community 1,NA,FALSE,f,j,NA,NA,NA,1,6,"7,3,11,12,6,13,8,10,9,4,14,2,1,5,15"
14151,commdev-image-keyboard-response,458,809061,learnblock2,713.6000000238419,img/planet6_left.png,6,Community 1,NA,FALSE,j,f,NA,NA,NA,1,6,"7,3,11,12,6,13,8,10,9,4,14,2,1,5,15"
14151,commdev-image-keyboard-response,459,810313,learnblock2,791.5999999642372,img/planet11_left.png,11,Community 1,NA,FALSE,j,f,NA,NA,NA,1,6,"7,3,11,12,6,13,8,10,9,4,14,2,1,5,15"
14151,commdev-image-keyboard-response,460,811565,learnblock2,875.8000000119209,img/planet12_right.png,12,Community 1,NA,FALSE,f,j,NA,NA,NA,1,6,"7,3,11,12,6,13,8,10,9,4,14,2,1,5,15"
14151,commdev-image-keyboard-response,461,812816,learnblock2,890,img/planet13_right.png,13,Community 2,NA,FALSE,f,j,NA,NA,NA,1,6,"7,3,11,12,6,13,8,10,9,4,14,2,1,5,15"
14151,commdev-image-keyboard-response,462,814068,learnblock2,933.5,img/planet12_left.png,12,Community 1,NA,FALSE,j,f,NA,NA,NA,1,6,"7,3,11,12,6,13,8,10,9,4,14,2,1,5,15"
14151,commdev-image-keyboard-response,463,815319,learnblock2,859.1000000238419,img/planet3_left.png,3,Community 1,NA,TRUE,f,f,NA,NA,NA,1,6,"7,3,11,12,6,13,8,10,9,4,14,2,1,5,15"
14151,commdev-image-keyboard-response,464,816570,learnblock2,798.6000000238419,img/planet6_right.png,6,Community 1,NA,FALSE,f,j,NA,NA,NA,1,6,"7,3,11,12,6,13,8,10,9,4,14,2,1,5,15"
14151,commdev-image-keyboard-response,465,817821,learnblock2,616.1000000238419,img/planet11_left.png,11,Community 1,NA,FALSE,j,f,NA,NA,NA,1,6,"7,3,11,12,6,13,8,10,9,4,14,2,1,5,15"
14151,commdev-image-keyboard-response,466,819073,learnblock2,612.6000000238419,img/planet3_left.png,3,Community 1,NA,FALSE,j,f,NA,NA,NA,1,6,"7,3,11,12,6,13,8,10,9,4,14,2,1,5,15"
14151,commdev-image-keyboard-response,467,820323,learnblock2,817.6000000238419,img/planet6_right.png,6,Community 1,NA,FALSE,f,j,NA,NA,NA,1,6,"7,3,11,12,6,13,8,10,9,4,14,2,1,5,15"
14151,commdev-image-keyboard-response,468,821575,learnblock2,705.8000000119209,img/planet11_left.png,11,Community 1,NA,FALSE,j,f,NA,NA,NA,1,6,"7,3,11,12,6,13,8,10,9,4,14,2,1,5,15"
14151,commdev-image-keyboard-response,469,822827,learnblock2,637,img/planet3_left.png,3,Community 1,NA,FALSE,j,f,NA,NA,NA,1,6,"7,3,11,12,6,13,8,10,9,4,14,2,1,5,15"
14151,commdev-image-keyboard-response,470,824079,learnblock2,726.1999999880791,img/planet11_left.png,11,Community 1,NA,FALSE,j,f,NA,NA,NA,1,6,"7,3,11,12,6,13,8,10,9,4,14,2,1,5,15"
14151,commdev-image-keyboard-response,471,825330,learnblock2,705.6000000238419,img/planet7_left.png,7,Community 1,NA,FALSE,j,f,NA,NA,NA,1,6,"7,3,11,12,6,13,8,10,9,4,14,2,1,5,15"
14151,commdev-image-keyboard-response,472,826582,learnblock2,842.1000000238419,img/planet11_right.png,11,Community 1,NA,FALSE,f,j,NA,NA,NA,1,6,"7,3,11,12,6,13,8,10,9,4,14,2,1,5,15"
14151,commdev-image-keyboard-response,473,827833,learnblock2,814.5,img/planet7_left.png,7,Community 1,NA,FALSE,j,f,NA,NA,NA,1,6,"7,3,11,12,6,13,8,10,9,4,14,2,1,5,15"
14151,commdev-image-keyboard-response,474,829090,learnblock2,701.4000000357628,img/planet6_left.png,6,Community 1,NA,TRUE,f,f,NA,NA,NA,1,6,"7,3,11,12,6,13,8,10,9,4,14,2,1,5,15"
14151,commdev-image-keyboard-response,475,830345,learnblock2,866.7999999523163,img/planet7_right.png,7,Community 1,NA,FALSE,f,j,NA,NA,NA,1,6,"7,3,11,12,6,13,8,10,9,4,14,2,1,5,15"
14151,commdev-image-keyboard-response,476,831598,learnblock2,837.2000000476837,img/planet3_left.png,3,Community 1,NA,FALSE,j,f,NA,NA,NA,1,6,"7,3,11,12,6,13,8,10,9,4,14,2,1,5,15"
14151,commdev-image-keyboard-response,477,832849,learnblock2,544.3999999761581,img/planet7_right.png,7,Community 1,NA,FALSE,f,j,NA,NA,NA,1,6,"7,3,11,12,6,13,8,10,9,4,14,2,1,5,15"
14151,commdev-image-keyboard-response,478,834101,learnblock2,785.8999999761581,img/planet12_left.png,12,Community 1,NA,FALSE,j,f,NA,NA,NA,1,6,"7,3,11,12,6,13,8,10,9,4,14,2,1,5,15"
14151,commdev-image-keyboard-response,479,835353,learnblock2,623.6999999880791,img/planet3_left.png,3,Community 1,NA,TRUE,f,f,NA,NA,NA,1,6,"7,3,11,12,6,13,8,10,9,4,14,2,1,5,15"
14151,commdev-image-keyboard-response,480,836604,learnblock2,858.5999999642372,img/planet6_right.png,6,Community 1,NA,FALSE,f,j,NA,NA,NA,1,6,"7,3,11,12,6,13,8,10,9,4,14,2,1,5,15"
14151,commdev-image-keyboard-response,481,837856,learnblock2,916.8999999761581,img/planet14_right.png,14,Community 3,NA,FALSE,f,j,NA,NA,NA,1,6,"7,3,11,12,6,13,8,10,9,4,14,2,1,5,15"
14151,commdev-image-keyboard-response,482,839108,learnblock2,686.6000000238419,img/planet15_left.png,15,Community 3,NA,FALSE,j,f,NA,NA,NA,1,6,"7,3,11,12,6,13,8,10,9,4,14,2,1,5,15"
14151,commdev-image-keyboard-response,483,840360,learnblock2,705.5,img/planet14_left.png,14,Community 3,NA,TRUE,f,f,NA,NA,NA,1,6,"7,3,11,12,6,13,8,10,9,4,14,2,1,5,15"
14151,commdev-image-keyboard-response,484,841612,learnblock2,810.6999999880791,img/planet6_left.png,6,Community 1,NA,TRUE,f,f,NA,NA,NA,1,6,"7,3,11,12,6,13,8,10,9,4,14,2,1,5,15"
14151,commdev-image-keyboard-response,485,842863,learnblock2,707.8000000119209,img/planet3_left.png,3,Community 1,NA,TRUE,f,f,NA,NA,NA,1,6,"7,3,11,12,6,13,8,10,9,4,14,2,1,5,15"
14151,commdev-image-keyboard-response,486,844115,learnblock2,775.1999999880791,img/planet11_right.png,11,Community 1,NA,FALSE,f,j,NA,NA,NA,1,6,"7,3,11,12,6,13,8,10,9,4,14,2,1,5,15"
14151,commdev-image-keyboard-response,487,845366,learnblock2,1001.8999999761581,img/planet12_left.png,12,Community 1,NA,TRUE,f,f,NA,NA,NA,1,6,"7,3,11,12,6,13,8,10,9,4,14,2,1,5,15"
14151,commdev-image-keyboard-response,488,846617,learnblock2,884.6999999880791,img/planet3_left.png,3,Community 1,NA,FALSE,j,f,NA,NA,NA,1,6,"7,3,11,12,6,13,8,10,9,4,14,2,1,5,15"
14151,commdev-image-keyboard-response,489,847868,learnblock2,305,img/planet11_left.png,11,Community 1,NA,TRUE,f,f,NA,NA,NA,1,6,"7,3,11,12,6,13,8,10,9,4,14,2,1,5,15"
14151,commdev-image-keyboard-response,490,849119,learnblock2,855.6000000238419,img/planet12_right.png,12,Community 1,NA,TRUE,j,j,NA,NA,NA,1,6,"7,3,11,12,6,13,8,10,9,4,14,2,1,5,15"
14151,commdev-image-keyboard-response,491,850371,learnblock2,1189.3999999761581,img/planet13_right.png,13,Community 2,NA,FALSE,f,j,NA,NA,NA,1,6,"7,3,11,12,6,13,8,10,9,4,14,2,1,5,15"
14151,commdev-image-keyboard-response,492,851622,learnblock2,1014.1999999880791,img/planet4_right.png,4,Community 2,NA,FALSE,f,j,NA,NA,NA,1,6,"7,3,11,12,6,13,8,10,9,4,14,2,1,5,15"
14151,commdev-image-keyboard-response,493,852873,learnblock2,869.8000000119209,img/planet13_left.png,13,Community 2,NA,FALSE,j,f,NA,NA,NA,1,6,"7,3,11,12,6,13,8,10,9,4,14,2,1,5,15"
14151,commdev-image-keyboard-response,494,854125,learnblock2,952.5,img/planet12_left.png,12,Community 1,NA,FALSE,j,f,NA,NA,NA,1,6,"7,3,11,12,6,13,8,10,9,4,14,2,1,5,15"
14151,commdev-image-keyboard-response,495,855377,learnblock2,914.3000000119209,img/planet7_right.png,7,Community 1,NA,FALSE,f,j,NA,NA,NA,1,6,"7,3,11,12,6,13,8,10,9,4,14,2,1,5,15"
14151,commdev-image-keyboard-response,496,856628,learnblock2,1002.3999999761581,img/planet11_left.png,11,Community 1,NA,FALSE,j,f,NA,NA,NA,1,6,"7,3,11,12,6,13,8,10,9,4,14,2,1,5,15"
14151,commdev-image-keyboard-response,497,857880,learnblock2,981.6000000238419,img/planet6_left.png,6,Community 1,NA,TRUE,f,f,NA,NA,NA,1,6,"7,3,11,12,6,13,8,10,9,4,14,2,1,5,15"
14151,commdev-image-keyboard-response,498,859132,learnblock2,1103.1000000238419,img/planet11_left.png,11,Community 1,NA,TRUE,f,f,NA,NA,NA,1,6,"7,3,11,12,6,13,8,10,9,4,14,2,1,5,15"
14151,commdev-image-keyboard-response,499,860383,learnblock2,1107.2000000476837,img/planet7_left.png,7,Community 1,NA,TRUE,f,f,NA,NA,NA,1,6,"7,3,11,12,6,13,8,10,9,4,14,2,1,5,15"
14151,commdev-image-keyboard-response,500,861634,learnblock2,1167.9000000357628,img/planet11_left.png,11,Community 1,NA,TRUE,f,f,NA,NA,NA,1,6,"7,3,11,12,6,13,8,10,9,4,14,2,1,5,15"
14151,commdev-image-keyboard-response,501,862885,learnblock2,1056.800000011921,img/planet12_right.png,12,Community 1,NA,FALSE,f,j,NA,NA,NA,1,6,"7,3,11,12,6,13,8,10,9,4,14,2,1,5,15"
14151,commdev-image-keyboard-response,502,864136,learnblock2,1110,img/planet7_right.png,7,Community 1,NA,FALSE,f,j,NA,NA,NA,1,6,"7,3,11,12,6,13,8,10,9,4,14,2,1,5,15"
14151,commdev-image-keyboard-response,503,865388,learnblock2,973.1999999880791,img/planet12_right.png,12,Community 1,NA,FALSE,f,j,NA,NA,NA,1,6,"7,3,11,12,6,13,8,10,9,4,14,2,1,5,15"
14151,commdev-image-keyboard-response,504,866641,learnblock2,969.2999999523163,img/planet3_left.png,3,Community 1,NA,TRUE,f,f,NA,NA,NA,1,6,"7,3,11,12,6,13,8,10,9,4,14,2,1,5,15"
14151,commdev-image-keyboard-response,505,867892,learnblock2,1011.8000000119209,img/planet6_right.png,6,Community 1,NA,FALSE,f,j,NA,NA,NA,1,6,"7,3,11,12,6,13,8,10,9,4,14,2,1,5,15"
14151,commdev-image-keyboard-response,506,869151,learnblock2,994.8999999761581,img/planet14_left.png,14,Community 3,NA,FALSE,j,f,NA,NA,NA,1,6,"7,3,11,12,6,13,8,10,9,4,14,2,1,5,15"
14151,commdev-image-keyboard-response,507,870403,learnblock2,869.1999999880791,img/planet5_right.png,5,Community 3,NA,FALSE,f,j,NA,NA,NA,1,6,"7,3,11,12,6,13,8,10,9,4,14,2,1,5,15"
14151,commdev-image-keyboard-response,508,871655,learnblock2,742.1000000238419,img/planet1_left.png,1,Community 3,NA,FALSE,j,f,NA,NA,NA,1,6,"7,3,11,12,6,13,8,10,9,4,14,2,1,5,15"
14151,commdev-image-keyboard-response,509,872906,learnblock2,653.5,img/planet15_left.png,15,Community 3,NA,FALSE,j,f,NA,NA,NA,1,6,"7,3,11,12,6,13,8,10,9,4,14,2,1,5,15"
14151,commdev-image-keyboard-response,510,874158,learnblock2,653.2999999523163,img/planet14_left.png,14,Community 3,NA,FALSE,j,f,NA,NA,NA,1,6,"7,3,11,12,6,13,8,10,9,4,14,2,1,5,15"
14151,commdev-image-keyboard-response,511,875409,learnblock2,632.5,img/planet6_left.png,6,Community 1,NA,FALSE,j,f,NA,NA,NA,1,6,"7,3,11,12,6,13,8,10,9,4,14,2,1,5,15"
14151,commdev-image-keyboard-response,512,876661,learnblock2,515.5,img/planet11_left.png,11,Community 1,NA,FALSE,j,f,NA,NA,NA,1,6,"7,3,11,12,6,13,8,10,9,4,14,2,1,5,15"
14151,commdev-image-keyboard-response,513,877913,learnblock2,364.39999997615814,img/planet6_left.png,6,Community 1,NA,FALSE,j,f,NA,NA,NA,1,6,"7,3,11,12,6,13,8,10,9,4,14,2,1,5,15"
14151,commdev-image-keyboard-response,514,879166,learnblock2,520.3000000119209,img/planet14_right.png,14,Community 3,NA,FALSE,f,j,NA,NA,NA,1,6,"7,3,11,12,6,13,8,10,9,4,14,2,1,5,15"
14151,commdev-image-keyboard-response,515,880418,learnblock2,504.89999997615814,img/planet6_right.png,6,Community 1,NA,FALSE,f,j,NA,NA,NA,1,6,"7,3,11,12,6,13,8,10,9,4,14,2,1,5,15"
14151,commdev-image-keyboard-response,516,881670,learnblock2,677.5,img/planet3_left.png,3,Community 1,NA,TRUE,f,f,NA,NA,NA,1,6,"7,3,11,12,6,13,8,10,9,4,14,2,1,5,15"
14151,commdev-image-keyboard-response,517,882922,learnblock2,1134.800000011921,img/planet12_left.png,12,Community 1,NA,FALSE,j,f,NA,NA,NA,1,6,"7,3,11,12,6,13,8,10,9,4,14,2,1,5,15"
14151,commdev-image-keyboard-response,518,884172,learnblock2,1056.2000000476837,img/planet13_left.png,13,Community 2,NA,FALSE,j,f,NA,NA,NA,1,6,"7,3,11,12,6,13,8,10,9,4,14,2,1,5,15"
14151,commdev-image-keyboard-response,519,885424,learnblock2,794.1999999880791,img/planet4_left.png,4,Community 2,NA,FALSE,j,f,NA,NA,NA,1,6,"7,3,11,12,6,13,8,10,9,4,14,2,1,5,15"
14151,commdev-image-keyboard-response,520,886675,learnblock2,908.6999999880791,img/planet8_right.png,8,Community 2,NA,FALSE,f,j,NA,NA,NA,1,6,"7,3,11,12,6,13,8,10,9,4,14,2,1,5,15"
14151,commdev-image-keyboard-response,521,887928,learnblock2,864.1999999880791,img/planet9_left.png,9,Community 2,NA,FALSE,j,f,NA,NA,NA,1,6,"7,3,11,12,6,13,8,10,9,4,14,2,1,5,15"
14151,commdev-image-keyboard-response,522,889179,learnblock2,793.1000000238419,img/planet8_right.png,8,Community 2,NA,FALSE,f,j,NA,NA,NA,1,6,"7,3,11,12,6,13,8,10,9,4,14,2,1,5,15"
14151,commdev-image-keyboard-response,523,890430,learnblock2,814.9000000357628,img/planet13_left.png,13,Community 2,NA,FALSE,j,f,NA,NA,NA,1,6,"7,3,11,12,6,13,8,10,9,4,14,2,1,5,15"
14151,commdev-image-keyboard-response,524,891683,learnblock2,654.6999999880791,img/planet9_right.png,9,Community 2,NA,FALSE,f,j,NA,NA,NA,1,6,"7,3,11,12,6,13,8,10,9,4,14,2,1,5,15"
14151,commdev-image-keyboard-response,525,892933,learnblock2,963.5999999642372,img/planet4_right.png,4,Community 2,NA,FALSE,f,j,NA,NA,NA,1,6,"7,3,11,12,6,13,8,10,9,4,14,2,1,5,15"
14151,commdev-image-keyboard-response,526,894185,learnblock2,932.5,img/planet9_left.png,9,Community 2,NA,FALSE,j,f,NA,NA,NA,1,6,"7,3,11,12,6,13,8,10,9,4,14,2,1,5,15"
14151,commdev-image-keyboard-response,527,895436,learnblock2,881.8000000119209,img/planet13_left.png,13,Community 2,NA,TRUE,f,f,NA,NA,NA,1,6,"7,3,11,12,6,13,8,10,9,4,14,2,1,5,15"
14151,commdev-image-keyboard-response,528,896688,learnblock2,985.6999999880791,img/planet12_left.png,12,Community 1,NA,FALSE,j,f,NA,NA,NA,1,6,"7,3,11,12,6,13,8,10,9,4,14,2,1,5,15"
14151,commdev-image-keyboard-response,529,897940,learnblock2,790.5,img/planet11_left.png,11,Community 1,NA,FALSE,j,f,NA,NA,NA,1,6,"7,3,11,12,6,13,8,10,9,4,14,2,1,5,15"
14151,commdev-image-keyboard-response,530,899191,learnblock2,707.8000000119209,img/planet6_left.png,6,Community 1,NA,FALSE,j,f,NA,NA,NA,1,6,"7,3,11,12,6,13,8,10,9,4,14,2,1,5,15"
14151,commdev-image-keyboard-response,531,900458,learnblock2,604.6999999880791,img/planet14_left.png,14,Community 3,NA,FALSE,j,f,NA,NA,NA,1,6,"7,3,11,12,6,13,8,10,9,4,14,2,1,5,15"
14151,commdev-image-keyboard-response,532,901710,learnblock2,496.69999998807907,img/planet1_right.png,1,Community 3,NA,FALSE,f,j,NA,NA,NA,1,6,"7,3,11,12,6,13,8,10,9,4,14,2,1,5,15"
14151,commdev-image-keyboard-response,533,902962,learnblock2,306.5999999642372,img/planet5_right.png,5,Community 3,NA,FALSE,f,j,NA,NA,NA,1,6,"7,3,11,12,6,13,8,10,9,4,14,2,1,5,15"
14151,commdev-image-keyboard-response,534,904213,learnblock2,725.5,img/planet2_left.png,2,Community 3,NA,TRUE,f,f,NA,NA,NA,1,6,"7,3,11,12,6,13,8,10,9,4,14,2,1,5,15"
14151,commdev-image-keyboard-response,535,905473,learnblock2,723.1999999880791,img/planet15_left.png,15,Community 3,NA,FALSE,j,f,NA,NA,NA,1,6,"7,3,11,12,6,13,8,10,9,4,14,2,1,5,15"
14151,commdev-image-keyboard-response,536,906724,learnblock2,489.30000001192093,img/planet5_right.png,5,Community 3,NA,TRUE,j,j,NA,NA,NA,1,6,"7,3,11,12,6,13,8,10,9,4,14,2,1,5,15"
14151,commdev-image-keyboard-response,537,907975,learnblock2,609.3000000119209,img/planet15_left.png,15,Community 3,NA,TRUE,f,f,NA,NA,NA,1,6,"7,3,11,12,6,13,8,10,9,4,14,2,1,5,15"
14151,commdev-image-keyboard-response,538,909228,learnblock2,789.5,img/planet1_right.png,1,Community 3,NA,FALSE,f,j,NA,NA,NA,1,6,"7,3,11,12,6,13,8,10,9,4,14,2,1,5,15"
14151,commdev-image-keyboard-response,539,910484,learnblock2,791.5,img/planet2_right.png,2,Community 3,NA,FALSE,f,j,NA,NA,NA,1,6,"7,3,11,12,6,13,8,10,9,4,14,2,1,5,15"
14151,commdev-image-keyboard-response,540,911736,learnblock2,856.5,img/planet15_left.png,15,Community 3,NA,FALSE,j,f,NA,NA,NA,1,6,"7,3,11,12,6,13,8,10,9,4,14,2,1,5,15"
14151,commdev-image-keyboard-response,541,912987,learnblock2,643,img/planet14_right.png,14,Community 3,NA,FALSE,f,j,NA,NA,NA,1,6,"7,3,11,12,6,13,8,10,9,4,14,2,1,5,15"
14151,commdev-image-keyboard-response,542,914239,learnblock2,658.1999999880791,img/planet6_left.png,6,Community 1,NA,TRUE,f,f,NA,NA,NA,1,6,"7,3,11,12,6,13,8,10,9,4,14,2,1,5,15"
14151,commdev-image-keyboard-response,543,915491,learnblock2,731,img/planet11_right.png,11,Community 1,NA,FALSE,f,j,NA,NA,NA,1,6,"7,3,11,12,6,13,8,10,9,4,14,2,1,5,15"
14151,commdev-image-keyboard-response,544,916742,learnblock2,812.4000000357628,img/planet12_left.png,12,Community 1,NA,FALSE,j,f,NA,NA,NA,1,6,"7,3,11,12,6,13,8,10,9,4,14,2,1,5,15"
14151,commdev-image-keyboard-response,545,917994,learnblock2,502.7000000476837,img/planet11_right.png,11,Community 1,NA,FALSE,f,j,NA,NA,NA,1,6,"7,3,11,12,6,13,8,10,9,4,14,2,1,5,15"
14151,commdev-image-keyboard-response,546,919245,learnblock2,797.7999999523163,img/planet6_left.png,6,Community 1,NA,FALSE,j,f,NA,NA,NA,1,6,"7,3,11,12,6,13,8,10,9,4,14,2,1,5,15"
14151,commdev-image-keyboard-response,547,920496,learnblock2,486.39999997615814,img/planet7_right.png,7,Community 1,NA,FALSE,f,j,NA,NA,NA,1,6,"7,3,11,12,6,13,8,10,9,4,14,2,1,5,15"
14151,commdev-image-keyboard-response,548,921748,learnblock2,900.5,img/planet12_right.png,12,Community 1,NA,FALSE,f,j,NA,NA,NA,1,6,"7,3,11,12,6,13,8,10,9,4,14,2,1,5,15"
14151,commdev-image-keyboard-response,549,923000,learnblock2,895,img/planet13_left.png,13,Community 2,NA,TRUE,f,f,NA,NA,NA,1,6,"7,3,11,12,6,13,8,10,9,4,14,2,1,5,15"
14151,commdev-image-keyboard-response,550,924259,learnblock2,82.40000003576279,img/planet9_left.png,9,Community 2,NA,FALSE,j,f,NA,NA,NA,1,6,"7,3,11,12,6,13,8,10,9,4,14,2,1,5,15"
14151,commdev-image-keyboard-response,551,925511,learnblock2,1063.699999988079,img/planet4_right.png,4,Community 2,NA,FALSE,f,j,NA,NA,NA,1,6,"7,3,11,12,6,13,8,10,9,4,14,2,1,5,15"
14151,commdev-image-keyboard-response,552,926762,learnblock2,961.5,img/planet9_right.png,9,Community 2,NA,FALSE,f,j,NA,NA,NA,1,6,"7,3,11,12,6,13,8,10,9,4,14,2,1,5,15"
14151,commdev-image-keyboard-response,553,928013,learnblock2,920.1999999880791,img/planet8_left.png,8,Community 2,NA,FALSE,j,f,NA,NA,NA,1,6,"7,3,11,12,6,13,8,10,9,4,14,2,1,5,15"
14151,commdev-image-keyboard-response,554,929265,learnblock2,765.5999999642372,img/planet4_right.png,4,Community 2,NA,FALSE,f,j,NA,NA,NA,1,6,"7,3,11,12,6,13,8,10,9,4,14,2,1,5,15"
14151,commdev-image-keyboard-response,555,930517,learnblock2,973.4000000357628,img/planet10_right.png,10,Community 2,NA,FALSE,f,j,NA,NA,NA,1,6,"7,3,11,12,6,13,8,10,9,4,14,2,1,5,15"
14151,commdev-image-keyboard-response,556,931768,learnblock2,740.8000000119209,img/planet8_left.png,8,Community 2,NA,FALSE,j,f,NA,NA,NA,1,6,"7,3,11,12,6,13,8,10,9,4,14,2,1,5,15"
14151,commdev-image-keyboard-response,557,933019,learnblock2,646.5,img/planet10_left.png,10,Community 2,NA,FALSE,j,f,NA,NA,NA,1,6,"7,3,11,12,6,13,8,10,9,4,14,2,1,5,15"
14151,commdev-image-keyboard-response,558,934270,learnblock2,633.8000000119209,img/planet8_left.png,8,Community 2,NA,FALSE,j,f,NA,NA,NA,1,6,"7,3,11,12,6,13,8,10,9,4,14,2,1,5,15"
14151,commdev-image-keyboard-response,559,935521,learnblock2,654.8000000119209,img/planet13_left.png,13,Community 2,NA,FALSE,j,f,NA,NA,NA,1,6,"7,3,11,12,6,13,8,10,9,4,14,2,1,5,15"
14151,commdev-image-keyboard-response,560,936773,learnblock2,884,img/planet12_left.png,12,Community 1,NA,FALSE,j,f,NA,NA,NA,1,6,"7,3,11,12,6,13,8,10,9,4,14,2,1,5,15"
14151,commdev-image-keyboard-response,561,938024,learnblock2,1244.8999999761581,img/planet7_left.png,7,Community 1,NA,FALSE,j,f,NA,NA,NA,1,6,"7,3,11,12,6,13,8,10,9,4,14,2,1,5,15"
14151,commdev-image-keyboard-response,562,939276,learnblock2,951.5999999642372,img/planet6_right.png,6,Community 1,NA,FALSE,f,j,NA,NA,NA,1,6,"7,3,11,12,6,13,8,10,9,4,14,2,1,5,15"
14151,commdev-image-keyboard-response,563,940528,learnblock2,816.6000000238419,img/planet11_left.png,11,Community 1,NA,FALSE,j,f,NA,NA,NA,1,6,"7,3,11,12,6,13,8,10,9,4,14,2,1,5,15"
14151,commdev-image-keyboard-response,564,941780,learnblock2,629.5999999642372,img/planet7_right.png,7,Community 1,NA,FALSE,f,j,NA,NA,NA,1,6,"7,3,11,12,6,13,8,10,9,4,14,2,1,5,15"
14151,commdev-image-keyboard-response,565,943031,learnblock2,1052.5,img/planet11_right.png,11,Community 1,NA,FALSE,f,j,NA,NA,NA,1,6,"7,3,11,12,6,13,8,10,9,4,14,2,1,5,15"
14151,commdev-image-keyboard-response,566,944297,learnblock2,772.6999999880791,img/planet12_left.png,12,Community 1,NA,FALSE,j,f,NA,NA,NA,1,6,"7,3,11,12,6,13,8,10,9,4,14,2,1,5,15"
14151,commdev-image-keyboard-response,567,945548,learnblock2,700,img/planet7_right.png,7,Community 1,NA,FALSE,f,j,NA,NA,NA,1,6,"7,3,11,12,6,13,8,10,9,4,14,2,1,5,15"
14151,commdev-image-keyboard-response,568,946799,learnblock2,822.8999999761581,img/planet12_right.png,12,Community 1,NA,FALSE,f,j,NA,NA,NA,1,6,"7,3,11,12,6,13,8,10,9,4,14,2,1,5,15"
14151,commdev-image-keyboard-response,569,948051,learnblock2,842.1999999880791,img/planet3_right.png,3,Community 1,NA,FALSE,f,j,NA,NA,NA,1,6,"7,3,11,12,6,13,8,10,9,4,14,2,1,5,15"
14151,commdev-image-keyboard-response,570,949303,learnblock2,949.0999999642372,img/planet6_right.png,6,Community 1,NA,FALSE,f,j,NA,NA,NA,1,6,"7,3,11,12,6,13,8,10,9,4,14,2,1,5,15"
14151,commdev-image-keyboard-response,571,950555,learnblock2,1047.800000011921,img/planet7_right.png,7,Community 1,NA,FALSE,f,j,NA,NA,NA,1,6,"7,3,11,12,6,13,8,10,9,4,14,2,1,5,15"
14151,commdev-image-keyboard-response,572,951806,learnblock2,1100.9000000357628,img/planet12_right.png,12,Community 1,NA,FALSE,f,j,NA,NA,NA,1,6,"7,3,11,12,6,13,8,10,9,4,14,2,1,5,15"
14151,commdev-image-keyboard-response,573,953058,learnblock2,1127.4000000357628,img/planet7_left.png,7,Community 1,NA,FALSE,j,f,NA,NA,NA,1,6,"7,3,11,12,6,13,8,10,9,4,14,2,1,5,15"
14151,commdev-image-keyboard-response,574,954310,learnblock2,891.8999999761581,img/planet3_right.png,3,Community 1,NA,FALSE,f,j,NA,NA,NA,1,6,"7,3,11,12,6,13,8,10,9,4,14,2,1,5,15"
14151,commdev-image-keyboard-response,575,955570,learnblock2,984.2000000476837,img/planet6_left.png,6,Community 1,NA,TRUE,f,f,NA,NA,NA,1,6,"7,3,11,12,6,13,8,10,9,4,14,2,1,5,15"
14151,commdev-image-keyboard-response,576,956821,learnblock2,11.300000011920929,img/planet7_left.png,7,Community 1,NA,FALSE,j,f,NA,NA,NA,1,6,"7,3,11,12,6,13,8,10,9,4,14,2,1,5,15"
14151,commdev-image-keyboard-response,577,958073,learnblock2,731.2999999523163,img/planet6_right.png,6,Community 1,NA,FALSE,f,j,NA,NA,NA,1,6,"7,3,11,12,6,13,8,10,9,4,14,2,1,5,15"
14151,commdev-image-keyboard-response,578,959325,learnblock2,856.1999999880791,img/planet14_right.png,14,Community 3,NA,FALSE,f,j,NA,NA,NA,1,6,"7,3,11,12,6,13,8,10,9,4,14,2,1,5,15"
14151,commdev-image-keyboard-response,579,960577,learnblock2,754.3999999761581,img/planet15_left.png,15,Community 3,NA,FALSE,j,f,NA,NA,NA,1,6,"7,3,11,12,6,13,8,10,9,4,14,2,1,5,15"
14151,commdev-image-keyboard-response,580,961828,learnblock2,622.1000000238419,img/planet14_right.png,14,Community 3,NA,FALSE,f,j,NA,NA,NA,1,6,"7,3,11,12,6,13,8,10,9,4,14,2,1,5,15"
14151,commdev-image-keyboard-response,581,963080,learnblock2,661.1999999880791,img/planet6_left.png,6,Community 1,NA,FALSE,j,f,NA,NA,NA,1,6,"7,3,11,12,6,13,8,10,9,4,14,2,1,5,15"
14151,commdev-image-keyboard-response,582,964332,learnblock2,790.7000000476837,img/planet3_left.png,3,Community 1,NA,FALSE,j,f,NA,NA,NA,1,6,"7,3,11,12,6,13,8,10,9,4,14,2,1,5,15"
14151,commdev-image-keyboard-response,583,965584,learnblock2,732.5999999642372,img/planet7_right.png,7,Community 1,NA,FALSE,f,j,NA,NA,NA,1,6,"7,3,11,12,6,13,8,10,9,4,14,2,1,5,15"
14151,commdev-image-keyboard-response,584,966835,learnblock2,818.8999999761581,img/planet11_right.png,11,Community 1,NA,TRUE,j,j,NA,NA,NA,1,6,"7,3,11,12,6,13,8,10,9,4,14,2,1,5,15"
