subject_id,trial_type,trial_index,time_elapsed,block,rt,stimulus,planet,community,response,correct,key_press,learning_correct_response,parse,init_locations,final_locations,browser_interactions,num_comp,planet_map
14458,commdev-instructions,7,130305,NA,84898,"<p>In this game, you are a scientist on board a space shuttle. </p><p> On each mission, you will visit planets all across the universe.</p><img src=""img/controlroom.jpg"" width=300vw>",NA,NA,NA,NA,NA,NA,NA,NA,NA,1,6,"7,8,11,14,6,5,2,10,1,4,3,9,13,12,15"
14458,commdev-instructions,8,135658,NA,3281,"<p>Here are a few planets you might see:</p><img src=""img/practice1.png"" width=200vw><img src=""img/practice2.png"" width=200vw><img src=""img/practice3.png"" width=200vw>",NA,NA,NA,NA,NA,NA,NA,NA,NA,1,6,"7,8,11,14,6,5,2,10,1,4,3,9,13,12,15"
14458,commdev-instructions,9,144071,NA,1004.0000000000291,"<p>Your job as a scientist is to record which direction the winds are moving on each planet.</p><p>There are two types of wind directions:</p><img src=""img/practice1_left.png"" width=200vw><img src=""img/practice1_right.png"" width=200vw>",NA,NA,NA,NA,NA,NA,NA,NA,NA,1,6,"7,8,11,14,6,5,2,10,1,4,3,9,13,12,15"
14458,commdev-instructions,10,150818,NA,1867,"<p>If the winds are moving this way, press the letter <strong>F</strong> on the keyboard as fast as you can.</p><img src=""img/leftwind.png"" width=250vw>",NA,NA,NA,NA,NA,NA,NA,NA,NA,1,6,"7,8,11,14,6,5,2,10,1,4,3,9,13,12,15"
14458,commdev-instructions,11,156614,NA,1301,"<p>If the winds are moving this way, press the letter <strong>J</strong> on the keyboard as fast as you can.</p><img src=""img/rightwind.png"" width=350vw>",NA,NA,NA,NA,NA,NA,NA,NA,NA,1,6,"7,8,11,14,6,5,2,10,1,4,3,9,13,12,15"
14458,commdev-instructions,12,162703,NA,1667,<p>You will have 1 second to respond. Try to respond before the time runs out!,NA,NA,NA,NA,NA,NA,NA,NA,NA,1,6,"7,8,11,14,6,5,2,10,1,4,3,9,13,12,15"
14458,commdev-instructions,13,169715,NA,1582,<p>The planets you will visit will look different from each other.</p><p>You should respond <strong>only</strong> based on wind direction.,NA,NA,NA,NA,NA,NA,NA,NA,NA,1,6,"7,8,11,14,6,5,2,10,1,4,3,9,13,12,15"
14458,commdev-instructions,14,176766,NA,1884.999999999971,"<p> Ready to start the practice round? </p><p> Remember, press <strong>F</strong> or <strong>J</strong> depending on the wind direction.<br><img src=""img/categorize_planet_example.png""",NA,NA,NA,NA,NA,NA,NA,NA,NA,1,6,"7,8,11,14,6,5,2,10,1,4,3,9,13,12,15"
14458,commdev-instructions,26,233129,NA,2264,"<p>Great, now try a short practice mission. </p><p> This time, you will have 1 second to respond and you won't know whether you pressed the right or wrong key for each planet.</p>",NA,NA,NA,NA,NA,NA,NA,NA,NA,1,6,"7,8,11,14,6,5,2,10,1,4,3,9,13,12,15"
14458,commdev-image-keyboard-response,27,234482,practice,1032,img/practice1_right.png,NA,Number not found in mappings,NA,FALSE,f,j,NA,NA,NA,1,6,"7,8,11,14,6,5,2,10,1,4,3,9,13,12,15"
14458,commdev-image-keyboard-response,28,235734,practice,null,img/practice2_right.png,NA,Number not found in mappings,NA,FALSE,null,j,NA,NA,NA,1,6,"7,8,11,14,6,5,2,10,1,4,3,9,13,12,15"
14458,commdev-image-keyboard-response,29,236986,practice,210,img/practice4_left.png,NA,Number not found in mappings,NA,TRUE,f,f,NA,NA,NA,1,6,"7,8,11,14,6,5,2,10,1,4,3,9,13,12,15"
14458,commdev-image-keyboard-response,30,238238,practice,528,img/practice3_right.png,NA,Number not found in mappings,NA,TRUE,j,j,NA,NA,NA,1,6,"7,8,11,14,6,5,2,10,1,4,3,9,13,12,15"
14458,commdev-image-keyboard-response,31,239490,practice,792.9999999999709,img/practice1_right.png,NA,Number not found in mappings,NA,TRUE,j,j,NA,NA,NA,1,6,"7,8,11,14,6,5,2,10,1,4,3,9,13,12,15"
14458,commdev-image-keyboard-response,32,240742,practice,819.0000000000291,img/practice3_left.png,NA,Number not found in mappings,NA,FALSE,j,f,NA,NA,NA,1,6,"7,8,11,14,6,5,2,10,1,4,3,9,13,12,15"
14458,commdev-image-keyboard-response,33,241993,practice,822,img/practice4_left.png,NA,Number not found in mappings,NA,FALSE,j,f,NA,NA,NA,1,6,"7,8,11,14,6,5,2,10,1,4,3,9,13,12,15"
14458,commdev-image-keyboard-response,34,243244,practice,620.0000000000291,img/practice1_right.png,NA,Number not found in mappings,NA,FALSE,f,j,NA,NA,NA,1,6,"7,8,11,14,6,5,2,10,1,4,3,9,13,12,15"
14458,commdev-instructions,35,266098,NA,13301,"<p>Great job with the practice round.</p><p>During real missions, you won't know whether you pressed the right or wrong key for each planet.</p><p>But between missions, we will tell you how you did overall.</p>",NA,NA,NA,NA,NA,NA,NA,NA,NA,1,6,"7,8,11,14,6,5,2,10,1,4,3,9,13,12,15"
14458,commdev-instructions,36,275938,NA,1602,<p>Try your best! You will be paid a bonus based on how many correct responses you make!</p><p>Responses that are too slow will not count toward your bonus.</p>,NA,NA,NA,NA,NA,NA,NA,NA,NA,1,6,"7,8,11,14,6,5,2,10,1,4,3,9,13,12,15"
14458,commdev-instructions,37,284172,NA,2037,"<p>You are almost ready to start the real game.</p><p> First, we are going to ask you some questions about how the game works.</p>",NA,NA,NA,NA,NA,NA,NA,NA,NA,1,6,"7,8,11,14,6,5,2,10,1,4,3,9,13,12,15"
14458,commdev-instructions,46,367109,NA,2643,"<p> Nice work! It is now time to start the real game.<p></p>You will go on two missions to record wind directions of different planets.<p></p>Each one will take about 5 minutes. You will get to take a break between missions.<p><p> Remember, press <strong>F</strong> or <strong>J</strong> depending on the wind direction. Good luck!<br><img src=""img/categorize_planet_example.png""",NA,NA,NA,NA,NA,NA,NA,NA,NA,1,6,"7,8,11,14,6,5,2,10,1,4,3,9,13,12,15"
14458,commdev-image-keyboard-response,48,381001,learnblock1,null,img/planet14_left.png,14,Community 1,NA,FALSE,null,f,NA,NA,NA,1,6,"7,8,11,14,6,5,2,10,1,4,3,9,13,12,15"
14458,commdev-image-keyboard-response,49,382252,learnblock1,65,img/planet5_left.png,5,Community 2,NA,TRUE,f,f,NA,NA,NA,1,6,"7,8,11,14,6,5,2,10,1,4,3,9,13,12,15"
14458,commdev-image-keyboard-response,50,383503,learnblock1,156,img/planet2_left.png,2,Community 2,NA,TRUE,f,f,NA,NA,NA,1,6,"7,8,11,14,6,5,2,10,1,4,3,9,13,12,15"
14458,commdev-image-keyboard-response,51,384755,learnblock1,142,img/planet4_left.png,4,Community 2,NA,TRUE,f,f,NA,NA,NA,1,6,"7,8,11,14,6,5,2,10,1,4,3,9,13,12,15"
14458,commdev-image-keyboard-response,52,386007,learnblock1,739,img/planet5_right.png,5,Community 2,NA,TRUE,j,j,NA,NA,NA,1,6,"7,8,11,14,6,5,2,10,1,4,3,9,13,12,15"
14458,commdev-image-keyboard-response,53,387259,learnblock1,1006,img/planet4_left.png,4,Community 2,NA,TRUE,f,f,NA,NA,NA,1,6,"7,8,11,14,6,5,2,10,1,4,3,9,13,12,15"
14458,commdev-image-keyboard-response,54,388510,learnblock1,1181.0000000000582,img/planet1_left.png,1,Community 2,NA,TRUE,f,f,NA,NA,NA,1,6,"7,8,11,14,6,5,2,10,1,4,3,9,13,12,15"
14458,commdev-image-keyboard-response,55,389761,learnblock1,781.0000000000582,img/planet4_right.png,4,Community 2,NA,TRUE,j,j,NA,NA,NA,1,6,"7,8,11,14,6,5,2,10,1,4,3,9,13,12,15"
14458,commdev-image-keyboard-response,56,391012,learnblock1,816,img/planet10_right.png,10,Community 2,NA,TRUE,j,j,NA,NA,NA,1,6,"7,8,11,14,6,5,2,10,1,4,3,9,13,12,15"
14458,commdev-image-keyboard-response,57,392263,learnblock1,704,img/planet2_left.png,2,Community 2,NA,TRUE,f,f,NA,NA,NA,1,6,"7,8,11,14,6,5,2,10,1,4,3,9,13,12,15"
14458,commdev-image-keyboard-response,58,393514,learnblock1,686,img/planet10_right.png,10,Community 2,NA,TRUE,j,j,NA,NA,NA,1,6,"7,8,11,14,6,5,2,10,1,4,3,9,13,12,15"
14458,commdev-image-keyboard-response,59,394765,learnblock1,718,img/planet4_left.png,4,Community 2,NA,TRUE,f,f,NA,NA,NA,1,6,"7,8,11,14,6,5,2,10,1,4,3,9,13,12,15"
14458,commdev-image-keyboard-response,60,396018,learnblock1,null,img/planet10_left.png,10,Community 2,NA,FALSE,null,f,NA,NA,NA,1,6,"7,8,11,14,6,5,2,10,1,4,3,9,13,12,15"
14458,commdev-image-keyboard-response,61,397270,learnblock1,null,img/planet1_left.png,1,Community 2,NA,FALSE,null,f,NA,NA,NA,1,6,"7,8,11,14,6,5,2,10,1,4,3,9,13,12,15"
14458,commdev-image-keyboard-response,62,398522,learnblock1,121,img/planet10_right.png,10,Community 2,NA,FALSE,f,j,NA,NA,NA,1,6,"7,8,11,14,6,5,2,10,1,4,3,9,13,12,15"
14458,commdev-image-keyboard-response,63,399774,learnblock1,893.0000000000582,img/planet4_left.png,4,Community 2,NA,TRUE,f,f,NA,NA,NA,1,6,"7,8,11,14,6,5,2,10,1,4,3,9,13,12,15"
14458,commdev-image-keyboard-response,64,401025,learnblock1,807.0000000000582,img/planet1_left.png,1,Community 2,NA,FALSE,j,f,NA,NA,NA,1,6,"7,8,11,14,6,5,2,10,1,4,3,9,13,12,15"
14458,commdev-image-keyboard-response,65,402276,learnblock1,1043,img/planet5_left.png,5,Community 2,NA,TRUE,f,f,NA,NA,NA,1,6,"7,8,11,14,6,5,2,10,1,4,3,9,13,12,15"
14458,commdev-image-keyboard-response,66,403529,learnblock1,990.0000000000582,img/planet1_right.png,1,Community 2,NA,TRUE,j,j,NA,NA,NA,1,6,"7,8,11,14,6,5,2,10,1,4,3,9,13,12,15"
14458,commdev-image-keyboard-response,67,404781,learnblock1,1077.9999999999418,img/planet5_right.png,5,Community 2,NA,TRUE,j,j,NA,NA,NA,1,6,"7,8,11,14,6,5,2,10,1,4,3,9,13,12,15"
14458,commdev-image-keyboard-response,68,406032,learnblock1,992,img/planet14_right.png,14,Community 1,NA,TRUE,j,j,NA,NA,NA,1,6,"7,8,11,14,6,5,2,10,1,4,3,9,13,12,15"
14458,commdev-image-keyboard-response,69,407283,learnblock1,927,img/planet8_left.png,8,Community 1,NA,FALSE,j,f,NA,NA,NA,1,6,"7,8,11,14,6,5,2,10,1,4,3,9,13,12,15"
14458,commdev-image-keyboard-response,70,408535,learnblock1,null,img/planet7_right.png,7,Community 1,NA,FALSE,null,j,NA,NA,NA,1,6,"7,8,11,14,6,5,2,10,1,4,3,9,13,12,15"
14458,commdev-image-keyboard-response,71,409787,learnblock1,null,img/planet11_left.png,11,Community 1,NA,FALSE,null,f,NA,NA,NA,1,6,"7,8,11,14,6,5,2,10,1,4,3,9,13,12,15"
14458,commdev-image-keyboard-response,72,411039,learnblock1,null,img/planet14_right.png,14,Community 1,NA,FALSE,null,j,NA,NA,NA,1,6,"7,8,11,14,6,5,2,10,1,4,3,9,13,12,15"
14458,commdev-image-keyboard-response,73,412290,learnblock1,758,img/planet11_right.png,11,Community 1,NA,FALSE,f,j,NA,NA,NA,1,6,"7,8,11,14,6,5,2,10,1,4,3,9,13,12,15"
14458,commdev-image-keyboard-response,74,413542,learnblock1,175.9999999999418,img/planet14_left.png,14,Community 1,NA,TRUE,f,f,NA,NA,NA,1,6,"7,8,11,14,6,5,2,10,1,4,3,9,13,12,15"
14458,commdev-image-keyboard-response,75,414795,learnblock1,77,img/planet7_left.png,7,Community 1,NA,TRUE,f,f,NA,NA,NA,1,6,"7,8,11,14,6,5,2,10,1,4,3,9,13,12,15"
14458,commdev-image-keyboard-response,76,416046,learnblock1,53,img/planet8_right.png,8,Community 1,NA,FALSE,f,j,NA,NA,NA,1,6,"7,8,11,14,6,5,2,10,1,4,3,9,13,12,15"
14458,commdev-image-keyboard-response,77,417297,learnblock1,239,img/planet11_left.png,11,Community 1,NA,FALSE,j,f,NA,NA,NA,1,6,"7,8,11,14,6,5,2,10,1,4,3,9,13,12,15"
14458,commdev-image-keyboard-response,78,418548,learnblock1,122,img/planet8_left.png,8,Community 1,NA,TRUE,f,f,NA,NA,NA,1,6,"7,8,11,14,6,5,2,10,1,4,3,9,13,12,15"
14458,commdev-image-keyboard-response,79,419799,learnblock1,null,img/planet14_right.png,14,Community 1,NA,FALSE,null,j,NA,NA,NA,1,6,"7,8,11,14,6,5,2,10,1,4,3,9,13,12,15"
14458,commdev-image-keyboard-response,80,421050,learnblock1,null,img/planet8_left.png,8,Community 1,NA,FALSE,null,f,NA,NA,NA,1,6,"7,8,11,14,6,5,2,10,1,4,3,9,13,12,15"
14458,commdev-image-keyboard-response,81,422301,learnblock1,968,img/planet6_right.png,6,Community 1,NA,FALSE,f,j,NA,NA,NA,1,6,"7,8,11,14,6,5,2,10,1,4,3,9,13,12,15"
14458,commdev-image-keyboard-response,82,423552,learnblock1,302,img/planet8_right.png,8,Community 1,NA,FALSE,f,j,NA,NA,NA,1,6,"7,8,11,14,6,5,2,10,1,4,3,9,13,12,15"
14458,commdev-image-keyboard-response,83,424803,learnblock1,154,img/planet14_left.png,14,Community 1,NA,TRUE,f,f,NA,NA,NA,1,6,"7,8,11,14,6,5,2,10,1,4,3,9,13,12,15"
14458,commdev-image-keyboard-response,84,426055,learnblock1,945.9999999999418,img/planet5_right.png,5,Community 2,NA,FALSE,f,j,NA,NA,NA,1,6,"7,8,11,14,6,5,2,10,1,4,3,9,13,12,15"
14458,commdev-image-keyboard-response,85,427307,learnblock1,932,img/planet1_right.png,1,Community 2,NA,TRUE,j,j,NA,NA,NA,1,6,"7,8,11,14,6,5,2,10,1,4,3,9,13,12,15"
14458,commdev-image-keyboard-response,86,428558,learnblock1,769,img/planet2_left.png,2,Community 2,NA,TRUE,f,f,NA,NA,NA,1,6,"7,8,11,14,6,5,2,10,1,4,3,9,13,12,15"
14458,commdev-image-keyboard-response,87,429809,learnblock1,945,img/planet10_right.png,10,Community 2,NA,FALSE,f,j,NA,NA,NA,1,6,"7,8,11,14,6,5,2,10,1,4,3,9,13,12,15"
14458,commdev-image-keyboard-response,88,431061,learnblock1,1183.0000000000582,img/planet9_right.png,9,Community 3,NA,FALSE,f,j,NA,NA,NA,1,6,"7,8,11,14,6,5,2,10,1,4,3,9,13,12,15"
14458,commdev-image-keyboard-response,89,432312,learnblock1,947,img/planet13_right.png,13,Community 3,NA,TRUE,j,j,NA,NA,NA,1,6,"7,8,11,14,6,5,2,10,1,4,3,9,13,12,15"
14458,commdev-image-keyboard-response,90,433563,learnblock1,890.0000000000582,img/planet3_left.png,3,Community 3,NA,TRUE,f,f,NA,NA,NA,1,6,"7,8,11,14,6,5,2,10,1,4,3,9,13,12,15"
14458,commdev-image-keyboard-response,91,434814,learnblock1,661,img/planet6_right.png,6,Community 1,NA,FALSE,f,j,NA,NA,NA,1,6,"7,8,11,14,6,5,2,10,1,4,3,9,13,12,15"
14458,commdev-image-keyboard-response,92,436065,learnblock1,746,img/planet7_left.png,7,Community 1,NA,TRUE,f,f,NA,NA,NA,1,6,"7,8,11,14,6,5,2,10,1,4,3,9,13,12,15"
14458,commdev-image-keyboard-response,93,437316,learnblock1,1045.9999999999418,img/planet8_right.png,8,Community 1,NA,TRUE,j,j,NA,NA,NA,1,6,"7,8,11,14,6,5,2,10,1,4,3,9,13,12,15"
14458,commdev-image-keyboard-response,94,438567,learnblock1,891.0000000000582,img/planet7_left.png,7,Community 1,NA,TRUE,f,f,NA,NA,NA,1,6,"7,8,11,14,6,5,2,10,1,4,3,9,13,12,15"
14458,commdev-image-keyboard-response,95,439820,learnblock1,1034,img/planet8_left.png,8,Community 1,NA,TRUE,f,f,NA,NA,NA,1,6,"7,8,11,14,6,5,2,10,1,4,3,9,13,12,15"
14458,commdev-image-keyboard-response,96,441071,learnblock1,34.99999999994179,img/planet7_right.png,7,Community 1,NA,TRUE,j,j,NA,NA,NA,1,6,"7,8,11,14,6,5,2,10,1,4,3,9,13,12,15"
14458,commdev-image-keyboard-response,97,442322,learnblock1,153,img/planet14_right.png,14,Community 1,NA,FALSE,f,j,NA,NA,NA,1,6,"7,8,11,14,6,5,2,10,1,4,3,9,13,12,15"
14458,commdev-image-keyboard-response,98,443573,learnblock1,49,img/planet5_right.png,5,Community 2,NA,TRUE,j,j,NA,NA,NA,1,6,"7,8,11,14,6,5,2,10,1,4,3,9,13,12,15"
14458,commdev-image-keyboard-response,99,444824,learnblock1,630,img/planet2_left.png,2,Community 2,NA,FALSE,j,f,NA,NA,NA,1,6,"7,8,11,14,6,5,2,10,1,4,3,9,13,12,15"
14458,commdev-image-keyboard-response,100,446075,learnblock1,756,img/planet1_right.png,1,Community 2,NA,FALSE,f,j,NA,NA,NA,1,6,"7,8,11,14,6,5,2,10,1,4,3,9,13,12,15"
14458,commdev-image-keyboard-response,101,447326,learnblock1,885,img/planet4_right.png,4,Community 2,NA,TRUE,j,j,NA,NA,NA,1,6,"7,8,11,14,6,5,2,10,1,4,3,9,13,12,15"
14458,commdev-image-keyboard-response,102,448577,learnblock1,767,img/planet2_left.png,2,Community 2,NA,FALSE,j,f,NA,NA,NA,1,6,"7,8,11,14,6,5,2,10,1,4,3,9,13,12,15"
14458,commdev-image-keyboard-response,103,449828,learnblock1,755.9999999999418,img/planet4_left.png,4,Community 2,NA,TRUE,f,f,NA,NA,NA,1,6,"7,8,11,14,6,5,2,10,1,4,3,9,13,12,15"
14458,commdev-image-keyboard-response,104,451079,learnblock1,887,img/planet2_left.png,2,Community 2,NA,TRUE,f,f,NA,NA,NA,1,6,"7,8,11,14,6,5,2,10,1,4,3,9,13,12,15"
14458,commdev-image-keyboard-response,105,452330,learnblock1,815,img/planet5_right.png,5,Community 2,NA,FALSE,f,j,NA,NA,NA,1,6,"7,8,11,14,6,5,2,10,1,4,3,9,13,12,15"
14458,commdev-image-keyboard-response,106,453581,learnblock1,638.0000000000582,img/planet4_left.png,4,Community 2,NA,FALSE,j,f,NA,NA,NA,1,6,"7,8,11,14,6,5,2,10,1,4,3,9,13,12,15"
14458,commdev-image-keyboard-response,107,454832,learnblock1,673.9999999999418,img/planet2_right.png,2,Community 2,NA,FALSE,f,j,NA,NA,NA,1,6,"7,8,11,14,6,5,2,10,1,4,3,9,13,12,15"
14458,commdev-image-keyboard-response,108,456083,learnblock1,579,img/planet10_right.png,10,Community 2,NA,TRUE,j,j,NA,NA,NA,1,6,"7,8,11,14,6,5,2,10,1,4,3,9,13,12,15"
14458,commdev-image-keyboard-response,109,457334,learnblock1,948,img/planet4_right.png,4,Community 2,NA,FALSE,f,j,NA,NA,NA,1,6,"7,8,11,14,6,5,2,10,1,4,3,9,13,12,15"
14458,commdev-image-keyboard-response,110,458585,learnblock1,952.0000000000582,img/planet5_right.png,5,Community 2,NA,FALSE,f,j,NA,NA,NA,1,6,"7,8,11,14,6,5,2,10,1,4,3,9,13,12,15"
14458,commdev-image-keyboard-response,111,459836,learnblock1,1141.0000000000582,img/planet4_right.png,4,Community 2,NA,FALSE,f,j,NA,NA,NA,1,6,"7,8,11,14,6,5,2,10,1,4,3,9,13,12,15"
14458,commdev-image-keyboard-response,112,461087,learnblock1,1006,img/planet5_right.png,5,Community 2,NA,FALSE,f,j,NA,NA,NA,1,6,"7,8,11,14,6,5,2,10,1,4,3,9,13,12,15"
14458,commdev-image-keyboard-response,113,462338,learnblock1,1022,img/planet14_left.png,14,Community 1,NA,FALSE,j,f,NA,NA,NA,1,6,"7,8,11,14,6,5,2,10,1,4,3,9,13,12,15"
14458,commdev-image-keyboard-response,114,463589,learnblock1,850,img/planet8_left.png,8,Community 1,NA,TRUE,f,f,NA,NA,NA,1,6,"7,8,11,14,6,5,2,10,1,4,3,9,13,12,15"
14458,commdev-image-keyboard-response,115,464840,learnblock1,971.9999999999418,img/planet6_left.png,6,Community 1,NA,TRUE,f,f,NA,NA,NA,1,6,"7,8,11,14,6,5,2,10,1,4,3,9,13,12,15"
14458,commdev-image-keyboard-response,116,466091,learnblock1,1116,img/planet7_right.png,7,Community 1,NA,FALSE,f,j,NA,NA,NA,1,6,"7,8,11,14,6,5,2,10,1,4,3,9,13,12,15"
14458,commdev-image-keyboard-response,117,467342,learnblock1,1114,img/planet14_right.png,14,Community 1,NA,FALSE,f,j,NA,NA,NA,1,6,"7,8,11,14,6,5,2,10,1,4,3,9,13,12,15"
14458,commdev-image-keyboard-response,118,468593,learnblock1,1025,img/planet7_right.png,7,Community 1,NA,FALSE,f,j,NA,NA,NA,1,6,"7,8,11,14,6,5,2,10,1,4,3,9,13,12,15"
14458,commdev-image-keyboard-response,119,469844,learnblock1,790,img/planet6_left.png,6,Community 1,NA,TRUE,f,f,NA,NA,NA,1,6,"7,8,11,14,6,5,2,10,1,4,3,9,13,12,15"
14458,commdev-image-keyboard-response,120,471095,learnblock1,1028.9999999999418,img/planet11_right.png,11,Community 1,NA,TRUE,j,j,NA,NA,NA,1,6,"7,8,11,14,6,5,2,10,1,4,3,9,13,12,15"
14458,commdev-image-keyboard-response,121,472346,learnblock1,935,img/planet14_right.png,14,Community 1,NA,FALSE,f,j,NA,NA,NA,1,6,"7,8,11,14,6,5,2,10,1,4,3,9,13,12,15"
14458,commdev-image-keyboard-response,122,473597,learnblock1,190.0000000000582,img/planet5_right.png,5,Community 2,NA,FALSE,f,j,NA,NA,NA,1,6,"7,8,11,14,6,5,2,10,1,4,3,9,13,12,15"
14458,commdev-image-keyboard-response,123,474849,learnblock1,896.0000000000582,img/planet2_right.png,2,Community 2,NA,FALSE,f,j,NA,NA,NA,1,6,"7,8,11,14,6,5,2,10,1,4,3,9,13,12,15"
14458,commdev-image-keyboard-response,124,476101,learnblock1,749,img/planet5_right.png,5,Community 2,NA,FALSE,f,j,NA,NA,NA,1,6,"7,8,11,14,6,5,2,10,1,4,3,9,13,12,15"
14458,commdev-image-keyboard-response,125,477353,learnblock1,873.9999999999418,img/planet4_left.png,4,Community 2,NA,FALSE,j,f,NA,NA,NA,1,6,"7,8,11,14,6,5,2,10,1,4,3,9,13,12,15"
14458,commdev-image-keyboard-response,126,478604,learnblock1,667,img/planet5_right.png,5,Community 2,NA,FALSE,f,j,NA,NA,NA,1,6,"7,8,11,14,6,5,2,10,1,4,3,9,13,12,15"
14458,commdev-image-keyboard-response,127,479855,learnblock1,630,img/planet2_left.png,2,Community 2,NA,FALSE,j,f,NA,NA,NA,1,6,"7,8,11,14,6,5,2,10,1,4,3,9,13,12,15"
14458,commdev-image-keyboard-response,128,481106,learnblock1,601,img/planet1_left.png,1,Community 2,NA,TRUE,f,f,NA,NA,NA,1,6,"7,8,11,14,6,5,2,10,1,4,3,9,13,12,15"
14458,commdev-image-keyboard-response,129,482357,learnblock1,794.9999999999418,img/planet4_right.png,4,Community 2,NA,FALSE,f,j,NA,NA,NA,1,6,"7,8,11,14,6,5,2,10,1,4,3,9,13,12,15"
14458,commdev-image-keyboard-response,130,483609,learnblock1,443,img/planet5_right.png,5,Community 2,NA,FALSE,f,j,NA,NA,NA,1,6,"7,8,11,14,6,5,2,10,1,4,3,9,13,12,15"
14458,commdev-image-keyboard-response,131,484861,learnblock1,195,img/planet14_right.png,14,Community 1,NA,FALSE,f,j,NA,NA,NA,1,6,"7,8,11,14,6,5,2,10,1,4,3,9,13,12,15"
14458,commdev-image-keyboard-response,132,486113,learnblock1,null,img/planet8_left.png,8,Community 1,NA,FALSE,null,f,NA,NA,NA,1,6,"7,8,11,14,6,5,2,10,1,4,3,9,13,12,15"
14458,commdev-image-keyboard-response,133,487364,learnblock1,null,img/planet11_right.png,11,Community 1,NA,FALSE,null,j,NA,NA,NA,1,6,"7,8,11,14,6,5,2,10,1,4,3,9,13,12,15"
14458,commdev-image-keyboard-response,134,488615,learnblock1,null,img/planet8_left.png,8,Community 1,NA,FALSE,null,f,NA,NA,NA,1,6,"7,8,11,14,6,5,2,10,1,4,3,9,13,12,15"
14458,commdev-image-keyboard-response,135,489866,learnblock1,140.0000000000582,img/planet7_right.png,7,Community 1,NA,TRUE,j,j,NA,NA,NA,1,6,"7,8,11,14,6,5,2,10,1,4,3,9,13,12,15"
14458,commdev-image-keyboard-response,136,491117,learnblock1,73,img/planet6_right.png,6,Community 1,NA,FALSE,f,j,NA,NA,NA,1,6,"7,8,11,14,6,5,2,10,1,4,3,9,13,12,15"
14458,commdev-image-keyboard-response,137,492368,learnblock1,19,img/planet8_left.png,8,Community 1,NA,TRUE,f,f,NA,NA,NA,1,6,"7,8,11,14,6,5,2,10,1,4,3,9,13,12,15"
14458,commdev-image-keyboard-response,138,493620,learnblock1,509.9999999999418,img/planet14_right.png,14,Community 1,NA,TRUE,j,j,NA,NA,NA,1,6,"7,8,11,14,6,5,2,10,1,4,3,9,13,12,15"
14458,commdev-image-keyboard-response,139,494872,learnblock1,815.0000000000582,img/planet11_left.png,11,Community 1,NA,FALSE,j,f,NA,NA,NA,1,6,"7,8,11,14,6,5,2,10,1,4,3,9,13,12,15"
14458,commdev-image-keyboard-response,140,496123,learnblock1,878.0000000000582,img/planet7_right.png,7,Community 1,NA,FALSE,f,j,NA,NA,NA,1,6,"7,8,11,14,6,5,2,10,1,4,3,9,13,12,15"
14458,commdev-image-keyboard-response,141,497375,learnblock1,978.0000000000582,img/planet11_right.png,11,Community 1,NA,FALSE,f,j,NA,NA,NA,1,6,"7,8,11,14,6,5,2,10,1,4,3,9,13,12,15"
14458,commdev-image-keyboard-response,142,498626,learnblock1,1006.0000000000582,img/planet14_right.png,14,Community 1,NA,FALSE,f,j,NA,NA,NA,1,6,"7,8,11,14,6,5,2,10,1,4,3,9,13,12,15"
14458,commdev-image-keyboard-response,143,499877,learnblock1,1060.9999999999418,img/planet8_right.png,8,Community 1,NA,FALSE,f,j,NA,NA,NA,1,6,"7,8,11,14,6,5,2,10,1,4,3,9,13,12,15"
14458,commdev-image-keyboard-response,144,501128,learnblock1,1212,img/planet6_right.png,6,Community 1,NA,FALSE,f,j,NA,NA,NA,1,6,"7,8,11,14,6,5,2,10,1,4,3,9,13,12,15"
14458,commdev-image-keyboard-response,145,502380,learnblock1,1047,img/planet7_right.png,7,Community 1,NA,FALSE,f,j,NA,NA,NA,1,6,"7,8,11,14,6,5,2,10,1,4,3,9,13,12,15"
14458,commdev-image-keyboard-response,146,503632,learnblock1,875,img/planet14_right.png,14,Community 1,NA,FALSE,f,j,NA,NA,NA,1,6,"7,8,11,14,6,5,2,10,1,4,3,9,13,12,15"
14458,commdev-image-keyboard-response,147,504884,learnblock1,1090,img/planet11_right.png,11,Community 1,NA,FALSE,f,j,NA,NA,NA,1,6,"7,8,11,14,6,5,2,10,1,4,3,9,13,12,15"
14458,commdev-image-keyboard-response,148,506136,learnblock1,696,img/planet14_left.png,14,Community 1,NA,FALSE,j,f,NA,NA,NA,1,6,"7,8,11,14,6,5,2,10,1,4,3,9,13,12,15"
14458,commdev-image-keyboard-response,149,507388,learnblock1,370,img/planet5_left.png,5,Community 2,NA,FALSE,j,f,NA,NA,NA,1,6,"7,8,11,14,6,5,2,10,1,4,3,9,13,12,15"
14458,commdev-image-keyboard-response,150,508639,learnblock1,1019,img/planet2_left.png,2,Community 2,NA,FALSE,j,f,NA,NA,NA,1,6,"7,8,11,14,6,5,2,10,1,4,3,9,13,12,15"
14458,commdev-image-keyboard-response,151,509893,learnblock1,698.0000000000582,img/planet10_right.png,10,Community 2,NA,FALSE,f,j,NA,NA,NA,1,6,"7,8,11,14,6,5,2,10,1,4,3,9,13,12,15"
14458,commdev-image-keyboard-response,152,511146,learnblock1,744.0000000000582,img/planet1_left.png,1,Community 2,NA,FALSE,j,f,NA,NA,NA,1,6,"7,8,11,14,6,5,2,10,1,4,3,9,13,12,15"
14458,commdev-image-keyboard-response,153,512398,learnblock1,628.0000000000582,img/planet5_right.png,5,Community 2,NA,FALSE,f,j,NA,NA,NA,1,6,"7,8,11,14,6,5,2,10,1,4,3,9,13,12,15"
14458,commdev-image-keyboard-response,154,513649,learnblock1,1102.9999999999418,img/planet1_left.png,1,Community 2,NA,FALSE,j,f,NA,NA,NA,1,6,"7,8,11,14,6,5,2,10,1,4,3,9,13,12,15"
14458,commdev-image-keyboard-response,155,514901,learnblock1,850,img/planet2_right.png,2,Community 2,NA,FALSE,f,j,NA,NA,NA,1,6,"7,8,11,14,6,5,2,10,1,4,3,9,13,12,15"
14458,commdev-image-keyboard-response,156,516153,learnblock1,null,img/planet5_right.png,5,Community 2,NA,FALSE,null,j,NA,NA,NA,1,6,"7,8,11,14,6,5,2,10,1,4,3,9,13,12,15"
14458,commdev-image-keyboard-response,157,517405,learnblock1,857.9999999999418,img/planet2_left.png,2,Community 2,NA,FALSE,j,f,NA,NA,NA,1,6,"7,8,11,14,6,5,2,10,1,4,3,9,13,12,15"
14458,commdev-image-keyboard-response,158,518656,learnblock1,null,img/planet10_right.png,10,Community 2,NA,FALSE,null,j,NA,NA,NA,1,6,"7,8,11,14,6,5,2,10,1,4,3,9,13,12,15"
14458,commdev-image-keyboard-response,159,519908,learnblock1,497.0000000000582,img/planet2_left.png,2,Community 2,NA,TRUE,f,f,NA,NA,NA,1,6,"7,8,11,14,6,5,2,10,1,4,3,9,13,12,15"
14458,commdev-image-keyboard-response,160,521160,learnblock1,231,img/planet10_right.png,10,Community 2,NA,TRUE,j,j,NA,NA,NA,1,6,"7,8,11,14,6,5,2,10,1,4,3,9,13,12,15"
14458,commdev-image-keyboard-response,161,522412,learnblock1,null,img/planet1_left.png,1,Community 2,NA,FALSE,null,f,NA,NA,NA,1,6,"7,8,11,14,6,5,2,10,1,4,3,9,13,12,15"
14458,commdev-image-keyboard-response,162,523663,learnblock1,null,img/planet10_left.png,10,Community 2,NA,FALSE,null,f,NA,NA,NA,1,6,"7,8,11,14,6,5,2,10,1,4,3,9,13,12,15"
14458,commdev-image-keyboard-response,163,524914,learnblock1,null,img/planet9_left.png,9,Community 3,NA,FALSE,null,f,NA,NA,NA,1,6,"7,8,11,14,6,5,2,10,1,4,3,9,13,12,15"
14458,commdev-image-keyboard-response,164,526165,learnblock1,null,img/planet10_left.png,10,Community 2,NA,FALSE,null,f,NA,NA,NA,1,6,"7,8,11,14,6,5,2,10,1,4,3,9,13,12,15"
14458,commdev-image-keyboard-response,165,527417,learnblock1,null,img/planet9_left.png,9,Community 3,NA,FALSE,null,f,NA,NA,NA,1,6,"7,8,11,14,6,5,2,10,1,4,3,9,13,12,15"
14458,commdev-image-keyboard-response,166,528669,learnblock1,null,img/planet15_left.png,15,Community 3,NA,FALSE,null,f,NA,NA,NA,1,6,"7,8,11,14,6,5,2,10,1,4,3,9,13,12,15"
14458,commdev-image-keyboard-response,167,529920,learnblock1,522.0000000001164,img/planet3_right.png,3,Community 3,NA,FALSE,f,j,NA,NA,NA,1,6,"7,8,11,14,6,5,2,10,1,4,3,9,13,12,15"
14458,commdev-image-keyboard-response,168,531174,learnblock1,98.99999999988358,img/planet12_right.png,12,Community 3,NA,TRUE,j,j,NA,NA,NA,1,6,"7,8,11,14,6,5,2,10,1,4,3,9,13,12,15"
14458,commdev-image-keyboard-response,169,532427,learnblock1,52,img/planet13_right.png,13,Community 3,NA,FALSE,f,j,NA,NA,NA,1,6,"7,8,11,14,6,5,2,10,1,4,3,9,13,12,15"
14458,commdev-image-keyboard-response,170,533679,learnblock1,null,img/planet12_right.png,12,Community 3,NA,FALSE,null,j,NA,NA,NA,1,6,"7,8,11,14,6,5,2,10,1,4,3,9,13,12,15"
14458,commdev-image-keyboard-response,171,534932,learnblock1,582,img/planet3_right.png,3,Community 3,NA,FALSE,f,j,NA,NA,NA,1,6,"7,8,11,14,6,5,2,10,1,4,3,9,13,12,15"
14458,commdev-image-keyboard-response,172,536183,learnblock1,1192,img/planet6_right.png,6,Community 1,NA,TRUE,j,j,NA,NA,NA,1,6,"7,8,11,14,6,5,2,10,1,4,3,9,13,12,15"
14458,commdev-image-keyboard-response,173,537435,learnblock1,489.0000000001164,img/planet11_right.png,11,Community 1,NA,TRUE,j,j,NA,NA,NA,1,6,"7,8,11,14,6,5,2,10,1,4,3,9,13,12,15"
14458,commdev-image-keyboard-response,174,538686,learnblock1,53,img/planet8_right.png,8,Community 1,NA,TRUE,j,j,NA,NA,NA,1,6,"7,8,11,14,6,5,2,10,1,4,3,9,13,12,15"
14458,commdev-image-keyboard-response,175,539937,learnblock1,99,img/planet7_right.png,7,Community 1,NA,TRUE,j,j,NA,NA,NA,1,6,"7,8,11,14,6,5,2,10,1,4,3,9,13,12,15"
14458,commdev-image-keyboard-response,176,541188,learnblock1,235.00000000011642,img/planet8_left.png,8,Community 1,NA,TRUE,f,f,NA,NA,NA,1,6,"7,8,11,14,6,5,2,10,1,4,3,9,13,12,15"
14458,commdev-image-keyboard-response,177,542439,learnblock1,348,img/planet11_right.png,11,Community 1,NA,TRUE,j,j,NA,NA,NA,1,6,"7,8,11,14,6,5,2,10,1,4,3,9,13,12,15"
14458,commdev-image-keyboard-response,178,543691,learnblock1,320,img/planet14_left.png,14,Community 1,NA,TRUE,f,f,NA,NA,NA,1,6,"7,8,11,14,6,5,2,10,1,4,3,9,13,12,15"
14458,commdev-image-keyboard-response,179,544943,learnblock1,null,img/planet8_left.png,8,Community 1,NA,FALSE,null,f,NA,NA,NA,1,6,"7,8,11,14,6,5,2,10,1,4,3,9,13,12,15"
14458,commdev-image-keyboard-response,180,546195,learnblock1,null,img/planet6_left.png,6,Community 1,NA,FALSE,null,f,NA,NA,NA,1,6,"7,8,11,14,6,5,2,10,1,4,3,9,13,12,15"
14458,commdev-image-keyboard-response,181,547446,learnblock1,730,img/planet7_right.png,7,Community 1,NA,FALSE,f,j,NA,NA,NA,1,6,"7,8,11,14,6,5,2,10,1,4,3,9,13,12,15"
14458,commdev-image-keyboard-response,182,548697,learnblock1,null,img/planet8_left.png,8,Community 1,NA,FALSE,null,f,NA,NA,NA,1,6,"7,8,11,14,6,5,2,10,1,4,3,9,13,12,15"
14458,commdev-image-keyboard-response,183,549948,learnblock1,null,img/planet6_right.png,6,Community 1,NA,FALSE,null,j,NA,NA,NA,1,6,"7,8,11,14,6,5,2,10,1,4,3,9,13,12,15"
14458,commdev-image-keyboard-response,184,551200,learnblock1,810,img/planet7_right.png,7,Community 1,NA,FALSE,f,j,NA,NA,NA,1,6,"7,8,11,14,6,5,2,10,1,4,3,9,13,12,15"
14458,commdev-image-keyboard-response,185,552452,learnblock1,null,img/planet6_right.png,6,Community 1,NA,FALSE,null,j,NA,NA,NA,1,6,"7,8,11,14,6,5,2,10,1,4,3,9,13,12,15"
14458,commdev-image-keyboard-response,186,553704,learnblock1,611,img/planet7_left.png,7,Community 1,NA,TRUE,f,f,NA,NA,NA,1,6,"7,8,11,14,6,5,2,10,1,4,3,9,13,12,15"
14458,commdev-image-keyboard-response,187,554955,learnblock1,1122,img/planet14_right.png,14,Community 1,NA,FALSE,f,j,NA,NA,NA,1,6,"7,8,11,14,6,5,2,10,1,4,3,9,13,12,15"
14458,commdev-image-keyboard-response,188,556206,learnblock1,784,img/planet11_left.png,11,Community 1,NA,FALSE,j,f,NA,NA,NA,1,6,"7,8,11,14,6,5,2,10,1,4,3,9,13,12,15"
14458,commdev-image-keyboard-response,189,557457,learnblock1,null,img/planet14_right.png,14,Community 1,NA,FALSE,null,j,NA,NA,NA,1,6,"7,8,11,14,6,5,2,10,1,4,3,9,13,12,15"
14458,commdev-image-keyboard-response,190,558708,learnblock1,65,img/planet11_left.png,11,Community 1,NA,TRUE,f,f,NA,NA,NA,1,6,"7,8,11,14,6,5,2,10,1,4,3,9,13,12,15"
14458,commdev-image-keyboard-response,191,559959,learnblock1,1106,img/planet6_left.png,6,Community 1,NA,TRUE,f,f,NA,NA,NA,1,6,"7,8,11,14,6,5,2,10,1,4,3,9,13,12,15"
14458,commdev-image-keyboard-response,192,561210,learnblock1,1103,img/planet8_right.png,8,Community 1,NA,FALSE,f,j,NA,NA,NA,1,6,"7,8,11,14,6,5,2,10,1,4,3,9,13,12,15"
14458,commdev-image-keyboard-response,193,562462,learnblock1,1188,img/planet6_left.png,6,Community 1,NA,TRUE,f,f,NA,NA,NA,1,6,"7,8,11,14,6,5,2,10,1,4,3,9,13,12,15"
14458,commdev-image-keyboard-response,194,563713,learnblock1,968,img/planet7_left.png,7,Community 1,NA,FALSE,j,f,NA,NA,NA,1,6,"7,8,11,14,6,5,2,10,1,4,3,9,13,12,15"
14458,commdev-image-keyboard-response,195,564965,learnblock1,936,img/planet8_right.png,8,Community 1,NA,FALSE,f,j,NA,NA,NA,1,6,"7,8,11,14,6,5,2,10,1,4,3,9,13,12,15"
14458,commdev-image-keyboard-response,196,566216,learnblock1,null,img/planet11_left.png,11,Community 1,NA,FALSE,null,f,NA,NA,NA,1,6,"7,8,11,14,6,5,2,10,1,4,3,9,13,12,15"
14458,commdev-image-keyboard-response,197,567468,learnblock1,null,img/planet7_left.png,7,Community 1,NA,FALSE,null,f,NA,NA,NA,1,6,"7,8,11,14,6,5,2,10,1,4,3,9,13,12,15"
14458,commdev-image-keyboard-response,198,568720,learnblock1,888,img/planet8_left.png,8,Community 1,NA,FALSE,j,f,NA,NA,NA,1,6,"7,8,11,14,6,5,2,10,1,4,3,9,13,12,15"
14458,commdev-image-keyboard-response,199,569972,learnblock1,null,img/planet11_left.png,11,Community 1,NA,FALSE,null,f,NA,NA,NA,1,6,"7,8,11,14,6,5,2,10,1,4,3,9,13,12,15"
14458,commdev-image-keyboard-response,200,571223,learnblock1,null,img/planet8_right.png,8,Community 1,NA,FALSE,null,j,NA,NA,NA,1,6,"7,8,11,14,6,5,2,10,1,4,3,9,13,12,15"
14458,commdev-image-keyboard-response,201,572474,learnblock1,null,img/planet7_right.png,7,Community 1,NA,FALSE,null,j,NA,NA,NA,1,6,"7,8,11,14,6,5,2,10,1,4,3,9,13,12,15"
14458,commdev-image-keyboard-response,202,573727,learnblock1,null,img/planet14_left.png,14,Community 1,NA,FALSE,null,f,NA,NA,NA,1,6,"7,8,11,14,6,5,2,10,1,4,3,9,13,12,15"
14458,commdev-image-keyboard-response,203,574979,learnblock1,220,img/planet8_right.png,8,Community 1,NA,FALSE,f,j,NA,NA,NA,1,6,"7,8,11,14,6,5,2,10,1,4,3,9,13,12,15"
14458,commdev-image-keyboard-response,204,576231,learnblock1,836,img/planet11_left.png,11,Community 1,NA,TRUE,f,f,NA,NA,NA,1,6,"7,8,11,14,6,5,2,10,1,4,3,9,13,12,15"
14458,commdev-image-keyboard-response,205,577483,learnblock1,638,img/planet8_left.png,8,Community 1,NA,TRUE,f,f,NA,NA,NA,1,6,"7,8,11,14,6,5,2,10,1,4,3,9,13,12,15"
14458,commdev-image-keyboard-response,206,578738,learnblock1,594,img/planet11_right.png,11,Community 1,NA,TRUE,j,j,NA,NA,NA,1,6,"7,8,11,14,6,5,2,10,1,4,3,9,13,12,15"
14458,commdev-image-keyboard-response,207,579989,learnblock1,371,img/planet14_left.png,14,Community 1,NA,FALSE,j,f,NA,NA,NA,1,6,"7,8,11,14,6,5,2,10,1,4,3,9,13,12,15"
14458,commdev-image-keyboard-response,208,581240,learnblock1,6.000000000116415,img/planet11_left.png,11,Community 1,NA,TRUE,f,f,NA,NA,NA,1,6,"7,8,11,14,6,5,2,10,1,4,3,9,13,12,15"
14458,commdev-image-keyboard-response,209,582491,learnblock1,1096,img/planet14_right.png,14,Community 1,NA,FALSE,f,j,NA,NA,NA,1,6,"7,8,11,14,6,5,2,10,1,4,3,9,13,12,15"
14458,commdev-image-keyboard-response,210,583743,learnblock1,395,img/planet5_right.png,5,Community 2,NA,TRUE,j,j,NA,NA,NA,1,6,"7,8,11,14,6,5,2,10,1,4,3,9,13,12,15"
14458,commdev-image-keyboard-response,211,584996,learnblock1,null,img/planet14_right.png,14,Community 1,NA,FALSE,null,j,NA,NA,NA,1,6,"7,8,11,14,6,5,2,10,1,4,3,9,13,12,15"
14458,commdev-image-keyboard-response,212,586247,learnblock1,1182,img/planet5_left.png,5,Community 2,NA,FALSE,j,f,NA,NA,NA,1,6,"7,8,11,14,6,5,2,10,1,4,3,9,13,12,15"
14458,commdev-image-keyboard-response,213,587498,learnblock1,205,img/planet4_left.png,4,Community 2,NA,TRUE,f,f,NA,NA,NA,1,6,"7,8,11,14,6,5,2,10,1,4,3,9,13,12,15"
14458,commdev-image-keyboard-response,214,588749,learnblock1,null,img/planet1_right.png,1,Community 2,NA,FALSE,null,j,NA,NA,NA,1,6,"7,8,11,14,6,5,2,10,1,4,3,9,13,12,15"
14458,commdev-image-keyboard-response,215,590000,learnblock1,null,img/planet2_left.png,2,Community 2,NA,FALSE,null,f,NA,NA,NA,1,6,"7,8,11,14,6,5,2,10,1,4,3,9,13,12,15"
14458,commdev-image-keyboard-response,216,591252,learnblock1,1240.9999999998836,img/planet5_left.png,5,Community 2,NA,TRUE,f,f,NA,NA,NA,1,6,"7,8,11,14,6,5,2,10,1,4,3,9,13,12,15"
14458,commdev-image-keyboard-response,217,592504,learnblock1,125,img/planet14_right.png,14,Community 1,NA,TRUE,j,j,NA,NA,NA,1,6,"7,8,11,14,6,5,2,10,1,4,3,9,13,12,15"
14458,commdev-image-keyboard-response,218,593755,learnblock1,34,img/planet5_right.png,5,Community 2,NA,TRUE,j,j,NA,NA,NA,1,6,"7,8,11,14,6,5,2,10,1,4,3,9,13,12,15"
14458,commdev-image-keyboard-response,219,595007,learnblock1,118,img/planet4_left.png,4,Community 2,NA,TRUE,f,f,NA,NA,NA,1,6,"7,8,11,14,6,5,2,10,1,4,3,9,13,12,15"
14458,commdev-image-keyboard-response,220,596258,learnblock1,16,img/planet5_left.png,5,Community 2,NA,FALSE,j,f,NA,NA,NA,1,6,"7,8,11,14,6,5,2,10,1,4,3,9,13,12,15"
14458,commdev-image-keyboard-response,221,597509,learnblock1,117,img/planet2_right.png,2,Community 2,NA,FALSE,f,j,NA,NA,NA,1,6,"7,8,11,14,6,5,2,10,1,4,3,9,13,12,15"
14458,commdev-image-keyboard-response,222,598761,learnblock1,27,img/planet1_right.png,1,Community 2,NA,FALSE,f,j,NA,NA,NA,1,6,"7,8,11,14,6,5,2,10,1,4,3,9,13,12,15"
14458,commdev-image-keyboard-response,223,600013,learnblock1,136,img/planet4_right.png,4,Community 2,NA,FALSE,f,j,NA,NA,NA,1,6,"7,8,11,14,6,5,2,10,1,4,3,9,13,12,15"
14458,commdev-image-keyboard-response,224,601264,learnblock1,266,img/planet5_right.png,5,Community 2,NA,FALSE,f,j,NA,NA,NA,1,6,"7,8,11,14,6,5,2,10,1,4,3,9,13,12,15"
14458,commdev-image-keyboard-response,225,602515,learnblock1,179,img/planet1_right.png,1,Community 2,NA,FALSE,f,j,NA,NA,NA,1,6,"7,8,11,14,6,5,2,10,1,4,3,9,13,12,15"
14458,commdev-image-keyboard-response,226,603766,learnblock1,209,img/planet2_left.png,2,Community 2,NA,TRUE,f,f,NA,NA,NA,1,6,"7,8,11,14,6,5,2,10,1,4,3,9,13,12,15"
14458,commdev-image-keyboard-response,227,605020,learnblock1,135,img/planet4_right.png,4,Community 2,NA,TRUE,j,j,NA,NA,NA,1,6,"7,8,11,14,6,5,2,10,1,4,3,9,13,12,15"
14458,commdev-image-keyboard-response,228,606271,learnblock1,72,img/planet2_left.png,2,Community 2,NA,TRUE,f,f,NA,NA,NA,1,6,"7,8,11,14,6,5,2,10,1,4,3,9,13,12,15"
14458,commdev-image-keyboard-response,229,607524,learnblock1,58,img/planet10_left.png,10,Community 2,NA,TRUE,f,f,NA,NA,NA,1,6,"7,8,11,14,6,5,2,10,1,4,3,9,13,12,15"
14458,commdev-image-keyboard-response,230,608775,learnblock1,225,img/planet4_right.png,4,Community 2,NA,TRUE,j,j,NA,NA,NA,1,6,"7,8,11,14,6,5,2,10,1,4,3,9,13,12,15"
14458,commdev-image-keyboard-response,231,610027,learnblock1,49,img/planet10_right.png,10,Community 2,NA,FALSE,f,j,NA,NA,NA,1,6,"7,8,11,14,6,5,2,10,1,4,3,9,13,12,15"
14458,commdev-image-keyboard-response,232,611278,learnblock1,69.00000000011642,img/planet4_left.png,4,Community 2,NA,TRUE,f,f,NA,NA,NA,1,6,"7,8,11,14,6,5,2,10,1,4,3,9,13,12,15"
14458,commdev-image-keyboard-response,233,612529,learnblock1,132,img/planet10_right.png,10,Community 2,NA,FALSE,f,j,NA,NA,NA,1,6,"7,8,11,14,6,5,2,10,1,4,3,9,13,12,15"
14458,commdev-image-keyboard-response,234,613780,learnblock1,null,img/planet9_right.png,9,Community 3,NA,FALSE,null,j,NA,NA,NA,1,6,"7,8,11,14,6,5,2,10,1,4,3,9,13,12,15"
14458,commdev-image-keyboard-response,235,615031,learnblock1,null,img/planet10_right.png,10,Community 2,NA,FALSE,null,j,NA,NA,NA,1,6,"7,8,11,14,6,5,2,10,1,4,3,9,13,12,15"
14458,commdev-image-keyboard-response,236,616284,learnblock1,982,img/planet9_right.png,9,Community 3,NA,FALSE,f,j,NA,NA,NA,1,6,"7,8,11,14,6,5,2,10,1,4,3,9,13,12,15"
14458,commdev-image-keyboard-response,237,617536,learnblock1,107,img/planet10_left.png,10,Community 2,NA,TRUE,f,f,NA,NA,NA,1,6,"7,8,11,14,6,5,2,10,1,4,3,9,13,12,15"
14458,commdev-image-keyboard-response,238,618787,learnblock1,147,img/planet4_left.png,4,Community 2,NA,FALSE,j,f,NA,NA,NA,1,6,"7,8,11,14,6,5,2,10,1,4,3,9,13,12,15"
14458,commdev-image-keyboard-response,239,620038,learnblock1,69,img/planet1_left.png,1,Community 2,NA,TRUE,f,f,NA,NA,NA,1,6,"7,8,11,14,6,5,2,10,1,4,3,9,13,12,15"
14458,commdev-image-keyboard-response,240,621289,learnblock1,71,img/planet10_left.png,10,Community 2,NA,TRUE,f,f,NA,NA,NA,1,6,"7,8,11,14,6,5,2,10,1,4,3,9,13,12,15"
14458,commdev-image-keyboard-response,241,622541,learnblock1,26,img/planet9_left.png,9,Community 3,NA,TRUE,f,f,NA,NA,NA,1,6,"7,8,11,14,6,5,2,10,1,4,3,9,13,12,15"
14458,commdev-image-keyboard-response,242,623793,learnblock1,21,img/planet15_right.png,15,Community 3,NA,TRUE,j,j,NA,NA,NA,1,6,"7,8,11,14,6,5,2,10,1,4,3,9,13,12,15"
14458,commdev-image-keyboard-response,243,625045,learnblock1,93.99999999988358,img/planet12_left.png,12,Community 3,NA,TRUE,f,f,NA,NA,NA,1,6,"7,8,11,14,6,5,2,10,1,4,3,9,13,12,15"
14458,commdev-image-keyboard-response,244,626296,learnblock1,171,img/planet15_left.png,15,Community 3,NA,TRUE,f,f,NA,NA,NA,1,6,"7,8,11,14,6,5,2,10,1,4,3,9,13,12,15"
14458,commdev-image-keyboard-response,245,627547,learnblock1,214,img/planet13_right.png,13,Community 3,NA,TRUE,j,j,NA,NA,NA,1,6,"7,8,11,14,6,5,2,10,1,4,3,9,13,12,15"
14458,commdev-image-keyboard-response,246,628798,learnblock1,46,img/planet15_left.png,15,Community 3,NA,TRUE,f,f,NA,NA,NA,1,6,"7,8,11,14,6,5,2,10,1,4,3,9,13,12,15"
14458,commdev-image-keyboard-response,247,630049,learnblock1,315,img/planet3_left.png,3,Community 3,NA,FALSE,j,f,NA,NA,NA,1,6,"7,8,11,14,6,5,2,10,1,4,3,9,13,12,15"
14458,commdev-image-keyboard-response,248,631300,learnblock1,495,img/planet15_left.png,15,Community 3,NA,FALSE,j,f,NA,NA,NA,1,6,"7,8,11,14,6,5,2,10,1,4,3,9,13,12,15"
14458,commdev-image-keyboard-response,249,632551,learnblock1,482,img/planet12_right.png,12,Community 3,NA,TRUE,j,j,NA,NA,NA,1,6,"7,8,11,14,6,5,2,10,1,4,3,9,13,12,15"
14458,commdev-image-keyboard-response,250,633802,learnblock1,62,img/planet13_left.png,13,Community 3,NA,TRUE,f,f,NA,NA,NA,1,6,"7,8,11,14,6,5,2,10,1,4,3,9,13,12,15"
14458,commdev-image-keyboard-response,251,635053,learnblock1,null,img/planet9_left.png,9,Community 3,NA,FALSE,null,f,NA,NA,NA,1,6,"7,8,11,14,6,5,2,10,1,4,3,9,13,12,15"
14458,commdev-image-keyboard-response,252,636306,learnblock1,null,img/planet15_left.png,15,Community 3,NA,FALSE,null,f,NA,NA,NA,1,6,"7,8,11,14,6,5,2,10,1,4,3,9,13,12,15"
14458,commdev-image-keyboard-response,253,637557,learnblock1,null,img/planet3_right.png,3,Community 3,NA,FALSE,null,j,NA,NA,NA,1,6,"7,8,11,14,6,5,2,10,1,4,3,9,13,12,15"
14458,commdev-image-keyboard-response,254,638809,learnblock1,null,img/planet13_left.png,13,Community 3,NA,FALSE,null,f,NA,NA,NA,1,6,"7,8,11,14,6,5,2,10,1,4,3,9,13,12,15"
14458,commdev-image-keyboard-response,255,640061,learnblock1,null,img/planet15_left.png,15,Community 3,NA,FALSE,null,f,NA,NA,NA,1,6,"7,8,11,14,6,5,2,10,1,4,3,9,13,12,15"
14458,commdev-image-keyboard-response,256,641313,learnblock1,1098,img/planet3_right.png,3,Community 3,NA,FALSE,f,j,NA,NA,NA,1,6,"7,8,11,14,6,5,2,10,1,4,3,9,13,12,15"
14458,commdev-image-keyboard-response,257,642566,learnblock1,892,img/planet15_right.png,15,Community 3,NA,FALSE,f,j,NA,NA,NA,1,6,"7,8,11,14,6,5,2,10,1,4,3,9,13,12,15"
14458,commdev-image-keyboard-response,258,643818,learnblock1,990,img/planet9_right.png,9,Community 3,NA,FALSE,f,j,NA,NA,NA,1,6,"7,8,11,14,6,5,2,10,1,4,3,9,13,12,15"
14458,commdev-image-keyboard-response,259,644861,learnblock1,726,img/planet13_right.png,13,Community 3,NA,FALSE,f,j,NA,NA,NA,1,6,"7,8,11,14,6,5,2,10,1,4,3,9,13,12,15"
14458,commdev-image-keyboard-response,260,646112,learnblock1,945.0000000001164,img/planet12_left.png,12,Community 3,NA,TRUE,f,f,NA,NA,NA,1,6,"7,8,11,14,6,5,2,10,1,4,3,9,13,12,15"
14458,commdev-image-keyboard-response,261,647363,learnblock1,869,img/planet9_left.png,9,Community 3,NA,TRUE,f,f,NA,NA,NA,1,6,"7,8,11,14,6,5,2,10,1,4,3,9,13,12,15"
14458,commdev-image-keyboard-response,262,648614,learnblock1,1137,img/planet15_left.png,15,Community 3,NA,TRUE,f,f,NA,NA,NA,1,6,"7,8,11,14,6,5,2,10,1,4,3,9,13,12,15"
14458,commdev-image-keyboard-response,263,649865,learnblock1,880,img/planet3_left.png,3,Community 3,NA,TRUE,f,f,NA,NA,NA,1,6,"7,8,11,14,6,5,2,10,1,4,3,9,13,12,15"
14458,commdev-image-keyboard-response,264,651117,learnblock1,842,img/planet13_right.png,13,Community 3,NA,FALSE,f,j,NA,NA,NA,1,6,"7,8,11,14,6,5,2,10,1,4,3,9,13,12,15"
14458,commdev-image-keyboard-response,265,652369,learnblock1,73,img/planet12_right.png,12,Community 3,NA,TRUE,j,j,NA,NA,NA,1,6,"7,8,11,14,6,5,2,10,1,4,3,9,13,12,15"
14458,commdev-image-keyboard-response,266,653621,learnblock1,null,img/planet3_left.png,3,Community 3,NA,FALSE,null,f,NA,NA,NA,1,6,"7,8,11,14,6,5,2,10,1,4,3,9,13,12,15"
14458,commdev-image-keyboard-response,267,654872,learnblock1,null,img/planet6_left.png,6,Community 1,NA,FALSE,null,f,NA,NA,NA,1,6,"7,8,11,14,6,5,2,10,1,4,3,9,13,12,15"
14458,commdev-image-keyboard-response,268,656123,learnblock1,null,img/planet3_right.png,3,Community 3,NA,FALSE,null,j,NA,NA,NA,1,6,"7,8,11,14,6,5,2,10,1,4,3,9,13,12,15"
14458,commdev-image-keyboard-response,269,657374,learnblock1,15,img/planet13_left.png,13,Community 3,NA,FALSE,j,f,NA,NA,NA,1,6,"7,8,11,14,6,5,2,10,1,4,3,9,13,12,15"
14458,commdev-image-keyboard-response,270,658625,learnblock1,184,img/planet3_left.png,3,Community 3,NA,TRUE,f,f,NA,NA,NA,1,6,"7,8,11,14,6,5,2,10,1,4,3,9,13,12,15"
14458,commdev-image-keyboard-response,271,659876,learnblock1,684,img/planet15_right.png,15,Community 3,NA,TRUE,j,j,NA,NA,NA,1,6,"7,8,11,14,6,5,2,10,1,4,3,9,13,12,15"
14458,commdev-image-keyboard-response,272,661127,learnblock1,183,img/planet3_left.png,3,Community 3,NA,FALSE,j,f,NA,NA,NA,1,6,"7,8,11,14,6,5,2,10,1,4,3,9,13,12,15"
14458,commdev-image-keyboard-response,273,662379,learnblock1,571,img/planet6_right.png,6,Community 1,NA,TRUE,j,j,NA,NA,NA,1,6,"7,8,11,14,6,5,2,10,1,4,3,9,13,12,15"
14458,commdev-image-keyboard-response,274,663631,learnblock1,24,img/planet8_left.png,8,Community 1,NA,FALSE,j,f,NA,NA,NA,1,6,"7,8,11,14,6,5,2,10,1,4,3,9,13,12,15"
14458,commdev-image-keyboard-response,275,664882,learnblock1,894,img/planet14_right.png,14,Community 1,NA,TRUE,j,j,NA,NA,NA,1,6,"7,8,11,14,6,5,2,10,1,4,3,9,13,12,15"
14458,commdev-image-keyboard-response,276,666133,learnblock1,705,img/planet8_right.png,8,Community 1,NA,FALSE,f,j,NA,NA,NA,1,6,"7,8,11,14,6,5,2,10,1,4,3,9,13,12,15"
14458,commdev-image-keyboard-response,277,667384,learnblock1,121.99999999988358,img/planet6_left.png,6,Community 1,NA,TRUE,f,f,NA,NA,NA,1,6,"7,8,11,14,6,5,2,10,1,4,3,9,13,12,15"
14458,commdev-image-keyboard-response,278,668635,learnblock1,947,img/planet11_right.png,11,Community 1,NA,TRUE,j,j,NA,NA,NA,1,6,"7,8,11,14,6,5,2,10,1,4,3,9,13,12,15"
14458,commdev-image-keyboard-response,279,669886,learnblock1,942,img/planet6_right.png,6,Community 1,NA,TRUE,j,j,NA,NA,NA,1,6,"7,8,11,14,6,5,2,10,1,4,3,9,13,12,15"
14458,commdev-image-keyboard-response,280,671137,learnblock1,894,img/planet7_right.png,7,Community 1,NA,TRUE,j,j,NA,NA,NA,1,6,"7,8,11,14,6,5,2,10,1,4,3,9,13,12,15"
14458,commdev-image-keyboard-response,281,672391,learnblock1,956.9999999998836,img/planet6_left.png,6,Community 1,NA,FALSE,j,f,NA,NA,NA,1,6,"7,8,11,14,6,5,2,10,1,4,3,9,13,12,15"
14458,commdev-image-keyboard-response,282,673642,learnblock1,768,img/planet7_right.png,7,Community 1,NA,TRUE,j,j,NA,NA,NA,1,6,"7,8,11,14,6,5,2,10,1,4,3,9,13,12,15"
14458,commdev-image-keyboard-response,283,674894,learnblock1,111,img/planet8_left.png,8,Community 1,NA,FALSE,j,f,NA,NA,NA,1,6,"7,8,11,14,6,5,2,10,1,4,3,9,13,12,15"
14458,commdev-image-keyboard-response,284,676148,learnblock1,157,img/planet7_left.png,7,Community 1,NA,TRUE,f,f,NA,NA,NA,1,6,"7,8,11,14,6,5,2,10,1,4,3,9,13,12,15"
14458,commdev-image-keyboard-response,285,677401,learnblock1,74,img/planet11_left.png,11,Community 1,NA,TRUE,f,f,NA,NA,NA,1,6,"7,8,11,14,6,5,2,10,1,4,3,9,13,12,15"
14458,commdev-image-keyboard-response,286,678652,learnblock1,null,img/planet6_left.png,6,Community 1,NA,FALSE,null,f,NA,NA,NA,1,6,"7,8,11,14,6,5,2,10,1,4,3,9,13,12,15"
14458,commdev-image-keyboard-response,287,679904,learnblock1,null,img/planet8_right.png,8,Community 1,NA,FALSE,null,j,NA,NA,NA,1,6,"7,8,11,14,6,5,2,10,1,4,3,9,13,12,15"
14458,commdev-image-keyboard-response,288,681156,learnblock1,null,img/planet7_right.png,7,Community 1,NA,FALSE,null,j,NA,NA,NA,1,6,"7,8,11,14,6,5,2,10,1,4,3,9,13,12,15"
14458,commdev-image-keyboard-response,289,682408,learnblock1,792,img/planet6_right.png,6,Community 1,NA,TRUE,j,j,NA,NA,NA,1,6,"7,8,11,14,6,5,2,10,1,4,3,9,13,12,15"
14458,commdev-image-keyboard-response,290,683659,learnblock1,825.9999999998836,img/planet11_left.png,11,Community 1,NA,FALSE,j,f,NA,NA,NA,1,6,"7,8,11,14,6,5,2,10,1,4,3,9,13,12,15"
14458,commdev-image-keyboard-response,291,684911,learnblock1,67,img/planet14_right.png,14,Community 1,NA,FALSE,f,j,NA,NA,NA,1,6,"7,8,11,14,6,5,2,10,1,4,3,9,13,12,15"
14458,commdev-image-keyboard-response,292,686163,learnblock1,57,img/planet11_left.png,11,Community 1,NA,TRUE,f,f,NA,NA,NA,1,6,"7,8,11,14,6,5,2,10,1,4,3,9,13,12,15"
14458,commdev-image-keyboard-response,293,687414,learnblock1,557,img/planet14_right.png,14,Community 1,NA,TRUE,j,j,NA,NA,NA,1,6,"7,8,11,14,6,5,2,10,1,4,3,9,13,12,15"
14458,commdev-image-keyboard-response,294,688666,learnblock1,415,img/planet11_left.png,11,Community 1,NA,FALSE,j,f,NA,NA,NA,1,6,"7,8,11,14,6,5,2,10,1,4,3,9,13,12,15"
14458,commdev-image-keyboard-response,295,689918,learnblock1,410,img/planet8_left.png,8,Community 1,NA,FALSE,j,f,NA,NA,NA,1,6,"7,8,11,14,6,5,2,10,1,4,3,9,13,12,15"
14458,commdev-image-keyboard-response,296,691170,learnblock1,367.9999999998836,img/planet7_right.png,7,Community 1,NA,TRUE,j,j,NA,NA,NA,1,6,"7,8,11,14,6,5,2,10,1,4,3,9,13,12,15"
14458,commdev-image-keyboard-response,297,692421,learnblock1,364,img/planet14_left.png,14,Community 1,NA,FALSE,j,f,NA,NA,NA,1,6,"7,8,11,14,6,5,2,10,1,4,3,9,13,12,15"
14458,commdev-image-keyboard-response,298,693672,learnblock1,328,img/planet7_right.png,7,Community 1,NA,TRUE,j,j,NA,NA,NA,1,6,"7,8,11,14,6,5,2,10,1,4,3,9,13,12,15"
14458,commdev-image-keyboard-response,299,694926,learnblock1,831,img/planet14_left.png,14,Community 1,NA,FALSE,j,f,NA,NA,NA,1,6,"7,8,11,14,6,5,2,10,1,4,3,9,13,12,15"
14458,commdev-image-keyboard-response,300,696177,learnblock1,22,img/planet8_right.png,8,Community 1,NA,FALSE,f,j,NA,NA,NA,1,6,"7,8,11,14,6,5,2,10,1,4,3,9,13,12,15"
14458,commdev-image-keyboard-response,301,697428,learnblock1,null,img/planet11_right.png,11,Community 1,NA,FALSE,null,j,NA,NA,NA,1,6,"7,8,11,14,6,5,2,10,1,4,3,9,13,12,15"
14458,commdev-image-keyboard-response,302,698680,learnblock1,24,img/planet8_right.png,8,Community 1,NA,TRUE,j,j,NA,NA,NA,1,6,"7,8,11,14,6,5,2,10,1,4,3,9,13,12,15"
14458,commdev-image-keyboard-response,303,699932,learnblock1,19,img/planet14_left.png,14,Community 1,NA,FALSE,j,f,NA,NA,NA,1,6,"7,8,11,14,6,5,2,10,1,4,3,9,13,12,15"
14458,commdev-image-keyboard-response,304,701185,learnblock1,179,img/planet8_left.png,8,Community 1,NA,FALSE,j,f,NA,NA,NA,1,6,"7,8,11,14,6,5,2,10,1,4,3,9,13,12,15"
14458,commdev-image-keyboard-response,305,702438,learnblock1,282,img/planet11_right.png,11,Community 1,NA,TRUE,j,j,NA,NA,NA,1,6,"7,8,11,14,6,5,2,10,1,4,3,9,13,12,15"
14458,commdev-image-keyboard-response,306,703690,learnblock1,106,img/planet8_left.png,8,Community 1,NA,FALSE,j,f,NA,NA,NA,1,6,"7,8,11,14,6,5,2,10,1,4,3,9,13,12,15"
14458,commdev-image-keyboard-response,307,704942,learnblock1,411,img/planet6_left.png,6,Community 1,NA,TRUE,f,f,NA,NA,NA,1,6,"7,8,11,14,6,5,2,10,1,4,3,9,13,12,15"
14458,commdev-image-keyboard-response,308,706194,learnblock1,105,img/planet7_right.png,7,Community 1,NA,FALSE,f,j,NA,NA,NA,1,6,"7,8,11,14,6,5,2,10,1,4,3,9,13,12,15"
14458,commdev-image-keyboard-response,309,707445,learnblock1,460,img/planet6_right.png,6,Community 1,NA,TRUE,j,j,NA,NA,NA,1,6,"7,8,11,14,6,5,2,10,1,4,3,9,13,12,15"
14458,commdev-image-keyboard-response,310,708696,learnblock1,16.000000000116415,img/planet8_left.png,8,Community 1,NA,FALSE,j,f,NA,NA,NA,1,6,"7,8,11,14,6,5,2,10,1,4,3,9,13,12,15"
14458,commdev-image-keyboard-response,311,709947,learnblock1,111.00000000011642,img/planet6_right.png,6,Community 1,NA,FALSE,f,j,NA,NA,NA,1,6,"7,8,11,14,6,5,2,10,1,4,3,9,13,12,15"
14458,commdev-image-keyboard-response,312,711198,learnblock1,683,img/planet3_left.png,3,Community 3,NA,FALSE,j,f,NA,NA,NA,1,6,"7,8,11,14,6,5,2,10,1,4,3,9,13,12,15"
14458,commdev-image-keyboard-response,313,712449,learnblock1,440,img/planet13_left.png,13,Community 3,NA,TRUE,f,f,NA,NA,NA,1,6,"7,8,11,14,6,5,2,10,1,4,3,9,13,12,15"
14458,commdev-image-keyboard-response,314,713701,learnblock1,39,img/planet12_left.png,12,Community 3,NA,FALSE,j,f,NA,NA,NA,1,6,"7,8,11,14,6,5,2,10,1,4,3,9,13,12,15"
14458,commdev-image-keyboard-response,315,714953,learnblock1,419,img/planet13_right.png,13,Community 3,NA,FALSE,f,j,NA,NA,NA,1,6,"7,8,11,14,6,5,2,10,1,4,3,9,13,12,15"
14458,commdev-image-keyboard-response,316,716204,learnblock1,109,img/planet3_right.png,3,Community 3,NA,FALSE,f,j,NA,NA,NA,1,6,"7,8,11,14,6,5,2,10,1,4,3,9,13,12,15"
14458,commdev-image-keyboard-response,317,717455,learnblock1,null,img/planet6_right.png,6,Community 1,NA,FALSE,null,j,NA,NA,NA,1,6,"7,8,11,14,6,5,2,10,1,4,3,9,13,12,15"
14458,commdev-image-keyboard-response,318,718707,learnblock1,1172.9999999998836,img/planet3_right.png,3,Community 3,NA,TRUE,j,j,NA,NA,NA,1,6,"7,8,11,14,6,5,2,10,1,4,3,9,13,12,15"
14458,commdev-image-keyboard-response,319,719958,learnblock1,532,img/planet12_right.png,12,Community 3,NA,FALSE,f,j,NA,NA,NA,1,6,"7,8,11,14,6,5,2,10,1,4,3,9,13,12,15"
14458,commdev-image-keyboard-response,320,721209,learnblock1,275,img/planet3_right.png,3,Community 3,NA,FALSE,f,j,NA,NA,NA,1,6,"7,8,11,14,6,5,2,10,1,4,3,9,13,12,15"
14458,commdev-image-keyboard-response,321,722460,learnblock1,88,img/planet12_right.png,12,Community 3,NA,FALSE,f,j,NA,NA,NA,1,6,"7,8,11,14,6,5,2,10,1,4,3,9,13,12,15"
14458,commdev-image-keyboard-response,322,723711,learnblock1,337,img/planet15_left.png,15,Community 3,NA,FALSE,j,f,NA,NA,NA,1,6,"7,8,11,14,6,5,2,10,1,4,3,9,13,12,15"
14458,commdev-image-keyboard-response,323,724962,learnblock1,894.9999999998836,img/planet9_right.png,9,Community 3,NA,FALSE,f,j,NA,NA,NA,1,6,"7,8,11,14,6,5,2,10,1,4,3,9,13,12,15"
14458,commdev-image-keyboard-response,324,726213,learnblock1,108,img/planet15_right.png,15,Community 3,NA,TRUE,j,j,NA,NA,NA,1,6,"7,8,11,14,6,5,2,10,1,4,3,9,13,12,15"
14458,commdev-image-keyboard-response,325,727465,learnblock1,23,img/planet12_right.png,12,Community 3,NA,TRUE,j,j,NA,NA,NA,1,6,"7,8,11,14,6,5,2,10,1,4,3,9,13,12,15"
14458,commdev-image-keyboard-response,326,728717,learnblock1,484.9999999998836,img/planet13_right.png,13,Community 3,NA,FALSE,f,j,NA,NA,NA,1,6,"7,8,11,14,6,5,2,10,1,4,3,9,13,12,15"
14458,commdev-image-keyboard-response,327,729968,learnblock1,396,img/planet3_left.png,3,Community 3,NA,FALSE,j,f,NA,NA,NA,1,6,"7,8,11,14,6,5,2,10,1,4,3,9,13,12,15"
14458,commdev-image-keyboard-response,328,731220,learnblock1,365,img/planet15_left.png,15,Community 3,NA,FALSE,j,f,NA,NA,NA,1,6,"7,8,11,14,6,5,2,10,1,4,3,9,13,12,15"
14458,commdev-image-keyboard-response,329,732471,learnblock1,313.0000000001164,img/planet13_right.png,13,Community 3,NA,TRUE,j,j,NA,NA,NA,1,6,"7,8,11,14,6,5,2,10,1,4,3,9,13,12,15"
14458,commdev-image-keyboard-response,330,733724,learnblock1,136,img/planet12_right.png,12,Community 3,NA,TRUE,j,j,NA,NA,NA,1,6,"7,8,11,14,6,5,2,10,1,4,3,9,13,12,15"
14458,commdev-image-keyboard-response,331,734975,learnblock1,null,img/planet15_right.png,15,Community 3,NA,FALSE,null,j,NA,NA,NA,1,6,"7,8,11,14,6,5,2,10,1,4,3,9,13,12,15"
14458,commdev-image-keyboard-response,332,736226,learnblock1,null,img/planet12_left.png,12,Community 3,NA,FALSE,null,f,NA,NA,NA,1,6,"7,8,11,14,6,5,2,10,1,4,3,9,13,12,15"
14458,commdev-image-keyboard-response,333,737477,learnblock1,null,img/planet9_left.png,9,Community 3,NA,FALSE,null,f,NA,NA,NA,1,6,"7,8,11,14,6,5,2,10,1,4,3,9,13,12,15"
14458,commdev-image-keyboard-response,334,738728,learnblock1,64,img/planet10_right.png,10,Community 2,NA,FALSE,f,j,NA,NA,NA,1,6,"7,8,11,14,6,5,2,10,1,4,3,9,13,12,15"
14458,commdev-image-keyboard-response,335,739979,learnblock1,185.00000000011642,img/planet9_right.png,9,Community 3,NA,FALSE,f,j,NA,NA,NA,1,6,"7,8,11,14,6,5,2,10,1,4,3,9,13,12,15"
14458,commdev-image-keyboard-response,336,741230,learnblock1,280.0000000001164,img/planet10_right.png,10,Community 2,NA,FALSE,f,j,NA,NA,NA,1,6,"7,8,11,14,6,5,2,10,1,4,3,9,13,12,15"
14458,commdev-image-keyboard-response,337,742481,learnblock1,995.9999999998836,img/planet2_right.png,2,Community 2,NA,TRUE,j,j,NA,NA,NA,1,6,"7,8,11,14,6,5,2,10,1,4,3,9,13,12,15"
14458,commdev-image-keyboard-response,338,743732,learnblock1,557.0000000001164,img/planet4_left.png,4,Community 2,NA,TRUE,f,f,NA,NA,NA,1,6,"7,8,11,14,6,5,2,10,1,4,3,9,13,12,15"
14458,commdev-image-keyboard-response,339,744983,learnblock1,369,img/planet10_right.png,10,Community 2,NA,TRUE,j,j,NA,NA,NA,1,6,"7,8,11,14,6,5,2,10,1,4,3,9,13,12,15"
14458,commdev-image-keyboard-response,340,746236,learnblock1,76,img/planet4_right.png,4,Community 2,NA,FALSE,f,j,NA,NA,NA,1,6,"7,8,11,14,6,5,2,10,1,4,3,9,13,12,15"
14458,commdev-image-keyboard-response,341,747488,learnblock1,906,img/planet2_left.png,2,Community 2,NA,TRUE,f,f,NA,NA,NA,1,6,"7,8,11,14,6,5,2,10,1,4,3,9,13,12,15"
14458,commdev-image-keyboard-response,342,748741,learnblock1,786,img/planet5_left.png,5,Community 2,NA,FALSE,j,f,NA,NA,NA,1,6,"7,8,11,14,6,5,2,10,1,4,3,9,13,12,15"
14458,commdev-image-keyboard-response,343,749993,learnblock1,null,img/planet1_left.png,1,Community 2,NA,FALSE,null,f,NA,NA,NA,1,6,"7,8,11,14,6,5,2,10,1,4,3,9,13,12,15"
14458,commdev-image-keyboard-response,344,751244,learnblock1,null,img/planet5_right.png,5,Community 2,NA,FALSE,null,j,NA,NA,NA,1,6,"7,8,11,14,6,5,2,10,1,4,3,9,13,12,15"
14458,commdev-image-keyboard-response,345,752495,learnblock1,null,img/planet14_left.png,14,Community 1,NA,FALSE,null,f,NA,NA,NA,1,6,"7,8,11,14,6,5,2,10,1,4,3,9,13,12,15"
14458,commdev-image-keyboard-response,346,753747,learnblock1,null,img/planet7_right.png,7,Community 1,NA,FALSE,null,j,NA,NA,NA,1,6,"7,8,11,14,6,5,2,10,1,4,3,9,13,12,15"
14458,commdev-image-keyboard-response,347,754999,learnblock1,1020,img/planet8_left.png,8,Community 1,NA,FALSE,j,f,NA,NA,NA,1,6,"7,8,11,14,6,5,2,10,1,4,3,9,13,12,15"
14458,commdev-image-keyboard-response,351,909398,learnblock2,920,img/planet15_right.png,15,Community 3,NA,FALSE,f,j,NA,NA,NA,1,6,"7,8,11,14,6,5,2,10,1,4,3,9,13,12,15"
14458,commdev-image-keyboard-response,352,910649,learnblock2,134,img/planet13_left.png,13,Community 3,NA,FALSE,j,f,NA,NA,NA,1,6,"7,8,11,14,6,5,2,10,1,4,3,9,13,12,15"
14458,commdev-image-keyboard-response,353,911901,learnblock2,1067,img/planet3_left.png,3,Community 3,NA,FALSE,j,f,NA,NA,NA,1,6,"7,8,11,14,6,5,2,10,1,4,3,9,13,12,15"
14458,commdev-image-keyboard-response,354,913153,learnblock2,905,img/planet6_right.png,6,Community 1,NA,FALSE,f,j,NA,NA,NA,1,6,"7,8,11,14,6,5,2,10,1,4,3,9,13,12,15"
14458,commdev-image-keyboard-response,355,914404,learnblock2,1026.0000000001164,img/planet8_left.png,8,Community 1,NA,FALSE,j,f,NA,NA,NA,1,6,"7,8,11,14,6,5,2,10,1,4,3,9,13,12,15"
14458,commdev-image-keyboard-response,356,915655,learnblock2,799.0000000001164,img/planet6_right.png,6,Community 1,NA,TRUE,j,j,NA,NA,NA,1,6,"7,8,11,14,6,5,2,10,1,4,3,9,13,12,15"
14458,commdev-image-keyboard-response,357,916906,learnblock2,993.9999999998836,img/planet11_left.png,11,Community 1,NA,TRUE,f,f,NA,NA,NA,1,6,"7,8,11,14,6,5,2,10,1,4,3,9,13,12,15"
14458,commdev-image-keyboard-response,358,918157,learnblock2,721,img/planet14_right.png,14,Community 1,NA,TRUE,j,j,NA,NA,NA,1,6,"7,8,11,14,6,5,2,10,1,4,3,9,13,12,15"
14458,commdev-image-keyboard-response,359,919408,learnblock2,675,img/planet5_right.png,5,Community 2,NA,FALSE,f,j,NA,NA,NA,1,6,"7,8,11,14,6,5,2,10,1,4,3,9,13,12,15"
14458,commdev-image-keyboard-response,360,920660,learnblock2,803,img/planet2_left.png,2,Community 2,NA,TRUE,f,f,NA,NA,NA,1,6,"7,8,11,14,6,5,2,10,1,4,3,9,13,12,15"
14458,commdev-image-keyboard-response,361,921912,learnblock2,587.9999999998836,img/planet10_right.png,10,Community 2,NA,TRUE,j,j,NA,NA,NA,1,6,"7,8,11,14,6,5,2,10,1,4,3,9,13,12,15"
14458,commdev-image-keyboard-response,362,923163,learnblock2,819,img/planet9_left.png,9,Community 3,NA,TRUE,f,f,NA,NA,NA,1,6,"7,8,11,14,6,5,2,10,1,4,3,9,13,12,15"
14458,commdev-image-keyboard-response,363,924415,learnblock2,685,img/planet12_right.png,12,Community 3,NA,TRUE,j,j,NA,NA,NA,1,6,"7,8,11,14,6,5,2,10,1,4,3,9,13,12,15"
14458,commdev-image-keyboard-response,364,925666,learnblock2,874,img/planet9_left.png,9,Community 3,NA,TRUE,f,f,NA,NA,NA,1,6,"7,8,11,14,6,5,2,10,1,4,3,9,13,12,15"
14458,commdev-image-keyboard-response,365,926917,learnblock2,1016,img/planet13_left.png,13,Community 3,NA,TRUE,f,f,NA,NA,NA,1,6,"7,8,11,14,6,5,2,10,1,4,3,9,13,12,15"
14458,commdev-image-keyboard-response,366,928169,learnblock2,927,img/planet3_left.png,3,Community 3,NA,TRUE,f,f,NA,NA,NA,1,6,"7,8,11,14,6,5,2,10,1,4,3,9,13,12,15"
14458,commdev-image-keyboard-response,367,929421,learnblock2,764.0000000001164,img/planet13_right.png,13,Community 3,NA,TRUE,j,j,NA,NA,NA,1,6,"7,8,11,14,6,5,2,10,1,4,3,9,13,12,15"
14458,commdev-image-keyboard-response,368,930674,learnblock2,831,img/planet9_left.png,9,Community 3,NA,TRUE,f,f,NA,NA,NA,1,6,"7,8,11,14,6,5,2,10,1,4,3,9,13,12,15"
14458,commdev-image-keyboard-response,369,931926,learnblock2,935.9999999998836,img/planet15_left.png,15,Community 3,NA,TRUE,f,f,NA,NA,NA,1,6,"7,8,11,14,6,5,2,10,1,4,3,9,13,12,15"
14458,commdev-image-keyboard-response,370,933177,learnblock2,1148,img/planet3_left.png,3,Community 3,NA,TRUE,f,f,NA,NA,NA,1,6,"7,8,11,14,6,5,2,10,1,4,3,9,13,12,15"
14458,commdev-image-keyboard-response,371,934428,learnblock2,907,img/planet6_right.png,6,Community 1,NA,TRUE,j,j,NA,NA,NA,1,6,"7,8,11,14,6,5,2,10,1,4,3,9,13,12,15"
14458,commdev-image-keyboard-response,372,935680,learnblock2,942,img/planet7_left.png,7,Community 1,NA,TRUE,f,f,NA,NA,NA,1,6,"7,8,11,14,6,5,2,10,1,4,3,9,13,12,15"
14458,commdev-image-keyboard-response,373,936932,learnblock2,969,img/planet14_right.png,14,Community 1,NA,TRUE,j,j,NA,NA,NA,1,6,"7,8,11,14,6,5,2,10,1,4,3,9,13,12,15"
14458,commdev-image-keyboard-response,374,938183,learnblock2,896,img/planet11_right.png,11,Community 1,NA,TRUE,j,j,NA,NA,NA,1,6,"7,8,11,14,6,5,2,10,1,4,3,9,13,12,15"
14458,commdev-image-keyboard-response,375,939435,learnblock2,817,img/planet7_left.png,7,Community 1,NA,TRUE,f,f,NA,NA,NA,1,6,"7,8,11,14,6,5,2,10,1,4,3,9,13,12,15"
14458,commdev-image-keyboard-response,376,940687,learnblock2,1198,img/planet8_left.png,8,Community 1,NA,TRUE,f,f,NA,NA,NA,1,6,"7,8,11,14,6,5,2,10,1,4,3,9,13,12,15"
14458,commdev-image-keyboard-response,377,941939,learnblock2,891.0000000001164,img/planet11_right.png,11,Community 1,NA,TRUE,j,j,NA,NA,NA,1,6,"7,8,11,14,6,5,2,10,1,4,3,9,13,12,15"
14458,commdev-image-keyboard-response,378,943192,learnblock2,947,img/planet6_right.png,6,Community 1,NA,TRUE,j,j,NA,NA,NA,1,6,"7,8,11,14,6,5,2,10,1,4,3,9,13,12,15"
14458,commdev-image-keyboard-response,379,944444,learnblock2,853,img/planet11_left.png,11,Community 1,NA,TRUE,f,f,NA,NA,NA,1,6,"7,8,11,14,6,5,2,10,1,4,3,9,13,12,15"
14458,commdev-image-keyboard-response,380,945695,learnblock2,825,img/planet6_right.png,6,Community 1,NA,TRUE,j,j,NA,NA,NA,1,6,"7,8,11,14,6,5,2,10,1,4,3,9,13,12,15"
14458,commdev-image-keyboard-response,381,946946,learnblock2,753,img/planet11_left.png,11,Community 1,NA,TRUE,f,f,NA,NA,NA,1,6,"7,8,11,14,6,5,2,10,1,4,3,9,13,12,15"
14458,commdev-image-keyboard-response,382,948197,learnblock2,643,img/planet7_right.png,7,Community 1,NA,TRUE,j,j,NA,NA,NA,1,6,"7,8,11,14,6,5,2,10,1,4,3,9,13,12,15"
14458,commdev-image-keyboard-response,383,949448,learnblock2,747.9999999998836,img/planet11_left.png,11,Community 1,NA,TRUE,f,f,NA,NA,NA,1,6,"7,8,11,14,6,5,2,10,1,4,3,9,13,12,15"
14458,commdev-image-keyboard-response,384,950699,learnblock2,901,img/planet8_left.png,8,Community 1,NA,FALSE,j,f,NA,NA,NA,1,6,"7,8,11,14,6,5,2,10,1,4,3,9,13,12,15"
14458,commdev-image-keyboard-response,385,951950,learnblock2,1191,img/planet6_right.png,6,Community 1,NA,TRUE,j,j,NA,NA,NA,1,6,"7,8,11,14,6,5,2,10,1,4,3,9,13,12,15"
14458,commdev-image-keyboard-response,386,953201,learnblock2,715,img/planet3_left.png,3,Community 3,NA,TRUE,f,f,NA,NA,NA,1,6,"7,8,11,14,6,5,2,10,1,4,3,9,13,12,15"
14458,commdev-image-keyboard-response,387,954452,learnblock2,732.0000000001164,img/planet12_right.png,12,Community 3,NA,TRUE,j,j,NA,NA,NA,1,6,"7,8,11,14,6,5,2,10,1,4,3,9,13,12,15"
14458,commdev-image-keyboard-response,388,955703,learnblock2,892.9999999998836,img/planet13_right.png,13,Community 3,NA,TRUE,j,j,NA,NA,NA,1,6,"7,8,11,14,6,5,2,10,1,4,3,9,13,12,15"
14458,commdev-image-keyboard-response,389,956953,learnblock2,902,img/planet15_right.png,15,Community 3,NA,TRUE,j,j,NA,NA,NA,1,6,"7,8,11,14,6,5,2,10,1,4,3,9,13,12,15"
14458,commdev-image-keyboard-response,390,958204,learnblock2,744,img/planet9_left.png,9,Community 3,NA,TRUE,f,f,NA,NA,NA,1,6,"7,8,11,14,6,5,2,10,1,4,3,9,13,12,15"
14458,commdev-image-keyboard-response,391,959455,learnblock2,672,img/planet15_right.png,15,Community 3,NA,TRUE,j,j,NA,NA,NA,1,6,"7,8,11,14,6,5,2,10,1,4,3,9,13,12,15"
14458,commdev-image-keyboard-response,392,960706,learnblock2,865,img/planet13_left.png,13,Community 3,NA,TRUE,f,f,NA,NA,NA,1,6,"7,8,11,14,6,5,2,10,1,4,3,9,13,12,15"
14458,commdev-image-keyboard-response,393,961957,learnblock2,678,img/planet15_right.png,15,Community 3,NA,TRUE,j,j,NA,NA,NA,1,6,"7,8,11,14,6,5,2,10,1,4,3,9,13,12,15"
14458,commdev-image-keyboard-response,394,963208,learnblock2,1034.9999999998836,img/planet13_right.png,13,Community 3,NA,FALSE,f,j,NA,NA,NA,1,6,"7,8,11,14,6,5,2,10,1,4,3,9,13,12,15"
14458,commdev-image-keyboard-response,395,964461,learnblock2,1218.0000000001164,img/planet3_right.png,3,Community 3,NA,TRUE,j,j,NA,NA,NA,1,6,"7,8,11,14,6,5,2,10,1,4,3,9,13,12,15"
14458,commdev-image-keyboard-response,396,965713,learnblock2,null,img/planet12_right.png,12,Community 3,NA,FALSE,null,j,NA,NA,NA,1,6,"7,8,11,14,6,5,2,10,1,4,3,9,13,12,15"
14458,commdev-image-keyboard-response,397,966964,learnblock2,106,img/planet15_right.png,15,Community 3,NA,TRUE,j,j,NA,NA,NA,1,6,"7,8,11,14,6,5,2,10,1,4,3,9,13,12,15"
14458,commdev-image-keyboard-response,398,968215,learnblock2,895,img/planet3_right.png,3,Community 3,NA,TRUE,j,j,NA,NA,NA,1,6,"7,8,11,14,6,5,2,10,1,4,3,9,13,12,15"
14458,commdev-image-keyboard-response,399,969466,learnblock2,698,img/planet13_left.png,13,Community 3,NA,TRUE,f,f,NA,NA,NA,1,6,"7,8,11,14,6,5,2,10,1,4,3,9,13,12,15"
14458,commdev-image-keyboard-response,400,970718,learnblock2,846,img/planet15_left.png,15,Community 3,NA,TRUE,f,f,NA,NA,NA,1,6,"7,8,11,14,6,5,2,10,1,4,3,9,13,12,15"
14458,commdev-image-keyboard-response,401,971970,learnblock2,712,img/planet3_right.png,3,Community 3,NA,FALSE,f,j,NA,NA,NA,1,6,"7,8,11,14,6,5,2,10,1,4,3,9,13,12,15"
14458,commdev-image-keyboard-response,402,973221,learnblock2,939.9999999998836,img/planet12_right.png,12,Community 3,NA,TRUE,j,j,NA,NA,NA,1,6,"7,8,11,14,6,5,2,10,1,4,3,9,13,12,15"
14458,commdev-image-keyboard-response,403,974473,learnblock2,1124.0000000001164,img/planet9_right.png,9,Community 3,NA,TRUE,j,j,NA,NA,NA,1,6,"7,8,11,14,6,5,2,10,1,4,3,9,13,12,15"
14458,commdev-image-keyboard-response,404,975726,learnblock2,851,img/planet10_right.png,10,Community 2,NA,TRUE,j,j,NA,NA,NA,1,6,"7,8,11,14,6,5,2,10,1,4,3,9,13,12,15"
14458,commdev-image-keyboard-response,405,976977,learnblock2,852.9999999998836,img/planet1_right.png,1,Community 2,NA,TRUE,j,j,NA,NA,NA,1,6,"7,8,11,14,6,5,2,10,1,4,3,9,13,12,15"
14458,commdev-image-keyboard-response,406,978228,learnblock2,711,img/planet10_right.png,10,Community 2,NA,TRUE,j,j,NA,NA,NA,1,6,"7,8,11,14,6,5,2,10,1,4,3,9,13,12,15"
14458,commdev-image-keyboard-response,407,979479,learnblock2,894,img/planet4_right.png,4,Community 2,NA,TRUE,j,j,NA,NA,NA,1,6,"7,8,11,14,6,5,2,10,1,4,3,9,13,12,15"
14458,commdev-image-keyboard-response,408,980730,learnblock2,669.0000000001164,img/planet2_right.png,2,Community 2,NA,TRUE,j,j,NA,NA,NA,1,6,"7,8,11,14,6,5,2,10,1,4,3,9,13,12,15"
14458,commdev-image-keyboard-response,409,981982,learnblock2,645.9999999998836,img/planet10_left.png,10,Community 2,NA,TRUE,f,f,NA,NA,NA,1,6,"7,8,11,14,6,5,2,10,1,4,3,9,13,12,15"
14458,commdev-image-keyboard-response,410,983234,learnblock2,1018,img/planet9_left.png,9,Community 3,NA,TRUE,f,f,NA,NA,NA,1,6,"7,8,11,14,6,5,2,10,1,4,3,9,13,12,15"
14458,commdev-image-keyboard-response,411,984485,learnblock2,962.0000000001164,img/planet12_left.png,12,Community 3,NA,TRUE,f,f,NA,NA,NA,1,6,"7,8,11,14,6,5,2,10,1,4,3,9,13,12,15"
14458,commdev-image-keyboard-response,412,985736,learnblock2,906,img/planet15_right.png,15,Community 3,NA,TRUE,j,j,NA,NA,NA,1,6,"7,8,11,14,6,5,2,10,1,4,3,9,13,12,15"
14458,commdev-image-keyboard-response,413,986987,learnblock2,785,img/planet9_right.png,9,Community 3,NA,TRUE,j,j,NA,NA,NA,1,6,"7,8,11,14,6,5,2,10,1,4,3,9,13,12,15"
14458,commdev-image-keyboard-response,414,988238,learnblock2,778,img/planet10_left.png,10,Community 2,NA,TRUE,f,f,NA,NA,NA,1,6,"7,8,11,14,6,5,2,10,1,4,3,9,13,12,15"
14458,commdev-image-keyboard-response,415,989489,learnblock2,746.9999999998836,img/planet9_right.png,9,Community 3,NA,TRUE,j,j,NA,NA,NA,1,6,"7,8,11,14,6,5,2,10,1,4,3,9,13,12,15"
14458,commdev-image-keyboard-response,416,990741,learnblock2,766,img/planet10_right.png,10,Community 2,NA,FALSE,f,j,NA,NA,NA,1,6,"7,8,11,14,6,5,2,10,1,4,3,9,13,12,15"
14458,commdev-image-keyboard-response,417,991993,learnblock2,688,img/planet1_right.png,1,Community 2,NA,TRUE,j,j,NA,NA,NA,1,6,"7,8,11,14,6,5,2,10,1,4,3,9,13,12,15"
14458,commdev-image-keyboard-response,418,993245,learnblock2,608,img/planet4_right.png,4,Community 2,NA,TRUE,j,j,NA,NA,NA,1,6,"7,8,11,14,6,5,2,10,1,4,3,9,13,12,15"
14458,commdev-image-keyboard-response,419,994496,learnblock2,822,img/planet5_right.png,5,Community 2,NA,TRUE,j,j,NA,NA,NA,1,6,"7,8,11,14,6,5,2,10,1,4,3,9,13,12,15"
14458,commdev-image-keyboard-response,420,995747,learnblock2,726,img/planet4_left.png,4,Community 2,NA,TRUE,f,f,NA,NA,NA,1,6,"7,8,11,14,6,5,2,10,1,4,3,9,13,12,15"
14458,commdev-image-keyboard-response,421,996998,learnblock2,603.0000000001164,img/planet2_right.png,2,Community 2,NA,TRUE,j,j,NA,NA,NA,1,6,"7,8,11,14,6,5,2,10,1,4,3,9,13,12,15"
14458,commdev-image-keyboard-response,422,998251,learnblock2,606,img/planet10_left.png,10,Community 2,NA,TRUE,f,f,NA,NA,NA,1,6,"7,8,11,14,6,5,2,10,1,4,3,9,13,12,15"
14458,commdev-image-keyboard-response,423,999502,learnblock2,572,img/planet4_right.png,4,Community 2,NA,TRUE,j,j,NA,NA,NA,1,6,"7,8,11,14,6,5,2,10,1,4,3,9,13,12,15"
14458,commdev-image-keyboard-response,424,1000754,learnblock2,831,img/planet1_right.png,1,Community 2,NA,TRUE,j,j,NA,NA,NA,1,6,"7,8,11,14,6,5,2,10,1,4,3,9,13,12,15"
14458,commdev-image-keyboard-response,425,1002007,learnblock2,897,img/planet10_right.png,10,Community 2,NA,TRUE,j,j,NA,NA,NA,1,6,"7,8,11,14,6,5,2,10,1,4,3,9,13,12,15"
14458,commdev-image-keyboard-response,426,1003258,learnblock2,739,img/planet9_left.png,9,Community 3,NA,TRUE,f,f,NA,NA,NA,1,6,"7,8,11,14,6,5,2,10,1,4,3,9,13,12,15"
14458,commdev-image-keyboard-response,427,1004509,learnblock2,746,img/planet15_right.png,15,Community 3,NA,TRUE,j,j,NA,NA,NA,1,6,"7,8,11,14,6,5,2,10,1,4,3,9,13,12,15"
14458,commdev-image-keyboard-response,428,1005760,learnblock2,1083,img/planet12_right.png,12,Community 3,NA,TRUE,j,j,NA,NA,NA,1,6,"7,8,11,14,6,5,2,10,1,4,3,9,13,12,15"
14458,commdev-image-keyboard-response,429,1007011,learnblock2,745,img/planet9_left.png,9,Community 3,NA,TRUE,f,f,NA,NA,NA,1,6,"7,8,11,14,6,5,2,10,1,4,3,9,13,12,15"
14458,commdev-image-keyboard-response,430,1008262,learnblock2,917,img/planet10_left.png,10,Community 2,NA,TRUE,f,f,NA,NA,NA,1,6,"7,8,11,14,6,5,2,10,1,4,3,9,13,12,15"
14458,commdev-image-keyboard-response,431,1009514,learnblock2,602.9999999998836,img/planet2_right.png,2,Community 2,NA,TRUE,j,j,NA,NA,NA,1,6,"7,8,11,14,6,5,2,10,1,4,3,9,13,12,15"
14458,commdev-image-keyboard-response,432,1010766,learnblock2,859.0000000001164,img/planet4_right.png,4,Community 2,NA,TRUE,j,j,NA,NA,NA,1,6,"7,8,11,14,6,5,2,10,1,4,3,9,13,12,15"
14458,commdev-image-keyboard-response,433,1012018,learnblock2,1025.0000000001164,img/planet1_right.png,1,Community 2,NA,TRUE,j,j,NA,NA,NA,1,6,"7,8,11,14,6,5,2,10,1,4,3,9,13,12,15"
14458,commdev-image-keyboard-response,434,1013269,learnblock2,846,img/planet2_right.png,2,Community 2,NA,TRUE,j,j,NA,NA,NA,1,6,"7,8,11,14,6,5,2,10,1,4,3,9,13,12,15"
14458,commdev-image-keyboard-response,435,1014519,learnblock2,762,img/planet10_right.png,10,Community 2,NA,TRUE,j,j,NA,NA,NA,1,6,"7,8,11,14,6,5,2,10,1,4,3,9,13,12,15"
14458,commdev-image-keyboard-response,436,1015770,learnblock2,946,img/planet1_right.png,1,Community 2,NA,TRUE,j,j,NA,NA,NA,1,6,"7,8,11,14,6,5,2,10,1,4,3,9,13,12,15"
14458,commdev-image-keyboard-response,437,1017021,learnblock2,912,img/planet4_left.png,4,Community 2,NA,FALSE,j,f,NA,NA,NA,1,6,"7,8,11,14,6,5,2,10,1,4,3,9,13,12,15"
14458,commdev-image-keyboard-response,438,1018272,learnblock2,942,img/planet2_left.png,2,Community 2,NA,TRUE,f,f,NA,NA,NA,1,6,"7,8,11,14,6,5,2,10,1,4,3,9,13,12,15"
14458,commdev-image-keyboard-response,439,1019523,learnblock2,796,img/planet1_left.png,1,Community 2,NA,TRUE,f,f,NA,NA,NA,1,6,"7,8,11,14,6,5,2,10,1,4,3,9,13,12,15"
14458,commdev-image-keyboard-response,440,1020776,learnblock2,666.9999999998836,img/planet2_right.png,2,Community 2,NA,TRUE,j,j,NA,NA,NA,1,6,"7,8,11,14,6,5,2,10,1,4,3,9,13,12,15"
14458,commdev-image-keyboard-response,441,1022028,learnblock2,572.9999999997672,img/planet10_left.png,10,Community 2,NA,TRUE,f,f,NA,NA,NA,1,6,"7,8,11,14,6,5,2,10,1,4,3,9,13,12,15"
14458,commdev-image-keyboard-response,442,1023279,learnblock2,896,img/planet2_left.png,2,Community 2,NA,TRUE,f,f,NA,NA,NA,1,6,"7,8,11,14,6,5,2,10,1,4,3,9,13,12,15"
14458,commdev-image-keyboard-response,443,1024530,learnblock2,1055.0000000001164,img/planet1_left.png,1,Community 2,NA,TRUE,f,f,NA,NA,NA,1,6,"7,8,11,14,6,5,2,10,1,4,3,9,13,12,15"
14458,commdev-image-keyboard-response,444,1025781,learnblock2,884,img/planet2_left.png,2,Community 2,NA,TRUE,f,f,NA,NA,NA,1,6,"7,8,11,14,6,5,2,10,1,4,3,9,13,12,15"
14458,commdev-image-keyboard-response,445,1027034,learnblock2,638.0000000001164,img/planet1_right.png,1,Community 2,NA,TRUE,j,j,NA,NA,NA,1,6,"7,8,11,14,6,5,2,10,1,4,3,9,13,12,15"
14458,commdev-image-keyboard-response,446,1028286,learnblock2,617.9999999998836,img/planet2_right.png,2,Community 2,NA,TRUE,j,j,NA,NA,NA,1,6,"7,8,11,14,6,5,2,10,1,4,3,9,13,12,15"
14458,commdev-image-keyboard-response,447,1029538,learnblock2,723.9999999998836,img/planet4_left.png,4,Community 2,NA,TRUE,f,f,NA,NA,NA,1,6,"7,8,11,14,6,5,2,10,1,4,3,9,13,12,15"
14458,commdev-image-keyboard-response,448,1030790,learnblock2,927.9999999998836,img/planet5_left.png,5,Community 2,NA,TRUE,f,f,NA,NA,NA,1,6,"7,8,11,14,6,5,2,10,1,4,3,9,13,12,15"
14458,commdev-image-keyboard-response,449,1032041,learnblock2,895,img/planet1_left.png,1,Community 2,NA,TRUE,f,f,NA,NA,NA,1,6,"7,8,11,14,6,5,2,10,1,4,3,9,13,12,15"
14458,commdev-image-keyboard-response,450,1033292,learnblock2,904,img/planet4_left.png,4,Community 2,NA,TRUE,f,f,NA,NA,NA,1,6,"7,8,11,14,6,5,2,10,1,4,3,9,13,12,15"
14458,commdev-image-keyboard-response,451,1034543,learnblock2,1137.0000000002328,img/planet5_left.png,5,Community 2,NA,TRUE,f,f,NA,NA,NA,1,6,"7,8,11,14,6,5,2,10,1,4,3,9,13,12,15"
14458,commdev-image-keyboard-response,452,1035794,learnblock2,858.9999999998836,img/planet4_right.png,4,Community 2,NA,TRUE,j,j,NA,NA,NA,1,6,"7,8,11,14,6,5,2,10,1,4,3,9,13,12,15"
14458,commdev-image-keyboard-response,453,1037046,learnblock2,689.9999999997672,img/planet10_right.png,10,Community 2,NA,TRUE,j,j,NA,NA,NA,1,6,"7,8,11,14,6,5,2,10,1,4,3,9,13,12,15"
14458,commdev-image-keyboard-response,454,1038299,learnblock2,830,img/planet1_left.png,1,Community 2,NA,FALSE,j,f,NA,NA,NA,1,6,"7,8,11,14,6,5,2,10,1,4,3,9,13,12,15"
14458,commdev-image-keyboard-response,455,1039550,learnblock2,1202,img/planet5_left.png,5,Community 2,NA,TRUE,f,f,NA,NA,NA,1,6,"7,8,11,14,6,5,2,10,1,4,3,9,13,12,15"
14458,commdev-image-keyboard-response,456,1040801,learnblock2,641,img/planet2_right.png,2,Community 2,NA,TRUE,j,j,NA,NA,NA,1,6,"7,8,11,14,6,5,2,10,1,4,3,9,13,12,15"
14458,commdev-image-keyboard-response,457,1042052,learnblock2,605.0000000001164,img/planet10_right.png,10,Community 2,NA,TRUE,j,j,NA,NA,NA,1,6,"7,8,11,14,6,5,2,10,1,4,3,9,13,12,15"
14458,commdev-image-keyboard-response,458,1043303,learnblock2,918.9999999997672,img/planet2_right.png,2,Community 2,NA,TRUE,j,j,NA,NA,NA,1,6,"7,8,11,14,6,5,2,10,1,4,3,9,13,12,15"
14458,commdev-image-keyboard-response,459,1044554,learnblock2,772,img/planet4_left.png,4,Community 2,NA,TRUE,f,f,NA,NA,NA,1,6,"7,8,11,14,6,5,2,10,1,4,3,9,13,12,15"
14458,commdev-image-keyboard-response,460,1045805,learnblock2,627,img/planet10_right.png,10,Community 2,NA,TRUE,j,j,NA,NA,NA,1,6,"7,8,11,14,6,5,2,10,1,4,3,9,13,12,15"
14458,commdev-image-keyboard-response,461,1047056,learnblock2,683,img/planet1_right.png,1,Community 2,NA,FALSE,f,j,NA,NA,NA,1,6,"7,8,11,14,6,5,2,10,1,4,3,9,13,12,15"
14458,commdev-image-keyboard-response,462,1048306,learnblock2,290,img/planet10_left.png,10,Community 2,NA,FALSE,j,f,NA,NA,NA,1,6,"7,8,11,14,6,5,2,10,1,4,3,9,13,12,15"
14458,commdev-image-keyboard-response,463,1049557,learnblock2,24.00000000023283,img/planet2_left.png,2,Community 2,NA,FALSE,j,f,NA,NA,NA,1,6,"7,8,11,14,6,5,2,10,1,4,3,9,13,12,15"
14458,commdev-image-keyboard-response,464,1050808,learnblock2,62,img/planet10_right.png,10,Community 2,NA,FALSE,f,j,NA,NA,NA,1,6,"7,8,11,14,6,5,2,10,1,4,3,9,13,12,15"
14458,commdev-image-keyboard-response,465,1052059,learnblock2,null,img/planet9_left.png,9,Community 3,NA,FALSE,null,f,NA,NA,NA,1,6,"7,8,11,14,6,5,2,10,1,4,3,9,13,12,15"
14458,commdev-image-keyboard-response,466,1053310,learnblock2,null,img/planet15_left.png,15,Community 3,NA,FALSE,null,f,NA,NA,NA,1,6,"7,8,11,14,6,5,2,10,1,4,3,9,13,12,15"
14458,commdev-image-keyboard-response,467,1054561,learnblock2,null,img/planet13_left.png,13,Community 3,NA,FALSE,null,f,NA,NA,NA,1,6,"7,8,11,14,6,5,2,10,1,4,3,9,13,12,15"
14458,commdev-image-keyboard-response,468,1055812,learnblock2,252,img/planet3_left.png,3,Community 3,NA,TRUE,f,f,NA,NA,NA,1,6,"7,8,11,14,6,5,2,10,1,4,3,9,13,12,15"
14458,commdev-image-keyboard-response,469,1057063,learnblock2,997.9999999997672,img/planet12_right.png,12,Community 3,NA,FALSE,f,j,NA,NA,NA,1,6,"7,8,11,14,6,5,2,10,1,4,3,9,13,12,15"
14458,commdev-image-keyboard-response,470,1058314,learnblock2,919,img/planet9_left.png,9,Community 3,NA,TRUE,f,f,NA,NA,NA,1,6,"7,8,11,14,6,5,2,10,1,4,3,9,13,12,15"
14458,commdev-image-keyboard-response,471,1059565,learnblock2,725,img/planet10_left.png,10,Community 2,NA,FALSE,j,f,NA,NA,NA,1,6,"7,8,11,14,6,5,2,10,1,4,3,9,13,12,15"
14458,commdev-image-keyboard-response,472,1060819,learnblock2,543.0000000002328,img/planet1_right.png,1,Community 2,NA,TRUE,j,j,NA,NA,NA,1,6,"7,8,11,14,6,5,2,10,1,4,3,9,13,12,15"
14458,commdev-image-keyboard-response,473,1062071,learnblock2,413,img/planet4_right.png,4,Community 2,NA,TRUE,j,j,NA,NA,NA,1,6,"7,8,11,14,6,5,2,10,1,4,3,9,13,12,15"
14458,commdev-image-keyboard-response,474,1063323,learnblock2,250,img/planet1_left.png,1,Community 2,NA,FALSE,j,f,NA,NA,NA,1,6,"7,8,11,14,6,5,2,10,1,4,3,9,13,12,15"
14458,commdev-image-keyboard-response,475,1064574,learnblock2,73,img/planet10_right.png,10,Community 2,NA,FALSE,f,j,NA,NA,NA,1,6,"7,8,11,14,6,5,2,10,1,4,3,9,13,12,15"
14458,commdev-image-keyboard-response,476,1065827,learnblock2,900,img/planet2_right.png,2,Community 2,NA,FALSE,f,j,NA,NA,NA,1,6,"7,8,11,14,6,5,2,10,1,4,3,9,13,12,15"
14458,commdev-image-keyboard-response,477,1067079,learnblock2,805,img/planet10_right.png,10,Community 2,NA,FALSE,f,j,NA,NA,NA,1,6,"7,8,11,14,6,5,2,10,1,4,3,9,13,12,15"
14458,commdev-image-keyboard-response,478,1068330,learnblock2,640,img/planet4_left.png,4,Community 2,NA,FALSE,j,f,NA,NA,NA,1,6,"7,8,11,14,6,5,2,10,1,4,3,9,13,12,15"
14458,commdev-image-keyboard-response,479,1069581,learnblock2,583.9999999997672,img/planet10_left.png,10,Community 2,NA,FALSE,j,f,NA,NA,NA,1,6,"7,8,11,14,6,5,2,10,1,4,3,9,13,12,15"
14458,commdev-image-keyboard-response,480,1070833,learnblock2,630,img/planet1_left.png,1,Community 2,NA,FALSE,j,f,NA,NA,NA,1,6,"7,8,11,14,6,5,2,10,1,4,3,9,13,12,15"
14458,commdev-image-keyboard-response,481,1072086,learnblock2,533,img/planet2_right.png,2,Community 2,NA,FALSE,f,j,NA,NA,NA,1,6,"7,8,11,14,6,5,2,10,1,4,3,9,13,12,15"
14458,commdev-image-keyboard-response,482,1073337,learnblock2,1085,img/planet10_right.png,10,Community 2,NA,FALSE,f,j,NA,NA,NA,1,6,"7,8,11,14,6,5,2,10,1,4,3,9,13,12,15"
14458,commdev-image-keyboard-response,483,1074588,learnblock2,1119,img/planet4_right.png,4,Community 2,NA,FALSE,f,j,NA,NA,NA,1,6,"7,8,11,14,6,5,2,10,1,4,3,9,13,12,15"
14458,commdev-image-keyboard-response,484,1075839,learnblock2,1011.0000000002328,img/planet1_left.png,1,Community 2,NA,FALSE,j,f,NA,NA,NA,1,6,"7,8,11,14,6,5,2,10,1,4,3,9,13,12,15"
14458,commdev-image-keyboard-response,485,1077090,learnblock2,null,img/planet2_right.png,2,Community 2,NA,FALSE,null,j,NA,NA,NA,1,6,"7,8,11,14,6,5,2,10,1,4,3,9,13,12,15"
14458,commdev-image-keyboard-response,486,1078343,learnblock2,381,img/planet4_left.png,4,Community 2,NA,FALSE,j,f,NA,NA,NA,1,6,"7,8,11,14,6,5,2,10,1,4,3,9,13,12,15"
14458,commdev-image-keyboard-response,487,1079594,learnblock2,419,img/planet2_right.png,2,Community 2,NA,TRUE,j,j,NA,NA,NA,1,6,"7,8,11,14,6,5,2,10,1,4,3,9,13,12,15"
14458,commdev-image-keyboard-response,488,1080845,learnblock2,315,img/planet4_right.png,4,Community 2,NA,TRUE,j,j,NA,NA,NA,1,6,"7,8,11,14,6,5,2,10,1,4,3,9,13,12,15"
14458,commdev-image-keyboard-response,489,1082097,learnblock2,293.00000000023283,img/planet2_left.png,2,Community 2,NA,FALSE,j,f,NA,NA,NA,1,6,"7,8,11,14,6,5,2,10,1,4,3,9,13,12,15"
14458,commdev-image-keyboard-response,490,1083349,learnblock2,66,img/planet1_left.png,1,Community 2,NA,TRUE,f,f,NA,NA,NA,1,6,"7,8,11,14,6,5,2,10,1,4,3,9,13,12,15"
14458,commdev-image-keyboard-response,491,1084601,learnblock2,240.00000000023283,img/planet5_left.png,5,Community 2,NA,FALSE,j,f,NA,NA,NA,1,6,"7,8,11,14,6,5,2,10,1,4,3,9,13,12,15"
14458,commdev-image-keyboard-response,492,1085852,learnblock2,518,img/planet14_left.png,14,Community 1,NA,TRUE,f,f,NA,NA,NA,1,6,"7,8,11,14,6,5,2,10,1,4,3,9,13,12,15"
14458,commdev-image-keyboard-response,493,1087103,learnblock2,215,img/planet8_right.png,8,Community 1,NA,FALSE,f,j,NA,NA,NA,1,6,"7,8,11,14,6,5,2,10,1,4,3,9,13,12,15"
14458,commdev-image-keyboard-response,494,1088356,learnblock2,363,img/planet7_left.png,7,Community 1,NA,FALSE,j,f,NA,NA,NA,1,6,"7,8,11,14,6,5,2,10,1,4,3,9,13,12,15"
14458,commdev-image-keyboard-response,495,1089607,learnblock2,42,img/planet8_left.png,8,Community 1,NA,FALSE,j,f,NA,NA,NA,1,6,"7,8,11,14,6,5,2,10,1,4,3,9,13,12,15"
14458,commdev-image-keyboard-response,496,1090859,learnblock2,746,img/planet11_left.png,11,Community 1,NA,TRUE,f,f,NA,NA,NA,1,6,"7,8,11,14,6,5,2,10,1,4,3,9,13,12,15"
14458,commdev-image-keyboard-response,497,1092111,learnblock2,null,img/planet6_left.png,6,Community 1,NA,FALSE,null,f,NA,NA,NA,1,6,"7,8,11,14,6,5,2,10,1,4,3,9,13,12,15"
14458,commdev-image-keyboard-response,498,1093363,learnblock2,240,img/planet3_left.png,3,Community 3,NA,FALSE,j,f,NA,NA,NA,1,6,"7,8,11,14,6,5,2,10,1,4,3,9,13,12,15"
14458,commdev-image-keyboard-response,499,1094614,learnblock2,67,img/planet12_left.png,12,Community 3,NA,FALSE,j,f,NA,NA,NA,1,6,"7,8,11,14,6,5,2,10,1,4,3,9,13,12,15"
14458,commdev-image-keyboard-response,500,1095865,learnblock2,366,img/planet13_right.png,13,Community 3,NA,TRUE,j,j,NA,NA,NA,1,6,"7,8,11,14,6,5,2,10,1,4,3,9,13,12,15"
14458,commdev-image-keyboard-response,501,1097116,learnblock2,171,img/planet9_left.png,9,Community 3,NA,FALSE,j,f,NA,NA,NA,1,6,"7,8,11,14,6,5,2,10,1,4,3,9,13,12,15"
14458,commdev-image-keyboard-response,502,1098367,learnblock2,160,img/planet12_right.png,12,Community 3,NA,TRUE,j,j,NA,NA,NA,1,6,"7,8,11,14,6,5,2,10,1,4,3,9,13,12,15"
14458,commdev-image-keyboard-response,503,1099618,learnblock2,482,img/planet3_left.png,3,Community 3,NA,FALSE,j,f,NA,NA,NA,1,6,"7,8,11,14,6,5,2,10,1,4,3,9,13,12,15"
14458,commdev-image-keyboard-response,504,1100870,learnblock2,94,img/planet15_right.png,15,Community 3,NA,FALSE,f,j,NA,NA,NA,1,6,"7,8,11,14,6,5,2,10,1,4,3,9,13,12,15"
14458,commdev-image-keyboard-response,505,1102122,learnblock2,81,img/planet12_right.png,12,Community 3,NA,TRUE,j,j,NA,NA,NA,1,6,"7,8,11,14,6,5,2,10,1,4,3,9,13,12,15"
14458,commdev-image-keyboard-response,506,1103373,learnblock2,177,img/planet15_left.png,15,Community 3,NA,FALSE,j,f,NA,NA,NA,1,6,"7,8,11,14,6,5,2,10,1,4,3,9,13,12,15"
14458,commdev-image-keyboard-response,507,1104625,learnblock2,155,img/planet9_right.png,9,Community 3,NA,TRUE,j,j,NA,NA,NA,1,6,"7,8,11,14,6,5,2,10,1,4,3,9,13,12,15"
14458,commdev-image-keyboard-response,508,1105876,learnblock2,158,img/planet12_right.png,12,Community 3,NA,TRUE,j,j,NA,NA,NA,1,6,"7,8,11,14,6,5,2,10,1,4,3,9,13,12,15"
14458,commdev-image-keyboard-response,509,1107127,learnblock2,89,img/planet15_right.png,15,Community 3,NA,TRUE,j,j,NA,NA,NA,1,6,"7,8,11,14,6,5,2,10,1,4,3,9,13,12,15"
14458,commdev-image-keyboard-response,510,1108377,learnblock2,252.99999999976717,img/planet9_right.png,9,Community 3,NA,FALSE,f,j,NA,NA,NA,1,6,"7,8,11,14,6,5,2,10,1,4,3,9,13,12,15"
14458,commdev-image-keyboard-response,511,1109628,learnblock2,37.99999999976717,img/planet12_left.png,12,Community 3,NA,TRUE,f,f,NA,NA,NA,1,6,"7,8,11,14,6,5,2,10,1,4,3,9,13,12,15"
14458,commdev-image-keyboard-response,512,1110879,learnblock2,1085,img/planet13_right.png,13,Community 3,NA,FALSE,f,j,NA,NA,NA,1,6,"7,8,11,14,6,5,2,10,1,4,3,9,13,12,15"
14458,commdev-image-keyboard-response,513,1112132,learnblock2,391.00000000023283,img/planet12_right.png,12,Community 3,NA,FALSE,f,j,NA,NA,NA,1,6,"7,8,11,14,6,5,2,10,1,4,3,9,13,12,15"
14458,commdev-image-keyboard-response,514,1113384,learnblock2,233,img/planet9_left.png,9,Community 3,NA,TRUE,f,f,NA,NA,NA,1,6,"7,8,11,14,6,5,2,10,1,4,3,9,13,12,15"
14458,commdev-image-keyboard-response,515,1114635,learnblock2,127,img/planet10_left.png,10,Community 2,NA,TRUE,f,f,NA,NA,NA,1,6,"7,8,11,14,6,5,2,10,1,4,3,9,13,12,15"
14458,commdev-image-keyboard-response,516,1115886,learnblock2,299,img/planet9_right.png,9,Community 3,NA,FALSE,f,j,NA,NA,NA,1,6,"7,8,11,14,6,5,2,10,1,4,3,9,13,12,15"
14458,commdev-image-keyboard-response,517,1117138,learnblock2,250,img/planet15_right.png,15,Community 3,NA,TRUE,j,j,NA,NA,NA,1,6,"7,8,11,14,6,5,2,10,1,4,3,9,13,12,15"
14458,commdev-image-keyboard-response,518,1118390,learnblock2,370,img/planet13_left.png,13,Community 3,NA,TRUE,f,f,NA,NA,NA,1,6,"7,8,11,14,6,5,2,10,1,4,3,9,13,12,15"
14458,commdev-image-keyboard-response,519,1119641,learnblock2,22,img/planet3_right.png,3,Community 3,NA,TRUE,j,j,NA,NA,NA,1,6,"7,8,11,14,6,5,2,10,1,4,3,9,13,12,15"
14458,commdev-image-keyboard-response,520,1120892,learnblock2,42,img/planet6_left.png,6,Community 1,NA,TRUE,f,f,NA,NA,NA,1,6,"7,8,11,14,6,5,2,10,1,4,3,9,13,12,15"
14458,commdev-image-keyboard-response,521,1122143,learnblock2,187,img/planet3_left.png,3,Community 3,NA,FALSE,j,f,NA,NA,NA,1,6,"7,8,11,14,6,5,2,10,1,4,3,9,13,12,15"
14458,commdev-image-keyboard-response,522,1123394,learnblock2,102,img/planet6_right.png,6,Community 1,NA,FALSE,f,j,NA,NA,NA,1,6,"7,8,11,14,6,5,2,10,1,4,3,9,13,12,15"
14458,commdev-image-keyboard-response,523,1124648,learnblock2,1218,img/planet3_left.png,3,Community 3,NA,TRUE,f,f,NA,NA,NA,1,6,"7,8,11,14,6,5,2,10,1,4,3,9,13,12,15"
14458,commdev-image-keyboard-response,524,1125899,learnblock2,null,img/planet15_left.png,15,Community 3,NA,FALSE,null,f,NA,NA,NA,1,6,"7,8,11,14,6,5,2,10,1,4,3,9,13,12,15"
14458,commdev-image-keyboard-response,525,1127151,learnblock2,1248,img/planet13_left.png,13,Community 3,NA,TRUE,f,f,NA,NA,NA,1,6,"7,8,11,14,6,5,2,10,1,4,3,9,13,12,15"
14458,commdev-image-keyboard-response,526,1128403,learnblock2,1213,img/planet3_left.png,3,Community 3,NA,FALSE,j,f,NA,NA,NA,1,6,"7,8,11,14,6,5,2,10,1,4,3,9,13,12,15"
14458,commdev-image-keyboard-response,527,1129655,learnblock2,null,img/planet6_right.png,6,Community 1,NA,FALSE,null,j,NA,NA,NA,1,6,"7,8,11,14,6,5,2,10,1,4,3,9,13,12,15"
14458,commdev-image-keyboard-response,528,1130906,learnblock2,68.99999999976717,img/planet11_left.png,11,Community 1,NA,TRUE,f,f,NA,NA,NA,1,6,"7,8,11,14,6,5,2,10,1,4,3,9,13,12,15"
14458,commdev-image-keyboard-response,529,1132158,learnblock2,491,img/planet7_right.png,7,Community 1,NA,TRUE,j,j,NA,NA,NA,1,6,"7,8,11,14,6,5,2,10,1,4,3,9,13,12,15"
14458,commdev-image-keyboard-response,530,1133409,learnblock2,69,img/planet11_right.png,11,Community 1,NA,FALSE,f,j,NA,NA,NA,1,6,"7,8,11,14,6,5,2,10,1,4,3,9,13,12,15"
14458,commdev-image-keyboard-response,531,1134661,learnblock2,1007,img/planet7_left.png,7,Community 1,NA,FALSE,j,f,NA,NA,NA,1,6,"7,8,11,14,6,5,2,10,1,4,3,9,13,12,15"
14458,commdev-image-keyboard-response,532,1135913,learnblock2,557,img/planet8_right.png,8,Community 1,NA,TRUE,j,j,NA,NA,NA,1,6,"7,8,11,14,6,5,2,10,1,4,3,9,13,12,15"
14458,commdev-image-keyboard-response,533,1137164,learnblock2,null,img/planet14_right.png,14,Community 1,NA,FALSE,null,j,NA,NA,NA,1,6,"7,8,11,14,6,5,2,10,1,4,3,9,13,12,15"
14458,commdev-image-keyboard-response,534,1138417,learnblock2,null,img/planet5_left.png,5,Community 2,NA,FALSE,null,f,NA,NA,NA,1,6,"7,8,11,14,6,5,2,10,1,4,3,9,13,12,15"
14458,commdev-image-keyboard-response,535,1139668,learnblock2,null,img/planet2_left.png,2,Community 2,NA,FALSE,null,f,NA,NA,NA,1,6,"7,8,11,14,6,5,2,10,1,4,3,9,13,12,15"
14458,commdev-image-keyboard-response,536,1140919,learnblock2,null,img/planet1_right.png,1,Community 2,NA,FALSE,null,j,NA,NA,NA,1,6,"7,8,11,14,6,5,2,10,1,4,3,9,13,12,15"
14458,commdev-image-keyboard-response,537,1142172,learnblock2,null,img/planet4_right.png,4,Community 2,NA,FALSE,null,j,NA,NA,NA,1,6,"7,8,11,14,6,5,2,10,1,4,3,9,13,12,15"
14458,commdev-image-keyboard-response,538,1143424,learnblock2,null,img/planet1_right.png,1,Community 2,NA,FALSE,null,j,NA,NA,NA,1,6,"7,8,11,14,6,5,2,10,1,4,3,9,13,12,15"
14458,commdev-image-keyboard-response,539,1144675,learnblock2,null,img/planet5_right.png,5,Community 2,NA,FALSE,null,j,NA,NA,NA,1,6,"7,8,11,14,6,5,2,10,1,4,3,9,13,12,15"
14458,commdev-image-keyboard-response,540,1145926,learnblock2,null,img/planet14_right.png,14,Community 1,NA,FALSE,null,j,NA,NA,NA,1,6,"7,8,11,14,6,5,2,10,1,4,3,9,13,12,15"
14458,commdev-image-keyboard-response,541,1147177,learnblock2,null,img/planet8_left.png,8,Community 1,NA,FALSE,null,f,NA,NA,NA,1,6,"7,8,11,14,6,5,2,10,1,4,3,9,13,12,15"
14458,commdev-image-keyboard-response,542,1148430,learnblock2,null,img/planet11_right.png,11,Community 1,NA,FALSE,null,j,NA,NA,NA,1,6,"7,8,11,14,6,5,2,10,1,4,3,9,13,12,15"
14458,commdev-image-keyboard-response,543,1149682,learnblock2,null,img/planet14_right.png,14,Community 1,NA,FALSE,null,j,NA,NA,NA,1,6,"7,8,11,14,6,5,2,10,1,4,3,9,13,12,15"
14458,commdev-image-keyboard-response,544,1150934,learnblock2,null,img/planet7_left.png,7,Community 1,NA,FALSE,null,f,NA,NA,NA,1,6,"7,8,11,14,6,5,2,10,1,4,3,9,13,12,15"
14458,commdev-image-keyboard-response,545,1152186,learnblock2,null,img/planet11_right.png,11,Community 1,NA,FALSE,null,j,NA,NA,NA,1,6,"7,8,11,14,6,5,2,10,1,4,3,9,13,12,15"
14458,commdev-image-keyboard-response,546,1153437,learnblock2,null,img/planet14_right.png,14,Community 1,NA,FALSE,null,j,NA,NA,NA,1,6,"7,8,11,14,6,5,2,10,1,4,3,9,13,12,15"
14458,commdev-image-keyboard-response,547,1154688,learnblock2,null,img/planet11_left.png,11,Community 1,NA,FALSE,null,f,NA,NA,NA,1,6,"7,8,11,14,6,5,2,10,1,4,3,9,13,12,15"
14458,commdev-image-keyboard-response,548,1155939,learnblock2,null,img/planet7_right.png,7,Community 1,NA,FALSE,null,j,NA,NA,NA,1,6,"7,8,11,14,6,5,2,10,1,4,3,9,13,12,15"
14458,commdev-image-keyboard-response,549,1157191,learnblock2,null,img/planet6_right.png,6,Community 1,NA,FALSE,null,j,NA,NA,NA,1,6,"7,8,11,14,6,5,2,10,1,4,3,9,13,12,15"
14458,commdev-image-keyboard-response,550,1158444,learnblock2,null,img/planet11_left.png,11,Community 1,NA,FALSE,null,f,NA,NA,NA,1,6,"7,8,11,14,6,5,2,10,1,4,3,9,13,12,15"
14458,commdev-image-keyboard-response,551,1159695,learnblock2,null,img/planet8_left.png,8,Community 1,NA,FALSE,null,f,NA,NA,NA,1,6,"7,8,11,14,6,5,2,10,1,4,3,9,13,12,15"
14458,commdev-image-keyboard-response,552,1160946,learnblock2,null,img/planet14_right.png,14,Community 1,NA,FALSE,null,j,NA,NA,NA,1,6,"7,8,11,14,6,5,2,10,1,4,3,9,13,12,15"
14458,commdev-image-keyboard-response,553,1162197,learnblock2,null,img/planet11_right.png,11,Community 1,NA,FALSE,null,j,NA,NA,NA,1,6,"7,8,11,14,6,5,2,10,1,4,3,9,13,12,15"
14458,commdev-image-keyboard-response,554,1163449,learnblock2,null,img/planet14_right.png,14,Community 1,NA,FALSE,null,j,NA,NA,NA,1,6,"7,8,11,14,6,5,2,10,1,4,3,9,13,12,15"
14458,commdev-image-keyboard-response,555,1164701,learnblock2,null,img/planet7_right.png,7,Community 1,NA,FALSE,null,j,NA,NA,NA,1,6,"7,8,11,14,6,5,2,10,1,4,3,9,13,12,15"
14458,commdev-image-keyboard-response,556,1165952,learnblock2,null,img/planet11_left.png,11,Community 1,NA,FALSE,null,f,NA,NA,NA,1,6,"7,8,11,14,6,5,2,10,1,4,3,9,13,12,15"
14458,commdev-image-keyboard-response,557,1167204,learnblock2,null,img/planet7_right.png,7,Community 1,NA,FALSE,null,j,NA,NA,NA,1,6,"7,8,11,14,6,5,2,10,1,4,3,9,13,12,15"
14458,commdev-image-keyboard-response,558,1168455,learnblock2,null,img/planet14_right.png,14,Community 1,NA,FALSE,null,j,NA,NA,NA,1,6,"7,8,11,14,6,5,2,10,1,4,3,9,13,12,15"
14458,commdev-image-keyboard-response,559,1169708,learnblock2,null,img/planet7_right.png,7,Community 1,NA,FALSE,null,j,NA,NA,NA,1,6,"7,8,11,14,6,5,2,10,1,4,3,9,13,12,15"
14458,commdev-image-keyboard-response,560,1170959,learnblock2,null,img/planet11_left.png,11,Community 1,NA,FALSE,null,f,NA,NA,NA,1,6,"7,8,11,14,6,5,2,10,1,4,3,9,13,12,15"
14458,commdev-image-keyboard-response,561,1172210,learnblock2,null,img/planet8_left.png,8,Community 1,NA,FALSE,null,f,NA,NA,NA,1,6,"7,8,11,14,6,5,2,10,1,4,3,9,13,12,15"
14458,commdev-image-keyboard-response,562,1173462,learnblock2,null,img/planet7_right.png,7,Community 1,NA,FALSE,null,j,NA,NA,NA,1,6,"7,8,11,14,6,5,2,10,1,4,3,9,13,12,15"
14458,commdev-image-keyboard-response,563,1174713,learnblock2,null,img/planet11_left.png,11,Community 1,NA,FALSE,null,f,NA,NA,NA,1,6,"7,8,11,14,6,5,2,10,1,4,3,9,13,12,15"
14458,commdev-image-keyboard-response,564,1175965,learnblock2,null,img/planet8_right.png,8,Community 1,NA,FALSE,null,j,NA,NA,NA,1,6,"7,8,11,14,6,5,2,10,1,4,3,9,13,12,15"
14458,commdev-image-keyboard-response,565,1177219,learnblock2,null,img/planet11_left.png,11,Community 1,NA,FALSE,null,f,NA,NA,NA,1,6,"7,8,11,14,6,5,2,10,1,4,3,9,13,12,15"
14458,commdev-image-keyboard-response,566,1178470,learnblock2,null,img/planet14_right.png,14,Community 1,NA,FALSE,null,j,NA,NA,NA,1,6,"7,8,11,14,6,5,2,10,1,4,3,9,13,12,15"
14458,commdev-image-keyboard-response,567,1179723,learnblock2,null,img/planet7_right.png,7,Community 1,NA,FALSE,null,j,NA,NA,NA,1,6,"7,8,11,14,6,5,2,10,1,4,3,9,13,12,15"
14458,commdev-image-keyboard-response,568,1180975,learnblock2,null,img/planet6_right.png,6,Community 1,NA,FALSE,null,j,NA,NA,NA,1,6,"7,8,11,14,6,5,2,10,1,4,3,9,13,12,15"
14458,commdev-image-keyboard-response,569,1182227,learnblock2,null,img/planet11_right.png,11,Community 1,NA,FALSE,null,j,NA,NA,NA,1,6,"7,8,11,14,6,5,2,10,1,4,3,9,13,12,15"
14458,commdev-image-keyboard-response,570,1183479,learnblock2,null,img/planet14_right.png,14,Community 1,NA,FALSE,null,j,NA,NA,NA,1,6,"7,8,11,14,6,5,2,10,1,4,3,9,13,12,15"
14458,commdev-image-keyboard-response,571,1184731,learnblock2,null,img/planet7_left.png,7,Community 1,NA,FALSE,null,f,NA,NA,NA,1,6,"7,8,11,14,6,5,2,10,1,4,3,9,13,12,15"
14458,commdev-image-keyboard-response,572,1185983,learnblock2,null,img/planet6_right.png,6,Community 1,NA,FALSE,null,j,NA,NA,NA,1,6,"7,8,11,14,6,5,2,10,1,4,3,9,13,12,15"
14458,commdev-image-keyboard-response,573,1187235,learnblock2,null,img/planet3_right.png,3,Community 3,NA,FALSE,null,j,NA,NA,NA,1,6,"7,8,11,14,6,5,2,10,1,4,3,9,13,12,15"
14458,commdev-image-keyboard-response,574,1188488,learnblock2,null,img/planet6_left.png,6,Community 1,NA,FALSE,null,f,NA,NA,NA,1,6,"7,8,11,14,6,5,2,10,1,4,3,9,13,12,15"
14458,commdev-image-keyboard-response,575,1189740,learnblock2,null,img/planet11_right.png,11,Community 1,NA,FALSE,null,j,NA,NA,NA,1,6,"7,8,11,14,6,5,2,10,1,4,3,9,13,12,15"
14458,commdev-image-keyboard-response,576,1190991,learnblock2,null,img/planet6_right.png,6,Community 1,NA,FALSE,null,j,NA,NA,NA,1,6,"7,8,11,14,6,5,2,10,1,4,3,9,13,12,15"
14458,commdev-image-keyboard-response,577,1192242,learnblock2,null,img/planet3_right.png,3,Community 3,NA,FALSE,null,j,NA,NA,NA,1,6,"7,8,11,14,6,5,2,10,1,4,3,9,13,12,15"
14458,commdev-image-keyboard-response,578,1193495,learnblock2,null,img/planet15_right.png,15,Community 3,NA,FALSE,null,j,NA,NA,NA,1,6,"7,8,11,14,6,5,2,10,1,4,3,9,13,12,15"
14458,commdev-image-keyboard-response,579,1194747,learnblock2,null,img/planet13_left.png,13,Community 3,NA,FALSE,null,f,NA,NA,NA,1,6,"7,8,11,14,6,5,2,10,1,4,3,9,13,12,15"
14458,commdev-image-keyboard-response,580,1195998,learnblock2,null,img/planet15_right.png,15,Community 3,NA,FALSE,null,j,NA,NA,NA,1,6,"7,8,11,14,6,5,2,10,1,4,3,9,13,12,15"
14458,commdev-image-keyboard-response,581,1197249,learnblock2,null,img/planet3_left.png,3,Community 3,NA,FALSE,null,f,NA,NA,NA,1,6,"7,8,11,14,6,5,2,10,1,4,3,9,13,12,15"
14458,commdev-image-keyboard-response,582,1198501,learnblock2,null,img/planet15_left.png,15,Community 3,NA,FALSE,null,f,NA,NA,NA,1,6,"7,8,11,14,6,5,2,10,1,4,3,9,13,12,15"
14458,commdev-image-keyboard-response,583,1199755,learnblock2,null,img/planet9_right.png,9,Community 3,NA,FALSE,null,j,NA,NA,NA,1,6,"7,8,11,14,6,5,2,10,1,4,3,9,13,12,15"
14458,commdev-image-keyboard-response,584,1201007,learnblock2,null,img/planet12_right.png,12,Community 3,NA,FALSE,null,j,NA,NA,NA,1,6,"7,8,11,14,6,5,2,10,1,4,3,9,13,12,15"
14458,commdev-image-keyboard-response,585,1202258,learnblock2,null,img/planet15_right.png,15,Community 3,NA,FALSE,null,j,NA,NA,NA,1,6,"7,8,11,14,6,5,2,10,1,4,3,9,13,12,15"
14458,commdev-image-keyboard-response,586,1203509,learnblock2,null,img/planet3_right.png,3,Community 3,NA,FALSE,null,j,NA,NA,NA,1,6,"7,8,11,14,6,5,2,10,1,4,3,9,13,12,15"
14458,commdev-image-keyboard-response,587,1204760,learnblock2,675,img/planet12_right.png,12,Community 3,NA,TRUE,j,j,NA,NA,NA,1,6,"7,8,11,14,6,5,2,10,1,4,3,9,13,12,15"
14458,commdev-image-keyboard-response,588,1206011,learnblock2,216,img/planet15_left.png,15,Community 3,NA,TRUE,f,f,NA,NA,NA,1,6,"7,8,11,14,6,5,2,10,1,4,3,9,13,12,15"
14458,commdev-image-keyboard-response,589,1207262,learnblock2,111,img/planet9_right.png,9,Community 3,NA,TRUE,j,j,NA,NA,NA,1,6,"7,8,11,14,6,5,2,10,1,4,3,9,13,12,15"
14458,commdev-image-keyboard-response,590,1208515,learnblock2,613,img/planet15_left.png,15,Community 3,NA,TRUE,f,f,NA,NA,NA,1,6,"7,8,11,14,6,5,2,10,1,4,3,9,13,12,15"
14458,commdev-image-keyboard-response,591,1209768,learnblock2,258,img/planet12_left.png,12,Community 3,NA,FALSE,j,f,NA,NA,NA,1,6,"7,8,11,14,6,5,2,10,1,4,3,9,13,12,15"
14458,commdev-image-keyboard-response,592,1211021,learnblock2,527,img/planet13_right.png,13,Community 3,NA,TRUE,j,j,NA,NA,NA,1,6,"7,8,11,14,6,5,2,10,1,4,3,9,13,12,15"
14458,commdev-image-keyboard-response,593,1212272,learnblock2,77,img/planet15_left.png,15,Community 3,NA,FALSE,j,f,NA,NA,NA,1,6,"7,8,11,14,6,5,2,10,1,4,3,9,13,12,15"
14458,commdev-image-keyboard-response,594,1213524,learnblock2,380,img/planet12_left.png,12,Community 3,NA,FALSE,j,f,NA,NA,NA,1,6,"7,8,11,14,6,5,2,10,1,4,3,9,13,12,15"
14458,commdev-image-keyboard-response,595,1214776,learnblock2,347,img/planet9_left.png,9,Community 3,NA,TRUE,f,f,NA,NA,NA,1,6,"7,8,11,14,6,5,2,10,1,4,3,9,13,12,15"
14458,commdev-image-keyboard-response,596,1216027,learnblock2,283,img/planet13_left.png,13,Community 3,NA,FALSE,j,f,NA,NA,NA,1,6,"7,8,11,14,6,5,2,10,1,4,3,9,13,12,15"
14458,commdev-image-keyboard-response,597,1217278,learnblock2,119.99999999976717,img/planet15_left.png,15,Community 3,NA,TRUE,f,f,NA,NA,NA,1,6,"7,8,11,14,6,5,2,10,1,4,3,9,13,12,15"
14458,commdev-image-keyboard-response,598,1218529,learnblock2,1147,img/planet12_left.png,12,Community 3,NA,TRUE,f,f,NA,NA,NA,1,6,"7,8,11,14,6,5,2,10,1,4,3,9,13,12,15"
14458,commdev-image-keyboard-response,599,1219781,learnblock2,177,img/planet9_right.png,9,Community 3,NA,FALSE,f,j,NA,NA,NA,1,6,"7,8,11,14,6,5,2,10,1,4,3,9,13,12,15"
14458,commdev-image-keyboard-response,600,1221034,learnblock2,317,img/planet13_left.png,13,Community 3,NA,TRUE,f,f,NA,NA,NA,1,6,"7,8,11,14,6,5,2,10,1,4,3,9,13,12,15"
14458,commdev-image-keyboard-response,601,1222285,learnblock2,144,img/planet3_right.png,3,Community 3,NA,TRUE,j,j,NA,NA,NA,1,6,"7,8,11,14,6,5,2,10,1,4,3,9,13,12,15"
14458,commdev-image-keyboard-response,602,1223536,learnblock2,81,img/planet13_left.png,13,Community 3,NA,TRUE,f,f,NA,NA,NA,1,6,"7,8,11,14,6,5,2,10,1,4,3,9,13,12,15"
14458,commdev-image-keyboard-response,603,1224789,learnblock2,481.00000000023283,img/planet9_right.png,9,Community 3,NA,TRUE,j,j,NA,NA,NA,1,6,"7,8,11,14,6,5,2,10,1,4,3,9,13,12,15"
14458,commdev-image-keyboard-response,604,1226041,learnblock2,377,img/planet13_left.png,13,Community 3,NA,FALSE,j,f,NA,NA,NA,1,6,"7,8,11,14,6,5,2,10,1,4,3,9,13,12,15"
14458,commdev-image-keyboard-response,605,1227293,learnblock2,283,img/planet12_right.png,12,Community 3,NA,TRUE,j,j,NA,NA,NA,1,6,"7,8,11,14,6,5,2,10,1,4,3,9,13,12,15"
14458,commdev-image-keyboard-response,606,1228545,learnblock2,273,img/planet9_left.png,9,Community 3,NA,FALSE,j,f,NA,NA,NA,1,6,"7,8,11,14,6,5,2,10,1,4,3,9,13,12,15"
14458,commdev-image-keyboard-response,607,1229796,learnblock2,276,img/planet15_right.png,15,Community 3,NA,TRUE,j,j,NA,NA,NA,1,6,"7,8,11,14,6,5,2,10,1,4,3,9,13,12,15"
14458,commdev-image-keyboard-response,608,1231049,learnblock2,403.00000000023283,img/planet9_right.png,9,Community 3,NA,TRUE,j,j,NA,NA,NA,1,6,"7,8,11,14,6,5,2,10,1,4,3,9,13,12,15"
14458,commdev-image-keyboard-response,609,1232301,learnblock2,615,img/planet12_left.png,12,Community 3,NA,FALSE,j,f,NA,NA,NA,1,6,"7,8,11,14,6,5,2,10,1,4,3,9,13,12,15"
