subject_id,trial_type,trial_index,time_elapsed,block,rt,stimulus,planet,community,response,correct,key_press,learning_correct_response,parse,init_locations,final_locations,browser_interactions,num_comp,planet_map
14928,commdev-instructions,7,27710,NA,1745.800000011921,"<p>In this game, you are a scientist on board a space shuttle. </p><p> On each mission, you will visit planets all across the universe.</p><img src=""img/controlroom.jpg"" width=300vw>",NA,NA,NA,NA,NA,NA,NA,NA,NA,1,6,"5,1,14,11,15,2,8,3,12,10,9,4,6,13,7"
14928,commdev-instructions,8,31326,NA,1543.6000000238419,"<p>Here are a few planets you might see:</p><img src=""img/practice1.png"" width=200vw><img src=""img/practice2.png"" width=200vw><img src=""img/practice3.png"" width=200vw>",NA,NA,NA,NA,NA,NA,NA,NA,NA,1,6,"5,1,14,11,15,2,8,3,12,10,9,4,6,13,7"
14928,commdev-instructions,9,40693,NA,1966.699999988079,"<p>Your job as a scientist is to record which direction the winds are moving on each planet.</p><p>There are two types of wind directions:</p><img src=""img/practice1_left.png"" width=200vw><img src=""img/practice1_right.png"" width=200vw>",NA,NA,NA,NA,NA,NA,NA,NA,NA,1,6,"5,1,14,11,15,2,8,3,12,10,9,4,6,13,7"
14928,commdev-instructions,10,47126,NA,1551.9000000357628,"<p>If the winds are moving this way, press the letter <strong>F</strong> on the keyboard as fast as you can.</p><img src=""img/leftwind.png"" width=250vw>",NA,NA,NA,NA,NA,NA,NA,NA,NA,1,6,"5,1,14,11,15,2,8,3,12,10,9,4,6,13,7"
14928,commdev-instructions,11,52675,NA,1053.7999999523163,"<p>If the winds are moving this way, press the letter <strong>J</strong> on the keyboard as fast as you can.</p><img src=""img/rightwind.png"" width=350vw>",NA,NA,NA,NA,NA,NA,NA,NA,NA,1,6,"5,1,14,11,15,2,8,3,12,10,9,4,6,13,7"
14928,commdev-instructions,12,59008,NA,1910.300000011921,<p>You will have 1 second to respond. Try to respond before the time runs out!,NA,NA,NA,NA,NA,NA,NA,NA,NA,1,6,"5,1,14,11,15,2,8,3,12,10,9,4,6,13,7"
14928,commdev-instructions,13,66725,NA,2288.199999988079,<p>The planets you will visit will look different from each other.</p><p>You should respond <strong>only</strong> based on wind direction.,NA,NA,NA,NA,NA,NA,NA,NA,NA,1,6,"5,1,14,11,15,2,8,3,12,10,9,4,6,13,7"
14928,commdev-instructions,14,74725,NA,2831.899999976158,"<p> Ready to start the practice round? </p><p> Remember, press <strong>F</strong> or <strong>J</strong> depending on the wind direction.<br><img src=""img/categorize_planet_example.png""",NA,NA,NA,NA,NA,NA,NA,NA,NA,1,6,"5,1,14,11,15,2,8,3,12,10,9,4,6,13,7"
14928,commdev-instructions,26,133074,NA,2372.899999976158,"<p>Great, now try a short practice mission. </p><p> This time, you will have 1 second to respond and you won't know whether you pressed the right or wrong key for each planet.</p>",NA,NA,NA,NA,NA,NA,NA,NA,NA,1,6,"5,1,14,11,15,2,8,3,12,10,9,4,6,13,7"
14928,commdev-image-keyboard-response,27,134430,practice,1179.3999999761581,img/practice4_left.png,NA,Number not found in mappings,NA,TRUE,f,f,NA,NA,NA,1,6,"5,1,14,11,15,2,8,3,12,10,9,4,6,13,7"
14928,commdev-image-keyboard-response,28,135684,practice,773.5,img/practice1_left.png,NA,Number not found in mappings,NA,TRUE,f,f,NA,NA,NA,1,6,"5,1,14,11,15,2,8,3,12,10,9,4,6,13,7"
14928,commdev-image-keyboard-response,29,136936,practice,null,img/practice2_right.png,NA,Number not found in mappings,NA,FALSE,null,j,NA,NA,NA,1,6,"5,1,14,11,15,2,8,3,12,10,9,4,6,13,7"
14928,commdev-image-keyboard-response,30,138189,practice,503.60000002384186,img/practice1_left.png,NA,Number not found in mappings,NA,FALSE,j,f,NA,NA,NA,1,6,"5,1,14,11,15,2,8,3,12,10,9,4,6,13,7"
14928,commdev-image-keyboard-response,31,139443,practice,681.0999999642372,img/practice4_left.png,NA,Number not found in mappings,NA,TRUE,f,f,NA,NA,NA,1,6,"5,1,14,11,15,2,8,3,12,10,9,4,6,13,7"
14928,commdev-image-keyboard-response,32,140696,practice,695,img/practice3_right.png,NA,Number not found in mappings,NA,TRUE,j,j,NA,NA,NA,1,6,"5,1,14,11,15,2,8,3,12,10,9,4,6,13,7"
14928,commdev-image-keyboard-response,33,141948,practice,797,img/practice1_right.png,NA,Number not found in mappings,NA,TRUE,j,j,NA,NA,NA,1,6,"5,1,14,11,15,2,8,3,12,10,9,4,6,13,7"
14928,commdev-image-keyboard-response,34,143201,practice,798.1999999880791,img/practice3_right.png,NA,Number not found in mappings,NA,TRUE,j,j,NA,NA,NA,1,6,"5,1,14,11,15,2,8,3,12,10,9,4,6,13,7"
14928,commdev-instructions,35,158390,NA,5636.600000023842,"<p>Great job with the practice round.</p><p>During real missions, you won't know whether you pressed the right or wrong key for each planet.</p><p>But between missions, we will tell you how you did overall.</p>",NA,NA,NA,NA,NA,NA,NA,NA,NA,1,6,"5,1,14,11,15,2,8,3,12,10,9,4,6,13,7"
14928,commdev-instructions,36,167876,NA,1228.300000011921,<p>Try your best! You will be paid a bonus based on how many correct responses you make!</p><p>Responses that are too slow will not count toward your bonus.</p>,NA,NA,NA,NA,NA,NA,NA,NA,NA,1,6,"5,1,14,11,15,2,8,3,12,10,9,4,6,13,7"
14928,commdev-instructions,37,175602,NA,1517.6000000238419,"<p>You are almost ready to start the real game.</p><p> First, we are going to ask you some questions about how the game works.</p>",NA,NA,NA,NA,NA,NA,NA,NA,NA,1,6,"5,1,14,11,15,2,8,3,12,10,9,4,6,13,7"
14928,commdev-instructions,46,255072,NA,2019,"<p> Nice work! It is now time to start the real game.<p></p>You will go on two missions to record wind directions of different planets.<p></p>Each one will take about 5 minutes. You will get to take a break between missions.<p><p> Remember, press <strong>F</strong> or <strong>J</strong> depending on the wind direction. Good luck!<br><img src=""img/categorize_planet_example.png""",NA,NA,NA,NA,NA,NA,NA,NA,NA,1,6,"5,1,14,11,15,2,8,3,12,10,9,4,6,13,7"
14928,commdev-image-keyboard-response,48,259870,learnblock1,1034.1000000238419,img/planet1_left.png,1,Community 1,NA,TRUE,f,f,NA,NA,NA,1,6,"5,1,14,11,15,2,8,3,12,10,9,4,6,13,7"
14928,commdev-image-keyboard-response,49,261122,learnblock1,780.5,img/planet5_left.png,5,Community 1,NA,TRUE,f,f,NA,NA,NA,1,6,"5,1,14,11,15,2,8,3,12,10,9,4,6,13,7"
14928,commdev-image-keyboard-response,50,262375,learnblock1,648.6999999880791,img/planet1_left.png,1,Community 1,NA,TRUE,f,f,NA,NA,NA,1,6,"5,1,14,11,15,2,8,3,12,10,9,4,6,13,7"
14928,commdev-image-keyboard-response,51,263628,learnblock1,664,img/planet14_right.png,14,Community 1,NA,TRUE,j,j,NA,NA,NA,1,6,"5,1,14,11,15,2,8,3,12,10,9,4,6,13,7"
14928,commdev-image-keyboard-response,52,264881,learnblock1,684.3999999761581,img/planet5_right.png,5,Community 1,NA,TRUE,j,j,NA,NA,NA,1,6,"5,1,14,11,15,2,8,3,12,10,9,4,6,13,7"
14928,commdev-image-keyboard-response,53,266134,learnblock1,852.5,img/planet15_left.png,15,Community 1,NA,TRUE,f,f,NA,NA,NA,1,6,"5,1,14,11,15,2,8,3,12,10,9,4,6,13,7"
14928,commdev-image-keyboard-response,54,267387,learnblock1,724.1000000238419,img/planet14_right.png,14,Community 1,NA,TRUE,j,j,NA,NA,NA,1,6,"5,1,14,11,15,2,8,3,12,10,9,4,6,13,7"
14928,commdev-image-keyboard-response,55,268639,learnblock1,791,img/planet1_right.png,1,Community 1,NA,TRUE,j,j,NA,NA,NA,1,6,"5,1,14,11,15,2,8,3,12,10,9,4,6,13,7"
14928,commdev-image-keyboard-response,56,269892,learnblock1,735.6000000238419,img/planet11_left.png,11,Community 1,NA,TRUE,f,f,NA,NA,NA,1,6,"5,1,14,11,15,2,8,3,12,10,9,4,6,13,7"
14928,commdev-image-keyboard-response,57,271145,learnblock1,828.5,img/planet5_left.png,5,Community 1,NA,TRUE,f,f,NA,NA,NA,1,6,"5,1,14,11,15,2,8,3,12,10,9,4,6,13,7"
14928,commdev-image-keyboard-response,58,272397,learnblock1,704,img/planet11_right.png,11,Community 1,NA,TRUE,j,j,NA,NA,NA,1,6,"5,1,14,11,15,2,8,3,12,10,9,4,6,13,7"
14928,commdev-image-keyboard-response,59,273650,learnblock1,1092.699999988079,img/planet5_right.png,5,Community 1,NA,TRUE,j,j,NA,NA,NA,1,6,"5,1,14,11,15,2,8,3,12,10,9,4,6,13,7"
14928,commdev-image-keyboard-response,60,274903,learnblock1,803.3999999761581,img/planet1_right.png,1,Community 1,NA,TRUE,j,j,NA,NA,NA,1,6,"5,1,14,11,15,2,8,3,12,10,9,4,6,13,7"
14928,commdev-image-keyboard-response,61,276156,learnblock1,590.6000000238419,img/planet15_right.png,15,Community 1,NA,TRUE,j,j,NA,NA,NA,1,6,"5,1,14,11,15,2,8,3,12,10,9,4,6,13,7"
14928,commdev-image-keyboard-response,62,277409,learnblock1,706.8999999761581,img/planet1_right.png,1,Community 1,NA,TRUE,j,j,NA,NA,NA,1,6,"5,1,14,11,15,2,8,3,12,10,9,4,6,13,7"
14928,commdev-image-keyboard-response,63,278662,learnblock1,771.3999999761581,img/planet14_left.png,14,Community 1,NA,TRUE,f,f,NA,NA,NA,1,6,"5,1,14,11,15,2,8,3,12,10,9,4,6,13,7"
14928,commdev-image-keyboard-response,64,279914,learnblock1,840.0999999642372,img/planet11_left.png,11,Community 1,NA,TRUE,f,f,NA,NA,NA,1,6,"5,1,14,11,15,2,8,3,12,10,9,4,6,13,7"
14928,commdev-image-keyboard-response,65,281167,learnblock1,908.5,img/planet2_right.png,2,Community 2,NA,TRUE,j,j,NA,NA,NA,1,6,"5,1,14,11,15,2,8,3,12,10,9,4,6,13,7"
14928,commdev-image-keyboard-response,66,282419,learnblock1,750.2000000476837,img/planet10_left.png,10,Community 2,NA,TRUE,f,f,NA,NA,NA,1,6,"5,1,14,11,15,2,8,3,12,10,9,4,6,13,7"
14928,commdev-image-keyboard-response,67,283671,learnblock1,714.1000000238419,img/planet3_right.png,3,Community 2,NA,TRUE,j,j,NA,NA,NA,1,6,"5,1,14,11,15,2,8,3,12,10,9,4,6,13,7"
14928,commdev-image-keyboard-response,68,284924,learnblock1,670.0999999642372,img/planet10_right.png,10,Community 2,NA,TRUE,j,j,NA,NA,NA,1,6,"5,1,14,11,15,2,8,3,12,10,9,4,6,13,7"
14928,commdev-image-keyboard-response,69,286175,learnblock1,637,img/planet12_right.png,12,Community 2,NA,TRUE,j,j,NA,NA,NA,1,6,"5,1,14,11,15,2,8,3,12,10,9,4,6,13,7"
14928,commdev-image-keyboard-response,70,287428,learnblock1,1136.5,img/planet8_left.png,8,Community 2,NA,TRUE,f,f,NA,NA,NA,1,6,"5,1,14,11,15,2,8,3,12,10,9,4,6,13,7"
14928,commdev-image-keyboard-response,71,288680,learnblock1,null,img/planet10_left.png,10,Community 2,NA,FALSE,null,f,NA,NA,NA,1,6,"5,1,14,11,15,2,8,3,12,10,9,4,6,13,7"
14928,commdev-image-keyboard-response,72,289932,learnblock1,122,img/planet3_right.png,3,Community 2,NA,FALSE,f,j,NA,NA,NA,1,6,"5,1,14,11,15,2,8,3,12,10,9,4,6,13,7"
14928,commdev-image-keyboard-response,73,291185,learnblock1,739.3000000119209,img/planet4_left.png,4,Community 3,NA,TRUE,f,f,NA,NA,NA,1,6,"5,1,14,11,15,2,8,3,12,10,9,4,6,13,7"
14928,commdev-image-keyboard-response,74,292437,learnblock1,774.6000000238419,img/planet3_right.png,3,Community 2,NA,TRUE,j,j,NA,NA,NA,1,6,"5,1,14,11,15,2,8,3,12,10,9,4,6,13,7"
14928,commdev-image-keyboard-response,75,293691,learnblock1,659.8999999761581,img/planet10_right.png,10,Community 2,NA,TRUE,j,j,NA,NA,NA,1,6,"5,1,14,11,15,2,8,3,12,10,9,4,6,13,7"
14928,commdev-image-keyboard-response,76,294943,learnblock1,587.5999999642372,img/planet2_right.png,2,Community 2,NA,TRUE,j,j,NA,NA,NA,1,6,"5,1,14,11,15,2,8,3,12,10,9,4,6,13,7"
14928,commdev-image-keyboard-response,77,296196,learnblock1,579.1999999880791,img/planet10_right.png,10,Community 2,NA,TRUE,j,j,NA,NA,NA,1,6,"5,1,14,11,15,2,8,3,12,10,9,4,6,13,7"
14928,commdev-image-keyboard-response,78,297448,learnblock1,598.3000000119209,img/planet12_left.png,12,Community 2,NA,TRUE,f,f,NA,NA,NA,1,6,"5,1,14,11,15,2,8,3,12,10,9,4,6,13,7"
14928,commdev-image-keyboard-response,79,298701,learnblock1,584.5,img/planet2_left.png,2,Community 2,NA,TRUE,f,f,NA,NA,NA,1,6,"5,1,14,11,15,2,8,3,12,10,9,4,6,13,7"
14928,commdev-image-keyboard-response,80,299953,learnblock1,540.4000000357628,img/planet10_left.png,10,Community 2,NA,TRUE,f,f,NA,NA,NA,1,6,"5,1,14,11,15,2,8,3,12,10,9,4,6,13,7"
14928,commdev-image-keyboard-response,81,301206,learnblock1,725.8000000119209,img/planet3_left.png,3,Community 2,NA,TRUE,f,f,NA,NA,NA,1,6,"5,1,14,11,15,2,8,3,12,10,9,4,6,13,7"
14928,commdev-image-keyboard-response,82,302459,learnblock1,504.30000001192093,img/planet10_left.png,10,Community 2,NA,TRUE,f,f,NA,NA,NA,1,6,"5,1,14,11,15,2,8,3,12,10,9,4,6,13,7"
14928,commdev-image-keyboard-response,83,303712,learnblock1,828.6999999880791,img/planet12_right.png,12,Community 2,NA,TRUE,j,j,NA,NA,NA,1,6,"5,1,14,11,15,2,8,3,12,10,9,4,6,13,7"
14928,commdev-image-keyboard-response,84,304964,learnblock1,813.7000000476837,img/planet10_right.png,10,Community 2,NA,TRUE,j,j,NA,NA,NA,1,6,"5,1,14,11,15,2,8,3,12,10,9,4,6,13,7"
14928,commdev-image-keyboard-response,85,306217,learnblock1,847.7000000476837,img/planet2_left.png,2,Community 2,NA,TRUE,f,f,NA,NA,NA,1,6,"5,1,14,11,15,2,8,3,12,10,9,4,6,13,7"
14928,commdev-image-keyboard-response,86,307469,learnblock1,744.1000000238419,img/planet8_left.png,8,Community 2,NA,TRUE,f,f,NA,NA,NA,1,6,"5,1,14,11,15,2,8,3,12,10,9,4,6,13,7"
14928,commdev-image-keyboard-response,87,308721,learnblock1,618.6000000238419,img/planet2_left.png,2,Community 2,NA,TRUE,f,f,NA,NA,NA,1,6,"5,1,14,11,15,2,8,3,12,10,9,4,6,13,7"
14928,commdev-image-keyboard-response,88,309974,learnblock1,590.3999999761581,img/planet10_right.png,10,Community 2,NA,TRUE,j,j,NA,NA,NA,1,6,"5,1,14,11,15,2,8,3,12,10,9,4,6,13,7"
14928,commdev-image-keyboard-response,89,311227,learnblock1,740.1000000238419,img/planet12_left.png,12,Community 2,NA,TRUE,f,f,NA,NA,NA,1,6,"5,1,14,11,15,2,8,3,12,10,9,4,6,13,7"
14928,commdev-image-keyboard-response,90,312480,learnblock1,620.5,img/planet10_left.png,10,Community 2,NA,TRUE,f,f,NA,NA,NA,1,6,"5,1,14,11,15,2,8,3,12,10,9,4,6,13,7"
14928,commdev-image-keyboard-response,91,313733,learnblock1,514.6000000238419,img/planet2_left.png,2,Community 2,NA,TRUE,f,f,NA,NA,NA,1,6,"5,1,14,11,15,2,8,3,12,10,9,4,6,13,7"
14928,commdev-image-keyboard-response,92,314985,learnblock1,688.8000000119209,img/planet10_right.png,10,Community 2,NA,TRUE,j,j,NA,NA,NA,1,6,"5,1,14,11,15,2,8,3,12,10,9,4,6,13,7"
14928,commdev-image-keyboard-response,93,316236,learnblock1,600.6999999880791,img/planet3_left.png,3,Community 2,NA,TRUE,f,f,NA,NA,NA,1,6,"5,1,14,11,15,2,8,3,12,10,9,4,6,13,7"
14928,commdev-image-keyboard-response,94,317489,learnblock1,607.8999999761581,img/planet12_left.png,12,Community 2,NA,TRUE,f,f,NA,NA,NA,1,6,"5,1,14,11,15,2,8,3,12,10,9,4,6,13,7"
14928,commdev-image-keyboard-response,95,318742,learnblock1,596.5,img/planet2_right.png,2,Community 2,NA,TRUE,j,j,NA,NA,NA,1,6,"5,1,14,11,15,2,8,3,12,10,9,4,6,13,7"
14928,commdev-image-keyboard-response,96,319996,learnblock1,428.69999998807907,img/planet12_right.png,12,Community 2,NA,TRUE,j,j,NA,NA,NA,1,6,"5,1,14,11,15,2,8,3,12,10,9,4,6,13,7"
14928,commdev-image-keyboard-response,97,321247,learnblock1,456.30000001192093,img/planet2_right.png,2,Community 2,NA,TRUE,j,j,NA,NA,NA,1,6,"5,1,14,11,15,2,8,3,12,10,9,4,6,13,7"
14928,commdev-image-keyboard-response,98,322501,learnblock1,622.5999999642372,img/planet10_right.png,10,Community 2,NA,TRUE,j,j,NA,NA,NA,1,6,"5,1,14,11,15,2,8,3,12,10,9,4,6,13,7"
14928,commdev-image-keyboard-response,99,323754,learnblock1,580.8000000119209,img/planet2_left.png,2,Community 2,NA,TRUE,f,f,NA,NA,NA,1,6,"5,1,14,11,15,2,8,3,12,10,9,4,6,13,7"
14928,commdev-image-keyboard-response,100,325006,learnblock1,946.1999999880791,img/planet11_left.png,11,Community 1,NA,TRUE,f,f,NA,NA,NA,1,6,"5,1,14,11,15,2,8,3,12,10,9,4,6,13,7"
14928,commdev-image-keyboard-response,101,326258,learnblock1,709.5999999642372,img/planet2_left.png,2,Community 2,NA,TRUE,f,f,NA,NA,NA,1,6,"5,1,14,11,15,2,8,3,12,10,9,4,6,13,7"
14928,commdev-image-keyboard-response,102,327510,learnblock1,662.1000000238419,img/planet11_right.png,11,Community 1,NA,TRUE,j,j,NA,NA,NA,1,6,"5,1,14,11,15,2,8,3,12,10,9,4,6,13,7"
14928,commdev-image-keyboard-response,103,328763,learnblock1,524.6999999880791,img/planet1_left.png,1,Community 1,NA,TRUE,f,f,NA,NA,NA,1,6,"5,1,14,11,15,2,8,3,12,10,9,4,6,13,7"
14928,commdev-image-keyboard-response,104,330015,learnblock1,572.1999999880791,img/planet5_left.png,5,Community 1,NA,TRUE,f,f,NA,NA,NA,1,6,"5,1,14,11,15,2,8,3,12,10,9,4,6,13,7"
14928,commdev-image-keyboard-response,105,331268,learnblock1,385.5999999642372,img/planet14_right.png,14,Community 1,NA,FALSE,f,j,NA,NA,NA,1,6,"5,1,14,11,15,2,8,3,12,10,9,4,6,13,7"
14928,commdev-image-keyboard-response,106,332520,learnblock1,571,img/planet15_right.png,15,Community 1,NA,TRUE,j,j,NA,NA,NA,1,6,"5,1,14,11,15,2,8,3,12,10,9,4,6,13,7"
14928,commdev-image-keyboard-response,107,333773,learnblock1,544.3000000119209,img/planet5_right.png,5,Community 1,NA,TRUE,j,j,NA,NA,NA,1,6,"5,1,14,11,15,2,8,3,12,10,9,4,6,13,7"
14928,commdev-image-keyboard-response,108,335025,learnblock1,718.6999999880791,img/planet14_left.png,14,Community 1,NA,TRUE,f,f,NA,NA,NA,1,6,"5,1,14,11,15,2,8,3,12,10,9,4,6,13,7"
14928,commdev-image-keyboard-response,109,336278,learnblock1,632.9000000357628,img/planet11_left.png,11,Community 1,NA,TRUE,f,f,NA,NA,NA,1,6,"5,1,14,11,15,2,8,3,12,10,9,4,6,13,7"
14928,commdev-image-keyboard-response,110,337531,learnblock1,699.8999999761581,img/planet5_left.png,5,Community 1,NA,TRUE,f,f,NA,NA,NA,1,6,"5,1,14,11,15,2,8,3,12,10,9,4,6,13,7"
14928,commdev-image-keyboard-response,111,338784,learnblock1,666.5,img/planet1_right.png,1,Community 1,NA,TRUE,j,j,NA,NA,NA,1,6,"5,1,14,11,15,2,8,3,12,10,9,4,6,13,7"
14928,commdev-image-keyboard-response,112,340036,learnblock1,1246.0999999642372,img/planet5_left.png,5,Community 1,NA,TRUE,f,f,NA,NA,NA,1,6,"5,1,14,11,15,2,8,3,12,10,9,4,6,13,7"
14928,commdev-image-keyboard-response,113,341288,learnblock1,724,img/planet14_right.png,14,Community 1,NA,TRUE,j,j,NA,NA,NA,1,6,"5,1,14,11,15,2,8,3,12,10,9,4,6,13,7"
14928,commdev-image-keyboard-response,114,342541,learnblock1,762.0999999642372,img/planet15_right.png,15,Community 1,NA,TRUE,j,j,NA,NA,NA,1,6,"5,1,14,11,15,2,8,3,12,10,9,4,6,13,7"
14928,commdev-image-keyboard-response,115,343794,learnblock1,547.1000000238419,img/planet1_left.png,1,Community 1,NA,TRUE,f,f,NA,NA,NA,1,6,"5,1,14,11,15,2,8,3,12,10,9,4,6,13,7"
14928,commdev-image-keyboard-response,116,345047,learnblock1,651,img/planet11_left.png,11,Community 1,NA,TRUE,f,f,NA,NA,NA,1,6,"5,1,14,11,15,2,8,3,12,10,9,4,6,13,7"
14928,commdev-image-keyboard-response,117,346300,learnblock1,600.8000000119209,img/planet2_left.png,2,Community 2,NA,FALSE,j,f,NA,NA,NA,1,6,"5,1,14,11,15,2,8,3,12,10,9,4,6,13,7"
14928,commdev-image-keyboard-response,118,347553,learnblock1,782,img/planet8_left.png,8,Community 2,NA,TRUE,f,f,NA,NA,NA,1,6,"5,1,14,11,15,2,8,3,12,10,9,4,6,13,7"
14928,commdev-image-keyboard-response,119,348806,learnblock1,632.5999999642372,img/planet12_left.png,12,Community 2,NA,TRUE,f,f,NA,NA,NA,1,6,"5,1,14,11,15,2,8,3,12,10,9,4,6,13,7"
14928,commdev-image-keyboard-response,120,350058,learnblock1,740,img/planet8_left.png,8,Community 2,NA,TRUE,f,f,NA,NA,NA,1,6,"5,1,14,11,15,2,8,3,12,10,9,4,6,13,7"
14928,commdev-image-keyboard-response,121,351311,learnblock1,583.3000000119209,img/planet3_right.png,3,Community 2,NA,TRUE,j,j,NA,NA,NA,1,6,"5,1,14,11,15,2,8,3,12,10,9,4,6,13,7"
14928,commdev-image-keyboard-response,122,352564,learnblock1,567.8000000119209,img/planet8_right.png,8,Community 2,NA,TRUE,j,j,NA,NA,NA,1,6,"5,1,14,11,15,2,8,3,12,10,9,4,6,13,7"
14928,commdev-image-keyboard-response,123,353816,learnblock1,629.8000000119209,img/planet12_right.png,12,Community 2,NA,TRUE,j,j,NA,NA,NA,1,6,"5,1,14,11,15,2,8,3,12,10,9,4,6,13,7"
14928,commdev-image-keyboard-response,124,355070,learnblock1,730.3000000119209,img/planet2_left.png,2,Community 2,NA,TRUE,f,f,NA,NA,NA,1,6,"5,1,14,11,15,2,8,3,12,10,9,4,6,13,7"
14928,commdev-image-keyboard-response,125,356322,learnblock1,961.5999999642372,img/planet11_right.png,11,Community 1,NA,TRUE,j,j,NA,NA,NA,1,6,"5,1,14,11,15,2,8,3,12,10,9,4,6,13,7"
14928,commdev-image-keyboard-response,126,357575,learnblock1,1031.6000000238419,img/planet14_right.png,14,Community 1,NA,FALSE,f,j,NA,NA,NA,1,6,"5,1,14,11,15,2,8,3,12,10,9,4,6,13,7"
14928,commdev-image-keyboard-response,127,358826,learnblock1,671.1000000238419,img/planet5_left.png,5,Community 1,NA,TRUE,f,f,NA,NA,NA,1,6,"5,1,14,11,15,2,8,3,12,10,9,4,6,13,7"
14928,commdev-image-keyboard-response,128,360080,learnblock1,614.6000000238419,img/planet11_right.png,11,Community 1,NA,TRUE,j,j,NA,NA,NA,1,6,"5,1,14,11,15,2,8,3,12,10,9,4,6,13,7"
14928,commdev-image-keyboard-response,129,361333,learnblock1,667.5,img/planet2_right.png,2,Community 2,NA,TRUE,j,j,NA,NA,NA,1,6,"5,1,14,11,15,2,8,3,12,10,9,4,6,13,7"
14928,commdev-image-keyboard-response,130,362585,learnblock1,459.30000001192093,img/planet10_right.png,10,Community 2,NA,TRUE,j,j,NA,NA,NA,1,6,"5,1,14,11,15,2,8,3,12,10,9,4,6,13,7"
14928,commdev-image-keyboard-response,131,363837,learnblock1,559.5,img/planet12_right.png,12,Community 2,NA,TRUE,j,j,NA,NA,NA,1,6,"5,1,14,11,15,2,8,3,12,10,9,4,6,13,7"
14928,commdev-image-keyboard-response,132,365090,learnblock1,913.6999999880791,img/planet3_left.png,3,Community 2,NA,TRUE,f,f,NA,NA,NA,1,6,"5,1,14,11,15,2,8,3,12,10,9,4,6,13,7"
14928,commdev-image-keyboard-response,133,366343,learnblock1,629,img/planet4_left.png,4,Community 3,NA,TRUE,f,f,NA,NA,NA,1,6,"5,1,14,11,15,2,8,3,12,10,9,4,6,13,7"
14928,commdev-image-keyboard-response,134,367595,learnblock1,938.1999999880791,img/planet3_right.png,3,Community 2,NA,TRUE,j,j,NA,NA,NA,1,6,"5,1,14,11,15,2,8,3,12,10,9,4,6,13,7"
14928,commdev-image-keyboard-response,135,368847,learnblock1,907.8000000119209,img/planet12_left.png,12,Community 2,NA,TRUE,f,f,NA,NA,NA,1,6,"5,1,14,11,15,2,8,3,12,10,9,4,6,13,7"
14928,commdev-image-keyboard-response,136,370099,learnblock1,761,img/planet8_right.png,8,Community 2,NA,TRUE,j,j,NA,NA,NA,1,6,"5,1,14,11,15,2,8,3,12,10,9,4,6,13,7"
14928,commdev-image-keyboard-response,137,371353,learnblock1,798.6000000238419,img/planet3_left.png,3,Community 2,NA,TRUE,f,f,NA,NA,NA,1,6,"5,1,14,11,15,2,8,3,12,10,9,4,6,13,7"
14928,commdev-image-keyboard-response,138,372606,learnblock1,728.4000000357628,img/planet10_left.png,10,Community 2,NA,FALSE,j,f,NA,NA,NA,1,6,"5,1,14,11,15,2,8,3,12,10,9,4,6,13,7"
14928,commdev-image-keyboard-response,139,373858,learnblock1,669.5,img/planet3_right.png,3,Community 2,NA,TRUE,j,j,NA,NA,NA,1,6,"5,1,14,11,15,2,8,3,12,10,9,4,6,13,7"
14928,commdev-image-keyboard-response,140,375111,learnblock1,654.5,img/planet10_right.png,10,Community 2,NA,TRUE,j,j,NA,NA,NA,1,6,"5,1,14,11,15,2,8,3,12,10,9,4,6,13,7"
14928,commdev-image-keyboard-response,141,376364,learnblock1,664.5999999642372,img/planet3_right.png,3,Community 2,NA,TRUE,j,j,NA,NA,NA,1,6,"5,1,14,11,15,2,8,3,12,10,9,4,6,13,7"
14928,commdev-image-keyboard-response,142,377617,learnblock1,579.8999999761581,img/planet8_right.png,8,Community 2,NA,TRUE,j,j,NA,NA,NA,1,6,"5,1,14,11,15,2,8,3,12,10,9,4,6,13,7"
14928,commdev-image-keyboard-response,143,378870,learnblock1,620.5,img/planet2_left.png,2,Community 2,NA,TRUE,f,f,NA,NA,NA,1,6,"5,1,14,11,15,2,8,3,12,10,9,4,6,13,7"
14928,commdev-image-keyboard-response,144,380124,learnblock1,679.3999999761581,img/planet10_left.png,10,Community 2,NA,TRUE,f,f,NA,NA,NA,1,6,"5,1,14,11,15,2,8,3,12,10,9,4,6,13,7"
14928,commdev-image-keyboard-response,145,381377,learnblock1,577.8000000119209,img/planet8_right.png,8,Community 2,NA,TRUE,j,j,NA,NA,NA,1,6,"5,1,14,11,15,2,8,3,12,10,9,4,6,13,7"
14928,commdev-image-keyboard-response,146,382630,learnblock1,987.5,img/planet3_right.png,3,Community 2,NA,FALSE,f,j,NA,NA,NA,1,6,"5,1,14,11,15,2,8,3,12,10,9,4,6,13,7"
14928,commdev-image-keyboard-response,147,383883,learnblock1,884.3000000119209,img/planet10_right.png,10,Community 2,NA,TRUE,j,j,NA,NA,NA,1,6,"5,1,14,11,15,2,8,3,12,10,9,4,6,13,7"
14928,commdev-image-keyboard-response,148,385135,learnblock1,708.9000000357628,img/planet12_right.png,12,Community 2,NA,TRUE,j,j,NA,NA,NA,1,6,"5,1,14,11,15,2,8,3,12,10,9,4,6,13,7"
14928,commdev-image-keyboard-response,149,386388,learnblock1,676.5,img/planet3_left.png,3,Community 2,NA,TRUE,f,f,NA,NA,NA,1,6,"5,1,14,11,15,2,8,3,12,10,9,4,6,13,7"
14928,commdev-image-keyboard-response,150,387640,learnblock1,857,img/planet8_right.png,8,Community 2,NA,TRUE,j,j,NA,NA,NA,1,6,"5,1,14,11,15,2,8,3,12,10,9,4,6,13,7"
14928,commdev-image-keyboard-response,151,388893,learnblock1,612.6999999880791,img/planet12_right.png,12,Community 2,NA,TRUE,j,j,NA,NA,NA,1,6,"5,1,14,11,15,2,8,3,12,10,9,4,6,13,7"
14928,commdev-image-keyboard-response,152,390145,learnblock1,562.5,img/planet2_right.png,2,Community 2,NA,TRUE,j,j,NA,NA,NA,1,6,"5,1,14,11,15,2,8,3,12,10,9,4,6,13,7"
14928,commdev-image-keyboard-response,153,391399,learnblock1,940.9000000357628,img/planet12_left.png,12,Community 2,NA,TRUE,f,f,NA,NA,NA,1,6,"5,1,14,11,15,2,8,3,12,10,9,4,6,13,7"
14928,commdev-image-keyboard-response,154,392651,learnblock1,966.8999999761581,img/planet3_left.png,3,Community 2,NA,TRUE,f,f,NA,NA,NA,1,6,"5,1,14,11,15,2,8,3,12,10,9,4,6,13,7"
14928,commdev-image-keyboard-response,155,393903,learnblock1,915.1000000238419,img/planet10_left.png,10,Community 2,NA,TRUE,f,f,NA,NA,NA,1,6,"5,1,14,11,15,2,8,3,12,10,9,4,6,13,7"
14928,commdev-image-keyboard-response,156,395156,learnblock1,438.5,img/planet2_left.png,2,Community 2,NA,TRUE,f,f,NA,NA,NA,1,6,"5,1,14,11,15,2,8,3,12,10,9,4,6,13,7"
14928,commdev-image-keyboard-response,157,396409,learnblock1,771.1999999880791,img/planet12_right.png,12,Community 2,NA,TRUE,j,j,NA,NA,NA,1,6,"5,1,14,11,15,2,8,3,12,10,9,4,6,13,7"
14928,commdev-image-keyboard-response,158,397662,learnblock1,942,img/planet10_left.png,10,Community 2,NA,TRUE,f,f,NA,NA,NA,1,6,"5,1,14,11,15,2,8,3,12,10,9,4,6,13,7"
14928,commdev-image-keyboard-response,159,398914,learnblock1,565.1999999880791,img/planet3_left.png,3,Community 2,NA,TRUE,f,f,NA,NA,NA,1,6,"5,1,14,11,15,2,8,3,12,10,9,4,6,13,7"
14928,commdev-image-keyboard-response,160,400166,learnblock1,587,img/planet4_left.png,4,Community 3,NA,TRUE,f,f,NA,NA,NA,1,6,"5,1,14,11,15,2,8,3,12,10,9,4,6,13,7"
14928,commdev-image-keyboard-response,161,401419,learnblock1,520.8000000119209,img/planet7_left.png,7,Community 3,NA,TRUE,f,f,NA,NA,NA,1,6,"5,1,14,11,15,2,8,3,12,10,9,4,6,13,7"
14928,commdev-image-keyboard-response,162,402672,learnblock1,913.5999999642372,img/planet6_right.png,6,Community 3,NA,TRUE,j,j,NA,NA,NA,1,6,"5,1,14,11,15,2,8,3,12,10,9,4,6,13,7"
14928,commdev-image-keyboard-response,163,403923,learnblock1,806.4000000357628,img/planet9_right.png,9,Community 3,NA,TRUE,j,j,NA,NA,NA,1,6,"5,1,14,11,15,2,8,3,12,10,9,4,6,13,7"
14928,commdev-image-keyboard-response,164,405176,learnblock1,789.1000000238419,img/planet6_left.png,6,Community 3,NA,TRUE,f,f,NA,NA,NA,1,6,"5,1,14,11,15,2,8,3,12,10,9,4,6,13,7"
14928,commdev-image-keyboard-response,165,406429,learnblock1,751.6999999880791,img/planet4_left.png,4,Community 3,NA,TRUE,f,f,NA,NA,NA,1,6,"5,1,14,11,15,2,8,3,12,10,9,4,6,13,7"
14928,commdev-image-keyboard-response,166,407680,learnblock1,586.3000000119209,img/planet13_left.png,13,Community 3,NA,TRUE,f,f,NA,NA,NA,1,6,"5,1,14,11,15,2,8,3,12,10,9,4,6,13,7"
14928,commdev-image-keyboard-response,167,408933,learnblock1,527.2999999523163,img/planet9_left.png,9,Community 3,NA,TRUE,f,f,NA,NA,NA,1,6,"5,1,14,11,15,2,8,3,12,10,9,4,6,13,7"
14928,commdev-image-keyboard-response,168,410185,learnblock1,590.1000000238419,img/planet6_right.png,6,Community 3,NA,FALSE,f,j,NA,NA,NA,1,6,"5,1,14,11,15,2,8,3,12,10,9,4,6,13,7"
14928,commdev-image-keyboard-response,169,411438,learnblock1,937.6999999880791,img/planet4_left.png,4,Community 3,NA,TRUE,f,f,NA,NA,NA,1,6,"5,1,14,11,15,2,8,3,12,10,9,4,6,13,7"
14928,commdev-image-keyboard-response,170,412690,learnblock1,871.3999999761581,img/planet3_left.png,3,Community 2,NA,TRUE,f,f,NA,NA,NA,1,6,"5,1,14,11,15,2,8,3,12,10,9,4,6,13,7"
14928,commdev-image-keyboard-response,171,413944,learnblock1,619.2000000476837,img/planet4_left.png,4,Community 3,NA,TRUE,f,f,NA,NA,NA,1,6,"5,1,14,11,15,2,8,3,12,10,9,4,6,13,7"
14928,commdev-image-keyboard-response,172,415197,learnblock1,660.0999999642372,img/planet7_left.png,7,Community 3,NA,TRUE,f,f,NA,NA,NA,1,6,"5,1,14,11,15,2,8,3,12,10,9,4,6,13,7"
14928,commdev-image-keyboard-response,173,416450,learnblock1,690,img/planet13_left.png,13,Community 3,NA,TRUE,f,f,NA,NA,NA,1,6,"5,1,14,11,15,2,8,3,12,10,9,4,6,13,7"
14928,commdev-image-keyboard-response,174,417704,learnblock1,633.4000000357628,img/planet6_left.png,6,Community 3,NA,TRUE,f,f,NA,NA,NA,1,6,"5,1,14,11,15,2,8,3,12,10,9,4,6,13,7"
14928,commdev-image-keyboard-response,175,418956,learnblock1,685.1999999880791,img/planet13_right.png,13,Community 3,NA,TRUE,j,j,NA,NA,NA,1,6,"5,1,14,11,15,2,8,3,12,10,9,4,6,13,7"
14928,commdev-image-keyboard-response,176,420209,learnblock1,580.1000000238419,img/planet9_right.png,9,Community 3,NA,FALSE,f,j,NA,NA,NA,1,6,"5,1,14,11,15,2,8,3,12,10,9,4,6,13,7"
14928,commdev-image-keyboard-response,177,421461,learnblock1,502.19999998807907,img/planet6_right.png,6,Community 3,NA,TRUE,j,j,NA,NA,NA,1,6,"5,1,14,11,15,2,8,3,12,10,9,4,6,13,7"
14928,commdev-image-keyboard-response,178,422713,learnblock1,1117.300000011921,img/planet7_left.png,7,Community 3,NA,TRUE,f,f,NA,NA,NA,1,6,"5,1,14,11,15,2,8,3,12,10,9,4,6,13,7"
14928,commdev-image-keyboard-response,179,423965,learnblock1,695.5,img/planet13_left.png,13,Community 3,NA,TRUE,f,f,NA,NA,NA,1,6,"5,1,14,11,15,2,8,3,12,10,9,4,6,13,7"
14928,commdev-image-keyboard-response,180,425218,learnblock1,786.8999999761581,img/planet7_right.png,7,Community 3,NA,TRUE,j,j,NA,NA,NA,1,6,"5,1,14,11,15,2,8,3,12,10,9,4,6,13,7"
14928,commdev-image-keyboard-response,181,426471,learnblock1,575.9000000357628,img/planet6_right.png,6,Community 3,NA,TRUE,j,j,NA,NA,NA,1,6,"5,1,14,11,15,2,8,3,12,10,9,4,6,13,7"
14928,commdev-image-keyboard-response,182,427724,learnblock1,1037,img/planet7_left.png,7,Community 3,NA,TRUE,f,f,NA,NA,NA,1,6,"5,1,14,11,15,2,8,3,12,10,9,4,6,13,7"
14928,commdev-image-keyboard-response,183,428977,learnblock1,1094.199999988079,img/planet6_right.png,6,Community 3,NA,TRUE,j,j,NA,NA,NA,1,6,"5,1,14,11,15,2,8,3,12,10,9,4,6,13,7"
14928,commdev-image-keyboard-response,184,430229,learnblock1,706.4000000357628,img/planet13_left.png,13,Community 3,NA,TRUE,f,f,NA,NA,NA,1,6,"5,1,14,11,15,2,8,3,12,10,9,4,6,13,7"
14928,commdev-image-keyboard-response,185,431481,learnblock1,600.6999999880791,img/planet7_right.png,7,Community 3,NA,TRUE,j,j,NA,NA,NA,1,6,"5,1,14,11,15,2,8,3,12,10,9,4,6,13,7"
14928,commdev-image-keyboard-response,186,432734,learnblock1,620.3000000119209,img/planet4_right.png,4,Community 3,NA,TRUE,j,j,NA,NA,NA,1,6,"5,1,14,11,15,2,8,3,12,10,9,4,6,13,7"
14928,commdev-image-keyboard-response,187,433987,learnblock1,772.1999999880791,img/planet6_left.png,6,Community 3,NA,TRUE,f,f,NA,NA,NA,1,6,"5,1,14,11,15,2,8,3,12,10,9,4,6,13,7"
14928,commdev-image-keyboard-response,188,435239,learnblock1,null,img/planet7_left.png,7,Community 3,NA,FALSE,null,f,NA,NA,NA,1,6,"5,1,14,11,15,2,8,3,12,10,9,4,6,13,7"
14928,commdev-image-keyboard-response,189,436492,learnblock1,208.69999998807907,img/planet6_left.png,6,Community 3,NA,TRUE,f,f,NA,NA,NA,1,6,"5,1,14,11,15,2,8,3,12,10,9,4,6,13,7"
14928,commdev-image-keyboard-response,190,437744,learnblock1,800.6000000238419,img/planet9_left.png,9,Community 3,NA,TRUE,f,f,NA,NA,NA,1,6,"5,1,14,11,15,2,8,3,12,10,9,4,6,13,7"
14928,commdev-image-keyboard-response,191,438997,learnblock1,null,img/planet15_right.png,15,Community 1,NA,FALSE,null,j,NA,NA,NA,1,6,"5,1,14,11,15,2,8,3,12,10,9,4,6,13,7"
14928,commdev-image-keyboard-response,192,440250,learnblock1,920.7999999523163,img/planet1_right.png,1,Community 1,NA,TRUE,j,j,NA,NA,NA,1,6,"5,1,14,11,15,2,8,3,12,10,9,4,6,13,7"
14928,commdev-image-keyboard-response,193,441502,learnblock1,643.5,img/planet5_right.png,5,Community 1,NA,TRUE,j,j,NA,NA,NA,1,6,"5,1,14,11,15,2,8,3,12,10,9,4,6,13,7"
14928,commdev-image-keyboard-response,194,442755,learnblock1,null,img/planet14_right.png,14,Community 1,NA,FALSE,null,j,NA,NA,NA,1,6,"5,1,14,11,15,2,8,3,12,10,9,4,6,13,7"
14928,commdev-image-keyboard-response,195,444008,learnblock1,15.899999976158142,img/planet5_left.png,5,Community 1,NA,TRUE,f,f,NA,NA,NA,1,6,"5,1,14,11,15,2,8,3,12,10,9,4,6,13,7"
14928,commdev-image-keyboard-response,196,445261,learnblock1,null,img/planet1_right.png,1,Community 1,NA,FALSE,null,j,NA,NA,NA,1,6,"5,1,14,11,15,2,8,3,12,10,9,4,6,13,7"
14928,commdev-image-keyboard-response,197,446514,learnblock1,39.5,img/planet11_right.png,11,Community 1,NA,FALSE,f,j,NA,NA,NA,1,6,"5,1,14,11,15,2,8,3,12,10,9,4,6,13,7"
14928,commdev-image-keyboard-response,198,447766,learnblock1,535.8999999761581,img/planet1_right.png,1,Community 1,NA,TRUE,j,j,NA,NA,NA,1,6,"5,1,14,11,15,2,8,3,12,10,9,4,6,13,7"
14928,commdev-image-keyboard-response,199,449020,learnblock1,706.8000000119209,img/planet11_right.png,11,Community 1,NA,TRUE,j,j,NA,NA,NA,1,6,"5,1,14,11,15,2,8,3,12,10,9,4,6,13,7"
14928,commdev-image-keyboard-response,200,450273,learnblock1,1032.699999988079,img/planet14_left.png,14,Community 1,NA,TRUE,f,f,NA,NA,NA,1,6,"5,1,14,11,15,2,8,3,12,10,9,4,6,13,7"
14928,commdev-image-keyboard-response,201,451526,learnblock1,979.1999999880791,img/planet11_left.png,11,Community 1,NA,TRUE,f,f,NA,NA,NA,1,6,"5,1,14,11,15,2,8,3,12,10,9,4,6,13,7"
14928,commdev-image-keyboard-response,202,452779,learnblock1,762,img/planet1_right.png,1,Community 1,NA,TRUE,j,j,NA,NA,NA,1,6,"5,1,14,11,15,2,8,3,12,10,9,4,6,13,7"
14928,commdev-image-keyboard-response,203,454032,learnblock1,855.6000000238419,img/planet5_left.png,5,Community 1,NA,TRUE,f,f,NA,NA,NA,1,6,"5,1,14,11,15,2,8,3,12,10,9,4,6,13,7"
14928,commdev-image-keyboard-response,204,455284,learnblock1,925.5,img/planet11_right.png,11,Community 1,NA,TRUE,j,j,NA,NA,NA,1,6,"5,1,14,11,15,2,8,3,12,10,9,4,6,13,7"
14928,commdev-image-keyboard-response,205,456538,learnblock1,959.5999999642372,img/planet5_left.png,5,Community 1,NA,TRUE,f,f,NA,NA,NA,1,6,"5,1,14,11,15,2,8,3,12,10,9,4,6,13,7"
14928,commdev-image-keyboard-response,206,457789,learnblock1,847,img/planet11_right.png,11,Community 1,NA,TRUE,j,j,NA,NA,NA,1,6,"5,1,14,11,15,2,8,3,12,10,9,4,6,13,7"
14928,commdev-image-keyboard-response,207,459042,learnblock1,782.5,img/planet1_left.png,1,Community 1,NA,TRUE,f,f,NA,NA,NA,1,6,"5,1,14,11,15,2,8,3,12,10,9,4,6,13,7"
14928,commdev-image-keyboard-response,208,460295,learnblock1,681,img/planet15_left.png,15,Community 1,NA,TRUE,f,f,NA,NA,NA,1,6,"5,1,14,11,15,2,8,3,12,10,9,4,6,13,7"
14928,commdev-image-keyboard-response,209,461547,learnblock1,832.6999999880791,img/planet9_right.png,9,Community 3,NA,TRUE,j,j,NA,NA,NA,1,6,"5,1,14,11,15,2,8,3,12,10,9,4,6,13,7"
14928,commdev-image-keyboard-response,210,462800,learnblock1,721.7000000476837,img/planet13_right.png,13,Community 3,NA,TRUE,j,j,NA,NA,NA,1,6,"5,1,14,11,15,2,8,3,12,10,9,4,6,13,7"
14928,commdev-image-keyboard-response,211,464053,learnblock1,633.1999999880791,img/planet6_left.png,6,Community 3,NA,TRUE,f,f,NA,NA,NA,1,6,"5,1,14,11,15,2,8,3,12,10,9,4,6,13,7"
14928,commdev-image-keyboard-response,212,465306,learnblock1,602.2000000476837,img/planet9_right.png,9,Community 3,NA,TRUE,j,j,NA,NA,NA,1,6,"5,1,14,11,15,2,8,3,12,10,9,4,6,13,7"
14928,commdev-image-keyboard-response,213,466560,learnblock1,822.2000000476837,img/planet6_right.png,6,Community 3,NA,TRUE,j,j,NA,NA,NA,1,6,"5,1,14,11,15,2,8,3,12,10,9,4,6,13,7"
14928,commdev-image-keyboard-response,214,467812,learnblock1,588.2000000476837,img/planet4_right.png,4,Community 3,NA,TRUE,j,j,NA,NA,NA,1,6,"5,1,14,11,15,2,8,3,12,10,9,4,6,13,7"
14928,commdev-image-keyboard-response,215,469066,learnblock1,601,img/planet13_left.png,13,Community 3,NA,TRUE,f,f,NA,NA,NA,1,6,"5,1,14,11,15,2,8,3,12,10,9,4,6,13,7"
14928,commdev-image-keyboard-response,216,470318,learnblock1,685.3999999761581,img/planet9_right.png,9,Community 3,NA,TRUE,j,j,NA,NA,NA,1,6,"5,1,14,11,15,2,8,3,12,10,9,4,6,13,7"
14928,commdev-image-keyboard-response,217,471570,learnblock1,604.1999999880791,img/planet7_left.png,7,Community 3,NA,FALSE,j,f,NA,NA,NA,1,6,"5,1,14,11,15,2,8,3,12,10,9,4,6,13,7"
14928,commdev-image-keyboard-response,218,472823,learnblock1,711.3000000119209,img/planet9_right.png,9,Community 3,NA,TRUE,j,j,NA,NA,NA,1,6,"5,1,14,11,15,2,8,3,12,10,9,4,6,13,7"
14928,commdev-image-keyboard-response,219,474076,learnblock1,1020,img/planet6_left.png,6,Community 3,NA,TRUE,f,f,NA,NA,NA,1,6,"5,1,14,11,15,2,8,3,12,10,9,4,6,13,7"
14928,commdev-image-keyboard-response,220,475329,learnblock1,1186.800000011921,img/planet9_left.png,9,Community 3,NA,TRUE,f,f,NA,NA,NA,1,6,"5,1,14,11,15,2,8,3,12,10,9,4,6,13,7"
14928,commdev-image-keyboard-response,221,476581,learnblock1,945.8000000119209,img/planet13_left.png,13,Community 3,NA,TRUE,f,f,NA,NA,NA,1,6,"5,1,14,11,15,2,8,3,12,10,9,4,6,13,7"
14928,commdev-image-keyboard-response,222,477834,learnblock1,null,img/planet6_left.png,6,Community 3,NA,FALSE,null,f,NA,NA,NA,1,6,"5,1,14,11,15,2,8,3,12,10,9,4,6,13,7"
14928,commdev-image-keyboard-response,223,479088,learnblock1,41.60000002384186,img/planet7_right.png,7,Community 3,NA,FALSE,f,j,NA,NA,NA,1,6,"5,1,14,11,15,2,8,3,12,10,9,4,6,13,7"
14928,commdev-image-keyboard-response,224,480339,learnblock1,835.3999999761581,img/planet6_right.png,6,Community 3,NA,TRUE,j,j,NA,NA,NA,1,6,"5,1,14,11,15,2,8,3,12,10,9,4,6,13,7"
14928,commdev-image-keyboard-response,225,481592,learnblock1,1101.300000011921,img/planet7_left.png,7,Community 3,NA,TRUE,f,f,NA,NA,NA,1,6,"5,1,14,11,15,2,8,3,12,10,9,4,6,13,7"
14928,commdev-image-keyboard-response,226,482845,learnblock1,803.8000000119209,img/planet6_left.png,6,Community 3,NA,TRUE,f,f,NA,NA,NA,1,6,"5,1,14,11,15,2,8,3,12,10,9,4,6,13,7"
14928,commdev-image-keyboard-response,227,484098,learnblock1,831.3999999761581,img/planet13_left.png,13,Community 3,NA,TRUE,f,f,NA,NA,NA,1,6,"5,1,14,11,15,2,8,3,12,10,9,4,6,13,7"
14928,commdev-image-keyboard-response,228,485350,learnblock1,null,img/planet9_left.png,9,Community 3,NA,FALSE,null,f,NA,NA,NA,1,6,"5,1,14,11,15,2,8,3,12,10,9,4,6,13,7"
14928,commdev-image-keyboard-response,229,486602,learnblock1,225,img/planet15_left.png,15,Community 1,NA,FALSE,j,f,NA,NA,NA,1,6,"5,1,14,11,15,2,8,3,12,10,9,4,6,13,7"
14928,commdev-image-keyboard-response,230,487855,learnblock1,1065,img/planet5_right.png,5,Community 1,NA,TRUE,j,j,NA,NA,NA,1,6,"5,1,14,11,15,2,8,3,12,10,9,4,6,13,7"
14928,commdev-image-keyboard-response,231,489107,learnblock1,872.5,img/planet14_right.png,14,Community 1,NA,TRUE,j,j,NA,NA,NA,1,6,"5,1,14,11,15,2,8,3,12,10,9,4,6,13,7"
14928,commdev-image-keyboard-response,232,490359,learnblock1,1220,img/planet5_right.png,5,Community 1,NA,TRUE,j,j,NA,NA,NA,1,6,"5,1,14,11,15,2,8,3,12,10,9,4,6,13,7"
14928,commdev-image-keyboard-response,233,491612,learnblock1,1023.5,img/planet1_right.png,1,Community 1,NA,TRUE,j,j,NA,NA,NA,1,6,"5,1,14,11,15,2,8,3,12,10,9,4,6,13,7"
14928,commdev-image-keyboard-response,234,492864,learnblock1,null,img/planet11_right.png,11,Community 1,NA,FALSE,null,j,NA,NA,NA,1,6,"5,1,14,11,15,2,8,3,12,10,9,4,6,13,7"
14928,commdev-image-keyboard-response,235,494118,learnblock1,118.19999998807907,img/planet2_right.png,2,Community 2,NA,TRUE,j,j,NA,NA,NA,1,6,"5,1,14,11,15,2,8,3,12,10,9,4,6,13,7"
14928,commdev-image-keyboard-response,236,495371,learnblock1,564,img/planet10_left.png,10,Community 2,NA,TRUE,f,f,NA,NA,NA,1,6,"5,1,14,11,15,2,8,3,12,10,9,4,6,13,7"
14928,commdev-image-keyboard-response,237,496623,learnblock1,640.4000000357628,img/planet12_left.png,12,Community 2,NA,TRUE,f,f,NA,NA,NA,1,6,"5,1,14,11,15,2,8,3,12,10,9,4,6,13,7"
14928,commdev-image-keyboard-response,238,497876,learnblock1,672.6999999880791,img/planet2_right.png,2,Community 2,NA,TRUE,j,j,NA,NA,NA,1,6,"5,1,14,11,15,2,8,3,12,10,9,4,6,13,7"
14928,commdev-image-keyboard-response,239,499129,learnblock1,808.5999999642372,img/planet12_right.png,12,Community 2,NA,TRUE,j,j,NA,NA,NA,1,6,"5,1,14,11,15,2,8,3,12,10,9,4,6,13,7"
14928,commdev-image-keyboard-response,240,500381,learnblock1,584.3000000119209,img/planet2_right.png,2,Community 2,NA,TRUE,j,j,NA,NA,NA,1,6,"5,1,14,11,15,2,8,3,12,10,9,4,6,13,7"
14928,commdev-image-keyboard-response,241,501633,learnblock1,721.3999999761581,img/planet11_right.png,11,Community 1,NA,TRUE,j,j,NA,NA,NA,1,6,"5,1,14,11,15,2,8,3,12,10,9,4,6,13,7"
14928,commdev-image-keyboard-response,242,502886,learnblock1,577.5,img/planet5_right.png,5,Community 1,NA,TRUE,j,j,NA,NA,NA,1,6,"5,1,14,11,15,2,8,3,12,10,9,4,6,13,7"
14928,commdev-image-keyboard-response,243,504140,learnblock1,530.8999999761581,img/planet1_right.png,1,Community 1,NA,TRUE,j,j,NA,NA,NA,1,6,"5,1,14,11,15,2,8,3,12,10,9,4,6,13,7"
14928,commdev-image-keyboard-response,244,505392,learnblock1,681.1000000238419,img/planet11_right.png,11,Community 1,NA,TRUE,j,j,NA,NA,NA,1,6,"5,1,14,11,15,2,8,3,12,10,9,4,6,13,7"
14928,commdev-image-keyboard-response,245,506645,learnblock1,562.5,img/planet1_right.png,1,Community 1,NA,TRUE,j,j,NA,NA,NA,1,6,"5,1,14,11,15,2,8,3,12,10,9,4,6,13,7"
14928,commdev-image-keyboard-response,246,507898,learnblock1,930.6000000238419,img/planet5_left.png,5,Community 1,NA,TRUE,f,f,NA,NA,NA,1,6,"5,1,14,11,15,2,8,3,12,10,9,4,6,13,7"
14928,commdev-image-keyboard-response,247,509150,learnblock1,1036,img/planet11_left.png,11,Community 1,NA,TRUE,f,f,NA,NA,NA,1,6,"5,1,14,11,15,2,8,3,12,10,9,4,6,13,7"
14928,commdev-image-keyboard-response,248,510402,learnblock1,877.8999999761581,img/planet1_right.png,1,Community 1,NA,TRUE,j,j,NA,NA,NA,1,6,"5,1,14,11,15,2,8,3,12,10,9,4,6,13,7"
14928,commdev-image-keyboard-response,249,511655,learnblock1,1078.9000000357628,img/planet15_right.png,15,Community 1,NA,TRUE,j,j,NA,NA,NA,1,6,"5,1,14,11,15,2,8,3,12,10,9,4,6,13,7"
14928,commdev-image-keyboard-response,250,512908,learnblock1,926.0999999642372,img/planet5_left.png,5,Community 1,NA,TRUE,f,f,NA,NA,NA,1,6,"5,1,14,11,15,2,8,3,12,10,9,4,6,13,7"
14928,commdev-image-keyboard-response,251,514161,learnblock1,646.3999999761581,img/planet1_left.png,1,Community 1,NA,TRUE,f,f,NA,NA,NA,1,6,"5,1,14,11,15,2,8,3,12,10,9,4,6,13,7"
14928,commdev-image-keyboard-response,252,515414,learnblock1,767,img/planet14_left.png,14,Community 1,NA,TRUE,f,f,NA,NA,NA,1,6,"5,1,14,11,15,2,8,3,12,10,9,4,6,13,7"
14928,commdev-image-keyboard-response,253,516667,learnblock1,null,img/planet11_left.png,11,Community 1,NA,FALSE,null,f,NA,NA,NA,1,6,"5,1,14,11,15,2,8,3,12,10,9,4,6,13,7"
14928,commdev-image-keyboard-response,254,517920,learnblock1,831.5,img/planet14_right.png,14,Community 1,NA,TRUE,j,j,NA,NA,NA,1,6,"5,1,14,11,15,2,8,3,12,10,9,4,6,13,7"
14928,commdev-image-keyboard-response,255,519172,learnblock1,1076,img/planet15_right.png,15,Community 1,NA,TRUE,j,j,NA,NA,NA,1,6,"5,1,14,11,15,2,8,3,12,10,9,4,6,13,7"
14928,commdev-image-keyboard-response,256,520424,learnblock1,729.8000000119209,img/planet5_right.png,5,Community 1,NA,TRUE,j,j,NA,NA,NA,1,6,"5,1,14,11,15,2,8,3,12,10,9,4,6,13,7"
14928,commdev-image-keyboard-response,257,521676,learnblock1,1177.699999988079,img/planet11_left.png,11,Community 1,NA,TRUE,f,f,NA,NA,NA,1,6,"5,1,14,11,15,2,8,3,12,10,9,4,6,13,7"
14928,commdev-image-keyboard-response,258,522929,learnblock1,741.8999999761581,img/planet14_right.png,14,Community 1,NA,TRUE,j,j,NA,NA,NA,1,6,"5,1,14,11,15,2,8,3,12,10,9,4,6,13,7"
14928,commdev-image-keyboard-response,259,524180,learnblock1,617.1999999880791,img/planet11_right.png,11,Community 1,NA,TRUE,j,j,NA,NA,NA,1,6,"5,1,14,11,15,2,8,3,12,10,9,4,6,13,7"
14928,commdev-image-keyboard-response,260,525433,learnblock1,722.3000000119209,img/planet5_left.png,5,Community 1,NA,TRUE,f,f,NA,NA,NA,1,6,"5,1,14,11,15,2,8,3,12,10,9,4,6,13,7"
14928,commdev-image-keyboard-response,261,526686,learnblock1,987,img/planet15_left.png,15,Community 1,NA,TRUE,f,f,NA,NA,NA,1,6,"5,1,14,11,15,2,8,3,12,10,9,4,6,13,7"
14928,commdev-image-keyboard-response,262,527939,learnblock1,658.3999999761581,img/planet14_right.png,14,Community 1,NA,TRUE,j,j,NA,NA,NA,1,6,"5,1,14,11,15,2,8,3,12,10,9,4,6,13,7"
14928,commdev-image-keyboard-response,263,529192,learnblock1,787.8999999761581,img/planet1_right.png,1,Community 1,NA,TRUE,j,j,NA,NA,NA,1,6,"5,1,14,11,15,2,8,3,12,10,9,4,6,13,7"
14928,commdev-image-keyboard-response,264,530444,learnblock1,823.5,img/planet11_right.png,11,Community 1,NA,TRUE,j,j,NA,NA,NA,1,6,"5,1,14,11,15,2,8,3,12,10,9,4,6,13,7"
14928,commdev-image-keyboard-response,265,531697,learnblock1,642.4000000357628,img/planet1_right.png,1,Community 1,NA,TRUE,j,j,NA,NA,NA,1,6,"5,1,14,11,15,2,8,3,12,10,9,4,6,13,7"
14928,commdev-image-keyboard-response,266,532950,learnblock1,614.1999999880791,img/planet5_right.png,5,Community 1,NA,TRUE,j,j,NA,NA,NA,1,6,"5,1,14,11,15,2,8,3,12,10,9,4,6,13,7"
14928,commdev-image-keyboard-response,267,534203,learnblock1,732.4000000357628,img/planet14_left.png,14,Community 1,NA,TRUE,f,f,NA,NA,NA,1,6,"5,1,14,11,15,2,8,3,12,10,9,4,6,13,7"
14928,commdev-image-keyboard-response,268,535454,learnblock1,677.6000000238419,img/planet1_left.png,1,Community 1,NA,FALSE,j,f,NA,NA,NA,1,6,"5,1,14,11,15,2,8,3,12,10,9,4,6,13,7"
14928,commdev-image-keyboard-response,269,536707,learnblock1,849.9000000357628,img/planet5_right.png,5,Community 1,NA,TRUE,j,j,NA,NA,NA,1,6,"5,1,14,11,15,2,8,3,12,10,9,4,6,13,7"
14928,commdev-image-keyboard-response,270,537960,learnblock1,847.0999999642372,img/planet11_left.png,11,Community 1,NA,TRUE,f,f,NA,NA,NA,1,6,"5,1,14,11,15,2,8,3,12,10,9,4,6,13,7"
14928,commdev-image-keyboard-response,271,539211,learnblock1,1130.699999988079,img/planet5_right.png,5,Community 1,NA,TRUE,j,j,NA,NA,NA,1,6,"5,1,14,11,15,2,8,3,12,10,9,4,6,13,7"
14928,commdev-image-keyboard-response,272,540463,learnblock1,826.1999999880791,img/planet14_left.png,14,Community 1,NA,TRUE,f,f,NA,NA,NA,1,6,"5,1,14,11,15,2,8,3,12,10,9,4,6,13,7"
14928,commdev-image-keyboard-response,273,541716,learnblock1,808.3000000119209,img/planet11_right.png,11,Community 1,NA,TRUE,j,j,NA,NA,NA,1,6,"5,1,14,11,15,2,8,3,12,10,9,4,6,13,7"
14928,commdev-image-keyboard-response,274,542969,learnblock1,996.4000000357628,img/planet5_left.png,5,Community 1,NA,TRUE,f,f,NA,NA,NA,1,6,"5,1,14,11,15,2,8,3,12,10,9,4,6,13,7"
14928,commdev-image-keyboard-response,275,544222,learnblock1,918.3000000119209,img/planet1_left.png,1,Community 1,NA,TRUE,f,f,NA,NA,NA,1,6,"5,1,14,11,15,2,8,3,12,10,9,4,6,13,7"
14928,commdev-image-keyboard-response,276,545474,learnblock1,709,img/planet14_left.png,14,Community 1,NA,TRUE,f,f,NA,NA,NA,1,6,"5,1,14,11,15,2,8,3,12,10,9,4,6,13,7"
14928,commdev-image-keyboard-response,277,546727,learnblock1,614.5,img/planet15_left.png,15,Community 1,NA,TRUE,f,f,NA,NA,NA,1,6,"5,1,14,11,15,2,8,3,12,10,9,4,6,13,7"
14928,commdev-image-keyboard-response,278,547980,learnblock1,489.80000001192093,img/planet5_right.png,5,Community 1,NA,TRUE,j,j,NA,NA,NA,1,6,"5,1,14,11,15,2,8,3,12,10,9,4,6,13,7"
14928,commdev-image-keyboard-response,279,549233,learnblock1,434.30000001192093,img/planet14_left.png,14,Community 1,NA,TRUE,f,f,NA,NA,NA,1,6,"5,1,14,11,15,2,8,3,12,10,9,4,6,13,7"
14928,commdev-image-keyboard-response,280,550486,learnblock1,409.89999997615814,img/planet15_right.png,15,Community 1,NA,TRUE,j,j,NA,NA,NA,1,6,"5,1,14,11,15,2,8,3,12,10,9,4,6,13,7"
14928,commdev-image-keyboard-response,281,551738,learnblock1,806.6999999880791,img/planet9_right.png,9,Community 3,NA,TRUE,j,j,NA,NA,NA,1,6,"5,1,14,11,15,2,8,3,12,10,9,4,6,13,7"
14928,commdev-image-keyboard-response,282,552991,learnblock1,729,img/planet7_left.png,7,Community 3,NA,TRUE,f,f,NA,NA,NA,1,6,"5,1,14,11,15,2,8,3,12,10,9,4,6,13,7"
14928,commdev-image-keyboard-response,283,554243,learnblock1,1027.6000000238419,img/planet6_left.png,6,Community 3,NA,FALSE,j,f,NA,NA,NA,1,6,"5,1,14,11,15,2,8,3,12,10,9,4,6,13,7"
14928,commdev-image-keyboard-response,284,555496,learnblock1,808.4000000357628,img/planet9_left.png,9,Community 3,NA,TRUE,f,f,NA,NA,NA,1,6,"5,1,14,11,15,2,8,3,12,10,9,4,6,13,7"
14928,commdev-image-keyboard-response,285,556749,learnblock1,736,img/planet13_left.png,13,Community 3,NA,TRUE,f,f,NA,NA,NA,1,6,"5,1,14,11,15,2,8,3,12,10,9,4,6,13,7"
14928,commdev-image-keyboard-response,286,558002,learnblock1,693.3999999761581,img/planet6_right.png,6,Community 3,NA,TRUE,j,j,NA,NA,NA,1,6,"5,1,14,11,15,2,8,3,12,10,9,4,6,13,7"
14928,commdev-image-keyboard-response,287,559255,learnblock1,700.3000000119209,img/planet13_right.png,13,Community 3,NA,TRUE,j,j,NA,NA,NA,1,6,"5,1,14,11,15,2,8,3,12,10,9,4,6,13,7"
14928,commdev-image-keyboard-response,288,560508,learnblock1,789.6000000238419,img/planet6_left.png,6,Community 3,NA,TRUE,f,f,NA,NA,NA,1,6,"5,1,14,11,15,2,8,3,12,10,9,4,6,13,7"
14928,commdev-image-keyboard-response,289,561760,learnblock1,702.6999999880791,img/planet9_left.png,9,Community 3,NA,FALSE,j,f,NA,NA,NA,1,6,"5,1,14,11,15,2,8,3,12,10,9,4,6,13,7"
14928,commdev-image-keyboard-response,290,563013,learnblock1,742,img/planet7_right.png,7,Community 3,NA,FALSE,f,j,NA,NA,NA,1,6,"5,1,14,11,15,2,8,3,12,10,9,4,6,13,7"
14928,commdev-image-keyboard-response,291,564266,learnblock1,687.1999999880791,img/planet13_right.png,13,Community 3,NA,FALSE,f,j,NA,NA,NA,1,6,"5,1,14,11,15,2,8,3,12,10,9,4,6,13,7"
14928,commdev-image-keyboard-response,292,565519,learnblock1,889,img/planet6_right.png,6,Community 3,NA,TRUE,j,j,NA,NA,NA,1,6,"5,1,14,11,15,2,8,3,12,10,9,4,6,13,7"
14928,commdev-image-keyboard-response,293,566772,learnblock1,934.5,img/planet9_right.png,9,Community 3,NA,FALSE,f,j,NA,NA,NA,1,6,"5,1,14,11,15,2,8,3,12,10,9,4,6,13,7"
14928,commdev-image-keyboard-response,294,568025,learnblock1,156.10000002384186,img/planet7_left.png,7,Community 3,NA,TRUE,f,f,NA,NA,NA,1,6,"5,1,14,11,15,2,8,3,12,10,9,4,6,13,7"
14928,commdev-image-keyboard-response,295,569278,learnblock1,627.1999999880791,img/planet13_left.png,13,Community 3,NA,TRUE,f,f,NA,NA,NA,1,6,"5,1,14,11,15,2,8,3,12,10,9,4,6,13,7"
14928,commdev-image-keyboard-response,296,570530,learnblock1,686.3000000119209,img/planet4_right.png,4,Community 3,NA,TRUE,j,j,NA,NA,NA,1,6,"5,1,14,11,15,2,8,3,12,10,9,4,6,13,7"
14928,commdev-image-keyboard-response,297,571783,learnblock1,935.3999999761581,img/planet3_right.png,3,Community 2,NA,TRUE,j,j,NA,NA,NA,1,6,"5,1,14,11,15,2,8,3,12,10,9,4,6,13,7"
14928,commdev-image-keyboard-response,298,573036,learnblock1,924.6000000238419,img/planet4_left.png,4,Community 3,NA,TRUE,f,f,NA,NA,NA,1,6,"5,1,14,11,15,2,8,3,12,10,9,4,6,13,7"
14928,commdev-image-keyboard-response,299,574289,learnblock1,649.1999999880791,img/planet13_right.png,13,Community 3,NA,FALSE,f,j,NA,NA,NA,1,6,"5,1,14,11,15,2,8,3,12,10,9,4,6,13,7"
14928,commdev-image-keyboard-response,300,575541,learnblock1,1234.800000011921,img/planet7_right.png,7,Community 3,NA,FALSE,f,j,NA,NA,NA,1,6,"5,1,14,11,15,2,8,3,12,10,9,4,6,13,7"
14928,commdev-image-keyboard-response,301,576794,learnblock1,null,img/planet4_right.png,4,Community 3,NA,FALSE,null,j,NA,NA,NA,1,6,"5,1,14,11,15,2,8,3,12,10,9,4,6,13,7"
14928,commdev-image-keyboard-response,302,578048,learnblock1,802.8999999761581,img/planet6_right.png,6,Community 3,NA,TRUE,j,j,NA,NA,NA,1,6,"5,1,14,11,15,2,8,3,12,10,9,4,6,13,7"
14928,commdev-image-keyboard-response,303,579300,learnblock1,640.5,img/planet7_right.png,7,Community 3,NA,TRUE,j,j,NA,NA,NA,1,6,"5,1,14,11,15,2,8,3,12,10,9,4,6,13,7"
14928,commdev-image-keyboard-response,304,580552,learnblock1,438,img/planet9_left.png,9,Community 3,NA,FALSE,j,f,NA,NA,NA,1,6,"5,1,14,11,15,2,8,3,12,10,9,4,6,13,7"
14928,commdev-image-keyboard-response,305,581805,learnblock1,654.4000000357628,img/planet13_right.png,13,Community 3,NA,TRUE,j,j,NA,NA,NA,1,6,"5,1,14,11,15,2,8,3,12,10,9,4,6,13,7"
14928,commdev-image-keyboard-response,306,583059,learnblock1,578.8999999761581,img/planet6_left.png,6,Community 3,NA,TRUE,f,f,NA,NA,NA,1,6,"5,1,14,11,15,2,8,3,12,10,9,4,6,13,7"
14928,commdev-image-keyboard-response,307,584311,learnblock1,684.6999999880791,img/planet13_right.png,13,Community 3,NA,TRUE,j,j,NA,NA,NA,1,6,"5,1,14,11,15,2,8,3,12,10,9,4,6,13,7"
14928,commdev-image-keyboard-response,308,585564,learnblock1,656.7000000476837,img/planet4_right.png,4,Community 3,NA,TRUE,j,j,NA,NA,NA,1,6,"5,1,14,11,15,2,8,3,12,10,9,4,6,13,7"
14928,commdev-image-keyboard-response,309,586817,learnblock1,519.1000000238419,img/planet13_right.png,13,Community 3,NA,TRUE,j,j,NA,NA,NA,1,6,"5,1,14,11,15,2,8,3,12,10,9,4,6,13,7"
14928,commdev-image-keyboard-response,310,588070,learnblock1,760.8999999761581,img/planet6_left.png,6,Community 3,NA,TRUE,f,f,NA,NA,NA,1,6,"5,1,14,11,15,2,8,3,12,10,9,4,6,13,7"
14928,commdev-image-keyboard-response,311,589323,learnblock1,853.5,img/planet4_left.png,4,Community 3,NA,TRUE,f,f,NA,NA,NA,1,6,"5,1,14,11,15,2,8,3,12,10,9,4,6,13,7"
14928,commdev-image-keyboard-response,312,590576,learnblock1,547.9000000357628,img/planet13_left.png,13,Community 3,NA,TRUE,f,f,NA,NA,NA,1,6,"5,1,14,11,15,2,8,3,12,10,9,4,6,13,7"
14928,commdev-image-keyboard-response,313,591830,learnblock1,713.1000000238419,img/planet4_right.png,4,Community 3,NA,TRUE,j,j,NA,NA,NA,1,6,"5,1,14,11,15,2,8,3,12,10,9,4,6,13,7"
14928,commdev-image-keyboard-response,314,593084,learnblock1,580.7000000476837,img/planet13_right.png,13,Community 3,NA,TRUE,j,j,NA,NA,NA,1,6,"5,1,14,11,15,2,8,3,12,10,9,4,6,13,7"
14928,commdev-image-keyboard-response,315,594337,learnblock1,666,img/planet6_right.png,6,Community 3,NA,TRUE,j,j,NA,NA,NA,1,6,"5,1,14,11,15,2,8,3,12,10,9,4,6,13,7"
14928,commdev-image-keyboard-response,316,595590,learnblock1,581.3999999761581,img/planet13_right.png,13,Community 3,NA,TRUE,j,j,NA,NA,NA,1,6,"5,1,14,11,15,2,8,3,12,10,9,4,6,13,7"
14928,commdev-image-keyboard-response,317,596843,learnblock1,912,img/planet6_left.png,6,Community 3,NA,TRUE,f,f,NA,NA,NA,1,6,"5,1,14,11,15,2,8,3,12,10,9,4,6,13,7"
14928,commdev-image-keyboard-response,318,598096,learnblock1,842.8000000119209,img/planet7_right.png,7,Community 3,NA,TRUE,j,j,NA,NA,NA,1,6,"5,1,14,11,15,2,8,3,12,10,9,4,6,13,7"
14928,commdev-image-keyboard-response,319,599349,learnblock1,824.2000000476837,img/planet9_left.png,9,Community 3,NA,TRUE,f,f,NA,NA,NA,1,6,"5,1,14,11,15,2,8,3,12,10,9,4,6,13,7"
14928,commdev-image-keyboard-response,320,600602,learnblock1,655.6999999880791,img/planet15_left.png,15,Community 1,NA,TRUE,f,f,NA,NA,NA,1,6,"5,1,14,11,15,2,8,3,12,10,9,4,6,13,7"
14928,commdev-image-keyboard-response,321,601855,learnblock1,498.7000000476837,img/planet9_right.png,9,Community 3,NA,TRUE,j,j,NA,NA,NA,1,6,"5,1,14,11,15,2,8,3,12,10,9,4,6,13,7"
14928,commdev-image-keyboard-response,322,603108,learnblock1,938.3999999761581,img/planet7_right.png,7,Community 3,NA,TRUE,j,j,NA,NA,NA,1,6,"5,1,14,11,15,2,8,3,12,10,9,4,6,13,7"
14928,commdev-image-keyboard-response,323,604360,learnblock1,472.60000002384186,img/planet9_right.png,9,Community 3,NA,TRUE,j,j,NA,NA,NA,1,6,"5,1,14,11,15,2,8,3,12,10,9,4,6,13,7"
14928,commdev-image-keyboard-response,324,605613,learnblock1,474.30000001192093,img/planet15_right.png,15,Community 1,NA,TRUE,j,j,NA,NA,NA,1,6,"5,1,14,11,15,2,8,3,12,10,9,4,6,13,7"
14928,commdev-image-keyboard-response,325,606865,learnblock1,522.6999999880791,img/planet1_right.png,1,Community 1,NA,TRUE,j,j,NA,NA,NA,1,6,"5,1,14,11,15,2,8,3,12,10,9,4,6,13,7"
14928,commdev-image-keyboard-response,326,608119,learnblock1,450.60000002384186,img/planet15_right.png,15,Community 1,NA,TRUE,j,j,NA,NA,NA,1,6,"5,1,14,11,15,2,8,3,12,10,9,4,6,13,7"
14928,commdev-image-keyboard-response,327,609371,learnblock1,459.69999998807907,img/planet9_left.png,9,Community 3,NA,FALSE,j,f,NA,NA,NA,1,6,"5,1,14,11,15,2,8,3,12,10,9,4,6,13,7"
14928,commdev-image-keyboard-response,328,610622,learnblock1,1248.8999999761581,img/planet7_right.png,7,Community 3,NA,TRUE,j,j,NA,NA,NA,1,6,"5,1,14,11,15,2,8,3,12,10,9,4,6,13,7"
14928,commdev-image-keyboard-response,329,611874,learnblock1,760.8000000119209,img/planet4_left.png,4,Community 3,NA,TRUE,f,f,NA,NA,NA,1,6,"5,1,14,11,15,2,8,3,12,10,9,4,6,13,7"
14928,commdev-image-keyboard-response,330,613127,learnblock1,901.2999999523163,img/planet7_left.png,7,Community 3,NA,TRUE,f,f,NA,NA,NA,1,6,"5,1,14,11,15,2,8,3,12,10,9,4,6,13,7"
14928,commdev-image-keyboard-response,331,614379,learnblock1,692.1999999880791,img/planet6_right.png,6,Community 3,NA,TRUE,j,j,NA,NA,NA,1,6,"5,1,14,11,15,2,8,3,12,10,9,4,6,13,7"
14928,commdev-image-keyboard-response,332,615632,learnblock1,646.1999999880791,img/planet4_right.png,4,Community 3,NA,TRUE,j,j,NA,NA,NA,1,6,"5,1,14,11,15,2,8,3,12,10,9,4,6,13,7"
14928,commdev-image-keyboard-response,333,616885,learnblock1,792.1999999880791,img/planet7_left.png,7,Community 3,NA,TRUE,f,f,NA,NA,NA,1,6,"5,1,14,11,15,2,8,3,12,10,9,4,6,13,7"
14928,commdev-image-keyboard-response,334,618137,learnblock1,576.0999999642372,img/planet9_left.png,9,Community 3,NA,FALSE,j,f,NA,NA,NA,1,6,"5,1,14,11,15,2,8,3,12,10,9,4,6,13,7"
14928,commdev-image-keyboard-response,335,619390,learnblock1,659.1999999880791,img/planet6_right.png,6,Community 3,NA,FALSE,f,j,NA,NA,NA,1,6,"5,1,14,11,15,2,8,3,12,10,9,4,6,13,7"
14928,commdev-image-keyboard-response,336,620643,learnblock1,752.5,img/planet13_left.png,13,Community 3,NA,TRUE,f,f,NA,NA,NA,1,6,"5,1,14,11,15,2,8,3,12,10,9,4,6,13,7"
14928,commdev-image-keyboard-response,337,621896,learnblock1,522.8000000119209,img/planet9_right.png,9,Community 3,NA,TRUE,j,j,NA,NA,NA,1,6,"5,1,14,11,15,2,8,3,12,10,9,4,6,13,7"
14928,commdev-image-keyboard-response,338,623149,learnblock1,647.4000000357628,img/planet15_left.png,15,Community 1,NA,FALSE,j,f,NA,NA,NA,1,6,"5,1,14,11,15,2,8,3,12,10,9,4,6,13,7"
14928,commdev-image-keyboard-response,339,624402,learnblock1,920.3000000119209,img/planet5_left.png,5,Community 1,NA,TRUE,f,f,NA,NA,NA,1,6,"5,1,14,11,15,2,8,3,12,10,9,4,6,13,7"
14928,commdev-image-keyboard-response,340,625655,learnblock1,720.8000000119209,img/planet15_right.png,15,Community 1,NA,TRUE,j,j,NA,NA,NA,1,6,"5,1,14,11,15,2,8,3,12,10,9,4,6,13,7"
14928,commdev-image-keyboard-response,341,626907,learnblock1,751.8000000119209,img/planet5_left.png,5,Community 1,NA,TRUE,f,f,NA,NA,NA,1,6,"5,1,14,11,15,2,8,3,12,10,9,4,6,13,7"
14928,commdev-image-keyboard-response,342,628160,learnblock1,970.3000000119209,img/planet14_left.png,14,Community 1,NA,TRUE,f,f,NA,NA,NA,1,6,"5,1,14,11,15,2,8,3,12,10,9,4,6,13,7"
14928,commdev-image-keyboard-response,343,629413,learnblock1,724.8000000119209,img/planet11_right.png,11,Community 1,NA,TRUE,j,j,NA,NA,NA,1,6,"5,1,14,11,15,2,8,3,12,10,9,4,6,13,7"
14928,commdev-image-keyboard-response,344,630666,learnblock1,601,img/planet2_left.png,2,Community 2,NA,TRUE,f,f,NA,NA,NA,1,6,"5,1,14,11,15,2,8,3,12,10,9,4,6,13,7"
14928,commdev-image-keyboard-response,345,631918,learnblock1,702.2999999523163,img/planet10_right.png,10,Community 2,NA,TRUE,j,j,NA,NA,NA,1,6,"5,1,14,11,15,2,8,3,12,10,9,4,6,13,7"
14928,commdev-image-keyboard-response,346,633171,learnblock1,795.6000000238419,img/planet12_right.png,12,Community 2,NA,TRUE,j,j,NA,NA,NA,1,6,"5,1,14,11,15,2,8,3,12,10,9,4,6,13,7"
14928,commdev-image-keyboard-response,347,634423,learnblock1,774.1999999880791,img/planet2_right.png,2,Community 2,NA,TRUE,j,j,NA,NA,NA,1,6,"5,1,14,11,15,2,8,3,12,10,9,4,6,13,7"
14928,commdev-image-keyboard-response,351,646734,learnblock2,859,img/planet2_left.png,2,Community 2,NA,TRUE,f,f,NA,NA,NA,1,6,"5,1,14,11,15,2,8,3,12,10,9,4,6,13,7"
14928,commdev-image-keyboard-response,352,647987,learnblock2,991.0999999642372,img/planet12_right.png,12,Community 2,NA,TRUE,j,j,NA,NA,NA,1,6,"5,1,14,11,15,2,8,3,12,10,9,4,6,13,7"
14928,commdev-image-keyboard-response,353,649240,learnblock2,1133.699999988079,img/planet3_right.png,3,Community 2,NA,TRUE,j,j,NA,NA,NA,1,6,"5,1,14,11,15,2,8,3,12,10,9,4,6,13,7"
14928,commdev-image-keyboard-response,354,650492,learnblock2,728.5,img/planet10_right.png,10,Community 2,NA,TRUE,j,j,NA,NA,NA,1,6,"5,1,14,11,15,2,8,3,12,10,9,4,6,13,7"
14928,commdev-image-keyboard-response,355,651745,learnblock2,806.3999999761581,img/planet3_left.png,3,Community 2,NA,TRUE,f,f,NA,NA,NA,1,6,"5,1,14,11,15,2,8,3,12,10,9,4,6,13,7"
14928,commdev-image-keyboard-response,356,652999,learnblock2,760.5,img/planet12_right.png,12,Community 2,NA,TRUE,j,j,NA,NA,NA,1,6,"5,1,14,11,15,2,8,3,12,10,9,4,6,13,7"
14928,commdev-image-keyboard-response,357,654250,learnblock2,993.3000000119209,img/planet10_left.png,10,Community 2,NA,TRUE,f,f,NA,NA,NA,1,6,"5,1,14,11,15,2,8,3,12,10,9,4,6,13,7"
14928,commdev-image-keyboard-response,358,655503,learnblock2,935,img/planet12_left.png,12,Community 2,NA,TRUE,f,f,NA,NA,NA,1,6,"5,1,14,11,15,2,8,3,12,10,9,4,6,13,7"
14928,commdev-image-keyboard-response,359,656756,learnblock2,653.1999999880791,img/planet10_right.png,10,Community 2,NA,TRUE,j,j,NA,NA,NA,1,6,"5,1,14,11,15,2,8,3,12,10,9,4,6,13,7"
14928,commdev-image-keyboard-response,360,658009,learnblock2,639.6000000238419,img/planet3_right.png,3,Community 2,NA,TRUE,j,j,NA,NA,NA,1,6,"5,1,14,11,15,2,8,3,12,10,9,4,6,13,7"
14928,commdev-image-keyboard-response,361,659263,learnblock2,550.5,img/planet10_left.png,10,Community 2,NA,TRUE,f,f,NA,NA,NA,1,6,"5,1,14,11,15,2,8,3,12,10,9,4,6,13,7"
14928,commdev-image-keyboard-response,362,660516,learnblock2,816.7000000476837,img/planet3_left.png,3,Community 2,NA,TRUE,f,f,NA,NA,NA,1,6,"5,1,14,11,15,2,8,3,12,10,9,4,6,13,7"
14928,commdev-image-keyboard-response,363,661768,learnblock2,670.6000000238419,img/planet8_right.png,8,Community 2,NA,TRUE,j,j,NA,NA,NA,1,6,"5,1,14,11,15,2,8,3,12,10,9,4,6,13,7"
14928,commdev-image-keyboard-response,364,663020,learnblock2,588.3000000119209,img/planet2_left.png,2,Community 2,NA,TRUE,f,f,NA,NA,NA,1,6,"5,1,14,11,15,2,8,3,12,10,9,4,6,13,7"
14928,commdev-image-keyboard-response,365,664273,learnblock2,872.9000000357628,img/planet8_left.png,8,Community 2,NA,TRUE,f,f,NA,NA,NA,1,6,"5,1,14,11,15,2,8,3,12,10,9,4,6,13,7"
14928,commdev-image-keyboard-response,366,665526,learnblock2,618.1999999880791,img/planet2_left.png,2,Community 2,NA,TRUE,f,f,NA,NA,NA,1,6,"5,1,14,11,15,2,8,3,12,10,9,4,6,13,7"
14928,commdev-image-keyboard-response,367,666779,learnblock2,669.7000000476837,img/planet11_left.png,11,Community 1,NA,TRUE,f,f,NA,NA,NA,1,6,"5,1,14,11,15,2,8,3,12,10,9,4,6,13,7"
14928,commdev-image-keyboard-response,368,668031,learnblock2,511.89999997615814,img/planet1_left.png,1,Community 1,NA,TRUE,f,f,NA,NA,NA,1,6,"5,1,14,11,15,2,8,3,12,10,9,4,6,13,7"
14928,commdev-image-keyboard-response,369,669284,learnblock2,430.89999997615814,img/planet11_right.png,11,Community 1,NA,FALSE,f,j,NA,NA,NA,1,6,"5,1,14,11,15,2,8,3,12,10,9,4,6,13,7"
14928,commdev-image-keyboard-response,370,670537,learnblock2,829.1000000238419,img/planet2_left.png,2,Community 2,NA,TRUE,f,f,NA,NA,NA,1,6,"5,1,14,11,15,2,8,3,12,10,9,4,6,13,7"
14928,commdev-image-keyboard-response,371,671790,learnblock2,686.3000000119209,img/planet11_left.png,11,Community 1,NA,TRUE,f,f,NA,NA,NA,1,6,"5,1,14,11,15,2,8,3,12,10,9,4,6,13,7"
14928,commdev-image-keyboard-response,372,673042,learnblock2,780.6000000238419,img/planet14_left.png,14,Community 1,NA,TRUE,f,f,NA,NA,NA,1,6,"5,1,14,11,15,2,8,3,12,10,9,4,6,13,7"
14928,commdev-image-keyboard-response,373,674295,learnblock2,705,img/planet11_left.png,11,Community 1,NA,TRUE,f,f,NA,NA,NA,1,6,"5,1,14,11,15,2,8,3,12,10,9,4,6,13,7"
14928,commdev-image-keyboard-response,374,675549,learnblock2,568,img/planet2_left.png,2,Community 2,NA,TRUE,f,f,NA,NA,NA,1,6,"5,1,14,11,15,2,8,3,12,10,9,4,6,13,7"
14928,commdev-image-keyboard-response,375,676801,learnblock2,795.5,img/planet11_left.png,11,Community 1,NA,TRUE,f,f,NA,NA,NA,1,6,"5,1,14,11,15,2,8,3,12,10,9,4,6,13,7"
14928,commdev-image-keyboard-response,376,678054,learnblock2,680.4000000357628,img/planet1_left.png,1,Community 1,NA,TRUE,f,f,NA,NA,NA,1,6,"5,1,14,11,15,2,8,3,12,10,9,4,6,13,7"
14928,commdev-image-keyboard-response,377,679306,learnblock2,583.6000000238419,img/planet15_left.png,15,Community 1,NA,TRUE,f,f,NA,NA,NA,1,6,"5,1,14,11,15,2,8,3,12,10,9,4,6,13,7"
14928,commdev-image-keyboard-response,378,680559,learnblock2,486.19999998807907,img/planet1_left.png,1,Community 1,NA,TRUE,f,f,NA,NA,NA,1,6,"5,1,14,11,15,2,8,3,12,10,9,4,6,13,7"
14928,commdev-image-keyboard-response,379,681811,learnblock2,701,img/planet15_right.png,15,Community 1,NA,TRUE,j,j,NA,NA,NA,1,6,"5,1,14,11,15,2,8,3,12,10,9,4,6,13,7"
14928,commdev-image-keyboard-response,380,683063,learnblock2,785.3000000119209,img/planet5_right.png,5,Community 1,NA,TRUE,j,j,NA,NA,NA,1,6,"5,1,14,11,15,2,8,3,12,10,9,4,6,13,7"
14928,commdev-image-keyboard-response,381,684316,learnblock2,869.7000000476837,img/planet11_left.png,11,Community 1,NA,TRUE,f,f,NA,NA,NA,1,6,"5,1,14,11,15,2,8,3,12,10,9,4,6,13,7"
14928,commdev-image-keyboard-response,382,685569,learnblock2,783.9000000357628,img/planet14_left.png,14,Community 1,NA,TRUE,f,f,NA,NA,NA,1,6,"5,1,14,11,15,2,8,3,12,10,9,4,6,13,7"
14928,commdev-image-keyboard-response,383,686822,learnblock2,755.5,img/planet1_right.png,1,Community 1,NA,TRUE,j,j,NA,NA,NA,1,6,"5,1,14,11,15,2,8,3,12,10,9,4,6,13,7"
14928,commdev-image-keyboard-response,384,688075,learnblock2,662.1000000238419,img/planet5_left.png,5,Community 1,NA,TRUE,f,f,NA,NA,NA,1,6,"5,1,14,11,15,2,8,3,12,10,9,4,6,13,7"
14928,commdev-image-keyboard-response,385,689327,learnblock2,678.8000000119209,img/planet1_left.png,1,Community 1,NA,TRUE,f,f,NA,NA,NA,1,6,"5,1,14,11,15,2,8,3,12,10,9,4,6,13,7"
14928,commdev-image-keyboard-response,386,690580,learnblock2,860,img/planet14_left.png,14,Community 1,NA,TRUE,f,f,NA,NA,NA,1,6,"5,1,14,11,15,2,8,3,12,10,9,4,6,13,7"
14928,commdev-image-keyboard-response,387,691833,learnblock2,1105.0999999642372,img/planet15_right.png,15,Community 1,NA,TRUE,j,j,NA,NA,NA,1,6,"5,1,14,11,15,2,8,3,12,10,9,4,6,13,7"
14928,commdev-image-keyboard-response,388,693086,learnblock2,727.8000000119209,img/planet1_right.png,1,Community 1,NA,TRUE,j,j,NA,NA,NA,1,6,"5,1,14,11,15,2,8,3,12,10,9,4,6,13,7"
14928,commdev-image-keyboard-response,389,694339,learnblock2,679.3999999761581,img/planet15_left.png,15,Community 1,NA,TRUE,f,f,NA,NA,NA,1,6,"5,1,14,11,15,2,8,3,12,10,9,4,6,13,7"
14928,commdev-image-keyboard-response,390,695592,learnblock2,685.3999999761581,img/planet5_right.png,5,Community 1,NA,TRUE,j,j,NA,NA,NA,1,6,"5,1,14,11,15,2,8,3,12,10,9,4,6,13,7"
14928,commdev-image-keyboard-response,391,696845,learnblock2,1018,img/planet15_right.png,15,Community 1,NA,FALSE,f,j,NA,NA,NA,1,6,"5,1,14,11,15,2,8,3,12,10,9,4,6,13,7"
14928,commdev-image-keyboard-response,392,698098,learnblock2,934.2999999523163,img/planet14_left.png,14,Community 1,NA,TRUE,f,f,NA,NA,NA,1,6,"5,1,14,11,15,2,8,3,12,10,9,4,6,13,7"
14928,commdev-image-keyboard-response,393,699350,learnblock2,590.8999999761581,img/planet5_right.png,5,Community 1,NA,TRUE,j,j,NA,NA,NA,1,6,"5,1,14,11,15,2,8,3,12,10,9,4,6,13,7"
14928,commdev-image-keyboard-response,394,700603,learnblock2,688,img/planet14_right.png,14,Community 1,NA,TRUE,j,j,NA,NA,NA,1,6,"5,1,14,11,15,2,8,3,12,10,9,4,6,13,7"
14928,commdev-image-keyboard-response,395,701856,learnblock2,837,img/planet11_left.png,11,Community 1,NA,TRUE,f,f,NA,NA,NA,1,6,"5,1,14,11,15,2,8,3,12,10,9,4,6,13,7"
14928,commdev-image-keyboard-response,396,703109,learnblock2,877.1000000238419,img/planet5_left.png,5,Community 1,NA,TRUE,f,f,NA,NA,NA,1,6,"5,1,14,11,15,2,8,3,12,10,9,4,6,13,7"
14928,commdev-image-keyboard-response,397,704362,learnblock2,632.5,img/planet1_left.png,1,Community 1,NA,TRUE,f,f,NA,NA,NA,1,6,"5,1,14,11,15,2,8,3,12,10,9,4,6,13,7"
14928,commdev-image-keyboard-response,398,705615,learnblock2,743.1999999880791,img/planet11_right.png,11,Community 1,NA,TRUE,j,j,NA,NA,NA,1,6,"5,1,14,11,15,2,8,3,12,10,9,4,6,13,7"
14928,commdev-image-keyboard-response,399,706868,learnblock2,876.3000000119209,img/planet2_left.png,2,Community 2,NA,TRUE,f,f,NA,NA,NA,1,6,"5,1,14,11,15,2,8,3,12,10,9,4,6,13,7"
14928,commdev-image-keyboard-response,400,708121,learnblock2,648.5,img/planet11_right.png,11,Community 1,NA,TRUE,j,j,NA,NA,NA,1,6,"5,1,14,11,15,2,8,3,12,10,9,4,6,13,7"
14928,commdev-image-keyboard-response,401,709374,learnblock2,841.8000000119209,img/planet1_left.png,1,Community 1,NA,TRUE,f,f,NA,NA,NA,1,6,"5,1,14,11,15,2,8,3,12,10,9,4,6,13,7"
14928,commdev-image-keyboard-response,402,710626,learnblock2,695,img/planet15_right.png,15,Community 1,NA,TRUE,j,j,NA,NA,NA,1,6,"5,1,14,11,15,2,8,3,12,10,9,4,6,13,7"
14928,commdev-image-keyboard-response,403,711879,learnblock2,1239.5,img/planet14_right.png,14,Community 1,NA,TRUE,j,j,NA,NA,NA,1,6,"5,1,14,11,15,2,8,3,12,10,9,4,6,13,7"
14928,commdev-image-keyboard-response,404,713132,learnblock2,828.5,img/planet5_right.png,5,Community 1,NA,TRUE,j,j,NA,NA,NA,1,6,"5,1,14,11,15,2,8,3,12,10,9,4,6,13,7"
14928,commdev-image-keyboard-response,405,714385,learnblock2,694.8999999761581,img/planet11_right.png,11,Community 1,NA,TRUE,j,j,NA,NA,NA,1,6,"5,1,14,11,15,2,8,3,12,10,9,4,6,13,7"
14928,commdev-image-keyboard-response,406,715638,learnblock2,591.3000000119209,img/planet5_right.png,5,Community 1,NA,TRUE,j,j,NA,NA,NA,1,6,"5,1,14,11,15,2,8,3,12,10,9,4,6,13,7"
14928,commdev-image-keyboard-response,407,716891,learnblock2,728.8000000119209,img/planet1_right.png,1,Community 1,NA,TRUE,j,j,NA,NA,NA,1,6,"5,1,14,11,15,2,8,3,12,10,9,4,6,13,7"
14928,commdev-image-keyboard-response,408,718143,learnblock2,514.0999999642372,img/planet5_right.png,5,Community 1,NA,TRUE,j,j,NA,NA,NA,1,6,"5,1,14,11,15,2,8,3,12,10,9,4,6,13,7"
14928,commdev-image-keyboard-response,409,719396,learnblock2,652.3999999761581,img/planet14_right.png,14,Community 1,NA,TRUE,j,j,NA,NA,NA,1,6,"5,1,14,11,15,2,8,3,12,10,9,4,6,13,7"
14928,commdev-image-keyboard-response,410,720649,learnblock2,902.4000000357628,img/planet5_left.png,5,Community 1,NA,TRUE,f,f,NA,NA,NA,1,6,"5,1,14,11,15,2,8,3,12,10,9,4,6,13,7"
14928,commdev-image-keyboard-response,411,721902,learnblock2,743,img/planet15_right.png,15,Community 1,NA,TRUE,j,j,NA,NA,NA,1,6,"5,1,14,11,15,2,8,3,12,10,9,4,6,13,7"
14928,commdev-image-keyboard-response,412,723156,learnblock2,787.2000000476837,img/planet14_right.png,14,Community 1,NA,TRUE,j,j,NA,NA,NA,1,6,"5,1,14,11,15,2,8,3,12,10,9,4,6,13,7"
14928,commdev-image-keyboard-response,413,724409,learnblock2,853.1999999880791,img/planet5_left.png,5,Community 1,NA,TRUE,f,f,NA,NA,NA,1,6,"5,1,14,11,15,2,8,3,12,10,9,4,6,13,7"
14928,commdev-image-keyboard-response,414,725662,learnblock2,698.7999999523163,img/planet11_right.png,11,Community 1,NA,TRUE,j,j,NA,NA,NA,1,6,"5,1,14,11,15,2,8,3,12,10,9,4,6,13,7"
14928,commdev-image-keyboard-response,415,726915,learnblock2,683.3999999761581,img/planet5_right.png,5,Community 1,NA,TRUE,j,j,NA,NA,NA,1,6,"5,1,14,11,15,2,8,3,12,10,9,4,6,13,7"
14928,commdev-image-keyboard-response,416,728167,learnblock2,778.8999999761581,img/planet11_left.png,11,Community 1,NA,TRUE,f,f,NA,NA,NA,1,6,"5,1,14,11,15,2,8,3,12,10,9,4,6,13,7"
14928,commdev-image-keyboard-response,417,729419,learnblock2,681,img/planet2_right.png,2,Community 2,NA,TRUE,j,j,NA,NA,NA,1,6,"5,1,14,11,15,2,8,3,12,10,9,4,6,13,7"
14928,commdev-image-keyboard-response,418,730672,learnblock2,854.1000000238419,img/planet11_right.png,11,Community 1,NA,TRUE,j,j,NA,NA,NA,1,6,"5,1,14,11,15,2,8,3,12,10,9,4,6,13,7"
14928,commdev-image-keyboard-response,419,731924,learnblock2,681.5,img/planet5_left.png,5,Community 1,NA,TRUE,f,f,NA,NA,NA,1,6,"5,1,14,11,15,2,8,3,12,10,9,4,6,13,7"
14928,commdev-image-keyboard-response,420,733177,learnblock2,839.8999999761581,img/planet14_left.png,14,Community 1,NA,TRUE,f,f,NA,NA,NA,1,6,"5,1,14,11,15,2,8,3,12,10,9,4,6,13,7"
14928,commdev-image-keyboard-response,421,734431,learnblock2,618.1999999880791,img/planet11_right.png,11,Community 1,NA,TRUE,j,j,NA,NA,NA,1,6,"5,1,14,11,15,2,8,3,12,10,9,4,6,13,7"
14928,commdev-image-keyboard-response,422,735682,learnblock2,673.7999999523163,img/planet14_right.png,14,Community 1,NA,TRUE,j,j,NA,NA,NA,1,6,"5,1,14,11,15,2,8,3,12,10,9,4,6,13,7"
14928,commdev-image-keyboard-response,423,736935,learnblock2,823.6999999880791,img/planet11_left.png,11,Community 1,NA,TRUE,f,f,NA,NA,NA,1,6,"5,1,14,11,15,2,8,3,12,10,9,4,6,13,7"
14928,commdev-image-keyboard-response,424,738187,learnblock2,643.5,img/planet5_right.png,5,Community 1,NA,TRUE,j,j,NA,NA,NA,1,6,"5,1,14,11,15,2,8,3,12,10,9,4,6,13,7"
14928,commdev-image-keyboard-response,425,739440,learnblock2,735,img/planet1_left.png,1,Community 1,NA,TRUE,f,f,NA,NA,NA,1,6,"5,1,14,11,15,2,8,3,12,10,9,4,6,13,7"
14928,commdev-image-keyboard-response,426,740693,learnblock2,621.5999999642372,img/planet14_left.png,14,Community 1,NA,TRUE,f,f,NA,NA,NA,1,6,"5,1,14,11,15,2,8,3,12,10,9,4,6,13,7"
14928,commdev-image-keyboard-response,427,741946,learnblock2,758.8000000119209,img/planet11_left.png,11,Community 1,NA,TRUE,f,f,NA,NA,NA,1,6,"5,1,14,11,15,2,8,3,12,10,9,4,6,13,7"
14928,commdev-image-keyboard-response,428,743198,learnblock2,623.3000000119209,img/planet1_left.png,1,Community 1,NA,TRUE,f,f,NA,NA,NA,1,6,"5,1,14,11,15,2,8,3,12,10,9,4,6,13,7"
14928,commdev-image-keyboard-response,429,744452,learnblock2,636.3000000119209,img/planet15_right.png,15,Community 1,NA,TRUE,j,j,NA,NA,NA,1,6,"5,1,14,11,15,2,8,3,12,10,9,4,6,13,7"
14928,commdev-image-keyboard-response,430,745703,learnblock2,497.2999999523163,img/planet1_right.png,1,Community 1,NA,TRUE,j,j,NA,NA,NA,1,6,"5,1,14,11,15,2,8,3,12,10,9,4,6,13,7"
14928,commdev-image-keyboard-response,431,746957,learnblock2,579.1999999880791,img/planet14_right.png,14,Community 1,NA,TRUE,j,j,NA,NA,NA,1,6,"5,1,14,11,15,2,8,3,12,10,9,4,6,13,7"
14928,commdev-image-keyboard-response,432,748209,learnblock2,689,img/planet15_right.png,15,Community 1,NA,TRUE,j,j,NA,NA,NA,1,6,"5,1,14,11,15,2,8,3,12,10,9,4,6,13,7"
14928,commdev-image-keyboard-response,433,749462,learnblock2,538.1999999880791,img/planet1_right.png,1,Community 1,NA,TRUE,j,j,NA,NA,NA,1,6,"5,1,14,11,15,2,8,3,12,10,9,4,6,13,7"
14928,commdev-image-keyboard-response,434,750714,learnblock2,774.5999999642372,img/planet5_left.png,5,Community 1,NA,TRUE,f,f,NA,NA,NA,1,6,"5,1,14,11,15,2,8,3,12,10,9,4,6,13,7"
14928,commdev-image-keyboard-response,435,751967,learnblock2,690,img/planet14_right.png,14,Community 1,NA,TRUE,j,j,NA,NA,NA,1,6,"5,1,14,11,15,2,8,3,12,10,9,4,6,13,7"
14928,commdev-image-keyboard-response,436,753220,learnblock2,986.9000000357628,img/planet15_left.png,15,Community 1,NA,TRUE,f,f,NA,NA,NA,1,6,"5,1,14,11,15,2,8,3,12,10,9,4,6,13,7"
14928,commdev-image-keyboard-response,437,754474,learnblock2,699,img/planet5_right.png,5,Community 1,NA,TRUE,j,j,NA,NA,NA,1,6,"5,1,14,11,15,2,8,3,12,10,9,4,6,13,7"
14928,commdev-image-keyboard-response,438,755725,learnblock2,619.1999999880791,img/planet14_left.png,14,Community 1,NA,TRUE,f,f,NA,NA,NA,1,6,"5,1,14,11,15,2,8,3,12,10,9,4,6,13,7"
14928,commdev-image-keyboard-response,439,756978,learnblock2,612.0999999642372,img/planet5_right.png,5,Community 1,NA,TRUE,j,j,NA,NA,NA,1,6,"5,1,14,11,15,2,8,3,12,10,9,4,6,13,7"
14928,commdev-image-keyboard-response,440,758231,learnblock2,673.4000000357628,img/planet15_right.png,15,Community 1,NA,TRUE,j,j,NA,NA,NA,1,6,"5,1,14,11,15,2,8,3,12,10,9,4,6,13,7"
14928,commdev-image-keyboard-response,441,759484,learnblock2,735.5,img/planet9_left.png,9,Community 3,NA,TRUE,f,f,NA,NA,NA,1,6,"5,1,14,11,15,2,8,3,12,10,9,4,6,13,7"
14928,commdev-image-keyboard-response,442,760736,learnblock2,863.6999999880791,img/planet15_right.png,15,Community 1,NA,TRUE,j,j,NA,NA,NA,1,6,"5,1,14,11,15,2,8,3,12,10,9,4,6,13,7"
14928,commdev-image-keyboard-response,443,761989,learnblock2,591.1999999880791,img/planet5_left.png,5,Community 1,NA,FALSE,j,f,NA,NA,NA,1,6,"5,1,14,11,15,2,8,3,12,10,9,4,6,13,7"
14928,commdev-image-keyboard-response,444,763242,learnblock2,702.3000000119209,img/planet15_right.png,15,Community 1,NA,TRUE,j,j,NA,NA,NA,1,6,"5,1,14,11,15,2,8,3,12,10,9,4,6,13,7"
14928,commdev-image-keyboard-response,445,764494,learnblock2,608.8000000119209,img/planet1_left.png,1,Community 1,NA,TRUE,f,f,NA,NA,NA,1,6,"5,1,14,11,15,2,8,3,12,10,9,4,6,13,7"
14928,commdev-image-keyboard-response,446,765747,learnblock2,668.5,img/planet14_right.png,14,Community 1,NA,TRUE,j,j,NA,NA,NA,1,6,"5,1,14,11,15,2,8,3,12,10,9,4,6,13,7"
14928,commdev-image-keyboard-response,447,767000,learnblock2,582.8000000119209,img/planet1_left.png,1,Community 1,NA,TRUE,f,f,NA,NA,NA,1,6,"5,1,14,11,15,2,8,3,12,10,9,4,6,13,7"
14928,commdev-image-keyboard-response,448,768253,learnblock2,600.5,img/planet11_right.png,11,Community 1,NA,TRUE,j,j,NA,NA,NA,1,6,"5,1,14,11,15,2,8,3,12,10,9,4,6,13,7"
14928,commdev-image-keyboard-response,449,769506,learnblock2,610.3999999761581,img/planet5_left.png,5,Community 1,NA,TRUE,f,f,NA,NA,NA,1,6,"5,1,14,11,15,2,8,3,12,10,9,4,6,13,7"
14928,commdev-image-keyboard-response,450,770759,learnblock2,623.8000000119209,img/planet11_right.png,11,Community 1,NA,TRUE,j,j,NA,NA,NA,1,6,"5,1,14,11,15,2,8,3,12,10,9,4,6,13,7"
14928,commdev-image-keyboard-response,451,772011,learnblock2,682.4000000357628,img/planet2_right.png,2,Community 2,NA,TRUE,j,j,NA,NA,NA,1,6,"5,1,14,11,15,2,8,3,12,10,9,4,6,13,7"
14928,commdev-image-keyboard-response,452,773264,learnblock2,593.8000000119209,img/planet11_left.png,11,Community 1,NA,TRUE,f,f,NA,NA,NA,1,6,"5,1,14,11,15,2,8,3,12,10,9,4,6,13,7"
14928,commdev-image-keyboard-response,453,774517,learnblock2,684.3000000119209,img/planet5_left.png,5,Community 1,NA,TRUE,f,f,NA,NA,NA,1,6,"5,1,14,11,15,2,8,3,12,10,9,4,6,13,7"
14928,commdev-image-keyboard-response,454,775771,learnblock2,624.5,img/planet11_left.png,11,Community 1,NA,TRUE,f,f,NA,NA,NA,1,6,"5,1,14,11,15,2,8,3,12,10,9,4,6,13,7"
14928,commdev-image-keyboard-response,455,777023,learnblock2,655.1000000238419,img/planet1_right.png,1,Community 1,NA,TRUE,j,j,NA,NA,NA,1,6,"5,1,14,11,15,2,8,3,12,10,9,4,6,13,7"
14928,commdev-image-keyboard-response,456,778276,learnblock2,581.6999999880791,img/planet15_left.png,15,Community 1,NA,TRUE,f,f,NA,NA,NA,1,6,"5,1,14,11,15,2,8,3,12,10,9,4,6,13,7"
14928,commdev-image-keyboard-response,457,779529,learnblock2,706.5,img/planet14_right.png,14,Community 1,NA,TRUE,j,j,NA,NA,NA,1,6,"5,1,14,11,15,2,8,3,12,10,9,4,6,13,7"
14928,commdev-image-keyboard-response,458,780781,learnblock2,1025.9000000357628,img/planet11_right.png,11,Community 1,NA,TRUE,j,j,NA,NA,NA,1,6,"5,1,14,11,15,2,8,3,12,10,9,4,6,13,7"
14928,commdev-image-keyboard-response,459,782034,learnblock2,727,img/planet2_left.png,2,Community 2,NA,TRUE,f,f,NA,NA,NA,1,6,"5,1,14,11,15,2,8,3,12,10,9,4,6,13,7"
14928,commdev-image-keyboard-response,460,783287,learnblock2,591.3999999761581,img/planet10_left.png,10,Community 2,NA,TRUE,f,f,NA,NA,NA,1,6,"5,1,14,11,15,2,8,3,12,10,9,4,6,13,7"
14928,commdev-image-keyboard-response,461,784541,learnblock2,766.1000000238419,img/planet3_right.png,3,Community 2,NA,TRUE,j,j,NA,NA,NA,1,6,"5,1,14,11,15,2,8,3,12,10,9,4,6,13,7"
14928,commdev-image-keyboard-response,462,785794,learnblock2,815.8000000119209,img/planet12_left.png,12,Community 2,NA,TRUE,f,f,NA,NA,NA,1,6,"5,1,14,11,15,2,8,3,12,10,9,4,6,13,7"
14928,commdev-image-keyboard-response,463,787047,learnblock2,896.0999999642372,img/planet8_left.png,8,Community 2,NA,TRUE,f,f,NA,NA,NA,1,6,"5,1,14,11,15,2,8,3,12,10,9,4,6,13,7"
14928,commdev-image-keyboard-response,464,788299,learnblock2,620.0999999642372,img/planet12_left.png,12,Community 2,NA,TRUE,f,f,NA,NA,NA,1,6,"5,1,14,11,15,2,8,3,12,10,9,4,6,13,7"
14928,commdev-image-keyboard-response,465,789552,learnblock2,491.0999999642372,img/planet8_right.png,8,Community 2,NA,TRUE,j,j,NA,NA,NA,1,6,"5,1,14,11,15,2,8,3,12,10,9,4,6,13,7"
14928,commdev-image-keyboard-response,466,790805,learnblock2,580.6999999880791,img/planet12_right.png,12,Community 2,NA,TRUE,j,j,NA,NA,NA,1,6,"5,1,14,11,15,2,8,3,12,10,9,4,6,13,7"
14928,commdev-image-keyboard-response,467,792058,learnblock2,683.9000000357628,img/planet10_left.png,10,Community 2,NA,TRUE,f,f,NA,NA,NA,1,6,"5,1,14,11,15,2,8,3,12,10,9,4,6,13,7"
14928,commdev-image-keyboard-response,468,793310,learnblock2,809.7999999523163,img/planet12_left.png,12,Community 2,NA,TRUE,f,f,NA,NA,NA,1,6,"5,1,14,11,15,2,8,3,12,10,9,4,6,13,7"
14928,commdev-image-keyboard-response,469,794563,learnblock2,624.3000000119209,img/planet2_left.png,2,Community 2,NA,TRUE,f,f,NA,NA,NA,1,6,"5,1,14,11,15,2,8,3,12,10,9,4,6,13,7"
14928,commdev-image-keyboard-response,470,795816,learnblock2,808.1999999880791,img/planet12_right.png,12,Community 2,NA,TRUE,j,j,NA,NA,NA,1,6,"5,1,14,11,15,2,8,3,12,10,9,4,6,13,7"
14928,commdev-image-keyboard-response,471,797069,learnblock2,1251,img/planet10_left.png,10,Community 2,NA,FALSE,j,f,NA,NA,NA,1,6,"5,1,14,11,15,2,8,3,12,10,9,4,6,13,7"
14928,commdev-image-keyboard-response,472,798321,learnblock2,null,img/planet3_right.png,3,Community 2,NA,FALSE,null,j,NA,NA,NA,1,6,"5,1,14,11,15,2,8,3,12,10,9,4,6,13,7"
14928,commdev-image-keyboard-response,473,799574,learnblock2,null,img/planet12_right.png,12,Community 2,NA,FALSE,null,j,NA,NA,NA,1,6,"5,1,14,11,15,2,8,3,12,10,9,4,6,13,7"
14928,commdev-image-keyboard-response,474,800826,learnblock2,1093.2000000476837,img/planet3_left.png,3,Community 2,NA,TRUE,f,f,NA,NA,NA,1,6,"5,1,14,11,15,2,8,3,12,10,9,4,6,13,7"
14928,commdev-image-keyboard-response,475,802079,learnblock2,794.1000000238419,img/planet12_left.png,12,Community 2,NA,TRUE,f,f,NA,NA,NA,1,6,"5,1,14,11,15,2,8,3,12,10,9,4,6,13,7"
14928,commdev-image-keyboard-response,476,803332,learnblock2,717.8000000119209,img/planet10_right.png,10,Community 2,NA,TRUE,j,j,NA,NA,NA,1,6,"5,1,14,11,15,2,8,3,12,10,9,4,6,13,7"
14928,commdev-image-keyboard-response,477,804585,learnblock2,764.8999999761581,img/planet3_left.png,3,Community 2,NA,TRUE,f,f,NA,NA,NA,1,6,"5,1,14,11,15,2,8,3,12,10,9,4,6,13,7"
14928,commdev-image-keyboard-response,478,805837,learnblock2,650.9000000357628,img/planet8_left.png,8,Community 2,NA,TRUE,f,f,NA,NA,NA,1,6,"5,1,14,11,15,2,8,3,12,10,9,4,6,13,7"
14928,commdev-image-keyboard-response,479,807090,learnblock2,583.6999999880791,img/planet2_left.png,2,Community 2,NA,TRUE,f,f,NA,NA,NA,1,6,"5,1,14,11,15,2,8,3,12,10,9,4,6,13,7"
14928,commdev-image-keyboard-response,480,808344,learnblock2,644.6999999880791,img/planet11_left.png,11,Community 1,NA,TRUE,f,f,NA,NA,NA,1,6,"5,1,14,11,15,2,8,3,12,10,9,4,6,13,7"
14928,commdev-image-keyboard-response,481,809597,learnblock2,632.6999999880791,img/planet14_right.png,14,Community 1,NA,TRUE,j,j,NA,NA,NA,1,6,"5,1,14,11,15,2,8,3,12,10,9,4,6,13,7"
14928,commdev-image-keyboard-response,482,810849,learnblock2,624.6999999880791,img/planet11_left.png,11,Community 1,NA,TRUE,f,f,NA,NA,NA,1,6,"5,1,14,11,15,2,8,3,12,10,9,4,6,13,7"
14928,commdev-image-keyboard-response,483,812102,learnblock2,996.7999999523163,img/planet5_right.png,5,Community 1,NA,TRUE,j,j,NA,NA,NA,1,6,"5,1,14,11,15,2,8,3,12,10,9,4,6,13,7"
14928,commdev-image-keyboard-response,484,813353,learnblock2,733.2999999523163,img/planet14_right.png,14,Community 1,NA,TRUE,j,j,NA,NA,NA,1,6,"5,1,14,11,15,2,8,3,12,10,9,4,6,13,7"
14928,commdev-image-keyboard-response,485,814607,learnblock2,516.5,img/planet5_right.png,5,Community 1,NA,TRUE,j,j,NA,NA,NA,1,6,"5,1,14,11,15,2,8,3,12,10,9,4,6,13,7"
14928,commdev-image-keyboard-response,486,815859,learnblock2,531.4000000357628,img/planet11_right.png,11,Community 1,NA,TRUE,j,j,NA,NA,NA,1,6,"5,1,14,11,15,2,8,3,12,10,9,4,6,13,7"
14928,commdev-image-keyboard-response,487,817113,learnblock2,793.8999999761581,img/planet14_left.png,14,Community 1,NA,TRUE,f,f,NA,NA,NA,1,6,"5,1,14,11,15,2,8,3,12,10,9,4,6,13,7"
14928,commdev-image-keyboard-response,488,818366,learnblock2,724.6999999880791,img/planet15_right.png,15,Community 1,NA,TRUE,j,j,NA,NA,NA,1,6,"5,1,14,11,15,2,8,3,12,10,9,4,6,13,7"
14928,commdev-image-keyboard-response,489,819619,learnblock2,882.6999999880791,img/planet14_right.png,14,Community 1,NA,TRUE,j,j,NA,NA,NA,1,6,"5,1,14,11,15,2,8,3,12,10,9,4,6,13,7"
14928,commdev-image-keyboard-response,490,820872,learnblock2,612.2999999523163,img/planet5_right.png,5,Community 1,NA,TRUE,j,j,NA,NA,NA,1,6,"5,1,14,11,15,2,8,3,12,10,9,4,6,13,7"
14928,commdev-image-keyboard-response,491,822125,learnblock2,857.6000000238419,img/planet15_right.png,15,Community 1,NA,TRUE,j,j,NA,NA,NA,1,6,"5,1,14,11,15,2,8,3,12,10,9,4,6,13,7"
14928,commdev-image-keyboard-response,492,823378,learnblock2,920.4000000357628,img/planet14_right.png,14,Community 1,NA,TRUE,j,j,NA,NA,NA,1,6,"5,1,14,11,15,2,8,3,12,10,9,4,6,13,7"
14928,commdev-image-keyboard-response,493,824630,learnblock2,688,img/planet1_right.png,1,Community 1,NA,TRUE,j,j,NA,NA,NA,1,6,"5,1,14,11,15,2,8,3,12,10,9,4,6,13,7"
14928,commdev-image-keyboard-response,494,825884,learnblock2,940.3999999761581,img/planet11_left.png,11,Community 1,NA,TRUE,f,f,NA,NA,NA,1,6,"5,1,14,11,15,2,8,3,12,10,9,4,6,13,7"
14928,commdev-image-keyboard-response,495,827136,learnblock2,671.1999999880791,img/planet1_left.png,1,Community 1,NA,TRUE,f,f,NA,NA,NA,1,6,"5,1,14,11,15,2,8,3,12,10,9,4,6,13,7"
14928,commdev-image-keyboard-response,496,828388,learnblock2,null,img/planet14_right.png,14,Community 1,NA,FALSE,null,j,NA,NA,NA,1,6,"5,1,14,11,15,2,8,3,12,10,9,4,6,13,7"
14928,commdev-image-keyboard-response,497,829642,learnblock2,65,img/planet15_left.png,15,Community 1,NA,FALSE,j,f,NA,NA,NA,1,6,"5,1,14,11,15,2,8,3,12,10,9,4,6,13,7"
14928,commdev-image-keyboard-response,498,830895,learnblock2,604.9000000357628,img/planet1_right.png,1,Community 1,NA,TRUE,j,j,NA,NA,NA,1,6,"5,1,14,11,15,2,8,3,12,10,9,4,6,13,7"
14928,commdev-image-keyboard-response,499,832148,learnblock2,603.3000000119209,img/planet11_left.png,11,Community 1,NA,TRUE,f,f,NA,NA,NA,1,6,"5,1,14,11,15,2,8,3,12,10,9,4,6,13,7"
14928,commdev-image-keyboard-response,500,833401,learnblock2,636.3000000119209,img/planet14_right.png,14,Community 1,NA,TRUE,j,j,NA,NA,NA,1,6,"5,1,14,11,15,2,8,3,12,10,9,4,6,13,7"
14928,commdev-image-keyboard-response,501,834654,learnblock2,577.2000000476837,img/planet15_left.png,15,Community 1,NA,TRUE,f,f,NA,NA,NA,1,6,"5,1,14,11,15,2,8,3,12,10,9,4,6,13,7"
14928,commdev-image-keyboard-response,502,835906,learnblock2,756.5,img/planet9_left.png,9,Community 3,NA,TRUE,f,f,NA,NA,NA,1,6,"5,1,14,11,15,2,8,3,12,10,9,4,6,13,7"
14928,commdev-image-keyboard-response,503,837158,learnblock2,961.1999999880791,img/planet7_right.png,7,Community 3,NA,FALSE,f,j,NA,NA,NA,1,6,"5,1,14,11,15,2,8,3,12,10,9,4,6,13,7"
14928,commdev-image-keyboard-response,504,838411,learnblock2,960.6999999880791,img/planet13_left.png,13,Community 3,NA,TRUE,f,f,NA,NA,NA,1,6,"5,1,14,11,15,2,8,3,12,10,9,4,6,13,7"
14928,commdev-image-keyboard-response,505,839664,learnblock2,740.0999999642372,img/planet6_left.png,6,Community 3,NA,TRUE,f,f,NA,NA,NA,1,6,"5,1,14,11,15,2,8,3,12,10,9,4,6,13,7"
14928,commdev-image-keyboard-response,506,840917,learnblock2,1192.699999988079,img/planet7_right.png,7,Community 3,NA,TRUE,j,j,NA,NA,NA,1,6,"5,1,14,11,15,2,8,3,12,10,9,4,6,13,7"
14928,commdev-image-keyboard-response,507,842171,learnblock2,881.5999999642372,img/planet6_left.png,6,Community 3,NA,TRUE,f,f,NA,NA,NA,1,6,"5,1,14,11,15,2,8,3,12,10,9,4,6,13,7"
14928,commdev-image-keyboard-response,508,843424,learnblock2,750.5,img/planet13_right.png,13,Community 3,NA,TRUE,j,j,NA,NA,NA,1,6,"5,1,14,11,15,2,8,3,12,10,9,4,6,13,7"
14928,commdev-image-keyboard-response,509,844677,learnblock2,481.30000001192093,img/planet9_right.png,9,Community 3,NA,TRUE,j,j,NA,NA,NA,1,6,"5,1,14,11,15,2,8,3,12,10,9,4,6,13,7"
14928,commdev-image-keyboard-response,510,845929,learnblock2,991,img/planet7_left.png,7,Community 3,NA,TRUE,f,f,NA,NA,NA,1,6,"5,1,14,11,15,2,8,3,12,10,9,4,6,13,7"
14928,commdev-image-keyboard-response,511,847182,learnblock2,1038.199999988079,img/planet4_left.png,4,Community 3,NA,TRUE,f,f,NA,NA,NA,1,6,"5,1,14,11,15,2,8,3,12,10,9,4,6,13,7"
14928,commdev-image-keyboard-response,512,848435,learnblock2,879,img/planet3_left.png,3,Community 2,NA,TRUE,f,f,NA,NA,NA,1,6,"5,1,14,11,15,2,8,3,12,10,9,4,6,13,7"
14928,commdev-image-keyboard-response,513,849688,learnblock2,610.6999999880791,img/planet4_right.png,4,Community 3,NA,FALSE,f,j,NA,NA,NA,1,6,"5,1,14,11,15,2,8,3,12,10,9,4,6,13,7"
14928,commdev-image-keyboard-response,514,850941,learnblock2,639.3000000119209,img/planet3_right.png,3,Community 2,NA,TRUE,j,j,NA,NA,NA,1,6,"5,1,14,11,15,2,8,3,12,10,9,4,6,13,7"
14928,commdev-image-keyboard-response,515,852194,learnblock2,701.8000000119209,img/planet4_left.png,4,Community 3,NA,TRUE,f,f,NA,NA,NA,1,6,"5,1,14,11,15,2,8,3,12,10,9,4,6,13,7"
14928,commdev-image-keyboard-response,516,853446,learnblock2,null,img/planet7_left.png,7,Community 3,NA,FALSE,null,f,NA,NA,NA,1,6,"5,1,14,11,15,2,8,3,12,10,9,4,6,13,7"
14928,commdev-image-keyboard-response,517,854699,learnblock2,63.09999996423721,img/planet9_right.png,9,Community 3,NA,FALSE,f,j,NA,NA,NA,1,6,"5,1,14,11,15,2,8,3,12,10,9,4,6,13,7"
14928,commdev-image-keyboard-response,518,855952,learnblock2,585.3999999761581,img/planet15_left.png,15,Community 1,NA,TRUE,f,f,NA,NA,NA,1,6,"5,1,14,11,15,2,8,3,12,10,9,4,6,13,7"
14928,commdev-image-keyboard-response,519,857205,learnblock2,704.2999999523163,img/planet14_right.png,14,Community 1,NA,TRUE,j,j,NA,NA,NA,1,6,"5,1,14,11,15,2,8,3,12,10,9,4,6,13,7"
14928,commdev-image-keyboard-response,520,858458,learnblock2,638.8000000119209,img/planet15_right.png,15,Community 1,NA,FALSE,f,j,NA,NA,NA,1,6,"5,1,14,11,15,2,8,3,12,10,9,4,6,13,7"
14928,commdev-image-keyboard-response,521,859711,learnblock2,515.1000000238419,img/planet1_right.png,1,Community 1,NA,TRUE,j,j,NA,NA,NA,1,6,"5,1,14,11,15,2,8,3,12,10,9,4,6,13,7"
14928,commdev-image-keyboard-response,522,860964,learnblock2,668.8000000119209,img/planet15_left.png,15,Community 1,NA,TRUE,f,f,NA,NA,NA,1,6,"5,1,14,11,15,2,8,3,12,10,9,4,6,13,7"
14928,commdev-image-keyboard-response,523,862217,learnblock2,1007.3999999761581,img/planet5_left.png,5,Community 1,NA,TRUE,f,f,NA,NA,NA,1,6,"5,1,14,11,15,2,8,3,12,10,9,4,6,13,7"
14928,commdev-image-keyboard-response,524,863470,learnblock2,904.6999999880791,img/planet11_left.png,11,Community 1,NA,TRUE,f,f,NA,NA,NA,1,6,"5,1,14,11,15,2,8,3,12,10,9,4,6,13,7"
14928,commdev-image-keyboard-response,525,864723,learnblock2,722.3999999761581,img/planet2_left.png,2,Community 2,NA,TRUE,f,f,NA,NA,NA,1,6,"5,1,14,11,15,2,8,3,12,10,9,4,6,13,7"
14928,commdev-image-keyboard-response,526,865976,learnblock2,718.1999999880791,img/planet11_right.png,11,Community 1,NA,TRUE,j,j,NA,NA,NA,1,6,"5,1,14,11,15,2,8,3,12,10,9,4,6,13,7"
14928,commdev-image-keyboard-response,527,867229,learnblock2,551.5,img/planet2_right.png,2,Community 2,NA,TRUE,j,j,NA,NA,NA,1,6,"5,1,14,11,15,2,8,3,12,10,9,4,6,13,7"
14928,commdev-image-keyboard-response,528,868482,learnblock2,812.5,img/planet8_left.png,8,Community 2,NA,FALSE,j,f,NA,NA,NA,1,6,"5,1,14,11,15,2,8,3,12,10,9,4,6,13,7"
14928,commdev-image-keyboard-response,529,869735,learnblock2,786.1999999880791,img/planet3_right.png,3,Community 2,NA,TRUE,j,j,NA,NA,NA,1,6,"5,1,14,11,15,2,8,3,12,10,9,4,6,13,7"
14928,commdev-image-keyboard-response,530,870988,learnblock2,726.8000000119209,img/planet12_left.png,12,Community 2,NA,TRUE,f,f,NA,NA,NA,1,6,"5,1,14,11,15,2,8,3,12,10,9,4,6,13,7"
14928,commdev-image-keyboard-response,531,872241,learnblock2,747.7999999523163,img/planet3_right.png,3,Community 2,NA,TRUE,j,j,NA,NA,NA,1,6,"5,1,14,11,15,2,8,3,12,10,9,4,6,13,7"
14928,commdev-image-keyboard-response,532,873494,learnblock2,802.5,img/planet12_right.png,12,Community 2,NA,TRUE,j,j,NA,NA,NA,1,6,"5,1,14,11,15,2,8,3,12,10,9,4,6,13,7"
14928,commdev-image-keyboard-response,533,874746,learnblock2,903.6999999880791,img/planet8_left.png,8,Community 2,NA,FALSE,j,f,NA,NA,NA,1,6,"5,1,14,11,15,2,8,3,12,10,9,4,6,13,7"
14928,commdev-image-keyboard-response,534,875999,learnblock2,575.6000000238419,img/planet10_left.png,10,Community 2,NA,TRUE,f,f,NA,NA,NA,1,6,"5,1,14,11,15,2,8,3,12,10,9,4,6,13,7"
14928,commdev-image-keyboard-response,535,877251,learnblock2,536.1000000238419,img/planet2_left.png,2,Community 2,NA,TRUE,f,f,NA,NA,NA,1,6,"5,1,14,11,15,2,8,3,12,10,9,4,6,13,7"
14928,commdev-image-keyboard-response,536,878504,learnblock2,717.7999999523163,img/planet8_left.png,8,Community 2,NA,TRUE,f,f,NA,NA,NA,1,6,"5,1,14,11,15,2,8,3,12,10,9,4,6,13,7"
14928,commdev-image-keyboard-response,537,879756,learnblock2,546.1000000238419,img/planet10_right.png,10,Community 2,NA,FALSE,f,j,NA,NA,NA,1,6,"5,1,14,11,15,2,8,3,12,10,9,4,6,13,7"
14928,commdev-image-keyboard-response,538,881009,learnblock2,678,img/planet8_right.png,8,Community 2,NA,TRUE,j,j,NA,NA,NA,1,6,"5,1,14,11,15,2,8,3,12,10,9,4,6,13,7"
14928,commdev-image-keyboard-response,539,882262,learnblock2,627.4000000357628,img/planet3_right.png,3,Community 2,NA,TRUE,j,j,NA,NA,NA,1,6,"5,1,14,11,15,2,8,3,12,10,9,4,6,13,7"
14928,commdev-image-keyboard-response,540,883515,learnblock2,626.6999999880791,img/planet4_left.png,4,Community 3,NA,TRUE,f,f,NA,NA,NA,1,6,"5,1,14,11,15,2,8,3,12,10,9,4,6,13,7"
14928,commdev-image-keyboard-response,541,884768,learnblock2,953,img/planet3_left.png,3,Community 2,NA,FALSE,j,f,NA,NA,NA,1,6,"5,1,14,11,15,2,8,3,12,10,9,4,6,13,7"
14928,commdev-image-keyboard-response,542,886022,learnblock2,804.1999999880791,img/planet12_left.png,12,Community 2,NA,TRUE,f,f,NA,NA,NA,1,6,"5,1,14,11,15,2,8,3,12,10,9,4,6,13,7"
14928,commdev-image-keyboard-response,543,887275,learnblock2,612.3999999761581,img/planet2_left.png,2,Community 2,NA,TRUE,f,f,NA,NA,NA,1,6,"5,1,14,11,15,2,8,3,12,10,9,4,6,13,7"
14928,commdev-image-keyboard-response,544,888528,learnblock2,803.3999999761581,img/planet11_left.png,11,Community 1,NA,TRUE,f,f,NA,NA,NA,1,6,"5,1,14,11,15,2,8,3,12,10,9,4,6,13,7"
14928,commdev-image-keyboard-response,545,889780,learnblock2,879.3000000119209,img/planet14_left.png,14,Community 1,NA,TRUE,f,f,NA,NA,NA,1,6,"5,1,14,11,15,2,8,3,12,10,9,4,6,13,7"
14928,commdev-image-keyboard-response,546,891033,learnblock2,710.3999999761581,img/planet1_left.png,1,Community 1,NA,TRUE,f,f,NA,NA,NA,1,6,"5,1,14,11,15,2,8,3,12,10,9,4,6,13,7"
14928,commdev-image-keyboard-response,547,892286,learnblock2,760,img/planet14_left.png,14,Community 1,NA,TRUE,f,f,NA,NA,NA,1,6,"5,1,14,11,15,2,8,3,12,10,9,4,6,13,7"
14928,commdev-image-keyboard-response,548,893538,learnblock2,804.1000000238419,img/planet15_right.png,15,Community 1,NA,TRUE,j,j,NA,NA,NA,1,6,"5,1,14,11,15,2,8,3,12,10,9,4,6,13,7"
14928,commdev-image-keyboard-response,549,894792,learnblock2,924.1999999880791,img/planet5_left.png,5,Community 1,NA,TRUE,f,f,NA,NA,NA,1,6,"5,1,14,11,15,2,8,3,12,10,9,4,6,13,7"
14928,commdev-image-keyboard-response,550,896045,learnblock2,1152.6000000238419,img/planet11_right.png,11,Community 1,NA,TRUE,j,j,NA,NA,NA,1,6,"5,1,14,11,15,2,8,3,12,10,9,4,6,13,7"
14928,commdev-image-keyboard-response,551,897298,learnblock2,930.1000000238419,img/planet5_left.png,5,Community 1,NA,TRUE,f,f,NA,NA,NA,1,6,"5,1,14,11,15,2,8,3,12,10,9,4,6,13,7"
14928,commdev-image-keyboard-response,552,898551,learnblock2,973,img/planet11_right.png,11,Community 1,NA,TRUE,j,j,NA,NA,NA,1,6,"5,1,14,11,15,2,8,3,12,10,9,4,6,13,7"
14928,commdev-image-keyboard-response,553,899803,learnblock2,800.1000000238419,img/planet1_left.png,1,Community 1,NA,TRUE,f,f,NA,NA,NA,1,6,"5,1,14,11,15,2,8,3,12,10,9,4,6,13,7"
14928,commdev-image-keyboard-response,554,901055,learnblock2,692.8999999761581,img/planet15_left.png,15,Community 1,NA,TRUE,f,f,NA,NA,NA,1,6,"5,1,14,11,15,2,8,3,12,10,9,4,6,13,7"
14928,commdev-image-keyboard-response,555,902308,learnblock2,574.6000000238419,img/planet1_right.png,1,Community 1,NA,TRUE,j,j,NA,NA,NA,1,6,"5,1,14,11,15,2,8,3,12,10,9,4,6,13,7"
14928,commdev-image-keyboard-response,556,903561,learnblock2,872.6999999880791,img/planet11_left.png,11,Community 1,NA,TRUE,f,f,NA,NA,NA,1,6,"5,1,14,11,15,2,8,3,12,10,9,4,6,13,7"
14928,commdev-image-keyboard-response,557,904814,learnblock2,961.5999999642372,img/planet5_left.png,5,Community 1,NA,TRUE,f,f,NA,NA,NA,1,6,"5,1,14,11,15,2,8,3,12,10,9,4,6,13,7"
14928,commdev-image-keyboard-response,558,906068,learnblock2,684,img/planet15_left.png,15,Community 1,NA,TRUE,f,f,NA,NA,NA,1,6,"5,1,14,11,15,2,8,3,12,10,9,4,6,13,7"
14928,commdev-image-keyboard-response,559,907321,learnblock2,534.5,img/planet9_right.png,9,Community 3,NA,TRUE,j,j,NA,NA,NA,1,6,"5,1,14,11,15,2,8,3,12,10,9,4,6,13,7"
14928,commdev-image-keyboard-response,560,908573,learnblock2,702.5999999642372,img/planet7_right.png,7,Community 3,NA,TRUE,j,j,NA,NA,NA,1,6,"5,1,14,11,15,2,8,3,12,10,9,4,6,13,7"
14928,commdev-image-keyboard-response,561,909824,learnblock2,554.3999999761581,img/planet9_right.png,9,Community 3,NA,TRUE,j,j,NA,NA,NA,1,6,"5,1,14,11,15,2,8,3,12,10,9,4,6,13,7"
14928,commdev-image-keyboard-response,562,911077,learnblock2,707.8999999761581,img/planet6_left.png,6,Community 3,NA,TRUE,f,f,NA,NA,NA,1,6,"5,1,14,11,15,2,8,3,12,10,9,4,6,13,7"
14928,commdev-image-keyboard-response,563,912331,learnblock2,757.8999999761581,img/planet4_left.png,4,Community 3,NA,TRUE,f,f,NA,NA,NA,1,6,"5,1,14,11,15,2,8,3,12,10,9,4,6,13,7"
14928,commdev-image-keyboard-response,564,913583,learnblock2,671,img/planet7_right.png,7,Community 3,NA,TRUE,j,j,NA,NA,NA,1,6,"5,1,14,11,15,2,8,3,12,10,9,4,6,13,7"
14928,commdev-image-keyboard-response,565,914836,learnblock2,663.8000000119209,img/planet13_right.png,13,Community 3,NA,TRUE,j,j,NA,NA,NA,1,6,"5,1,14,11,15,2,8,3,12,10,9,4,6,13,7"
14928,commdev-image-keyboard-response,566,916089,learnblock2,596.0999999642372,img/planet4_right.png,4,Community 3,NA,TRUE,j,j,NA,NA,NA,1,6,"5,1,14,11,15,2,8,3,12,10,9,4,6,13,7"
14928,commdev-image-keyboard-response,567,917342,learnblock2,918.6999999880791,img/planet7_left.png,7,Community 3,NA,FALSE,j,f,NA,NA,NA,1,6,"5,1,14,11,15,2,8,3,12,10,9,4,6,13,7"
14928,commdev-image-keyboard-response,568,918595,learnblock2,732.6000000238419,img/planet9_right.png,9,Community 3,NA,TRUE,j,j,NA,NA,NA,1,6,"5,1,14,11,15,2,8,3,12,10,9,4,6,13,7"
14928,commdev-image-keyboard-response,569,919849,learnblock2,600,img/planet13_left.png,13,Community 3,NA,TRUE,f,f,NA,NA,NA,1,6,"5,1,14,11,15,2,8,3,12,10,9,4,6,13,7"
14928,commdev-image-keyboard-response,570,921101,learnblock2,762.6999999880791,img/planet9_right.png,9,Community 3,NA,TRUE,j,j,NA,NA,NA,1,6,"5,1,14,11,15,2,8,3,12,10,9,4,6,13,7"
14928,commdev-image-keyboard-response,571,922353,learnblock2,749.3000000119209,img/planet6_left.png,6,Community 3,NA,TRUE,f,f,NA,NA,NA,1,6,"5,1,14,11,15,2,8,3,12,10,9,4,6,13,7"
14928,commdev-image-keyboard-response,572,923606,learnblock2,605,img/planet9_left.png,9,Community 3,NA,TRUE,f,f,NA,NA,NA,1,6,"5,1,14,11,15,2,8,3,12,10,9,4,6,13,7"
14928,commdev-image-keyboard-response,573,924858,learnblock2,684.1999999880791,img/planet15_right.png,15,Community 1,NA,TRUE,j,j,NA,NA,NA,1,6,"5,1,14,11,15,2,8,3,12,10,9,4,6,13,7"
14928,commdev-image-keyboard-response,574,926110,learnblock2,748.8999999761581,img/planet14_right.png,14,Community 1,NA,TRUE,j,j,NA,NA,NA,1,6,"5,1,14,11,15,2,8,3,12,10,9,4,6,13,7"
14928,commdev-image-keyboard-response,575,927363,learnblock2,825.2000000476837,img/planet15_left.png,15,Community 1,NA,TRUE,f,f,NA,NA,NA,1,6,"5,1,14,11,15,2,8,3,12,10,9,4,6,13,7"
14928,commdev-image-keyboard-response,576,928616,learnblock2,693.3999999761581,img/planet5_left.png,5,Community 1,NA,TRUE,f,f,NA,NA,NA,1,6,"5,1,14,11,15,2,8,3,12,10,9,4,6,13,7"
14928,commdev-image-keyboard-response,577,929870,learnblock2,631.9000000357628,img/planet1_right.png,1,Community 1,NA,TRUE,j,j,NA,NA,NA,1,6,"5,1,14,11,15,2,8,3,12,10,9,4,6,13,7"
14928,commdev-image-keyboard-response,578,931123,learnblock2,755.1000000238419,img/planet14_left.png,14,Community 1,NA,TRUE,f,f,NA,NA,NA,1,6,"5,1,14,11,15,2,8,3,12,10,9,4,6,13,7"
14928,commdev-image-keyboard-response,579,932375,learnblock2,638.9000000357628,img/planet15_left.png,15,Community 1,NA,TRUE,f,f,NA,NA,NA,1,6,"5,1,14,11,15,2,8,3,12,10,9,4,6,13,7"
14928,commdev-image-keyboard-response,580,933628,learnblock2,582.4000000357628,img/planet14_left.png,14,Community 1,NA,TRUE,f,f,NA,NA,NA,1,6,"5,1,14,11,15,2,8,3,12,10,9,4,6,13,7"
14928,commdev-image-keyboard-response,581,934880,learnblock2,583.6000000238419,img/planet1_right.png,1,Community 1,NA,TRUE,j,j,NA,NA,NA,1,6,"5,1,14,11,15,2,8,3,12,10,9,4,6,13,7"
14928,commdev-image-keyboard-response,582,936132,learnblock2,511.5999999642372,img/planet15_right.png,15,Community 1,NA,TRUE,j,j,NA,NA,NA,1,6,"5,1,14,11,15,2,8,3,12,10,9,4,6,13,7"
14928,commdev-image-keyboard-response,583,937385,learnblock2,570.1999999880791,img/planet5_right.png,5,Community 1,NA,TRUE,j,j,NA,NA,NA,1,6,"5,1,14,11,15,2,8,3,12,10,9,4,6,13,7"
14928,commdev-image-keyboard-response,584,938639,learnblock2,515.6999999880791,img/planet1_right.png,1,Community 1,NA,TRUE,j,j,NA,NA,NA,1,6,"5,1,14,11,15,2,8,3,12,10,9,4,6,13,7"
14928,commdev-image-keyboard-response,585,939891,learnblock2,811,img/planet15_left.png,15,Community 1,NA,TRUE,f,f,NA,NA,NA,1,6,"5,1,14,11,15,2,8,3,12,10,9,4,6,13,7"
14928,commdev-image-keyboard-response,586,941144,learnblock2,640.8999999761581,img/planet5_right.png,5,Community 1,NA,TRUE,j,j,NA,NA,NA,1,6,"5,1,14,11,15,2,8,3,12,10,9,4,6,13,7"
14928,commdev-image-keyboard-response,587,942397,learnblock2,707.8000000119209,img/planet1_left.png,1,Community 1,NA,FALSE,j,f,NA,NA,NA,1,6,"5,1,14,11,15,2,8,3,12,10,9,4,6,13,7"
14928,commdev-image-keyboard-response,588,943651,learnblock2,549.2000000476837,img/planet15_right.png,15,Community 1,NA,TRUE,j,j,NA,NA,NA,1,6,"5,1,14,11,15,2,8,3,12,10,9,4,6,13,7"
