subject_id,trial_type,trial_index,time_elapsed,block,rt,stimulus,planet,community,response,correct,key_press,learning_correct_response,parse,init_locations,final_locations,browser_interactions,num_comp,planet_map
14997,commdev-instructions,7,52227,NA,6772.70000000007,"<p>In this game, you are a scientist on board a space shuttle. </p><p> On each mission, you will visit planets all across the universe.</p><img src=""img/controlroom.jpg"" width=300vw>",NA,NA,NA,NA,NA,NA,NA,NA,NA,7,6,"14,11,10,12,8,6,9,4,1,2,13,5,15,7,3"
14997,commdev-instructions,8,56770,NA,2475.29999999993,"<p>Here are a few planets you might see:</p><img src=""img/practice1.png"" width=200vw><img src=""img/practice2.png"" width=200vw><img src=""img/practice3.png"" width=200vw>",NA,NA,NA,NA,NA,NA,NA,NA,NA,7,6,"14,11,10,12,8,6,9,4,1,2,13,5,15,7,3"
14997,commdev-instructions,9,65764,NA,1578.7999999999302,"<p>Your job as a scientist is to record which direction the winds are moving on each planet.</p><p>There are two types of wind directions:</p><img src=""img/practice1_left.png"" width=200vw><img src=""img/practice1_right.png"" width=200vw>",NA,NA,NA,NA,NA,NA,NA,NA,NA,7,6,"14,11,10,12,8,6,9,4,1,2,13,5,15,7,3"
14997,commdev-instructions,10,75445,NA,4790,"<p>If the winds are moving this way, press the letter <strong>F</strong> on the keyboard as fast as you can.</p><img src=""img/leftwind.png"" width=250vw>",NA,NA,NA,NA,NA,NA,NA,NA,NA,7,6,"14,11,10,12,8,6,9,4,1,2,13,5,15,7,3"
14997,commdev-instructions,11,83527,NA,3581.8000000000466,"<p>If the winds are moving this way, press the letter <strong>J</strong> on the keyboard as fast as you can.</p><img src=""img/rightwind.png"" width=350vw>",NA,NA,NA,NA,NA,NA,NA,NA,NA,7,6,"14,11,10,12,8,6,9,4,1,2,13,5,15,7,3"
14997,commdev-instructions,12,93813,NA,5858.600000000093,<p>You will have 1 second to respond. Try to respond before the time runs out!,NA,NA,NA,NA,NA,NA,NA,NA,NA,7,6,"14,11,10,12,8,6,9,4,1,2,13,5,15,7,3"
14997,commdev-instructions,13,101005,NA,1760.3000000000466,<p>The planets you will visit will look different from each other.</p><p>You should respond <strong>only</strong> based on wind direction.,NA,NA,NA,NA,NA,NA,NA,NA,NA,7,6,"14,11,10,12,8,6,9,4,1,2,13,5,15,7,3"
14997,commdev-instructions,14,109309,NA,3124,"<p> Ready to start the practice round? </p><p> Remember, press <strong>F</strong> or <strong>J</strong> depending on the wind direction.<br><img src=""img/categorize_planet_example.png""",NA,NA,NA,NA,NA,NA,NA,NA,NA,7,6,"14,11,10,12,8,6,9,4,1,2,13,5,15,7,3"
14997,commdev-instructions,26,169032,NA,4023.4000000000233,"<p>Great, now try a short practice mission. </p><p> This time, you will have 1 second to respond and you won't know whether you pressed the right or wrong key for each planet.</p>",NA,NA,NA,NA,NA,NA,NA,NA,NA,7,6,"14,11,10,12,8,6,9,4,1,2,13,5,15,7,3"
14997,commdev-image-keyboard-response,27,170397,practice,1210.0999999999767,img/practice1_right.png,NA,Number not found in mappings,NA,TRUE,j,j,NA,NA,NA,7,6,"14,11,10,12,8,6,9,4,1,2,13,5,15,7,3"
14997,commdev-image-keyboard-response,28,171654,practice,972.9000000000233,img/practice4_right.png,NA,Number not found in mappings,NA,TRUE,j,j,NA,NA,NA,7,6,"14,11,10,12,8,6,9,4,1,2,13,5,15,7,3"
14997,commdev-image-keyboard-response,29,172918,practice,932.9000000000233,img/practice3_left.png,NA,Number not found in mappings,NA,TRUE,f,f,NA,NA,NA,7,6,"14,11,10,12,8,6,9,4,1,2,13,5,15,7,3"
14997,commdev-image-keyboard-response,30,174181,practice,960.5,img/practice1_left.png,NA,Number not found in mappings,NA,TRUE,f,f,NA,NA,NA,7,6,"14,11,10,12,8,6,9,4,1,2,13,5,15,7,3"
14997,commdev-image-keyboard-response,31,175445,practice,897.2999999999302,img/practice2_right.png,NA,Number not found in mappings,NA,TRUE,j,j,NA,NA,NA,7,6,"14,11,10,12,8,6,9,4,1,2,13,5,15,7,3"
14997,commdev-image-keyboard-response,32,176710,practice,896.9000000000233,img/practice4_left.png,NA,Number not found in mappings,NA,TRUE,f,f,NA,NA,NA,7,6,"14,11,10,12,8,6,9,4,1,2,13,5,15,7,3"
14997,commdev-image-keyboard-response,33,177963,practice,747.4000000000233,img/practice3_right.png,NA,Number not found in mappings,NA,TRUE,j,j,NA,NA,NA,7,6,"14,11,10,12,8,6,9,4,1,2,13,5,15,7,3"
14997,commdev-image-keyboard-response,34,179217,practice,null,img/practice2_right.png,NA,Number not found in mappings,NA,FALSE,null,j,NA,NA,NA,7,6,"14,11,10,12,8,6,9,4,1,2,13,5,15,7,3"
14997,commdev-instructions,35,193305,NA,4526.5,"<p>Great job with the practice round.</p><p>During real missions, you won't know whether you pressed the right or wrong key for each planet.</p><p>But between missions, we will tell you how you did overall.</p>",NA,NA,NA,NA,NA,NA,NA,NA,NA,7,6,"14,11,10,12,8,6,9,4,1,2,13,5,15,7,3"
14997,commdev-instructions,36,203913,NA,2363.5999999999767,<p>Try your best! You will be paid a bonus based on how many correct responses you make!</p><p>Responses that are too slow will not count toward your bonus.</p>,NA,NA,NA,NA,NA,NA,NA,NA,NA,7,6,"14,11,10,12,8,6,9,4,1,2,13,5,15,7,3"
14997,commdev-instructions,37,212194,NA,2074.9000000000233,"<p>You are almost ready to start the real game.</p><p> First, we are going to ask you some questions about how the game works.</p>",NA,NA,NA,NA,NA,NA,NA,NA,NA,7,6,"14,11,10,12,8,6,9,4,1,2,13,5,15,7,3"
14997,commdev-instructions,46,307817,NA,6147.900000000023,"<p> Nice work! It is now time to start the real game.<p></p>You will go on two missions to record wind directions of different planets.<p></p>Each one will take about 5 minutes. You will get to take a break between missions.<p><p> Remember, press <strong>F</strong> or <strong>J</strong> depending on the wind direction. Good luck!<br><img src=""img/categorize_planet_example.png""",NA,NA,NA,NA,NA,NA,NA,NA,NA,7,6,"14,11,10,12,8,6,9,4,1,2,13,5,15,7,3"
14997,commdev-image-keyboard-response,48,318853,learnblock1,null,img/planet7_right.png,7,Community 3,NA,FALSE,null,j,NA,NA,NA,7,6,"14,11,10,12,8,6,9,4,1,2,13,5,15,7,3"
14997,commdev-image-keyboard-response,49,320120,learnblock1,364.0999999999767,img/planet3_right.png,3,Community 3,NA,TRUE,j,j,NA,NA,NA,7,6,"14,11,10,12,8,6,9,4,1,2,13,5,15,7,3"
14997,commdev-image-keyboard-response,50,321378,learnblock1,752.2000000000698,img/planet5_right.png,5,Community 3,NA,TRUE,j,j,NA,NA,NA,7,6,"14,11,10,12,8,6,9,4,1,2,13,5,15,7,3"
14997,commdev-image-keyboard-response,51,322631,learnblock1,null,img/planet15_right.png,15,Community 3,NA,FALSE,null,j,NA,NA,NA,7,6,"14,11,10,12,8,6,9,4,1,2,13,5,15,7,3"
14997,commdev-image-keyboard-response,52,323891,learnblock1,48.59999999997672,img/planet5_right.png,5,Community 3,NA,TRUE,j,j,NA,NA,NA,7,6,"14,11,10,12,8,6,9,4,1,2,13,5,15,7,3"
14997,commdev-image-keyboard-response,53,325159,learnblock1,650.2999999999302,img/planet3_right.png,3,Community 3,NA,FALSE,f,j,NA,NA,NA,7,6,"14,11,10,12,8,6,9,4,1,2,13,5,15,7,3"
14997,commdev-image-keyboard-response,54,326420,learnblock1,692.9000000000233,img/planet13_right.png,13,Community 3,NA,TRUE,j,j,NA,NA,NA,7,6,"14,11,10,12,8,6,9,4,1,2,13,5,15,7,3"
14997,commdev-image-keyboard-response,55,327676,learnblock1,548.2999999999302,img/planet15_right.png,15,Community 3,NA,FALSE,f,j,NA,NA,NA,7,6,"14,11,10,12,8,6,9,4,1,2,13,5,15,7,3"
14997,commdev-image-keyboard-response,56,328928,learnblock1,946.7000000000698,img/planet3_right.png,3,Community 3,NA,TRUE,j,j,NA,NA,NA,7,6,"14,11,10,12,8,6,9,4,1,2,13,5,15,7,3"
14997,commdev-image-keyboard-response,57,330181,learnblock1,null,img/planet13_right.png,13,Community 3,NA,FALSE,null,j,NA,NA,NA,7,6,"14,11,10,12,8,6,9,4,1,2,13,5,15,7,3"
14997,commdev-image-keyboard-response,58,331442,learnblock1,135.40000000002328,img/planet15_right.png,15,Community 3,NA,TRUE,j,j,NA,NA,NA,7,6,"14,11,10,12,8,6,9,4,1,2,13,5,15,7,3"
14997,commdev-image-keyboard-response,59,332696,learnblock1,1175.1999999999534,img/planet7_right.png,7,Community 3,NA,TRUE,j,j,NA,NA,NA,7,6,"14,11,10,12,8,6,9,4,1,2,13,5,15,7,3"
14997,commdev-image-keyboard-response,60,333947,learnblock1,768.9000000000233,img/planet3_right.png,3,Community 3,NA,TRUE,j,j,NA,NA,NA,7,6,"14,11,10,12,8,6,9,4,1,2,13,5,15,7,3"
14997,commdev-image-keyboard-response,61,335199,learnblock1,671.4000000000233,img/planet13_left.png,13,Community 3,NA,FALSE,j,f,NA,NA,NA,7,6,"14,11,10,12,8,6,9,4,1,2,13,5,15,7,3"
14997,commdev-image-keyboard-response,62,336460,learnblock1,677.6000000000931,img/planet15_right.png,15,Community 3,NA,FALSE,f,j,NA,NA,NA,7,6,"14,11,10,12,8,6,9,4,1,2,13,5,15,7,3"
14997,commdev-image-keyboard-response,63,337712,learnblock1,1053.2999999999302,img/planet7_left.png,7,Community 3,NA,TRUE,f,f,NA,NA,NA,7,6,"14,11,10,12,8,6,9,4,1,2,13,5,15,7,3"
14997,commdev-image-keyboard-response,64,338964,learnblock1,933.7000000000698,img/planet5_left.png,5,Community 3,NA,TRUE,f,f,NA,NA,NA,7,6,"14,11,10,12,8,6,9,4,1,2,13,5,15,7,3"
14997,commdev-image-keyboard-response,65,340217,learnblock1,null,img/planet4_right.png,4,Community 2,NA,FALSE,null,j,NA,NA,NA,7,6,"14,11,10,12,8,6,9,4,1,2,13,5,15,7,3"
14997,commdev-image-keyboard-response,66,341469,learnblock1,454.5,img/planet1_left.png,1,Community 2,NA,FALSE,j,f,NA,NA,NA,7,6,"14,11,10,12,8,6,9,4,1,2,13,5,15,7,3"
14997,commdev-image-keyboard-response,67,342722,learnblock1,637.1999999999534,img/planet2_left.png,2,Community 2,NA,TRUE,f,f,NA,NA,NA,7,6,"14,11,10,12,8,6,9,4,1,2,13,5,15,7,3"
14997,commdev-image-keyboard-response,68,343974,learnblock1,949.8000000000466,img/planet6_left.png,6,Community 2,NA,TRUE,f,f,NA,NA,NA,7,6,"14,11,10,12,8,6,9,4,1,2,13,5,15,7,3"
14997,commdev-image-keyboard-response,69,345237,learnblock1,843.6999999999534,img/planet2_left.png,2,Community 2,NA,TRUE,f,f,NA,NA,NA,7,6,"14,11,10,12,8,6,9,4,1,2,13,5,15,7,3"
14997,commdev-image-keyboard-response,70,346490,learnblock1,889,img/planet4_left.png,4,Community 2,NA,FALSE,j,f,NA,NA,NA,7,6,"14,11,10,12,8,6,9,4,1,2,13,5,15,7,3"
14997,commdev-image-keyboard-response,71,347743,learnblock1,473.29999999993015,img/planet2_left.png,2,Community 2,NA,TRUE,f,f,NA,NA,NA,7,6,"14,11,10,12,8,6,9,4,1,2,13,5,15,7,3"
14997,commdev-image-keyboard-response,72,348994,learnblock1,756.3999999999069,img/planet4_right.png,4,Community 2,NA,TRUE,j,j,NA,NA,NA,7,6,"14,11,10,12,8,6,9,4,1,2,13,5,15,7,3"
14997,commdev-image-keyboard-response,73,350246,learnblock1,989,img/planet1_right.png,1,Community 2,NA,TRUE,j,j,NA,NA,NA,7,6,"14,11,10,12,8,6,9,4,1,2,13,5,15,7,3"
14997,commdev-image-keyboard-response,74,351498,learnblock1,1012,img/planet6_left.png,6,Community 2,NA,FALSE,j,f,NA,NA,NA,7,6,"14,11,10,12,8,6,9,4,1,2,13,5,15,7,3"
14997,commdev-image-keyboard-response,75,352751,learnblock1,185.59999999997672,img/planet12_left.png,12,Community 1,NA,TRUE,f,f,NA,NA,NA,7,6,"14,11,10,12,8,6,9,4,1,2,13,5,15,7,3"
14997,commdev-image-keyboard-response,76,354003,learnblock1,632.9000000000233,img/planet6_left.png,6,Community 2,NA,FALSE,j,f,NA,NA,NA,7,6,"14,11,10,12,8,6,9,4,1,2,13,5,15,7,3"
14997,commdev-image-keyboard-response,77,355255,learnblock1,null,img/planet1_left.png,1,Community 2,NA,FALSE,null,f,NA,NA,NA,7,6,"14,11,10,12,8,6,9,4,1,2,13,5,15,7,3"
14997,commdev-image-keyboard-response,78,356507,learnblock1,101.90000000002328,img/planet2_left.png,2,Community 2,NA,TRUE,f,f,NA,NA,NA,7,6,"14,11,10,12,8,6,9,4,1,2,13,5,15,7,3"
14997,commdev-image-keyboard-response,79,357760,learnblock1,136.30000000004657,img/planet1_right.png,1,Community 2,NA,FALSE,f,j,NA,NA,NA,7,6,"14,11,10,12,8,6,9,4,1,2,13,5,15,7,3"
14997,commdev-image-keyboard-response,80,359012,learnblock1,876.1999999999534,img/planet6_left.png,6,Community 2,NA,TRUE,f,f,NA,NA,NA,7,6,"14,11,10,12,8,6,9,4,1,2,13,5,15,7,3"
14997,commdev-image-keyboard-response,81,360265,learnblock1,587,img/planet9_right.png,9,Community 2,NA,TRUE,j,j,NA,NA,NA,7,6,"14,11,10,12,8,6,9,4,1,2,13,5,15,7,3"
14997,commdev-image-keyboard-response,82,361517,learnblock1,1014.2999999999302,img/planet6_left.png,6,Community 2,NA,TRUE,f,f,NA,NA,NA,7,6,"14,11,10,12,8,6,9,4,1,2,13,5,15,7,3"
14997,commdev-image-keyboard-response,83,362771,learnblock1,767.5999999999767,img/planet2_right.png,2,Community 2,NA,TRUE,j,j,NA,NA,NA,7,6,"14,11,10,12,8,6,9,4,1,2,13,5,15,7,3"
14997,commdev-image-keyboard-response,84,364022,learnblock1,null,img/planet9_left.png,9,Community 2,NA,FALSE,null,f,NA,NA,NA,7,6,"14,11,10,12,8,6,9,4,1,2,13,5,15,7,3"
14997,commdev-image-keyboard-response,85,365276,learnblock1,116,img/planet1_right.png,1,Community 2,NA,FALSE,f,j,NA,NA,NA,7,6,"14,11,10,12,8,6,9,4,1,2,13,5,15,7,3"
14997,commdev-image-keyboard-response,86,366528,learnblock1,1132.2999999999302,img/planet9_right.png,9,Community 2,NA,TRUE,j,j,NA,NA,NA,7,6,"14,11,10,12,8,6,9,4,1,2,13,5,15,7,3"
14997,commdev-image-keyboard-response,87,367781,learnblock1,852,img/planet2_right.png,2,Community 2,NA,TRUE,j,j,NA,NA,NA,7,6,"14,11,10,12,8,6,9,4,1,2,13,5,15,7,3"
14997,commdev-image-keyboard-response,88,369032,learnblock1,895.5999999999767,img/planet1_right.png,1,Community 2,NA,TRUE,j,j,NA,NA,NA,7,6,"14,11,10,12,8,6,9,4,1,2,13,5,15,7,3"
14997,commdev-image-keyboard-response,89,370286,learnblock1,654.8000000000466,img/planet2_left.png,2,Community 2,NA,FALSE,j,f,NA,NA,NA,7,6,"14,11,10,12,8,6,9,4,1,2,13,5,15,7,3"
14997,commdev-image-keyboard-response,90,371538,learnblock1,1225.5,img/planet1_left.png,1,Community 2,NA,FALSE,j,f,NA,NA,NA,7,6,"14,11,10,12,8,6,9,4,1,2,13,5,15,7,3"
14997,commdev-image-keyboard-response,91,372789,learnblock1,340.5,img/planet9_left.png,9,Community 2,NA,TRUE,f,f,NA,NA,NA,7,6,"14,11,10,12,8,6,9,4,1,2,13,5,15,7,3"
14997,commdev-image-keyboard-response,92,374042,learnblock1,null,img/planet2_left.png,2,Community 2,NA,FALSE,null,f,NA,NA,NA,7,6,"14,11,10,12,8,6,9,4,1,2,13,5,15,7,3"
14997,commdev-image-keyboard-response,93,375294,learnblock1,626.6999999999534,img/planet9_right.png,9,Community 2,NA,TRUE,j,j,NA,NA,NA,7,6,"14,11,10,12,8,6,9,4,1,2,13,5,15,7,3"
14997,commdev-image-keyboard-response,94,376546,learnblock1,705.7999999999302,img/planet6_left.png,6,Community 2,NA,FALSE,j,f,NA,NA,NA,7,6,"14,11,10,12,8,6,9,4,1,2,13,5,15,7,3"
14997,commdev-image-keyboard-response,95,377797,learnblock1,null,img/planet12_left.png,12,Community 1,NA,FALSE,null,f,NA,NA,NA,7,6,"14,11,10,12,8,6,9,4,1,2,13,5,15,7,3"
14997,commdev-image-keyboard-response,96,379049,learnblock1,104.39999999990687,img/planet6_left.png,6,Community 2,NA,TRUE,f,f,NA,NA,NA,7,6,"14,11,10,12,8,6,9,4,1,2,13,5,15,7,3"
14997,commdev-image-keyboard-response,97,380302,learnblock1,832,img/planet9_right.png,9,Community 2,NA,TRUE,j,j,NA,NA,NA,7,6,"14,11,10,12,8,6,9,4,1,2,13,5,15,7,3"
14997,commdev-image-keyboard-response,98,381554,learnblock1,856.0999999999767,img/planet4_left.png,4,Community 2,NA,FALSE,j,f,NA,NA,NA,7,6,"14,11,10,12,8,6,9,4,1,2,13,5,15,7,3"
14997,commdev-image-keyboard-response,99,382807,learnblock1,null,img/planet5_left.png,5,Community 3,NA,FALSE,null,f,NA,NA,NA,7,6,"14,11,10,12,8,6,9,4,1,2,13,5,15,7,3"
14997,commdev-image-keyboard-response,100,384059,learnblock1,44.300000000046566,img/planet4_left.png,4,Community 2,NA,TRUE,f,f,NA,NA,NA,7,6,"14,11,10,12,8,6,9,4,1,2,13,5,15,7,3"
14997,commdev-image-keyboard-response,101,385311,learnblock1,933.5999999999767,img/planet2_right.png,2,Community 2,NA,TRUE,j,j,NA,NA,NA,7,6,"14,11,10,12,8,6,9,4,1,2,13,5,15,7,3"
14997,commdev-image-keyboard-response,102,386564,learnblock1,666.5,img/planet9_right.png,9,Community 2,NA,TRUE,j,j,NA,NA,NA,7,6,"14,11,10,12,8,6,9,4,1,2,13,5,15,7,3"
14997,commdev-image-keyboard-response,103,387816,learnblock1,762.6999999999534,img/planet1_left.png,1,Community 2,NA,FALSE,j,f,NA,NA,NA,7,6,"14,11,10,12,8,6,9,4,1,2,13,5,15,7,3"
14997,commdev-image-keyboard-response,104,389068,learnblock1,null,img/planet9_left.png,9,Community 2,NA,FALSE,null,f,NA,NA,NA,7,6,"14,11,10,12,8,6,9,4,1,2,13,5,15,7,3"
14997,commdev-image-keyboard-response,105,390320,learnblock1,107.59999999997672,img/planet6_right.png,6,Community 2,NA,FALSE,f,j,NA,NA,NA,7,6,"14,11,10,12,8,6,9,4,1,2,13,5,15,7,3"
14997,commdev-image-keyboard-response,106,391573,learnblock1,1.8999999999068677,img/planet2_left.png,2,Community 2,NA,FALSE,j,f,NA,NA,NA,7,6,"14,11,10,12,8,6,9,4,1,2,13,5,15,7,3"
14997,commdev-image-keyboard-response,107,392825,learnblock1,896,img/planet6_right.png,6,Community 2,NA,FALSE,f,j,NA,NA,NA,7,6,"14,11,10,12,8,6,9,4,1,2,13,5,15,7,3"
14997,commdev-image-keyboard-response,108,394077,learnblock1,null,img/planet2_right.png,2,Community 2,NA,FALSE,null,j,NA,NA,NA,7,6,"14,11,10,12,8,6,9,4,1,2,13,5,15,7,3"
14997,commdev-image-keyboard-response,109,395329,learnblock1,43.59999999997672,img/planet6_right.png,6,Community 2,NA,TRUE,j,j,NA,NA,NA,7,6,"14,11,10,12,8,6,9,4,1,2,13,5,15,7,3"
14997,commdev-image-keyboard-response,110,396580,learnblock1,null,img/planet9_left.png,9,Community 2,NA,FALSE,null,f,NA,NA,NA,7,6,"14,11,10,12,8,6,9,4,1,2,13,5,15,7,3"
14997,commdev-image-keyboard-response,111,397833,learnblock1,348.80000000004657,img/planet6_left.png,6,Community 2,NA,TRUE,f,f,NA,NA,NA,7,6,"14,11,10,12,8,6,9,4,1,2,13,5,15,7,3"
14997,commdev-image-keyboard-response,112,399086,learnblock1,874.3000000000466,img/planet9_right.png,9,Community 2,NA,TRUE,j,j,NA,NA,NA,7,6,"14,11,10,12,8,6,9,4,1,2,13,5,15,7,3"
14997,commdev-image-keyboard-response,113,400338,learnblock1,1027.3000000000466,img/planet4_right.png,4,Community 2,NA,TRUE,j,j,NA,NA,NA,7,6,"14,11,10,12,8,6,9,4,1,2,13,5,15,7,3"
14997,commdev-image-keyboard-response,114,401590,learnblock1,790,img/planet5_right.png,5,Community 3,NA,TRUE,j,j,NA,NA,NA,7,6,"14,11,10,12,8,6,9,4,1,2,13,5,15,7,3"
14997,commdev-image-keyboard-response,115,402843,learnblock1,734,img/planet3_right.png,3,Community 3,NA,FALSE,f,j,NA,NA,NA,7,6,"14,11,10,12,8,6,9,4,1,2,13,5,15,7,3"
14997,commdev-image-keyboard-response,116,404094,learnblock1,1042.9000000000233,img/planet13_left.png,13,Community 3,NA,FALSE,j,f,NA,NA,NA,7,6,"14,11,10,12,8,6,9,4,1,2,13,5,15,7,3"
14997,commdev-image-keyboard-response,117,405346,learnblock1,1175.6000000000931,img/planet8_right.png,8,Community 1,NA,TRUE,j,j,NA,NA,NA,7,6,"14,11,10,12,8,6,9,4,1,2,13,5,15,7,3"
14997,commdev-image-keyboard-response,118,406599,learnblock1,null,img/planet14_left.png,14,Community 1,NA,FALSE,null,f,NA,NA,NA,7,6,"14,11,10,12,8,6,9,4,1,2,13,5,15,7,3"
14997,commdev-image-keyboard-response,119,407850,learnblock1,252.09999999997672,img/planet12_right.png,12,Community 1,NA,FALSE,f,j,NA,NA,NA,7,6,"14,11,10,12,8,6,9,4,1,2,13,5,15,7,3"
14997,commdev-image-keyboard-response,120,409102,learnblock1,null,img/planet11_left.png,11,Community 1,NA,FALSE,null,f,NA,NA,NA,7,6,"14,11,10,12,8,6,9,4,1,2,13,5,15,7,3"
14997,commdev-image-keyboard-response,121,410354,learnblock1,1090.6999999999534,img/planet14_right.png,14,Community 1,NA,TRUE,j,j,NA,NA,NA,7,6,"14,11,10,12,8,6,9,4,1,2,13,5,15,7,3"
14997,commdev-image-keyboard-response,122,411606,learnblock1,null,img/planet10_right.png,10,Community 1,NA,FALSE,null,j,NA,NA,NA,7,6,"14,11,10,12,8,6,9,4,1,2,13,5,15,7,3"
14997,commdev-image-keyboard-response,123,412858,learnblock1,407.0999999999767,img/planet14_right.png,14,Community 1,NA,TRUE,j,j,NA,NA,NA,7,6,"14,11,10,12,8,6,9,4,1,2,13,5,15,7,3"
14997,commdev-image-keyboard-response,124,414112,learnblock1,1026.9000000000233,img/planet12_left.png,12,Community 1,NA,FALSE,j,f,NA,NA,NA,7,6,"14,11,10,12,8,6,9,4,1,2,13,5,15,7,3"
14997,commdev-image-keyboard-response,125,415364,learnblock1,219.70000000006985,img/planet10_left.png,10,Community 1,NA,TRUE,f,f,NA,NA,NA,7,6,"14,11,10,12,8,6,9,4,1,2,13,5,15,7,3"
14997,commdev-image-keyboard-response,126,416616,learnblock1,1237.2000000000698,img/planet12_left.png,12,Community 1,NA,TRUE,f,f,NA,NA,NA,7,6,"14,11,10,12,8,6,9,4,1,2,13,5,15,7,3"
14997,commdev-image-keyboard-response,127,417867,learnblock1,892.8999999999069,img/planet14_right.png,14,Community 1,NA,TRUE,j,j,NA,NA,NA,7,6,"14,11,10,12,8,6,9,4,1,2,13,5,15,7,3"
14997,commdev-image-keyboard-response,128,419120,learnblock1,1102.0999999999767,img/planet12_left.png,12,Community 1,NA,TRUE,f,f,NA,NA,NA,7,6,"14,11,10,12,8,6,9,4,1,2,13,5,15,7,3"
14997,commdev-image-keyboard-response,129,420372,learnblock1,1061.6999999999534,img/planet14_left.png,14,Community 1,NA,FALSE,j,f,NA,NA,NA,7,6,"14,11,10,12,8,6,9,4,1,2,13,5,15,7,3"
14997,commdev-image-keyboard-response,130,421624,learnblock1,975.9000000000233,img/planet12_left.png,12,Community 1,NA,FALSE,j,f,NA,NA,NA,7,6,"14,11,10,12,8,6,9,4,1,2,13,5,15,7,3"
14997,commdev-image-keyboard-response,131,422882,learnblock1,825,img/planet10_left.png,10,Community 1,NA,FALSE,j,f,NA,NA,NA,7,6,"14,11,10,12,8,6,9,4,1,2,13,5,15,7,3"
14997,commdev-image-keyboard-response,132,424134,learnblock1,1113.5,img/planet11_right.png,11,Community 1,NA,TRUE,j,j,NA,NA,NA,7,6,"14,11,10,12,8,6,9,4,1,2,13,5,15,7,3"
14997,commdev-image-keyboard-response,133,425386,learnblock1,814.9000000000233,img/planet12_left.png,12,Community 1,NA,FALSE,j,f,NA,NA,NA,7,6,"14,11,10,12,8,6,9,4,1,2,13,5,15,7,3"
14997,commdev-image-keyboard-response,134,426638,learnblock1,794.5,img/planet11_left.png,11,Community 1,NA,FALSE,j,f,NA,NA,NA,7,6,"14,11,10,12,8,6,9,4,1,2,13,5,15,7,3"
14997,commdev-image-keyboard-response,135,427890,learnblock1,674.3000000000466,img/planet12_left.png,12,Community 1,NA,TRUE,f,f,NA,NA,NA,7,6,"14,11,10,12,8,6,9,4,1,2,13,5,15,7,3"
14997,commdev-image-keyboard-response,136,429142,learnblock1,724,img/planet10_left.png,10,Community 1,NA,FALSE,j,f,NA,NA,NA,7,6,"14,11,10,12,8,6,9,4,1,2,13,5,15,7,3"
14997,commdev-image-keyboard-response,137,430394,learnblock1,614.0999999999767,img/planet14_left.png,14,Community 1,NA,TRUE,f,f,NA,NA,NA,7,6,"14,11,10,12,8,6,9,4,1,2,13,5,15,7,3"
14997,commdev-image-keyboard-response,138,431647,learnblock1,98.5,img/planet11_right.png,11,Community 1,NA,TRUE,j,j,NA,NA,NA,7,6,"14,11,10,12,8,6,9,4,1,2,13,5,15,7,3"
14997,commdev-image-keyboard-response,139,432900,learnblock1,216,img/planet14_right.png,14,Community 1,NA,TRUE,j,j,NA,NA,NA,7,6,"14,11,10,12,8,6,9,4,1,2,13,5,15,7,3"
14997,commdev-image-keyboard-response,140,434151,learnblock1,null,img/planet11_left.png,11,Community 1,NA,FALSE,null,f,NA,NA,NA,7,6,"14,11,10,12,8,6,9,4,1,2,13,5,15,7,3"
14997,commdev-image-keyboard-response,141,435403,learnblock1,659.8000000000466,img/planet8_right.png,8,Community 1,NA,TRUE,j,j,NA,NA,NA,7,6,"14,11,10,12,8,6,9,4,1,2,13,5,15,7,3"
14997,commdev-image-keyboard-response,142,436655,learnblock1,null,img/planet14_left.png,14,Community 1,NA,FALSE,null,f,NA,NA,NA,7,6,"14,11,10,12,8,6,9,4,1,2,13,5,15,7,3"
14997,commdev-image-keyboard-response,143,437907,learnblock1,null,img/planet8_left.png,8,Community 1,NA,FALSE,null,f,NA,NA,NA,7,6,"14,11,10,12,8,6,9,4,1,2,13,5,15,7,3"
14997,commdev-image-keyboard-response,144,439159,learnblock1,null,img/planet10_left.png,10,Community 1,NA,FALSE,null,f,NA,NA,NA,7,6,"14,11,10,12,8,6,9,4,1,2,13,5,15,7,3"
14997,commdev-image-keyboard-response,145,440410,learnblock1,null,img/planet14_left.png,14,Community 1,NA,FALSE,null,f,NA,NA,NA,7,6,"14,11,10,12,8,6,9,4,1,2,13,5,15,7,3"
14997,commdev-image-keyboard-response,146,441663,learnblock1,312.5,img/planet8_right.png,8,Community 1,NA,FALSE,f,j,NA,NA,NA,7,6,"14,11,10,12,8,6,9,4,1,2,13,5,15,7,3"
14997,commdev-image-keyboard-response,147,442915,learnblock1,15,img/planet14_left.png,14,Community 1,NA,FALSE,j,f,NA,NA,NA,7,6,"14,11,10,12,8,6,9,4,1,2,13,5,15,7,3"
14997,commdev-image-keyboard-response,148,444168,learnblock1,355.0999999999767,img/planet10_left.png,10,Community 1,NA,FALSE,j,f,NA,NA,NA,7,6,"14,11,10,12,8,6,9,4,1,2,13,5,15,7,3"
14997,commdev-image-keyboard-response,149,445420,learnblock1,298.5,img/planet14_left.png,14,Community 1,NA,TRUE,f,f,NA,NA,NA,7,6,"14,11,10,12,8,6,9,4,1,2,13,5,15,7,3"
14997,commdev-image-keyboard-response,150,446675,learnblock1,527,img/planet12_left.png,12,Community 1,NA,TRUE,f,f,NA,NA,NA,7,6,"14,11,10,12,8,6,9,4,1,2,13,5,15,7,3"
14997,commdev-image-keyboard-response,151,447927,learnblock1,177.40000000002328,img/planet10_left.png,10,Community 1,NA,TRUE,f,f,NA,NA,NA,7,6,"14,11,10,12,8,6,9,4,1,2,13,5,15,7,3"
14997,commdev-image-keyboard-response,152,449179,learnblock1,1186.9000000000233,img/planet14_left.png,14,Community 1,NA,TRUE,f,f,NA,NA,NA,7,6,"14,11,10,12,8,6,9,4,1,2,13,5,15,7,3"
14997,commdev-image-keyboard-response,153,450431,learnblock1,1032.7000000000698,img/planet8_right.png,8,Community 1,NA,TRUE,j,j,NA,NA,NA,7,6,"14,11,10,12,8,6,9,4,1,2,13,5,15,7,3"
14997,commdev-image-keyboard-response,154,451683,learnblock1,null,img/planet13_left.png,13,Community 3,NA,FALSE,null,f,NA,NA,NA,7,6,"14,11,10,12,8,6,9,4,1,2,13,5,15,7,3"
14997,commdev-image-keyboard-response,155,452935,learnblock1,164.5,img/planet3_left.png,3,Community 3,NA,FALSE,j,f,NA,NA,NA,7,6,"14,11,10,12,8,6,9,4,1,2,13,5,15,7,3"
14997,commdev-image-keyboard-response,156,454187,learnblock1,2.800000000046566,img/planet15_right.png,15,Community 3,NA,FALSE,f,j,NA,NA,NA,7,6,"14,11,10,12,8,6,9,4,1,2,13,5,15,7,3"
14997,commdev-image-keyboard-response,157,455440,learnblock1,905.6999999999534,img/planet3_left.png,3,Community 3,NA,TRUE,f,f,NA,NA,NA,7,6,"14,11,10,12,8,6,9,4,1,2,13,5,15,7,3"
14997,commdev-image-keyboard-response,158,456693,learnblock1,1029.2999999999302,img/planet7_right.png,7,Community 3,NA,TRUE,j,j,NA,NA,NA,7,6,"14,11,10,12,8,6,9,4,1,2,13,5,15,7,3"
14997,commdev-image-keyboard-response,159,457946,learnblock1,null,img/planet3_left.png,3,Community 3,NA,FALSE,null,f,NA,NA,NA,7,6,"14,11,10,12,8,6,9,4,1,2,13,5,15,7,3"
14997,commdev-image-keyboard-response,160,459198,learnblock1,306.30000000004657,img/planet5_right.png,5,Community 3,NA,FALSE,f,j,NA,NA,NA,7,6,"14,11,10,12,8,6,9,4,1,2,13,5,15,7,3"
14997,commdev-image-keyboard-response,161,460450,learnblock1,null,img/planet3_right.png,3,Community 3,NA,FALSE,null,j,NA,NA,NA,7,6,"14,11,10,12,8,6,9,4,1,2,13,5,15,7,3"
14997,commdev-image-keyboard-response,162,461703,learnblock1,379.9000000000233,img/planet15_right.png,15,Community 3,NA,TRUE,j,j,NA,NA,NA,7,6,"14,11,10,12,8,6,9,4,1,2,13,5,15,7,3"
14997,commdev-image-keyboard-response,163,462955,learnblock1,46.59999999997672,img/planet13_right.png,13,Community 3,NA,TRUE,j,j,NA,NA,NA,7,6,"14,11,10,12,8,6,9,4,1,2,13,5,15,7,3"
14997,commdev-image-keyboard-response,164,464207,learnblock1,786.4000000000233,img/planet7_left.png,7,Community 3,NA,FALSE,j,f,NA,NA,NA,7,6,"14,11,10,12,8,6,9,4,1,2,13,5,15,7,3"
14997,commdev-image-keyboard-response,165,465459,learnblock1,933.5,img/planet3_right.png,3,Community 3,NA,TRUE,j,j,NA,NA,NA,7,6,"14,11,10,12,8,6,9,4,1,2,13,5,15,7,3"
14997,commdev-image-keyboard-response,166,466710,learnblock1,1008.5999999999767,img/planet5_left.png,5,Community 3,NA,FALSE,j,f,NA,NA,NA,7,6,"14,11,10,12,8,6,9,4,1,2,13,5,15,7,3"
14997,commdev-image-keyboard-response,167,467963,learnblock1,143.5,img/planet7_right.png,7,Community 3,NA,FALSE,f,j,NA,NA,NA,7,6,"14,11,10,12,8,6,9,4,1,2,13,5,15,7,3"
14997,commdev-image-keyboard-response,168,469215,learnblock1,1168.8999999999069,img/planet13_right.png,13,Community 3,NA,TRUE,j,j,NA,NA,NA,7,6,"14,11,10,12,8,6,9,4,1,2,13,5,15,7,3"
14997,commdev-image-keyboard-response,169,470466,learnblock1,1157,img/planet7_left.png,7,Community 3,NA,TRUE,f,f,NA,NA,NA,7,6,"14,11,10,12,8,6,9,4,1,2,13,5,15,7,3"
14997,commdev-image-keyboard-response,170,471723,learnblock1,null,img/planet13_left.png,13,Community 3,NA,FALSE,null,f,NA,NA,NA,7,6,"14,11,10,12,8,6,9,4,1,2,13,5,15,7,3"
14997,commdev-image-keyboard-response,171,472974,learnblock1,518.0999999998603,img/planet15_right.png,15,Community 3,NA,FALSE,f,j,NA,NA,NA,7,6,"14,11,10,12,8,6,9,4,1,2,13,5,15,7,3"
14997,commdev-image-keyboard-response,172,474226,learnblock1,null,img/planet7_left.png,7,Community 3,NA,FALSE,null,f,NA,NA,NA,7,6,"14,11,10,12,8,6,9,4,1,2,13,5,15,7,3"
14997,commdev-image-keyboard-response,173,475478,learnblock1,498.5,img/planet15_right.png,15,Community 3,NA,FALSE,f,j,NA,NA,NA,7,6,"14,11,10,12,8,6,9,4,1,2,13,5,15,7,3"
14997,commdev-image-keyboard-response,174,476731,learnblock1,880.9000000001397,img/planet3_left.png,3,Community 3,NA,FALSE,j,f,NA,NA,NA,7,6,"14,11,10,12,8,6,9,4,1,2,13,5,15,7,3"
14997,commdev-image-keyboard-response,175,477984,learnblock1,562,img/planet5_right.png,5,Community 3,NA,TRUE,j,j,NA,NA,NA,7,6,"14,11,10,12,8,6,9,4,1,2,13,5,15,7,3"
14997,commdev-image-keyboard-response,176,479236,learnblock1,561.1000000000931,img/planet3_left.png,3,Community 3,NA,TRUE,f,f,NA,NA,NA,7,6,"14,11,10,12,8,6,9,4,1,2,13,5,15,7,3"
14997,commdev-image-keyboard-response,177,480489,learnblock1,649.3999999999069,img/planet15_right.png,15,Community 3,NA,TRUE,j,j,NA,NA,NA,7,6,"14,11,10,12,8,6,9,4,1,2,13,5,15,7,3"
14997,commdev-image-keyboard-response,178,481752,learnblock1,803.8000000000466,img/planet7_left.png,7,Community 3,NA,FALSE,j,f,NA,NA,NA,7,6,"14,11,10,12,8,6,9,4,1,2,13,5,15,7,3"
14997,commdev-image-keyboard-response,179,483004,learnblock1,965.6999999999534,img/planet3_right.png,3,Community 3,NA,FALSE,f,j,NA,NA,NA,7,6,"14,11,10,12,8,6,9,4,1,2,13,5,15,7,3"
14997,commdev-image-keyboard-response,180,484256,learnblock1,993.7999999998137,img/planet15_right.png,15,Community 3,NA,TRUE,j,j,NA,NA,NA,7,6,"14,11,10,12,8,6,9,4,1,2,13,5,15,7,3"
14997,commdev-image-keyboard-response,181,485508,learnblock1,1143.8999999999069,img/planet3_left.png,3,Community 3,NA,TRUE,f,f,NA,NA,NA,7,6,"14,11,10,12,8,6,9,4,1,2,13,5,15,7,3"
14997,commdev-image-keyboard-response,182,486760,learnblock1,833.7999999998137,img/planet5_right.png,5,Community 3,NA,TRUE,j,j,NA,NA,NA,7,6,"14,11,10,12,8,6,9,4,1,2,13,5,15,7,3"
14997,commdev-image-keyboard-response,183,488012,learnblock1,676.1000000000931,img/planet7_left.png,7,Community 3,NA,FALSE,j,f,NA,NA,NA,7,6,"14,11,10,12,8,6,9,4,1,2,13,5,15,7,3"
14997,commdev-image-keyboard-response,184,489264,learnblock1,1002.7999999998137,img/planet13_left.png,13,Community 3,NA,FALSE,j,f,NA,NA,NA,7,6,"14,11,10,12,8,6,9,4,1,2,13,5,15,7,3"
14997,commdev-image-keyboard-response,185,490515,learnblock1,803.8999999999069,img/planet3_right.png,3,Community 3,NA,FALSE,f,j,NA,NA,NA,7,6,"14,11,10,12,8,6,9,4,1,2,13,5,15,7,3"
14997,commdev-image-keyboard-response,186,491767,learnblock1,null,img/planet7_right.png,7,Community 3,NA,FALSE,null,j,NA,NA,NA,7,6,"14,11,10,12,8,6,9,4,1,2,13,5,15,7,3"
14997,commdev-image-keyboard-response,187,493020,learnblock1,265.9000000001397,img/planet15_left.png,15,Community 3,NA,TRUE,f,f,NA,NA,NA,7,6,"14,11,10,12,8,6,9,4,1,2,13,5,15,7,3"
14997,commdev-image-keyboard-response,188,494273,learnblock1,822.3999999999069,img/planet5_left.png,5,Community 3,NA,FALSE,j,f,NA,NA,NA,7,6,"14,11,10,12,8,6,9,4,1,2,13,5,15,7,3"
14997,commdev-image-keyboard-response,189,495525,learnblock1,1095.1999999999534,img/planet3_right.png,3,Community 3,NA,FALSE,f,j,NA,NA,NA,7,6,"14,11,10,12,8,6,9,4,1,2,13,5,15,7,3"
14997,commdev-image-keyboard-response,190,496778,learnblock1,457.5,img/planet15_left.png,15,Community 3,NA,FALSE,j,f,NA,NA,NA,7,6,"14,11,10,12,8,6,9,4,1,2,13,5,15,7,3"
14997,commdev-image-keyboard-response,191,498030,learnblock1,739.5,img/planet7_left.png,7,Community 3,NA,TRUE,f,f,NA,NA,NA,7,6,"14,11,10,12,8,6,9,4,1,2,13,5,15,7,3"
14997,commdev-image-keyboard-response,192,499283,learnblock1,471.10000000009313,img/planet15_right.png,15,Community 3,NA,TRUE,j,j,NA,NA,NA,7,6,"14,11,10,12,8,6,9,4,1,2,13,5,15,7,3"
14997,commdev-image-keyboard-response,193,500535,learnblock1,709.3000000000466,img/planet7_left.png,7,Community 3,NA,TRUE,f,f,NA,NA,NA,7,6,"14,11,10,12,8,6,9,4,1,2,13,5,15,7,3"
14997,commdev-image-keyboard-response,194,501787,learnblock1,539.5,img/planet3_right.png,3,Community 3,NA,TRUE,j,j,NA,NA,NA,7,6,"14,11,10,12,8,6,9,4,1,2,13,5,15,7,3"
14997,commdev-image-keyboard-response,195,503039,learnblock1,836.7000000001863,img/planet5_left.png,5,Community 3,NA,TRUE,f,f,NA,NA,NA,7,6,"14,11,10,12,8,6,9,4,1,2,13,5,15,7,3"
14997,commdev-image-keyboard-response,196,504292,learnblock1,1236.3999999999069,img/planet3_left.png,3,Community 3,NA,FALSE,j,f,NA,NA,NA,7,6,"14,11,10,12,8,6,9,4,1,2,13,5,15,7,3"
14997,commdev-image-keyboard-response,197,505544,learnblock1,null,img/planet13_right.png,13,Community 3,NA,FALSE,null,j,NA,NA,NA,7,6,"14,11,10,12,8,6,9,4,1,2,13,5,15,7,3"
14997,commdev-image-keyboard-response,198,506796,learnblock1,476.70000000018626,img/planet3_right.png,3,Community 3,NA,TRUE,j,j,NA,NA,NA,7,6,"14,11,10,12,8,6,9,4,1,2,13,5,15,7,3"
14997,commdev-image-keyboard-response,199,508048,learnblock1,null,img/planet15_left.png,15,Community 3,NA,FALSE,null,f,NA,NA,NA,7,6,"14,11,10,12,8,6,9,4,1,2,13,5,15,7,3"
14997,commdev-image-keyboard-response,200,509301,learnblock1,490.4000000001397,img/planet3_left.png,3,Community 3,NA,TRUE,f,f,NA,NA,NA,7,6,"14,11,10,12,8,6,9,4,1,2,13,5,15,7,3"
14997,commdev-image-keyboard-response,201,510553,learnblock1,941,img/planet7_right.png,7,Community 3,NA,TRUE,j,j,NA,NA,NA,7,6,"14,11,10,12,8,6,9,4,1,2,13,5,15,7,3"
14997,commdev-image-keyboard-response,202,511805,learnblock1,null,img/planet3_left.png,3,Community 3,NA,FALSE,null,f,NA,NA,NA,7,6,"14,11,10,12,8,6,9,4,1,2,13,5,15,7,3"
14997,commdev-image-keyboard-response,203,513057,learnblock1,234.30000000004657,img/planet7_right.png,7,Community 3,NA,TRUE,j,j,NA,NA,NA,7,6,"14,11,10,12,8,6,9,4,1,2,13,5,15,7,3"
14997,commdev-image-keyboard-response,204,514310,learnblock1,376.9000000001397,img/planet13_right.png,13,Community 3,NA,TRUE,j,j,NA,NA,NA,7,6,"14,11,10,12,8,6,9,4,1,2,13,5,15,7,3"
14997,commdev-image-keyboard-response,205,515562,learnblock1,837.4000000001397,img/planet7_left.png,7,Community 3,NA,TRUE,f,f,NA,NA,NA,7,6,"14,11,10,12,8,6,9,4,1,2,13,5,15,7,3"
14997,commdev-image-keyboard-response,206,516815,learnblock1,705.6000000000931,img/planet5_left.png,5,Community 3,NA,FALSE,j,f,NA,NA,NA,7,6,"14,11,10,12,8,6,9,4,1,2,13,5,15,7,3"
14997,commdev-image-keyboard-response,207,518067,learnblock1,67,img/planet4_right.png,4,Community 2,NA,FALSE,f,j,NA,NA,NA,7,6,"14,11,10,12,8,6,9,4,1,2,13,5,15,7,3"
14997,commdev-image-keyboard-response,208,519319,learnblock1,565.0999999998603,img/planet2_left.png,2,Community 2,NA,FALSE,j,f,NA,NA,NA,7,6,"14,11,10,12,8,6,9,4,1,2,13,5,15,7,3"
14997,commdev-image-keyboard-response,209,520571,learnblock1,1026,img/planet4_left.png,4,Community 2,NA,FALSE,j,f,NA,NA,NA,7,6,"14,11,10,12,8,6,9,4,1,2,13,5,15,7,3"
14997,commdev-image-keyboard-response,210,521824,learnblock1,743.0999999998603,img/planet1_left.png,1,Community 2,NA,TRUE,f,f,NA,NA,NA,7,6,"14,11,10,12,8,6,9,4,1,2,13,5,15,7,3"
14997,commdev-image-keyboard-response,211,523077,learnblock1,931.8000000000466,img/planet6_right.png,6,Community 2,NA,TRUE,j,j,NA,NA,NA,7,6,"14,11,10,12,8,6,9,4,1,2,13,5,15,7,3"
14997,commdev-image-keyboard-response,212,524330,learnblock1,null,img/planet9_right.png,9,Community 2,NA,FALSE,null,j,NA,NA,NA,7,6,"14,11,10,12,8,6,9,4,1,2,13,5,15,7,3"
14997,commdev-image-keyboard-response,213,525582,learnblock1,null,img/planet1_left.png,1,Community 2,NA,FALSE,null,f,NA,NA,NA,7,6,"14,11,10,12,8,6,9,4,1,2,13,5,15,7,3"
14997,commdev-image-keyboard-response,214,526833,learnblock1,549.3000000000466,img/planet6_left.png,6,Community 2,NA,TRUE,f,f,NA,NA,NA,7,6,"14,11,10,12,8,6,9,4,1,2,13,5,15,7,3"
14997,commdev-image-keyboard-response,215,528085,learnblock1,1058,img/planet2_right.png,2,Community 2,NA,TRUE,j,j,NA,NA,NA,7,6,"14,11,10,12,8,6,9,4,1,2,13,5,15,7,3"
14997,commdev-image-keyboard-response,216,529337,learnblock1,1210.1999999999534,img/planet1_left.png,1,Community 2,NA,TRUE,f,f,NA,NA,NA,7,6,"14,11,10,12,8,6,9,4,1,2,13,5,15,7,3"
14997,commdev-image-keyboard-response,217,530588,learnblock1,1195.5,img/planet4_right.png,4,Community 2,NA,TRUE,j,j,NA,NA,NA,7,6,"14,11,10,12,8,6,9,4,1,2,13,5,15,7,3"
14997,commdev-image-keyboard-response,218,531840,learnblock1,null,img/planet9_right.png,9,Community 2,NA,FALSE,null,j,NA,NA,NA,7,6,"14,11,10,12,8,6,9,4,1,2,13,5,15,7,3"
14997,commdev-image-keyboard-response,219,533093,learnblock1,292.9000000001397,img/planet1_left.png,1,Community 2,NA,FALSE,j,f,NA,NA,NA,7,6,"14,11,10,12,8,6,9,4,1,2,13,5,15,7,3"
14997,commdev-image-keyboard-response,220,534346,learnblock1,953.8000000000466,img/planet9_right.png,9,Community 2,NA,TRUE,j,j,NA,NA,NA,7,6,"14,11,10,12,8,6,9,4,1,2,13,5,15,7,3"
14997,commdev-image-keyboard-response,221,535599,learnblock1,null,img/planet4_left.png,4,Community 2,NA,FALSE,null,f,NA,NA,NA,7,6,"14,11,10,12,8,6,9,4,1,2,13,5,15,7,3"
14997,commdev-image-keyboard-response,222,536851,learnblock1,810.6000000000931,img/planet2_right.png,2,Community 2,NA,FALSE,f,j,NA,NA,NA,7,6,"14,11,10,12,8,6,9,4,1,2,13,5,15,7,3"
14997,commdev-image-keyboard-response,223,538102,learnblock1,null,img/planet1_left.png,1,Community 2,NA,FALSE,null,f,NA,NA,NA,7,6,"14,11,10,12,8,6,9,4,1,2,13,5,15,7,3"
14997,commdev-image-keyboard-response,224,539354,learnblock1,531.3999999999069,img/planet4_right.png,4,Community 2,NA,TRUE,j,j,NA,NA,NA,7,6,"14,11,10,12,8,6,9,4,1,2,13,5,15,7,3"
14997,commdev-image-keyboard-response,225,540607,learnblock1,619.8000000000466,img/planet2_left.png,2,Community 2,NA,TRUE,f,f,NA,NA,NA,7,6,"14,11,10,12,8,6,9,4,1,2,13,5,15,7,3"
14997,commdev-image-keyboard-response,226,541860,learnblock1,65.19999999995343,img/planet9_left.png,9,Community 2,NA,FALSE,j,f,NA,NA,NA,7,6,"14,11,10,12,8,6,9,4,1,2,13,5,15,7,3"
14997,commdev-image-keyboard-response,227,543112,learnblock1,578.1999999999534,img/planet1_right.png,1,Community 2,NA,FALSE,f,j,NA,NA,NA,7,6,"14,11,10,12,8,6,9,4,1,2,13,5,15,7,3"
14997,commdev-image-keyboard-response,228,544364,learnblock1,106.30000000004657,img/planet2_right.png,2,Community 2,NA,TRUE,j,j,NA,NA,NA,7,6,"14,11,10,12,8,6,9,4,1,2,13,5,15,7,3"
14997,commdev-image-keyboard-response,229,545616,learnblock1,950.1999999999534,img/planet9_left.png,9,Community 2,NA,TRUE,f,f,NA,NA,NA,7,6,"14,11,10,12,8,6,9,4,1,2,13,5,15,7,3"
14997,commdev-image-keyboard-response,230,546869,learnblock1,872.5,img/planet4_right.png,4,Community 2,NA,TRUE,j,j,NA,NA,NA,7,6,"14,11,10,12,8,6,9,4,1,2,13,5,15,7,3"
14997,commdev-image-keyboard-response,231,548121,learnblock1,null,img/planet5_left.png,5,Community 3,NA,FALSE,null,f,NA,NA,NA,7,6,"14,11,10,12,8,6,9,4,1,2,13,5,15,7,3"
14997,commdev-image-keyboard-response,232,549374,learnblock1,247,img/planet3_left.png,3,Community 3,NA,FALSE,j,f,NA,NA,NA,7,6,"14,11,10,12,8,6,9,4,1,2,13,5,15,7,3"
14997,commdev-image-keyboard-response,233,550626,learnblock1,952.6999999999534,img/planet7_left.png,7,Community 3,NA,FALSE,j,f,NA,NA,NA,7,6,"14,11,10,12,8,6,9,4,1,2,13,5,15,7,3"
14997,commdev-image-keyboard-response,234,551877,learnblock1,378.69999999995343,img/planet5_left.png,5,Community 3,NA,FALSE,j,f,NA,NA,NA,7,6,"14,11,10,12,8,6,9,4,1,2,13,5,15,7,3"
14997,commdev-image-keyboard-response,235,553131,learnblock1,133,img/planet15_right.png,15,Community 3,NA,FALSE,f,j,NA,NA,NA,7,6,"14,11,10,12,8,6,9,4,1,2,13,5,15,7,3"
14997,commdev-image-keyboard-response,236,554382,learnblock1,197.30000000004657,img/planet7_left.png,7,Community 3,NA,FALSE,j,f,NA,NA,NA,7,6,"14,11,10,12,8,6,9,4,1,2,13,5,15,7,3"
14997,commdev-image-keyboard-response,237,555634,learnblock1,320.30000000004657,img/planet15_left.png,15,Community 3,NA,TRUE,f,f,NA,NA,NA,7,6,"14,11,10,12,8,6,9,4,1,2,13,5,15,7,3"
14997,commdev-image-keyboard-response,238,556887,learnblock1,269.0999999998603,img/planet7_left.png,7,Community 3,NA,TRUE,f,f,NA,NA,NA,7,6,"14,11,10,12,8,6,9,4,1,2,13,5,15,7,3"
14997,commdev-image-keyboard-response,239,558139,learnblock1,7.2999999998137355,img/planet13_left.png,13,Community 3,NA,TRUE,f,f,NA,NA,NA,7,6,"14,11,10,12,8,6,9,4,1,2,13,5,15,7,3"
14997,commdev-image-keyboard-response,240,559391,learnblock1,760.7000000001863,img/planet7_right.png,7,Community 3,NA,TRUE,j,j,NA,NA,NA,7,6,"14,11,10,12,8,6,9,4,1,2,13,5,15,7,3"
14997,commdev-image-keyboard-response,241,560643,learnblock1,813.3999999999069,img/planet5_right.png,5,Community 3,NA,TRUE,j,j,NA,NA,NA,7,6,"14,11,10,12,8,6,9,4,1,2,13,5,15,7,3"
14997,commdev-image-keyboard-response,242,561895,learnblock1,1041.8999999999069,img/planet7_left.png,7,Community 3,NA,FALSE,j,f,NA,NA,NA,7,6,"14,11,10,12,8,6,9,4,1,2,13,5,15,7,3"
14997,commdev-image-keyboard-response,243,563148,learnblock1,183.5,img/planet15_right.png,15,Community 3,NA,FALSE,f,j,NA,NA,NA,7,6,"14,11,10,12,8,6,9,4,1,2,13,5,15,7,3"
14997,commdev-image-keyboard-response,244,564400,learnblock1,1202.3000000000466,img/planet7_left.png,7,Community 3,NA,TRUE,f,f,NA,NA,NA,7,6,"14,11,10,12,8,6,9,4,1,2,13,5,15,7,3"
14997,commdev-image-keyboard-response,245,565653,learnblock1,null,img/planet15_right.png,15,Community 3,NA,FALSE,null,j,NA,NA,NA,7,6,"14,11,10,12,8,6,9,4,1,2,13,5,15,7,3"
14997,commdev-image-keyboard-response,246,566905,learnblock1,372.39999999990687,img/planet13_right.png,13,Community 3,NA,TRUE,j,j,NA,NA,NA,7,6,"14,11,10,12,8,6,9,4,1,2,13,5,15,7,3"
14997,commdev-image-keyboard-response,247,568157,learnblock1,960.1999999999534,img/planet8_left.png,8,Community 1,NA,TRUE,f,f,NA,NA,NA,7,6,"14,11,10,12,8,6,9,4,1,2,13,5,15,7,3"
14997,commdev-image-keyboard-response,248,569410,learnblock1,1154.0999999998603,img/planet13_right.png,13,Community 3,NA,TRUE,j,j,NA,NA,NA,7,6,"14,11,10,12,8,6,9,4,1,2,13,5,15,7,3"
14997,commdev-image-keyboard-response,249,570662,learnblock1,750.3000000000466,img/planet15_left.png,15,Community 3,NA,FALSE,j,f,NA,NA,NA,7,6,"14,11,10,12,8,6,9,4,1,2,13,5,15,7,3"
14997,commdev-image-keyboard-response,250,571914,learnblock1,866.5999999998603,img/planet13_left.png,13,Community 3,NA,FALSE,j,f,NA,NA,NA,7,6,"14,11,10,12,8,6,9,4,1,2,13,5,15,7,3"
14997,commdev-image-keyboard-response,251,573166,learnblock1,497.29999999981374,img/planet7_right.png,7,Community 3,NA,FALSE,f,j,NA,NA,NA,7,6,"14,11,10,12,8,6,9,4,1,2,13,5,15,7,3"
14997,commdev-image-keyboard-response,252,574418,learnblock1,null,img/planet5_right.png,5,Community 3,NA,FALSE,null,j,NA,NA,NA,7,6,"14,11,10,12,8,6,9,4,1,2,13,5,15,7,3"
14997,commdev-image-keyboard-response,253,575671,learnblock1,119.89999999990687,img/planet4_left.png,4,Community 2,NA,FALSE,j,f,NA,NA,NA,7,6,"14,11,10,12,8,6,9,4,1,2,13,5,15,7,3"
14997,commdev-image-keyboard-response,254,576923,learnblock1,555.3000000000466,img/planet2_right.png,2,Community 2,NA,TRUE,j,j,NA,NA,NA,7,6,"14,11,10,12,8,6,9,4,1,2,13,5,15,7,3"
14997,commdev-image-keyboard-response,255,578174,learnblock1,5.699999999953434,img/planet4_right.png,4,Community 2,NA,TRUE,j,j,NA,NA,NA,7,6,"14,11,10,12,8,6,9,4,1,2,13,5,15,7,3"
14997,commdev-image-keyboard-response,256,579426,learnblock1,273.5,img/planet5_right.png,5,Community 3,NA,TRUE,j,j,NA,NA,NA,7,6,"14,11,10,12,8,6,9,4,1,2,13,5,15,7,3"
14997,commdev-image-keyboard-response,257,580680,learnblock1,751.6999999999534,img/planet3_left.png,3,Community 3,NA,TRUE,f,f,NA,NA,NA,7,6,"14,11,10,12,8,6,9,4,1,2,13,5,15,7,3"
14997,commdev-image-keyboard-response,258,581933,learnblock1,21.0999999998603,img/planet15_left.png,15,Community 3,NA,TRUE,f,f,NA,NA,NA,7,6,"14,11,10,12,8,6,9,4,1,2,13,5,15,7,3"
14997,commdev-image-keyboard-response,259,583184,learnblock1,126.10000000009313,img/planet5_left.png,5,Community 3,NA,TRUE,f,f,NA,NA,NA,7,6,"14,11,10,12,8,6,9,4,1,2,13,5,15,7,3"
14997,commdev-image-keyboard-response,260,584437,learnblock1,null,img/planet7_left.png,7,Community 3,NA,FALSE,null,f,NA,NA,NA,7,6,"14,11,10,12,8,6,9,4,1,2,13,5,15,7,3"
14997,commdev-image-keyboard-response,261,585689,learnblock1,null,img/planet15_right.png,15,Community 3,NA,FALSE,null,j,NA,NA,NA,7,6,"14,11,10,12,8,6,9,4,1,2,13,5,15,7,3"
14997,commdev-image-keyboard-response,262,586942,learnblock1,435.80000000004657,img/planet13_left.png,13,Community 3,NA,FALSE,j,f,NA,NA,NA,7,6,"14,11,10,12,8,6,9,4,1,2,13,5,15,7,3"
14997,commdev-image-keyboard-response,263,588195,learnblock1,901.1000000000931,img/planet15_left.png,15,Community 3,NA,FALSE,j,f,NA,NA,NA,7,6,"14,11,10,12,8,6,9,4,1,2,13,5,15,7,3"
14997,commdev-image-keyboard-response,264,589448,learnblock1,1085.8000000000466,img/planet7_right.png,7,Community 3,NA,FALSE,f,j,NA,NA,NA,7,6,"14,11,10,12,8,6,9,4,1,2,13,5,15,7,3"
14997,commdev-image-keyboard-response,265,590700,learnblock1,null,img/planet5_left.png,5,Community 3,NA,FALSE,null,f,NA,NA,NA,7,6,"14,11,10,12,8,6,9,4,1,2,13,5,15,7,3"
14997,commdev-image-keyboard-response,266,591953,learnblock1,null,img/planet4_left.png,4,Community 2,NA,FALSE,null,f,NA,NA,NA,7,6,"14,11,10,12,8,6,9,4,1,2,13,5,15,7,3"
14997,commdev-image-keyboard-response,267,593204,learnblock1,379,img/planet9_right.png,9,Community 2,NA,FALSE,f,j,NA,NA,NA,7,6,"14,11,10,12,8,6,9,4,1,2,13,5,15,7,3"
14997,commdev-image-keyboard-response,268,594457,learnblock1,649.1999999999534,img/planet2_left.png,2,Community 2,NA,TRUE,f,f,NA,NA,NA,7,6,"14,11,10,12,8,6,9,4,1,2,13,5,15,7,3"
14997,commdev-image-keyboard-response,269,595721,learnblock1,372.10000000009313,img/planet1_right.png,1,Community 2,NA,TRUE,j,j,NA,NA,NA,7,6,"14,11,10,12,8,6,9,4,1,2,13,5,15,7,3"
14997,commdev-image-keyboard-response,270,596973,learnblock1,575.9000000001397,img/planet9_left.png,9,Community 2,NA,FALSE,j,f,NA,NA,NA,7,6,"14,11,10,12,8,6,9,4,1,2,13,5,15,7,3"
14997,commdev-image-keyboard-response,271,598225,learnblock1,69.39999999990687,img/planet2_right.png,2,Community 2,NA,FALSE,f,j,NA,NA,NA,7,6,"14,11,10,12,8,6,9,4,1,2,13,5,15,7,3"
14997,commdev-image-keyboard-response,272,599484,learnblock1,672,img/planet1_right.png,1,Community 2,NA,FALSE,f,j,NA,NA,NA,7,6,"14,11,10,12,8,6,9,4,1,2,13,5,15,7,3"
14997,commdev-image-keyboard-response,273,600736,learnblock1,905.5,img/planet9_left.png,9,Community 2,NA,TRUE,f,f,NA,NA,NA,7,6,"14,11,10,12,8,6,9,4,1,2,13,5,15,7,3"
14997,commdev-image-keyboard-response,274,601988,learnblock1,851.5,img/planet4_right.png,4,Community 2,NA,FALSE,f,j,NA,NA,NA,7,6,"14,11,10,12,8,6,9,4,1,2,13,5,15,7,3"
14997,commdev-image-keyboard-response,275,603240,learnblock1,1218.5999999998603,img/planet2_right.png,2,Community 2,NA,FALSE,f,j,NA,NA,NA,7,6,"14,11,10,12,8,6,9,4,1,2,13,5,15,7,3"
14997,commdev-image-keyboard-response,276,604492,learnblock1,177.5,img/planet6_right.png,6,Community 2,NA,TRUE,j,j,NA,NA,NA,7,6,"14,11,10,12,8,6,9,4,1,2,13,5,15,7,3"
14997,commdev-image-keyboard-response,277,605744,learnblock1,1142.9000000001397,img/planet9_right.png,9,Community 2,NA,TRUE,j,j,NA,NA,NA,7,6,"14,11,10,12,8,6,9,4,1,2,13,5,15,7,3"
14997,commdev-image-keyboard-response,278,606996,learnblock1,628.4000000001397,img/planet1_right.png,1,Community 2,NA,FALSE,f,j,NA,NA,NA,7,6,"14,11,10,12,8,6,9,4,1,2,13,5,15,7,3"
14997,commdev-image-keyboard-response,279,608249,learnblock1,660.8999999999069,img/planet2_right.png,2,Community 2,NA,TRUE,j,j,NA,NA,NA,7,6,"14,11,10,12,8,6,9,4,1,2,13,5,15,7,3"
14997,commdev-image-keyboard-response,280,609501,learnblock1,671.5,img/planet9_right.png,9,Community 2,NA,FALSE,f,j,NA,NA,NA,7,6,"14,11,10,12,8,6,9,4,1,2,13,5,15,7,3"
14997,commdev-image-keyboard-response,281,610752,learnblock1,1073.5,img/planet4_left.png,4,Community 2,NA,TRUE,f,f,NA,NA,NA,7,6,"14,11,10,12,8,6,9,4,1,2,13,5,15,7,3"
14997,commdev-image-keyboard-response,282,612004,learnblock1,null,img/planet1_right.png,1,Community 2,NA,FALSE,null,j,NA,NA,NA,7,6,"14,11,10,12,8,6,9,4,1,2,13,5,15,7,3"
14997,commdev-image-keyboard-response,283,613255,learnblock1,1005.6999999999534,img/planet4_right.png,4,Community 2,NA,TRUE,j,j,NA,NA,NA,7,6,"14,11,10,12,8,6,9,4,1,2,13,5,15,7,3"
14997,commdev-image-keyboard-response,284,614508,learnblock1,927.5,img/planet2_right.png,2,Community 2,NA,TRUE,j,j,NA,NA,NA,7,6,"14,11,10,12,8,6,9,4,1,2,13,5,15,7,3"
14997,commdev-image-keyboard-response,285,615761,learnblock1,1144.6000000000931,img/planet9_right.png,9,Community 2,NA,TRUE,j,j,NA,NA,NA,7,6,"14,11,10,12,8,6,9,4,1,2,13,5,15,7,3"
14997,commdev-image-keyboard-response,286,617012,learnblock1,null,img/planet6_left.png,6,Community 2,NA,FALSE,null,f,NA,NA,NA,7,6,"14,11,10,12,8,6,9,4,1,2,13,5,15,7,3"
14997,commdev-image-keyboard-response,287,618264,learnblock1,32.89999999990687,img/planet2_right.png,2,Community 2,NA,TRUE,j,j,NA,NA,NA,7,6,"14,11,10,12,8,6,9,4,1,2,13,5,15,7,3"
14997,commdev-image-keyboard-response,288,619517,learnblock1,1197.4000000001397,img/planet1_left.png,1,Community 2,NA,TRUE,f,f,NA,NA,NA,7,6,"14,11,10,12,8,6,9,4,1,2,13,5,15,7,3"
14997,commdev-image-keyboard-response,289,620768,learnblock1,532.6999999999534,img/planet9_right.png,9,Community 2,NA,TRUE,j,j,NA,NA,NA,7,6,"14,11,10,12,8,6,9,4,1,2,13,5,15,7,3"
14997,commdev-image-keyboard-response,290,622021,learnblock1,null,img/planet4_left.png,4,Community 2,NA,FALSE,null,f,NA,NA,NA,7,6,"14,11,10,12,8,6,9,4,1,2,13,5,15,7,3"
14997,commdev-image-keyboard-response,291,623272,learnblock1,349.0999999998603,img/planet2_left.png,2,Community 2,NA,TRUE,f,f,NA,NA,NA,7,6,"14,11,10,12,8,6,9,4,1,2,13,5,15,7,3"
14997,commdev-image-keyboard-response,292,624524,learnblock1,null,img/planet6_left.png,6,Community 2,NA,FALSE,null,f,NA,NA,NA,7,6,"14,11,10,12,8,6,9,4,1,2,13,5,15,7,3"
14997,commdev-image-keyboard-response,293,625776,learnblock1,925,img/planet9_right.png,9,Community 2,NA,TRUE,j,j,NA,NA,NA,7,6,"14,11,10,12,8,6,9,4,1,2,13,5,15,7,3"
14997,commdev-image-keyboard-response,294,627029,learnblock1,879.8999999999069,img/planet1_right.png,1,Community 2,NA,TRUE,j,j,NA,NA,NA,7,6,"14,11,10,12,8,6,9,4,1,2,13,5,15,7,3"
14997,commdev-image-keyboard-response,295,628281,learnblock1,null,img/planet9_right.png,9,Community 2,NA,FALSE,null,j,NA,NA,NA,7,6,"14,11,10,12,8,6,9,4,1,2,13,5,15,7,3"
14997,commdev-image-keyboard-response,296,629544,learnblock1,726.5,img/planet1_right.png,1,Community 2,NA,TRUE,j,j,NA,NA,NA,7,6,"14,11,10,12,8,6,9,4,1,2,13,5,15,7,3"
14997,commdev-image-keyboard-response,297,630797,learnblock1,201.0999999998603,img/planet4_left.png,4,Community 2,NA,FALSE,j,f,NA,NA,NA,7,6,"14,11,10,12,8,6,9,4,1,2,13,5,15,7,3"
14997,commdev-image-keyboard-response,298,632049,learnblock1,653.6000000000931,img/planet1_left.png,1,Community 2,NA,TRUE,f,f,NA,NA,NA,7,6,"14,11,10,12,8,6,9,4,1,2,13,5,15,7,3"
14997,commdev-image-keyboard-response,299,633301,learnblock1,15,img/planet9_left.png,9,Community 2,NA,TRUE,f,f,NA,NA,NA,7,6,"14,11,10,12,8,6,9,4,1,2,13,5,15,7,3"
14997,commdev-image-keyboard-response,300,634553,learnblock1,null,img/planet6_right.png,6,Community 2,NA,FALSE,null,j,NA,NA,NA,7,6,"14,11,10,12,8,6,9,4,1,2,13,5,15,7,3"
14997,commdev-image-keyboard-response,301,635806,learnblock1,434.69999999995343,img/planet2_left.png,2,Community 2,NA,FALSE,j,f,NA,NA,NA,7,6,"14,11,10,12,8,6,9,4,1,2,13,5,15,7,3"
14997,commdev-image-keyboard-response,302,637057,learnblock1,343.10000000009313,img/planet6_right.png,6,Community 2,NA,FALSE,f,j,NA,NA,NA,7,6,"14,11,10,12,8,6,9,4,1,2,13,5,15,7,3"
14997,commdev-image-keyboard-response,303,638310,learnblock1,null,img/planet2_left.png,2,Community 2,NA,FALSE,null,f,NA,NA,NA,7,6,"14,11,10,12,8,6,9,4,1,2,13,5,15,7,3"
14997,commdev-image-keyboard-response,304,639566,learnblock1,103,img/planet6_left.png,6,Community 2,NA,TRUE,f,f,NA,NA,NA,7,6,"14,11,10,12,8,6,9,4,1,2,13,5,15,7,3"
14997,commdev-image-keyboard-response,305,640819,learnblock1,891.6999999999534,img/planet2_right.png,2,Community 2,NA,FALSE,f,j,NA,NA,NA,7,6,"14,11,10,12,8,6,9,4,1,2,13,5,15,7,3"
14997,commdev-image-keyboard-response,306,642071,learnblock1,622.1000000000931,img/planet4_right.png,4,Community 2,NA,FALSE,f,j,NA,NA,NA,7,6,"14,11,10,12,8,6,9,4,1,2,13,5,15,7,3"
14997,commdev-image-keyboard-response,307,643322,learnblock1,1061.7000000001863,img/planet1_left.png,1,Community 2,NA,TRUE,f,f,NA,NA,NA,7,6,"14,11,10,12,8,6,9,4,1,2,13,5,15,7,3"
14997,commdev-image-keyboard-response,308,644575,learnblock1,702.6000000000931,img/planet4_right.png,4,Community 2,NA,TRUE,j,j,NA,NA,NA,7,6,"14,11,10,12,8,6,9,4,1,2,13,5,15,7,3"
14997,commdev-image-keyboard-response,309,645827,learnblock1,479.89999999990687,img/planet1_left.png,1,Community 2,NA,TRUE,f,f,NA,NA,NA,7,6,"14,11,10,12,8,6,9,4,1,2,13,5,15,7,3"
14997,commdev-image-keyboard-response,310,647079,learnblock1,null,img/planet4_right.png,4,Community 2,NA,FALSE,null,j,NA,NA,NA,7,6,"14,11,10,12,8,6,9,4,1,2,13,5,15,7,3"
14997,commdev-image-keyboard-response,311,648332,learnblock1,756.7000000001863,img/planet9_left.png,9,Community 2,NA,TRUE,f,f,NA,NA,NA,7,6,"14,11,10,12,8,6,9,4,1,2,13,5,15,7,3"
14997,commdev-image-keyboard-response,312,649584,learnblock1,426.0999999998603,img/planet2_right.png,2,Community 2,NA,TRUE,j,j,NA,NA,NA,7,6,"14,11,10,12,8,6,9,4,1,2,13,5,15,7,3"
14997,commdev-image-keyboard-response,313,650836,learnblock1,111.79999999981374,img/planet6_left.png,6,Community 2,NA,TRUE,f,f,NA,NA,NA,7,6,"14,11,10,12,8,6,9,4,1,2,13,5,15,7,3"
14997,commdev-image-keyboard-response,314,652088,learnblock1,14.300000000046566,img/planet2_left.png,2,Community 2,NA,FALSE,j,f,NA,NA,NA,7,6,"14,11,10,12,8,6,9,4,1,2,13,5,15,7,3"
14997,commdev-image-keyboard-response,315,653342,learnblock1,699.8000000000466,img/planet4_left.png,4,Community 2,NA,TRUE,f,f,NA,NA,NA,7,6,"14,11,10,12,8,6,9,4,1,2,13,5,15,7,3"
14997,commdev-image-keyboard-response,316,654594,learnblock1,888.6999999999534,img/planet2_left.png,2,Community 2,NA,TRUE,f,f,NA,NA,NA,7,6,"14,11,10,12,8,6,9,4,1,2,13,5,15,7,3"
14997,commdev-image-keyboard-response,317,655845,learnblock1,910.8999999999069,img/planet6_right.png,6,Community 2,NA,FALSE,f,j,NA,NA,NA,7,6,"14,11,10,12,8,6,9,4,1,2,13,5,15,7,3"
14997,commdev-image-keyboard-response,318,657097,learnblock1,498,img/planet9_right.png,9,Community 2,NA,TRUE,j,j,NA,NA,NA,7,6,"14,11,10,12,8,6,9,4,1,2,13,5,15,7,3"
14997,commdev-image-keyboard-response,319,658349,learnblock1,690.5,img/planet1_right.png,1,Community 2,NA,TRUE,j,j,NA,NA,NA,7,6,"14,11,10,12,8,6,9,4,1,2,13,5,15,7,3"
14997,commdev-image-keyboard-response,320,659601,learnblock1,637.8999999999069,img/planet2_left.png,2,Community 2,NA,FALSE,j,f,NA,NA,NA,7,6,"14,11,10,12,8,6,9,4,1,2,13,5,15,7,3"
14997,commdev-image-keyboard-response,321,660854,learnblock1,758.7999999998137,img/planet4_right.png,4,Community 2,NA,TRUE,j,j,NA,NA,NA,7,6,"14,11,10,12,8,6,9,4,1,2,13,5,15,7,3"
14997,commdev-image-keyboard-response,322,662107,learnblock1,1045.8999999999069,img/planet1_right.png,1,Community 2,NA,TRUE,j,j,NA,NA,NA,7,6,"14,11,10,12,8,6,9,4,1,2,13,5,15,7,3"
14997,commdev-image-keyboard-response,323,663359,learnblock1,931,img/planet2_right.png,2,Community 2,NA,FALSE,f,j,NA,NA,NA,7,6,"14,11,10,12,8,6,9,4,1,2,13,5,15,7,3"
14997,commdev-image-keyboard-response,324,664611,learnblock1,966,img/planet6_right.png,6,Community 2,NA,TRUE,j,j,NA,NA,NA,7,6,"14,11,10,12,8,6,9,4,1,2,13,5,15,7,3"
14997,commdev-image-keyboard-response,325,665863,learnblock1,null,img/planet12_left.png,12,Community 1,NA,FALSE,null,f,NA,NA,NA,7,6,"14,11,10,12,8,6,9,4,1,2,13,5,15,7,3"
14997,commdev-image-keyboard-response,326,667114,learnblock1,904.3000000000466,img/planet6_right.png,6,Community 2,NA,TRUE,j,j,NA,NA,NA,7,6,"14,11,10,12,8,6,9,4,1,2,13,5,15,7,3"
14997,commdev-image-keyboard-response,327,668366,learnblock1,1117.6000000000931,img/planet9_left.png,9,Community 2,NA,TRUE,f,f,NA,NA,NA,7,6,"14,11,10,12,8,6,9,4,1,2,13,5,15,7,3"
14997,commdev-image-keyboard-response,328,669618,learnblock1,null,img/planet4_left.png,4,Community 2,NA,FALSE,null,f,NA,NA,NA,7,6,"14,11,10,12,8,6,9,4,1,2,13,5,15,7,3"
14997,commdev-image-keyboard-response,329,670870,learnblock1,null,img/planet5_left.png,5,Community 3,NA,FALSE,null,f,NA,NA,NA,7,6,"14,11,10,12,8,6,9,4,1,2,13,5,15,7,3"
14997,commdev-image-keyboard-response,330,672123,learnblock1,271.4000000001397,img/planet15_left.png,15,Community 3,NA,TRUE,f,f,NA,NA,NA,7,6,"14,11,10,12,8,6,9,4,1,2,13,5,15,7,3"
14997,commdev-image-keyboard-response,331,673375,learnblock1,null,img/planet7_right.png,7,Community 3,NA,FALSE,null,j,NA,NA,NA,7,6,"14,11,10,12,8,6,9,4,1,2,13,5,15,7,3"
14997,commdev-image-keyboard-response,332,674627,learnblock1,221.69999999995343,img/planet3_left.png,3,Community 3,NA,FALSE,j,f,NA,NA,NA,7,6,"14,11,10,12,8,6,9,4,1,2,13,5,15,7,3"
14997,commdev-image-keyboard-response,333,675879,learnblock1,null,img/planet13_left.png,13,Community 3,NA,FALSE,null,f,NA,NA,NA,7,6,"14,11,10,12,8,6,9,4,1,2,13,5,15,7,3"
14997,commdev-image-keyboard-response,334,677132,learnblock1,null,img/planet8_left.png,8,Community 1,NA,FALSE,null,f,NA,NA,NA,7,6,"14,11,10,12,8,6,9,4,1,2,13,5,15,7,3"
14997,commdev-image-keyboard-response,335,678384,learnblock1,1011.3000000000466,img/planet11_right.png,11,Community 1,NA,TRUE,j,j,NA,NA,NA,7,6,"14,11,10,12,8,6,9,4,1,2,13,5,15,7,3"
14997,commdev-image-keyboard-response,336,679636,learnblock1,null,img/planet10_left.png,10,Community 1,NA,FALSE,null,f,NA,NA,NA,7,6,"14,11,10,12,8,6,9,4,1,2,13,5,15,7,3"
14997,commdev-image-keyboard-response,337,680888,learnblock1,1028.3999999999069,img/planet12_right.png,12,Community 1,NA,FALSE,f,j,NA,NA,NA,7,6,"14,11,10,12,8,6,9,4,1,2,13,5,15,7,3"
14997,commdev-image-keyboard-response,338,682140,learnblock1,null,img/planet11_left.png,11,Community 1,NA,FALSE,null,f,NA,NA,NA,7,6,"14,11,10,12,8,6,9,4,1,2,13,5,15,7,3"
14997,commdev-image-keyboard-response,339,683392,learnblock1,null,img/planet10_left.png,10,Community 1,NA,FALSE,null,f,NA,NA,NA,7,6,"14,11,10,12,8,6,9,4,1,2,13,5,15,7,3"
14997,commdev-image-keyboard-response,340,684644,learnblock1,155.4000000001397,img/planet11_left.png,11,Community 1,NA,TRUE,f,f,NA,NA,NA,7,6,"14,11,10,12,8,6,9,4,1,2,13,5,15,7,3"
14997,commdev-image-keyboard-response,341,685897,learnblock1,null,img/planet12_left.png,12,Community 1,NA,FALSE,null,f,NA,NA,NA,7,6,"14,11,10,12,8,6,9,4,1,2,13,5,15,7,3"
14997,commdev-image-keyboard-response,342,687150,learnblock1,null,img/planet10_right.png,10,Community 1,NA,FALSE,null,j,NA,NA,NA,7,6,"14,11,10,12,8,6,9,4,1,2,13,5,15,7,3"
14997,commdev-image-keyboard-response,343,688402,learnblock1,null,img/planet8_right.png,8,Community 1,NA,FALSE,null,j,NA,NA,NA,7,6,"14,11,10,12,8,6,9,4,1,2,13,5,15,7,3"
14997,commdev-image-keyboard-response,344,689654,learnblock1,1244.1000000000931,img/planet10_right.png,10,Community 1,NA,TRUE,j,j,NA,NA,NA,7,6,"14,11,10,12,8,6,9,4,1,2,13,5,15,7,3"
14997,commdev-image-keyboard-response,345,690906,learnblock1,null,img/planet14_left.png,14,Community 1,NA,FALSE,null,f,NA,NA,NA,7,6,"14,11,10,12,8,6,9,4,1,2,13,5,15,7,3"
14997,commdev-image-keyboard-response,346,692159,learnblock1,null,img/planet10_right.png,10,Community 1,NA,FALSE,null,j,NA,NA,NA,7,6,"14,11,10,12,8,6,9,4,1,2,13,5,15,7,3"
14997,commdev-image-keyboard-response,347,693411,learnblock1,962,img/planet8_left.png,8,Community 1,NA,TRUE,f,f,NA,NA,NA,7,6,"14,11,10,12,8,6,9,4,1,2,13,5,15,7,3"
14997,commdev-image-keyboard-response,351,764207,learnblock2,1039.8999999999069,img/planet4_right.png,4,Community 2,NA,TRUE,j,j,NA,NA,NA,7,6,"14,11,10,12,8,6,9,4,1,2,13,5,15,7,3"
14997,commdev-image-keyboard-response,352,765460,learnblock2,559.3999999999069,img/planet9_right.png,9,Community 2,NA,TRUE,j,j,NA,NA,NA,7,6,"14,11,10,12,8,6,9,4,1,2,13,5,15,7,3"
14997,commdev-image-keyboard-response,353,766713,learnblock2,957.3000000000466,img/planet4_right.png,4,Community 2,NA,TRUE,j,j,NA,NA,NA,7,6,"14,11,10,12,8,6,9,4,1,2,13,5,15,7,3"
14997,commdev-image-keyboard-response,354,767965,learnblock2,null,img/planet2_right.png,2,Community 2,NA,FALSE,null,j,NA,NA,NA,7,6,"14,11,10,12,8,6,9,4,1,2,13,5,15,7,3"
14997,commdev-image-keyboard-response,355,770198,learnblock2,84.4000000001397,img/planet9_left.png,9,Community 2,NA,FALSE,j,f,NA,NA,NA,7,6,"14,11,10,12,8,6,9,4,1,2,13,5,15,7,3"
14997,commdev-image-keyboard-response,356,772198,learnblock2,null,img/planet1_left.png,1,Community 2,NA,FALSE,null,f,NA,NA,NA,7,6,"14,11,10,12,8,6,9,4,1,2,13,5,15,7,3"
14997,commdev-image-keyboard-response,357,773450,learnblock2,null,img/planet2_right.png,2,Community 2,NA,FALSE,null,j,NA,NA,NA,7,6,"14,11,10,12,8,6,9,4,1,2,13,5,15,7,3"
14997,commdev-image-keyboard-response,358,774701,learnblock2,null,img/planet9_left.png,9,Community 2,NA,FALSE,null,f,NA,NA,NA,7,6,"14,11,10,12,8,6,9,4,1,2,13,5,15,7,3"
14997,commdev-image-keyboard-response,359,775954,learnblock2,null,img/planet2_left.png,2,Community 2,NA,FALSE,null,f,NA,NA,NA,7,6,"14,11,10,12,8,6,9,4,1,2,13,5,15,7,3"
14997,commdev-image-keyboard-response,360,777206,learnblock2,32.699999999953434,img/planet4_right.png,4,Community 2,NA,FALSE,f,j,NA,NA,NA,7,6,"14,11,10,12,8,6,9,4,1,2,13,5,15,7,3"
14997,commdev-image-keyboard-response,361,778458,learnblock2,null,img/planet1_right.png,1,Community 2,NA,FALSE,null,j,NA,NA,NA,7,6,"14,11,10,12,8,6,9,4,1,2,13,5,15,7,3"
14997,commdev-image-keyboard-response,362,779711,learnblock2,null,img/planet6_right.png,6,Community 2,NA,FALSE,null,j,NA,NA,NA,7,6,"14,11,10,12,8,6,9,4,1,2,13,5,15,7,3"
14997,commdev-image-keyboard-response,363,780963,learnblock2,null,img/planet9_right.png,9,Community 2,NA,FALSE,null,j,NA,NA,NA,7,6,"14,11,10,12,8,6,9,4,1,2,13,5,15,7,3"
14997,commdev-image-keyboard-response,364,782216,learnblock2,1027.1000000000931,img/planet1_left.png,1,Community 2,NA,TRUE,f,f,NA,NA,NA,7,6,"14,11,10,12,8,6,9,4,1,2,13,5,15,7,3"
14997,commdev-image-keyboard-response,365,783469,learnblock2,891.3000000000466,img/planet6_right.png,6,Community 2,NA,TRUE,j,j,NA,NA,NA,7,6,"14,11,10,12,8,6,9,4,1,2,13,5,15,7,3"
14997,commdev-image-keyboard-response,366,784721,learnblock2,null,img/planet9_right.png,9,Community 2,NA,FALSE,null,j,NA,NA,NA,7,6,"14,11,10,12,8,6,9,4,1,2,13,5,15,7,3"
14997,commdev-image-keyboard-response,367,785972,learnblock2,145.89999999990687,img/planet4_right.png,4,Community 2,NA,TRUE,j,j,NA,NA,NA,7,6,"14,11,10,12,8,6,9,4,1,2,13,5,15,7,3"
14997,commdev-image-keyboard-response,368,787224,learnblock2,83.69999999995343,img/planet1_left.png,1,Community 2,NA,FALSE,j,f,NA,NA,NA,7,6,"14,11,10,12,8,6,9,4,1,2,13,5,15,7,3"
14997,commdev-image-keyboard-response,369,788476,learnblock2,1129.5,img/planet6_left.png,6,Community 2,NA,TRUE,f,f,NA,NA,NA,7,6,"14,11,10,12,8,6,9,4,1,2,13,5,15,7,3"
14997,commdev-image-keyboard-response,370,789728,learnblock2,1074.5999999998603,img/planet9_right.png,9,Community 2,NA,TRUE,j,j,NA,NA,NA,7,6,"14,11,10,12,8,6,9,4,1,2,13,5,15,7,3"
14997,commdev-image-keyboard-response,371,790980,learnblock2,null,img/planet2_left.png,2,Community 2,NA,FALSE,null,f,NA,NA,NA,7,6,"14,11,10,12,8,6,9,4,1,2,13,5,15,7,3"
14997,commdev-image-keyboard-response,372,792232,learnblock2,945.7000000001863,img/planet1_left.png,1,Community 2,NA,TRUE,f,f,NA,NA,NA,7,6,"14,11,10,12,8,6,9,4,1,2,13,5,15,7,3"
14997,commdev-image-keyboard-response,373,793485,learnblock2,973.6000000000931,img/planet4_left.png,4,Community 2,NA,TRUE,f,f,NA,NA,NA,7,6,"14,11,10,12,8,6,9,4,1,2,13,5,15,7,3"
14997,commdev-image-keyboard-response,374,794738,learnblock2,838.3999999999069,img/planet2_left.png,2,Community 2,NA,TRUE,f,f,NA,NA,NA,7,6,"14,11,10,12,8,6,9,4,1,2,13,5,15,7,3"
14997,commdev-image-keyboard-response,375,795991,learnblock2,945.3000000000466,img/planet6_right.png,6,Community 2,NA,TRUE,j,j,NA,NA,NA,7,6,"14,11,10,12,8,6,9,4,1,2,13,5,15,7,3"
14997,commdev-image-keyboard-response,376,797243,learnblock2,1167.6999999999534,img/planet12_right.png,12,Community 1,NA,TRUE,j,j,NA,NA,NA,7,6,"14,11,10,12,8,6,9,4,1,2,13,5,15,7,3"
14997,commdev-image-keyboard-response,377,798495,learnblock2,1141.6000000000931,img/planet11_left.png,11,Community 1,NA,TRUE,f,f,NA,NA,NA,7,6,"14,11,10,12,8,6,9,4,1,2,13,5,15,7,3"
14997,commdev-image-keyboard-response,378,799748,learnblock2,1184.6999999999534,img/planet10_right.png,10,Community 1,NA,TRUE,j,j,NA,NA,NA,7,6,"14,11,10,12,8,6,9,4,1,2,13,5,15,7,3"
14997,commdev-image-keyboard-response,379,801001,learnblock2,1203.5,img/planet8_left.png,8,Community 1,NA,FALSE,j,f,NA,NA,NA,7,6,"14,11,10,12,8,6,9,4,1,2,13,5,15,7,3"
14997,commdev-image-keyboard-response,380,802253,learnblock2,237.80000000004657,img/planet10_right.png,10,Community 1,NA,FALSE,f,j,NA,NA,NA,7,6,"14,11,10,12,8,6,9,4,1,2,13,5,15,7,3"
14997,commdev-image-keyboard-response,381,803505,learnblock2,1057.0999999998603,img/planet12_right.png,12,Community 1,NA,TRUE,j,j,NA,NA,NA,7,6,"14,11,10,12,8,6,9,4,1,2,13,5,15,7,3"
14997,commdev-image-keyboard-response,382,804757,learnblock2,935,img/planet6_right.png,6,Community 2,NA,TRUE,j,j,NA,NA,NA,7,6,"14,11,10,12,8,6,9,4,1,2,13,5,15,7,3"
14997,commdev-image-keyboard-response,383,806009,learnblock2,null,img/planet1_left.png,1,Community 2,NA,FALSE,null,f,NA,NA,NA,7,6,"14,11,10,12,8,6,9,4,1,2,13,5,15,7,3"
14997,commdev-image-keyboard-response,384,807261,learnblock2,122.19999999995343,img/planet6_left.png,6,Community 2,NA,TRUE,f,f,NA,NA,NA,7,6,"14,11,10,12,8,6,9,4,1,2,13,5,15,7,3"
14997,commdev-image-keyboard-response,385,808513,learnblock2,167.60000000009313,img/planet1_left.png,1,Community 2,NA,TRUE,f,f,NA,NA,NA,7,6,"14,11,10,12,8,6,9,4,1,2,13,5,15,7,3"
14997,commdev-image-keyboard-response,386,809766,learnblock2,463.29999999981374,img/planet6_left.png,6,Community 2,NA,TRUE,f,f,NA,NA,NA,7,6,"14,11,10,12,8,6,9,4,1,2,13,5,15,7,3"
14997,commdev-image-keyboard-response,387,811020,learnblock2,619,img/planet2_right.png,2,Community 2,NA,FALSE,f,j,NA,NA,NA,7,6,"14,11,10,12,8,6,9,4,1,2,13,5,15,7,3"
14997,commdev-image-keyboard-response,388,812272,learnblock2,120.80000000004657,img/planet1_right.png,1,Community 2,NA,TRUE,j,j,NA,NA,NA,7,6,"14,11,10,12,8,6,9,4,1,2,13,5,15,7,3"
14997,commdev-image-keyboard-response,389,813525,learnblock2,989.1999999999534,img/planet9_left.png,9,Community 2,NA,TRUE,f,f,NA,NA,NA,7,6,"14,11,10,12,8,6,9,4,1,2,13,5,15,7,3"
14997,commdev-image-keyboard-response,390,814777,learnblock2,null,img/planet2_right.png,2,Community 2,NA,FALSE,null,j,NA,NA,NA,7,6,"14,11,10,12,8,6,9,4,1,2,13,5,15,7,3"
14997,commdev-image-keyboard-response,391,816030,learnblock2,912,img/planet4_right.png,4,Community 2,NA,TRUE,j,j,NA,NA,NA,7,6,"14,11,10,12,8,6,9,4,1,2,13,5,15,7,3"
14997,commdev-image-keyboard-response,392,817282,learnblock2,null,img/planet5_right.png,5,Community 3,NA,FALSE,null,j,NA,NA,NA,7,6,"14,11,10,12,8,6,9,4,1,2,13,5,15,7,3"
14997,commdev-image-keyboard-response,393,818533,learnblock2,null,img/planet3_left.png,3,Community 3,NA,FALSE,null,f,NA,NA,NA,7,6,"14,11,10,12,8,6,9,4,1,2,13,5,15,7,3"
14997,commdev-image-keyboard-response,394,819785,learnblock2,949.6000000000931,img/planet7_left.png,7,Community 3,NA,TRUE,f,f,NA,NA,NA,7,6,"14,11,10,12,8,6,9,4,1,2,13,5,15,7,3"
14997,commdev-image-keyboard-response,395,821038,learnblock2,null,img/planet5_left.png,5,Community 3,NA,FALSE,null,f,NA,NA,NA,7,6,"14,11,10,12,8,6,9,4,1,2,13,5,15,7,3"
14997,commdev-image-keyboard-response,396,822290,learnblock2,977,img/planet4_left.png,4,Community 2,NA,FALSE,j,f,NA,NA,NA,7,6,"14,11,10,12,8,6,9,4,1,2,13,5,15,7,3"
14997,commdev-image-keyboard-response,397,823543,learnblock2,740.6000000000931,img/planet2_right.png,2,Community 2,NA,TRUE,j,j,NA,NA,NA,7,6,"14,11,10,12,8,6,9,4,1,2,13,5,15,7,3"
14997,commdev-image-keyboard-response,398,824795,learnblock2,null,img/planet9_right.png,9,Community 2,NA,FALSE,null,j,NA,NA,NA,7,6,"14,11,10,12,8,6,9,4,1,2,13,5,15,7,3"
14997,commdev-image-keyboard-response,399,826047,learnblock2,37.800000000046566,img/planet6_left.png,6,Community 2,NA,FALSE,j,f,NA,NA,NA,7,6,"14,11,10,12,8,6,9,4,1,2,13,5,15,7,3"
14997,commdev-image-keyboard-response,400,827300,learnblock2,null,img/planet12_left.png,12,Community 1,NA,FALSE,null,f,NA,NA,NA,7,6,"14,11,10,12,8,6,9,4,1,2,13,5,15,7,3"
14997,commdev-image-keyboard-response,401,828551,learnblock2,129.79999999981374,img/planet14_right.png,14,Community 1,NA,FALSE,f,j,NA,NA,NA,7,6,"14,11,10,12,8,6,9,4,1,2,13,5,15,7,3"
14997,commdev-image-keyboard-response,402,829804,learnblock2,null,img/planet11_left.png,11,Community 1,NA,FALSE,null,f,NA,NA,NA,7,6,"14,11,10,12,8,6,9,4,1,2,13,5,15,7,3"
14997,commdev-image-keyboard-response,403,831057,learnblock2,116.30000000004657,img/planet8_right.png,8,Community 1,NA,TRUE,j,j,NA,NA,NA,7,6,"14,11,10,12,8,6,9,4,1,2,13,5,15,7,3"
14997,commdev-image-keyboard-response,404,832309,learnblock2,12.599999999860302,img/planet11_right.png,11,Community 1,NA,TRUE,j,j,NA,NA,NA,7,6,"14,11,10,12,8,6,9,4,1,2,13,5,15,7,3"
14997,commdev-image-keyboard-response,405,833561,learnblock2,null,img/planet12_right.png,12,Community 1,NA,FALSE,null,j,NA,NA,NA,7,6,"14,11,10,12,8,6,9,4,1,2,13,5,15,7,3"
14997,commdev-image-keyboard-response,406,834814,learnblock2,1068.1999999999534,img/planet10_right.png,10,Community 1,NA,TRUE,j,j,NA,NA,NA,7,6,"14,11,10,12,8,6,9,4,1,2,13,5,15,7,3"
14997,commdev-image-keyboard-response,407,836066,learnblock2,371.39999999990687,img/planet8_left.png,8,Community 1,NA,TRUE,f,f,NA,NA,NA,7,6,"14,11,10,12,8,6,9,4,1,2,13,5,15,7,3"
14997,commdev-image-keyboard-response,408,837318,learnblock2,562.6000000000931,img/planet14_right.png,14,Community 1,NA,TRUE,j,j,NA,NA,NA,7,6,"14,11,10,12,8,6,9,4,1,2,13,5,15,7,3"
14997,commdev-image-keyboard-response,409,838570,learnblock2,null,img/planet12_left.png,12,Community 1,NA,FALSE,null,f,NA,NA,NA,7,6,"14,11,10,12,8,6,9,4,1,2,13,5,15,7,3"
14997,commdev-image-keyboard-response,410,839823,learnblock2,39.39999999990687,img/planet10_left.png,10,Community 1,NA,FALSE,j,f,NA,NA,NA,7,6,"14,11,10,12,8,6,9,4,1,2,13,5,15,7,3"
14997,commdev-image-keyboard-response,411,841076,learnblock2,94,img/planet8_right.png,8,Community 1,NA,TRUE,j,j,NA,NA,NA,7,6,"14,11,10,12,8,6,9,4,1,2,13,5,15,7,3"
14997,commdev-image-keyboard-response,412,842329,learnblock2,null,img/planet10_right.png,10,Community 1,NA,FALSE,null,j,NA,NA,NA,7,6,"14,11,10,12,8,6,9,4,1,2,13,5,15,7,3"
14997,commdev-image-keyboard-response,413,843580,learnblock2,86.10000000009313,img/planet12_left.png,12,Community 1,NA,TRUE,f,f,NA,NA,NA,7,6,"14,11,10,12,8,6,9,4,1,2,13,5,15,7,3"
14997,commdev-image-keyboard-response,414,844833,learnblock2,null,img/planet6_right.png,6,Community 2,NA,FALSE,null,j,NA,NA,NA,7,6,"14,11,10,12,8,6,9,4,1,2,13,5,15,7,3"
14997,commdev-image-keyboard-response,415,846086,learnblock2,794.5,img/planet9_left.png,9,Community 2,NA,FALSE,j,f,NA,NA,NA,7,6,"14,11,10,12,8,6,9,4,1,2,13,5,15,7,3"
14997,commdev-image-keyboard-response,416,847338,learnblock2,1194,img/planet4_right.png,4,Community 2,NA,TRUE,j,j,NA,NA,NA,7,6,"14,11,10,12,8,6,9,4,1,2,13,5,15,7,3"
14997,commdev-image-keyboard-response,417,848590,learnblock2,563.5,img/planet1_left.png,1,Community 2,NA,TRUE,f,f,NA,NA,NA,7,6,"14,11,10,12,8,6,9,4,1,2,13,5,15,7,3"
14997,commdev-image-keyboard-response,418,849842,learnblock2,497,img/planet4_right.png,4,Community 2,NA,TRUE,j,j,NA,NA,NA,7,6,"14,11,10,12,8,6,9,4,1,2,13,5,15,7,3"
14997,commdev-image-keyboard-response,419,851094,learnblock2,804.5,img/planet2_left.png,2,Community 2,NA,TRUE,f,f,NA,NA,NA,7,6,"14,11,10,12,8,6,9,4,1,2,13,5,15,7,3"
14997,commdev-image-keyboard-response,420,852346,learnblock2,896.7000000001863,img/planet9_left.png,9,Community 2,NA,FALSE,j,f,NA,NA,NA,7,6,"14,11,10,12,8,6,9,4,1,2,13,5,15,7,3"
14997,commdev-image-keyboard-response,421,853605,learnblock2,null,img/planet6_left.png,6,Community 2,NA,FALSE,null,f,NA,NA,NA,7,6,"14,11,10,12,8,6,9,4,1,2,13,5,15,7,3"
14997,commdev-image-keyboard-response,422,854857,learnblock2,251.30000000004657,img/planet2_right.png,2,Community 2,NA,FALSE,f,j,NA,NA,NA,7,6,"14,11,10,12,8,6,9,4,1,2,13,5,15,7,3"
14997,commdev-image-keyboard-response,423,856109,learnblock2,907.3999999999069,img/planet9_right.png,9,Community 2,NA,TRUE,j,j,NA,NA,NA,7,6,"14,11,10,12,8,6,9,4,1,2,13,5,15,7,3"
14997,commdev-image-keyboard-response,424,857361,learnblock2,691,img/planet6_left.png,6,Community 2,NA,FALSE,j,f,NA,NA,NA,7,6,"14,11,10,12,8,6,9,4,1,2,13,5,15,7,3"
14997,commdev-image-keyboard-response,425,858613,learnblock2,650.1000000000931,img/planet12_left.png,12,Community 1,NA,FALSE,j,f,NA,NA,NA,7,6,"14,11,10,12,8,6,9,4,1,2,13,5,15,7,3"
14997,commdev-image-keyboard-response,426,859865,learnblock2,null,img/planet11_right.png,11,Community 1,NA,FALSE,null,j,NA,NA,NA,7,6,"14,11,10,12,8,6,9,4,1,2,13,5,15,7,3"
14997,commdev-image-keyboard-response,427,861117,learnblock2,412.69999999995343,img/planet12_left.png,12,Community 1,NA,FALSE,j,f,NA,NA,NA,7,6,"14,11,10,12,8,6,9,4,1,2,13,5,15,7,3"
14997,commdev-image-keyboard-response,428,862370,learnblock2,null,img/planet14_right.png,14,Community 1,NA,FALSE,null,j,NA,NA,NA,7,6,"14,11,10,12,8,6,9,4,1,2,13,5,15,7,3"
14997,commdev-image-keyboard-response,429,863622,learnblock2,null,img/planet10_right.png,10,Community 1,NA,FALSE,null,j,NA,NA,NA,7,6,"14,11,10,12,8,6,9,4,1,2,13,5,15,7,3"
14997,commdev-image-keyboard-response,430,864874,learnblock2,123.5,img/planet8_right.png,8,Community 1,NA,FALSE,f,j,NA,NA,NA,7,6,"14,11,10,12,8,6,9,4,1,2,13,5,15,7,3"
14997,commdev-image-keyboard-response,431,866126,learnblock2,594.5,img/planet13_right.png,13,Community 3,NA,TRUE,j,j,NA,NA,NA,7,6,"14,11,10,12,8,6,9,4,1,2,13,5,15,7,3"
14997,commdev-image-keyboard-response,432,867379,learnblock2,null,img/planet7_left.png,7,Community 3,NA,FALSE,null,f,NA,NA,NA,7,6,"14,11,10,12,8,6,9,4,1,2,13,5,15,7,3"
14997,commdev-image-keyboard-response,433,868631,learnblock2,116.0999999998603,img/planet15_right.png,15,Community 3,NA,FALSE,f,j,NA,NA,NA,7,6,"14,11,10,12,8,6,9,4,1,2,13,5,15,7,3"
14997,commdev-image-keyboard-response,434,869883,learnblock2,26.699999999953434,img/planet13_left.png,13,Community 3,NA,FALSE,j,f,NA,NA,NA,7,6,"14,11,10,12,8,6,9,4,1,2,13,5,15,7,3"
14997,commdev-image-keyboard-response,435,871136,learnblock2,null,img/planet3_right.png,3,Community 3,NA,FALSE,null,j,NA,NA,NA,7,6,"14,11,10,12,8,6,9,4,1,2,13,5,15,7,3"
14997,commdev-image-keyboard-response,436,872391,learnblock2,685.0999999998603,img/planet15_left.png,15,Community 3,NA,FALSE,j,f,NA,NA,NA,7,6,"14,11,10,12,8,6,9,4,1,2,13,5,15,7,3"
14997,commdev-image-keyboard-response,437,873644,learnblock2,null,img/planet5_right.png,5,Community 3,NA,FALSE,null,j,NA,NA,NA,7,6,"14,11,10,12,8,6,9,4,1,2,13,5,15,7,3"
14997,commdev-image-keyboard-response,438,874895,learnblock2,107,img/planet15_right.png,15,Community 3,NA,TRUE,j,j,NA,NA,NA,7,6,"14,11,10,12,8,6,9,4,1,2,13,5,15,7,3"
14997,commdev-image-keyboard-response,439,876147,learnblock2,382.19999999995343,img/planet7_right.png,7,Community 3,NA,TRUE,j,j,NA,NA,NA,7,6,"14,11,10,12,8,6,9,4,1,2,13,5,15,7,3"
14997,commdev-image-keyboard-response,440,877399,learnblock2,914.8000000000466,img/planet3_left.png,3,Community 3,NA,TRUE,f,f,NA,NA,NA,7,6,"14,11,10,12,8,6,9,4,1,2,13,5,15,7,3"
14997,commdev-image-keyboard-response,441,878652,learnblock2,1179.6000000000931,img/planet15_right.png,15,Community 3,NA,TRUE,j,j,NA,NA,NA,7,6,"14,11,10,12,8,6,9,4,1,2,13,5,15,7,3"
14997,commdev-image-keyboard-response,442,879904,learnblock2,null,img/planet7_right.png,7,Community 3,NA,FALSE,null,j,NA,NA,NA,7,6,"14,11,10,12,8,6,9,4,1,2,13,5,15,7,3"
14997,commdev-image-keyboard-response,443,881156,learnblock2,null,img/planet5_left.png,5,Community 3,NA,FALSE,null,f,NA,NA,NA,7,6,"14,11,10,12,8,6,9,4,1,2,13,5,15,7,3"
14997,commdev-image-keyboard-response,444,882408,learnblock2,654.1000000000931,img/planet3_left.png,3,Community 3,NA,FALSE,j,f,NA,NA,NA,7,6,"14,11,10,12,8,6,9,4,1,2,13,5,15,7,3"
14997,commdev-image-keyboard-response,445,883660,learnblock2,1070.5,img/planet15_right.png,15,Community 3,NA,TRUE,j,j,NA,NA,NA,7,6,"14,11,10,12,8,6,9,4,1,2,13,5,15,7,3"
14997,commdev-image-keyboard-response,446,884913,learnblock2,null,img/planet5_right.png,5,Community 3,NA,FALSE,null,j,NA,NA,NA,7,6,"14,11,10,12,8,6,9,4,1,2,13,5,15,7,3"
14997,commdev-image-keyboard-response,447,886165,learnblock2,null,img/planet4_right.png,4,Community 2,NA,FALSE,null,j,NA,NA,NA,7,6,"14,11,10,12,8,6,9,4,1,2,13,5,15,7,3"
14997,commdev-image-keyboard-response,448,887417,learnblock2,null,img/planet5_right.png,5,Community 3,NA,FALSE,null,j,NA,NA,NA,7,6,"14,11,10,12,8,6,9,4,1,2,13,5,15,7,3"
14997,commdev-image-keyboard-response,449,888669,learnblock2,346.69999999995343,img/planet4_left.png,4,Community 2,NA,FALSE,j,f,NA,NA,NA,7,6,"14,11,10,12,8,6,9,4,1,2,13,5,15,7,3"
14997,commdev-image-keyboard-response,450,889921,learnblock2,445.39999999990687,img/planet9_right.png,9,Community 2,NA,TRUE,j,j,NA,NA,NA,7,6,"14,11,10,12,8,6,9,4,1,2,13,5,15,7,3"
14997,commdev-image-keyboard-response,451,891173,learnblock2,null,img/planet4_right.png,4,Community 2,NA,FALSE,null,j,NA,NA,NA,7,6,"14,11,10,12,8,6,9,4,1,2,13,5,15,7,3"
14997,commdev-image-keyboard-response,452,892426,learnblock2,null,img/planet1_left.png,1,Community 2,NA,FALSE,null,f,NA,NA,NA,7,6,"14,11,10,12,8,6,9,4,1,2,13,5,15,7,3"
14997,commdev-image-keyboard-response,453,893681,learnblock2,null,img/planet9_right.png,9,Community 2,NA,FALSE,null,j,NA,NA,NA,7,6,"14,11,10,12,8,6,9,4,1,2,13,5,15,7,3"
14997,commdev-image-keyboard-response,454,894932,learnblock2,1157,img/planet4_right.png,4,Community 2,NA,TRUE,j,j,NA,NA,NA,7,6,"14,11,10,12,8,6,9,4,1,2,13,5,15,7,3"
14997,commdev-image-keyboard-response,455,896184,learnblock2,null,img/planet9_left.png,9,Community 2,NA,FALSE,null,f,NA,NA,NA,7,6,"14,11,10,12,8,6,9,4,1,2,13,5,15,7,3"
14997,commdev-image-keyboard-response,456,897437,learnblock2,null,img/planet1_left.png,1,Community 2,NA,FALSE,null,f,NA,NA,NA,7,6,"14,11,10,12,8,6,9,4,1,2,13,5,15,7,3"
14997,commdev-image-keyboard-response,457,898691,learnblock2,264.69999999995343,img/planet4_right.png,4,Community 2,NA,FALSE,f,j,NA,NA,NA,7,6,"14,11,10,12,8,6,9,4,1,2,13,5,15,7,3"
14997,commdev-image-keyboard-response,458,899943,learnblock2,null,img/planet9_left.png,9,Community 2,NA,FALSE,null,f,NA,NA,NA,7,6,"14,11,10,12,8,6,9,4,1,2,13,5,15,7,3"
14997,commdev-image-keyboard-response,459,901196,learnblock2,null,img/planet4_right.png,4,Community 2,NA,FALSE,null,j,NA,NA,NA,7,6,"14,11,10,12,8,6,9,4,1,2,13,5,15,7,3"
14997,commdev-image-keyboard-response,460,902448,learnblock2,null,img/planet2_right.png,2,Community 2,NA,FALSE,null,j,NA,NA,NA,7,6,"14,11,10,12,8,6,9,4,1,2,13,5,15,7,3"
14997,commdev-image-keyboard-response,461,903700,learnblock2,343.39999999990687,img/planet4_right.png,4,Community 2,NA,TRUE,j,j,NA,NA,NA,7,6,"14,11,10,12,8,6,9,4,1,2,13,5,15,7,3"
14997,commdev-image-keyboard-response,462,904951,learnblock2,null,img/planet9_right.png,9,Community 2,NA,FALSE,null,j,NA,NA,NA,7,6,"14,11,10,12,8,6,9,4,1,2,13,5,15,7,3"
14997,commdev-image-keyboard-response,463,906204,learnblock2,1142.7000000001863,img/planet4_right.png,4,Community 2,NA,FALSE,f,j,NA,NA,NA,7,6,"14,11,10,12,8,6,9,4,1,2,13,5,15,7,3"
14997,commdev-image-keyboard-response,464,907456,learnblock2,1058.3000000000466,img/planet1_right.png,1,Community 2,NA,TRUE,j,j,NA,NA,NA,7,6,"14,11,10,12,8,6,9,4,1,2,13,5,15,7,3"
14997,commdev-image-keyboard-response,465,908716,learnblock2,942.1000000000931,img/planet4_right.png,4,Community 2,NA,TRUE,j,j,NA,NA,NA,7,6,"14,11,10,12,8,6,9,4,1,2,13,5,15,7,3"
14997,commdev-image-keyboard-response,466,909968,learnblock2,1183.5,img/planet2_right.png,2,Community 2,NA,TRUE,j,j,NA,NA,NA,7,6,"14,11,10,12,8,6,9,4,1,2,13,5,15,7,3"
14997,commdev-image-keyboard-response,467,911220,learnblock2,null,img/planet1_left.png,1,Community 2,NA,FALSE,null,f,NA,NA,NA,7,6,"14,11,10,12,8,6,9,4,1,2,13,5,15,7,3"
14997,commdev-image-keyboard-response,468,912472,learnblock2,null,img/planet4_left.png,4,Community 2,NA,FALSE,null,f,NA,NA,NA,7,6,"14,11,10,12,8,6,9,4,1,2,13,5,15,7,3"
14997,commdev-image-keyboard-response,469,913724,learnblock2,373.19999999995343,img/planet5_left.png,5,Community 3,NA,TRUE,f,f,NA,NA,NA,7,6,"14,11,10,12,8,6,9,4,1,2,13,5,15,7,3"
14997,commdev-image-keyboard-response,470,914976,learnblock2,1239.1999999999534,img/planet7_left.png,7,Community 3,NA,TRUE,f,f,NA,NA,NA,7,6,"14,11,10,12,8,6,9,4,1,2,13,5,15,7,3"
14997,commdev-image-keyboard-response,471,916228,learnblock2,null,img/planet3_right.png,3,Community 3,NA,FALSE,null,j,NA,NA,NA,7,6,"14,11,10,12,8,6,9,4,1,2,13,5,15,7,3"
14997,commdev-image-keyboard-response,472,917480,learnblock2,165.80000000004657,img/planet13_right.png,13,Community 3,NA,TRUE,j,j,NA,NA,NA,7,6,"14,11,10,12,8,6,9,4,1,2,13,5,15,7,3"
14997,commdev-image-keyboard-response,473,918733,learnblock2,null,img/planet8_right.png,8,Community 1,NA,FALSE,null,j,NA,NA,NA,7,6,"14,11,10,12,8,6,9,4,1,2,13,5,15,7,3"
14997,commdev-image-keyboard-response,474,919986,learnblock2,268.4000000001397,img/planet11_left.png,11,Community 1,NA,FALSE,j,f,NA,NA,NA,7,6,"14,11,10,12,8,6,9,4,1,2,13,5,15,7,3"
14997,commdev-image-keyboard-response,475,921238,learnblock2,556.2000000001863,img/planet12_left.png,12,Community 1,NA,FALSE,j,f,NA,NA,NA,7,6,"14,11,10,12,8,6,9,4,1,2,13,5,15,7,3"
14997,commdev-image-keyboard-response,476,922490,learnblock2,20.800000000046566,img/planet6_left.png,6,Community 2,NA,TRUE,f,f,NA,NA,NA,7,6,"14,11,10,12,8,6,9,4,1,2,13,5,15,7,3"
14997,commdev-image-keyboard-response,477,923742,learnblock2,1007.3000000000466,img/planet2_right.png,2,Community 2,NA,TRUE,j,j,NA,NA,NA,7,6,"14,11,10,12,8,6,9,4,1,2,13,5,15,7,3"
14997,commdev-image-keyboard-response,478,924993,learnblock2,null,img/planet4_right.png,4,Community 2,NA,FALSE,null,j,NA,NA,NA,7,6,"14,11,10,12,8,6,9,4,1,2,13,5,15,7,3"
14997,commdev-image-keyboard-response,479,926246,learnblock2,56.699999999953434,img/planet9_right.png,9,Community 2,NA,FALSE,f,j,NA,NA,NA,7,6,"14,11,10,12,8,6,9,4,1,2,13,5,15,7,3"
14997,commdev-image-keyboard-response,480,927498,learnblock2,null,img/planet6_right.png,6,Community 2,NA,FALSE,null,j,NA,NA,NA,7,6,"14,11,10,12,8,6,9,4,1,2,13,5,15,7,3"
14997,commdev-image-keyboard-response,481,928750,learnblock2,null,img/planet12_right.png,12,Community 1,NA,FALSE,null,j,NA,NA,NA,7,6,"14,11,10,12,8,6,9,4,1,2,13,5,15,7,3"
14997,commdev-image-keyboard-response,482,930003,learnblock2,62.199999999953434,img/planet14_left.png,14,Community 1,NA,FALSE,j,f,NA,NA,NA,7,6,"14,11,10,12,8,6,9,4,1,2,13,5,15,7,3"
14997,commdev-image-keyboard-response,483,931255,learnblock2,null,img/planet10_left.png,10,Community 1,NA,FALSE,null,f,NA,NA,NA,7,6,"14,11,10,12,8,6,9,4,1,2,13,5,15,7,3"
14997,commdev-image-keyboard-response,484,932507,learnblock2,null,img/planet14_right.png,14,Community 1,NA,FALSE,null,j,NA,NA,NA,7,6,"14,11,10,12,8,6,9,4,1,2,13,5,15,7,3"
14997,commdev-image-keyboard-response,485,933758,learnblock2,631.8999999999069,img/planet11_left.png,11,Community 1,NA,FALSE,j,f,NA,NA,NA,7,6,"14,11,10,12,8,6,9,4,1,2,13,5,15,7,3"
14997,commdev-image-keyboard-response,486,935011,learnblock2,926.9000000001397,img/planet14_left.png,14,Community 1,NA,TRUE,f,f,NA,NA,NA,7,6,"14,11,10,12,8,6,9,4,1,2,13,5,15,7,3"
14997,commdev-image-keyboard-response,487,936264,learnblock2,null,img/planet12_right.png,12,Community 1,NA,FALSE,null,j,NA,NA,NA,7,6,"14,11,10,12,8,6,9,4,1,2,13,5,15,7,3"
14997,commdev-image-keyboard-response,488,937516,learnblock2,null,img/planet11_right.png,11,Community 1,NA,FALSE,null,j,NA,NA,NA,7,6,"14,11,10,12,8,6,9,4,1,2,13,5,15,7,3"
14997,commdev-image-keyboard-response,489,938780,learnblock2,null,img/planet14_left.png,14,Community 1,NA,FALSE,null,f,NA,NA,NA,7,6,"14,11,10,12,8,6,9,4,1,2,13,5,15,7,3"
14997,commdev-image-keyboard-response,490,940031,learnblock2,204,img/planet12_left.png,12,Community 1,NA,TRUE,f,f,NA,NA,NA,7,6,"14,11,10,12,8,6,9,4,1,2,13,5,15,7,3"
14997,commdev-image-keyboard-response,491,941283,learnblock2,160.19999999995343,img/planet14_right.png,14,Community 1,NA,FALSE,f,j,NA,NA,NA,7,6,"14,11,10,12,8,6,9,4,1,2,13,5,15,7,3"
14997,commdev-image-keyboard-response,492,942534,learnblock2,null,img/planet8_right.png,8,Community 1,NA,FALSE,null,j,NA,NA,NA,7,6,"14,11,10,12,8,6,9,4,1,2,13,5,15,7,3"
14997,commdev-image-keyboard-response,493,943787,learnblock2,537.3000000000466,img/planet11_right.png,11,Community 1,NA,TRUE,j,j,NA,NA,NA,7,6,"14,11,10,12,8,6,9,4,1,2,13,5,15,7,3"
14997,commdev-image-keyboard-response,494,945039,learnblock2,null,img/planet10_left.png,10,Community 1,NA,FALSE,null,f,NA,NA,NA,7,6,"14,11,10,12,8,6,9,4,1,2,13,5,15,7,3"
14997,commdev-image-keyboard-response,495,946291,learnblock2,null,img/planet12_left.png,12,Community 1,NA,FALSE,null,f,NA,NA,NA,7,6,"14,11,10,12,8,6,9,4,1,2,13,5,15,7,3"
14997,commdev-image-keyboard-response,496,947543,learnblock2,986.8999999999069,img/planet10_right.png,10,Community 1,NA,TRUE,j,j,NA,NA,NA,7,6,"14,11,10,12,8,6,9,4,1,2,13,5,15,7,3"
14997,commdev-image-keyboard-response,497,948796,learnblock2,null,img/planet12_right.png,12,Community 1,NA,FALSE,null,j,NA,NA,NA,7,6,"14,11,10,12,8,6,9,4,1,2,13,5,15,7,3"
14997,commdev-image-keyboard-response,498,950048,learnblock2,null,img/planet14_left.png,14,Community 1,NA,FALSE,null,f,NA,NA,NA,7,6,"14,11,10,12,8,6,9,4,1,2,13,5,15,7,3"
14997,commdev-image-keyboard-response,499,951301,learnblock2,167.69999999995343,img/planet12_right.png,12,Community 1,NA,FALSE,f,j,NA,NA,NA,7,6,"14,11,10,12,8,6,9,4,1,2,13,5,15,7,3"
14997,commdev-image-keyboard-response,500,952552,learnblock2,1044.8999999999069,img/planet6_right.png,6,Community 2,NA,FALSE,f,j,NA,NA,NA,7,6,"14,11,10,12,8,6,9,4,1,2,13,5,15,7,3"
14997,commdev-image-keyboard-response,501,953804,learnblock2,208.80000000004657,img/planet9_right.png,9,Community 2,NA,TRUE,j,j,NA,NA,NA,7,6,"14,11,10,12,8,6,9,4,1,2,13,5,15,7,3"
14997,commdev-image-keyboard-response,502,955057,learnblock2,338.5,img/planet2_left.png,2,Community 2,NA,FALSE,j,f,NA,NA,NA,7,6,"14,11,10,12,8,6,9,4,1,2,13,5,15,7,3"
14997,commdev-image-keyboard-response,503,956309,learnblock2,761.4000000001397,img/planet4_right.png,4,Community 2,NA,TRUE,j,j,NA,NA,NA,7,6,"14,11,10,12,8,6,9,4,1,2,13,5,15,7,3"
14997,commdev-image-keyboard-response,504,957561,learnblock2,1206.1999999999534,img/planet1_left.png,1,Community 2,NA,FALSE,j,f,NA,NA,NA,7,6,"14,11,10,12,8,6,9,4,1,2,13,5,15,7,3"
14997,commdev-image-keyboard-response,505,958813,learnblock2,248.5,img/planet6_left.png,6,Community 2,NA,TRUE,f,f,NA,NA,NA,7,6,"14,11,10,12,8,6,9,4,1,2,13,5,15,7,3"
14997,commdev-image-keyboard-response,506,960066,learnblock2,251.9000000001397,img/planet1_left.png,1,Community 2,NA,TRUE,f,f,NA,NA,NA,7,6,"14,11,10,12,8,6,9,4,1,2,13,5,15,7,3"
14997,commdev-image-keyboard-response,507,961318,learnblock2,985.8000000000466,img/planet9_left.png,9,Community 2,NA,TRUE,f,f,NA,NA,NA,7,6,"14,11,10,12,8,6,9,4,1,2,13,5,15,7,3"
14997,commdev-image-keyboard-response,508,962571,learnblock2,979.6000000000931,img/planet6_right.png,6,Community 2,NA,TRUE,j,j,NA,NA,NA,7,6,"14,11,10,12,8,6,9,4,1,2,13,5,15,7,3"
14997,commdev-image-keyboard-response,509,963823,learnblock2,null,img/planet9_left.png,9,Community 2,NA,FALSE,null,f,NA,NA,NA,7,6,"14,11,10,12,8,6,9,4,1,2,13,5,15,7,3"
14997,commdev-image-keyboard-response,510,965075,learnblock2,49.89999999990687,img/planet6_right.png,6,Community 2,NA,FALSE,f,j,NA,NA,NA,7,6,"14,11,10,12,8,6,9,4,1,2,13,5,15,7,3"
14997,commdev-image-keyboard-response,511,966326,learnblock2,603.8000000000466,img/planet1_left.png,1,Community 2,NA,FALSE,j,f,NA,NA,NA,7,6,"14,11,10,12,8,6,9,4,1,2,13,5,15,7,3"
14997,commdev-image-keyboard-response,512,967578,learnblock2,961.3000000000466,img/planet2_left.png,2,Community 2,NA,TRUE,f,f,NA,NA,NA,7,6,"14,11,10,12,8,6,9,4,1,2,13,5,15,7,3"
14997,commdev-image-keyboard-response,513,968832,learnblock2,744.5,img/planet6_left.png,6,Community 2,NA,TRUE,f,f,NA,NA,NA,7,6,"14,11,10,12,8,6,9,4,1,2,13,5,15,7,3"
14997,commdev-image-keyboard-response,514,970084,learnblock2,null,img/planet12_right.png,12,Community 1,NA,FALSE,null,j,NA,NA,NA,7,6,"14,11,10,12,8,6,9,4,1,2,13,5,15,7,3"
14997,commdev-image-keyboard-response,515,971337,learnblock2,22.399999999906868,img/planet14_left.png,14,Community 1,NA,FALSE,j,f,NA,NA,NA,7,6,"14,11,10,12,8,6,9,4,1,2,13,5,15,7,3"
14997,commdev-image-keyboard-response,516,972589,learnblock2,761.3999999999069,img/planet12_right.png,12,Community 1,NA,FALSE,f,j,NA,NA,NA,7,6,"14,11,10,12,8,6,9,4,1,2,13,5,15,7,3"
14997,commdev-image-keyboard-response,517,973842,learnblock2,1065.5,img/planet6_left.png,6,Community 2,NA,TRUE,f,f,NA,NA,NA,7,6,"14,11,10,12,8,6,9,4,1,2,13,5,15,7,3"
14997,commdev-image-keyboard-response,518,975094,learnblock2,527.6000000000931,img/planet12_right.png,12,Community 1,NA,TRUE,j,j,NA,NA,NA,7,6,"14,11,10,12,8,6,9,4,1,2,13,5,15,7,3"
14997,commdev-image-keyboard-response,519,976347,learnblock2,null,img/planet6_right.png,6,Community 2,NA,FALSE,null,j,NA,NA,NA,7,6,"14,11,10,12,8,6,9,4,1,2,13,5,15,7,3"
14997,commdev-image-keyboard-response,520,977613,learnblock2,51.199999999953434,img/planet9_right.png,9,Community 2,NA,TRUE,j,j,NA,NA,NA,7,6,"14,11,10,12,8,6,9,4,1,2,13,5,15,7,3"
14997,commdev-image-keyboard-response,521,978864,learnblock2,360.70000000018626,img/planet2_left.png,2,Community 2,NA,TRUE,f,f,NA,NA,NA,7,6,"14,11,10,12,8,6,9,4,1,2,13,5,15,7,3"
14997,commdev-image-keyboard-response,522,980116,learnblock2,752.6000000000931,img/planet6_left.png,6,Community 2,NA,TRUE,f,f,NA,NA,NA,7,6,"14,11,10,12,8,6,9,4,1,2,13,5,15,7,3"
14997,commdev-image-keyboard-response,523,981368,learnblock2,753.1999999999534,img/planet2_left.png,2,Community 2,NA,TRUE,f,f,NA,NA,NA,7,6,"14,11,10,12,8,6,9,4,1,2,13,5,15,7,3"
14997,commdev-image-keyboard-response,524,982621,learnblock2,819.8999999999069,img/planet4_left.png,4,Community 2,NA,FALSE,j,f,NA,NA,NA,7,6,"14,11,10,12,8,6,9,4,1,2,13,5,15,7,3"
14997,commdev-image-keyboard-response,525,983874,learnblock2,873,img/planet2_left.png,2,Community 2,NA,TRUE,f,f,NA,NA,NA,7,6,"14,11,10,12,8,6,9,4,1,2,13,5,15,7,3"
14997,commdev-image-keyboard-response,526,985126,learnblock2,339.5,img/planet4_left.png,4,Community 2,NA,TRUE,f,f,NA,NA,NA,7,6,"14,11,10,12,8,6,9,4,1,2,13,5,15,7,3"
14997,commdev-image-keyboard-response,527,986378,learnblock2,1097.5999999998603,img/planet9_left.png,9,Community 2,NA,TRUE,f,f,NA,NA,NA,7,6,"14,11,10,12,8,6,9,4,1,2,13,5,15,7,3"
14997,commdev-image-keyboard-response,528,987630,learnblock2,940,img/planet2_right.png,2,Community 2,NA,TRUE,j,j,NA,NA,NA,7,6,"14,11,10,12,8,6,9,4,1,2,13,5,15,7,3"
14997,commdev-image-keyboard-response,529,988882,learnblock2,null,img/planet9_left.png,9,Community 2,NA,FALSE,null,f,NA,NA,NA,7,6,"14,11,10,12,8,6,9,4,1,2,13,5,15,7,3"
14997,commdev-image-keyboard-response,530,990134,learnblock2,172.89999999990687,img/planet1_right.png,1,Community 2,NA,FALSE,f,j,NA,NA,NA,7,6,"14,11,10,12,8,6,9,4,1,2,13,5,15,7,3"
14997,commdev-image-keyboard-response,531,991386,learnblock2,827.1999999999534,img/planet2_right.png,2,Community 2,NA,FALSE,f,j,NA,NA,NA,7,6,"14,11,10,12,8,6,9,4,1,2,13,5,15,7,3"
14997,commdev-image-keyboard-response,532,992638,learnblock2,942.8999999999069,img/planet4_right.png,4,Community 2,NA,TRUE,j,j,NA,NA,NA,7,6,"14,11,10,12,8,6,9,4,1,2,13,5,15,7,3"
14997,commdev-image-keyboard-response,533,993890,learnblock2,689.1000000000931,img/planet2_right.png,2,Community 2,NA,TRUE,j,j,NA,NA,NA,7,6,"14,11,10,12,8,6,9,4,1,2,13,5,15,7,3"
14997,commdev-image-keyboard-response,534,995142,learnblock2,1183.7000000001863,img/planet6_left.png,6,Community 2,NA,TRUE,f,f,NA,NA,NA,7,6,"14,11,10,12,8,6,9,4,1,2,13,5,15,7,3"
14997,commdev-image-keyboard-response,535,996395,learnblock2,null,img/planet12_left.png,12,Community 1,NA,FALSE,null,f,NA,NA,NA,7,6,"14,11,10,12,8,6,9,4,1,2,13,5,15,7,3"
14997,commdev-image-keyboard-response,536,997647,learnblock2,null,img/planet11_left.png,11,Community 1,NA,FALSE,null,f,NA,NA,NA,7,6,"14,11,10,12,8,6,9,4,1,2,13,5,15,7,3"
14997,commdev-image-keyboard-response,537,998899,learnblock2,120.69999999995343,img/planet12_right.png,12,Community 1,NA,FALSE,f,j,NA,NA,NA,7,6,"14,11,10,12,8,6,9,4,1,2,13,5,15,7,3"
14997,commdev-image-keyboard-response,538,1000151,learnblock2,null,img/planet11_right.png,11,Community 1,NA,FALSE,null,j,NA,NA,NA,7,6,"14,11,10,12,8,6,9,4,1,2,13,5,15,7,3"
14997,commdev-image-keyboard-response,539,1001404,learnblock2,112.10000000009313,img/planet10_right.png,10,Community 1,NA,TRUE,j,j,NA,NA,NA,7,6,"14,11,10,12,8,6,9,4,1,2,13,5,15,7,3"
14997,commdev-image-keyboard-response,540,1002655,learnblock2,684,img/planet11_right.png,11,Community 1,NA,TRUE,j,j,NA,NA,NA,7,6,"14,11,10,12,8,6,9,4,1,2,13,5,15,7,3"
14997,commdev-image-keyboard-response,541,1003906,learnblock2,null,img/planet14_right.png,14,Community 1,NA,FALSE,null,j,NA,NA,NA,7,6,"14,11,10,12,8,6,9,4,1,2,13,5,15,7,3"
14997,commdev-image-keyboard-response,542,1005158,learnblock2,50.199999999953434,img/planet12_left.png,12,Community 1,NA,FALSE,j,f,NA,NA,NA,7,6,"14,11,10,12,8,6,9,4,1,2,13,5,15,7,3"
14997,commdev-image-keyboard-response,543,1006411,learnblock2,118,img/planet6_left.png,6,Community 2,NA,TRUE,f,f,NA,NA,NA,7,6,"14,11,10,12,8,6,9,4,1,2,13,5,15,7,3"
14997,commdev-image-keyboard-response,544,1007664,learnblock2,1169,img/planet1_right.png,1,Community 2,NA,TRUE,j,j,NA,NA,NA,7,6,"14,11,10,12,8,6,9,4,1,2,13,5,15,7,3"
14997,commdev-image-keyboard-response,545,1008916,learnblock2,655.1999999999534,img/planet2_left.png,2,Community 2,NA,FALSE,j,f,NA,NA,NA,7,6,"14,11,10,12,8,6,9,4,1,2,13,5,15,7,3"
14997,commdev-image-keyboard-response,546,1010168,learnblock2,584.8000000000466,img/planet4_left.png,4,Community 2,NA,FALSE,j,f,NA,NA,NA,7,6,"14,11,10,12,8,6,9,4,1,2,13,5,15,7,3"
14997,commdev-image-keyboard-response,547,1011421,learnblock2,null,img/planet1_left.png,1,Community 2,NA,FALSE,null,f,NA,NA,NA,7,6,"14,11,10,12,8,6,9,4,1,2,13,5,15,7,3"
14997,commdev-image-keyboard-response,548,1012673,learnblock2,333.39999999990687,img/planet4_left.png,4,Community 2,NA,FALSE,j,f,NA,NA,NA,7,6,"14,11,10,12,8,6,9,4,1,2,13,5,15,7,3"
14997,commdev-image-keyboard-response,549,1013937,learnblock2,694.1999999999534,img/planet9_left.png,9,Community 2,NA,TRUE,f,f,NA,NA,NA,7,6,"14,11,10,12,8,6,9,4,1,2,13,5,15,7,3"
14997,commdev-image-keyboard-response,550,1015190,learnblock2,1051.8000000000466,img/planet4_left.png,4,Community 2,NA,TRUE,f,f,NA,NA,NA,7,6,"14,11,10,12,8,6,9,4,1,2,13,5,15,7,3"
14997,commdev-image-keyboard-response,551,1016442,learnblock2,1076.5,img/planet9_right.png,9,Community 2,NA,TRUE,j,j,NA,NA,NA,7,6,"14,11,10,12,8,6,9,4,1,2,13,5,15,7,3"
14997,commdev-image-keyboard-response,552,1017694,learnblock2,null,img/planet4_left.png,4,Community 2,NA,FALSE,null,f,NA,NA,NA,7,6,"14,11,10,12,8,6,9,4,1,2,13,5,15,7,3"
14997,commdev-image-keyboard-response,553,1018946,learnblock2,null,img/planet5_right.png,5,Community 3,NA,FALSE,null,j,NA,NA,NA,7,6,"14,11,10,12,8,6,9,4,1,2,13,5,15,7,3"
14997,commdev-image-keyboard-response,554,1020198,learnblock2,394,img/planet7_left.png,7,Community 3,NA,FALSE,j,f,NA,NA,NA,7,6,"14,11,10,12,8,6,9,4,1,2,13,5,15,7,3"
14997,commdev-image-keyboard-response,555,1021451,learnblock2,193.4000000001397,img/planet5_left.png,5,Community 3,NA,TRUE,f,f,NA,NA,NA,7,6,"14,11,10,12,8,6,9,4,1,2,13,5,15,7,3"
14997,commdev-image-keyboard-response,556,1022703,learnblock2,121.69999999995343,img/planet15_right.png,15,Community 3,NA,TRUE,j,j,NA,NA,NA,7,6,"14,11,10,12,8,6,9,4,1,2,13,5,15,7,3"
14997,commdev-image-keyboard-response,557,1023954,learnblock2,55.200000000186265,img/planet3_left.png,3,Community 3,NA,FALSE,j,f,NA,NA,NA,7,6,"14,11,10,12,8,6,9,4,1,2,13,5,15,7,3"
14997,commdev-image-keyboard-response,558,1025207,learnblock2,161.4000000001397,img/planet5_left.png,5,Community 3,NA,TRUE,f,f,NA,NA,NA,7,6,"14,11,10,12,8,6,9,4,1,2,13,5,15,7,3"
14997,commdev-image-keyboard-response,559,1026460,learnblock2,null,img/planet7_left.png,7,Community 3,NA,FALSE,null,f,NA,NA,NA,7,6,"14,11,10,12,8,6,9,4,1,2,13,5,15,7,3"
14997,commdev-image-keyboard-response,560,1027712,learnblock2,581,img/planet15_right.png,15,Community 3,NA,FALSE,f,j,NA,NA,NA,7,6,"14,11,10,12,8,6,9,4,1,2,13,5,15,7,3"
14997,commdev-image-keyboard-response,561,1028964,learnblock2,null,img/planet7_left.png,7,Community 3,NA,FALSE,null,f,NA,NA,NA,7,6,"14,11,10,12,8,6,9,4,1,2,13,5,15,7,3"
14997,commdev-image-keyboard-response,562,1030217,learnblock2,1086.7999999998137,img/planet5_left.png,5,Community 3,NA,FALSE,j,f,NA,NA,NA,7,6,"14,11,10,12,8,6,9,4,1,2,13,5,15,7,3"
14997,commdev-image-keyboard-response,563,1031468,learnblock2,918.1000000000931,img/planet4_left.png,4,Community 2,NA,FALSE,j,f,NA,NA,NA,7,6,"14,11,10,12,8,6,9,4,1,2,13,5,15,7,3"
14997,commdev-image-keyboard-response,564,1032721,learnblock2,38.199999999953434,img/planet9_left.png,9,Community 2,NA,FALSE,j,f,NA,NA,NA,7,6,"14,11,10,12,8,6,9,4,1,2,13,5,15,7,3"
14997,commdev-image-keyboard-response,565,1033973,learnblock2,173.69999999995343,img/planet6_right.png,6,Community 2,NA,FALSE,f,j,NA,NA,NA,7,6,"14,11,10,12,8,6,9,4,1,2,13,5,15,7,3"
14997,commdev-image-keyboard-response,566,1035226,learnblock2,null,img/planet9_right.png,9,Community 2,NA,FALSE,null,j,NA,NA,NA,7,6,"14,11,10,12,8,6,9,4,1,2,13,5,15,7,3"
14997,commdev-image-keyboard-response,567,1036478,learnblock2,null,img/planet4_right.png,4,Community 2,NA,FALSE,null,j,NA,NA,NA,7,6,"14,11,10,12,8,6,9,4,1,2,13,5,15,7,3"
14997,commdev-image-keyboard-response,568,1037731,learnblock2,168.39999999990687,img/planet1_left.png,1,Community 2,NA,FALSE,j,f,NA,NA,NA,7,6,"14,11,10,12,8,6,9,4,1,2,13,5,15,7,3"
14997,commdev-image-keyboard-response,569,1038983,learnblock2,800.1000000000931,img/planet4_left.png,4,Community 2,NA,FALSE,j,f,NA,NA,NA,7,6,"14,11,10,12,8,6,9,4,1,2,13,5,15,7,3"
14997,commdev-image-keyboard-response,570,1040236,learnblock2,415.69999999995343,img/planet9_right.png,9,Community 2,NA,FALSE,f,j,NA,NA,NA,7,6,"14,11,10,12,8,6,9,4,1,2,13,5,15,7,3"
14997,commdev-image-keyboard-response,571,1041487,learnblock2,null,img/planet2_left.png,2,Community 2,NA,FALSE,null,f,NA,NA,NA,7,6,"14,11,10,12,8,6,9,4,1,2,13,5,15,7,3"
14997,commdev-image-keyboard-response,572,1042740,learnblock2,null,img/planet1_right.png,1,Community 2,NA,FALSE,null,j,NA,NA,NA,7,6,"14,11,10,12,8,6,9,4,1,2,13,5,15,7,3"
14997,commdev-image-keyboard-response,573,1043994,learnblock2,827.5,img/planet4_right.png,4,Community 2,NA,TRUE,j,j,NA,NA,NA,7,6,"14,11,10,12,8,6,9,4,1,2,13,5,15,7,3"
14997,commdev-image-keyboard-response,574,1045246,learnblock2,421.69999999995343,img/planet1_left.png,1,Community 2,NA,TRUE,f,f,NA,NA,NA,7,6,"14,11,10,12,8,6,9,4,1,2,13,5,15,7,3"
14997,commdev-image-keyboard-response,575,1046497,learnblock2,176.30000000004657,img/planet4_right.png,4,Community 2,NA,TRUE,j,j,NA,NA,NA,7,6,"14,11,10,12,8,6,9,4,1,2,13,5,15,7,3"
14997,commdev-image-keyboard-response,576,1047750,learnblock2,null,img/planet2_left.png,2,Community 2,NA,FALSE,null,f,NA,NA,NA,7,6,"14,11,10,12,8,6,9,4,1,2,13,5,15,7,3"
14997,commdev-image-keyboard-response,577,1049002,learnblock2,403.0999999998603,img/planet1_left.png,1,Community 2,NA,TRUE,f,f,NA,NA,NA,7,6,"14,11,10,12,8,6,9,4,1,2,13,5,15,7,3"
14997,commdev-image-keyboard-response,578,1050254,learnblock2,null,img/planet4_left.png,4,Community 2,NA,FALSE,null,f,NA,NA,NA,7,6,"14,11,10,12,8,6,9,4,1,2,13,5,15,7,3"
14997,commdev-image-keyboard-response,579,1051506,learnblock2,null,img/planet5_left.png,5,Community 3,NA,FALSE,null,f,NA,NA,NA,7,6,"14,11,10,12,8,6,9,4,1,2,13,5,15,7,3"
14997,commdev-image-keyboard-response,580,1052759,learnblock2,1162.5999999998603,img/planet4_left.png,4,Community 2,NA,FALSE,j,f,NA,NA,NA,7,6,"14,11,10,12,8,6,9,4,1,2,13,5,15,7,3"
14997,commdev-image-keyboard-response,581,1054012,learnblock2,745.3000000000466,img/planet5_right.png,5,Community 3,NA,TRUE,j,j,NA,NA,NA,7,6,"14,11,10,12,8,6,9,4,1,2,13,5,15,7,3"
14997,commdev-image-keyboard-response,582,1055264,learnblock2,null,img/planet15_left.png,15,Community 3,NA,FALSE,null,f,NA,NA,NA,7,6,"14,11,10,12,8,6,9,4,1,2,13,5,15,7,3"
14997,commdev-image-keyboard-response,583,1056516,learnblock2,469.69999999995343,img/planet3_right.png,3,Community 3,NA,FALSE,f,j,NA,NA,NA,7,6,"14,11,10,12,8,6,9,4,1,2,13,5,15,7,3"
14997,commdev-image-keyboard-response,584,1057769,learnblock2,1043,img/planet5_right.png,5,Community 3,NA,TRUE,j,j,NA,NA,NA,7,6,"14,11,10,12,8,6,9,4,1,2,13,5,15,7,3"
14997,commdev-image-keyboard-response,585,1059021,learnblock2,null,img/planet7_left.png,7,Community 3,NA,FALSE,null,f,NA,NA,NA,7,6,"14,11,10,12,8,6,9,4,1,2,13,5,15,7,3"
14997,commdev-image-keyboard-response,586,1060274,learnblock2,76.69999999995343,img/planet13_left.png,13,Community 3,NA,TRUE,f,f,NA,NA,NA,7,6,"14,11,10,12,8,6,9,4,1,2,13,5,15,7,3"
14997,commdev-image-keyboard-response,587,1061526,learnblock2,null,img/planet3_left.png,3,Community 3,NA,FALSE,null,f,NA,NA,NA,7,6,"14,11,10,12,8,6,9,4,1,2,13,5,15,7,3"
14997,commdev-image-keyboard-response,588,1062779,learnblock2,null,img/planet7_right.png,7,Community 3,NA,FALSE,null,j,NA,NA,NA,7,6,"14,11,10,12,8,6,9,4,1,2,13,5,15,7,3"
14997,commdev-image-keyboard-response,589,1064031,learnblock2,1035.6999999999534,img/planet5_left.png,5,Community 3,NA,FALSE,j,f,NA,NA,NA,7,6,"14,11,10,12,8,6,9,4,1,2,13,5,15,7,3"
14997,commdev-image-keyboard-response,590,1065284,learnblock2,146.4000000001397,img/planet15_right.png,15,Community 3,NA,FALSE,f,j,NA,NA,NA,7,6,"14,11,10,12,8,6,9,4,1,2,13,5,15,7,3"
14997,commdev-image-keyboard-response,591,1066537,learnblock2,null,img/planet3_right.png,3,Community 3,NA,FALSE,null,j,NA,NA,NA,7,6,"14,11,10,12,8,6,9,4,1,2,13,5,15,7,3"
14997,commdev-image-keyboard-response,592,1067790,learnblock2,64.30000000004657,img/planet15_left.png,15,Community 3,NA,FALSE,j,f,NA,NA,NA,7,6,"14,11,10,12,8,6,9,4,1,2,13,5,15,7,3"
