subject_id,trial_type,trial_index,time_elapsed,block,rt,stimulus,planet,community,response,correct,key_press,learning_correct_response,parse,init_locations,final_locations,browser_interactions,num_comp,planet_map
15074,commdev-instructions,7,43223,NA,3459.60000000149,"<p>In this game, you are a scientist on board a space shuttle. </p><p> On each mission, you will visit planets all across the universe.</p><img src=""img/controlroom.jpg"" width=300vw>",NA,NA,NA,NA,NA,NA,NA,NA,NA,2,6,"14,10,5,13,9,8,4,3,7,15,6,12,2,1,11"
15074,commdev-instructions,8,47124,NA,1827.699999999255,"<p>Here are a few planets you might see:</p><img src=""img/practice1.png"" width=200vw><img src=""img/practice2.png"" width=200vw><img src=""img/practice3.png"" width=200vw>",NA,NA,NA,NA,NA,NA,NA,NA,NA,2,6,"14,10,5,13,9,8,4,3,7,15,6,12,2,1,11"
15074,commdev-instructions,9,57074,NA,2548.89999999851,"<p>Your job as a scientist is to record which direction the winds are moving on each planet.</p><p>There are two types of wind directions:</p><img src=""img/practice1_left.png"" width=200vw><img src=""img/practice1_right.png"" width=200vw>",NA,NA,NA,NA,NA,NA,NA,NA,NA,2,6,"14,10,5,13,9,8,4,3,7,15,6,12,2,1,11"
15074,commdev-instructions,10,68909,NA,6952.79999999702,"<p>If the winds are moving this way, press the letter <strong>F</strong> on the keyboard as fast as you can.</p><img src=""img/leftwind.png"" width=250vw>",NA,NA,NA,NA,NA,NA,NA,NA,NA,2,6,"14,10,5,13,9,8,4,3,7,15,6,12,2,1,11"
15074,commdev-instructions,11,75225,NA,1821.699999999255,"<p>If the winds are moving this way, press the letter <strong>J</strong> on the keyboard as fast as you can.</p><img src=""img/rightwind.png"" width=350vw>",NA,NA,NA,NA,NA,NA,NA,NA,NA,2,6,"14,10,5,13,9,8,4,3,7,15,6,12,2,1,11"
15074,commdev-instructions,12,129296,NA,49646.199999999255,<p>You will have 1 second to respond. Try to respond before the time runs out!,NA,NA,NA,NA,NA,NA,NA,NA,NA,2,6,"14,10,5,13,9,8,4,3,7,15,6,12,2,1,11"
15074,commdev-instructions,13,136896,NA,2058.599999997765,<p>The planets you will visit will look different from each other.</p><p>You should respond <strong>only</strong> based on wind direction.,NA,NA,NA,NA,NA,NA,NA,NA,NA,2,6,"14,10,5,13,9,8,4,3,7,15,6,12,2,1,11"
15074,commdev-instructions,14,144313,NA,2248.300000000745,"<p> Ready to start the practice round? </p><p> Remember, press <strong>F</strong> or <strong>J</strong> depending on the wind direction.<br><img src=""img/categorize_planet_example.png""",NA,NA,NA,NA,NA,NA,NA,NA,NA,2,6,"14,10,5,13,9,8,4,3,7,15,6,12,2,1,11"
15074,commdev-instructions,26,197084,NA,2763.300000000745,"<p>Great, now try a short practice mission. </p><p> This time, you will have 1 second to respond and you won't know whether you pressed the right or wrong key for each planet.</p>",NA,NA,NA,NA,NA,NA,NA,NA,NA,2,6,"14,10,5,13,9,8,4,3,7,15,6,12,2,1,11"
15074,commdev-image-keyboard-response,27,198440,practice,584.7000000029802,img/practice3_right.png,NA,Number not found in mappings,NA,TRUE,j,j,NA,NA,NA,2,6,"14,10,5,13,9,8,4,3,7,15,6,12,2,1,11"
15074,commdev-image-keyboard-response,28,199696,practice,779.6999999992549,img/practice2_right.png,NA,Number not found in mappings,NA,TRUE,j,j,NA,NA,NA,2,6,"14,10,5,13,9,8,4,3,7,15,6,12,2,1,11"
15074,commdev-image-keyboard-response,29,200950,practice,615.3999999985099,img/practice1_right.png,NA,Number not found in mappings,NA,TRUE,j,j,NA,NA,NA,2,6,"14,10,5,13,9,8,4,3,7,15,6,12,2,1,11"
15074,commdev-image-keyboard-response,30,202201,practice,689.6000000014901,img/practice2_right.png,NA,Number not found in mappings,NA,TRUE,j,j,NA,NA,NA,2,6,"14,10,5,13,9,8,4,3,7,15,6,12,2,1,11"
15074,commdev-image-keyboard-response,31,203455,practice,612.5,img/practice4_right.png,NA,Number not found in mappings,NA,TRUE,j,j,NA,NA,NA,2,6,"14,10,5,13,9,8,4,3,7,15,6,12,2,1,11"
15074,commdev-image-keyboard-response,32,204705,practice,741.4000000022352,img/practice2_right.png,NA,Number not found in mappings,NA,TRUE,j,j,NA,NA,NA,2,6,"14,10,5,13,9,8,4,3,7,15,6,12,2,1,11"
15074,commdev-image-keyboard-response,33,205957,practice,625.3000000007451,img/practice1_left.png,NA,Number not found in mappings,NA,TRUE,f,f,NA,NA,NA,2,6,"14,10,5,13,9,8,4,3,7,15,6,12,2,1,11"
15074,commdev-image-keyboard-response,34,207211,practice,546,img/practice4_right.png,NA,Number not found in mappings,NA,TRUE,j,j,NA,NA,NA,2,6,"14,10,5,13,9,8,4,3,7,15,6,12,2,1,11"
15074,commdev-instructions,35,218385,NA,1623,"<p>Great job with the practice round.</p><p>During real missions, you won't know whether you pressed the right or wrong key for each planet.</p><p>But between missions, we will tell you how you did overall.</p>",NA,NA,NA,NA,NA,NA,NA,NA,NA,2,6,"14,10,5,13,9,8,4,3,7,15,6,12,2,1,11"
15074,commdev-instructions,36,228686,NA,2060.599999997765,<p>Try your best! You will be paid a bonus based on how many correct responses you make!</p><p>Responses that are too slow will not count toward your bonus.</p>,NA,NA,NA,NA,NA,NA,NA,NA,NA,2,6,"14,10,5,13,9,8,4,3,7,15,6,12,2,1,11"
15074,commdev-instructions,37,235886,NA,1000.6999999992549,"<p>You are almost ready to start the real game.</p><p> First, we are going to ask you some questions about how the game works.</p>",NA,NA,NA,NA,NA,NA,NA,NA,NA,2,6,"14,10,5,13,9,8,4,3,7,15,6,12,2,1,11"
15074,commdev-instructions,46,342611,NA,3815.199999999255,"<p> Nice work! It is now time to start the real game.<p></p>You will go on two missions to record wind directions of different planets.<p></p>Each one will take about 5 minutes. You will get to take a break between missions.<p><p> Remember, press <strong>F</strong> or <strong>J</strong> depending on the wind direction. Good luck!<br><img src=""img/categorize_planet_example.png""",NA,NA,NA,NA,NA,NA,NA,NA,NA,2,6,"14,10,5,13,9,8,4,3,7,15,6,12,2,1,11"
15074,commdev-image-keyboard-response,48,347965,learnblock1,840.7999999970198,img/planet12_left.png,12,Community 3,NA,TRUE,f,f,NA,NA,NA,2,6,"14,10,5,13,9,8,4,3,7,15,6,12,2,1,11"
15074,commdev-image-keyboard-response,49,349216,learnblock1,641.8000000007451,img/planet1_right.png,1,Community 3,NA,TRUE,j,j,NA,NA,NA,2,6,"14,10,5,13,9,8,4,3,7,15,6,12,2,1,11"
15074,commdev-image-keyboard-response,50,350468,learnblock1,541.6000000014901,img/planet2_right.png,2,Community 3,NA,TRUE,j,j,NA,NA,NA,2,6,"14,10,5,13,9,8,4,3,7,15,6,12,2,1,11"
15074,commdev-image-keyboard-response,51,351724,learnblock1,568.8000000007451,img/planet1_left.png,1,Community 3,NA,TRUE,f,f,NA,NA,NA,2,6,"14,10,5,13,9,8,4,3,7,15,6,12,2,1,11"
15074,commdev-image-keyboard-response,52,352978,learnblock1,463.9000000022352,img/planet2_right.png,2,Community 3,NA,TRUE,j,j,NA,NA,NA,2,6,"14,10,5,13,9,8,4,3,7,15,6,12,2,1,11"
15074,commdev-image-keyboard-response,53,354230,learnblock1,582.8000000007451,img/planet11_right.png,11,Community 3,NA,TRUE,j,j,NA,NA,NA,2,6,"14,10,5,13,9,8,4,3,7,15,6,12,2,1,11"
15074,commdev-image-keyboard-response,54,355484,learnblock1,639.5,img/planet1_right.png,1,Community 3,NA,TRUE,j,j,NA,NA,NA,2,6,"14,10,5,13,9,8,4,3,7,15,6,12,2,1,11"
15074,commdev-image-keyboard-response,55,356736,learnblock1,643.5,img/planet6_left.png,6,Community 3,NA,TRUE,f,f,NA,NA,NA,2,6,"14,10,5,13,9,8,4,3,7,15,6,12,2,1,11"
15074,commdev-image-keyboard-response,56,357992,learnblock1,455.30000000074506,img/planet2_right.png,2,Community 3,NA,TRUE,j,j,NA,NA,NA,2,6,"14,10,5,13,9,8,4,3,7,15,6,12,2,1,11"
15074,commdev-image-keyboard-response,57,359243,learnblock1,624,img/planet1_left.png,1,Community 3,NA,TRUE,f,f,NA,NA,NA,2,6,"14,10,5,13,9,8,4,3,7,15,6,12,2,1,11"
15074,commdev-image-keyboard-response,58,360495,learnblock1,800.4000000022352,img/planet12_right.png,12,Community 3,NA,TRUE,j,j,NA,NA,NA,2,6,"14,10,5,13,9,8,4,3,7,15,6,12,2,1,11"
15074,commdev-image-keyboard-response,59,361748,learnblock1,781,img/planet1_right.png,1,Community 3,NA,TRUE,j,j,NA,NA,NA,2,6,"14,10,5,13,9,8,4,3,7,15,6,12,2,1,11"
15074,commdev-image-keyboard-response,60,363002,learnblock1,570.0999999977648,img/planet2_left.png,2,Community 3,NA,TRUE,f,f,NA,NA,NA,2,6,"14,10,5,13,9,8,4,3,7,15,6,12,2,1,11"
15074,commdev-image-keyboard-response,61,364256,learnblock1,566.9000000022352,img/planet12_right.png,12,Community 3,NA,TRUE,j,j,NA,NA,NA,2,6,"14,10,5,13,9,8,4,3,7,15,6,12,2,1,11"
15074,commdev-image-keyboard-response,62,365508,learnblock1,828.6999999992549,img/planet3_right.png,3,Community 2,NA,TRUE,j,j,NA,NA,NA,2,6,"14,10,5,13,9,8,4,3,7,15,6,12,2,1,11"
15074,commdev-image-keyboard-response,63,366760,learnblock1,561.3999999985099,img/planet12_left.png,12,Community 3,NA,TRUE,f,f,NA,NA,NA,2,6,"14,10,5,13,9,8,4,3,7,15,6,12,2,1,11"
15074,commdev-image-keyboard-response,64,368011,learnblock1,612.5,img/planet1_left.png,1,Community 3,NA,TRUE,f,f,NA,NA,NA,2,6,"14,10,5,13,9,8,4,3,7,15,6,12,2,1,11"
15074,commdev-image-keyboard-response,65,369262,learnblock1,500.5999999977648,img/planet2_right.png,2,Community 3,NA,TRUE,j,j,NA,NA,NA,2,6,"14,10,5,13,9,8,4,3,7,15,6,12,2,1,11"
15074,commdev-image-keyboard-response,66,370515,learnblock1,544,img/planet1_left.png,1,Community 3,NA,TRUE,f,f,NA,NA,NA,2,6,"14,10,5,13,9,8,4,3,7,15,6,12,2,1,11"
15074,commdev-image-keyboard-response,67,371770,learnblock1,552.7000000029802,img/planet12_right.png,12,Community 3,NA,TRUE,j,j,NA,NA,NA,2,6,"14,10,5,13,9,8,4,3,7,15,6,12,2,1,11"
15074,commdev-image-keyboard-response,68,373022,learnblock1,555.1000000014901,img/planet2_left.png,2,Community 3,NA,FALSE,j,f,NA,NA,NA,2,6,"14,10,5,13,9,8,4,3,7,15,6,12,2,1,11"
15074,commdev-image-keyboard-response,69,374273,learnblock1,739.3999999985099,img/planet12_right.png,12,Community 3,NA,TRUE,j,j,NA,NA,NA,2,6,"14,10,5,13,9,8,4,3,7,15,6,12,2,1,11"
15074,commdev-image-keyboard-response,70,375528,learnblock1,606.3000000007451,img/planet3_left.png,3,Community 2,NA,TRUE,f,f,NA,NA,NA,2,6,"14,10,5,13,9,8,4,3,7,15,6,12,2,1,11"
15074,commdev-image-keyboard-response,71,376780,learnblock1,597,img/planet15_right.png,15,Community 2,NA,TRUE,j,j,NA,NA,NA,2,6,"14,10,5,13,9,8,4,3,7,15,6,12,2,1,11"
15074,commdev-image-keyboard-response,72,378032,learnblock1,623.4000000022352,img/planet3_right.png,3,Community 2,NA,TRUE,j,j,NA,NA,NA,2,6,"14,10,5,13,9,8,4,3,7,15,6,12,2,1,11"
15074,commdev-image-keyboard-response,73,379286,learnblock1,486.80000000074506,img/planet7_left.png,7,Community 2,NA,TRUE,f,f,NA,NA,NA,2,6,"14,10,5,13,9,8,4,3,7,15,6,12,2,1,11"
15074,commdev-image-keyboard-response,74,380538,learnblock1,569.1000000014901,img/planet15_left.png,15,Community 2,NA,TRUE,f,f,NA,NA,NA,2,6,"14,10,5,13,9,8,4,3,7,15,6,12,2,1,11"
15074,commdev-image-keyboard-response,75,381792,learnblock1,485.29999999701977,img/planet4_right.png,4,Community 2,NA,TRUE,j,j,NA,NA,NA,2,6,"14,10,5,13,9,8,4,3,7,15,6,12,2,1,11"
15074,commdev-image-keyboard-response,76,383045,learnblock1,559.7000000029802,img/planet7_left.png,7,Community 2,NA,TRUE,f,f,NA,NA,NA,2,6,"14,10,5,13,9,8,4,3,7,15,6,12,2,1,11"
15074,commdev-image-keyboard-response,77,384297,learnblock1,534.0999999977648,img/planet8_right.png,8,Community 2,NA,TRUE,j,j,NA,NA,NA,2,6,"14,10,5,13,9,8,4,3,7,15,6,12,2,1,11"
15074,commdev-image-keyboard-response,78,385549,learnblock1,450.29999999701977,img/planet15_left.png,15,Community 2,NA,TRUE,f,f,NA,NA,NA,2,6,"14,10,5,13,9,8,4,3,7,15,6,12,2,1,11"
15074,commdev-image-keyboard-response,79,386803,learnblock1,525.2999999970198,img/planet8_right.png,8,Community 2,NA,TRUE,j,j,NA,NA,NA,2,6,"14,10,5,13,9,8,4,3,7,15,6,12,2,1,11"
15074,commdev-image-keyboard-response,80,388059,learnblock1,587.3000000007451,img/planet4_right.png,4,Community 2,NA,TRUE,j,j,NA,NA,NA,2,6,"14,10,5,13,9,8,4,3,7,15,6,12,2,1,11"
15074,commdev-image-keyboard-response,81,389311,learnblock1,670.8999999985099,img/planet3_right.png,3,Community 2,NA,TRUE,j,j,NA,NA,NA,2,6,"14,10,5,13,9,8,4,3,7,15,6,12,2,1,11"
15074,commdev-image-keyboard-response,82,390563,learnblock1,600,img/planet15_right.png,15,Community 2,NA,TRUE,j,j,NA,NA,NA,2,6,"14,10,5,13,9,8,4,3,7,15,6,12,2,1,11"
15074,commdev-image-keyboard-response,83,391814,learnblock1,606.4000000022352,img/planet4_right.png,4,Community 2,NA,TRUE,j,j,NA,NA,NA,2,6,"14,10,5,13,9,8,4,3,7,15,6,12,2,1,11"
15074,commdev-image-keyboard-response,84,393065,learnblock1,668.1000000014901,img/planet3_left.png,3,Community 2,NA,TRUE,f,f,NA,NA,NA,2,6,"14,10,5,13,9,8,4,3,7,15,6,12,2,1,11"
15074,commdev-image-keyboard-response,85,394317,learnblock1,669.1999999992549,img/planet7_left.png,7,Community 2,NA,TRUE,f,f,NA,NA,NA,2,6,"14,10,5,13,9,8,4,3,7,15,6,12,2,1,11"
15074,commdev-image-keyboard-response,86,395571,learnblock1,554.8999999985099,img/planet15_right.png,15,Community 2,NA,TRUE,j,j,NA,NA,NA,2,6,"14,10,5,13,9,8,4,3,7,15,6,12,2,1,11"
15074,commdev-image-keyboard-response,87,396823,learnblock1,568.3000000007451,img/planet3_right.png,3,Community 2,NA,TRUE,j,j,NA,NA,NA,2,6,"14,10,5,13,9,8,4,3,7,15,6,12,2,1,11"
15074,commdev-image-keyboard-response,88,398078,learnblock1,565.6000000014901,img/planet4_right.png,4,Community 2,NA,TRUE,j,j,NA,NA,NA,2,6,"14,10,5,13,9,8,4,3,7,15,6,12,2,1,11"
15074,commdev-image-keyboard-response,89,399330,learnblock1,638.8000000007451,img/planet8_left.png,8,Community 2,NA,TRUE,f,f,NA,NA,NA,2,6,"14,10,5,13,9,8,4,3,7,15,6,12,2,1,11"
15074,commdev-image-keyboard-response,90,400582,learnblock1,636.6999999992549,img/planet4_left.png,4,Community 2,NA,TRUE,f,f,NA,NA,NA,2,6,"14,10,5,13,9,8,4,3,7,15,6,12,2,1,11"
15074,commdev-image-keyboard-response,91,401833,learnblock1,597.6999999992549,img/planet15_left.png,15,Community 2,NA,TRUE,f,f,NA,NA,NA,2,6,"14,10,5,13,9,8,4,3,7,15,6,12,2,1,11"
15074,commdev-image-keyboard-response,92,403090,learnblock1,609.8999999985099,img/planet8_right.png,8,Community 2,NA,TRUE,j,j,NA,NA,NA,2,6,"14,10,5,13,9,8,4,3,7,15,6,12,2,1,11"
15074,commdev-image-keyboard-response,93,404342,learnblock1,601.1999999992549,img/planet7_left.png,7,Community 2,NA,TRUE,f,f,NA,NA,NA,2,6,"14,10,5,13,9,8,4,3,7,15,6,12,2,1,11"
15074,commdev-image-keyboard-response,94,405594,learnblock1,706.1999999992549,img/planet8_left.png,8,Community 2,NA,FALSE,j,f,NA,NA,NA,2,6,"14,10,5,13,9,8,4,3,7,15,6,12,2,1,11"
15074,commdev-image-keyboard-response,95,406847,learnblock1,963.7999999970198,img/planet4_left.png,4,Community 2,NA,TRUE,f,f,NA,NA,NA,2,6,"14,10,5,13,9,8,4,3,7,15,6,12,2,1,11"
15074,commdev-image-keyboard-response,96,408102,learnblock1,673,img/planet15_left.png,15,Community 2,NA,TRUE,f,f,NA,NA,NA,2,6,"14,10,5,13,9,8,4,3,7,15,6,12,2,1,11"
15074,commdev-image-keyboard-response,97,409356,learnblock1,640.0999999977648,img/planet7_left.png,7,Community 2,NA,TRUE,f,f,NA,NA,NA,2,6,"14,10,5,13,9,8,4,3,7,15,6,12,2,1,11"
15074,commdev-image-keyboard-response,98,410611,learnblock1,587.3999999985099,img/planet15_left.png,15,Community 2,NA,TRUE,f,f,NA,NA,NA,2,6,"14,10,5,13,9,8,4,3,7,15,6,12,2,1,11"
15074,commdev-image-keyboard-response,99,411863,learnblock1,637.3999999985099,img/planet8_right.png,8,Community 2,NA,TRUE,j,j,NA,NA,NA,2,6,"14,10,5,13,9,8,4,3,7,15,6,12,2,1,11"
15074,commdev-image-keyboard-response,100,413117,learnblock1,582.5,img/planet7_left.png,7,Community 2,NA,TRUE,f,f,NA,NA,NA,2,6,"14,10,5,13,9,8,4,3,7,15,6,12,2,1,11"
15074,commdev-image-keyboard-response,101,414371,learnblock1,1161.9000000022352,img/planet15_left.png,15,Community 2,NA,TRUE,f,f,NA,NA,NA,2,6,"14,10,5,13,9,8,4,3,7,15,6,12,2,1,11"
15074,commdev-image-keyboard-response,102,415626,learnblock1,777.6999999992549,img/planet4_left.png,4,Community 2,NA,TRUE,f,f,NA,NA,NA,2,6,"14,10,5,13,9,8,4,3,7,15,6,12,2,1,11"
15074,commdev-image-keyboard-response,103,416878,learnblock1,563.9000000022352,img/planet15_left.png,15,Community 2,NA,TRUE,f,f,NA,NA,NA,2,6,"14,10,5,13,9,8,4,3,7,15,6,12,2,1,11"
15074,commdev-image-keyboard-response,104,418133,learnblock1,568.0999999977648,img/planet7_left.png,7,Community 2,NA,TRUE,f,f,NA,NA,NA,2,6,"14,10,5,13,9,8,4,3,7,15,6,12,2,1,11"
15074,commdev-image-keyboard-response,105,419384,learnblock1,749.7000000029802,img/planet8_left.png,8,Community 2,NA,TRUE,f,f,NA,NA,NA,2,6,"14,10,5,13,9,8,4,3,7,15,6,12,2,1,11"
15074,commdev-image-keyboard-response,106,420635,learnblock1,647.1000000014901,img/planet7_left.png,7,Community 2,NA,TRUE,f,f,NA,NA,NA,2,6,"14,10,5,13,9,8,4,3,7,15,6,12,2,1,11"
15074,commdev-image-keyboard-response,107,421887,learnblock1,609.1999999992549,img/planet4_right.png,4,Community 2,NA,TRUE,j,j,NA,NA,NA,2,6,"14,10,5,13,9,8,4,3,7,15,6,12,2,1,11"
15074,commdev-image-keyboard-response,108,423138,learnblock1,549,img/planet15_left.png,15,Community 2,NA,TRUE,f,f,NA,NA,NA,2,6,"14,10,5,13,9,8,4,3,7,15,6,12,2,1,11"
15074,commdev-image-keyboard-response,109,424393,learnblock1,578.0999999977648,img/planet8_right.png,8,Community 2,NA,TRUE,j,j,NA,NA,NA,2,6,"14,10,5,13,9,8,4,3,7,15,6,12,2,1,11"
15074,commdev-image-keyboard-response,110,425644,learnblock1,532.6000000014901,img/planet15_left.png,15,Community 2,NA,TRUE,f,f,NA,NA,NA,2,6,"14,10,5,13,9,8,4,3,7,15,6,12,2,1,11"
15074,commdev-image-keyboard-response,111,426898,learnblock1,587.6000000014901,img/planet3_right.png,3,Community 2,NA,TRUE,j,j,NA,NA,NA,2,6,"14,10,5,13,9,8,4,3,7,15,6,12,2,1,11"
15074,commdev-image-keyboard-response,112,428151,learnblock1,463.6000000014901,img/planet7_left.png,7,Community 2,NA,TRUE,f,f,NA,NA,NA,2,6,"14,10,5,13,9,8,4,3,7,15,6,12,2,1,11"
15074,commdev-image-keyboard-response,113,429403,learnblock1,727.6999999992549,img/planet8_left.png,8,Community 2,NA,TRUE,f,f,NA,NA,NA,2,6,"14,10,5,13,9,8,4,3,7,15,6,12,2,1,11"
15074,commdev-image-keyboard-response,114,430654,learnblock1,563.1000000014901,img/planet7_left.png,7,Community 2,NA,TRUE,f,f,NA,NA,NA,2,6,"14,10,5,13,9,8,4,3,7,15,6,12,2,1,11"
15074,commdev-image-keyboard-response,115,431905,learnblock1,480.4000000022352,img/planet15_left.png,15,Community 2,NA,TRUE,f,f,NA,NA,NA,2,6,"14,10,5,13,9,8,4,3,7,15,6,12,2,1,11"
15074,commdev-image-keyboard-response,116,433156,learnblock1,527.7000000029802,img/planet4_right.png,4,Community 2,NA,TRUE,j,j,NA,NA,NA,2,6,"14,10,5,13,9,8,4,3,7,15,6,12,2,1,11"
15074,commdev-image-keyboard-response,117,434411,learnblock1,703.8000000007451,img/planet7_left.png,7,Community 2,NA,TRUE,f,f,NA,NA,NA,2,6,"14,10,5,13,9,8,4,3,7,15,6,12,2,1,11"
15074,commdev-image-keyboard-response,118,435662,learnblock1,576.5999999977648,img/planet8_right.png,8,Community 2,NA,TRUE,j,j,NA,NA,NA,2,6,"14,10,5,13,9,8,4,3,7,15,6,12,2,1,11"
15074,commdev-image-keyboard-response,119,436914,learnblock1,683,img/planet7_left.png,7,Community 2,NA,TRUE,f,f,NA,NA,NA,2,6,"14,10,5,13,9,8,4,3,7,15,6,12,2,1,11"
15074,commdev-image-keyboard-response,120,438166,learnblock1,731.7000000029802,img/planet3_left.png,3,Community 2,NA,TRUE,f,f,NA,NA,NA,2,6,"14,10,5,13,9,8,4,3,7,15,6,12,2,1,11"
15074,commdev-image-keyboard-response,121,439420,learnblock1,671.5,img/planet15_right.png,15,Community 2,NA,TRUE,j,j,NA,NA,NA,2,6,"14,10,5,13,9,8,4,3,7,15,6,12,2,1,11"
15074,commdev-image-keyboard-response,122,440671,learnblock1,549.3000000007451,img/planet4_right.png,4,Community 2,NA,TRUE,j,j,NA,NA,NA,2,6,"14,10,5,13,9,8,4,3,7,15,6,12,2,1,11"
15074,commdev-image-keyboard-response,123,441922,learnblock1,829,img/planet7_left.png,7,Community 2,NA,TRUE,f,f,NA,NA,NA,2,6,"14,10,5,13,9,8,4,3,7,15,6,12,2,1,11"
15074,commdev-image-keyboard-response,124,443178,learnblock1,526.5,img/planet8_right.png,8,Community 2,NA,TRUE,j,j,NA,NA,NA,2,6,"14,10,5,13,9,8,4,3,7,15,6,12,2,1,11"
15074,commdev-image-keyboard-response,125,444431,learnblock1,516.4000000022352,img/planet7_right.png,7,Community 2,NA,TRUE,j,j,NA,NA,NA,2,6,"14,10,5,13,9,8,4,3,7,15,6,12,2,1,11"
15074,commdev-image-keyboard-response,126,445683,learnblock1,573.3000000007451,img/planet4_left.png,4,Community 2,NA,TRUE,f,f,NA,NA,NA,2,6,"14,10,5,13,9,8,4,3,7,15,6,12,2,1,11"
15074,commdev-image-keyboard-response,127,446934,learnblock1,530.8999999985099,img/planet15_right.png,15,Community 2,NA,TRUE,j,j,NA,NA,NA,2,6,"14,10,5,13,9,8,4,3,7,15,6,12,2,1,11"
15074,commdev-image-keyboard-response,128,448185,learnblock1,664.8999999985099,img/planet4_left.png,4,Community 2,NA,TRUE,f,f,NA,NA,NA,2,6,"14,10,5,13,9,8,4,3,7,15,6,12,2,1,11"
15074,commdev-image-keyboard-response,129,449436,learnblock1,561.6999999992549,img/planet7_left.png,7,Community 2,NA,TRUE,f,f,NA,NA,NA,2,6,"14,10,5,13,9,8,4,3,7,15,6,12,2,1,11"
15074,commdev-image-keyboard-response,130,450687,learnblock1,581.8000000007451,img/planet3_right.png,3,Community 2,NA,TRUE,j,j,NA,NA,NA,2,6,"14,10,5,13,9,8,4,3,7,15,6,12,2,1,11"
15074,commdev-image-keyboard-response,131,451939,learnblock1,642.2999999970198,img/planet15_right.png,15,Community 2,NA,TRUE,j,j,NA,NA,NA,2,6,"14,10,5,13,9,8,4,3,7,15,6,12,2,1,11"
15074,commdev-image-keyboard-response,132,453190,learnblock1,660.8000000007451,img/planet3_left.png,3,Community 2,NA,TRUE,f,f,NA,NA,NA,2,6,"14,10,5,13,9,8,4,3,7,15,6,12,2,1,11"
15074,commdev-image-keyboard-response,133,454441,learnblock1,619.3000000007451,img/planet4_left.png,4,Community 2,NA,TRUE,f,f,NA,NA,NA,2,6,"14,10,5,13,9,8,4,3,7,15,6,12,2,1,11"
15074,commdev-image-keyboard-response,134,455693,learnblock1,592.3000000007451,img/planet3_right.png,3,Community 2,NA,TRUE,j,j,NA,NA,NA,2,6,"14,10,5,13,9,8,4,3,7,15,6,12,2,1,11"
15074,commdev-image-keyboard-response,135,456945,learnblock1,764.0999999977648,img/planet7_right.png,7,Community 2,NA,TRUE,j,j,NA,NA,NA,2,6,"14,10,5,13,9,8,4,3,7,15,6,12,2,1,11"
15074,commdev-image-keyboard-response,136,458196,learnblock1,577.7000000029802,img/planet4_right.png,4,Community 2,NA,TRUE,j,j,NA,NA,NA,2,6,"14,10,5,13,9,8,4,3,7,15,6,12,2,1,11"
15074,commdev-image-keyboard-response,137,459448,learnblock1,535.1000000014901,img/planet15_left.png,15,Community 2,NA,TRUE,f,f,NA,NA,NA,2,6,"14,10,5,13,9,8,4,3,7,15,6,12,2,1,11"
15074,commdev-image-keyboard-response,138,460699,learnblock1,539.0999999977648,img/planet7_left.png,7,Community 2,NA,TRUE,f,f,NA,NA,NA,2,6,"14,10,5,13,9,8,4,3,7,15,6,12,2,1,11"
15074,commdev-image-keyboard-response,139,461950,learnblock1,603.6000000014901,img/planet8_right.png,8,Community 2,NA,TRUE,j,j,NA,NA,NA,2,6,"14,10,5,13,9,8,4,3,7,15,6,12,2,1,11"
15074,commdev-image-keyboard-response,140,463202,learnblock1,542.2000000029802,img/planet4_right.png,4,Community 2,NA,TRUE,j,j,NA,NA,NA,2,6,"14,10,5,13,9,8,4,3,7,15,6,12,2,1,11"
15074,commdev-image-keyboard-response,141,464456,learnblock1,596.8999999985099,img/planet7_right.png,7,Community 2,NA,TRUE,j,j,NA,NA,NA,2,6,"14,10,5,13,9,8,4,3,7,15,6,12,2,1,11"
15074,commdev-image-keyboard-response,142,465711,learnblock1,644.7999999970198,img/planet15_left.png,15,Community 2,NA,TRUE,f,f,NA,NA,NA,2,6,"14,10,5,13,9,8,4,3,7,15,6,12,2,1,11"
15074,commdev-image-keyboard-response,143,466963,learnblock1,738.3999999985099,img/planet7_right.png,7,Community 2,NA,TRUE,j,j,NA,NA,NA,2,6,"14,10,5,13,9,8,4,3,7,15,6,12,2,1,11"
15074,commdev-image-keyboard-response,144,468214,learnblock1,672.6000000014901,img/planet8_left.png,8,Community 2,NA,TRUE,f,f,NA,NA,NA,2,6,"14,10,5,13,9,8,4,3,7,15,6,12,2,1,11"
15074,commdev-image-keyboard-response,145,469466,learnblock1,713.8000000007451,img/planet7_left.png,7,Community 2,NA,TRUE,f,f,NA,NA,NA,2,6,"14,10,5,13,9,8,4,3,7,15,6,12,2,1,11"
15074,commdev-image-keyboard-response,146,470720,learnblock1,563.8999999985099,img/planet3_right.png,3,Community 2,NA,TRUE,j,j,NA,NA,NA,2,6,"14,10,5,13,9,8,4,3,7,15,6,12,2,1,11"
15074,commdev-image-keyboard-response,147,471974,learnblock1,574.8999999985099,img/planet4_left.png,4,Community 2,NA,TRUE,f,f,NA,NA,NA,2,6,"14,10,5,13,9,8,4,3,7,15,6,12,2,1,11"
15074,commdev-image-keyboard-response,148,473228,learnblock1,618.3000000007451,img/planet8_right.png,8,Community 2,NA,TRUE,j,j,NA,NA,NA,2,6,"14,10,5,13,9,8,4,3,7,15,6,12,2,1,11"
15074,commdev-image-keyboard-response,149,474483,learnblock1,600.5,img/planet15_left.png,15,Community 2,NA,TRUE,f,f,NA,NA,NA,2,6,"14,10,5,13,9,8,4,3,7,15,6,12,2,1,11"
15074,commdev-image-keyboard-response,150,475734,learnblock1,694.4000000022352,img/planet8_left.png,8,Community 2,NA,TRUE,f,f,NA,NA,NA,2,6,"14,10,5,13,9,8,4,3,7,15,6,12,2,1,11"
15074,commdev-image-keyboard-response,151,476986,learnblock1,718.9000000022352,img/planet7_left.png,7,Community 2,NA,TRUE,f,f,NA,NA,NA,2,6,"14,10,5,13,9,8,4,3,7,15,6,12,2,1,11"
15074,commdev-image-keyboard-response,152,478238,learnblock1,688.3000000007451,img/planet15_left.png,15,Community 2,NA,TRUE,f,f,NA,NA,NA,2,6,"14,10,5,13,9,8,4,3,7,15,6,12,2,1,11"
15074,commdev-image-keyboard-response,153,479490,learnblock1,565.5,img/planet3_right.png,3,Community 2,NA,TRUE,j,j,NA,NA,NA,2,6,"14,10,5,13,9,8,4,3,7,15,6,12,2,1,11"
15074,commdev-image-keyboard-response,154,480741,learnblock1,449,img/planet15_left.png,15,Community 2,NA,TRUE,f,f,NA,NA,NA,2,6,"14,10,5,13,9,8,4,3,7,15,6,12,2,1,11"
15074,commdev-image-keyboard-response,155,481994,learnblock1,695.8000000007451,img/planet8_left.png,8,Community 2,NA,TRUE,f,f,NA,NA,NA,2,6,"14,10,5,13,9,8,4,3,7,15,6,12,2,1,11"
15074,commdev-image-keyboard-response,156,483247,learnblock1,607.9000000022352,img/planet13_left.png,13,Community 1,NA,TRUE,f,f,NA,NA,NA,2,6,"14,10,5,13,9,8,4,3,7,15,6,12,2,1,11"
15074,commdev-image-keyboard-response,157,484501,learnblock1,626.6999999992549,img/planet8_right.png,8,Community 2,NA,TRUE,j,j,NA,NA,NA,2,6,"14,10,5,13,9,8,4,3,7,15,6,12,2,1,11"
15074,commdev-image-keyboard-response,158,485755,learnblock1,606.9000000022352,img/planet7_right.png,7,Community 2,NA,FALSE,f,j,NA,NA,NA,2,6,"14,10,5,13,9,8,4,3,7,15,6,12,2,1,11"
15074,commdev-image-keyboard-response,159,487011,learnblock1,625.6999999992549,img/planet4_left.png,4,Community 2,NA,TRUE,f,f,NA,NA,NA,2,6,"14,10,5,13,9,8,4,3,7,15,6,12,2,1,11"
15074,commdev-image-keyboard-response,160,488263,learnblock1,691.1999999992549,img/planet3_left.png,3,Community 2,NA,TRUE,f,f,NA,NA,NA,2,6,"14,10,5,13,9,8,4,3,7,15,6,12,2,1,11"
15074,commdev-image-keyboard-response,161,489514,learnblock1,669.2999999970198,img/planet4_right.png,4,Community 2,NA,TRUE,j,j,NA,NA,NA,2,6,"14,10,5,13,9,8,4,3,7,15,6,12,2,1,11"
15074,commdev-image-keyboard-response,162,490765,learnblock1,617.8000000007451,img/planet8_left.png,8,Community 2,NA,TRUE,f,f,NA,NA,NA,2,6,"14,10,5,13,9,8,4,3,7,15,6,12,2,1,11"
15074,commdev-image-keyboard-response,163,492020,learnblock1,675.6999999992549,img/planet15_right.png,15,Community 2,NA,TRUE,j,j,NA,NA,NA,2,6,"14,10,5,13,9,8,4,3,7,15,6,12,2,1,11"
15074,commdev-image-keyboard-response,164,493273,learnblock1,691.6000000014901,img/planet3_left.png,3,Community 2,NA,TRUE,f,f,NA,NA,NA,2,6,"14,10,5,13,9,8,4,3,7,15,6,12,2,1,11"
15074,commdev-image-keyboard-response,165,494528,learnblock1,674.3000000007451,img/planet12_left.png,12,Community 3,NA,TRUE,f,f,NA,NA,NA,2,6,"14,10,5,13,9,8,4,3,7,15,6,12,2,1,11"
15074,commdev-image-keyboard-response,166,495781,learnblock1,559.1000000014901,img/planet1_right.png,1,Community 3,NA,TRUE,j,j,NA,NA,NA,2,6,"14,10,5,13,9,8,4,3,7,15,6,12,2,1,11"
15074,commdev-image-keyboard-response,167,497040,learnblock1,684.3000000007451,img/planet11_left.png,11,Community 3,NA,TRUE,f,f,NA,NA,NA,2,6,"14,10,5,13,9,8,4,3,7,15,6,12,2,1,11"
15074,commdev-image-keyboard-response,168,498294,learnblock1,626.5,img/planet2_right.png,2,Community 3,NA,TRUE,j,j,NA,NA,NA,2,6,"14,10,5,13,9,8,4,3,7,15,6,12,2,1,11"
15074,commdev-image-keyboard-response,169,499546,learnblock1,654,img/planet6_right.png,6,Community 3,NA,TRUE,j,j,NA,NA,NA,2,6,"14,10,5,13,9,8,4,3,7,15,6,12,2,1,11"
15074,commdev-image-keyboard-response,170,500801,learnblock1,870.2000000029802,img/planet9_left.png,9,Community 1,NA,TRUE,f,f,NA,NA,NA,2,6,"14,10,5,13,9,8,4,3,7,15,6,12,2,1,11"
15074,commdev-image-keyboard-response,171,502056,learnblock1,653.4000000022352,img/planet6_right.png,6,Community 3,NA,TRUE,j,j,NA,NA,NA,2,6,"14,10,5,13,9,8,4,3,7,15,6,12,2,1,11"
15074,commdev-image-keyboard-response,172,503309,learnblock1,690.5,img/planet9_left.png,9,Community 1,NA,TRUE,f,f,NA,NA,NA,2,6,"14,10,5,13,9,8,4,3,7,15,6,12,2,1,11"
15074,commdev-image-keyboard-response,173,504561,learnblock1,739.2999999970198,img/planet5_right.png,5,Community 1,NA,TRUE,j,j,NA,NA,NA,2,6,"14,10,5,13,9,8,4,3,7,15,6,12,2,1,11"
15074,commdev-image-keyboard-response,174,505814,learnblock1,599.1000000014901,img/planet10_left.png,10,Community 1,NA,TRUE,f,f,NA,NA,NA,2,6,"14,10,5,13,9,8,4,3,7,15,6,12,2,1,11"
15074,commdev-image-keyboard-response,175,507074,learnblock1,1093.9000000022352,img/planet13_right.png,13,Community 1,NA,TRUE,j,j,NA,NA,NA,2,6,"14,10,5,13,9,8,4,3,7,15,6,12,2,1,11"
15074,commdev-image-keyboard-response,176,508331,learnblock1,850.4000000022352,img/planet14_left.png,14,Community 1,NA,TRUE,f,f,NA,NA,NA,2,6,"14,10,5,13,9,8,4,3,7,15,6,12,2,1,11"
15074,commdev-image-keyboard-response,177,509589,learnblock1,689.4000000022352,img/planet10_left.png,10,Community 1,NA,TRUE,f,f,NA,NA,NA,2,6,"14,10,5,13,9,8,4,3,7,15,6,12,2,1,11"
15074,commdev-image-keyboard-response,178,510844,learnblock1,631.3000000007451,img/planet14_left.png,14,Community 1,NA,TRUE,f,f,NA,NA,NA,2,6,"14,10,5,13,9,8,4,3,7,15,6,12,2,1,11"
15074,commdev-image-keyboard-response,179,512102,learnblock1,527.8000000007451,img/planet10_left.png,10,Community 1,NA,TRUE,f,f,NA,NA,NA,2,6,"14,10,5,13,9,8,4,3,7,15,6,12,2,1,11"
15074,commdev-image-keyboard-response,180,513356,learnblock1,627.1999999992549,img/planet13_right.png,13,Community 1,NA,TRUE,j,j,NA,NA,NA,2,6,"14,10,5,13,9,8,4,3,7,15,6,12,2,1,11"
15074,commdev-image-keyboard-response,181,514611,learnblock1,612.6000000014901,img/planet5_right.png,5,Community 1,NA,TRUE,j,j,NA,NA,NA,2,6,"14,10,5,13,9,8,4,3,7,15,6,12,2,1,11"
15074,commdev-image-keyboard-response,182,515865,learnblock1,578.9000000022352,img/planet9_left.png,9,Community 1,NA,TRUE,f,f,NA,NA,NA,2,6,"14,10,5,13,9,8,4,3,7,15,6,12,2,1,11"
15074,commdev-image-keyboard-response,183,517120,learnblock1,592.9000000022352,img/planet5_left.png,5,Community 1,NA,TRUE,f,f,NA,NA,NA,2,6,"14,10,5,13,9,8,4,3,7,15,6,12,2,1,11"
15074,commdev-image-keyboard-response,184,518373,learnblock1,602.5,img/planet14_right.png,14,Community 1,NA,TRUE,j,j,NA,NA,NA,2,6,"14,10,5,13,9,8,4,3,7,15,6,12,2,1,11"
15074,commdev-image-keyboard-response,185,519631,learnblock1,510.6000000014901,img/planet5_right.png,5,Community 1,NA,TRUE,j,j,NA,NA,NA,2,6,"14,10,5,13,9,8,4,3,7,15,6,12,2,1,11"
15074,commdev-image-keyboard-response,186,520886,learnblock1,709.1999999992549,img/planet14_right.png,14,Community 1,NA,TRUE,j,j,NA,NA,NA,2,6,"14,10,5,13,9,8,4,3,7,15,6,12,2,1,11"
15074,commdev-image-keyboard-response,187,522141,learnblock1,902.3000000007451,img/planet9_right.png,9,Community 1,NA,TRUE,j,j,NA,NA,NA,2,6,"14,10,5,13,9,8,4,3,7,15,6,12,2,1,11"
15074,commdev-image-keyboard-response,188,523397,learnblock1,666,img/planet5_right.png,5,Community 1,NA,TRUE,j,j,NA,NA,NA,2,6,"14,10,5,13,9,8,4,3,7,15,6,12,2,1,11"
15074,commdev-image-keyboard-response,189,524652,learnblock1,627.5,img/planet13_left.png,13,Community 1,NA,TRUE,f,f,NA,NA,NA,2,6,"14,10,5,13,9,8,4,3,7,15,6,12,2,1,11"
15074,commdev-image-keyboard-response,190,525907,learnblock1,452.19999999925494,img/planet5_right.png,5,Community 1,NA,TRUE,j,j,NA,NA,NA,2,6,"14,10,5,13,9,8,4,3,7,15,6,12,2,1,11"
15074,commdev-image-keyboard-response,191,527161,learnblock1,668.1999999992549,img/planet13_right.png,13,Community 1,NA,TRUE,j,j,NA,NA,NA,2,6,"14,10,5,13,9,8,4,3,7,15,6,12,2,1,11"
15074,commdev-image-keyboard-response,192,528415,learnblock1,646.1999999992549,img/planet8_left.png,8,Community 2,NA,TRUE,f,f,NA,NA,NA,2,6,"14,10,5,13,9,8,4,3,7,15,6,12,2,1,11"
15074,commdev-image-keyboard-response,193,529668,learnblock1,554.8999999985099,img/planet4_right.png,4,Community 2,NA,TRUE,j,j,NA,NA,NA,2,6,"14,10,5,13,9,8,4,3,7,15,6,12,2,1,11"
15074,commdev-image-keyboard-response,194,530921,learnblock1,579.0999999977648,img/planet3_right.png,3,Community 2,NA,TRUE,j,j,NA,NA,NA,2,6,"14,10,5,13,9,8,4,3,7,15,6,12,2,1,11"
15074,commdev-image-keyboard-response,195,532173,learnblock1,626.2000000029802,img/planet15_right.png,15,Community 2,NA,TRUE,j,j,NA,NA,NA,2,6,"14,10,5,13,9,8,4,3,7,15,6,12,2,1,11"
15074,commdev-image-keyboard-response,196,533428,learnblock1,656.6000000014901,img/planet8_right.png,8,Community 2,NA,TRUE,j,j,NA,NA,NA,2,6,"14,10,5,13,9,8,4,3,7,15,6,12,2,1,11"
15074,commdev-image-keyboard-response,197,534681,learnblock1,680.8000000007451,img/planet7_right.png,7,Community 2,NA,TRUE,j,j,NA,NA,NA,2,6,"14,10,5,13,9,8,4,3,7,15,6,12,2,1,11"
15074,commdev-image-keyboard-response,198,535937,learnblock1,691.1999999992549,img/planet4_right.png,4,Community 2,NA,TRUE,j,j,NA,NA,NA,2,6,"14,10,5,13,9,8,4,3,7,15,6,12,2,1,11"
15074,commdev-image-keyboard-response,199,537192,learnblock1,579.8000000007451,img/planet7_right.png,7,Community 2,NA,TRUE,j,j,NA,NA,NA,2,6,"14,10,5,13,9,8,4,3,7,15,6,12,2,1,11"
15074,commdev-image-keyboard-response,200,538445,learnblock1,552.6000000014901,img/planet15_left.png,15,Community 2,NA,TRUE,f,f,NA,NA,NA,2,6,"14,10,5,13,9,8,4,3,7,15,6,12,2,1,11"
15074,commdev-image-keyboard-response,201,539699,learnblock1,560,img/planet8_right.png,8,Community 2,NA,TRUE,j,j,NA,NA,NA,2,6,"14,10,5,13,9,8,4,3,7,15,6,12,2,1,11"
15074,commdev-image-keyboard-response,202,540951,learnblock1,521.6999999992549,img/planet4_right.png,4,Community 2,NA,TRUE,j,j,NA,NA,NA,2,6,"14,10,5,13,9,8,4,3,7,15,6,12,2,1,11"
15074,commdev-image-keyboard-response,203,542205,learnblock1,539.5,img/planet8_right.png,8,Community 2,NA,TRUE,j,j,NA,NA,NA,2,6,"14,10,5,13,9,8,4,3,7,15,6,12,2,1,11"
15074,commdev-image-keyboard-response,204,543457,learnblock1,607.9000000022352,img/planet7_right.png,7,Community 2,NA,TRUE,j,j,NA,NA,NA,2,6,"14,10,5,13,9,8,4,3,7,15,6,12,2,1,11"
15074,commdev-image-keyboard-response,205,544711,learnblock1,602.1999999992549,img/planet15_right.png,15,Community 2,NA,TRUE,j,j,NA,NA,NA,2,6,"14,10,5,13,9,8,4,3,7,15,6,12,2,1,11"
15074,commdev-image-keyboard-response,206,545965,learnblock1,571.1000000014901,img/planet7_right.png,7,Community 2,NA,TRUE,j,j,NA,NA,NA,2,6,"14,10,5,13,9,8,4,3,7,15,6,12,2,1,11"
15074,commdev-image-keyboard-response,207,547219,learnblock1,678.1999999992549,img/planet15_left.png,15,Community 2,NA,TRUE,f,f,NA,NA,NA,2,6,"14,10,5,13,9,8,4,3,7,15,6,12,2,1,11"
15074,commdev-image-keyboard-response,208,548474,learnblock1,573,img/planet7_right.png,7,Community 2,NA,TRUE,j,j,NA,NA,NA,2,6,"14,10,5,13,9,8,4,3,7,15,6,12,2,1,11"
15074,commdev-image-keyboard-response,209,549727,learnblock1,538.5,img/planet8_left.png,8,Community 2,NA,TRUE,f,f,NA,NA,NA,2,6,"14,10,5,13,9,8,4,3,7,15,6,12,2,1,11"
15074,commdev-image-keyboard-response,210,550978,learnblock1,633.5,img/planet7_right.png,7,Community 2,NA,TRUE,j,j,NA,NA,NA,2,6,"14,10,5,13,9,8,4,3,7,15,6,12,2,1,11"
15074,commdev-image-keyboard-response,211,552230,learnblock1,586,img/planet4_right.png,4,Community 2,NA,TRUE,j,j,NA,NA,NA,2,6,"14,10,5,13,9,8,4,3,7,15,6,12,2,1,11"
15074,commdev-image-keyboard-response,212,553482,learnblock1,661.5,img/planet3_right.png,3,Community 2,NA,TRUE,j,j,NA,NA,NA,2,6,"14,10,5,13,9,8,4,3,7,15,6,12,2,1,11"
15074,commdev-image-keyboard-response,213,554738,learnblock1,574.8999999985099,img/planet7_left.png,7,Community 2,NA,TRUE,f,f,NA,NA,NA,2,6,"14,10,5,13,9,8,4,3,7,15,6,12,2,1,11"
15074,commdev-image-keyboard-response,214,555990,learnblock1,695.2000000029802,img/planet3_left.png,3,Community 2,NA,TRUE,f,f,NA,NA,NA,2,6,"14,10,5,13,9,8,4,3,7,15,6,12,2,1,11"
15074,commdev-image-keyboard-response,215,557246,learnblock1,582.1999999992549,img/planet15_right.png,15,Community 2,NA,TRUE,j,j,NA,NA,NA,2,6,"14,10,5,13,9,8,4,3,7,15,6,12,2,1,11"
15074,commdev-image-keyboard-response,216,558500,learnblock1,695.3000000007451,img/planet8_left.png,8,Community 2,NA,TRUE,f,f,NA,NA,NA,2,6,"14,10,5,13,9,8,4,3,7,15,6,12,2,1,11"
15074,commdev-image-keyboard-response,217,559753,learnblock1,582,img/planet15_left.png,15,Community 2,NA,TRUE,f,f,NA,NA,NA,2,6,"14,10,5,13,9,8,4,3,7,15,6,12,2,1,11"
15074,commdev-image-keyboard-response,218,561005,learnblock1,588.6000000014901,img/planet8_right.png,8,Community 2,NA,TRUE,j,j,NA,NA,NA,2,6,"14,10,5,13,9,8,4,3,7,15,6,12,2,1,11"
15074,commdev-image-keyboard-response,219,562261,learnblock1,532.1000000014901,img/planet15_left.png,15,Community 2,NA,TRUE,f,f,NA,NA,NA,2,6,"14,10,5,13,9,8,4,3,7,15,6,12,2,1,11"
15074,commdev-image-keyboard-response,220,563513,learnblock1,744.1999999992549,img/planet4_left.png,4,Community 2,NA,TRUE,f,f,NA,NA,NA,2,6,"14,10,5,13,9,8,4,3,7,15,6,12,2,1,11"
15074,commdev-image-keyboard-response,221,564766,learnblock1,602,img/planet7_left.png,7,Community 2,NA,TRUE,f,f,NA,NA,NA,2,6,"14,10,5,13,9,8,4,3,7,15,6,12,2,1,11"
15074,commdev-image-keyboard-response,222,566022,learnblock1,580.6000000014901,img/planet8_right.png,8,Community 2,NA,TRUE,j,j,NA,NA,NA,2,6,"14,10,5,13,9,8,4,3,7,15,6,12,2,1,11"
15074,commdev-image-keyboard-response,223,567276,learnblock1,593.5,img/planet4_left.png,4,Community 2,NA,TRUE,f,f,NA,NA,NA,2,6,"14,10,5,13,9,8,4,3,7,15,6,12,2,1,11"
15074,commdev-image-keyboard-response,224,568528,learnblock1,755.0999999977648,img/planet7_left.png,7,Community 2,NA,TRUE,f,f,NA,NA,NA,2,6,"14,10,5,13,9,8,4,3,7,15,6,12,2,1,11"
15074,commdev-image-keyboard-response,225,569779,learnblock1,637.8999999985099,img/planet3_left.png,3,Community 2,NA,TRUE,f,f,NA,NA,NA,2,6,"14,10,5,13,9,8,4,3,7,15,6,12,2,1,11"
15074,commdev-image-keyboard-response,226,571034,learnblock1,596.2000000029802,img/planet4_left.png,4,Community 2,NA,TRUE,f,f,NA,NA,NA,2,6,"14,10,5,13,9,8,4,3,7,15,6,12,2,1,11"
15074,commdev-image-keyboard-response,227,572287,learnblock1,585.8999999985099,img/planet8_right.png,8,Community 2,NA,TRUE,j,j,NA,NA,NA,2,6,"14,10,5,13,9,8,4,3,7,15,6,12,2,1,11"
15074,commdev-image-keyboard-response,228,573542,learnblock1,673.3999999985099,img/planet15_right.png,15,Community 2,NA,TRUE,j,j,NA,NA,NA,2,6,"14,10,5,13,9,8,4,3,7,15,6,12,2,1,11"
15074,commdev-image-keyboard-response,229,574797,learnblock1,562.5999999977648,img/planet8_left.png,8,Community 2,NA,TRUE,f,f,NA,NA,NA,2,6,"14,10,5,13,9,8,4,3,7,15,6,12,2,1,11"
15074,commdev-image-keyboard-response,230,576050,learnblock1,635.9000000022352,img/planet7_left.png,7,Community 2,NA,TRUE,f,f,NA,NA,NA,2,6,"14,10,5,13,9,8,4,3,7,15,6,12,2,1,11"
15074,commdev-image-keyboard-response,231,577302,learnblock1,667,img/planet15_left.png,15,Community 2,NA,TRUE,f,f,NA,NA,NA,2,6,"14,10,5,13,9,8,4,3,7,15,6,12,2,1,11"
15074,commdev-image-keyboard-response,232,578554,learnblock1,619.5,img/planet7_left.png,7,Community 2,NA,TRUE,f,f,NA,NA,NA,2,6,"14,10,5,13,9,8,4,3,7,15,6,12,2,1,11"
15074,commdev-image-keyboard-response,233,579807,learnblock1,724,img/planet4_right.png,4,Community 2,NA,TRUE,j,j,NA,NA,NA,2,6,"14,10,5,13,9,8,4,3,7,15,6,12,2,1,11"
15074,commdev-image-keyboard-response,234,581058,learnblock1,743.6999999992549,img/planet15_left.png,15,Community 2,NA,TRUE,f,f,NA,NA,NA,2,6,"14,10,5,13,9,8,4,3,7,15,6,12,2,1,11"
15074,commdev-image-keyboard-response,235,582314,learnblock1,770,img/planet8_left.png,8,Community 2,NA,TRUE,f,f,NA,NA,NA,2,6,"14,10,5,13,9,8,4,3,7,15,6,12,2,1,11"
15074,commdev-image-keyboard-response,236,583568,learnblock1,687.3000000007451,img/planet4_left.png,4,Community 2,NA,TRUE,f,f,NA,NA,NA,2,6,"14,10,5,13,9,8,4,3,7,15,6,12,2,1,11"
15074,commdev-image-keyboard-response,237,584823,learnblock1,693.8999999985099,img/planet15_right.png,15,Community 2,NA,FALSE,f,j,NA,NA,NA,2,6,"14,10,5,13,9,8,4,3,7,15,6,12,2,1,11"
15074,commdev-image-keyboard-response,238,586076,learnblock1,620.5,img/planet3_right.png,3,Community 2,NA,TRUE,j,j,NA,NA,NA,2,6,"14,10,5,13,9,8,4,3,7,15,6,12,2,1,11"
15074,commdev-image-keyboard-response,239,587330,learnblock1,734.8999999985099,img/planet4_right.png,4,Community 2,NA,TRUE,j,j,NA,NA,NA,2,6,"14,10,5,13,9,8,4,3,7,15,6,12,2,1,11"
15074,commdev-image-keyboard-response,240,588583,learnblock1,734,img/planet8_right.png,8,Community 2,NA,TRUE,j,j,NA,NA,NA,2,6,"14,10,5,13,9,8,4,3,7,15,6,12,2,1,11"
15074,commdev-image-keyboard-response,241,589838,learnblock1,600.1000000014901,img/planet7_right.png,7,Community 2,NA,TRUE,j,j,NA,NA,NA,2,6,"14,10,5,13,9,8,4,3,7,15,6,12,2,1,11"
15074,commdev-image-keyboard-response,242,591092,learnblock1,616.3999999985099,img/planet15_right.png,15,Community 2,NA,TRUE,j,j,NA,NA,NA,2,6,"14,10,5,13,9,8,4,3,7,15,6,12,2,1,11"
15074,commdev-image-keyboard-response,243,592346,learnblock1,691.5,img/planet4_left.png,4,Community 2,NA,FALSE,j,f,NA,NA,NA,2,6,"14,10,5,13,9,8,4,3,7,15,6,12,2,1,11"
15074,commdev-image-keyboard-response,244,593600,learnblock1,941.1000000014901,img/planet3_right.png,3,Community 2,NA,TRUE,j,j,NA,NA,NA,2,6,"14,10,5,13,9,8,4,3,7,15,6,12,2,1,11"
15074,commdev-image-keyboard-response,245,594854,learnblock1,656.3000000007451,img/planet15_left.png,15,Community 2,NA,TRUE,f,f,NA,NA,NA,2,6,"14,10,5,13,9,8,4,3,7,15,6,12,2,1,11"
15074,commdev-image-keyboard-response,246,596108,learnblock1,601.3000000007451,img/planet4_left.png,4,Community 2,NA,TRUE,f,f,NA,NA,NA,2,6,"14,10,5,13,9,8,4,3,7,15,6,12,2,1,11"
15074,commdev-image-keyboard-response,247,597362,learnblock1,665.2000000029802,img/planet7_right.png,7,Community 2,NA,TRUE,j,j,NA,NA,NA,2,6,"14,10,5,13,9,8,4,3,7,15,6,12,2,1,11"
15074,commdev-image-keyboard-response,248,598615,learnblock1,616,img/planet15_left.png,15,Community 2,NA,TRUE,f,f,NA,NA,NA,2,6,"14,10,5,13,9,8,4,3,7,15,6,12,2,1,11"
15074,commdev-image-keyboard-response,249,599869,learnblock1,588.6999999992549,img/planet3_right.png,3,Community 2,NA,TRUE,j,j,NA,NA,NA,2,6,"14,10,5,13,9,8,4,3,7,15,6,12,2,1,11"
15074,commdev-image-keyboard-response,250,601123,learnblock1,438.5,img/planet15_right.png,15,Community 2,NA,TRUE,j,j,NA,NA,NA,2,6,"14,10,5,13,9,8,4,3,7,15,6,12,2,1,11"
15074,commdev-image-keyboard-response,251,602377,learnblock1,468.69999999925494,img/planet7_right.png,7,Community 2,NA,TRUE,j,j,NA,NA,NA,2,6,"14,10,5,13,9,8,4,3,7,15,6,12,2,1,11"
15074,commdev-image-keyboard-response,252,603631,learnblock1,881.1000000014901,img/planet3_right.png,3,Community 2,NA,TRUE,j,j,NA,NA,NA,2,6,"14,10,5,13,9,8,4,3,7,15,6,12,2,1,11"
15074,commdev-image-keyboard-response,253,604883,learnblock1,740.7000000029802,img/planet4_right.png,4,Community 2,NA,TRUE,j,j,NA,NA,NA,2,6,"14,10,5,13,9,8,4,3,7,15,6,12,2,1,11"
15074,commdev-image-keyboard-response,254,606139,learnblock1,729.9000000022352,img/planet15_left.png,15,Community 2,NA,TRUE,f,f,NA,NA,NA,2,6,"14,10,5,13,9,8,4,3,7,15,6,12,2,1,11"
15074,commdev-image-keyboard-response,255,607393,learnblock1,585.8000000007451,img/planet7_left.png,7,Community 2,NA,TRUE,f,f,NA,NA,NA,2,6,"14,10,5,13,9,8,4,3,7,15,6,12,2,1,11"
15074,commdev-image-keyboard-response,256,608649,learnblock1,590.5999999977648,img/planet4_right.png,4,Community 2,NA,TRUE,j,j,NA,NA,NA,2,6,"14,10,5,13,9,8,4,3,7,15,6,12,2,1,11"
15074,commdev-image-keyboard-response,257,609903,learnblock1,743.6000000014901,img/planet15_right.png,15,Community 2,NA,TRUE,j,j,NA,NA,NA,2,6,"14,10,5,13,9,8,4,3,7,15,6,12,2,1,11"
15074,commdev-image-keyboard-response,258,611155,learnblock1,864.5,img/planet7_right.png,7,Community 2,NA,TRUE,j,j,NA,NA,NA,2,6,"14,10,5,13,9,8,4,3,7,15,6,12,2,1,11"
15074,commdev-image-keyboard-response,259,612408,learnblock1,614.6999999992549,img/planet8_right.png,8,Community 2,NA,TRUE,j,j,NA,NA,NA,2,6,"14,10,5,13,9,8,4,3,7,15,6,12,2,1,11"
15074,commdev-image-keyboard-response,260,613662,learnblock1,467.1000000014901,img/planet13_right.png,13,Community 1,NA,TRUE,j,j,NA,NA,NA,2,6,"14,10,5,13,9,8,4,3,7,15,6,12,2,1,11"
15074,commdev-image-keyboard-response,261,614917,learnblock1,490.80000000074506,img/planet5_left.png,5,Community 1,NA,FALSE,j,f,NA,NA,NA,2,6,"14,10,5,13,9,8,4,3,7,15,6,12,2,1,11"
15074,commdev-image-keyboard-response,262,616170,learnblock1,837.0999999977648,img/planet10_left.png,10,Community 1,NA,TRUE,f,f,NA,NA,NA,2,6,"14,10,5,13,9,8,4,3,7,15,6,12,2,1,11"
15074,commdev-image-keyboard-response,263,617424,learnblock1,700.8000000007451,img/planet13_right.png,13,Community 1,NA,TRUE,j,j,NA,NA,NA,2,6,"14,10,5,13,9,8,4,3,7,15,6,12,2,1,11"
15074,commdev-image-keyboard-response,264,618678,learnblock1,756.1999999992549,img/planet14_left.png,14,Community 1,NA,TRUE,f,f,NA,NA,NA,2,6,"14,10,5,13,9,8,4,3,7,15,6,12,2,1,11"
15074,commdev-image-keyboard-response,265,619932,learnblock1,1030.4000000022352,img/planet10_right.png,10,Community 1,NA,TRUE,j,j,NA,NA,NA,2,6,"14,10,5,13,9,8,4,3,7,15,6,12,2,1,11"
15074,commdev-image-keyboard-response,266,621184,learnblock1,1127.300000000745,img/planet13_right.png,13,Community 1,NA,TRUE,j,j,NA,NA,NA,2,6,"14,10,5,13,9,8,4,3,7,15,6,12,2,1,11"
15074,commdev-image-keyboard-response,267,622440,learnblock1,702.3000000007451,img/planet5_right.png,5,Community 1,NA,TRUE,j,j,NA,NA,NA,2,6,"14,10,5,13,9,8,4,3,7,15,6,12,2,1,11"
15074,commdev-image-keyboard-response,268,623693,learnblock1,686.6999999992549,img/planet13_left.png,13,Community 1,NA,TRUE,f,f,NA,NA,NA,2,6,"14,10,5,13,9,8,4,3,7,15,6,12,2,1,11"
15074,commdev-image-keyboard-response,269,624948,learnblock1,660.3000000007451,img/planet14_left.png,14,Community 1,NA,TRUE,f,f,NA,NA,NA,2,6,"14,10,5,13,9,8,4,3,7,15,6,12,2,1,11"
15074,commdev-image-keyboard-response,270,626201,learnblock1,598,img/planet13_right.png,13,Community 1,NA,TRUE,j,j,NA,NA,NA,2,6,"14,10,5,13,9,8,4,3,7,15,6,12,2,1,11"
15074,commdev-image-keyboard-response,271,627456,learnblock1,551.8999999985099,img/planet5_right.png,5,Community 1,NA,TRUE,j,j,NA,NA,NA,2,6,"14,10,5,13,9,8,4,3,7,15,6,12,2,1,11"
15074,commdev-image-keyboard-response,272,628709,learnblock1,577,img/planet14_left.png,14,Community 1,NA,TRUE,f,f,NA,NA,NA,2,6,"14,10,5,13,9,8,4,3,7,15,6,12,2,1,11"
15074,commdev-image-keyboard-response,273,629963,learnblock1,479.80000000074506,img/planet5_right.png,5,Community 1,NA,TRUE,j,j,NA,NA,NA,2,6,"14,10,5,13,9,8,4,3,7,15,6,12,2,1,11"
15074,commdev-image-keyboard-response,274,631217,learnblock1,551.6000000014901,img/planet10_left.png,10,Community 1,NA,TRUE,f,f,NA,NA,NA,2,6,"14,10,5,13,9,8,4,3,7,15,6,12,2,1,11"
15074,commdev-image-keyboard-response,275,632471,learnblock1,806.3000000007451,img/planet5_left.png,5,Community 1,NA,TRUE,f,f,NA,NA,NA,2,6,"14,10,5,13,9,8,4,3,7,15,6,12,2,1,11"
15074,commdev-image-keyboard-response,276,633735,learnblock1,613.2999999970198,img/planet9_right.png,9,Community 1,NA,TRUE,j,j,NA,NA,NA,2,6,"14,10,5,13,9,8,4,3,7,15,6,12,2,1,11"
15074,commdev-image-keyboard-response,277,634988,learnblock1,636.7000000029802,img/planet10_right.png,10,Community 1,NA,TRUE,j,j,NA,NA,NA,2,6,"14,10,5,13,9,8,4,3,7,15,6,12,2,1,11"
15074,commdev-image-keyboard-response,278,636245,learnblock1,652.7999999970198,img/planet13_right.png,13,Community 1,NA,TRUE,j,j,NA,NA,NA,2,6,"14,10,5,13,9,8,4,3,7,15,6,12,2,1,11"
15074,commdev-image-keyboard-response,279,637498,learnblock1,789.7000000029802,img/planet14_right.png,14,Community 1,NA,TRUE,j,j,NA,NA,NA,2,6,"14,10,5,13,9,8,4,3,7,15,6,12,2,1,11"
15074,commdev-image-keyboard-response,280,638754,learnblock1,633.9000000022352,img/planet5_right.png,5,Community 1,NA,TRUE,j,j,NA,NA,NA,2,6,"14,10,5,13,9,8,4,3,7,15,6,12,2,1,11"
15074,commdev-image-keyboard-response,281,640006,learnblock1,638.5,img/planet9_left.png,9,Community 1,NA,TRUE,f,f,NA,NA,NA,2,6,"14,10,5,13,9,8,4,3,7,15,6,12,2,1,11"
15074,commdev-image-keyboard-response,282,641260,learnblock1,776.6999999992549,img/planet14_right.png,14,Community 1,NA,TRUE,j,j,NA,NA,NA,2,6,"14,10,5,13,9,8,4,3,7,15,6,12,2,1,11"
15074,commdev-image-keyboard-response,283,642513,learnblock1,578.0999999977648,img/planet9_left.png,9,Community 1,NA,TRUE,f,f,NA,NA,NA,2,6,"14,10,5,13,9,8,4,3,7,15,6,12,2,1,11"
15074,commdev-image-keyboard-response,284,643768,learnblock1,534.9000000022352,img/planet10_left.png,10,Community 1,NA,TRUE,f,f,NA,NA,NA,2,6,"14,10,5,13,9,8,4,3,7,15,6,12,2,1,11"
15074,commdev-image-keyboard-response,285,645022,learnblock1,415.29999999701977,img/planet13_left.png,13,Community 1,NA,TRUE,f,f,NA,NA,NA,2,6,"14,10,5,13,9,8,4,3,7,15,6,12,2,1,11"
15074,commdev-image-keyboard-response,286,646276,learnblock1,273,img/planet5_left.png,5,Community 1,NA,TRUE,f,f,NA,NA,NA,2,6,"14,10,5,13,9,8,4,3,7,15,6,12,2,1,11"
15074,commdev-image-keyboard-response,287,647530,learnblock1,286.19999999925494,img/planet13_right.png,13,Community 1,NA,FALSE,f,j,NA,NA,NA,2,6,"14,10,5,13,9,8,4,3,7,15,6,12,2,1,11"
15074,commdev-image-keyboard-response,288,648782,learnblock1,812,img/planet14_right.png,14,Community 1,NA,TRUE,j,j,NA,NA,NA,2,6,"14,10,5,13,9,8,4,3,7,15,6,12,2,1,11"
15074,commdev-image-keyboard-response,289,650038,learnblock1,573.6000000014901,img/planet5_right.png,5,Community 1,NA,TRUE,j,j,NA,NA,NA,2,6,"14,10,5,13,9,8,4,3,7,15,6,12,2,1,11"
15074,commdev-image-keyboard-response,290,651291,learnblock1,662,img/planet9_left.png,9,Community 1,NA,TRUE,f,f,NA,NA,NA,2,6,"14,10,5,13,9,8,4,3,7,15,6,12,2,1,11"
15074,commdev-image-keyboard-response,291,652547,learnblock1,641.3000000007451,img/planet10_left.png,10,Community 1,NA,TRUE,f,f,NA,NA,NA,2,6,"14,10,5,13,9,8,4,3,7,15,6,12,2,1,11"
15074,commdev-image-keyboard-response,292,653799,learnblock1,587.3999999985099,img/planet5_right.png,5,Community 1,NA,TRUE,j,j,NA,NA,NA,2,6,"14,10,5,13,9,8,4,3,7,15,6,12,2,1,11"
15074,commdev-image-keyboard-response,293,655053,learnblock1,547.8999999985099,img/planet10_left.png,10,Community 1,NA,TRUE,f,f,NA,NA,NA,2,6,"14,10,5,13,9,8,4,3,7,15,6,12,2,1,11"
15074,commdev-image-keyboard-response,294,656307,learnblock1,607.3000000007451,img/planet9_left.png,9,Community 1,NA,TRUE,f,f,NA,NA,NA,2,6,"14,10,5,13,9,8,4,3,7,15,6,12,2,1,11"
15074,commdev-image-keyboard-response,295,657563,learnblock1,577.8000000007451,img/planet10_right.png,10,Community 1,NA,FALSE,f,j,NA,NA,NA,2,6,"14,10,5,13,9,8,4,3,7,15,6,12,2,1,11"
15074,commdev-image-keyboard-response,296,658820,learnblock1,722.3000000007451,img/planet14_right.png,14,Community 1,NA,TRUE,j,j,NA,NA,NA,2,6,"14,10,5,13,9,8,4,3,7,15,6,12,2,1,11"
15074,commdev-image-keyboard-response,297,660073,learnblock1,530.1999999992549,img/planet13_right.png,13,Community 1,NA,TRUE,j,j,NA,NA,NA,2,6,"14,10,5,13,9,8,4,3,7,15,6,12,2,1,11"
15074,commdev-image-keyboard-response,298,661328,learnblock1,541.6000000014901,img/planet8_right.png,8,Community 2,NA,TRUE,j,j,NA,NA,NA,2,6,"14,10,5,13,9,8,4,3,7,15,6,12,2,1,11"
15074,commdev-image-keyboard-response,299,662579,learnblock1,493.1000000014901,img/planet13_right.png,13,Community 1,NA,TRUE,j,j,NA,NA,NA,2,6,"14,10,5,13,9,8,4,3,7,15,6,12,2,1,11"
15074,commdev-image-keyboard-response,300,663831,learnblock1,573,img/planet8_left.png,8,Community 2,NA,FALSE,j,f,NA,NA,NA,2,6,"14,10,5,13,9,8,4,3,7,15,6,12,2,1,11"
15074,commdev-image-keyboard-response,301,665084,learnblock1,632.5,img/planet4_right.png,4,Community 2,NA,TRUE,j,j,NA,NA,NA,2,6,"14,10,5,13,9,8,4,3,7,15,6,12,2,1,11"
15074,commdev-image-keyboard-response,302,666341,learnblock1,672.2000000029802,img/planet3_right.png,3,Community 2,NA,TRUE,j,j,NA,NA,NA,2,6,"14,10,5,13,9,8,4,3,7,15,6,12,2,1,11"
15074,commdev-image-keyboard-response,303,667593,learnblock1,591.6999999992549,img/planet7_right.png,7,Community 2,NA,TRUE,j,j,NA,NA,NA,2,6,"14,10,5,13,9,8,4,3,7,15,6,12,2,1,11"
15074,commdev-image-keyboard-response,304,668846,learnblock1,757.1000000014901,img/planet15_right.png,15,Community 2,NA,TRUE,j,j,NA,NA,NA,2,6,"14,10,5,13,9,8,4,3,7,15,6,12,2,1,11"
15074,commdev-image-keyboard-response,305,670100,learnblock1,468.79999999701977,img/planet7_right.png,7,Community 2,NA,TRUE,j,j,NA,NA,NA,2,6,"14,10,5,13,9,8,4,3,7,15,6,12,2,1,11"
15074,commdev-image-keyboard-response,306,671354,learnblock1,639.8999999985099,img/planet3_right.png,3,Community 2,NA,TRUE,j,j,NA,NA,NA,2,6,"14,10,5,13,9,8,4,3,7,15,6,12,2,1,11"
15074,commdev-image-keyboard-response,307,672608,learnblock1,652.6000000014901,img/planet7_right.png,7,Community 2,NA,TRUE,j,j,NA,NA,NA,2,6,"14,10,5,13,9,8,4,3,7,15,6,12,2,1,11"
15074,commdev-image-keyboard-response,308,673862,learnblock1,561.1000000014901,img/planet8_right.png,8,Community 2,NA,TRUE,j,j,NA,NA,NA,2,6,"14,10,5,13,9,8,4,3,7,15,6,12,2,1,11"
15074,commdev-image-keyboard-response,309,675116,learnblock1,485.4000000022352,img/planet4_left.png,4,Community 2,NA,FALSE,j,f,NA,NA,NA,2,6,"14,10,5,13,9,8,4,3,7,15,6,12,2,1,11"
15074,commdev-image-keyboard-response,310,676370,learnblock1,767.9000000022352,img/planet7_left.png,7,Community 2,NA,TRUE,f,f,NA,NA,NA,2,6,"14,10,5,13,9,8,4,3,7,15,6,12,2,1,11"
15074,commdev-image-keyboard-response,311,677623,learnblock1,594,img/planet4_left.png,4,Community 2,NA,TRUE,f,f,NA,NA,NA,2,6,"14,10,5,13,9,8,4,3,7,15,6,12,2,1,11"
15074,commdev-image-keyboard-response,312,678878,learnblock1,592.6000000014901,img/planet8_right.png,8,Community 2,NA,TRUE,j,j,NA,NA,NA,2,6,"14,10,5,13,9,8,4,3,7,15,6,12,2,1,11"
15074,commdev-image-keyboard-response,313,680132,learnblock1,727.8999999985099,img/planet4_left.png,4,Community 2,NA,TRUE,f,f,NA,NA,NA,2,6,"14,10,5,13,9,8,4,3,7,15,6,12,2,1,11"
15074,commdev-image-keyboard-response,314,681384,learnblock1,644.8999999985099,img/planet7_left.png,7,Community 2,NA,TRUE,f,f,NA,NA,NA,2,6,"14,10,5,13,9,8,4,3,7,15,6,12,2,1,11"
15074,commdev-image-keyboard-response,315,682639,learnblock1,593.9000000022352,img/planet8_right.png,8,Community 2,NA,TRUE,j,j,NA,NA,NA,2,6,"14,10,5,13,9,8,4,3,7,15,6,12,2,1,11"
15074,commdev-image-keyboard-response,316,683893,learnblock1,672.9000000022352,img/planet7_right.png,7,Community 2,NA,TRUE,j,j,NA,NA,NA,2,6,"14,10,5,13,9,8,4,3,7,15,6,12,2,1,11"
15074,commdev-image-keyboard-response,317,685147,learnblock1,663.8999999985099,img/planet15_left.png,15,Community 2,NA,TRUE,f,f,NA,NA,NA,2,6,"14,10,5,13,9,8,4,3,7,15,6,12,2,1,11"
15074,commdev-image-keyboard-response,318,686401,learnblock1,714.6999999992549,img/planet7_left.png,7,Community 2,NA,TRUE,f,f,NA,NA,NA,2,6,"14,10,5,13,9,8,4,3,7,15,6,12,2,1,11"
15074,commdev-image-keyboard-response,319,687655,learnblock1,718.8000000007451,img/planet4_left.png,4,Community 2,NA,TRUE,f,f,NA,NA,NA,2,6,"14,10,5,13,9,8,4,3,7,15,6,12,2,1,11"
15074,commdev-image-keyboard-response,320,688909,learnblock1,590,img/planet8_right.png,8,Community 2,NA,TRUE,j,j,NA,NA,NA,2,6,"14,10,5,13,9,8,4,3,7,15,6,12,2,1,11"
15074,commdev-image-keyboard-response,321,690165,learnblock1,627.5999999977648,img/planet13_right.png,13,Community 1,NA,TRUE,j,j,NA,NA,NA,2,6,"14,10,5,13,9,8,4,3,7,15,6,12,2,1,11"
15074,commdev-image-keyboard-response,322,691417,learnblock1,487.19999999925494,img/planet8_right.png,8,Community 2,NA,TRUE,j,j,NA,NA,NA,2,6,"14,10,5,13,9,8,4,3,7,15,6,12,2,1,11"
15074,commdev-image-keyboard-response,323,692671,learnblock1,620.3000000007451,img/planet15_left.png,15,Community 2,NA,TRUE,f,f,NA,NA,NA,2,6,"14,10,5,13,9,8,4,3,7,15,6,12,2,1,11"
15074,commdev-image-keyboard-response,324,693925,learnblock1,715.8999999985099,img/planet7_right.png,7,Community 2,NA,TRUE,j,j,NA,NA,NA,2,6,"14,10,5,13,9,8,4,3,7,15,6,12,2,1,11"
15074,commdev-image-keyboard-response,325,695179,learnblock1,594.1999999992549,img/planet4_right.png,4,Community 2,NA,TRUE,j,j,NA,NA,NA,2,6,"14,10,5,13,9,8,4,3,7,15,6,12,2,1,11"
15074,commdev-image-keyboard-response,326,696432,learnblock1,562.1999999992549,img/planet3_right.png,3,Community 2,NA,TRUE,j,j,NA,NA,NA,2,6,"14,10,5,13,9,8,4,3,7,15,6,12,2,1,11"
15074,commdev-image-keyboard-response,327,697684,learnblock1,532.6000000014901,img/planet12_right.png,12,Community 3,NA,TRUE,j,j,NA,NA,NA,2,6,"14,10,5,13,9,8,4,3,7,15,6,12,2,1,11"
15074,commdev-image-keyboard-response,328,698940,learnblock1,404.30000000074506,img/planet2_left.png,2,Community 3,NA,FALSE,j,f,NA,NA,NA,2,6,"14,10,5,13,9,8,4,3,7,15,6,12,2,1,11"
15074,commdev-image-keyboard-response,329,700194,learnblock1,864.5,img/planet1_left.png,1,Community 3,NA,TRUE,f,f,NA,NA,NA,2,6,"14,10,5,13,9,8,4,3,7,15,6,12,2,1,11"
15074,commdev-image-keyboard-response,330,701448,learnblock1,826.5,img/planet11_left.png,11,Community 3,NA,TRUE,f,f,NA,NA,NA,2,6,"14,10,5,13,9,8,4,3,7,15,6,12,2,1,11"
15074,commdev-image-keyboard-response,331,702700,learnblock1,743.2999999970198,img/planet12_right.png,12,Community 3,NA,TRUE,j,j,NA,NA,NA,2,6,"14,10,5,13,9,8,4,3,7,15,6,12,2,1,11"
15074,commdev-image-keyboard-response,332,703956,learnblock1,859.3000000007451,img/planet11_right.png,11,Community 3,NA,TRUE,j,j,NA,NA,NA,2,6,"14,10,5,13,9,8,4,3,7,15,6,12,2,1,11"
15074,commdev-image-keyboard-response,333,705210,learnblock1,710.5999999977648,img/planet2_right.png,2,Community 3,NA,TRUE,j,j,NA,NA,NA,2,6,"14,10,5,13,9,8,4,3,7,15,6,12,2,1,11"
15074,commdev-image-keyboard-response,334,706464,learnblock1,809.3999999985099,img/planet6_right.png,6,Community 3,NA,TRUE,j,j,NA,NA,NA,2,6,"14,10,5,13,9,8,4,3,7,15,6,12,2,1,11"
15074,commdev-image-keyboard-response,335,707718,learnblock1,999.8000000007451,img/planet2_right.png,2,Community 3,NA,TRUE,j,j,NA,NA,NA,2,6,"14,10,5,13,9,8,4,3,7,15,6,12,2,1,11"
15074,commdev-image-keyboard-response,336,708972,learnblock1,1190.699999999255,img/planet1_left.png,1,Community 3,NA,TRUE,f,f,NA,NA,NA,2,6,"14,10,5,13,9,8,4,3,7,15,6,12,2,1,11"
15074,commdev-image-keyboard-response,337,710226,learnblock1,665.6999999992549,img/planet6_right.png,6,Community 3,NA,TRUE,j,j,NA,NA,NA,2,6,"14,10,5,13,9,8,4,3,7,15,6,12,2,1,11"
15074,commdev-image-keyboard-response,338,711482,learnblock1,671.1000000014901,img/planet9_right.png,9,Community 1,NA,TRUE,j,j,NA,NA,NA,2,6,"14,10,5,13,9,8,4,3,7,15,6,12,2,1,11"
15074,commdev-image-keyboard-response,339,712733,learnblock1,611.1000000014901,img/planet5_left.png,5,Community 1,NA,TRUE,f,f,NA,NA,NA,2,6,"14,10,5,13,9,8,4,3,7,15,6,12,2,1,11"
15074,commdev-image-keyboard-response,340,713985,learnblock1,626.1999999992549,img/planet13_right.png,13,Community 1,NA,TRUE,j,j,NA,NA,NA,2,6,"14,10,5,13,9,8,4,3,7,15,6,12,2,1,11"
15074,commdev-image-keyboard-response,341,715241,learnblock1,544.6999999992549,img/planet5_right.png,5,Community 1,NA,TRUE,j,j,NA,NA,NA,2,6,"14,10,5,13,9,8,4,3,7,15,6,12,2,1,11"
15074,commdev-image-keyboard-response,342,716495,learnblock1,523.6999999992549,img/planet10_left.png,10,Community 1,NA,TRUE,f,f,NA,NA,NA,2,6,"14,10,5,13,9,8,4,3,7,15,6,12,2,1,11"
15074,commdev-image-keyboard-response,343,717747,learnblock1,519.3000000007451,img/planet13_right.png,13,Community 1,NA,TRUE,j,j,NA,NA,NA,2,6,"14,10,5,13,9,8,4,3,7,15,6,12,2,1,11"
15074,commdev-image-keyboard-response,344,719003,learnblock1,617.6999999992549,img/planet5_left.png,5,Community 1,NA,TRUE,f,f,NA,NA,NA,2,6,"14,10,5,13,9,8,4,3,7,15,6,12,2,1,11"
15074,commdev-image-keyboard-response,345,720256,learnblock1,566.9000000022352,img/planet10_right.png,10,Community 1,NA,TRUE,j,j,NA,NA,NA,2,6,"14,10,5,13,9,8,4,3,7,15,6,12,2,1,11"
15074,commdev-image-keyboard-response,346,721510,learnblock1,588.5,img/planet14_right.png,14,Community 1,NA,TRUE,j,j,NA,NA,NA,2,6,"14,10,5,13,9,8,4,3,7,15,6,12,2,1,11"
15074,commdev-image-keyboard-response,347,722761,learnblock1,466.69999999925494,img/planet5_right.png,5,Community 1,NA,TRUE,j,j,NA,NA,NA,2,6,"14,10,5,13,9,8,4,3,7,15,6,12,2,1,11"
15074,commdev-image-keyboard-response,351,7994445,learnblock2,731.8000000007451,img/planet4_right.png,4,Community 2,NA,TRUE,j,j,NA,NA,NA,2,6,"14,10,5,13,9,8,4,3,7,15,6,12,2,1,11"
15074,commdev-image-keyboard-response,352,7995701,learnblock2,879,img/planet15_right.png,15,Community 2,NA,TRUE,j,j,NA,NA,NA,2,6,"14,10,5,13,9,8,4,3,7,15,6,12,2,1,11"
15074,commdev-image-keyboard-response,353,7996954,learnblock2,606.9000000022352,img/planet8_left.png,8,Community 2,NA,TRUE,f,f,NA,NA,NA,2,6,"14,10,5,13,9,8,4,3,7,15,6,12,2,1,11"
15074,commdev-image-keyboard-response,354,7998210,learnblock2,452.8999999985099,img/planet7_right.png,7,Community 2,NA,TRUE,j,j,NA,NA,NA,2,6,"14,10,5,13,9,8,4,3,7,15,6,12,2,1,11"
15074,commdev-image-keyboard-response,355,7999462,learnblock2,497.1000000014901,img/planet8_left.png,8,Community 2,NA,FALSE,j,f,NA,NA,NA,2,6,"14,10,5,13,9,8,4,3,7,15,6,12,2,1,11"
15074,commdev-image-keyboard-response,356,8000717,learnblock2,644,img/planet15_left.png,15,Community 2,NA,TRUE,f,f,NA,NA,NA,2,6,"14,10,5,13,9,8,4,3,7,15,6,12,2,1,11"
15074,commdev-image-keyboard-response,357,8001970,learnblock2,564.1000000014901,img/planet3_right.png,3,Community 2,NA,TRUE,j,j,NA,NA,NA,2,6,"14,10,5,13,9,8,4,3,7,15,6,12,2,1,11"
15074,commdev-image-keyboard-response,358,8003226,learnblock2,584.6999999992549,img/planet4_left.png,4,Community 2,NA,TRUE,f,f,NA,NA,NA,2,6,"14,10,5,13,9,8,4,3,7,15,6,12,2,1,11"
15074,commdev-image-keyboard-response,359,8004479,learnblock2,577.6000000014901,img/planet7_left.png,7,Community 2,NA,TRUE,f,f,NA,NA,NA,2,6,"14,10,5,13,9,8,4,3,7,15,6,12,2,1,11"
15074,commdev-image-keyboard-response,360,8005734,learnblock2,563.6000000014901,img/planet8_right.png,8,Community 2,NA,TRUE,j,j,NA,NA,NA,2,6,"14,10,5,13,9,8,4,3,7,15,6,12,2,1,11"
15074,commdev-image-keyboard-response,361,8006985,learnblock2,526.3000000007451,img/planet4_left.png,4,Community 2,NA,TRUE,f,f,NA,NA,NA,2,6,"14,10,5,13,9,8,4,3,7,15,6,12,2,1,11"
15074,commdev-image-keyboard-response,362,8008237,learnblock2,586.5,img/planet8_right.png,8,Community 2,NA,TRUE,j,j,NA,NA,NA,2,6,"14,10,5,13,9,8,4,3,7,15,6,12,2,1,11"
15074,commdev-image-keyboard-response,363,8009489,learnblock2,472.80000000074506,img/planet13_right.png,13,Community 1,NA,TRUE,j,j,NA,NA,NA,2,6,"14,10,5,13,9,8,4,3,7,15,6,12,2,1,11"
15074,commdev-image-keyboard-response,364,8010742,learnblock2,509.19999999925494,img/planet8_right.png,8,Community 2,NA,TRUE,j,j,NA,NA,NA,2,6,"14,10,5,13,9,8,4,3,7,15,6,12,2,1,11"
15074,commdev-image-keyboard-response,365,8011995,learnblock2,531.7000000029802,img/planet7_left.png,7,Community 2,NA,TRUE,f,f,NA,NA,NA,2,6,"14,10,5,13,9,8,4,3,7,15,6,12,2,1,11"
15074,commdev-image-keyboard-response,366,8013249,learnblock2,586.7999999970198,img/planet4_right.png,4,Community 2,NA,TRUE,j,j,NA,NA,NA,2,6,"14,10,5,13,9,8,4,3,7,15,6,12,2,1,11"
15074,commdev-image-keyboard-response,367,8014500,learnblock2,520.5999999977648,img/planet7_left.png,7,Community 2,NA,TRUE,f,f,NA,NA,NA,2,6,"14,10,5,13,9,8,4,3,7,15,6,12,2,1,11"
15074,commdev-image-keyboard-response,368,8015754,learnblock2,472.6000000014901,img/planet4_right.png,4,Community 2,NA,TRUE,j,j,NA,NA,NA,2,6,"14,10,5,13,9,8,4,3,7,15,6,12,2,1,11"
15074,commdev-image-keyboard-response,369,8017007,learnblock2,395.8999999985099,img/planet7_left.png,7,Community 2,NA,TRUE,f,f,NA,NA,NA,2,6,"14,10,5,13,9,8,4,3,7,15,6,12,2,1,11"
15074,commdev-image-keyboard-response,370,8018261,learnblock2,564.1000000014901,img/planet4_left.png,4,Community 2,NA,TRUE,f,f,NA,NA,NA,2,6,"14,10,5,13,9,8,4,3,7,15,6,12,2,1,11"
15074,commdev-image-keyboard-response,371,8019513,learnblock2,515.3999999985099,img/planet7_left.png,7,Community 2,NA,TRUE,f,f,NA,NA,NA,2,6,"14,10,5,13,9,8,4,3,7,15,6,12,2,1,11"
15074,commdev-image-keyboard-response,372,8020764,learnblock2,376.80000000074506,img/planet15_right.png,15,Community 2,NA,FALSE,f,j,NA,NA,NA,2,6,"14,10,5,13,9,8,4,3,7,15,6,12,2,1,11"
15074,commdev-image-keyboard-response,373,8022018,learnblock2,570,img/planet4_right.png,4,Community 2,NA,FALSE,f,j,NA,NA,NA,2,6,"14,10,5,13,9,8,4,3,7,15,6,12,2,1,11"
15074,commdev-image-keyboard-response,374,8023271,learnblock2,655.3000000007451,img/planet3_left.png,3,Community 2,NA,TRUE,f,f,NA,NA,NA,2,6,"14,10,5,13,9,8,4,3,7,15,6,12,2,1,11"
15074,commdev-image-keyboard-response,375,8024522,learnblock2,486.1000000014901,img/planet7_left.png,7,Community 2,NA,TRUE,f,f,NA,NA,NA,2,6,"14,10,5,13,9,8,4,3,7,15,6,12,2,1,11"
15074,commdev-image-keyboard-response,376,8025775,learnblock2,642.3000000007451,img/planet3_left.png,3,Community 2,NA,TRUE,f,f,NA,NA,NA,2,6,"14,10,5,13,9,8,4,3,7,15,6,12,2,1,11"
15074,commdev-image-keyboard-response,377,8027026,learnblock2,568.0999999977648,img/planet15_right.png,15,Community 2,NA,TRUE,j,j,NA,NA,NA,2,6,"14,10,5,13,9,8,4,3,7,15,6,12,2,1,11"
15074,commdev-image-keyboard-response,378,8028279,learnblock2,608.5,img/planet3_left.png,3,Community 2,NA,TRUE,f,f,NA,NA,NA,2,6,"14,10,5,13,9,8,4,3,7,15,6,12,2,1,11"
15074,commdev-image-keyboard-response,379,8029534,learnblock2,479.69999999925494,img/planet12_left.png,12,Community 3,NA,TRUE,f,f,NA,NA,NA,2,6,"14,10,5,13,9,8,4,3,7,15,6,12,2,1,11"
15074,commdev-image-keyboard-response,380,8030787,learnblock2,514.6000000014901,img/planet2_left.png,2,Community 3,NA,TRUE,f,f,NA,NA,NA,2,6,"14,10,5,13,9,8,4,3,7,15,6,12,2,1,11"
15074,commdev-image-keyboard-response,381,8032040,learnblock2,552.8000000007451,img/planet1_left.png,1,Community 3,NA,TRUE,f,f,NA,NA,NA,2,6,"14,10,5,13,9,8,4,3,7,15,6,12,2,1,11"
15074,commdev-image-keyboard-response,382,8033295,learnblock2,525.5,img/planet2_right.png,2,Community 3,NA,TRUE,j,j,NA,NA,NA,2,6,"14,10,5,13,9,8,4,3,7,15,6,12,2,1,11"
15074,commdev-image-keyboard-response,383,8034547,learnblock2,512.5,img/planet12_right.png,12,Community 3,NA,TRUE,j,j,NA,NA,NA,2,6,"14,10,5,13,9,8,4,3,7,15,6,12,2,1,11"
15074,commdev-image-keyboard-response,384,8035803,learnblock2,496.0999999977648,img/planet2_left.png,2,Community 3,NA,TRUE,f,f,NA,NA,NA,2,6,"14,10,5,13,9,8,4,3,7,15,6,12,2,1,11"
15074,commdev-image-keyboard-response,385,8037056,learnblock2,664.5,img/planet11_left.png,11,Community 3,NA,TRUE,f,f,NA,NA,NA,2,6,"14,10,5,13,9,8,4,3,7,15,6,12,2,1,11"
15074,commdev-image-keyboard-response,386,8038307,learnblock2,501.6000000014901,img/planet1_right.png,1,Community 3,NA,TRUE,j,j,NA,NA,NA,2,6,"14,10,5,13,9,8,4,3,7,15,6,12,2,1,11"
15074,commdev-image-keyboard-response,387,8039563,learnblock2,392.30000000074506,img/planet11_right.png,11,Community 3,NA,FALSE,f,j,NA,NA,NA,2,6,"14,10,5,13,9,8,4,3,7,15,6,12,2,1,11"
15074,commdev-image-keyboard-response,388,8040814,learnblock2,471.8999999985099,img/planet2_left.png,2,Community 3,NA,TRUE,f,f,NA,NA,NA,2,6,"14,10,5,13,9,8,4,3,7,15,6,12,2,1,11"
15074,commdev-image-keyboard-response,389,8042066,learnblock2,634.9000000022352,img/planet6_left.png,6,Community 3,NA,TRUE,f,f,NA,NA,NA,2,6,"14,10,5,13,9,8,4,3,7,15,6,12,2,1,11"
15074,commdev-image-keyboard-response,390,8043320,learnblock2,494.1000000014901,img/planet1_left.png,1,Community 3,NA,TRUE,f,f,NA,NA,NA,2,6,"14,10,5,13,9,8,4,3,7,15,6,12,2,1,11"
15074,commdev-image-keyboard-response,391,8044571,learnblock2,617.2999999970198,img/planet6_left.png,6,Community 3,NA,TRUE,f,f,NA,NA,NA,2,6,"14,10,5,13,9,8,4,3,7,15,6,12,2,1,11"
15074,commdev-image-keyboard-response,392,8045823,learnblock2,557.7999999970198,img/planet11_left.png,11,Community 3,NA,TRUE,f,f,NA,NA,NA,2,6,"14,10,5,13,9,8,4,3,7,15,6,12,2,1,11"
15074,commdev-image-keyboard-response,393,8047074,learnblock2,557.5,img/planet12_right.png,12,Community 3,NA,TRUE,j,j,NA,NA,NA,2,6,"14,10,5,13,9,8,4,3,7,15,6,12,2,1,11"
15074,commdev-image-keyboard-response,394,8048326,learnblock2,507.5,img/planet2_left.png,2,Community 3,NA,TRUE,f,f,NA,NA,NA,2,6,"14,10,5,13,9,8,4,3,7,15,6,12,2,1,11"
15074,commdev-image-keyboard-response,395,8049578,learnblock2,568,img/planet12_left.png,12,Community 3,NA,TRUE,f,f,NA,NA,NA,2,6,"14,10,5,13,9,8,4,3,7,15,6,12,2,1,11"
15074,commdev-image-keyboard-response,396,8050833,learnblock2,497.9000000022352,img/planet1_right.png,1,Community 3,NA,TRUE,j,j,NA,NA,NA,2,6,"14,10,5,13,9,8,4,3,7,15,6,12,2,1,11"
15074,commdev-image-keyboard-response,397,8052086,learnblock2,543,img/planet11_right.png,11,Community 3,NA,TRUE,j,j,NA,NA,NA,2,6,"14,10,5,13,9,8,4,3,7,15,6,12,2,1,11"
15074,commdev-image-keyboard-response,398,8053338,learnblock2,497,img/planet2_left.png,2,Community 3,NA,TRUE,f,f,NA,NA,NA,2,6,"14,10,5,13,9,8,4,3,7,15,6,12,2,1,11"
15074,commdev-image-keyboard-response,399,8054594,learnblock2,469.19999999925494,img/planet12_right.png,12,Community 3,NA,TRUE,j,j,NA,NA,NA,2,6,"14,10,5,13,9,8,4,3,7,15,6,12,2,1,11"
15074,commdev-image-keyboard-response,400,8055847,learnblock2,578.1000000014901,img/planet2_right.png,2,Community 3,NA,TRUE,j,j,NA,NA,NA,2,6,"14,10,5,13,9,8,4,3,7,15,6,12,2,1,11"
15074,commdev-image-keyboard-response,401,8057101,learnblock2,491.6000000014901,img/planet11_left.png,11,Community 3,NA,TRUE,f,f,NA,NA,NA,2,6,"14,10,5,13,9,8,4,3,7,15,6,12,2,1,11"
15074,commdev-image-keyboard-response,402,8058355,learnblock2,366,img/planet2_right.png,2,Community 3,NA,TRUE,j,j,NA,NA,NA,2,6,"14,10,5,13,9,8,4,3,7,15,6,12,2,1,11"
15074,commdev-image-keyboard-response,403,8059609,learnblock2,495.69999999925494,img/planet12_right.png,12,Community 3,NA,TRUE,j,j,NA,NA,NA,2,6,"14,10,5,13,9,8,4,3,7,15,6,12,2,1,11"
15074,commdev-image-keyboard-response,404,8060863,learnblock2,579.5,img/planet3_left.png,3,Community 2,NA,TRUE,f,f,NA,NA,NA,2,6,"14,10,5,13,9,8,4,3,7,15,6,12,2,1,11"
15074,commdev-image-keyboard-response,405,8062115,learnblock2,599.5,img/planet7_right.png,7,Community 2,NA,TRUE,j,j,NA,NA,NA,2,6,"14,10,5,13,9,8,4,3,7,15,6,12,2,1,11"
15074,commdev-image-keyboard-response,406,8063367,learnblock2,584.6000000014901,img/planet8_right.png,8,Community 2,NA,TRUE,j,j,NA,NA,NA,2,6,"14,10,5,13,9,8,4,3,7,15,6,12,2,1,11"
15074,commdev-image-keyboard-response,407,8064620,learnblock2,490.69999999925494,img/planet4_left.png,4,Community 2,NA,TRUE,f,f,NA,NA,NA,2,6,"14,10,5,13,9,8,4,3,7,15,6,12,2,1,11"
15074,commdev-image-keyboard-response,408,8065873,learnblock2,509.30000000074506,img/planet7_right.png,7,Community 2,NA,TRUE,j,j,NA,NA,NA,2,6,"14,10,5,13,9,8,4,3,7,15,6,12,2,1,11"
15074,commdev-image-keyboard-response,409,8067124,learnblock2,571.8000000007451,img/planet15_left.png,15,Community 2,NA,TRUE,f,f,NA,NA,NA,2,6,"14,10,5,13,9,8,4,3,7,15,6,12,2,1,11"
15074,commdev-image-keyboard-response,410,8068376,learnblock2,555.3000000007451,img/planet7_right.png,7,Community 2,NA,TRUE,j,j,NA,NA,NA,2,6,"14,10,5,13,9,8,4,3,7,15,6,12,2,1,11"
15074,commdev-image-keyboard-response,411,8069629,learnblock2,439.69999999925494,img/planet3_left.png,3,Community 2,NA,TRUE,f,f,NA,NA,NA,2,6,"14,10,5,13,9,8,4,3,7,15,6,12,2,1,11"
15074,commdev-image-keyboard-response,412,8070881,learnblock2,571.8999999985099,img/planet4_right.png,4,Community 2,NA,TRUE,j,j,NA,NA,NA,2,6,"14,10,5,13,9,8,4,3,7,15,6,12,2,1,11"
15074,commdev-image-keyboard-response,413,8072132,learnblock2,541.5,img/planet15_left.png,15,Community 2,NA,TRUE,f,f,NA,NA,NA,2,6,"14,10,5,13,9,8,4,3,7,15,6,12,2,1,11"
15074,commdev-image-keyboard-response,414,8073385,learnblock2,663.3000000007451,img/planet8_left.png,8,Community 2,NA,TRUE,f,f,NA,NA,NA,2,6,"14,10,5,13,9,8,4,3,7,15,6,12,2,1,11"
15074,commdev-image-keyboard-response,415,8074640,learnblock2,438.80000000074506,img/planet15_right.png,15,Community 2,NA,TRUE,j,j,NA,NA,NA,2,6,"14,10,5,13,9,8,4,3,7,15,6,12,2,1,11"
15074,commdev-image-keyboard-response,416,8075896,learnblock2,422.5,img/planet7_left.png,7,Community 2,NA,TRUE,f,f,NA,NA,NA,2,6,"14,10,5,13,9,8,4,3,7,15,6,12,2,1,11"
15074,commdev-image-keyboard-response,417,8077148,learnblock2,469.30000000074506,img/planet4_left.png,4,Community 2,NA,TRUE,f,f,NA,NA,NA,2,6,"14,10,5,13,9,8,4,3,7,15,6,12,2,1,11"
15074,commdev-image-keyboard-response,418,8078401,learnblock2,478.5,img/planet7_left.png,7,Community 2,NA,TRUE,f,f,NA,NA,NA,2,6,"14,10,5,13,9,8,4,3,7,15,6,12,2,1,11"
15074,commdev-image-keyboard-response,419,8079657,learnblock2,536.2000000029802,img/planet15_right.png,15,Community 2,NA,TRUE,j,j,NA,NA,NA,2,6,"14,10,5,13,9,8,4,3,7,15,6,12,2,1,11"
15074,commdev-image-keyboard-response,420,8080908,learnblock2,539.8000000007451,img/planet7_right.png,7,Community 2,NA,FALSE,f,j,NA,NA,NA,2,6,"14,10,5,13,9,8,4,3,7,15,6,12,2,1,11"
15074,commdev-image-keyboard-response,421,8082162,learnblock2,425.69999999925494,img/planet3_left.png,3,Community 2,NA,TRUE,f,f,NA,NA,NA,2,6,"14,10,5,13,9,8,4,3,7,15,6,12,2,1,11"
15074,commdev-image-keyboard-response,422,8083415,learnblock2,504.69999999925494,img/planet7_left.png,7,Community 2,NA,TRUE,f,f,NA,NA,NA,2,6,"14,10,5,13,9,8,4,3,7,15,6,12,2,1,11"
15074,commdev-image-keyboard-response,423,8084665,learnblock2,521,img/planet15_right.png,15,Community 2,NA,TRUE,j,j,NA,NA,NA,2,6,"14,10,5,13,9,8,4,3,7,15,6,12,2,1,11"
15074,commdev-image-keyboard-response,424,8085919,learnblock2,489.8999999985099,img/planet3_right.png,3,Community 2,NA,TRUE,j,j,NA,NA,NA,2,6,"14,10,5,13,9,8,4,3,7,15,6,12,2,1,11"
15074,commdev-image-keyboard-response,425,8087170,learnblock2,543.7999999970198,img/planet4_left.png,4,Community 2,NA,FALSE,j,f,NA,NA,NA,2,6,"14,10,5,13,9,8,4,3,7,15,6,12,2,1,11"
15074,commdev-image-keyboard-response,426,8088422,learnblock2,537.7999999970198,img/planet15_left.png,15,Community 2,NA,TRUE,f,f,NA,NA,NA,2,6,"14,10,5,13,9,8,4,3,7,15,6,12,2,1,11"
15074,commdev-image-keyboard-response,427,8089673,learnblock2,608.1000000014901,img/planet3_left.png,3,Community 2,NA,TRUE,f,f,NA,NA,NA,2,6,"14,10,5,13,9,8,4,3,7,15,6,12,2,1,11"
15074,commdev-image-keyboard-response,428,8090928,learnblock2,476.19999999925494,img/planet7_left.png,7,Community 2,NA,TRUE,f,f,NA,NA,NA,2,6,"14,10,5,13,9,8,4,3,7,15,6,12,2,1,11"
15074,commdev-image-keyboard-response,429,8092179,learnblock2,575.6999999992549,img/planet15_right.png,15,Community 2,NA,TRUE,j,j,NA,NA,NA,2,6,"14,10,5,13,9,8,4,3,7,15,6,12,2,1,11"
15074,commdev-image-keyboard-response,430,8093431,learnblock2,499.30000000074506,img/planet7_right.png,7,Community 2,NA,TRUE,j,j,NA,NA,NA,2,6,"14,10,5,13,9,8,4,3,7,15,6,12,2,1,11"
15074,commdev-image-keyboard-response,431,8094684,learnblock2,453.79999999701977,img/planet4_right.png,4,Community 2,NA,TRUE,j,j,NA,NA,NA,2,6,"14,10,5,13,9,8,4,3,7,15,6,12,2,1,11"
15074,commdev-image-keyboard-response,432,8095938,learnblock2,465.30000000074506,img/planet3_left.png,3,Community 2,NA,TRUE,f,f,NA,NA,NA,2,6,"14,10,5,13,9,8,4,3,7,15,6,12,2,1,11"
15074,commdev-image-keyboard-response,433,8097192,learnblock2,492,img/planet7_right.png,7,Community 2,NA,TRUE,j,j,NA,NA,NA,2,6,"14,10,5,13,9,8,4,3,7,15,6,12,2,1,11"
15074,commdev-image-keyboard-response,434,8098447,learnblock2,523.1999999992549,img/planet3_right.png,3,Community 2,NA,TRUE,j,j,NA,NA,NA,2,6,"14,10,5,13,9,8,4,3,7,15,6,12,2,1,11"
15074,commdev-image-keyboard-response,435,8099699,learnblock2,483.19999999925494,img/planet12_left.png,12,Community 3,NA,TRUE,f,f,NA,NA,NA,2,6,"14,10,5,13,9,8,4,3,7,15,6,12,2,1,11"
15074,commdev-image-keyboard-response,436,8100951,learnblock2,501.5,img/planet1_right.png,1,Community 3,NA,TRUE,j,j,NA,NA,NA,2,6,"14,10,5,13,9,8,4,3,7,15,6,12,2,1,11"
15074,commdev-image-keyboard-response,437,8102203,learnblock2,561.5999999977648,img/planet2_left.png,2,Community 3,NA,TRUE,f,f,NA,NA,NA,2,6,"14,10,5,13,9,8,4,3,7,15,6,12,2,1,11"
15074,commdev-image-keyboard-response,438,8103455,learnblock2,785.8000000007451,img/planet6_left.png,6,Community 3,NA,TRUE,f,f,NA,NA,NA,2,6,"14,10,5,13,9,8,4,3,7,15,6,12,2,1,11"
15074,commdev-image-keyboard-response,439,8104709,learnblock2,610,img/planet11_right.png,11,Community 3,NA,TRUE,j,j,NA,NA,NA,2,6,"14,10,5,13,9,8,4,3,7,15,6,12,2,1,11"
15074,commdev-image-keyboard-response,440,8105965,learnblock2,560.5,img/planet12_right.png,12,Community 3,NA,TRUE,j,j,NA,NA,NA,2,6,"14,10,5,13,9,8,4,3,7,15,6,12,2,1,11"
15074,commdev-image-keyboard-response,441,8107217,learnblock2,491.5999999977648,img/planet2_right.png,2,Community 3,NA,TRUE,j,j,NA,NA,NA,2,6,"14,10,5,13,9,8,4,3,7,15,6,12,2,1,11"
15074,commdev-image-keyboard-response,442,8108469,learnblock2,464.19999999925494,img/planet1_right.png,1,Community 3,NA,TRUE,j,j,NA,NA,NA,2,6,"14,10,5,13,9,8,4,3,7,15,6,12,2,1,11"
15074,commdev-image-keyboard-response,443,8109720,learnblock2,577.1999999992549,img/planet6_left.png,6,Community 3,NA,TRUE,f,f,NA,NA,NA,2,6,"14,10,5,13,9,8,4,3,7,15,6,12,2,1,11"
15074,commdev-image-keyboard-response,444,8110971,learnblock2,537.5,img/planet2_right.png,2,Community 3,NA,TRUE,j,j,NA,NA,NA,2,6,"14,10,5,13,9,8,4,3,7,15,6,12,2,1,11"
15074,commdev-image-keyboard-response,445,8112227,learnblock2,506.8999999985099,img/planet6_left.png,6,Community 3,NA,TRUE,f,f,NA,NA,NA,2,6,"14,10,5,13,9,8,4,3,7,15,6,12,2,1,11"
15074,commdev-image-keyboard-response,446,8113479,learnblock2,469.5,img/planet2_left.png,2,Community 3,NA,TRUE,f,f,NA,NA,NA,2,6,"14,10,5,13,9,8,4,3,7,15,6,12,2,1,11"
15074,commdev-image-keyboard-response,447,8114731,learnblock2,460.5,img/planet12_left.png,12,Community 3,NA,TRUE,f,f,NA,NA,NA,2,6,"14,10,5,13,9,8,4,3,7,15,6,12,2,1,11"
15074,commdev-image-keyboard-response,448,8115987,learnblock2,446.5,img/planet11_left.png,11,Community 3,NA,TRUE,f,f,NA,NA,NA,2,6,"14,10,5,13,9,8,4,3,7,15,6,12,2,1,11"
15074,commdev-image-keyboard-response,449,8117240,learnblock2,379.4000000022352,img/planet2_right.png,2,Community 3,NA,FALSE,f,j,NA,NA,NA,2,6,"14,10,5,13,9,8,4,3,7,15,6,12,2,1,11"
15074,commdev-image-keyboard-response,450,8118495,learnblock2,534.1999999992549,img/planet1_left.png,1,Community 3,NA,TRUE,f,f,NA,NA,NA,2,6,"14,10,5,13,9,8,4,3,7,15,6,12,2,1,11"
15074,commdev-image-keyboard-response,451,8119746,learnblock2,682.5999999977648,img/planet11_right.png,11,Community 3,NA,TRUE,j,j,NA,NA,NA,2,6,"14,10,5,13,9,8,4,3,7,15,6,12,2,1,11"
15074,commdev-image-keyboard-response,452,8120999,learnblock2,474.4000000022352,img/planet1_right.png,1,Community 3,NA,TRUE,j,j,NA,NA,NA,2,6,"14,10,5,13,9,8,4,3,7,15,6,12,2,1,11"
15074,commdev-image-keyboard-response,453,8122252,learnblock2,632.8000000007451,img/planet11_left.png,11,Community 3,NA,TRUE,f,f,NA,NA,NA,2,6,"14,10,5,13,9,8,4,3,7,15,6,12,2,1,11"
15074,commdev-image-keyboard-response,454,8123507,learnblock2,550.6999999992549,img/planet12_left.png,12,Community 3,NA,TRUE,f,f,NA,NA,NA,2,6,"14,10,5,13,9,8,4,3,7,15,6,12,2,1,11"
15074,commdev-image-keyboard-response,455,8124759,learnblock2,550.8999999985099,img/planet1_left.png,1,Community 3,NA,TRUE,f,f,NA,NA,NA,2,6,"14,10,5,13,9,8,4,3,7,15,6,12,2,1,11"
15074,commdev-image-keyboard-response,456,8126015,learnblock2,469.3999999985099,img/planet6_right.png,6,Community 3,NA,TRUE,j,j,NA,NA,NA,2,6,"14,10,5,13,9,8,4,3,7,15,6,12,2,1,11"
15074,commdev-image-keyboard-response,457,8127267,learnblock2,562.8999999985099,img/planet1_left.png,1,Community 3,NA,TRUE,f,f,NA,NA,NA,2,6,"14,10,5,13,9,8,4,3,7,15,6,12,2,1,11"
15074,commdev-image-keyboard-response,458,8128519,learnblock2,527.1000000014901,img/planet2_left.png,2,Community 3,NA,TRUE,f,f,NA,NA,NA,2,6,"14,10,5,13,9,8,4,3,7,15,6,12,2,1,11"
15074,commdev-image-keyboard-response,459,8129771,learnblock2,503.70000000298023,img/planet1_left.png,1,Community 3,NA,TRUE,f,f,NA,NA,NA,2,6,"14,10,5,13,9,8,4,3,7,15,6,12,2,1,11"
15074,commdev-image-keyboard-response,460,8131025,learnblock2,543.7000000029802,img/planet6_left.png,6,Community 3,NA,TRUE,f,f,NA,NA,NA,2,6,"14,10,5,13,9,8,4,3,7,15,6,12,2,1,11"
15074,commdev-image-keyboard-response,461,8132278,learnblock2,678.8000000007451,img/planet1_left.png,1,Community 3,NA,TRUE,f,f,NA,NA,NA,2,6,"14,10,5,13,9,8,4,3,7,15,6,12,2,1,11"
15074,commdev-image-keyboard-response,462,8133534,learnblock2,586.6999999992549,img/planet2_right.png,2,Community 3,NA,TRUE,j,j,NA,NA,NA,2,6,"14,10,5,13,9,8,4,3,7,15,6,12,2,1,11"
15074,commdev-image-keyboard-response,463,8134785,learnblock2,540.1999999992549,img/planet12_right.png,12,Community 3,NA,TRUE,j,j,NA,NA,NA,2,6,"14,10,5,13,9,8,4,3,7,15,6,12,2,1,11"
15074,commdev-image-keyboard-response,464,8136040,learnblock2,569.4000000022352,img/planet1_right.png,1,Community 3,NA,TRUE,j,j,NA,NA,NA,2,6,"14,10,5,13,9,8,4,3,7,15,6,12,2,1,11"
15074,commdev-image-keyboard-response,465,8137295,learnblock2,565.1999999992549,img/planet11_right.png,11,Community 3,NA,TRUE,j,j,NA,NA,NA,2,6,"14,10,5,13,9,8,4,3,7,15,6,12,2,1,11"
15074,commdev-image-keyboard-response,466,8138548,learnblock2,582.8999999985099,img/planet6_right.png,6,Community 3,NA,TRUE,j,j,NA,NA,NA,2,6,"14,10,5,13,9,8,4,3,7,15,6,12,2,1,11"
15074,commdev-image-keyboard-response,467,8139801,learnblock2,479.0999999977648,img/planet1_right.png,1,Community 3,NA,TRUE,j,j,NA,NA,NA,2,6,"14,10,5,13,9,8,4,3,7,15,6,12,2,1,11"
15074,commdev-image-keyboard-response,468,8141055,learnblock2,336,img/planet2_right.png,2,Community 3,NA,TRUE,j,j,NA,NA,NA,2,6,"14,10,5,13,9,8,4,3,7,15,6,12,2,1,11"
15074,commdev-image-keyboard-response,469,8142311,learnblock2,302.29999999701977,img/planet11_right.png,11,Community 3,NA,TRUE,j,j,NA,NA,NA,2,6,"14,10,5,13,9,8,4,3,7,15,6,12,2,1,11"
15074,commdev-image-keyboard-response,470,8143565,learnblock2,561.0999999977648,img/planet12_right.png,12,Community 3,NA,TRUE,j,j,NA,NA,NA,2,6,"14,10,5,13,9,8,4,3,7,15,6,12,2,1,11"
15074,commdev-image-keyboard-response,471,8144818,learnblock2,553,img/planet3_right.png,3,Community 2,NA,TRUE,j,j,NA,NA,NA,2,6,"14,10,5,13,9,8,4,3,7,15,6,12,2,1,11"
15074,commdev-image-keyboard-response,472,8146072,learnblock2,419.1000000014901,img/planet12_right.png,12,Community 3,NA,TRUE,j,j,NA,NA,NA,2,6,"14,10,5,13,9,8,4,3,7,15,6,12,2,1,11"
15074,commdev-image-keyboard-response,473,8147326,learnblock2,337.69999999925494,img/planet3_right.png,3,Community 2,NA,TRUE,j,j,NA,NA,NA,2,6,"14,10,5,13,9,8,4,3,7,15,6,12,2,1,11"
15074,commdev-image-keyboard-response,474,8148579,learnblock2,578.9000000022352,img/planet15_right.png,15,Community 2,NA,TRUE,j,j,NA,NA,NA,2,6,"14,10,5,13,9,8,4,3,7,15,6,12,2,1,11"
15074,commdev-image-keyboard-response,475,8149834,learnblock2,548.6000000014901,img/planet7_right.png,7,Community 2,NA,TRUE,j,j,NA,NA,NA,2,6,"14,10,5,13,9,8,4,3,7,15,6,12,2,1,11"
15074,commdev-image-keyboard-response,476,8151086,learnblock2,625.5,img/planet3_right.png,3,Community 2,NA,TRUE,j,j,NA,NA,NA,2,6,"14,10,5,13,9,8,4,3,7,15,6,12,2,1,11"
15074,commdev-image-keyboard-response,477,8152338,learnblock2,439.80000000074506,img/planet12_left.png,12,Community 3,NA,FALSE,j,f,NA,NA,NA,2,6,"14,10,5,13,9,8,4,3,7,15,6,12,2,1,11"
15074,commdev-image-keyboard-response,478,8153589,learnblock2,441.19999999925494,img/planet2_left.png,2,Community 3,NA,TRUE,f,f,NA,NA,NA,2,6,"14,10,5,13,9,8,4,3,7,15,6,12,2,1,11"
15074,commdev-image-keyboard-response,479,8154842,learnblock2,539.6000000014901,img/planet12_left.png,12,Community 3,NA,TRUE,f,f,NA,NA,NA,2,6,"14,10,5,13,9,8,4,3,7,15,6,12,2,1,11"
15074,commdev-image-keyboard-response,480,8156096,learnblock2,504,img/planet2_left.png,2,Community 3,NA,TRUE,f,f,NA,NA,NA,2,6,"14,10,5,13,9,8,4,3,7,15,6,12,2,1,11"
15074,commdev-image-keyboard-response,481,8157348,learnblock2,483.30000000074506,img/planet11_left.png,11,Community 3,NA,TRUE,f,f,NA,NA,NA,2,6,"14,10,5,13,9,8,4,3,7,15,6,12,2,1,11"
15074,commdev-image-keyboard-response,482,8158600,learnblock2,682.1999999992549,img/planet6_right.png,6,Community 3,NA,TRUE,j,j,NA,NA,NA,2,6,"14,10,5,13,9,8,4,3,7,15,6,12,2,1,11"
15074,commdev-image-keyboard-response,483,8159856,learnblock2,797.8000000007451,img/planet2_right.png,2,Community 3,NA,TRUE,j,j,NA,NA,NA,2,6,"14,10,5,13,9,8,4,3,7,15,6,12,2,1,11"
15074,commdev-image-keyboard-response,484,8161110,learnblock2,581.9000000022352,img/planet11_left.png,11,Community 3,NA,TRUE,f,f,NA,NA,NA,2,6,"14,10,5,13,9,8,4,3,7,15,6,12,2,1,11"
15074,commdev-image-keyboard-response,485,8162365,learnblock2,532.8000000007451,img/planet12_right.png,12,Community 3,NA,TRUE,j,j,NA,NA,NA,2,6,"14,10,5,13,9,8,4,3,7,15,6,12,2,1,11"
15074,commdev-image-keyboard-response,486,8163619,learnblock2,677.3000000007451,img/planet3_right.png,3,Community 2,NA,TRUE,j,j,NA,NA,NA,2,6,"14,10,5,13,9,8,4,3,7,15,6,12,2,1,11"
15074,commdev-image-keyboard-response,487,8164871,learnblock2,764.7000000029802,img/planet7_right.png,7,Community 2,NA,TRUE,j,j,NA,NA,NA,2,6,"14,10,5,13,9,8,4,3,7,15,6,12,2,1,11"
15074,commdev-image-keyboard-response,488,8166127,learnblock2,610.3999999985099,img/planet8_right.png,8,Community 2,NA,TRUE,j,j,NA,NA,NA,2,6,"14,10,5,13,9,8,4,3,7,15,6,12,2,1,11"
15074,commdev-image-keyboard-response,489,8167381,learnblock2,546.5,img/planet13_right.png,13,Community 1,NA,TRUE,j,j,NA,NA,NA,2,6,"14,10,5,13,9,8,4,3,7,15,6,12,2,1,11"
15074,commdev-image-keyboard-response,490,8168636,learnblock2,486.4000000022352,img/planet8_left.png,8,Community 2,NA,FALSE,j,f,NA,NA,NA,2,6,"14,10,5,13,9,8,4,3,7,15,6,12,2,1,11"
15074,commdev-image-keyboard-response,491,8169888,learnblock2,688.6999999992549,img/planet4_left.png,4,Community 2,NA,TRUE,f,f,NA,NA,NA,2,6,"14,10,5,13,9,8,4,3,7,15,6,12,2,1,11"
15074,commdev-image-keyboard-response,492,8171142,learnblock2,521.6999999992549,img/planet15_left.png,15,Community 2,NA,TRUE,f,f,NA,NA,NA,2,6,"14,10,5,13,9,8,4,3,7,15,6,12,2,1,11"
15074,commdev-image-keyboard-response,493,8172395,learnblock2,479.69999999925494,img/planet7_left.png,7,Community 2,NA,TRUE,f,f,NA,NA,NA,2,6,"14,10,5,13,9,8,4,3,7,15,6,12,2,1,11"
15074,commdev-image-keyboard-response,494,8173647,learnblock2,474.6000000014901,img/planet4_right.png,4,Community 2,NA,TRUE,j,j,NA,NA,NA,2,6,"14,10,5,13,9,8,4,3,7,15,6,12,2,1,11"
15074,commdev-image-keyboard-response,495,8174901,learnblock2,508.69999999925494,img/planet8_right.png,8,Community 2,NA,TRUE,j,j,NA,NA,NA,2,6,"14,10,5,13,9,8,4,3,7,15,6,12,2,1,11"
15074,commdev-image-keyboard-response,496,8176154,learnblock2,641.3999999985099,img/planet15_left.png,15,Community 2,NA,TRUE,f,f,NA,NA,NA,2,6,"14,10,5,13,9,8,4,3,7,15,6,12,2,1,11"
15074,commdev-image-keyboard-response,497,8177407,learnblock2,489.80000000074506,img/planet4_right.png,4,Community 2,NA,TRUE,j,j,NA,NA,NA,2,6,"14,10,5,13,9,8,4,3,7,15,6,12,2,1,11"
15074,commdev-image-keyboard-response,498,8178660,learnblock2,551,img/planet3_left.png,3,Community 2,NA,TRUE,f,f,NA,NA,NA,2,6,"14,10,5,13,9,8,4,3,7,15,6,12,2,1,11"
15074,commdev-image-keyboard-response,499,8179912,learnblock2,584.5,img/planet7_left.png,7,Community 2,NA,TRUE,f,f,NA,NA,NA,2,6,"14,10,5,13,9,8,4,3,7,15,6,12,2,1,11"
15074,commdev-image-keyboard-response,500,8181164,learnblock2,565.4000000022352,img/planet3_left.png,3,Community 2,NA,TRUE,f,f,NA,NA,NA,2,6,"14,10,5,13,9,8,4,3,7,15,6,12,2,1,11"
15074,commdev-image-keyboard-response,501,8182415,learnblock2,509.5,img/planet15_right.png,15,Community 2,NA,TRUE,j,j,NA,NA,NA,2,6,"14,10,5,13,9,8,4,3,7,15,6,12,2,1,11"
15074,commdev-image-keyboard-response,502,8183666,learnblock2,585.1000000014901,img/planet3_right.png,3,Community 2,NA,TRUE,j,j,NA,NA,NA,2,6,"14,10,5,13,9,8,4,3,7,15,6,12,2,1,11"
15074,commdev-image-keyboard-response,503,8184922,learnblock2,417.6000000014901,img/planet15_left.png,15,Community 2,NA,FALSE,j,f,NA,NA,NA,2,6,"14,10,5,13,9,8,4,3,7,15,6,12,2,1,11"
15074,commdev-image-keyboard-response,504,8186174,learnblock2,1167,img/planet4_right.png,4,Community 2,NA,TRUE,j,j,NA,NA,NA,2,6,"14,10,5,13,9,8,4,3,7,15,6,12,2,1,11"
15074,commdev-image-keyboard-response,505,8187429,learnblock2,884.1000000014901,img/planet3_right.png,3,Community 2,NA,TRUE,j,j,NA,NA,NA,2,6,"14,10,5,13,9,8,4,3,7,15,6,12,2,1,11"
15074,commdev-image-keyboard-response,506,8188681,learnblock2,646.6000000014901,img/planet7_left.png,7,Community 2,NA,TRUE,f,f,NA,NA,NA,2,6,"14,10,5,13,9,8,4,3,7,15,6,12,2,1,11"
15074,commdev-image-keyboard-response,507,8189937,learnblock2,652.1999999992549,img/planet15_right.png,15,Community 2,NA,TRUE,j,j,NA,NA,NA,2,6,"14,10,5,13,9,8,4,3,7,15,6,12,2,1,11"
15074,commdev-image-keyboard-response,508,8191191,learnblock2,483.3999999985099,img/planet4_right.png,4,Community 2,NA,TRUE,j,j,NA,NA,NA,2,6,"14,10,5,13,9,8,4,3,7,15,6,12,2,1,11"
15074,commdev-image-keyboard-response,509,8192445,learnblock2,542.1000000014901,img/planet8_right.png,8,Community 2,NA,TRUE,j,j,NA,NA,NA,2,6,"14,10,5,13,9,8,4,3,7,15,6,12,2,1,11"
15074,commdev-image-keyboard-response,510,8193699,learnblock2,479.0999999977648,img/planet7_right.png,7,Community 2,NA,TRUE,j,j,NA,NA,NA,2,6,"14,10,5,13,9,8,4,3,7,15,6,12,2,1,11"
15074,commdev-image-keyboard-response,511,8194953,learnblock2,424.5999999977648,img/planet15_left.png,15,Community 2,NA,FALSE,j,f,NA,NA,NA,2,6,"14,10,5,13,9,8,4,3,7,15,6,12,2,1,11"
15074,commdev-image-keyboard-response,512,8196205,learnblock2,679.1000000014901,img/planet7_left.png,7,Community 2,NA,TRUE,f,f,NA,NA,NA,2,6,"14,10,5,13,9,8,4,3,7,15,6,12,2,1,11"
15074,commdev-image-keyboard-response,513,8197460,learnblock2,847.2000000029802,img/planet3_left.png,3,Community 2,NA,TRUE,f,f,NA,NA,NA,2,6,"14,10,5,13,9,8,4,3,7,15,6,12,2,1,11"
15074,commdev-image-keyboard-response,514,8198714,learnblock2,719.3999999985099,img/planet4_left.png,4,Community 2,NA,TRUE,f,f,NA,NA,NA,2,6,"14,10,5,13,9,8,4,3,7,15,6,12,2,1,11"
15074,commdev-image-keyboard-response,515,8199965,learnblock2,526,img/planet3_left.png,3,Community 2,NA,TRUE,f,f,NA,NA,NA,2,6,"14,10,5,13,9,8,4,3,7,15,6,12,2,1,11"
15074,commdev-image-keyboard-response,516,8201216,learnblock2,649.8000000007451,img/planet7_right.png,7,Community 2,NA,TRUE,j,j,NA,NA,NA,2,6,"14,10,5,13,9,8,4,3,7,15,6,12,2,1,11"
15074,commdev-image-keyboard-response,517,8202468,learnblock2,533.4000000022352,img/planet4_left.png,4,Community 2,NA,TRUE,f,f,NA,NA,NA,2,6,"14,10,5,13,9,8,4,3,7,15,6,12,2,1,11"
15074,commdev-image-keyboard-response,518,8203719,learnblock2,642.5,img/planet3_left.png,3,Community 2,NA,TRUE,f,f,NA,NA,NA,2,6,"14,10,5,13,9,8,4,3,7,15,6,12,2,1,11"
15074,commdev-image-keyboard-response,519,8204971,learnblock2,513,img/planet4_left.png,4,Community 2,NA,TRUE,f,f,NA,NA,NA,2,6,"14,10,5,13,9,8,4,3,7,15,6,12,2,1,11"
15074,commdev-image-keyboard-response,520,8206225,learnblock2,537.8999999985099,img/planet15_left.png,15,Community 2,NA,TRUE,f,f,NA,NA,NA,2,6,"14,10,5,13,9,8,4,3,7,15,6,12,2,1,11"
15074,commdev-image-keyboard-response,521,8207476,learnblock2,652.3999999985099,img/planet8_left.png,8,Community 2,NA,TRUE,f,f,NA,NA,NA,2,6,"14,10,5,13,9,8,4,3,7,15,6,12,2,1,11"
15074,commdev-image-keyboard-response,522,8208729,learnblock2,558.8999999985099,img/planet13_left.png,13,Community 1,NA,TRUE,f,f,NA,NA,NA,2,6,"14,10,5,13,9,8,4,3,7,15,6,12,2,1,11"
15074,commdev-image-keyboard-response,523,8209982,learnblock2,615.3000000007451,img/planet5_right.png,5,Community 1,NA,TRUE,j,j,NA,NA,NA,2,6,"14,10,5,13,9,8,4,3,7,15,6,12,2,1,11"
15074,commdev-image-keyboard-response,524,8211235,learnblock2,455.0999999977648,img/planet10_right.png,10,Community 1,NA,TRUE,j,j,NA,NA,NA,2,6,"14,10,5,13,9,8,4,3,7,15,6,12,2,1,11"
15074,commdev-image-keyboard-response,525,8212489,learnblock2,518,img/planet13_right.png,13,Community 1,NA,TRUE,j,j,NA,NA,NA,2,6,"14,10,5,13,9,8,4,3,7,15,6,12,2,1,11"
15074,commdev-image-keyboard-response,526,8213740,learnblock2,647.2999999970198,img/planet5_left.png,5,Community 1,NA,TRUE,f,f,NA,NA,NA,2,6,"14,10,5,13,9,8,4,3,7,15,6,12,2,1,11"
15074,commdev-image-keyboard-response,527,8214991,learnblock2,466.5,img/planet10_left.png,10,Community 1,NA,TRUE,f,f,NA,NA,NA,2,6,"14,10,5,13,9,8,4,3,7,15,6,12,2,1,11"
15074,commdev-image-keyboard-response,528,8216243,learnblock2,528.3999999985099,img/planet14_left.png,14,Community 1,NA,TRUE,f,f,NA,NA,NA,2,6,"14,10,5,13,9,8,4,3,7,15,6,12,2,1,11"
15074,commdev-image-keyboard-response,529,8217494,learnblock2,417.8999999985099,img/planet10_left.png,10,Community 1,NA,TRUE,f,f,NA,NA,NA,2,6,"14,10,5,13,9,8,4,3,7,15,6,12,2,1,11"
15074,commdev-image-keyboard-response,530,8218745,learnblock2,502.29999999701977,img/planet9_left.png,9,Community 1,NA,TRUE,f,f,NA,NA,NA,2,6,"14,10,5,13,9,8,4,3,7,15,6,12,2,1,11"
15074,commdev-image-keyboard-response,531,8220001,learnblock2,448.3999999985099,img/planet10_left.png,10,Community 1,NA,TRUE,f,f,NA,NA,NA,2,6,"14,10,5,13,9,8,4,3,7,15,6,12,2,1,11"
15074,commdev-image-keyboard-response,532,8221254,learnblock2,592.6000000014901,img/planet9_right.png,9,Community 1,NA,TRUE,j,j,NA,NA,NA,2,6,"14,10,5,13,9,8,4,3,7,15,6,12,2,1,11"
15074,commdev-image-keyboard-response,533,8222507,learnblock2,726.7000000029802,img/planet14_right.png,14,Community 1,NA,TRUE,j,j,NA,NA,NA,2,6,"14,10,5,13,9,8,4,3,7,15,6,12,2,1,11"
15074,commdev-image-keyboard-response,534,8223758,learnblock2,565.5,img/planet5_left.png,5,Community 1,NA,TRUE,f,f,NA,NA,NA,2,6,"14,10,5,13,9,8,4,3,7,15,6,12,2,1,11"
15074,commdev-image-keyboard-response,535,8225010,learnblock2,477.1000000014901,img/planet9_right.png,9,Community 1,NA,TRUE,j,j,NA,NA,NA,2,6,"14,10,5,13,9,8,4,3,7,15,6,12,2,1,11"
15074,commdev-image-keyboard-response,536,8226263,learnblock2,438.0999999977648,img/planet10_left.png,10,Community 1,NA,TRUE,f,f,NA,NA,NA,2,6,"14,10,5,13,9,8,4,3,7,15,6,12,2,1,11"
15074,commdev-image-keyboard-response,537,8227519,learnblock2,622.8000000007451,img/planet14_right.png,14,Community 1,NA,TRUE,j,j,NA,NA,NA,2,6,"14,10,5,13,9,8,4,3,7,15,6,12,2,1,11"
15074,commdev-image-keyboard-response,538,8228770,learnblock2,570.8999999985099,img/planet13_right.png,13,Community 1,NA,TRUE,j,j,NA,NA,NA,2,6,"14,10,5,13,9,8,4,3,7,15,6,12,2,1,11"
15074,commdev-image-keyboard-response,539,8230021,learnblock2,561.4000000022352,img/planet5_right.png,5,Community 1,NA,TRUE,j,j,NA,NA,NA,2,6,"14,10,5,13,9,8,4,3,7,15,6,12,2,1,11"
15074,commdev-image-keyboard-response,540,8231272,learnblock2,567.0999999977648,img/planet13_left.png,13,Community 1,NA,TRUE,f,f,NA,NA,NA,2,6,"14,10,5,13,9,8,4,3,7,15,6,12,2,1,11"
15074,commdev-image-keyboard-response,541,8232524,learnblock2,457.5999999977648,img/planet5_right.png,5,Community 1,NA,TRUE,j,j,NA,NA,NA,2,6,"14,10,5,13,9,8,4,3,7,15,6,12,2,1,11"
15074,commdev-image-keyboard-response,542,8233775,learnblock2,546.1000000014901,img/planet10_right.png,10,Community 1,NA,TRUE,j,j,NA,NA,NA,2,6,"14,10,5,13,9,8,4,3,7,15,6,12,2,1,11"
15074,commdev-image-keyboard-response,543,8235029,learnblock2,502.1000000014901,img/planet14_right.png,14,Community 1,NA,TRUE,j,j,NA,NA,NA,2,6,"14,10,5,13,9,8,4,3,7,15,6,12,2,1,11"
15074,commdev-image-keyboard-response,544,8236283,learnblock2,467.6000000014901,img/planet9_left.png,9,Community 1,NA,TRUE,f,f,NA,NA,NA,2,6,"14,10,5,13,9,8,4,3,7,15,6,12,2,1,11"
15074,commdev-image-keyboard-response,545,8237534,learnblock2,745.9000000022352,img/planet5_left.png,5,Community 1,NA,TRUE,f,f,NA,NA,NA,2,6,"14,10,5,13,9,8,4,3,7,15,6,12,2,1,11"
15074,commdev-image-keyboard-response,546,8238785,learnblock2,489.4000000022352,img/planet14_left.png,14,Community 1,NA,TRUE,f,f,NA,NA,NA,2,6,"14,10,5,13,9,8,4,3,7,15,6,12,2,1,11"
15074,commdev-image-keyboard-response,547,8240039,learnblock2,487.9000000022352,img/planet9_left.png,9,Community 1,NA,TRUE,f,f,NA,NA,NA,2,6,"14,10,5,13,9,8,4,3,7,15,6,12,2,1,11"
15074,commdev-image-keyboard-response,548,8241290,learnblock2,480.30000000074506,img/planet10_left.png,10,Community 1,NA,TRUE,f,f,NA,NA,NA,2,6,"14,10,5,13,9,8,4,3,7,15,6,12,2,1,11"
15074,commdev-image-keyboard-response,549,8242542,learnblock2,509.4000000022352,img/planet13_right.png,13,Community 1,NA,FALSE,f,j,NA,NA,NA,2,6,"14,10,5,13,9,8,4,3,7,15,6,12,2,1,11"
15074,commdev-image-keyboard-response,550,8243796,learnblock2,671.8999999985099,img/planet14_right.png,14,Community 1,NA,TRUE,j,j,NA,NA,NA,2,6,"14,10,5,13,9,8,4,3,7,15,6,12,2,1,11"
15074,commdev-image-keyboard-response,551,8245049,learnblock2,604.1999999992549,img/planet13_left.png,13,Community 1,NA,TRUE,f,f,NA,NA,NA,2,6,"14,10,5,13,9,8,4,3,7,15,6,12,2,1,11"
15074,commdev-image-keyboard-response,552,8246301,learnblock2,657.5,img/planet14_right.png,14,Community 1,NA,TRUE,j,j,NA,NA,NA,2,6,"14,10,5,13,9,8,4,3,7,15,6,12,2,1,11"
15074,commdev-image-keyboard-response,553,8247554,learnblock2,587.1000000014901,img/planet10_left.png,10,Community 1,NA,TRUE,f,f,NA,NA,NA,2,6,"14,10,5,13,9,8,4,3,7,15,6,12,2,1,11"
15074,commdev-image-keyboard-response,554,8248806,learnblock2,567.6000000014901,img/planet13_left.png,13,Community 1,NA,TRUE,f,f,NA,NA,NA,2,6,"14,10,5,13,9,8,4,3,7,15,6,12,2,1,11"
15074,commdev-image-keyboard-response,555,8250062,learnblock2,500.5,img/planet5_right.png,5,Community 1,NA,TRUE,j,j,NA,NA,NA,2,6,"14,10,5,13,9,8,4,3,7,15,6,12,2,1,11"
15074,commdev-image-keyboard-response,556,8251318,learnblock2,506.30000000074506,img/planet9_right.png,9,Community 1,NA,TRUE,j,j,NA,NA,NA,2,6,"14,10,5,13,9,8,4,3,7,15,6,12,2,1,11"
15074,commdev-image-keyboard-response,557,8252570,learnblock2,515,img/planet6_left.png,6,Community 3,NA,FALSE,j,f,NA,NA,NA,2,6,"14,10,5,13,9,8,4,3,7,15,6,12,2,1,11"
15074,commdev-image-keyboard-response,558,8253825,learnblock2,601.3999999985099,img/planet9_right.png,9,Community 1,NA,TRUE,j,j,NA,NA,NA,2,6,"14,10,5,13,9,8,4,3,7,15,6,12,2,1,11"
15074,commdev-image-keyboard-response,559,8255076,learnblock2,527,img/planet6_left.png,6,Community 3,NA,TRUE,f,f,NA,NA,NA,2,6,"14,10,5,13,9,8,4,3,7,15,6,12,2,1,11"
15074,commdev-image-keyboard-response,560,8256333,learnblock2,502.69999999925494,img/planet11_right.png,11,Community 3,NA,TRUE,j,j,NA,NA,NA,2,6,"14,10,5,13,9,8,4,3,7,15,6,12,2,1,11"
15074,commdev-image-keyboard-response,561,8257588,learnblock2,543.6999999992549,img/planet1_right.png,1,Community 3,NA,TRUE,j,j,NA,NA,NA,2,6,"14,10,5,13,9,8,4,3,7,15,6,12,2,1,11"
15074,commdev-image-keyboard-response,562,8258843,learnblock2,592.1999999992549,img/planet12_left.png,12,Community 3,NA,TRUE,f,f,NA,NA,NA,2,6,"14,10,5,13,9,8,4,3,7,15,6,12,2,1,11"
15074,commdev-image-keyboard-response,563,8260094,learnblock2,772.5,img/planet1_right.png,1,Community 3,NA,TRUE,j,j,NA,NA,NA,2,6,"14,10,5,13,9,8,4,3,7,15,6,12,2,1,11"
15074,commdev-image-keyboard-response,564,8261346,learnblock2,525.5,img/planet11_left.png,11,Community 3,NA,TRUE,f,f,NA,NA,NA,2,6,"14,10,5,13,9,8,4,3,7,15,6,12,2,1,11"
15074,commdev-image-keyboard-response,565,8262598,learnblock2,731.6999999992549,img/planet6_left.png,6,Community 3,NA,TRUE,f,f,NA,NA,NA,2,6,"14,10,5,13,9,8,4,3,7,15,6,12,2,1,11"
15074,commdev-image-keyboard-response,566,8263852,learnblock2,591.8999999985099,img/planet1_right.png,1,Community 3,NA,TRUE,j,j,NA,NA,NA,2,6,"14,10,5,13,9,8,4,3,7,15,6,12,2,1,11"
15074,commdev-image-keyboard-response,567,8265107,learnblock2,565.5999999977648,img/planet12_left.png,12,Community 3,NA,TRUE,f,f,NA,NA,NA,2,6,"14,10,5,13,9,8,4,3,7,15,6,12,2,1,11"
15074,commdev-image-keyboard-response,568,8266360,learnblock2,569.3000000007451,img/planet1_right.png,1,Community 3,NA,TRUE,j,j,NA,NA,NA,2,6,"14,10,5,13,9,8,4,3,7,15,6,12,2,1,11"
15074,commdev-image-keyboard-response,569,8267614,learnblock2,607.6000000014901,img/planet11_left.png,11,Community 3,NA,TRUE,f,f,NA,NA,NA,2,6,"14,10,5,13,9,8,4,3,7,15,6,12,2,1,11"
15074,commdev-image-keyboard-response,570,8268867,learnblock2,611.3000000007451,img/planet6_right.png,6,Community 3,NA,TRUE,j,j,NA,NA,NA,2,6,"14,10,5,13,9,8,4,3,7,15,6,12,2,1,11"
15074,commdev-image-keyboard-response,571,8270121,learnblock2,477.5,img/planet11_left.png,11,Community 3,NA,TRUE,f,f,NA,NA,NA,2,6,"14,10,5,13,9,8,4,3,7,15,6,12,2,1,11"
15074,commdev-image-keyboard-response,572,8271373,learnblock2,627.1000000014901,img/planet12_right.png,12,Community 3,NA,TRUE,j,j,NA,NA,NA,2,6,"14,10,5,13,9,8,4,3,7,15,6,12,2,1,11"
15074,commdev-image-keyboard-response,573,8272624,learnblock2,555.6000000014901,img/planet1_right.png,1,Community 3,NA,TRUE,j,j,NA,NA,NA,2,6,"14,10,5,13,9,8,4,3,7,15,6,12,2,1,11"
15074,commdev-image-keyboard-response,574,8273875,learnblock2,544.3000000007451,img/planet2_left.png,2,Community 3,NA,TRUE,f,f,NA,NA,NA,2,6,"14,10,5,13,9,8,4,3,7,15,6,12,2,1,11"
15074,commdev-image-keyboard-response,575,8275127,learnblock2,550.9000000022352,img/planet6_left.png,6,Community 3,NA,FALSE,j,f,NA,NA,NA,2,6,"14,10,5,13,9,8,4,3,7,15,6,12,2,1,11"
15074,commdev-image-keyboard-response,576,8276380,learnblock2,622.4000000022352,img/planet9_right.png,9,Community 1,NA,TRUE,j,j,NA,NA,NA,2,6,"14,10,5,13,9,8,4,3,7,15,6,12,2,1,11"
15074,commdev-image-keyboard-response,577,8277632,learnblock2,641.5,img/planet14_left.png,14,Community 1,NA,TRUE,f,f,NA,NA,NA,2,6,"14,10,5,13,9,8,4,3,7,15,6,12,2,1,11"
15074,commdev-image-keyboard-response,578,8278885,learnblock2,833.1999999992549,img/planet5_right.png,5,Community 1,NA,TRUE,j,j,NA,NA,NA,2,6,"14,10,5,13,9,8,4,3,7,15,6,12,2,1,11"
15074,commdev-image-keyboard-response,579,8280137,learnblock2,701.3000000007451,img/planet14_right.png,14,Community 1,NA,TRUE,j,j,NA,NA,NA,2,6,"14,10,5,13,9,8,4,3,7,15,6,12,2,1,11"
15074,commdev-image-keyboard-response,580,8281389,learnblock2,578.6000000014901,img/planet10_right.png,10,Community 1,NA,TRUE,j,j,NA,NA,NA,2,6,"14,10,5,13,9,8,4,3,7,15,6,12,2,1,11"
15074,commdev-image-keyboard-response,581,8282643,learnblock2,551.5,img/planet13_left.png,13,Community 1,NA,TRUE,f,f,NA,NA,NA,2,6,"14,10,5,13,9,8,4,3,7,15,6,12,2,1,11"
15074,commdev-image-keyboard-response,582,8283897,learnblock2,675.6999999992549,img/planet14_right.png,14,Community 1,NA,TRUE,j,j,NA,NA,NA,2,6,"14,10,5,13,9,8,4,3,7,15,6,12,2,1,11"
15074,commdev-image-keyboard-response,583,8285152,learnblock2,612,img/planet13_left.png,13,Community 1,NA,TRUE,f,f,NA,NA,NA,2,6,"14,10,5,13,9,8,4,3,7,15,6,12,2,1,11"
15074,commdev-image-keyboard-response,584,8286406,learnblock2,583,img/planet14_left.png,14,Community 1,NA,TRUE,f,f,NA,NA,NA,2,6,"14,10,5,13,9,8,4,3,7,15,6,12,2,1,11"
15074,commdev-image-keyboard-response,585,8287657,learnblock2,602.3999999985099,img/planet13_right.png,13,Community 1,NA,TRUE,j,j,NA,NA,NA,2,6,"14,10,5,13,9,8,4,3,7,15,6,12,2,1,11"
