subject_id,trial_type,trial_index,time_elapsed,block,rt,stimulus,planet,community,response,correct,key_press,learning_correct_response,parse,init_locations,final_locations,browser_interactions,num_comp,planet_map
15561,commdev-instructions,7,26202,NA,1065.6000000000931,"<p>In this game, you are a scientist on board a space shuttle. </p><p> On each mission, you will visit planets all across the universe.</p><img src=""img/controlroom.jpg"" width=300vw>",NA,NA,NA,NA,NA,NA,NA,NA,NA,2,6,"6,4,5,7,15,13,12,9,2,1,3,8,11,14,10"
15561,commdev-instructions,8,29165,NA,888.7000000001863,"<p>Here are a few planets you might see:</p><img src=""img/practice1.png"" width=200vw><img src=""img/practice2.png"" width=200vw><img src=""img/practice3.png"" width=200vw>",NA,NA,NA,NA,NA,NA,NA,NA,NA,2,6,"6,4,5,7,15,13,12,9,2,1,3,8,11,14,10"
15561,commdev-instructions,9,38953,NA,2388.2999999998137,"<p>Your job as a scientist is to record which direction the winds are moving on each planet.</p><p>There are two types of wind directions:</p><img src=""img/practice1_left.png"" width=200vw><img src=""img/practice1_right.png"" width=200vw>",NA,NA,NA,NA,NA,NA,NA,NA,NA,2,6,"6,4,5,7,15,13,12,9,2,1,3,8,11,14,10"
15561,commdev-instructions,10,45662,NA,1825.2000000001863,"<p>If the winds are moving this way, press the letter <strong>F</strong> on the keyboard as fast as you can.</p><img src=""img/leftwind.png"" width=250vw>",NA,NA,NA,NA,NA,NA,NA,NA,NA,2,6,"6,4,5,7,15,13,12,9,2,1,3,8,11,14,10"
15561,commdev-instructions,11,52210,NA,2044.7000000001863,"<p>If the winds are moving this way, press the letter <strong>J</strong> on the keyboard as fast as you can.</p><img src=""img/rightwind.png"" width=350vw>",NA,NA,NA,NA,NA,NA,NA,NA,NA,2,6,"6,4,5,7,15,13,12,9,2,1,3,8,11,14,10"
15561,commdev-instructions,12,58482,NA,1845.3999999999069,<p>You will have 1 second to respond. Try to respond before the time runs out!,NA,NA,NA,NA,NA,NA,NA,NA,NA,2,6,"6,4,5,7,15,13,12,9,2,1,3,8,11,14,10"
15561,commdev-instructions,13,64301,NA,384.60000000009313,<p>The planets you will visit will look different from each other.</p><p>You should respond <strong>only</strong> based on wind direction.,NA,NA,NA,NA,NA,NA,NA,NA,NA,2,6,"6,4,5,7,15,13,12,9,2,1,3,8,11,14,10"
15561,commdev-instructions,14,70028,NA,552,"<p> Ready to start the practice round? </p><p> Remember, press <strong>F</strong> or <strong>J</strong> depending on the wind direction.<br><img src=""img/categorize_planet_example.png""",NA,NA,NA,NA,NA,NA,NA,NA,NA,2,6,"6,4,5,7,15,13,12,9,2,1,3,8,11,14,10"
15561,commdev-instructions,26,123833,NA,2282,"<p>Great, now try a short practice mission. </p><p> This time, you will have 1 second to respond and you won't know whether you pressed the right or wrong key for each planet.</p>",NA,NA,NA,NA,NA,NA,NA,NA,NA,2,6,"6,4,5,7,15,13,12,9,2,1,3,8,11,14,10"
15561,commdev-image-keyboard-response,27,125215,practice,569.8999999999069,img/practice1_left.png,NA,Number not found in mappings,NA,TRUE,f,f,NA,NA,NA,2,6,"6,4,5,7,15,13,12,9,2,1,3,8,11,14,10"
15561,commdev-image-keyboard-response,28,126468,practice,735.1000000000931,img/practice4_left.png,NA,Number not found in mappings,NA,TRUE,f,f,NA,NA,NA,2,6,"6,4,5,7,15,13,12,9,2,1,3,8,11,14,10"
15561,commdev-image-keyboard-response,29,127726,practice,539,img/practice3_right.png,NA,Number not found in mappings,NA,TRUE,j,j,NA,NA,NA,2,6,"6,4,5,7,15,13,12,9,2,1,3,8,11,14,10"
15561,commdev-image-keyboard-response,30,128987,practice,589.3999999999069,img/practice4_left.png,NA,Number not found in mappings,NA,TRUE,f,f,NA,NA,NA,2,6,"6,4,5,7,15,13,12,9,2,1,3,8,11,14,10"
15561,commdev-image-keyboard-response,31,130246,practice,423,img/practice3_right.png,NA,Number not found in mappings,NA,TRUE,j,j,NA,NA,NA,2,6,"6,4,5,7,15,13,12,9,2,1,3,8,11,14,10"
15561,commdev-image-keyboard-response,32,131502,practice,654.1999999997206,img/practice2_left.png,NA,Number not found in mappings,NA,TRUE,f,f,NA,NA,NA,2,6,"6,4,5,7,15,13,12,9,2,1,3,8,11,14,10"
15561,commdev-image-keyboard-response,33,132756,practice,483.20000000018626,img/practice4_left.png,NA,Number not found in mappings,NA,TRUE,f,f,NA,NA,NA,2,6,"6,4,5,7,15,13,12,9,2,1,3,8,11,14,10"
15561,commdev-image-keyboard-response,34,134012,practice,505.89999999990687,img/practice3_left.png,NA,Number not found in mappings,NA,TRUE,f,f,NA,NA,NA,2,6,"6,4,5,7,15,13,12,9,2,1,3,8,11,14,10"
15561,commdev-instructions,35,148296,NA,4724.399999999907,"<p>Great job with the practice round.</p><p>During real missions, you won't know whether you pressed the right or wrong key for each planet.</p><p>But between missions, we will tell you how you did overall.</p>",NA,NA,NA,NA,NA,NA,NA,NA,NA,2,6,"6,4,5,7,15,13,12,9,2,1,3,8,11,14,10"
15561,commdev-instructions,36,158024,NA,1473.1000000000931,<p>Try your best! You will be paid a bonus based on how many correct responses you make!</p><p>Responses that are too slow will not count toward your bonus.</p>,NA,NA,NA,NA,NA,NA,NA,NA,NA,2,6,"6,4,5,7,15,13,12,9,2,1,3,8,11,14,10"
15561,commdev-instructions,37,165540,NA,1301,"<p>You are almost ready to start the real game.</p><p> First, we are going to ask you some questions about how the game works.</p>",NA,NA,NA,NA,NA,NA,NA,NA,NA,2,6,"6,4,5,7,15,13,12,9,2,1,3,8,11,14,10"
15561,commdev-instructions,46,252807,NA,5856.100000000093,"<p> Nice work! It is now time to start the real game.<p></p>You will go on two missions to record wind directions of different planets.<p></p>Each one will take about 5 minutes. You will get to take a break between missions.<p><p> Remember, press <strong>F</strong> or <strong>J</strong> depending on the wind direction. Good luck!<br><img src=""img/categorize_planet_example.png""",NA,NA,NA,NA,NA,NA,NA,NA,NA,2,6,"6,4,5,7,15,13,12,9,2,1,3,8,11,14,10"
15561,commdev-image-keyboard-response,48,256258,learnblock1,844,img/planet14_left.png,14,Community 3,NA,TRUE,f,f,NA,NA,NA,2,6,"6,4,5,7,15,13,12,9,2,1,3,8,11,14,10"
15561,commdev-image-keyboard-response,49,257513,learnblock1,1066,img/planet3_left.png,3,Community 3,NA,TRUE,f,f,NA,NA,NA,2,6,"6,4,5,7,15,13,12,9,2,1,3,8,11,14,10"
15561,commdev-image-keyboard-response,50,258768,learnblock1,597.7000000001863,img/planet15_right.png,15,Community 1,NA,TRUE,j,j,NA,NA,NA,2,6,"6,4,5,7,15,13,12,9,2,1,3,8,11,14,10"
15561,commdev-image-keyboard-response,51,260036,learnblock1,626.2000000001863,img/planet4_right.png,4,Community 1,NA,TRUE,j,j,NA,NA,NA,2,6,"6,4,5,7,15,13,12,9,2,1,3,8,11,14,10"
15561,commdev-image-keyboard-response,52,261294,learnblock1,504.60000000009313,img/planet6_left.png,6,Community 1,NA,TRUE,f,f,NA,NA,NA,2,6,"6,4,5,7,15,13,12,9,2,1,3,8,11,14,10"
15561,commdev-image-keyboard-response,53,262552,learnblock1,636.2000000001863,img/planet5_left.png,5,Community 1,NA,TRUE,f,f,NA,NA,NA,2,6,"6,4,5,7,15,13,12,9,2,1,3,8,11,14,10"
15561,commdev-image-keyboard-response,54,263811,learnblock1,514.5999999996275,img/planet6_left.png,6,Community 1,NA,TRUE,f,f,NA,NA,NA,2,6,"6,4,5,7,15,13,12,9,2,1,3,8,11,14,10"
15561,commdev-image-keyboard-response,55,265071,learnblock1,713.7000000001863,img/planet7_left.png,7,Community 1,NA,TRUE,f,f,NA,NA,NA,2,6,"6,4,5,7,15,13,12,9,2,1,3,8,11,14,10"
15561,commdev-image-keyboard-response,56,266331,learnblock1,599.3999999999069,img/planet4_right.png,4,Community 1,NA,TRUE,j,j,NA,NA,NA,2,6,"6,4,5,7,15,13,12,9,2,1,3,8,11,14,10"
15561,commdev-image-keyboard-response,57,267588,learnblock1,548.3999999999069,img/planet7_left.png,7,Community 1,NA,TRUE,f,f,NA,NA,NA,2,6,"6,4,5,7,15,13,12,9,2,1,3,8,11,14,10"
15561,commdev-image-keyboard-response,58,268845,learnblock1,556.6999999997206,img/planet4_right.png,4,Community 1,NA,TRUE,j,j,NA,NA,NA,2,6,"6,4,5,7,15,13,12,9,2,1,3,8,11,14,10"
15561,commdev-image-keyboard-response,59,270099,learnblock1,683.3000000002794,img/planet5_right.png,5,Community 1,NA,TRUE,j,j,NA,NA,NA,2,6,"6,4,5,7,15,13,12,9,2,1,3,8,11,14,10"
15561,commdev-image-keyboard-response,60,271361,learnblock1,567.2000000001863,img/planet6_left.png,6,Community 1,NA,TRUE,f,f,NA,NA,NA,2,6,"6,4,5,7,15,13,12,9,2,1,3,8,11,14,10"
15561,commdev-image-keyboard-response,61,272622,learnblock1,676.5,img/planet7_right.png,7,Community 1,NA,TRUE,j,j,NA,NA,NA,2,6,"6,4,5,7,15,13,12,9,2,1,3,8,11,14,10"
15561,commdev-image-keyboard-response,62,273875,learnblock1,438.89999999990687,img/planet13_left.png,13,Community 2,NA,TRUE,f,f,NA,NA,NA,2,6,"6,4,5,7,15,13,12,9,2,1,3,8,11,14,10"
15561,commdev-image-keyboard-response,63,275133,learnblock1,463.39999999990687,img/planet12_right.png,12,Community 2,NA,TRUE,j,j,NA,NA,NA,2,6,"6,4,5,7,15,13,12,9,2,1,3,8,11,14,10"
15561,commdev-image-keyboard-response,64,276387,learnblock1,376.3000000002794,img/planet1_left.png,1,Community 2,NA,TRUE,f,f,NA,NA,NA,2,6,"6,4,5,7,15,13,12,9,2,1,3,8,11,14,10"
15561,commdev-image-keyboard-response,65,277640,learnblock1,421.89999999990687,img/planet9_right.png,9,Community 2,NA,TRUE,j,j,NA,NA,NA,2,6,"6,4,5,7,15,13,12,9,2,1,3,8,11,14,10"
15561,commdev-image-keyboard-response,66,278903,learnblock1,388.20000000018626,img/planet2_left.png,2,Community 2,NA,TRUE,f,f,NA,NA,NA,2,6,"6,4,5,7,15,13,12,9,2,1,3,8,11,14,10"
15561,commdev-image-keyboard-response,67,280155,learnblock1,330.70000000018626,img/planet1_right.png,1,Community 2,NA,TRUE,j,j,NA,NA,NA,2,6,"6,4,5,7,15,13,12,9,2,1,3,8,11,14,10"
15561,commdev-image-keyboard-response,68,281407,learnblock1,620.8999999999069,img/planet9_right.png,9,Community 2,NA,TRUE,j,j,NA,NA,NA,2,6,"6,4,5,7,15,13,12,9,2,1,3,8,11,14,10"
15561,commdev-image-keyboard-response,69,282658,learnblock1,673.0999999996275,img/planet12_left.png,12,Community 2,NA,TRUE,f,f,NA,NA,NA,2,6,"6,4,5,7,15,13,12,9,2,1,3,8,11,14,10"
15561,commdev-image-keyboard-response,70,283909,learnblock1,584.1999999997206,img/planet13_right.png,13,Community 2,NA,TRUE,j,j,NA,NA,NA,2,6,"6,4,5,7,15,13,12,9,2,1,3,8,11,14,10"
15561,commdev-image-keyboard-response,71,285160,learnblock1,708.2999999998137,img/planet7_right.png,7,Community 1,NA,TRUE,j,j,NA,NA,NA,2,6,"6,4,5,7,15,13,12,9,2,1,3,8,11,14,10"
15561,commdev-image-keyboard-response,72,286412,learnblock1,591.6999999997206,img/planet6_right.png,6,Community 1,NA,TRUE,j,j,NA,NA,NA,2,6,"6,4,5,7,15,13,12,9,2,1,3,8,11,14,10"
15561,commdev-image-keyboard-response,73,287665,learnblock1,557.8999999999069,img/planet15_left.png,15,Community 1,NA,TRUE,f,f,NA,NA,NA,2,6,"6,4,5,7,15,13,12,9,2,1,3,8,11,14,10"
15561,commdev-image-keyboard-response,74,288917,learnblock1,576,img/planet3_left.png,3,Community 3,NA,TRUE,f,f,NA,NA,NA,2,6,"6,4,5,7,15,13,12,9,2,1,3,8,11,14,10"
15561,commdev-image-keyboard-response,75,290182,learnblock1,478.70000000018626,img/planet10_left.png,10,Community 3,NA,TRUE,f,f,NA,NA,NA,2,6,"6,4,5,7,15,13,12,9,2,1,3,8,11,14,10"
15561,commdev-image-keyboard-response,76,291435,learnblock1,604.3000000002794,img/planet11_right.png,11,Community 3,NA,TRUE,j,j,NA,NA,NA,2,6,"6,4,5,7,15,13,12,9,2,1,3,8,11,14,10"
15561,commdev-image-keyboard-response,77,292687,learnblock1,658,img/planet3_right.png,3,Community 3,NA,TRUE,j,j,NA,NA,NA,2,6,"6,4,5,7,15,13,12,9,2,1,3,8,11,14,10"
15561,commdev-image-keyboard-response,78,293939,learnblock1,535.7999999998137,img/planet10_left.png,10,Community 3,NA,TRUE,f,f,NA,NA,NA,2,6,"6,4,5,7,15,13,12,9,2,1,3,8,11,14,10"
15561,commdev-image-keyboard-response,79,295194,learnblock1,612.2999999998137,img/planet14_left.png,14,Community 3,NA,TRUE,f,f,NA,NA,NA,2,6,"6,4,5,7,15,13,12,9,2,1,3,8,11,14,10"
15561,commdev-image-keyboard-response,80,296456,learnblock1,536.6000000000931,img/planet11_left.png,11,Community 3,NA,TRUE,f,f,NA,NA,NA,2,6,"6,4,5,7,15,13,12,9,2,1,3,8,11,14,10"
15561,commdev-image-keyboard-response,81,297707,learnblock1,538,img/planet10_right.png,10,Community 3,NA,TRUE,j,j,NA,NA,NA,2,6,"6,4,5,7,15,13,12,9,2,1,3,8,11,14,10"
15561,commdev-image-keyboard-response,82,298959,learnblock1,493.6999999997206,img/planet8_right.png,8,Community 3,NA,TRUE,j,j,NA,NA,NA,2,6,"6,4,5,7,15,13,12,9,2,1,3,8,11,14,10"
15561,commdev-image-keyboard-response,83,300212,learnblock1,416.39999999990687,img/planet9_left.png,9,Community 2,NA,FALSE,j,f,NA,NA,NA,2,6,"6,4,5,7,15,13,12,9,2,1,3,8,11,14,10"
15561,commdev-image-keyboard-response,84,301471,learnblock1,746.8999999999069,img/planet8_left.png,8,Community 3,NA,TRUE,f,f,NA,NA,NA,2,6,"6,4,5,7,15,13,12,9,2,1,3,8,11,14,10"
15561,commdev-image-keyboard-response,85,302724,learnblock1,649.3999999999069,img/planet14_right.png,14,Community 3,NA,TRUE,j,j,NA,NA,NA,2,6,"6,4,5,7,15,13,12,9,2,1,3,8,11,14,10"
15561,commdev-image-keyboard-response,86,303977,learnblock1,658.6999999997206,img/planet3_right.png,3,Community 3,NA,TRUE,j,j,NA,NA,NA,2,6,"6,4,5,7,15,13,12,9,2,1,3,8,11,14,10"
15561,commdev-image-keyboard-response,87,305230,learnblock1,592.2000000001863,img/planet11_right.png,11,Community 3,NA,TRUE,j,j,NA,NA,NA,2,6,"6,4,5,7,15,13,12,9,2,1,3,8,11,14,10"
15561,commdev-image-keyboard-response,88,306482,learnblock1,594.1999999997206,img/planet10_right.png,10,Community 3,NA,TRUE,j,j,NA,NA,NA,2,6,"6,4,5,7,15,13,12,9,2,1,3,8,11,14,10"
15561,commdev-image-keyboard-response,89,307734,learnblock1,607.6999999997206,img/planet3_left.png,3,Community 3,NA,TRUE,f,f,NA,NA,NA,2,6,"6,4,5,7,15,13,12,9,2,1,3,8,11,14,10"
15561,commdev-image-keyboard-response,90,308987,learnblock1,640.8000000002794,img/planet10_right.png,10,Community 3,NA,TRUE,j,j,NA,NA,NA,2,6,"6,4,5,7,15,13,12,9,2,1,3,8,11,14,10"
15561,commdev-image-keyboard-response,91,310239,learnblock1,512.6000000000931,img/planet3_left.png,3,Community 3,NA,TRUE,f,f,NA,NA,NA,2,6,"6,4,5,7,15,13,12,9,2,1,3,8,11,14,10"
15561,commdev-image-keyboard-response,92,311491,learnblock1,516.5,img/planet15_right.png,15,Community 1,NA,TRUE,j,j,NA,NA,NA,2,6,"6,4,5,7,15,13,12,9,2,1,3,8,11,14,10"
15561,commdev-image-keyboard-response,93,312744,learnblock1,541.2000000001863,img/planet6_right.png,6,Community 1,NA,TRUE,j,j,NA,NA,NA,2,6,"6,4,5,7,15,13,12,9,2,1,3,8,11,14,10"
15561,commdev-image-keyboard-response,94,313997,learnblock1,667.8000000002794,img/planet7_left.png,7,Community 1,NA,TRUE,f,f,NA,NA,NA,2,6,"6,4,5,7,15,13,12,9,2,1,3,8,11,14,10"
15561,commdev-image-keyboard-response,95,315250,learnblock1,488.39999999990687,img/planet13_right.png,13,Community 2,NA,TRUE,j,j,NA,NA,NA,2,6,"6,4,5,7,15,13,12,9,2,1,3,8,11,14,10"
15561,commdev-image-keyboard-response,96,316503,learnblock1,512.9000000003725,img/planet1_right.png,1,Community 2,NA,TRUE,j,j,NA,NA,NA,2,6,"6,4,5,7,15,13,12,9,2,1,3,8,11,14,10"
15561,commdev-image-keyboard-response,97,317755,learnblock1,512.1000000000931,img/planet2_right.png,2,Community 2,NA,TRUE,j,j,NA,NA,NA,2,6,"6,4,5,7,15,13,12,9,2,1,3,8,11,14,10"
15561,commdev-image-keyboard-response,98,319007,learnblock1,526.3999999999069,img/planet1_right.png,1,Community 2,NA,TRUE,j,j,NA,NA,NA,2,6,"6,4,5,7,15,13,12,9,2,1,3,8,11,14,10"
15561,commdev-image-keyboard-response,99,320259,learnblock1,721.2999999998137,img/planet9_left.png,9,Community 2,NA,TRUE,f,f,NA,NA,NA,2,6,"6,4,5,7,15,13,12,9,2,1,3,8,11,14,10"
15561,commdev-image-keyboard-response,100,321512,learnblock1,456,img/planet1_right.png,1,Community 2,NA,TRUE,j,j,NA,NA,NA,2,6,"6,4,5,7,15,13,12,9,2,1,3,8,11,14,10"
15561,commdev-image-keyboard-response,101,322764,learnblock1,513,img/planet12_left.png,12,Community 2,NA,TRUE,f,f,NA,NA,NA,2,6,"6,4,5,7,15,13,12,9,2,1,3,8,11,14,10"
15561,commdev-image-keyboard-response,102,324016,learnblock1,573.0999999996275,img/planet13_left.png,13,Community 2,NA,TRUE,f,f,NA,NA,NA,2,6,"6,4,5,7,15,13,12,9,2,1,3,8,11,14,10"
15561,commdev-image-keyboard-response,103,325268,learnblock1,449.5,img/planet7_left.png,7,Community 1,NA,TRUE,f,f,NA,NA,NA,2,6,"6,4,5,7,15,13,12,9,2,1,3,8,11,14,10"
15561,commdev-image-keyboard-response,104,326521,learnblock1,524.6999999997206,img/planet6_right.png,6,Community 1,NA,TRUE,j,j,NA,NA,NA,2,6,"6,4,5,7,15,13,12,9,2,1,3,8,11,14,10"
15561,commdev-image-keyboard-response,105,327773,learnblock1,502.59999999962747,img/planet5_left.png,5,Community 1,NA,TRUE,f,f,NA,NA,NA,2,6,"6,4,5,7,15,13,12,9,2,1,3,8,11,14,10"
15561,commdev-image-keyboard-response,106,329026,learnblock1,486.60000000009313,img/planet6_left.png,6,Community 1,NA,FALSE,j,f,NA,NA,NA,2,6,"6,4,5,7,15,13,12,9,2,1,3,8,11,14,10"
15561,commdev-image-keyboard-response,107,330277,learnblock1,679.2000000001863,img/planet5_right.png,5,Community 1,NA,TRUE,j,j,NA,NA,NA,2,6,"6,4,5,7,15,13,12,9,2,1,3,8,11,14,10"
15561,commdev-image-keyboard-response,108,331529,learnblock1,568.1000000000931,img/planet15_left.png,15,Community 1,NA,FALSE,j,f,NA,NA,NA,2,6,"6,4,5,7,15,13,12,9,2,1,3,8,11,14,10"
15561,commdev-image-keyboard-response,109,332782,learnblock1,642.5,img/planet3_right.png,3,Community 3,NA,TRUE,j,j,NA,NA,NA,2,6,"6,4,5,7,15,13,12,9,2,1,3,8,11,14,10"
15561,commdev-image-keyboard-response,110,334034,learnblock1,631.8000000002794,img/planet14_right.png,14,Community 3,NA,TRUE,j,j,NA,NA,NA,2,6,"6,4,5,7,15,13,12,9,2,1,3,8,11,14,10"
15561,commdev-image-keyboard-response,111,335287,learnblock1,609.0999999996275,img/planet8_left.png,8,Community 3,NA,TRUE,f,f,NA,NA,NA,2,6,"6,4,5,7,15,13,12,9,2,1,3,8,11,14,10"
15561,commdev-image-keyboard-response,112,336538,learnblock1,693.3000000002794,img/planet14_left.png,14,Community 3,NA,FALSE,j,f,NA,NA,NA,2,6,"6,4,5,7,15,13,12,9,2,1,3,8,11,14,10"
15561,commdev-image-keyboard-response,113,337792,learnblock1,836.2999999998137,img/planet11_right.png,11,Community 3,NA,TRUE,j,j,NA,NA,NA,2,6,"6,4,5,7,15,13,12,9,2,1,3,8,11,14,10"
15561,commdev-image-keyboard-response,114,339044,learnblock1,701.7999999998137,img/planet3_right.png,3,Community 3,NA,TRUE,j,j,NA,NA,NA,2,6,"6,4,5,7,15,13,12,9,2,1,3,8,11,14,10"
15561,commdev-image-keyboard-response,115,340296,learnblock1,665.7000000001863,img/planet14_right.png,14,Community 3,NA,TRUE,j,j,NA,NA,NA,2,6,"6,4,5,7,15,13,12,9,2,1,3,8,11,14,10"
15561,commdev-image-keyboard-response,116,341548,learnblock1,864.5,img/planet8_right.png,8,Community 3,NA,TRUE,j,j,NA,NA,NA,2,6,"6,4,5,7,15,13,12,9,2,1,3,8,11,14,10"
15561,commdev-image-keyboard-response,117,342801,learnblock1,687.3999999999069,img/planet14_right.png,14,Community 3,NA,TRUE,j,j,NA,NA,NA,2,6,"6,4,5,7,15,13,12,9,2,1,3,8,11,14,10"
15561,commdev-image-keyboard-response,118,344053,learnblock1,479.39999999990687,img/planet11_left.png,11,Community 3,NA,TRUE,f,f,NA,NA,NA,2,6,"6,4,5,7,15,13,12,9,2,1,3,8,11,14,10"
15561,commdev-image-keyboard-response,119,345305,learnblock1,647.1999999997206,img/planet3_left.png,3,Community 3,NA,TRUE,f,f,NA,NA,NA,2,6,"6,4,5,7,15,13,12,9,2,1,3,8,11,14,10"
15561,commdev-image-keyboard-response,120,346557,learnblock1,506.10000000009313,img/planet15_left.png,15,Community 1,NA,TRUE,f,f,NA,NA,NA,2,6,"6,4,5,7,15,13,12,9,2,1,3,8,11,14,10"
15561,commdev-image-keyboard-response,121,347817,learnblock1,561.5,img/planet6_left.png,6,Community 1,NA,TRUE,f,f,NA,NA,NA,2,6,"6,4,5,7,15,13,12,9,2,1,3,8,11,14,10"
15561,commdev-image-keyboard-response,122,349070,learnblock1,553.1999999997206,img/planet4_left.png,4,Community 1,NA,TRUE,f,f,NA,NA,NA,2,6,"6,4,5,7,15,13,12,9,2,1,3,8,11,14,10"
15561,commdev-image-keyboard-response,123,350323,learnblock1,466.59999999962747,img/planet15_right.png,15,Community 1,NA,TRUE,j,j,NA,NA,NA,2,6,"6,4,5,7,15,13,12,9,2,1,3,8,11,14,10"
15561,commdev-image-keyboard-response,124,351574,learnblock1,658.3000000002794,img/planet6_right.png,6,Community 1,NA,TRUE,j,j,NA,NA,NA,2,6,"6,4,5,7,15,13,12,9,2,1,3,8,11,14,10"
15561,commdev-image-keyboard-response,125,352827,learnblock1,618.2999999998137,img/planet4_left.png,4,Community 1,NA,TRUE,f,f,NA,NA,NA,2,6,"6,4,5,7,15,13,12,9,2,1,3,8,11,14,10"
15561,commdev-image-keyboard-response,126,354079,learnblock1,821.1000000000931,img/planet15_left.png,15,Community 1,NA,TRUE,f,f,NA,NA,NA,2,6,"6,4,5,7,15,13,12,9,2,1,3,8,11,14,10"
15561,commdev-image-keyboard-response,127,355333,learnblock1,857.1000000000931,img/planet3_left.png,3,Community 3,NA,TRUE,f,f,NA,NA,NA,2,6,"6,4,5,7,15,13,12,9,2,1,3,8,11,14,10"
15561,commdev-image-keyboard-response,128,356592,learnblock1,626.2999999998137,img/planet11_left.png,11,Community 3,NA,TRUE,f,f,NA,NA,NA,2,6,"6,4,5,7,15,13,12,9,2,1,3,8,11,14,10"
15561,commdev-image-keyboard-response,129,357845,learnblock1,612.4000000003725,img/planet10_right.png,10,Community 3,NA,TRUE,j,j,NA,NA,NA,2,6,"6,4,5,7,15,13,12,9,2,1,3,8,11,14,10"
15561,commdev-image-keyboard-response,130,359104,learnblock1,725.5,img/planet14_left.png,14,Community 3,NA,FALSE,j,f,NA,NA,NA,2,6,"6,4,5,7,15,13,12,9,2,1,3,8,11,14,10"
15561,commdev-image-keyboard-response,131,360357,learnblock1,988.8999999999069,img/planet10_right.png,10,Community 3,NA,TRUE,j,j,NA,NA,NA,2,6,"6,4,5,7,15,13,12,9,2,1,3,8,11,14,10"
15561,commdev-image-keyboard-response,132,361609,learnblock1,719.1000000000931,img/planet11_right.png,11,Community 3,NA,TRUE,j,j,NA,NA,NA,2,6,"6,4,5,7,15,13,12,9,2,1,3,8,11,14,10"
15561,commdev-image-keyboard-response,133,362862,learnblock1,654.2000000001863,img/planet10_right.png,10,Community 3,NA,TRUE,j,j,NA,NA,NA,2,6,"6,4,5,7,15,13,12,9,2,1,3,8,11,14,10"
15561,commdev-image-keyboard-response,134,364114,learnblock1,614.8000000002794,img/planet14_right.png,14,Community 3,NA,TRUE,j,j,NA,NA,NA,2,6,"6,4,5,7,15,13,12,9,2,1,3,8,11,14,10"
15561,commdev-image-keyboard-response,135,365366,learnblock1,494.10000000009313,img/planet3_left.png,3,Community 3,NA,TRUE,f,f,NA,NA,NA,2,6,"6,4,5,7,15,13,12,9,2,1,3,8,11,14,10"
15561,commdev-image-keyboard-response,136,366618,learnblock1,616.6000000000931,img/planet11_left.png,11,Community 3,NA,TRUE,f,f,NA,NA,NA,2,6,"6,4,5,7,15,13,12,9,2,1,3,8,11,14,10"
15561,commdev-image-keyboard-response,137,367870,learnblock1,668.1000000000931,img/planet3_left.png,3,Community 3,NA,TRUE,f,f,NA,NA,NA,2,6,"6,4,5,7,15,13,12,9,2,1,3,8,11,14,10"
15561,commdev-image-keyboard-response,138,369122,learnblock1,540.5,img/planet15_right.png,15,Community 1,NA,TRUE,j,j,NA,NA,NA,2,6,"6,4,5,7,15,13,12,9,2,1,3,8,11,14,10"
15561,commdev-image-keyboard-response,139,370382,learnblock1,518.1000000000931,img/planet4_right.png,4,Community 1,NA,TRUE,j,j,NA,NA,NA,2,6,"6,4,5,7,15,13,12,9,2,1,3,8,11,14,10"
15561,commdev-image-keyboard-response,140,371633,learnblock1,759.5,img/planet5_left.png,5,Community 1,NA,TRUE,f,f,NA,NA,NA,2,6,"6,4,5,7,15,13,12,9,2,1,3,8,11,14,10"
15561,commdev-image-keyboard-response,141,372885,learnblock1,962.6000000000931,img/planet4_right.png,4,Community 1,NA,TRUE,j,j,NA,NA,NA,2,6,"6,4,5,7,15,13,12,9,2,1,3,8,11,14,10"
15561,commdev-image-keyboard-response,142,374136,learnblock1,650.8999999999069,img/planet15_right.png,15,Community 1,NA,TRUE,j,j,NA,NA,NA,2,6,"6,4,5,7,15,13,12,9,2,1,3,8,11,14,10"
15561,commdev-image-keyboard-response,143,375391,learnblock1,773.3999999999069,img/planet3_right.png,3,Community 3,NA,TRUE,j,j,NA,NA,NA,2,6,"6,4,5,7,15,13,12,9,2,1,3,8,11,14,10"
15561,commdev-image-keyboard-response,144,376643,learnblock1,568.2999999998137,img/planet10_left.png,10,Community 3,NA,TRUE,f,f,NA,NA,NA,2,6,"6,4,5,7,15,13,12,9,2,1,3,8,11,14,10"
15561,commdev-image-keyboard-response,145,377895,learnblock1,864.7999999998137,img/planet14_right.png,14,Community 3,NA,TRUE,j,j,NA,NA,NA,2,6,"6,4,5,7,15,13,12,9,2,1,3,8,11,14,10"
15561,commdev-image-keyboard-response,146,379148,learnblock1,631.3000000002794,img/planet3_left.png,3,Community 3,NA,TRUE,f,f,NA,NA,NA,2,6,"6,4,5,7,15,13,12,9,2,1,3,8,11,14,10"
15561,commdev-image-keyboard-response,147,380401,learnblock1,679.8000000002794,img/planet11_left.png,11,Community 3,NA,TRUE,f,f,NA,NA,NA,2,6,"6,4,5,7,15,13,12,9,2,1,3,8,11,14,10"
15561,commdev-image-keyboard-response,148,381653,learnblock1,995.7000000001863,img/planet3_left.png,3,Community 3,NA,TRUE,f,f,NA,NA,NA,2,6,"6,4,5,7,15,13,12,9,2,1,3,8,11,14,10"
15561,commdev-image-keyboard-response,149,382905,learnblock1,584.7000000001863,img/planet11_left.png,11,Community 3,NA,TRUE,f,f,NA,NA,NA,2,6,"6,4,5,7,15,13,12,9,2,1,3,8,11,14,10"
15561,commdev-image-keyboard-response,150,384156,learnblock1,1002.3999999999069,img/planet8_left.png,8,Community 3,NA,TRUE,f,f,NA,NA,NA,2,6,"6,4,5,7,15,13,12,9,2,1,3,8,11,14,10"
15561,commdev-image-keyboard-response,151,385408,learnblock1,538,img/planet9_left.png,9,Community 2,NA,TRUE,f,f,NA,NA,NA,2,6,"6,4,5,7,15,13,12,9,2,1,3,8,11,14,10"
15561,commdev-image-keyboard-response,152,386660,learnblock1,557.4000000003725,img/planet1_right.png,1,Community 2,NA,TRUE,j,j,NA,NA,NA,2,6,"6,4,5,7,15,13,12,9,2,1,3,8,11,14,10"
15561,commdev-image-keyboard-response,153,387913,learnblock1,447.89999999990687,img/planet13_left.png,13,Community 2,NA,TRUE,f,f,NA,NA,NA,2,6,"6,4,5,7,15,13,12,9,2,1,3,8,11,14,10"
15561,commdev-image-keyboard-response,154,389164,learnblock1,606.8999999999069,img/planet1_left.png,1,Community 2,NA,TRUE,f,f,NA,NA,NA,2,6,"6,4,5,7,15,13,12,9,2,1,3,8,11,14,10"
15561,commdev-image-keyboard-response,155,390417,learnblock1,416.5,img/planet9_left.png,9,Community 2,NA,TRUE,f,f,NA,NA,NA,2,6,"6,4,5,7,15,13,12,9,2,1,3,8,11,14,10"
15561,commdev-image-keyboard-response,156,391670,learnblock1,678.7000000001863,img/planet1_right.png,1,Community 2,NA,TRUE,j,j,NA,NA,NA,2,6,"6,4,5,7,15,13,12,9,2,1,3,8,11,14,10"
15561,commdev-image-keyboard-response,157,392922,learnblock1,898.2999999998137,img/planet12_right.png,12,Community 2,NA,TRUE,j,j,NA,NA,NA,2,6,"6,4,5,7,15,13,12,9,2,1,3,8,11,14,10"
15561,commdev-image-keyboard-response,158,394174,learnblock1,551.5,img/planet9_left.png,9,Community 2,NA,TRUE,f,f,NA,NA,NA,2,6,"6,4,5,7,15,13,12,9,2,1,3,8,11,14,10"
15561,commdev-image-keyboard-response,159,395427,learnblock1,409.20000000018626,img/planet12_right.png,12,Community 2,NA,TRUE,j,j,NA,NA,NA,2,6,"6,4,5,7,15,13,12,9,2,1,3,8,11,14,10"
15561,commdev-image-keyboard-response,160,396678,learnblock1,806.8999999999069,img/planet2_right.png,2,Community 2,NA,TRUE,j,j,NA,NA,NA,2,6,"6,4,5,7,15,13,12,9,2,1,3,8,11,14,10"
15561,commdev-image-keyboard-response,161,397931,learnblock1,705.8999999999069,img/planet13_right.png,13,Community 2,NA,TRUE,j,j,NA,NA,NA,2,6,"6,4,5,7,15,13,12,9,2,1,3,8,11,14,10"
15561,commdev-image-keyboard-response,162,399182,learnblock1,599.8000000002794,img/planet1_right.png,1,Community 2,NA,TRUE,j,j,NA,NA,NA,2,6,"6,4,5,7,15,13,12,9,2,1,3,8,11,14,10"
15561,commdev-image-keyboard-response,163,400433,learnblock1,691.6000000000931,img/planet9_left.png,9,Community 2,NA,TRUE,f,f,NA,NA,NA,2,6,"6,4,5,7,15,13,12,9,2,1,3,8,11,14,10"
15561,commdev-image-keyboard-response,164,401686,learnblock1,504.10000000009313,img/planet2_left.png,2,Community 2,NA,TRUE,f,f,NA,NA,NA,2,6,"6,4,5,7,15,13,12,9,2,1,3,8,11,14,10"
15561,commdev-image-keyboard-response,165,402939,learnblock1,500.79999999981374,img/planet1_right.png,1,Community 2,NA,TRUE,j,j,NA,NA,NA,2,6,"6,4,5,7,15,13,12,9,2,1,3,8,11,14,10"
15561,commdev-image-keyboard-response,166,404190,learnblock1,457.60000000009313,img/planet2_left.png,2,Community 2,NA,TRUE,f,f,NA,NA,NA,2,6,"6,4,5,7,15,13,12,9,2,1,3,8,11,14,10"
15561,commdev-image-keyboard-response,167,405443,learnblock1,696.7999999998137,img/planet13_right.png,13,Community 2,NA,TRUE,j,j,NA,NA,NA,2,6,"6,4,5,7,15,13,12,9,2,1,3,8,11,14,10"
15561,commdev-image-keyboard-response,168,406695,learnblock1,617,img/planet7_left.png,7,Community 1,NA,TRUE,f,f,NA,NA,NA,2,6,"6,4,5,7,15,13,12,9,2,1,3,8,11,14,10"
15561,commdev-image-keyboard-response,169,407947,learnblock1,417.1999999997206,img/planet13_right.png,13,Community 2,NA,TRUE,j,j,NA,NA,NA,2,6,"6,4,5,7,15,13,12,9,2,1,3,8,11,14,10"
15561,commdev-image-keyboard-response,170,409198,learnblock1,433.79999999981374,img/planet1_right.png,1,Community 2,NA,FALSE,f,j,NA,NA,NA,2,6,"6,4,5,7,15,13,12,9,2,1,3,8,11,14,10"
15561,commdev-image-keyboard-response,171,410451,learnblock1,718.5,img/planet13_right.png,13,Community 2,NA,TRUE,j,j,NA,NA,NA,2,6,"6,4,5,7,15,13,12,9,2,1,3,8,11,14,10"
15561,commdev-image-keyboard-response,172,411703,learnblock1,635.6000000000931,img/planet12_right.png,12,Community 2,NA,TRUE,j,j,NA,NA,NA,2,6,"6,4,5,7,15,13,12,9,2,1,3,8,11,14,10"
15561,commdev-image-keyboard-response,173,412956,learnblock1,875.7000000001863,img/planet13_right.png,13,Community 2,NA,TRUE,j,j,NA,NA,NA,2,6,"6,4,5,7,15,13,12,9,2,1,3,8,11,14,10"
15561,commdev-image-keyboard-response,174,414207,learnblock1,958.8999999999069,img/planet2_right.png,2,Community 2,NA,TRUE,j,j,NA,NA,NA,2,6,"6,4,5,7,15,13,12,9,2,1,3,8,11,14,10"
15561,commdev-image-keyboard-response,175,415460,learnblock1,719.1999999997206,img/planet9_right.png,9,Community 2,NA,TRUE,j,j,NA,NA,NA,2,6,"6,4,5,7,15,13,12,9,2,1,3,8,11,14,10"
15561,commdev-image-keyboard-response,176,416712,learnblock1,749.8000000002794,img/planet12_right.png,12,Community 2,NA,TRUE,j,j,NA,NA,NA,2,6,"6,4,5,7,15,13,12,9,2,1,3,8,11,14,10"
15561,commdev-image-keyboard-response,177,417964,learnblock1,446.39999999990687,img/planet2_right.png,2,Community 2,NA,TRUE,j,j,NA,NA,NA,2,6,"6,4,5,7,15,13,12,9,2,1,3,8,11,14,10"
15561,commdev-image-keyboard-response,178,419216,learnblock1,523.6000000000931,img/planet13_right.png,13,Community 2,NA,TRUE,j,j,NA,NA,NA,2,6,"6,4,5,7,15,13,12,9,2,1,3,8,11,14,10"
15561,commdev-image-keyboard-response,179,420469,learnblock1,472.70000000018626,img/planet1_left.png,1,Community 2,NA,TRUE,f,f,NA,NA,NA,2,6,"6,4,5,7,15,13,12,9,2,1,3,8,11,14,10"
15561,commdev-image-keyboard-response,180,421722,learnblock1,591,img/planet9_right.png,9,Community 2,NA,TRUE,j,j,NA,NA,NA,2,6,"6,4,5,7,15,13,12,9,2,1,3,8,11,14,10"
15561,commdev-image-keyboard-response,181,422973,learnblock1,400.89999999990687,img/planet2_right.png,2,Community 2,NA,TRUE,j,j,NA,NA,NA,2,6,"6,4,5,7,15,13,12,9,2,1,3,8,11,14,10"
15561,commdev-image-keyboard-response,182,424225,learnblock1,363.60000000009313,img/planet13_right.png,13,Community 2,NA,TRUE,j,j,NA,NA,NA,2,6,"6,4,5,7,15,13,12,9,2,1,3,8,11,14,10"
15561,commdev-image-keyboard-response,183,425490,learnblock1,382.20000000018626,img/planet12_left.png,12,Community 2,NA,FALSE,j,f,NA,NA,NA,2,6,"6,4,5,7,15,13,12,9,2,1,3,8,11,14,10"
15561,commdev-image-keyboard-response,184,426753,learnblock1,970,img/planet13_left.png,13,Community 2,NA,TRUE,f,f,NA,NA,NA,2,6,"6,4,5,7,15,13,12,9,2,1,3,8,11,14,10"
15561,commdev-image-keyboard-response,185,428005,learnblock1,776.8000000002794,img/planet7_left.png,7,Community 1,NA,TRUE,f,f,NA,NA,NA,2,6,"6,4,5,7,15,13,12,9,2,1,3,8,11,14,10"
15561,commdev-image-keyboard-response,186,429257,learnblock1,768.8000000002794,img/planet13_left.png,13,Community 2,NA,TRUE,f,f,NA,NA,NA,2,6,"6,4,5,7,15,13,12,9,2,1,3,8,11,14,10"
15561,commdev-image-keyboard-response,187,430518,learnblock1,672,img/planet7_right.png,7,Community 1,NA,TRUE,j,j,NA,NA,NA,2,6,"6,4,5,7,15,13,12,9,2,1,3,8,11,14,10"
15561,commdev-image-keyboard-response,188,431770,learnblock1,1084.7000000001863,img/planet4_right.png,4,Community 1,NA,FALSE,f,j,NA,NA,NA,2,6,"6,4,5,7,15,13,12,9,2,1,3,8,11,14,10"
15561,commdev-image-keyboard-response,189,433022,learnblock1,768,img/planet6_left.png,6,Community 1,NA,TRUE,f,f,NA,NA,NA,2,6,"6,4,5,7,15,13,12,9,2,1,3,8,11,14,10"
15561,commdev-image-keyboard-response,190,434275,learnblock1,618.8000000002794,img/planet7_left.png,7,Community 1,NA,TRUE,f,f,NA,NA,NA,2,6,"6,4,5,7,15,13,12,9,2,1,3,8,11,14,10"
15561,commdev-image-keyboard-response,191,435527,learnblock1,531.6000000000931,img/planet13_right.png,13,Community 2,NA,TRUE,j,j,NA,NA,NA,2,6,"6,4,5,7,15,13,12,9,2,1,3,8,11,14,10"
15561,commdev-image-keyboard-response,192,436779,learnblock1,798.8000000002794,img/planet2_right.png,2,Community 2,NA,FALSE,f,j,NA,NA,NA,2,6,"6,4,5,7,15,13,12,9,2,1,3,8,11,14,10"
15561,commdev-image-keyboard-response,193,438031,learnblock1,575.6999999997206,img/planet13_left.png,13,Community 2,NA,TRUE,f,f,NA,NA,NA,2,6,"6,4,5,7,15,13,12,9,2,1,3,8,11,14,10"
15561,commdev-image-keyboard-response,194,439283,learnblock1,666.8999999999069,img/planet7_right.png,7,Community 1,NA,TRUE,j,j,NA,NA,NA,2,6,"6,4,5,7,15,13,12,9,2,1,3,8,11,14,10"
15561,commdev-image-keyboard-response,195,440536,learnblock1,1213.7000000001863,img/planet6_right.png,6,Community 1,NA,TRUE,j,j,NA,NA,NA,2,6,"6,4,5,7,15,13,12,9,2,1,3,8,11,14,10"
15561,commdev-image-keyboard-response,196,441788,learnblock1,706.8000000002794,img/planet4_right.png,4,Community 1,NA,TRUE,j,j,NA,NA,NA,2,6,"6,4,5,7,15,13,12,9,2,1,3,8,11,14,10"
15561,commdev-image-keyboard-response,197,443043,learnblock1,909.3000000002794,img/planet6_right.png,6,Community 1,NA,TRUE,j,j,NA,NA,NA,2,6,"6,4,5,7,15,13,12,9,2,1,3,8,11,14,10"
15561,commdev-image-keyboard-response,198,444296,learnblock1,614.1000000000931,img/planet7_left.png,7,Community 1,NA,TRUE,f,f,NA,NA,NA,2,6,"6,4,5,7,15,13,12,9,2,1,3,8,11,14,10"
15561,commdev-image-keyboard-response,199,445548,learnblock1,562.2000000001863,img/planet13_left.png,13,Community 2,NA,TRUE,f,f,NA,NA,NA,2,6,"6,4,5,7,15,13,12,9,2,1,3,8,11,14,10"
15561,commdev-image-keyboard-response,200,446801,learnblock1,626,img/planet1_left.png,1,Community 2,NA,TRUE,f,f,NA,NA,NA,2,6,"6,4,5,7,15,13,12,9,2,1,3,8,11,14,10"
15561,commdev-image-keyboard-response,201,448053,learnblock1,573.1000000000931,img/planet12_right.png,12,Community 2,NA,TRUE,j,j,NA,NA,NA,2,6,"6,4,5,7,15,13,12,9,2,1,3,8,11,14,10"
15561,commdev-image-keyboard-response,202,449305,learnblock1,1167,img/planet13_right.png,13,Community 2,NA,TRUE,j,j,NA,NA,NA,2,6,"6,4,5,7,15,13,12,9,2,1,3,8,11,14,10"
15561,commdev-image-keyboard-response,203,450556,learnblock1,810.6000000000931,img/planet7_left.png,7,Community 1,NA,TRUE,f,f,NA,NA,NA,2,6,"6,4,5,7,15,13,12,9,2,1,3,8,11,14,10"
15561,commdev-image-keyboard-response,204,451809,learnblock1,916.1000000000931,img/planet13_right.png,13,Community 2,NA,TRUE,j,j,NA,NA,NA,2,6,"6,4,5,7,15,13,12,9,2,1,3,8,11,14,10"
15561,commdev-image-keyboard-response,205,453061,learnblock1,952.2999999998137,img/planet12_right.png,12,Community 2,NA,TRUE,j,j,NA,NA,NA,2,6,"6,4,5,7,15,13,12,9,2,1,3,8,11,14,10"
15561,commdev-image-keyboard-response,206,454314,learnblock1,636.9000000003725,img/planet1_left.png,1,Community 2,NA,TRUE,f,f,NA,NA,NA,2,6,"6,4,5,7,15,13,12,9,2,1,3,8,11,14,10"
15561,commdev-image-keyboard-response,207,455567,learnblock1,731.3000000002794,img/planet2_left.png,2,Community 2,NA,TRUE,f,f,NA,NA,NA,2,6,"6,4,5,7,15,13,12,9,2,1,3,8,11,14,10"
15561,commdev-image-keyboard-response,208,456819,learnblock1,593.7000000001863,img/planet9_left.png,9,Community 2,NA,TRUE,f,f,NA,NA,NA,2,6,"6,4,5,7,15,13,12,9,2,1,3,8,11,14,10"
15561,commdev-image-keyboard-response,209,458077,learnblock1,630.8000000002794,img/planet2_left.png,2,Community 2,NA,TRUE,f,f,NA,NA,NA,2,6,"6,4,5,7,15,13,12,9,2,1,3,8,11,14,10"
15561,commdev-image-keyboard-response,210,459329,learnblock1,663.2999999998137,img/planet9_left.png,9,Community 2,NA,TRUE,f,f,NA,NA,NA,2,6,"6,4,5,7,15,13,12,9,2,1,3,8,11,14,10"
15561,commdev-image-keyboard-response,211,460580,learnblock1,968.3999999999069,img/planet1_right.png,1,Community 2,NA,TRUE,j,j,NA,NA,NA,2,6,"6,4,5,7,15,13,12,9,2,1,3,8,11,14,10"
15561,commdev-image-keyboard-response,212,461832,learnblock1,1014.6000000000931,img/planet12_left.png,12,Community 2,NA,TRUE,f,f,NA,NA,NA,2,6,"6,4,5,7,15,13,12,9,2,1,3,8,11,14,10"
15561,commdev-image-keyboard-response,213,463085,learnblock1,754.1000000000931,img/planet1_right.png,1,Community 2,NA,TRUE,j,j,NA,NA,NA,2,6,"6,4,5,7,15,13,12,9,2,1,3,8,11,14,10"
15561,commdev-image-keyboard-response,214,464336,learnblock1,745,img/planet13_left.png,13,Community 2,NA,TRUE,f,f,NA,NA,NA,2,6,"6,4,5,7,15,13,12,9,2,1,3,8,11,14,10"
15561,commdev-image-keyboard-response,215,465591,learnblock1,694.2000000001863,img/planet7_right.png,7,Community 1,NA,TRUE,j,j,NA,NA,NA,2,6,"6,4,5,7,15,13,12,9,2,1,3,8,11,14,10"
15561,commdev-image-keyboard-response,216,466843,learnblock1,628.8999999999069,img/planet4_right.png,4,Community 1,NA,TRUE,j,j,NA,NA,NA,2,6,"6,4,5,7,15,13,12,9,2,1,3,8,11,14,10"
15561,commdev-image-keyboard-response,217,468096,learnblock1,605.1999999997206,img/planet6_right.png,6,Community 1,NA,TRUE,j,j,NA,NA,NA,2,6,"6,4,5,7,15,13,12,9,2,1,3,8,11,14,10"
15561,commdev-image-keyboard-response,218,469363,learnblock1,565.7999999998137,img/planet15_right.png,15,Community 1,NA,TRUE,j,j,NA,NA,NA,2,6,"6,4,5,7,15,13,12,9,2,1,3,8,11,14,10"
15561,commdev-image-keyboard-response,219,470615,learnblock1,519.8999999999069,img/planet4_left.png,4,Community 1,NA,TRUE,f,f,NA,NA,NA,2,6,"6,4,5,7,15,13,12,9,2,1,3,8,11,14,10"
15561,commdev-image-keyboard-response,220,471874,learnblock1,695.1999999997206,img/planet15_right.png,15,Community 1,NA,TRUE,j,j,NA,NA,NA,2,6,"6,4,5,7,15,13,12,9,2,1,3,8,11,14,10"
15561,commdev-image-keyboard-response,221,473136,learnblock1,544.1999999997206,img/planet6_left.png,6,Community 1,NA,TRUE,f,f,NA,NA,NA,2,6,"6,4,5,7,15,13,12,9,2,1,3,8,11,14,10"
15561,commdev-image-keyboard-response,222,474388,learnblock1,538.9000000003725,img/planet7_right.png,7,Community 1,NA,TRUE,j,j,NA,NA,NA,2,6,"6,4,5,7,15,13,12,9,2,1,3,8,11,14,10"
15561,commdev-image-keyboard-response,223,475641,learnblock1,562,img/planet13_left.png,13,Community 2,NA,TRUE,f,f,NA,NA,NA,2,6,"6,4,5,7,15,13,12,9,2,1,3,8,11,14,10"
15561,commdev-image-keyboard-response,224,476892,learnblock1,700.2000000001863,img/planet1_left.png,1,Community 2,NA,TRUE,f,f,NA,NA,NA,2,6,"6,4,5,7,15,13,12,9,2,1,3,8,11,14,10"
15561,commdev-image-keyboard-response,225,478144,learnblock1,605,img/planet13_right.png,13,Community 2,NA,TRUE,j,j,NA,NA,NA,2,6,"6,4,5,7,15,13,12,9,2,1,3,8,11,14,10"
15561,commdev-image-keyboard-response,226,479396,learnblock1,580.5,img/planet1_right.png,1,Community 2,NA,TRUE,j,j,NA,NA,NA,2,6,"6,4,5,7,15,13,12,9,2,1,3,8,11,14,10"
15561,commdev-image-keyboard-response,227,480648,learnblock1,635.6000000000931,img/planet9_right.png,9,Community 2,NA,TRUE,j,j,NA,NA,NA,2,6,"6,4,5,7,15,13,12,9,2,1,3,8,11,14,10"
15561,commdev-image-keyboard-response,228,481901,learnblock1,484.29999999981374,img/planet2_right.png,2,Community 2,NA,TRUE,j,j,NA,NA,NA,2,6,"6,4,5,7,15,13,12,9,2,1,3,8,11,14,10"
15561,commdev-image-keyboard-response,229,483154,learnblock1,508.29999999981374,img/planet9_right.png,9,Community 2,NA,TRUE,j,j,NA,NA,NA,2,6,"6,4,5,7,15,13,12,9,2,1,3,8,11,14,10"
15561,commdev-image-keyboard-response,230,484407,learnblock1,667.8999999999069,img/planet2_right.png,2,Community 2,NA,TRUE,j,j,NA,NA,NA,2,6,"6,4,5,7,15,13,12,9,2,1,3,8,11,14,10"
15561,commdev-image-keyboard-response,231,485660,learnblock1,750.8999999999069,img/planet1_left.png,1,Community 2,NA,TRUE,f,f,NA,NA,NA,2,6,"6,4,5,7,15,13,12,9,2,1,3,8,11,14,10"
15561,commdev-image-keyboard-response,232,486912,learnblock1,643.7000000001863,img/planet9_right.png,9,Community 2,NA,TRUE,j,j,NA,NA,NA,2,6,"6,4,5,7,15,13,12,9,2,1,3,8,11,14,10"
15561,commdev-image-keyboard-response,233,488163,learnblock1,573.3999999999069,img/planet1_right.png,1,Community 2,NA,TRUE,j,j,NA,NA,NA,2,6,"6,4,5,7,15,13,12,9,2,1,3,8,11,14,10"
15561,commdev-image-keyboard-response,234,489416,learnblock1,657.5,img/planet9_left.png,9,Community 2,NA,TRUE,f,f,NA,NA,NA,2,6,"6,4,5,7,15,13,12,9,2,1,3,8,11,14,10"
15561,commdev-image-keyboard-response,235,490668,learnblock1,null,img/planet2_right.png,2,Community 2,NA,FALSE,null,j,NA,NA,NA,2,6,"6,4,5,7,15,13,12,9,2,1,3,8,11,14,10"
15561,commdev-image-keyboard-response,236,491920,learnblock1,1191.7000000001863,img/planet9_left.png,9,Community 2,NA,TRUE,f,f,NA,NA,NA,2,6,"6,4,5,7,15,13,12,9,2,1,3,8,11,14,10"
15561,commdev-image-keyboard-response,237,493172,learnblock1,1104,img/planet8_right.png,8,Community 3,NA,TRUE,j,j,NA,NA,NA,2,6,"6,4,5,7,15,13,12,9,2,1,3,8,11,14,10"
15561,commdev-image-keyboard-response,238,494424,learnblock1,813.1999999997206,img/planet10_right.png,10,Community 3,NA,TRUE,j,j,NA,NA,NA,2,6,"6,4,5,7,15,13,12,9,2,1,3,8,11,14,10"
15561,commdev-image-keyboard-response,239,495676,learnblock1,971.6000000000931,img/planet11_left.png,11,Community 3,NA,TRUE,f,f,NA,NA,NA,2,6,"6,4,5,7,15,13,12,9,2,1,3,8,11,14,10"
15561,commdev-image-keyboard-response,240,496928,learnblock1,834,img/planet14_left.png,14,Community 3,NA,TRUE,f,f,NA,NA,NA,2,6,"6,4,5,7,15,13,12,9,2,1,3,8,11,14,10"
15561,commdev-image-keyboard-response,241,498179,learnblock1,688.7000000001863,img/planet11_left.png,11,Community 3,NA,TRUE,f,f,NA,NA,NA,2,6,"6,4,5,7,15,13,12,9,2,1,3,8,11,14,10"
15561,commdev-image-keyboard-response,242,499431,learnblock1,588.8999999999069,img/planet10_left.png,10,Community 3,NA,TRUE,f,f,NA,NA,NA,2,6,"6,4,5,7,15,13,12,9,2,1,3,8,11,14,10"
15561,commdev-image-keyboard-response,243,500684,learnblock1,624,img/planet8_left.png,8,Community 3,NA,TRUE,f,f,NA,NA,NA,2,6,"6,4,5,7,15,13,12,9,2,1,3,8,11,14,10"
15561,commdev-image-keyboard-response,244,501936,learnblock1,584.5,img/planet10_left.png,10,Community 3,NA,TRUE,f,f,NA,NA,NA,2,6,"6,4,5,7,15,13,12,9,2,1,3,8,11,14,10"
15561,commdev-image-keyboard-response,245,503187,learnblock1,498.60000000009313,img/planet3_left.png,3,Community 3,NA,TRUE,f,f,NA,NA,NA,2,6,"6,4,5,7,15,13,12,9,2,1,3,8,11,14,10"
15561,commdev-image-keyboard-response,246,504439,learnblock1,644.4000000003725,img/planet15_right.png,15,Community 1,NA,TRUE,j,j,NA,NA,NA,2,6,"6,4,5,7,15,13,12,9,2,1,3,8,11,14,10"
15561,commdev-image-keyboard-response,247,505691,learnblock1,683.5,img/planet4_left.png,4,Community 1,NA,TRUE,f,f,NA,NA,NA,2,6,"6,4,5,7,15,13,12,9,2,1,3,8,11,14,10"
15561,commdev-image-keyboard-response,248,506943,learnblock1,624.8999999999069,img/planet6_left.png,6,Community 1,NA,TRUE,f,f,NA,NA,NA,2,6,"6,4,5,7,15,13,12,9,2,1,3,8,11,14,10"
15561,commdev-image-keyboard-response,249,508194,learnblock1,585,img/planet5_right.png,5,Community 1,NA,TRUE,j,j,NA,NA,NA,2,6,"6,4,5,7,15,13,12,9,2,1,3,8,11,14,10"
15561,commdev-image-keyboard-response,250,509446,learnblock1,504.90000000037253,img/planet6_left.png,6,Community 1,NA,TRUE,f,f,NA,NA,NA,2,6,"6,4,5,7,15,13,12,9,2,1,3,8,11,14,10"
15561,commdev-image-keyboard-response,251,510700,learnblock1,749.8000000002794,img/planet15_right.png,15,Community 1,NA,TRUE,j,j,NA,NA,NA,2,6,"6,4,5,7,15,13,12,9,2,1,3,8,11,14,10"
15561,commdev-image-keyboard-response,252,511952,learnblock1,587.7999999998137,img/planet6_left.png,6,Community 1,NA,FALSE,j,f,NA,NA,NA,2,6,"6,4,5,7,15,13,12,9,2,1,3,8,11,14,10"
15561,commdev-image-keyboard-response,253,513206,learnblock1,657.3999999999069,img/planet7_left.png,7,Community 1,NA,TRUE,f,f,NA,NA,NA,2,6,"6,4,5,7,15,13,12,9,2,1,3,8,11,14,10"
15561,commdev-image-keyboard-response,254,514458,learnblock1,499.5,img/planet5_left.png,5,Community 1,NA,TRUE,f,f,NA,NA,NA,2,6,"6,4,5,7,15,13,12,9,2,1,3,8,11,14,10"
15561,commdev-image-keyboard-response,255,515709,learnblock1,554.3999999999069,img/planet15_left.png,15,Community 1,NA,TRUE,f,f,NA,NA,NA,2,6,"6,4,5,7,15,13,12,9,2,1,3,8,11,14,10"
15561,commdev-image-keyboard-response,256,516962,learnblock1,542.3999999999069,img/planet4_right.png,4,Community 1,NA,TRUE,j,j,NA,NA,NA,2,6,"6,4,5,7,15,13,12,9,2,1,3,8,11,14,10"
15561,commdev-image-keyboard-response,257,518214,learnblock1,529.3999999999069,img/planet15_left.png,15,Community 1,NA,TRUE,f,f,NA,NA,NA,2,6,"6,4,5,7,15,13,12,9,2,1,3,8,11,14,10"
15561,commdev-image-keyboard-response,258,519465,learnblock1,684,img/planet5_left.png,5,Community 1,NA,TRUE,f,f,NA,NA,NA,2,6,"6,4,5,7,15,13,12,9,2,1,3,8,11,14,10"
15561,commdev-image-keyboard-response,259,520717,learnblock1,578.6000000000931,img/planet6_right.png,6,Community 1,NA,TRUE,j,j,NA,NA,NA,2,6,"6,4,5,7,15,13,12,9,2,1,3,8,11,14,10"
15561,commdev-image-keyboard-response,260,521969,learnblock1,549.6999999997206,img/planet15_left.png,15,Community 1,NA,TRUE,f,f,NA,NA,NA,2,6,"6,4,5,7,15,13,12,9,2,1,3,8,11,14,10"
15561,commdev-image-keyboard-response,261,523221,learnblock1,584.5,img/planet6_right.png,6,Community 1,NA,TRUE,j,j,NA,NA,NA,2,6,"6,4,5,7,15,13,12,9,2,1,3,8,11,14,10"
15561,commdev-image-keyboard-response,262,524474,learnblock1,507.5,img/planet7_left.png,7,Community 1,NA,TRUE,f,f,NA,NA,NA,2,6,"6,4,5,7,15,13,12,9,2,1,3,8,11,14,10"
15561,commdev-image-keyboard-response,263,525725,learnblock1,781.8999999999069,img/planet13_left.png,13,Community 2,NA,TRUE,f,f,NA,NA,NA,2,6,"6,4,5,7,15,13,12,9,2,1,3,8,11,14,10"
15561,commdev-image-keyboard-response,264,526977,learnblock1,647.9000000003725,img/planet12_left.png,12,Community 2,NA,TRUE,f,f,NA,NA,NA,2,6,"6,4,5,7,15,13,12,9,2,1,3,8,11,14,10"
15561,commdev-image-keyboard-response,265,528230,learnblock1,543.8999999999069,img/planet2_right.png,2,Community 2,NA,TRUE,j,j,NA,NA,NA,2,6,"6,4,5,7,15,13,12,9,2,1,3,8,11,14,10"
15561,commdev-image-keyboard-response,266,529482,learnblock1,502.70000000018626,img/planet13_left.png,13,Community 2,NA,TRUE,f,f,NA,NA,NA,2,6,"6,4,5,7,15,13,12,9,2,1,3,8,11,14,10"
15561,commdev-image-keyboard-response,267,530733,learnblock1,334.3000000002794,img/planet12_right.png,12,Community 2,NA,FALSE,f,j,NA,NA,NA,2,6,"6,4,5,7,15,13,12,9,2,1,3,8,11,14,10"
15561,commdev-image-keyboard-response,268,531985,learnblock1,554.2000000001863,img/planet1_left.png,1,Community 2,NA,TRUE,f,f,NA,NA,NA,2,6,"6,4,5,7,15,13,12,9,2,1,3,8,11,14,10"
15561,commdev-image-keyboard-response,269,533238,learnblock1,455.5,img/planet13_right.png,13,Community 2,NA,TRUE,j,j,NA,NA,NA,2,6,"6,4,5,7,15,13,12,9,2,1,3,8,11,14,10"
15561,commdev-image-keyboard-response,270,534490,learnblock1,489.1999999997206,img/planet2_right.png,2,Community 2,NA,TRUE,j,j,NA,NA,NA,2,6,"6,4,5,7,15,13,12,9,2,1,3,8,11,14,10"
15561,commdev-image-keyboard-response,271,535741,learnblock1,474.39999999990687,img/planet9_left.png,9,Community 2,NA,TRUE,f,f,NA,NA,NA,2,6,"6,4,5,7,15,13,12,9,2,1,3,8,11,14,10"
15561,commdev-image-keyboard-response,272,536994,learnblock1,437.39999999990687,img/planet12_left.png,12,Community 2,NA,FALSE,j,f,NA,NA,NA,2,6,"6,4,5,7,15,13,12,9,2,1,3,8,11,14,10"
15561,commdev-image-keyboard-response,273,538246,learnblock1,644.6999999997206,img/planet9_left.png,9,Community 2,NA,TRUE,f,f,NA,NA,NA,2,6,"6,4,5,7,15,13,12,9,2,1,3,8,11,14,10"
15561,commdev-image-keyboard-response,274,539498,learnblock1,828.7000000001863,img/planet12_right.png,12,Community 2,NA,TRUE,j,j,NA,NA,NA,2,6,"6,4,5,7,15,13,12,9,2,1,3,8,11,14,10"
15561,commdev-image-keyboard-response,275,540750,learnblock1,572.8999999999069,img/planet1_left.png,1,Community 2,NA,TRUE,f,f,NA,NA,NA,2,6,"6,4,5,7,15,13,12,9,2,1,3,8,11,14,10"
15561,commdev-image-keyboard-response,276,542002,learnblock1,524.7000000001863,img/planet2_left.png,2,Community 2,NA,TRUE,f,f,NA,NA,NA,2,6,"6,4,5,7,15,13,12,9,2,1,3,8,11,14,10"
15561,commdev-image-keyboard-response,277,543255,learnblock1,674.8999999999069,img/planet9_left.png,9,Community 2,NA,TRUE,f,f,NA,NA,NA,2,6,"6,4,5,7,15,13,12,9,2,1,3,8,11,14,10"
15561,commdev-image-keyboard-response,278,544508,learnblock1,531.8999999999069,img/planet2_right.png,2,Community 2,NA,FALSE,f,j,NA,NA,NA,2,6,"6,4,5,7,15,13,12,9,2,1,3,8,11,14,10"
15561,commdev-image-keyboard-response,279,545760,learnblock1,766.6000000000931,img/planet9_right.png,9,Community 2,NA,FALSE,f,j,NA,NA,NA,2,6,"6,4,5,7,15,13,12,9,2,1,3,8,11,14,10"
15561,commdev-image-keyboard-response,280,547012,learnblock1,796,img/planet2_right.png,2,Community 2,NA,TRUE,j,j,NA,NA,NA,2,6,"6,4,5,7,15,13,12,9,2,1,3,8,11,14,10"
15561,commdev-image-keyboard-response,281,548264,learnblock1,803,img/planet13_right.png,13,Community 2,NA,TRUE,j,j,NA,NA,NA,2,6,"6,4,5,7,15,13,12,9,2,1,3,8,11,14,10"
15561,commdev-image-keyboard-response,282,549516,learnblock1,670,img/planet2_right.png,2,Community 2,NA,TRUE,j,j,NA,NA,NA,2,6,"6,4,5,7,15,13,12,9,2,1,3,8,11,14,10"
15561,commdev-image-keyboard-response,283,550768,learnblock1,null,img/planet9_right.png,9,Community 2,NA,FALSE,null,j,NA,NA,NA,2,6,"6,4,5,7,15,13,12,9,2,1,3,8,11,14,10"
15561,commdev-image-keyboard-response,284,552020,learnblock1,31.399999999906868,img/planet1_right.png,1,Community 2,NA,TRUE,j,j,NA,NA,NA,2,6,"6,4,5,7,15,13,12,9,2,1,3,8,11,14,10"
15561,commdev-image-keyboard-response,285,553273,learnblock1,576.1000000000931,img/planet9_left.png,9,Community 2,NA,TRUE,f,f,NA,NA,NA,2,6,"6,4,5,7,15,13,12,9,2,1,3,8,11,14,10"
15561,commdev-image-keyboard-response,286,554525,learnblock1,753.8000000002794,img/planet12_left.png,12,Community 2,NA,TRUE,f,f,NA,NA,NA,2,6,"6,4,5,7,15,13,12,9,2,1,3,8,11,14,10"
15561,commdev-image-keyboard-response,287,555776,learnblock1,552.1000000000931,img/planet1_right.png,1,Community 2,NA,FALSE,f,j,NA,NA,NA,2,6,"6,4,5,7,15,13,12,9,2,1,3,8,11,14,10"
15561,commdev-image-keyboard-response,288,557029,learnblock1,943.9000000003725,img/planet12_right.png,12,Community 2,NA,TRUE,j,j,NA,NA,NA,2,6,"6,4,5,7,15,13,12,9,2,1,3,8,11,14,10"
15561,commdev-image-keyboard-response,289,558280,learnblock1,912.3000000002794,img/planet13_left.png,13,Community 2,NA,TRUE,f,f,NA,NA,NA,2,6,"6,4,5,7,15,13,12,9,2,1,3,8,11,14,10"
15561,commdev-image-keyboard-response,290,559532,learnblock1,819.8999999999069,img/planet12_right.png,12,Community 2,NA,FALSE,f,j,NA,NA,NA,2,6,"6,4,5,7,15,13,12,9,2,1,3,8,11,14,10"
15561,commdev-image-keyboard-response,291,560784,learnblock1,706.3999999999069,img/planet9_right.png,9,Community 2,NA,TRUE,j,j,NA,NA,NA,2,6,"6,4,5,7,15,13,12,9,2,1,3,8,11,14,10"
15561,commdev-image-keyboard-response,292,562036,learnblock1,582.6000000000931,img/planet12_left.png,12,Community 2,NA,TRUE,f,f,NA,NA,NA,2,6,"6,4,5,7,15,13,12,9,2,1,3,8,11,14,10"
15561,commdev-image-keyboard-response,293,563289,learnblock1,750.8000000002794,img/planet2_left.png,2,Community 2,NA,TRUE,f,f,NA,NA,NA,2,6,"6,4,5,7,15,13,12,9,2,1,3,8,11,14,10"
15561,commdev-image-keyboard-response,294,564541,learnblock1,652.3999999999069,img/planet1_left.png,1,Community 2,NA,TRUE,f,f,NA,NA,NA,2,6,"6,4,5,7,15,13,12,9,2,1,3,8,11,14,10"
15561,commdev-image-keyboard-response,295,565794,learnblock1,557,img/planet2_right.png,2,Community 2,NA,TRUE,j,j,NA,NA,NA,2,6,"6,4,5,7,15,13,12,9,2,1,3,8,11,14,10"
15561,commdev-image-keyboard-response,296,567047,learnblock1,898.7999999998137,img/planet13_right.png,13,Community 2,NA,TRUE,j,j,NA,NA,NA,2,6,"6,4,5,7,15,13,12,9,2,1,3,8,11,14,10"
15561,commdev-image-keyboard-response,297,568299,learnblock1,657.1000000000931,img/planet12_left.png,12,Community 2,NA,TRUE,f,f,NA,NA,NA,2,6,"6,4,5,7,15,13,12,9,2,1,3,8,11,14,10"
15561,commdev-image-keyboard-response,298,569552,learnblock1,582.9000000003725,img/planet9_left.png,9,Community 2,NA,TRUE,f,f,NA,NA,NA,2,6,"6,4,5,7,15,13,12,9,2,1,3,8,11,14,10"
15561,commdev-image-keyboard-response,299,570804,learnblock1,609.5,img/planet2_left.png,2,Community 2,NA,TRUE,f,f,NA,NA,NA,2,6,"6,4,5,7,15,13,12,9,2,1,3,8,11,14,10"
15561,commdev-image-keyboard-response,300,572057,learnblock1,590.2999999998137,img/planet1_right.png,1,Community 2,NA,TRUE,j,j,NA,NA,NA,2,6,"6,4,5,7,15,13,12,9,2,1,3,8,11,14,10"
15561,commdev-image-keyboard-response,301,573310,learnblock1,594.5,img/planet13_right.png,13,Community 2,NA,TRUE,j,j,NA,NA,NA,2,6,"6,4,5,7,15,13,12,9,2,1,3,8,11,14,10"
15561,commdev-image-keyboard-response,302,574562,learnblock1,624.6999999997206,img/planet12_left.png,12,Community 2,NA,TRUE,f,f,NA,NA,NA,2,6,"6,4,5,7,15,13,12,9,2,1,3,8,11,14,10"
15561,commdev-image-keyboard-response,303,575814,learnblock1,563.2000000001863,img/planet13_left.png,13,Community 2,NA,TRUE,f,f,NA,NA,NA,2,6,"6,4,5,7,15,13,12,9,2,1,3,8,11,14,10"
15561,commdev-image-keyboard-response,304,577066,learnblock1,421.60000000009313,img/planet1_right.png,1,Community 2,NA,TRUE,j,j,NA,NA,NA,2,6,"6,4,5,7,15,13,12,9,2,1,3,8,11,14,10"
15561,commdev-image-keyboard-response,305,578323,learnblock1,642.5,img/planet12_left.png,12,Community 2,NA,TRUE,f,f,NA,NA,NA,2,6,"6,4,5,7,15,13,12,9,2,1,3,8,11,14,10"
15561,commdev-image-keyboard-response,306,579576,learnblock1,422.1999999997206,img/planet13_right.png,13,Community 2,NA,TRUE,j,j,NA,NA,NA,2,6,"6,4,5,7,15,13,12,9,2,1,3,8,11,14,10"
15561,commdev-image-keyboard-response,307,580829,learnblock1,306.79999999981374,img/planet2_right.png,2,Community 2,NA,FALSE,f,j,NA,NA,NA,2,6,"6,4,5,7,15,13,12,9,2,1,3,8,11,14,10"
15561,commdev-image-keyboard-response,308,582081,learnblock1,732.7999999998137,img/planet9_left.png,9,Community 2,NA,TRUE,f,f,NA,NA,NA,2,6,"6,4,5,7,15,13,12,9,2,1,3,8,11,14,10"
15561,commdev-image-keyboard-response,309,583334,learnblock1,996.3999999999069,img/planet2_right.png,2,Community 2,NA,TRUE,j,j,NA,NA,NA,2,6,"6,4,5,7,15,13,12,9,2,1,3,8,11,14,10"
15561,commdev-image-keyboard-response,310,584586,learnblock1,814.8000000002794,img/planet9_left.png,9,Community 2,NA,TRUE,f,f,NA,NA,NA,2,6,"6,4,5,7,15,13,12,9,2,1,3,8,11,14,10"
15561,commdev-image-keyboard-response,311,585838,learnblock1,853.5,img/planet12_left.png,12,Community 2,NA,TRUE,f,f,NA,NA,NA,2,6,"6,4,5,7,15,13,12,9,2,1,3,8,11,14,10"
15561,commdev-image-keyboard-response,312,587090,learnblock1,751.3999999999069,img/planet2_left.png,2,Community 2,NA,TRUE,f,f,NA,NA,NA,2,6,"6,4,5,7,15,13,12,9,2,1,3,8,11,14,10"
15561,commdev-image-keyboard-response,313,588342,learnblock1,813.5,img/planet9_left.png,9,Community 2,NA,TRUE,f,f,NA,NA,NA,2,6,"6,4,5,7,15,13,12,9,2,1,3,8,11,14,10"
15561,commdev-image-keyboard-response,314,589594,learnblock1,631.1000000000931,img/planet8_right.png,8,Community 3,NA,TRUE,j,j,NA,NA,NA,2,6,"6,4,5,7,15,13,12,9,2,1,3,8,11,14,10"
15561,commdev-image-keyboard-response,315,590846,learnblock1,911.9000000003725,img/planet11_left.png,11,Community 3,NA,TRUE,f,f,NA,NA,NA,2,6,"6,4,5,7,15,13,12,9,2,1,3,8,11,14,10"
15561,commdev-image-keyboard-response,316,592097,learnblock1,null,img/planet8_left.png,8,Community 3,NA,FALSE,null,f,NA,NA,NA,2,6,"6,4,5,7,15,13,12,9,2,1,3,8,11,14,10"
15561,commdev-image-keyboard-response,317,593349,learnblock1,296.70000000018626,img/planet11_right.png,11,Community 3,NA,FALSE,f,j,NA,NA,NA,2,6,"6,4,5,7,15,13,12,9,2,1,3,8,11,14,10"
15561,commdev-image-keyboard-response,318,594600,learnblock1,1188.7000000001863,img/planet14_left.png,14,Community 3,NA,FALSE,j,f,NA,NA,NA,2,6,"6,4,5,7,15,13,12,9,2,1,3,8,11,14,10"
15561,commdev-image-keyboard-response,319,595852,learnblock1,822.4000000003725,img/planet10_right.png,10,Community 3,NA,TRUE,j,j,NA,NA,NA,2,6,"6,4,5,7,15,13,12,9,2,1,3,8,11,14,10"
15561,commdev-image-keyboard-response,320,597104,learnblock1,815.2000000001863,img/planet8_right.png,8,Community 3,NA,TRUE,j,j,NA,NA,NA,2,6,"6,4,5,7,15,13,12,9,2,1,3,8,11,14,10"
15561,commdev-image-keyboard-response,321,598356,learnblock1,625.2999999998137,img/planet10_right.png,10,Community 3,NA,TRUE,j,j,NA,NA,NA,2,6,"6,4,5,7,15,13,12,9,2,1,3,8,11,14,10"
15561,commdev-image-keyboard-response,322,599608,learnblock1,638.6999999997206,img/planet8_right.png,8,Community 3,NA,TRUE,j,j,NA,NA,NA,2,6,"6,4,5,7,15,13,12,9,2,1,3,8,11,14,10"
15561,commdev-image-keyboard-response,323,600860,learnblock1,1028.5999999996275,img/planet10_right.png,10,Community 3,NA,TRUE,j,j,NA,NA,NA,2,6,"6,4,5,7,15,13,12,9,2,1,3,8,11,14,10"
15561,commdev-image-keyboard-response,324,602111,learnblock1,995.2999999998137,img/planet14_right.png,14,Community 3,NA,TRUE,j,j,NA,NA,NA,2,6,"6,4,5,7,15,13,12,9,2,1,3,8,11,14,10"
15561,commdev-image-keyboard-response,325,603363,learnblock1,711.0999999996275,img/planet10_left.png,10,Community 3,NA,TRUE,f,f,NA,NA,NA,2,6,"6,4,5,7,15,13,12,9,2,1,3,8,11,14,10"
15561,commdev-image-keyboard-response,326,604615,learnblock1,948.0999999996275,img/planet3_right.png,3,Community 3,NA,TRUE,j,j,NA,NA,NA,2,6,"6,4,5,7,15,13,12,9,2,1,3,8,11,14,10"
15561,commdev-image-keyboard-response,327,605868,learnblock1,1157.3999999999069,img/planet14_right.png,14,Community 3,NA,TRUE,j,j,NA,NA,NA,2,6,"6,4,5,7,15,13,12,9,2,1,3,8,11,14,10"
15561,commdev-image-keyboard-response,328,607121,learnblock1,980.7000000001863,img/planet8_left.png,8,Community 3,NA,FALSE,j,f,NA,NA,NA,2,6,"6,4,5,7,15,13,12,9,2,1,3,8,11,14,10"
15561,commdev-image-keyboard-response,329,608372,learnblock1,1177.2000000001863,img/planet9_right.png,9,Community 2,NA,FALSE,f,j,NA,NA,NA,2,6,"6,4,5,7,15,13,12,9,2,1,3,8,11,14,10"
15561,commdev-image-keyboard-response,330,609624,learnblock1,575.1999999997206,img/planet1_right.png,1,Community 2,NA,TRUE,j,j,NA,NA,NA,2,6,"6,4,5,7,15,13,12,9,2,1,3,8,11,14,10"
15561,commdev-image-keyboard-response,331,610878,learnblock1,707.6999999997206,img/planet12_left.png,12,Community 2,NA,TRUE,f,f,NA,NA,NA,2,6,"6,4,5,7,15,13,12,9,2,1,3,8,11,14,10"
15561,commdev-image-keyboard-response,332,612130,learnblock1,833.7000000001863,img/planet1_left.png,1,Community 2,NA,TRUE,f,f,NA,NA,NA,2,6,"6,4,5,7,15,13,12,9,2,1,3,8,11,14,10"
15561,commdev-image-keyboard-response,333,613382,learnblock1,544.6000000000931,img/planet12_left.png,12,Community 2,NA,TRUE,f,f,NA,NA,NA,2,6,"6,4,5,7,15,13,12,9,2,1,3,8,11,14,10"
15561,commdev-image-keyboard-response,334,614634,learnblock1,863.6000000000931,img/planet2_left.png,2,Community 2,NA,TRUE,f,f,NA,NA,NA,2,6,"6,4,5,7,15,13,12,9,2,1,3,8,11,14,10"
15561,commdev-image-keyboard-response,335,615894,learnblock1,571.7999999998137,img/planet12_left.png,12,Community 2,NA,TRUE,f,f,NA,NA,NA,2,6,"6,4,5,7,15,13,12,9,2,1,3,8,11,14,10"
15561,commdev-image-keyboard-response,336,617147,learnblock1,513.7000000001863,img/planet13_left.png,13,Community 2,NA,TRUE,f,f,NA,NA,NA,2,6,"6,4,5,7,15,13,12,9,2,1,3,8,11,14,10"
15561,commdev-image-keyboard-response,337,618399,learnblock1,564.8999999999069,img/planet1_right.png,1,Community 2,NA,TRUE,j,j,NA,NA,NA,2,6,"6,4,5,7,15,13,12,9,2,1,3,8,11,14,10"
15561,commdev-image-keyboard-response,338,619651,learnblock1,589.3999999999069,img/planet13_left.png,13,Community 2,NA,TRUE,f,f,NA,NA,NA,2,6,"6,4,5,7,15,13,12,9,2,1,3,8,11,14,10"
15561,commdev-image-keyboard-response,339,620909,learnblock1,627,img/planet7_left.png,7,Community 1,NA,TRUE,f,f,NA,NA,NA,2,6,"6,4,5,7,15,13,12,9,2,1,3,8,11,14,10"
15561,commdev-image-keyboard-response,340,622161,learnblock1,558.7999999998137,img/planet13_right.png,13,Community 2,NA,TRUE,j,j,NA,NA,NA,2,6,"6,4,5,7,15,13,12,9,2,1,3,8,11,14,10"
15561,commdev-image-keyboard-response,341,623414,learnblock1,562.7999999998137,img/planet7_right.png,7,Community 1,NA,TRUE,j,j,NA,NA,NA,2,6,"6,4,5,7,15,13,12,9,2,1,3,8,11,14,10"
15561,commdev-image-keyboard-response,342,624665,learnblock1,489.39999999990687,img/planet5_left.png,5,Community 1,NA,TRUE,f,f,NA,NA,NA,2,6,"6,4,5,7,15,13,12,9,2,1,3,8,11,14,10"
15561,commdev-image-keyboard-response,343,625916,learnblock1,526.5,img/planet15_right.png,15,Community 1,NA,TRUE,j,j,NA,NA,NA,2,6,"6,4,5,7,15,13,12,9,2,1,3,8,11,14,10"
15561,commdev-image-keyboard-response,344,627169,learnblock1,276.89999999990687,img/planet3_left.png,3,Community 3,NA,TRUE,f,f,NA,NA,NA,2,6,"6,4,5,7,15,13,12,9,2,1,3,8,11,14,10"
15561,commdev-image-keyboard-response,345,628421,learnblock1,346.89999999990687,img/planet10_left.png,10,Community 3,NA,FALSE,j,f,NA,NA,NA,2,6,"6,4,5,7,15,13,12,9,2,1,3,8,11,14,10"
15561,commdev-image-keyboard-response,346,629673,learnblock1,491,img/planet8_right.png,8,Community 3,NA,TRUE,j,j,NA,NA,NA,2,6,"6,4,5,7,15,13,12,9,2,1,3,8,11,14,10"
15561,commdev-image-keyboard-response,347,630925,learnblock1,571.5,img/planet9_right.png,9,Community 2,NA,TRUE,j,j,NA,NA,NA,2,6,"6,4,5,7,15,13,12,9,2,1,3,8,11,14,10"
15561,commdev-image-keyboard-response,351,1274424,learnblock2,788.0999999996275,img/planet15_left.png,15,Community 1,NA,TRUE,f,f,NA,NA,NA,2,6,"6,4,5,7,15,13,12,9,2,1,3,8,11,14,10"
15561,commdev-image-keyboard-response,352,1275676,learnblock2,622.3999999999069,img/planet6_right.png,6,Community 1,NA,TRUE,j,j,NA,NA,NA,2,6,"6,4,5,7,15,13,12,9,2,1,3,8,11,14,10"
15561,commdev-image-keyboard-response,353,1276928,learnblock2,560.0999999996275,img/planet15_left.png,15,Community 1,NA,TRUE,f,f,NA,NA,NA,2,6,"6,4,5,7,15,13,12,9,2,1,3,8,11,14,10"
15561,commdev-image-keyboard-response,354,1278180,learnblock2,540.2000000001863,img/planet5_left.png,5,Community 1,NA,FALSE,j,f,NA,NA,NA,2,6,"6,4,5,7,15,13,12,9,2,1,3,8,11,14,10"
15561,commdev-image-keyboard-response,355,1279433,learnblock2,795.1000000005588,img/planet6_right.png,6,Community 1,NA,TRUE,j,j,NA,NA,NA,2,6,"6,4,5,7,15,13,12,9,2,1,3,8,11,14,10"
15561,commdev-image-keyboard-response,356,1280684,learnblock2,771.2999999998137,img/planet15_right.png,15,Community 1,NA,TRUE,j,j,NA,NA,NA,2,6,"6,4,5,7,15,13,12,9,2,1,3,8,11,14,10"
15561,commdev-image-keyboard-response,357,1281936,learnblock2,606,img/planet6_right.png,6,Community 1,NA,TRUE,j,j,NA,NA,NA,2,6,"6,4,5,7,15,13,12,9,2,1,3,8,11,14,10"
15561,commdev-image-keyboard-response,358,1283188,learnblock2,627.7000000001863,img/planet7_right.png,7,Community 1,NA,TRUE,j,j,NA,NA,NA,2,6,"6,4,5,7,15,13,12,9,2,1,3,8,11,14,10"
15561,commdev-image-keyboard-response,359,1284439,learnblock2,698.9000000003725,img/planet6_left.png,6,Community 1,NA,TRUE,f,f,NA,NA,NA,2,6,"6,4,5,7,15,13,12,9,2,1,3,8,11,14,10"
15561,commdev-image-keyboard-response,360,1285692,learnblock2,732.8000000007451,img/planet4_left.png,4,Community 1,NA,TRUE,f,f,NA,NA,NA,2,6,"6,4,5,7,15,13,12,9,2,1,3,8,11,14,10"
15561,commdev-image-keyboard-response,361,1286944,learnblock2,831.2999999998137,img/planet7_left.png,7,Community 1,NA,TRUE,f,f,NA,NA,NA,2,6,"6,4,5,7,15,13,12,9,2,1,3,8,11,14,10"
15561,commdev-image-keyboard-response,362,1288196,learnblock2,638.0999999996275,img/planet6_left.png,6,Community 1,NA,TRUE,f,f,NA,NA,NA,2,6,"6,4,5,7,15,13,12,9,2,1,3,8,11,14,10"
15561,commdev-image-keyboard-response,363,1289448,learnblock2,707.6000000005588,img/planet5_right.png,5,Community 1,NA,TRUE,j,j,NA,NA,NA,2,6,"6,4,5,7,15,13,12,9,2,1,3,8,11,14,10"
15561,commdev-image-keyboard-response,364,1290699,learnblock2,759.5999999996275,img/planet15_left.png,15,Community 1,NA,TRUE,f,f,NA,NA,NA,2,6,"6,4,5,7,15,13,12,9,2,1,3,8,11,14,10"
15561,commdev-image-keyboard-response,365,1291951,learnblock2,613.2999999998137,img/planet3_right.png,3,Community 3,NA,TRUE,j,j,NA,NA,NA,2,6,"6,4,5,7,15,13,12,9,2,1,3,8,11,14,10"
15561,commdev-image-keyboard-response,366,1293203,learnblock2,809.4000000003725,img/planet14_right.png,14,Community 3,NA,FALSE,f,j,NA,NA,NA,2,6,"6,4,5,7,15,13,12,9,2,1,3,8,11,14,10"
15561,commdev-image-keyboard-response,367,1294455,learnblock2,824.0999999996275,img/planet10_left.png,10,Community 3,NA,TRUE,f,f,NA,NA,NA,2,6,"6,4,5,7,15,13,12,9,2,1,3,8,11,14,10"
15561,commdev-image-keyboard-response,368,1295708,learnblock2,734.7000000001863,img/planet8_left.png,8,Community 3,NA,TRUE,f,f,NA,NA,NA,2,6,"6,4,5,7,15,13,12,9,2,1,3,8,11,14,10"
15561,commdev-image-keyboard-response,369,1296961,learnblock2,675.1000000005588,img/planet10_left.png,10,Community 3,NA,TRUE,f,f,NA,NA,NA,2,6,"6,4,5,7,15,13,12,9,2,1,3,8,11,14,10"
15561,commdev-image-keyboard-response,370,1298214,learnblock2,735.4000000003725,img/planet8_left.png,8,Community 3,NA,TRUE,f,f,NA,NA,NA,2,6,"6,4,5,7,15,13,12,9,2,1,3,8,11,14,10"
15561,commdev-image-keyboard-response,371,1299466,learnblock2,642.5,img/planet14_left.png,14,Community 3,NA,TRUE,f,f,NA,NA,NA,2,6,"6,4,5,7,15,13,12,9,2,1,3,8,11,14,10"
15561,commdev-image-keyboard-response,372,1300718,learnblock2,615.2000000001863,img/planet11_left.png,11,Community 3,NA,TRUE,f,f,NA,NA,NA,2,6,"6,4,5,7,15,13,12,9,2,1,3,8,11,14,10"
15561,commdev-image-keyboard-response,373,1301968,learnblock2,574,img/planet8_right.png,8,Community 3,NA,TRUE,j,j,NA,NA,NA,2,6,"6,4,5,7,15,13,12,9,2,1,3,8,11,14,10"
15561,commdev-image-keyboard-response,374,1303220,learnblock2,612.1000000005588,img/planet9_right.png,9,Community 2,NA,TRUE,j,j,NA,NA,NA,2,6,"6,4,5,7,15,13,12,9,2,1,3,8,11,14,10"
15561,commdev-image-keyboard-response,375,1304472,learnblock2,606.4000000003725,img/planet1_right.png,1,Community 2,NA,TRUE,j,j,NA,NA,NA,2,6,"6,4,5,7,15,13,12,9,2,1,3,8,11,14,10"
15561,commdev-image-keyboard-response,376,1305723,learnblock2,710.3000000007451,img/planet12_right.png,12,Community 2,NA,TRUE,j,j,NA,NA,NA,2,6,"6,4,5,7,15,13,12,9,2,1,3,8,11,14,10"
15561,commdev-image-keyboard-response,377,1306975,learnblock2,601.9000000003725,img/planet2_left.png,2,Community 2,NA,TRUE,f,f,NA,NA,NA,2,6,"6,4,5,7,15,13,12,9,2,1,3,8,11,14,10"
15561,commdev-image-keyboard-response,378,1308226,learnblock2,681.5,img/planet1_left.png,1,Community 2,NA,TRUE,f,f,NA,NA,NA,2,6,"6,4,5,7,15,13,12,9,2,1,3,8,11,14,10"
15561,commdev-image-keyboard-response,379,1309478,learnblock2,612.1999999992549,img/planet12_left.png,12,Community 2,NA,TRUE,f,f,NA,NA,NA,2,6,"6,4,5,7,15,13,12,9,2,1,3,8,11,14,10"
15561,commdev-image-keyboard-response,380,1310730,learnblock2,545.0999999996275,img/planet2_right.png,2,Community 2,NA,TRUE,j,j,NA,NA,NA,2,6,"6,4,5,7,15,13,12,9,2,1,3,8,11,14,10"
15561,commdev-image-keyboard-response,381,1311981,learnblock2,633.2000000001863,img/planet12_left.png,12,Community 2,NA,TRUE,f,f,NA,NA,NA,2,6,"6,4,5,7,15,13,12,9,2,1,3,8,11,14,10"
15561,commdev-image-keyboard-response,382,1313233,learnblock2,507.6000000005588,img/planet1_left.png,1,Community 2,NA,TRUE,f,f,NA,NA,NA,2,6,"6,4,5,7,15,13,12,9,2,1,3,8,11,14,10"
15561,commdev-image-keyboard-response,383,1314486,learnblock2,625.2000000001863,img/planet12_left.png,12,Community 2,NA,TRUE,f,f,NA,NA,NA,2,6,"6,4,5,7,15,13,12,9,2,1,3,8,11,14,10"
15561,commdev-image-keyboard-response,384,1315738,learnblock2,687.9000000003725,img/planet9_left.png,9,Community 2,NA,TRUE,f,f,NA,NA,NA,2,6,"6,4,5,7,15,13,12,9,2,1,3,8,11,14,10"
15561,commdev-image-keyboard-response,385,1316989,learnblock2,486.20000000018626,img/planet1_left.png,1,Community 2,NA,TRUE,f,f,NA,NA,NA,2,6,"6,4,5,7,15,13,12,9,2,1,3,8,11,14,10"
15561,commdev-image-keyboard-response,386,1318241,learnblock2,628.2999999998137,img/planet12_right.png,12,Community 2,NA,TRUE,j,j,NA,NA,NA,2,6,"6,4,5,7,15,13,12,9,2,1,3,8,11,14,10"
15561,commdev-image-keyboard-response,387,1319493,learnblock2,734.2000000001863,img/planet1_left.png,1,Community 2,NA,TRUE,f,f,NA,NA,NA,2,6,"6,4,5,7,15,13,12,9,2,1,3,8,11,14,10"
15561,commdev-image-keyboard-response,388,1320745,learnblock2,664.2999999998137,img/planet9_left.png,9,Community 2,NA,TRUE,f,f,NA,NA,NA,2,6,"6,4,5,7,15,13,12,9,2,1,3,8,11,14,10"
15561,commdev-image-keyboard-response,389,1321998,learnblock2,486.1000000005588,img/planet2_left.png,2,Community 2,NA,TRUE,f,f,NA,NA,NA,2,6,"6,4,5,7,15,13,12,9,2,1,3,8,11,14,10"
15561,commdev-image-keyboard-response,390,1323251,learnblock2,715.7000000001863,img/planet13_right.png,13,Community 2,NA,TRUE,j,j,NA,NA,NA,2,6,"6,4,5,7,15,13,12,9,2,1,3,8,11,14,10"
15561,commdev-image-keyboard-response,391,1324504,learnblock2,596.5,img/planet2_left.png,2,Community 2,NA,TRUE,f,f,NA,NA,NA,2,6,"6,4,5,7,15,13,12,9,2,1,3,8,11,14,10"
15561,commdev-image-keyboard-response,392,1325755,learnblock2,560.4000000003725,img/planet1_left.png,1,Community 2,NA,TRUE,f,f,NA,NA,NA,2,6,"6,4,5,7,15,13,12,9,2,1,3,8,11,14,10"
15561,commdev-image-keyboard-response,393,1327006,learnblock2,548,img/planet9_right.png,9,Community 2,NA,TRUE,j,j,NA,NA,NA,2,6,"6,4,5,7,15,13,12,9,2,1,3,8,11,14,10"
15561,commdev-image-keyboard-response,394,1328259,learnblock2,702.0999999996275,img/planet1_right.png,1,Community 2,NA,FALSE,f,j,NA,NA,NA,2,6,"6,4,5,7,15,13,12,9,2,1,3,8,11,14,10"
15561,commdev-image-keyboard-response,395,1329512,learnblock2,507.70000000018626,img/planet13_left.png,13,Community 2,NA,TRUE,f,f,NA,NA,NA,2,6,"6,4,5,7,15,13,12,9,2,1,3,8,11,14,10"
15561,commdev-image-keyboard-response,396,1330763,learnblock2,566.5999999996275,img/planet1_right.png,1,Community 2,NA,TRUE,j,j,NA,NA,NA,2,6,"6,4,5,7,15,13,12,9,2,1,3,8,11,14,10"
15561,commdev-image-keyboard-response,397,1332015,learnblock2,1194.9000000003725,img/planet12_right.png,12,Community 2,NA,TRUE,j,j,NA,NA,NA,2,6,"6,4,5,7,15,13,12,9,2,1,3,8,11,14,10"
15561,commdev-image-keyboard-response,398,1333278,learnblock2,850.7999999998137,img/planet13_left.png,13,Community 2,NA,TRUE,f,f,NA,NA,NA,2,6,"6,4,5,7,15,13,12,9,2,1,3,8,11,14,10"
15561,commdev-image-keyboard-response,399,1334532,learnblock2,954.5,img/planet2_right.png,2,Community 2,NA,TRUE,j,j,NA,NA,NA,2,6,"6,4,5,7,15,13,12,9,2,1,3,8,11,14,10"
15561,commdev-image-keyboard-response,400,1335785,learnblock2,898.0999999996275,img/planet12_left.png,12,Community 2,NA,TRUE,f,f,NA,NA,NA,2,6,"6,4,5,7,15,13,12,9,2,1,3,8,11,14,10"
15561,commdev-image-keyboard-response,401,1337036,learnblock2,778.6999999992549,img/planet2_right.png,2,Community 2,NA,TRUE,j,j,NA,NA,NA,2,6,"6,4,5,7,15,13,12,9,2,1,3,8,11,14,10"
15561,commdev-image-keyboard-response,402,1338289,learnblock2,758.5,img/planet12_right.png,12,Community 2,NA,FALSE,f,j,NA,NA,NA,2,6,"6,4,5,7,15,13,12,9,2,1,3,8,11,14,10"
15561,commdev-image-keyboard-response,403,1339541,learnblock2,867.5,img/planet2_left.png,2,Community 2,NA,TRUE,f,f,NA,NA,NA,2,6,"6,4,5,7,15,13,12,9,2,1,3,8,11,14,10"
15561,commdev-image-keyboard-response,404,1340794,learnblock2,820.7999999998137,img/planet9_left.png,9,Community 2,NA,TRUE,f,f,NA,NA,NA,2,6,"6,4,5,7,15,13,12,9,2,1,3,8,11,14,10"
15561,commdev-image-keyboard-response,405,1342056,learnblock2,506.09999999962747,img/planet12_left.png,12,Community 2,NA,TRUE,f,f,NA,NA,NA,2,6,"6,4,5,7,15,13,12,9,2,1,3,8,11,14,10"
15561,commdev-image-keyboard-response,406,1343308,learnblock2,459.30000000074506,img/planet13_right.png,13,Community 2,NA,TRUE,j,j,NA,NA,NA,2,6,"6,4,5,7,15,13,12,9,2,1,3,8,11,14,10"
15561,commdev-image-keyboard-response,407,1344561,learnblock2,543.5,img/planet2_right.png,2,Community 2,NA,TRUE,j,j,NA,NA,NA,2,6,"6,4,5,7,15,13,12,9,2,1,3,8,11,14,10"
15561,commdev-image-keyboard-response,408,1345813,learnblock2,523.9000000003725,img/planet13_right.png,13,Community 2,NA,TRUE,j,j,NA,NA,NA,2,6,"6,4,5,7,15,13,12,9,2,1,3,8,11,14,10"
15561,commdev-image-keyboard-response,409,1347079,learnblock2,516,img/planet2_left.png,2,Community 2,NA,TRUE,f,f,NA,NA,NA,2,6,"6,4,5,7,15,13,12,9,2,1,3,8,11,14,10"
15561,commdev-image-keyboard-response,410,1348331,learnblock2,566.0999999996275,img/planet13_right.png,13,Community 2,NA,TRUE,j,j,NA,NA,NA,2,6,"6,4,5,7,15,13,12,9,2,1,3,8,11,14,10"
15561,commdev-image-keyboard-response,411,1349585,learnblock2,539.5,img/planet1_right.png,1,Community 2,NA,TRUE,j,j,NA,NA,NA,2,6,"6,4,5,7,15,13,12,9,2,1,3,8,11,14,10"
15561,commdev-image-keyboard-response,412,1350837,learnblock2,803.2999999998137,img/planet13_left.png,13,Community 2,NA,TRUE,f,f,NA,NA,NA,2,6,"6,4,5,7,15,13,12,9,2,1,3,8,11,14,10"
15561,commdev-image-keyboard-response,413,1352089,learnblock2,663.0999999996275,img/planet2_right.png,2,Community 2,NA,TRUE,j,j,NA,NA,NA,2,6,"6,4,5,7,15,13,12,9,2,1,3,8,11,14,10"
15561,commdev-image-keyboard-response,414,1353342,learnblock2,618.6000000005588,img/planet1_left.png,1,Community 2,NA,TRUE,f,f,NA,NA,NA,2,6,"6,4,5,7,15,13,12,9,2,1,3,8,11,14,10"
15561,commdev-image-keyboard-response,415,1354599,learnblock2,539.5,img/planet13_left.png,13,Community 2,NA,TRUE,f,f,NA,NA,NA,2,6,"6,4,5,7,15,13,12,9,2,1,3,8,11,14,10"
15561,commdev-image-keyboard-response,416,1355852,learnblock2,543.5,img/planet1_left.png,1,Community 2,NA,TRUE,f,f,NA,NA,NA,2,6,"6,4,5,7,15,13,12,9,2,1,3,8,11,14,10"
15561,commdev-image-keyboard-response,417,1357104,learnblock2,534.2999999998137,img/planet2_right.png,2,Community 2,NA,TRUE,j,j,NA,NA,NA,2,6,"6,4,5,7,15,13,12,9,2,1,3,8,11,14,10"
15561,commdev-image-keyboard-response,418,1358356,learnblock2,681,img/planet12_right.png,12,Community 2,NA,TRUE,j,j,NA,NA,NA,2,6,"6,4,5,7,15,13,12,9,2,1,3,8,11,14,10"
15561,commdev-image-keyboard-response,419,1359609,learnblock2,537.4000000003725,img/planet1_left.png,1,Community 2,NA,TRUE,f,f,NA,NA,NA,2,6,"6,4,5,7,15,13,12,9,2,1,3,8,11,14,10"
15561,commdev-image-keyboard-response,420,1360862,learnblock2,514.8000000007451,img/planet2_left.png,2,Community 2,NA,TRUE,f,f,NA,NA,NA,2,6,"6,4,5,7,15,13,12,9,2,1,3,8,11,14,10"
15561,commdev-image-keyboard-response,421,1362116,learnblock2,523.9000000003725,img/planet1_left.png,1,Community 2,NA,TRUE,f,f,NA,NA,NA,2,6,"6,4,5,7,15,13,12,9,2,1,3,8,11,14,10"
15561,commdev-image-keyboard-response,422,1363370,learnblock2,745.5999999996275,img/planet13_right.png,13,Community 2,NA,TRUE,j,j,NA,NA,NA,2,6,"6,4,5,7,15,13,12,9,2,1,3,8,11,14,10"
15561,commdev-image-keyboard-response,423,1364622,learnblock2,701.7000000001863,img/planet12_right.png,12,Community 2,NA,TRUE,j,j,NA,NA,NA,2,6,"6,4,5,7,15,13,12,9,2,1,3,8,11,14,10"
15561,commdev-image-keyboard-response,424,1365874,learnblock2,585.2000000001863,img/planet2_right.png,2,Community 2,NA,TRUE,j,j,NA,NA,NA,2,6,"6,4,5,7,15,13,12,9,2,1,3,8,11,14,10"
15561,commdev-image-keyboard-response,425,1367126,learnblock2,477.20000000018626,img/planet12_left.png,12,Community 2,NA,TRUE,f,f,NA,NA,NA,2,6,"6,4,5,7,15,13,12,9,2,1,3,8,11,14,10"
15561,commdev-image-keyboard-response,426,1368379,learnblock2,630.2000000001863,img/planet13_left.png,13,Community 2,NA,FALSE,j,f,NA,NA,NA,2,6,"6,4,5,7,15,13,12,9,2,1,3,8,11,14,10"
15561,commdev-image-keyboard-response,427,1369632,learnblock2,708.7000000001863,img/planet1_left.png,1,Community 2,NA,TRUE,f,f,NA,NA,NA,2,6,"6,4,5,7,15,13,12,9,2,1,3,8,11,14,10"
15561,commdev-image-keyboard-response,428,1370885,learnblock2,525.9000000003725,img/planet13_right.png,13,Community 2,NA,TRUE,j,j,NA,NA,NA,2,6,"6,4,5,7,15,13,12,9,2,1,3,8,11,14,10"
15561,commdev-image-keyboard-response,429,1372139,learnblock2,523.8000000007451,img/planet12_left.png,12,Community 2,NA,TRUE,f,f,NA,NA,NA,2,6,"6,4,5,7,15,13,12,9,2,1,3,8,11,14,10"
15561,commdev-image-keyboard-response,430,1373391,learnblock2,688.2000000001863,img/planet9_left.png,9,Community 2,NA,TRUE,f,f,NA,NA,NA,2,6,"6,4,5,7,15,13,12,9,2,1,3,8,11,14,10"
15561,commdev-image-keyboard-response,431,1374645,learnblock2,565.7999999998137,img/planet1_left.png,1,Community 2,NA,TRUE,f,f,NA,NA,NA,2,6,"6,4,5,7,15,13,12,9,2,1,3,8,11,14,10"
15561,commdev-image-keyboard-response,432,1375898,learnblock2,556.5,img/planet12_right.png,12,Community 2,NA,TRUE,j,j,NA,NA,NA,2,6,"6,4,5,7,15,13,12,9,2,1,3,8,11,14,10"
15561,commdev-image-keyboard-response,433,1377154,learnblock2,640.7999999998137,img/planet2_right.png,2,Community 2,NA,TRUE,j,j,NA,NA,NA,2,6,"6,4,5,7,15,13,12,9,2,1,3,8,11,14,10"
15561,commdev-image-keyboard-response,434,1378407,learnblock2,537.7999999998137,img/planet13_right.png,13,Community 2,NA,TRUE,j,j,NA,NA,NA,2,6,"6,4,5,7,15,13,12,9,2,1,3,8,11,14,10"
15561,commdev-image-keyboard-response,435,1379659,learnblock2,513.5,img/planet1_right.png,1,Community 2,NA,TRUE,j,j,NA,NA,NA,2,6,"6,4,5,7,15,13,12,9,2,1,3,8,11,14,10"
15561,commdev-image-keyboard-response,436,1380911,learnblock2,458.70000000018626,img/planet12_left.png,12,Community 2,NA,TRUE,f,f,NA,NA,NA,2,6,"6,4,5,7,15,13,12,9,2,1,3,8,11,14,10"
15561,commdev-image-keyboard-response,437,1382163,learnblock2,409.70000000018626,img/planet13_right.png,13,Community 2,NA,TRUE,j,j,NA,NA,NA,2,6,"6,4,5,7,15,13,12,9,2,1,3,8,11,14,10"
15561,commdev-image-keyboard-response,438,1383415,learnblock2,705.6999999992549,img/planet7_left.png,7,Community 1,NA,TRUE,f,f,NA,NA,NA,2,6,"6,4,5,7,15,13,12,9,2,1,3,8,11,14,10"
15561,commdev-image-keyboard-response,439,1384666,learnblock2,926.1999999992549,img/planet13_left.png,13,Community 2,NA,TRUE,f,f,NA,NA,NA,2,6,"6,4,5,7,15,13,12,9,2,1,3,8,11,14,10"
15561,commdev-image-keyboard-response,440,1385918,learnblock2,514.4000000003725,img/planet7_left.png,7,Community 1,NA,TRUE,f,f,NA,NA,NA,2,6,"6,4,5,7,15,13,12,9,2,1,3,8,11,14,10"
15561,commdev-image-keyboard-response,441,1387170,learnblock2,349.79999999981374,img/planet4_left.png,4,Community 1,NA,TRUE,f,f,NA,NA,NA,2,6,"6,4,5,7,15,13,12,9,2,1,3,8,11,14,10"
15561,commdev-image-keyboard-response,442,1388422,learnblock2,624.6000000005588,img/planet7_left.png,7,Community 1,NA,TRUE,f,f,NA,NA,NA,2,6,"6,4,5,7,15,13,12,9,2,1,3,8,11,14,10"
15561,commdev-image-keyboard-response,443,1389674,learnblock2,553.2999999998137,img/planet4_right.png,4,Community 1,NA,TRUE,j,j,NA,NA,NA,2,6,"6,4,5,7,15,13,12,9,2,1,3,8,11,14,10"
15561,commdev-image-keyboard-response,444,1390925,learnblock2,618.2000000001863,img/planet15_left.png,15,Community 1,NA,TRUE,f,f,NA,NA,NA,2,6,"6,4,5,7,15,13,12,9,2,1,3,8,11,14,10"
15561,commdev-image-keyboard-response,445,1392178,learnblock2,500.70000000018626,img/planet5_left.png,5,Community 1,NA,TRUE,f,f,NA,NA,NA,2,6,"6,4,5,7,15,13,12,9,2,1,3,8,11,14,10"
15561,commdev-image-keyboard-response,446,1393430,learnblock2,588.4000000003725,img/planet15_right.png,15,Community 1,NA,TRUE,j,j,NA,NA,NA,2,6,"6,4,5,7,15,13,12,9,2,1,3,8,11,14,10"
15561,commdev-image-keyboard-response,447,1394682,learnblock2,686.3999999994412,img/planet5_right.png,5,Community 1,NA,TRUE,j,j,NA,NA,NA,2,6,"6,4,5,7,15,13,12,9,2,1,3,8,11,14,10"
15561,commdev-image-keyboard-response,448,1395934,learnblock2,506.40000000037253,img/planet7_right.png,7,Community 1,NA,TRUE,j,j,NA,NA,NA,2,6,"6,4,5,7,15,13,12,9,2,1,3,8,11,14,10"
15561,commdev-image-keyboard-response,449,1397186,learnblock2,481.79999999981374,img/planet13_right.png,13,Community 2,NA,TRUE,j,j,NA,NA,NA,2,6,"6,4,5,7,15,13,12,9,2,1,3,8,11,14,10"
15561,commdev-image-keyboard-response,450,1398438,learnblock2,463.3999999994412,img/planet7_left.png,7,Community 1,NA,TRUE,f,f,NA,NA,NA,2,6,"6,4,5,7,15,13,12,9,2,1,3,8,11,14,10"
15561,commdev-image-keyboard-response,451,1399691,learnblock2,695.9000000003725,img/planet13_left.png,13,Community 2,NA,TRUE,f,f,NA,NA,NA,2,6,"6,4,5,7,15,13,12,9,2,1,3,8,11,14,10"
15561,commdev-image-keyboard-response,452,1400943,learnblock2,581.8999999994412,img/planet12_left.png,12,Community 2,NA,TRUE,f,f,NA,NA,NA,2,6,"6,4,5,7,15,13,12,9,2,1,3,8,11,14,10"
15561,commdev-image-keyboard-response,453,1402195,learnblock2,559.5,img/planet2_right.png,2,Community 2,NA,TRUE,j,j,NA,NA,NA,2,6,"6,4,5,7,15,13,12,9,2,1,3,8,11,14,10"
15561,commdev-image-keyboard-response,454,1403447,learnblock2,499.1000000005588,img/planet9_right.png,9,Community 2,NA,TRUE,j,j,NA,NA,NA,2,6,"6,4,5,7,15,13,12,9,2,1,3,8,11,14,10"
15561,commdev-image-keyboard-response,455,1404700,learnblock2,1021.3999999994412,img/planet12_right.png,12,Community 2,NA,TRUE,j,j,NA,NA,NA,2,6,"6,4,5,7,15,13,12,9,2,1,3,8,11,14,10"
15561,commdev-image-keyboard-response,456,1405952,learnblock2,641.3999999994412,img/planet9_right.png,9,Community 2,NA,TRUE,j,j,NA,NA,NA,2,6,"6,4,5,7,15,13,12,9,2,1,3,8,11,14,10"
15561,commdev-image-keyboard-response,457,1407205,learnblock2,495.20000000018626,img/planet1_right.png,1,Community 2,NA,TRUE,j,j,NA,NA,NA,2,6,"6,4,5,7,15,13,12,9,2,1,3,8,11,14,10"
15561,commdev-image-keyboard-response,458,1408458,learnblock2,623.7999999998137,img/planet2_left.png,2,Community 2,NA,TRUE,f,f,NA,NA,NA,2,6,"6,4,5,7,15,13,12,9,2,1,3,8,11,14,10"
15561,commdev-image-keyboard-response,459,1409710,learnblock2,553.5,img/planet13_right.png,13,Community 2,NA,TRUE,j,j,NA,NA,NA,2,6,"6,4,5,7,15,13,12,9,2,1,3,8,11,14,10"
15561,commdev-image-keyboard-response,460,1410962,learnblock2,599,img/planet2_left.png,2,Community 2,NA,TRUE,f,f,NA,NA,NA,2,6,"6,4,5,7,15,13,12,9,2,1,3,8,11,14,10"
15561,commdev-image-keyboard-response,461,1412214,learnblock2,538.9000000003725,img/planet9_left.png,9,Community 2,NA,TRUE,f,f,NA,NA,NA,2,6,"6,4,5,7,15,13,12,9,2,1,3,8,11,14,10"
15561,commdev-image-keyboard-response,462,1413466,learnblock2,443.90000000037253,img/planet1_left.png,1,Community 2,NA,TRUE,f,f,NA,NA,NA,2,6,"6,4,5,7,15,13,12,9,2,1,3,8,11,14,10"
15561,commdev-image-keyboard-response,463,1414719,learnblock2,491.3999999994412,img/planet12_left.png,12,Community 2,NA,TRUE,f,f,NA,NA,NA,2,6,"6,4,5,7,15,13,12,9,2,1,3,8,11,14,10"
15561,commdev-image-keyboard-response,464,1415971,learnblock2,500.8999999994412,img/planet1_left.png,1,Community 2,NA,TRUE,f,f,NA,NA,NA,2,6,"6,4,5,7,15,13,12,9,2,1,3,8,11,14,10"
15561,commdev-image-keyboard-response,465,1417223,learnblock2,634,img/planet9_left.png,9,Community 2,NA,TRUE,f,f,NA,NA,NA,2,6,"6,4,5,7,15,13,12,9,2,1,3,8,11,14,10"
15561,commdev-image-keyboard-response,466,1418477,learnblock2,778.4000000003725,img/planet1_right.png,1,Community 2,NA,TRUE,j,j,NA,NA,NA,2,6,"6,4,5,7,15,13,12,9,2,1,3,8,11,14,10"
15561,commdev-image-keyboard-response,467,1419730,learnblock2,576.8000000007451,img/planet2_left.png,2,Community 2,NA,TRUE,f,f,NA,NA,NA,2,6,"6,4,5,7,15,13,12,9,2,1,3,8,11,14,10"
15561,commdev-image-keyboard-response,468,1420982,learnblock2,547.1000000005588,img/planet1_left.png,1,Community 2,NA,TRUE,f,f,NA,NA,NA,2,6,"6,4,5,7,15,13,12,9,2,1,3,8,11,14,10"
15561,commdev-image-keyboard-response,469,1422235,learnblock2,578.5,img/planet12_right.png,12,Community 2,NA,TRUE,j,j,NA,NA,NA,2,6,"6,4,5,7,15,13,12,9,2,1,3,8,11,14,10"
15561,commdev-image-keyboard-response,470,1423488,learnblock2,637.7000000001863,img/planet2_right.png,2,Community 2,NA,TRUE,j,j,NA,NA,NA,2,6,"6,4,5,7,15,13,12,9,2,1,3,8,11,14,10"
15561,commdev-image-keyboard-response,471,1424740,learnblock2,572.4000000003725,img/planet13_left.png,13,Community 2,NA,TRUE,f,f,NA,NA,NA,2,6,"6,4,5,7,15,13,12,9,2,1,3,8,11,14,10"
15561,commdev-image-keyboard-response,472,1426004,learnblock2,637.5,img/planet1_right.png,1,Community 2,NA,TRUE,j,j,NA,NA,NA,2,6,"6,4,5,7,15,13,12,9,2,1,3,8,11,14,10"
15561,commdev-image-keyboard-response,473,1427257,learnblock2,654,img/planet9_left.png,9,Community 2,NA,TRUE,f,f,NA,NA,NA,2,6,"6,4,5,7,15,13,12,9,2,1,3,8,11,14,10"
15561,commdev-image-keyboard-response,474,1428510,learnblock2,515.0999999996275,img/planet12_left.png,12,Community 2,NA,TRUE,f,f,NA,NA,NA,2,6,"6,4,5,7,15,13,12,9,2,1,3,8,11,14,10"
15561,commdev-image-keyboard-response,475,1429761,learnblock2,519.3999999994412,img/planet1_right.png,1,Community 2,NA,TRUE,j,j,NA,NA,NA,2,6,"6,4,5,7,15,13,12,9,2,1,3,8,11,14,10"
15561,commdev-image-keyboard-response,476,1431013,learnblock2,504.40000000037253,img/planet9_right.png,9,Community 2,NA,TRUE,j,j,NA,NA,NA,2,6,"6,4,5,7,15,13,12,9,2,1,3,8,11,14,10"
15561,commdev-image-keyboard-response,477,1432265,learnblock2,651.4000000003725,img/planet2_left.png,2,Community 2,NA,TRUE,f,f,NA,NA,NA,2,6,"6,4,5,7,15,13,12,9,2,1,3,8,11,14,10"
15561,commdev-image-keyboard-response,478,1433518,learnblock2,566.0999999996275,img/planet9_left.png,9,Community 2,NA,TRUE,f,f,NA,NA,NA,2,6,"6,4,5,7,15,13,12,9,2,1,3,8,11,14,10"
15561,commdev-image-keyboard-response,479,1434770,learnblock2,696.2000000001863,img/planet12_right.png,12,Community 2,NA,TRUE,j,j,NA,NA,NA,2,6,"6,4,5,7,15,13,12,9,2,1,3,8,11,14,10"
15561,commdev-image-keyboard-response,480,1436022,learnblock2,574.2000000001863,img/planet9_right.png,9,Community 2,NA,FALSE,f,j,NA,NA,NA,2,6,"6,4,5,7,15,13,12,9,2,1,3,8,11,14,10"
15561,commdev-image-keyboard-response,481,1437274,learnblock2,655.1999999992549,img/planet12_left.png,12,Community 2,NA,TRUE,f,f,NA,NA,NA,2,6,"6,4,5,7,15,13,12,9,2,1,3,8,11,14,10"
15561,commdev-image-keyboard-response,482,1438526,learnblock2,759.1000000005588,img/planet13_left.png,13,Community 2,NA,TRUE,f,f,NA,NA,NA,2,6,"6,4,5,7,15,13,12,9,2,1,3,8,11,14,10"
15561,commdev-image-keyboard-response,483,1439779,learnblock2,555.2999999998137,img/planet12_left.png,12,Community 2,NA,TRUE,f,f,NA,NA,NA,2,6,"6,4,5,7,15,13,12,9,2,1,3,8,11,14,10"
15561,commdev-image-keyboard-response,484,1441030,learnblock2,429.40000000037253,img/planet2_left.png,2,Community 2,NA,TRUE,f,f,NA,NA,NA,2,6,"6,4,5,7,15,13,12,9,2,1,3,8,11,14,10"
15561,commdev-image-keyboard-response,485,1442282,learnblock2,478.40000000037253,img/planet1_left.png,1,Community 2,NA,TRUE,f,f,NA,NA,NA,2,6,"6,4,5,7,15,13,12,9,2,1,3,8,11,14,10"
15561,commdev-image-keyboard-response,486,1443534,learnblock2,790.1000000005588,img/planet13_right.png,13,Community 2,NA,TRUE,j,j,NA,NA,NA,2,6,"6,4,5,7,15,13,12,9,2,1,3,8,11,14,10"
15561,commdev-image-keyboard-response,487,1444786,learnblock2,1217.2999999998137,img/planet12_right.png,12,Community 2,NA,TRUE,j,j,NA,NA,NA,2,6,"6,4,5,7,15,13,12,9,2,1,3,8,11,14,10"
15561,commdev-image-keyboard-response,488,1446039,learnblock2,1138.3999999994412,img/planet13_left.png,13,Community 2,NA,TRUE,f,f,NA,NA,NA,2,6,"6,4,5,7,15,13,12,9,2,1,3,8,11,14,10"
15561,commdev-image-keyboard-response,489,1447292,learnblock2,552.7000000001863,img/planet2_left.png,2,Community 2,NA,TRUE,f,f,NA,NA,NA,2,6,"6,4,5,7,15,13,12,9,2,1,3,8,11,14,10"
15561,commdev-image-keyboard-response,490,1448545,learnblock2,522.2000000001863,img/planet1_left.png,1,Community 2,NA,TRUE,f,f,NA,NA,NA,2,6,"6,4,5,7,15,13,12,9,2,1,3,8,11,14,10"
15561,commdev-image-keyboard-response,491,1449798,learnblock2,559.8000000007451,img/planet12_left.png,12,Community 2,NA,TRUE,f,f,NA,NA,NA,2,6,"6,4,5,7,15,13,12,9,2,1,3,8,11,14,10"
15561,commdev-image-keyboard-response,492,1451051,learnblock2,953.6000000005588,img/planet1_left.png,1,Community 2,NA,TRUE,f,f,NA,NA,NA,2,6,"6,4,5,7,15,13,12,9,2,1,3,8,11,14,10"
15561,commdev-image-keyboard-response,493,1452302,learnblock2,585.6000000005588,img/planet12_right.png,12,Community 2,NA,TRUE,j,j,NA,NA,NA,2,6,"6,4,5,7,15,13,12,9,2,1,3,8,11,14,10"
15561,commdev-image-keyboard-response,494,1453555,learnblock2,541.2000000001863,img/planet1_left.png,1,Community 2,NA,TRUE,f,f,NA,NA,NA,2,6,"6,4,5,7,15,13,12,9,2,1,3,8,11,14,10"
15561,commdev-image-keyboard-response,495,1454807,learnblock2,741.6000000005588,img/planet9_left.png,9,Community 2,NA,TRUE,f,f,NA,NA,NA,2,6,"6,4,5,7,15,13,12,9,2,1,3,8,11,14,10"
15561,commdev-image-keyboard-response,496,1456060,learnblock2,604.2000000001863,img/planet2_right.png,2,Community 2,NA,TRUE,j,j,NA,NA,NA,2,6,"6,4,5,7,15,13,12,9,2,1,3,8,11,14,10"
15561,commdev-image-keyboard-response,497,1457320,learnblock2,963.2000000001863,img/planet13_right.png,13,Community 2,NA,TRUE,j,j,NA,NA,NA,2,6,"6,4,5,7,15,13,12,9,2,1,3,8,11,14,10"
15561,commdev-image-keyboard-response,498,1458572,learnblock2,590.2000000001863,img/planet1_right.png,1,Community 2,NA,TRUE,j,j,NA,NA,NA,2,6,"6,4,5,7,15,13,12,9,2,1,3,8,11,14,10"
15561,commdev-image-keyboard-response,499,1459825,learnblock2,426.19999999925494,img/planet9_right.png,9,Community 2,NA,TRUE,j,j,NA,NA,NA,2,6,"6,4,5,7,15,13,12,9,2,1,3,8,11,14,10"
15561,commdev-image-keyboard-response,500,1461077,learnblock2,333.70000000018626,img/planet2_left.png,2,Community 2,NA,FALSE,j,f,NA,NA,NA,2,6,"6,4,5,7,15,13,12,9,2,1,3,8,11,14,10"
15561,commdev-image-keyboard-response,501,1462331,learnblock2,569.5999999996275,img/planet13_left.png,13,Community 2,NA,TRUE,f,f,NA,NA,NA,2,6,"6,4,5,7,15,13,12,9,2,1,3,8,11,14,10"
15561,commdev-image-keyboard-response,502,1463584,learnblock2,413,img/planet12_right.png,12,Community 2,NA,TRUE,j,j,NA,NA,NA,2,6,"6,4,5,7,15,13,12,9,2,1,3,8,11,14,10"
15561,commdev-image-keyboard-response,503,1464835,learnblock2,494.80000000074506,img/planet2_right.png,2,Community 2,NA,TRUE,j,j,NA,NA,NA,2,6,"6,4,5,7,15,13,12,9,2,1,3,8,11,14,10"
15561,commdev-image-keyboard-response,504,1466087,learnblock2,516.8999999994412,img/planet12_right.png,12,Community 2,NA,TRUE,j,j,NA,NA,NA,2,6,"6,4,5,7,15,13,12,9,2,1,3,8,11,14,10"
15561,commdev-image-keyboard-response,505,1467339,learnblock2,481.8999999994412,img/planet9_left.png,9,Community 2,NA,TRUE,f,f,NA,NA,NA,2,6,"6,4,5,7,15,13,12,9,2,1,3,8,11,14,10"
15561,commdev-image-keyboard-response,506,1468604,learnblock2,471.6000000005588,img/planet12_right.png,12,Community 2,NA,TRUE,j,j,NA,NA,NA,2,6,"6,4,5,7,15,13,12,9,2,1,3,8,11,14,10"
15561,commdev-image-keyboard-response,507,1469856,learnblock2,508.29999999981374,img/planet9_left.png,9,Community 2,NA,TRUE,f,f,NA,NA,NA,2,6,"6,4,5,7,15,13,12,9,2,1,3,8,11,14,10"
15561,commdev-image-keyboard-response,508,1471108,learnblock2,500.20000000018626,img/planet2_left.png,2,Community 2,NA,TRUE,f,f,NA,NA,NA,2,6,"6,4,5,7,15,13,12,9,2,1,3,8,11,14,10"
15561,commdev-image-keyboard-response,509,1472361,learnblock2,586.4000000003725,img/planet9_left.png,9,Community 2,NA,TRUE,f,f,NA,NA,NA,2,6,"6,4,5,7,15,13,12,9,2,1,3,8,11,14,10"
15561,commdev-image-keyboard-response,510,1473613,learnblock2,430.3999999994412,img/planet2_left.png,2,Community 2,NA,TRUE,f,f,NA,NA,NA,2,6,"6,4,5,7,15,13,12,9,2,1,3,8,11,14,10"
15561,commdev-image-keyboard-response,511,1474866,learnblock2,506,img/planet9_right.png,9,Community 2,NA,TRUE,j,j,NA,NA,NA,2,6,"6,4,5,7,15,13,12,9,2,1,3,8,11,14,10"
15561,commdev-image-keyboard-response,512,1476117,learnblock2,727.3999999994412,img/planet2_left.png,2,Community 2,NA,TRUE,f,f,NA,NA,NA,2,6,"6,4,5,7,15,13,12,9,2,1,3,8,11,14,10"
15561,commdev-image-keyboard-response,513,1477369,learnblock2,605.5999999996275,img/planet12_left.png,12,Community 2,NA,TRUE,f,f,NA,NA,NA,2,6,"6,4,5,7,15,13,12,9,2,1,3,8,11,14,10"
15561,commdev-image-keyboard-response,514,1478621,learnblock2,583.7999999998137,img/planet2_right.png,2,Community 2,NA,TRUE,j,j,NA,NA,NA,2,6,"6,4,5,7,15,13,12,9,2,1,3,8,11,14,10"
15561,commdev-image-keyboard-response,515,1479873,learnblock2,593.4000000003725,img/planet13_left.png,13,Community 2,NA,TRUE,f,f,NA,NA,NA,2,6,"6,4,5,7,15,13,12,9,2,1,3,8,11,14,10"
15561,commdev-image-keyboard-response,516,1481126,learnblock2,519.2000000001863,img/planet7_right.png,7,Community 1,NA,FALSE,f,j,NA,NA,NA,2,6,"6,4,5,7,15,13,12,9,2,1,3,8,11,14,10"
15561,commdev-image-keyboard-response,517,1482378,learnblock2,534.3000000007451,img/planet4_right.png,4,Community 1,NA,TRUE,j,j,NA,NA,NA,2,6,"6,4,5,7,15,13,12,9,2,1,3,8,11,14,10"
15561,commdev-image-keyboard-response,518,1483631,learnblock2,714.7999999998137,img/planet15_left.png,15,Community 1,NA,TRUE,f,f,NA,NA,NA,2,6,"6,4,5,7,15,13,12,9,2,1,3,8,11,14,10"
15561,commdev-image-keyboard-response,519,1484883,learnblock2,588.2000000001863,img/planet4_right.png,4,Community 1,NA,TRUE,j,j,NA,NA,NA,2,6,"6,4,5,7,15,13,12,9,2,1,3,8,11,14,10"
15561,commdev-image-keyboard-response,520,1486134,learnblock2,625.8999999994412,img/planet5_right.png,5,Community 1,NA,TRUE,j,j,NA,NA,NA,2,6,"6,4,5,7,15,13,12,9,2,1,3,8,11,14,10"
15561,commdev-image-keyboard-response,521,1487387,learnblock2,541.1000000005588,img/planet7_right.png,7,Community 1,NA,TRUE,j,j,NA,NA,NA,2,6,"6,4,5,7,15,13,12,9,2,1,3,8,11,14,10"
15561,commdev-image-keyboard-response,522,1488639,learnblock2,468.1000000005588,img/planet5_right.png,5,Community 1,NA,TRUE,j,j,NA,NA,NA,2,6,"6,4,5,7,15,13,12,9,2,1,3,8,11,14,10"
15561,commdev-image-keyboard-response,523,1489890,learnblock2,577.0999999996275,img/planet7_right.png,7,Community 1,NA,TRUE,j,j,NA,NA,NA,2,6,"6,4,5,7,15,13,12,9,2,1,3,8,11,14,10"
15561,commdev-image-keyboard-response,524,1491143,learnblock2,555.3999999994412,img/planet5_right.png,5,Community 1,NA,TRUE,j,j,NA,NA,NA,2,6,"6,4,5,7,15,13,12,9,2,1,3,8,11,14,10"
15561,commdev-image-keyboard-response,525,1492395,learnblock2,890.0999999996275,img/planet15_left.png,15,Community 1,NA,TRUE,f,f,NA,NA,NA,2,6,"6,4,5,7,15,13,12,9,2,1,3,8,11,14,10"
15561,commdev-image-keyboard-response,526,1493646,learnblock2,611,img/planet4_left.png,4,Community 1,NA,TRUE,f,f,NA,NA,NA,2,6,"6,4,5,7,15,13,12,9,2,1,3,8,11,14,10"
15561,commdev-image-keyboard-response,527,1494898,learnblock2,527.3999999994412,img/planet5_left.png,5,Community 1,NA,TRUE,f,f,NA,NA,NA,2,6,"6,4,5,7,15,13,12,9,2,1,3,8,11,14,10"
15561,commdev-image-keyboard-response,528,1496150,learnblock2,492.8999999994412,img/planet4_left.png,4,Community 1,NA,TRUE,f,f,NA,NA,NA,2,6,"6,4,5,7,15,13,12,9,2,1,3,8,11,14,10"
15561,commdev-image-keyboard-response,529,1497402,learnblock2,627.2000000001863,img/planet7_left.png,7,Community 1,NA,TRUE,f,f,NA,NA,NA,2,6,"6,4,5,7,15,13,12,9,2,1,3,8,11,14,10"
15561,commdev-image-keyboard-response,530,1498655,learnblock2,427.70000000018626,img/planet4_right.png,4,Community 1,NA,TRUE,j,j,NA,NA,NA,2,6,"6,4,5,7,15,13,12,9,2,1,3,8,11,14,10"
15561,commdev-image-keyboard-response,531,1499907,learnblock2,746.7999999998137,img/planet6_left.png,6,Community 1,NA,TRUE,f,f,NA,NA,NA,2,6,"6,4,5,7,15,13,12,9,2,1,3,8,11,14,10"
15561,commdev-image-keyboard-response,532,1501159,learnblock2,1133.3999999994412,img/planet15_left.png,15,Community 1,NA,TRUE,f,f,NA,NA,NA,2,6,"6,4,5,7,15,13,12,9,2,1,3,8,11,14,10"
15561,commdev-image-keyboard-response,533,1502411,learnblock2,841.0999999996275,img/planet5_left.png,5,Community 1,NA,TRUE,f,f,NA,NA,NA,2,6,"6,4,5,7,15,13,12,9,2,1,3,8,11,14,10"
15561,commdev-image-keyboard-response,534,1503663,learnblock2,null,img/planet6_right.png,6,Community 1,NA,FALSE,null,j,NA,NA,NA,2,6,"6,4,5,7,15,13,12,9,2,1,3,8,11,14,10"
15561,commdev-image-keyboard-response,535,1504920,learnblock2,6.099999999627471,img/planet4_left.png,4,Community 1,NA,FALSE,j,f,NA,NA,NA,2,6,"6,4,5,7,15,13,12,9,2,1,3,8,11,14,10"
15561,commdev-image-keyboard-response,536,1506171,learnblock2,595.1000000005588,img/planet15_right.png,15,Community 1,NA,TRUE,j,j,NA,NA,NA,2,6,"6,4,5,7,15,13,12,9,2,1,3,8,11,14,10"
15561,commdev-image-keyboard-response,537,1507423,learnblock2,626.6999999992549,img/planet5_right.png,5,Community 1,NA,FALSE,f,j,NA,NA,NA,2,6,"6,4,5,7,15,13,12,9,2,1,3,8,11,14,10"
15561,commdev-image-keyboard-response,538,1508675,learnblock2,563.5,img/planet4_left.png,4,Community 1,NA,TRUE,f,f,NA,NA,NA,2,6,"6,4,5,7,15,13,12,9,2,1,3,8,11,14,10"
15561,commdev-image-keyboard-response,539,1509928,learnblock2,709.8000000007451,img/planet6_left.png,6,Community 1,NA,TRUE,f,f,NA,NA,NA,2,6,"6,4,5,7,15,13,12,9,2,1,3,8,11,14,10"
15561,commdev-image-keyboard-response,540,1511181,learnblock2,740.4000000003725,img/planet15_right.png,15,Community 1,NA,TRUE,j,j,NA,NA,NA,2,6,"6,4,5,7,15,13,12,9,2,1,3,8,11,14,10"
15561,commdev-image-keyboard-response,541,1512432,learnblock2,615.2000000001863,img/planet3_left.png,3,Community 3,NA,TRUE,f,f,NA,NA,NA,2,6,"6,4,5,7,15,13,12,9,2,1,3,8,11,14,10"
15561,commdev-image-keyboard-response,542,1513684,learnblock2,720.2000000001863,img/planet14_right.png,14,Community 3,NA,TRUE,j,j,NA,NA,NA,2,6,"6,4,5,7,15,13,12,9,2,1,3,8,11,14,10"
15561,commdev-image-keyboard-response,543,1514936,learnblock2,544.8000000007451,img/planet11_left.png,11,Community 3,NA,TRUE,f,f,NA,NA,NA,2,6,"6,4,5,7,15,13,12,9,2,1,3,8,11,14,10"
15561,commdev-image-keyboard-response,544,1516187,learnblock2,616.2000000001863,img/planet3_right.png,3,Community 3,NA,TRUE,j,j,NA,NA,NA,2,6,"6,4,5,7,15,13,12,9,2,1,3,8,11,14,10"
15561,commdev-image-keyboard-response,545,1517439,learnblock2,752.2999999998137,img/planet11_right.png,11,Community 3,NA,TRUE,j,j,NA,NA,NA,2,6,"6,4,5,7,15,13,12,9,2,1,3,8,11,14,10"
15561,commdev-image-keyboard-response,546,1518692,learnblock2,605.9000000003725,img/planet8_left.png,8,Community 3,NA,TRUE,f,f,NA,NA,NA,2,6,"6,4,5,7,15,13,12,9,2,1,3,8,11,14,10"
15561,commdev-image-keyboard-response,547,1519944,learnblock2,465.29999999981374,img/planet10_left.png,10,Community 3,NA,TRUE,f,f,NA,NA,NA,2,6,"6,4,5,7,15,13,12,9,2,1,3,8,11,14,10"
15561,commdev-image-keyboard-response,548,1521197,learnblock2,435.09999999962747,img/planet11_left.png,11,Community 3,NA,TRUE,f,f,NA,NA,NA,2,6,"6,4,5,7,15,13,12,9,2,1,3,8,11,14,10"
15561,commdev-image-keyboard-response,549,1522449,learnblock2,486.69999999925494,img/planet3_right.png,3,Community 3,NA,TRUE,j,j,NA,NA,NA,2,6,"6,4,5,7,15,13,12,9,2,1,3,8,11,14,10"
15561,commdev-image-keyboard-response,550,1523702,learnblock2,591.4000000003725,img/planet11_right.png,11,Community 3,NA,TRUE,j,j,NA,NA,NA,2,6,"6,4,5,7,15,13,12,9,2,1,3,8,11,14,10"
15561,commdev-image-keyboard-response,551,1524954,learnblock2,635,img/planet8_left.png,8,Community 3,NA,TRUE,f,f,NA,NA,NA,2,6,"6,4,5,7,15,13,12,9,2,1,3,8,11,14,10"
15561,commdev-image-keyboard-response,552,1526219,learnblock2,476,img/planet11_left.png,11,Community 3,NA,TRUE,f,f,NA,NA,NA,2,6,"6,4,5,7,15,13,12,9,2,1,3,8,11,14,10"
15561,commdev-image-keyboard-response,553,1527471,learnblock2,463.3999999994412,img/planet8_right.png,8,Community 3,NA,TRUE,j,j,NA,NA,NA,2,6,"6,4,5,7,15,13,12,9,2,1,3,8,11,14,10"
15561,commdev-image-keyboard-response,554,1528724,learnblock2,457.20000000018626,img/planet10_left.png,10,Community 3,NA,TRUE,f,f,NA,NA,NA,2,6,"6,4,5,7,15,13,12,9,2,1,3,8,11,14,10"
15561,commdev-image-keyboard-response,555,1529976,learnblock2,523,img/planet8_right.png,8,Community 3,NA,TRUE,j,j,NA,NA,NA,2,6,"6,4,5,7,15,13,12,9,2,1,3,8,11,14,10"
15561,commdev-image-keyboard-response,556,1531227,learnblock2,432.70000000018626,img/planet10_left.png,10,Community 3,NA,TRUE,f,f,NA,NA,NA,2,6,"6,4,5,7,15,13,12,9,2,1,3,8,11,14,10"
15561,commdev-image-keyboard-response,557,1532480,learnblock2,545.8999999994412,img/planet14_left.png,14,Community 3,NA,TRUE,f,f,NA,NA,NA,2,6,"6,4,5,7,15,13,12,9,2,1,3,8,11,14,10"
15561,commdev-image-keyboard-response,558,1533732,learnblock2,514.7999999998137,img/planet10_right.png,10,Community 3,NA,FALSE,f,j,NA,NA,NA,2,6,"6,4,5,7,15,13,12,9,2,1,3,8,11,14,10"
15561,commdev-image-keyboard-response,559,1534985,learnblock2,638.0999999996275,img/planet11_left.png,11,Community 3,NA,TRUE,f,f,NA,NA,NA,2,6,"6,4,5,7,15,13,12,9,2,1,3,8,11,14,10"
15561,commdev-image-keyboard-response,560,1536242,learnblock2,543.8999999994412,img/planet10_left.png,10,Community 3,NA,TRUE,f,f,NA,NA,NA,2,6,"6,4,5,7,15,13,12,9,2,1,3,8,11,14,10"
15561,commdev-image-keyboard-response,561,1537495,learnblock2,831.7000000001863,img/planet8_left.png,8,Community 3,NA,TRUE,f,f,NA,NA,NA,2,6,"6,4,5,7,15,13,12,9,2,1,3,8,11,14,10"
15561,commdev-image-keyboard-response,562,1538746,learnblock2,621.5,img/planet14_left.png,14,Community 3,NA,TRUE,f,f,NA,NA,NA,2,6,"6,4,5,7,15,13,12,9,2,1,3,8,11,14,10"
15561,commdev-image-keyboard-response,563,1539998,learnblock2,480.1000000005588,img/planet10_right.png,10,Community 3,NA,TRUE,j,j,NA,NA,NA,2,6,"6,4,5,7,15,13,12,9,2,1,3,8,11,14,10"
15561,commdev-image-keyboard-response,564,1541250,learnblock2,667.5999999996275,img/planet8_left.png,8,Community 3,NA,TRUE,f,f,NA,NA,NA,2,6,"6,4,5,7,15,13,12,9,2,1,3,8,11,14,10"
15561,commdev-image-keyboard-response,565,1542502,learnblock2,552.4000000003725,img/planet10_right.png,10,Community 3,NA,TRUE,j,j,NA,NA,NA,2,6,"6,4,5,7,15,13,12,9,2,1,3,8,11,14,10"
15561,commdev-image-keyboard-response,566,1543754,learnblock2,514,img/planet11_left.png,11,Community 3,NA,TRUE,f,f,NA,NA,NA,2,6,"6,4,5,7,15,13,12,9,2,1,3,8,11,14,10"
15561,commdev-image-keyboard-response,567,1545007,learnblock2,534.5,img/planet8_right.png,8,Community 3,NA,TRUE,j,j,NA,NA,NA,2,6,"6,4,5,7,15,13,12,9,2,1,3,8,11,14,10"
15561,commdev-image-keyboard-response,568,1546258,learnblock2,763.0999999996275,img/planet11_left.png,11,Community 3,NA,TRUE,f,f,NA,NA,NA,2,6,"6,4,5,7,15,13,12,9,2,1,3,8,11,14,10"
15561,commdev-image-keyboard-response,569,1547510,learnblock2,631.9000000003725,img/planet3_left.png,3,Community 3,NA,TRUE,f,f,NA,NA,NA,2,6,"6,4,5,7,15,13,12,9,2,1,3,8,11,14,10"
15561,commdev-image-keyboard-response,570,1548763,learnblock2,560.1000000005588,img/planet11_left.png,11,Community 3,NA,TRUE,f,f,NA,NA,NA,2,6,"6,4,5,7,15,13,12,9,2,1,3,8,11,14,10"
15561,commdev-image-keyboard-response,571,1550016,learnblock2,573.5,img/planet3_right.png,3,Community 3,NA,FALSE,f,j,NA,NA,NA,2,6,"6,4,5,7,15,13,12,9,2,1,3,8,11,14,10"
15561,commdev-image-keyboard-response,572,1551268,learnblock2,528.6000000005588,img/planet15_left.png,15,Community 1,NA,TRUE,f,f,NA,NA,NA,2,6,"6,4,5,7,15,13,12,9,2,1,3,8,11,14,10"
15561,commdev-image-keyboard-response,573,1552521,learnblock2,551.5,img/planet3_right.png,3,Community 3,NA,TRUE,j,j,NA,NA,NA,2,6,"6,4,5,7,15,13,12,9,2,1,3,8,11,14,10"
15561,commdev-image-keyboard-response,574,1553773,learnblock2,540.0999999996275,img/planet11_right.png,11,Community 3,NA,TRUE,j,j,NA,NA,NA,2,6,"6,4,5,7,15,13,12,9,2,1,3,8,11,14,10"
15561,commdev-image-keyboard-response,575,1555026,learnblock2,574.7000000001863,img/planet8_right.png,8,Community 3,NA,TRUE,j,j,NA,NA,NA,2,6,"6,4,5,7,15,13,12,9,2,1,3,8,11,14,10"
15561,commdev-image-keyboard-response,576,1556278,learnblock2,627.5,img/planet14_left.png,14,Community 3,NA,TRUE,f,f,NA,NA,NA,2,6,"6,4,5,7,15,13,12,9,2,1,3,8,11,14,10"
15561,commdev-image-keyboard-response,577,1557530,learnblock2,556.2999999998137,img/planet8_left.png,8,Community 3,NA,TRUE,f,f,NA,NA,NA,2,6,"6,4,5,7,15,13,12,9,2,1,3,8,11,14,10"
15561,commdev-image-keyboard-response,578,1558782,learnblock2,513.7999999998137,img/planet11_left.png,11,Community 3,NA,TRUE,f,f,NA,NA,NA,2,6,"6,4,5,7,15,13,12,9,2,1,3,8,11,14,10"
15561,commdev-image-keyboard-response,579,1560044,learnblock2,546.0999999996275,img/planet3_right.png,3,Community 3,NA,TRUE,j,j,NA,NA,NA,2,6,"6,4,5,7,15,13,12,9,2,1,3,8,11,14,10"
15561,commdev-image-keyboard-response,580,1561296,learnblock2,755.3999999994412,img/planet15_right.png,15,Community 1,NA,TRUE,j,j,NA,NA,NA,2,6,"6,4,5,7,15,13,12,9,2,1,3,8,11,14,10"
15561,commdev-image-keyboard-response,581,1562548,learnblock2,609,img/planet4_right.png,4,Community 1,NA,TRUE,j,j,NA,NA,NA,2,6,"6,4,5,7,15,13,12,9,2,1,3,8,11,14,10"
15561,commdev-image-keyboard-response,582,1563800,learnblock2,620,img/planet15_right.png,15,Community 1,NA,TRUE,j,j,NA,NA,NA,2,6,"6,4,5,7,15,13,12,9,2,1,3,8,11,14,10"
15561,commdev-image-keyboard-response,583,1565052,learnblock2,726.9000000003725,img/planet5_right.png,5,Community 1,NA,TRUE,j,j,NA,NA,NA,2,6,"6,4,5,7,15,13,12,9,2,1,3,8,11,14,10"
15561,commdev-image-keyboard-response,584,1566304,learnblock2,581.3999999994412,img/planet7_left.png,7,Community 1,NA,TRUE,f,f,NA,NA,NA,2,6,"6,4,5,7,15,13,12,9,2,1,3,8,11,14,10"
