subject_id,trial_type,trial_index,time_elapsed,block,rt,stimulus,planet,community,response,correct,key_press,learning_correct_response,parse,init_locations,final_locations,browser_interactions,num_comp,planet_map
15010,commdev-instructions,7,98460,NA,1486.399999999965,"<p>In this game, you will be shown a 3x3 grid of patterns.</p> <p>The last one in the bottom right-hand corner, <strong>will be missing:</strong></p> <div style='width: 700px;'><div style='float: top;'><img style='width: 200px;' src='practice/p1_M1.png'></img><p class='small'>You need to select<strong> which of the four possible patterns </strong>along the bottom<strong> fits into the gap:</strong></p></div><div style='float: top;'><img style='width: 300px;' src='practice/p1_T1.png'></img></div><br>",NA,NA,NA,NA,NA,NA,NA,NA,NA,4,6,"11,10,1,13,12,2,9,8,5,15,3,14,7,4,6"
15010,commdev-instructions,8,123023,NA,3533,"<p>Try to be as fast and as accurate as you can be.</p> <p>If you cannot solve the puzzle then you should guess - you will not be penalised for an incorrect answer.</p> <p>The task contains a shuffled mix of easy, medium and hard puzzles.</p> <p>You will have <strong>30 seconds</strong> to complete each puzzle.</p><br>",NA,NA,NA,NA,NA,NA,NA,NA,NA,4,6,"11,10,1,13,12,2,9,8,5,15,3,14,7,4,6"
15010,commdev-instructions,15,148383,NA,1185.7999999999884,<p><strong>Success!</strong></p> <p>You seem to be getting the hang of this...</p> <p>Let's move on to the real trials.</p><br>,NA,NA,NA,NA,NA,NA,NA,NA,NA,4,6,"11,10,1,13,12,2,9,8,5,15,3,14,7,4,6"
15010,commdev-instructions,123,645807,NA,5404.899999999907,"<p>In this game, you are a scientist on board a space shuttle. </p><p> On each mission, you will visit planets all across the universe.</p><img src=""img/controlroom.jpg"" width=300vw>",NA,NA,NA,NA,NA,NA,NA,NA,NA,4,6,"11,10,1,13,12,2,9,8,5,15,3,14,7,4,6"
15010,commdev-instructions,124,649785,NA,1899.8000000000466,"<p>Here are a few planets you might see:</p><img src=""img/practice1.png"" width=200vw><img src=""img/practice2.png"" width=200vw><img src=""img/practice3.png"" width=200vw>",NA,NA,NA,NA,NA,NA,NA,NA,NA,4,6,"11,10,1,13,12,2,9,8,5,15,3,14,7,4,6"
15010,commdev-instructions,125,658835,NA,1560,"<p>Your job as a scientist is to record which direction the winds are moving on each planet.</p><p>There are two types of wind directions:</p><img src=""img/practice1_left.png"" width=200vw><img src=""img/practice1_right.png"" width=200vw>",NA,NA,NA,NA,NA,NA,NA,NA,NA,4,6,"11,10,1,13,12,2,9,8,5,15,3,14,7,4,6"
15010,commdev-instructions,126,682956,NA,19237.09999999986,"<p>If the winds are moving this way, press the letter <strong>F</strong> on the keyboard as fast as you can.</p><img src=""img/leftwind.png"" width=250vw>",NA,NA,NA,NA,NA,NA,NA,NA,NA,4,6,"11,10,1,13,12,2,9,8,5,15,3,14,7,4,6"
15010,commdev-instructions,127,689244,NA,1794.8000000000466,"<p>If the winds are moving this way, press the letter <strong>J</strong> on the keyboard as fast as you can.</p><img src=""img/rightwind.png"" width=350vw>",NA,NA,NA,NA,NA,NA,NA,NA,NA,4,6,"11,10,1,13,12,2,9,8,5,15,3,14,7,4,6"
15010,commdev-instructions,128,696045,NA,2378.8000000000466,<p>You will have 1 second to respond. Try to respond before the time runs out!,NA,NA,NA,NA,NA,NA,NA,NA,NA,4,6,"11,10,1,13,12,2,9,8,5,15,3,14,7,4,6"
15010,commdev-instructions,129,720402,NA,18927.800000000047,<p>The planets you will visit will look different from each other.</p><p>You should respond <strong>only</strong> based on wind direction.,NA,NA,NA,NA,NA,NA,NA,NA,NA,4,6,"11,10,1,13,12,2,9,8,5,15,3,14,7,4,6"
15010,commdev-instructions,130,732068,NA,6491.199999999953,"<p> Ready to start the practice round? </p><p> Remember, press <strong>F</strong> or <strong>J</strong> depending on the wind direction.<br><img src=""img/categorize_planet_example.png""",NA,NA,NA,NA,NA,NA,NA,NA,NA,4,6,"11,10,1,13,12,2,9,8,5,15,3,14,7,4,6"
15010,commdev-instructions,142,784929,NA,2400.100000000093,"<p>Great, now try a short practice mission. </p><p> This time, you will have 1 second to respond and you won't know whether you pressed the right or wrong key for each planet.</p>",NA,NA,NA,NA,NA,NA,NA,NA,NA,4,6,"11,10,1,13,12,2,9,8,5,15,3,14,7,4,6"
15010,commdev-image-keyboard-response,143,786290,practice,null,img/practice2_right.png,NA,Number not found in mappings,NA,FALSE,null,j,NA,NA,NA,4,6,"11,10,1,13,12,2,9,8,5,15,3,14,7,4,6"
15010,commdev-image-keyboard-response,144,787549,practice,1046,img/practice1_left.png,NA,Number not found in mappings,NA,TRUE,f,f,NA,NA,NA,4,6,"11,10,1,13,12,2,9,8,5,15,3,14,7,4,6"
15010,commdev-image-keyboard-response,145,788802,practice,763.1999999999534,img/practice3_left.png,NA,Number not found in mappings,NA,TRUE,f,f,NA,NA,NA,4,6,"11,10,1,13,12,2,9,8,5,15,3,14,7,4,6"
15010,commdev-image-keyboard-response,146,790062,practice,606.3999999999069,img/practice1_left.png,NA,Number not found in mappings,NA,TRUE,f,f,NA,NA,NA,4,6,"11,10,1,13,12,2,9,8,5,15,3,14,7,4,6"
15010,commdev-image-keyboard-response,147,791313,practice,741,img/practice4_right.png,NA,Number not found in mappings,NA,TRUE,j,j,NA,NA,NA,4,6,"11,10,1,13,12,2,9,8,5,15,3,14,7,4,6"
15010,commdev-image-keyboard-response,148,792573,practice,744.5,img/practice3_right.png,NA,Number not found in mappings,NA,TRUE,j,j,NA,NA,NA,4,6,"11,10,1,13,12,2,9,8,5,15,3,14,7,4,6"
15010,commdev-image-keyboard-response,149,793826,practice,740.6000000000931,img/practice1_right.png,NA,Number not found in mappings,NA,TRUE,j,j,NA,NA,NA,4,6,"11,10,1,13,12,2,9,8,5,15,3,14,7,4,6"
15010,commdev-image-keyboard-response,150,795084,practice,718,img/practice4_right.png,NA,Number not found in mappings,NA,TRUE,j,j,NA,NA,NA,4,6,"11,10,1,13,12,2,9,8,5,15,3,14,7,4,6"
15010,commdev-instructions,151,807576,NA,2936.3000000000466,"<p>Great job with the practice round.</p><p>During real missions, you won't know whether you pressed the right or wrong key for each planet.</p><p>But between missions, we will tell you how you did overall.</p>",NA,NA,NA,NA,NA,NA,NA,NA,NA,4,6,"11,10,1,13,12,2,9,8,5,15,3,14,7,4,6"
15010,commdev-instructions,152,818104,NA,2289.600000000093,<p>Try your best! You will be paid a bonus based on how many correct responses you make!</p><p>Responses that are too slow will not count toward your bonus.</p>,NA,NA,NA,NA,NA,NA,NA,NA,NA,4,6,"11,10,1,13,12,2,9,8,5,15,3,14,7,4,6"
15010,commdev-instructions,153,824744,NA,436.80000000004657,"<p>You are almost ready to start the real game.</p><p> First, we are going to ask you some questions about how the game works.</p>",NA,NA,NA,NA,NA,NA,NA,NA,NA,4,6,"11,10,1,13,12,2,9,8,5,15,3,14,7,4,6"
15010,commdev-instructions,162,921808,NA,4591.700000000186,"<p> Nice work! It is now time to start the real game.<p></p>You will go on two missions to record wind directions of different planets.<p></p>Each one will take about 5 minutes. You will get to take a break between missions.<p><p> Remember, press <strong>F</strong> or <strong>J</strong> depending on the wind direction. Good luck!<br><img src=""img/categorize_planet_example.png""",NA,NA,NA,NA,NA,NA,NA,NA,NA,4,6,"11,10,1,13,12,2,9,8,5,15,3,14,7,4,6"
15010,commdev-image-keyboard-response,164,924973,learnblock1,892.3999999999069,img/planet15_right.png,15,Community 2,NA,TRUE,j,j,NA,NA,NA,4,6,"11,10,1,13,12,2,9,8,5,15,3,14,7,4,6"
15010,commdev-image-keyboard-response,165,926225,learnblock1,834.6000000000931,img/planet9_left.png,9,Community 2,NA,TRUE,f,f,NA,NA,NA,4,6,"11,10,1,13,12,2,9,8,5,15,3,14,7,4,6"
15010,commdev-image-keyboard-response,166,927477,learnblock1,940.6000000000931,img/planet15_left.png,15,Community 2,NA,TRUE,f,f,NA,NA,NA,4,6,"11,10,1,13,12,2,9,8,5,15,3,14,7,4,6"
15010,commdev-image-keyboard-response,167,928734,learnblock1,750.0999999998603,img/planet5_left.png,5,Community 2,NA,TRUE,f,f,NA,NA,NA,4,6,"11,10,1,13,12,2,9,8,5,15,3,14,7,4,6"
15010,commdev-image-keyboard-response,168,929986,learnblock1,596.8000000000466,img/planet9_left.png,9,Community 2,NA,TRUE,f,f,NA,NA,NA,4,6,"11,10,1,13,12,2,9,8,5,15,3,14,7,4,6"
15010,commdev-image-keyboard-response,169,931246,learnblock1,414,img/planet2_right.png,2,Community 2,NA,TRUE,j,j,NA,NA,NA,4,6,"11,10,1,13,12,2,9,8,5,15,3,14,7,4,6"
15010,commdev-image-keyboard-response,170,932497,learnblock1,621.5999999998603,img/planet15_left.png,15,Community 2,NA,TRUE,f,f,NA,NA,NA,4,6,"11,10,1,13,12,2,9,8,5,15,3,14,7,4,6"
15010,commdev-image-keyboard-response,171,933758,learnblock1,642.1999999999534,img/planet8_right.png,8,Community 2,NA,FALSE,f,j,NA,NA,NA,4,6,"11,10,1,13,12,2,9,8,5,15,3,14,7,4,6"
15010,commdev-image-keyboard-response,172,935009,learnblock1,1069.6999999999534,img/planet14_right.png,14,Community 3,NA,TRUE,j,j,NA,NA,NA,4,6,"11,10,1,13,12,2,9,8,5,15,3,14,7,4,6"
15010,commdev-image-keyboard-response,173,936261,learnblock1,888.6000000000931,img/planet8_left.png,8,Community 2,NA,TRUE,f,f,NA,NA,NA,4,6,"11,10,1,13,12,2,9,8,5,15,3,14,7,4,6"
15010,commdev-image-keyboard-response,174,937518,learnblock1,671.0999999998603,img/planet9_left.png,9,Community 2,NA,TRUE,f,f,NA,NA,NA,4,6,"11,10,1,13,12,2,9,8,5,15,3,14,7,4,6"
15010,commdev-image-keyboard-response,175,938769,learnblock1,1066.6000000000931,img/planet15_right.png,15,Community 2,NA,TRUE,j,j,NA,NA,NA,4,6,"11,10,1,13,12,2,9,8,5,15,3,14,7,4,6"
15010,commdev-image-keyboard-response,176,940029,learnblock1,null,img/planet2_right.png,2,Community 2,NA,FALSE,null,j,NA,NA,NA,4,6,"11,10,1,13,12,2,9,8,5,15,3,14,7,4,6"
15010,commdev-image-keyboard-response,177,941280,learnblock1,1000.4000000001397,img/planet5_right.png,5,Community 2,NA,TRUE,j,j,NA,NA,NA,4,6,"11,10,1,13,12,2,9,8,5,15,3,14,7,4,6"
15010,commdev-image-keyboard-response,178,942533,learnblock1,1063.3000000000466,img/planet2_right.png,2,Community 2,NA,TRUE,j,j,NA,NA,NA,4,6,"11,10,1,13,12,2,9,8,5,15,3,14,7,4,6"
15010,commdev-image-keyboard-response,179,943789,learnblock1,737.6000000000931,img/planet9_left.png,9,Community 2,NA,TRUE,f,f,NA,NA,NA,4,6,"11,10,1,13,12,2,9,8,5,15,3,14,7,4,6"
15010,commdev-image-keyboard-response,180,945041,learnblock1,1040.5,img/planet8_right.png,8,Community 2,NA,TRUE,j,j,NA,NA,NA,4,6,"11,10,1,13,12,2,9,8,5,15,3,14,7,4,6"
15010,commdev-image-keyboard-response,181,946302,learnblock1,null,img/planet15_right.png,15,Community 2,NA,FALSE,null,j,NA,NA,NA,4,6,"11,10,1,13,12,2,9,8,5,15,3,14,7,4,6"
15010,commdev-image-keyboard-response,182,947554,learnblock1,981.3999999999069,img/planet8_left.png,8,Community 2,NA,TRUE,f,f,NA,NA,NA,4,6,"11,10,1,13,12,2,9,8,5,15,3,14,7,4,6"
15010,commdev-image-keyboard-response,183,948813,learnblock1,null,img/planet15_right.png,15,Community 2,NA,FALSE,null,j,NA,NA,NA,4,6,"11,10,1,13,12,2,9,8,5,15,3,14,7,4,6"
15010,commdev-image-keyboard-response,184,950066,learnblock1,246.89999999990687,img/planet8_right.png,8,Community 2,NA,TRUE,j,j,NA,NA,NA,4,6,"11,10,1,13,12,2,9,8,5,15,3,14,7,4,6"
15010,commdev-image-keyboard-response,185,951326,learnblock1,183.5,img/planet5_right.png,5,Community 2,NA,TRUE,j,j,NA,NA,NA,4,6,"11,10,1,13,12,2,9,8,5,15,3,14,7,4,6"
15010,commdev-image-keyboard-response,186,952578,learnblock1,822,img/planet2_left.png,2,Community 2,NA,TRUE,f,f,NA,NA,NA,4,6,"11,10,1,13,12,2,9,8,5,15,3,14,7,4,6"
15010,commdev-image-keyboard-response,187,953837,learnblock1,800.2999999998137,img/planet5_right.png,5,Community 2,NA,TRUE,j,j,NA,NA,NA,4,6,"11,10,1,13,12,2,9,8,5,15,3,14,7,4,6"
15010,commdev-image-keyboard-response,188,955089,learnblock1,992.5999999998603,img/planet8_right.png,8,Community 2,NA,TRUE,j,j,NA,NA,NA,4,6,"11,10,1,13,12,2,9,8,5,15,3,14,7,4,6"
15010,commdev-image-keyboard-response,189,956349,learnblock1,988.5,img/planet9_left.png,9,Community 2,NA,FALSE,j,f,NA,NA,NA,4,6,"11,10,1,13,12,2,9,8,5,15,3,14,7,4,6"
15010,commdev-image-keyboard-response,190,957601,learnblock1,951.5,img/planet2_left.png,2,Community 2,NA,TRUE,f,f,NA,NA,NA,4,6,"11,10,1,13,12,2,9,8,5,15,3,14,7,4,6"
15010,commdev-image-keyboard-response,191,958861,learnblock1,830.1999999999534,img/planet9_right.png,9,Community 2,NA,TRUE,j,j,NA,NA,NA,4,6,"11,10,1,13,12,2,9,8,5,15,3,14,7,4,6"
15010,commdev-image-keyboard-response,192,960113,learnblock1,616.6000000000931,img/planet2_left.png,2,Community 2,NA,TRUE,f,f,NA,NA,NA,4,6,"11,10,1,13,12,2,9,8,5,15,3,14,7,4,6"
15010,commdev-image-keyboard-response,193,961366,learnblock1,688.7999999998137,img/planet9_left.png,9,Community 2,NA,TRUE,f,f,NA,NA,NA,4,6,"11,10,1,13,12,2,9,8,5,15,3,14,7,4,6"
15010,commdev-image-keyboard-response,194,962621,learnblock1,693,img/planet2_left.png,2,Community 2,NA,TRUE,f,f,NA,NA,NA,4,6,"11,10,1,13,12,2,9,8,5,15,3,14,7,4,6"
15010,commdev-image-keyboard-response,195,963873,learnblock1,718.6999999999534,img/planet5_right.png,5,Community 2,NA,TRUE,j,j,NA,NA,NA,4,6,"11,10,1,13,12,2,9,8,5,15,3,14,7,4,6"
15010,commdev-image-keyboard-response,196,965134,learnblock1,918.6000000000931,img/planet2_right.png,2,Community 2,NA,TRUE,j,j,NA,NA,NA,4,6,"11,10,1,13,12,2,9,8,5,15,3,14,7,4,6"
15010,commdev-image-keyboard-response,197,966386,learnblock1,970.8999999999069,img/planet13_right.png,13,Community 1,NA,TRUE,j,j,NA,NA,NA,4,6,"11,10,1,13,12,2,9,8,5,15,3,14,7,4,6"
15010,commdev-image-keyboard-response,198,967645,learnblock1,641.5,img/planet2_right.png,2,Community 2,NA,TRUE,j,j,NA,NA,NA,4,6,"11,10,1,13,12,2,9,8,5,15,3,14,7,4,6"
15010,commdev-image-keyboard-response,199,968896,learnblock1,714.2000000001863,img/planet13_left.png,13,Community 1,NA,TRUE,f,f,NA,NA,NA,4,6,"11,10,1,13,12,2,9,8,5,15,3,14,7,4,6"
15010,commdev-image-keyboard-response,200,970149,learnblock1,711.3999999999069,img/planet10_left.png,10,Community 1,NA,TRUE,f,f,NA,NA,NA,4,6,"11,10,1,13,12,2,9,8,5,15,3,14,7,4,6"
15010,commdev-image-keyboard-response,201,971405,learnblock1,1178.7000000001863,img/planet13_left.png,13,Community 1,NA,TRUE,f,f,NA,NA,NA,4,6,"11,10,1,13,12,2,9,8,5,15,3,14,7,4,6"
15010,commdev-image-keyboard-response,202,972657,learnblock1,1078.3999999999069,img/planet1_right.png,1,Community 1,NA,FALSE,f,j,NA,NA,NA,4,6,"11,10,1,13,12,2,9,8,5,15,3,14,7,4,6"
15010,commdev-image-keyboard-response,203,973910,learnblock1,1159.6999999999534,img/planet11_right.png,11,Community 1,NA,TRUE,j,j,NA,NA,NA,4,6,"11,10,1,13,12,2,9,8,5,15,3,14,7,4,6"
15010,commdev-image-keyboard-response,204,975165,learnblock1,876.6000000000931,img/planet13_right.png,13,Community 1,NA,FALSE,f,j,NA,NA,NA,4,6,"11,10,1,13,12,2,9,8,5,15,3,14,7,4,6"
15010,commdev-image-keyboard-response,205,976417,learnblock1,1216.7000000001863,img/planet1_right.png,1,Community 1,NA,FALSE,f,j,NA,NA,NA,4,6,"11,10,1,13,12,2,9,8,5,15,3,14,7,4,6"
15010,commdev-image-keyboard-response,206,977677,learnblock1,925.1000000000931,img/planet11_right.png,11,Community 1,NA,TRUE,j,j,NA,NA,NA,4,6,"11,10,1,13,12,2,9,8,5,15,3,14,7,4,6"
15010,commdev-image-keyboard-response,207,978929,learnblock1,1040.6000000000931,img/planet1_right.png,1,Community 1,NA,TRUE,j,j,NA,NA,NA,4,6,"11,10,1,13,12,2,9,8,5,15,3,14,7,4,6"
15010,commdev-image-keyboard-response,208,980189,learnblock1,639.8000000000466,img/planet13_left.png,13,Community 1,NA,TRUE,f,f,NA,NA,NA,4,6,"11,10,1,13,12,2,9,8,5,15,3,14,7,4,6"
15010,commdev-image-keyboard-response,209,981441,learnblock1,789.1999999999534,img/planet1_right.png,1,Community 1,NA,TRUE,j,j,NA,NA,NA,4,6,"11,10,1,13,12,2,9,8,5,15,3,14,7,4,6"
15010,commdev-image-keyboard-response,210,982702,learnblock1,464.30000000004657,img/planet11_right.png,11,Community 1,NA,FALSE,f,j,NA,NA,NA,4,6,"11,10,1,13,12,2,9,8,5,15,3,14,7,4,6"
15010,commdev-image-keyboard-response,211,983953,learnblock1,519.8000000000466,img/planet10_left.png,10,Community 1,NA,FALSE,j,f,NA,NA,NA,4,6,"11,10,1,13,12,2,9,8,5,15,3,14,7,4,6"
15010,commdev-image-keyboard-response,212,985213,learnblock1,964.1000000000931,img/planet12_left.png,12,Community 1,NA,TRUE,f,f,NA,NA,NA,4,6,"11,10,1,13,12,2,9,8,5,15,3,14,7,4,6"
15010,commdev-image-keyboard-response,213,986464,learnblock1,null,img/planet1_left.png,1,Community 1,NA,FALSE,null,f,NA,NA,NA,4,6,"11,10,1,13,12,2,9,8,5,15,3,14,7,4,6"
15010,commdev-image-keyboard-response,214,987716,learnblock1,139.19999999995343,img/planet12_right.png,12,Community 1,NA,TRUE,j,j,NA,NA,NA,4,6,"11,10,1,13,12,2,9,8,5,15,3,14,7,4,6"
15010,commdev-image-keyboard-response,215,988974,learnblock1,4.800000000046566,img/planet11_left.png,11,Community 1,NA,FALSE,j,f,NA,NA,NA,4,6,"11,10,1,13,12,2,9,8,5,15,3,14,7,4,6"
15010,commdev-image-keyboard-response,216,990225,learnblock1,95.5,img/planet10_right.png,10,Community 1,NA,FALSE,f,j,NA,NA,NA,4,6,"11,10,1,13,12,2,9,8,5,15,3,14,7,4,6"
15010,commdev-image-keyboard-response,217,991486,learnblock1,1143.8000000000466,img/planet11_right.png,11,Community 1,NA,TRUE,j,j,NA,NA,NA,4,6,"11,10,1,13,12,2,9,8,5,15,3,14,7,4,6"
15010,commdev-image-keyboard-response,218,992737,learnblock1,708.3999999999069,img/planet12_left.png,12,Community 1,NA,TRUE,f,f,NA,NA,NA,4,6,"11,10,1,13,12,2,9,8,5,15,3,14,7,4,6"
15010,commdev-image-keyboard-response,219,993996,learnblock1,982.6000000000931,img/planet10_right.png,10,Community 1,NA,TRUE,j,j,NA,NA,NA,4,6,"11,10,1,13,12,2,9,8,5,15,3,14,7,4,6"
15010,commdev-image-keyboard-response,220,995248,learnblock1,972.2000000001863,img/planet1_left.png,1,Community 1,NA,TRUE,f,f,NA,NA,NA,4,6,"11,10,1,13,12,2,9,8,5,15,3,14,7,4,6"
15010,commdev-image-keyboard-response,221,996500,learnblock1,808.6999999999534,img/planet11_left.png,11,Community 1,NA,TRUE,f,f,NA,NA,NA,4,6,"11,10,1,13,12,2,9,8,5,15,3,14,7,4,6"
15010,commdev-image-keyboard-response,222,997758,learnblock1,472.80000000004657,img/planet1_right.png,1,Community 1,NA,TRUE,j,j,NA,NA,NA,4,6,"11,10,1,13,12,2,9,8,5,15,3,14,7,4,6"
15010,commdev-image-keyboard-response,223,999010,learnblock1,693,img/planet10_right.png,10,Community 1,NA,FALSE,f,j,NA,NA,NA,4,6,"11,10,1,13,12,2,9,8,5,15,3,14,7,4,6"
15010,commdev-image-keyboard-response,224,1000269,learnblock1,884.1999999999534,img/planet13_right.png,13,Community 1,NA,FALSE,f,j,NA,NA,NA,4,6,"11,10,1,13,12,2,9,8,5,15,3,14,7,4,6"
15010,commdev-image-keyboard-response,225,1001520,learnblock1,736.8000000000466,img/planet11_left.png,11,Community 1,NA,FALSE,j,f,NA,NA,NA,4,6,"11,10,1,13,12,2,9,8,5,15,3,14,7,4,6"
15010,commdev-image-keyboard-response,226,1002773,learnblock1,null,img/planet1_left.png,1,Community 1,NA,FALSE,null,f,NA,NA,NA,4,6,"11,10,1,13,12,2,9,8,5,15,3,14,7,4,6"
15010,commdev-image-keyboard-response,227,1004029,learnblock1,19.5,img/planet13_left.png,13,Community 1,NA,FALSE,j,f,NA,NA,NA,4,6,"11,10,1,13,12,2,9,8,5,15,3,14,7,4,6"
15010,commdev-image-keyboard-response,228,1005281,learnblock1,1141.4000000001397,img/planet11_right.png,11,Community 1,NA,FALSE,f,j,NA,NA,NA,4,6,"11,10,1,13,12,2,9,8,5,15,3,14,7,4,6"
15010,commdev-image-keyboard-response,229,1006541,learnblock1,1036.1000000000931,img/planet13_right.png,13,Community 1,NA,FALSE,f,j,NA,NA,NA,4,6,"11,10,1,13,12,2,9,8,5,15,3,14,7,4,6"
15010,commdev-image-keyboard-response,230,1007793,learnblock1,762,img/planet2_left.png,2,Community 2,NA,TRUE,f,f,NA,NA,NA,4,6,"11,10,1,13,12,2,9,8,5,15,3,14,7,4,6"
15010,commdev-image-keyboard-response,231,1009052,learnblock1,893.5,img/planet15_right.png,15,Community 2,NA,TRUE,j,j,NA,NA,NA,4,6,"11,10,1,13,12,2,9,8,5,15,3,14,7,4,6"
15010,commdev-image-keyboard-response,232,1010303,learnblock1,925.2999999998137,img/planet9_left.png,9,Community 2,NA,TRUE,f,f,NA,NA,NA,4,6,"11,10,1,13,12,2,9,8,5,15,3,14,7,4,6"
15010,commdev-image-keyboard-response,233,1011555,learnblock1,806.7999999998137,img/planet8_right.png,8,Community 2,NA,TRUE,j,j,NA,NA,NA,4,6,"11,10,1,13,12,2,9,8,5,15,3,14,7,4,6"
15010,commdev-image-keyboard-response,234,1012813,learnblock1,1221.5,img/planet14_right.png,14,Community 3,NA,TRUE,j,j,NA,NA,NA,4,6,"11,10,1,13,12,2,9,8,5,15,3,14,7,4,6"
15010,commdev-image-keyboard-response,235,1014066,learnblock1,992,img/planet7_left.png,7,Community 3,NA,TRUE,f,f,NA,NA,NA,4,6,"11,10,1,13,12,2,9,8,5,15,3,14,7,4,6"
15010,commdev-image-keyboard-response,236,1015325,learnblock1,1258.2000000001863,img/planet3_left.png,3,Community 3,NA,TRUE,f,f,NA,NA,NA,4,6,"11,10,1,13,12,2,9,8,5,15,3,14,7,4,6"
15010,commdev-image-keyboard-response,237,1016577,learnblock1,1127.5,img/planet12_right.png,12,Community 1,NA,TRUE,j,j,NA,NA,NA,4,6,"11,10,1,13,12,2,9,8,5,15,3,14,7,4,6"
15010,commdev-image-keyboard-response,238,1017829,learnblock1,1242.5,img/planet10_left.png,10,Community 1,NA,TRUE,f,f,NA,NA,NA,4,6,"11,10,1,13,12,2,9,8,5,15,3,14,7,4,6"
15010,commdev-image-keyboard-response,239,1019086,learnblock1,1102.3000000000466,img/planet13_right.png,13,Community 1,NA,TRUE,j,j,NA,NA,NA,4,6,"11,10,1,13,12,2,9,8,5,15,3,14,7,4,6"
15010,commdev-image-keyboard-response,240,1020338,learnblock1,922.5,img/planet11_left.png,11,Community 1,NA,TRUE,f,f,NA,NA,NA,4,6,"11,10,1,13,12,2,9,8,5,15,3,14,7,4,6"
15010,commdev-image-keyboard-response,241,1021596,learnblock1,665.8999999999069,img/planet1_left.png,1,Community 1,NA,FALSE,j,f,NA,NA,NA,4,6,"11,10,1,13,12,2,9,8,5,15,3,14,7,4,6"
15010,commdev-image-keyboard-response,242,1022848,learnblock1,716.1999999999534,img/planet10_right.png,10,Community 1,NA,TRUE,j,j,NA,NA,NA,4,6,"11,10,1,13,12,2,9,8,5,15,3,14,7,4,6"
15010,commdev-image-keyboard-response,243,1024100,learnblock1,838.8000000000466,img/planet12_right.png,12,Community 1,NA,TRUE,j,j,NA,NA,NA,4,6,"11,10,1,13,12,2,9,8,5,15,3,14,7,4,6"
15010,commdev-image-keyboard-response,244,1025357,learnblock1,908.7000000001863,img/planet10_left.png,10,Community 1,NA,TRUE,f,f,NA,NA,NA,4,6,"11,10,1,13,12,2,9,8,5,15,3,14,7,4,6"
15010,commdev-image-keyboard-response,245,1026609,learnblock1,799.3999999999069,img/planet12_left.png,12,Community 1,NA,FALSE,j,f,NA,NA,NA,4,6,"11,10,1,13,12,2,9,8,5,15,3,14,7,4,6"
15010,commdev-image-keyboard-response,246,1027869,learnblock1,986,img/planet10_left.png,10,Community 1,NA,FALSE,j,f,NA,NA,NA,4,6,"11,10,1,13,12,2,9,8,5,15,3,14,7,4,6"
15010,commdev-image-keyboard-response,247,1029121,learnblock1,925.7000000001863,img/planet1_right.png,1,Community 1,NA,TRUE,j,j,NA,NA,NA,4,6,"11,10,1,13,12,2,9,8,5,15,3,14,7,4,6"
15010,commdev-image-keyboard-response,248,1030382,learnblock1,760.3999999999069,img/planet10_left.png,10,Community 1,NA,TRUE,f,f,NA,NA,NA,4,6,"11,10,1,13,12,2,9,8,5,15,3,14,7,4,6"
15010,commdev-image-keyboard-response,249,1031633,learnblock1,966.2000000001863,img/planet13_left.png,13,Community 1,NA,TRUE,f,f,NA,NA,NA,4,6,"11,10,1,13,12,2,9,8,5,15,3,14,7,4,6"
15010,commdev-image-keyboard-response,250,1032893,learnblock1,1029.1999999999534,img/planet2_right.png,2,Community 2,NA,TRUE,j,j,NA,NA,NA,4,6,"11,10,1,13,12,2,9,8,5,15,3,14,7,4,6"
15010,commdev-image-keyboard-response,251,1034144,learnblock1,null,img/planet15_right.png,15,Community 2,NA,FALSE,null,j,NA,NA,NA,4,6,"11,10,1,13,12,2,9,8,5,15,3,14,7,4,6"
15010,commdev-image-keyboard-response,252,1035397,learnblock1,137.29999999981374,img/planet9_left.png,9,Community 2,NA,FALSE,j,f,NA,NA,NA,4,6,"11,10,1,13,12,2,9,8,5,15,3,14,7,4,6"
15010,commdev-image-keyboard-response,253,1036653,learnblock1,990.6999999999534,img/planet5_right.png,5,Community 2,NA,TRUE,j,j,NA,NA,NA,4,6,"11,10,1,13,12,2,9,8,5,15,3,14,7,4,6"
15010,commdev-image-keyboard-response,254,1037904,learnblock1,661.1999999999534,img/planet15_left.png,15,Community 2,NA,TRUE,f,f,NA,NA,NA,4,6,"11,10,1,13,12,2,9,8,5,15,3,14,7,4,6"
15010,commdev-image-keyboard-response,255,1039156,learnblock1,817.1999999999534,img/planet9_right.png,9,Community 2,NA,TRUE,j,j,NA,NA,NA,4,6,"11,10,1,13,12,2,9,8,5,15,3,14,7,4,6"
15010,commdev-image-keyboard-response,256,1040414,learnblock1,853.4000000001397,img/planet5_left.png,5,Community 2,NA,TRUE,f,f,NA,NA,NA,4,6,"11,10,1,13,12,2,9,8,5,15,3,14,7,4,6"
15010,commdev-image-keyboard-response,257,1041666,learnblock1,929,img/planet9_left.png,9,Community 2,NA,TRUE,f,f,NA,NA,NA,4,6,"11,10,1,13,12,2,9,8,5,15,3,14,7,4,6"
15010,commdev-image-keyboard-response,258,1042926,learnblock1,1043.0999999998603,img/planet5_left.png,5,Community 2,NA,TRUE,f,f,NA,NA,NA,4,6,"11,10,1,13,12,2,9,8,5,15,3,14,7,4,6"
15010,commdev-image-keyboard-response,259,1044178,learnblock1,894.8999999999069,img/planet2_left.png,2,Community 2,NA,TRUE,f,f,NA,NA,NA,4,6,"11,10,1,13,12,2,9,8,5,15,3,14,7,4,6"
15010,commdev-image-keyboard-response,260,1045437,learnblock1,872.8999999999069,img/planet13_left.png,13,Community 1,NA,TRUE,f,f,NA,NA,NA,4,6,"11,10,1,13,12,2,9,8,5,15,3,14,7,4,6"
15010,commdev-image-keyboard-response,261,1046689,learnblock1,845.3999999999069,img/planet11_left.png,11,Community 1,NA,TRUE,f,f,NA,NA,NA,4,6,"11,10,1,13,12,2,9,8,5,15,3,14,7,4,6"
15010,commdev-image-keyboard-response,262,1047950,learnblock1,934,img/planet13_right.png,13,Community 1,NA,TRUE,j,j,NA,NA,NA,4,6,"11,10,1,13,12,2,9,8,5,15,3,14,7,4,6"
15010,commdev-image-keyboard-response,263,1049201,learnblock1,819.1000000000931,img/planet11_left.png,11,Community 1,NA,TRUE,f,f,NA,NA,NA,4,6,"11,10,1,13,12,2,9,8,5,15,3,14,7,4,6"
15010,commdev-image-keyboard-response,264,1050462,learnblock1,837.1000000000931,img/planet1_right.png,1,Community 1,NA,TRUE,j,j,NA,NA,NA,4,6,"11,10,1,13,12,2,9,8,5,15,3,14,7,4,6"
15010,commdev-image-keyboard-response,265,1051714,learnblock1,777.1000000000931,img/planet13_right.png,13,Community 1,NA,TRUE,j,j,NA,NA,NA,4,6,"11,10,1,13,12,2,9,8,5,15,3,14,7,4,6"
15010,commdev-image-keyboard-response,266,1052974,learnblock1,645.8000000000466,img/planet2_left.png,2,Community 2,NA,FALSE,j,f,NA,NA,NA,4,6,"11,10,1,13,12,2,9,8,5,15,3,14,7,4,6"
15010,commdev-image-keyboard-response,267,1054225,learnblock1,828.5999999998603,img/planet15_left.png,15,Community 2,NA,TRUE,f,f,NA,NA,NA,4,6,"11,10,1,13,12,2,9,8,5,15,3,14,7,4,6"
15010,commdev-image-keyboard-response,268,1055485,learnblock1,813.2999999998137,img/planet8_left.png,8,Community 2,NA,TRUE,f,f,NA,NA,NA,4,6,"11,10,1,13,12,2,9,8,5,15,3,14,7,4,6"
15010,commdev-image-keyboard-response,269,1056737,learnblock1,null,img/planet15_right.png,15,Community 2,NA,FALSE,null,j,NA,NA,NA,4,6,"11,10,1,13,12,2,9,8,5,15,3,14,7,4,6"
15010,commdev-image-keyboard-response,270,1057989,learnblock1,59,img/planet5_right.png,5,Community 2,NA,TRUE,j,j,NA,NA,NA,4,6,"11,10,1,13,12,2,9,8,5,15,3,14,7,4,6"
15010,commdev-image-keyboard-response,271,1059245,learnblock1,1039.6999999999534,img/planet8_right.png,8,Community 2,NA,TRUE,j,j,NA,NA,NA,4,6,"11,10,1,13,12,2,9,8,5,15,3,14,7,4,6"
15010,commdev-image-keyboard-response,272,1060497,learnblock1,694.0999999998603,img/planet9_left.png,9,Community 2,NA,TRUE,f,f,NA,NA,NA,4,6,"11,10,1,13,12,2,9,8,5,15,3,14,7,4,6"
15010,commdev-image-keyboard-response,273,1061757,learnblock1,832.0999999998603,img/planet2_left.png,2,Community 2,NA,TRUE,f,f,NA,NA,NA,4,6,"11,10,1,13,12,2,9,8,5,15,3,14,7,4,6"
15010,commdev-image-keyboard-response,274,1063009,learnblock1,693.5999999998603,img/planet5_left.png,5,Community 2,NA,TRUE,f,f,NA,NA,NA,4,6,"11,10,1,13,12,2,9,8,5,15,3,14,7,4,6"
15010,commdev-image-keyboard-response,275,1064269,learnblock1,739.4000000001397,img/planet15_right.png,15,Community 2,NA,TRUE,j,j,NA,NA,NA,4,6,"11,10,1,13,12,2,9,8,5,15,3,14,7,4,6"
15010,commdev-image-keyboard-response,276,1065520,learnblock1,829.1000000000931,img/planet8_right.png,8,Community 2,NA,TRUE,j,j,NA,NA,NA,4,6,"11,10,1,13,12,2,9,8,5,15,3,14,7,4,6"
15010,commdev-image-keyboard-response,277,1066773,learnblock1,993.6000000000931,img/planet14_left.png,14,Community 3,NA,TRUE,f,f,NA,NA,NA,4,6,"11,10,1,13,12,2,9,8,5,15,3,14,7,4,6"
15010,commdev-image-keyboard-response,278,1068030,learnblock1,1132.6000000000931,img/planet7_right.png,7,Community 3,NA,TRUE,j,j,NA,NA,NA,4,6,"11,10,1,13,12,2,9,8,5,15,3,14,7,4,6"
15010,commdev-image-keyboard-response,279,1069281,learnblock1,null,img/planet6_left.png,6,Community 3,NA,FALSE,null,f,NA,NA,NA,4,6,"11,10,1,13,12,2,9,8,5,15,3,14,7,4,6"
15010,commdev-image-keyboard-response,280,1070541,learnblock1,106.30000000004657,img/planet4_left.png,4,Community 3,NA,FALSE,j,f,NA,NA,NA,4,6,"11,10,1,13,12,2,9,8,5,15,3,14,7,4,6"
15010,commdev-image-keyboard-response,281,1071793,learnblock1,945.3000000000466,img/planet3_right.png,3,Community 3,NA,TRUE,j,j,NA,NA,NA,4,6,"11,10,1,13,12,2,9,8,5,15,3,14,7,4,6"
15010,commdev-image-keyboard-response,282,1073053,learnblock1,915.0999999998603,img/planet4_left.png,4,Community 3,NA,TRUE,f,f,NA,NA,NA,4,6,"11,10,1,13,12,2,9,8,5,15,3,14,7,4,6"
15010,commdev-image-keyboard-response,283,1074304,learnblock1,911.5999999998603,img/planet3_right.png,3,Community 3,NA,TRUE,j,j,NA,NA,NA,4,6,"11,10,1,13,12,2,9,8,5,15,3,14,7,4,6"
15010,commdev-image-keyboard-response,284,1075557,learnblock1,1009.4000000001397,img/planet4_left.png,4,Community 3,NA,TRUE,f,f,NA,NA,NA,4,6,"11,10,1,13,12,2,9,8,5,15,3,14,7,4,6"
15010,commdev-image-keyboard-response,285,1076813,learnblock1,1012.3000000000466,img/planet6_left.png,6,Community 3,NA,TRUE,f,f,NA,NA,NA,4,6,"11,10,1,13,12,2,9,8,5,15,3,14,7,4,6"
15010,commdev-image-keyboard-response,286,1078066,learnblock1,726,img/planet4_left.png,4,Community 3,NA,TRUE,f,f,NA,NA,NA,4,6,"11,10,1,13,12,2,9,8,5,15,3,14,7,4,6"
15010,commdev-image-keyboard-response,287,1079326,learnblock1,906.8000000000466,img/planet14_right.png,14,Community 3,NA,TRUE,j,j,NA,NA,NA,4,6,"11,10,1,13,12,2,9,8,5,15,3,14,7,4,6"
15010,commdev-image-keyboard-response,288,1080577,learnblock1,802,img/planet6_left.png,6,Community 3,NA,FALSE,j,f,NA,NA,NA,4,6,"11,10,1,13,12,2,9,8,5,15,3,14,7,4,6"
15010,commdev-image-keyboard-response,289,1081837,learnblock1,1160.1999999999534,img/planet7_left.png,7,Community 3,NA,FALSE,j,f,NA,NA,NA,4,6,"11,10,1,13,12,2,9,8,5,15,3,14,7,4,6"
15010,commdev-image-keyboard-response,290,1083089,learnblock1,996.2000000001863,img/planet3_left.png,3,Community 3,NA,TRUE,f,f,NA,NA,NA,4,6,"11,10,1,13,12,2,9,8,5,15,3,14,7,4,6"
15010,commdev-image-keyboard-response,291,1084340,learnblock1,892.1000000000931,img/planet12_right.png,12,Community 1,NA,TRUE,j,j,NA,NA,NA,4,6,"11,10,1,13,12,2,9,8,5,15,3,14,7,4,6"
15010,commdev-image-keyboard-response,292,1085596,learnblock1,895.8999999999069,img/planet3_right.png,3,Community 3,NA,FALSE,f,j,NA,NA,NA,4,6,"11,10,1,13,12,2,9,8,5,15,3,14,7,4,6"
15010,commdev-image-keyboard-response,293,1086848,learnblock1,711.3000000000466,img/planet7_left.png,7,Community 3,NA,FALSE,j,f,NA,NA,NA,4,6,"11,10,1,13,12,2,9,8,5,15,3,14,7,4,6"
15010,commdev-image-keyboard-response,294,1088100,learnblock1,791.6000000000931,img/planet3_left.png,3,Community 3,NA,FALSE,j,f,NA,NA,NA,4,6,"11,10,1,13,12,2,9,8,5,15,3,14,7,4,6"
15010,commdev-image-keyboard-response,295,1089357,learnblock1,676.6000000000931,img/planet7_right.png,7,Community 3,NA,FALSE,f,j,NA,NA,NA,4,6,"11,10,1,13,12,2,9,8,5,15,3,14,7,4,6"
15010,commdev-image-keyboard-response,296,1090608,learnblock1,1124.5999999998603,img/planet3_left.png,3,Community 3,NA,FALSE,j,f,NA,NA,NA,4,6,"11,10,1,13,12,2,9,8,5,15,3,14,7,4,6"
15010,commdev-image-keyboard-response,297,1091860,learnblock1,918.1999999999534,img/planet6_right.png,6,Community 3,NA,TRUE,j,j,NA,NA,NA,4,6,"11,10,1,13,12,2,9,8,5,15,3,14,7,4,6"
15010,commdev-image-keyboard-response,298,1093116,learnblock1,728.5,img/planet7_right.png,7,Community 3,NA,FALSE,f,j,NA,NA,NA,4,6,"11,10,1,13,12,2,9,8,5,15,3,14,7,4,6"
15010,commdev-image-keyboard-response,299,1094369,learnblock1,593,img/planet3_left.png,3,Community 3,NA,FALSE,j,f,NA,NA,NA,4,6,"11,10,1,13,12,2,9,8,5,15,3,14,7,4,6"
15010,commdev-image-keyboard-response,300,1095630,learnblock1,1060.0999999998603,img/planet6_right.png,6,Community 3,NA,TRUE,j,j,NA,NA,NA,4,6,"11,10,1,13,12,2,9,8,5,15,3,14,7,4,6"
15010,commdev-image-keyboard-response,301,1096881,learnblock1,954.1999999999534,img/planet3_right.png,3,Community 3,NA,TRUE,j,j,NA,NA,NA,4,6,"11,10,1,13,12,2,9,8,5,15,3,14,7,4,6"
15010,commdev-image-keyboard-response,302,1098141,learnblock1,942.3999999999069,img/planet6_left.png,6,Community 3,NA,TRUE,f,f,NA,NA,NA,4,6,"11,10,1,13,12,2,9,8,5,15,3,14,7,4,6"
15010,commdev-image-keyboard-response,303,1099393,learnblock1,847.0999999998603,img/planet14_left.png,14,Community 3,NA,TRUE,f,f,NA,NA,NA,4,6,"11,10,1,13,12,2,9,8,5,15,3,14,7,4,6"
15010,commdev-image-keyboard-response,304,1100644,learnblock1,791.8000000000466,img/planet6_right.png,6,Community 3,NA,TRUE,j,j,NA,NA,NA,4,6,"11,10,1,13,12,2,9,8,5,15,3,14,7,4,6"
15010,commdev-image-keyboard-response,305,1101902,learnblock1,729.5,img/planet3_left.png,3,Community 3,NA,TRUE,f,f,NA,NA,NA,4,6,"11,10,1,13,12,2,9,8,5,15,3,14,7,4,6"
15010,commdev-image-keyboard-response,306,1103154,learnblock1,659.5999999998603,img/planet12_left.png,12,Community 1,NA,FALSE,j,f,NA,NA,NA,4,6,"11,10,1,13,12,2,9,8,5,15,3,14,7,4,6"
15010,commdev-image-keyboard-response,307,1104414,learnblock1,958.5,img/planet1_left.png,1,Community 1,NA,FALSE,j,f,NA,NA,NA,4,6,"11,10,1,13,12,2,9,8,5,15,3,14,7,4,6"
15010,commdev-image-keyboard-response,308,1105666,learnblock1,1241.6000000000931,img/planet12_right.png,12,Community 1,NA,FALSE,f,j,NA,NA,NA,4,6,"11,10,1,13,12,2,9,8,5,15,3,14,7,4,6"
15010,commdev-image-keyboard-response,309,1106925,learnblock1,520.1000000000931,img/planet1_left.png,1,Community 1,NA,FALSE,j,f,NA,NA,NA,4,6,"11,10,1,13,12,2,9,8,5,15,3,14,7,4,6"
15010,commdev-image-keyboard-response,310,1108177,learnblock1,13.399999999906868,img/planet13_left.png,13,Community 1,NA,TRUE,f,f,NA,NA,NA,4,6,"11,10,1,13,12,2,9,8,5,15,3,14,7,4,6"
15010,commdev-image-keyboard-response,311,1109437,learnblock1,699.1999999999534,img/planet2_right.png,2,Community 2,NA,TRUE,j,j,NA,NA,NA,4,6,"11,10,1,13,12,2,9,8,5,15,3,14,7,4,6"
15010,commdev-image-keyboard-response,312,1110689,learnblock1,788.5,img/planet9_right.png,9,Community 2,NA,FALSE,f,j,NA,NA,NA,4,6,"11,10,1,13,12,2,9,8,5,15,3,14,7,4,6"
15010,commdev-image-keyboard-response,313,1111950,learnblock1,1129.8999999999069,img/planet15_right.png,15,Community 2,NA,FALSE,f,j,NA,NA,NA,4,6,"11,10,1,13,12,2,9,8,5,15,3,14,7,4,6"
15010,commdev-image-keyboard-response,314,1113201,learnblock1,75.70000000018626,img/planet5_left.png,5,Community 2,NA,FALSE,j,f,NA,NA,NA,4,6,"11,10,1,13,12,2,9,8,5,15,3,14,7,4,6"
15010,commdev-image-keyboard-response,315,1114461,learnblock1,861.6000000000931,img/planet9_right.png,9,Community 2,NA,TRUE,j,j,NA,NA,NA,4,6,"11,10,1,13,12,2,9,8,5,15,3,14,7,4,6"
15010,commdev-image-keyboard-response,316,1115713,learnblock1,115.19999999995343,img/planet15_left.png,15,Community 2,NA,TRUE,f,f,NA,NA,NA,4,6,"11,10,1,13,12,2,9,8,5,15,3,14,7,4,6"
15010,commdev-image-keyboard-response,317,1116974,learnblock1,760.5,img/planet8_left.png,8,Community 2,NA,TRUE,f,f,NA,NA,NA,4,6,"11,10,1,13,12,2,9,8,5,15,3,14,7,4,6"
15010,commdev-image-keyboard-response,318,1118225,learnblock1,479.29999999981374,img/planet5_right.png,5,Community 2,NA,FALSE,f,j,NA,NA,NA,4,6,"11,10,1,13,12,2,9,8,5,15,3,14,7,4,6"
15010,commdev-image-keyboard-response,319,1119486,learnblock1,1028.3000000000466,img/planet9_right.png,9,Community 2,NA,TRUE,j,j,NA,NA,NA,4,6,"11,10,1,13,12,2,9,8,5,15,3,14,7,4,6"
15010,commdev-image-keyboard-response,320,1120738,learnblock1,856.6000000000931,img/planet2_left.png,2,Community 2,NA,TRUE,f,f,NA,NA,NA,4,6,"11,10,1,13,12,2,9,8,5,15,3,14,7,4,6"
15010,commdev-image-keyboard-response,321,1121997,learnblock1,955.5999999998603,img/planet5_right.png,5,Community 2,NA,TRUE,j,j,NA,NA,NA,4,6,"11,10,1,13,12,2,9,8,5,15,3,14,7,4,6"
15010,commdev-image-keyboard-response,322,1123249,learnblock1,868.3999999999069,img/planet8_right.png,8,Community 2,NA,TRUE,j,j,NA,NA,NA,4,6,"11,10,1,13,12,2,9,8,5,15,3,14,7,4,6"
15010,commdev-image-keyboard-response,323,1124510,learnblock1,763.6000000000931,img/planet5_right.png,5,Community 2,NA,TRUE,j,j,NA,NA,NA,4,6,"11,10,1,13,12,2,9,8,5,15,3,14,7,4,6"
15010,commdev-image-keyboard-response,324,1125762,learnblock1,564.8999999999069,img/planet8_left.png,8,Community 2,NA,TRUE,f,f,NA,NA,NA,4,6,"11,10,1,13,12,2,9,8,5,15,3,14,7,4,6"
15010,commdev-image-keyboard-response,325,1127021,learnblock1,998.6000000000931,img/planet9_left.png,9,Community 2,NA,TRUE,f,f,NA,NA,NA,4,6,"11,10,1,13,12,2,9,8,5,15,3,14,7,4,6"
15010,commdev-image-keyboard-response,326,1128272,learnblock1,953,img/planet15_right.png,15,Community 2,NA,TRUE,j,j,NA,NA,NA,4,6,"11,10,1,13,12,2,9,8,5,15,3,14,7,4,6"
15010,commdev-image-keyboard-response,327,1129525,learnblock1,797.0999999998603,img/planet5_right.png,5,Community 2,NA,FALSE,f,j,NA,NA,NA,4,6,"11,10,1,13,12,2,9,8,5,15,3,14,7,4,6"
15010,commdev-image-keyboard-response,328,1130781,learnblock1,1145.6999999999534,img/planet9_right.png,9,Community 2,NA,TRUE,j,j,NA,NA,NA,4,6,"11,10,1,13,12,2,9,8,5,15,3,14,7,4,6"
15010,commdev-image-keyboard-response,329,1132033,learnblock1,1011.6999999999534,img/planet5_left.png,5,Community 2,NA,FALSE,j,f,NA,NA,NA,4,6,"11,10,1,13,12,2,9,8,5,15,3,14,7,4,6"
15010,commdev-image-keyboard-response,330,1133294,learnblock1,686.8000000000466,img/planet8_left.png,8,Community 2,NA,TRUE,f,f,NA,NA,NA,4,6,"11,10,1,13,12,2,9,8,5,15,3,14,7,4,6"
15010,commdev-image-keyboard-response,331,1134545,learnblock1,995,img/planet14_right.png,14,Community 3,NA,FALSE,f,j,NA,NA,NA,4,6,"11,10,1,13,12,2,9,8,5,15,3,14,7,4,6"
15010,commdev-image-keyboard-response,332,1135805,learnblock1,1015.3000000000466,img/planet6_left.png,6,Community 3,NA,TRUE,f,f,NA,NA,NA,4,6,"11,10,1,13,12,2,9,8,5,15,3,14,7,4,6"
15010,commdev-image-keyboard-response,333,1137057,learnblock1,876.0999999998603,img/planet14_left.png,14,Community 3,NA,TRUE,f,f,NA,NA,NA,4,6,"11,10,1,13,12,2,9,8,5,15,3,14,7,4,6"
15010,commdev-image-keyboard-response,334,1138309,learnblock1,1015.3000000000466,img/planet6_right.png,6,Community 3,NA,TRUE,j,j,NA,NA,NA,4,6,"11,10,1,13,12,2,9,8,5,15,3,14,7,4,6"
15010,commdev-image-keyboard-response,335,1139565,learnblock1,799.0999999998603,img/planet4_right.png,4,Community 3,NA,FALSE,f,j,NA,NA,NA,4,6,"11,10,1,13,12,2,9,8,5,15,3,14,7,4,6"
15010,commdev-image-keyboard-response,336,1140818,learnblock1,1213,img/planet14_left.png,14,Community 3,NA,TRUE,f,f,NA,NA,NA,4,6,"11,10,1,13,12,2,9,8,5,15,3,14,7,4,6"
15010,commdev-image-keyboard-response,337,1142078,learnblock1,912.8000000000466,img/planet7_left.png,7,Community 3,NA,TRUE,f,f,NA,NA,NA,4,6,"11,10,1,13,12,2,9,8,5,15,3,14,7,4,6"
15010,commdev-image-keyboard-response,338,1143330,learnblock1,1069.8000000000466,img/planet14_left.png,14,Community 3,NA,TRUE,f,f,NA,NA,NA,4,6,"11,10,1,13,12,2,9,8,5,15,3,14,7,4,6"
15010,commdev-image-keyboard-response,339,1144590,learnblock1,982.6999999999534,img/planet7_right.png,7,Community 3,NA,TRUE,j,j,NA,NA,NA,4,6,"11,10,1,13,12,2,9,8,5,15,3,14,7,4,6"
15010,commdev-image-keyboard-response,340,1145841,learnblock1,1018,img/planet6_left.png,6,Community 3,NA,TRUE,f,f,NA,NA,NA,4,6,"11,10,1,13,12,2,9,8,5,15,3,14,7,4,6"
15010,commdev-image-keyboard-response,341,1147092,learnblock1,1090.3000000000466,img/planet4_right.png,4,Community 3,NA,TRUE,j,j,NA,NA,NA,4,6,"11,10,1,13,12,2,9,8,5,15,3,14,7,4,6"
15010,commdev-image-keyboard-response,342,1148350,learnblock1,1052,img/planet7_left.png,7,Community 3,NA,TRUE,f,f,NA,NA,NA,4,6,"11,10,1,13,12,2,9,8,5,15,3,14,7,4,6"
15010,commdev-image-keyboard-response,343,1149602,learnblock1,940.0999999998603,img/planet4_left.png,4,Community 3,NA,FALSE,j,f,NA,NA,NA,4,6,"11,10,1,13,12,2,9,8,5,15,3,14,7,4,6"
15010,commdev-image-keyboard-response,344,1150861,learnblock1,965,img/planet3_right.png,3,Community 3,NA,TRUE,j,j,NA,NA,NA,4,6,"11,10,1,13,12,2,9,8,5,15,3,14,7,4,6"
15010,commdev-image-keyboard-response,345,1152112,learnblock1,858,img/planet12_left.png,12,Community 1,NA,TRUE,f,f,NA,NA,NA,4,6,"11,10,1,13,12,2,9,8,5,15,3,14,7,4,6"
15010,commdev-image-keyboard-response,346,1153363,learnblock1,860.5,img/planet11_left.png,11,Community 1,NA,TRUE,f,f,NA,NA,NA,4,6,"11,10,1,13,12,2,9,8,5,15,3,14,7,4,6"
15010,commdev-image-keyboard-response,347,1154621,learnblock1,772.3000000000466,img/planet10_right.png,10,Community 1,NA,TRUE,j,j,NA,NA,NA,4,6,"11,10,1,13,12,2,9,8,5,15,3,14,7,4,6"
15010,commdev-image-keyboard-response,348,1155873,learnblock1,838.2000000001863,img/planet13_right.png,13,Community 1,NA,TRUE,j,j,NA,NA,NA,4,6,"11,10,1,13,12,2,9,8,5,15,3,14,7,4,6"
15010,commdev-image-keyboard-response,349,1157125,learnblock1,851.1999999999534,img/planet2_right.png,2,Community 2,NA,TRUE,j,j,NA,NA,NA,4,6,"11,10,1,13,12,2,9,8,5,15,3,14,7,4,6"
15010,commdev-image-keyboard-response,350,1158382,learnblock1,872,img/planet15_left.png,15,Community 2,NA,TRUE,f,f,NA,NA,NA,4,6,"11,10,1,13,12,2,9,8,5,15,3,14,7,4,6"
15010,commdev-image-keyboard-response,351,1159633,learnblock1,null,img/planet9_right.png,9,Community 2,NA,FALSE,null,j,NA,NA,NA,4,6,"11,10,1,13,12,2,9,8,5,15,3,14,7,4,6"
15010,commdev-image-keyboard-response,352,1160893,learnblock1,83.89999999990687,img/planet2_left.png,2,Community 2,NA,FALSE,j,f,NA,NA,NA,4,6,"11,10,1,13,12,2,9,8,5,15,3,14,7,4,6"
15010,commdev-image-keyboard-response,353,1162144,learnblock1,931,img/planet9_right.png,9,Community 2,NA,TRUE,j,j,NA,NA,NA,4,6,"11,10,1,13,12,2,9,8,5,15,3,14,7,4,6"
15010,commdev-image-keyboard-response,354,1163397,learnblock1,689.7000000001863,img/planet2_left.png,2,Community 2,NA,TRUE,f,f,NA,NA,NA,4,6,"11,10,1,13,12,2,9,8,5,15,3,14,7,4,6"
15010,commdev-image-keyboard-response,355,1164653,learnblock1,709.5,img/planet13_right.png,13,Community 1,NA,FALSE,f,j,NA,NA,NA,4,6,"11,10,1,13,12,2,9,8,5,15,3,14,7,4,6"
15010,commdev-image-keyboard-response,356,1165905,learnblock1,675.3000000000466,img/planet11_left.png,11,Community 1,NA,FALSE,j,f,NA,NA,NA,4,6,"11,10,1,13,12,2,9,8,5,15,3,14,7,4,6"
15010,commdev-image-keyboard-response,357,1167165,learnblock1,755.4000000001397,img/planet13_right.png,13,Community 1,NA,TRUE,j,j,NA,NA,NA,4,6,"11,10,1,13,12,2,9,8,5,15,3,14,7,4,6"
15010,commdev-image-keyboard-response,358,1168417,learnblock1,533.0999999998603,img/planet11_right.png,11,Community 1,NA,FALSE,f,j,NA,NA,NA,4,6,"11,10,1,13,12,2,9,8,5,15,3,14,7,4,6"
15010,commdev-image-keyboard-response,359,1169677,learnblock1,570.6999999999534,img/planet1_left.png,1,Community 1,NA,FALSE,j,f,NA,NA,NA,4,6,"11,10,1,13,12,2,9,8,5,15,3,14,7,4,6"
15010,commdev-image-keyboard-response,360,1170929,learnblock1,129,img/planet12_right.png,12,Community 1,NA,FALSE,f,j,NA,NA,NA,4,6,"11,10,1,13,12,2,9,8,5,15,3,14,7,4,6"
15010,commdev-image-keyboard-response,361,1172181,learnblock1,292.10000000009313,img/planet11_left.png,11,Community 1,NA,FALSE,j,f,NA,NA,NA,4,6,"11,10,1,13,12,2,9,8,5,15,3,14,7,4,6"
15010,commdev-image-keyboard-response,362,1173437,learnblock1,49.9000000001397,img/planet13_left.png,13,Community 1,NA,TRUE,f,f,NA,NA,NA,4,6,"11,10,1,13,12,2,9,8,5,15,3,14,7,4,6"
15010,commdev-image-keyboard-response,363,1174689,learnblock1,21.800000000046566,img/planet1_left.png,1,Community 1,NA,TRUE,f,f,NA,NA,NA,4,6,"11,10,1,13,12,2,9,8,5,15,3,14,7,4,6"
15010,commdev-image-keyboard-response,364,1175950,learnblock1,122.19999999995343,img/planet12_right.png,12,Community 1,NA,FALSE,f,j,NA,NA,NA,4,6,"11,10,1,13,12,2,9,8,5,15,3,14,7,4,6"
15010,commdev-image-keyboard-response,365,1177202,learnblock1,15.600000000093132,img/planet10_left.png,10,Community 1,NA,FALSE,j,f,NA,NA,NA,4,6,"11,10,1,13,12,2,9,8,5,15,3,14,7,4,6"
15010,commdev-image-keyboard-response,366,1178462,learnblock1,905.7999999998137,img/planet12_right.png,12,Community 1,NA,TRUE,j,j,NA,NA,NA,4,6,"11,10,1,13,12,2,9,8,5,15,3,14,7,4,6"
15010,commdev-image-keyboard-response,367,1179713,learnblock1,1139.5,img/planet1_right.png,1,Community 1,NA,TRUE,j,j,NA,NA,NA,4,6,"11,10,1,13,12,2,9,8,5,15,3,14,7,4,6"
15010,commdev-image-keyboard-response,368,1180965,learnblock1,967,img/planet13_right.png,13,Community 1,NA,TRUE,j,j,NA,NA,NA,4,6,"11,10,1,13,12,2,9,8,5,15,3,14,7,4,6"
15010,commdev-image-keyboard-response,369,1182220,learnblock1,698.6999999999534,img/planet1_right.png,1,Community 1,NA,TRUE,j,j,NA,NA,NA,4,6,"11,10,1,13,12,2,9,8,5,15,3,14,7,4,6"
15010,commdev-image-keyboard-response,370,1183472,learnblock1,1096.8999999999069,img/planet13_right.png,13,Community 1,NA,TRUE,j,j,NA,NA,NA,4,6,"11,10,1,13,12,2,9,8,5,15,3,14,7,4,6"
15010,commdev-image-keyboard-response,371,1184725,learnblock1,1152.3999999999069,img/planet2_left.png,2,Community 2,NA,TRUE,f,f,NA,NA,NA,4,6,"11,10,1,13,12,2,9,8,5,15,3,14,7,4,6"
15010,commdev-image-keyboard-response,372,1185981,learnblock1,null,img/planet13_right.png,13,Community 1,NA,FALSE,null,j,NA,NA,NA,4,6,"11,10,1,13,12,2,9,8,5,15,3,14,7,4,6"
15010,commdev-image-keyboard-response,373,1187234,learnblock1,211,img/planet1_right.png,1,Community 1,NA,TRUE,j,j,NA,NA,NA,4,6,"11,10,1,13,12,2,9,8,5,15,3,14,7,4,6"
15010,commdev-image-keyboard-response,374,1188493,learnblock1,1142.9000000001397,img/planet12_left.png,12,Community 1,NA,FALSE,j,f,NA,NA,NA,4,6,"11,10,1,13,12,2,9,8,5,15,3,14,7,4,6"
15010,commdev-image-keyboard-response,375,1189745,learnblock1,1147,img/planet3_left.png,3,Community 3,NA,TRUE,f,f,NA,NA,NA,4,6,"11,10,1,13,12,2,9,8,5,15,3,14,7,4,6"
15010,commdev-image-keyboard-response,376,1190997,learnblock1,840.2999999998137,img/planet4_right.png,4,Community 3,NA,TRUE,j,j,NA,NA,NA,4,6,"11,10,1,13,12,2,9,8,5,15,3,14,7,4,6"
15010,commdev-image-keyboard-response,377,1192254,learnblock1,null,img/planet6_right.png,6,Community 3,NA,FALSE,null,j,NA,NA,NA,4,6,"11,10,1,13,12,2,9,8,5,15,3,14,7,4,6"
15010,commdev-image-keyboard-response,378,1193505,learnblock1,143.5,img/planet4_left.png,4,Community 3,NA,TRUE,f,f,NA,NA,NA,4,6,"11,10,1,13,12,2,9,8,5,15,3,14,7,4,6"
15010,commdev-image-keyboard-response,379,1194765,learnblock1,1118.1999999999534,img/planet7_right.png,7,Community 3,NA,TRUE,j,j,NA,NA,NA,4,6,"11,10,1,13,12,2,9,8,5,15,3,14,7,4,6"
15010,commdev-image-keyboard-response,380,1196016,learnblock1,1207.3999999999069,img/planet6_left.png,6,Community 3,NA,FALSE,j,f,NA,NA,NA,4,6,"11,10,1,13,12,2,9,8,5,15,3,14,7,4,6"
15010,commdev-image-keyboard-response,381,1197269,learnblock1,1238.5,img/planet14_left.png,14,Community 3,NA,TRUE,f,f,NA,NA,NA,4,6,"11,10,1,13,12,2,9,8,5,15,3,14,7,4,6"
15010,commdev-image-keyboard-response,382,1198525,learnblock1,1132.8999999999069,img/planet7_right.png,7,Community 3,NA,TRUE,j,j,NA,NA,NA,4,6,"11,10,1,13,12,2,9,8,5,15,3,14,7,4,6"
15010,commdev-image-keyboard-response,383,1199777,learnblock1,1140.5,img/planet4_right.png,4,Community 3,NA,TRUE,j,j,NA,NA,NA,4,6,"11,10,1,13,12,2,9,8,5,15,3,14,7,4,6"
15010,commdev-image-keyboard-response,384,1201038,learnblock1,1094.1999999999534,img/planet7_right.png,7,Community 3,NA,TRUE,j,j,NA,NA,NA,4,6,"11,10,1,13,12,2,9,8,5,15,3,14,7,4,6"
15010,commdev-image-keyboard-response,385,1202290,learnblock1,1108,img/planet14_left.png,14,Community 3,NA,FALSE,j,f,NA,NA,NA,4,6,"11,10,1,13,12,2,9,8,5,15,3,14,7,4,6"
15010,commdev-image-keyboard-response,386,1203549,learnblock1,1002.4000000001397,img/planet7_right.png,7,Community 3,NA,TRUE,j,j,NA,NA,NA,4,6,"11,10,1,13,12,2,9,8,5,15,3,14,7,4,6"
15010,commdev-image-keyboard-response,387,1204801,learnblock1,822.0999999998603,img/planet14_left.png,14,Community 3,NA,TRUE,f,f,NA,NA,NA,4,6,"11,10,1,13,12,2,9,8,5,15,3,14,7,4,6"
15010,commdev-image-keyboard-response,388,1206061,learnblock1,1087.0999999998603,img/planet6_left.png,6,Community 3,NA,TRUE,f,f,NA,NA,NA,4,6,"11,10,1,13,12,2,9,8,5,15,3,14,7,4,6"
15010,commdev-image-keyboard-response,389,1207313,learnblock1,1049.8999999999069,img/planet7_right.png,7,Community 3,NA,TRUE,j,j,NA,NA,NA,4,6,"11,10,1,13,12,2,9,8,5,15,3,14,7,4,6"
15010,commdev-image-keyboard-response,390,1208573,learnblock1,1206.5999999998603,img/planet4_left.png,4,Community 3,NA,FALSE,j,f,NA,NA,NA,4,6,"11,10,1,13,12,2,9,8,5,15,3,14,7,4,6"
15010,commdev-image-keyboard-response,391,1209825,learnblock1,1076.8000000000466,img/planet3_right.png,3,Community 3,NA,TRUE,j,j,NA,NA,NA,4,6,"11,10,1,13,12,2,9,8,5,15,3,14,7,4,6"
15010,commdev-image-keyboard-response,392,1211084,learnblock1,null,img/planet7_right.png,7,Community 3,NA,FALSE,null,j,NA,NA,NA,4,6,"11,10,1,13,12,2,9,8,5,15,3,14,7,4,6"
15010,commdev-image-keyboard-response,393,1212336,learnblock1,7.699999999953434,img/planet3_right.png,3,Community 3,NA,FALSE,f,j,NA,NA,NA,4,6,"11,10,1,13,12,2,9,8,5,15,3,14,7,4,6"
15010,commdev-image-keyboard-response,394,1213588,learnblock1,57,img/planet6_left.png,6,Community 3,NA,TRUE,f,f,NA,NA,NA,4,6,"11,10,1,13,12,2,9,8,5,15,3,14,7,4,6"
15010,commdev-image-keyboard-response,395,1214844,learnblock1,1221.5,img/planet7_right.png,7,Community 3,NA,TRUE,j,j,NA,NA,NA,4,6,"11,10,1,13,12,2,9,8,5,15,3,14,7,4,6"
15010,commdev-image-keyboard-response,396,1216096,learnblock1,null,img/planet6_right.png,6,Community 3,NA,FALSE,null,j,NA,NA,NA,4,6,"11,10,1,13,12,2,9,8,5,15,3,14,7,4,6"
15010,commdev-image-keyboard-response,397,1217349,learnblock1,475.60000000009313,img/planet4_left.png,4,Community 3,NA,FALSE,j,f,NA,NA,NA,4,6,"11,10,1,13,12,2,9,8,5,15,3,14,7,4,6"
15010,commdev-image-keyboard-response,398,1218604,learnblock1,302.5999999998603,img/planet7_right.png,7,Community 3,NA,TRUE,j,j,NA,NA,NA,4,6,"11,10,1,13,12,2,9,8,5,15,3,14,7,4,6"
15010,commdev-image-keyboard-response,399,1219856,learnblock1,null,img/planet14_right.png,14,Community 3,NA,FALSE,null,j,NA,NA,NA,4,6,"11,10,1,13,12,2,9,8,5,15,3,14,7,4,6"
15010,commdev-image-keyboard-response,400,1221108,learnblock1,680,img/planet7_right.png,7,Community 3,NA,FALSE,f,j,NA,NA,NA,4,6,"11,10,1,13,12,2,9,8,5,15,3,14,7,4,6"
15010,commdev-image-keyboard-response,401,1222365,learnblock1,1223.3999999999069,img/planet6_right.png,6,Community 3,NA,TRUE,j,j,NA,NA,NA,4,6,"11,10,1,13,12,2,9,8,5,15,3,14,7,4,6"
15010,commdev-image-keyboard-response,402,1223617,learnblock1,null,img/planet3_right.png,3,Community 3,NA,FALSE,null,j,NA,NA,NA,4,6,"11,10,1,13,12,2,9,8,5,15,3,14,7,4,6"
15010,commdev-image-keyboard-response,403,1224877,learnblock1,148.69999999995343,img/planet6_left.png,6,Community 3,NA,FALSE,j,f,NA,NA,NA,4,6,"11,10,1,13,12,2,9,8,5,15,3,14,7,4,6"
15010,commdev-image-keyboard-response,404,1226129,learnblock1,845.2999999998137,img/planet7_left.png,7,Community 3,NA,FALSE,j,f,NA,NA,NA,4,6,"11,10,1,13,12,2,9,8,5,15,3,14,7,4,6"
15010,commdev-image-keyboard-response,405,1227389,learnblock1,null,img/planet4_left.png,4,Community 3,NA,FALSE,null,f,NA,NA,NA,4,6,"11,10,1,13,12,2,9,8,5,15,3,14,7,4,6"
15010,commdev-image-keyboard-response,406,1228641,learnblock1,795.6999999999534,img/planet7_left.png,7,Community 3,NA,FALSE,j,f,NA,NA,NA,4,6,"11,10,1,13,12,2,9,8,5,15,3,14,7,4,6"
15010,commdev-image-keyboard-response,407,1229893,learnblock1,513.5,img/planet3_right.png,3,Community 3,NA,FALSE,f,j,NA,NA,NA,4,6,"11,10,1,13,12,2,9,8,5,15,3,14,7,4,6"
15010,commdev-image-keyboard-response,408,1231149,learnblock1,483.89999999990687,img/planet12_left.png,12,Community 1,NA,FALSE,j,f,NA,NA,NA,4,6,"11,10,1,13,12,2,9,8,5,15,3,14,7,4,6"
15010,commdev-image-keyboard-response,409,1232401,learnblock1,1024.9000000001397,img/planet1_left.png,1,Community 1,NA,FALSE,j,f,NA,NA,NA,4,6,"11,10,1,13,12,2,9,8,5,15,3,14,7,4,6"
15010,commdev-image-keyboard-response,410,1233662,learnblock1,608,img/planet13_left.png,13,Community 1,NA,TRUE,f,f,NA,NA,NA,4,6,"11,10,1,13,12,2,9,8,5,15,3,14,7,4,6"
15010,commdev-image-keyboard-response,411,1234913,learnblock1,90.30000000004657,img/planet1_left.png,1,Community 1,NA,FALSE,j,f,NA,NA,NA,4,6,"11,10,1,13,12,2,9,8,5,15,3,14,7,4,6"
15010,commdev-image-keyboard-response,412,1236174,learnblock1,744,img/planet12_left.png,12,Community 1,NA,FALSE,j,f,NA,NA,NA,4,6,"11,10,1,13,12,2,9,8,5,15,3,14,7,4,6"
15010,commdev-image-keyboard-response,413,1237426,learnblock1,883.5999999998603,img/planet1_right.png,1,Community 1,NA,TRUE,j,j,NA,NA,NA,4,6,"11,10,1,13,12,2,9,8,5,15,3,14,7,4,6"
15010,commdev-image-keyboard-response,414,1238684,learnblock1,1167.6999999999534,img/planet11_left.png,11,Community 1,NA,TRUE,f,f,NA,NA,NA,4,6,"11,10,1,13,12,2,9,8,5,15,3,14,7,4,6"
15010,commdev-image-keyboard-response,415,1239937,learnblock1,null,img/planet12_left.png,12,Community 1,NA,FALSE,null,f,NA,NA,NA,4,6,"11,10,1,13,12,2,9,8,5,15,3,14,7,4,6"
15010,commdev-image-keyboard-response,416,1241189,learnblock1,null,img/planet11_right.png,11,Community 1,NA,FALSE,null,j,NA,NA,NA,4,6,"11,10,1,13,12,2,9,8,5,15,3,14,7,4,6"
15010,commdev-image-keyboard-response,417,1242445,learnblock1,null,img/planet1_right.png,1,Community 1,NA,FALSE,null,j,NA,NA,NA,4,6,"11,10,1,13,12,2,9,8,5,15,3,14,7,4,6"
15010,commdev-image-keyboard-response,418,1243697,learnblock1,632.6000000000931,img/planet10_right.png,10,Community 1,NA,FALSE,f,j,NA,NA,NA,4,6,"11,10,1,13,12,2,9,8,5,15,3,14,7,4,6"
15010,commdev-image-keyboard-response,419,1244958,learnblock1,33.699999999953434,img/planet11_right.png,11,Community 1,NA,TRUE,j,j,NA,NA,NA,4,6,"11,10,1,13,12,2,9,8,5,15,3,14,7,4,6"
15010,commdev-image-keyboard-response,420,1246210,learnblock1,848.0999999998603,img/planet13_right.png,13,Community 1,NA,TRUE,j,j,NA,NA,NA,4,6,"11,10,1,13,12,2,9,8,5,15,3,14,7,4,6"
15010,commdev-image-keyboard-response,421,1247469,learnblock1,1180.7000000001863,img/planet11_left.png,11,Community 1,NA,TRUE,f,f,NA,NA,NA,4,6,"11,10,1,13,12,2,9,8,5,15,3,14,7,4,6"
15010,commdev-image-keyboard-response,422,1248720,learnblock1,124,img/planet1_left.png,1,Community 1,NA,TRUE,f,f,NA,NA,NA,4,6,"11,10,1,13,12,2,9,8,5,15,3,14,7,4,6"
15010,commdev-image-keyboard-response,423,1249973,learnblock1,921.5,img/planet10_right.png,10,Community 1,NA,TRUE,j,j,NA,NA,NA,4,6,"11,10,1,13,12,2,9,8,5,15,3,14,7,4,6"
15010,commdev-image-keyboard-response,424,1251230,learnblock1,866.5999999998603,img/planet12_left.png,12,Community 1,NA,TRUE,f,f,NA,NA,NA,4,6,"11,10,1,13,12,2,9,8,5,15,3,14,7,4,6"
15010,commdev-image-keyboard-response,425,1252482,learnblock1,831.3000000000466,img/planet1_right.png,1,Community 1,NA,TRUE,j,j,NA,NA,NA,4,6,"11,10,1,13,12,2,9,8,5,15,3,14,7,4,6"
15010,commdev-image-keyboard-response,426,1253741,learnblock1,1149,img/planet11_right.png,11,Community 1,NA,TRUE,j,j,NA,NA,NA,4,6,"11,10,1,13,12,2,9,8,5,15,3,14,7,4,6"
15010,commdev-image-keyboard-response,427,1254993,learnblock1,1112.6000000000931,img/planet13_right.png,13,Community 1,NA,TRUE,j,j,NA,NA,NA,4,6,"11,10,1,13,12,2,9,8,5,15,3,14,7,4,6"
15010,commdev-image-keyboard-response,428,1256253,learnblock1,989.1999999999534,img/planet1_left.png,1,Community 1,NA,FALSE,j,f,NA,NA,NA,4,6,"11,10,1,13,12,2,9,8,5,15,3,14,7,4,6"
15010,commdev-image-keyboard-response,429,1257504,learnblock1,1204.7999999998137,img/planet10_left.png,10,Community 1,NA,TRUE,f,f,NA,NA,NA,4,6,"11,10,1,13,12,2,9,8,5,15,3,14,7,4,6"
15010,commdev-image-keyboard-response,430,1258756,learnblock1,null,img/planet11_right.png,11,Community 1,NA,FALSE,null,j,NA,NA,NA,4,6,"11,10,1,13,12,2,9,8,5,15,3,14,7,4,6"
15010,commdev-image-keyboard-response,431,1260012,learnblock1,877.1999999999534,img/planet1_right.png,1,Community 1,NA,TRUE,j,j,NA,NA,NA,4,6,"11,10,1,13,12,2,9,8,5,15,3,14,7,4,6"
15010,commdev-image-keyboard-response,432,1261264,learnblock1,936.4000000001397,img/planet11_right.png,11,Community 1,NA,TRUE,j,j,NA,NA,NA,4,6,"11,10,1,13,12,2,9,8,5,15,3,14,7,4,6"
15010,commdev-image-keyboard-response,433,1262516,learnblock1,950.6999999999534,img/planet10_left.png,10,Community 1,NA,TRUE,f,f,NA,NA,NA,4,6,"11,10,1,13,12,2,9,8,5,15,3,14,7,4,6"
15010,commdev-image-keyboard-response,434,1263773,learnblock1,1132.1999999999534,img/planet13_left.png,13,Community 1,NA,TRUE,f,f,NA,NA,NA,4,6,"11,10,1,13,12,2,9,8,5,15,3,14,7,4,6"
15010,commdev-image-keyboard-response,435,1265026,learnblock1,1206.9000000001397,img/planet10_right.png,10,Community 1,NA,TRUE,j,j,NA,NA,NA,4,6,"11,10,1,13,12,2,9,8,5,15,3,14,7,4,6"
15010,commdev-image-keyboard-response,436,1266286,learnblock1,806.5,img/planet13_left.png,13,Community 1,NA,TRUE,f,f,NA,NA,NA,4,6,"11,10,1,13,12,2,9,8,5,15,3,14,7,4,6"
15010,commdev-image-keyboard-response,437,1267538,learnblock1,930.3000000000466,img/planet1_left.png,1,Community 1,NA,FALSE,j,f,NA,NA,NA,4,6,"11,10,1,13,12,2,9,8,5,15,3,14,7,4,6"
15010,commdev-image-keyboard-response,438,1268797,learnblock1,733.9000000001397,img/planet11_right.png,11,Community 1,NA,TRUE,j,j,NA,NA,NA,4,6,"11,10,1,13,12,2,9,8,5,15,3,14,7,4,6"
15010,commdev-image-keyboard-response,439,1270049,learnblock1,562.0999999998603,img/planet13_left.png,13,Community 1,NA,TRUE,f,f,NA,NA,NA,4,6,"11,10,1,13,12,2,9,8,5,15,3,14,7,4,6"
15010,commdev-image-keyboard-response,440,1271300,learnblock1,796.1000000000931,img/planet11_right.png,11,Community 1,NA,TRUE,j,j,NA,NA,NA,4,6,"11,10,1,13,12,2,9,8,5,15,3,14,7,4,6"
15010,commdev-image-keyboard-response,441,1272557,learnblock1,993.8000000000466,img/planet1_right.png,1,Community 1,NA,TRUE,j,j,NA,NA,NA,4,6,"11,10,1,13,12,2,9,8,5,15,3,14,7,4,6"
15010,commdev-image-keyboard-response,442,1273810,learnblock1,910.2000000001863,img/planet11_right.png,11,Community 1,NA,TRUE,j,j,NA,NA,NA,4,6,"11,10,1,13,12,2,9,8,5,15,3,14,7,4,6"
15010,commdev-image-keyboard-response,443,1275070,learnblock1,1159.1999999999534,img/planet1_right.png,1,Community 1,NA,TRUE,j,j,NA,NA,NA,4,6,"11,10,1,13,12,2,9,8,5,15,3,14,7,4,6"
15010,commdev-image-keyboard-response,444,1276322,learnblock1,1172,img/planet12_right.png,12,Community 1,NA,TRUE,j,j,NA,NA,NA,4,6,"11,10,1,13,12,2,9,8,5,15,3,14,7,4,6"
15010,commdev-image-keyboard-response,445,1277581,learnblock1,846.3000000000466,img/planet3_left.png,3,Community 3,NA,TRUE,f,f,NA,NA,NA,4,6,"11,10,1,13,12,2,9,8,5,15,3,14,7,4,6"
15010,commdev-image-keyboard-response,446,1278833,learnblock1,887.3000000000466,img/planet6_left.png,6,Community 3,NA,TRUE,f,f,NA,NA,NA,4,6,"11,10,1,13,12,2,9,8,5,15,3,14,7,4,6"
15010,commdev-image-keyboard-response,447,1280086,learnblock1,1077.6999999999534,img/planet7_right.png,7,Community 3,NA,FALSE,f,j,NA,NA,NA,4,6,"11,10,1,13,12,2,9,8,5,15,3,14,7,4,6"
15010,commdev-image-keyboard-response,448,1281340,learnblock1,1124.5,img/planet3_right.png,3,Community 3,NA,TRUE,j,j,NA,NA,NA,4,6,"11,10,1,13,12,2,9,8,5,15,3,14,7,4,6"
15010,commdev-image-keyboard-response,449,1282592,learnblock1,1135.1000000000931,img/planet7_right.png,7,Community 3,NA,TRUE,j,j,NA,NA,NA,4,6,"11,10,1,13,12,2,9,8,5,15,3,14,7,4,6"
15010,commdev-image-keyboard-response,450,1283844,learnblock1,1114.5,img/planet14_right.png,14,Community 3,NA,TRUE,j,j,NA,NA,NA,4,6,"11,10,1,13,12,2,9,8,5,15,3,14,7,4,6"
15010,commdev-image-keyboard-response,451,1285101,learnblock1,917.5,img/planet6_right.png,6,Community 3,NA,FALSE,f,j,NA,NA,NA,4,6,"11,10,1,13,12,2,9,8,5,15,3,14,7,4,6"
15010,commdev-image-keyboard-response,452,1286354,learnblock1,1101.1999999999534,img/planet3_right.png,3,Community 3,NA,FALSE,f,j,NA,NA,NA,4,6,"11,10,1,13,12,2,9,8,5,15,3,14,7,4,6"
15010,commdev-image-keyboard-response,453,1287613,learnblock1,59.800000000046566,img/planet6_left.png,6,Community 3,NA,FALSE,j,f,NA,NA,NA,4,6,"11,10,1,13,12,2,9,8,5,15,3,14,7,4,6"
15010,commdev-image-keyboard-response,454,1288865,learnblock1,48.9000000001397,img/planet7_right.png,7,Community 3,NA,TRUE,j,j,NA,NA,NA,4,6,"11,10,1,13,12,2,9,8,5,15,3,14,7,4,6"
15010,commdev-image-keyboard-response,455,1290125,learnblock1,703.5999999998603,img/planet6_right.png,6,Community 3,NA,FALSE,f,j,NA,NA,NA,4,6,"11,10,1,13,12,2,9,8,5,15,3,14,7,4,6"
15010,commdev-image-keyboard-response,456,1291377,learnblock1,null,img/planet14_right.png,14,Community 3,NA,FALSE,null,j,NA,NA,NA,4,6,"11,10,1,13,12,2,9,8,5,15,3,14,7,4,6"
15010,commdev-image-keyboard-response,457,1292637,learnblock1,105.10000000009313,img/planet8_left.png,8,Community 2,NA,TRUE,f,f,NA,NA,NA,4,6,"11,10,1,13,12,2,9,8,5,15,3,14,7,4,6"
15010,commdev-image-keyboard-response,458,1293889,learnblock1,111.5,img/planet9_left.png,9,Community 2,NA,TRUE,f,f,NA,NA,NA,4,6,"11,10,1,13,12,2,9,8,5,15,3,14,7,4,6"
15010,commdev-image-keyboard-response,459,1295141,learnblock1,183.60000000009313,img/planet15_left.png,15,Community 2,NA,TRUE,f,f,NA,NA,NA,4,6,"11,10,1,13,12,2,9,8,5,15,3,14,7,4,6"
15010,commdev-image-keyboard-response,460,1296397,learnblock1,34.60000000009313,img/planet5_right.png,5,Community 2,NA,FALSE,f,j,NA,NA,NA,4,6,"11,10,1,13,12,2,9,8,5,15,3,14,7,4,6"
15010,commdev-image-keyboard-response,461,1297649,learnblock1,974.7000000001863,img/planet8_right.png,8,Community 2,NA,TRUE,j,j,NA,NA,NA,4,6,"11,10,1,13,12,2,9,8,5,15,3,14,7,4,6"
15010,commdev-image-keyboard-response,462,1298910,learnblock1,709.5,img/planet14_left.png,14,Community 3,NA,TRUE,f,f,NA,NA,NA,4,6,"11,10,1,13,12,2,9,8,5,15,3,14,7,4,6"
15010,commdev-image-keyboard-response,463,1300161,learnblock1,824.6000000000931,img/planet4_right.png,4,Community 3,NA,TRUE,j,j,NA,NA,NA,4,6,"11,10,1,13,12,2,9,8,5,15,3,14,7,4,6"
15010,commdev-image-keyboard-response,467,1375102,learnblock2,733.8000000000466,img/planet7_left.png,7,Community 3,NA,TRUE,f,f,NA,NA,NA,4,6,"11,10,1,13,12,2,9,8,5,15,3,14,7,4,6"
15010,commdev-image-keyboard-response,468,1376354,learnblock2,891.5,img/planet4_right.png,4,Community 3,NA,TRUE,j,j,NA,NA,NA,4,6,"11,10,1,13,12,2,9,8,5,15,3,14,7,4,6"
15010,commdev-image-keyboard-response,469,1377614,learnblock2,845.0999999998603,img/planet6_right.png,6,Community 3,NA,TRUE,j,j,NA,NA,NA,4,6,"11,10,1,13,12,2,9,8,5,15,3,14,7,4,6"
15010,commdev-image-keyboard-response,470,1378866,learnblock2,792.6999999999534,img/planet14_right.png,14,Community 3,NA,TRUE,j,j,NA,NA,NA,4,6,"11,10,1,13,12,2,9,8,5,15,3,14,7,4,6"
15010,commdev-image-keyboard-response,471,1380126,learnblock2,737.1000000000931,img/planet6_left.png,6,Community 3,NA,TRUE,f,f,NA,NA,NA,4,6,"11,10,1,13,12,2,9,8,5,15,3,14,7,4,6"
15010,commdev-image-keyboard-response,472,1381378,learnblock2,742.5,img/planet4_right.png,4,Community 3,NA,TRUE,j,j,NA,NA,NA,4,6,"11,10,1,13,12,2,9,8,5,15,3,14,7,4,6"
15010,commdev-image-keyboard-response,473,1382637,learnblock2,746.5,img/planet14_left.png,14,Community 3,NA,TRUE,f,f,NA,NA,NA,4,6,"11,10,1,13,12,2,9,8,5,15,3,14,7,4,6"
15010,commdev-image-keyboard-response,474,1383889,learnblock2,820.3999999999069,img/planet7_left.png,7,Community 3,NA,TRUE,f,f,NA,NA,NA,4,6,"11,10,1,13,12,2,9,8,5,15,3,14,7,4,6"
15010,commdev-image-keyboard-response,475,1385149,learnblock2,807.8999999999069,img/planet14_left.png,14,Community 3,NA,TRUE,f,f,NA,NA,NA,4,6,"11,10,1,13,12,2,9,8,5,15,3,14,7,4,6"
15010,commdev-image-keyboard-response,476,1386401,learnblock2,880.3999999999069,img/planet4_left.png,4,Community 3,NA,TRUE,f,f,NA,NA,NA,4,6,"11,10,1,13,12,2,9,8,5,15,3,14,7,4,6"
15010,commdev-image-keyboard-response,477,1387661,learnblock2,708.6000000000931,img/planet14_left.png,14,Community 3,NA,TRUE,f,f,NA,NA,NA,4,6,"11,10,1,13,12,2,9,8,5,15,3,14,7,4,6"
15010,commdev-image-keyboard-response,478,1388914,learnblock2,739.1000000000931,img/planet7_left.png,7,Community 3,NA,TRUE,f,f,NA,NA,NA,4,6,"11,10,1,13,12,2,9,8,5,15,3,14,7,4,6"
15010,commdev-image-keyboard-response,479,1390173,learnblock2,665.7999999998137,img/planet4_right.png,4,Community 3,NA,TRUE,j,j,NA,NA,NA,4,6,"11,10,1,13,12,2,9,8,5,15,3,14,7,4,6"
15010,commdev-image-keyboard-response,480,1391424,learnblock2,580.8999999999069,img/planet7_left.png,7,Community 3,NA,TRUE,f,f,NA,NA,NA,4,6,"11,10,1,13,12,2,9,8,5,15,3,14,7,4,6"
15010,commdev-image-keyboard-response,481,1392676,learnblock2,601,img/planet6_left.png,6,Community 3,NA,TRUE,f,f,NA,NA,NA,4,6,"11,10,1,13,12,2,9,8,5,15,3,14,7,4,6"
15010,commdev-image-keyboard-response,482,1393934,learnblock2,647.9000000001397,img/planet7_left.png,7,Community 3,NA,TRUE,f,f,NA,NA,NA,4,6,"11,10,1,13,12,2,9,8,5,15,3,14,7,4,6"
15010,commdev-image-keyboard-response,483,1395186,learnblock2,570.6000000000931,img/planet6_right.png,6,Community 3,NA,TRUE,j,j,NA,NA,NA,4,6,"11,10,1,13,12,2,9,8,5,15,3,14,7,4,6"
15010,commdev-image-keyboard-response,484,1396446,learnblock2,887.5,img/planet4_right.png,4,Community 3,NA,TRUE,j,j,NA,NA,NA,4,6,"11,10,1,13,12,2,9,8,5,15,3,14,7,4,6"
15010,commdev-image-keyboard-response,485,1397697,learnblock2,918.1999999999534,img/planet6_right.png,6,Community 3,NA,TRUE,j,j,NA,NA,NA,4,6,"11,10,1,13,12,2,9,8,5,15,3,14,7,4,6"
15010,commdev-image-keyboard-response,486,1398958,learnblock2,812.5999999998603,img/planet14_left.png,14,Community 3,NA,TRUE,f,f,NA,NA,NA,4,6,"11,10,1,13,12,2,9,8,5,15,3,14,7,4,6"
15010,commdev-image-keyboard-response,487,1400209,learnblock2,993.6999999999534,img/planet4_left.png,4,Community 3,NA,TRUE,f,f,NA,NA,NA,4,6,"11,10,1,13,12,2,9,8,5,15,3,14,7,4,6"
15010,commdev-image-keyboard-response,488,1401469,learnblock2,754.0999999998603,img/planet6_right.png,6,Community 3,NA,TRUE,j,j,NA,NA,NA,4,6,"11,10,1,13,12,2,9,8,5,15,3,14,7,4,6"
15010,commdev-image-keyboard-response,489,1402721,learnblock2,784,img/planet3_left.png,3,Community 3,NA,TRUE,f,f,NA,NA,NA,4,6,"11,10,1,13,12,2,9,8,5,15,3,14,7,4,6"
15010,commdev-image-keyboard-response,490,1403973,learnblock2,905.8999999999069,img/planet6_left.png,6,Community 3,NA,FALSE,j,f,NA,NA,NA,4,6,"11,10,1,13,12,2,9,8,5,15,3,14,7,4,6"
15010,commdev-image-keyboard-response,491,1405230,learnblock2,876.2999999998137,img/planet14_right.png,14,Community 3,NA,TRUE,j,j,NA,NA,NA,4,6,"11,10,1,13,12,2,9,8,5,15,3,14,7,4,6"
15010,commdev-image-keyboard-response,492,1406482,learnblock2,664.5,img/planet8_left.png,8,Community 2,NA,TRUE,f,f,NA,NA,NA,4,6,"11,10,1,13,12,2,9,8,5,15,3,14,7,4,6"
15010,commdev-image-keyboard-response,493,1407742,learnblock2,686.1999999999534,img/planet5_right.png,5,Community 2,NA,TRUE,j,j,NA,NA,NA,4,6,"11,10,1,13,12,2,9,8,5,15,3,14,7,4,6"
15010,commdev-image-keyboard-response,494,1408994,learnblock2,774.1999999999534,img/planet8_left.png,8,Community 2,NA,TRUE,f,f,NA,NA,NA,4,6,"11,10,1,13,12,2,9,8,5,15,3,14,7,4,6"
15010,commdev-image-keyboard-response,495,1410253,learnblock2,821.2999999998137,img/planet14_left.png,14,Community 3,NA,TRUE,f,f,NA,NA,NA,4,6,"11,10,1,13,12,2,9,8,5,15,3,14,7,4,6"
15010,commdev-image-keyboard-response,496,1411506,learnblock2,717.8000000000466,img/planet6_right.png,6,Community 3,NA,TRUE,j,j,NA,NA,NA,4,6,"11,10,1,13,12,2,9,8,5,15,3,14,7,4,6"
15010,commdev-image-keyboard-response,497,1412765,learnblock2,812.8000000000466,img/planet7_right.png,7,Community 3,NA,TRUE,j,j,NA,NA,NA,4,6,"11,10,1,13,12,2,9,8,5,15,3,14,7,4,6"
15010,commdev-image-keyboard-response,498,1414018,learnblock2,945.2000000001863,img/planet3_left.png,3,Community 3,NA,TRUE,f,f,NA,NA,NA,4,6,"11,10,1,13,12,2,9,8,5,15,3,14,7,4,6"
15010,commdev-image-keyboard-response,499,1415278,learnblock2,964.5,img/planet4_left.png,4,Community 3,NA,TRUE,f,f,NA,NA,NA,4,6,"11,10,1,13,12,2,9,8,5,15,3,14,7,4,6"
15010,commdev-image-keyboard-response,500,1416530,learnblock2,750.5,img/planet7_left.png,7,Community 3,NA,TRUE,f,f,NA,NA,NA,4,6,"11,10,1,13,12,2,9,8,5,15,3,14,7,4,6"
15010,commdev-image-keyboard-response,501,1417789,learnblock2,913.8000000000466,img/planet4_left.png,4,Community 3,NA,TRUE,f,f,NA,NA,NA,4,6,"11,10,1,13,12,2,9,8,5,15,3,14,7,4,6"
15010,commdev-image-keyboard-response,502,1419041,learnblock2,1097,img/planet3_left.png,3,Community 3,NA,TRUE,f,f,NA,NA,NA,4,6,"11,10,1,13,12,2,9,8,5,15,3,14,7,4,6"
15010,commdev-image-keyboard-response,503,1420302,learnblock2,907.8000000000466,img/planet4_left.png,4,Community 3,NA,TRUE,f,f,NA,NA,NA,4,6,"11,10,1,13,12,2,9,8,5,15,3,14,7,4,6"
15010,commdev-image-keyboard-response,504,1421554,learnblock2,911.5,img/planet3_left.png,3,Community 3,NA,TRUE,f,f,NA,NA,NA,4,6,"11,10,1,13,12,2,9,8,5,15,3,14,7,4,6"
15010,commdev-image-keyboard-response,505,1422813,learnblock2,1052.2000000001863,img/planet12_left.png,12,Community 1,NA,TRUE,f,f,NA,NA,NA,4,6,"11,10,1,13,12,2,9,8,5,15,3,14,7,4,6"
15010,commdev-image-keyboard-response,506,1424064,learnblock2,946.3000000000466,img/planet11_left.png,11,Community 1,NA,TRUE,f,f,NA,NA,NA,4,6,"11,10,1,13,12,2,9,8,5,15,3,14,7,4,6"
15010,commdev-image-keyboard-response,507,1425316,learnblock2,715,img/planet1_left.png,1,Community 1,NA,TRUE,f,f,NA,NA,NA,4,6,"11,10,1,13,12,2,9,8,5,15,3,14,7,4,6"
15010,commdev-image-keyboard-response,508,1426573,learnblock2,838.6000000000931,img/planet11_right.png,11,Community 1,NA,TRUE,j,j,NA,NA,NA,4,6,"11,10,1,13,12,2,9,8,5,15,3,14,7,4,6"
15010,commdev-image-keyboard-response,509,1427825,learnblock2,734.1999999999534,img/planet1_right.png,1,Community 1,NA,TRUE,j,j,NA,NA,NA,4,6,"11,10,1,13,12,2,9,8,5,15,3,14,7,4,6"
15010,commdev-image-keyboard-response,510,1429076,learnblock2,717.3000000000466,img/planet10_left.png,10,Community 1,NA,TRUE,f,f,NA,NA,NA,4,6,"11,10,1,13,12,2,9,8,5,15,3,14,7,4,6"
15010,commdev-image-keyboard-response,511,1430334,learnblock2,653.8000000000466,img/planet11_left.png,11,Community 1,NA,TRUE,f,f,NA,NA,NA,4,6,"11,10,1,13,12,2,9,8,5,15,3,14,7,4,6"
15010,commdev-image-keyboard-response,512,1431587,learnblock2,940.6999999999534,img/planet12_left.png,12,Community 1,NA,TRUE,f,f,NA,NA,NA,4,6,"11,10,1,13,12,2,9,8,5,15,3,14,7,4,6"
15010,commdev-image-keyboard-response,513,1432845,learnblock2,700.5,img/planet10_left.png,10,Community 1,NA,TRUE,f,f,NA,NA,NA,4,6,"11,10,1,13,12,2,9,8,5,15,3,14,7,4,6"
15010,commdev-image-keyboard-response,514,1434098,learnblock2,707.8000000000466,img/planet1_right.png,1,Community 1,NA,TRUE,j,j,NA,NA,NA,4,6,"11,10,1,13,12,2,9,8,5,15,3,14,7,4,6"
15010,commdev-image-keyboard-response,515,1435357,learnblock2,762.4000000001397,img/planet13_right.png,13,Community 1,NA,TRUE,j,j,NA,NA,NA,4,6,"11,10,1,13,12,2,9,8,5,15,3,14,7,4,6"
15010,commdev-image-keyboard-response,516,1436609,learnblock2,768.5999999998603,img/planet10_right.png,10,Community 1,NA,TRUE,j,j,NA,NA,NA,4,6,"11,10,1,13,12,2,9,8,5,15,3,14,7,4,6"
15010,commdev-image-keyboard-response,517,1437870,learnblock2,1043.3999999999069,img/planet11_right.png,11,Community 1,NA,TRUE,j,j,NA,NA,NA,4,6,"11,10,1,13,12,2,9,8,5,15,3,14,7,4,6"
15010,commdev-image-keyboard-response,518,1439122,learnblock2,1173.6999999999534,img/planet10_right.png,10,Community 1,NA,TRUE,j,j,NA,NA,NA,4,6,"11,10,1,13,12,2,9,8,5,15,3,14,7,4,6"
15010,commdev-image-keyboard-response,519,1440380,learnblock2,798.6999999999534,img/planet12_left.png,12,Community 1,NA,TRUE,f,f,NA,NA,NA,4,6,"11,10,1,13,12,2,9,8,5,15,3,14,7,4,6"
15010,commdev-image-keyboard-response,520,1441632,learnblock2,798.1999999999534,img/planet1_right.png,1,Community 1,NA,TRUE,j,j,NA,NA,NA,4,6,"11,10,1,13,12,2,9,8,5,15,3,14,7,4,6"
15010,commdev-image-keyboard-response,521,1442884,learnblock2,896.5,img/planet10_left.png,10,Community 1,NA,TRUE,f,f,NA,NA,NA,4,6,"11,10,1,13,12,2,9,8,5,15,3,14,7,4,6"
15010,commdev-image-keyboard-response,522,1444141,learnblock2,993.6999999999534,img/planet11_left.png,11,Community 1,NA,TRUE,f,f,NA,NA,NA,4,6,"11,10,1,13,12,2,9,8,5,15,3,14,7,4,6"
15010,commdev-image-keyboard-response,523,1445393,learnblock2,1171.4000000001397,img/planet1_right.png,1,Community 1,NA,TRUE,j,j,NA,NA,NA,4,6,"11,10,1,13,12,2,9,8,5,15,3,14,7,4,6"
15010,commdev-image-keyboard-response,524,1446654,learnblock2,1058.5,img/planet12_right.png,12,Community 1,NA,TRUE,j,j,NA,NA,NA,4,6,"11,10,1,13,12,2,9,8,5,15,3,14,7,4,6"
15010,commdev-image-keyboard-response,525,1447906,learnblock2,1079.8000000000466,img/planet1_left.png,1,Community 1,NA,TRUE,f,f,NA,NA,NA,4,6,"11,10,1,13,12,2,9,8,5,15,3,14,7,4,6"
15010,commdev-image-keyboard-response,526,1449165,learnblock2,1228.6999999999534,img/planet13_right.png,13,Community 1,NA,TRUE,j,j,NA,NA,NA,4,6,"11,10,1,13,12,2,9,8,5,15,3,14,7,4,6"
15010,commdev-image-keyboard-response,527,1450416,learnblock2,1074,img/planet11_right.png,11,Community 1,NA,TRUE,j,j,NA,NA,NA,4,6,"11,10,1,13,12,2,9,8,5,15,3,14,7,4,6"
15010,commdev-image-keyboard-response,528,1451668,learnblock2,1012.6000000000931,img/planet13_right.png,13,Community 1,NA,TRUE,j,j,NA,NA,NA,4,6,"11,10,1,13,12,2,9,8,5,15,3,14,7,4,6"
15010,commdev-image-keyboard-response,529,1452926,learnblock2,889.7000000001863,img/planet1_right.png,1,Community 1,NA,TRUE,j,j,NA,NA,NA,4,6,"11,10,1,13,12,2,9,8,5,15,3,14,7,4,6"
15010,commdev-image-keyboard-response,530,1454177,learnblock2,871.5,img/planet10_right.png,10,Community 1,NA,TRUE,j,j,NA,NA,NA,4,6,"11,10,1,13,12,2,9,8,5,15,3,14,7,4,6"
15010,commdev-image-keyboard-response,531,1455438,learnblock2,810.3000000000466,img/planet12_right.png,12,Community 1,NA,TRUE,j,j,NA,NA,NA,4,6,"11,10,1,13,12,2,9,8,5,15,3,14,7,4,6"
15010,commdev-image-keyboard-response,532,1456689,learnblock2,914.6999999999534,img/planet3_right.png,3,Community 3,NA,TRUE,j,j,NA,NA,NA,4,6,"11,10,1,13,12,2,9,8,5,15,3,14,7,4,6"
15010,commdev-image-keyboard-response,533,1457949,learnblock2,919,img/planet6_left.png,6,Community 3,NA,TRUE,f,f,NA,NA,NA,4,6,"11,10,1,13,12,2,9,8,5,15,3,14,7,4,6"
15010,commdev-image-keyboard-response,534,1459201,learnblock2,825.1999999999534,img/planet3_left.png,3,Community 3,NA,TRUE,f,f,NA,NA,NA,4,6,"11,10,1,13,12,2,9,8,5,15,3,14,7,4,6"
15010,commdev-image-keyboard-response,535,1460461,learnblock2,709.3000000000466,img/planet7_right.png,7,Community 3,NA,FALSE,f,j,NA,NA,NA,4,6,"11,10,1,13,12,2,9,8,5,15,3,14,7,4,6"
15010,commdev-image-keyboard-response,536,1461713,learnblock2,899.0999999998603,img/planet6_left.png,6,Community 3,NA,TRUE,f,f,NA,NA,NA,4,6,"11,10,1,13,12,2,9,8,5,15,3,14,7,4,6"
15010,commdev-image-keyboard-response,537,1462973,learnblock2,947,img/planet14_left.png,14,Community 3,NA,TRUE,f,f,NA,NA,NA,4,6,"11,10,1,13,12,2,9,8,5,15,3,14,7,4,6"
15010,commdev-image-keyboard-response,538,1464224,learnblock2,842.6999999999534,img/planet4_left.png,4,Community 3,NA,TRUE,f,f,NA,NA,NA,4,6,"11,10,1,13,12,2,9,8,5,15,3,14,7,4,6"
15010,commdev-image-keyboard-response,539,1465477,learnblock2,822.9000000001397,img/planet7_left.png,7,Community 3,NA,TRUE,f,f,NA,NA,NA,4,6,"11,10,1,13,12,2,9,8,5,15,3,14,7,4,6"
15010,commdev-image-keyboard-response,540,1466733,learnblock2,726,img/planet3_right.png,3,Community 3,NA,TRUE,j,j,NA,NA,NA,4,6,"11,10,1,13,12,2,9,8,5,15,3,14,7,4,6"
15010,commdev-image-keyboard-response,541,1467985,learnblock2,776.3999999999069,img/planet6_left.png,6,Community 3,NA,TRUE,f,f,NA,NA,NA,4,6,"11,10,1,13,12,2,9,8,5,15,3,14,7,4,6"
15010,commdev-image-keyboard-response,542,1469245,learnblock2,772.5,img/planet4_right.png,4,Community 3,NA,TRUE,j,j,NA,NA,NA,4,6,"11,10,1,13,12,2,9,8,5,15,3,14,7,4,6"
15010,commdev-image-keyboard-response,543,1470497,learnblock2,1090.8999999999069,img/planet3_right.png,3,Community 3,NA,FALSE,f,j,NA,NA,NA,4,6,"11,10,1,13,12,2,9,8,5,15,3,14,7,4,6"
15010,commdev-image-keyboard-response,544,1471757,learnblock2,1035.9000000001397,img/planet4_left.png,4,Community 3,NA,TRUE,f,f,NA,NA,NA,4,6,"11,10,1,13,12,2,9,8,5,15,3,14,7,4,6"
15010,commdev-image-keyboard-response,545,1473010,learnblock2,1176.6000000000931,img/planet3_right.png,3,Community 3,NA,FALSE,f,j,NA,NA,NA,4,6,"11,10,1,13,12,2,9,8,5,15,3,14,7,4,6"
15010,commdev-image-keyboard-response,546,1474269,learnblock2,1003.6000000000931,img/planet12_left.png,12,Community 1,NA,TRUE,f,f,NA,NA,NA,4,6,"11,10,1,13,12,2,9,8,5,15,3,14,7,4,6"
15010,commdev-image-keyboard-response,547,1475521,learnblock2,1100.1999999999534,img/planet3_right.png,3,Community 3,NA,TRUE,j,j,NA,NA,NA,4,6,"11,10,1,13,12,2,9,8,5,15,3,14,7,4,6"
15010,commdev-image-keyboard-response,548,1476782,learnblock2,963.5,img/planet4_left.png,4,Community 3,NA,TRUE,f,f,NA,NA,NA,4,6,"11,10,1,13,12,2,9,8,5,15,3,14,7,4,6"
15010,commdev-image-keyboard-response,549,1478033,learnblock2,984.6999999999534,img/planet7_left.png,7,Community 3,NA,TRUE,f,f,NA,NA,NA,4,6,"11,10,1,13,12,2,9,8,5,15,3,14,7,4,6"
15010,commdev-image-keyboard-response,550,1479292,learnblock2,898.2000000001863,img/planet3_right.png,3,Community 3,NA,TRUE,j,j,NA,NA,NA,4,6,"11,10,1,13,12,2,9,8,5,15,3,14,7,4,6"
15010,commdev-image-keyboard-response,551,1480544,learnblock2,1056.1000000000931,img/planet6_right.png,6,Community 3,NA,TRUE,j,j,NA,NA,NA,4,6,"11,10,1,13,12,2,9,8,5,15,3,14,7,4,6"
15010,commdev-image-keyboard-response,552,1481796,learnblock2,943.6999999999534,img/planet4_left.png,4,Community 3,NA,TRUE,f,f,NA,NA,NA,4,6,"11,10,1,13,12,2,9,8,5,15,3,14,7,4,6"
15010,commdev-image-keyboard-response,553,1483054,learnblock2,998.5,img/planet3_left.png,3,Community 3,NA,FALSE,j,f,NA,NA,NA,4,6,"11,10,1,13,12,2,9,8,5,15,3,14,7,4,6"
15010,commdev-image-keyboard-response,554,1484305,learnblock2,830.1999999999534,img/planet6_right.png,6,Community 3,NA,TRUE,j,j,NA,NA,NA,4,6,"11,10,1,13,12,2,9,8,5,15,3,14,7,4,6"
15010,commdev-image-keyboard-response,555,1485565,learnblock2,852,img/planet4_right.png,4,Community 3,NA,FALSE,f,j,NA,NA,NA,4,6,"11,10,1,13,12,2,9,8,5,15,3,14,7,4,6"
15010,commdev-image-keyboard-response,556,1486817,learnblock2,932.2999999998137,img/planet3_right.png,3,Community 3,NA,TRUE,j,j,NA,NA,NA,4,6,"11,10,1,13,12,2,9,8,5,15,3,14,7,4,6"
15010,commdev-image-keyboard-response,557,1488077,learnblock2,752,img/planet4_left.png,4,Community 3,NA,TRUE,f,f,NA,NA,NA,4,6,"11,10,1,13,12,2,9,8,5,15,3,14,7,4,6"
15010,commdev-image-keyboard-response,558,1489329,learnblock2,812.3999999999069,img/planet3_left.png,3,Community 3,NA,TRUE,f,f,NA,NA,NA,4,6,"11,10,1,13,12,2,9,8,5,15,3,14,7,4,6"
15010,commdev-image-keyboard-response,559,1490581,learnblock2,854.5999999998603,img/planet6_right.png,6,Community 3,NA,TRUE,j,j,NA,NA,NA,4,6,"11,10,1,13,12,2,9,8,5,15,3,14,7,4,6"
15010,commdev-image-keyboard-response,560,1491837,learnblock2,960.1000000000931,img/planet4_left.png,4,Community 3,NA,TRUE,f,f,NA,NA,NA,4,6,"11,10,1,13,12,2,9,8,5,15,3,14,7,4,6"
15010,commdev-image-keyboard-response,561,1493089,learnblock2,791.1999999999534,img/planet7_left.png,7,Community 3,NA,TRUE,f,f,NA,NA,NA,4,6,"11,10,1,13,12,2,9,8,5,15,3,14,7,4,6"
15010,commdev-image-keyboard-response,562,1494349,learnblock2,880.6999999999534,img/planet6_right.png,6,Community 3,NA,TRUE,j,j,NA,NA,NA,4,6,"11,10,1,13,12,2,9,8,5,15,3,14,7,4,6"
15010,commdev-image-keyboard-response,563,1495601,learnblock2,996.2000000001863,img/planet14_right.png,14,Community 3,NA,TRUE,j,j,NA,NA,NA,4,6,"11,10,1,13,12,2,9,8,5,15,3,14,7,4,6"
15010,commdev-image-keyboard-response,564,1496853,learnblock2,924.6999999999534,img/planet8_right.png,8,Community 2,NA,TRUE,j,j,NA,NA,NA,4,6,"11,10,1,13,12,2,9,8,5,15,3,14,7,4,6"
15010,commdev-image-keyboard-response,565,1498109,learnblock2,1140,img/planet14_right.png,14,Community 3,NA,TRUE,j,j,NA,NA,NA,4,6,"11,10,1,13,12,2,9,8,5,15,3,14,7,4,6"
15010,commdev-image-keyboard-response,566,1499361,learnblock2,null,img/planet7_right.png,7,Community 3,NA,FALSE,null,j,NA,NA,NA,4,6,"11,10,1,13,12,2,9,8,5,15,3,14,7,4,6"
15010,commdev-image-keyboard-response,567,1500622,learnblock2,140.30000000004657,img/planet6_right.png,6,Community 3,NA,TRUE,j,j,NA,NA,NA,4,6,"11,10,1,13,12,2,9,8,5,15,3,14,7,4,6"
15010,commdev-image-keyboard-response,568,1501873,learnblock2,854.3000000000466,img/planet4_left.png,4,Community 3,NA,TRUE,f,f,NA,NA,NA,4,6,"11,10,1,13,12,2,9,8,5,15,3,14,7,4,6"
15010,commdev-image-keyboard-response,569,1503133,learnblock2,724.8000000000466,img/planet3_left.png,3,Community 3,NA,TRUE,f,f,NA,NA,NA,4,6,"11,10,1,13,12,2,9,8,5,15,3,14,7,4,6"
15010,commdev-image-keyboard-response,570,1504386,learnblock2,688.1999999999534,img/planet12_left.png,12,Community 1,NA,TRUE,f,f,NA,NA,NA,4,6,"11,10,1,13,12,2,9,8,5,15,3,14,7,4,6"
15010,commdev-image-keyboard-response,571,1505645,learnblock2,684.2000000001863,img/planet1_right.png,1,Community 1,NA,TRUE,j,j,NA,NA,NA,4,6,"11,10,1,13,12,2,9,8,5,15,3,14,7,4,6"
15010,commdev-image-keyboard-response,572,1506897,learnblock2,749.1000000000931,img/planet12_right.png,12,Community 1,NA,TRUE,j,j,NA,NA,NA,4,6,"11,10,1,13,12,2,9,8,5,15,3,14,7,4,6"
15010,commdev-image-keyboard-response,573,1508157,learnblock2,940.1999999999534,img/planet1_right.png,1,Community 1,NA,TRUE,j,j,NA,NA,NA,4,6,"11,10,1,13,12,2,9,8,5,15,3,14,7,4,6"
15010,commdev-image-keyboard-response,574,1509409,learnblock2,759.8000000000466,img/planet10_left.png,10,Community 1,NA,TRUE,f,f,NA,NA,NA,4,6,"11,10,1,13,12,2,9,8,5,15,3,14,7,4,6"
15010,commdev-image-keyboard-response,575,1510670,learnblock2,899.5,img/planet1_left.png,1,Community 1,NA,TRUE,f,f,NA,NA,NA,4,6,"11,10,1,13,12,2,9,8,5,15,3,14,7,4,6"
15010,commdev-image-keyboard-response,576,1511921,learnblock2,778.7000000001863,img/planet13_left.png,13,Community 1,NA,TRUE,f,f,NA,NA,NA,4,6,"11,10,1,13,12,2,9,8,5,15,3,14,7,4,6"
15010,commdev-image-keyboard-response,577,1513173,learnblock2,827,img/planet2_left.png,2,Community 2,NA,TRUE,f,f,NA,NA,NA,4,6,"11,10,1,13,12,2,9,8,5,15,3,14,7,4,6"
15010,commdev-image-keyboard-response,578,1514429,learnblock2,773.1999999999534,img/planet13_right.png,13,Community 1,NA,TRUE,j,j,NA,NA,NA,4,6,"11,10,1,13,12,2,9,8,5,15,3,14,7,4,6"
15010,commdev-image-keyboard-response,579,1515681,learnblock2,909.1000000000931,img/planet1_right.png,1,Community 1,NA,FALSE,f,j,NA,NA,NA,4,6,"11,10,1,13,12,2,9,8,5,15,3,14,7,4,6"
15010,commdev-image-keyboard-response,580,1516941,learnblock2,762.5,img/planet12_left.png,12,Community 1,NA,TRUE,f,f,NA,NA,NA,4,6,"11,10,1,13,12,2,9,8,5,15,3,14,7,4,6"
15010,commdev-image-keyboard-response,581,1518193,learnblock2,1222.5,img/planet11_right.png,11,Community 1,NA,FALSE,f,j,NA,NA,NA,4,6,"11,10,1,13,12,2,9,8,5,15,3,14,7,4,6"
15010,commdev-image-keyboard-response,582,1519453,learnblock2,932.6000000000931,img/planet1_right.png,1,Community 1,NA,TRUE,j,j,NA,NA,NA,4,6,"11,10,1,13,12,2,9,8,5,15,3,14,7,4,6"
15010,commdev-image-keyboard-response,583,1520705,learnblock2,971.1000000000931,img/planet12_left.png,12,Community 1,NA,TRUE,f,f,NA,NA,NA,4,6,"11,10,1,13,12,2,9,8,5,15,3,14,7,4,6"
15010,commdev-image-keyboard-response,584,1521966,learnblock2,875.3000000000466,img/planet11_right.png,11,Community 1,NA,TRUE,j,j,NA,NA,NA,4,6,"11,10,1,13,12,2,9,8,5,15,3,14,7,4,6"
15010,commdev-image-keyboard-response,585,1523217,learnblock2,618.5,img/planet12_right.png,12,Community 1,NA,FALSE,f,j,NA,NA,NA,4,6,"11,10,1,13,12,2,9,8,5,15,3,14,7,4,6"
15010,commdev-image-keyboard-response,586,1524477,learnblock2,624.4000000001397,img/planet1_right.png,1,Community 1,NA,TRUE,j,j,NA,NA,NA,4,6,"11,10,1,13,12,2,9,8,5,15,3,14,7,4,6"
15010,commdev-image-keyboard-response,587,1525728,learnblock2,520.6999999999534,img/planet10_right.png,10,Community 1,NA,TRUE,j,j,NA,NA,NA,4,6,"11,10,1,13,12,2,9,8,5,15,3,14,7,4,6"
15010,commdev-image-keyboard-response,588,1526981,learnblock2,787.1999999999534,img/planet1_left.png,1,Community 1,NA,TRUE,f,f,NA,NA,NA,4,6,"11,10,1,13,12,2,9,8,5,15,3,14,7,4,6"
15010,commdev-image-keyboard-response,589,1528237,learnblock2,907.8999999999069,img/planet12_left.png,12,Community 1,NA,TRUE,f,f,NA,NA,NA,4,6,"11,10,1,13,12,2,9,8,5,15,3,14,7,4,6"
15010,commdev-image-keyboard-response,590,1529489,learnblock2,900.1999999999534,img/planet1_right.png,1,Community 1,NA,TRUE,j,j,NA,NA,NA,4,6,"11,10,1,13,12,2,9,8,5,15,3,14,7,4,6"
15010,commdev-image-keyboard-response,591,1530740,learnblock2,980.0999999998603,img/planet11_left.png,11,Community 1,NA,TRUE,f,f,NA,NA,NA,4,6,"11,10,1,13,12,2,9,8,5,15,3,14,7,4,6"
15010,commdev-image-keyboard-response,592,1531998,learnblock2,1045.8000000000466,img/planet12_right.png,12,Community 1,NA,TRUE,j,j,NA,NA,NA,4,6,"11,10,1,13,12,2,9,8,5,15,3,14,7,4,6"
15010,commdev-image-keyboard-response,593,1533250,learnblock2,1237.6000000000931,img/planet10_right.png,10,Community 1,NA,TRUE,j,j,NA,NA,NA,4,6,"11,10,1,13,12,2,9,8,5,15,3,14,7,4,6"
15010,commdev-image-keyboard-response,594,1534509,learnblock2,1115.3999999999069,img/planet12_left.png,12,Community 1,NA,TRUE,f,f,NA,NA,NA,4,6,"11,10,1,13,12,2,9,8,5,15,3,14,7,4,6"
15010,commdev-image-keyboard-response,595,1535761,learnblock2,1154.9000000001397,img/planet11_right.png,11,Community 1,NA,FALSE,f,j,NA,NA,NA,4,6,"11,10,1,13,12,2,9,8,5,15,3,14,7,4,6"
15010,commdev-image-keyboard-response,596,1537021,learnblock2,864.3000000000466,img/planet13_right.png,13,Community 1,NA,TRUE,j,j,NA,NA,NA,4,6,"11,10,1,13,12,2,9,8,5,15,3,14,7,4,6"
15010,commdev-image-keyboard-response,597,1538273,learnblock2,869.1000000000931,img/planet11_right.png,11,Community 1,NA,TRUE,j,j,NA,NA,NA,4,6,"11,10,1,13,12,2,9,8,5,15,3,14,7,4,6"
15010,commdev-image-keyboard-response,598,1539533,learnblock2,933.5,img/planet13_left.png,13,Community 1,NA,TRUE,f,f,NA,NA,NA,4,6,"11,10,1,13,12,2,9,8,5,15,3,14,7,4,6"
15010,commdev-image-keyboard-response,599,1540786,learnblock2,761,img/planet11_left.png,11,Community 1,NA,TRUE,f,f,NA,NA,NA,4,6,"11,10,1,13,12,2,9,8,5,15,3,14,7,4,6"
15010,commdev-image-keyboard-response,600,1542046,learnblock2,663.1000000000931,img/planet13_right.png,13,Community 1,NA,FALSE,f,j,NA,NA,NA,4,6,"11,10,1,13,12,2,9,8,5,15,3,14,7,4,6"
15010,commdev-image-keyboard-response,601,1543298,learnblock2,668.3000000000466,img/planet2_left.png,2,Community 2,NA,FALSE,j,f,NA,NA,NA,4,6,"11,10,1,13,12,2,9,8,5,15,3,14,7,4,6"
15010,commdev-image-keyboard-response,602,1544558,learnblock2,756.5,img/planet13_right.png,13,Community 1,NA,FALSE,f,j,NA,NA,NA,4,6,"11,10,1,13,12,2,9,8,5,15,3,14,7,4,6"
15010,commdev-image-keyboard-response,603,1545810,learnblock2,902.8000000000466,img/planet1_right.png,1,Community 1,NA,TRUE,j,j,NA,NA,NA,4,6,"11,10,1,13,12,2,9,8,5,15,3,14,7,4,6"
15010,commdev-image-keyboard-response,604,1547069,learnblock2,1220.3000000000466,img/planet11_left.png,11,Community 1,NA,TRUE,f,f,NA,NA,NA,4,6,"11,10,1,13,12,2,9,8,5,15,3,14,7,4,6"
15010,commdev-image-keyboard-response,605,1548322,learnblock2,787,img/planet10_left.png,10,Community 1,NA,TRUE,f,f,NA,NA,NA,4,6,"11,10,1,13,12,2,9,8,5,15,3,14,7,4,6"
15010,commdev-image-keyboard-response,606,1549581,learnblock2,23.899999999906868,img/planet12_left.png,12,Community 1,NA,TRUE,f,f,NA,NA,NA,4,6,"11,10,1,13,12,2,9,8,5,15,3,14,7,4,6"
15010,commdev-image-keyboard-response,607,1550832,learnblock2,752,img/planet10_right.png,10,Community 1,NA,TRUE,j,j,NA,NA,NA,4,6,"11,10,1,13,12,2,9,8,5,15,3,14,7,4,6"
15010,commdev-image-keyboard-response,608,1552084,learnblock2,954.3999999999069,img/planet11_left.png,11,Community 1,NA,TRUE,f,f,NA,NA,NA,4,6,"11,10,1,13,12,2,9,8,5,15,3,14,7,4,6"
15010,commdev-image-keyboard-response,609,1553341,learnblock2,999.9000000001397,img/planet12_left.png,12,Community 1,NA,FALSE,j,f,NA,NA,NA,4,6,"11,10,1,13,12,2,9,8,5,15,3,14,7,4,6"
15010,commdev-image-keyboard-response,610,1554593,learnblock2,1067.1000000000931,img/planet10_left.png,10,Community 1,NA,FALSE,j,f,NA,NA,NA,4,6,"11,10,1,13,12,2,9,8,5,15,3,14,7,4,6"
15010,commdev-image-keyboard-response,611,1555853,learnblock2,868.3000000000466,img/planet1_right.png,1,Community 1,NA,TRUE,j,j,NA,NA,NA,4,6,"11,10,1,13,12,2,9,8,5,15,3,14,7,4,6"
15010,commdev-image-keyboard-response,612,1557105,learnblock2,null,img/planet12_left.png,12,Community 1,NA,FALSE,null,f,NA,NA,NA,4,6,"11,10,1,13,12,2,9,8,5,15,3,14,7,4,6"
15010,commdev-image-keyboard-response,613,1558365,learnblock2,24.800000000046566,img/planet11_right.png,11,Community 1,NA,TRUE,j,j,NA,NA,NA,4,6,"11,10,1,13,12,2,9,8,5,15,3,14,7,4,6"
15010,commdev-image-keyboard-response,614,1559618,learnblock2,949.3000000000466,img/planet13_left.png,13,Community 1,NA,FALSE,j,f,NA,NA,NA,4,6,"11,10,1,13,12,2,9,8,5,15,3,14,7,4,6"
15010,commdev-image-keyboard-response,615,1560877,learnblock2,979.4000000001397,img/planet11_right.png,11,Community 1,NA,TRUE,j,j,NA,NA,NA,4,6,"11,10,1,13,12,2,9,8,5,15,3,14,7,4,6"
15010,commdev-image-keyboard-response,616,1562130,learnblock2,837.7000000001863,img/planet1_left.png,1,Community 1,NA,TRUE,f,f,NA,NA,NA,4,6,"11,10,1,13,12,2,9,8,5,15,3,14,7,4,6"
15010,commdev-image-keyboard-response,617,1563389,learnblock2,968.6999999999534,img/planet12_left.png,12,Community 1,NA,FALSE,j,f,NA,NA,NA,4,6,"11,10,1,13,12,2,9,8,5,15,3,14,7,4,6"
15010,commdev-image-keyboard-response,618,1564641,learnblock2,1015.5,img/planet11_right.png,11,Community 1,NA,TRUE,j,j,NA,NA,NA,4,6,"11,10,1,13,12,2,9,8,5,15,3,14,7,4,6"
15010,commdev-image-keyboard-response,619,1565901,learnblock2,1165.3000000000466,img/planet13_left.png,13,Community 1,NA,TRUE,f,f,NA,NA,NA,4,6,"11,10,1,13,12,2,9,8,5,15,3,14,7,4,6"
15010,commdev-image-keyboard-response,620,1567153,learnblock2,952.2999999998137,img/planet1_right.png,1,Community 1,NA,TRUE,j,j,NA,NA,NA,4,6,"11,10,1,13,12,2,9,8,5,15,3,14,7,4,6"
15010,commdev-image-keyboard-response,621,1568414,learnblock2,660.8999999999069,img/planet13_right.png,13,Community 1,NA,TRUE,j,j,NA,NA,NA,4,6,"11,10,1,13,12,2,9,8,5,15,3,14,7,4,6"
15010,commdev-image-keyboard-response,622,1569666,learnblock2,734.8999999999069,img/planet10_right.png,10,Community 1,NA,TRUE,j,j,NA,NA,NA,4,6,"11,10,1,13,12,2,9,8,5,15,3,14,7,4,6"
15010,commdev-image-keyboard-response,623,1570926,learnblock2,917.6000000000931,img/planet11_left.png,11,Community 1,NA,TRUE,f,f,NA,NA,NA,4,6,"11,10,1,13,12,2,9,8,5,15,3,14,7,4,6"
15010,commdev-image-keyboard-response,624,1572178,learnblock2,null,img/planet13_left.png,13,Community 1,NA,FALSE,null,f,NA,NA,NA,4,6,"11,10,1,13,12,2,9,8,5,15,3,14,7,4,6"
15010,commdev-image-keyboard-response,625,1573436,learnblock2,749.1999999999534,img/planet2_right.png,2,Community 2,NA,TRUE,j,j,NA,NA,NA,4,6,"11,10,1,13,12,2,9,8,5,15,3,14,7,4,6"
15010,commdev-image-keyboard-response,626,1574688,learnblock2,847.4000000001397,img/planet15_left.png,15,Community 2,NA,TRUE,f,f,NA,NA,NA,4,6,"11,10,1,13,12,2,9,8,5,15,3,14,7,4,6"
15010,commdev-image-keyboard-response,627,1575940,learnblock2,1052.6000000000931,img/planet8_left.png,8,Community 2,NA,TRUE,f,f,NA,NA,NA,4,6,"11,10,1,13,12,2,9,8,5,15,3,14,7,4,6"
15010,commdev-image-keyboard-response,628,1577196,learnblock2,1108,img/planet15_left.png,15,Community 2,NA,TRUE,f,f,NA,NA,NA,4,6,"11,10,1,13,12,2,9,8,5,15,3,14,7,4,6"
15010,commdev-image-keyboard-response,629,1578448,learnblock2,null,img/planet9_right.png,9,Community 2,NA,FALSE,null,j,NA,NA,NA,4,6,"11,10,1,13,12,2,9,8,5,15,3,14,7,4,6"
15010,commdev-image-keyboard-response,630,1579701,learnblock2,16.100000000093132,img/planet5_left.png,5,Community 2,NA,FALSE,j,f,NA,NA,NA,4,6,"11,10,1,13,12,2,9,8,5,15,3,14,7,4,6"
15010,commdev-image-keyboard-response,631,1580958,learnblock2,27.100000000093132,img/planet9_right.png,9,Community 2,NA,FALSE,f,j,NA,NA,NA,4,6,"11,10,1,13,12,2,9,8,5,15,3,14,7,4,6"
15010,commdev-image-keyboard-response,632,1582209,learnblock2,39,img/planet15_right.png,15,Community 2,NA,TRUE,j,j,NA,NA,NA,4,6,"11,10,1,13,12,2,9,8,5,15,3,14,7,4,6"
15010,commdev-image-keyboard-response,633,1583469,learnblock2,852.5,img/planet5_left.png,5,Community 2,NA,TRUE,f,f,NA,NA,NA,4,6,"11,10,1,13,12,2,9,8,5,15,3,14,7,4,6"
15010,commdev-image-keyboard-response,634,1584721,learnblock2,963.6000000000931,img/planet15_right.png,15,Community 2,NA,TRUE,j,j,NA,NA,NA,4,6,"11,10,1,13,12,2,9,8,5,15,3,14,7,4,6"
15010,commdev-image-keyboard-response,635,1585981,learnblock2,1181,img/planet9_right.png,9,Community 2,NA,FALSE,f,j,NA,NA,NA,4,6,"11,10,1,13,12,2,9,8,5,15,3,14,7,4,6"
15010,commdev-image-keyboard-response,636,1587233,learnblock2,57.800000000046566,img/planet5_left.png,5,Community 2,NA,FALSE,j,f,NA,NA,NA,4,6,"11,10,1,13,12,2,9,8,5,15,3,14,7,4,6"
15010,commdev-image-keyboard-response,637,1588493,learnblock2,761,img/planet2_right.png,2,Community 2,NA,TRUE,j,j,NA,NA,NA,4,6,"11,10,1,13,12,2,9,8,5,15,3,14,7,4,6"
15010,commdev-image-keyboard-response,638,1589745,learnblock2,720.6000000000931,img/planet9_left.png,9,Community 2,NA,TRUE,f,f,NA,NA,NA,4,6,"11,10,1,13,12,2,9,8,5,15,3,14,7,4,6"
15010,commdev-image-keyboard-response,639,1590996,learnblock2,null,img/planet15_left.png,15,Community 2,NA,FALSE,null,f,NA,NA,NA,4,6,"11,10,1,13,12,2,9,8,5,15,3,14,7,4,6"
15010,commdev-image-keyboard-response,640,1592254,learnblock2,18.300000000046566,img/planet5_left.png,5,Community 2,NA,TRUE,f,f,NA,NA,NA,4,6,"11,10,1,13,12,2,9,8,5,15,3,14,7,4,6"
15010,commdev-image-keyboard-response,641,1593506,learnblock2,892.7999999998137,img/planet8_left.png,8,Community 2,NA,TRUE,f,f,NA,NA,NA,4,6,"11,10,1,13,12,2,9,8,5,15,3,14,7,4,6"
15010,commdev-image-keyboard-response,642,1594766,learnblock2,895.0999999998603,img/planet15_right.png,15,Community 2,NA,TRUE,j,j,NA,NA,NA,4,6,"11,10,1,13,12,2,9,8,5,15,3,14,7,4,6"
15010,commdev-image-keyboard-response,643,1596017,learnblock2,1232.5,img/planet5_right.png,5,Community 2,NA,TRUE,j,j,NA,NA,NA,4,6,"11,10,1,13,12,2,9,8,5,15,3,14,7,4,6"
15010,commdev-image-keyboard-response,644,1597277,learnblock2,1022,img/planet2_left.png,2,Community 2,NA,TRUE,f,f,NA,NA,NA,4,6,"11,10,1,13,12,2,9,8,5,15,3,14,7,4,6"
15010,commdev-image-keyboard-response,645,1598529,learnblock2,863.8999999999069,img/planet15_left.png,15,Community 2,NA,TRUE,f,f,NA,NA,NA,4,6,"11,10,1,13,12,2,9,8,5,15,3,14,7,4,6"
15010,commdev-image-keyboard-response,646,1599781,learnblock2,599.2999999998137,img/planet5_left.png,5,Community 2,NA,TRUE,f,f,NA,NA,NA,4,6,"11,10,1,13,12,2,9,8,5,15,3,14,7,4,6"
15010,commdev-image-keyboard-response,647,1601037,learnblock2,988.1000000000931,img/planet2_right.png,2,Community 2,NA,TRUE,j,j,NA,NA,NA,4,6,"11,10,1,13,12,2,9,8,5,15,3,14,7,4,6"
15010,commdev-image-keyboard-response,648,1602289,learnblock2,761.6999999999534,img/planet13_right.png,13,Community 1,NA,TRUE,j,j,NA,NA,NA,4,6,"11,10,1,13,12,2,9,8,5,15,3,14,7,4,6"
15010,commdev-image-keyboard-response,649,1603550,learnblock2,941.5,img/planet1_right.png,1,Community 1,NA,TRUE,j,j,NA,NA,NA,4,6,"11,10,1,13,12,2,9,8,5,15,3,14,7,4,6"
15010,commdev-image-keyboard-response,650,1604802,learnblock2,1030.7000000001863,img/planet13_right.png,13,Community 1,NA,TRUE,j,j,NA,NA,NA,4,6,"11,10,1,13,12,2,9,8,5,15,3,14,7,4,6"
15010,commdev-image-keyboard-response,651,1606062,learnblock2,1031,img/planet1_left.png,1,Community 1,NA,FALSE,j,f,NA,NA,NA,4,6,"11,10,1,13,12,2,9,8,5,15,3,14,7,4,6"
15010,commdev-image-keyboard-response,652,1607314,learnblock2,1057.0999999998603,img/planet11_left.png,11,Community 1,NA,TRUE,f,f,NA,NA,NA,4,6,"11,10,1,13,12,2,9,8,5,15,3,14,7,4,6"
15010,commdev-image-keyboard-response,653,1608573,learnblock2,41,img/planet12_left.png,12,Community 1,NA,TRUE,f,f,NA,NA,NA,4,6,"11,10,1,13,12,2,9,8,5,15,3,14,7,4,6"
15010,commdev-image-keyboard-response,654,1609825,learnblock2,987.3000000000466,img/planet3_left.png,3,Community 3,NA,TRUE,f,f,NA,NA,NA,4,6,"11,10,1,13,12,2,9,8,5,15,3,14,7,4,6"
15010,commdev-image-keyboard-response,655,1611085,learnblock2,1159.7999999998137,img/planet12_left.png,12,Community 1,NA,TRUE,f,f,NA,NA,NA,4,6,"11,10,1,13,12,2,9,8,5,15,3,14,7,4,6"
15010,commdev-image-keyboard-response,656,1612337,learnblock2,713.0999999998603,img/planet3_right.png,3,Community 3,NA,TRUE,j,j,NA,NA,NA,4,6,"11,10,1,13,12,2,9,8,5,15,3,14,7,4,6"
15010,commdev-image-keyboard-response,657,1613589,learnblock2,777.3000000000466,img/planet4_right.png,4,Community 3,NA,TRUE,j,j,NA,NA,NA,4,6,"11,10,1,13,12,2,9,8,5,15,3,14,7,4,6"
15010,commdev-image-keyboard-response,658,1614845,learnblock2,935.8000000000466,img/planet6_left.png,6,Community 3,NA,TRUE,f,f,NA,NA,NA,4,6,"11,10,1,13,12,2,9,8,5,15,3,14,7,4,6"
15010,commdev-image-keyboard-response,659,1616097,learnblock2,887.5999999998603,img/planet3_left.png,3,Community 3,NA,TRUE,f,f,NA,NA,NA,4,6,"11,10,1,13,12,2,9,8,5,15,3,14,7,4,6"
15010,commdev-image-keyboard-response,660,1617349,learnblock2,799.6999999999534,img/planet6_right.png,6,Community 3,NA,TRUE,j,j,NA,NA,NA,4,6,"11,10,1,13,12,2,9,8,5,15,3,14,7,4,6"
15010,commdev-image-keyboard-response,661,1618604,learnblock2,836.1999999999534,img/planet3_right.png,3,Community 3,NA,TRUE,j,j,NA,NA,NA,4,6,"11,10,1,13,12,2,9,8,5,15,3,14,7,4,6"
15010,commdev-image-keyboard-response,662,1619856,learnblock2,916.3000000000466,img/planet12_right.png,12,Community 1,NA,TRUE,j,j,NA,NA,NA,4,6,"11,10,1,13,12,2,9,8,5,15,3,14,7,4,6"
15010,commdev-image-keyboard-response,663,1621109,learnblock2,1048.6000000000931,img/planet1_left.png,1,Community 1,NA,FALSE,j,f,NA,NA,NA,4,6,"11,10,1,13,12,2,9,8,5,15,3,14,7,4,6"
15010,commdev-image-keyboard-response,664,1622365,learnblock2,292.10000000009313,img/planet11_left.png,11,Community 1,NA,TRUE,f,f,NA,NA,NA,4,6,"11,10,1,13,12,2,9,8,5,15,3,14,7,4,6"
15010,commdev-image-keyboard-response,665,1623617,learnblock2,77.39999999990687,img/planet13_right.png,13,Community 1,NA,FALSE,f,j,NA,NA,NA,4,6,"11,10,1,13,12,2,9,8,5,15,3,14,7,4,6"
15010,commdev-image-keyboard-response,666,1624869,learnblock2,837,img/planet2_left.png,2,Community 2,NA,TRUE,f,f,NA,NA,NA,4,6,"11,10,1,13,12,2,9,8,5,15,3,14,7,4,6"
15010,commdev-image-keyboard-response,667,1626126,learnblock2,22.199999999953434,img/planet9_right.png,9,Community 2,NA,FALSE,f,j,NA,NA,NA,4,6,"11,10,1,13,12,2,9,8,5,15,3,14,7,4,6"
15010,commdev-image-keyboard-response,668,1627377,learnblock2,935.1999999999534,img/planet8_left.png,8,Community 2,NA,TRUE,f,f,NA,NA,NA,4,6,"11,10,1,13,12,2,9,8,5,15,3,14,7,4,6"
15010,commdev-image-keyboard-response,669,1628637,learnblock2,null,img/planet15_right.png,15,Community 2,NA,FALSE,null,j,NA,NA,NA,4,6,"11,10,1,13,12,2,9,8,5,15,3,14,7,4,6"
15010,commdev-image-keyboard-response,670,1629887,learnblock2,152.60000000009313,img/planet8_right.png,8,Community 2,NA,FALSE,f,j,NA,NA,NA,4,6,"11,10,1,13,12,2,9,8,5,15,3,14,7,4,6"
15010,commdev-image-keyboard-response,671,1631138,learnblock2,null,img/planet5_left.png,5,Community 2,NA,FALSE,null,f,NA,NA,NA,4,6,"11,10,1,13,12,2,9,8,5,15,3,14,7,4,6"
15010,commdev-image-keyboard-response,672,1632392,learnblock2,60.199999999953434,img/planet9_right.png,9,Community 2,NA,FALSE,f,j,NA,NA,NA,4,6,"11,10,1,13,12,2,9,8,5,15,3,14,7,4,6"
15010,commdev-image-keyboard-response,673,1633642,learnblock2,811,img/planet2_left.png,2,Community 2,NA,TRUE,f,f,NA,NA,NA,4,6,"11,10,1,13,12,2,9,8,5,15,3,14,7,4,6"
15010,commdev-image-keyboard-response,674,1634901,learnblock2,875.6000000000931,img/planet5_left.png,5,Community 2,NA,TRUE,f,f,NA,NA,NA,4,6,"11,10,1,13,12,2,9,8,5,15,3,14,7,4,6"
15010,commdev-image-keyboard-response,675,1636152,learnblock2,930.8000000000466,img/planet15_right.png,15,Community 2,NA,TRUE,j,j,NA,NA,NA,4,6,"11,10,1,13,12,2,9,8,5,15,3,14,7,4,6"
15010,commdev-image-keyboard-response,676,1637410,learnblock2,null,img/planet5_left.png,5,Community 2,NA,FALSE,null,f,NA,NA,NA,4,6,"11,10,1,13,12,2,9,8,5,15,3,14,7,4,6"
15010,commdev-image-keyboard-response,677,1638662,learnblock2,7.099999999860302,img/planet8_right.png,8,Community 2,NA,TRUE,j,j,NA,NA,NA,4,6,"11,10,1,13,12,2,9,8,5,15,3,14,7,4,6"
15010,commdev-image-keyboard-response,678,1639921,learnblock2,1139.5,img/planet9_right.png,9,Community 2,NA,FALSE,f,j,NA,NA,NA,4,6,"11,10,1,13,12,2,9,8,5,15,3,14,7,4,6"
15010,commdev-image-keyboard-response,679,1641172,learnblock2,null,img/planet2_right.png,2,Community 2,NA,FALSE,null,j,NA,NA,NA,4,6,"11,10,1,13,12,2,9,8,5,15,3,14,7,4,6"
15010,commdev-image-keyboard-response,680,1642430,learnblock2,930.8000000000466,img/planet13_left.png,13,Community 1,NA,FALSE,j,f,NA,NA,NA,4,6,"11,10,1,13,12,2,9,8,5,15,3,14,7,4,6"
15010,commdev-image-keyboard-response,681,1643682,learnblock2,1063.6000000000931,img/planet10_right.png,10,Community 1,NA,TRUE,j,j,NA,NA,NA,4,6,"11,10,1,13,12,2,9,8,5,15,3,14,7,4,6"
15010,commdev-image-keyboard-response,682,1644941,learnblock2,915.6999999999534,img/planet1_left.png,1,Community 1,NA,TRUE,f,f,NA,NA,NA,4,6,"11,10,1,13,12,2,9,8,5,15,3,14,7,4,6"
15010,commdev-image-keyboard-response,683,1646193,learnblock2,793.9000000001397,img/planet13_left.png,13,Community 1,NA,FALSE,j,f,NA,NA,NA,4,6,"11,10,1,13,12,2,9,8,5,15,3,14,7,4,6"
15010,commdev-image-keyboard-response,684,1647452,learnblock2,520.7999999998137,img/planet10_left.png,10,Community 1,NA,FALSE,j,f,NA,NA,NA,4,6,"11,10,1,13,12,2,9,8,5,15,3,14,7,4,6"
15010,commdev-image-keyboard-response,685,1648703,learnblock2,323.79999999981374,img/planet13_right.png,13,Community 1,NA,FALSE,f,j,NA,NA,NA,4,6,"11,10,1,13,12,2,9,8,5,15,3,14,7,4,6"
15010,commdev-image-keyboard-response,686,1649955,learnblock2,127.5,img/planet1_right.png,1,Community 1,NA,TRUE,j,j,NA,NA,NA,4,6,"11,10,1,13,12,2,9,8,5,15,3,14,7,4,6"
15010,commdev-image-keyboard-response,687,1651209,learnblock2,948.6999999999534,img/planet13_right.png,13,Community 1,NA,TRUE,j,j,NA,NA,NA,4,6,"11,10,1,13,12,2,9,8,5,15,3,14,7,4,6"
15010,commdev-image-keyboard-response,688,1652461,learnblock2,806.7999999998137,img/planet2_right.png,2,Community 2,NA,TRUE,j,j,NA,NA,NA,4,6,"11,10,1,13,12,2,9,8,5,15,3,14,7,4,6"
15010,commdev-image-keyboard-response,689,1653713,learnblock2,702.1000000000931,img/planet15_right.png,15,Community 2,NA,TRUE,j,j,NA,NA,NA,4,6,"11,10,1,13,12,2,9,8,5,15,3,14,7,4,6"
15010,commdev-image-keyboard-response,690,1654969,learnblock2,598.1000000000931,img/planet2_right.png,2,Community 2,NA,TRUE,j,j,NA,NA,NA,4,6,"11,10,1,13,12,2,9,8,5,15,3,14,7,4,6"
15010,commdev-image-keyboard-response,691,1656220,learnblock2,606.1999999999534,img/planet15_right.png,15,Community 2,NA,FALSE,f,j,NA,NA,NA,4,6,"11,10,1,13,12,2,9,8,5,15,3,14,7,4,6"
15010,commdev-image-keyboard-response,692,1657471,learnblock2,763.1000000000931,img/planet8_right.png,8,Community 2,NA,TRUE,j,j,NA,NA,NA,4,6,"11,10,1,13,12,2,9,8,5,15,3,14,7,4,6"
15010,commdev-image-keyboard-response,693,1658728,learnblock2,523.8999999999069,img/planet15_left.png,15,Community 2,NA,TRUE,f,f,NA,NA,NA,4,6,"11,10,1,13,12,2,9,8,5,15,3,14,7,4,6"
