subject_id,trial_type,trial_index,time_elapsed,block,rt,stimulus,planet,community,response,correct,key_press,learning_correct_response,parse,init_locations,final_locations,browser_interactions,num_comp,planet_map
15466,commdev-instructions,7,176402,NA,2627.1000000089407,"<p>In this game, you will be shown a 3x3 grid of patterns.</p> <p>The last one in the bottom right-hand corner, <strong>will be missing:</strong></p> <div style='width: 700px;'><div style='float: top;'><img style='width: 200px;' src='practice/p1_M1.png'></img><p class='small'>You need to select<strong> which of the four possible patterns </strong>along the bottom<strong> fits into the gap:</strong></p></div><div style='float: top;'><img style='width: 300px;' src='practice/p1_T1.png'></img></div><br>",NA,NA,NA,NA,NA,NA,NA,NA,NA,4,6,"8,4,14,7,2,13,3,15,6,12,9,5,11,1,10"
15466,commdev-instructions,8,201012,NA,6507.79999999702,"<p>Try to be as fast and as accurate as you can be.</p> <p>If you cannot solve the puzzle then you should guess - you will not be penalised for an incorrect answer.</p> <p>The task contains a shuffled mix of easy, medium and hard puzzles.</p> <p>You will have <strong>30 seconds</strong> to complete each puzzle.</p><br>",NA,NA,NA,NA,NA,NA,NA,NA,NA,4,6,"8,4,14,7,2,13,3,15,6,12,9,5,11,1,10"
15466,commdev-instructions,15,224924,NA,1180,<p><strong>Success!</strong></p> <p>You seem to be getting the hang of this...</p> <p>Let's move on to the real trials.</p><br>,NA,NA,NA,NA,NA,NA,NA,NA,NA,4,6,"8,4,14,7,2,13,3,15,6,12,9,5,11,1,10"
15466,commdev-instructions,178,466171,NA,32076.60000000894,"<p>In this game, you are a scientist on board a space shuttle. </p><p> On each mission, you will visit planets all across the universe.</p><img src=""img/controlroom.jpg"" width=300vw>",NA,NA,NA,NA,NA,NA,NA,NA,NA,4,6,"8,4,14,7,2,13,3,15,6,12,9,5,11,1,10"
15466,commdev-instructions,179,472848,NA,4613.79999999702,"<p>Here are a few planets you might see:</p><img src=""img/practice1.png"" width=200vw><img src=""img/practice2.png"" width=200vw><img src=""img/practice3.png"" width=200vw>",NA,NA,NA,NA,NA,NA,NA,NA,NA,4,6,"8,4,14,7,2,13,3,15,6,12,9,5,11,1,10"
15466,commdev-instructions,180,487444,NA,7179.79999999702,"<p>Your job as a scientist is to record which direction the winds are moving on each planet.</p><p>There are two types of wind directions:</p><img src=""img/practice1_left.png"" width=200vw><img src=""img/practice1_right.png"" width=200vw>",NA,NA,NA,NA,NA,NA,NA,NA,NA,4,6,"8,4,14,7,2,13,3,15,6,12,9,5,11,1,10"
15466,commdev-instructions,181,500861,NA,8536.70000000298,"<p>If the winds are moving this way, press the letter <strong>F</strong> on the keyboard as fast as you can.</p><img src=""img/leftwind.png"" width=250vw>",NA,NA,NA,NA,NA,NA,NA,NA,NA,4,6,"8,4,14,7,2,13,3,15,6,12,9,5,11,1,10"
15466,commdev-instructions,182,507701,NA,2336.5,"<p>If the winds are moving this way, press the letter <strong>J</strong> on the keyboard as fast as you can.</p><img src=""img/rightwind.png"" width=350vw>",NA,NA,NA,NA,NA,NA,NA,NA,NA,4,6,"8,4,14,7,2,13,3,15,6,12,9,5,11,1,10"
15466,commdev-instructions,183,514269,NA,2134.699999988079,<p>You will have 1 second to respond. Try to respond before the time runs out!,NA,NA,NA,NA,NA,NA,NA,NA,NA,4,6,"8,4,14,7,2,13,3,15,6,12,9,5,11,1,10"
15466,commdev-instructions,184,521212,NA,1518.2000000029802,<p>The planets you will visit will look different from each other.</p><p>You should respond <strong>only</strong> based on wind direction.,NA,NA,NA,NA,NA,NA,NA,NA,NA,4,6,"8,4,14,7,2,13,3,15,6,12,9,5,11,1,10"
15466,commdev-instructions,185,528518,NA,2123.3999999910593,"<p> Ready to start the practice round? </p><p> Remember, press <strong>F</strong> or <strong>J</strong> depending on the wind direction.<br><img src=""img/categorize_planet_example.png""",NA,NA,NA,NA,NA,NA,NA,NA,NA,4,6,"8,4,14,7,2,13,3,15,6,12,9,5,11,1,10"
15466,commdev-instructions,197,588529,NA,20781.59999999404,"<p>Great, now try a short practice mission. </p><p> This time, you will have 1 second to respond and you won't know whether you pressed the right or wrong key for each planet.</p>",NA,NA,NA,NA,NA,NA,NA,NA,NA,4,6,"8,4,14,7,2,13,3,15,6,12,9,5,11,1,10"
15466,commdev-image-keyboard-response,198,589900,practice,925.8999999910593,img/practice2_right.png,NA,Number not found in mappings,NA,FALSE,f,j,NA,NA,NA,4,6,"8,4,14,7,2,13,3,15,6,12,9,5,11,1,10"
15466,commdev-image-keyboard-response,199,591159,practice,101.5,img/practice3_right.png,NA,Number not found in mappings,NA,TRUE,j,j,NA,NA,NA,4,6,"8,4,14,7,2,13,3,15,6,12,9,5,11,1,10"
15466,commdev-image-keyboard-response,200,592416,practice,887.5999999940395,img/practice1_left.png,NA,Number not found in mappings,NA,FALSE,j,f,NA,NA,NA,4,6,"8,4,14,7,2,13,3,15,6,12,9,5,11,1,10"
15466,commdev-image-keyboard-response,201,593668,practice,621.8000000119209,img/practice4_left.png,NA,Number not found in mappings,NA,TRUE,f,f,NA,NA,NA,4,6,"8,4,14,7,2,13,3,15,6,12,9,5,11,1,10"
15466,commdev-image-keyboard-response,202,594922,practice,647.5,img/practice2_left.png,NA,Number not found in mappings,NA,TRUE,f,f,NA,NA,NA,4,6,"8,4,14,7,2,13,3,15,6,12,9,5,11,1,10"
15466,commdev-image-keyboard-response,203,596179,practice,276.80000001192093,img/practice3_left.png,NA,Number not found in mappings,NA,FALSE,j,f,NA,NA,NA,4,6,"8,4,14,7,2,13,3,15,6,12,9,5,11,1,10"
15466,commdev-image-keyboard-response,204,597434,practice,427.90000000596046,img/practice2_left.png,NA,Number not found in mappings,NA,FALSE,j,f,NA,NA,NA,4,6,"8,4,14,7,2,13,3,15,6,12,9,5,11,1,10"
15466,commdev-image-keyboard-response,205,598686,practice,408.29999999701977,img/practice4_right.png,NA,Number not found in mappings,NA,FALSE,f,j,NA,NA,NA,4,6,"8,4,14,7,2,13,3,15,6,12,9,5,11,1,10"
15466,commdev-instructions,206,610359,NA,2139.4000000059605,"<p>Great job with the practice round.</p><p>During real missions, you won't know whether you pressed the right or wrong key for each planet.</p><p>But between missions, we will tell you how you did overall.</p>",NA,NA,NA,NA,NA,NA,NA,NA,NA,4,6,"8,4,14,7,2,13,3,15,6,12,9,5,11,1,10"
15466,commdev-instructions,207,620297,NA,1697.2000000029802,<p>Try your best! You will be paid a bonus based on how many correct responses you make!</p><p>Responses that are too slow will not count toward your bonus.</p>,NA,NA,NA,NA,NA,NA,NA,NA,NA,4,6,"8,4,14,7,2,13,3,15,6,12,9,5,11,1,10"
15466,commdev-instructions,208,627896,NA,1396.2000000029802,"<p>You are almost ready to start the real game.</p><p> First, we are going to ask you some questions about how the game works.</p>",NA,NA,NA,NA,NA,NA,NA,NA,NA,4,6,"8,4,14,7,2,13,3,15,6,12,9,5,11,1,10"
15466,commdev-instructions,217,705048,NA,NA,NA,NA,NA,NA,NA,NA,NA,NA,NA,NA,4,6,"8,4,14,7,2,13,3,15,6,12,9,5,11,1,10"
15466,commdev-image-keyboard-response,219,717990,learnblock1,695.7000000029802,img/planet9_left.png,9,Community 3,NA,TRUE,f,f,NA,NA,NA,4,6,"8,4,14,7,2,13,3,15,6,12,9,5,11,1,10"
15466,commdev-image-keyboard-response,220,719246,learnblock1,null,img/planet2_right.png,2,Community 1,NA,FALSE,null,j,NA,NA,NA,4,6,"8,4,14,7,2,13,3,15,6,12,9,5,11,1,10"
15466,commdev-image-keyboard-response,221,720507,learnblock1,null,img/planet14_right.png,14,Community 1,NA,FALSE,null,j,NA,NA,NA,4,6,"8,4,14,7,2,13,3,15,6,12,9,5,11,1,10"
15466,commdev-image-keyboard-response,222,721764,learnblock1,null,img/planet4_right.png,4,Community 1,NA,FALSE,null,j,NA,NA,NA,4,6,"8,4,14,7,2,13,3,15,6,12,9,5,11,1,10"
15466,commdev-image-keyboard-response,223,723020,learnblock1,387,img/planet14_right.png,14,Community 1,NA,FALSE,f,j,NA,NA,NA,4,6,"8,4,14,7,2,13,3,15,6,12,9,5,11,1,10"
15466,commdev-image-keyboard-response,224,724279,learnblock1,null,img/planet2_right.png,2,Community 1,NA,FALSE,null,j,NA,NA,NA,4,6,"8,4,14,7,2,13,3,15,6,12,9,5,11,1,10"
15466,commdev-image-keyboard-response,225,725535,learnblock1,null,img/planet14_right.png,14,Community 1,NA,FALSE,null,j,NA,NA,NA,4,6,"8,4,14,7,2,13,3,15,6,12,9,5,11,1,10"
15466,commdev-image-keyboard-response,226,726791,learnblock1,null,img/planet2_right.png,2,Community 1,NA,FALSE,null,j,NA,NA,NA,4,6,"8,4,14,7,2,13,3,15,6,12,9,5,11,1,10"
15466,commdev-image-keyboard-response,227,728051,learnblock1,null,img/planet4_left.png,4,Community 1,NA,FALSE,null,f,NA,NA,NA,4,6,"8,4,14,7,2,13,3,15,6,12,9,5,11,1,10"
15466,commdev-image-keyboard-response,228,729311,learnblock1,null,img/planet8_right.png,8,Community 1,NA,FALSE,null,j,NA,NA,NA,4,6,"8,4,14,7,2,13,3,15,6,12,9,5,11,1,10"
15466,commdev-image-keyboard-response,229,730570,learnblock1,null,img/planet14_right.png,14,Community 1,NA,FALSE,null,j,NA,NA,NA,4,6,"8,4,14,7,2,13,3,15,6,12,9,5,11,1,10"
15466,commdev-image-keyboard-response,230,731822,learnblock1,310.69999998807907,img/planet8_left.png,8,Community 1,NA,TRUE,f,f,NA,NA,NA,4,6,"8,4,14,7,2,13,3,15,6,12,9,5,11,1,10"
15466,commdev-image-keyboard-response,231,733078,learnblock1,null,img/planet4_right.png,4,Community 1,NA,FALSE,null,j,NA,NA,NA,4,6,"8,4,14,7,2,13,3,15,6,12,9,5,11,1,10"
15466,commdev-image-keyboard-response,232,734343,learnblock1,null,img/planet7_left.png,7,Community 1,NA,FALSE,null,f,NA,NA,NA,4,6,"8,4,14,7,2,13,3,15,6,12,9,5,11,1,10"
15466,commdev-image-keyboard-response,233,735599,learnblock1,134.40000000596046,img/planet8_right.png,8,Community 1,NA,FALSE,f,j,NA,NA,NA,4,6,"8,4,14,7,2,13,3,15,6,12,9,5,11,1,10"
15466,commdev-image-keyboard-response,234,736851,learnblock1,null,img/planet14_right.png,14,Community 1,NA,FALSE,null,j,NA,NA,NA,4,6,"8,4,14,7,2,13,3,15,6,12,9,5,11,1,10"
15466,commdev-image-keyboard-response,235,738103,learnblock1,null,img/planet8_right.png,8,Community 1,NA,FALSE,null,j,NA,NA,NA,4,6,"8,4,14,7,2,13,3,15,6,12,9,5,11,1,10"
15466,commdev-image-keyboard-response,236,739355,learnblock1,null,img/planet14_right.png,14,Community 1,NA,FALSE,null,j,NA,NA,NA,4,6,"8,4,14,7,2,13,3,15,6,12,9,5,11,1,10"
15466,commdev-image-keyboard-response,237,740606,learnblock1,null,img/planet8_right.png,8,Community 1,NA,FALSE,null,j,NA,NA,NA,4,6,"8,4,14,7,2,13,3,15,6,12,9,5,11,1,10"
15466,commdev-image-keyboard-response,238,741858,learnblock1,null,img/planet2_right.png,2,Community 1,NA,FALSE,null,j,NA,NA,NA,4,6,"8,4,14,7,2,13,3,15,6,12,9,5,11,1,10"
15466,commdev-image-keyboard-response,239,743110,learnblock1,639.2999999970198,img/planet4_left.png,4,Community 1,NA,TRUE,f,f,NA,NA,NA,4,6,"8,4,14,7,2,13,3,15,6,12,9,5,11,1,10"
15466,commdev-image-keyboard-response,240,744362,learnblock1,682.3999999910593,img/planet14_left.png,14,Community 1,NA,TRUE,f,f,NA,NA,NA,4,6,"8,4,14,7,2,13,3,15,6,12,9,5,11,1,10"
15466,commdev-image-keyboard-response,241,745613,learnblock1,675,img/planet8_left.png,8,Community 1,NA,TRUE,f,f,NA,NA,NA,4,6,"8,4,14,7,2,13,3,15,6,12,9,5,11,1,10"
15466,commdev-image-keyboard-response,242,746864,learnblock1,436.80000001192093,img/planet2_left.png,2,Community 1,NA,TRUE,f,f,NA,NA,NA,4,6,"8,4,14,7,2,13,3,15,6,12,9,5,11,1,10"
15466,commdev-image-keyboard-response,243,748115,learnblock1,null,img/planet9_right.png,9,Community 3,NA,FALSE,null,j,NA,NA,NA,4,6,"8,4,14,7,2,13,3,15,6,12,9,5,11,1,10"
15466,commdev-image-keyboard-response,244,749367,learnblock1,464.29999999701977,img/planet2_left.png,2,Community 1,NA,TRUE,f,f,NA,NA,NA,4,6,"8,4,14,7,2,13,3,15,6,12,9,5,11,1,10"
15466,commdev-image-keyboard-response,245,750618,learnblock1,459.5,img/planet9_left.png,9,Community 3,NA,TRUE,f,f,NA,NA,NA,4,6,"8,4,14,7,2,13,3,15,6,12,9,5,11,1,10"
15466,commdev-image-keyboard-response,246,751870,learnblock1,537.6999999880791,img/planet1_left.png,1,Community 3,NA,TRUE,f,f,NA,NA,NA,4,6,"8,4,14,7,2,13,3,15,6,12,9,5,11,1,10"
15466,commdev-image-keyboard-response,247,753121,learnblock1,402.09999999403954,img/planet10_right.png,10,Community 3,NA,FALSE,f,j,NA,NA,NA,4,6,"8,4,14,7,2,13,3,15,6,12,9,5,11,1,10"
15466,commdev-image-keyboard-response,248,754372,learnblock1,null,img/planet9_right.png,9,Community 3,NA,FALSE,null,j,NA,NA,NA,4,6,"8,4,14,7,2,13,3,15,6,12,9,5,11,1,10"
15466,commdev-image-keyboard-response,249,755623,learnblock1,290.59999999403954,img/planet10_left.png,10,Community 3,NA,TRUE,f,f,NA,NA,NA,4,6,"8,4,14,7,2,13,3,15,6,12,9,5,11,1,10"
15466,commdev-image-keyboard-response,250,756874,learnblock1,null,img/planet9_right.png,9,Community 3,NA,FALSE,null,j,NA,NA,NA,4,6,"8,4,14,7,2,13,3,15,6,12,9,5,11,1,10"
15466,commdev-image-keyboard-response,251,758126,learnblock1,165.79999999701977,img/planet11_left.png,11,Community 3,NA,TRUE,f,f,NA,NA,NA,4,6,"8,4,14,7,2,13,3,15,6,12,9,5,11,1,10"
15466,commdev-image-keyboard-response,252,759388,learnblock1,712,img/planet9_left.png,9,Community 3,NA,TRUE,f,f,NA,NA,NA,4,6,"8,4,14,7,2,13,3,15,6,12,9,5,11,1,10"
15466,commdev-image-keyboard-response,253,760640,learnblock1,76.79999999701977,img/planet10_left.png,10,Community 3,NA,TRUE,f,f,NA,NA,NA,4,6,"8,4,14,7,2,13,3,15,6,12,9,5,11,1,10"
15466,commdev-image-keyboard-response,254,761891,learnblock1,null,img/planet11_right.png,11,Community 3,NA,FALSE,null,j,NA,NA,NA,4,6,"8,4,14,7,2,13,3,15,6,12,9,5,11,1,10"
15466,commdev-image-keyboard-response,255,763143,learnblock1,311.29999999701977,img/planet5_left.png,5,Community 3,NA,TRUE,f,f,NA,NA,NA,4,6,"8,4,14,7,2,13,3,15,6,12,9,5,11,1,10"
15466,commdev-image-keyboard-response,256,764394,learnblock1,null,img/planet15_right.png,15,Community 2,NA,FALSE,null,j,NA,NA,NA,4,6,"8,4,14,7,2,13,3,15,6,12,9,5,11,1,10"
15466,commdev-image-keyboard-response,257,765645,learnblock1,3.5999999940395355,img/planet3_left.png,3,Community 2,NA,TRUE,f,f,NA,NA,NA,4,6,"8,4,14,7,2,13,3,15,6,12,9,5,11,1,10"
15466,commdev-image-keyboard-response,258,766907,learnblock1,699.3999999910593,img/planet13_left.png,13,Community 2,NA,TRUE,f,f,NA,NA,NA,4,6,"8,4,14,7,2,13,3,15,6,12,9,5,11,1,10"
15466,commdev-image-keyboard-response,259,768157,learnblock1,175.1000000089407,img/planet6_left.png,6,Community 2,NA,TRUE,f,f,NA,NA,NA,4,6,"8,4,14,7,2,13,3,15,6,12,9,5,11,1,10"
15466,commdev-image-keyboard-response,260,769408,learnblock1,100.79999999701977,img/planet15_right.png,15,Community 2,NA,FALSE,f,j,NA,NA,NA,4,6,"8,4,14,7,2,13,3,15,6,12,9,5,11,1,10"
15466,commdev-image-keyboard-response,261,770659,learnblock1,349.59999999403954,img/planet6_right.png,6,Community 2,NA,FALSE,f,j,NA,NA,NA,4,6,"8,4,14,7,2,13,3,15,6,12,9,5,11,1,10"
15466,commdev-image-keyboard-response,262,771911,learnblock1,403,img/planet3_right.png,3,Community 2,NA,FALSE,f,j,NA,NA,NA,4,6,"8,4,14,7,2,13,3,15,6,12,9,5,11,1,10"
15466,commdev-image-keyboard-response,263,773162,learnblock1,736.4000000059605,img/planet12_right.png,12,Community 2,NA,FALSE,f,j,NA,NA,NA,4,6,"8,4,14,7,2,13,3,15,6,12,9,5,11,1,10"
15466,commdev-image-keyboard-response,264,774414,learnblock1,698.5,img/planet13_right.png,13,Community 2,NA,FALSE,f,j,NA,NA,NA,4,6,"8,4,14,7,2,13,3,15,6,12,9,5,11,1,10"
15466,commdev-image-keyboard-response,265,775665,learnblock1,590.9000000059605,img/planet6_left.png,6,Community 2,NA,TRUE,f,f,NA,NA,NA,4,6,"8,4,14,7,2,13,3,15,6,12,9,5,11,1,10"
15466,commdev-image-keyboard-response,266,776917,learnblock1,null,img/planet13_right.png,13,Community 2,NA,FALSE,null,j,NA,NA,NA,4,6,"8,4,14,7,2,13,3,15,6,12,9,5,11,1,10"
15466,commdev-image-keyboard-response,267,778169,learnblock1,473.79999999701977,img/planet7_left.png,7,Community 1,NA,TRUE,f,f,NA,NA,NA,4,6,"8,4,14,7,2,13,3,15,6,12,9,5,11,1,10"
15466,commdev-image-keyboard-response,268,779420,learnblock1,492.59999999403954,img/planet4_right.png,4,Community 1,NA,FALSE,f,j,NA,NA,NA,4,6,"8,4,14,7,2,13,3,15,6,12,9,5,11,1,10"
15466,commdev-image-keyboard-response,269,780672,learnblock1,465.59999999403954,img/planet2_left.png,2,Community 1,NA,TRUE,f,f,NA,NA,NA,4,6,"8,4,14,7,2,13,3,15,6,12,9,5,11,1,10"
15466,commdev-image-keyboard-response,270,781923,learnblock1,null,img/planet4_right.png,4,Community 1,NA,FALSE,null,j,NA,NA,NA,4,6,"8,4,14,7,2,13,3,15,6,12,9,5,11,1,10"
15466,commdev-image-keyboard-response,271,783175,learnblock1,null,img/planet7_right.png,7,Community 1,NA,FALSE,null,j,NA,NA,NA,4,6,"8,4,14,7,2,13,3,15,6,12,9,5,11,1,10"
15466,commdev-image-keyboard-response,272,784437,learnblock1,467.29999999701977,img/planet8_left.png,8,Community 1,NA,TRUE,f,f,NA,NA,NA,4,6,"8,4,14,7,2,13,3,15,6,12,9,5,11,1,10"
15466,commdev-image-keyboard-response,273,785689,learnblock1,523.3000000119209,img/planet4_left.png,4,Community 1,NA,TRUE,f,f,NA,NA,NA,4,6,"8,4,14,7,2,13,3,15,6,12,9,5,11,1,10"
15466,commdev-image-keyboard-response,274,786941,learnblock1,525.7999999970198,img/planet7_left.png,7,Community 1,NA,TRUE,f,f,NA,NA,NA,4,6,"8,4,14,7,2,13,3,15,6,12,9,5,11,1,10"
15466,commdev-image-keyboard-response,275,788192,learnblock1,558,img/planet4_left.png,4,Community 1,NA,TRUE,f,f,NA,NA,NA,4,6,"8,4,14,7,2,13,3,15,6,12,9,5,11,1,10"
15466,commdev-image-keyboard-response,276,789443,learnblock1,null,img/planet8_right.png,8,Community 1,NA,FALSE,null,j,NA,NA,NA,4,6,"8,4,14,7,2,13,3,15,6,12,9,5,11,1,10"
15466,commdev-image-keyboard-response,277,790695,learnblock1,452.29999999701977,img/planet14_right.png,14,Community 1,NA,FALSE,f,j,NA,NA,NA,4,6,"8,4,14,7,2,13,3,15,6,12,9,5,11,1,10"
15466,commdev-image-keyboard-response,278,791947,learnblock1,null,img/planet8_left.png,8,Community 1,NA,FALSE,null,f,NA,NA,NA,4,6,"8,4,14,7,2,13,3,15,6,12,9,5,11,1,10"
15466,commdev-image-keyboard-response,279,793199,learnblock1,null,img/planet2_right.png,2,Community 1,NA,FALSE,null,j,NA,NA,NA,4,6,"8,4,14,7,2,13,3,15,6,12,9,5,11,1,10"
15466,commdev-image-keyboard-response,280,794450,learnblock1,411.29999999701977,img/planet14_left.png,14,Community 1,NA,TRUE,f,f,NA,NA,NA,4,6,"8,4,14,7,2,13,3,15,6,12,9,5,11,1,10"
15466,commdev-image-keyboard-response,281,795702,learnblock1,null,img/planet2_right.png,2,Community 1,NA,FALSE,null,j,NA,NA,NA,4,6,"8,4,14,7,2,13,3,15,6,12,9,5,11,1,10"
15466,commdev-image-keyboard-response,282,796953,learnblock1,431.59999999403954,img/planet8_left.png,8,Community 1,NA,TRUE,f,f,NA,NA,NA,4,6,"8,4,14,7,2,13,3,15,6,12,9,5,11,1,10"
15466,commdev-image-keyboard-response,283,798204,learnblock1,null,img/planet7_right.png,7,Community 1,NA,FALSE,null,j,NA,NA,NA,4,6,"8,4,14,7,2,13,3,15,6,12,9,5,11,1,10"
15466,commdev-image-keyboard-response,284,799455,learnblock1,561.5,img/planet8_right.png,8,Community 1,NA,FALSE,f,j,NA,NA,NA,4,6,"8,4,14,7,2,13,3,15,6,12,9,5,11,1,10"
15466,commdev-image-keyboard-response,285,800706,learnblock1,455,img/planet4_left.png,4,Community 1,NA,TRUE,f,f,NA,NA,NA,4,6,"8,4,14,7,2,13,3,15,6,12,9,5,11,1,10"
15466,commdev-image-keyboard-response,286,801958,learnblock1,529.2999999970198,img/planet14_left.png,14,Community 1,NA,TRUE,f,f,NA,NA,NA,4,6,"8,4,14,7,2,13,3,15,6,12,9,5,11,1,10"
15466,commdev-image-keyboard-response,287,803209,learnblock1,369,img/planet4_left.png,4,Community 1,NA,TRUE,f,f,NA,NA,NA,4,6,"8,4,14,7,2,13,3,15,6,12,9,5,11,1,10"
15466,commdev-image-keyboard-response,288,804461,learnblock1,null,img/planet2_right.png,2,Community 1,NA,FALSE,null,j,NA,NA,NA,4,6,"8,4,14,7,2,13,3,15,6,12,9,5,11,1,10"
15466,commdev-image-keyboard-response,289,805713,learnblock1,294.3999999910593,img/planet14_left.png,14,Community 1,NA,TRUE,f,f,NA,NA,NA,4,6,"8,4,14,7,2,13,3,15,6,12,9,5,11,1,10"
15466,commdev-image-keyboard-response,290,806964,learnblock1,null,img/planet7_right.png,7,Community 1,NA,FALSE,null,j,NA,NA,NA,4,6,"8,4,14,7,2,13,3,15,6,12,9,5,11,1,10"
15466,commdev-image-keyboard-response,291,808217,learnblock1,322.29999999701977,img/planet13_right.png,13,Community 2,NA,FALSE,f,j,NA,NA,NA,4,6,"8,4,14,7,2,13,3,15,6,12,9,5,11,1,10"
15466,commdev-image-keyboard-response,292,809469,learnblock1,497.20000000298023,img/planet7_left.png,7,Community 1,NA,TRUE,f,f,NA,NA,NA,4,6,"8,4,14,7,2,13,3,15,6,12,9,5,11,1,10"
15466,commdev-image-keyboard-response,293,810720,learnblock1,485.30000001192093,img/planet14_left.png,14,Community 1,NA,TRUE,f,f,NA,NA,NA,4,6,"8,4,14,7,2,13,3,15,6,12,9,5,11,1,10"
15466,commdev-image-keyboard-response,294,811972,learnblock1,499.29999999701977,img/planet7_left.png,7,Community 1,NA,TRUE,f,f,NA,NA,NA,4,6,"8,4,14,7,2,13,3,15,6,12,9,5,11,1,10"
15466,commdev-image-keyboard-response,295,813223,learnblock1,361.6000000089407,img/planet14_right.png,14,Community 1,NA,FALSE,f,j,NA,NA,NA,4,6,"8,4,14,7,2,13,3,15,6,12,9,5,11,1,10"
15466,commdev-image-keyboard-response,296,814474,learnblock1,445.90000000596046,img/planet7_right.png,7,Community 1,NA,FALSE,f,j,NA,NA,NA,4,6,"8,4,14,7,2,13,3,15,6,12,9,5,11,1,10"
15466,commdev-image-keyboard-response,297,815726,learnblock1,430.90000000596046,img/planet8_left.png,8,Community 1,NA,TRUE,f,f,NA,NA,NA,4,6,"8,4,14,7,2,13,3,15,6,12,9,5,11,1,10"
15466,commdev-image-keyboard-response,298,816977,learnblock1,null,img/planet2_left.png,2,Community 1,NA,FALSE,null,f,NA,NA,NA,4,6,"8,4,14,7,2,13,3,15,6,12,9,5,11,1,10"
15466,commdev-image-keyboard-response,299,818230,learnblock1,null,img/planet4_right.png,4,Community 1,NA,FALSE,null,j,NA,NA,NA,4,6,"8,4,14,7,2,13,3,15,6,12,9,5,11,1,10"
15466,commdev-image-keyboard-response,300,819481,learnblock1,411.59999999403954,img/planet2_left.png,2,Community 1,NA,TRUE,f,f,NA,NA,NA,4,6,"8,4,14,7,2,13,3,15,6,12,9,5,11,1,10"
15466,commdev-image-keyboard-response,301,820733,learnblock1,531,img/planet9_left.png,9,Community 3,NA,TRUE,f,f,NA,NA,NA,4,6,"8,4,14,7,2,13,3,15,6,12,9,5,11,1,10"
15466,commdev-image-keyboard-response,302,821997,learnblock1,456.3999999910593,img/planet2_left.png,2,Community 1,NA,TRUE,f,f,NA,NA,NA,4,6,"8,4,14,7,2,13,3,15,6,12,9,5,11,1,10"
15466,commdev-image-keyboard-response,303,823248,learnblock1,508.90000000596046,img/planet14_left.png,14,Community 1,NA,TRUE,f,f,NA,NA,NA,4,6,"8,4,14,7,2,13,3,15,6,12,9,5,11,1,10"
15466,commdev-image-keyboard-response,304,824500,learnblock1,424.69999998807907,img/planet4_left.png,4,Community 1,NA,TRUE,f,f,NA,NA,NA,4,6,"8,4,14,7,2,13,3,15,6,12,9,5,11,1,10"
15466,commdev-image-keyboard-response,305,825752,learnblock1,557.9000000059605,img/planet14_left.png,14,Community 1,NA,TRUE,f,f,NA,NA,NA,4,6,"8,4,14,7,2,13,3,15,6,12,9,5,11,1,10"
15466,commdev-image-keyboard-response,306,827004,learnblock1,596.1000000089407,img/planet7_left.png,7,Community 1,NA,TRUE,f,f,NA,NA,NA,4,6,"8,4,14,7,2,13,3,15,6,12,9,5,11,1,10"
15466,commdev-image-keyboard-response,307,828256,learnblock1,451.19999998807907,img/planet4_right.png,4,Community 1,NA,FALSE,f,j,NA,NA,NA,4,6,"8,4,14,7,2,13,3,15,6,12,9,5,11,1,10"
15466,commdev-image-keyboard-response,308,829508,learnblock1,499.40000000596046,img/planet2_right.png,2,Community 1,NA,FALSE,f,j,NA,NA,NA,4,6,"8,4,14,7,2,13,3,15,6,12,9,5,11,1,10"
15466,commdev-image-keyboard-response,309,830759,learnblock1,462.70000000298023,img/planet14_left.png,14,Community 1,NA,TRUE,f,f,NA,NA,NA,4,6,"8,4,14,7,2,13,3,15,6,12,9,5,11,1,10"
15466,commdev-image-keyboard-response,310,832011,learnblock1,null,img/planet4_right.png,4,Community 1,NA,FALSE,null,j,NA,NA,NA,4,6,"8,4,14,7,2,13,3,15,6,12,9,5,11,1,10"
15466,commdev-image-keyboard-response,311,833262,learnblock1,792.2999999970198,img/planet14_right.png,14,Community 1,NA,FALSE,f,j,NA,NA,NA,4,6,"8,4,14,7,2,13,3,15,6,12,9,5,11,1,10"
15466,commdev-image-keyboard-response,312,834514,learnblock1,null,img/planet8_right.png,8,Community 1,NA,FALSE,null,j,NA,NA,NA,4,6,"8,4,14,7,2,13,3,15,6,12,9,5,11,1,10"
15466,commdev-image-keyboard-response,313,835769,learnblock1,585.3999999910593,img/planet14_left.png,14,Community 1,NA,TRUE,f,f,NA,NA,NA,4,6,"8,4,14,7,2,13,3,15,6,12,9,5,11,1,10"
15466,commdev-image-keyboard-response,314,837021,learnblock1,548.7999999970198,img/planet7_left.png,7,Community 1,NA,TRUE,f,f,NA,NA,NA,4,6,"8,4,14,7,2,13,3,15,6,12,9,5,11,1,10"
15466,commdev-image-keyboard-response,315,838272,learnblock1,564.5,img/planet8_left.png,8,Community 1,NA,TRUE,f,f,NA,NA,NA,4,6,"8,4,14,7,2,13,3,15,6,12,9,5,11,1,10"
15466,commdev-image-keyboard-response,316,839523,learnblock1,597.9000000059605,img/planet4_left.png,4,Community 1,NA,TRUE,f,f,NA,NA,NA,4,6,"8,4,14,7,2,13,3,15,6,12,9,5,11,1,10"
15466,commdev-image-keyboard-response,317,840776,learnblock1,544.9000000059605,img/planet7_left.png,7,Community 1,NA,TRUE,f,f,NA,NA,NA,4,6,"8,4,14,7,2,13,3,15,6,12,9,5,11,1,10"
15466,commdev-image-keyboard-response,318,842027,learnblock1,null,img/planet4_right.png,4,Community 1,NA,FALSE,null,j,NA,NA,NA,4,6,"8,4,14,7,2,13,3,15,6,12,9,5,11,1,10"
15466,commdev-image-keyboard-response,319,843279,learnblock1,456,img/planet14_left.png,14,Community 1,NA,TRUE,f,f,NA,NA,NA,4,6,"8,4,14,7,2,13,3,15,6,12,9,5,11,1,10"
15466,commdev-image-keyboard-response,320,844530,learnblock1,477.79999999701977,img/planet4_left.png,4,Community 1,NA,TRUE,f,f,NA,NA,NA,4,6,"8,4,14,7,2,13,3,15,6,12,9,5,11,1,10"
15466,commdev-image-keyboard-response,321,845782,learnblock1,null,img/planet14_right.png,14,Community 1,NA,FALSE,null,j,NA,NA,NA,4,6,"8,4,14,7,2,13,3,15,6,12,9,5,11,1,10"
15466,commdev-image-keyboard-response,322,847033,learnblock1,null,img/planet8_right.png,8,Community 1,NA,FALSE,null,j,NA,NA,NA,4,6,"8,4,14,7,2,13,3,15,6,12,9,5,11,1,10"
15466,commdev-image-keyboard-response,323,848285,learnblock1,520.0999999940395,img/planet14_left.png,14,Community 1,NA,TRUE,f,f,NA,NA,NA,4,6,"8,4,14,7,2,13,3,15,6,12,9,5,11,1,10"
15466,commdev-image-keyboard-response,324,849536,learnblock1,621.7999999970198,img/planet8_left.png,8,Community 1,NA,TRUE,f,f,NA,NA,NA,4,6,"8,4,14,7,2,13,3,15,6,12,9,5,11,1,10"
15466,commdev-image-keyboard-response,325,850788,learnblock1,null,img/planet14_right.png,14,Community 1,NA,FALSE,null,j,NA,NA,NA,4,6,"8,4,14,7,2,13,3,15,6,12,9,5,11,1,10"
15466,commdev-image-keyboard-response,326,852040,learnblock1,463.20000000298023,img/planet2_left.png,2,Community 1,NA,TRUE,f,f,NA,NA,NA,4,6,"8,4,14,7,2,13,3,15,6,12,9,5,11,1,10"
15466,commdev-image-keyboard-response,327,853291,learnblock1,553.5999999940395,img/planet14_left.png,14,Community 1,NA,TRUE,f,f,NA,NA,NA,4,6,"8,4,14,7,2,13,3,15,6,12,9,5,11,1,10"
15466,commdev-image-keyboard-response,328,854542,learnblock1,null,img/planet2_right.png,2,Community 1,NA,FALSE,null,j,NA,NA,NA,4,6,"8,4,14,7,2,13,3,15,6,12,9,5,11,1,10"
15466,commdev-image-keyboard-response,329,855793,learnblock1,459.40000000596046,img/planet14_right.png,14,Community 1,NA,FALSE,f,j,NA,NA,NA,4,6,"8,4,14,7,2,13,3,15,6,12,9,5,11,1,10"
15466,commdev-image-keyboard-response,330,857044,learnblock1,null,img/planet2_left.png,2,Community 1,NA,FALSE,null,f,NA,NA,NA,4,6,"8,4,14,7,2,13,3,15,6,12,9,5,11,1,10"
15466,commdev-image-keyboard-response,331,858296,learnblock1,630,img/planet9_left.png,9,Community 3,NA,TRUE,f,f,NA,NA,NA,4,6,"8,4,14,7,2,13,3,15,6,12,9,5,11,1,10"
15466,commdev-image-keyboard-response,332,859547,learnblock1,null,img/planet1_right.png,1,Community 3,NA,FALSE,null,j,NA,NA,NA,4,6,"8,4,14,7,2,13,3,15,6,12,9,5,11,1,10"
15466,commdev-image-keyboard-response,333,860798,learnblock1,472.79999999701977,img/planet10_left.png,10,Community 3,NA,TRUE,f,f,NA,NA,NA,4,6,"8,4,14,7,2,13,3,15,6,12,9,5,11,1,10"
15466,commdev-image-keyboard-response,334,862049,learnblock1,null,img/planet11_right.png,11,Community 3,NA,FALSE,null,j,NA,NA,NA,4,6,"8,4,14,7,2,13,3,15,6,12,9,5,11,1,10"
15466,commdev-image-keyboard-response,335,863300,learnblock1,477.5,img/planet5_left.png,5,Community 3,NA,TRUE,f,f,NA,NA,NA,4,6,"8,4,14,7,2,13,3,15,6,12,9,5,11,1,10"
15466,commdev-image-keyboard-response,336,864552,learnblock1,656.5,img/planet15_left.png,15,Community 2,NA,TRUE,f,f,NA,NA,NA,4,6,"8,4,14,7,2,13,3,15,6,12,9,5,11,1,10"
15466,commdev-image-keyboard-response,337,865803,learnblock1,null,img/planet5_right.png,5,Community 3,NA,FALSE,null,j,NA,NA,NA,4,6,"8,4,14,7,2,13,3,15,6,12,9,5,11,1,10"
15466,commdev-image-keyboard-response,338,867054,learnblock1,752.5,img/planet15_right.png,15,Community 2,NA,FALSE,f,j,NA,NA,NA,4,6,"8,4,14,7,2,13,3,15,6,12,9,5,11,1,10"
15466,commdev-image-keyboard-response,339,868305,learnblock1,584,img/planet12_left.png,12,Community 2,NA,TRUE,f,f,NA,NA,NA,4,6,"8,4,14,7,2,13,3,15,6,12,9,5,11,1,10"
15466,commdev-image-keyboard-response,340,869556,learnblock1,636,img/planet13_left.png,13,Community 2,NA,TRUE,f,f,NA,NA,NA,4,6,"8,4,14,7,2,13,3,15,6,12,9,5,11,1,10"
15466,commdev-image-keyboard-response,341,870810,learnblock1,632,img/planet6_left.png,6,Community 2,NA,TRUE,f,f,NA,NA,NA,4,6,"8,4,14,7,2,13,3,15,6,12,9,5,11,1,10"
15466,commdev-image-keyboard-response,342,872062,learnblock1,565.7999999970198,img/planet12_left.png,12,Community 2,NA,TRUE,f,f,NA,NA,NA,4,6,"8,4,14,7,2,13,3,15,6,12,9,5,11,1,10"
15466,commdev-image-keyboard-response,343,873314,learnblock1,469.3999999910593,img/planet13_left.png,13,Community 2,NA,TRUE,f,f,NA,NA,NA,4,6,"8,4,14,7,2,13,3,15,6,12,9,5,11,1,10"
15466,commdev-image-keyboard-response,344,874566,learnblock1,null,img/planet6_right.png,6,Community 2,NA,FALSE,null,j,NA,NA,NA,4,6,"8,4,14,7,2,13,3,15,6,12,9,5,11,1,10"
15466,commdev-image-keyboard-response,345,875817,learnblock1,null,img/planet15_left.png,15,Community 2,NA,FALSE,null,f,NA,NA,NA,4,6,"8,4,14,7,2,13,3,15,6,12,9,5,11,1,10"
15466,commdev-image-keyboard-response,346,877069,learnblock1,575,img/planet6_left.png,6,Community 2,NA,TRUE,f,f,NA,NA,NA,4,6,"8,4,14,7,2,13,3,15,6,12,9,5,11,1,10"
15466,commdev-image-keyboard-response,347,878322,learnblock1,427.59999999403954,img/planet3_left.png,3,Community 2,NA,TRUE,f,f,NA,NA,NA,4,6,"8,4,14,7,2,13,3,15,6,12,9,5,11,1,10"
15466,commdev-image-keyboard-response,348,879574,learnblock1,396.1000000089407,img/planet12_right.png,12,Community 2,NA,FALSE,f,j,NA,NA,NA,4,6,"8,4,14,7,2,13,3,15,6,12,9,5,11,1,10"
15466,commdev-image-keyboard-response,349,880825,learnblock1,527,img/planet6_right.png,6,Community 2,NA,FALSE,f,j,NA,NA,NA,4,6,"8,4,14,7,2,13,3,15,6,12,9,5,11,1,10"
15466,commdev-image-keyboard-response,350,882076,learnblock1,482.8999999910593,img/planet15_left.png,15,Community 2,NA,TRUE,f,f,NA,NA,NA,4,6,"8,4,14,7,2,13,3,15,6,12,9,5,11,1,10"
15466,commdev-image-keyboard-response,351,883328,learnblock1,567.3999999910593,img/planet12_right.png,12,Community 2,NA,FALSE,f,j,NA,NA,NA,4,6,"8,4,14,7,2,13,3,15,6,12,9,5,11,1,10"
15466,commdev-image-keyboard-response,352,884580,learnblock1,261.70000000298023,img/planet13_right.png,13,Community 2,NA,FALSE,f,j,NA,NA,NA,4,6,"8,4,14,7,2,13,3,15,6,12,9,5,11,1,10"
15466,commdev-image-keyboard-response,353,885832,learnblock1,158.69999998807907,img/planet3_right.png,3,Community 2,NA,FALSE,f,j,NA,NA,NA,4,6,"8,4,14,7,2,13,3,15,6,12,9,5,11,1,10"
15466,commdev-image-keyboard-response,354,887084,learnblock1,466.90000000596046,img/planet15_left.png,15,Community 2,NA,TRUE,f,f,NA,NA,NA,4,6,"8,4,14,7,2,13,3,15,6,12,9,5,11,1,10"
15466,commdev-image-keyboard-response,355,888336,learnblock1,314.09999999403954,img/planet5_right.png,5,Community 3,NA,FALSE,f,j,NA,NA,NA,4,6,"8,4,14,7,2,13,3,15,6,12,9,5,11,1,10"
15466,commdev-image-keyboard-response,356,889588,learnblock1,246.5,img/planet15_right.png,15,Community 2,NA,FALSE,f,j,NA,NA,NA,4,6,"8,4,14,7,2,13,3,15,6,12,9,5,11,1,10"
15466,commdev-image-keyboard-response,357,890839,learnblock1,null,img/planet5_right.png,5,Community 3,NA,FALSE,null,j,NA,NA,NA,4,6,"8,4,14,7,2,13,3,15,6,12,9,5,11,1,10"
15466,commdev-image-keyboard-response,358,892090,learnblock1,null,img/planet15_right.png,15,Community 2,NA,FALSE,null,j,NA,NA,NA,4,6,"8,4,14,7,2,13,3,15,6,12,9,5,11,1,10"
15466,commdev-image-keyboard-response,359,893342,learnblock1,null,img/planet12_left.png,12,Community 2,NA,FALSE,null,f,NA,NA,NA,4,6,"8,4,14,7,2,13,3,15,6,12,9,5,11,1,10"
15466,commdev-image-keyboard-response,360,894594,learnblock1,694.2000000029802,img/planet3_left.png,3,Community 2,NA,TRUE,f,f,NA,NA,NA,4,6,"8,4,14,7,2,13,3,15,6,12,9,5,11,1,10"
15466,commdev-image-keyboard-response,361,895846,learnblock1,604.5,img/planet12_left.png,12,Community 2,NA,TRUE,f,f,NA,NA,NA,4,6,"8,4,14,7,2,13,3,15,6,12,9,5,11,1,10"
15466,commdev-image-keyboard-response,362,897098,learnblock1,614.7000000029802,img/planet6_left.png,6,Community 2,NA,TRUE,f,f,NA,NA,NA,4,6,"8,4,14,7,2,13,3,15,6,12,9,5,11,1,10"
15466,commdev-image-keyboard-response,363,898361,learnblock1,null,img/planet12_right.png,12,Community 2,NA,FALSE,null,j,NA,NA,NA,4,6,"8,4,14,7,2,13,3,15,6,12,9,5,11,1,10"
15466,commdev-image-keyboard-response,364,899614,learnblock1,575.7000000029802,img/planet3_left.png,3,Community 2,NA,TRUE,f,f,NA,NA,NA,4,6,"8,4,14,7,2,13,3,15,6,12,9,5,11,1,10"
15466,commdev-image-keyboard-response,365,900866,learnblock1,null,img/planet15_right.png,15,Community 2,NA,FALSE,null,j,NA,NA,NA,4,6,"8,4,14,7,2,13,3,15,6,12,9,5,11,1,10"
15466,commdev-image-keyboard-response,366,902117,learnblock1,null,img/planet5_right.png,5,Community 3,NA,FALSE,null,j,NA,NA,NA,4,6,"8,4,14,7,2,13,3,15,6,12,9,5,11,1,10"
15466,commdev-image-keyboard-response,367,903369,learnblock1,null,img/planet1_right.png,1,Community 3,NA,FALSE,null,j,NA,NA,NA,4,6,"8,4,14,7,2,13,3,15,6,12,9,5,11,1,10"
15466,commdev-image-keyboard-response,368,904621,learnblock1,405.8999999910593,img/planet5_right.png,5,Community 3,NA,FALSE,f,j,NA,NA,NA,4,6,"8,4,14,7,2,13,3,15,6,12,9,5,11,1,10"
15466,commdev-image-keyboard-response,369,905872,learnblock1,null,img/planet10_right.png,10,Community 3,NA,FALSE,null,j,NA,NA,NA,4,6,"8,4,14,7,2,13,3,15,6,12,9,5,11,1,10"
15466,commdev-image-keyboard-response,370,907124,learnblock1,458.8999999910593,img/planet5_left.png,5,Community 3,NA,TRUE,f,f,NA,NA,NA,4,6,"8,4,14,7,2,13,3,15,6,12,9,5,11,1,10"
15466,commdev-image-keyboard-response,371,908375,learnblock1,null,img/planet10_right.png,10,Community 3,NA,FALSE,null,j,NA,NA,NA,4,6,"8,4,14,7,2,13,3,15,6,12,9,5,11,1,10"
15466,commdev-image-keyboard-response,372,909626,learnblock1,442.40000000596046,img/planet11_left.png,11,Community 3,NA,TRUE,f,f,NA,NA,NA,4,6,"8,4,14,7,2,13,3,15,6,12,9,5,11,1,10"
15466,commdev-image-keyboard-response,373,910881,learnblock1,null,img/planet9_right.png,9,Community 3,NA,FALSE,null,j,NA,NA,NA,4,6,"8,4,14,7,2,13,3,15,6,12,9,5,11,1,10"
15466,commdev-image-keyboard-response,374,912132,learnblock1,464.59999999403954,img/planet1_left.png,1,Community 3,NA,TRUE,f,f,NA,NA,NA,4,6,"8,4,14,7,2,13,3,15,6,12,9,5,11,1,10"
15466,commdev-image-keyboard-response,375,913385,learnblock1,null,img/planet5_left.png,5,Community 3,NA,FALSE,null,f,NA,NA,NA,4,6,"8,4,14,7,2,13,3,15,6,12,9,5,11,1,10"
15466,commdev-image-keyboard-response,376,914636,learnblock1,530.8000000119209,img/planet15_left.png,15,Community 2,NA,TRUE,f,f,NA,NA,NA,4,6,"8,4,14,7,2,13,3,15,6,12,9,5,11,1,10"
15466,commdev-image-keyboard-response,377,915888,learnblock1,478.20000000298023,img/planet5_left.png,5,Community 3,NA,TRUE,f,f,NA,NA,NA,4,6,"8,4,14,7,2,13,3,15,6,12,9,5,11,1,10"
15466,commdev-image-keyboard-response,378,917139,learnblock1,null,img/planet1_left.png,1,Community 3,NA,FALSE,null,f,NA,NA,NA,4,6,"8,4,14,7,2,13,3,15,6,12,9,5,11,1,10"
15466,commdev-image-keyboard-response,379,918390,learnblock1,null,img/planet10_right.png,10,Community 3,NA,FALSE,null,j,NA,NA,NA,4,6,"8,4,14,7,2,13,3,15,6,12,9,5,11,1,10"
15466,commdev-image-keyboard-response,380,919642,learnblock1,null,img/planet9_right.png,9,Community 3,NA,FALSE,null,j,NA,NA,NA,4,6,"8,4,14,7,2,13,3,15,6,12,9,5,11,1,10"
15466,commdev-image-keyboard-response,381,920893,learnblock1,null,img/planet2_left.png,2,Community 1,NA,FALSE,null,f,NA,NA,NA,4,6,"8,4,14,7,2,13,3,15,6,12,9,5,11,1,10"
15466,commdev-image-keyboard-response,382,922145,learnblock1,136.59999999403954,img/planet9_right.png,9,Community 3,NA,FALSE,f,j,NA,NA,NA,4,6,"8,4,14,7,2,13,3,15,6,12,9,5,11,1,10"
15466,commdev-image-keyboard-response,383,923397,learnblock1,929,img/planet1_left.png,1,Community 3,NA,TRUE,f,f,NA,NA,NA,4,6,"8,4,14,7,2,13,3,15,6,12,9,5,11,1,10"
15466,commdev-image-keyboard-response,384,924649,learnblock1,null,img/planet9_right.png,9,Community 3,NA,FALSE,null,j,NA,NA,NA,4,6,"8,4,14,7,2,13,3,15,6,12,9,5,11,1,10"
15466,commdev-image-keyboard-response,385,925900,learnblock1,715.2000000029802,img/planet2_left.png,2,Community 1,NA,TRUE,f,f,NA,NA,NA,4,6,"8,4,14,7,2,13,3,15,6,12,9,5,11,1,10"
15466,commdev-image-keyboard-response,386,927155,learnblock1,748.3999999910593,img/planet9_right.png,9,Community 3,NA,FALSE,f,j,NA,NA,NA,4,6,"8,4,14,7,2,13,3,15,6,12,9,5,11,1,10"
15466,commdev-image-keyboard-response,387,928407,learnblock1,null,img/planet11_left.png,11,Community 3,NA,FALSE,null,f,NA,NA,NA,4,6,"8,4,14,7,2,13,3,15,6,12,9,5,11,1,10"
15466,commdev-image-keyboard-response,388,929659,learnblock1,16.200000002980232,img/planet1_left.png,1,Community 3,NA,TRUE,f,f,NA,NA,NA,4,6,"8,4,14,7,2,13,3,15,6,12,9,5,11,1,10"
15466,commdev-image-keyboard-response,389,930909,learnblock1,655.8000000119209,img/planet9_left.png,9,Community 3,NA,TRUE,f,f,NA,NA,NA,4,6,"8,4,14,7,2,13,3,15,6,12,9,5,11,1,10"
15466,commdev-image-keyboard-response,390,932161,learnblock1,null,img/planet2_right.png,2,Community 1,NA,FALSE,null,j,NA,NA,NA,4,6,"8,4,14,7,2,13,3,15,6,12,9,5,11,1,10"
15466,commdev-image-keyboard-response,391,933413,learnblock1,null,img/planet9_right.png,9,Community 3,NA,FALSE,null,j,NA,NA,NA,4,6,"8,4,14,7,2,13,3,15,6,12,9,5,11,1,10"
15466,commdev-image-keyboard-response,392,934663,learnblock1,null,img/planet11_left.png,11,Community 3,NA,FALSE,null,f,NA,NA,NA,4,6,"8,4,14,7,2,13,3,15,6,12,9,5,11,1,10"
15466,commdev-image-keyboard-response,393,935915,learnblock1,707.5999999940395,img/planet1_left.png,1,Community 3,NA,TRUE,f,f,NA,NA,NA,4,6,"8,4,14,7,2,13,3,15,6,12,9,5,11,1,10"
15466,commdev-image-keyboard-response,394,937167,learnblock1,null,img/planet11_right.png,11,Community 3,NA,FALSE,null,j,NA,NA,NA,4,6,"8,4,14,7,2,13,3,15,6,12,9,5,11,1,10"
15466,commdev-image-keyboard-response,395,938419,learnblock1,null,img/planet5_right.png,5,Community 3,NA,FALSE,null,j,NA,NA,NA,4,6,"8,4,14,7,2,13,3,15,6,12,9,5,11,1,10"
15466,commdev-image-keyboard-response,396,939670,learnblock1,486.3999999910593,img/planet11_left.png,11,Community 3,NA,TRUE,f,f,NA,NA,NA,4,6,"8,4,14,7,2,13,3,15,6,12,9,5,11,1,10"
15466,commdev-image-keyboard-response,397,940921,learnblock1,611.7999999970198,img/planet10_left.png,10,Community 3,NA,TRUE,f,f,NA,NA,NA,4,6,"8,4,14,7,2,13,3,15,6,12,9,5,11,1,10"
15466,commdev-image-keyboard-response,398,942173,learnblock1,null,img/planet1_right.png,1,Community 3,NA,FALSE,null,j,NA,NA,NA,4,6,"8,4,14,7,2,13,3,15,6,12,9,5,11,1,10"
15466,commdev-image-keyboard-response,399,943424,learnblock1,null,img/planet5_right.png,5,Community 3,NA,FALSE,null,j,NA,NA,NA,4,6,"8,4,14,7,2,13,3,15,6,12,9,5,11,1,10"
15466,commdev-image-keyboard-response,400,944676,learnblock1,523.7999999970198,img/planet15_left.png,15,Community 2,NA,TRUE,f,f,NA,NA,NA,4,6,"8,4,14,7,2,13,3,15,6,12,9,5,11,1,10"
15466,commdev-image-keyboard-response,401,945928,learnblock1,619.2999999970198,img/planet6_left.png,6,Community 2,NA,TRUE,f,f,NA,NA,NA,4,6,"8,4,14,7,2,13,3,15,6,12,9,5,11,1,10"
15466,commdev-image-keyboard-response,402,947180,learnblock1,523,img/planet3_left.png,3,Community 2,NA,TRUE,f,f,NA,NA,NA,4,6,"8,4,14,7,2,13,3,15,6,12,9,5,11,1,10"
15466,commdev-image-keyboard-response,403,948431,learnblock1,520.5999999940395,img/planet12_left.png,12,Community 2,NA,TRUE,f,f,NA,NA,NA,4,6,"8,4,14,7,2,13,3,15,6,12,9,5,11,1,10"
15466,commdev-image-keyboard-response,404,949683,learnblock1,null,img/planet13_right.png,13,Community 2,NA,FALSE,null,j,NA,NA,NA,4,6,"8,4,14,7,2,13,3,15,6,12,9,5,11,1,10"
15466,commdev-image-keyboard-response,405,950935,learnblock1,null,img/planet6_right.png,6,Community 2,NA,FALSE,null,j,NA,NA,NA,4,6,"8,4,14,7,2,13,3,15,6,12,9,5,11,1,10"
15466,commdev-image-keyboard-response,406,952187,learnblock1,null,img/planet3_right.png,3,Community 2,NA,FALSE,null,j,NA,NA,NA,4,6,"8,4,14,7,2,13,3,15,6,12,9,5,11,1,10"
15466,commdev-image-keyboard-response,407,953439,learnblock1,null,img/planet6_right.png,6,Community 2,NA,FALSE,null,j,NA,NA,NA,4,6,"8,4,14,7,2,13,3,15,6,12,9,5,11,1,10"
15466,commdev-image-keyboard-response,408,954692,learnblock1,607.1000000089407,img/planet12_left.png,12,Community 2,NA,TRUE,f,f,NA,NA,NA,4,6,"8,4,14,7,2,13,3,15,6,12,9,5,11,1,10"
15466,commdev-image-keyboard-response,409,955944,learnblock1,610.5,img/planet6_right.png,6,Community 2,NA,FALSE,f,j,NA,NA,NA,4,6,"8,4,14,7,2,13,3,15,6,12,9,5,11,1,10"
15466,commdev-image-keyboard-response,410,957195,learnblock1,null,img/planet13_right.png,13,Community 2,NA,FALSE,null,j,NA,NA,NA,4,6,"8,4,14,7,2,13,3,15,6,12,9,5,11,1,10"
15466,commdev-image-keyboard-response,411,958446,learnblock1,null,img/planet3_left.png,3,Community 2,NA,FALSE,null,f,NA,NA,NA,4,6,"8,4,14,7,2,13,3,15,6,12,9,5,11,1,10"
15466,commdev-image-keyboard-response,412,959699,learnblock1,null,img/planet12_left.png,12,Community 2,NA,FALSE,null,f,NA,NA,NA,4,6,"8,4,14,7,2,13,3,15,6,12,9,5,11,1,10"
15466,commdev-image-keyboard-response,413,960949,learnblock1,167.70000000298023,img/planet15_left.png,15,Community 2,NA,TRUE,f,f,NA,NA,NA,4,6,"8,4,14,7,2,13,3,15,6,12,9,5,11,1,10"
15466,commdev-image-keyboard-response,414,962201,learnblock1,null,img/planet5_left.png,5,Community 3,NA,FALSE,null,f,NA,NA,NA,4,6,"8,4,14,7,2,13,3,15,6,12,9,5,11,1,10"
15466,commdev-image-keyboard-response,415,963453,learnblock1,500.59999999403954,img/planet1_left.png,1,Community 3,NA,TRUE,f,f,NA,NA,NA,4,6,"8,4,14,7,2,13,3,15,6,12,9,5,11,1,10"
15466,commdev-image-keyboard-response,416,964705,learnblock1,null,img/planet5_right.png,5,Community 3,NA,FALSE,null,j,NA,NA,NA,4,6,"8,4,14,7,2,13,3,15,6,12,9,5,11,1,10"
15466,commdev-image-keyboard-response,417,965956,learnblock1,598.2000000029802,img/planet15_left.png,15,Community 2,NA,TRUE,f,f,NA,NA,NA,4,6,"8,4,14,7,2,13,3,15,6,12,9,5,11,1,10"
15466,commdev-image-keyboard-response,418,967208,learnblock1,null,img/planet6_right.png,6,Community 2,NA,FALSE,null,j,NA,NA,NA,4,6,"8,4,14,7,2,13,3,15,6,12,9,5,11,1,10"
15466,commdev-image-keyboard-response,419,968460,learnblock1,516.2000000029802,img/planet3_left.png,3,Community 2,NA,TRUE,f,f,NA,NA,NA,4,6,"8,4,14,7,2,13,3,15,6,12,9,5,11,1,10"
15466,commdev-image-keyboard-response,420,969711,learnblock1,null,img/planet12_left.png,12,Community 2,NA,FALSE,null,f,NA,NA,NA,4,6,"8,4,14,7,2,13,3,15,6,12,9,5,11,1,10"
15466,commdev-image-keyboard-response,421,970964,learnblock1,519.7000000029802,img/planet13_right.png,13,Community 2,NA,FALSE,f,j,NA,NA,NA,4,6,"8,4,14,7,2,13,3,15,6,12,9,5,11,1,10"
15466,commdev-image-keyboard-response,422,972215,learnblock1,null,img/planet6_right.png,6,Community 2,NA,FALSE,null,j,NA,NA,NA,4,6,"8,4,14,7,2,13,3,15,6,12,9,5,11,1,10"
15466,commdev-image-keyboard-response,423,973467,learnblock1,null,img/planet15_right.png,15,Community 2,NA,FALSE,null,j,NA,NA,NA,4,6,"8,4,14,7,2,13,3,15,6,12,9,5,11,1,10"
15466,commdev-image-keyboard-response,424,974718,learnblock1,null,img/planet3_right.png,3,Community 2,NA,FALSE,null,j,NA,NA,NA,4,6,"8,4,14,7,2,13,3,15,6,12,9,5,11,1,10"
15466,commdev-image-keyboard-response,425,975970,learnblock1,662.3999999910593,img/planet6_right.png,6,Community 2,NA,FALSE,f,j,NA,NA,NA,4,6,"8,4,14,7,2,13,3,15,6,12,9,5,11,1,10"
15466,commdev-image-keyboard-response,426,977237,learnblock1,null,img/planet12_right.png,12,Community 2,NA,FALSE,null,j,NA,NA,NA,4,6,"8,4,14,7,2,13,3,15,6,12,9,5,11,1,10"
15466,commdev-image-keyboard-response,427,978488,learnblock1,600,img/planet6_left.png,6,Community 2,NA,TRUE,f,f,NA,NA,NA,4,6,"8,4,14,7,2,13,3,15,6,12,9,5,11,1,10"
15466,commdev-image-keyboard-response,428,979739,learnblock1,1012,img/planet15_left.png,15,Community 2,NA,TRUE,f,f,NA,NA,NA,4,6,"8,4,14,7,2,13,3,15,6,12,9,5,11,1,10"
15466,commdev-image-keyboard-response,429,980991,learnblock1,null,img/planet12_right.png,12,Community 2,NA,FALSE,null,j,NA,NA,NA,4,6,"8,4,14,7,2,13,3,15,6,12,9,5,11,1,10"
15466,commdev-image-keyboard-response,430,982242,learnblock1,621.9000000059605,img/planet6_left.png,6,Community 2,NA,TRUE,f,f,NA,NA,NA,4,6,"8,4,14,7,2,13,3,15,6,12,9,5,11,1,10"
15466,commdev-image-keyboard-response,431,983494,learnblock1,null,img/planet12_right.png,12,Community 2,NA,FALSE,null,j,NA,NA,NA,4,6,"8,4,14,7,2,13,3,15,6,12,9,5,11,1,10"
15466,commdev-image-keyboard-response,432,984760,learnblock1,554.1000000089407,img/planet13_left.png,13,Community 2,NA,TRUE,f,f,NA,NA,NA,4,6,"8,4,14,7,2,13,3,15,6,12,9,5,11,1,10"
15466,commdev-image-keyboard-response,433,986011,learnblock1,null,img/planet3_left.png,3,Community 2,NA,FALSE,null,f,NA,NA,NA,4,6,"8,4,14,7,2,13,3,15,6,12,9,5,11,1,10"
15466,commdev-image-keyboard-response,434,987263,learnblock1,867.2999999970198,img/planet6_left.png,6,Community 2,NA,TRUE,f,f,NA,NA,NA,4,6,"8,4,14,7,2,13,3,15,6,12,9,5,11,1,10"
15466,commdev-image-keyboard-response,435,988515,learnblock1,null,img/planet15_right.png,15,Community 2,NA,FALSE,null,j,NA,NA,NA,4,6,"8,4,14,7,2,13,3,15,6,12,9,5,11,1,10"
15466,commdev-image-keyboard-response,436,989766,learnblock1,544.2000000029802,img/planet6_left.png,6,Community 2,NA,TRUE,f,f,NA,NA,NA,4,6,"8,4,14,7,2,13,3,15,6,12,9,5,11,1,10"
15466,commdev-image-keyboard-response,437,991018,learnblock1,null,img/planet13_right.png,13,Community 2,NA,FALSE,null,j,NA,NA,NA,4,6,"8,4,14,7,2,13,3,15,6,12,9,5,11,1,10"
15466,commdev-image-keyboard-response,438,992270,learnblock1,null,img/planet12_right.png,12,Community 2,NA,FALSE,null,j,NA,NA,NA,4,6,"8,4,14,7,2,13,3,15,6,12,9,5,11,1,10"
15466,commdev-image-keyboard-response,439,993522,learnblock1,512.4000000059605,img/planet6_left.png,6,Community 2,NA,TRUE,f,f,NA,NA,NA,4,6,"8,4,14,7,2,13,3,15,6,12,9,5,11,1,10"
15466,commdev-image-keyboard-response,440,994774,learnblock1,540,img/planet13_left.png,13,Community 2,NA,TRUE,f,f,NA,NA,NA,4,6,"8,4,14,7,2,13,3,15,6,12,9,5,11,1,10"
15466,commdev-image-keyboard-response,441,996027,learnblock1,null,img/planet6_right.png,6,Community 2,NA,FALSE,null,j,NA,NA,NA,4,6,"8,4,14,7,2,13,3,15,6,12,9,5,11,1,10"
15466,commdev-image-keyboard-response,442,997279,learnblock1,null,img/planet13_right.png,13,Community 2,NA,FALSE,null,j,NA,NA,NA,4,6,"8,4,14,7,2,13,3,15,6,12,9,5,11,1,10"
15466,commdev-image-keyboard-response,443,998530,learnblock1,482.8999999910593,img/planet12_right.png,12,Community 2,NA,FALSE,f,j,NA,NA,NA,4,6,"8,4,14,7,2,13,3,15,6,12,9,5,11,1,10"
15466,commdev-image-keyboard-response,444,999781,learnblock1,null,img/planet3_right.png,3,Community 2,NA,FALSE,null,j,NA,NA,NA,4,6,"8,4,14,7,2,13,3,15,6,12,9,5,11,1,10"
15466,commdev-image-keyboard-response,445,1001032,learnblock1,557.8000000119209,img/planet15_left.png,15,Community 2,NA,TRUE,f,f,NA,NA,NA,4,6,"8,4,14,7,2,13,3,15,6,12,9,5,11,1,10"
15466,commdev-image-keyboard-response,446,1002284,learnblock1,null,img/planet6_right.png,6,Community 2,NA,FALSE,null,j,NA,NA,NA,4,6,"8,4,14,7,2,13,3,15,6,12,9,5,11,1,10"
15466,commdev-image-keyboard-response,447,1003536,learnblock1,390,img/planet15_left.png,15,Community 2,NA,TRUE,f,f,NA,NA,NA,4,6,"8,4,14,7,2,13,3,15,6,12,9,5,11,1,10"
15466,commdev-image-keyboard-response,448,1004788,learnblock1,null,img/planet6_right.png,6,Community 2,NA,FALSE,null,j,NA,NA,NA,4,6,"8,4,14,7,2,13,3,15,6,12,9,5,11,1,10"
15466,commdev-image-keyboard-response,449,1006039,learnblock1,435.59999999403954,img/planet12_right.png,12,Community 2,NA,FALSE,f,j,NA,NA,NA,4,6,"8,4,14,7,2,13,3,15,6,12,9,5,11,1,10"
15466,commdev-image-keyboard-response,450,1007292,learnblock1,474.5,img/planet13_right.png,13,Community 2,NA,FALSE,f,j,NA,NA,NA,4,6,"8,4,14,7,2,13,3,15,6,12,9,5,11,1,10"
15466,commdev-image-keyboard-response,451,1008543,learnblock1,639.5,img/planet7_left.png,7,Community 1,NA,TRUE,f,f,NA,NA,NA,4,6,"8,4,14,7,2,13,3,15,6,12,9,5,11,1,10"
15466,commdev-image-keyboard-response,452,1009795,learnblock1,436.40000000596046,img/planet4_left.png,4,Community 1,NA,TRUE,f,f,NA,NA,NA,4,6,"8,4,14,7,2,13,3,15,6,12,9,5,11,1,10"
15466,commdev-image-keyboard-response,453,1011047,learnblock1,379.8999999910593,img/planet7_left.png,7,Community 1,NA,TRUE,f,f,NA,NA,NA,4,6,"8,4,14,7,2,13,3,15,6,12,9,5,11,1,10"
15466,commdev-image-keyboard-response,454,1012298,learnblock1,822.5999999940395,img/planet8_left.png,8,Community 1,NA,TRUE,f,f,NA,NA,NA,4,6,"8,4,14,7,2,13,3,15,6,12,9,5,11,1,10"
15466,commdev-image-keyboard-response,455,1013550,learnblock1,null,img/planet2_right.png,2,Community 1,NA,FALSE,null,j,NA,NA,NA,4,6,"8,4,14,7,2,13,3,15,6,12,9,5,11,1,10"
15466,commdev-image-keyboard-response,456,1014802,learnblock1,null,img/planet8_right.png,8,Community 1,NA,FALSE,null,j,NA,NA,NA,4,6,"8,4,14,7,2,13,3,15,6,12,9,5,11,1,10"
15466,commdev-image-keyboard-response,457,1016053,learnblock1,589.4000000059605,img/planet14_left.png,14,Community 1,NA,TRUE,f,f,NA,NA,NA,4,6,"8,4,14,7,2,13,3,15,6,12,9,5,11,1,10"
15466,commdev-image-keyboard-response,458,1017304,learnblock1,639,img/planet8_left.png,8,Community 1,NA,TRUE,f,f,NA,NA,NA,4,6,"8,4,14,7,2,13,3,15,6,12,9,5,11,1,10"
15466,commdev-image-keyboard-response,459,1018556,learnblock1,471.5,img/planet14_left.png,14,Community 1,NA,TRUE,f,f,NA,NA,NA,4,6,"8,4,14,7,2,13,3,15,6,12,9,5,11,1,10"
15466,commdev-image-keyboard-response,460,1019807,learnblock1,507.29999999701977,img/planet7_left.png,7,Community 1,NA,TRUE,f,f,NA,NA,NA,4,6,"8,4,14,7,2,13,3,15,6,12,9,5,11,1,10"
15466,commdev-image-keyboard-response,461,1021059,learnblock1,548.8000000119209,img/planet4_left.png,4,Community 1,NA,TRUE,f,f,NA,NA,NA,4,6,"8,4,14,7,2,13,3,15,6,12,9,5,11,1,10"
15466,commdev-image-keyboard-response,462,1022310,learnblock1,553.2999999970198,img/planet14_left.png,14,Community 1,NA,TRUE,f,f,NA,NA,NA,4,6,"8,4,14,7,2,13,3,15,6,12,9,5,11,1,10"
15466,commdev-image-keyboard-response,463,1023560,learnblock1,null,img/planet8_right.png,8,Community 1,NA,FALSE,null,j,NA,NA,NA,4,6,"8,4,14,7,2,13,3,15,6,12,9,5,11,1,10"
15466,commdev-image-keyboard-response,464,1024811,learnblock1,null,img/planet7_right.png,7,Community 1,NA,FALSE,null,j,NA,NA,NA,4,6,"8,4,14,7,2,13,3,15,6,12,9,5,11,1,10"
15466,commdev-image-keyboard-response,465,1026062,learnblock1,null,img/planet4_right.png,4,Community 1,NA,FALSE,null,j,NA,NA,NA,4,6,"8,4,14,7,2,13,3,15,6,12,9,5,11,1,10"
15466,commdev-image-keyboard-response,466,1027313,learnblock1,null,img/planet2_right.png,2,Community 1,NA,FALSE,null,j,NA,NA,NA,4,6,"8,4,14,7,2,13,3,15,6,12,9,5,11,1,10"
15466,commdev-image-keyboard-response,467,1028565,learnblock1,null,img/planet8_left.png,8,Community 1,NA,FALSE,null,f,NA,NA,NA,4,6,"8,4,14,7,2,13,3,15,6,12,9,5,11,1,10"
15466,commdev-image-keyboard-response,468,1029816,learnblock1,620.2000000029802,img/planet4_left.png,4,Community 1,NA,TRUE,f,f,NA,NA,NA,4,6,"8,4,14,7,2,13,3,15,6,12,9,5,11,1,10"
15466,commdev-image-keyboard-response,469,1031067,learnblock1,653.1000000089407,img/planet14_left.png,14,Community 1,NA,TRUE,f,f,NA,NA,NA,4,6,"8,4,14,7,2,13,3,15,6,12,9,5,11,1,10"
15466,commdev-image-keyboard-response,470,1032319,learnblock1,453,img/planet4_right.png,4,Community 1,NA,FALSE,f,j,NA,NA,NA,4,6,"8,4,14,7,2,13,3,15,6,12,9,5,11,1,10"
15466,commdev-image-keyboard-response,471,1033571,learnblock1,547.3999999910593,img/planet8_left.png,8,Community 1,NA,TRUE,f,f,NA,NA,NA,4,6,"8,4,14,7,2,13,3,15,6,12,9,5,11,1,10"
15466,commdev-image-keyboard-response,472,1034822,learnblock1,null,img/planet2_right.png,2,Community 1,NA,FALSE,null,j,NA,NA,NA,4,6,"8,4,14,7,2,13,3,15,6,12,9,5,11,1,10"
15466,commdev-image-keyboard-response,473,1036074,learnblock1,459,img/planet9_right.png,9,Community 3,NA,FALSE,f,j,NA,NA,NA,4,6,"8,4,14,7,2,13,3,15,6,12,9,5,11,1,10"
15466,commdev-image-keyboard-response,474,1037326,learnblock1,639.4000000059605,img/planet11_left.png,11,Community 3,NA,TRUE,f,f,NA,NA,NA,4,6,"8,4,14,7,2,13,3,15,6,12,9,5,11,1,10"
15466,commdev-image-keyboard-response,475,1038578,learnblock1,null,img/planet1_right.png,1,Community 3,NA,FALSE,null,j,NA,NA,NA,4,6,"8,4,14,7,2,13,3,15,6,12,9,5,11,1,10"
15466,commdev-image-keyboard-response,476,1039830,learnblock1,null,img/planet10_right.png,10,Community 3,NA,FALSE,null,j,NA,NA,NA,4,6,"8,4,14,7,2,13,3,15,6,12,9,5,11,1,10"
15466,commdev-image-keyboard-response,477,1041082,learnblock1,null,img/planet5_right.png,5,Community 3,NA,FALSE,null,j,NA,NA,NA,4,6,"8,4,14,7,2,13,3,15,6,12,9,5,11,1,10"
15466,commdev-image-keyboard-response,478,1042333,learnblock1,562.2000000029802,img/planet15_left.png,15,Community 2,NA,TRUE,f,f,NA,NA,NA,4,6,"8,4,14,7,2,13,3,15,6,12,9,5,11,1,10"
15466,commdev-image-keyboard-response,479,1043596,learnblock1,null,img/planet12_right.png,12,Community 2,NA,FALSE,null,j,NA,NA,NA,4,6,"8,4,14,7,2,13,3,15,6,12,9,5,11,1,10"
15466,commdev-image-keyboard-response,480,1044848,learnblock1,685,img/planet3_left.png,3,Community 2,NA,TRUE,f,f,NA,NA,NA,4,6,"8,4,14,7,2,13,3,15,6,12,9,5,11,1,10"
15466,commdev-image-keyboard-response,481,1046100,learnblock1,504.29999999701977,img/planet15_left.png,15,Community 2,NA,TRUE,f,f,NA,NA,NA,4,6,"8,4,14,7,2,13,3,15,6,12,9,5,11,1,10"
15466,commdev-image-keyboard-response,482,1047351,learnblock1,554.5,img/planet6_left.png,6,Community 2,NA,TRUE,f,f,NA,NA,NA,4,6,"8,4,14,7,2,13,3,15,6,12,9,5,11,1,10"
15466,commdev-image-keyboard-response,483,1048602,learnblock1,null,img/planet15_right.png,15,Community 2,NA,FALSE,null,j,NA,NA,NA,4,6,"8,4,14,7,2,13,3,15,6,12,9,5,11,1,10"
15466,commdev-image-keyboard-response,484,1049859,learnblock1,null,img/planet6_right.png,6,Community 2,NA,FALSE,null,j,NA,NA,NA,4,6,"8,4,14,7,2,13,3,15,6,12,9,5,11,1,10"
15466,commdev-image-keyboard-response,485,1051110,learnblock1,909.2000000029802,img/planet12_left.png,12,Community 2,NA,TRUE,f,f,NA,NA,NA,4,6,"8,4,14,7,2,13,3,15,6,12,9,5,11,1,10"
15466,commdev-image-keyboard-response,486,1052362,learnblock1,714.9000000059605,img/planet15_left.png,15,Community 2,NA,TRUE,f,f,NA,NA,NA,4,6,"8,4,14,7,2,13,3,15,6,12,9,5,11,1,10"
15466,commdev-image-keyboard-response,487,1053613,learnblock1,355.5,img/planet6_left.png,6,Community 2,NA,TRUE,f,f,NA,NA,NA,4,6,"8,4,14,7,2,13,3,15,6,12,9,5,11,1,10"
15466,commdev-image-keyboard-response,488,1054864,learnblock1,69.70000000298023,img/planet13_left.png,13,Community 2,NA,TRUE,f,f,NA,NA,NA,4,6,"8,4,14,7,2,13,3,15,6,12,9,5,11,1,10"
15466,commdev-image-keyboard-response,489,1056115,learnblock1,116,img/planet3_left.png,3,Community 2,NA,TRUE,f,f,NA,NA,NA,4,6,"8,4,14,7,2,13,3,15,6,12,9,5,11,1,10"
15466,commdev-image-keyboard-response,490,1057367,learnblock1,35.79999999701977,img/planet13_right.png,13,Community 2,NA,FALSE,f,j,NA,NA,NA,4,6,"8,4,14,7,2,13,3,15,6,12,9,5,11,1,10"
15466,commdev-image-keyboard-response,491,1058623,learnblock1,162.29999999701977,img/planet12_right.png,12,Community 2,NA,FALSE,f,j,NA,NA,NA,4,6,"8,4,14,7,2,13,3,15,6,12,9,5,11,1,10"
15466,commdev-image-keyboard-response,492,1059874,learnblock1,120.29999999701977,img/planet3_left.png,3,Community 2,NA,TRUE,f,f,NA,NA,NA,4,6,"8,4,14,7,2,13,3,15,6,12,9,5,11,1,10"
15466,commdev-image-keyboard-response,493,1061126,learnblock1,187.29999999701977,img/planet6_right.png,6,Community 2,NA,FALSE,f,j,NA,NA,NA,4,6,"8,4,14,7,2,13,3,15,6,12,9,5,11,1,10"
15466,commdev-image-keyboard-response,494,1062377,learnblock1,150.6000000089407,img/planet12_right.png,12,Community 2,NA,FALSE,f,j,NA,NA,NA,4,6,"8,4,14,7,2,13,3,15,6,12,9,5,11,1,10"
15466,commdev-image-keyboard-response,495,1063628,learnblock1,73.70000000298023,img/planet15_left.png,15,Community 2,NA,TRUE,f,f,NA,NA,NA,4,6,"8,4,14,7,2,13,3,15,6,12,9,5,11,1,10"
15466,commdev-image-keyboard-response,496,1064879,learnblock1,195.79999999701977,img/planet12_left.png,12,Community 2,NA,TRUE,f,f,NA,NA,NA,4,6,"8,4,14,7,2,13,3,15,6,12,9,5,11,1,10"
15466,commdev-image-keyboard-response,497,1066132,learnblock1,435.40000000596046,img/planet6_left.png,6,Community 2,NA,TRUE,f,f,NA,NA,NA,4,6,"8,4,14,7,2,13,3,15,6,12,9,5,11,1,10"
15466,commdev-image-keyboard-response,498,1067383,learnblock1,60.400000005960464,img/planet13_left.png,13,Community 2,NA,TRUE,f,f,NA,NA,NA,4,6,"8,4,14,7,2,13,3,15,6,12,9,5,11,1,10"
15466,commdev-image-keyboard-response,499,1068635,learnblock1,408.40000000596046,img/planet6_right.png,6,Community 2,NA,FALSE,f,j,NA,NA,NA,4,6,"8,4,14,7,2,13,3,15,6,12,9,5,11,1,10"
15466,commdev-image-keyboard-response,500,1069886,learnblock1,247.6000000089407,img/planet13_left.png,13,Community 2,NA,TRUE,f,f,NA,NA,NA,4,6,"8,4,14,7,2,13,3,15,6,12,9,5,11,1,10"
15466,commdev-image-keyboard-response,501,1071138,learnblock1,null,img/planet3_right.png,3,Community 2,NA,FALSE,null,j,NA,NA,NA,4,6,"8,4,14,7,2,13,3,15,6,12,9,5,11,1,10"
15466,commdev-image-keyboard-response,502,1072390,learnblock1,685.5,img/planet12_left.png,12,Community 2,NA,TRUE,f,f,NA,NA,NA,4,6,"8,4,14,7,2,13,3,15,6,12,9,5,11,1,10"
15466,commdev-image-keyboard-response,503,1073642,learnblock1,209.1000000089407,img/planet13_left.png,13,Community 2,NA,TRUE,f,f,NA,NA,NA,4,6,"8,4,14,7,2,13,3,15,6,12,9,5,11,1,10"
15466,commdev-image-keyboard-response,504,1074894,learnblock1,224.20000000298023,img/planet7_right.png,7,Community 1,NA,FALSE,f,j,NA,NA,NA,4,6,"8,4,14,7,2,13,3,15,6,12,9,5,11,1,10"
15466,commdev-image-keyboard-response,505,1076146,learnblock1,112.79999999701977,img/planet4_left.png,4,Community 1,NA,TRUE,f,f,NA,NA,NA,4,6,"8,4,14,7,2,13,3,15,6,12,9,5,11,1,10"
15466,commdev-image-keyboard-response,506,1077396,learnblock1,264.8999999910593,img/planet7_left.png,7,Community 1,NA,TRUE,f,f,NA,NA,NA,4,6,"8,4,14,7,2,13,3,15,6,12,9,5,11,1,10"
15466,commdev-image-keyboard-response,507,1078649,learnblock1,265.70000000298023,img/planet14_right.png,14,Community 1,NA,FALSE,f,j,NA,NA,NA,4,6,"8,4,14,7,2,13,3,15,6,12,9,5,11,1,10"
15466,commdev-image-keyboard-response,508,1079901,learnblock1,50.599999994039536,img/planet7_right.png,7,Community 1,NA,FALSE,f,j,NA,NA,NA,4,6,"8,4,14,7,2,13,3,15,6,12,9,5,11,1,10"
15466,commdev-image-keyboard-response,509,1081152,learnblock1,108.70000000298023,img/planet8_right.png,8,Community 1,NA,FALSE,f,j,NA,NA,NA,4,6,"8,4,14,7,2,13,3,15,6,12,9,5,11,1,10"
15466,commdev-image-keyboard-response,510,1082403,learnblock1,10.299999997019768,img/planet2_left.png,2,Community 1,NA,TRUE,f,f,NA,NA,NA,4,6,"8,4,14,7,2,13,3,15,6,12,9,5,11,1,10"
15466,commdev-image-keyboard-response,511,1083654,learnblock1,302.40000000596046,img/planet4_right.png,4,Community 1,NA,FALSE,f,j,NA,NA,NA,4,6,"8,4,14,7,2,13,3,15,6,12,9,5,11,1,10"
15466,commdev-image-keyboard-response,512,1084906,learnblock1,604.4000000059605,img/planet14_left.png,14,Community 1,NA,TRUE,f,f,NA,NA,NA,4,6,"8,4,14,7,2,13,3,15,6,12,9,5,11,1,10"
15466,commdev-image-keyboard-response,513,1086158,learnblock1,0.20000000298023224,img/planet4_right.png,4,Community 1,NA,FALSE,f,j,NA,NA,NA,4,6,"8,4,14,7,2,13,3,15,6,12,9,5,11,1,10"
15466,commdev-image-keyboard-response,514,1087410,learnblock1,197.09999999403954,img/planet7_right.png,7,Community 1,NA,FALSE,f,j,NA,NA,NA,4,6,"8,4,14,7,2,13,3,15,6,12,9,5,11,1,10"
15466,commdev-image-keyboard-response,515,1088661,learnblock1,109.20000000298023,img/planet8_left.png,8,Community 1,NA,TRUE,f,f,NA,NA,NA,4,6,"8,4,14,7,2,13,3,15,6,12,9,5,11,1,10"
15466,commdev-image-keyboard-response,516,1089912,learnblock1,140.8999999910593,img/planet2_right.png,2,Community 1,NA,FALSE,f,j,NA,NA,NA,4,6,"8,4,14,7,2,13,3,15,6,12,9,5,11,1,10"
15466,commdev-image-keyboard-response,517,1091164,learnblock1,215.40000000596046,img/planet9_right.png,9,Community 3,NA,FALSE,f,j,NA,NA,NA,4,6,"8,4,14,7,2,13,3,15,6,12,9,5,11,1,10"
15466,commdev-image-keyboard-response,518,1092415,learnblock1,67.90000000596046,img/planet10_right.png,10,Community 3,NA,FALSE,f,j,NA,NA,NA,4,6,"8,4,14,7,2,13,3,15,6,12,9,5,11,1,10"
15466,commdev-image-keyboard-response,522,1423297,learnblock2,null,img/planet10_left.png,10,Community 3,NA,FALSE,null,f,NA,NA,NA,4,6,"8,4,14,7,2,13,3,15,6,12,9,5,11,1,10"
15466,commdev-image-keyboard-response,523,1424548,learnblock2,791.5,img/planet9_left.png,9,Community 3,NA,TRUE,f,f,NA,NA,NA,4,6,"8,4,14,7,2,13,3,15,6,12,9,5,11,1,10"
15466,commdev-image-keyboard-response,524,1425801,learnblock2,553.5999999940395,img/planet1_left.png,1,Community 3,NA,TRUE,f,f,NA,NA,NA,4,6,"8,4,14,7,2,13,3,15,6,12,9,5,11,1,10"
15466,commdev-image-keyboard-response,525,1427053,learnblock2,529.4000000059605,img/planet10_left.png,10,Community 3,NA,TRUE,f,f,NA,NA,NA,4,6,"8,4,14,7,2,13,3,15,6,12,9,5,11,1,10"
15466,commdev-image-keyboard-response,526,1428305,learnblock2,482.20000000298023,img/planet5_left.png,5,Community 3,NA,TRUE,f,f,NA,NA,NA,4,6,"8,4,14,7,2,13,3,15,6,12,9,5,11,1,10"
15466,commdev-image-keyboard-response,527,1429558,learnblock2,null,img/planet15_right.png,15,Community 2,NA,FALSE,null,j,NA,NA,NA,4,6,"8,4,14,7,2,13,3,15,6,12,9,5,11,1,10"
15466,commdev-image-keyboard-response,528,1430810,learnblock2,null,img/planet5_right.png,5,Community 3,NA,FALSE,null,j,NA,NA,NA,4,6,"8,4,14,7,2,13,3,15,6,12,9,5,11,1,10"
15466,commdev-image-keyboard-response,529,1432062,learnblock2,460.5,img/planet15_left.png,15,Community 2,NA,TRUE,f,f,NA,NA,NA,4,6,"8,4,14,7,2,13,3,15,6,12,9,5,11,1,10"
15466,commdev-image-keyboard-response,530,1433313,learnblock2,null,img/planet6_right.png,6,Community 2,NA,FALSE,null,j,NA,NA,NA,4,6,"8,4,14,7,2,13,3,15,6,12,9,5,11,1,10"
15466,commdev-image-keyboard-response,531,1434564,learnblock2,797.6999999880791,img/planet12_left.png,12,Community 2,NA,TRUE,f,f,NA,NA,NA,4,6,"8,4,14,7,2,13,3,15,6,12,9,5,11,1,10"
15466,commdev-image-keyboard-response,532,1435816,learnblock2,null,img/planet15_right.png,15,Community 2,NA,FALSE,null,j,NA,NA,NA,4,6,"8,4,14,7,2,13,3,15,6,12,9,5,11,1,10"
15466,commdev-image-keyboard-response,533,1437068,learnblock2,500.90000000596046,img/planet6_left.png,6,Community 2,NA,TRUE,f,f,NA,NA,NA,4,6,"8,4,14,7,2,13,3,15,6,12,9,5,11,1,10"
15466,commdev-image-keyboard-response,534,1438319,learnblock2,null,img/planet3_right.png,3,Community 2,NA,FALSE,null,j,NA,NA,NA,4,6,"8,4,14,7,2,13,3,15,6,12,9,5,11,1,10"
15466,commdev-image-keyboard-response,535,1439571,learnblock2,null,img/planet12_right.png,12,Community 2,NA,FALSE,null,j,NA,NA,NA,4,6,"8,4,14,7,2,13,3,15,6,12,9,5,11,1,10"
15466,commdev-image-keyboard-response,536,1440823,learnblock2,570.5,img/planet3_left.png,3,Community 2,NA,TRUE,f,f,NA,NA,NA,4,6,"8,4,14,7,2,13,3,15,6,12,9,5,11,1,10"
15466,commdev-image-keyboard-response,537,1442080,learnblock2,null,img/planet13_right.png,13,Community 2,NA,FALSE,null,j,NA,NA,NA,4,6,"8,4,14,7,2,13,3,15,6,12,9,5,11,1,10"
15466,commdev-image-keyboard-response,538,1443331,learnblock2,null,img/planet12_right.png,12,Community 2,NA,FALSE,null,j,NA,NA,NA,4,6,"8,4,14,7,2,13,3,15,6,12,9,5,11,1,10"
15466,commdev-image-keyboard-response,539,1444585,learnblock2,517.2000000029802,img/planet13_right.png,13,Community 2,NA,FALSE,f,j,NA,NA,NA,4,6,"8,4,14,7,2,13,3,15,6,12,9,5,11,1,10"
15466,commdev-image-keyboard-response,540,1445837,learnblock2,897.5999999940395,img/planet12_left.png,12,Community 2,NA,TRUE,f,f,NA,NA,NA,4,6,"8,4,14,7,2,13,3,15,6,12,9,5,11,1,10"
15466,commdev-image-keyboard-response,541,1447089,learnblock2,766.7000000029802,img/planet15_left.png,15,Community 2,NA,TRUE,f,f,NA,NA,NA,4,6,"8,4,14,7,2,13,3,15,6,12,9,5,11,1,10"
15466,commdev-image-keyboard-response,542,1448341,learnblock2,null,img/planet3_right.png,3,Community 2,NA,FALSE,null,j,NA,NA,NA,4,6,"8,4,14,7,2,13,3,15,6,12,9,5,11,1,10"
15466,commdev-image-keyboard-response,543,1449593,learnblock2,null,img/planet13_right.png,13,Community 2,NA,FALSE,null,j,NA,NA,NA,4,6,"8,4,14,7,2,13,3,15,6,12,9,5,11,1,10"
15466,commdev-image-keyboard-response,544,1450844,learnblock2,631.8999999910593,img/planet3_left.png,3,Community 2,NA,TRUE,f,f,NA,NA,NA,4,6,"8,4,14,7,2,13,3,15,6,12,9,5,11,1,10"
15466,commdev-image-keyboard-response,545,1452097,learnblock2,null,img/planet13_right.png,13,Community 2,NA,FALSE,null,j,NA,NA,NA,4,6,"8,4,14,7,2,13,3,15,6,12,9,5,11,1,10"
15466,commdev-image-keyboard-response,546,1453349,learnblock2,598.3999999910593,img/planet12_right.png,12,Community 2,NA,FALSE,f,j,NA,NA,NA,4,6,"8,4,14,7,2,13,3,15,6,12,9,5,11,1,10"
15466,commdev-image-keyboard-response,547,1454601,learnblock2,null,img/planet6_right.png,6,Community 2,NA,FALSE,null,j,NA,NA,NA,4,6,"8,4,14,7,2,13,3,15,6,12,9,5,11,1,10"
15466,commdev-image-keyboard-response,548,1455853,learnblock2,472.5,img/planet15_left.png,15,Community 2,NA,TRUE,f,f,NA,NA,NA,4,6,"8,4,14,7,2,13,3,15,6,12,9,5,11,1,10"
15466,commdev-image-keyboard-response,549,1457105,learnblock2,557.2999999970198,img/planet3_left.png,3,Community 2,NA,TRUE,f,f,NA,NA,NA,4,6,"8,4,14,7,2,13,3,15,6,12,9,5,11,1,10"
15466,commdev-image-keyboard-response,550,1458357,learnblock2,null,img/planet13_right.png,13,Community 2,NA,FALSE,null,j,NA,NA,NA,4,6,"8,4,14,7,2,13,3,15,6,12,9,5,11,1,10"
15466,commdev-image-keyboard-response,551,1459609,learnblock2,null,img/planet12_right.png,12,Community 2,NA,FALSE,null,j,NA,NA,NA,4,6,"8,4,14,7,2,13,3,15,6,12,9,5,11,1,10"
15466,commdev-image-keyboard-response,552,1460861,learnblock2,867.5,img/planet3_left.png,3,Community 2,NA,TRUE,f,f,NA,NA,NA,4,6,"8,4,14,7,2,13,3,15,6,12,9,5,11,1,10"
15466,commdev-image-keyboard-response,553,1462112,learnblock2,null,img/planet6_right.png,6,Community 2,NA,FALSE,null,j,NA,NA,NA,4,6,"8,4,14,7,2,13,3,15,6,12,9,5,11,1,10"
15466,commdev-image-keyboard-response,554,1463365,learnblock2,null,img/planet12_right.png,12,Community 2,NA,FALSE,null,j,NA,NA,NA,4,6,"8,4,14,7,2,13,3,15,6,12,9,5,11,1,10"
15466,commdev-image-keyboard-response,555,1464616,learnblock2,584.6999999880791,img/planet6_left.png,6,Community 2,NA,TRUE,f,f,NA,NA,NA,4,6,"8,4,14,7,2,13,3,15,6,12,9,5,11,1,10"
15466,commdev-image-keyboard-response,556,1465867,learnblock2,null,img/planet13_right.png,13,Community 2,NA,FALSE,null,j,NA,NA,NA,4,6,"8,4,14,7,2,13,3,15,6,12,9,5,11,1,10"
15466,commdev-image-keyboard-response,557,1467118,learnblock2,null,img/planet3_right.png,3,Community 2,NA,FALSE,null,j,NA,NA,NA,4,6,"8,4,14,7,2,13,3,15,6,12,9,5,11,1,10"
15466,commdev-image-keyboard-response,558,1468370,learnblock2,497.19999998807907,img/planet12_left.png,12,Community 2,NA,TRUE,f,f,NA,NA,NA,4,6,"8,4,14,7,2,13,3,15,6,12,9,5,11,1,10"
15466,commdev-image-keyboard-response,559,1469622,learnblock2,500.59999999403954,img/planet13_left.png,13,Community 2,NA,TRUE,f,f,NA,NA,NA,4,6,"8,4,14,7,2,13,3,15,6,12,9,5,11,1,10"
15466,commdev-image-keyboard-response,560,1470875,learnblock2,535.9000000059605,img/planet7_left.png,7,Community 1,NA,TRUE,f,f,NA,NA,NA,4,6,"8,4,14,7,2,13,3,15,6,12,9,5,11,1,10"
15466,commdev-image-keyboard-response,561,1472128,learnblock2,null,img/planet13_right.png,13,Community 2,NA,FALSE,null,j,NA,NA,NA,4,6,"8,4,14,7,2,13,3,15,6,12,9,5,11,1,10"
15466,commdev-image-keyboard-response,562,1473380,learnblock2,678.9000000059605,img/planet7_left.png,7,Community 1,NA,TRUE,f,f,NA,NA,NA,4,6,"8,4,14,7,2,13,3,15,6,12,9,5,11,1,10"
15466,commdev-image-keyboard-response,563,1474632,learnblock2,619.5,img/planet13_left.png,13,Community 2,NA,TRUE,f,f,NA,NA,NA,4,6,"8,4,14,7,2,13,3,15,6,12,9,5,11,1,10"
15466,commdev-image-keyboard-response,564,1475884,learnblock2,591.5,img/planet3_left.png,3,Community 2,NA,TRUE,f,f,NA,NA,NA,4,6,"8,4,14,7,2,13,3,15,6,12,9,5,11,1,10"
15466,commdev-image-keyboard-response,565,1477136,learnblock2,null,img/planet13_right.png,13,Community 2,NA,FALSE,null,j,NA,NA,NA,4,6,"8,4,14,7,2,13,3,15,6,12,9,5,11,1,10"
15466,commdev-image-keyboard-response,566,1478387,learnblock2,null,img/planet7_right.png,7,Community 1,NA,FALSE,null,j,NA,NA,NA,4,6,"8,4,14,7,2,13,3,15,6,12,9,5,11,1,10"
15466,commdev-image-keyboard-response,567,1479639,learnblock2,null,img/planet13_right.png,13,Community 2,NA,FALSE,null,j,NA,NA,NA,4,6,"8,4,14,7,2,13,3,15,6,12,9,5,11,1,10"
15466,commdev-image-keyboard-response,568,1480892,learnblock2,null,img/planet3_right.png,3,Community 2,NA,FALSE,null,j,NA,NA,NA,4,6,"8,4,14,7,2,13,3,15,6,12,9,5,11,1,10"
15466,commdev-image-keyboard-response,569,1482144,learnblock2,485.70000000298023,img/planet6_left.png,6,Community 2,NA,TRUE,f,f,NA,NA,NA,4,6,"8,4,14,7,2,13,3,15,6,12,9,5,11,1,10"
15466,commdev-image-keyboard-response,570,1483396,learnblock2,null,img/planet3_right.png,3,Community 2,NA,FALSE,null,j,NA,NA,NA,4,6,"8,4,14,7,2,13,3,15,6,12,9,5,11,1,10"
15466,commdev-image-keyboard-response,571,1484648,learnblock2,613.7999999970198,img/planet15_left.png,15,Community 2,NA,TRUE,f,f,NA,NA,NA,4,6,"8,4,14,7,2,13,3,15,6,12,9,5,11,1,10"
15466,commdev-image-keyboard-response,572,1485901,learnblock2,null,img/planet12_right.png,12,Community 2,NA,FALSE,null,j,NA,NA,NA,4,6,"8,4,14,7,2,13,3,15,6,12,9,5,11,1,10"
15466,commdev-image-keyboard-response,573,1487152,learnblock2,null,img/planet13_right.png,13,Community 2,NA,FALSE,null,j,NA,NA,NA,4,6,"8,4,14,7,2,13,3,15,6,12,9,5,11,1,10"
15466,commdev-image-keyboard-response,574,1488405,learnblock2,505,img/planet6_left.png,6,Community 2,NA,TRUE,f,f,NA,NA,NA,4,6,"8,4,14,7,2,13,3,15,6,12,9,5,11,1,10"
15466,commdev-image-keyboard-response,575,1489657,learnblock2,null,img/planet3_right.png,3,Community 2,NA,FALSE,null,j,NA,NA,NA,4,6,"8,4,14,7,2,13,3,15,6,12,9,5,11,1,10"
15466,commdev-image-keyboard-response,576,1490908,learnblock2,544.7999999970198,img/planet15_left.png,15,Community 2,NA,TRUE,f,f,NA,NA,NA,4,6,"8,4,14,7,2,13,3,15,6,12,9,5,11,1,10"
15466,commdev-image-keyboard-response,577,1492159,learnblock2,null,img/planet12_right.png,12,Community 2,NA,FALSE,null,j,NA,NA,NA,4,6,"8,4,14,7,2,13,3,15,6,12,9,5,11,1,10"
15466,commdev-image-keyboard-response,578,1493411,learnblock2,null,img/planet6_right.png,6,Community 2,NA,FALSE,null,j,NA,NA,NA,4,6,"8,4,14,7,2,13,3,15,6,12,9,5,11,1,10"
15466,commdev-image-keyboard-response,579,1494662,learnblock2,null,img/planet3_right.png,3,Community 2,NA,FALSE,null,j,NA,NA,NA,4,6,"8,4,14,7,2,13,3,15,6,12,9,5,11,1,10"
15466,commdev-image-keyboard-response,580,1495915,learnblock2,null,img/planet12_right.png,12,Community 2,NA,FALSE,null,j,NA,NA,NA,4,6,"8,4,14,7,2,13,3,15,6,12,9,5,11,1,10"
15466,commdev-image-keyboard-response,581,1497166,learnblock2,557.1000000089407,img/planet15_left.png,15,Community 2,NA,TRUE,f,f,NA,NA,NA,4,6,"8,4,14,7,2,13,3,15,6,12,9,5,11,1,10"
15466,commdev-image-keyboard-response,582,1498419,learnblock2,493.5,img/planet5_left.png,5,Community 3,NA,TRUE,f,f,NA,NA,NA,4,6,"8,4,14,7,2,13,3,15,6,12,9,5,11,1,10"
15466,commdev-image-keyboard-response,583,1499670,learnblock2,415.6000000089407,img/planet1_left.png,1,Community 3,NA,TRUE,f,f,NA,NA,NA,4,6,"8,4,14,7,2,13,3,15,6,12,9,5,11,1,10"
15466,commdev-image-keyboard-response,584,1500922,learnblock2,null,img/planet5_right.png,5,Community 3,NA,FALSE,null,j,NA,NA,NA,4,6,"8,4,14,7,2,13,3,15,6,12,9,5,11,1,10"
15466,commdev-image-keyboard-response,585,1502173,learnblock2,null,img/planet11_right.png,11,Community 3,NA,FALSE,null,j,NA,NA,NA,4,6,"8,4,14,7,2,13,3,15,6,12,9,5,11,1,10"
15466,commdev-image-keyboard-response,586,1503426,learnblock2,603.3000000119209,img/planet1_left.png,1,Community 3,NA,TRUE,f,f,NA,NA,NA,4,6,"8,4,14,7,2,13,3,15,6,12,9,5,11,1,10"
15466,commdev-image-keyboard-response,587,1504678,learnblock2,649.7999999970198,img/planet5_right.png,5,Community 3,NA,FALSE,f,j,NA,NA,NA,4,6,"8,4,14,7,2,13,3,15,6,12,9,5,11,1,10"
15466,commdev-image-keyboard-response,588,1505930,learnblock2,912.7999999970198,img/planet15_left.png,15,Community 2,NA,TRUE,f,f,NA,NA,NA,4,6,"8,4,14,7,2,13,3,15,6,12,9,5,11,1,10"
15466,commdev-image-keyboard-response,589,1507182,learnblock2,585.2999999970198,img/planet12_left.png,12,Community 2,NA,TRUE,f,f,NA,NA,NA,4,6,"8,4,14,7,2,13,3,15,6,12,9,5,11,1,10"
15466,commdev-image-keyboard-response,590,1508433,learnblock2,535.6000000089407,img/planet15_left.png,15,Community 2,NA,TRUE,f,f,NA,NA,NA,4,6,"8,4,14,7,2,13,3,15,6,12,9,5,11,1,10"
15466,commdev-image-keyboard-response,591,1509685,learnblock2,null,img/planet12_right.png,12,Community 2,NA,FALSE,null,j,NA,NA,NA,4,6,"8,4,14,7,2,13,3,15,6,12,9,5,11,1,10"
15466,commdev-image-keyboard-response,592,1510948,learnblock2,null,img/planet6_right.png,6,Community 2,NA,FALSE,null,j,NA,NA,NA,4,6,"8,4,14,7,2,13,3,15,6,12,9,5,11,1,10"
15466,commdev-image-keyboard-response,593,1512201,learnblock2,null,img/planet3_right.png,3,Community 2,NA,FALSE,null,j,NA,NA,NA,4,6,"8,4,14,7,2,13,3,15,6,12,9,5,11,1,10"
15466,commdev-image-keyboard-response,594,1513453,learnblock2,null,img/planet13_right.png,13,Community 2,NA,FALSE,null,j,NA,NA,NA,4,6,"8,4,14,7,2,13,3,15,6,12,9,5,11,1,10"
15466,commdev-image-keyboard-response,595,1514704,learnblock2,640.7000000029802,img/planet7_left.png,7,Community 1,NA,TRUE,f,f,NA,NA,NA,4,6,"8,4,14,7,2,13,3,15,6,12,9,5,11,1,10"
15466,commdev-image-keyboard-response,596,1515956,learnblock2,588.4000000059605,img/planet14_left.png,14,Community 1,NA,TRUE,f,f,NA,NA,NA,4,6,"8,4,14,7,2,13,3,15,6,12,9,5,11,1,10"
15466,commdev-image-keyboard-response,597,1517207,learnblock2,null,img/planet8_right.png,8,Community 1,NA,FALSE,null,j,NA,NA,NA,4,6,"8,4,14,7,2,13,3,15,6,12,9,5,11,1,10"
15466,commdev-image-keyboard-response,598,1518460,learnblock2,657.6999999880791,img/planet7_left.png,7,Community 1,NA,TRUE,f,f,NA,NA,NA,4,6,"8,4,14,7,2,13,3,15,6,12,9,5,11,1,10"
15466,commdev-image-keyboard-response,599,1519712,learnblock2,null,img/planet4_right.png,4,Community 1,NA,FALSE,null,j,NA,NA,NA,4,6,"8,4,14,7,2,13,3,15,6,12,9,5,11,1,10"
15466,commdev-image-keyboard-response,600,1520964,learnblock2,null,img/planet7_right.png,7,Community 1,NA,FALSE,null,j,NA,NA,NA,4,6,"8,4,14,7,2,13,3,15,6,12,9,5,11,1,10"
15466,commdev-image-keyboard-response,601,1522215,learnblock2,null,img/planet8_right.png,8,Community 1,NA,FALSE,null,j,NA,NA,NA,4,6,"8,4,14,7,2,13,3,15,6,12,9,5,11,1,10"
15466,commdev-image-keyboard-response,602,1523467,learnblock2,541,img/planet7_right.png,7,Community 1,NA,FALSE,f,j,NA,NA,NA,4,6,"8,4,14,7,2,13,3,15,6,12,9,5,11,1,10"
15466,commdev-image-keyboard-response,603,1524719,learnblock2,null,img/planet4_right.png,4,Community 1,NA,FALSE,null,j,NA,NA,NA,4,6,"8,4,14,7,2,13,3,15,6,12,9,5,11,1,10"
15466,commdev-image-keyboard-response,604,1525970,learnblock2,null,img/planet14_right.png,14,Community 1,NA,FALSE,null,j,NA,NA,NA,4,6,"8,4,14,7,2,13,3,15,6,12,9,5,11,1,10"
15466,commdev-image-keyboard-response,605,1527221,learnblock2,null,img/planet4_right.png,4,Community 1,NA,FALSE,null,j,NA,NA,NA,4,6,"8,4,14,7,2,13,3,15,6,12,9,5,11,1,10"
15466,commdev-image-keyboard-response,606,1528474,learnblock2,null,img/planet7_right.png,7,Community 1,NA,FALSE,null,j,NA,NA,NA,4,6,"8,4,14,7,2,13,3,15,6,12,9,5,11,1,10"
15466,commdev-image-keyboard-response,607,1529725,learnblock2,null,img/planet13_right.png,13,Community 2,NA,FALSE,null,j,NA,NA,NA,4,6,"8,4,14,7,2,13,3,15,6,12,9,5,11,1,10"
15466,commdev-image-keyboard-response,608,1530977,learnblock2,null,img/planet3_right.png,3,Community 2,NA,FALSE,null,j,NA,NA,NA,4,6,"8,4,14,7,2,13,3,15,6,12,9,5,11,1,10"
15466,commdev-image-keyboard-response,609,1532228,learnblock2,null,img/planet6_right.png,6,Community 2,NA,FALSE,null,j,NA,NA,NA,4,6,"8,4,14,7,2,13,3,15,6,12,9,5,11,1,10"
15466,commdev-image-keyboard-response,610,1533480,learnblock2,485.29999999701977,img/planet15_left.png,15,Community 2,NA,TRUE,f,f,NA,NA,NA,4,6,"8,4,14,7,2,13,3,15,6,12,9,5,11,1,10"
15466,commdev-image-keyboard-response,611,1534731,learnblock2,746.5999999940395,img/planet3_right.png,3,Community 2,NA,FALSE,f,j,NA,NA,NA,4,6,"8,4,14,7,2,13,3,15,6,12,9,5,11,1,10"
15466,commdev-image-keyboard-response,612,1535983,learnblock2,null,img/planet15_right.png,15,Community 2,NA,FALSE,null,j,NA,NA,NA,4,6,"8,4,14,7,2,13,3,15,6,12,9,5,11,1,10"
15466,commdev-image-keyboard-response,613,1537234,learnblock2,null,img/planet12_right.png,12,Community 2,NA,FALSE,null,j,NA,NA,NA,4,6,"8,4,14,7,2,13,3,15,6,12,9,5,11,1,10"
15466,commdev-image-keyboard-response,614,1538487,learnblock2,null,img/planet3_right.png,3,Community 2,NA,FALSE,null,j,NA,NA,NA,4,6,"8,4,14,7,2,13,3,15,6,12,9,5,11,1,10"
15466,commdev-image-keyboard-response,615,1539738,learnblock2,null,img/planet6_right.png,6,Community 2,NA,FALSE,null,j,NA,NA,NA,4,6,"8,4,14,7,2,13,3,15,6,12,9,5,11,1,10"
15466,commdev-image-keyboard-response,616,1540991,learnblock2,null,img/planet13_right.png,13,Community 2,NA,FALSE,null,j,NA,NA,NA,4,6,"8,4,14,7,2,13,3,15,6,12,9,5,11,1,10"
15466,commdev-image-keyboard-response,617,1542242,learnblock2,null,img/planet6_right.png,6,Community 2,NA,FALSE,null,j,NA,NA,NA,4,6,"8,4,14,7,2,13,3,15,6,12,9,5,11,1,10"
15466,commdev-image-keyboard-response,618,1543508,learnblock2,null,img/planet13_right.png,13,Community 2,NA,FALSE,null,j,NA,NA,NA,4,6,"8,4,14,7,2,13,3,15,6,12,9,5,11,1,10"
15466,commdev-image-keyboard-response,619,1544758,learnblock2,717.6999999880791,img/planet7_left.png,7,Community 1,NA,TRUE,f,f,NA,NA,NA,4,6,"8,4,14,7,2,13,3,15,6,12,9,5,11,1,10"
15466,commdev-image-keyboard-response,620,1546009,learnblock2,null,img/planet8_right.png,8,Community 1,NA,FALSE,null,j,NA,NA,NA,4,6,"8,4,14,7,2,13,3,15,6,12,9,5,11,1,10"
15466,commdev-image-keyboard-response,621,1547261,learnblock2,747.0999999940395,img/planet2_left.png,2,Community 1,NA,TRUE,f,f,NA,NA,NA,4,6,"8,4,14,7,2,13,3,15,6,12,9,5,11,1,10"
15466,commdev-image-keyboard-response,622,1548513,learnblock2,null,img/planet4_right.png,4,Community 1,NA,FALSE,null,j,NA,NA,NA,4,6,"8,4,14,7,2,13,3,15,6,12,9,5,11,1,10"
15466,commdev-image-keyboard-response,623,1549764,learnblock2,null,img/planet14_right.png,14,Community 1,NA,FALSE,null,j,NA,NA,NA,4,6,"8,4,14,7,2,13,3,15,6,12,9,5,11,1,10"
15466,commdev-image-keyboard-response,624,1551016,learnblock2,null,img/planet7_left.png,7,Community 1,NA,FALSE,null,f,NA,NA,NA,4,6,"8,4,14,7,2,13,3,15,6,12,9,5,11,1,10"
15466,commdev-image-keyboard-response,625,1552270,learnblock2,810.9000000059605,img/planet14_left.png,14,Community 1,NA,TRUE,f,f,NA,NA,NA,4,6,"8,4,14,7,2,13,3,15,6,12,9,5,11,1,10"
15466,commdev-image-keyboard-response,626,1553522,learnblock2,643.3999999910593,img/planet2_left.png,2,Community 1,NA,TRUE,f,f,NA,NA,NA,4,6,"8,4,14,7,2,13,3,15,6,12,9,5,11,1,10"
15466,commdev-image-keyboard-response,627,1554773,learnblock2,611,img/planet8_left.png,8,Community 1,NA,TRUE,f,f,NA,NA,NA,4,6,"8,4,14,7,2,13,3,15,6,12,9,5,11,1,10"
15466,commdev-image-keyboard-response,628,1556025,learnblock2,542,img/planet7_left.png,7,Community 1,NA,TRUE,f,f,NA,NA,NA,4,6,"8,4,14,7,2,13,3,15,6,12,9,5,11,1,10"
15466,commdev-image-keyboard-response,629,1557276,learnblock2,null,img/planet13_right.png,13,Community 2,NA,FALSE,null,j,NA,NA,NA,4,6,"8,4,14,7,2,13,3,15,6,12,9,5,11,1,10"
15466,commdev-image-keyboard-response,630,1558528,learnblock2,null,img/planet7_right.png,7,Community 1,NA,FALSE,null,j,NA,NA,NA,4,6,"8,4,14,7,2,13,3,15,6,12,9,5,11,1,10"
15466,commdev-image-keyboard-response,631,1559779,learnblock2,null,img/planet4_right.png,4,Community 1,NA,FALSE,null,j,NA,NA,NA,4,6,"8,4,14,7,2,13,3,15,6,12,9,5,11,1,10"
15466,commdev-image-keyboard-response,632,1561031,learnblock2,611,img/planet2_left.png,2,Community 1,NA,TRUE,f,f,NA,NA,NA,4,6,"8,4,14,7,2,13,3,15,6,12,9,5,11,1,10"
15466,commdev-image-keyboard-response,633,1562286,learnblock2,567.7000000029802,img/planet8_left.png,8,Community 1,NA,TRUE,f,f,NA,NA,NA,4,6,"8,4,14,7,2,13,3,15,6,12,9,5,11,1,10"
15466,commdev-image-keyboard-response,634,1563537,learnblock2,null,img/planet4_right.png,4,Community 1,NA,FALSE,null,j,NA,NA,NA,4,6,"8,4,14,7,2,13,3,15,6,12,9,5,11,1,10"
15466,commdev-image-keyboard-response,635,1564789,learnblock2,null,img/planet14_right.png,14,Community 1,NA,FALSE,null,j,NA,NA,NA,4,6,"8,4,14,7,2,13,3,15,6,12,9,5,11,1,10"
15466,commdev-image-keyboard-response,636,1566040,learnblock2,null,img/planet8_right.png,8,Community 1,NA,FALSE,null,j,NA,NA,NA,4,6,"8,4,14,7,2,13,3,15,6,12,9,5,11,1,10"
15466,commdev-image-keyboard-response,637,1567291,learnblock2,1149,img/planet7_left.png,7,Community 1,NA,TRUE,f,f,NA,NA,NA,4,6,"8,4,14,7,2,13,3,15,6,12,9,5,11,1,10"
15466,commdev-image-keyboard-response,638,1568543,learnblock2,null,img/planet8_left.png,8,Community 1,NA,FALSE,null,f,NA,NA,NA,4,6,"8,4,14,7,2,13,3,15,6,12,9,5,11,1,10"
15466,commdev-image-keyboard-response,639,1569794,learnblock2,35.099999994039536,img/planet7_right.png,7,Community 1,NA,FALSE,f,j,NA,NA,NA,4,6,"8,4,14,7,2,13,3,15,6,12,9,5,11,1,10"
15466,commdev-image-keyboard-response,640,1571045,learnblock2,808.3999999910593,img/planet13_left.png,13,Community 2,NA,TRUE,f,f,NA,NA,NA,4,6,"8,4,14,7,2,13,3,15,6,12,9,5,11,1,10"
15466,commdev-image-keyboard-response,641,1572297,learnblock2,450.40000000596046,img/planet7_left.png,7,Community 1,NA,TRUE,f,f,NA,NA,NA,4,6,"8,4,14,7,2,13,3,15,6,12,9,5,11,1,10"
15466,commdev-image-keyboard-response,642,1573549,learnblock2,null,img/planet14_right.png,14,Community 1,NA,FALSE,null,j,NA,NA,NA,4,6,"8,4,14,7,2,13,3,15,6,12,9,5,11,1,10"
15466,commdev-image-keyboard-response,643,1574801,learnblock2,null,img/planet7_right.png,7,Community 1,NA,FALSE,null,j,NA,NA,NA,4,6,"8,4,14,7,2,13,3,15,6,12,9,5,11,1,10"
15466,commdev-image-keyboard-response,644,1576052,learnblock2,472,img/planet8_left.png,8,Community 1,NA,TRUE,f,f,NA,NA,NA,4,6,"8,4,14,7,2,13,3,15,6,12,9,5,11,1,10"
15466,commdev-image-keyboard-response,645,1577304,learnblock2,489.29999999701977,img/planet14_left.png,14,Community 1,NA,TRUE,f,f,NA,NA,NA,4,6,"8,4,14,7,2,13,3,15,6,12,9,5,11,1,10"
15466,commdev-image-keyboard-response,646,1578555,learnblock2,null,img/planet7_right.png,7,Community 1,NA,FALSE,null,j,NA,NA,NA,4,6,"8,4,14,7,2,13,3,15,6,12,9,5,11,1,10"
15466,commdev-image-keyboard-response,647,1579807,learnblock2,null,img/planet14_left.png,14,Community 1,NA,FALSE,null,f,NA,NA,NA,4,6,"8,4,14,7,2,13,3,15,6,12,9,5,11,1,10"
15466,commdev-image-keyboard-response,648,1581059,learnblock2,null,img/planet8_left.png,8,Community 1,NA,FALSE,null,f,NA,NA,NA,4,6,"8,4,14,7,2,13,3,15,6,12,9,5,11,1,10"
15466,commdev-image-keyboard-response,649,1582311,learnblock2,null,img/planet14_left.png,14,Community 1,NA,FALSE,null,f,NA,NA,NA,4,6,"8,4,14,7,2,13,3,15,6,12,9,5,11,1,10"
15466,commdev-image-keyboard-response,650,1583562,learnblock2,1038.5999999940395,img/planet2_left.png,2,Community 1,NA,TRUE,f,f,NA,NA,NA,4,6,"8,4,14,7,2,13,3,15,6,12,9,5,11,1,10"
15466,commdev-image-keyboard-response,651,1584814,learnblock2,484.5,img/planet8_left.png,8,Community 1,NA,TRUE,f,f,NA,NA,NA,4,6,"8,4,14,7,2,13,3,15,6,12,9,5,11,1,10"
15466,commdev-image-keyboard-response,652,1586065,learnblock2,552.9000000059605,img/planet4_left.png,4,Community 1,NA,TRUE,f,f,NA,NA,NA,4,6,"8,4,14,7,2,13,3,15,6,12,9,5,11,1,10"
15466,commdev-image-keyboard-response,653,1587316,learnblock2,null,img/planet7_right.png,7,Community 1,NA,FALSE,null,j,NA,NA,NA,4,6,"8,4,14,7,2,13,3,15,6,12,9,5,11,1,10"
15466,commdev-image-keyboard-response,654,1588567,learnblock2,null,img/planet13_right.png,13,Community 2,NA,FALSE,null,j,NA,NA,NA,4,6,"8,4,14,7,2,13,3,15,6,12,9,5,11,1,10"
15466,commdev-image-keyboard-response,655,1589819,learnblock2,null,img/planet3_right.png,3,Community 2,NA,FALSE,null,j,NA,NA,NA,4,6,"8,4,14,7,2,13,3,15,6,12,9,5,11,1,10"
15466,commdev-image-keyboard-response,656,1591070,learnblock2,null,img/planet13_right.png,13,Community 2,NA,FALSE,null,j,NA,NA,NA,4,6,"8,4,14,7,2,13,3,15,6,12,9,5,11,1,10"
15466,commdev-image-keyboard-response,657,1592323,learnblock2,655.7000000029802,img/planet3_left.png,3,Community 2,NA,TRUE,f,f,NA,NA,NA,4,6,"8,4,14,7,2,13,3,15,6,12,9,5,11,1,10"
15466,commdev-image-keyboard-response,658,1593574,learnblock2,null,img/planet12_right.png,12,Community 2,NA,FALSE,null,j,NA,NA,NA,4,6,"8,4,14,7,2,13,3,15,6,12,9,5,11,1,10"
15466,commdev-image-keyboard-response,659,1594826,learnblock2,502.8999999910593,img/planet6_left.png,6,Community 2,NA,TRUE,f,f,NA,NA,NA,4,6,"8,4,14,7,2,13,3,15,6,12,9,5,11,1,10"
15466,commdev-image-keyboard-response,660,1596077,learnblock2,null,img/planet3_right.png,3,Community 2,NA,FALSE,null,j,NA,NA,NA,4,6,"8,4,14,7,2,13,3,15,6,12,9,5,11,1,10"
15466,commdev-image-keyboard-response,661,1597329,learnblock2,null,img/planet13_right.png,13,Community 2,NA,FALSE,null,j,NA,NA,NA,4,6,"8,4,14,7,2,13,3,15,6,12,9,5,11,1,10"
15466,commdev-image-keyboard-response,662,1598580,learnblock2,null,img/planet7_right.png,7,Community 1,NA,FALSE,null,j,NA,NA,NA,4,6,"8,4,14,7,2,13,3,15,6,12,9,5,11,1,10"
15466,commdev-image-keyboard-response,663,1599832,learnblock2,677,img/planet14_left.png,14,Community 1,NA,TRUE,f,f,NA,NA,NA,4,6,"8,4,14,7,2,13,3,15,6,12,9,5,11,1,10"
15466,commdev-image-keyboard-response,664,1601084,learnblock2,560.8999999910593,img/planet4_left.png,4,Community 1,NA,TRUE,f,f,NA,NA,NA,4,6,"8,4,14,7,2,13,3,15,6,12,9,5,11,1,10"
15466,commdev-image-keyboard-response,665,1602335,learnblock2,825.6000000089407,img/planet7_right.png,7,Community 1,NA,FALSE,f,j,NA,NA,NA,4,6,"8,4,14,7,2,13,3,15,6,12,9,5,11,1,10"
15466,commdev-image-keyboard-response,666,1603588,learnblock2,null,img/planet4_right.png,4,Community 1,NA,FALSE,null,j,NA,NA,NA,4,6,"8,4,14,7,2,13,3,15,6,12,9,5,11,1,10"
15466,commdev-image-keyboard-response,667,1604839,learnblock2,496.30000001192093,img/planet8_left.png,8,Community 1,NA,TRUE,f,f,NA,NA,NA,4,6,"8,4,14,7,2,13,3,15,6,12,9,5,11,1,10"
15466,commdev-image-keyboard-response,668,1606091,learnblock2,528.5999999940395,img/planet2_left.png,2,Community 1,NA,TRUE,f,f,NA,NA,NA,4,6,"8,4,14,7,2,13,3,15,6,12,9,5,11,1,10"
15466,commdev-image-keyboard-response,669,1607342,learnblock2,null,img/planet4_right.png,4,Community 1,NA,FALSE,null,j,NA,NA,NA,4,6,"8,4,14,7,2,13,3,15,6,12,9,5,11,1,10"
15466,commdev-image-keyboard-response,670,1608593,learnblock2,761.0999999940395,img/planet14_left.png,14,Community 1,NA,TRUE,f,f,NA,NA,NA,4,6,"8,4,14,7,2,13,3,15,6,12,9,5,11,1,10"
15466,commdev-image-keyboard-response,671,1609845,learnblock2,null,img/planet8_right.png,8,Community 1,NA,FALSE,null,j,NA,NA,NA,4,6,"8,4,14,7,2,13,3,15,6,12,9,5,11,1,10"
15466,commdev-image-keyboard-response,672,1611097,learnblock2,null,img/planet7_right.png,7,Community 1,NA,FALSE,null,j,NA,NA,NA,4,6,"8,4,14,7,2,13,3,15,6,12,9,5,11,1,10"
15466,commdev-image-keyboard-response,673,1612359,learnblock2,null,img/planet14_right.png,14,Community 1,NA,FALSE,null,j,NA,NA,NA,4,6,"8,4,14,7,2,13,3,15,6,12,9,5,11,1,10"
15466,commdev-image-keyboard-response,674,1613611,learnblock2,null,img/planet4_right.png,4,Community 1,NA,FALSE,null,j,NA,NA,NA,4,6,"8,4,14,7,2,13,3,15,6,12,9,5,11,1,10"
15466,commdev-image-keyboard-response,675,1614863,learnblock2,486.1000000089407,img/planet14_left.png,14,Community 1,NA,TRUE,f,f,NA,NA,NA,4,6,"8,4,14,7,2,13,3,15,6,12,9,5,11,1,10"
15466,commdev-image-keyboard-response,676,1616115,learnblock2,450.8999999910593,img/planet2_left.png,2,Community 1,NA,TRUE,f,f,NA,NA,NA,4,6,"8,4,14,7,2,13,3,15,6,12,9,5,11,1,10"
15466,commdev-image-keyboard-response,677,1617366,learnblock2,830.2000000029802,img/planet9_left.png,9,Community 3,NA,TRUE,f,f,NA,NA,NA,4,6,"8,4,14,7,2,13,3,15,6,12,9,5,11,1,10"
15466,commdev-image-keyboard-response,678,1618619,learnblock2,602.5999999940395,img/planet2_left.png,2,Community 1,NA,TRUE,f,f,NA,NA,NA,4,6,"8,4,14,7,2,13,3,15,6,12,9,5,11,1,10"
15466,commdev-image-keyboard-response,679,1619870,learnblock2,490.59999999403954,img/planet14_left.png,14,Community 1,NA,TRUE,f,f,NA,NA,NA,4,6,"8,4,14,7,2,13,3,15,6,12,9,5,11,1,10"
15466,commdev-image-keyboard-response,680,1621122,learnblock2,532.3000000119209,img/planet2_left.png,2,Community 1,NA,TRUE,f,f,NA,NA,NA,4,6,"8,4,14,7,2,13,3,15,6,12,9,5,11,1,10"
15466,commdev-image-keyboard-response,681,1622373,learnblock2,null,img/planet9_right.png,9,Community 3,NA,FALSE,null,j,NA,NA,NA,4,6,"8,4,14,7,2,13,3,15,6,12,9,5,11,1,10"
15466,commdev-image-keyboard-response,682,1623626,learnblock2,null,img/planet1_right.png,1,Community 3,NA,FALSE,null,j,NA,NA,NA,4,6,"8,4,14,7,2,13,3,15,6,12,9,5,11,1,10"
15466,commdev-image-keyboard-response,683,1624877,learnblock2,null,img/planet5_right.png,5,Community 3,NA,FALSE,null,j,NA,NA,NA,4,6,"8,4,14,7,2,13,3,15,6,12,9,5,11,1,10"
15466,commdev-image-keyboard-response,684,1626129,learnblock2,null,img/planet10_right.png,10,Community 3,NA,FALSE,null,j,NA,NA,NA,4,6,"8,4,14,7,2,13,3,15,6,12,9,5,11,1,10"
15466,commdev-image-keyboard-response,685,1627380,learnblock2,null,img/planet5_right.png,5,Community 3,NA,FALSE,null,j,NA,NA,NA,4,6,"8,4,14,7,2,13,3,15,6,12,9,5,11,1,10"
15466,commdev-image-keyboard-response,686,1628632,learnblock2,null,img/planet10_right.png,10,Community 3,NA,FALSE,null,j,NA,NA,NA,4,6,"8,4,14,7,2,13,3,15,6,12,9,5,11,1,10"
15466,commdev-image-keyboard-response,687,1629884,learnblock2,null,img/planet9_left.png,9,Community 3,NA,FALSE,null,f,NA,NA,NA,4,6,"8,4,14,7,2,13,3,15,6,12,9,5,11,1,10"
15466,commdev-image-keyboard-response,688,1631135,learnblock2,669.9000000059605,img/planet1_left.png,1,Community 3,NA,TRUE,f,f,NA,NA,NA,4,6,"8,4,14,7,2,13,3,15,6,12,9,5,11,1,10"
15466,commdev-image-keyboard-response,689,1632387,learnblock2,null,img/planet9_right.png,9,Community 3,NA,FALSE,null,j,NA,NA,NA,4,6,"8,4,14,7,2,13,3,15,6,12,9,5,11,1,10"
15466,commdev-image-keyboard-response,690,1633639,learnblock2,575.9000000059605,img/planet10_left.png,10,Community 3,NA,TRUE,f,f,NA,NA,NA,4,6,"8,4,14,7,2,13,3,15,6,12,9,5,11,1,10"
15466,commdev-image-keyboard-response,691,1634890,learnblock2,null,img/planet11_right.png,11,Community 3,NA,FALSE,null,j,NA,NA,NA,4,6,"8,4,14,7,2,13,3,15,6,12,9,5,11,1,10"
15466,commdev-image-keyboard-response,692,1636141,learnblock2,null,img/planet9_right.png,9,Community 3,NA,FALSE,null,j,NA,NA,NA,4,6,"8,4,14,7,2,13,3,15,6,12,9,5,11,1,10"
15466,commdev-image-keyboard-response,693,1637393,learnblock2,609.2999999970198,img/planet1_left.png,1,Community 3,NA,TRUE,f,f,NA,NA,NA,4,6,"8,4,14,7,2,13,3,15,6,12,9,5,11,1,10"
15466,commdev-image-keyboard-response,694,1638644,learnblock2,644,img/planet5_left.png,5,Community 3,NA,TRUE,f,f,NA,NA,NA,4,6,"8,4,14,7,2,13,3,15,6,12,9,5,11,1,10"
15466,commdev-image-keyboard-response,695,1639896,learnblock2,null,img/planet15_right.png,15,Community 2,NA,FALSE,null,j,NA,NA,NA,4,6,"8,4,14,7,2,13,3,15,6,12,9,5,11,1,10"
15466,commdev-image-keyboard-response,696,1641148,learnblock2,null,img/planet6_right.png,6,Community 2,NA,FALSE,null,j,NA,NA,NA,4,6,"8,4,14,7,2,13,3,15,6,12,9,5,11,1,10"
15466,commdev-image-keyboard-response,697,1642400,learnblock2,531.5,img/planet15_left.png,15,Community 2,NA,TRUE,f,f,NA,NA,NA,4,6,"8,4,14,7,2,13,3,15,6,12,9,5,11,1,10"
15466,commdev-image-keyboard-response,698,1643652,learnblock2,564.0999999940395,img/planet6_left.png,6,Community 2,NA,TRUE,f,f,NA,NA,NA,4,6,"8,4,14,7,2,13,3,15,6,12,9,5,11,1,10"
15466,commdev-image-keyboard-response,699,1644903,learnblock2,598.4000000059605,img/planet13_left.png,13,Community 2,NA,TRUE,f,f,NA,NA,NA,4,6,"8,4,14,7,2,13,3,15,6,12,9,5,11,1,10"
15466,commdev-image-keyboard-response,700,1646155,learnblock2,null,img/planet3_right.png,3,Community 2,NA,FALSE,null,j,NA,NA,NA,4,6,"8,4,14,7,2,13,3,15,6,12,9,5,11,1,10"
15466,commdev-image-keyboard-response,701,1647407,learnblock2,null,img/planet15_right.png,15,Community 2,NA,FALSE,null,j,NA,NA,NA,4,6,"8,4,14,7,2,13,3,15,6,12,9,5,11,1,10"
15466,commdev-image-keyboard-response,702,1648669,learnblock2,652.8000000119209,img/planet6_left.png,6,Community 2,NA,TRUE,f,f,NA,NA,NA,4,6,"8,4,14,7,2,13,3,15,6,12,9,5,11,1,10"
15466,commdev-image-keyboard-response,703,1649921,learnblock2,329.79999999701977,img/planet15_left.png,15,Community 2,NA,TRUE,f,f,NA,NA,NA,4,6,"8,4,14,7,2,13,3,15,6,12,9,5,11,1,10"
15466,commdev-image-keyboard-response,704,1651179,learnblock2,497.09999999403954,img/planet5_left.png,5,Community 3,NA,TRUE,f,f,NA,NA,NA,4,6,"8,4,14,7,2,13,3,15,6,12,9,5,11,1,10"
15466,commdev-image-keyboard-response,705,1652430,learnblock2,null,img/planet11_right.png,11,Community 3,NA,FALSE,null,j,NA,NA,NA,4,6,"8,4,14,7,2,13,3,15,6,12,9,5,11,1,10"
15466,commdev-image-keyboard-response,706,1653685,learnblock2,null,img/planet5_right.png,5,Community 3,NA,FALSE,null,j,NA,NA,NA,4,6,"8,4,14,7,2,13,3,15,6,12,9,5,11,1,10"
15466,commdev-image-keyboard-response,707,1654936,learnblock2,485.70000000298023,img/planet10_left.png,10,Community 3,NA,TRUE,f,f,NA,NA,NA,4,6,"8,4,14,7,2,13,3,15,6,12,9,5,11,1,10"
15466,commdev-image-keyboard-response,708,1656188,learnblock2,635.2999999970198,img/planet9_left.png,9,Community 3,NA,TRUE,f,f,NA,NA,NA,4,6,"8,4,14,7,2,13,3,15,6,12,9,5,11,1,10"
15466,commdev-image-keyboard-response,709,1657440,learnblock2,null,img/planet10_right.png,10,Community 3,NA,FALSE,null,j,NA,NA,NA,4,6,"8,4,14,7,2,13,3,15,6,12,9,5,11,1,10"
15466,commdev-image-keyboard-response,710,1658692,learnblock2,null,img/planet9_right.png,9,Community 3,NA,FALSE,null,j,NA,NA,NA,4,6,"8,4,14,7,2,13,3,15,6,12,9,5,11,1,10"
15466,commdev-image-keyboard-response,711,1659944,learnblock2,614.0999999940395,img/planet11_left.png,11,Community 3,NA,TRUE,f,f,NA,NA,NA,4,6,"8,4,14,7,2,13,3,15,6,12,9,5,11,1,10"
15466,commdev-image-keyboard-response,712,1661195,learnblock2,478.29999999701977,img/planet9_left.png,9,Community 3,NA,TRUE,f,f,NA,NA,NA,4,6,"8,4,14,7,2,13,3,15,6,12,9,5,11,1,10"
15466,commdev-image-keyboard-response,713,1662448,learnblock2,577.5,img/planet1_left.png,1,Community 3,NA,TRUE,f,f,NA,NA,NA,4,6,"8,4,14,7,2,13,3,15,6,12,9,5,11,1,10"
15466,commdev-image-keyboard-response,714,1663699,learnblock2,427.70000000298023,img/planet10_left.png,10,Community 3,NA,TRUE,f,f,NA,NA,NA,4,6,"8,4,14,7,2,13,3,15,6,12,9,5,11,1,10"
15466,commdev-image-keyboard-response,715,1664951,learnblock2,458.29999999701977,img/planet11_left.png,11,Community 3,NA,TRUE,f,f,NA,NA,NA,4,6,"8,4,14,7,2,13,3,15,6,12,9,5,11,1,10"
15466,commdev-image-keyboard-response,716,1666203,learnblock2,490.40000000596046,img/planet5_left.png,5,Community 3,NA,TRUE,f,f,NA,NA,NA,4,6,"8,4,14,7,2,13,3,15,6,12,9,5,11,1,10"
15466,commdev-image-keyboard-response,717,1667454,learnblock2,445.70000000298023,img/planet15_left.png,15,Community 2,NA,TRUE,f,f,NA,NA,NA,4,6,"8,4,14,7,2,13,3,15,6,12,9,5,11,1,10"
15466,commdev-image-keyboard-response,718,1668706,learnblock2,516,img/planet3_left.png,3,Community 2,NA,TRUE,f,f,NA,NA,NA,4,6,"8,4,14,7,2,13,3,15,6,12,9,5,11,1,10"
15466,commdev-image-keyboard-response,719,1669957,learnblock2,476.79999999701977,img/planet13_left.png,13,Community 2,NA,TRUE,f,f,NA,NA,NA,4,6,"8,4,14,7,2,13,3,15,6,12,9,5,11,1,10"
15466,commdev-image-keyboard-response,720,1671209,learnblock2,null,img/planet7_right.png,7,Community 1,NA,FALSE,null,j,NA,NA,NA,4,6,"8,4,14,7,2,13,3,15,6,12,9,5,11,1,10"
15466,commdev-image-keyboard-response,721,1672461,learnblock2,null,img/planet14_right.png,14,Community 1,NA,FALSE,null,j,NA,NA,NA,4,6,"8,4,14,7,2,13,3,15,6,12,9,5,11,1,10"
15466,commdev-image-keyboard-response,722,1673714,learnblock2,null,img/planet8_right.png,8,Community 1,NA,FALSE,null,j,NA,NA,NA,4,6,"8,4,14,7,2,13,3,15,6,12,9,5,11,1,10"
15466,commdev-image-keyboard-response,723,1674965,learnblock2,null,img/planet7_right.png,7,Community 1,NA,FALSE,null,j,NA,NA,NA,4,6,"8,4,14,7,2,13,3,15,6,12,9,5,11,1,10"
15466,commdev-image-keyboard-response,724,1676217,learnblock2,563.9000000059605,img/planet8_left.png,8,Community 1,NA,TRUE,f,f,NA,NA,NA,4,6,"8,4,14,7,2,13,3,15,6,12,9,5,11,1,10"
15466,commdev-image-keyboard-response,725,1677469,learnblock2,null,img/planet7_right.png,7,Community 1,NA,FALSE,null,j,NA,NA,NA,4,6,"8,4,14,7,2,13,3,15,6,12,9,5,11,1,10"
15466,commdev-image-keyboard-response,726,1678720,learnblock2,430.70000000298023,img/planet8_left.png,8,Community 1,NA,TRUE,f,f,NA,NA,NA,4,6,"8,4,14,7,2,13,3,15,6,12,9,5,11,1,10"
15466,commdev-image-keyboard-response,727,1679972,learnblock2,540.1999999880791,img/planet14_left.png,14,Community 1,NA,TRUE,f,f,NA,NA,NA,4,6,"8,4,14,7,2,13,3,15,6,12,9,5,11,1,10"
15466,commdev-image-keyboard-response,728,1681225,learnblock2,427,img/planet7_right.png,7,Community 1,NA,FALSE,f,j,NA,NA,NA,4,6,"8,4,14,7,2,13,3,15,6,12,9,5,11,1,10"
15466,commdev-image-keyboard-response,729,1682476,learnblock2,482.8999999910593,img/planet8_right.png,8,Community 1,NA,FALSE,f,j,NA,NA,NA,4,6,"8,4,14,7,2,13,3,15,6,12,9,5,11,1,10"
15466,commdev-image-keyboard-response,730,1683743,learnblock2,662.2999999970198,img/planet4_left.png,4,Community 1,NA,TRUE,f,f,NA,NA,NA,4,6,"8,4,14,7,2,13,3,15,6,12,9,5,11,1,10"
15466,commdev-image-keyboard-response,731,1684995,learnblock2,null,img/planet7_right.png,7,Community 1,NA,FALSE,null,j,NA,NA,NA,4,6,"8,4,14,7,2,13,3,15,6,12,9,5,11,1,10"
15466,commdev-image-keyboard-response,732,1686246,learnblock2,522.7000000029802,img/planet13_left.png,13,Community 2,NA,TRUE,f,f,NA,NA,NA,4,6,"8,4,14,7,2,13,3,15,6,12,9,5,11,1,10"
15466,commdev-image-keyboard-response,733,1687497,learnblock2,870.2000000029802,img/planet3_right.png,3,Community 2,NA,FALSE,f,j,NA,NA,NA,4,6,"8,4,14,7,2,13,3,15,6,12,9,5,11,1,10"
15466,commdev-image-keyboard-response,734,1688750,learnblock2,476.3999999910593,img/planet13_left.png,13,Community 2,NA,TRUE,f,f,NA,NA,NA,4,6,"8,4,14,7,2,13,3,15,6,12,9,5,11,1,10"
15466,commdev-image-keyboard-response,735,1690002,learnblock2,null,img/planet7_left.png,7,Community 1,NA,FALSE,null,f,NA,NA,NA,4,6,"8,4,14,7,2,13,3,15,6,12,9,5,11,1,10"
15466,commdev-image-keyboard-response,736,1691254,learnblock2,1010,img/planet8_left.png,8,Community 1,NA,TRUE,f,f,NA,NA,NA,4,6,"8,4,14,7,2,13,3,15,6,12,9,5,11,1,10"
15466,commdev-image-keyboard-response,737,1692505,learnblock2,null,img/planet4_right.png,4,Community 1,NA,FALSE,null,j,NA,NA,NA,4,6,"8,4,14,7,2,13,3,15,6,12,9,5,11,1,10"
15466,commdev-image-keyboard-response,738,1693757,learnblock2,452.59999999403954,img/planet2_left.png,2,Community 1,NA,TRUE,f,f,NA,NA,NA,4,6,"8,4,14,7,2,13,3,15,6,12,9,5,11,1,10"
15466,commdev-image-keyboard-response,739,1695009,learnblock2,null,img/planet4_right.png,4,Community 1,NA,FALSE,null,j,NA,NA,NA,4,6,"8,4,14,7,2,13,3,15,6,12,9,5,11,1,10"
15466,commdev-image-keyboard-response,740,1696260,learnblock2,null,img/planet2_right.png,2,Community 1,NA,FALSE,null,j,NA,NA,NA,4,6,"8,4,14,7,2,13,3,15,6,12,9,5,11,1,10"
15466,commdev-image-keyboard-response,741,1697511,learnblock2,null,img/planet4_right.png,4,Community 1,NA,FALSE,null,j,NA,NA,NA,4,6,"8,4,14,7,2,13,3,15,6,12,9,5,11,1,10"
15466,commdev-image-keyboard-response,742,1698763,learnblock2,null,img/planet2_left.png,2,Community 1,NA,FALSE,null,f,NA,NA,NA,4,6,"8,4,14,7,2,13,3,15,6,12,9,5,11,1,10"
15466,commdev-image-keyboard-response,743,1700015,learnblock2,null,img/planet8_right.png,8,Community 1,NA,FALSE,null,j,NA,NA,NA,4,6,"8,4,14,7,2,13,3,15,6,12,9,5,11,1,10"
15466,commdev-image-keyboard-response,744,1701266,learnblock2,982.4000000059605,img/planet4_right.png,4,Community 1,NA,FALSE,f,j,NA,NA,NA,4,6,"8,4,14,7,2,13,3,15,6,12,9,5,11,1,10"
15466,commdev-image-keyboard-response,745,1702517,learnblock2,682.8999999910593,img/planet2_left.png,2,Community 1,NA,TRUE,f,f,NA,NA,NA,4,6,"8,4,14,7,2,13,3,15,6,12,9,5,11,1,10"
15466,commdev-image-keyboard-response,746,1703769,learnblock2,706.2999999970198,img/planet9_left.png,9,Community 3,NA,TRUE,f,f,NA,NA,NA,4,6,"8,4,14,7,2,13,3,15,6,12,9,5,11,1,10"
15466,commdev-image-keyboard-response,747,1705020,learnblock2,537.4000000059605,img/planet10_left.png,10,Community 3,NA,TRUE,f,f,NA,NA,NA,4,6,"8,4,14,7,2,13,3,15,6,12,9,5,11,1,10"
15466,commdev-image-keyboard-response,748,1706271,learnblock2,null,img/planet5_right.png,5,Community 3,NA,FALSE,null,j,NA,NA,NA,4,6,"8,4,14,7,2,13,3,15,6,12,9,5,11,1,10"
15466,commdev-image-keyboard-response,749,1707523,learnblock2,578.7000000029802,img/planet11_left.png,11,Community 3,NA,TRUE,f,f,NA,NA,NA,4,6,"8,4,14,7,2,13,3,15,6,12,9,5,11,1,10"
15466,commdev-image-keyboard-response,750,1708774,learnblock2,508.40000000596046,img/planet10_left.png,10,Community 3,NA,TRUE,f,f,NA,NA,NA,4,6,"8,4,14,7,2,13,3,15,6,12,9,5,11,1,10"
15466,commdev-image-keyboard-response,751,1710026,learnblock2,null,img/planet11_right.png,11,Community 3,NA,FALSE,null,j,NA,NA,NA,4,6,"8,4,14,7,2,13,3,15,6,12,9,5,11,1,10"
15466,commdev-image-keyboard-response,752,1711277,learnblock2,431.3999999910593,img/planet10_left.png,10,Community 3,NA,TRUE,f,f,NA,NA,NA,4,6,"8,4,14,7,2,13,3,15,6,12,9,5,11,1,10"
15466,commdev-image-keyboard-response,753,1712528,learnblock2,null,img/planet1_right.png,1,Community 3,NA,FALSE,null,j,NA,NA,NA,4,6,"8,4,14,7,2,13,3,15,6,12,9,5,11,1,10"
15466,commdev-image-keyboard-response,754,1713780,learnblock2,null,img/planet5_right.png,5,Community 3,NA,FALSE,null,j,NA,NA,NA,4,6,"8,4,14,7,2,13,3,15,6,12,9,5,11,1,10"
15466,commdev-image-keyboard-response,755,1715032,learnblock2,483,img/planet1_left.png,1,Community 3,NA,TRUE,f,f,NA,NA,NA,4,6,"8,4,14,7,2,13,3,15,6,12,9,5,11,1,10"
15466,commdev-image-keyboard-response,756,1716285,learnblock2,null,img/planet9_right.png,9,Community 3,NA,FALSE,null,j,NA,NA,NA,4,6,"8,4,14,7,2,13,3,15,6,12,9,5,11,1,10"
15466,commdev-image-keyboard-response,757,1717536,learnblock2,null,img/planet11_right.png,11,Community 3,NA,FALSE,null,j,NA,NA,NA,4,6,"8,4,14,7,2,13,3,15,6,12,9,5,11,1,10"
15466,commdev-image-keyboard-response,758,1718788,learnblock2,null,img/planet10_right.png,10,Community 3,NA,FALSE,null,j,NA,NA,NA,4,6,"8,4,14,7,2,13,3,15,6,12,9,5,11,1,10"
