subject_id,trial_type,trial_index,time_elapsed,block,rt,stimulus,planet,community,response,correct,key_press,learning_correct_response,parse,init_locations,final_locations,browser_interactions,num_comp,planet_map
14815,commdev-instructions,7,66809,NA,2205.2000000178814,"<p>In this game, you will be shown a 3x3 grid of patterns.</p> <p>The last one in the bottom right-hand corner, <strong>will be missing:</strong></p> <div style='width: 700px;'><div style='float: top;'><img style='width: 200px;' src='practice/p1_M1.png'></img><p class='small'>You need to select<strong> which of the four possible patterns </strong>along the bottom<strong> fits into the gap:</strong></p></div><div style='float: top;'><img style='width: 300px;' src='practice/p1_T1.png'></img></div><br>",NA,NA,NA,NA,NA,NA,NA,NA,NA,2,7,"7,1,9,10,8,3,4,6,11,14,12,5,15,2,13"
14815,commdev-instructions,8,88511,NA,1817.699999988079,"<p>Try to be as fast and as accurate as you can be.</p> <p>If you cannot solve the puzzle then you should guess - you will not be penalised for an incorrect answer.</p> <p>The task contains a shuffled mix of easy, medium and hard puzzles.</p> <p>You will have <strong>30 seconds</strong> to complete each puzzle.</p><br>",NA,NA,NA,NA,NA,NA,NA,NA,NA,2,7,"7,1,9,10,8,3,4,6,11,14,12,5,15,2,13"
14815,commdev-instructions,15,118143,NA,1959.800000011921,<p><strong>Success!</strong></p> <p>You seem to be getting the hang of this...</p> <p>Let's move on to the real trials.</p><br>,NA,NA,NA,NA,NA,NA,NA,NA,NA,2,7,"7,1,9,10,8,3,4,6,11,14,12,5,15,2,13"
14815,commdev-instructions,119,614075,NA,3666.300000011921,"<p>In this game, you are a scientist on board a space shuttle. </p><p> On each mission, you will visit planets all across the universe.</p><img src=""img/controlroom.jpg"" width=300vw>",NA,NA,NA,NA,NA,NA,NA,NA,NA,2,7,"7,1,9,10,8,3,4,6,11,14,12,5,15,2,13"
14815,commdev-instructions,120,632936,NA,16786.70000001788,"<p>Here are a few planets you might see:</p><img src=""img/practice1.png"" width=200vw><img src=""img/practice2.png"" width=200vw><img src=""img/practice3.png"" width=200vw>",NA,NA,NA,NA,NA,NA,NA,NA,NA,2,7,"7,1,9,10,8,3,4,6,11,14,12,5,15,2,13"
14815,commdev-instructions,121,641301,NA,961.4000000059605,"<p>Your job as a scientist is to record which direction the winds are moving on each planet.</p><p>There are two types of wind directions:</p><img src=""img/practice1_left.png"" width=200vw><img src=""img/practice1_right.png"" width=200vw>",NA,NA,NA,NA,NA,NA,NA,NA,NA,2,7,"7,1,9,10,8,3,4,6,11,14,12,5,15,2,13"
14815,commdev-instructions,122,648492,NA,2313.0999999940395,"<p>If the winds are moving this way, press the letter <strong>F</strong> on the keyboard as fast as you can.</p><img src=""img/leftwind.png"" width=250vw>",NA,NA,NA,NA,NA,NA,NA,NA,NA,2,7,"7,1,9,10,8,3,4,6,11,14,12,5,15,2,13"
14815,commdev-instructions,123,669921,NA,16912.09999999404,"<p>If the winds are moving this way, press the letter <strong>J</strong> on the keyboard as fast as you can.</p><img src=""img/rightwind.png"" width=350vw>",NA,NA,NA,NA,NA,NA,NA,NA,NA,2,7,"7,1,9,10,8,3,4,6,11,14,12,5,15,2,13"
14815,commdev-instructions,124,675251,NA,901.1000000238419,<p>You will have 1 second to respond. Try to respond before the time runs out!,NA,NA,NA,NA,NA,NA,NA,NA,NA,2,7,"7,1,9,10,8,3,4,6,11,14,12,5,15,2,13"
14815,commdev-instructions,125,682699,NA,2009.7999999821186,<p>The planets you will visit will look different from each other.</p><p>You should respond <strong>only</strong> based on wind direction.,NA,NA,NA,NA,NA,NA,NA,NA,NA,2,7,"7,1,9,10,8,3,4,6,11,14,12,5,15,2,13"
14815,commdev-instructions,126,689791,NA,1911.2000000178814,"<p> Ready to start the practice round? </p><p> Remember, press <strong>F</strong> or <strong>J</strong> depending on the wind direction.<br><img src=""img/categorize_planet_example.png""",NA,NA,NA,NA,NA,NA,NA,NA,NA,2,7,"7,1,9,10,8,3,4,6,11,14,12,5,15,2,13"
14815,commdev-instructions,138,751167,NA,1929.9000000059605,"<p>Great, now try a short practice mission. </p><p> This time, you will have 1 second to respond and you won't know whether you pressed the right or wrong key for each planet.</p>",NA,NA,NA,NA,NA,NA,NA,NA,NA,2,7,"7,1,9,10,8,3,4,6,11,14,12,5,15,2,13"
14815,commdev-image-keyboard-response,139,752546,practice,884.2000000178814,img/practice1_left.png,NA,Number not found in mappings,NA,FALSE,j,f,NA,NA,NA,2,7,"7,1,9,10,8,3,4,6,11,14,12,5,15,2,13"
14815,commdev-image-keyboard-response,140,753801,practice,null,img/practice4_right.png,NA,Number not found in mappings,NA,FALSE,null,j,NA,NA,NA,2,7,"7,1,9,10,8,3,4,6,11,14,12,5,15,2,13"
14815,commdev-image-keyboard-response,141,755066,practice,229.7000000178814,img/practice3_left.png,NA,Number not found in mappings,NA,TRUE,f,f,NA,NA,NA,2,7,"7,1,9,10,8,3,4,6,11,14,12,5,15,2,13"
14815,commdev-image-keyboard-response,142,756326,practice,945.0999999940395,img/practice1_left.png,NA,Number not found in mappings,NA,FALSE,j,f,NA,NA,NA,2,7,"7,1,9,10,8,3,4,6,11,14,12,5,15,2,13"
14815,commdev-image-keyboard-response,143,757596,practice,509.5,img/practice4_right.png,NA,Number not found in mappings,NA,FALSE,f,j,NA,NA,NA,2,7,"7,1,9,10,8,3,4,6,11,14,12,5,15,2,13"
14815,commdev-image-keyboard-response,144,758851,practice,335.2999999821186,img/practice1_left.png,NA,Number not found in mappings,NA,FALSE,j,f,NA,NA,NA,2,7,"7,1,9,10,8,3,4,6,11,14,12,5,15,2,13"
14815,commdev-image-keyboard-response,145,760104,practice,384,img/practice2_left.png,NA,Number not found in mappings,NA,TRUE,f,f,NA,NA,NA,2,7,"7,1,9,10,8,3,4,6,11,14,12,5,15,2,13"
14815,commdev-image-keyboard-response,146,761375,practice,377,img/practice4_right.png,NA,Number not found in mappings,NA,TRUE,j,j,NA,NA,NA,2,7,"7,1,9,10,8,3,4,6,11,14,12,5,15,2,13"
14815,commdev-instructions,147,773562,NA,2635,"<p>Great job with the practice round.</p><p>During real missions, you won't know whether you pressed the right or wrong key for each planet.</p><p>But between missions, we will tell you how you did overall.</p>",NA,NA,NA,NA,NA,NA,NA,NA,NA,2,7,"7,1,9,10,8,3,4,6,11,14,12,5,15,2,13"
14815,commdev-instructions,148,782815,NA,1008.0999999940395,<p>Try your best! You will be paid a bonus based on how many correct responses you make!</p><p>Responses that are too slow will not count toward your bonus.</p>,NA,NA,NA,NA,NA,NA,NA,NA,NA,2,7,"7,1,9,10,8,3,4,6,11,14,12,5,15,2,13"
14815,commdev-instructions,149,790183,NA,1166.5,"<p>You are almost ready to start the real game.</p><p> First, we are going to ask you some questions about how the game works.</p>",NA,NA,NA,NA,NA,NA,NA,NA,NA,2,7,"7,1,9,10,8,3,4,6,11,14,12,5,15,2,13"
14815,commdev-instructions,158,907458,NA,10019.299999982119,"<p> Nice work! It is now time to start the real game.<p></p>You will go on two missions to record wind directions of different planets.<p></p>Each one will take about 5 minutes. You will get to take a break between missions.<p><p> Remember, press <strong>F</strong> or <strong>J</strong> depending on the wind direction. Good luck!<br><img src=""img/categorize_planet_example.png""",NA,NA,NA,NA,NA,NA,NA,NA,NA,2,7,"7,1,9,10,8,3,4,6,11,14,12,5,15,2,13"
14815,commdev-image-keyboard-response,160,912208,learnblock1,null,img/planet11_left.png,11,Community 2,NA,FALSE,null,f,NA,NA,NA,2,7,"7,1,9,10,8,3,4,6,11,14,12,5,15,2,13"
14815,commdev-image-keyboard-response,161,913467,learnblock1,349.69999998807907,img/planet6_left.png,6,Community 2,NA,TRUE,f,f,NA,NA,NA,2,7,"7,1,9,10,8,3,4,6,11,14,12,5,15,2,13"
14815,commdev-image-keyboard-response,162,914728,learnblock1,1100.2999999821186,img/planet11_left.png,11,Community 2,NA,TRUE,f,f,NA,NA,NA,2,7,"7,1,9,10,8,3,4,6,11,14,12,5,15,2,13"
14815,commdev-image-keyboard-response,163,915986,learnblock1,null,img/planet14_right.png,14,Community 2,NA,FALSE,null,j,NA,NA,NA,2,7,"7,1,9,10,8,3,4,6,11,14,12,5,15,2,13"
14815,commdev-image-keyboard-response,164,917257,learnblock1,0.30000001192092896,img/planet11_right.png,11,Community 2,NA,TRUE,j,j,NA,NA,NA,2,7,"7,1,9,10,8,3,4,6,11,14,12,5,15,2,13"
14815,commdev-image-keyboard-response,165,918521,learnblock1,null,img/planet6_left.png,6,Community 2,NA,FALSE,null,f,NA,NA,NA,2,7,"7,1,9,10,8,3,4,6,11,14,12,5,15,2,13"
14815,commdev-image-keyboard-response,166,919787,learnblock1,1205,img/planet14_right.png,14,Community 2,NA,TRUE,j,j,NA,NA,NA,2,7,"7,1,9,10,8,3,4,6,11,14,12,5,15,2,13"
14815,commdev-image-keyboard-response,167,921047,learnblock1,null,img/planet6_left.png,6,Community 2,NA,FALSE,null,f,NA,NA,NA,2,7,"7,1,9,10,8,3,4,6,11,14,12,5,15,2,13"
14815,commdev-image-keyboard-response,168,922307,learnblock1,null,img/planet14_left.png,14,Community 2,NA,FALSE,null,f,NA,NA,NA,2,7,"7,1,9,10,8,3,4,6,11,14,12,5,15,2,13"
14815,commdev-image-keyboard-response,169,923568,learnblock1,76.60000002384186,img/planet3_left.png,3,Community 2,NA,FALSE,j,f,NA,NA,NA,2,7,"7,1,9,10,8,3,4,6,11,14,12,5,15,2,13"
14815,commdev-image-keyboard-response,170,924834,learnblock1,1148.800000011921,img/planet4_right.png,4,Community 2,NA,TRUE,j,j,NA,NA,NA,2,7,"7,1,9,10,8,3,4,6,11,14,12,5,15,2,13"
14815,commdev-image-keyboard-response,171,926097,learnblock1,null,img/planet3_right.png,3,Community 2,NA,FALSE,null,j,NA,NA,NA,2,7,"7,1,9,10,8,3,4,6,11,14,12,5,15,2,13"
14815,commdev-image-keyboard-response,172,927349,learnblock1,1100.5,img/planet4_right.png,4,Community 2,NA,TRUE,j,j,NA,NA,NA,2,7,"7,1,9,10,8,3,4,6,11,14,12,5,15,2,13"
14815,commdev-image-keyboard-response,173,928606,learnblock1,null,img/planet3_left.png,3,Community 2,NA,FALSE,null,f,NA,NA,NA,2,7,"7,1,9,10,8,3,4,6,11,14,12,5,15,2,13"
14815,commdev-image-keyboard-response,174,929868,learnblock1,null,img/planet14_right.png,14,Community 2,NA,FALSE,null,j,NA,NA,NA,2,7,"7,1,9,10,8,3,4,6,11,14,12,5,15,2,13"
14815,commdev-image-keyboard-response,175,931128,learnblock1,125,img/planet11_left.png,11,Community 2,NA,FALSE,j,f,NA,NA,NA,2,7,"7,1,9,10,8,3,4,6,11,14,12,5,15,2,13"
14815,commdev-image-keyboard-response,176,932385,learnblock1,0.29999998211860657,img/planet14_left.png,14,Community 2,NA,TRUE,f,f,NA,NA,NA,2,7,"7,1,9,10,8,3,4,6,11,14,12,5,15,2,13"
14815,commdev-image-keyboard-response,177,933646,learnblock1,89.40000000596046,img/planet3_left.png,3,Community 2,NA,TRUE,f,f,NA,NA,NA,2,7,"7,1,9,10,8,3,4,6,11,14,12,5,15,2,13"
14815,commdev-image-keyboard-response,178,934903,learnblock1,79.69999998807907,img/planet11_left.png,11,Community 2,NA,TRUE,f,f,NA,NA,NA,2,7,"7,1,9,10,8,3,4,6,11,14,12,5,15,2,13"
14815,commdev-image-keyboard-response,179,936156,learnblock1,104.69999998807907,img/planet14_left.png,14,Community 2,NA,TRUE,f,f,NA,NA,NA,2,7,"7,1,9,10,8,3,4,6,11,14,12,5,15,2,13"
14815,commdev-image-keyboard-response,180,937414,learnblock1,1031.7999999821186,img/planet4_left.png,4,Community 2,NA,TRUE,f,f,NA,NA,NA,2,7,"7,1,9,10,8,3,4,6,11,14,12,5,15,2,13"
14815,commdev-image-keyboard-response,181,938674,learnblock1,1088.4000000059605,img/planet14_right.png,14,Community 2,NA,TRUE,j,j,NA,NA,NA,2,7,"7,1,9,10,8,3,4,6,11,14,12,5,15,2,13"
14815,commdev-image-keyboard-response,182,939926,learnblock1,1056.699999988079,img/planet3_left.png,3,Community 2,NA,TRUE,f,f,NA,NA,NA,2,7,"7,1,9,10,8,3,4,6,11,14,12,5,15,2,13"
14815,commdev-image-keyboard-response,183,941182,learnblock1,1220.300000011921,img/planet11_left.png,11,Community 2,NA,TRUE,f,f,NA,NA,NA,2,7,"7,1,9,10,8,3,4,6,11,14,12,5,15,2,13"
14815,commdev-image-keyboard-response,184,942438,learnblock1,null,img/planet3_right.png,3,Community 2,NA,FALSE,null,j,NA,NA,NA,2,7,"7,1,9,10,8,3,4,6,11,14,12,5,15,2,13"
14815,commdev-image-keyboard-response,185,943699,learnblock1,63.30000001192093,img/planet11_right.png,11,Community 2,NA,TRUE,j,j,NA,NA,NA,2,7,"7,1,9,10,8,3,4,6,11,14,12,5,15,2,13"
14815,commdev-image-keyboard-response,186,944962,learnblock1,null,img/planet3_left.png,3,Community 2,NA,FALSE,null,f,NA,NA,NA,2,7,"7,1,9,10,8,3,4,6,11,14,12,5,15,2,13"
14815,commdev-image-keyboard-response,187,946216,learnblock1,1095.2999999821186,img/planet10_left.png,10,Community 1,NA,FALSE,j,f,NA,NA,NA,2,7,"7,1,9,10,8,3,4,6,11,14,12,5,15,2,13"
14815,commdev-image-keyboard-response,188,947476,learnblock1,null,img/planet7_right.png,7,Community 1,NA,FALSE,null,j,NA,NA,NA,2,7,"7,1,9,10,8,3,4,6,11,14,12,5,15,2,13"
14815,commdev-image-keyboard-response,189,948730,learnblock1,null,img/planet9_left.png,9,Community 1,NA,FALSE,null,f,NA,NA,NA,2,7,"7,1,9,10,8,3,4,6,11,14,12,5,15,2,13"
14815,commdev-image-keyboard-response,190,949985,learnblock1,9.599999994039536,img/planet10_right.png,10,Community 1,NA,TRUE,j,j,NA,NA,NA,2,7,"7,1,9,10,8,3,4,6,11,14,12,5,15,2,13"
14815,commdev-image-keyboard-response,191,951246,learnblock1,null,img/planet9_left.png,9,Community 1,NA,FALSE,null,f,NA,NA,NA,2,7,"7,1,9,10,8,3,4,6,11,14,12,5,15,2,13"
14815,commdev-image-keyboard-response,192,952499,learnblock1,242.69999998807907,img/planet1_right.png,1,Community 1,NA,FALSE,f,j,NA,NA,NA,2,7,"7,1,9,10,8,3,4,6,11,14,12,5,15,2,13"
14815,commdev-image-keyboard-response,193,953755,learnblock1,1126.300000011921,img/planet10_left.png,10,Community 1,NA,TRUE,f,f,NA,NA,NA,2,7,"7,1,9,10,8,3,4,6,11,14,12,5,15,2,13"
14815,commdev-image-keyboard-response,194,955011,learnblock1,null,img/planet1_left.png,1,Community 1,NA,FALSE,null,f,NA,NA,NA,2,7,"7,1,9,10,8,3,4,6,11,14,12,5,15,2,13"
14815,commdev-image-keyboard-response,195,956267,learnblock1,103.40000000596046,img/planet8_right.png,8,Community 1,NA,FALSE,f,j,NA,NA,NA,2,7,"7,1,9,10,8,3,4,6,11,14,12,5,15,2,13"
14815,commdev-image-keyboard-response,196,957526,learnblock1,null,img/planet12_right.png,12,Community 3,NA,FALSE,null,j,NA,NA,NA,2,7,"7,1,9,10,8,3,4,6,11,14,12,5,15,2,13"
14815,commdev-image-keyboard-response,197,958787,learnblock1,337.90000000596046,img/planet15_left.png,15,Community 3,NA,TRUE,f,f,NA,NA,NA,2,7,"7,1,9,10,8,3,4,6,11,14,12,5,15,2,13"
14815,commdev-image-keyboard-response,198,960040,learnblock1,44.69999998807907,img/planet2_right.png,2,Community 3,NA,TRUE,j,j,NA,NA,NA,2,7,"7,1,9,10,8,3,4,6,11,14,12,5,15,2,13"
14815,commdev-image-keyboard-response,199,961294,learnblock1,388.40000000596046,img/planet15_left.png,15,Community 3,NA,TRUE,f,f,NA,NA,NA,2,7,"7,1,9,10,8,3,4,6,11,14,12,5,15,2,13"
14815,commdev-image-keyboard-response,200,962557,learnblock1,null,img/planet12_left.png,12,Community 3,NA,FALSE,null,f,NA,NA,NA,2,7,"7,1,9,10,8,3,4,6,11,14,12,5,15,2,13"
14815,commdev-image-keyboard-response,201,963809,learnblock1,348.40000000596046,img/planet8_right.png,8,Community 1,NA,FALSE,f,j,NA,NA,NA,2,7,"7,1,9,10,8,3,4,6,11,14,12,5,15,2,13"
14815,commdev-image-keyboard-response,202,965068,learnblock1,1149.5999999940395,img/planet7_left.png,7,Community 1,NA,TRUE,f,f,NA,NA,NA,2,7,"7,1,9,10,8,3,4,6,11,14,12,5,15,2,13"
14815,commdev-image-keyboard-response,203,966328,learnblock1,966.5,img/planet10_right.png,10,Community 1,NA,TRUE,j,j,NA,NA,NA,2,7,"7,1,9,10,8,3,4,6,11,14,12,5,15,2,13"
14815,commdev-image-keyboard-response,204,967587,learnblock1,1157.800000011921,img/planet9_right.png,9,Community 1,NA,TRUE,j,j,NA,NA,NA,2,7,"7,1,9,10,8,3,4,6,11,14,12,5,15,2,13"
14815,commdev-image-keyboard-response,205,968843,learnblock1,null,img/planet8_left.png,8,Community 1,NA,FALSE,null,f,NA,NA,NA,2,7,"7,1,9,10,8,3,4,6,11,14,12,5,15,2,13"
14815,commdev-image-keyboard-response,206,970098,learnblock1,163.30000001192093,img/planet7_right.png,7,Community 1,NA,FALSE,f,j,NA,NA,NA,2,7,"7,1,9,10,8,3,4,6,11,14,12,5,15,2,13"
14815,commdev-image-keyboard-response,207,971353,learnblock1,1191.2000000178814,img/planet8_left.png,8,Community 1,NA,TRUE,f,f,NA,NA,NA,2,7,"7,1,9,10,8,3,4,6,11,14,12,5,15,2,13"
14815,commdev-image-keyboard-response,208,972612,learnblock1,1170,img/planet9_right.png,9,Community 1,NA,TRUE,j,j,NA,NA,NA,2,7,"7,1,9,10,8,3,4,6,11,14,12,5,15,2,13"
14815,commdev-image-keyboard-response,209,973869,learnblock1,978.6999999880791,img/planet1_left.png,1,Community 1,NA,TRUE,f,f,NA,NA,NA,2,7,"7,1,9,10,8,3,4,6,11,14,12,5,15,2,13"
14815,commdev-image-keyboard-response,210,975125,learnblock1,956.5,img/planet10_left.png,10,Community 1,NA,TRUE,f,f,NA,NA,NA,2,7,"7,1,9,10,8,3,4,6,11,14,12,5,15,2,13"
14815,commdev-image-keyboard-response,211,976387,learnblock1,1072.5999999940395,img/planet9_right.png,9,Community 1,NA,TRUE,j,j,NA,NA,NA,2,7,"7,1,9,10,8,3,4,6,11,14,12,5,15,2,13"
14815,commdev-image-keyboard-response,212,977641,learnblock1,934.8000000119209,img/planet10_left.png,10,Community 1,NA,TRUE,f,f,NA,NA,NA,2,7,"7,1,9,10,8,3,4,6,11,14,12,5,15,2,13"
14815,commdev-image-keyboard-response,213,978896,learnblock1,null,img/planet7_left.png,7,Community 1,NA,FALSE,null,f,NA,NA,NA,2,7,"7,1,9,10,8,3,4,6,11,14,12,5,15,2,13"
14815,commdev-image-keyboard-response,214,980158,learnblock1,127.5,img/planet10_left.png,10,Community 1,NA,TRUE,f,f,NA,NA,NA,2,7,"7,1,9,10,8,3,4,6,11,14,12,5,15,2,13"
14815,commdev-image-keyboard-response,215,981419,learnblock1,1065.199999988079,img/planet9_left.png,9,Community 1,NA,TRUE,f,f,NA,NA,NA,2,7,"7,1,9,10,8,3,4,6,11,14,12,5,15,2,13"
14815,commdev-image-keyboard-response,216,982683,learnblock1,800.5,img/planet1_right.png,1,Community 1,NA,TRUE,j,j,NA,NA,NA,2,7,"7,1,9,10,8,3,4,6,11,14,12,5,15,2,13"
14815,commdev-image-keyboard-response,217,983944,learnblock1,154,img/planet7_left.png,7,Community 1,NA,FALSE,j,f,NA,NA,NA,2,7,"7,1,9,10,8,3,4,6,11,14,12,5,15,2,13"
14815,commdev-image-keyboard-response,218,985205,learnblock1,1033.5,img/planet8_right.png,8,Community 1,NA,TRUE,j,j,NA,NA,NA,2,7,"7,1,9,10,8,3,4,6,11,14,12,5,15,2,13"
14815,commdev-image-keyboard-response,219,986463,learnblock1,1025.8999999761581,img/planet1_left.png,1,Community 1,NA,TRUE,f,f,NA,NA,NA,2,7,"7,1,9,10,8,3,4,6,11,14,12,5,15,2,13"
14815,commdev-image-keyboard-response,220,987725,learnblock1,959.2999999821186,img/planet7_right.png,7,Community 1,NA,TRUE,j,j,NA,NA,NA,2,7,"7,1,9,10,8,3,4,6,11,14,12,5,15,2,13"
14815,commdev-image-keyboard-response,221,988981,learnblock1,818.1000000238419,img/planet10_left.png,10,Community 1,NA,TRUE,f,f,NA,NA,NA,2,7,"7,1,9,10,8,3,4,6,11,14,12,5,15,2,13"
14815,commdev-image-keyboard-response,222,990243,learnblock1,null,img/planet7_left.png,7,Community 1,NA,FALSE,null,f,NA,NA,NA,2,7,"7,1,9,10,8,3,4,6,11,14,12,5,15,2,13"
14815,commdev-image-keyboard-response,223,991500,learnblock1,172.89999997615814,img/planet10_right.png,10,Community 1,NA,FALSE,f,j,NA,NA,NA,2,7,"7,1,9,10,8,3,4,6,11,14,12,5,15,2,13"
14815,commdev-image-keyboard-response,224,992755,learnblock1,168.40000000596046,img/planet7_right.png,7,Community 1,NA,TRUE,j,j,NA,NA,NA,2,7,"7,1,9,10,8,3,4,6,11,14,12,5,15,2,13"
14815,commdev-image-keyboard-response,225,994009,learnblock1,0.800000011920929,img/planet1_left.png,1,Community 1,NA,TRUE,f,f,NA,NA,NA,2,7,"7,1,9,10,8,3,4,6,11,14,12,5,15,2,13"
14815,commdev-image-keyboard-response,226,995267,learnblock1,36.79999998211861,img/planet10_left.png,10,Community 1,NA,TRUE,f,f,NA,NA,NA,2,7,"7,1,9,10,8,3,4,6,11,14,12,5,15,2,13"
14815,commdev-image-keyboard-response,227,996521,learnblock1,null,img/planet7_right.png,7,Community 1,NA,FALSE,null,j,NA,NA,NA,2,7,"7,1,9,10,8,3,4,6,11,14,12,5,15,2,13"
14815,commdev-image-keyboard-response,228,997776,learnblock1,52,img/planet10_left.png,10,Community 1,NA,TRUE,f,f,NA,NA,NA,2,7,"7,1,9,10,8,3,4,6,11,14,12,5,15,2,13"
14815,commdev-image-keyboard-response,229,999037,learnblock1,954,img/planet1_right.png,1,Community 1,NA,TRUE,j,j,NA,NA,NA,2,7,"7,1,9,10,8,3,4,6,11,14,12,5,15,2,13"
14815,commdev-image-keyboard-response,230,1000291,learnblock1,1204.699999988079,img/planet8_left.png,8,Community 1,NA,TRUE,f,f,NA,NA,NA,2,7,"7,1,9,10,8,3,4,6,11,14,12,5,15,2,13"
14815,commdev-image-keyboard-response,231,1001545,learnblock1,1138.0999999940395,img/planet9_right.png,9,Community 1,NA,TRUE,j,j,NA,NA,NA,2,7,"7,1,9,10,8,3,4,6,11,14,12,5,15,2,13"
14815,commdev-image-keyboard-response,232,1002800,learnblock1,null,img/planet8_right.png,8,Community 1,NA,FALSE,null,j,NA,NA,NA,2,7,"7,1,9,10,8,3,4,6,11,14,12,5,15,2,13"
14815,commdev-image-keyboard-response,233,1004059,learnblock1,26.299999982118607,img/planet7_left.png,7,Community 1,NA,TRUE,f,f,NA,NA,NA,2,7,"7,1,9,10,8,3,4,6,11,14,12,5,15,2,13"
14815,commdev-image-keyboard-response,234,1005321,learnblock1,null,img/planet8_left.png,8,Community 1,NA,FALSE,null,f,NA,NA,NA,2,7,"7,1,9,10,8,3,4,6,11,14,12,5,15,2,13"
14815,commdev-image-keyboard-response,235,1006581,learnblock1,0.5999999940395355,img/planet9_left.png,9,Community 1,NA,TRUE,f,f,NA,NA,NA,2,7,"7,1,9,10,8,3,4,6,11,14,12,5,15,2,13"
14815,commdev-image-keyboard-response,236,1007838,learnblock1,47.19999998807907,img/planet1_left.png,1,Community 1,NA,TRUE,f,f,NA,NA,NA,2,7,"7,1,9,10,8,3,4,6,11,14,12,5,15,2,13"
14815,commdev-image-keyboard-response,237,1009090,learnblock1,10.900000005960464,img/planet7_left.png,7,Community 1,NA,TRUE,f,f,NA,NA,NA,2,7,"7,1,9,10,8,3,4,6,11,14,12,5,15,2,13"
14815,commdev-image-keyboard-response,238,1010343,learnblock1,1091.699999988079,img/planet8_right.png,8,Community 1,NA,TRUE,j,j,NA,NA,NA,2,7,"7,1,9,10,8,3,4,6,11,14,12,5,15,2,13"
14815,commdev-image-keyboard-response,239,1011604,learnblock1,null,img/planet7_left.png,7,Community 1,NA,FALSE,null,f,NA,NA,NA,2,7,"7,1,9,10,8,3,4,6,11,14,12,5,15,2,13"
14815,commdev-image-keyboard-response,240,1012866,learnblock1,215.90000000596046,img/planet10_left.png,10,Community 1,NA,FALSE,j,f,NA,NA,NA,2,7,"7,1,9,10,8,3,4,6,11,14,12,5,15,2,13"
14815,commdev-image-keyboard-response,241,1014119,learnblock1,292.40000000596046,img/planet9_right.png,9,Community 1,NA,TRUE,j,j,NA,NA,NA,2,7,"7,1,9,10,8,3,4,6,11,14,12,5,15,2,13"
14815,commdev-image-keyboard-response,242,1015371,learnblock1,136.09999999403954,img/planet8_left.png,8,Community 1,NA,TRUE,f,f,NA,NA,NA,2,7,"7,1,9,10,8,3,4,6,11,14,12,5,15,2,13"
14815,commdev-image-keyboard-response,243,1016625,learnblock1,1137.6000000238419,img/planet12_left.png,12,Community 3,NA,FALSE,j,f,NA,NA,NA,2,7,"7,1,9,10,8,3,4,6,11,14,12,5,15,2,13"
14815,commdev-image-keyboard-response,244,1017878,learnblock1,null,img/planet2_left.png,2,Community 3,NA,FALSE,null,f,NA,NA,NA,2,7,"7,1,9,10,8,3,4,6,11,14,12,5,15,2,13"
14815,commdev-image-keyboard-response,245,1019141,learnblock1,0.800000011920929,img/planet12_right.png,12,Community 3,NA,FALSE,f,j,NA,NA,NA,2,7,"7,1,9,10,8,3,4,6,11,14,12,5,15,2,13"
14815,commdev-image-keyboard-response,246,1020407,learnblock1,69.09999999403954,img/planet15_left.png,15,Community 3,NA,TRUE,f,f,NA,NA,NA,2,7,"7,1,9,10,8,3,4,6,11,14,12,5,15,2,13"
14815,commdev-image-keyboard-response,247,1021667,learnblock1,216.2999999821186,img/planet13_left.png,13,Community 3,NA,TRUE,f,f,NA,NA,NA,2,7,"7,1,9,10,8,3,4,6,11,14,12,5,15,2,13"
14815,commdev-image-keyboard-response,248,1022921,learnblock1,85.5,img/planet5_left.png,5,Community 3,NA,FALSE,j,f,NA,NA,NA,2,7,"7,1,9,10,8,3,4,6,11,14,12,5,15,2,13"
14815,commdev-image-keyboard-response,249,1024176,learnblock1,152,img/planet2_left.png,2,Community 3,NA,TRUE,f,f,NA,NA,NA,2,7,"7,1,9,10,8,3,4,6,11,14,12,5,15,2,13"
14815,commdev-image-keyboard-response,250,1025436,learnblock1,42.400000005960464,img/planet13_right.png,13,Community 3,NA,TRUE,j,j,NA,NA,NA,2,7,"7,1,9,10,8,3,4,6,11,14,12,5,15,2,13"
14815,commdev-image-keyboard-response,251,1026693,learnblock1,null,img/planet15_left.png,15,Community 3,NA,FALSE,null,f,NA,NA,NA,2,7,"7,1,9,10,8,3,4,6,11,14,12,5,15,2,13"
14815,commdev-image-keyboard-response,252,1027954,learnblock1,384.80000001192093,img/planet13_left.png,13,Community 3,NA,TRUE,f,f,NA,NA,NA,2,7,"7,1,9,10,8,3,4,6,11,14,12,5,15,2,13"
14815,commdev-image-keyboard-response,253,1029209,learnblock1,342,img/planet5_left.png,5,Community 3,NA,FALSE,j,f,NA,NA,NA,2,7,"7,1,9,10,8,3,4,6,11,14,12,5,15,2,13"
14815,commdev-image-keyboard-response,254,1030464,learnblock1,328.5,img/planet2_left.png,2,Community 3,NA,TRUE,f,f,NA,NA,NA,2,7,"7,1,9,10,8,3,4,6,11,14,12,5,15,2,13"
14815,commdev-image-keyboard-response,255,1031724,learnblock1,215.09999999403954,img/planet5_left.png,5,Community 3,NA,TRUE,f,f,NA,NA,NA,2,7,"7,1,9,10,8,3,4,6,11,14,12,5,15,2,13"
14815,commdev-image-keyboard-response,256,1032979,learnblock1,null,img/planet2_right.png,2,Community 3,NA,FALSE,null,j,NA,NA,NA,2,7,"7,1,9,10,8,3,4,6,11,14,12,5,15,2,13"
14815,commdev-image-keyboard-response,257,1034234,learnblock1,0.800000011920929,img/planet5_left.png,5,Community 3,NA,TRUE,f,f,NA,NA,NA,2,7,"7,1,9,10,8,3,4,6,11,14,12,5,15,2,13"
14815,commdev-image-keyboard-response,258,1035492,learnblock1,29.5,img/planet6_left.png,6,Community 2,NA,TRUE,f,f,NA,NA,NA,2,7,"7,1,9,10,8,3,4,6,11,14,12,5,15,2,13"
14815,commdev-image-keyboard-response,259,1036750,learnblock1,163.19999998807907,img/planet11_right.png,11,Community 2,NA,TRUE,j,j,NA,NA,NA,2,7,"7,1,9,10,8,3,4,6,11,14,12,5,15,2,13"
14815,commdev-image-keyboard-response,260,1038006,learnblock1,1118.7999999821186,img/planet3_right.png,3,Community 2,NA,FALSE,f,j,NA,NA,NA,2,7,"7,1,9,10,8,3,4,6,11,14,12,5,15,2,13"
14815,commdev-image-keyboard-response,261,1039260,learnblock1,714.5,img/planet4_right.png,4,Community 2,NA,TRUE,j,j,NA,NA,NA,2,7,"7,1,9,10,8,3,4,6,11,14,12,5,15,2,13"
14815,commdev-image-keyboard-response,262,1040519,learnblock1,null,img/planet14_right.png,14,Community 2,NA,FALSE,null,j,NA,NA,NA,2,7,"7,1,9,10,8,3,4,6,11,14,12,5,15,2,13"
14815,commdev-image-keyboard-response,263,1041776,learnblock1,252.30000001192093,img/planet6_right.png,6,Community 2,NA,TRUE,j,j,NA,NA,NA,2,7,"7,1,9,10,8,3,4,6,11,14,12,5,15,2,13"
14815,commdev-image-keyboard-response,264,1043038,learnblock1,47.30000001192093,img/planet11_right.png,11,Community 2,NA,TRUE,j,j,NA,NA,NA,2,7,"7,1,9,10,8,3,4,6,11,14,12,5,15,2,13"
14815,commdev-image-keyboard-response,265,1044299,learnblock1,27.30000001192093,img/planet6_right.png,6,Community 2,NA,FALSE,f,j,NA,NA,NA,2,7,"7,1,9,10,8,3,4,6,11,14,12,5,15,2,13"
14815,commdev-image-keyboard-response,266,1045558,learnblock1,null,img/planet5_right.png,5,Community 3,NA,FALSE,null,j,NA,NA,NA,2,7,"7,1,9,10,8,3,4,6,11,14,12,5,15,2,13"
14815,commdev-image-keyboard-response,267,1046822,learnblock1,137.5,img/planet13_left.png,13,Community 3,NA,FALSE,j,f,NA,NA,NA,2,7,"7,1,9,10,8,3,4,6,11,14,12,5,15,2,13"
14815,commdev-image-keyboard-response,268,1048081,learnblock1,9.400000005960464,img/planet5_right.png,5,Community 3,NA,FALSE,f,j,NA,NA,NA,2,7,"7,1,9,10,8,3,4,6,11,14,12,5,15,2,13"
14815,commdev-image-keyboard-response,269,1049338,learnblock1,115.5,img/planet6_left.png,6,Community 2,NA,FALSE,j,f,NA,NA,NA,2,7,"7,1,9,10,8,3,4,6,11,14,12,5,15,2,13"
14815,commdev-image-keyboard-response,270,1050594,learnblock1,73.09999999403954,img/planet5_right.png,5,Community 3,NA,FALSE,f,j,NA,NA,NA,2,7,"7,1,9,10,8,3,4,6,11,14,12,5,15,2,13"
14815,commdev-image-keyboard-response,271,1051854,learnblock1,1218.5,img/planet15_left.png,15,Community 3,NA,TRUE,f,f,NA,NA,NA,2,7,"7,1,9,10,8,3,4,6,11,14,12,5,15,2,13"
14815,commdev-image-keyboard-response,272,1053114,learnblock1,1198.5,img/planet13_right.png,13,Community 3,NA,TRUE,j,j,NA,NA,NA,2,7,"7,1,9,10,8,3,4,6,11,14,12,5,15,2,13"
14815,commdev-image-keyboard-response,273,1054372,learnblock1,null,img/planet2_left.png,2,Community 3,NA,FALSE,null,f,NA,NA,NA,2,7,"7,1,9,10,8,3,4,6,11,14,12,5,15,2,13"
14815,commdev-image-keyboard-response,274,1055628,learnblock1,9.799999982118607,img/planet5_left.png,5,Community 3,NA,TRUE,f,f,NA,NA,NA,2,7,"7,1,9,10,8,3,4,6,11,14,12,5,15,2,13"
14815,commdev-image-keyboard-response,275,1056890,learnblock1,169,img/planet2_right.png,2,Community 3,NA,FALSE,f,j,NA,NA,NA,2,7,"7,1,9,10,8,3,4,6,11,14,12,5,15,2,13"
14815,commdev-image-keyboard-response,276,1058146,learnblock1,1140.5999999940395,img/planet12_left.png,12,Community 3,NA,TRUE,f,f,NA,NA,NA,2,7,"7,1,9,10,8,3,4,6,11,14,12,5,15,2,13"
14815,commdev-image-keyboard-response,277,1059408,learnblock1,1078.9000000059605,img/planet2_right.png,2,Community 3,NA,TRUE,j,j,NA,NA,NA,2,7,"7,1,9,10,8,3,4,6,11,14,12,5,15,2,13"
14815,commdev-image-keyboard-response,278,1060660,learnblock1,1215.9000000059605,img/planet15_left.png,15,Community 3,NA,TRUE,f,f,NA,NA,NA,2,7,"7,1,9,10,8,3,4,6,11,14,12,5,15,2,13"
14815,commdev-image-keyboard-response,279,1061918,learnblock1,null,img/planet12_left.png,12,Community 3,NA,FALSE,null,f,NA,NA,NA,2,7,"7,1,9,10,8,3,4,6,11,14,12,5,15,2,13"
14815,commdev-image-keyboard-response,280,1063176,learnblock1,262,img/planet13_right.png,13,Community 3,NA,TRUE,j,j,NA,NA,NA,2,7,"7,1,9,10,8,3,4,6,11,14,12,5,15,2,13"
14815,commdev-image-keyboard-response,281,1064436,learnblock1,null,img/planet15_right.png,15,Community 3,NA,FALSE,null,j,NA,NA,NA,2,7,"7,1,9,10,8,3,4,6,11,14,12,5,15,2,13"
14815,commdev-image-keyboard-response,282,1065689,learnblock1,193.09999999403954,img/planet12_left.png,12,Community 3,NA,FALSE,j,f,NA,NA,NA,2,7,"7,1,9,10,8,3,4,6,11,14,12,5,15,2,13"
14815,commdev-image-keyboard-response,283,1066946,learnblock1,907,img/planet8_left.png,8,Community 1,NA,FALSE,j,f,NA,NA,NA,2,7,"7,1,9,10,8,3,4,6,11,14,12,5,15,2,13"
14815,commdev-image-keyboard-response,284,1068204,learnblock1,1034.5999999940395,img/planet9_right.png,9,Community 1,NA,TRUE,j,j,NA,NA,NA,2,7,"7,1,9,10,8,3,4,6,11,14,12,5,15,2,13"
14815,commdev-image-keyboard-response,285,1069465,learnblock1,1021.1999999880791,img/planet10_left.png,10,Community 1,NA,TRUE,f,f,NA,NA,NA,2,7,"7,1,9,10,8,3,4,6,11,14,12,5,15,2,13"
14815,commdev-image-keyboard-response,286,1070724,learnblock1,1152.9000000059605,img/planet9_left.png,9,Community 1,NA,FALSE,j,f,NA,NA,NA,2,7,"7,1,9,10,8,3,4,6,11,14,12,5,15,2,13"
14815,commdev-image-keyboard-response,287,1071979,learnblock1,null,img/planet8_left.png,8,Community 1,NA,FALSE,null,f,NA,NA,NA,2,7,"7,1,9,10,8,3,4,6,11,14,12,5,15,2,13"
14815,commdev-image-keyboard-response,288,1073232,learnblock1,885.7000000178814,img/planet7_right.png,7,Community 1,NA,FALSE,f,j,NA,NA,NA,2,7,"7,1,9,10,8,3,4,6,11,14,12,5,15,2,13"
14815,commdev-image-keyboard-response,289,1074487,learnblock1,1027.5,img/planet9_left.png,9,Community 1,NA,FALSE,j,f,NA,NA,NA,2,7,"7,1,9,10,8,3,4,6,11,14,12,5,15,2,13"
14815,commdev-image-keyboard-response,290,1075746,learnblock1,407,img/planet8_right.png,8,Community 1,NA,FALSE,f,j,NA,NA,NA,2,7,"7,1,9,10,8,3,4,6,11,14,12,5,15,2,13"
14815,commdev-image-keyboard-response,291,1077009,learnblock1,256.39999997615814,img/planet12_right.png,12,Community 3,NA,TRUE,j,j,NA,NA,NA,2,7,"7,1,9,10,8,3,4,6,11,14,12,5,15,2,13"
14815,commdev-image-keyboard-response,292,1078265,learnblock1,null,img/planet15_left.png,15,Community 3,NA,FALSE,null,f,NA,NA,NA,2,7,"7,1,9,10,8,3,4,6,11,14,12,5,15,2,13"
14815,commdev-image-keyboard-response,293,1079527,learnblock1,18.5,img/planet5_right.png,5,Community 3,NA,TRUE,j,j,NA,NA,NA,2,7,"7,1,9,10,8,3,4,6,11,14,12,5,15,2,13"
14815,commdev-image-keyboard-response,294,1080787,learnblock1,1128.5,img/planet6_left.png,6,Community 2,NA,TRUE,f,f,NA,NA,NA,2,7,"7,1,9,10,8,3,4,6,11,14,12,5,15,2,13"
14815,commdev-image-keyboard-response,295,1082044,learnblock1,null,img/planet4_left.png,4,Community 2,NA,FALSE,null,f,NA,NA,NA,2,7,"7,1,9,10,8,3,4,6,11,14,12,5,15,2,13"
14815,commdev-image-keyboard-response,296,1083304,learnblock1,352.30000001192093,img/planet3_left.png,3,Community 2,NA,FALSE,j,f,NA,NA,NA,2,7,"7,1,9,10,8,3,4,6,11,14,12,5,15,2,13"
14815,commdev-image-keyboard-response,297,1084562,learnblock1,null,img/planet4_left.png,4,Community 2,NA,FALSE,null,f,NA,NA,NA,2,7,"7,1,9,10,8,3,4,6,11,14,12,5,15,2,13"
14815,commdev-image-keyboard-response,298,1085823,learnblock1,143.60000002384186,img/planet14_right.png,14,Community 2,NA,FALSE,f,j,NA,NA,NA,2,7,"7,1,9,10,8,3,4,6,11,14,12,5,15,2,13"
14815,commdev-image-keyboard-response,299,1087076,learnblock1,null,img/planet6_left.png,6,Community 2,NA,FALSE,null,f,NA,NA,NA,2,7,"7,1,9,10,8,3,4,6,11,14,12,5,15,2,13"
14815,commdev-image-keyboard-response,300,1088333,learnblock1,null,img/planet14_left.png,14,Community 2,NA,FALSE,null,f,NA,NA,NA,2,7,"7,1,9,10,8,3,4,6,11,14,12,5,15,2,13"
14815,commdev-image-keyboard-response,301,1089592,learnblock1,252.2000000178814,img/planet11_right.png,11,Community 2,NA,FALSE,f,j,NA,NA,NA,2,7,"7,1,9,10,8,3,4,6,11,14,12,5,15,2,13"
14815,commdev-image-keyboard-response,302,1090854,learnblock1,270.69999998807907,img/planet14_right.png,14,Community 2,NA,TRUE,j,j,NA,NA,NA,2,7,"7,1,9,10,8,3,4,6,11,14,12,5,15,2,13"
14815,commdev-image-keyboard-response,303,1092116,learnblock1,551.3000000119209,img/planet6_right.png,6,Community 2,NA,TRUE,j,j,NA,NA,NA,2,7,"7,1,9,10,8,3,4,6,11,14,12,5,15,2,13"
14815,commdev-image-keyboard-response,304,1093372,learnblock1,336.80000001192093,img/planet4_right.png,4,Community 2,NA,TRUE,j,j,NA,NA,NA,2,7,"7,1,9,10,8,3,4,6,11,14,12,5,15,2,13"
14815,commdev-image-keyboard-response,305,1094625,learnblock1,105.69999998807907,img/planet6_left.png,6,Community 2,NA,TRUE,f,f,NA,NA,NA,2,7,"7,1,9,10,8,3,4,6,11,14,12,5,15,2,13"
14815,commdev-image-keyboard-response,306,1095880,learnblock1,150.59999999403954,img/planet5_left.png,5,Community 3,NA,FALSE,j,f,NA,NA,NA,2,7,"7,1,9,10,8,3,4,6,11,14,12,5,15,2,13"
14815,commdev-image-keyboard-response,307,1097135,learnblock1,62.69999998807907,img/planet15_right.png,15,Community 3,NA,FALSE,f,j,NA,NA,NA,2,7,"7,1,9,10,8,3,4,6,11,14,12,5,15,2,13"
14815,commdev-image-keyboard-response,308,1098395,learnblock1,95.30000001192093,img/planet13_right.png,13,Community 3,NA,TRUE,j,j,NA,NA,NA,2,7,"7,1,9,10,8,3,4,6,11,14,12,5,15,2,13"
14815,commdev-image-keyboard-response,309,1099654,learnblock1,85.09999999403954,img/planet15_left.png,15,Community 3,NA,FALSE,j,f,NA,NA,NA,2,7,"7,1,9,10,8,3,4,6,11,14,12,5,15,2,13"
14815,commdev-image-keyboard-response,310,1100912,learnblock1,11,img/planet12_left.png,12,Community 3,NA,FALSE,j,f,NA,NA,NA,2,7,"7,1,9,10,8,3,4,6,11,14,12,5,15,2,13"
14815,commdev-image-keyboard-response,311,1102174,learnblock1,0.7999999821186066,img/planet15_right.png,15,Community 3,NA,FALSE,f,j,NA,NA,NA,2,7,"7,1,9,10,8,3,4,6,11,14,12,5,15,2,13"
14815,commdev-image-keyboard-response,312,1103426,learnblock1,120.09999999403954,img/planet13_right.png,13,Community 3,NA,FALSE,f,j,NA,NA,NA,2,7,"7,1,9,10,8,3,4,6,11,14,12,5,15,2,13"
14815,commdev-image-keyboard-response,313,1104684,learnblock1,null,img/planet15_left.png,15,Community 3,NA,FALSE,null,f,NA,NA,NA,2,7,"7,1,9,10,8,3,4,6,11,14,12,5,15,2,13"
14815,commdev-image-keyboard-response,314,1105937,learnblock1,1250.699999988079,img/planet12_right.png,12,Community 3,NA,TRUE,j,j,NA,NA,NA,2,7,"7,1,9,10,8,3,4,6,11,14,12,5,15,2,13"
14815,commdev-image-keyboard-response,315,1107194,learnblock1,null,img/planet15_right.png,15,Community 3,NA,FALSE,null,j,NA,NA,NA,2,7,"7,1,9,10,8,3,4,6,11,14,12,5,15,2,13"
14815,commdev-image-keyboard-response,316,1108449,learnblock1,163.7000000178814,img/planet13_right.png,13,Community 3,NA,TRUE,j,j,NA,NA,NA,2,7,"7,1,9,10,8,3,4,6,11,14,12,5,15,2,13"
14815,commdev-image-keyboard-response,317,1109703,learnblock1,null,img/planet12_left.png,12,Community 3,NA,FALSE,null,f,NA,NA,NA,2,7,"7,1,9,10,8,3,4,6,11,14,12,5,15,2,13"
14815,commdev-image-keyboard-response,318,1110965,learnblock1,835.9000000059605,img/planet15_right.png,15,Community 3,NA,TRUE,j,j,NA,NA,NA,2,7,"7,1,9,10,8,3,4,6,11,14,12,5,15,2,13"
14815,commdev-image-keyboard-response,319,1112222,learnblock1,null,img/planet13_left.png,13,Community 3,NA,FALSE,null,f,NA,NA,NA,2,7,"7,1,9,10,8,3,4,6,11,14,12,5,15,2,13"
14815,commdev-image-keyboard-response,320,1113475,learnblock1,137,img/planet15_left.png,15,Community 3,NA,TRUE,f,f,NA,NA,NA,2,7,"7,1,9,10,8,3,4,6,11,14,12,5,15,2,13"
14815,commdev-image-keyboard-response,321,1114728,learnblock1,11.800000011920929,img/planet2_right.png,2,Community 3,NA,TRUE,j,j,NA,NA,NA,2,7,"7,1,9,10,8,3,4,6,11,14,12,5,15,2,13"
14815,commdev-image-keyboard-response,322,1115981,learnblock1,1180.0999999940395,img/planet12_right.png,12,Community 3,NA,FALSE,f,j,NA,NA,NA,2,7,"7,1,9,10,8,3,4,6,11,14,12,5,15,2,13"
14815,commdev-image-keyboard-response,323,1117244,learnblock1,43.900000005960464,img/planet2_right.png,2,Community 3,NA,TRUE,j,j,NA,NA,NA,2,7,"7,1,9,10,8,3,4,6,11,14,12,5,15,2,13"
14815,commdev-image-keyboard-response,324,1118502,learnblock1,1039.199999988079,img/planet15_left.png,15,Community 3,NA,TRUE,f,f,NA,NA,NA,2,7,"7,1,9,10,8,3,4,6,11,14,12,5,15,2,13"
14815,commdev-image-keyboard-response,325,1119758,learnblock1,1203.800000011921,img/planet12_right.png,12,Community 3,NA,TRUE,j,j,NA,NA,NA,2,7,"7,1,9,10,8,3,4,6,11,14,12,5,15,2,13"
14815,commdev-image-keyboard-response,326,1121014,learnblock1,1065.300000011921,img/planet2_right.png,2,Community 3,NA,TRUE,j,j,NA,NA,NA,2,7,"7,1,9,10,8,3,4,6,11,14,12,5,15,2,13"
14815,commdev-image-keyboard-response,327,1122273,learnblock1,1024.8999999761581,img/planet15_left.png,15,Community 3,NA,TRUE,f,f,NA,NA,NA,2,7,"7,1,9,10,8,3,4,6,11,14,12,5,15,2,13"
14815,commdev-image-keyboard-response,328,1123531,learnblock1,833.8999999761581,img/planet13_right.png,13,Community 3,NA,TRUE,j,j,NA,NA,NA,2,7,"7,1,9,10,8,3,4,6,11,14,12,5,15,2,13"
14815,commdev-image-keyboard-response,329,1124787,learnblock1,1005.6999999880791,img/planet5_right.png,5,Community 3,NA,TRUE,j,j,NA,NA,NA,2,7,"7,1,9,10,8,3,4,6,11,14,12,5,15,2,13"
14815,commdev-image-keyboard-response,330,1126046,learnblock1,993.0999999940395,img/planet15_left.png,15,Community 3,NA,TRUE,f,f,NA,NA,NA,2,7,"7,1,9,10,8,3,4,6,11,14,12,5,15,2,13"
14815,commdev-image-keyboard-response,331,1127308,learnblock1,null,img/planet5_left.png,5,Community 3,NA,FALSE,null,f,NA,NA,NA,2,7,"7,1,9,10,8,3,4,6,11,14,12,5,15,2,13"
14815,commdev-image-keyboard-response,332,1128560,learnblock1,191.90000000596046,img/planet13_left.png,13,Community 3,NA,FALSE,j,f,NA,NA,NA,2,7,"7,1,9,10,8,3,4,6,11,14,12,5,15,2,13"
14815,commdev-image-keyboard-response,333,1129816,learnblock1,210.5,img/planet15_right.png,15,Community 3,NA,FALSE,f,j,NA,NA,NA,2,7,"7,1,9,10,8,3,4,6,11,14,12,5,15,2,13"
14815,commdev-image-keyboard-response,334,1131073,learnblock1,459.89999997615814,img/planet12_right.png,12,Community 3,NA,TRUE,j,j,NA,NA,NA,2,7,"7,1,9,10,8,3,4,6,11,14,12,5,15,2,13"
14815,commdev-image-keyboard-response,335,1132330,learnblock1,282.7000000178814,img/planet8_right.png,8,Community 1,NA,TRUE,j,j,NA,NA,NA,2,7,"7,1,9,10,8,3,4,6,11,14,12,5,15,2,13"
14815,commdev-image-keyboard-response,336,1133585,learnblock1,1146.5999999940395,img/planet12_right.png,12,Community 3,NA,TRUE,j,j,NA,NA,NA,2,7,"7,1,9,10,8,3,4,6,11,14,12,5,15,2,13"
14815,commdev-image-keyboard-response,337,1134845,learnblock1,null,img/planet13_left.png,13,Community 3,NA,FALSE,null,f,NA,NA,NA,2,7,"7,1,9,10,8,3,4,6,11,14,12,5,15,2,13"
14815,commdev-image-keyboard-response,338,1136103,learnblock1,263.30000001192093,img/planet15_left.png,15,Community 3,NA,FALSE,j,f,NA,NA,NA,2,7,"7,1,9,10,8,3,4,6,11,14,12,5,15,2,13"
14815,commdev-image-keyboard-response,339,1137358,learnblock1,238.30000001192093,img/planet5_left.png,5,Community 3,NA,TRUE,f,f,NA,NA,NA,2,7,"7,1,9,10,8,3,4,6,11,14,12,5,15,2,13"
14815,commdev-image-keyboard-response,340,1138619,learnblock1,1060.0999999940395,img/planet2_left.png,2,Community 3,NA,FALSE,j,f,NA,NA,NA,2,7,"7,1,9,10,8,3,4,6,11,14,12,5,15,2,13"
14815,commdev-image-keyboard-response,341,1139882,learnblock1,879.6999999880791,img/planet15_right.png,15,Community 3,NA,FALSE,f,j,NA,NA,NA,2,7,"7,1,9,10,8,3,4,6,11,14,12,5,15,2,13"
14815,commdev-image-keyboard-response,342,1141144,learnblock1,1144.8999999761581,img/planet2_left.png,2,Community 3,NA,FALSE,j,f,NA,NA,NA,2,7,"7,1,9,10,8,3,4,6,11,14,12,5,15,2,13"
14815,commdev-image-keyboard-response,343,1142396,learnblock1,942.5,img/planet15_right.png,15,Community 3,NA,FALSE,f,j,NA,NA,NA,2,7,"7,1,9,10,8,3,4,6,11,14,12,5,15,2,13"
14815,commdev-image-keyboard-response,344,1143652,learnblock1,1220.5999999940395,img/planet5_left.png,5,Community 3,NA,TRUE,f,f,NA,NA,NA,2,7,"7,1,9,10,8,3,4,6,11,14,12,5,15,2,13"
14815,commdev-image-keyboard-response,345,1144908,learnblock1,1157.4000000059605,img/planet6_left.png,6,Community 2,NA,FALSE,j,f,NA,NA,NA,2,7,"7,1,9,10,8,3,4,6,11,14,12,5,15,2,13"
14815,commdev-image-keyboard-response,346,1146166,learnblock1,939.5999999940395,img/planet5_left.png,5,Community 3,NA,TRUE,f,f,NA,NA,NA,2,7,"7,1,9,10,8,3,4,6,11,14,12,5,15,2,13"
14815,commdev-image-keyboard-response,347,1147423,learnblock1,673.6999999880791,img/planet15_left.png,15,Community 3,NA,FALSE,j,f,NA,NA,NA,2,7,"7,1,9,10,8,3,4,6,11,14,12,5,15,2,13"
14815,commdev-image-keyboard-response,348,1148682,learnblock1,791.7999999821186,img/planet5_left.png,5,Community 3,NA,TRUE,f,f,NA,NA,NA,2,7,"7,1,9,10,8,3,4,6,11,14,12,5,15,2,13"
14815,commdev-image-keyboard-response,349,1149944,learnblock1,1140,img/planet2_left.png,2,Community 3,NA,FALSE,j,f,NA,NA,NA,2,7,"7,1,9,10,8,3,4,6,11,14,12,5,15,2,13"
14815,commdev-image-keyboard-response,350,1151197,learnblock1,null,img/planet5_right.png,5,Community 3,NA,FALSE,null,j,NA,NA,NA,2,7,"7,1,9,10,8,3,4,6,11,14,12,5,15,2,13"
14815,commdev-image-keyboard-response,351,1152456,learnblock1,817.0999999940395,img/planet13_left.png,13,Community 3,NA,TRUE,f,f,NA,NA,NA,2,7,"7,1,9,10,8,3,4,6,11,14,12,5,15,2,13"
14815,commdev-image-keyboard-response,352,1153710,learnblock1,1228.699999988079,img/planet2_right.png,2,Community 3,NA,TRUE,j,j,NA,NA,NA,2,7,"7,1,9,10,8,3,4,6,11,14,12,5,15,2,13"
14815,commdev-image-keyboard-response,353,1154970,learnblock1,1224.0999999940395,img/planet5_left.png,5,Community 3,NA,TRUE,f,f,NA,NA,NA,2,7,"7,1,9,10,8,3,4,6,11,14,12,5,15,2,13"
14815,commdev-image-keyboard-response,354,1156226,learnblock1,1204.699999988079,img/planet15_left.png,15,Community 3,NA,TRUE,f,f,NA,NA,NA,2,7,"7,1,9,10,8,3,4,6,11,14,12,5,15,2,13"
14815,commdev-image-keyboard-response,355,1157480,learnblock1,null,img/planet12_right.png,12,Community 3,NA,FALSE,null,j,NA,NA,NA,2,7,"7,1,9,10,8,3,4,6,11,14,12,5,15,2,13"
14815,commdev-image-keyboard-response,356,1158738,learnblock1,75.2000000178814,img/planet15_left.png,15,Community 3,NA,FALSE,j,f,NA,NA,NA,2,7,"7,1,9,10,8,3,4,6,11,14,12,5,15,2,13"
14815,commdev-image-keyboard-response,357,1159995,learnblock1,1220.199999988079,img/planet2_right.png,2,Community 3,NA,TRUE,j,j,NA,NA,NA,2,7,"7,1,9,10,8,3,4,6,11,14,12,5,15,2,13"
14815,commdev-image-keyboard-response,358,1161256,learnblock1,1118.5999999940395,img/planet15_left.png,15,Community 3,NA,TRUE,f,f,NA,NA,NA,2,7,"7,1,9,10,8,3,4,6,11,14,12,5,15,2,13"
14815,commdev-image-keyboard-response,359,1162518,learnblock1,1059.5999999940395,img/planet2_right.png,2,Community 3,NA,TRUE,j,j,NA,NA,NA,2,7,"7,1,9,10,8,3,4,6,11,14,12,5,15,2,13"
14815,commdev-image-keyboard-response,360,1163773,learnblock1,975.9000000059605,img/planet13_left.png,13,Community 3,NA,TRUE,f,f,NA,NA,NA,2,7,"7,1,9,10,8,3,4,6,11,14,12,5,15,2,13"
14815,commdev-image-keyboard-response,361,1165036,learnblock1,1020.4000000059605,img/planet15_left.png,15,Community 3,NA,TRUE,f,f,NA,NA,NA,2,7,"7,1,9,10,8,3,4,6,11,14,12,5,15,2,13"
14815,commdev-image-keyboard-response,362,1166295,learnblock1,1124.8999999761581,img/planet5_left.png,5,Community 3,NA,TRUE,f,f,NA,NA,NA,2,7,"7,1,9,10,8,3,4,6,11,14,12,5,15,2,13"
14815,commdev-image-keyboard-response,363,1167555,learnblock1,1202.0999999940395,img/planet2_right.png,2,Community 3,NA,TRUE,j,j,NA,NA,NA,2,7,"7,1,9,10,8,3,4,6,11,14,12,5,15,2,13"
14815,commdev-image-keyboard-response,364,1168809,learnblock1,1243.8999999761581,img/planet13_left.png,13,Community 3,NA,TRUE,f,f,NA,NA,NA,2,7,"7,1,9,10,8,3,4,6,11,14,12,5,15,2,13"
14815,commdev-image-keyboard-response,365,1170064,learnblock1,1135.0999999940395,img/planet15_left.png,15,Community 3,NA,TRUE,f,f,NA,NA,NA,2,7,"7,1,9,10,8,3,4,6,11,14,12,5,15,2,13"
14815,commdev-image-keyboard-response,366,1171326,learnblock1,1201.2000000178814,img/planet12_right.png,12,Community 3,NA,TRUE,j,j,NA,NA,NA,2,7,"7,1,9,10,8,3,4,6,11,14,12,5,15,2,13"
14815,commdev-image-keyboard-response,367,1172583,learnblock1,857,img/planet2_right.png,2,Community 3,NA,FALSE,f,j,NA,NA,NA,2,7,"7,1,9,10,8,3,4,6,11,14,12,5,15,2,13"
14815,commdev-image-keyboard-response,368,1173839,learnblock1,null,img/planet12_right.png,12,Community 3,NA,FALSE,null,j,NA,NA,NA,2,7,"7,1,9,10,8,3,4,6,11,14,12,5,15,2,13"
14815,commdev-image-keyboard-response,369,1175098,learnblock1,126.10000002384186,img/planet8_right.png,8,Community 1,NA,TRUE,j,j,NA,NA,NA,2,7,"7,1,9,10,8,3,4,6,11,14,12,5,15,2,13"
14815,commdev-image-keyboard-response,370,1176352,learnblock1,112.90000000596046,img/planet7_left.png,7,Community 1,NA,FALSE,j,f,NA,NA,NA,2,7,"7,1,9,10,8,3,4,6,11,14,12,5,15,2,13"
14815,commdev-image-keyboard-response,371,1177606,learnblock1,null,img/planet10_left.png,10,Community 1,NA,FALSE,null,f,NA,NA,NA,2,7,"7,1,9,10,8,3,4,6,11,14,12,5,15,2,13"
14815,commdev-image-keyboard-response,372,1178865,learnblock1,137.39999997615814,img/planet9_left.png,9,Community 1,NA,TRUE,f,f,NA,NA,NA,2,7,"7,1,9,10,8,3,4,6,11,14,12,5,15,2,13"
14815,commdev-image-keyboard-response,373,1180121,learnblock1,1206.199999988079,img/planet8_left.png,8,Community 1,NA,TRUE,f,f,NA,NA,NA,2,7,"7,1,9,10,8,3,4,6,11,14,12,5,15,2,13"
14815,commdev-image-keyboard-response,374,1181378,learnblock1,null,img/planet7_left.png,7,Community 1,NA,FALSE,null,f,NA,NA,NA,2,7,"7,1,9,10,8,3,4,6,11,14,12,5,15,2,13"
14815,commdev-image-keyboard-response,375,1182645,learnblock1,9.299999982118607,img/planet10_left.png,10,Community 1,NA,TRUE,f,f,NA,NA,NA,2,7,"7,1,9,10,8,3,4,6,11,14,12,5,15,2,13"
14815,commdev-image-keyboard-response,376,1183899,learnblock1,836.1000000238419,img/planet9_left.png,9,Community 1,NA,TRUE,f,f,NA,NA,NA,2,7,"7,1,9,10,8,3,4,6,11,14,12,5,15,2,13"
14815,commdev-image-keyboard-response,377,1185160,learnblock1,965.6999999880791,img/planet10_right.png,10,Community 1,NA,TRUE,j,j,NA,NA,NA,2,7,"7,1,9,10,8,3,4,6,11,14,12,5,15,2,13"
14815,commdev-image-keyboard-response,378,1186415,learnblock1,1134.199999988079,img/planet7_right.png,7,Community 1,NA,FALSE,f,j,NA,NA,NA,2,7,"7,1,9,10,8,3,4,6,11,14,12,5,15,2,13"
14815,commdev-image-keyboard-response,379,1187673,learnblock1,784.3000000119209,img/planet10_right.png,10,Community 1,NA,TRUE,j,j,NA,NA,NA,2,7,"7,1,9,10,8,3,4,6,11,14,12,5,15,2,13"
14815,commdev-image-keyboard-response,380,1188934,learnblock1,1076.6000000238419,img/planet9_left.png,9,Community 1,NA,TRUE,f,f,NA,NA,NA,2,7,"7,1,9,10,8,3,4,6,11,14,12,5,15,2,13"
14815,commdev-image-keyboard-response,381,1190190,learnblock1,821,img/planet10_right.png,10,Community 1,NA,TRUE,j,j,NA,NA,NA,2,7,"7,1,9,10,8,3,4,6,11,14,12,5,15,2,13"
14815,commdev-image-keyboard-response,382,1191451,learnblock1,1063.699999988079,img/planet7_right.png,7,Community 1,NA,TRUE,j,j,NA,NA,NA,2,7,"7,1,9,10,8,3,4,6,11,14,12,5,15,2,13"
14815,commdev-image-keyboard-response,383,1192706,learnblock1,null,img/planet1_left.png,1,Community 1,NA,FALSE,null,f,NA,NA,NA,2,7,"7,1,9,10,8,3,4,6,11,14,12,5,15,2,13"
14815,commdev-image-keyboard-response,384,1193968,learnblock1,63.5,img/planet7_left.png,7,Community 1,NA,FALSE,j,f,NA,NA,NA,2,7,"7,1,9,10,8,3,4,6,11,14,12,5,15,2,13"
14815,commdev-image-keyboard-response,385,1195224,learnblock1,null,img/planet9_left.png,9,Community 1,NA,FALSE,null,f,NA,NA,NA,2,7,"7,1,9,10,8,3,4,6,11,14,12,5,15,2,13"
14815,commdev-image-keyboard-response,386,1196484,learnblock1,162.19999998807907,img/planet1_left.png,1,Community 1,NA,TRUE,f,f,NA,NA,NA,2,7,"7,1,9,10,8,3,4,6,11,14,12,5,15,2,13"
14815,commdev-image-keyboard-response,387,1197743,learnblock1,42.80000001192093,img/planet10_right.png,10,Community 1,NA,FALSE,f,j,NA,NA,NA,2,7,"7,1,9,10,8,3,4,6,11,14,12,5,15,2,13"
14815,commdev-image-keyboard-response,388,1198995,learnblock1,1226.9000000059605,img/planet1_left.png,1,Community 1,NA,TRUE,f,f,NA,NA,NA,2,7,"7,1,9,10,8,3,4,6,11,14,12,5,15,2,13"
14815,commdev-image-keyboard-response,389,1200249,learnblock1,1018,img/planet8_right.png,8,Community 1,NA,TRUE,j,j,NA,NA,NA,2,7,"7,1,9,10,8,3,4,6,11,14,12,5,15,2,13"
14815,commdev-image-keyboard-response,390,1201507,learnblock1,1201.7000000178814,img/planet12_right.png,12,Community 3,NA,TRUE,j,j,NA,NA,NA,2,7,"7,1,9,10,8,3,4,6,11,14,12,5,15,2,13"
14815,commdev-image-keyboard-response,391,1202765,learnblock1,1153.800000011921,img/planet15_left.png,15,Community 3,NA,TRUE,f,f,NA,NA,NA,2,7,"7,1,9,10,8,3,4,6,11,14,12,5,15,2,13"
14815,commdev-image-keyboard-response,392,1204024,learnblock1,null,img/planet13_right.png,13,Community 3,NA,FALSE,null,j,NA,NA,NA,2,7,"7,1,9,10,8,3,4,6,11,14,12,5,15,2,13"
14815,commdev-image-keyboard-response,393,1205279,learnblock1,166.09999999403954,img/planet12_right.png,12,Community 3,NA,TRUE,j,j,NA,NA,NA,2,7,"7,1,9,10,8,3,4,6,11,14,12,5,15,2,13"
14815,commdev-image-keyboard-response,394,1206536,learnblock1,216.80000001192093,img/planet2_right.png,2,Community 3,NA,TRUE,j,j,NA,NA,NA,2,7,"7,1,9,10,8,3,4,6,11,14,12,5,15,2,13"
14815,commdev-image-keyboard-response,395,1207789,learnblock1,242.09999999403954,img/planet13_right.png,13,Community 3,NA,FALSE,f,j,NA,NA,NA,2,7,"7,1,9,10,8,3,4,6,11,14,12,5,15,2,13"
14815,commdev-image-keyboard-response,396,1209050,learnblock1,321.89999997615814,img/planet5_left.png,5,Community 3,NA,FALSE,j,f,NA,NA,NA,2,7,"7,1,9,10,8,3,4,6,11,14,12,5,15,2,13"
14815,commdev-image-keyboard-response,397,1210303,learnblock1,449.30000001192093,img/planet6_right.png,6,Community 2,NA,FALSE,f,j,NA,NA,NA,2,7,"7,1,9,10,8,3,4,6,11,14,12,5,15,2,13"
14815,commdev-image-keyboard-response,398,1211564,learnblock1,359.89999997615814,img/planet5_right.png,5,Community 3,NA,TRUE,j,j,NA,NA,NA,2,7,"7,1,9,10,8,3,4,6,11,14,12,5,15,2,13"
14815,commdev-image-keyboard-response,399,1212821,learnblock1,361.5,img/planet15_right.png,15,Community 3,NA,TRUE,j,j,NA,NA,NA,2,7,"7,1,9,10,8,3,4,6,11,14,12,5,15,2,13"
14815,commdev-image-keyboard-response,400,1214075,learnblock1,307.30000001192093,img/planet5_left.png,5,Community 3,NA,FALSE,j,f,NA,NA,NA,2,7,"7,1,9,10,8,3,4,6,11,14,12,5,15,2,13"
14815,commdev-image-keyboard-response,401,1215338,learnblock1,133.09999999403954,img/planet15_left.png,15,Community 3,NA,FALSE,j,f,NA,NA,NA,2,7,"7,1,9,10,8,3,4,6,11,14,12,5,15,2,13"
14815,commdev-image-keyboard-response,402,1216595,learnblock1,26.299999982118607,img/planet5_left.png,5,Community 3,NA,FALSE,j,f,NA,NA,NA,2,7,"7,1,9,10,8,3,4,6,11,14,12,5,15,2,13"
14815,commdev-image-keyboard-response,403,1217853,learnblock1,54,img/planet15_right.png,15,Community 3,NA,TRUE,j,j,NA,NA,NA,2,7,"7,1,9,10,8,3,4,6,11,14,12,5,15,2,13"
14815,commdev-image-keyboard-response,404,1219106,learnblock1,0.800000011920929,img/planet5_right.png,5,Community 3,NA,TRUE,j,j,NA,NA,NA,2,7,"7,1,9,10,8,3,4,6,11,14,12,5,15,2,13"
14815,commdev-image-keyboard-response,405,1220361,learnblock1,147.40000000596046,img/planet15_right.png,15,Community 3,NA,TRUE,j,j,NA,NA,NA,2,7,"7,1,9,10,8,3,4,6,11,14,12,5,15,2,13"
14815,commdev-image-keyboard-response,406,1221616,learnblock1,189.40000000596046,img/planet13_right.png,13,Community 3,NA,FALSE,f,j,NA,NA,NA,2,7,"7,1,9,10,8,3,4,6,11,14,12,5,15,2,13"
14815,commdev-image-keyboard-response,407,1222872,learnblock1,240.90000000596046,img/planet2_right.png,2,Community 3,NA,FALSE,f,j,NA,NA,NA,2,7,"7,1,9,10,8,3,4,6,11,14,12,5,15,2,13"
14815,commdev-image-keyboard-response,408,1224130,learnblock1,1.2999999821186066,img/planet12_right.png,12,Community 3,NA,TRUE,j,j,NA,NA,NA,2,7,"7,1,9,10,8,3,4,6,11,14,12,5,15,2,13"
14815,commdev-image-keyboard-response,409,1225386,learnblock1,115.09999999403954,img/planet8_right.png,8,Community 1,NA,TRUE,j,j,NA,NA,NA,2,7,"7,1,9,10,8,3,4,6,11,14,12,5,15,2,13"
14815,commdev-image-keyboard-response,410,1226645,learnblock1,181.09999999403954,img/planet12_right.png,12,Community 3,NA,TRUE,j,j,NA,NA,NA,2,7,"7,1,9,10,8,3,4,6,11,14,12,5,15,2,13"
14815,commdev-image-keyboard-response,411,1227909,learnblock1,161.90000000596046,img/planet13_left.png,13,Community 3,NA,FALSE,j,f,NA,NA,NA,2,7,"7,1,9,10,8,3,4,6,11,14,12,5,15,2,13"
14815,commdev-image-keyboard-response,412,1229166,learnblock1,43.400000005960464,img/planet5_right.png,5,Community 3,NA,FALSE,f,j,NA,NA,NA,2,7,"7,1,9,10,8,3,4,6,11,14,12,5,15,2,13"
14815,commdev-image-keyboard-response,413,1230431,learnblock1,109.59999999403954,img/planet13_left.png,13,Community 3,NA,TRUE,f,f,NA,NA,NA,2,7,"7,1,9,10,8,3,4,6,11,14,12,5,15,2,13"
14815,commdev-image-keyboard-response,414,1231692,learnblock1,366.59999999403954,img/planet15_right.png,15,Community 3,NA,TRUE,j,j,NA,NA,NA,2,7,"7,1,9,10,8,3,4,6,11,14,12,5,15,2,13"
14815,commdev-image-keyboard-response,415,1232946,learnblock1,100.40000000596046,img/planet2_left.png,2,Community 3,NA,FALSE,j,f,NA,NA,NA,2,7,"7,1,9,10,8,3,4,6,11,14,12,5,15,2,13"
14815,commdev-image-keyboard-response,416,1234204,learnblock1,192.30000001192093,img/planet13_left.png,13,Community 3,NA,FALSE,j,f,NA,NA,NA,2,7,"7,1,9,10,8,3,4,6,11,14,12,5,15,2,13"
14815,commdev-image-keyboard-response,417,1235458,learnblock1,208.09999999403954,img/planet2_right.png,2,Community 3,NA,TRUE,j,j,NA,NA,NA,2,7,"7,1,9,10,8,3,4,6,11,14,12,5,15,2,13"
14815,commdev-image-keyboard-response,418,1236716,learnblock1,67.80000001192093,img/planet5_left.png,5,Community 3,NA,FALSE,j,f,NA,NA,NA,2,7,"7,1,9,10,8,3,4,6,11,14,12,5,15,2,13"
14815,commdev-image-keyboard-response,419,1237980,learnblock1,0.5999999940395355,img/planet2_right.png,2,Community 3,NA,TRUE,j,j,NA,NA,NA,2,7,"7,1,9,10,8,3,4,6,11,14,12,5,15,2,13"
14815,commdev-image-keyboard-response,420,1239235,learnblock1,9.899999976158142,img/planet15_left.png,15,Community 3,NA,FALSE,j,f,NA,NA,NA,2,7,"7,1,9,10,8,3,4,6,11,14,12,5,15,2,13"
14815,commdev-image-keyboard-response,421,1240496,learnblock1,22,img/planet13_right.png,13,Community 3,NA,TRUE,j,j,NA,NA,NA,2,7,"7,1,9,10,8,3,4,6,11,14,12,5,15,2,13"
14815,commdev-image-keyboard-response,422,1241758,learnblock1,201.40000000596046,img/planet2_left.png,2,Community 3,NA,TRUE,f,f,NA,NA,NA,2,7,"7,1,9,10,8,3,4,6,11,14,12,5,15,2,13"
14815,commdev-image-keyboard-response,423,1243017,learnblock1,41.70000001788139,img/planet15_left.png,15,Community 3,NA,TRUE,f,f,NA,NA,NA,2,7,"7,1,9,10,8,3,4,6,11,14,12,5,15,2,13"
14815,commdev-image-keyboard-response,424,1244278,learnblock1,100.5,img/planet12_right.png,12,Community 3,NA,FALSE,f,j,NA,NA,NA,2,7,"7,1,9,10,8,3,4,6,11,14,12,5,15,2,13"
14815,commdev-image-keyboard-response,425,1245533,learnblock1,17.299999982118607,img/planet15_right.png,15,Community 3,NA,FALSE,f,j,NA,NA,NA,2,7,"7,1,9,10,8,3,4,6,11,14,12,5,15,2,13"
14815,commdev-image-keyboard-response,426,1246785,learnblock1,29.399999976158142,img/planet2_left.png,2,Community 3,NA,TRUE,f,f,NA,NA,NA,2,7,"7,1,9,10,8,3,4,6,11,14,12,5,15,2,13"
14815,commdev-image-keyboard-response,427,1248042,learnblock1,217.09999999403954,img/planet5_right.png,5,Community 3,NA,TRUE,j,j,NA,NA,NA,2,7,"7,1,9,10,8,3,4,6,11,14,12,5,15,2,13"
14815,commdev-image-keyboard-response,428,1249301,learnblock1,105.89999997615814,img/planet15_left.png,15,Community 3,NA,TRUE,f,f,NA,NA,NA,2,7,"7,1,9,10,8,3,4,6,11,14,12,5,15,2,13"
14815,commdev-image-keyboard-response,429,1250553,learnblock1,602.5999999940395,img/planet13_right.png,13,Community 3,NA,TRUE,j,j,NA,NA,NA,2,7,"7,1,9,10,8,3,4,6,11,14,12,5,15,2,13"
14815,commdev-image-keyboard-response,430,1251815,learnblock1,997.0999999940395,img/planet12_right.png,12,Community 3,NA,TRUE,j,j,NA,NA,NA,2,7,"7,1,9,10,8,3,4,6,11,14,12,5,15,2,13"
14815,commdev-image-keyboard-response,431,1253076,learnblock1,127.19999998807907,img/planet13_left.png,13,Community 3,NA,FALSE,j,f,NA,NA,NA,2,7,"7,1,9,10,8,3,4,6,11,14,12,5,15,2,13"
14815,commdev-image-keyboard-response,432,1254334,learnblock1,99.5,img/planet2_right.png,2,Community 3,NA,FALSE,f,j,NA,NA,NA,2,7,"7,1,9,10,8,3,4,6,11,14,12,5,15,2,13"
14815,commdev-image-keyboard-response,433,1255588,learnblock1,1169.800000011921,img/planet12_left.png,12,Community 3,NA,TRUE,f,f,NA,NA,NA,2,7,"7,1,9,10,8,3,4,6,11,14,12,5,15,2,13"
14815,commdev-image-keyboard-response,434,1256845,learnblock1,114.80000001192093,img/planet8_right.png,8,Community 1,NA,FALSE,f,j,NA,NA,NA,2,7,"7,1,9,10,8,3,4,6,11,14,12,5,15,2,13"
14815,commdev-image-keyboard-response,435,1258098,learnblock1,778.5999999940395,img/planet9_right.png,9,Community 1,NA,TRUE,j,j,NA,NA,NA,2,7,"7,1,9,10,8,3,4,6,11,14,12,5,15,2,13"
14815,commdev-image-keyboard-response,436,1259351,learnblock1,1060.8999999761581,img/planet8_right.png,8,Community 1,NA,TRUE,j,j,NA,NA,NA,2,7,"7,1,9,10,8,3,4,6,11,14,12,5,15,2,13"
14815,commdev-image-keyboard-response,437,1260613,learnblock1,9.300000011920929,img/planet1_left.png,1,Community 1,NA,FALSE,j,f,NA,NA,NA,2,7,"7,1,9,10,8,3,4,6,11,14,12,5,15,2,13"
14815,commdev-image-keyboard-response,438,1261866,learnblock1,121.5,img/planet10_left.png,10,Community 1,NA,TRUE,f,f,NA,NA,NA,2,7,"7,1,9,10,8,3,4,6,11,14,12,5,15,2,13"
14815,commdev-image-keyboard-response,439,1263118,learnblock1,74.19999998807907,img/planet7_left.png,7,Community 1,NA,TRUE,f,f,NA,NA,NA,2,7,"7,1,9,10,8,3,4,6,11,14,12,5,15,2,13"
14815,commdev-image-keyboard-response,440,1264379,learnblock1,980.9000000059605,img/planet10_right.png,10,Community 1,NA,TRUE,j,j,NA,NA,NA,2,7,"7,1,9,10,8,3,4,6,11,14,12,5,15,2,13"
14815,commdev-image-keyboard-response,441,1265637,learnblock1,1113.5,img/planet7_right.png,7,Community 1,NA,FALSE,f,j,NA,NA,NA,2,7,"7,1,9,10,8,3,4,6,11,14,12,5,15,2,13"
14815,commdev-image-keyboard-response,442,1266899,learnblock1,85.09999999403954,img/planet10_right.png,10,Community 1,NA,TRUE,j,j,NA,NA,NA,2,7,"7,1,9,10,8,3,4,6,11,14,12,5,15,2,13"
14815,commdev-image-keyboard-response,443,1268158,learnblock1,null,img/planet3_left.png,3,Community 2,NA,FALSE,null,f,NA,NA,NA,2,7,"7,1,9,10,8,3,4,6,11,14,12,5,15,2,13"
14815,commdev-image-keyboard-response,444,1269417,learnblock1,9.600000023841858,img/planet11_left.png,11,Community 2,NA,FALSE,j,f,NA,NA,NA,2,7,"7,1,9,10,8,3,4,6,11,14,12,5,15,2,13"
14815,commdev-image-keyboard-response,445,1270676,learnblock1,1111.4000000059605,img/planet6_right.png,6,Community 2,NA,TRUE,j,j,NA,NA,NA,2,7,"7,1,9,10,8,3,4,6,11,14,12,5,15,2,13"
14815,commdev-image-keyboard-response,446,1271938,learnblock1,null,img/planet5_right.png,5,Community 3,NA,FALSE,null,j,NA,NA,NA,2,7,"7,1,9,10,8,3,4,6,11,14,12,5,15,2,13"
14815,commdev-image-keyboard-response,447,1273198,learnblock1,192.30000001192093,img/planet2_left.png,2,Community 3,NA,FALSE,j,f,NA,NA,NA,2,7,"7,1,9,10,8,3,4,6,11,14,12,5,15,2,13"
14815,commdev-image-keyboard-response,448,1274454,learnblock1,252,img/planet12_right.png,12,Community 3,NA,TRUE,j,j,NA,NA,NA,2,7,"7,1,9,10,8,3,4,6,11,14,12,5,15,2,13"
14815,commdev-image-keyboard-response,449,1275716,learnblock1,286.80000001192093,img/planet2_left.png,2,Community 3,NA,TRUE,f,f,NA,NA,NA,2,7,"7,1,9,10,8,3,4,6,11,14,12,5,15,2,13"
14815,commdev-image-keyboard-response,450,1276974,learnblock1,null,img/planet13_left.png,13,Community 3,NA,FALSE,null,f,NA,NA,NA,2,7,"7,1,9,10,8,3,4,6,11,14,12,5,15,2,13"
14815,commdev-image-keyboard-response,451,1278228,learnblock1,321.09999999403954,img/planet12_right.png,12,Community 3,NA,FALSE,f,j,NA,NA,NA,2,7,"7,1,9,10,8,3,4,6,11,14,12,5,15,2,13"
14815,commdev-image-keyboard-response,452,1279480,learnblock1,303,img/planet8_right.png,8,Community 1,NA,TRUE,j,j,NA,NA,NA,2,7,"7,1,9,10,8,3,4,6,11,14,12,5,15,2,13"
14815,commdev-image-keyboard-response,453,1280737,learnblock1,170.39999997615814,img/planet7_left.png,7,Community 1,NA,TRUE,f,f,NA,NA,NA,2,7,"7,1,9,10,8,3,4,6,11,14,12,5,15,2,13"
14815,commdev-image-keyboard-response,454,1281999,learnblock1,248.19999998807907,img/planet10_left.png,10,Community 1,NA,TRUE,f,f,NA,NA,NA,2,7,"7,1,9,10,8,3,4,6,11,14,12,5,15,2,13"
14815,commdev-image-keyboard-response,455,1283253,learnblock1,370.80000001192093,img/planet9_right.png,9,Community 1,NA,FALSE,f,j,NA,NA,NA,2,7,"7,1,9,10,8,3,4,6,11,14,12,5,15,2,13"
14815,commdev-image-keyboard-response,456,1284505,learnblock1,10,img/planet10_right.png,10,Community 1,NA,TRUE,j,j,NA,NA,NA,2,7,"7,1,9,10,8,3,4,6,11,14,12,5,15,2,13"
14815,commdev-image-keyboard-response,457,1285758,learnblock1,96.10000002384186,img/planet9_right.png,9,Community 1,NA,FALSE,f,j,NA,NA,NA,2,7,"7,1,9,10,8,3,4,6,11,14,12,5,15,2,13"
14815,commdev-image-keyboard-response,458,1287024,learnblock1,210.40000000596046,img/planet7_left.png,7,Community 1,NA,TRUE,f,f,NA,NA,NA,2,7,"7,1,9,10,8,3,4,6,11,14,12,5,15,2,13"
14815,commdev-image-keyboard-response,459,1288281,learnblock1,204.5,img/planet10_right.png,10,Community 1,NA,FALSE,f,j,NA,NA,NA,2,7,"7,1,9,10,8,3,4,6,11,14,12,5,15,2,13"
14815,commdev-image-keyboard-response,463,1407954,learnblock2,929.3000000119209,img/planet6_left.png,6,Community 2,NA,TRUE,f,f,NA,NA,NA,2,7,"7,1,9,10,8,3,4,6,11,14,12,5,15,2,13"
14815,commdev-image-keyboard-response,464,1409211,learnblock2,873.2000000178814,img/planet4_left.png,4,Community 2,NA,TRUE,f,f,NA,NA,NA,2,7,"7,1,9,10,8,3,4,6,11,14,12,5,15,2,13"
14815,commdev-image-keyboard-response,465,1410467,learnblock2,1081.800000011921,img/planet6_left.png,6,Community 2,NA,FALSE,j,f,NA,NA,NA,2,7,"7,1,9,10,8,3,4,6,11,14,12,5,15,2,13"
14815,commdev-image-keyboard-response,466,1411726,learnblock2,1175.5,img/planet4_left.png,4,Community 2,NA,FALSE,j,f,NA,NA,NA,2,7,"7,1,9,10,8,3,4,6,11,14,12,5,15,2,13"
14815,commdev-image-keyboard-response,467,1412983,learnblock2,84.19999998807907,img/planet6_left.png,6,Community 2,NA,TRUE,f,f,NA,NA,NA,2,7,"7,1,9,10,8,3,4,6,11,14,12,5,15,2,13"
14815,commdev-image-keyboard-response,468,1414238,learnblock2,9.899999976158142,img/planet14_left.png,14,Community 2,NA,TRUE,f,f,NA,NA,NA,2,7,"7,1,9,10,8,3,4,6,11,14,12,5,15,2,13"
14815,commdev-image-keyboard-response,469,1415497,learnblock2,953.8999999761581,img/planet6_left.png,6,Community 2,NA,TRUE,f,f,NA,NA,NA,2,7,"7,1,9,10,8,3,4,6,11,14,12,5,15,2,13"
14815,commdev-image-keyboard-response,470,1416757,learnblock2,763.8999999761581,img/planet4_right.png,4,Community 2,NA,TRUE,j,j,NA,NA,NA,2,7,"7,1,9,10,8,3,4,6,11,14,12,5,15,2,13"
14815,commdev-image-keyboard-response,471,1418016,learnblock2,968.6000000238419,img/planet3_right.png,3,Community 2,NA,TRUE,j,j,NA,NA,NA,2,7,"7,1,9,10,8,3,4,6,11,14,12,5,15,2,13"
14815,commdev-image-keyboard-response,472,1419278,learnblock2,941.7000000178814,img/planet14_left.png,14,Community 2,NA,TRUE,f,f,NA,NA,NA,2,7,"7,1,9,10,8,3,4,6,11,14,12,5,15,2,13"
14815,commdev-image-keyboard-response,473,1420537,learnblock2,1013.4000000059605,img/planet4_left.png,4,Community 2,NA,TRUE,f,f,NA,NA,NA,2,7,"7,1,9,10,8,3,4,6,11,14,12,5,15,2,13"
14815,commdev-image-keyboard-response,474,1421791,learnblock2,975.4000000059605,img/planet6_right.png,6,Community 2,NA,TRUE,j,j,NA,NA,NA,2,7,"7,1,9,10,8,3,4,6,11,14,12,5,15,2,13"
14815,commdev-image-keyboard-response,475,1423046,learnblock2,914.7000000178814,img/planet4_left.png,4,Community 2,NA,TRUE,f,f,NA,NA,NA,2,7,"7,1,9,10,8,3,4,6,11,14,12,5,15,2,13"
14815,commdev-image-keyboard-response,476,1424307,learnblock2,908,img/planet3_right.png,3,Community 2,NA,TRUE,j,j,NA,NA,NA,2,7,"7,1,9,10,8,3,4,6,11,14,12,5,15,2,13"
14815,commdev-image-keyboard-response,477,1425569,learnblock2,1002.9000000059605,img/planet4_right.png,4,Community 2,NA,TRUE,j,j,NA,NA,NA,2,7,"7,1,9,10,8,3,4,6,11,14,12,5,15,2,13"
14815,commdev-image-keyboard-response,478,1426828,learnblock2,1056.0999999940395,img/planet6_left.png,6,Community 2,NA,TRUE,f,f,NA,NA,NA,2,7,"7,1,9,10,8,3,4,6,11,14,12,5,15,2,13"
14815,commdev-image-keyboard-response,479,1428080,learnblock2,1131.199999988079,img/planet14_right.png,14,Community 2,NA,TRUE,j,j,NA,NA,NA,2,7,"7,1,9,10,8,3,4,6,11,14,12,5,15,2,13"
14815,commdev-image-keyboard-response,480,1429341,learnblock2,1049.0999999940395,img/planet6_right.png,6,Community 2,NA,TRUE,j,j,NA,NA,NA,2,7,"7,1,9,10,8,3,4,6,11,14,12,5,15,2,13"
14815,commdev-image-keyboard-response,481,1430598,learnblock2,992.0999999940395,img/planet11_left.png,11,Community 2,NA,TRUE,f,f,NA,NA,NA,2,7,"7,1,9,10,8,3,4,6,11,14,12,5,15,2,13"
14815,commdev-image-keyboard-response,482,1431855,learnblock2,856,img/planet6_right.png,6,Community 2,NA,TRUE,j,j,NA,NA,NA,2,7,"7,1,9,10,8,3,4,6,11,14,12,5,15,2,13"
14815,commdev-image-keyboard-response,483,1433109,learnblock2,873.9000000059605,img/planet11_left.png,11,Community 2,NA,TRUE,f,f,NA,NA,NA,2,7,"7,1,9,10,8,3,4,6,11,14,12,5,15,2,13"
14815,commdev-image-keyboard-response,484,1434362,learnblock2,806.4000000059605,img/planet4_right.png,4,Community 2,NA,TRUE,j,j,NA,NA,NA,2,7,"7,1,9,10,8,3,4,6,11,14,12,5,15,2,13"
14815,commdev-image-keyboard-response,485,1435624,learnblock2,813.9000000059605,img/planet3_right.png,3,Community 2,NA,TRUE,j,j,NA,NA,NA,2,7,"7,1,9,10,8,3,4,6,11,14,12,5,15,2,13"
14815,commdev-image-keyboard-response,486,1436881,learnblock2,826.6999999880791,img/planet11_right.png,11,Community 2,NA,FALSE,f,j,NA,NA,NA,2,7,"7,1,9,10,8,3,4,6,11,14,12,5,15,2,13"
14815,commdev-image-keyboard-response,487,1438138,learnblock2,1148,img/planet14_left.png,14,Community 2,NA,TRUE,f,f,NA,NA,NA,2,7,"7,1,9,10,8,3,4,6,11,14,12,5,15,2,13"
14815,commdev-image-keyboard-response,488,1439401,learnblock2,878.0999999940395,img/planet3_right.png,3,Community 2,NA,TRUE,j,j,NA,NA,NA,2,7,"7,1,9,10,8,3,4,6,11,14,12,5,15,2,13"
14815,commdev-image-keyboard-response,489,1440664,learnblock2,1044.2000000178814,img/planet4_right.png,4,Community 2,NA,TRUE,j,j,NA,NA,NA,2,7,"7,1,9,10,8,3,4,6,11,14,12,5,15,2,13"
14815,commdev-image-keyboard-response,490,1441921,learnblock2,850.5999999940395,img/planet3_right.png,3,Community 2,NA,TRUE,j,j,NA,NA,NA,2,7,"7,1,9,10,8,3,4,6,11,14,12,5,15,2,13"
14815,commdev-image-keyboard-response,491,1443174,learnblock2,935,img/planet4_left.png,4,Community 2,NA,TRUE,f,f,NA,NA,NA,2,7,"7,1,9,10,8,3,4,6,11,14,12,5,15,2,13"
14815,commdev-image-keyboard-response,492,1444433,learnblock2,1028.199999988079,img/planet6_left.png,6,Community 2,NA,TRUE,f,f,NA,NA,NA,2,7,"7,1,9,10,8,3,4,6,11,14,12,5,15,2,13"
14815,commdev-image-keyboard-response,493,1445688,learnblock2,1219.2999999821186,img/planet11_left.png,11,Community 2,NA,TRUE,f,f,NA,NA,NA,2,7,"7,1,9,10,8,3,4,6,11,14,12,5,15,2,13"
14815,commdev-image-keyboard-response,494,1446952,learnblock2,1077.4000000059605,img/planet14_right.png,14,Community 2,NA,TRUE,j,j,NA,NA,NA,2,7,"7,1,9,10,8,3,4,6,11,14,12,5,15,2,13"
14815,commdev-image-keyboard-response,495,1448205,learnblock2,877.5,img/planet6_left.png,6,Community 2,NA,TRUE,f,f,NA,NA,NA,2,7,"7,1,9,10,8,3,4,6,11,14,12,5,15,2,13"
14815,commdev-image-keyboard-response,496,1449462,learnblock2,1048.7999999821186,img/planet5_left.png,5,Community 3,NA,TRUE,f,f,NA,NA,NA,2,7,"7,1,9,10,8,3,4,6,11,14,12,5,15,2,13"
14815,commdev-image-keyboard-response,497,1450724,learnblock2,1164.4000000059605,img/planet6_left.png,6,Community 2,NA,TRUE,f,f,NA,NA,NA,2,7,"7,1,9,10,8,3,4,6,11,14,12,5,15,2,13"
14815,commdev-image-keyboard-response,498,1451979,learnblock2,1079.5,img/planet5_right.png,5,Community 3,NA,TRUE,j,j,NA,NA,NA,2,7,"7,1,9,10,8,3,4,6,11,14,12,5,15,2,13"
14815,commdev-image-keyboard-response,499,1453238,learnblock2,1118,img/planet6_right.png,6,Community 2,NA,TRUE,j,j,NA,NA,NA,2,7,"7,1,9,10,8,3,4,6,11,14,12,5,15,2,13"
14815,commdev-image-keyboard-response,500,1454498,learnblock2,955.5999999940395,img/planet14_left.png,14,Community 2,NA,TRUE,f,f,NA,NA,NA,2,7,"7,1,9,10,8,3,4,6,11,14,12,5,15,2,13"
14815,commdev-image-keyboard-response,501,1455749,learnblock2,1177.7999999821186,img/planet11_left.png,11,Community 2,NA,TRUE,f,f,NA,NA,NA,2,7,"7,1,9,10,8,3,4,6,11,14,12,5,15,2,13"
14815,commdev-image-keyboard-response,502,1457004,learnblock2,1170.0999999940395,img/planet4_left.png,4,Community 2,NA,TRUE,f,f,NA,NA,NA,2,7,"7,1,9,10,8,3,4,6,11,14,12,5,15,2,13"
14815,commdev-image-keyboard-response,503,1458256,learnblock2,null,img/planet11_left.png,11,Community 2,NA,FALSE,null,f,NA,NA,NA,2,7,"7,1,9,10,8,3,4,6,11,14,12,5,15,2,13"
14815,commdev-image-keyboard-response,504,1459513,learnblock2,84.7000000178814,img/planet14_left.png,14,Community 2,NA,TRUE,f,f,NA,NA,NA,2,7,"7,1,9,10,8,3,4,6,11,14,12,5,15,2,13"
14815,commdev-image-keyboard-response,505,1460770,learnblock2,101.5,img/planet11_left.png,11,Community 2,NA,TRUE,f,f,NA,NA,NA,2,7,"7,1,9,10,8,3,4,6,11,14,12,5,15,2,13"
14815,commdev-image-keyboard-response,506,1462025,learnblock2,25.299999982118607,img/planet6_right.png,6,Community 2,NA,FALSE,f,j,NA,NA,NA,2,7,"7,1,9,10,8,3,4,6,11,14,12,5,15,2,13"
14815,commdev-image-keyboard-response,507,1463285,learnblock2,888.5999999940395,img/planet5_right.png,5,Community 3,NA,TRUE,j,j,NA,NA,NA,2,7,"7,1,9,10,8,3,4,6,11,14,12,5,15,2,13"
14815,commdev-image-keyboard-response,508,1464547,learnblock2,912.2000000178814,img/planet2_left.png,2,Community 3,NA,TRUE,f,f,NA,NA,NA,2,7,"7,1,9,10,8,3,4,6,11,14,12,5,15,2,13"
14815,commdev-image-keyboard-response,509,1465805,learnblock2,967.5,img/planet5_left.png,5,Community 3,NA,FALSE,j,f,NA,NA,NA,2,7,"7,1,9,10,8,3,4,6,11,14,12,5,15,2,13"
14815,commdev-image-keyboard-response,510,1467064,learnblock2,1063.5,img/planet2_right.png,2,Community 3,NA,FALSE,f,j,NA,NA,NA,2,7,"7,1,9,10,8,3,4,6,11,14,12,5,15,2,13"
14815,commdev-image-keyboard-response,511,1468318,learnblock2,987.3000000119209,img/planet15_left.png,15,Community 3,NA,TRUE,f,f,NA,NA,NA,2,7,"7,1,9,10,8,3,4,6,11,14,12,5,15,2,13"
14815,commdev-image-keyboard-response,512,1469575,learnblock2,1017.3000000119209,img/planet5_left.png,5,Community 3,NA,TRUE,f,f,NA,NA,NA,2,7,"7,1,9,10,8,3,4,6,11,14,12,5,15,2,13"
14815,commdev-image-keyboard-response,513,1470834,learnblock2,1079.5999999940395,img/planet2_left.png,2,Community 3,NA,TRUE,f,f,NA,NA,NA,2,7,"7,1,9,10,8,3,4,6,11,14,12,5,15,2,13"
14815,commdev-image-keyboard-response,514,1472087,learnblock2,948.7999999821186,img/planet5_right.png,5,Community 3,NA,TRUE,j,j,NA,NA,NA,2,7,"7,1,9,10,8,3,4,6,11,14,12,5,15,2,13"
14815,commdev-image-keyboard-response,515,1473342,learnblock2,1175.5999999940395,img/planet2_right.png,2,Community 3,NA,FALSE,f,j,NA,NA,NA,2,7,"7,1,9,10,8,3,4,6,11,14,12,5,15,2,13"
14815,commdev-image-keyboard-response,516,1474604,learnblock2,952.1999999880791,img/planet15_right.png,15,Community 3,NA,TRUE,j,j,NA,NA,NA,2,7,"7,1,9,10,8,3,4,6,11,14,12,5,15,2,13"
14815,commdev-image-keyboard-response,517,1475865,learnblock2,864.8000000119209,img/planet13_right.png,13,Community 3,NA,TRUE,j,j,NA,NA,NA,2,7,"7,1,9,10,8,3,4,6,11,14,12,5,15,2,13"
14815,commdev-image-keyboard-response,518,1477125,learnblock2,1109.0999999940395,img/planet5_left.png,5,Community 3,NA,TRUE,f,f,NA,NA,NA,2,7,"7,1,9,10,8,3,4,6,11,14,12,5,15,2,13"
14815,commdev-image-keyboard-response,519,1478380,learnblock2,1134.5,img/planet13_left.png,13,Community 3,NA,TRUE,f,f,NA,NA,NA,2,7,"7,1,9,10,8,3,4,6,11,14,12,5,15,2,13"
14815,commdev-image-keyboard-response,520,1479635,learnblock2,1157.5,img/planet5_left.png,5,Community 3,NA,TRUE,f,f,NA,NA,NA,2,7,"7,1,9,10,8,3,4,6,11,14,12,5,15,2,13"
14815,commdev-image-keyboard-response,521,1480896,learnblock2,1116.5999999940395,img/planet13_right.png,13,Community 3,NA,TRUE,j,j,NA,NA,NA,2,7,"7,1,9,10,8,3,4,6,11,14,12,5,15,2,13"
14815,commdev-image-keyboard-response,522,1482153,learnblock2,1047.800000011921,img/planet5_right.png,5,Community 3,NA,TRUE,j,j,NA,NA,NA,2,7,"7,1,9,10,8,3,4,6,11,14,12,5,15,2,13"
14815,commdev-image-keyboard-response,523,1483414,learnblock2,1087,img/planet15_right.png,15,Community 3,NA,TRUE,j,j,NA,NA,NA,2,7,"7,1,9,10,8,3,4,6,11,14,12,5,15,2,13"
14815,commdev-image-keyboard-response,524,1484669,learnblock2,null,img/planet12_left.png,12,Community 3,NA,FALSE,null,f,NA,NA,NA,2,7,"7,1,9,10,8,3,4,6,11,14,12,5,15,2,13"
14815,commdev-image-keyboard-response,525,1485923,learnblock2,9.799999982118607,img/planet2_right.png,2,Community 3,NA,FALSE,f,j,NA,NA,NA,2,7,"7,1,9,10,8,3,4,6,11,14,12,5,15,2,13"
14815,commdev-image-keyboard-response,526,1487182,learnblock2,1207.2000000178814,img/planet12_right.png,12,Community 3,NA,TRUE,j,j,NA,NA,NA,2,7,"7,1,9,10,8,3,4,6,11,14,12,5,15,2,13"
14815,commdev-image-keyboard-response,527,1488439,learnblock2,null,img/planet2_right.png,2,Community 3,NA,FALSE,null,j,NA,NA,NA,2,7,"7,1,9,10,8,3,4,6,11,14,12,5,15,2,13"
14815,commdev-image-keyboard-response,528,1489694,learnblock2,126.19999998807907,img/planet13_left.png,13,Community 3,NA,FALSE,j,f,NA,NA,NA,2,7,"7,1,9,10,8,3,4,6,11,14,12,5,15,2,13"
14815,commdev-image-keyboard-response,529,1490951,learnblock2,886.2000000178814,img/planet5_right.png,5,Community 3,NA,TRUE,j,j,NA,NA,NA,2,7,"7,1,9,10,8,3,4,6,11,14,12,5,15,2,13"
14815,commdev-image-keyboard-response,530,1492212,learnblock2,909.1000000238419,img/planet15_right.png,15,Community 3,NA,TRUE,j,j,NA,NA,NA,2,7,"7,1,9,10,8,3,4,6,11,14,12,5,15,2,13"
14815,commdev-image-keyboard-response,531,1493464,learnblock2,1081.7999999821186,img/planet2_right.png,2,Community 3,NA,TRUE,j,j,NA,NA,NA,2,7,"7,1,9,10,8,3,4,6,11,14,12,5,15,2,13"
14815,commdev-image-keyboard-response,532,1494722,learnblock2,920.6999999880791,img/planet13_left.png,13,Community 3,NA,TRUE,f,f,NA,NA,NA,2,7,"7,1,9,10,8,3,4,6,11,14,12,5,15,2,13"
14815,commdev-image-keyboard-response,533,1495978,learnblock2,1051.0999999940395,img/planet5_left.png,5,Community 3,NA,FALSE,j,f,NA,NA,NA,2,7,"7,1,9,10,8,3,4,6,11,14,12,5,15,2,13"
14815,commdev-image-keyboard-response,534,1497234,learnblock2,1041.300000011921,img/planet6_right.png,6,Community 2,NA,TRUE,j,j,NA,NA,NA,2,7,"7,1,9,10,8,3,4,6,11,14,12,5,15,2,13"
14815,commdev-image-keyboard-response,535,1498488,learnblock2,1040,img/planet11_left.png,11,Community 2,NA,TRUE,f,f,NA,NA,NA,2,7,"7,1,9,10,8,3,4,6,11,14,12,5,15,2,13"
14815,commdev-image-keyboard-response,536,1499743,learnblock2,1077.8999999761581,img/planet3_right.png,3,Community 2,NA,TRUE,j,j,NA,NA,NA,2,7,"7,1,9,10,8,3,4,6,11,14,12,5,15,2,13"
14815,commdev-image-keyboard-response,537,1500998,learnblock2,1222.800000011921,img/planet11_left.png,11,Community 2,NA,TRUE,f,f,NA,NA,NA,2,7,"7,1,9,10,8,3,4,6,11,14,12,5,15,2,13"
14815,commdev-image-keyboard-response,538,1502255,learnblock2,1224.1000000238419,img/planet6_right.png,6,Community 2,NA,TRUE,j,j,NA,NA,NA,2,7,"7,1,9,10,8,3,4,6,11,14,12,5,15,2,13"
14815,commdev-image-keyboard-response,539,1503514,learnblock2,1141.699999988079,img/planet4_right.png,4,Community 2,NA,TRUE,j,j,NA,NA,NA,2,7,"7,1,9,10,8,3,4,6,11,14,12,5,15,2,13"
14815,commdev-image-keyboard-response,540,1504774,learnblock2,1099,img/planet6_left.png,6,Community 2,NA,TRUE,f,f,NA,NA,NA,2,7,"7,1,9,10,8,3,4,6,11,14,12,5,15,2,13"
14815,commdev-image-keyboard-response,541,1506026,learnblock2,1192.7000000178814,img/planet5_left.png,5,Community 3,NA,TRUE,f,f,NA,NA,NA,2,7,"7,1,9,10,8,3,4,6,11,14,12,5,15,2,13"
14815,commdev-image-keyboard-response,542,1507278,learnblock2,1173.0999999940395,img/planet15_left.png,15,Community 3,NA,FALSE,j,f,NA,NA,NA,2,7,"7,1,9,10,8,3,4,6,11,14,12,5,15,2,13"
14815,commdev-image-keyboard-response,543,1508534,learnblock2,1089.9000000059605,img/planet12_right.png,12,Community 3,NA,TRUE,j,j,NA,NA,NA,2,7,"7,1,9,10,8,3,4,6,11,14,12,5,15,2,13"
14815,commdev-image-keyboard-response,544,1509786,learnblock2,1089.8999999761581,img/planet15_right.png,15,Community 3,NA,TRUE,j,j,NA,NA,NA,2,7,"7,1,9,10,8,3,4,6,11,14,12,5,15,2,13"
14815,commdev-image-keyboard-response,545,1511045,learnblock2,1193.800000011921,img/planet12_left.png,12,Community 3,NA,TRUE,f,f,NA,NA,NA,2,7,"7,1,9,10,8,3,4,6,11,14,12,5,15,2,13"
14815,commdev-image-keyboard-response,546,1512305,learnblock2,1119.3999999761581,img/planet15_right.png,15,Community 3,NA,TRUE,j,j,NA,NA,NA,2,7,"7,1,9,10,8,3,4,6,11,14,12,5,15,2,13"
14815,commdev-image-keyboard-response,547,1513565,learnblock2,1174.800000011921,img/planet12_left.png,12,Community 3,NA,TRUE,f,f,NA,NA,NA,2,7,"7,1,9,10,8,3,4,6,11,14,12,5,15,2,13"
14815,commdev-image-keyboard-response,548,1514826,learnblock2,1145.9000000059605,img/planet15_right.png,15,Community 3,NA,TRUE,j,j,NA,NA,NA,2,7,"7,1,9,10,8,3,4,6,11,14,12,5,15,2,13"
14815,commdev-image-keyboard-response,549,1516081,learnblock2,1195.5,img/planet2_right.png,2,Community 3,NA,TRUE,j,j,NA,NA,NA,2,7,"7,1,9,10,8,3,4,6,11,14,12,5,15,2,13"
14815,commdev-image-keyboard-response,550,1517344,learnblock2,null,img/planet15_left.png,15,Community 3,NA,FALSE,null,f,NA,NA,NA,2,7,"7,1,9,10,8,3,4,6,11,14,12,5,15,2,13"
14815,commdev-image-keyboard-response,551,1518603,learnblock2,90.2999999821186,img/planet5_left.png,5,Community 3,NA,TRUE,f,f,NA,NA,NA,2,7,"7,1,9,10,8,3,4,6,11,14,12,5,15,2,13"
14815,commdev-image-keyboard-response,552,1519857,learnblock2,1228,img/planet2_left.png,2,Community 3,NA,TRUE,f,f,NA,NA,NA,2,7,"7,1,9,10,8,3,4,6,11,14,12,5,15,2,13"
14815,commdev-image-keyboard-response,553,1521109,learnblock2,1106.5999999940395,img/planet5_left.png,5,Community 3,NA,TRUE,f,f,NA,NA,NA,2,7,"7,1,9,10,8,3,4,6,11,14,12,5,15,2,13"
14815,commdev-image-keyboard-response,554,1522374,learnblock2,1164.699999988079,img/planet6_right.png,6,Community 2,NA,TRUE,j,j,NA,NA,NA,2,7,"7,1,9,10,8,3,4,6,11,14,12,5,15,2,13"
14815,commdev-image-keyboard-response,555,1523635,learnblock2,null,img/planet14_left.png,14,Community 2,NA,FALSE,null,f,NA,NA,NA,2,7,"7,1,9,10,8,3,4,6,11,14,12,5,15,2,13"
14815,commdev-image-keyboard-response,556,1524893,learnblock2,1168.2999999821186,img/planet4_left.png,4,Community 2,NA,TRUE,f,f,NA,NA,NA,2,7,"7,1,9,10,8,3,4,6,11,14,12,5,15,2,13"
14815,commdev-image-keyboard-response,557,1526154,learnblock2,930.4000000059605,img/planet3_right.png,3,Community 2,NA,TRUE,j,j,NA,NA,NA,2,7,"7,1,9,10,8,3,4,6,11,14,12,5,15,2,13"
14815,commdev-image-keyboard-response,558,1527414,learnblock2,1108,img/planet14_right.png,14,Community 2,NA,FALSE,f,j,NA,NA,NA,2,7,"7,1,9,10,8,3,4,6,11,14,12,5,15,2,13"
14815,commdev-image-keyboard-response,559,1528671,learnblock2,985.6000000238419,img/planet6_right.png,6,Community 2,NA,TRUE,j,j,NA,NA,NA,2,7,"7,1,9,10,8,3,4,6,11,14,12,5,15,2,13"
14815,commdev-image-keyboard-response,560,1529924,learnblock2,1193.199999988079,img/planet14_left.png,14,Community 2,NA,TRUE,f,f,NA,NA,NA,2,7,"7,1,9,10,8,3,4,6,11,14,12,5,15,2,13"
14815,commdev-image-keyboard-response,561,1531182,learnblock2,1163.199999988079,img/planet3_left.png,3,Community 2,NA,FALSE,j,f,NA,NA,NA,2,7,"7,1,9,10,8,3,4,6,11,14,12,5,15,2,13"
14815,commdev-image-keyboard-response,562,1532435,learnblock2,1235.0999999940395,img/planet14_right.png,14,Community 2,NA,TRUE,j,j,NA,NA,NA,2,7,"7,1,9,10,8,3,4,6,11,14,12,5,15,2,13"
14815,commdev-image-keyboard-response,563,1533690,learnblock2,1208.199999988079,img/planet6_right.png,6,Community 2,NA,FALSE,f,j,NA,NA,NA,2,7,"7,1,9,10,8,3,4,6,11,14,12,5,15,2,13"
14815,commdev-image-keyboard-response,564,1534950,learnblock2,null,img/planet4_right.png,4,Community 2,NA,FALSE,null,j,NA,NA,NA,2,7,"7,1,9,10,8,3,4,6,11,14,12,5,15,2,13"
14815,commdev-image-keyboard-response,565,1536212,learnblock2,34,img/planet14_left.png,14,Community 2,NA,TRUE,f,f,NA,NA,NA,2,7,"7,1,9,10,8,3,4,6,11,14,12,5,15,2,13"
14815,commdev-image-keyboard-response,566,1537468,learnblock2,17.5,img/planet4_right.png,4,Community 2,NA,FALSE,f,j,NA,NA,NA,2,7,"7,1,9,10,8,3,4,6,11,14,12,5,15,2,13"
14815,commdev-image-keyboard-response,567,1538725,learnblock2,1195.5,img/planet11_right.png,11,Community 2,NA,TRUE,j,j,NA,NA,NA,2,7,"7,1,9,10,8,3,4,6,11,14,12,5,15,2,13"
14815,commdev-image-keyboard-response,568,1539987,learnblock2,1188.4000000059605,img/planet14_left.png,14,Community 2,NA,FALSE,j,f,NA,NA,NA,2,7,"7,1,9,10,8,3,4,6,11,14,12,5,15,2,13"
14815,commdev-image-keyboard-response,569,1541243,learnblock2,1124.3999999761581,img/planet3_right.png,3,Community 2,NA,TRUE,j,j,NA,NA,NA,2,7,"7,1,9,10,8,3,4,6,11,14,12,5,15,2,13"
14815,commdev-image-keyboard-response,570,1542505,learnblock2,null,img/planet4_right.png,4,Community 2,NA,FALSE,null,j,NA,NA,NA,2,7,"7,1,9,10,8,3,4,6,11,14,12,5,15,2,13"
14815,commdev-image-keyboard-response,571,1543759,learnblock2,10.900000005960464,img/planet14_left.png,14,Community 2,NA,FALSE,j,f,NA,NA,NA,2,7,"7,1,9,10,8,3,4,6,11,14,12,5,15,2,13"
14815,commdev-image-keyboard-response,572,1545017,learnblock2,183.80000001192093,img/planet11_right.png,11,Community 2,NA,FALSE,f,j,NA,NA,NA,2,7,"7,1,9,10,8,3,4,6,11,14,12,5,15,2,13"
14815,commdev-image-keyboard-response,573,1546273,learnblock2,1125.7999999821186,img/planet3_right.png,3,Community 2,NA,TRUE,j,j,NA,NA,NA,2,7,"7,1,9,10,8,3,4,6,11,14,12,5,15,2,13"
14815,commdev-image-keyboard-response,574,1547527,learnblock2,970.3000000119209,img/planet10_left.png,10,Community 1,NA,TRUE,f,f,NA,NA,NA,2,7,"7,1,9,10,8,3,4,6,11,14,12,5,15,2,13"
14815,commdev-image-keyboard-response,575,1548779,learnblock2,1025.0999999940395,img/planet1_left.png,1,Community 1,NA,FALSE,j,f,NA,NA,NA,2,7,"7,1,9,10,8,3,4,6,11,14,12,5,15,2,13"
14815,commdev-image-keyboard-response,576,1550036,learnblock2,985.9000000059605,img/planet10_left.png,10,Community 1,NA,TRUE,f,f,NA,NA,NA,2,7,"7,1,9,10,8,3,4,6,11,14,12,5,15,2,13"
14815,commdev-image-keyboard-response,577,1551289,learnblock2,788.1000000238419,img/planet7_right.png,7,Community 1,NA,TRUE,j,j,NA,NA,NA,2,7,"7,1,9,10,8,3,4,6,11,14,12,5,15,2,13"
14815,commdev-image-keyboard-response,578,1552545,learnblock2,1063.0999999940395,img/planet8_right.png,8,Community 1,NA,TRUE,j,j,NA,NA,NA,2,7,"7,1,9,10,8,3,4,6,11,14,12,5,15,2,13"
14815,commdev-image-keyboard-response,579,1553807,learnblock2,1023.0999999940395,img/planet1_left.png,1,Community 1,NA,TRUE,f,f,NA,NA,NA,2,7,"7,1,9,10,8,3,4,6,11,14,12,5,15,2,13"
14815,commdev-image-keyboard-response,580,1555070,learnblock2,null,img/planet10_right.png,10,Community 1,NA,FALSE,null,j,NA,NA,NA,2,7,"7,1,9,10,8,3,4,6,11,14,12,5,15,2,13"
14815,commdev-image-keyboard-response,581,1556328,learnblock2,30.900000005960464,img/planet7_left.png,7,Community 1,NA,FALSE,j,f,NA,NA,NA,2,7,"7,1,9,10,8,3,4,6,11,14,12,5,15,2,13"
14815,commdev-image-keyboard-response,582,1557586,learnblock2,1042,img/planet9_left.png,9,Community 1,NA,TRUE,f,f,NA,NA,NA,2,7,"7,1,9,10,8,3,4,6,11,14,12,5,15,2,13"
14815,commdev-image-keyboard-response,583,1558846,learnblock2,1070.7999999821186,img/planet1_left.png,1,Community 1,NA,TRUE,f,f,NA,NA,NA,2,7,"7,1,9,10,8,3,4,6,11,14,12,5,15,2,13"
14815,commdev-image-keyboard-response,584,1560104,learnblock2,938.1999999880791,img/planet8_right.png,8,Community 1,NA,TRUE,j,j,NA,NA,NA,2,7,"7,1,9,10,8,3,4,6,11,14,12,5,15,2,13"
14815,commdev-image-keyboard-response,585,1561364,learnblock2,997.0999999940395,img/planet12_left.png,12,Community 3,NA,TRUE,f,f,NA,NA,NA,2,7,"7,1,9,10,8,3,4,6,11,14,12,5,15,2,13"
14815,commdev-image-keyboard-response,586,1562621,learnblock2,1157.5,img/planet8_left.png,8,Community 1,NA,TRUE,f,f,NA,NA,NA,2,7,"7,1,9,10,8,3,4,6,11,14,12,5,15,2,13"
14815,commdev-image-keyboard-response,587,1563882,learnblock2,1134.7999999821186,img/planet12_right.png,12,Community 3,NA,TRUE,j,j,NA,NA,NA,2,7,"7,1,9,10,8,3,4,6,11,14,12,5,15,2,13"
14815,commdev-image-keyboard-response,588,1565146,learnblock2,874.0999999940395,img/planet8_left.png,8,Community 1,NA,TRUE,f,f,NA,NA,NA,2,7,"7,1,9,10,8,3,4,6,11,14,12,5,15,2,13"
14815,commdev-image-keyboard-response,589,1566402,learnblock2,967.2999999821186,img/planet9_right.png,9,Community 1,NA,TRUE,j,j,NA,NA,NA,2,7,"7,1,9,10,8,3,4,6,11,14,12,5,15,2,13"
14815,commdev-image-keyboard-response,590,1567658,learnblock2,1178.4000000059605,img/planet1_right.png,1,Community 1,NA,TRUE,j,j,NA,NA,NA,2,7,"7,1,9,10,8,3,4,6,11,14,12,5,15,2,13"
14815,commdev-image-keyboard-response,591,1568917,learnblock2,1233.5999999940395,img/planet7_right.png,7,Community 1,NA,TRUE,j,j,NA,NA,NA,2,7,"7,1,9,10,8,3,4,6,11,14,12,5,15,2,13"
14815,commdev-image-keyboard-response,592,1570174,learnblock2,1077.800000011921,img/planet10_left.png,10,Community 1,NA,TRUE,f,f,NA,NA,NA,2,7,"7,1,9,10,8,3,4,6,11,14,12,5,15,2,13"
14815,commdev-image-keyboard-response,593,1571435,learnblock2,1104.800000011921,img/planet9_left.png,9,Community 1,NA,TRUE,f,f,NA,NA,NA,2,7,"7,1,9,10,8,3,4,6,11,14,12,5,15,2,13"
14815,commdev-image-keyboard-response,594,1572694,learnblock2,1003,img/planet8_right.png,8,Community 1,NA,TRUE,j,j,NA,NA,NA,2,7,"7,1,9,10,8,3,4,6,11,14,12,5,15,2,13"
14815,commdev-image-keyboard-response,595,1573956,learnblock2,1136,img/planet12_right.png,12,Community 3,NA,TRUE,j,j,NA,NA,NA,2,7,"7,1,9,10,8,3,4,6,11,14,12,5,15,2,13"
14815,commdev-image-keyboard-response,596,1575212,learnblock2,1089.800000011921,img/planet2_right.png,2,Community 3,NA,TRUE,j,j,NA,NA,NA,2,7,"7,1,9,10,8,3,4,6,11,14,12,5,15,2,13"
14815,commdev-image-keyboard-response,597,1576471,learnblock2,925.3000000119209,img/planet13_left.png,13,Community 3,NA,TRUE,f,f,NA,NA,NA,2,7,"7,1,9,10,8,3,4,6,11,14,12,5,15,2,13"
14815,commdev-image-keyboard-response,598,1577728,learnblock2,933.5999999940395,img/planet5_right.png,5,Community 3,NA,TRUE,j,j,NA,NA,NA,2,7,"7,1,9,10,8,3,4,6,11,14,12,5,15,2,13"
14815,commdev-image-keyboard-response,599,1578983,learnblock2,908.5999999940395,img/planet13_left.png,13,Community 3,NA,TRUE,f,f,NA,NA,NA,2,7,"7,1,9,10,8,3,4,6,11,14,12,5,15,2,13"
14815,commdev-image-keyboard-response,600,1580238,learnblock2,871.7999999821186,img/planet5_right.png,5,Community 3,NA,TRUE,j,j,NA,NA,NA,2,7,"7,1,9,10,8,3,4,6,11,14,12,5,15,2,13"
14815,commdev-image-keyboard-response,601,1581496,learnblock2,944,img/planet15_right.png,15,Community 3,NA,TRUE,j,j,NA,NA,NA,2,7,"7,1,9,10,8,3,4,6,11,14,12,5,15,2,13"
14815,commdev-image-keyboard-response,602,1582769,learnblock2,867.5,img/planet13_left.png,13,Community 3,NA,TRUE,f,f,NA,NA,NA,2,7,"7,1,9,10,8,3,4,6,11,14,12,5,15,2,13"
14815,commdev-image-keyboard-response,603,1584031,learnblock2,850,img/planet2_right.png,2,Community 3,NA,TRUE,j,j,NA,NA,NA,2,7,"7,1,9,10,8,3,4,6,11,14,12,5,15,2,13"
14815,commdev-image-keyboard-response,604,1585287,learnblock2,1072.300000011921,img/planet15_right.png,15,Community 3,NA,TRUE,j,j,NA,NA,NA,2,7,"7,1,9,10,8,3,4,6,11,14,12,5,15,2,13"
14815,commdev-image-keyboard-response,605,1586546,learnblock2,1233.800000011921,img/planet2_right.png,2,Community 3,NA,FALSE,f,j,NA,NA,NA,2,7,"7,1,9,10,8,3,4,6,11,14,12,5,15,2,13"
14815,commdev-image-keyboard-response,606,1587801,learnblock2,198.5,img/planet12_right.png,12,Community 3,NA,TRUE,j,j,NA,NA,NA,2,7,"7,1,9,10,8,3,4,6,11,14,12,5,15,2,13"
14815,commdev-image-keyboard-response,607,1589055,learnblock2,1105.199999988079,img/planet13_right.png,13,Community 3,NA,TRUE,j,j,NA,NA,NA,2,7,"7,1,9,10,8,3,4,6,11,14,12,5,15,2,13"
14815,commdev-image-keyboard-response,608,1590312,learnblock2,1100.0999999940395,img/planet12_left.png,12,Community 3,NA,FALSE,j,f,NA,NA,NA,2,7,"7,1,9,10,8,3,4,6,11,14,12,5,15,2,13"
14815,commdev-image-keyboard-response,609,1591567,learnblock2,70.10000002384186,img/planet2_right.png,2,Community 3,NA,FALSE,f,j,NA,NA,NA,2,7,"7,1,9,10,8,3,4,6,11,14,12,5,15,2,13"
14815,commdev-image-keyboard-response,610,1592827,learnblock2,1058,img/planet15_left.png,15,Community 3,NA,TRUE,f,f,NA,NA,NA,2,7,"7,1,9,10,8,3,4,6,11,14,12,5,15,2,13"
14815,commdev-image-keyboard-response,611,1594089,learnblock2,1010,img/planet5_right.png,5,Community 3,NA,TRUE,j,j,NA,NA,NA,2,7,"7,1,9,10,8,3,4,6,11,14,12,5,15,2,13"
14815,commdev-image-keyboard-response,612,1595343,learnblock2,1251.300000011921,img/planet15_right.png,15,Community 3,NA,TRUE,j,j,NA,NA,NA,2,7,"7,1,9,10,8,3,4,6,11,14,12,5,15,2,13"
14815,commdev-image-keyboard-response,613,1596599,learnblock2,1138.5,img/planet12_right.png,12,Community 3,NA,TRUE,j,j,NA,NA,NA,2,7,"7,1,9,10,8,3,4,6,11,14,12,5,15,2,13"
14815,commdev-image-keyboard-response,614,1597853,learnblock2,1064.4000000059605,img/planet2_left.png,2,Community 3,NA,TRUE,f,f,NA,NA,NA,2,7,"7,1,9,10,8,3,4,6,11,14,12,5,15,2,13"
14815,commdev-image-keyboard-response,615,1599111,learnblock2,1016.6000000238419,img/planet15_left.png,15,Community 3,NA,TRUE,f,f,NA,NA,NA,2,7,"7,1,9,10,8,3,4,6,11,14,12,5,15,2,13"
14815,commdev-image-keyboard-response,616,1600365,learnblock2,987.3999999761581,img/planet5_right.png,5,Community 3,NA,TRUE,j,j,NA,NA,NA,2,7,"7,1,9,10,8,3,4,6,11,14,12,5,15,2,13"
14815,commdev-image-keyboard-response,617,1601627,learnblock2,1084.5,img/planet2_left.png,2,Community 3,NA,TRUE,f,f,NA,NA,NA,2,7,"7,1,9,10,8,3,4,6,11,14,12,5,15,2,13"
14815,commdev-image-keyboard-response,618,1602889,learnblock2,995.8000000119209,img/planet12_right.png,12,Community 3,NA,TRUE,j,j,NA,NA,NA,2,7,"7,1,9,10,8,3,4,6,11,14,12,5,15,2,13"
14815,commdev-image-keyboard-response,619,1604144,learnblock2,1026,img/planet13_right.png,13,Community 3,NA,TRUE,j,j,NA,NA,NA,2,7,"7,1,9,10,8,3,4,6,11,14,12,5,15,2,13"
14815,commdev-image-keyboard-response,620,1605400,learnblock2,null,img/planet5_left.png,5,Community 3,NA,FALSE,null,f,NA,NA,NA,2,7,"7,1,9,10,8,3,4,6,11,14,12,5,15,2,13"
14815,commdev-image-keyboard-response,621,1606659,learnblock2,93.59999999403954,img/planet6_left.png,6,Community 2,NA,TRUE,f,f,NA,NA,NA,2,7,"7,1,9,10,8,3,4,6,11,14,12,5,15,2,13"
14815,commdev-image-keyboard-response,622,1607915,learnblock2,1248,img/planet14_right.png,14,Community 2,NA,TRUE,j,j,NA,NA,NA,2,7,"7,1,9,10,8,3,4,6,11,14,12,5,15,2,13"
14815,commdev-image-keyboard-response,623,1609176,learnblock2,1146.0999999940395,img/planet11_left.png,11,Community 2,NA,TRUE,f,f,NA,NA,NA,2,7,"7,1,9,10,8,3,4,6,11,14,12,5,15,2,13"
14815,commdev-image-keyboard-response,624,1610434,learnblock2,1099.9000000059605,img/planet4_right.png,4,Community 2,NA,TRUE,j,j,NA,NA,NA,2,7,"7,1,9,10,8,3,4,6,11,14,12,5,15,2,13"
14815,commdev-image-keyboard-response,625,1611687,learnblock2,1100.199999988079,img/planet3_right.png,3,Community 2,NA,TRUE,j,j,NA,NA,NA,2,7,"7,1,9,10,8,3,4,6,11,14,12,5,15,2,13"
14815,commdev-image-keyboard-response,626,1612947,learnblock2,1059.5,img/planet10_left.png,10,Community 1,NA,TRUE,f,f,NA,NA,NA,2,7,"7,1,9,10,8,3,4,6,11,14,12,5,15,2,13"
14815,commdev-image-keyboard-response,627,1614210,learnblock2,951.7000000178814,img/planet9_right.png,9,Community 1,NA,TRUE,j,j,NA,NA,NA,2,7,"7,1,9,10,8,3,4,6,11,14,12,5,15,2,13"
14815,commdev-image-keyboard-response,628,1615472,learnblock2,1010.7999999821186,img/planet1_right.png,1,Community 1,NA,TRUE,j,j,NA,NA,NA,2,7,"7,1,9,10,8,3,4,6,11,14,12,5,15,2,13"
14815,commdev-image-keyboard-response,629,1616729,learnblock2,1146.800000011921,img/planet7_left.png,7,Community 1,NA,FALSE,j,f,NA,NA,NA,2,7,"7,1,9,10,8,3,4,6,11,14,12,5,15,2,13"
14815,commdev-image-keyboard-response,630,1617986,learnblock2,1095.699999988079,img/planet8_right.png,8,Community 1,NA,TRUE,j,j,NA,NA,NA,2,7,"7,1,9,10,8,3,4,6,11,14,12,5,15,2,13"
14815,commdev-image-keyboard-response,631,1619241,learnblock2,921,img/planet12_left.png,12,Community 3,NA,TRUE,f,f,NA,NA,NA,2,7,"7,1,9,10,8,3,4,6,11,14,12,5,15,2,13"
14815,commdev-image-keyboard-response,632,1620499,learnblock2,925.5,img/planet15_left.png,15,Community 3,NA,TRUE,f,f,NA,NA,NA,2,7,"7,1,9,10,8,3,4,6,11,14,12,5,15,2,13"
14815,commdev-image-keyboard-response,633,1621755,learnblock2,767.7000000178814,img/planet2_right.png,2,Community 3,NA,TRUE,j,j,NA,NA,NA,2,7,"7,1,9,10,8,3,4,6,11,14,12,5,15,2,13"
14815,commdev-image-keyboard-response,634,1623006,learnblock2,867.0999999940395,img/planet15_left.png,15,Community 3,NA,TRUE,f,f,NA,NA,NA,2,7,"7,1,9,10,8,3,4,6,11,14,12,5,15,2,13"
14815,commdev-image-keyboard-response,635,1624263,learnblock2,1045.7999999821186,img/planet2_left.png,2,Community 3,NA,FALSE,j,f,NA,NA,NA,2,7,"7,1,9,10,8,3,4,6,11,14,12,5,15,2,13"
14815,commdev-image-keyboard-response,636,1625524,learnblock2,1182.2000000178814,img/planet13_right.png,13,Community 3,NA,TRUE,j,j,NA,NA,NA,2,7,"7,1,9,10,8,3,4,6,11,14,12,5,15,2,13"
14815,commdev-image-keyboard-response,637,1626788,learnblock2,92.2999999821186,img/planet12_left.png,12,Community 3,NA,TRUE,f,f,NA,NA,NA,2,7,"7,1,9,10,8,3,4,6,11,14,12,5,15,2,13"
14815,commdev-image-keyboard-response,638,1628045,learnblock2,1183.5,img/planet13_left.png,13,Community 3,NA,TRUE,f,f,NA,NA,NA,2,7,"7,1,9,10,8,3,4,6,11,14,12,5,15,2,13"
14815,commdev-image-keyboard-response,639,1629298,learnblock2,null,img/planet12_left.png,12,Community 3,NA,FALSE,null,f,NA,NA,NA,2,7,"7,1,9,10,8,3,4,6,11,14,12,5,15,2,13"
14815,commdev-image-keyboard-response,640,1630556,learnblock2,267.30000001192093,img/planet15_right.png,15,Community 3,NA,FALSE,f,j,NA,NA,NA,2,7,"7,1,9,10,8,3,4,6,11,14,12,5,15,2,13"
14815,commdev-image-keyboard-response,641,1631814,learnblock2,858.3999999761581,img/planet2_right.png,2,Community 3,NA,FALSE,f,j,NA,NA,NA,2,7,"7,1,9,10,8,3,4,6,11,14,12,5,15,2,13"
14815,commdev-image-keyboard-response,642,1633071,learnblock2,1022.9000000059605,img/planet12_left.png,12,Community 3,NA,TRUE,f,f,NA,NA,NA,2,7,"7,1,9,10,8,3,4,6,11,14,12,5,15,2,13"
14815,commdev-image-keyboard-response,643,1634333,learnblock2,875.2000000178814,img/planet2_right.png,2,Community 3,NA,TRUE,j,j,NA,NA,NA,2,7,"7,1,9,10,8,3,4,6,11,14,12,5,15,2,13"
14815,commdev-image-keyboard-response,644,1635594,learnblock2,990.5999999940395,img/planet12_right.png,12,Community 3,NA,TRUE,j,j,NA,NA,NA,2,7,"7,1,9,10,8,3,4,6,11,14,12,5,15,2,13"
14815,commdev-image-keyboard-response,645,1636846,learnblock2,1050,img/planet13_right.png,13,Community 3,NA,TRUE,j,j,NA,NA,NA,2,7,"7,1,9,10,8,3,4,6,11,14,12,5,15,2,13"
14815,commdev-image-keyboard-response,646,1638113,learnblock2,null,img/planet2_right.png,2,Community 3,NA,FALSE,null,j,NA,NA,NA,2,7,"7,1,9,10,8,3,4,6,11,14,12,5,15,2,13"
14815,commdev-image-keyboard-response,647,1639365,learnblock2,68.09999999403954,img/planet5_right.png,5,Community 3,NA,TRUE,j,j,NA,NA,NA,2,7,"7,1,9,10,8,3,4,6,11,14,12,5,15,2,13"
14815,commdev-image-keyboard-response,648,1640617,learnblock2,1003.9000000059605,img/planet15_left.png,15,Community 3,NA,TRUE,f,f,NA,NA,NA,2,7,"7,1,9,10,8,3,4,6,11,14,12,5,15,2,13"
14815,commdev-image-keyboard-response,649,1641873,learnblock2,893.5999999940395,img/planet2_right.png,2,Community 3,NA,TRUE,j,j,NA,NA,NA,2,7,"7,1,9,10,8,3,4,6,11,14,12,5,15,2,13"
14815,commdev-image-keyboard-response,650,1643126,learnblock2,784.5999999940395,img/planet13_right.png,13,Community 3,NA,TRUE,j,j,NA,NA,NA,2,7,"7,1,9,10,8,3,4,6,11,14,12,5,15,2,13"
14815,commdev-image-keyboard-response,651,1644380,learnblock2,886.0999999940395,img/planet5_left.png,5,Community 3,NA,TRUE,f,f,NA,NA,NA,2,7,"7,1,9,10,8,3,4,6,11,14,12,5,15,2,13"
14815,commdev-image-keyboard-response,652,1645639,learnblock2,1017.6000000238419,img/planet13_left.png,13,Community 3,NA,TRUE,f,f,NA,NA,NA,2,7,"7,1,9,10,8,3,4,6,11,14,12,5,15,2,13"
14815,commdev-image-keyboard-response,653,1646891,learnblock2,997.1999999880791,img/planet2_right.png,2,Community 3,NA,TRUE,j,j,NA,NA,NA,2,7,"7,1,9,10,8,3,4,6,11,14,12,5,15,2,13"
14815,commdev-image-keyboard-response,654,1648154,learnblock2,875.0999999940395,img/planet13_left.png,13,Community 3,NA,TRUE,f,f,NA,NA,NA,2,7,"7,1,9,10,8,3,4,6,11,14,12,5,15,2,13"
14815,commdev-image-keyboard-response,655,1649415,learnblock2,907.4000000059605,img/planet5_right.png,5,Community 3,NA,TRUE,j,j,NA,NA,NA,2,7,"7,1,9,10,8,3,4,6,11,14,12,5,15,2,13"
14815,commdev-image-keyboard-response,656,1650671,learnblock2,1149.9000000059605,img/planet2_left.png,2,Community 3,NA,TRUE,f,f,NA,NA,NA,2,7,"7,1,9,10,8,3,4,6,11,14,12,5,15,2,13"
14815,commdev-image-keyboard-response,657,1651923,learnblock2,1235.1000000238419,img/planet12_left.png,12,Community 3,NA,TRUE,f,f,NA,NA,NA,2,7,"7,1,9,10,8,3,4,6,11,14,12,5,15,2,13"
14815,commdev-image-keyboard-response,658,1653179,learnblock2,942.5999999940395,img/planet8_right.png,8,Community 1,NA,TRUE,j,j,NA,NA,NA,2,7,"7,1,9,10,8,3,4,6,11,14,12,5,15,2,13"
14815,commdev-image-keyboard-response,659,1654435,learnblock2,909.0999999940395,img/planet1_right.png,1,Community 1,NA,TRUE,j,j,NA,NA,NA,2,7,"7,1,9,10,8,3,4,6,11,14,12,5,15,2,13"
14815,commdev-image-keyboard-response,660,1655698,learnblock2,968.0999999940395,img/planet8_left.png,8,Community 1,NA,TRUE,f,f,NA,NA,NA,2,7,"7,1,9,10,8,3,4,6,11,14,12,5,15,2,13"
14815,commdev-image-keyboard-response,661,1656954,learnblock2,1122.800000011921,img/planet9_left.png,9,Community 1,NA,TRUE,f,f,NA,NA,NA,2,7,"7,1,9,10,8,3,4,6,11,14,12,5,15,2,13"
14815,commdev-image-keyboard-response,662,1658212,learnblock2,1084.800000011921,img/planet1_right.png,1,Community 1,NA,TRUE,j,j,NA,NA,NA,2,7,"7,1,9,10,8,3,4,6,11,14,12,5,15,2,13"
14815,commdev-image-keyboard-response,663,1659473,learnblock2,891,img/planet9_left.png,9,Community 1,NA,TRUE,f,f,NA,NA,NA,2,7,"7,1,9,10,8,3,4,6,11,14,12,5,15,2,13"
14815,commdev-image-keyboard-response,664,1660726,learnblock2,null,img/planet7_left.png,7,Community 1,NA,FALSE,null,f,NA,NA,NA,2,7,"7,1,9,10,8,3,4,6,11,14,12,5,15,2,13"
14815,commdev-image-keyboard-response,665,1661982,learnblock2,75.59999999403954,img/planet1_right.png,1,Community 1,NA,FALSE,f,j,NA,NA,NA,2,7,"7,1,9,10,8,3,4,6,11,14,12,5,15,2,13"
14815,commdev-image-keyboard-response,666,1663235,learnblock2,1068.5,img/planet7_left.png,7,Community 1,NA,TRUE,f,f,NA,NA,NA,2,7,"7,1,9,10,8,3,4,6,11,14,12,5,15,2,13"
14815,commdev-image-keyboard-response,667,1664497,learnblock2,945.3999999761581,img/planet8_right.png,8,Community 1,NA,TRUE,j,j,NA,NA,NA,2,7,"7,1,9,10,8,3,4,6,11,14,12,5,15,2,13"
14815,commdev-image-keyboard-response,668,1665754,learnblock2,1063.5,img/planet12_right.png,12,Community 3,NA,TRUE,j,j,NA,NA,NA,2,7,"7,1,9,10,8,3,4,6,11,14,12,5,15,2,13"
14815,commdev-image-keyboard-response,669,1667011,learnblock2,1006.6000000238419,img/planet13_left.png,13,Community 3,NA,TRUE,f,f,NA,NA,NA,2,7,"7,1,9,10,8,3,4,6,11,14,12,5,15,2,13"
14815,commdev-image-keyboard-response,670,1668265,learnblock2,1040,img/planet2_right.png,2,Community 3,NA,TRUE,j,j,NA,NA,NA,2,7,"7,1,9,10,8,3,4,6,11,14,12,5,15,2,13"
14815,commdev-image-keyboard-response,671,1669525,learnblock2,949.6999999880791,img/planet15_left.png,15,Community 3,NA,TRUE,f,f,NA,NA,NA,2,7,"7,1,9,10,8,3,4,6,11,14,12,5,15,2,13"
14815,commdev-image-keyboard-response,672,1670782,learnblock2,1050.7999999821186,img/planet12_left.png,12,Community 3,NA,TRUE,f,f,NA,NA,NA,2,7,"7,1,9,10,8,3,4,6,11,14,12,5,15,2,13"
14815,commdev-image-keyboard-response,673,1672033,learnblock2,1069.2999999821186,img/planet15_left.png,15,Community 3,NA,TRUE,f,f,NA,NA,NA,2,7,"7,1,9,10,8,3,4,6,11,14,12,5,15,2,13"
14815,commdev-image-keyboard-response,674,1673291,learnblock2,1086.5,img/planet2_left.png,2,Community 3,NA,TRUE,f,f,NA,NA,NA,2,7,"7,1,9,10,8,3,4,6,11,14,12,5,15,2,13"
14815,commdev-image-keyboard-response,675,1674550,learnblock2,861.2999999821186,img/planet13_right.png,13,Community 3,NA,TRUE,j,j,NA,NA,NA,2,7,"7,1,9,10,8,3,4,6,11,14,12,5,15,2,13"
14815,commdev-image-keyboard-response,676,1675807,learnblock2,973.8000000119209,img/planet15_right.png,15,Community 3,NA,TRUE,j,j,NA,NA,NA,2,7,"7,1,9,10,8,3,4,6,11,14,12,5,15,2,13"
14815,commdev-image-keyboard-response,677,1677064,learnblock2,1078.5999999940395,img/planet12_right.png,12,Community 3,NA,TRUE,j,j,NA,NA,NA,2,7,"7,1,9,10,8,3,4,6,11,14,12,5,15,2,13"
14815,commdev-image-keyboard-response,678,1678323,learnblock2,868.4000000059605,img/planet13_right.png,13,Community 3,NA,FALSE,f,j,NA,NA,NA,2,7,"7,1,9,10,8,3,4,6,11,14,12,5,15,2,13"
14815,commdev-image-keyboard-response,679,1679584,learnblock2,1047.300000011921,img/planet2_left.png,2,Community 3,NA,TRUE,f,f,NA,NA,NA,2,7,"7,1,9,10,8,3,4,6,11,14,12,5,15,2,13"
14815,commdev-image-keyboard-response,680,1680838,learnblock2,1018.1000000238419,img/planet12_right.png,12,Community 3,NA,TRUE,j,j,NA,NA,NA,2,7,"7,1,9,10,8,3,4,6,11,14,12,5,15,2,13"
14815,commdev-image-keyboard-response,681,1682093,learnblock2,1110.4000000059605,img/planet2_right.png,2,Community 3,NA,TRUE,j,j,NA,NA,NA,2,7,"7,1,9,10,8,3,4,6,11,14,12,5,15,2,13"
14815,commdev-image-keyboard-response,682,1683353,learnblock2,1100.5,img/planet12_right.png,12,Community 3,NA,TRUE,j,j,NA,NA,NA,2,7,"7,1,9,10,8,3,4,6,11,14,12,5,15,2,13"
14815,commdev-image-keyboard-response,683,1684608,learnblock2,1219.0999999940395,img/planet8_right.png,8,Community 1,NA,TRUE,j,j,NA,NA,NA,2,7,"7,1,9,10,8,3,4,6,11,14,12,5,15,2,13"
14815,commdev-image-keyboard-response,684,1685868,learnblock2,null,img/planet9_right.png,9,Community 1,NA,FALSE,null,j,NA,NA,NA,2,7,"7,1,9,10,8,3,4,6,11,14,12,5,15,2,13"
14815,commdev-image-keyboard-response,685,1687125,learnblock2,0.699999988079071,img/planet1_right.png,1,Community 1,NA,TRUE,j,j,NA,NA,NA,2,7,"7,1,9,10,8,3,4,6,11,14,12,5,15,2,13"
14815,commdev-image-keyboard-response,686,1688389,learnblock2,84.5,img/planet7_right.png,7,Community 1,NA,TRUE,j,j,NA,NA,NA,2,7,"7,1,9,10,8,3,4,6,11,14,12,5,15,2,13"
14815,commdev-image-keyboard-response,687,1689647,learnblock2,1116.199999988079,img/planet8_left.png,8,Community 1,NA,FALSE,j,f,NA,NA,NA,2,7,"7,1,9,10,8,3,4,6,11,14,12,5,15,2,13"
14815,commdev-image-keyboard-response,688,1690907,learnblock2,178.69999998807907,img/planet9_left.png,9,Community 1,NA,TRUE,f,f,NA,NA,NA,2,7,"7,1,9,10,8,3,4,6,11,14,12,5,15,2,13"
