subject_id,trial_type,trial_index,time_elapsed,block,rt,stimulus,planet,community,response,correct,key_press,learning_correct_response,parse,init_locations,final_locations,browser_interactions,num_comp,planet_map
14816,commdev-instructions,7,278240,NA,1184.0999999642372,"<p>In this game, you are a scientist on board a space shuttle. </p><p> On each mission, you will visit planets all across the universe.</p><img src=""img/controlroom.jpg"" width=300vw>",NA,NA,NA,NA,NA,NA,NA,NA,NA,3,6,"5,15,7,10,9,12,1,6,14,2,11,8,13,3,4"
14816,commdev-instructions,8,281677,NA,1370.6000000238419,"<p>Here are a few planets you might see:</p><img src=""img/practice1.png"" width=200vw><img src=""img/practice2.png"" width=200vw><img src=""img/practice3.png"" width=200vw>",NA,NA,NA,NA,NA,NA,NA,NA,NA,3,6,"5,15,7,10,9,12,1,6,14,2,11,8,13,3,4"
14816,commdev-instructions,9,322413,NA,33326.89999997616,"<p>Your job as a scientist is to record which direction the winds are moving on each planet.</p><p>There are two types of wind directions:</p><img src=""img/practice1_left.png"" width=200vw><img src=""img/practice1_right.png"" width=200vw>",NA,NA,NA,NA,NA,NA,NA,NA,NA,3,6,"5,15,7,10,9,12,1,6,14,2,11,8,13,3,4"
14816,commdev-instructions,10,330348,NA,3038.5,"<p>If the winds are moving this way, press the letter <strong>F</strong> on the keyboard as fast as you can.</p><img src=""img/leftwind.png"" width=250vw>",NA,NA,NA,NA,NA,NA,NA,NA,NA,3,6,"5,15,7,10,9,12,1,6,14,2,11,8,13,3,4"
14816,commdev-instructions,11,351814,NA,16962.5,"<p>If the winds are moving this way, press the letter <strong>J</strong> on the keyboard as fast as you can.</p><img src=""img/rightwind.png"" width=350vw>",NA,NA,NA,NA,NA,NA,NA,NA,NA,3,6,"5,15,7,10,9,12,1,6,14,2,11,8,13,3,4"
14816,commdev-instructions,12,358031,NA,1789.699999988079,<p>You will have 1 second to respond. Try to respond before the time runs out!,NA,NA,NA,NA,NA,NA,NA,NA,NA,3,6,"5,15,7,10,9,12,1,6,14,2,11,8,13,3,4"
14816,commdev-instructions,13,366265,NA,2793.699999988079,<p>The planets you will visit will look different from each other.</p><p>You should respond <strong>only</strong> based on wind direction.,NA,NA,NA,NA,NA,NA,NA,NA,NA,3,6,"5,15,7,10,9,12,1,6,14,2,11,8,13,3,4"
14816,commdev-instructions,14,372587,NA,1144.699999988079,"<p> Ready to start the practice round? </p><p> Remember, press <strong>F</strong> or <strong>J</strong> depending on the wind direction.<br><img src=""img/categorize_planet_example.png""",NA,NA,NA,NA,NA,NA,NA,NA,NA,3,6,"5,15,7,10,9,12,1,6,14,2,11,8,13,3,4"
14816,commdev-instructions,26,453372,NA,28195.200000047684,"<p>Great, now try a short practice mission. </p><p> This time, you will have 1 second to respond and you won't know whether you pressed the right or wrong key for each planet.</p>",NA,NA,NA,NA,NA,NA,NA,NA,NA,3,6,"5,15,7,10,9,12,1,6,14,2,11,8,13,3,4"
14816,commdev-image-keyboard-response,27,454746,practice,519.8999999761581,img/practice2_left.png,NA,Number not found in mappings,NA,TRUE,f,f,NA,NA,NA,3,6,"5,15,7,10,9,12,1,6,14,2,11,8,13,3,4"
14816,commdev-image-keyboard-response,28,456004,practice,874.6999999880791,img/practice3_right.png,NA,Number not found in mappings,NA,TRUE,j,j,NA,NA,NA,3,6,"5,15,7,10,9,12,1,6,14,2,11,8,13,3,4"
14816,commdev-image-keyboard-response,29,457260,practice,543.5,img/practice4_left.png,NA,Number not found in mappings,NA,TRUE,f,f,NA,NA,NA,3,6,"5,15,7,10,9,12,1,6,14,2,11,8,13,3,4"
14816,commdev-image-keyboard-response,30,458516,practice,646,img/practice2_left.png,NA,Number not found in mappings,NA,TRUE,f,f,NA,NA,NA,3,6,"5,15,7,10,9,12,1,6,14,2,11,8,13,3,4"
14816,commdev-image-keyboard-response,31,459774,practice,445.39999997615814,img/practice4_left.png,NA,Number not found in mappings,NA,TRUE,f,f,NA,NA,NA,3,6,"5,15,7,10,9,12,1,6,14,2,11,8,13,3,4"
14816,commdev-image-keyboard-response,32,461034,practice,634.3999999761581,img/practice1_right.png,NA,Number not found in mappings,NA,TRUE,j,j,NA,NA,NA,3,6,"5,15,7,10,9,12,1,6,14,2,11,8,13,3,4"
14816,commdev-image-keyboard-response,33,462298,practice,449.60000002384186,img/practice4_left.png,NA,Number not found in mappings,NA,TRUE,f,f,NA,NA,NA,3,6,"5,15,7,10,9,12,1,6,14,2,11,8,13,3,4"
14816,commdev-image-keyboard-response,34,463561,practice,642.9000000357628,img/practice3_left.png,NA,Number not found in mappings,NA,TRUE,f,f,NA,NA,NA,3,6,"5,15,7,10,9,12,1,6,14,2,11,8,13,3,4"
14816,commdev-instructions,35,550881,NA,77608.80000001192,"<p>Great job with the practice round.</p><p>During real missions, you won't know whether you pressed the right or wrong key for each planet.</p><p>But between missions, we will tell you how you did overall.</p>",NA,NA,NA,NA,NA,NA,NA,NA,NA,3,6,"5,15,7,10,9,12,1,6,14,2,11,8,13,3,4"
14816,commdev-instructions,36,561101,NA,1370.1000000238419,<p>Try your best! You will be paid a bonus based on how many correct responses you make!</p><p>Responses that are too slow will not count toward your bonus.</p>,NA,NA,NA,NA,NA,NA,NA,NA,NA,3,6,"5,15,7,10,9,12,1,6,14,2,11,8,13,3,4"
14816,commdev-instructions,37,568301,NA,990.3999999761581,"<p>You are almost ready to start the real game.</p><p> First, we are going to ask you some questions about how the game works.</p>",NA,NA,NA,NA,NA,NA,NA,NA,NA,3,6,"5,15,7,10,9,12,1,6,14,2,11,8,13,3,4"
14816,commdev-instructions,46,819406,NA,2837.300000011921,"<p> Nice work! It is now time to start the real game.<p></p>You will go on two missions to record wind directions of different planets.<p></p>Each one will take about 5 minutes. You will get to take a break between missions.<p><p> Remember, press <strong>F</strong> or <strong>J</strong> depending on the wind direction. Good luck!<br><img src=""img/categorize_planet_example.png""",NA,NA,NA,NA,NA,NA,NA,NA,NA,3,6,"5,15,7,10,9,12,1,6,14,2,11,8,13,3,4"
14816,commdev-image-keyboard-response,48,822662,learnblock1,971.1000000238419,img/planet5_left.png,5,Community 1,NA,FALSE,j,f,NA,NA,NA,3,6,"5,15,7,10,9,12,1,6,14,2,11,8,13,3,4"
14816,commdev-image-keyboard-response,49,823916,learnblock1,null,img/planet10_right.png,10,Community 1,NA,FALSE,null,j,NA,NA,NA,3,6,"5,15,7,10,9,12,1,6,14,2,11,8,13,3,4"
14816,commdev-image-keyboard-response,50,825177,learnblock1,null,img/planet15_left.png,15,Community 1,NA,FALSE,null,f,NA,NA,NA,3,6,"5,15,7,10,9,12,1,6,14,2,11,8,13,3,4"
14816,commdev-image-keyboard-response,51,826437,learnblock1,703.6999999880791,img/planet10_left.png,10,Community 1,NA,TRUE,f,f,NA,NA,NA,3,6,"5,15,7,10,9,12,1,6,14,2,11,8,13,3,4"
14816,commdev-image-keyboard-response,52,827695,learnblock1,681.1000000238419,img/planet5_left.png,5,Community 1,NA,TRUE,f,f,NA,NA,NA,3,6,"5,15,7,10,9,12,1,6,14,2,11,8,13,3,4"
14816,commdev-image-keyboard-response,53,828953,learnblock1,482.60000002384186,img/planet10_right.png,10,Community 1,NA,TRUE,j,j,NA,NA,NA,3,6,"5,15,7,10,9,12,1,6,14,2,11,8,13,3,4"
14816,commdev-image-keyboard-response,54,830217,learnblock1,315.19999998807907,img/planet12_right.png,12,Community 2,NA,FALSE,f,j,NA,NA,NA,3,6,"5,15,7,10,9,12,1,6,14,2,11,8,13,3,4"
14816,commdev-image-keyboard-response,55,831482,learnblock1,792.5,img/planet10_left.png,10,Community 1,NA,TRUE,f,f,NA,NA,NA,3,6,"5,15,7,10,9,12,1,6,14,2,11,8,13,3,4"
14816,commdev-image-keyboard-response,56,832745,learnblock1,584.5,img/planet7_right.png,7,Community 1,NA,TRUE,j,j,NA,NA,NA,3,6,"5,15,7,10,9,12,1,6,14,2,11,8,13,3,4"
14816,commdev-image-keyboard-response,57,834008,learnblock1,522.7000000476837,img/planet9_left.png,9,Community 1,NA,TRUE,f,f,NA,NA,NA,3,6,"5,15,7,10,9,12,1,6,14,2,11,8,13,3,4"
14816,commdev-image-keyboard-response,58,835273,learnblock1,616.8000000119209,img/planet15_left.png,15,Community 1,NA,TRUE,f,f,NA,NA,NA,3,6,"5,15,7,10,9,12,1,6,14,2,11,8,13,3,4"
14816,commdev-image-keyboard-response,59,836537,learnblock1,624.6999999880791,img/planet9_right.png,9,Community 1,NA,TRUE,j,j,NA,NA,NA,3,6,"5,15,7,10,9,12,1,6,14,2,11,8,13,3,4"
14816,commdev-image-keyboard-response,60,837800,learnblock1,632.0999999642372,img/planet7_left.png,7,Community 1,NA,TRUE,f,f,NA,NA,NA,3,6,"5,15,7,10,9,12,1,6,14,2,11,8,13,3,4"
14816,commdev-image-keyboard-response,61,839063,learnblock1,525,img/planet15_right.png,15,Community 1,NA,TRUE,j,j,NA,NA,NA,3,6,"5,15,7,10,9,12,1,6,14,2,11,8,13,3,4"
14816,commdev-image-keyboard-response,62,840327,learnblock1,535.6999999880791,img/planet10_right.png,10,Community 1,NA,TRUE,j,j,NA,NA,NA,3,6,"5,15,7,10,9,12,1,6,14,2,11,8,13,3,4"
14816,commdev-image-keyboard-response,63,841591,learnblock1,627.2999999523163,img/planet5_left.png,5,Community 1,NA,TRUE,f,f,NA,NA,NA,3,6,"5,15,7,10,9,12,1,6,14,2,11,8,13,3,4"
14816,commdev-image-keyboard-response,64,842853,learnblock1,537.1000000238419,img/planet9_right.png,9,Community 1,NA,TRUE,j,j,NA,NA,NA,3,6,"5,15,7,10,9,12,1,6,14,2,11,8,13,3,4"
14816,commdev-image-keyboard-response,65,844113,learnblock1,548.8000000119209,img/planet15_right.png,15,Community 1,NA,TRUE,j,j,NA,NA,NA,3,6,"5,15,7,10,9,12,1,6,14,2,11,8,13,3,4"
14816,commdev-image-keyboard-response,66,845374,learnblock1,782.1999999880791,img/planet7_left.png,7,Community 1,NA,TRUE,f,f,NA,NA,NA,3,6,"5,15,7,10,9,12,1,6,14,2,11,8,13,3,4"
14816,commdev-image-keyboard-response,67,846634,learnblock1,566.3000000119209,img/planet10_left.png,10,Community 1,NA,TRUE,f,f,NA,NA,NA,3,6,"5,15,7,10,9,12,1,6,14,2,11,8,13,3,4"
14816,commdev-image-keyboard-response,68,847892,learnblock1,614.7000000476837,img/planet12_left.png,12,Community 2,NA,TRUE,f,f,NA,NA,NA,3,6,"5,15,7,10,9,12,1,6,14,2,11,8,13,3,4"
14816,commdev-image-keyboard-response,69,849154,learnblock1,616.6000000238419,img/planet1_left.png,1,Community 2,NA,TRUE,f,f,NA,NA,NA,3,6,"5,15,7,10,9,12,1,6,14,2,11,8,13,3,4"
14816,commdev-image-keyboard-response,70,850411,learnblock1,503.89999997615814,img/planet12_left.png,12,Community 2,NA,TRUE,f,f,NA,NA,NA,3,6,"5,15,7,10,9,12,1,6,14,2,11,8,13,3,4"
14816,commdev-image-keyboard-response,71,851669,learnblock1,451.10000002384186,img/planet10_right.png,10,Community 1,NA,TRUE,j,j,NA,NA,NA,3,6,"5,15,7,10,9,12,1,6,14,2,11,8,13,3,4"
14816,commdev-image-keyboard-response,72,852932,learnblock1,710.6000000238419,img/planet12_right.png,12,Community 2,NA,FALSE,f,j,NA,NA,NA,3,6,"5,15,7,10,9,12,1,6,14,2,11,8,13,3,4"
14816,commdev-image-keyboard-response,73,854193,learnblock1,712.5,img/planet14_left.png,14,Community 2,NA,TRUE,f,f,NA,NA,NA,3,6,"5,15,7,10,9,12,1,6,14,2,11,8,13,3,4"
14816,commdev-image-keyboard-response,74,855453,learnblock1,942.5999999642372,img/planet1_left.png,1,Community 2,NA,FALSE,j,f,NA,NA,NA,3,6,"5,15,7,10,9,12,1,6,14,2,11,8,13,3,4"
14816,commdev-image-keyboard-response,75,856716,learnblock1,964.6000000238419,img/planet14_left.png,14,Community 2,NA,TRUE,f,f,NA,NA,NA,3,6,"5,15,7,10,9,12,1,6,14,2,11,8,13,3,4"
14816,commdev-image-keyboard-response,76,857978,learnblock1,577.3999999761581,img/planet12_left.png,12,Community 2,NA,TRUE,f,f,NA,NA,NA,3,6,"5,15,7,10,9,12,1,6,14,2,11,8,13,3,4"
14816,commdev-image-keyboard-response,77,859232,learnblock1,692.3999999761581,img/planet14_left.png,14,Community 2,NA,TRUE,f,f,NA,NA,NA,3,6,"5,15,7,10,9,12,1,6,14,2,11,8,13,3,4"
14816,commdev-image-keyboard-response,78,860489,learnblock1,757,img/planet1_right.png,1,Community 2,NA,TRUE,j,j,NA,NA,NA,3,6,"5,15,7,10,9,12,1,6,14,2,11,8,13,3,4"
14816,commdev-image-keyboard-response,79,861749,learnblock1,529.9000000357628,img/planet14_left.png,14,Community 2,NA,TRUE,f,f,NA,NA,NA,3,6,"5,15,7,10,9,12,1,6,14,2,11,8,13,3,4"
14816,commdev-image-keyboard-response,80,863008,learnblock1,572.5999999642372,img/planet2_right.png,2,Community 2,NA,TRUE,j,j,NA,NA,NA,3,6,"5,15,7,10,9,12,1,6,14,2,11,8,13,3,4"
14816,commdev-image-keyboard-response,81,864266,learnblock1,574.3999999761581,img/planet12_left.png,12,Community 2,NA,TRUE,f,f,NA,NA,NA,3,6,"5,15,7,10,9,12,1,6,14,2,11,8,13,3,4"
14816,commdev-image-keyboard-response,82,865527,learnblock1,495.89999997615814,img/planet14_left.png,14,Community 2,NA,TRUE,f,f,NA,NA,NA,3,6,"5,15,7,10,9,12,1,6,14,2,11,8,13,3,4"
14816,commdev-image-keyboard-response,83,866781,learnblock1,708.1000000238419,img/planet12_right.png,12,Community 2,NA,TRUE,j,j,NA,NA,NA,3,6,"5,15,7,10,9,12,1,6,14,2,11,8,13,3,4"
14816,commdev-image-keyboard-response,84,868042,learnblock1,467.80000001192093,img/planet1_left.png,1,Community 2,NA,TRUE,f,f,NA,NA,NA,3,6,"5,15,7,10,9,12,1,6,14,2,11,8,13,3,4"
14816,commdev-image-keyboard-response,85,869304,learnblock1,518.8999999761581,img/planet2_left.png,2,Community 2,NA,TRUE,f,f,NA,NA,NA,3,6,"5,15,7,10,9,12,1,6,14,2,11,8,13,3,4"
14816,commdev-image-keyboard-response,86,870563,learnblock1,609.0999999642372,img/planet6_right.png,6,Community 2,NA,TRUE,j,j,NA,NA,NA,3,6,"5,15,7,10,9,12,1,6,14,2,11,8,13,3,4"
14816,commdev-image-keyboard-response,87,871815,learnblock1,587.1000000238419,img/planet14_right.png,14,Community 2,NA,FALSE,f,j,NA,NA,NA,3,6,"5,15,7,10,9,12,1,6,14,2,11,8,13,3,4"
14816,commdev-image-keyboard-response,88,873075,learnblock1,714.8999999761581,img/planet6_right.png,6,Community 2,NA,FALSE,f,j,NA,NA,NA,3,6,"5,15,7,10,9,12,1,6,14,2,11,8,13,3,4"
14816,commdev-image-keyboard-response,89,874332,learnblock1,562.6000000238419,img/planet1_right.png,1,Community 2,NA,TRUE,j,j,NA,NA,NA,3,6,"5,15,7,10,9,12,1,6,14,2,11,8,13,3,4"
14816,commdev-image-keyboard-response,90,875588,learnblock1,822.3999999761581,img/planet12_right.png,12,Community 2,NA,TRUE,j,j,NA,NA,NA,3,6,"5,15,7,10,9,12,1,6,14,2,11,8,13,3,4"
14816,commdev-image-keyboard-response,91,876847,learnblock1,553.6000000238419,img/planet1_right.png,1,Community 2,NA,TRUE,j,j,NA,NA,NA,3,6,"5,15,7,10,9,12,1,6,14,2,11,8,13,3,4"
14816,commdev-image-keyboard-response,92,878109,learnblock1,677.8000000119209,img/planet14_left.png,14,Community 2,NA,TRUE,f,f,NA,NA,NA,3,6,"5,15,7,10,9,12,1,6,14,2,11,8,13,3,4"
14816,commdev-image-keyboard-response,93,879369,learnblock1,814.1999999880791,img/planet12_left.png,12,Community 2,NA,TRUE,f,f,NA,NA,NA,3,6,"5,15,7,10,9,12,1,6,14,2,11,8,13,3,4"
14816,commdev-image-keyboard-response,94,880625,learnblock1,555.0999999642372,img/planet2_right.png,2,Community 2,NA,TRUE,j,j,NA,NA,NA,3,6,"5,15,7,10,9,12,1,6,14,2,11,8,13,3,4"
14816,commdev-image-keyboard-response,95,881883,learnblock1,479.30000001192093,img/planet1_left.png,1,Community 2,NA,TRUE,f,f,NA,NA,NA,3,6,"5,15,7,10,9,12,1,6,14,2,11,8,13,3,4"
14816,commdev-image-keyboard-response,96,883144,learnblock1,715.3999999761581,img/planet14_right.png,14,Community 2,NA,TRUE,j,j,NA,NA,NA,3,6,"5,15,7,10,9,12,1,6,14,2,11,8,13,3,4"
14816,commdev-image-keyboard-response,97,884405,learnblock1,715,img/planet1_right.png,1,Community 2,NA,TRUE,j,j,NA,NA,NA,3,6,"5,15,7,10,9,12,1,6,14,2,11,8,13,3,4"
14816,commdev-image-keyboard-response,98,885665,learnblock1,559.4000000357628,img/planet12_right.png,12,Community 2,NA,TRUE,j,j,NA,NA,NA,3,6,"5,15,7,10,9,12,1,6,14,2,11,8,13,3,4"
14816,commdev-image-keyboard-response,99,886926,learnblock1,584.1999999880791,img/planet10_right.png,10,Community 1,NA,TRUE,j,j,NA,NA,NA,3,6,"5,15,7,10,9,12,1,6,14,2,11,8,13,3,4"
14816,commdev-image-keyboard-response,100,888188,learnblock1,507.69999998807907,img/planet15_left.png,15,Community 1,NA,TRUE,f,f,NA,NA,NA,3,6,"5,15,7,10,9,12,1,6,14,2,11,8,13,3,4"
14816,commdev-image-keyboard-response,101,889447,learnblock1,640.5,img/planet7_right.png,7,Community 1,NA,TRUE,j,j,NA,NA,NA,3,6,"5,15,7,10,9,12,1,6,14,2,11,8,13,3,4"
14816,commdev-image-keyboard-response,102,890707,learnblock1,591.2999999523163,img/planet9_left.png,9,Community 1,NA,TRUE,f,f,NA,NA,NA,3,6,"5,15,7,10,9,12,1,6,14,2,11,8,13,3,4"
14816,commdev-image-keyboard-response,103,891962,learnblock1,798.1999999880791,img/planet15_left.png,15,Community 1,NA,TRUE,f,f,NA,NA,NA,3,6,"5,15,7,10,9,12,1,6,14,2,11,8,13,3,4"
14816,commdev-image-keyboard-response,104,893224,learnblock1,712.7000000476837,img/planet7_left.png,7,Community 1,NA,TRUE,f,f,NA,NA,NA,3,6,"5,15,7,10,9,12,1,6,14,2,11,8,13,3,4"
14816,commdev-image-keyboard-response,105,894483,learnblock1,555.6000000238419,img/planet15_right.png,15,Community 1,NA,FALSE,f,j,NA,NA,NA,3,6,"5,15,7,10,9,12,1,6,14,2,11,8,13,3,4"
14816,commdev-image-keyboard-response,106,895744,learnblock1,652.8000000119209,img/planet5_right.png,5,Community 1,NA,TRUE,j,j,NA,NA,NA,3,6,"5,15,7,10,9,12,1,6,14,2,11,8,13,3,4"
14816,commdev-image-keyboard-response,107,897004,learnblock1,700.5,img/planet7_left.png,7,Community 1,NA,TRUE,f,f,NA,NA,NA,3,6,"5,15,7,10,9,12,1,6,14,2,11,8,13,3,4"
14816,commdev-image-keyboard-response,108,898264,learnblock1,829,img/planet10_left.png,10,Community 1,NA,TRUE,f,f,NA,NA,NA,3,6,"5,15,7,10,9,12,1,6,14,2,11,8,13,3,4"
14816,commdev-image-keyboard-response,109,899524,learnblock1,570.8999999761581,img/planet15_left.png,15,Community 1,NA,FALSE,j,f,NA,NA,NA,3,6,"5,15,7,10,9,12,1,6,14,2,11,8,13,3,4"
14816,commdev-image-keyboard-response,110,900783,learnblock1,617.0999999642372,img/planet5_left.png,5,Community 1,NA,TRUE,f,f,NA,NA,NA,3,6,"5,15,7,10,9,12,1,6,14,2,11,8,13,3,4"
14816,commdev-image-keyboard-response,111,902044,learnblock1,536.5,img/planet10_right.png,10,Community 1,NA,TRUE,j,j,NA,NA,NA,3,6,"5,15,7,10,9,12,1,6,14,2,11,8,13,3,4"
14816,commdev-image-keyboard-response,112,903305,learnblock1,434.5,img/planet15_left.png,15,Community 1,NA,FALSE,j,f,NA,NA,NA,3,6,"5,15,7,10,9,12,1,6,14,2,11,8,13,3,4"
14816,commdev-image-keyboard-response,113,904562,learnblock1,865.4000000357628,img/planet7_left.png,7,Community 1,NA,FALSE,j,f,NA,NA,NA,3,6,"5,15,7,10,9,12,1,6,14,2,11,8,13,3,4"
14816,commdev-image-keyboard-response,114,905821,learnblock1,535.5,img/planet9_left.png,9,Community 1,NA,TRUE,f,f,NA,NA,NA,3,6,"5,15,7,10,9,12,1,6,14,2,11,8,13,3,4"
14816,commdev-image-keyboard-response,115,907079,learnblock1,432,img/planet15_right.png,15,Community 1,NA,TRUE,j,j,NA,NA,NA,3,6,"5,15,7,10,9,12,1,6,14,2,11,8,13,3,4"
14816,commdev-image-keyboard-response,116,908339,learnblock1,750.2000000476837,img/planet9_left.png,9,Community 1,NA,TRUE,f,f,NA,NA,NA,3,6,"5,15,7,10,9,12,1,6,14,2,11,8,13,3,4"
14816,commdev-image-keyboard-response,117,909595,learnblock1,569,img/planet7_left.png,7,Community 1,NA,TRUE,f,f,NA,NA,NA,3,6,"5,15,7,10,9,12,1,6,14,2,11,8,13,3,4"
14816,commdev-image-keyboard-response,118,910856,learnblock1,487.9000000357628,img/planet10_left.png,10,Community 1,NA,TRUE,f,f,NA,NA,NA,3,6,"5,15,7,10,9,12,1,6,14,2,11,8,13,3,4"
14816,commdev-image-keyboard-response,119,912117,learnblock1,713.3999999761581,img/planet7_right.png,7,Community 1,NA,TRUE,j,j,NA,NA,NA,3,6,"5,15,7,10,9,12,1,6,14,2,11,8,13,3,4"
14816,commdev-image-keyboard-response,120,913370,learnblock1,674.6999999880791,img/planet9_left.png,9,Community 1,NA,TRUE,f,f,NA,NA,NA,3,6,"5,15,7,10,9,12,1,6,14,2,11,8,13,3,4"
14816,commdev-image-keyboard-response,121,914636,learnblock1,731.5,img/planet11_right.png,11,Community 3,NA,TRUE,j,j,NA,NA,NA,3,6,"5,15,7,10,9,12,1,6,14,2,11,8,13,3,4"
14816,commdev-image-keyboard-response,122,915899,learnblock1,730.5,img/planet4_left.png,4,Community 3,NA,TRUE,f,f,NA,NA,NA,3,6,"5,15,7,10,9,12,1,6,14,2,11,8,13,3,4"
14816,commdev-image-keyboard-response,123,917158,learnblock1,705.1999999880791,img/planet8_right.png,8,Community 3,NA,TRUE,j,j,NA,NA,NA,3,6,"5,15,7,10,9,12,1,6,14,2,11,8,13,3,4"
14816,commdev-image-keyboard-response,124,918421,learnblock1,437,img/planet6_left.png,6,Community 2,NA,TRUE,f,f,NA,NA,NA,3,6,"5,15,7,10,9,12,1,6,14,2,11,8,13,3,4"
14816,commdev-image-keyboard-response,125,919681,learnblock1,801.3000000119209,img/planet1_left.png,1,Community 2,NA,TRUE,f,f,NA,NA,NA,3,6,"5,15,7,10,9,12,1,6,14,2,11,8,13,3,4"
14816,commdev-image-keyboard-response,126,920942,learnblock1,571.6999999880791,img/planet6_right.png,6,Community 2,NA,TRUE,j,j,NA,NA,NA,3,6,"5,15,7,10,9,12,1,6,14,2,11,8,13,3,4"
14816,commdev-image-keyboard-response,127,922197,learnblock1,637.6999999880791,img/planet14_left.png,14,Community 2,NA,TRUE,f,f,NA,NA,NA,3,6,"5,15,7,10,9,12,1,6,14,2,11,8,13,3,4"
14816,commdev-image-keyboard-response,128,923459,learnblock1,400.5,img/planet2_right.png,2,Community 2,NA,TRUE,j,j,NA,NA,NA,3,6,"5,15,7,10,9,12,1,6,14,2,11,8,13,3,4"
14816,commdev-image-keyboard-response,129,924719,learnblock1,533.8999999761581,img/planet14_left.png,14,Community 2,NA,TRUE,f,f,NA,NA,NA,3,6,"5,15,7,10,9,12,1,6,14,2,11,8,13,3,4"
14816,commdev-image-keyboard-response,130,925979,learnblock1,285.69999998807907,img/planet2_right.png,2,Community 2,NA,TRUE,j,j,NA,NA,NA,3,6,"5,15,7,10,9,12,1,6,14,2,11,8,13,3,4"
14816,commdev-image-keyboard-response,131,927242,learnblock1,331,img/planet1_right.png,1,Community 2,NA,FALSE,f,j,NA,NA,NA,3,6,"5,15,7,10,9,12,1,6,14,2,11,8,13,3,4"
14816,commdev-image-keyboard-response,132,928506,learnblock1,652.1999999880791,img/planet14_right.png,14,Community 2,NA,TRUE,j,j,NA,NA,NA,3,6,"5,15,7,10,9,12,1,6,14,2,11,8,13,3,4"
14816,commdev-image-keyboard-response,133,929760,learnblock1,450.69999998807907,img/planet2_left.png,2,Community 2,NA,FALSE,j,f,NA,NA,NA,3,6,"5,15,7,10,9,12,1,6,14,2,11,8,13,3,4"
14816,commdev-image-keyboard-response,134,931018,learnblock1,736.7000000476837,img/planet1_left.png,1,Community 2,NA,TRUE,f,f,NA,NA,NA,3,6,"5,15,7,10,9,12,1,6,14,2,11,8,13,3,4"
14816,commdev-image-keyboard-response,135,932275,learnblock1,1234.6000000238419,img/planet14_right.png,14,Community 2,NA,TRUE,j,j,NA,NA,NA,3,6,"5,15,7,10,9,12,1,6,14,2,11,8,13,3,4"
14816,commdev-image-keyboard-response,136,933542,learnblock1,939.4000000357628,img/planet6_right.png,6,Community 2,NA,TRUE,j,j,NA,NA,NA,3,6,"5,15,7,10,9,12,1,6,14,2,11,8,13,3,4"
14816,commdev-image-keyboard-response,137,934803,learnblock1,697.5,img/planet1_left.png,1,Community 2,NA,TRUE,f,f,NA,NA,NA,3,6,"5,15,7,10,9,12,1,6,14,2,11,8,13,3,4"
14816,commdev-image-keyboard-response,138,936061,learnblock1,522.3999999761581,img/planet6_right.png,6,Community 2,NA,TRUE,j,j,NA,NA,NA,3,6,"5,15,7,10,9,12,1,6,14,2,11,8,13,3,4"
14816,commdev-image-keyboard-response,139,937316,learnblock1,550.3000000119209,img/planet1_right.png,1,Community 2,NA,FALSE,f,j,NA,NA,NA,3,6,"5,15,7,10,9,12,1,6,14,2,11,8,13,3,4"
14816,commdev-image-keyboard-response,140,938583,learnblock1,507.19999998807907,img/planet2_right.png,2,Community 2,NA,TRUE,j,j,NA,NA,NA,3,6,"5,15,7,10,9,12,1,6,14,2,11,8,13,3,4"
14816,commdev-image-keyboard-response,141,939838,learnblock1,464.5999999642372,img/planet6_left.png,6,Community 2,NA,FALSE,j,f,NA,NA,NA,3,6,"5,15,7,10,9,12,1,6,14,2,11,8,13,3,4"
14816,commdev-image-keyboard-response,142,941103,learnblock1,315.80000001192093,img/planet1_left.png,1,Community 2,NA,TRUE,f,f,NA,NA,NA,3,6,"5,15,7,10,9,12,1,6,14,2,11,8,13,3,4"
14816,commdev-image-keyboard-response,143,942355,learnblock1,109.5,img/planet12_left.png,12,Community 2,NA,TRUE,f,f,NA,NA,NA,3,6,"5,15,7,10,9,12,1,6,14,2,11,8,13,3,4"
14816,commdev-image-keyboard-response,144,943615,learnblock1,null,img/planet2_right.png,2,Community 2,NA,FALSE,null,j,NA,NA,NA,3,6,"5,15,7,10,9,12,1,6,14,2,11,8,13,3,4"
14816,commdev-image-keyboard-response,145,944873,learnblock1,159.80000001192093,img/planet1_right.png,1,Community 2,NA,FALSE,f,j,NA,NA,NA,3,6,"5,15,7,10,9,12,1,6,14,2,11,8,13,3,4"
14816,commdev-image-keyboard-response,146,946133,learnblock1,null,img/planet2_left.png,2,Community 2,NA,FALSE,null,f,NA,NA,NA,3,6,"5,15,7,10,9,12,1,6,14,2,11,8,13,3,4"
14816,commdev-image-keyboard-response,147,947392,learnblock1,null,img/planet6_left.png,6,Community 2,NA,FALSE,null,f,NA,NA,NA,3,6,"5,15,7,10,9,12,1,6,14,2,11,8,13,3,4"
14816,commdev-image-keyboard-response,148,948655,learnblock1,903.8000000119209,img/planet14_right.png,14,Community 2,NA,TRUE,j,j,NA,NA,NA,3,6,"5,15,7,10,9,12,1,6,14,2,11,8,13,3,4"
14816,commdev-image-keyboard-response,149,949914,learnblock1,835.8000000119209,img/planet12_right.png,12,Community 2,NA,TRUE,j,j,NA,NA,NA,3,6,"5,15,7,10,9,12,1,6,14,2,11,8,13,3,4"
14816,commdev-image-keyboard-response,150,951171,learnblock1,633.6000000238419,img/planet10_left.png,10,Community 1,NA,TRUE,f,f,NA,NA,NA,3,6,"5,15,7,10,9,12,1,6,14,2,11,8,13,3,4"
14816,commdev-image-keyboard-response,151,952432,learnblock1,464.9000000357628,img/planet12_right.png,12,Community 2,NA,TRUE,j,j,NA,NA,NA,3,6,"5,15,7,10,9,12,1,6,14,2,11,8,13,3,4"
14816,commdev-image-keyboard-response,152,953694,learnblock1,771.6999999880791,img/planet14_right.png,14,Community 2,NA,TRUE,j,j,NA,NA,NA,3,6,"5,15,7,10,9,12,1,6,14,2,11,8,13,3,4"
14816,commdev-image-keyboard-response,153,954958,learnblock1,580,img/planet1_right.png,1,Community 2,NA,TRUE,j,j,NA,NA,NA,3,6,"5,15,7,10,9,12,1,6,14,2,11,8,13,3,4"
14816,commdev-image-keyboard-response,154,956215,learnblock1,422.69999998807907,img/planet2_left.png,2,Community 2,NA,FALSE,j,f,NA,NA,NA,3,6,"5,15,7,10,9,12,1,6,14,2,11,8,13,3,4"
14816,commdev-image-keyboard-response,155,957475,learnblock1,657.1000000238419,img/planet1_left.png,1,Community 2,NA,TRUE,f,f,NA,NA,NA,3,6,"5,15,7,10,9,12,1,6,14,2,11,8,13,3,4"
14816,commdev-image-keyboard-response,156,958735,learnblock1,513.3999999761581,img/planet2_left.png,2,Community 2,NA,TRUE,f,f,NA,NA,NA,3,6,"5,15,7,10,9,12,1,6,14,2,11,8,13,3,4"
14816,commdev-image-keyboard-response,157,959994,learnblock1,559.3000000119209,img/planet1_left.png,1,Community 2,NA,TRUE,f,f,NA,NA,NA,3,6,"5,15,7,10,9,12,1,6,14,2,11,8,13,3,4"
14816,commdev-image-keyboard-response,158,961254,learnblock1,494.10000002384186,img/planet14_right.png,14,Community 2,NA,FALSE,f,j,NA,NA,NA,3,6,"5,15,7,10,9,12,1,6,14,2,11,8,13,3,4"
14816,commdev-image-keyboard-response,159,962510,learnblock1,628.7999999523163,img/planet12_right.png,12,Community 2,NA,TRUE,j,j,NA,NA,NA,3,6,"5,15,7,10,9,12,1,6,14,2,11,8,13,3,4"
14816,commdev-image-keyboard-response,160,963769,learnblock1,629.8999999761581,img/planet1_right.png,1,Community 2,NA,TRUE,j,j,NA,NA,NA,3,6,"5,15,7,10,9,12,1,6,14,2,11,8,13,3,4"
14816,commdev-image-keyboard-response,161,965031,learnblock1,599.3999999761581,img/planet6_left.png,6,Community 2,NA,TRUE,f,f,NA,NA,NA,3,6,"5,15,7,10,9,12,1,6,14,2,11,8,13,3,4"
14816,commdev-image-keyboard-response,162,966290,learnblock1,571.8000000119209,img/planet1_left.png,1,Community 2,NA,TRUE,f,f,NA,NA,NA,3,6,"5,15,7,10,9,12,1,6,14,2,11,8,13,3,4"
14816,commdev-image-keyboard-response,163,967550,learnblock1,516.3999999761581,img/planet2_right.png,2,Community 2,NA,FALSE,f,j,NA,NA,NA,3,6,"5,15,7,10,9,12,1,6,14,2,11,8,13,3,4"
14816,commdev-image-keyboard-response,164,968807,learnblock1,681.3000000119209,img/planet12_left.png,12,Community 2,NA,TRUE,f,f,NA,NA,NA,3,6,"5,15,7,10,9,12,1,6,14,2,11,8,13,3,4"
14816,commdev-image-keyboard-response,165,970068,learnblock1,515.9000000357628,img/planet14_left.png,14,Community 2,NA,TRUE,f,f,NA,NA,NA,3,6,"5,15,7,10,9,12,1,6,14,2,11,8,13,3,4"
14816,commdev-image-keyboard-response,166,971331,learnblock1,623.8000000119209,img/planet1_left.png,1,Community 2,NA,TRUE,f,f,NA,NA,NA,3,6,"5,15,7,10,9,12,1,6,14,2,11,8,13,3,4"
14816,commdev-image-keyboard-response,167,972590,learnblock1,797.8000000119209,img/planet6_left.png,6,Community 2,NA,TRUE,f,f,NA,NA,NA,3,6,"5,15,7,10,9,12,1,6,14,2,11,8,13,3,4"
14816,commdev-image-keyboard-response,168,973849,learnblock1,655.8000000119209,img/planet1_left.png,1,Community 2,NA,TRUE,f,f,NA,NA,NA,3,6,"5,15,7,10,9,12,1,6,14,2,11,8,13,3,4"
14816,commdev-image-keyboard-response,169,975108,learnblock1,623.1999999880791,img/planet6_left.png,6,Community 2,NA,TRUE,f,f,NA,NA,NA,3,6,"5,15,7,10,9,12,1,6,14,2,11,8,13,3,4"
14816,commdev-image-keyboard-response,170,976374,learnblock1,587.1999999880791,img/planet1_left.png,1,Community 2,NA,TRUE,f,f,NA,NA,NA,3,6,"5,15,7,10,9,12,1,6,14,2,11,8,13,3,4"
14816,commdev-image-keyboard-response,171,977635,learnblock1,370.30000001192093,img/planet6_left.png,6,Community 2,NA,TRUE,f,f,NA,NA,NA,3,6,"5,15,7,10,9,12,1,6,14,2,11,8,13,3,4"
14816,commdev-image-keyboard-response,172,978898,learnblock1,711.7000000476837,img/planet14_right.png,14,Community 2,NA,TRUE,j,j,NA,NA,NA,3,6,"5,15,7,10,9,12,1,6,14,2,11,8,13,3,4"
14816,commdev-image-keyboard-response,173,980155,learnblock1,620,img/planet2_right.png,2,Community 2,NA,TRUE,j,j,NA,NA,NA,3,6,"5,15,7,10,9,12,1,6,14,2,11,8,13,3,4"
14816,commdev-image-keyboard-response,174,981414,learnblock1,1046.7000000476837,img/planet6_left.png,6,Community 2,NA,TRUE,f,f,NA,NA,NA,3,6,"5,15,7,10,9,12,1,6,14,2,11,8,13,3,4"
14816,commdev-image-keyboard-response,175,982676,learnblock1,709.4000000357628,img/planet14_left.png,14,Community 2,NA,TRUE,f,f,NA,NA,NA,3,6,"5,15,7,10,9,12,1,6,14,2,11,8,13,3,4"
14816,commdev-image-keyboard-response,176,983939,learnblock1,695.1999999880791,img/planet6_left.png,6,Community 2,NA,TRUE,f,f,NA,NA,NA,3,6,"5,15,7,10,9,12,1,6,14,2,11,8,13,3,4"
14816,commdev-image-keyboard-response,177,985199,learnblock1,null,img/planet8_left.png,8,Community 3,NA,FALSE,null,f,NA,NA,NA,3,6,"5,15,7,10,9,12,1,6,14,2,11,8,13,3,4"
14816,commdev-image-keyboard-response,178,986457,learnblock1,685.3999999761581,img/planet3_right.png,3,Community 3,NA,TRUE,j,j,NA,NA,NA,3,6,"5,15,7,10,9,12,1,6,14,2,11,8,13,3,4"
14816,commdev-image-keyboard-response,179,987715,learnblock1,914.8000000119209,img/planet4_right.png,4,Community 3,NA,TRUE,j,j,NA,NA,NA,3,6,"5,15,7,10,9,12,1,6,14,2,11,8,13,3,4"
14816,commdev-image-keyboard-response,180,988981,learnblock1,786,img/planet3_right.png,3,Community 3,NA,TRUE,j,j,NA,NA,NA,3,6,"5,15,7,10,9,12,1,6,14,2,11,8,13,3,4"
14816,commdev-image-keyboard-response,181,990245,learnblock1,553,img/planet4_left.png,4,Community 3,NA,TRUE,f,f,NA,NA,NA,3,6,"5,15,7,10,9,12,1,6,14,2,11,8,13,3,4"
14816,commdev-image-keyboard-response,182,991501,learnblock1,773.1999999880791,img/planet13_left.png,13,Community 3,NA,TRUE,f,f,NA,NA,NA,3,6,"5,15,7,10,9,12,1,6,14,2,11,8,13,3,4"
14816,commdev-image-keyboard-response,183,992763,learnblock1,542.2000000476837,img/planet4_right.png,4,Community 3,NA,FALSE,f,j,NA,NA,NA,3,6,"5,15,7,10,9,12,1,6,14,2,11,8,13,3,4"
14816,commdev-image-keyboard-response,184,994023,learnblock1,912.5999999642372,img/planet8_right.png,8,Community 3,NA,TRUE,j,j,NA,NA,NA,3,6,"5,15,7,10,9,12,1,6,14,2,11,8,13,3,4"
14816,commdev-image-keyboard-response,185,995281,learnblock1,677.3000000119209,img/planet3_right.png,3,Community 3,NA,TRUE,j,j,NA,NA,NA,3,6,"5,15,7,10,9,12,1,6,14,2,11,8,13,3,4"
14816,commdev-image-keyboard-response,186,996540,learnblock1,909.8000000119209,img/planet11_left.png,11,Community 3,NA,TRUE,f,f,NA,NA,NA,3,6,"5,15,7,10,9,12,1,6,14,2,11,8,13,3,4"
14816,commdev-image-keyboard-response,187,997795,learnblock1,1102.2999999523163,img/planet3_right.png,3,Community 3,NA,TRUE,j,j,NA,NA,NA,3,6,"5,15,7,10,9,12,1,6,14,2,11,8,13,3,4"
14816,commdev-image-keyboard-response,188,999059,learnblock1,515.6999999880791,img/planet13_left.png,13,Community 3,NA,TRUE,f,f,NA,NA,NA,3,6,"5,15,7,10,9,12,1,6,14,2,11,8,13,3,4"
14816,commdev-image-keyboard-response,189,1000319,learnblock1,279.89999997615814,img/planet3_left.png,3,Community 3,NA,FALSE,j,f,NA,NA,NA,3,6,"5,15,7,10,9,12,1,6,14,2,11,8,13,3,4"
14816,commdev-image-keyboard-response,190,1001577,learnblock1,724.7999999523163,img/planet4_right.png,4,Community 3,NA,FALSE,f,j,NA,NA,NA,3,6,"5,15,7,10,9,12,1,6,14,2,11,8,13,3,4"
14816,commdev-image-keyboard-response,191,1002836,learnblock1,863.6999999880791,img/planet13_right.png,13,Community 3,NA,FALSE,f,j,NA,NA,NA,3,6,"5,15,7,10,9,12,1,6,14,2,11,8,13,3,4"
14816,commdev-image-keyboard-response,192,1004100,learnblock1,401.9000000357628,img/planet11_left.png,11,Community 3,NA,FALSE,j,f,NA,NA,NA,3,6,"5,15,7,10,9,12,1,6,14,2,11,8,13,3,4"
14816,commdev-image-keyboard-response,193,1005361,learnblock1,933.3999999761581,img/planet9_right.png,9,Community 1,NA,TRUE,j,j,NA,NA,NA,3,6,"5,15,7,10,9,12,1,6,14,2,11,8,13,3,4"
14816,commdev-image-keyboard-response,194,1006626,learnblock1,388.0999999642372,img/planet15_left.png,15,Community 1,NA,TRUE,f,f,NA,NA,NA,3,6,"5,15,7,10,9,12,1,6,14,2,11,8,13,3,4"
14816,commdev-image-keyboard-response,195,1007880,learnblock1,140.30000001192093,img/planet10_right.png,10,Community 1,NA,FALSE,f,j,NA,NA,NA,3,6,"5,15,7,10,9,12,1,6,14,2,11,8,13,3,4"
14816,commdev-image-keyboard-response,196,1009135,learnblock1,295.89999997615814,img/planet15_right.png,15,Community 1,NA,TRUE,j,j,NA,NA,NA,3,6,"5,15,7,10,9,12,1,6,14,2,11,8,13,3,4"
14816,commdev-image-keyboard-response,197,1010389,learnblock1,371.60000002384186,img/planet7_left.png,7,Community 1,NA,TRUE,f,f,NA,NA,NA,3,6,"5,15,7,10,9,12,1,6,14,2,11,8,13,3,4"
14816,commdev-image-keyboard-response,198,1011648,learnblock1,301.10000002384186,img/planet15_right.png,15,Community 1,NA,TRUE,j,j,NA,NA,NA,3,6,"5,15,7,10,9,12,1,6,14,2,11,8,13,3,4"
14816,commdev-image-keyboard-response,199,1012900,learnblock1,247.39999997615814,img/planet9_left.png,9,Community 1,NA,TRUE,f,f,NA,NA,NA,3,6,"5,15,7,10,9,12,1,6,14,2,11,8,13,3,4"
14816,commdev-image-keyboard-response,200,1014162,learnblock1,null,img/planet11_left.png,11,Community 3,NA,FALSE,null,f,NA,NA,NA,3,6,"5,15,7,10,9,12,1,6,14,2,11,8,13,3,4"
14816,commdev-image-keyboard-response,201,1015429,learnblock1,331.10000002384186,img/planet4_right.png,4,Community 3,NA,FALSE,f,j,NA,NA,NA,3,6,"5,15,7,10,9,12,1,6,14,2,11,8,13,3,4"
14816,commdev-image-keyboard-response,202,1016688,learnblock1,null,img/planet11_left.png,11,Community 3,NA,FALSE,null,f,NA,NA,NA,3,6,"5,15,7,10,9,12,1,6,14,2,11,8,13,3,4"
14816,commdev-image-keyboard-response,203,1017946,learnblock1,null,img/planet4_right.png,4,Community 3,NA,FALSE,null,j,NA,NA,NA,3,6,"5,15,7,10,9,12,1,6,14,2,11,8,13,3,4"
14816,commdev-image-keyboard-response,204,1019208,learnblock1,null,img/planet11_left.png,11,Community 3,NA,FALSE,null,f,NA,NA,NA,3,6,"5,15,7,10,9,12,1,6,14,2,11,8,13,3,4"
14816,commdev-image-keyboard-response,205,1020461,learnblock1,227.80000001192093,img/planet9_left.png,9,Community 1,NA,FALSE,j,f,NA,NA,NA,3,6,"5,15,7,10,9,12,1,6,14,2,11,8,13,3,4"
14816,commdev-image-keyboard-response,206,1021720,learnblock1,32.09999996423721,img/planet15_right.png,15,Community 1,NA,FALSE,f,j,NA,NA,NA,3,6,"5,15,7,10,9,12,1,6,14,2,11,8,13,3,4"
14816,commdev-image-keyboard-response,207,1022975,learnblock1,338.5,img/planet7_right.png,7,Community 1,NA,FALSE,f,j,NA,NA,NA,3,6,"5,15,7,10,9,12,1,6,14,2,11,8,13,3,4"
14816,commdev-image-keyboard-response,208,1024239,learnblock1,177.80000001192093,img/planet5_left.png,5,Community 1,NA,FALSE,j,f,NA,NA,NA,3,6,"5,15,7,10,9,12,1,6,14,2,11,8,13,3,4"
14816,commdev-image-keyboard-response,209,1025491,learnblock1,532.8999999761581,img/planet15_left.png,15,Community 1,NA,TRUE,f,f,NA,NA,NA,3,6,"5,15,7,10,9,12,1,6,14,2,11,8,13,3,4"
14816,commdev-image-keyboard-response,210,1026753,learnblock1,399.30000001192093,img/planet10_right.png,10,Community 1,NA,FALSE,f,j,NA,NA,NA,3,6,"5,15,7,10,9,12,1,6,14,2,11,8,13,3,4"
14816,commdev-image-keyboard-response,211,1028014,learnblock1,203.19999998807907,img/planet7_left.png,7,Community 1,NA,FALSE,j,f,NA,NA,NA,3,6,"5,15,7,10,9,12,1,6,14,2,11,8,13,3,4"
14816,commdev-image-keyboard-response,212,1029273,learnblock1,563,img/planet9_right.png,9,Community 1,NA,TRUE,j,j,NA,NA,NA,3,6,"5,15,7,10,9,12,1,6,14,2,11,8,13,3,4"
14816,commdev-image-keyboard-response,213,1030532,learnblock1,998.3999999761581,img/planet11_left.png,11,Community 3,NA,TRUE,f,f,NA,NA,NA,3,6,"5,15,7,10,9,12,1,6,14,2,11,8,13,3,4"
14816,commdev-image-keyboard-response,214,1031795,learnblock1,407.30000001192093,img/planet4_right.png,4,Community 3,NA,TRUE,j,j,NA,NA,NA,3,6,"5,15,7,10,9,12,1,6,14,2,11,8,13,3,4"
14816,commdev-image-keyboard-response,215,1033058,learnblock1,602.1000000238419,img/planet8_left.png,8,Community 3,NA,TRUE,f,f,NA,NA,NA,3,6,"5,15,7,10,9,12,1,6,14,2,11,8,13,3,4"
14816,commdev-image-keyboard-response,216,1034322,learnblock1,284.80000001192093,img/planet6_right.png,6,Community 2,NA,TRUE,j,j,NA,NA,NA,3,6,"5,15,7,10,9,12,1,6,14,2,11,8,13,3,4"
14816,commdev-image-keyboard-response,217,1035585,learnblock1,468.69999998807907,img/planet2_right.png,2,Community 2,NA,FALSE,f,j,NA,NA,NA,3,6,"5,15,7,10,9,12,1,6,14,2,11,8,13,3,4"
14816,commdev-image-keyboard-response,218,1036849,learnblock1,null,img/planet6_right.png,6,Community 2,NA,FALSE,null,j,NA,NA,NA,3,6,"5,15,7,10,9,12,1,6,14,2,11,8,13,3,4"
14816,commdev-image-keyboard-response,219,1038108,learnblock1,1193,img/planet1_right.png,1,Community 2,NA,TRUE,j,j,NA,NA,NA,3,6,"5,15,7,10,9,12,1,6,14,2,11,8,13,3,4"
14816,commdev-image-keyboard-response,220,1039368,learnblock1,null,img/planet2_right.png,2,Community 2,NA,FALSE,null,j,NA,NA,NA,3,6,"5,15,7,10,9,12,1,6,14,2,11,8,13,3,4"
14816,commdev-image-keyboard-response,221,1040625,learnblock1,702.2000000476837,img/planet6_left.png,6,Community 2,NA,FALSE,j,f,NA,NA,NA,3,6,"5,15,7,10,9,12,1,6,14,2,11,8,13,3,4"
14816,commdev-image-keyboard-response,222,1041884,learnblock1,462.7000000476837,img/planet1_left.png,1,Community 2,NA,FALSE,j,f,NA,NA,NA,3,6,"5,15,7,10,9,12,1,6,14,2,11,8,13,3,4"
14816,commdev-image-keyboard-response,223,1043144,learnblock1,632.1000000238419,img/planet12_left.png,12,Community 2,NA,FALSE,j,f,NA,NA,NA,3,6,"5,15,7,10,9,12,1,6,14,2,11,8,13,3,4"
14816,commdev-image-keyboard-response,224,1044407,learnblock1,851.3000000119209,img/planet10_right.png,10,Community 1,NA,TRUE,j,j,NA,NA,NA,3,6,"5,15,7,10,9,12,1,6,14,2,11,8,13,3,4"
14816,commdev-image-keyboard-response,225,1045667,learnblock1,null,img/planet12_right.png,12,Community 2,NA,FALSE,null,j,NA,NA,NA,3,6,"5,15,7,10,9,12,1,6,14,2,11,8,13,3,4"
14816,commdev-image-keyboard-response,226,1046929,learnblock1,111.69999998807907,img/planet14_right.png,14,Community 2,NA,TRUE,j,j,NA,NA,NA,3,6,"5,15,7,10,9,12,1,6,14,2,11,8,13,3,4"
14816,commdev-image-keyboard-response,227,1048191,learnblock1,532.2999999523163,img/planet2_right.png,2,Community 2,NA,TRUE,j,j,NA,NA,NA,3,6,"5,15,7,10,9,12,1,6,14,2,11,8,13,3,4"
14816,commdev-image-keyboard-response,228,1049454,learnblock1,756.7999999523163,img/planet6_left.png,6,Community 2,NA,TRUE,f,f,NA,NA,NA,3,6,"5,15,7,10,9,12,1,6,14,2,11,8,13,3,4"
14816,commdev-image-keyboard-response,229,1050716,learnblock1,490.5,img/planet8_left.png,8,Community 3,NA,TRUE,f,f,NA,NA,NA,3,6,"5,15,7,10,9,12,1,6,14,2,11,8,13,3,4"
14816,commdev-image-keyboard-response,230,1051974,learnblock1,578.1999999880791,img/planet6_right.png,6,Community 2,NA,TRUE,j,j,NA,NA,NA,3,6,"5,15,7,10,9,12,1,6,14,2,11,8,13,3,4"
14816,commdev-image-keyboard-response,231,1053234,learnblock1,524.4000000357628,img/planet8_left.png,8,Community 3,NA,TRUE,f,f,NA,NA,NA,3,6,"5,15,7,10,9,12,1,6,14,2,11,8,13,3,4"
14816,commdev-image-keyboard-response,232,1054491,learnblock1,507.69999998807907,img/planet4_left.png,4,Community 3,NA,FALSE,j,f,NA,NA,NA,3,6,"5,15,7,10,9,12,1,6,14,2,11,8,13,3,4"
14816,commdev-image-keyboard-response,233,1055757,learnblock1,914.1000000238419,img/planet11_left.png,11,Community 3,NA,TRUE,f,f,NA,NA,NA,3,6,"5,15,7,10,9,12,1,6,14,2,11,8,13,3,4"
14816,commdev-image-keyboard-response,234,1057021,learnblock1,470.89999997615814,img/planet4_right.png,4,Community 3,NA,FALSE,f,j,NA,NA,NA,3,6,"5,15,7,10,9,12,1,6,14,2,11,8,13,3,4"
14816,commdev-image-keyboard-response,235,1058284,learnblock1,274.60000002384186,img/planet11_right.png,11,Community 3,NA,FALSE,f,j,NA,NA,NA,3,6,"5,15,7,10,9,12,1,6,14,2,11,8,13,3,4"
14816,commdev-image-keyboard-response,236,1059545,learnblock1,837.6999999880791,img/planet13_left.png,13,Community 3,NA,TRUE,f,f,NA,NA,NA,3,6,"5,15,7,10,9,12,1,6,14,2,11,8,13,3,4"
14816,commdev-image-keyboard-response,237,1060803,learnblock1,615.5,img/planet11_left.png,11,Community 3,NA,FALSE,j,f,NA,NA,NA,3,6,"5,15,7,10,9,12,1,6,14,2,11,8,13,3,4"
14816,commdev-image-keyboard-response,238,1062061,learnblock1,286,img/planet3_right.png,3,Community 3,NA,FALSE,f,j,NA,NA,NA,3,6,"5,15,7,10,9,12,1,6,14,2,11,8,13,3,4"
14816,commdev-image-keyboard-response,239,1063322,learnblock1,170.60000002384186,img/planet13_right.png,13,Community 3,NA,FALSE,f,j,NA,NA,NA,3,6,"5,15,7,10,9,12,1,6,14,2,11,8,13,3,4"
14816,commdev-image-keyboard-response,240,1064580,learnblock1,0.6000000238418579,img/planet11_right.png,11,Community 3,NA,FALSE,f,j,NA,NA,NA,3,6,"5,15,7,10,9,12,1,6,14,2,11,8,13,3,4"
14816,commdev-image-keyboard-response,241,1065834,learnblock1,40.80000001192093,img/planet4_left.png,4,Community 3,NA,FALSE,j,f,NA,NA,NA,3,6,"5,15,7,10,9,12,1,6,14,2,11,8,13,3,4"
14816,commdev-image-keyboard-response,242,1067099,learnblock1,214.0999999642372,img/planet3_left.png,3,Community 3,NA,FALSE,j,f,NA,NA,NA,3,6,"5,15,7,10,9,12,1,6,14,2,11,8,13,3,4"
14816,commdev-image-keyboard-response,243,1068357,learnblock1,696.4000000357628,img/planet11_right.png,11,Community 3,NA,TRUE,j,j,NA,NA,NA,3,6,"5,15,7,10,9,12,1,6,14,2,11,8,13,3,4"
14816,commdev-image-keyboard-response,244,1069614,learnblock1,464.89999997615814,img/planet4_right.png,4,Community 3,NA,TRUE,j,j,NA,NA,NA,3,6,"5,15,7,10,9,12,1,6,14,2,11,8,13,3,4"
14816,commdev-image-keyboard-response,245,1070871,learnblock1,449.7000000476837,img/planet8_right.png,8,Community 3,NA,FALSE,f,j,NA,NA,NA,3,6,"5,15,7,10,9,12,1,6,14,2,11,8,13,3,4"
14816,commdev-image-keyboard-response,246,1072130,learnblock1,1004.1000000238419,img/planet3_right.png,3,Community 3,NA,TRUE,j,j,NA,NA,NA,3,6,"5,15,7,10,9,12,1,6,14,2,11,8,13,3,4"
14816,commdev-image-keyboard-response,247,1073389,learnblock1,737.8999999761581,img/planet13_right.png,13,Community 3,NA,FALSE,f,j,NA,NA,NA,3,6,"5,15,7,10,9,12,1,6,14,2,11,8,13,3,4"
14816,commdev-image-keyboard-response,248,1074645,learnblock1,830,img/planet4_left.png,4,Community 3,NA,TRUE,f,f,NA,NA,NA,3,6,"5,15,7,10,9,12,1,6,14,2,11,8,13,3,4"
14816,commdev-image-keyboard-response,249,1075901,learnblock1,636.3999999761581,img/planet11_left.png,11,Community 3,NA,TRUE,f,f,NA,NA,NA,3,6,"5,15,7,10,9,12,1,6,14,2,11,8,13,3,4"
14816,commdev-image-keyboard-response,250,1077156,learnblock1,350.19999998807907,img/planet9_left.png,9,Community 1,NA,TRUE,f,f,NA,NA,NA,3,6,"5,15,7,10,9,12,1,6,14,2,11,8,13,3,4"
14816,commdev-image-keyboard-response,251,1078417,learnblock1,774.8999999761581,img/planet11_right.png,11,Community 3,NA,TRUE,j,j,NA,NA,NA,3,6,"5,15,7,10,9,12,1,6,14,2,11,8,13,3,4"
14816,commdev-image-keyboard-response,252,1079679,learnblock1,979.2999999523163,img/planet4_left.png,4,Community 3,NA,TRUE,f,f,NA,NA,NA,3,6,"5,15,7,10,9,12,1,6,14,2,11,8,13,3,4"
14816,commdev-image-keyboard-response,253,1080938,learnblock1,908.4000000357628,img/planet3_left.png,3,Community 3,NA,TRUE,f,f,NA,NA,NA,3,6,"5,15,7,10,9,12,1,6,14,2,11,8,13,3,4"
14816,commdev-image-keyboard-response,254,1082191,learnblock1,682.6999999880791,img/planet4_left.png,4,Community 3,NA,TRUE,f,f,NA,NA,NA,3,6,"5,15,7,10,9,12,1,6,14,2,11,8,13,3,4"
14816,commdev-image-keyboard-response,255,1083459,learnblock1,442.0999999642372,img/planet11_left.png,11,Community 3,NA,TRUE,f,f,NA,NA,NA,3,6,"5,15,7,10,9,12,1,6,14,2,11,8,13,3,4"
14816,commdev-image-keyboard-response,256,1084718,learnblock1,545.6999999880791,img/planet9_left.png,9,Community 1,NA,FALSE,j,f,NA,NA,NA,3,6,"5,15,7,10,9,12,1,6,14,2,11,8,13,3,4"
14816,commdev-image-keyboard-response,257,1085977,learnblock1,725.4000000357628,img/planet7_left.png,7,Community 1,NA,TRUE,f,f,NA,NA,NA,3,6,"5,15,7,10,9,12,1,6,14,2,11,8,13,3,4"
14816,commdev-image-keyboard-response,258,1087235,learnblock1,750.3999999761581,img/planet15_left.png,15,Community 1,NA,TRUE,f,f,NA,NA,NA,3,6,"5,15,7,10,9,12,1,6,14,2,11,8,13,3,4"
14816,commdev-image-keyboard-response,259,1088489,learnblock1,983,img/planet9_left.png,9,Community 1,NA,TRUE,f,f,NA,NA,NA,3,6,"5,15,7,10,9,12,1,6,14,2,11,8,13,3,4"
14816,commdev-image-keyboard-response,260,1089750,learnblock1,840.5,img/planet5_left.png,5,Community 1,NA,TRUE,f,f,NA,NA,NA,3,6,"5,15,7,10,9,12,1,6,14,2,11,8,13,3,4"
14816,commdev-image-keyboard-response,261,1091010,learnblock1,595.2999999523163,img/planet7_right.png,7,Community 1,NA,TRUE,j,j,NA,NA,NA,3,6,"5,15,7,10,9,12,1,6,14,2,11,8,13,3,4"
14816,commdev-image-keyboard-response,262,1092276,learnblock1,560.0999999642372,img/planet9_left.png,9,Community 1,NA,TRUE,f,f,NA,NA,NA,3,6,"5,15,7,10,9,12,1,6,14,2,11,8,13,3,4"
14816,commdev-image-keyboard-response,263,1093537,learnblock1,1141.7999999523163,img/planet7_left.png,7,Community 1,NA,TRUE,f,f,NA,NA,NA,3,6,"5,15,7,10,9,12,1,6,14,2,11,8,13,3,4"
14816,commdev-image-keyboard-response,264,1094796,learnblock1,716.9000000357628,img/planet10_left.png,10,Community 1,NA,TRUE,f,f,NA,NA,NA,3,6,"5,15,7,10,9,12,1,6,14,2,11,8,13,3,4"
14816,commdev-image-keyboard-response,265,1096056,learnblock1,1042.5,img/planet15_right.png,15,Community 1,NA,TRUE,j,j,NA,NA,NA,3,6,"5,15,7,10,9,12,1,6,14,2,11,8,13,3,4"
14816,commdev-image-keyboard-response,266,1097312,learnblock1,808.1999999880791,img/planet7_left.png,7,Community 1,NA,TRUE,f,f,NA,NA,NA,3,6,"5,15,7,10,9,12,1,6,14,2,11,8,13,3,4"
14816,commdev-image-keyboard-response,267,1098574,learnblock1,null,img/planet9_left.png,9,Community 1,NA,FALSE,null,f,NA,NA,NA,3,6,"5,15,7,10,9,12,1,6,14,2,11,8,13,3,4"
14816,commdev-image-keyboard-response,268,1099826,learnblock1,18.30000001192093,img/planet15_right.png,15,Community 1,NA,TRUE,j,j,NA,NA,NA,3,6,"5,15,7,10,9,12,1,6,14,2,11,8,13,3,4"
14816,commdev-image-keyboard-response,269,1101085,learnblock1,380.4000000357628,img/planet9_left.png,9,Community 1,NA,TRUE,f,f,NA,NA,NA,3,6,"5,15,7,10,9,12,1,6,14,2,11,8,13,3,4"
14816,commdev-image-keyboard-response,270,1102347,learnblock1,800,img/planet7_right.png,7,Community 1,NA,TRUE,j,j,NA,NA,NA,3,6,"5,15,7,10,9,12,1,6,14,2,11,8,13,3,4"
14816,commdev-image-keyboard-response,271,1103607,learnblock1,680.1999999880791,img/planet10_right.png,10,Community 1,NA,FALSE,f,j,NA,NA,NA,3,6,"5,15,7,10,9,12,1,6,14,2,11,8,13,3,4"
14816,commdev-image-keyboard-response,272,1104868,learnblock1,737.1000000238419,img/planet5_left.png,5,Community 1,NA,TRUE,f,f,NA,NA,NA,3,6,"5,15,7,10,9,12,1,6,14,2,11,8,13,3,4"
14816,commdev-image-keyboard-response,273,1106122,learnblock1,623.8999999761581,img/planet7_left.png,7,Community 1,NA,TRUE,f,f,NA,NA,NA,3,6,"5,15,7,10,9,12,1,6,14,2,11,8,13,3,4"
14816,commdev-image-keyboard-response,274,1107387,learnblock1,669.6999999880791,img/planet5_right.png,5,Community 1,NA,FALSE,f,j,NA,NA,NA,3,6,"5,15,7,10,9,12,1,6,14,2,11,8,13,3,4"
14816,commdev-image-keyboard-response,275,1108651,learnblock1,873.8000000119209,img/planet15_left.png,15,Community 1,NA,FALSE,j,f,NA,NA,NA,3,6,"5,15,7,10,9,12,1,6,14,2,11,8,13,3,4"
14816,commdev-image-keyboard-response,276,1109910,learnblock1,1207.8999999761581,img/planet9_left.png,9,Community 1,NA,TRUE,f,f,NA,NA,NA,3,6,"5,15,7,10,9,12,1,6,14,2,11,8,13,3,4"
14816,commdev-image-keyboard-response,277,1111170,learnblock1,1186.0999999642372,img/planet5_left.png,5,Community 1,NA,TRUE,f,f,NA,NA,NA,3,6,"5,15,7,10,9,12,1,6,14,2,11,8,13,3,4"
14816,commdev-image-keyboard-response,278,1112427,learnblock1,409.30000001192093,img/planet9_left.png,9,Community 1,NA,FALSE,j,f,NA,NA,NA,3,6,"5,15,7,10,9,12,1,6,14,2,11,8,13,3,4"
14816,commdev-image-keyboard-response,279,1113682,learnblock1,743.6999999880791,img/planet15_left.png,15,Community 1,NA,TRUE,f,f,NA,NA,NA,3,6,"5,15,7,10,9,12,1,6,14,2,11,8,13,3,4"
14816,commdev-image-keyboard-response,280,1114944,learnblock1,165.39999997615814,img/planet10_right.png,10,Community 1,NA,FALSE,f,j,NA,NA,NA,3,6,"5,15,7,10,9,12,1,6,14,2,11,8,13,3,4"
14816,commdev-image-keyboard-response,281,1116205,learnblock1,559.5,img/planet15_left.png,15,Community 1,NA,TRUE,f,f,NA,NA,NA,3,6,"5,15,7,10,9,12,1,6,14,2,11,8,13,3,4"
14816,commdev-image-keyboard-response,282,1117464,learnblock1,526.1999999880791,img/planet7_right.png,7,Community 1,NA,TRUE,j,j,NA,NA,NA,3,6,"5,15,7,10,9,12,1,6,14,2,11,8,13,3,4"
14816,commdev-image-keyboard-response,283,1118725,learnblock1,813,img/planet5_left.png,5,Community 1,NA,TRUE,f,f,NA,NA,NA,3,6,"5,15,7,10,9,12,1,6,14,2,11,8,13,3,4"
14816,commdev-image-keyboard-response,284,1119982,learnblock1,441.60000002384186,img/planet7_right.png,7,Community 1,NA,TRUE,j,j,NA,NA,NA,3,6,"5,15,7,10,9,12,1,6,14,2,11,8,13,3,4"
14816,commdev-image-keyboard-response,285,1121242,learnblock1,582.8000000119209,img/planet5_left.png,5,Community 1,NA,TRUE,f,f,NA,NA,NA,3,6,"5,15,7,10,9,12,1,6,14,2,11,8,13,3,4"
14816,commdev-image-keyboard-response,286,1122503,learnblock1,266.69999998807907,img/planet9_left.png,9,Community 1,NA,FALSE,j,f,NA,NA,NA,3,6,"5,15,7,10,9,12,1,6,14,2,11,8,13,3,4"
14816,commdev-image-keyboard-response,287,1123762,learnblock1,369,img/planet15_left.png,15,Community 1,NA,FALSE,j,f,NA,NA,NA,3,6,"5,15,7,10,9,12,1,6,14,2,11,8,13,3,4"
14816,commdev-image-keyboard-response,288,1125029,learnblock1,79.40000003576279,img/planet9_right.png,9,Community 1,NA,FALSE,f,j,NA,NA,NA,3,6,"5,15,7,10,9,12,1,6,14,2,11,8,13,3,4"
14816,commdev-image-keyboard-response,289,1126287,learnblock1,722.5,img/planet15_right.png,15,Community 1,NA,FALSE,f,j,NA,NA,NA,3,6,"5,15,7,10,9,12,1,6,14,2,11,8,13,3,4"
14816,commdev-image-keyboard-response,290,1127547,learnblock1,598.3999999761581,img/planet5_left.png,5,Community 1,NA,TRUE,f,f,NA,NA,NA,3,6,"5,15,7,10,9,12,1,6,14,2,11,8,13,3,4"
14816,commdev-image-keyboard-response,291,1128802,learnblock1,442.5,img/planet15_left.png,15,Community 1,NA,TRUE,f,f,NA,NA,NA,3,6,"5,15,7,10,9,12,1,6,14,2,11,8,13,3,4"
14816,commdev-image-keyboard-response,292,1130057,learnblock1,458.5999999642372,img/planet5_right.png,5,Community 1,NA,FALSE,f,j,NA,NA,NA,3,6,"5,15,7,10,9,12,1,6,14,2,11,8,13,3,4"
14816,commdev-image-keyboard-response,293,1131317,learnblock1,null,img/planet15_left.png,15,Community 1,NA,FALSE,null,f,NA,NA,NA,3,6,"5,15,7,10,9,12,1,6,14,2,11,8,13,3,4"
14816,commdev-image-keyboard-response,294,1132576,learnblock1,375.80000001192093,img/planet10_left.png,10,Community 1,NA,FALSE,j,f,NA,NA,NA,3,6,"5,15,7,10,9,12,1,6,14,2,11,8,13,3,4"
14816,commdev-image-keyboard-response,295,1133828,learnblock1,null,img/planet5_left.png,5,Community 1,NA,FALSE,null,f,NA,NA,NA,3,6,"5,15,7,10,9,12,1,6,14,2,11,8,13,3,4"
14816,commdev-image-keyboard-response,296,1135087,learnblock1,null,img/planet15_left.png,15,Community 1,NA,FALSE,null,f,NA,NA,NA,3,6,"5,15,7,10,9,12,1,6,14,2,11,8,13,3,4"
14816,commdev-image-keyboard-response,297,1136341,learnblock1,null,img/planet7_left.png,7,Community 1,NA,FALSE,null,f,NA,NA,NA,3,6,"5,15,7,10,9,12,1,6,14,2,11,8,13,3,4"
14816,commdev-image-keyboard-response,298,1137602,learnblock1,1117.5,img/planet10_left.png,10,Community 1,NA,FALSE,j,f,NA,NA,NA,3,6,"5,15,7,10,9,12,1,6,14,2,11,8,13,3,4"
14816,commdev-image-keyboard-response,299,1138861,learnblock1,797.3999999761581,img/planet12_left.png,12,Community 2,NA,TRUE,f,f,NA,NA,NA,3,6,"5,15,7,10,9,12,1,6,14,2,11,8,13,3,4"
14816,commdev-image-keyboard-response,300,1140122,learnblock1,115.39999997615814,img/planet2_right.png,2,Community 2,NA,FALSE,f,j,NA,NA,NA,3,6,"5,15,7,10,9,12,1,6,14,2,11,8,13,3,4"
14816,commdev-image-keyboard-response,301,1141384,learnblock1,730.6000000238419,img/planet14_left.png,14,Community 2,NA,TRUE,f,f,NA,NA,NA,3,6,"5,15,7,10,9,12,1,6,14,2,11,8,13,3,4"
14816,commdev-image-keyboard-response,302,1142645,learnblock1,717,img/planet6_left.png,6,Community 2,NA,TRUE,f,f,NA,NA,NA,3,6,"5,15,7,10,9,12,1,6,14,2,11,8,13,3,4"
14816,commdev-image-keyboard-response,303,1143905,learnblock1,677.6999999880791,img/planet1_left.png,1,Community 2,NA,TRUE,f,f,NA,NA,NA,3,6,"5,15,7,10,9,12,1,6,14,2,11,8,13,3,4"
14816,commdev-image-keyboard-response,304,1145166,learnblock1,533.7999999523163,img/planet14_right.png,14,Community 2,NA,TRUE,j,j,NA,NA,NA,3,6,"5,15,7,10,9,12,1,6,14,2,11,8,13,3,4"
14816,commdev-image-keyboard-response,305,1146430,learnblock1,657.1000000238419,img/planet12_right.png,12,Community 2,NA,FALSE,f,j,NA,NA,NA,3,6,"5,15,7,10,9,12,1,6,14,2,11,8,13,3,4"
14816,commdev-image-keyboard-response,306,1147688,learnblock1,567.7000000476837,img/planet2_right.png,2,Community 2,NA,TRUE,j,j,NA,NA,NA,3,6,"5,15,7,10,9,12,1,6,14,2,11,8,13,3,4"
14816,commdev-image-keyboard-response,307,1148949,learnblock1,695.3000000119209,img/planet14_left.png,14,Community 2,NA,TRUE,f,f,NA,NA,NA,3,6,"5,15,7,10,9,12,1,6,14,2,11,8,13,3,4"
14816,commdev-image-keyboard-response,308,1150205,learnblock1,552.5,img/planet1_left.png,1,Community 2,NA,TRUE,f,f,NA,NA,NA,3,6,"5,15,7,10,9,12,1,6,14,2,11,8,13,3,4"
14816,commdev-image-keyboard-response,309,1151462,learnblock1,425.30000001192093,img/planet2_right.png,2,Community 2,NA,TRUE,j,j,NA,NA,NA,3,6,"5,15,7,10,9,12,1,6,14,2,11,8,13,3,4"
14816,commdev-image-keyboard-response,310,1152726,learnblock1,714.6999999880791,img/planet14_right.png,14,Community 2,NA,TRUE,j,j,NA,NA,NA,3,6,"5,15,7,10,9,12,1,6,14,2,11,8,13,3,4"
14816,commdev-image-keyboard-response,311,1153986,learnblock1,516.8000000119209,img/planet12_right.png,12,Community 2,NA,FALSE,f,j,NA,NA,NA,3,6,"5,15,7,10,9,12,1,6,14,2,11,8,13,3,4"
14816,commdev-image-keyboard-response,312,1155247,learnblock1,94.80000001192093,img/planet1_left.png,1,Community 2,NA,FALSE,j,f,NA,NA,NA,3,6,"5,15,7,10,9,12,1,6,14,2,11,8,13,3,4"
14816,commdev-image-keyboard-response,313,1156502,learnblock1,13.600000023841858,img/planet14_left.png,14,Community 2,NA,TRUE,f,f,NA,NA,NA,3,6,"5,15,7,10,9,12,1,6,14,2,11,8,13,3,4"
14816,commdev-image-keyboard-response,314,1157754,learnblock1,109.19999998807907,img/planet12_right.png,12,Community 2,NA,FALSE,f,j,NA,NA,NA,3,6,"5,15,7,10,9,12,1,6,14,2,11,8,13,3,4"
14816,commdev-image-keyboard-response,315,1159012,learnblock1,38.60000002384186,img/planet14_left.png,14,Community 2,NA,TRUE,f,f,NA,NA,NA,3,6,"5,15,7,10,9,12,1,6,14,2,11,8,13,3,4"
14816,commdev-image-keyboard-response,316,1160270,learnblock1,129.5,img/planet12_left.png,12,Community 2,NA,FALSE,j,f,NA,NA,NA,3,6,"5,15,7,10,9,12,1,6,14,2,11,8,13,3,4"
14816,commdev-image-keyboard-response,317,1161527,learnblock1,192.10000002384186,img/planet1_right.png,1,Community 2,NA,TRUE,j,j,NA,NA,NA,3,6,"5,15,7,10,9,12,1,6,14,2,11,8,13,3,4"
14816,commdev-image-keyboard-response,318,1162785,learnblock1,291.9000000357628,img/planet2_left.png,2,Community 2,NA,TRUE,f,f,NA,NA,NA,3,6,"5,15,7,10,9,12,1,6,14,2,11,8,13,3,4"
14816,commdev-image-keyboard-response,319,1164046,learnblock1,583.5,img/planet6_left.png,6,Community 2,NA,FALSE,j,f,NA,NA,NA,3,6,"5,15,7,10,9,12,1,6,14,2,11,8,13,3,4"
14816,commdev-image-keyboard-response,320,1165297,learnblock1,356.4000000357628,img/planet14_left.png,14,Community 2,NA,TRUE,f,f,NA,NA,NA,3,6,"5,15,7,10,9,12,1,6,14,2,11,8,13,3,4"
14816,commdev-image-keyboard-response,321,1166558,learnblock1,355.2000000476837,img/planet1_right.png,1,Community 2,NA,FALSE,f,j,NA,NA,NA,3,6,"5,15,7,10,9,12,1,6,14,2,11,8,13,3,4"
14816,commdev-image-keyboard-response,322,1167822,learnblock1,997.3999999761581,img/planet14_left.png,14,Community 2,NA,TRUE,f,f,NA,NA,NA,3,6,"5,15,7,10,9,12,1,6,14,2,11,8,13,3,4"
14816,commdev-image-keyboard-response,323,1169080,learnblock1,502,img/planet2_left.png,2,Community 2,NA,FALSE,j,f,NA,NA,NA,3,6,"5,15,7,10,9,12,1,6,14,2,11,8,13,3,4"
14816,commdev-image-keyboard-response,324,1170339,learnblock1,1053.8999999761581,img/planet14_right.png,14,Community 2,NA,FALSE,f,j,NA,NA,NA,3,6,"5,15,7,10,9,12,1,6,14,2,11,8,13,3,4"
14816,commdev-image-keyboard-response,325,1171599,learnblock1,443.0999999642372,img/planet1_right.png,1,Community 2,NA,TRUE,j,j,NA,NA,NA,3,6,"5,15,7,10,9,12,1,6,14,2,11,8,13,3,4"
14816,commdev-image-keyboard-response,326,1172853,learnblock1,549.3999999761581,img/planet6_right.png,6,Community 2,NA,TRUE,j,j,NA,NA,NA,3,6,"5,15,7,10,9,12,1,6,14,2,11,8,13,3,4"
14816,commdev-image-keyboard-response,327,1174112,learnblock1,63,img/planet14_left.png,14,Community 2,NA,TRUE,f,f,NA,NA,NA,3,6,"5,15,7,10,9,12,1,6,14,2,11,8,13,3,4"
14816,commdev-image-keyboard-response,328,1175372,learnblock1,null,img/planet6_right.png,6,Community 2,NA,FALSE,null,j,NA,NA,NA,3,6,"5,15,7,10,9,12,1,6,14,2,11,8,13,3,4"
14816,commdev-image-keyboard-response,329,1176632,learnblock1,139,img/planet2_right.png,2,Community 2,NA,TRUE,j,j,NA,NA,NA,3,6,"5,15,7,10,9,12,1,6,14,2,11,8,13,3,4"
14816,commdev-image-keyboard-response,330,1177889,learnblock1,459.30000001192093,img/planet1_left.png,1,Community 2,NA,FALSE,j,f,NA,NA,NA,3,6,"5,15,7,10,9,12,1,6,14,2,11,8,13,3,4"
14816,commdev-image-keyboard-response,331,1179156,learnblock1,330.30000001192093,img/planet12_right.png,12,Community 2,NA,FALSE,f,j,NA,NA,NA,3,6,"5,15,7,10,9,12,1,6,14,2,11,8,13,3,4"
14816,commdev-image-keyboard-response,332,1180423,learnblock1,253.89999997615814,img/planet14_left.png,14,Community 2,NA,FALSE,j,f,NA,NA,NA,3,6,"5,15,7,10,9,12,1,6,14,2,11,8,13,3,4"
14816,commdev-image-keyboard-response,333,1181681,learnblock1,1052,img/planet1_left.png,1,Community 2,NA,FALSE,j,f,NA,NA,NA,3,6,"5,15,7,10,9,12,1,6,14,2,11,8,13,3,4"
14816,commdev-image-keyboard-response,334,1182942,learnblock1,833.8000000119209,img/planet14_right.png,14,Community 2,NA,FALSE,f,j,NA,NA,NA,3,6,"5,15,7,10,9,12,1,6,14,2,11,8,13,3,4"
14816,commdev-image-keyboard-response,335,1184198,learnblock1,null,img/planet12_left.png,12,Community 2,NA,FALSE,null,f,NA,NA,NA,3,6,"5,15,7,10,9,12,1,6,14,2,11,8,13,3,4"
14816,commdev-image-keyboard-response,336,1185460,learnblock1,324.89999997615814,img/planet14_right.png,14,Community 2,NA,TRUE,j,j,NA,NA,NA,3,6,"5,15,7,10,9,12,1,6,14,2,11,8,13,3,4"
14816,commdev-image-keyboard-response,337,1186723,learnblock1,957.1000000238419,img/planet12_right.png,12,Community 2,NA,FALSE,f,j,NA,NA,NA,3,6,"5,15,7,10,9,12,1,6,14,2,11,8,13,3,4"
14816,commdev-image-keyboard-response,338,1187982,learnblock1,688.6000000238419,img/planet1_right.png,1,Community 2,NA,TRUE,j,j,NA,NA,NA,3,6,"5,15,7,10,9,12,1,6,14,2,11,8,13,3,4"
14816,commdev-image-keyboard-response,339,1189239,learnblock1,532.5,img/planet12_left.png,12,Community 2,NA,FALSE,j,f,NA,NA,NA,3,6,"5,15,7,10,9,12,1,6,14,2,11,8,13,3,4"
14816,commdev-image-keyboard-response,340,1190506,learnblock1,null,img/planet2_right.png,2,Community 2,NA,FALSE,null,j,NA,NA,NA,3,6,"5,15,7,10,9,12,1,6,14,2,11,8,13,3,4"
14816,commdev-image-keyboard-response,341,1191764,learnblock1,null,img/planet14_left.png,14,Community 2,NA,FALSE,null,f,NA,NA,NA,3,6,"5,15,7,10,9,12,1,6,14,2,11,8,13,3,4"
14816,commdev-image-keyboard-response,342,1193027,learnblock1,256.4000000357628,img/planet2_left.png,2,Community 2,NA,TRUE,f,f,NA,NA,NA,3,6,"5,15,7,10,9,12,1,6,14,2,11,8,13,3,4"
14816,commdev-image-keyboard-response,343,1194293,learnblock1,null,img/planet14_right.png,14,Community 2,NA,FALSE,null,j,NA,NA,NA,3,6,"5,15,7,10,9,12,1,6,14,2,11,8,13,3,4"
14816,commdev-image-keyboard-response,344,1195545,learnblock1,null,img/planet12_left.png,12,Community 2,NA,FALSE,null,f,NA,NA,NA,3,6,"5,15,7,10,9,12,1,6,14,2,11,8,13,3,4"
14816,commdev-image-keyboard-response,345,1196807,learnblock1,729.5,img/planet10_right.png,10,Community 1,NA,TRUE,j,j,NA,NA,NA,3,6,"5,15,7,10,9,12,1,6,14,2,11,8,13,3,4"
14816,commdev-image-keyboard-response,346,1198062,learnblock1,502.39999997615814,img/planet7_left.png,7,Community 1,NA,FALSE,j,f,NA,NA,NA,3,6,"5,15,7,10,9,12,1,6,14,2,11,8,13,3,4"
14816,commdev-image-keyboard-response,347,1199320,learnblock1,514,img/planet9_right.png,9,Community 1,NA,TRUE,j,j,NA,NA,NA,3,6,"5,15,7,10,9,12,1,6,14,2,11,8,13,3,4"
14816,commdev-image-keyboard-response,351,1525923,learnblock2,907.8999999761581,img/planet5_right.png,5,Community 1,NA,TRUE,j,j,NA,NA,NA,3,6,"5,15,7,10,9,12,1,6,14,2,11,8,13,3,4"
14816,commdev-image-keyboard-response,352,1527183,learnblock2,876.6999999880791,img/planet9_left.png,9,Community 1,NA,TRUE,f,f,NA,NA,NA,3,6,"5,15,7,10,9,12,1,6,14,2,11,8,13,3,4"
14816,commdev-image-keyboard-response,353,1528442,learnblock2,657.3000000119209,img/planet15_right.png,15,Community 1,NA,TRUE,j,j,NA,NA,NA,3,6,"5,15,7,10,9,12,1,6,14,2,11,8,13,3,4"
14816,commdev-image-keyboard-response,354,1529706,learnblock2,573.3000000119209,img/planet7_left.png,7,Community 1,NA,TRUE,f,f,NA,NA,NA,3,6,"5,15,7,10,9,12,1,6,14,2,11,8,13,3,4"
14816,commdev-image-keyboard-response,355,1530964,learnblock2,551.6000000238419,img/planet10_right.png,10,Community 1,NA,FALSE,f,j,NA,NA,NA,3,6,"5,15,7,10,9,12,1,6,14,2,11,8,13,3,4"
14816,commdev-image-keyboard-response,356,1532219,learnblock2,823.4000000357628,img/planet7_left.png,7,Community 1,NA,FALSE,j,f,NA,NA,NA,3,6,"5,15,7,10,9,12,1,6,14,2,11,8,13,3,4"
14816,commdev-image-keyboard-response,357,1533477,learnblock2,779,img/planet9_left.png,9,Community 1,NA,TRUE,f,f,NA,NA,NA,3,6,"5,15,7,10,9,12,1,6,14,2,11,8,13,3,4"
14816,commdev-image-keyboard-response,358,1534741,learnblock2,720,img/planet7_left.png,7,Community 1,NA,TRUE,f,f,NA,NA,NA,3,6,"5,15,7,10,9,12,1,6,14,2,11,8,13,3,4"
14816,commdev-image-keyboard-response,359,1535998,learnblock2,489.30000001192093,img/planet10_right.png,10,Community 1,NA,TRUE,j,j,NA,NA,NA,3,6,"5,15,7,10,9,12,1,6,14,2,11,8,13,3,4"
14816,commdev-image-keyboard-response,360,1537258,learnblock2,522.1999999880791,img/planet15_right.png,15,Community 1,NA,TRUE,j,j,NA,NA,NA,3,6,"5,15,7,10,9,12,1,6,14,2,11,8,13,3,4"
14816,commdev-image-keyboard-response,361,1538525,learnblock2,640.4000000357628,img/planet5_right.png,5,Community 1,NA,TRUE,j,j,NA,NA,NA,3,6,"5,15,7,10,9,12,1,6,14,2,11,8,13,3,4"
14816,commdev-image-keyboard-response,362,1539781,learnblock2,532.3999999761581,img/planet9_right.png,9,Community 1,NA,TRUE,j,j,NA,NA,NA,3,6,"5,15,7,10,9,12,1,6,14,2,11,8,13,3,4"
14816,commdev-image-keyboard-response,363,1541042,learnblock2,514.5,img/planet7_right.png,7,Community 1,NA,TRUE,j,j,NA,NA,NA,3,6,"5,15,7,10,9,12,1,6,14,2,11,8,13,3,4"
14816,commdev-image-keyboard-response,364,1542301,learnblock2,510.39999997615814,img/planet5_left.png,5,Community 1,NA,TRUE,f,f,NA,NA,NA,3,6,"5,15,7,10,9,12,1,6,14,2,11,8,13,3,4"
14816,commdev-image-keyboard-response,365,1543561,learnblock2,568.8000000119209,img/planet15_right.png,15,Community 1,NA,TRUE,j,j,NA,NA,NA,3,6,"5,15,7,10,9,12,1,6,14,2,11,8,13,3,4"
14816,commdev-image-keyboard-response,366,1544815,learnblock2,657.3000000119209,img/planet7_right.png,7,Community 1,NA,TRUE,j,j,NA,NA,NA,3,6,"5,15,7,10,9,12,1,6,14,2,11,8,13,3,4"
14816,commdev-image-keyboard-response,367,1546071,learnblock2,760.4000000357628,img/planet15_left.png,15,Community 1,NA,TRUE,f,f,NA,NA,NA,3,6,"5,15,7,10,9,12,1,6,14,2,11,8,13,3,4"
14816,commdev-image-keyboard-response,368,1547337,learnblock2,620.6000000238419,img/planet9_left.png,9,Community 1,NA,TRUE,f,f,NA,NA,NA,3,6,"5,15,7,10,9,12,1,6,14,2,11,8,13,3,4"
14816,commdev-image-keyboard-response,369,1548602,learnblock2,494,img/planet15_right.png,15,Community 1,NA,TRUE,j,j,NA,NA,NA,3,6,"5,15,7,10,9,12,1,6,14,2,11,8,13,3,4"
14816,commdev-image-keyboard-response,370,1549865,learnblock2,482.89999997615814,img/planet9_right.png,9,Community 1,NA,TRUE,j,j,NA,NA,NA,3,6,"5,15,7,10,9,12,1,6,14,2,11,8,13,3,4"
14816,commdev-image-keyboard-response,371,1551123,learnblock2,579.6000000238419,img/planet7_right.png,7,Community 1,NA,TRUE,j,j,NA,NA,NA,3,6,"5,15,7,10,9,12,1,6,14,2,11,8,13,3,4"
14816,commdev-image-keyboard-response,372,1552382,learnblock2,417.60000002384186,img/planet5_left.png,5,Community 1,NA,TRUE,f,f,NA,NA,NA,3,6,"5,15,7,10,9,12,1,6,14,2,11,8,13,3,4"
14816,commdev-image-keyboard-response,373,1553648,learnblock2,653.5999999642372,img/planet15_left.png,15,Community 1,NA,TRUE,f,f,NA,NA,NA,3,6,"5,15,7,10,9,12,1,6,14,2,11,8,13,3,4"
14816,commdev-image-keyboard-response,374,1554906,learnblock2,529.3999999761581,img/planet5_left.png,5,Community 1,NA,TRUE,f,f,NA,NA,NA,3,6,"5,15,7,10,9,12,1,6,14,2,11,8,13,3,4"
14816,commdev-image-keyboard-response,375,1556168,learnblock2,571.8999999761581,img/planet10_right.png,10,Community 1,NA,TRUE,j,j,NA,NA,NA,3,6,"5,15,7,10,9,12,1,6,14,2,11,8,13,3,4"
14816,commdev-image-keyboard-response,376,1557428,learnblock2,658,img/planet12_left.png,12,Community 2,NA,TRUE,f,f,NA,NA,NA,3,6,"5,15,7,10,9,12,1,6,14,2,11,8,13,3,4"
14816,commdev-image-keyboard-response,377,1558693,learnblock2,1020.3999999761581,img/planet2_left.png,2,Community 2,NA,TRUE,f,f,NA,NA,NA,3,6,"5,15,7,10,9,12,1,6,14,2,11,8,13,3,4"
14816,commdev-image-keyboard-response,378,1559946,learnblock2,660.3000000119209,img/planet12_left.png,12,Community 2,NA,TRUE,f,f,NA,NA,NA,3,6,"5,15,7,10,9,12,1,6,14,2,11,8,13,3,4"
14816,commdev-image-keyboard-response,379,1561200,learnblock2,530.8999999761581,img/planet14_right.png,14,Community 2,NA,TRUE,j,j,NA,NA,NA,3,6,"5,15,7,10,9,12,1,6,14,2,11,8,13,3,4"
14816,commdev-image-keyboard-response,380,1562456,learnblock2,583.3999999761581,img/planet12_left.png,12,Community 2,NA,TRUE,f,f,NA,NA,NA,3,6,"5,15,7,10,9,12,1,6,14,2,11,8,13,3,4"
14816,commdev-image-keyboard-response,381,1563722,learnblock2,462.0999999642372,img/planet10_left.png,10,Community 1,NA,TRUE,f,f,NA,NA,NA,3,6,"5,15,7,10,9,12,1,6,14,2,11,8,13,3,4"
14816,commdev-image-keyboard-response,382,1564982,learnblock2,600.5,img/planet12_left.png,12,Community 2,NA,TRUE,f,f,NA,NA,NA,3,6,"5,15,7,10,9,12,1,6,14,2,11,8,13,3,4"
14816,commdev-image-keyboard-response,383,1566242,learnblock2,464.39999997615814,img/planet2_right.png,2,Community 2,NA,TRUE,j,j,NA,NA,NA,3,6,"5,15,7,10,9,12,1,6,14,2,11,8,13,3,4"
14816,commdev-image-keyboard-response,384,1567499,learnblock2,531.3999999761581,img/planet1_left.png,1,Community 2,NA,TRUE,f,f,NA,NA,NA,3,6,"5,15,7,10,9,12,1,6,14,2,11,8,13,3,4"
14816,commdev-image-keyboard-response,385,1568759,learnblock2,512.7000000476837,img/planet2_left.png,2,Community 2,NA,TRUE,f,f,NA,NA,NA,3,6,"5,15,7,10,9,12,1,6,14,2,11,8,13,3,4"
14816,commdev-image-keyboard-response,386,1570017,learnblock2,677.6999999880791,img/planet6_left.png,6,Community 2,NA,TRUE,f,f,NA,NA,NA,3,6,"5,15,7,10,9,12,1,6,14,2,11,8,13,3,4"
14816,commdev-image-keyboard-response,387,1571285,learnblock2,478,img/planet2_right.png,2,Community 2,NA,TRUE,j,j,NA,NA,NA,3,6,"5,15,7,10,9,12,1,6,14,2,11,8,13,3,4"
14816,commdev-image-keyboard-response,388,1572542,learnblock2,602.6999999880791,img/planet6_right.png,6,Community 2,NA,TRUE,j,j,NA,NA,NA,3,6,"5,15,7,10,9,12,1,6,14,2,11,8,13,3,4"
14816,commdev-image-keyboard-response,389,1573804,learnblock2,565,img/planet2_left.png,2,Community 2,NA,TRUE,f,f,NA,NA,NA,3,6,"5,15,7,10,9,12,1,6,14,2,11,8,13,3,4"
14816,commdev-image-keyboard-response,390,1575062,learnblock2,504.7999999523163,img/planet14_right.png,14,Community 2,NA,TRUE,j,j,NA,NA,NA,3,6,"5,15,7,10,9,12,1,6,14,2,11,8,13,3,4"
14816,commdev-image-keyboard-response,391,1576322,learnblock2,495.60000002384186,img/planet12_left.png,12,Community 2,NA,TRUE,f,f,NA,NA,NA,3,6,"5,15,7,10,9,12,1,6,14,2,11,8,13,3,4"
14816,commdev-image-keyboard-response,392,1577584,learnblock2,404.30000001192093,img/planet14_right.png,14,Community 2,NA,TRUE,j,j,NA,NA,NA,3,6,"5,15,7,10,9,12,1,6,14,2,11,8,13,3,4"
14816,commdev-image-keyboard-response,393,1578841,learnblock2,498.10000002384186,img/planet12_right.png,12,Community 2,NA,TRUE,j,j,NA,NA,NA,3,6,"5,15,7,10,9,12,1,6,14,2,11,8,13,3,4"
14816,commdev-image-keyboard-response,394,1580097,learnblock2,478.5,img/planet2_left.png,2,Community 2,NA,TRUE,f,f,NA,NA,NA,3,6,"5,15,7,10,9,12,1,6,14,2,11,8,13,3,4"
14816,commdev-image-keyboard-response,395,1581354,learnblock2,510.19999998807907,img/planet14_left.png,14,Community 2,NA,TRUE,f,f,NA,NA,NA,3,6,"5,15,7,10,9,12,1,6,14,2,11,8,13,3,4"
14816,commdev-image-keyboard-response,396,1582615,learnblock2,533.6999999880791,img/planet12_left.png,12,Community 2,NA,TRUE,f,f,NA,NA,NA,3,6,"5,15,7,10,9,12,1,6,14,2,11,8,13,3,4"
14816,commdev-image-keyboard-response,397,1583875,learnblock2,604.6999999880791,img/planet10_right.png,10,Community 1,NA,TRUE,j,j,NA,NA,NA,3,6,"5,15,7,10,9,12,1,6,14,2,11,8,13,3,4"
14816,commdev-image-keyboard-response,398,1585134,learnblock2,705.2000000476837,img/planet15_left.png,15,Community 1,NA,TRUE,f,f,NA,NA,NA,3,6,"5,15,7,10,9,12,1,6,14,2,11,8,13,3,4"
14816,commdev-image-keyboard-response,399,1586389,learnblock2,620.5,img/planet9_right.png,9,Community 1,NA,TRUE,j,j,NA,NA,NA,3,6,"5,15,7,10,9,12,1,6,14,2,11,8,13,3,4"
14816,commdev-image-keyboard-response,400,1587644,learnblock2,603.1000000238419,img/planet15_left.png,15,Community 1,NA,TRUE,f,f,NA,NA,NA,3,6,"5,15,7,10,9,12,1,6,14,2,11,8,13,3,4"
14816,commdev-image-keyboard-response,401,1588906,learnblock2,536.4000000357628,img/planet5_right.png,5,Community 1,NA,TRUE,j,j,NA,NA,NA,3,6,"5,15,7,10,9,12,1,6,14,2,11,8,13,3,4"
14816,commdev-image-keyboard-response,402,1590164,learnblock2,543.6000000238419,img/planet15_right.png,15,Community 1,NA,FALSE,f,j,NA,NA,NA,3,6,"5,15,7,10,9,12,1,6,14,2,11,8,13,3,4"
14816,commdev-image-keyboard-response,403,1591423,learnblock2,489.10000002384186,img/planet9_left.png,9,Community 1,NA,TRUE,f,f,NA,NA,NA,3,6,"5,15,7,10,9,12,1,6,14,2,11,8,13,3,4"
14816,commdev-image-keyboard-response,404,1592686,learnblock2,780.3000000119209,img/planet15_right.png,15,Community 1,NA,TRUE,j,j,NA,NA,NA,3,6,"5,15,7,10,9,12,1,6,14,2,11,8,13,3,4"
14816,commdev-image-keyboard-response,405,1593948,learnblock2,872.3999999761581,img/planet10_left.png,10,Community 1,NA,FALSE,j,f,NA,NA,NA,3,6,"5,15,7,10,9,12,1,6,14,2,11,8,13,3,4"
14816,commdev-image-keyboard-response,406,1595204,learnblock2,686.8999999761581,img/planet12_left.png,12,Community 2,NA,TRUE,f,f,NA,NA,NA,3,6,"5,15,7,10,9,12,1,6,14,2,11,8,13,3,4"
14816,commdev-image-keyboard-response,407,1596465,learnblock2,654.8000000119209,img/planet2_right.png,2,Community 2,NA,TRUE,j,j,NA,NA,NA,3,6,"5,15,7,10,9,12,1,6,14,2,11,8,13,3,4"
14816,commdev-image-keyboard-response,408,1597726,learnblock2,613,img/planet12_left.png,12,Community 2,NA,TRUE,f,f,NA,NA,NA,3,6,"5,15,7,10,9,12,1,6,14,2,11,8,13,3,4"
14816,commdev-image-keyboard-response,409,1598990,learnblock2,594.6000000238419,img/planet14_left.png,14,Community 2,NA,TRUE,f,f,NA,NA,NA,3,6,"5,15,7,10,9,12,1,6,14,2,11,8,13,3,4"
14816,commdev-image-keyboard-response,410,1600250,learnblock2,1211.8999999761581,img/planet2_left.png,2,Community 2,NA,TRUE,f,f,NA,NA,NA,3,6,"5,15,7,10,9,12,1,6,14,2,11,8,13,3,4"
14816,commdev-image-keyboard-response,411,1601511,learnblock2,811.1000000238419,img/planet12_left.png,12,Community 2,NA,TRUE,f,f,NA,NA,NA,3,6,"5,15,7,10,9,12,1,6,14,2,11,8,13,3,4"
14816,commdev-image-keyboard-response,412,1602771,learnblock2,540.1999999880791,img/planet1_left.png,1,Community 2,NA,FALSE,j,f,NA,NA,NA,3,6,"5,15,7,10,9,12,1,6,14,2,11,8,13,3,4"
14816,commdev-image-keyboard-response,413,1604030,learnblock2,809,img/planet12_right.png,12,Community 2,NA,TRUE,j,j,NA,NA,NA,3,6,"5,15,7,10,9,12,1,6,14,2,11,8,13,3,4"
14816,commdev-image-keyboard-response,414,1605290,learnblock2,552.8000000119209,img/planet14_right.png,14,Community 2,NA,TRUE,j,j,NA,NA,NA,3,6,"5,15,7,10,9,12,1,6,14,2,11,8,13,3,4"
14816,commdev-image-keyboard-response,415,1606549,learnblock2,529.4000000357628,img/planet12_left.png,12,Community 2,NA,TRUE,f,f,NA,NA,NA,3,6,"5,15,7,10,9,12,1,6,14,2,11,8,13,3,4"
14816,commdev-image-keyboard-response,416,1607809,learnblock2,732.3000000119209,img/planet2_left.png,2,Community 2,NA,TRUE,f,f,NA,NA,NA,3,6,"5,15,7,10,9,12,1,6,14,2,11,8,13,3,4"
14816,commdev-image-keyboard-response,417,1609070,learnblock2,528.1000000238419,img/planet14_left.png,14,Community 2,NA,TRUE,f,f,NA,NA,NA,3,6,"5,15,7,10,9,12,1,6,14,2,11,8,13,3,4"
14816,commdev-image-keyboard-response,418,1610327,learnblock2,526.3999999761581,img/planet6_right.png,6,Community 2,NA,TRUE,j,j,NA,NA,NA,3,6,"5,15,7,10,9,12,1,6,14,2,11,8,13,3,4"
14816,commdev-image-keyboard-response,419,1611585,learnblock2,670,img/planet2_right.png,2,Community 2,NA,TRUE,j,j,NA,NA,NA,3,6,"5,15,7,10,9,12,1,6,14,2,11,8,13,3,4"
14816,commdev-image-keyboard-response,420,1612836,learnblock2,492.89999997615814,img/planet1_right.png,1,Community 2,NA,TRUE,j,j,NA,NA,NA,3,6,"5,15,7,10,9,12,1,6,14,2,11,8,13,3,4"
14816,commdev-image-keyboard-response,421,1614097,learnblock2,713.8000000119209,img/planet2_right.png,2,Community 2,NA,TRUE,j,j,NA,NA,NA,3,6,"5,15,7,10,9,12,1,6,14,2,11,8,13,3,4"
14816,commdev-image-keyboard-response,422,1615356,learnblock2,623.7000000476837,img/planet12_right.png,12,Community 2,NA,TRUE,j,j,NA,NA,NA,3,6,"5,15,7,10,9,12,1,6,14,2,11,8,13,3,4"
14816,commdev-image-keyboard-response,423,1616616,learnblock2,494.0999999642372,img/planet10_right.png,10,Community 1,NA,TRUE,j,j,NA,NA,NA,3,6,"5,15,7,10,9,12,1,6,14,2,11,8,13,3,4"
14816,commdev-image-keyboard-response,424,1617876,learnblock2,717.8999999761581,img/planet15_left.png,15,Community 1,NA,TRUE,f,f,NA,NA,NA,3,6,"5,15,7,10,9,12,1,6,14,2,11,8,13,3,4"
14816,commdev-image-keyboard-response,425,1619137,learnblock2,776.3000000119209,img/planet5_left.png,5,Community 1,NA,TRUE,f,f,NA,NA,NA,3,6,"5,15,7,10,9,12,1,6,14,2,11,8,13,3,4"
14816,commdev-image-keyboard-response,426,1620392,learnblock2,564.6000000238419,img/planet9_left.png,9,Community 1,NA,TRUE,f,f,NA,NA,NA,3,6,"5,15,7,10,9,12,1,6,14,2,11,8,13,3,4"
14816,commdev-image-keyboard-response,427,1621656,learnblock2,691.5999999642372,img/planet5_right.png,5,Community 1,NA,TRUE,j,j,NA,NA,NA,3,6,"5,15,7,10,9,12,1,6,14,2,11,8,13,3,4"
14816,commdev-image-keyboard-response,428,1622915,learnblock2,1022.5,img/planet15_left.png,15,Community 1,NA,TRUE,f,f,NA,NA,NA,3,6,"5,15,7,10,9,12,1,6,14,2,11,8,13,3,4"
14816,commdev-image-keyboard-response,429,1624172,learnblock2,null,img/planet5_left.png,5,Community 1,NA,FALSE,null,f,NA,NA,NA,3,6,"5,15,7,10,9,12,1,6,14,2,11,8,13,3,4"
14816,commdev-image-keyboard-response,430,1625424,learnblock2,229.19999998807907,img/planet10_left.png,10,Community 1,NA,TRUE,f,f,NA,NA,NA,3,6,"5,15,7,10,9,12,1,6,14,2,11,8,13,3,4"
14816,commdev-image-keyboard-response,431,1626680,learnblock2,676.6999999880791,img/planet12_right.png,12,Community 2,NA,TRUE,j,j,NA,NA,NA,3,6,"5,15,7,10,9,12,1,6,14,2,11,8,13,3,4"
14816,commdev-image-keyboard-response,432,1627943,learnblock2,651.6000000238419,img/planet1_right.png,1,Community 2,NA,TRUE,j,j,NA,NA,NA,3,6,"5,15,7,10,9,12,1,6,14,2,11,8,13,3,4"
14816,commdev-image-keyboard-response,433,1629202,learnblock2,543.3000000119209,img/planet6_right.png,6,Community 2,NA,FALSE,f,j,NA,NA,NA,3,6,"5,15,7,10,9,12,1,6,14,2,11,8,13,3,4"
14816,commdev-image-keyboard-response,434,1630456,learnblock2,632,img/planet14_left.png,14,Community 2,NA,TRUE,f,f,NA,NA,NA,3,6,"5,15,7,10,9,12,1,6,14,2,11,8,13,3,4"
14816,commdev-image-keyboard-response,435,1631718,learnblock2,494.80000001192093,img/planet1_right.png,1,Community 2,NA,TRUE,j,j,NA,NA,NA,3,6,"5,15,7,10,9,12,1,6,14,2,11,8,13,3,4"
14816,commdev-image-keyboard-response,436,1632982,learnblock2,552.6000000238419,img/planet6_left.png,6,Community 2,NA,TRUE,f,f,NA,NA,NA,3,6,"5,15,7,10,9,12,1,6,14,2,11,8,13,3,4"
14816,commdev-image-keyboard-response,437,1634243,learnblock2,727.3000000119209,img/planet14_left.png,14,Community 2,NA,TRUE,f,f,NA,NA,NA,3,6,"5,15,7,10,9,12,1,6,14,2,11,8,13,3,4"
14816,commdev-image-keyboard-response,438,1635501,learnblock2,532.8000000119209,img/planet6_right.png,6,Community 2,NA,FALSE,f,j,NA,NA,NA,3,6,"5,15,7,10,9,12,1,6,14,2,11,8,13,3,4"
14816,commdev-image-keyboard-response,439,1636760,learnblock2,624.3999999761581,img/planet14_right.png,14,Community 2,NA,TRUE,j,j,NA,NA,NA,3,6,"5,15,7,10,9,12,1,6,14,2,11,8,13,3,4"
14816,commdev-image-keyboard-response,440,1638021,learnblock2,480,img/planet6_right.png,6,Community 2,NA,TRUE,j,j,NA,NA,NA,3,6,"5,15,7,10,9,12,1,6,14,2,11,8,13,3,4"
14816,commdev-image-keyboard-response,441,1639275,learnblock2,453.69999998807907,img/planet14_right.png,14,Community 2,NA,TRUE,j,j,NA,NA,NA,3,6,"5,15,7,10,9,12,1,6,14,2,11,8,13,3,4"
14816,commdev-image-keyboard-response,442,1640543,learnblock2,415.4000000357628,img/planet2_right.png,2,Community 2,NA,TRUE,j,j,NA,NA,NA,3,6,"5,15,7,10,9,12,1,6,14,2,11,8,13,3,4"
14816,commdev-image-keyboard-response,443,1641799,learnblock2,324.10000002384186,img/planet12_right.png,12,Community 2,NA,TRUE,j,j,NA,NA,NA,3,6,"5,15,7,10,9,12,1,6,14,2,11,8,13,3,4"
14816,commdev-image-keyboard-response,444,1643054,learnblock2,229.10000002384186,img/planet14_left.png,14,Community 2,NA,FALSE,j,f,NA,NA,NA,3,6,"5,15,7,10,9,12,1,6,14,2,11,8,13,3,4"
14816,commdev-image-keyboard-response,445,1644319,learnblock2,498.30000001192093,img/planet12_left.png,12,Community 2,NA,TRUE,f,f,NA,NA,NA,3,6,"5,15,7,10,9,12,1,6,14,2,11,8,13,3,4"
14816,commdev-image-keyboard-response,446,1645582,learnblock2,422.39999997615814,img/planet14_left.png,14,Community 2,NA,TRUE,f,f,NA,NA,NA,3,6,"5,15,7,10,9,12,1,6,14,2,11,8,13,3,4"
14816,commdev-image-keyboard-response,447,1646844,learnblock2,491,img/planet12_left.png,12,Community 2,NA,TRUE,f,f,NA,NA,NA,3,6,"5,15,7,10,9,12,1,6,14,2,11,8,13,3,4"
14816,commdev-image-keyboard-response,448,1648106,learnblock2,652.6999999880791,img/planet14_left.png,14,Community 2,NA,TRUE,f,f,NA,NA,NA,3,6,"5,15,7,10,9,12,1,6,14,2,11,8,13,3,4"
14816,commdev-image-keyboard-response,449,1649365,learnblock2,877,img/planet1_right.png,1,Community 2,NA,TRUE,j,j,NA,NA,NA,3,6,"5,15,7,10,9,12,1,6,14,2,11,8,13,3,4"
14816,commdev-image-keyboard-response,450,1650625,learnblock2,541.4000000357628,img/planet12_right.png,12,Community 2,NA,TRUE,j,j,NA,NA,NA,3,6,"5,15,7,10,9,12,1,6,14,2,11,8,13,3,4"
14816,commdev-image-keyboard-response,451,1651895,learnblock2,478.5,img/planet14_left.png,14,Community 2,NA,TRUE,f,f,NA,NA,NA,3,6,"5,15,7,10,9,12,1,6,14,2,11,8,13,3,4"
14816,commdev-image-keyboard-response,452,1653148,learnblock2,510.5,img/planet1_right.png,1,Community 2,NA,TRUE,j,j,NA,NA,NA,3,6,"5,15,7,10,9,12,1,6,14,2,11,8,13,3,4"
14816,commdev-image-keyboard-response,453,1654404,learnblock2,640.6000000238419,img/planet12_right.png,12,Community 2,NA,TRUE,j,j,NA,NA,NA,3,6,"5,15,7,10,9,12,1,6,14,2,11,8,13,3,4"
14816,commdev-image-keyboard-response,454,1655669,learnblock2,653.8999999761581,img/planet14_left.png,14,Community 2,NA,TRUE,f,f,NA,NA,NA,3,6,"5,15,7,10,9,12,1,6,14,2,11,8,13,3,4"
14816,commdev-image-keyboard-response,455,1656927,learnblock2,606.4000000357628,img/planet12_right.png,12,Community 2,NA,TRUE,j,j,NA,NA,NA,3,6,"5,15,7,10,9,12,1,6,14,2,11,8,13,3,4"
14816,commdev-image-keyboard-response,456,1658188,learnblock2,647.4000000357628,img/planet2_right.png,2,Community 2,NA,TRUE,j,j,NA,NA,NA,3,6,"5,15,7,10,9,12,1,6,14,2,11,8,13,3,4"
14816,commdev-image-keyboard-response,457,1659450,learnblock2,753.3000000119209,img/planet1_left.png,1,Community 2,NA,TRUE,f,f,NA,NA,NA,3,6,"5,15,7,10,9,12,1,6,14,2,11,8,13,3,4"
14816,commdev-image-keyboard-response,458,1660709,learnblock2,975.1999999880791,img/planet2_left.png,2,Community 2,NA,TRUE,f,f,NA,NA,NA,3,6,"5,15,7,10,9,12,1,6,14,2,11,8,13,3,4"
14816,commdev-image-keyboard-response,459,1661963,learnblock2,549.5,img/planet1_right.png,1,Community 2,NA,FALSE,f,j,NA,NA,NA,3,6,"5,15,7,10,9,12,1,6,14,2,11,8,13,3,4"
14816,commdev-image-keyboard-response,460,1663220,learnblock2,630.1999999880791,img/planet14_right.png,14,Community 2,NA,TRUE,j,j,NA,NA,NA,3,6,"5,15,7,10,9,12,1,6,14,2,11,8,13,3,4"
14816,commdev-image-keyboard-response,461,1664482,learnblock2,null,img/planet6_left.png,6,Community 2,NA,FALSE,null,f,NA,NA,NA,3,6,"5,15,7,10,9,12,1,6,14,2,11,8,13,3,4"
14816,commdev-image-keyboard-response,462,1665741,learnblock2,177.19999998807907,img/planet8_left.png,8,Community 3,NA,TRUE,f,f,NA,NA,NA,3,6,"5,15,7,10,9,12,1,6,14,2,11,8,13,3,4"
14816,commdev-image-keyboard-response,463,1667002,learnblock2,245.69999998807907,img/planet6_right.png,6,Community 2,NA,FALSE,f,j,NA,NA,NA,3,6,"5,15,7,10,9,12,1,6,14,2,11,8,13,3,4"
14816,commdev-image-keyboard-response,464,1668262,learnblock2,1116.3999999761581,img/planet1_right.png,1,Community 2,NA,TRUE,j,j,NA,NA,NA,3,6,"5,15,7,10,9,12,1,6,14,2,11,8,13,3,4"
14816,commdev-image-keyboard-response,465,1669521,learnblock2,1220.6000000238419,img/planet2_left.png,2,Community 2,NA,TRUE,f,f,NA,NA,NA,3,6,"5,15,7,10,9,12,1,6,14,2,11,8,13,3,4"
14816,commdev-image-keyboard-response,466,1670778,learnblock2,null,img/planet14_right.png,14,Community 2,NA,FALSE,null,j,NA,NA,NA,3,6,"5,15,7,10,9,12,1,6,14,2,11,8,13,3,4"
14816,commdev-image-keyboard-response,467,1672037,learnblock2,492.2000000476837,img/planet1_right.png,1,Community 2,NA,TRUE,j,j,NA,NA,NA,3,6,"5,15,7,10,9,12,1,6,14,2,11,8,13,3,4"
14816,commdev-image-keyboard-response,468,1673292,learnblock2,560.4000000357628,img/planet2_left.png,2,Community 2,NA,TRUE,f,f,NA,NA,NA,3,6,"5,15,7,10,9,12,1,6,14,2,11,8,13,3,4"
14816,commdev-image-keyboard-response,469,1674548,learnblock2,654.6999999880791,img/planet1_left.png,1,Community 2,NA,TRUE,f,f,NA,NA,NA,3,6,"5,15,7,10,9,12,1,6,14,2,11,8,13,3,4"
14816,commdev-image-keyboard-response,470,1675802,learnblock2,860.8999999761581,img/planet6_left.png,6,Community 2,NA,TRUE,f,f,NA,NA,NA,3,6,"5,15,7,10,9,12,1,6,14,2,11,8,13,3,4"
14816,commdev-image-keyboard-response,471,1677062,learnblock2,874.3999999761581,img/planet8_right.png,8,Community 3,NA,TRUE,j,j,NA,NA,NA,3,6,"5,15,7,10,9,12,1,6,14,2,11,8,13,3,4"
14816,commdev-image-keyboard-response,472,1678322,learnblock2,1050.5999999642372,img/planet4_left.png,4,Community 3,NA,TRUE,f,f,NA,NA,NA,3,6,"5,15,7,10,9,12,1,6,14,2,11,8,13,3,4"
14816,commdev-image-keyboard-response,473,1679588,learnblock2,null,img/planet3_right.png,3,Community 3,NA,FALSE,null,j,NA,NA,NA,3,6,"5,15,7,10,9,12,1,6,14,2,11,8,13,3,4"
14816,commdev-image-keyboard-response,474,1680845,learnblock2,611.5,img/planet4_right.png,4,Community 3,NA,TRUE,j,j,NA,NA,NA,3,6,"5,15,7,10,9,12,1,6,14,2,11,8,13,3,4"
14816,commdev-image-keyboard-response,475,1682107,learnblock2,527.2999999523163,img/planet8_left.png,8,Community 3,NA,TRUE,f,f,NA,NA,NA,3,6,"5,15,7,10,9,12,1,6,14,2,11,8,13,3,4"
14816,commdev-image-keyboard-response,476,1683359,learnblock2,906.1000000238419,img/planet4_left.png,4,Community 3,NA,TRUE,f,f,NA,NA,NA,3,6,"5,15,7,10,9,12,1,6,14,2,11,8,13,3,4"
14816,commdev-image-keyboard-response,477,1684632,learnblock2,897.8000000119209,img/planet8_right.png,8,Community 3,NA,TRUE,j,j,NA,NA,NA,3,6,"5,15,7,10,9,12,1,6,14,2,11,8,13,3,4"
14816,commdev-image-keyboard-response,478,1685894,learnblock2,669.8999999761581,img/planet4_right.png,4,Community 3,NA,TRUE,j,j,NA,NA,NA,3,6,"5,15,7,10,9,12,1,6,14,2,11,8,13,3,4"
14816,commdev-image-keyboard-response,479,1687152,learnblock2,879.1999999880791,img/planet13_right.png,13,Community 3,NA,TRUE,j,j,NA,NA,NA,3,6,"5,15,7,10,9,12,1,6,14,2,11,8,13,3,4"
14816,commdev-image-keyboard-response,480,1688403,learnblock2,602.6999999880791,img/planet3_right.png,3,Community 3,NA,TRUE,j,j,NA,NA,NA,3,6,"5,15,7,10,9,12,1,6,14,2,11,8,13,3,4"
14816,commdev-image-keyboard-response,481,1689671,learnblock2,991.8999999761581,img/planet8_left.png,8,Community 3,NA,TRUE,f,f,NA,NA,NA,3,6,"5,15,7,10,9,12,1,6,14,2,11,8,13,3,4"
14816,commdev-image-keyboard-response,482,1690932,learnblock2,null,img/planet4_right.png,4,Community 3,NA,FALSE,null,j,NA,NA,NA,3,6,"5,15,7,10,9,12,1,6,14,2,11,8,13,3,4"
14816,commdev-image-keyboard-response,483,1692191,learnblock2,108.10000002384186,img/planet13_right.png,13,Community 3,NA,FALSE,f,j,NA,NA,NA,3,6,"5,15,7,10,9,12,1,6,14,2,11,8,13,3,4"
14816,commdev-image-keyboard-response,484,1693449,learnblock2,308.60000002384186,img/planet4_left.png,4,Community 3,NA,FALSE,j,f,NA,NA,NA,3,6,"5,15,7,10,9,12,1,6,14,2,11,8,13,3,4"
14816,commdev-image-keyboard-response,485,1694708,learnblock2,797.3000000119209,img/planet3_left.png,3,Community 3,NA,TRUE,f,f,NA,NA,NA,3,6,"5,15,7,10,9,12,1,6,14,2,11,8,13,3,4"
14816,commdev-image-keyboard-response,486,1695966,learnblock2,10,img/planet4_left.png,4,Community 3,NA,FALSE,j,f,NA,NA,NA,3,6,"5,15,7,10,9,12,1,6,14,2,11,8,13,3,4"
14816,commdev-image-keyboard-response,487,1697227,learnblock2,24.600000023841858,img/planet3_right.png,3,Community 3,NA,FALSE,f,j,NA,NA,NA,3,6,"5,15,7,10,9,12,1,6,14,2,11,8,13,3,4"
14816,commdev-image-keyboard-response,488,1698485,learnblock2,321,img/planet8_right.png,8,Community 3,NA,TRUE,j,j,NA,NA,NA,3,6,"5,15,7,10,9,12,1,6,14,2,11,8,13,3,4"
14816,commdev-image-keyboard-response,489,1699750,learnblock2,null,img/planet6_right.png,6,Community 2,NA,FALSE,null,j,NA,NA,NA,3,6,"5,15,7,10,9,12,1,6,14,2,11,8,13,3,4"
14816,commdev-image-keyboard-response,490,1701006,learnblock2,994.9000000357628,img/planet2_left.png,2,Community 2,NA,FALSE,j,f,NA,NA,NA,3,6,"5,15,7,10,9,12,1,6,14,2,11,8,13,3,4"
14816,commdev-image-keyboard-response,491,1702260,learnblock2,null,img/planet1_right.png,1,Community 2,NA,FALSE,null,j,NA,NA,NA,3,6,"5,15,7,10,9,12,1,6,14,2,11,8,13,3,4"
14816,commdev-image-keyboard-response,492,1703523,learnblock2,753.5999999642372,img/planet12_left.png,12,Community 2,NA,TRUE,f,f,NA,NA,NA,3,6,"5,15,7,10,9,12,1,6,14,2,11,8,13,3,4"
14816,commdev-image-keyboard-response,493,1704781,learnblock2,595.8000000119209,img/planet1_right.png,1,Community 2,NA,FALSE,f,j,NA,NA,NA,3,6,"5,15,7,10,9,12,1,6,14,2,11,8,13,3,4"
14816,commdev-image-keyboard-response,494,1706047,learnblock2,null,img/planet2_left.png,2,Community 2,NA,FALSE,null,f,NA,NA,NA,3,6,"5,15,7,10,9,12,1,6,14,2,11,8,13,3,4"
14816,commdev-image-keyboard-response,495,1707309,learnblock2,null,img/planet12_right.png,12,Community 2,NA,FALSE,null,j,NA,NA,NA,3,6,"5,15,7,10,9,12,1,6,14,2,11,8,13,3,4"
14816,commdev-image-keyboard-response,496,1708562,learnblock2,964.1999999880791,img/planet2_left.png,2,Community 2,NA,FALSE,j,f,NA,NA,NA,3,6,"5,15,7,10,9,12,1,6,14,2,11,8,13,3,4"
14816,commdev-image-keyboard-response,497,1709820,learnblock2,517.1999999880791,img/planet12_right.png,12,Community 2,NA,TRUE,j,j,NA,NA,NA,3,6,"5,15,7,10,9,12,1,6,14,2,11,8,13,3,4"
14816,commdev-image-keyboard-response,498,1711083,learnblock2,93.10000002384186,img/planet1_right.png,1,Community 2,NA,FALSE,f,j,NA,NA,NA,3,6,"5,15,7,10,9,12,1,6,14,2,11,8,13,3,4"
14816,commdev-image-keyboard-response,499,1712343,learnblock2,504.10000002384186,img/planet2_left.png,2,Community 2,NA,FALSE,j,f,NA,NA,NA,3,6,"5,15,7,10,9,12,1,6,14,2,11,8,13,3,4"
14816,commdev-image-keyboard-response,500,1713602,learnblock2,430.30000001192093,img/planet6_right.png,6,Community 2,NA,TRUE,j,j,NA,NA,NA,3,6,"5,15,7,10,9,12,1,6,14,2,11,8,13,3,4"
14816,commdev-image-keyboard-response,501,1714861,learnblock2,49,img/planet8_left.png,8,Community 3,NA,TRUE,f,f,NA,NA,NA,3,6,"5,15,7,10,9,12,1,6,14,2,11,8,13,3,4"
14816,commdev-image-keyboard-response,502,1716122,learnblock2,305.19999998807907,img/planet6_left.png,6,Community 2,NA,TRUE,f,f,NA,NA,NA,3,6,"5,15,7,10,9,12,1,6,14,2,11,8,13,3,4"
14816,commdev-image-keyboard-response,503,1717381,learnblock2,709.2999999523163,img/planet1_left.png,1,Community 2,NA,TRUE,f,f,NA,NA,NA,3,6,"5,15,7,10,9,12,1,6,14,2,11,8,13,3,4"
14816,commdev-image-keyboard-response,504,1718640,learnblock2,24.899999976158142,img/planet6_left.png,6,Community 2,NA,FALSE,j,f,NA,NA,NA,3,6,"5,15,7,10,9,12,1,6,14,2,11,8,13,3,4"
14816,commdev-image-keyboard-response,505,1719903,learnblock2,378.10000002384186,img/planet8_left.png,8,Community 3,NA,FALSE,j,f,NA,NA,NA,3,6,"5,15,7,10,9,12,1,6,14,2,11,8,13,3,4"
14816,commdev-image-keyboard-response,506,1721161,learnblock2,92.5,img/planet13_left.png,13,Community 3,NA,FALSE,j,f,NA,NA,NA,3,6,"5,15,7,10,9,12,1,6,14,2,11,8,13,3,4"
14816,commdev-image-keyboard-response,507,1722419,learnblock2,715.2000000476837,img/planet11_left.png,11,Community 3,NA,FALSE,j,f,NA,NA,NA,3,6,"5,15,7,10,9,12,1,6,14,2,11,8,13,3,4"
14816,commdev-image-keyboard-response,508,1723686,learnblock2,773.3000000119209,img/planet13_right.png,13,Community 3,NA,FALSE,f,j,NA,NA,NA,3,6,"5,15,7,10,9,12,1,6,14,2,11,8,13,3,4"
14816,commdev-image-keyboard-response,509,1724946,learnblock2,975,img/planet11_right.png,11,Community 3,NA,TRUE,j,j,NA,NA,NA,3,6,"5,15,7,10,9,12,1,6,14,2,11,8,13,3,4"
14816,commdev-image-keyboard-response,510,1726203,learnblock2,810.6000000238419,img/planet4_left.png,4,Community 3,NA,TRUE,f,f,NA,NA,NA,3,6,"5,15,7,10,9,12,1,6,14,2,11,8,13,3,4"
14816,commdev-image-keyboard-response,511,1727458,learnblock2,757.8000000119209,img/planet8_left.png,8,Community 3,NA,TRUE,f,f,NA,NA,NA,3,6,"5,15,7,10,9,12,1,6,14,2,11,8,13,3,4"
14816,commdev-image-keyboard-response,512,1728719,learnblock2,750.8999999761581,img/planet6_right.png,6,Community 2,NA,TRUE,j,j,NA,NA,NA,3,6,"5,15,7,10,9,12,1,6,14,2,11,8,13,3,4"
14816,commdev-image-keyboard-response,513,1729979,learnblock2,null,img/planet8_right.png,8,Community 3,NA,FALSE,null,j,NA,NA,NA,3,6,"5,15,7,10,9,12,1,6,14,2,11,8,13,3,4"
14816,commdev-image-keyboard-response,514,1731243,learnblock2,878.3000000119209,img/planet3_left.png,3,Community 3,NA,FALSE,j,f,NA,NA,NA,3,6,"5,15,7,10,9,12,1,6,14,2,11,8,13,3,4"
14816,commdev-image-keyboard-response,515,1732500,learnblock2,683.8000000119209,img/planet11_right.png,11,Community 3,NA,FALSE,f,j,NA,NA,NA,3,6,"5,15,7,10,9,12,1,6,14,2,11,8,13,3,4"
14816,commdev-image-keyboard-response,516,1733754,learnblock2,975.2000000476837,img/planet9_left.png,9,Community 1,NA,FALSE,j,f,NA,NA,NA,3,6,"5,15,7,10,9,12,1,6,14,2,11,8,13,3,4"
14816,commdev-image-keyboard-response,517,1735009,learnblock2,1131.1000000238419,img/planet5_left.png,5,Community 1,NA,TRUE,f,f,NA,NA,NA,3,6,"5,15,7,10,9,12,1,6,14,2,11,8,13,3,4"
14816,commdev-image-keyboard-response,518,1736263,learnblock2,1008.0999999642372,img/planet9_left.png,9,Community 1,NA,TRUE,f,f,NA,NA,NA,3,6,"5,15,7,10,9,12,1,6,14,2,11,8,13,3,4"
14816,commdev-image-keyboard-response,519,1737525,learnblock2,1152.2000000476837,img/planet11_left.png,11,Community 3,NA,TRUE,f,f,NA,NA,NA,3,6,"5,15,7,10,9,12,1,6,14,2,11,8,13,3,4"
14816,commdev-image-keyboard-response,520,1738783,learnblock2,813.3999999761581,img/planet3_right.png,3,Community 3,NA,TRUE,j,j,NA,NA,NA,3,6,"5,15,7,10,9,12,1,6,14,2,11,8,13,3,4"
14816,commdev-image-keyboard-response,521,1740045,learnblock2,556,img/planet13_right.png,13,Community 3,NA,TRUE,j,j,NA,NA,NA,3,6,"5,15,7,10,9,12,1,6,14,2,11,8,13,3,4"
14816,commdev-image-keyboard-response,522,1741300,learnblock2,486.80000001192093,img/planet8_right.png,8,Community 3,NA,TRUE,j,j,NA,NA,NA,3,6,"5,15,7,10,9,12,1,6,14,2,11,8,13,3,4"
14816,commdev-image-keyboard-response,523,1742561,learnblock2,666.1999999880791,img/planet4_left.png,4,Community 3,NA,TRUE,f,f,NA,NA,NA,3,6,"5,15,7,10,9,12,1,6,14,2,11,8,13,3,4"
14816,commdev-image-keyboard-response,524,1743820,learnblock2,582.5999999642372,img/planet13_left.png,13,Community 3,NA,TRUE,f,f,NA,NA,NA,3,6,"5,15,7,10,9,12,1,6,14,2,11,8,13,3,4"
14816,commdev-image-keyboard-response,525,1745079,learnblock2,486.2999999523163,img/planet8_right.png,8,Community 3,NA,FALSE,f,j,NA,NA,NA,3,6,"5,15,7,10,9,12,1,6,14,2,11,8,13,3,4"
14816,commdev-image-keyboard-response,526,1746337,learnblock2,632.5,img/planet3_left.png,3,Community 3,NA,TRUE,f,f,NA,NA,NA,3,6,"5,15,7,10,9,12,1,6,14,2,11,8,13,3,4"
14816,commdev-image-keyboard-response,527,1747599,learnblock2,1035.1000000238419,img/planet11_right.png,11,Community 3,NA,TRUE,j,j,NA,NA,NA,3,6,"5,15,7,10,9,12,1,6,14,2,11,8,13,3,4"
14816,commdev-image-keyboard-response,528,1748860,learnblock2,573.1999999880791,img/planet4_right.png,4,Community 3,NA,TRUE,j,j,NA,NA,NA,3,6,"5,15,7,10,9,12,1,6,14,2,11,8,13,3,4"
14816,commdev-image-keyboard-response,529,1750126,learnblock2,616.3000000119209,img/planet8_left.png,8,Community 3,NA,TRUE,f,f,NA,NA,NA,3,6,"5,15,7,10,9,12,1,6,14,2,11,8,13,3,4"
14816,commdev-image-keyboard-response,530,1751388,learnblock2,476.30000001192093,img/planet13_left.png,13,Community 3,NA,FALSE,j,f,NA,NA,NA,3,6,"5,15,7,10,9,12,1,6,14,2,11,8,13,3,4"
14816,commdev-image-keyboard-response,531,1752654,learnblock2,841.9000000357628,img/planet11_left.png,11,Community 3,NA,TRUE,f,f,NA,NA,NA,3,6,"5,15,7,10,9,12,1,6,14,2,11,8,13,3,4"
14816,commdev-image-keyboard-response,532,1753917,learnblock2,735.3999999761581,img/planet4_left.png,4,Community 3,NA,TRUE,f,f,NA,NA,NA,3,6,"5,15,7,10,9,12,1,6,14,2,11,8,13,3,4"
14816,commdev-image-keyboard-response,533,1755178,learnblock2,1001.5999999642372,img/planet8_left.png,8,Community 3,NA,TRUE,f,f,NA,NA,NA,3,6,"5,15,7,10,9,12,1,6,14,2,11,8,13,3,4"
14816,commdev-image-keyboard-response,534,1756437,learnblock2,686.9000000357628,img/planet4_right.png,4,Community 3,NA,TRUE,j,j,NA,NA,NA,3,6,"5,15,7,10,9,12,1,6,14,2,11,8,13,3,4"
14816,commdev-image-keyboard-response,535,1757698,learnblock2,567.5999999642372,img/planet13_left.png,13,Community 3,NA,TRUE,f,f,NA,NA,NA,3,6,"5,15,7,10,9,12,1,6,14,2,11,8,13,3,4"
14816,commdev-image-keyboard-response,536,1758959,learnblock2,715.8999999761581,img/planet3_right.png,3,Community 3,NA,TRUE,j,j,NA,NA,NA,3,6,"5,15,7,10,9,12,1,6,14,2,11,8,13,3,4"
14816,commdev-image-keyboard-response,537,1760218,learnblock2,489.10000002384186,img/planet13_left.png,13,Community 3,NA,TRUE,f,f,NA,NA,NA,3,6,"5,15,7,10,9,12,1,6,14,2,11,8,13,3,4"
14816,commdev-image-keyboard-response,538,1761481,learnblock2,751.8999999761581,img/planet3_left.png,3,Community 3,NA,TRUE,f,f,NA,NA,NA,3,6,"5,15,7,10,9,12,1,6,14,2,11,8,13,3,4"
14816,commdev-image-keyboard-response,539,1762747,learnblock2,483.80000001192093,img/planet4_right.png,4,Community 3,NA,TRUE,j,j,NA,NA,NA,3,6,"5,15,7,10,9,12,1,6,14,2,11,8,13,3,4"
14816,commdev-image-keyboard-response,540,1764007,learnblock2,566.0999999642372,img/planet13_right.png,13,Community 3,NA,TRUE,j,j,NA,NA,NA,3,6,"5,15,7,10,9,12,1,6,14,2,11,8,13,3,4"
14816,commdev-image-keyboard-response,541,1765265,learnblock2,799,img/planet4_left.png,4,Community 3,NA,TRUE,f,f,NA,NA,NA,3,6,"5,15,7,10,9,12,1,6,14,2,11,8,13,3,4"
14816,commdev-image-keyboard-response,542,1766523,learnblock2,579.0999999642372,img/planet13_left.png,13,Community 3,NA,TRUE,f,f,NA,NA,NA,3,6,"5,15,7,10,9,12,1,6,14,2,11,8,13,3,4"
14816,commdev-image-keyboard-response,543,1767782,learnblock2,638.0999999642372,img/planet11_right.png,11,Community 3,NA,TRUE,j,j,NA,NA,NA,3,6,"5,15,7,10,9,12,1,6,14,2,11,8,13,3,4"
14816,commdev-image-keyboard-response,544,1769042,learnblock2,492.7000000476837,img/planet3_left.png,3,Community 3,NA,TRUE,f,f,NA,NA,NA,3,6,"5,15,7,10,9,12,1,6,14,2,11,8,13,3,4"
14816,commdev-image-keyboard-response,545,1770295,learnblock2,377,img/planet4_right.png,4,Community 3,NA,TRUE,j,j,NA,NA,NA,3,6,"5,15,7,10,9,12,1,6,14,2,11,8,13,3,4"
14816,commdev-image-keyboard-response,546,1771561,learnblock2,305.5999999642372,img/planet3_right.png,3,Community 3,NA,FALSE,f,j,NA,NA,NA,3,6,"5,15,7,10,9,12,1,6,14,2,11,8,13,3,4"
14816,commdev-image-keyboard-response,547,1772815,learnblock2,489.5,img/planet13_right.png,13,Community 3,NA,TRUE,j,j,NA,NA,NA,3,6,"5,15,7,10,9,12,1,6,14,2,11,8,13,3,4"
14816,commdev-image-keyboard-response,548,1774074,learnblock2,312.9000000357628,img/planet11_left.png,11,Community 3,NA,FALSE,j,f,NA,NA,NA,3,6,"5,15,7,10,9,12,1,6,14,2,11,8,13,3,4"
14816,commdev-image-keyboard-response,549,1775328,learnblock2,325.89999997615814,img/planet4_right.png,4,Community 3,NA,FALSE,f,j,NA,NA,NA,3,6,"5,15,7,10,9,12,1,6,14,2,11,8,13,3,4"
14816,commdev-image-keyboard-response,550,1776587,learnblock2,91.69999998807907,img/planet11_left.png,11,Community 3,NA,FALSE,j,f,NA,NA,NA,3,6,"5,15,7,10,9,12,1,6,14,2,11,8,13,3,4"
14816,commdev-image-keyboard-response,551,1777848,learnblock2,65.70000004768372,img/planet3_left.png,3,Community 3,NA,TRUE,f,f,NA,NA,NA,3,6,"5,15,7,10,9,12,1,6,14,2,11,8,13,3,4"
14816,commdev-image-keyboard-response,552,1779109,learnblock2,133.5999999642372,img/planet13_left.png,13,Community 3,NA,FALSE,j,f,NA,NA,NA,3,6,"5,15,7,10,9,12,1,6,14,2,11,8,13,3,4"
14816,commdev-image-keyboard-response,553,1780375,learnblock2,22.599999964237213,img/planet3_left.png,3,Community 3,NA,TRUE,f,f,NA,NA,NA,3,6,"5,15,7,10,9,12,1,6,14,2,11,8,13,3,4"
14816,commdev-image-keyboard-response,554,1781638,learnblock2,1.800000011920929,img/planet13_right.png,13,Community 3,NA,FALSE,f,j,NA,NA,NA,3,6,"5,15,7,10,9,12,1,6,14,2,11,8,13,3,4"
14816,commdev-image-keyboard-response,555,1782899,learnblock2,496.19999998807907,img/planet11_left.png,11,Community 3,NA,TRUE,f,f,NA,NA,NA,3,6,"5,15,7,10,9,12,1,6,14,2,11,8,13,3,4"
14816,commdev-image-keyboard-response,556,1784158,learnblock2,551.3999999761581,img/planet13_left.png,13,Community 3,NA,TRUE,f,f,NA,NA,NA,3,6,"5,15,7,10,9,12,1,6,14,2,11,8,13,3,4"
14816,commdev-image-keyboard-response,557,1785412,learnblock2,743.3000000119209,img/planet11_left.png,11,Community 3,NA,TRUE,f,f,NA,NA,NA,3,6,"5,15,7,10,9,12,1,6,14,2,11,8,13,3,4"
14816,commdev-image-keyboard-response,558,1786670,learnblock2,681.3000000119209,img/planet9_right.png,9,Community 1,NA,TRUE,j,j,NA,NA,NA,3,6,"5,15,7,10,9,12,1,6,14,2,11,8,13,3,4"
14816,commdev-image-keyboard-response,559,1787929,learnblock2,522.1000000238419,img/planet7_left.png,7,Community 1,NA,TRUE,f,f,NA,NA,NA,3,6,"5,15,7,10,9,12,1,6,14,2,11,8,13,3,4"
14816,commdev-image-keyboard-response,560,1789190,learnblock2,655.7999999523163,img/planet10_left.png,10,Community 1,NA,FALSE,j,f,NA,NA,NA,3,6,"5,15,7,10,9,12,1,6,14,2,11,8,13,3,4"
14816,commdev-image-keyboard-response,561,1790448,learnblock2,395.69999998807907,img/planet15_left.png,15,Community 1,NA,TRUE,f,f,NA,NA,NA,3,6,"5,15,7,10,9,12,1,6,14,2,11,8,13,3,4"
14816,commdev-image-keyboard-response,562,1791708,learnblock2,null,img/planet7_right.png,7,Community 1,NA,FALSE,null,j,NA,NA,NA,3,6,"5,15,7,10,9,12,1,6,14,2,11,8,13,3,4"
14816,commdev-image-keyboard-response,563,1792968,learnblock2,55.40000003576279,img/planet5_left.png,5,Community 1,NA,FALSE,j,f,NA,NA,NA,3,6,"5,15,7,10,9,12,1,6,14,2,11,8,13,3,4"
14816,commdev-image-keyboard-response,564,1794227,learnblock2,115.30000001192093,img/planet9_right.png,9,Community 1,NA,TRUE,j,j,NA,NA,NA,3,6,"5,15,7,10,9,12,1,6,14,2,11,8,13,3,4"
14816,commdev-image-keyboard-response,565,1795487,learnblock2,175.5,img/planet15_left.png,15,Community 1,NA,FALSE,j,f,NA,NA,NA,3,6,"5,15,7,10,9,12,1,6,14,2,11,8,13,3,4"
14816,commdev-image-keyboard-response,566,1796750,learnblock2,2.400000035762787,img/planet5_left.png,5,Community 1,NA,FALSE,j,f,NA,NA,NA,3,6,"5,15,7,10,9,12,1,6,14,2,11,8,13,3,4"
14816,commdev-image-keyboard-response,567,1798010,learnblock2,153.80000001192093,img/planet10_left.png,10,Community 1,NA,TRUE,f,f,NA,NA,NA,3,6,"5,15,7,10,9,12,1,6,14,2,11,8,13,3,4"
14816,commdev-image-keyboard-response,568,1799266,learnblock2,79.70000004768372,img/planet15_right.png,15,Community 1,NA,TRUE,j,j,NA,NA,NA,3,6,"5,15,7,10,9,12,1,6,14,2,11,8,13,3,4"
14816,commdev-image-keyboard-response,569,1800521,learnblock2,153.20000004768372,img/planet10_right.png,10,Community 1,NA,FALSE,f,j,NA,NA,NA,3,6,"5,15,7,10,9,12,1,6,14,2,11,8,13,3,4"
14816,commdev-image-keyboard-response,570,1801778,learnblock2,177.30000001192093,img/planet5_left.png,5,Community 1,NA,FALSE,j,f,NA,NA,NA,3,6,"5,15,7,10,9,12,1,6,14,2,11,8,13,3,4"
14816,commdev-image-keyboard-response,571,1803042,learnblock2,110.5,img/planet10_left.png,10,Community 1,NA,FALSE,j,f,NA,NA,NA,3,6,"5,15,7,10,9,12,1,6,14,2,11,8,13,3,4"
14816,commdev-image-keyboard-response,572,1804294,learnblock2,40.19999998807907,img/planet7_left.png,7,Community 1,NA,FALSE,j,f,NA,NA,NA,3,6,"5,15,7,10,9,12,1,6,14,2,11,8,13,3,4"
14816,commdev-image-keyboard-response,573,1805555,learnblock2,0.30000001192092896,img/planet15_right.png,15,Community 1,NA,FALSE,f,j,NA,NA,NA,3,6,"5,15,7,10,9,12,1,6,14,2,11,8,13,3,4"
14816,commdev-image-keyboard-response,574,1806818,learnblock2,129.4000000357628,img/planet5_left.png,5,Community 1,NA,TRUE,f,f,NA,NA,NA,3,6,"5,15,7,10,9,12,1,6,14,2,11,8,13,3,4"
14816,commdev-image-keyboard-response,575,1808077,learnblock2,682.5,img/planet7_right.png,7,Community 1,NA,TRUE,j,j,NA,NA,NA,3,6,"5,15,7,10,9,12,1,6,14,2,11,8,13,3,4"
14816,commdev-image-keyboard-response,576,1809334,learnblock2,611.6000000238419,img/planet9_left.png,9,Community 1,NA,TRUE,f,f,NA,NA,NA,3,6,"5,15,7,10,9,12,1,6,14,2,11,8,13,3,4"
14816,commdev-image-keyboard-response,577,1810592,learnblock2,683.0999999642372,img/planet15_left.png,15,Community 1,NA,TRUE,f,f,NA,NA,NA,3,6,"5,15,7,10,9,12,1,6,14,2,11,8,13,3,4"
14816,commdev-image-keyboard-response,578,1811859,learnblock2,1069.9000000357628,img/planet7_right.png,7,Community 1,NA,TRUE,j,j,NA,NA,NA,3,6,"5,15,7,10,9,12,1,6,14,2,11,8,13,3,4"
14816,commdev-image-keyboard-response,579,1813123,learnblock2,547.5,img/planet15_left.png,15,Community 1,NA,TRUE,f,f,NA,NA,NA,3,6,"5,15,7,10,9,12,1,6,14,2,11,8,13,3,4"
14816,commdev-image-keyboard-response,580,1814379,learnblock2,652.8000000119209,img/planet9_left.png,9,Community 1,NA,TRUE,f,f,NA,NA,NA,3,6,"5,15,7,10,9,12,1,6,14,2,11,8,13,3,4"
14816,commdev-image-keyboard-response,581,1815643,learnblock2,560.6000000238419,img/planet5_right.png,5,Community 1,NA,TRUE,j,j,NA,NA,NA,3,6,"5,15,7,10,9,12,1,6,14,2,11,8,13,3,4"
14816,commdev-image-keyboard-response,582,1816897,learnblock2,663,img/planet15_right.png,15,Community 1,NA,TRUE,j,j,NA,NA,NA,3,6,"5,15,7,10,9,12,1,6,14,2,11,8,13,3,4"
14816,commdev-image-keyboard-response,583,1818160,learnblock2,757,img/planet5_left.png,5,Community 1,NA,TRUE,f,f,NA,NA,NA,3,6,"5,15,7,10,9,12,1,6,14,2,11,8,13,3,4"
