subject_id,trial_type,trial_index,time_elapsed,block,rt,stimulus,planet,community,response,correct,key_press,learning_correct_response,parse,init_locations,final_locations,browser_interactions,num_comp,planet_map
14479,commdev-instructions,7,29410,NA,1626.1000001430511,"<p>In this game, you are a scientist on board a space shuttle. </p><p> On each mission, you will visit planets all across the universe.</p><img src=""img/controlroom.jpg"" width=300vw>",NA,NA,NA,NA,NA,NA,NA,NA,NA,2,6,"7,14,13,2,1,6,15,5,3,9,10,11,8,12,4"
14479,commdev-instructions,8,32559,NA,1074.4000000953674,"<p>Here are a few planets you might see:</p><img src=""img/practice1.png"" width=200vw><img src=""img/practice2.png"" width=200vw><img src=""img/practice3.png"" width=200vw>",NA,NA,NA,NA,NA,NA,NA,NA,NA,2,6,"7,14,13,2,1,6,15,5,3,9,10,11,8,12,4"
14479,commdev-instructions,9,41464,NA,1509.2999999523163,"<p>Your job as a scientist is to record which direction the winds are moving on each planet.</p><p>There are two types of wind directions:</p><img src=""img/practice1_left.png"" width=200vw><img src=""img/practice1_right.png"" width=200vw>",NA,NA,NA,NA,NA,NA,NA,NA,NA,2,6,"7,14,13,2,1,6,15,5,3,9,10,11,8,12,4"
14479,commdev-instructions,10,49165,NA,2821.2999999523163,"<p>If the winds are moving this way, press the letter <strong>F</strong> on the keyboard as fast as you can.</p><img src=""img/leftwind.png"" width=250vw>",NA,NA,NA,NA,NA,NA,NA,NA,NA,2,6,"7,14,13,2,1,6,15,5,3,9,10,11,8,12,4"
14479,commdev-instructions,11,54311,NA,650.6999998092651,"<p>If the winds are moving this way, press the letter <strong>J</strong> on the keyboard as fast as you can.</p><img src=""img/rightwind.png"" width=350vw>",NA,NA,NA,NA,NA,NA,NA,NA,NA,2,6,"7,14,13,2,1,6,15,5,3,9,10,11,8,12,4"
14479,commdev-instructions,12,60277,NA,1531.3999998569489,<p>You will have 1 second to respond. Try to respond before the time runs out!,NA,NA,NA,NA,NA,NA,NA,NA,NA,2,6,"7,14,13,2,1,6,15,5,3,9,10,11,8,12,4"
14479,commdev-instructions,13,66809,NA,1098.2999999523163,<p>The planets you will visit will look different from each other.</p><p>You should respond <strong>only</strong> based on wind direction.,NA,NA,NA,NA,NA,NA,NA,NA,NA,2,6,"7,14,13,2,1,6,15,5,3,9,10,11,8,12,4"
14479,commdev-instructions,14,74652,NA,2668,"<p> Ready to start the practice round? </p><p> Remember, press <strong>F</strong> or <strong>J</strong> depending on the wind direction.<br><img src=""img/categorize_planet_example.png""",NA,NA,NA,NA,NA,NA,NA,NA,NA,2,6,"7,14,13,2,1,6,15,5,3,9,10,11,8,12,4"
14479,commdev-instructions,26,127997,NA,1908.5999999046326,"<p>Great, now try a short practice mission. </p><p> This time, you will have 1 second to respond and you won't know whether you pressed the right or wrong key for each planet.</p>",NA,NA,NA,NA,NA,NA,NA,NA,NA,2,6,"7,14,13,2,1,6,15,5,3,9,10,11,8,12,4"
14479,commdev-image-keyboard-response,27,129368,practice,460.39999985694885,img/practice1_left.png,NA,Number not found in mappings,NA,TRUE,f,f,NA,NA,NA,2,6,"7,14,13,2,1,6,15,5,3,9,10,11,8,12,4"
14479,commdev-image-keyboard-response,28,130620,practice,721.5999999046326,img/practice4_right.png,NA,Number not found in mappings,NA,TRUE,j,j,NA,NA,NA,2,6,"7,14,13,2,1,6,15,5,3,9,10,11,8,12,4"
14479,commdev-image-keyboard-response,29,131874,practice,428.89999985694885,img/practice1_left.png,NA,Number not found in mappings,NA,TRUE,f,f,NA,NA,NA,2,6,"7,14,13,2,1,6,15,5,3,9,10,11,8,12,4"
14479,commdev-image-keyboard-response,30,133132,practice,483.90000009536743,img/practice2_right.png,NA,Number not found in mappings,NA,TRUE,j,j,NA,NA,NA,2,6,"7,14,13,2,1,6,15,5,3,9,10,11,8,12,4"
14479,commdev-image-keyboard-response,31,134391,practice,506.39999985694885,img/practice3_left.png,NA,Number not found in mappings,NA,FALSE,j,f,NA,NA,NA,2,6,"7,14,13,2,1,6,15,5,3,9,10,11,8,12,4"
14479,commdev-image-keyboard-response,32,135649,practice,807.2000000476837,img/practice4_left.png,NA,Number not found in mappings,NA,TRUE,f,f,NA,NA,NA,2,6,"7,14,13,2,1,6,15,5,3,9,10,11,8,12,4"
14479,commdev-image-keyboard-response,33,136905,practice,679.4000000953674,img/practice2_right.png,NA,Number not found in mappings,NA,TRUE,j,j,NA,NA,NA,2,6,"7,14,13,2,1,6,15,5,3,9,10,11,8,12,4"
14479,commdev-image-keyboard-response,34,138167,practice,587.5,img/practice1_right.png,NA,Number not found in mappings,NA,TRUE,j,j,NA,NA,NA,2,6,"7,14,13,2,1,6,15,5,3,9,10,11,8,12,4"
14479,commdev-instructions,35,149004,NA,1283.3999998569489,"<p>Great job with the practice round.</p><p>During real missions, you won't know whether you pressed the right or wrong key for each planet.</p><p>But between missions, we will tell you how you did overall.</p>",NA,NA,NA,NA,NA,NA,NA,NA,NA,2,6,"7,14,13,2,1,6,15,5,3,9,10,11,8,12,4"
14479,commdev-instructions,36,158727,NA,1470.1000001430511,<p>Try your best! You will be paid a bonus based on how many correct responses you make!</p><p>Responses that are too slow will not count toward your bonus.</p>,NA,NA,NA,NA,NA,NA,NA,NA,NA,2,6,"7,14,13,2,1,6,15,5,3,9,10,11,8,12,4"
14479,commdev-instructions,37,166389,NA,1462.4000000953674,"<p>You are almost ready to start the real game.</p><p> First, we are going to ask you some questions about how the game works.</p>",NA,NA,NA,NA,NA,NA,NA,NA,NA,2,6,"7,14,13,2,1,6,15,5,3,9,10,11,8,12,4"
14479,commdev-instructions,46,249570,NA,2738.5,"<p> Nice work! It is now time to start the real game.<p></p>You will go on two missions to record wind directions of different planets.<p></p>Each one will take about 5 minutes. You will get to take a break between missions.<p><p> Remember, press <strong>F</strong> or <strong>J</strong> depending on the wind direction. Good luck!<br><img src=""img/categorize_planet_example.png""",NA,NA,NA,NA,NA,NA,NA,NA,NA,2,6,"7,14,13,2,1,6,15,5,3,9,10,11,8,12,4"
14479,commdev-image-keyboard-response,48,253171,learnblock1,939.2000000476837,img/planet5_right.png,5,Community 2,NA,TRUE,j,j,NA,NA,NA,2,6,"7,14,13,2,1,6,15,5,3,9,10,11,8,12,4"
14479,commdev-image-keyboard-response,49,254425,learnblock1,672.2000000476837,img/planet3_right.png,3,Community 2,NA,TRUE,j,j,NA,NA,NA,2,6,"7,14,13,2,1,6,15,5,3,9,10,11,8,12,4"
14479,commdev-image-keyboard-response,50,255684,learnblock1,586.2999999523163,img/planet9_left.png,9,Community 2,NA,TRUE,f,f,NA,NA,NA,2,6,"7,14,13,2,1,6,15,5,3,9,10,11,8,12,4"
14479,commdev-image-keyboard-response,51,256936,learnblock1,675.1000001430511,img/planet3_left.png,3,Community 2,NA,TRUE,f,f,NA,NA,NA,2,6,"7,14,13,2,1,6,15,5,3,9,10,11,8,12,4"
14479,commdev-image-keyboard-response,52,258189,learnblock1,575.7000000476837,img/planet15_right.png,15,Community 2,NA,TRUE,j,j,NA,NA,NA,2,6,"7,14,13,2,1,6,15,5,3,9,10,11,8,12,4"
14479,commdev-image-keyboard-response,53,259444,learnblock1,771.4000000953674,img/planet5_left.png,5,Community 2,NA,TRUE,f,f,NA,NA,NA,2,6,"7,14,13,2,1,6,15,5,3,9,10,11,8,12,4"
14479,commdev-image-keyboard-response,54,260698,learnblock1,629.5999999046326,img/planet15_left.png,15,Community 2,NA,TRUE,f,f,NA,NA,NA,2,6,"7,14,13,2,1,6,15,5,3,9,10,11,8,12,4"
14479,commdev-image-keyboard-response,55,261962,learnblock1,619,img/planet6_left.png,6,Community 2,NA,TRUE,f,f,NA,NA,NA,2,6,"7,14,13,2,1,6,15,5,3,9,10,11,8,12,4"
14479,commdev-image-keyboard-response,56,263215,learnblock1,570.1000001430511,img/planet15_left.png,15,Community 2,NA,TRUE,f,f,NA,NA,NA,2,6,"7,14,13,2,1,6,15,5,3,9,10,11,8,12,4"
14479,commdev-image-keyboard-response,57,264479,learnblock1,557.1999998092651,img/planet5_left.png,5,Community 2,NA,TRUE,f,f,NA,NA,NA,2,6,"7,14,13,2,1,6,15,5,3,9,10,11,8,12,4"
14479,commdev-image-keyboard-response,58,265738,learnblock1,620.5,img/planet3_right.png,3,Community 2,NA,TRUE,j,j,NA,NA,NA,2,6,"7,14,13,2,1,6,15,5,3,9,10,11,8,12,4"
14479,commdev-image-keyboard-response,59,266996,learnblock1,588.1000001430511,img/planet15_left.png,15,Community 2,NA,TRUE,f,f,NA,NA,NA,2,6,"7,14,13,2,1,6,15,5,3,9,10,11,8,12,4"
14479,commdev-image-keyboard-response,60,268250,learnblock1,549.4000000953674,img/planet5_right.png,5,Community 2,NA,TRUE,j,j,NA,NA,NA,2,6,"7,14,13,2,1,6,15,5,3,9,10,11,8,12,4"
14479,commdev-image-keyboard-response,61,269508,learnblock1,560.5999999046326,img/planet11_left.png,11,Community 3,NA,TRUE,f,f,NA,NA,NA,2,6,"7,14,13,2,1,6,15,5,3,9,10,11,8,12,4"
14479,commdev-image-keyboard-response,62,270762,learnblock1,497.2999999523163,img/planet12_right.png,12,Community 3,NA,TRUE,j,j,NA,NA,NA,2,6,"7,14,13,2,1,6,15,5,3,9,10,11,8,12,4"
14479,commdev-image-keyboard-response,63,272026,learnblock1,498.60000014305115,img/planet10_left.png,10,Community 3,NA,FALSE,j,f,NA,NA,NA,2,6,"7,14,13,2,1,6,15,5,3,9,10,11,8,12,4"
14479,commdev-image-keyboard-response,64,273289,learnblock1,1249.1000001430511,img/planet12_right.png,12,Community 3,NA,TRUE,j,j,NA,NA,NA,2,6,"7,14,13,2,1,6,15,5,3,9,10,11,8,12,4"
14479,commdev-image-keyboard-response,65,274543,learnblock1,971.2000000476837,img/planet4_right.png,4,Community 3,NA,TRUE,j,j,NA,NA,NA,2,6,"7,14,13,2,1,6,15,5,3,9,10,11,8,12,4"
14479,commdev-image-keyboard-response,66,275796,learnblock1,622,img/planet11_left.png,11,Community 3,NA,TRUE,f,f,NA,NA,NA,2,6,"7,14,13,2,1,6,15,5,3,9,10,11,8,12,4"
14479,commdev-image-keyboard-response,67,277053,learnblock1,597.2000000476837,img/planet12_left.png,12,Community 3,NA,TRUE,f,f,NA,NA,NA,2,6,"7,14,13,2,1,6,15,5,3,9,10,11,8,12,4"
14479,commdev-image-keyboard-response,68,278320,learnblock1,618.6000001430511,img/planet10_right.png,10,Community 3,NA,FALSE,f,j,NA,NA,NA,2,6,"7,14,13,2,1,6,15,5,3,9,10,11,8,12,4"
14479,commdev-image-keyboard-response,69,279575,learnblock1,737.4000000953674,img/planet12_right.png,12,Community 3,NA,TRUE,j,j,NA,NA,NA,2,6,"7,14,13,2,1,6,15,5,3,9,10,11,8,12,4"
14479,commdev-image-keyboard-response,70,280835,learnblock1,605.1999998092651,img/planet4_right.png,4,Community 3,NA,TRUE,j,j,NA,NA,NA,2,6,"7,14,13,2,1,6,15,5,3,9,10,11,8,12,4"
14479,commdev-image-keyboard-response,71,282094,learnblock1,692.7999999523163,img/planet8_right.png,8,Community 3,NA,TRUE,j,j,NA,NA,NA,2,6,"7,14,13,2,1,6,15,5,3,9,10,11,8,12,4"
14479,commdev-image-keyboard-response,72,283347,learnblock1,509.40000009536743,img/planet10_left.png,10,Community 3,NA,TRUE,f,f,NA,NA,NA,2,6,"7,14,13,2,1,6,15,5,3,9,10,11,8,12,4"
14479,commdev-image-keyboard-response,73,284602,learnblock1,868.9000000953674,img/planet4_right.png,4,Community 3,NA,TRUE,j,j,NA,NA,NA,2,6,"7,14,13,2,1,6,15,5,3,9,10,11,8,12,4"
14479,commdev-image-keyboard-response,74,285857,learnblock1,901.7999999523163,img/planet10_left.png,10,Community 3,NA,TRUE,f,f,NA,NA,NA,2,6,"7,14,13,2,1,6,15,5,3,9,10,11,8,12,4"
14479,commdev-image-keyboard-response,75,287116,learnblock1,832.1999998092651,img/planet8_right.png,8,Community 3,NA,TRUE,j,j,NA,NA,NA,2,6,"7,14,13,2,1,6,15,5,3,9,10,11,8,12,4"
14479,commdev-image-keyboard-response,76,288377,learnblock1,674.5,img/planet10_right.png,10,Community 3,NA,TRUE,j,j,NA,NA,NA,2,6,"7,14,13,2,1,6,15,5,3,9,10,11,8,12,4"
14479,commdev-image-keyboard-response,77,289635,learnblock1,590.4000000953674,img/planet1_left.png,1,Community 1,NA,TRUE,f,f,NA,NA,NA,2,6,"7,14,13,2,1,6,15,5,3,9,10,11,8,12,4"
14479,commdev-image-keyboard-response,78,290887,learnblock1,464,img/planet10_right.png,10,Community 3,NA,TRUE,j,j,NA,NA,NA,2,6,"7,14,13,2,1,6,15,5,3,9,10,11,8,12,4"
14479,commdev-image-keyboard-response,79,292139,learnblock1,617.2000000476837,img/planet12_right.png,12,Community 3,NA,TRUE,j,j,NA,NA,NA,2,6,"7,14,13,2,1,6,15,5,3,9,10,11,8,12,4"
14479,commdev-image-keyboard-response,80,293403,learnblock1,563.8999998569489,img/planet11_right.png,11,Community 3,NA,TRUE,j,j,NA,NA,NA,2,6,"7,14,13,2,1,6,15,5,3,9,10,11,8,12,4"
14479,commdev-image-keyboard-response,81,294662,learnblock1,715.4000000953674,img/planet8_left.png,8,Community 3,NA,TRUE,f,f,NA,NA,NA,2,6,"7,14,13,2,1,6,15,5,3,9,10,11,8,12,4"
14479,commdev-image-keyboard-response,82,295920,learnblock1,778.0999999046326,img/planet11_right.png,11,Community 3,NA,TRUE,j,j,NA,NA,NA,2,6,"7,14,13,2,1,6,15,5,3,9,10,11,8,12,4"
14479,commdev-image-keyboard-response,83,297179,learnblock1,642.4000000953674,img/planet8_right.png,8,Community 3,NA,TRUE,j,j,NA,NA,NA,2,6,"7,14,13,2,1,6,15,5,3,9,10,11,8,12,4"
14479,commdev-image-keyboard-response,84,298432,learnblock1,565.3000001907349,img/planet10_right.png,10,Community 3,NA,TRUE,j,j,NA,NA,NA,2,6,"7,14,13,2,1,6,15,5,3,9,10,11,8,12,4"
14479,commdev-image-keyboard-response,85,299685,learnblock1,648,img/planet8_left.png,8,Community 3,NA,TRUE,f,f,NA,NA,NA,2,6,"7,14,13,2,1,6,15,5,3,9,10,11,8,12,4"
14479,commdev-image-keyboard-response,86,300955,learnblock1,628.4000000953674,img/planet11_right.png,11,Community 3,NA,TRUE,j,j,NA,NA,NA,2,6,"7,14,13,2,1,6,15,5,3,9,10,11,8,12,4"
14479,commdev-image-keyboard-response,87,302209,learnblock1,598.7999999523163,img/planet5_right.png,5,Community 2,NA,TRUE,j,j,NA,NA,NA,2,6,"7,14,13,2,1,6,15,5,3,9,10,11,8,12,4"
14479,commdev-image-keyboard-response,88,303473,learnblock1,552.8000001907349,img/planet11_left.png,11,Community 3,NA,TRUE,f,f,NA,NA,NA,2,6,"7,14,13,2,1,6,15,5,3,9,10,11,8,12,4"
14479,commdev-image-keyboard-response,89,304726,learnblock1,508.7999999523163,img/planet4_right.png,4,Community 3,NA,TRUE,j,j,NA,NA,NA,2,6,"7,14,13,2,1,6,15,5,3,9,10,11,8,12,4"
14479,commdev-image-keyboard-response,90,305983,learnblock1,614.2999999523163,img/planet12_right.png,12,Community 3,NA,TRUE,j,j,NA,NA,NA,2,6,"7,14,13,2,1,6,15,5,3,9,10,11,8,12,4"
14479,commdev-image-keyboard-response,91,307255,learnblock1,671.5999999046326,img/planet4_left.png,4,Community 3,NA,TRUE,f,f,NA,NA,NA,2,6,"7,14,13,2,1,6,15,5,3,9,10,11,8,12,4"
14479,commdev-image-keyboard-response,92,308513,learnblock1,497.09999990463257,img/planet11_right.png,11,Community 3,NA,TRUE,j,j,NA,NA,NA,2,6,"7,14,13,2,1,6,15,5,3,9,10,11,8,12,4"
14479,commdev-image-keyboard-response,93,309772,learnblock1,615.5,img/planet12_left.png,12,Community 3,NA,TRUE,f,f,NA,NA,NA,2,6,"7,14,13,2,1,6,15,5,3,9,10,11,8,12,4"
14479,commdev-image-keyboard-response,94,311029,learnblock1,684.4000000953674,img/planet10_right.png,10,Community 3,NA,TRUE,j,j,NA,NA,NA,2,6,"7,14,13,2,1,6,15,5,3,9,10,11,8,12,4"
14479,commdev-image-keyboard-response,95,312289,learnblock1,658.7000000476837,img/planet8_left.png,8,Community 3,NA,TRUE,f,f,NA,NA,NA,2,6,"7,14,13,2,1,6,15,5,3,9,10,11,8,12,4"
14479,commdev-image-keyboard-response,96,313540,learnblock1,585.5,img/planet11_left.png,11,Community 3,NA,TRUE,f,f,NA,NA,NA,2,6,"7,14,13,2,1,6,15,5,3,9,10,11,8,12,4"
14479,commdev-image-keyboard-response,97,314806,learnblock1,538.6999998092651,img/planet5_right.png,5,Community 2,NA,TRUE,j,j,NA,NA,NA,2,6,"7,14,13,2,1,6,15,5,3,9,10,11,8,12,4"
14479,commdev-image-keyboard-response,98,316060,learnblock1,556.7999999523163,img/planet9_right.png,9,Community 2,NA,TRUE,j,j,NA,NA,NA,2,6,"7,14,13,2,1,6,15,5,3,9,10,11,8,12,4"
14479,commdev-image-keyboard-response,99,317315,learnblock1,623.4000000953674,img/planet5_left.png,5,Community 2,NA,TRUE,f,f,NA,NA,NA,2,6,"7,14,13,2,1,6,15,5,3,9,10,11,8,12,4"
14479,commdev-image-keyboard-response,100,318570,learnblock1,812.2000000476837,img/planet11_left.png,11,Community 3,NA,TRUE,f,f,NA,NA,NA,2,6,"7,14,13,2,1,6,15,5,3,9,10,11,8,12,4"
14479,commdev-image-keyboard-response,101,319825,learnblock1,759.0999999046326,img/planet4_left.png,4,Community 3,NA,TRUE,f,f,NA,NA,NA,2,6,"7,14,13,2,1,6,15,5,3,9,10,11,8,12,4"
14479,commdev-image-keyboard-response,102,321077,learnblock1,681.3000001907349,img/planet8_right.png,8,Community 3,NA,TRUE,j,j,NA,NA,NA,2,6,"7,14,13,2,1,6,15,5,3,9,10,11,8,12,4"
14479,commdev-image-keyboard-response,103,322342,learnblock1,571,img/planet11_left.png,11,Community 3,NA,TRUE,f,f,NA,NA,NA,2,6,"7,14,13,2,1,6,15,5,3,9,10,11,8,12,4"
14479,commdev-image-keyboard-response,104,323597,learnblock1,531.6000001430511,img/planet5_left.png,5,Community 2,NA,TRUE,f,f,NA,NA,NA,2,6,"7,14,13,2,1,6,15,5,3,9,10,11,8,12,4"
14479,commdev-image-keyboard-response,105,324861,learnblock1,453.7000000476837,img/planet15_left.png,15,Community 2,NA,TRUE,f,f,NA,NA,NA,2,6,"7,14,13,2,1,6,15,5,3,9,10,11,8,12,4"
14479,commdev-image-keyboard-response,106,326114,learnblock1,516.2999999523163,img/planet6_left.png,6,Community 2,NA,TRUE,f,f,NA,NA,NA,2,6,"7,14,13,2,1,6,15,5,3,9,10,11,8,12,4"
14479,commdev-image-keyboard-response,107,327366,learnblock1,585.2000000476837,img/planet3_left.png,3,Community 2,NA,TRUE,f,f,NA,NA,NA,2,6,"7,14,13,2,1,6,15,5,3,9,10,11,8,12,4"
14479,commdev-image-keyboard-response,108,328632,learnblock1,618,img/planet5_right.png,5,Community 2,NA,TRUE,j,j,NA,NA,NA,2,6,"7,14,13,2,1,6,15,5,3,9,10,11,8,12,4"
14479,commdev-image-keyboard-response,109,329890,learnblock1,645.0999999046326,img/planet15_right.png,15,Community 2,NA,TRUE,j,j,NA,NA,NA,2,6,"7,14,13,2,1,6,15,5,3,9,10,11,8,12,4"
14479,commdev-image-keyboard-response,110,331150,learnblock1,636.1000001430511,img/planet9_right.png,9,Community 2,NA,TRUE,j,j,NA,NA,NA,2,6,"7,14,13,2,1,6,15,5,3,9,10,11,8,12,4"
14479,commdev-image-keyboard-response,111,332409,learnblock1,523.0999999046326,img/planet3_left.png,3,Community 2,NA,TRUE,f,f,NA,NA,NA,2,6,"7,14,13,2,1,6,15,5,3,9,10,11,8,12,4"
14479,commdev-image-keyboard-response,112,333666,learnblock1,450.5,img/planet5_right.png,5,Community 2,NA,TRUE,j,j,NA,NA,NA,2,6,"7,14,13,2,1,6,15,5,3,9,10,11,8,12,4"
14479,commdev-image-keyboard-response,113,334926,learnblock1,509.90000009536743,img/planet9_left.png,9,Community 2,NA,TRUE,f,f,NA,NA,NA,2,6,"7,14,13,2,1,6,15,5,3,9,10,11,8,12,4"
14479,commdev-image-keyboard-response,114,336183,learnblock1,599.7000000476837,img/planet6_right.png,6,Community 2,NA,TRUE,j,j,NA,NA,NA,2,6,"7,14,13,2,1,6,15,5,3,9,10,11,8,12,4"
14479,commdev-image-keyboard-response,115,337448,learnblock1,892.3999998569489,img/planet3_left.png,3,Community 2,NA,TRUE,f,f,NA,NA,NA,2,6,"7,14,13,2,1,6,15,5,3,9,10,11,8,12,4"
14479,commdev-image-keyboard-response,116,338706,learnblock1,641,img/planet9_right.png,9,Community 2,NA,TRUE,j,j,NA,NA,NA,2,6,"7,14,13,2,1,6,15,5,3,9,10,11,8,12,4"
14479,commdev-image-keyboard-response,117,339963,learnblock1,550.2000000476837,img/planet5_right.png,5,Community 2,NA,TRUE,j,j,NA,NA,NA,2,6,"7,14,13,2,1,6,15,5,3,9,10,11,8,12,4"
14479,commdev-image-keyboard-response,118,341218,learnblock1,535.0999999046326,img/planet11_right.png,11,Community 3,NA,TRUE,j,j,NA,NA,NA,2,6,"7,14,13,2,1,6,15,5,3,9,10,11,8,12,4"
14479,commdev-image-keyboard-response,119,342482,learnblock1,491.89999985694885,img/planet5_right.png,5,Community 2,NA,TRUE,j,j,NA,NA,NA,2,6,"7,14,13,2,1,6,15,5,3,9,10,11,8,12,4"
14479,commdev-image-keyboard-response,120,343738,learnblock1,496.39999985694885,img/planet11_left.png,11,Community 3,NA,FALSE,j,f,NA,NA,NA,2,6,"7,14,13,2,1,6,15,5,3,9,10,11,8,12,4"
14479,commdev-image-keyboard-response,121,344998,learnblock1,515.7999999523163,img/planet8_right.png,8,Community 3,NA,TRUE,j,j,NA,NA,NA,2,6,"7,14,13,2,1,6,15,5,3,9,10,11,8,12,4"
14479,commdev-image-keyboard-response,122,346253,learnblock1,675.1999998092651,img/planet10_right.png,10,Community 3,NA,TRUE,j,j,NA,NA,NA,2,6,"7,14,13,2,1,6,15,5,3,9,10,11,8,12,4"
14479,commdev-image-keyboard-response,123,347508,learnblock1,1166,img/planet12_left.png,12,Community 3,NA,TRUE,f,f,NA,NA,NA,2,6,"7,14,13,2,1,6,15,5,3,9,10,11,8,12,4"
14479,commdev-image-keyboard-response,124,348764,learnblock1,950.8999998569489,img/planet10_left.png,10,Community 3,NA,TRUE,f,f,NA,NA,NA,2,6,"7,14,13,2,1,6,15,5,3,9,10,11,8,12,4"
14479,commdev-image-keyboard-response,125,350019,learnblock1,803.2000000476837,img/planet12_right.png,12,Community 3,NA,TRUE,j,j,NA,NA,NA,2,6,"7,14,13,2,1,6,15,5,3,9,10,11,8,12,4"
14479,commdev-image-keyboard-response,126,351280,learnblock1,575.0999999046326,img/planet8_right.png,8,Community 3,NA,TRUE,j,j,NA,NA,NA,2,6,"7,14,13,2,1,6,15,5,3,9,10,11,8,12,4"
14479,commdev-image-keyboard-response,127,352533,learnblock1,527.4000000953674,img/planet4_right.png,4,Community 3,NA,TRUE,j,j,NA,NA,NA,2,6,"7,14,13,2,1,6,15,5,3,9,10,11,8,12,4"
14479,commdev-image-keyboard-response,128,353792,learnblock1,747.2999999523163,img/planet8_left.png,8,Community 3,NA,TRUE,f,f,NA,NA,NA,2,6,"7,14,13,2,1,6,15,5,3,9,10,11,8,12,4"
14479,commdev-image-keyboard-response,129,355050,learnblock1,554.8999998569489,img/planet4_left.png,4,Community 3,NA,TRUE,f,f,NA,NA,NA,2,6,"7,14,13,2,1,6,15,5,3,9,10,11,8,12,4"
14479,commdev-image-keyboard-response,130,356311,learnblock1,545.9000000953674,img/planet11_right.png,11,Community 3,NA,TRUE,j,j,NA,NA,NA,2,6,"7,14,13,2,1,6,15,5,3,9,10,11,8,12,4"
14479,commdev-image-keyboard-response,131,357568,learnblock1,613.9000000953674,img/planet4_right.png,4,Community 3,NA,TRUE,j,j,NA,NA,NA,2,6,"7,14,13,2,1,6,15,5,3,9,10,11,8,12,4"
14479,commdev-image-keyboard-response,132,358823,learnblock1,1146.7999999523163,img/planet12_left.png,12,Community 3,NA,TRUE,f,f,NA,NA,NA,2,6,"7,14,13,2,1,6,15,5,3,9,10,11,8,12,4"
14479,commdev-image-keyboard-response,133,360080,learnblock1,529.4000000953674,img/planet4_right.png,4,Community 3,NA,TRUE,j,j,NA,NA,NA,2,6,"7,14,13,2,1,6,15,5,3,9,10,11,8,12,4"
14479,commdev-image-keyboard-response,134,361336,learnblock1,619.0999999046326,img/planet12_right.png,12,Community 3,NA,TRUE,j,j,NA,NA,NA,2,6,"7,14,13,2,1,6,15,5,3,9,10,11,8,12,4"
14479,commdev-image-keyboard-response,135,362594,learnblock1,435,img/planet4_right.png,4,Community 3,NA,TRUE,j,j,NA,NA,NA,2,6,"7,14,13,2,1,6,15,5,3,9,10,11,8,12,4"
14479,commdev-image-keyboard-response,136,363853,learnblock1,600.5999999046326,img/planet12_left.png,12,Community 3,NA,TRUE,f,f,NA,NA,NA,2,6,"7,14,13,2,1,6,15,5,3,9,10,11,8,12,4"
14479,commdev-image-keyboard-response,137,365106,learnblock1,503.40000009536743,img/planet11_left.png,11,Community 3,NA,TRUE,f,f,NA,NA,NA,2,6,"7,14,13,2,1,6,15,5,3,9,10,11,8,12,4"
14479,commdev-image-keyboard-response,138,366363,learnblock1,562.0999999046326,img/planet8_right.png,8,Community 3,NA,TRUE,j,j,NA,NA,NA,2,6,"7,14,13,2,1,6,15,5,3,9,10,11,8,12,4"
14479,commdev-image-keyboard-response,139,367621,learnblock1,653.2000000476837,img/planet4_right.png,4,Community 3,NA,TRUE,j,j,NA,NA,NA,2,6,"7,14,13,2,1,6,15,5,3,9,10,11,8,12,4"
14479,commdev-image-keyboard-response,140,368881,learnblock1,546.2000000476837,img/planet8_right.png,8,Community 3,NA,TRUE,j,j,NA,NA,NA,2,6,"7,14,13,2,1,6,15,5,3,9,10,11,8,12,4"
14479,commdev-image-keyboard-response,141,370142,learnblock1,510.60000014305115,img/planet4_right.png,4,Community 3,NA,TRUE,j,j,NA,NA,NA,2,6,"7,14,13,2,1,6,15,5,3,9,10,11,8,12,4"
14479,commdev-image-keyboard-response,142,371399,learnblock1,630.6999998092651,img/planet10_right.png,10,Community 3,NA,TRUE,j,j,NA,NA,NA,2,6,"7,14,13,2,1,6,15,5,3,9,10,11,8,12,4"
14479,commdev-image-keyboard-response,143,372658,learnblock1,571.2999999523163,img/planet4_right.png,4,Community 3,NA,TRUE,j,j,NA,NA,NA,2,6,"7,14,13,2,1,6,15,5,3,9,10,11,8,12,4"
14479,commdev-image-keyboard-response,144,373916,learnblock1,545.3999998569489,img/planet11_right.png,11,Community 3,NA,TRUE,j,j,NA,NA,NA,2,6,"7,14,13,2,1,6,15,5,3,9,10,11,8,12,4"
14479,commdev-image-keyboard-response,145,375172,learnblock1,575.0999999046326,img/planet12_left.png,12,Community 3,NA,TRUE,f,f,NA,NA,NA,2,6,"7,14,13,2,1,6,15,5,3,9,10,11,8,12,4"
14479,commdev-image-keyboard-response,146,376423,learnblock1,531.3000001907349,img/planet11_right.png,11,Community 3,NA,TRUE,j,j,NA,NA,NA,2,6,"7,14,13,2,1,6,15,5,3,9,10,11,8,12,4"
14479,commdev-image-keyboard-response,147,377681,learnblock1,490.2999999523163,img/planet5_right.png,5,Community 2,NA,TRUE,j,j,NA,NA,NA,2,6,"7,14,13,2,1,6,15,5,3,9,10,11,8,12,4"
14479,commdev-image-keyboard-response,148,378941,learnblock1,473.10000014305115,img/planet9_right.png,9,Community 2,NA,TRUE,j,j,NA,NA,NA,2,6,"7,14,13,2,1,6,15,5,3,9,10,11,8,12,4"
14479,commdev-image-keyboard-response,149,380195,learnblock1,1246,img/planet15_right.png,15,Community 2,NA,TRUE,j,j,NA,NA,NA,2,6,"7,14,13,2,1,6,15,5,3,9,10,11,8,12,4"
14479,commdev-image-keyboard-response,150,381458,learnblock1,744.2000000476837,img/planet5_left.png,5,Community 2,NA,TRUE,f,f,NA,NA,NA,2,6,"7,14,13,2,1,6,15,5,3,9,10,11,8,12,4"
14479,commdev-image-keyboard-response,151,382726,learnblock1,633.2999999523163,img/planet3_left.png,3,Community 2,NA,TRUE,f,f,NA,NA,NA,2,6,"7,14,13,2,1,6,15,5,3,9,10,11,8,12,4"
14479,commdev-image-keyboard-response,152,383981,learnblock1,551.7000000476837,img/planet15_right.png,15,Community 2,NA,TRUE,j,j,NA,NA,NA,2,6,"7,14,13,2,1,6,15,5,3,9,10,11,8,12,4"
14479,commdev-image-keyboard-response,153,385235,learnblock1,968.1000001430511,img/planet9_left.png,9,Community 2,NA,TRUE,f,f,NA,NA,NA,2,6,"7,14,13,2,1,6,15,5,3,9,10,11,8,12,4"
14479,commdev-image-keyboard-response,154,386498,learnblock1,615.1000001430511,img/planet15_left.png,15,Community 2,NA,TRUE,f,f,NA,NA,NA,2,6,"7,14,13,2,1,6,15,5,3,9,10,11,8,12,4"
14479,commdev-image-keyboard-response,155,387758,learnblock1,642.0999999046326,img/planet5_right.png,5,Community 2,NA,TRUE,j,j,NA,NA,NA,2,6,"7,14,13,2,1,6,15,5,3,9,10,11,8,12,4"
14479,commdev-image-keyboard-response,156,389013,learnblock1,438.5,img/planet9_left.png,9,Community 2,NA,TRUE,f,f,NA,NA,NA,2,6,"7,14,13,2,1,6,15,5,3,9,10,11,8,12,4"
14479,commdev-image-keyboard-response,157,390270,learnblock1,682.5,img/planet3_left.png,3,Community 2,NA,TRUE,f,f,NA,NA,NA,2,6,"7,14,13,2,1,6,15,5,3,9,10,11,8,12,4"
14479,commdev-image-keyboard-response,158,391525,learnblock1,567.4000000953674,img/planet9_left.png,9,Community 2,NA,TRUE,f,f,NA,NA,NA,2,6,"7,14,13,2,1,6,15,5,3,9,10,11,8,12,4"
14479,commdev-image-keyboard-response,159,392781,learnblock1,596.5,img/planet3_right.png,3,Community 2,NA,TRUE,j,j,NA,NA,NA,2,6,"7,14,13,2,1,6,15,5,3,9,10,11,8,12,4"
14479,commdev-image-keyboard-response,160,394033,learnblock1,553.7000000476837,img/planet9_right.png,9,Community 2,NA,TRUE,j,j,NA,NA,NA,2,6,"7,14,13,2,1,6,15,5,3,9,10,11,8,12,4"
14479,commdev-image-keyboard-response,161,395294,learnblock1,633.5,img/planet3_left.png,3,Community 2,NA,TRUE,f,f,NA,NA,NA,2,6,"7,14,13,2,1,6,15,5,3,9,10,11,8,12,4"
14479,commdev-image-keyboard-response,162,396558,learnblock1,689.5999999046326,img/planet6_left.png,6,Community 2,NA,TRUE,f,f,NA,NA,NA,2,6,"7,14,13,2,1,6,15,5,3,9,10,11,8,12,4"
14479,commdev-image-keyboard-response,163,397811,learnblock1,603.4000000953674,img/planet15_right.png,15,Community 2,NA,TRUE,j,j,NA,NA,NA,2,6,"7,14,13,2,1,6,15,5,3,9,10,11,8,12,4"
14479,commdev-image-keyboard-response,164,399069,learnblock1,483.5,img/planet5_left.png,5,Community 2,NA,TRUE,f,f,NA,NA,NA,2,6,"7,14,13,2,1,6,15,5,3,9,10,11,8,12,4"
14479,commdev-image-keyboard-response,165,400337,learnblock1,412.69999980926514,img/planet3_left.png,3,Community 2,NA,TRUE,f,f,NA,NA,NA,2,6,"7,14,13,2,1,6,15,5,3,9,10,11,8,12,4"
14479,commdev-image-keyboard-response,166,401594,learnblock1,469.5,img/planet15_right.png,15,Community 2,NA,TRUE,j,j,NA,NA,NA,2,6,"7,14,13,2,1,6,15,5,3,9,10,11,8,12,4"
14479,commdev-image-keyboard-response,167,402850,learnblock1,502.59999990463257,img/planet5_right.png,5,Community 2,NA,TRUE,j,j,NA,NA,NA,2,6,"7,14,13,2,1,6,15,5,3,9,10,11,8,12,4"
14479,commdev-image-keyboard-response,168,404115,learnblock1,471.89999985694885,img/planet11_left.png,11,Community 3,NA,TRUE,f,f,NA,NA,NA,2,6,"7,14,13,2,1,6,15,5,3,9,10,11,8,12,4"
14479,commdev-image-keyboard-response,169,405374,learnblock1,504.40000009536743,img/planet12_left.png,12,Community 3,NA,TRUE,f,f,NA,NA,NA,2,6,"7,14,13,2,1,6,15,5,3,9,10,11,8,12,4"
14479,commdev-image-keyboard-response,170,406632,learnblock1,642.5,img/planet8_left.png,8,Community 3,NA,TRUE,f,f,NA,NA,NA,2,6,"7,14,13,2,1,6,15,5,3,9,10,11,8,12,4"
14479,commdev-image-keyboard-response,171,407895,learnblock1,520.5,img/planet12_right.png,12,Community 3,NA,TRUE,j,j,NA,NA,NA,2,6,"7,14,13,2,1,6,15,5,3,9,10,11,8,12,4"
14479,commdev-image-keyboard-response,172,409155,learnblock1,464.09999990463257,img/planet4_left.png,4,Community 3,NA,TRUE,f,f,NA,NA,NA,2,6,"7,14,13,2,1,6,15,5,3,9,10,11,8,12,4"
14479,commdev-image-keyboard-response,173,410413,learnblock1,523.0999999046326,img/planet10_left.png,10,Community 3,NA,TRUE,f,f,NA,NA,NA,2,6,"7,14,13,2,1,6,15,5,3,9,10,11,8,12,4"
14479,commdev-image-keyboard-response,174,411670,learnblock1,458.2999999523163,img/planet12_left.png,12,Community 3,NA,TRUE,f,f,NA,NA,NA,2,6,"7,14,13,2,1,6,15,5,3,9,10,11,8,12,4"
14479,commdev-image-keyboard-response,175,412922,learnblock1,602.9000000953674,img/planet4_left.png,4,Community 3,NA,TRUE,f,f,NA,NA,NA,2,6,"7,14,13,2,1,6,15,5,3,9,10,11,8,12,4"
14479,commdev-image-keyboard-response,176,414179,learnblock1,1208.9000000953674,img/planet8_right.png,8,Community 3,NA,TRUE,j,j,NA,NA,NA,2,6,"7,14,13,2,1,6,15,5,3,9,10,11,8,12,4"
14479,commdev-image-keyboard-response,177,415433,learnblock1,1054.5,img/planet11_right.png,11,Community 3,NA,TRUE,j,j,NA,NA,NA,2,6,"7,14,13,2,1,6,15,5,3,9,10,11,8,12,4"
14479,commdev-image-keyboard-response,178,416691,learnblock1,747.7999999523163,img/planet4_right.png,4,Community 3,NA,TRUE,j,j,NA,NA,NA,2,6,"7,14,13,2,1,6,15,5,3,9,10,11,8,12,4"
14479,commdev-image-keyboard-response,179,417942,learnblock1,1103.2000000476837,img/planet12_left.png,12,Community 3,NA,TRUE,f,f,NA,NA,NA,2,6,"7,14,13,2,1,6,15,5,3,9,10,11,8,12,4"
14479,commdev-image-keyboard-response,180,419210,learnblock1,null,img/planet11_left.png,11,Community 3,NA,FALSE,null,f,NA,NA,NA,2,6,"7,14,13,2,1,6,15,5,3,9,10,11,8,12,4"
14479,commdev-image-keyboard-response,181,420463,learnblock1,32.30000019073486,img/planet12_right.png,12,Community 3,NA,FALSE,f,j,NA,NA,NA,2,6,"7,14,13,2,1,6,15,5,3,9,10,11,8,12,4"
14479,commdev-image-keyboard-response,182,421715,learnblock1,null,img/planet10_right.png,10,Community 3,NA,FALSE,null,j,NA,NA,NA,2,6,"7,14,13,2,1,6,15,5,3,9,10,11,8,12,4"
14479,commdev-image-keyboard-response,183,422970,learnblock1,877.8999998569489,img/planet4_left.png,4,Community 3,NA,TRUE,f,f,NA,NA,NA,2,6,"7,14,13,2,1,6,15,5,3,9,10,11,8,12,4"
14479,commdev-image-keyboard-response,184,424228,learnblock1,687.2000000476837,img/planet8_left.png,8,Community 3,NA,TRUE,f,f,NA,NA,NA,2,6,"7,14,13,2,1,6,15,5,3,9,10,11,8,12,4"
14479,commdev-image-keyboard-response,185,425487,learnblock1,823.2999999523163,img/planet4_right.png,4,Community 3,NA,TRUE,j,j,NA,NA,NA,2,6,"7,14,13,2,1,6,15,5,3,9,10,11,8,12,4"
14479,commdev-image-keyboard-response,186,426742,learnblock1,633.5,img/planet10_left.png,10,Community 3,NA,TRUE,f,f,NA,NA,NA,2,6,"7,14,13,2,1,6,15,5,3,9,10,11,8,12,4"
14479,commdev-image-keyboard-response,187,428008,learnblock1,732.5999999046326,img/planet1_right.png,1,Community 1,NA,TRUE,j,j,NA,NA,NA,2,6,"7,14,13,2,1,6,15,5,3,9,10,11,8,12,4"
14479,commdev-image-keyboard-response,188,429266,learnblock1,655,img/planet7_right.png,7,Community 1,NA,TRUE,j,j,NA,NA,NA,2,6,"7,14,13,2,1,6,15,5,3,9,10,11,8,12,4"
14479,commdev-image-keyboard-response,189,430523,learnblock1,591.7000000476837,img/planet2_left.png,2,Community 1,NA,TRUE,f,f,NA,NA,NA,2,6,"7,14,13,2,1,6,15,5,3,9,10,11,8,12,4"
14479,commdev-image-keyboard-response,190,431777,learnblock1,701.8000001907349,img/planet6_right.png,6,Community 2,NA,TRUE,j,j,NA,NA,NA,2,6,"7,14,13,2,1,6,15,5,3,9,10,11,8,12,4"
14479,commdev-image-keyboard-response,191,433029,learnblock1,null,img/planet9_left.png,9,Community 2,NA,FALSE,null,f,NA,NA,NA,2,6,"7,14,13,2,1,6,15,5,3,9,10,11,8,12,4"
14479,commdev-image-keyboard-response,192,434287,learnblock1,883.7999999523163,img/planet15_left.png,15,Community 2,NA,TRUE,f,f,NA,NA,NA,2,6,"7,14,13,2,1,6,15,5,3,9,10,11,8,12,4"
14479,commdev-image-keyboard-response,193,435552,learnblock1,845.1000001430511,img/planet6_left.png,6,Community 2,NA,TRUE,f,f,NA,NA,NA,2,6,"7,14,13,2,1,6,15,5,3,9,10,11,8,12,4"
14479,commdev-image-keyboard-response,194,436805,learnblock1,587.1000001430511,img/planet2_right.png,2,Community 1,NA,TRUE,j,j,NA,NA,NA,2,6,"7,14,13,2,1,6,15,5,3,9,10,11,8,12,4"
14479,commdev-image-keyboard-response,195,438070,learnblock1,607.1999998092651,img/planet7_left.png,7,Community 1,NA,TRUE,f,f,NA,NA,NA,2,6,"7,14,13,2,1,6,15,5,3,9,10,11,8,12,4"
14479,commdev-image-keyboard-response,196,439325,learnblock1,437.39999985694885,img/planet2_left.png,2,Community 1,NA,TRUE,f,f,NA,NA,NA,2,6,"7,14,13,2,1,6,15,5,3,9,10,11,8,12,4"
14479,commdev-image-keyboard-response,197,440578,learnblock1,521.5,img/planet6_left.png,6,Community 2,NA,TRUE,f,f,NA,NA,NA,2,6,"7,14,13,2,1,6,15,5,3,9,10,11,8,12,4"
14479,commdev-image-keyboard-response,198,441837,learnblock1,458.59999990463257,img/planet15_left.png,15,Community 2,NA,TRUE,f,f,NA,NA,NA,2,6,"7,14,13,2,1,6,15,5,3,9,10,11,8,12,4"
14479,commdev-image-keyboard-response,199,443091,learnblock1,466.09999990463257,img/planet5_right.png,5,Community 2,NA,TRUE,j,j,NA,NA,NA,2,6,"7,14,13,2,1,6,15,5,3,9,10,11,8,12,4"
14479,commdev-image-keyboard-response,200,444357,learnblock1,604.6999998092651,img/planet3_right.png,3,Community 2,NA,TRUE,j,j,NA,NA,NA,2,6,"7,14,13,2,1,6,15,5,3,9,10,11,8,12,4"
14479,commdev-image-keyboard-response,201,445626,learnblock1,697.7000000476837,img/planet5_left.png,5,Community 2,NA,TRUE,f,f,NA,NA,NA,2,6,"7,14,13,2,1,6,15,5,3,9,10,11,8,12,4"
14479,commdev-image-keyboard-response,202,446882,learnblock1,536,img/planet15_right.png,15,Community 2,NA,TRUE,j,j,NA,NA,NA,2,6,"7,14,13,2,1,6,15,5,3,9,10,11,8,12,4"
14479,commdev-image-keyboard-response,203,448134,learnblock1,709.3999998569489,img/planet5_left.png,5,Community 2,NA,TRUE,f,f,NA,NA,NA,2,6,"7,14,13,2,1,6,15,5,3,9,10,11,8,12,4"
14479,commdev-image-keyboard-response,204,449393,learnblock1,772.5,img/planet11_right.png,11,Community 3,NA,TRUE,j,j,NA,NA,NA,2,6,"7,14,13,2,1,6,15,5,3,9,10,11,8,12,4"
14479,commdev-image-keyboard-response,205,450650,learnblock1,601.7999999523163,img/planet12_left.png,12,Community 3,NA,TRUE,f,f,NA,NA,NA,2,6,"7,14,13,2,1,6,15,5,3,9,10,11,8,12,4"
14479,commdev-image-keyboard-response,206,451907,learnblock1,707.8999998569489,img/planet11_left.png,11,Community 3,NA,FALSE,j,f,NA,NA,NA,2,6,"7,14,13,2,1,6,15,5,3,9,10,11,8,12,4"
14479,commdev-image-keyboard-response,207,453166,learnblock1,545,img/planet12_right.png,12,Community 3,NA,TRUE,j,j,NA,NA,NA,2,6,"7,14,13,2,1,6,15,5,3,9,10,11,8,12,4"
14479,commdev-image-keyboard-response,208,454429,learnblock1,631.4000000953674,img/planet11_right.png,11,Community 3,NA,TRUE,j,j,NA,NA,NA,2,6,"7,14,13,2,1,6,15,5,3,9,10,11,8,12,4"
14479,commdev-image-keyboard-response,209,455683,learnblock1,589.2000000476837,img/planet4_right.png,4,Community 3,NA,TRUE,j,j,NA,NA,NA,2,6,"7,14,13,2,1,6,15,5,3,9,10,11,8,12,4"
14479,commdev-image-keyboard-response,210,456935,learnblock1,532.2999999523163,img/planet11_left.png,11,Community 3,NA,TRUE,f,f,NA,NA,NA,2,6,"7,14,13,2,1,6,15,5,3,9,10,11,8,12,4"
14479,commdev-image-keyboard-response,211,458191,learnblock1,596.4000000953674,img/planet5_right.png,5,Community 2,NA,TRUE,j,j,NA,NA,NA,2,6,"7,14,13,2,1,6,15,5,3,9,10,11,8,12,4"
14479,commdev-image-keyboard-response,212,459447,learnblock1,734.5,img/planet9_left.png,9,Community 2,NA,TRUE,f,f,NA,NA,NA,2,6,"7,14,13,2,1,6,15,5,3,9,10,11,8,12,4"
14479,commdev-image-keyboard-response,213,460706,learnblock1,691.2999999523163,img/planet5_right.png,5,Community 2,NA,TRUE,j,j,NA,NA,NA,2,6,"7,14,13,2,1,6,15,5,3,9,10,11,8,12,4"
14479,commdev-image-keyboard-response,214,461964,learnblock1,581.4000000953674,img/planet11_left.png,11,Community 3,NA,TRUE,f,f,NA,NA,NA,2,6,"7,14,13,2,1,6,15,5,3,9,10,11,8,12,4"
14479,commdev-image-keyboard-response,215,463219,learnblock1,463.39999985694885,img/planet4_right.png,4,Community 3,NA,TRUE,j,j,NA,NA,NA,2,6,"7,14,13,2,1,6,15,5,3,9,10,11,8,12,4"
14479,commdev-image-keyboard-response,216,464473,learnblock1,702.4000000953674,img/planet12_right.png,12,Community 3,NA,TRUE,j,j,NA,NA,NA,2,6,"7,14,13,2,1,6,15,5,3,9,10,11,8,12,4"
14479,commdev-image-keyboard-response,217,465726,learnblock1,696.7999999523163,img/planet8_right.png,8,Community 3,NA,TRUE,j,j,NA,NA,NA,2,6,"7,14,13,2,1,6,15,5,3,9,10,11,8,12,4"
14479,commdev-image-keyboard-response,218,466991,learnblock1,667.0999999046326,img/planet11_left.png,11,Community 3,NA,TRUE,f,f,NA,NA,NA,2,6,"7,14,13,2,1,6,15,5,3,9,10,11,8,12,4"
14479,commdev-image-keyboard-response,219,468254,learnblock1,548.7000000476837,img/planet12_left.png,12,Community 3,NA,TRUE,f,f,NA,NA,NA,2,6,"7,14,13,2,1,6,15,5,3,9,10,11,8,12,4"
14479,commdev-image-keyboard-response,220,469513,learnblock1,703.7000000476837,img/planet8_left.png,8,Community 3,NA,TRUE,f,f,NA,NA,NA,2,6,"7,14,13,2,1,6,15,5,3,9,10,11,8,12,4"
14479,commdev-image-keyboard-response,221,470769,learnblock1,489.5,img/planet10_left.png,10,Community 3,NA,TRUE,f,f,NA,NA,NA,2,6,"7,14,13,2,1,6,15,5,3,9,10,11,8,12,4"
14479,commdev-image-keyboard-response,222,472024,learnblock1,511.30000019073486,img/planet4_right.png,4,Community 3,NA,TRUE,j,j,NA,NA,NA,2,6,"7,14,13,2,1,6,15,5,3,9,10,11,8,12,4"
14479,commdev-image-keyboard-response,223,473284,learnblock1,543.4000000953674,img/planet12_left.png,12,Community 3,NA,TRUE,f,f,NA,NA,NA,2,6,"7,14,13,2,1,6,15,5,3,9,10,11,8,12,4"
14479,commdev-image-keyboard-response,224,474541,learnblock1,559.8999998569489,img/planet11_left.png,11,Community 3,NA,TRUE,f,f,NA,NA,NA,2,6,"7,14,13,2,1,6,15,5,3,9,10,11,8,12,4"
14479,commdev-image-keyboard-response,225,475794,learnblock1,457.2999999523163,img/planet12_left.png,12,Community 3,NA,TRUE,f,f,NA,NA,NA,2,6,"7,14,13,2,1,6,15,5,3,9,10,11,8,12,4"
14479,commdev-image-keyboard-response,226,477050,learnblock1,735.8999998569489,img/planet11_right.png,11,Community 3,NA,TRUE,j,j,NA,NA,NA,2,6,"7,14,13,2,1,6,15,5,3,9,10,11,8,12,4"
14479,commdev-image-keyboard-response,227,478303,learnblock1,773.7999999523163,img/planet5_right.png,5,Community 2,NA,TRUE,j,j,NA,NA,NA,2,6,"7,14,13,2,1,6,15,5,3,9,10,11,8,12,4"
14479,commdev-image-keyboard-response,228,479557,learnblock1,668.1999998092651,img/planet3_right.png,3,Community 2,NA,TRUE,j,j,NA,NA,NA,2,6,"7,14,13,2,1,6,15,5,3,9,10,11,8,12,4"
14479,commdev-image-keyboard-response,229,480815,learnblock1,699.6000001430511,img/planet9_left.png,9,Community 2,NA,TRUE,f,f,NA,NA,NA,2,6,"7,14,13,2,1,6,15,5,3,9,10,11,8,12,4"
14479,commdev-image-keyboard-response,230,482074,learnblock1,629.2999999523163,img/planet6_right.png,6,Community 2,NA,TRUE,j,j,NA,NA,NA,2,6,"7,14,13,2,1,6,15,5,3,9,10,11,8,12,4"
14479,commdev-image-keyboard-response,231,483330,learnblock1,554.0999999046326,img/planet15_right.png,15,Community 2,NA,FALSE,f,j,NA,NA,NA,2,6,"7,14,13,2,1,6,15,5,3,9,10,11,8,12,4"
14479,commdev-image-keyboard-response,232,484586,learnblock1,611,img/planet5_right.png,5,Community 2,NA,TRUE,j,j,NA,NA,NA,2,6,"7,14,13,2,1,6,15,5,3,9,10,11,8,12,4"
14479,commdev-image-keyboard-response,233,485840,learnblock1,575.2000000476837,img/planet9_left.png,9,Community 2,NA,TRUE,f,f,NA,NA,NA,2,6,"7,14,13,2,1,6,15,5,3,9,10,11,8,12,4"
14479,commdev-image-keyboard-response,234,487098,learnblock1,619.6000001430511,img/planet5_left.png,5,Community 2,NA,TRUE,f,f,NA,NA,NA,2,6,"7,14,13,2,1,6,15,5,3,9,10,11,8,12,4"
14479,commdev-image-keyboard-response,235,488361,learnblock1,554.9000000953674,img/planet11_left.png,11,Community 3,NA,TRUE,f,f,NA,NA,NA,2,6,"7,14,13,2,1,6,15,5,3,9,10,11,8,12,4"
14479,commdev-image-keyboard-response,236,489622,learnblock1,627.0999999046326,img/planet5_left.png,5,Community 2,NA,TRUE,f,f,NA,NA,NA,2,6,"7,14,13,2,1,6,15,5,3,9,10,11,8,12,4"
14479,commdev-image-keyboard-response,237,490881,learnblock1,664.1999998092651,img/planet9_left.png,9,Community 2,NA,TRUE,f,f,NA,NA,NA,2,6,"7,14,13,2,1,6,15,5,3,9,10,11,8,12,4"
14479,commdev-image-keyboard-response,238,492137,learnblock1,612.7999999523163,img/planet15_left.png,15,Community 2,NA,TRUE,f,f,NA,NA,NA,2,6,"7,14,13,2,1,6,15,5,3,9,10,11,8,12,4"
14479,commdev-image-keyboard-response,239,493398,learnblock1,538.7000000476837,img/planet9_left.png,9,Community 2,NA,TRUE,f,f,NA,NA,NA,2,6,"7,14,13,2,1,6,15,5,3,9,10,11,8,12,4"
14479,commdev-image-keyboard-response,240,494657,learnblock1,602.2000000476837,img/planet3_right.png,3,Community 2,NA,TRUE,j,j,NA,NA,NA,2,6,"7,14,13,2,1,6,15,5,3,9,10,11,8,12,4"
14479,commdev-image-keyboard-response,241,495920,learnblock1,648.8000001907349,img/planet15_right.png,15,Community 2,NA,TRUE,j,j,NA,NA,NA,2,6,"7,14,13,2,1,6,15,5,3,9,10,11,8,12,4"
14479,commdev-image-keyboard-response,242,497177,learnblock1,949.2000000476837,img/planet5_left.png,5,Community 2,NA,TRUE,f,f,NA,NA,NA,2,6,"7,14,13,2,1,6,15,5,3,9,10,11,8,12,4"
14479,commdev-image-keyboard-response,243,498443,learnblock1,603.0999999046326,img/planet11_left.png,11,Community 3,NA,TRUE,f,f,NA,NA,NA,2,6,"7,14,13,2,1,6,15,5,3,9,10,11,8,12,4"
14479,commdev-image-keyboard-response,244,499700,learnblock1,519.1999998092651,img/planet4_right.png,4,Community 3,NA,TRUE,j,j,NA,NA,NA,2,6,"7,14,13,2,1,6,15,5,3,9,10,11,8,12,4"
14479,commdev-image-keyboard-response,245,500966,learnblock1,561.8999998569489,img/planet8_right.png,8,Community 3,NA,TRUE,j,j,NA,NA,NA,2,6,"7,14,13,2,1,6,15,5,3,9,10,11,8,12,4"
14479,commdev-image-keyboard-response,246,502232,learnblock1,651.1000001430511,img/planet11_left.png,11,Community 3,NA,TRUE,f,f,NA,NA,NA,2,6,"7,14,13,2,1,6,15,5,3,9,10,11,8,12,4"
14479,commdev-image-keyboard-response,247,503492,learnblock1,555.2999999523163,img/planet5_left.png,5,Community 2,NA,TRUE,f,f,NA,NA,NA,2,6,"7,14,13,2,1,6,15,5,3,9,10,11,8,12,4"
14479,commdev-image-keyboard-response,248,504746,learnblock1,637.6000001430511,img/planet9_left.png,9,Community 2,NA,TRUE,f,f,NA,NA,NA,2,6,"7,14,13,2,1,6,15,5,3,9,10,11,8,12,4"
14479,commdev-image-keyboard-response,249,506006,learnblock1,552.1000001430511,img/planet6_right.png,6,Community 2,NA,TRUE,j,j,NA,NA,NA,2,6,"7,14,13,2,1,6,15,5,3,9,10,11,8,12,4"
14479,commdev-image-keyboard-response,250,507264,learnblock1,633,img/planet15_right.png,15,Community 2,NA,TRUE,j,j,NA,NA,NA,2,6,"7,14,13,2,1,6,15,5,3,9,10,11,8,12,4"
14479,commdev-image-keyboard-response,251,508526,learnblock1,783.3999998569489,img/planet6_right.png,6,Community 2,NA,TRUE,j,j,NA,NA,NA,2,6,"7,14,13,2,1,6,15,5,3,9,10,11,8,12,4"
14479,commdev-image-keyboard-response,252,509784,learnblock1,646.4000000953674,img/planet3_left.png,3,Community 2,NA,TRUE,f,f,NA,NA,NA,2,6,"7,14,13,2,1,6,15,5,3,9,10,11,8,12,4"
14479,commdev-image-keyboard-response,253,511039,learnblock1,558,img/planet15_right.png,15,Community 2,NA,TRUE,j,j,NA,NA,NA,2,6,"7,14,13,2,1,6,15,5,3,9,10,11,8,12,4"
14479,commdev-image-keyboard-response,254,512303,learnblock1,584.5999999046326,img/planet3_left.png,3,Community 2,NA,TRUE,f,f,NA,NA,NA,2,6,"7,14,13,2,1,6,15,5,3,9,10,11,8,12,4"
14479,commdev-image-keyboard-response,255,513560,learnblock1,523.3000001907349,img/planet15_left.png,15,Community 2,NA,TRUE,f,f,NA,NA,NA,2,6,"7,14,13,2,1,6,15,5,3,9,10,11,8,12,4"
14479,commdev-image-keyboard-response,256,514828,learnblock1,680.9000000953674,img/planet6_left.png,6,Community 2,NA,TRUE,f,f,NA,NA,NA,2,6,"7,14,13,2,1,6,15,5,3,9,10,11,8,12,4"
14479,commdev-image-keyboard-response,257,516083,learnblock1,684.5,img/planet2_left.png,2,Community 1,NA,TRUE,f,f,NA,NA,NA,2,6,"7,14,13,2,1,6,15,5,3,9,10,11,8,12,4"
14479,commdev-image-keyboard-response,258,517338,learnblock1,599.1000001430511,img/planet13_left.png,13,Community 1,NA,TRUE,f,f,NA,NA,NA,2,6,"7,14,13,2,1,6,15,5,3,9,10,11,8,12,4"
14479,commdev-image-keyboard-response,259,518592,learnblock1,431.90000009536743,img/planet1_left.png,1,Community 1,NA,TRUE,f,f,NA,NA,NA,2,6,"7,14,13,2,1,6,15,5,3,9,10,11,8,12,4"
14479,commdev-image-keyboard-response,260,519860,learnblock1,561.7999999523163,img/planet13_right.png,13,Community 1,NA,TRUE,j,j,NA,NA,NA,2,6,"7,14,13,2,1,6,15,5,3,9,10,11,8,12,4"
14479,commdev-image-keyboard-response,261,521118,learnblock1,495.2000000476837,img/planet1_right.png,1,Community 1,NA,TRUE,j,j,NA,NA,NA,2,6,"7,14,13,2,1,6,15,5,3,9,10,11,8,12,4"
14479,commdev-image-keyboard-response,262,522379,learnblock1,889.4000000953674,img/planet13_right.png,13,Community 1,NA,TRUE,j,j,NA,NA,NA,2,6,"7,14,13,2,1,6,15,5,3,9,10,11,8,12,4"
14479,commdev-image-keyboard-response,263,523638,learnblock1,701.5,img/planet14_right.png,14,Community 1,NA,TRUE,j,j,NA,NA,NA,2,6,"7,14,13,2,1,6,15,5,3,9,10,11,8,12,4"
14479,commdev-image-keyboard-response,264,524901,learnblock1,937.7000000476837,img/planet1_right.png,1,Community 1,NA,TRUE,j,j,NA,NA,NA,2,6,"7,14,13,2,1,6,15,5,3,9,10,11,8,12,4"
14479,commdev-image-keyboard-response,265,526162,learnblock1,585.7000000476837,img/planet7_left.png,7,Community 1,NA,TRUE,f,f,NA,NA,NA,2,6,"7,14,13,2,1,6,15,5,3,9,10,11,8,12,4"
14479,commdev-image-keyboard-response,266,527424,learnblock1,604.6000001430511,img/planet2_right.png,2,Community 1,NA,TRUE,j,j,NA,NA,NA,2,6,"7,14,13,2,1,6,15,5,3,9,10,11,8,12,4"
14479,commdev-image-keyboard-response,267,528682,learnblock1,542.6000001430511,img/planet13_left.png,13,Community 1,NA,TRUE,f,f,NA,NA,NA,2,6,"7,14,13,2,1,6,15,5,3,9,10,11,8,12,4"
14479,commdev-image-keyboard-response,268,529940,learnblock1,560.7000000476837,img/planet7_left.png,7,Community 1,NA,TRUE,f,f,NA,NA,NA,2,6,"7,14,13,2,1,6,15,5,3,9,10,11,8,12,4"
14479,commdev-image-keyboard-response,269,531201,learnblock1,597.1999998092651,img/planet1_left.png,1,Community 1,NA,TRUE,f,f,NA,NA,NA,2,6,"7,14,13,2,1,6,15,5,3,9,10,11,8,12,4"
14479,commdev-image-keyboard-response,270,532465,learnblock1,553.5,img/planet10_right.png,10,Community 3,NA,TRUE,j,j,NA,NA,NA,2,6,"7,14,13,2,1,6,15,5,3,9,10,11,8,12,4"
14479,commdev-image-keyboard-response,271,533728,learnblock1,561.6000001430511,img/planet12_left.png,12,Community 3,NA,TRUE,f,f,NA,NA,NA,2,6,"7,14,13,2,1,6,15,5,3,9,10,11,8,12,4"
14479,commdev-image-keyboard-response,272,534987,learnblock1,596.1999998092651,img/planet11_left.png,11,Community 3,NA,TRUE,f,f,NA,NA,NA,2,6,"7,14,13,2,1,6,15,5,3,9,10,11,8,12,4"
14479,commdev-image-keyboard-response,273,536239,learnblock1,603.5,img/planet12_right.png,12,Community 3,NA,TRUE,j,j,NA,NA,NA,2,6,"7,14,13,2,1,6,15,5,3,9,10,11,8,12,4"
14479,commdev-image-keyboard-response,274,537503,learnblock1,638.5,img/planet11_right.png,11,Community 3,NA,TRUE,j,j,NA,NA,NA,2,6,"7,14,13,2,1,6,15,5,3,9,10,11,8,12,4"
14479,commdev-image-keyboard-response,275,538763,learnblock1,614,img/planet5_left.png,5,Community 2,NA,TRUE,f,f,NA,NA,NA,2,6,"7,14,13,2,1,6,15,5,3,9,10,11,8,12,4"
14479,commdev-image-keyboard-response,276,540022,learnblock1,620.2999999523163,img/planet11_left.png,11,Community 3,NA,TRUE,f,f,NA,NA,NA,2,6,"7,14,13,2,1,6,15,5,3,9,10,11,8,12,4"
14479,commdev-image-keyboard-response,277,541287,learnblock1,739.2000000476837,img/planet12_right.png,12,Community 3,NA,TRUE,j,j,NA,NA,NA,2,6,"7,14,13,2,1,6,15,5,3,9,10,11,8,12,4"
14479,commdev-image-keyboard-response,278,542544,learnblock1,688.6999998092651,img/planet4_left.png,4,Community 3,NA,TRUE,f,f,NA,NA,NA,2,6,"7,14,13,2,1,6,15,5,3,9,10,11,8,12,4"
14479,commdev-image-keyboard-response,279,543802,learnblock1,579.1000001430511,img/planet12_left.png,12,Community 3,NA,TRUE,f,f,NA,NA,NA,2,6,"7,14,13,2,1,6,15,5,3,9,10,11,8,12,4"
14479,commdev-image-keyboard-response,280,545056,learnblock1,785.7999999523163,img/planet11_right.png,11,Community 3,NA,TRUE,j,j,NA,NA,NA,2,6,"7,14,13,2,1,6,15,5,3,9,10,11,8,12,4"
14479,commdev-image-keyboard-response,281,546309,learnblock1,823.5999999046326,img/planet5_right.png,5,Community 2,NA,TRUE,j,j,NA,NA,NA,2,6,"7,14,13,2,1,6,15,5,3,9,10,11,8,12,4"
14479,commdev-image-keyboard-response,282,547572,learnblock1,709.7999999523163,img/planet11_right.png,11,Community 3,NA,TRUE,j,j,NA,NA,NA,2,6,"7,14,13,2,1,6,15,5,3,9,10,11,8,12,4"
14479,commdev-image-keyboard-response,283,548837,learnblock1,658.6999998092651,img/planet12_right.png,12,Community 3,NA,TRUE,j,j,NA,NA,NA,2,6,"7,14,13,2,1,6,15,5,3,9,10,11,8,12,4"
14479,commdev-image-keyboard-response,284,550091,learnblock1,597.9000000953674,img/planet10_right.png,10,Community 3,NA,TRUE,j,j,NA,NA,NA,2,6,"7,14,13,2,1,6,15,5,3,9,10,11,8,12,4"
14479,commdev-image-keyboard-response,285,551343,learnblock1,490.5,img/planet8_right.png,8,Community 3,NA,TRUE,j,j,NA,NA,NA,2,6,"7,14,13,2,1,6,15,5,3,9,10,11,8,12,4"
14479,commdev-image-keyboard-response,286,552596,learnblock1,533.2999999523163,img/planet11_right.png,11,Community 3,NA,TRUE,j,j,NA,NA,NA,2,6,"7,14,13,2,1,6,15,5,3,9,10,11,8,12,4"
14479,commdev-image-keyboard-response,287,553850,learnblock1,492.7999999523163,img/planet5_right.png,5,Community 2,NA,TRUE,j,j,NA,NA,NA,2,6,"7,14,13,2,1,6,15,5,3,9,10,11,8,12,4"
14479,commdev-image-keyboard-response,288,555117,learnblock1,310.60000014305115,img/planet9_left.png,9,Community 2,NA,FALSE,j,f,NA,NA,NA,2,6,"7,14,13,2,1,6,15,5,3,9,10,11,8,12,4"
14479,commdev-image-keyboard-response,289,556380,learnblock1,null,img/planet6_right.png,6,Community 2,NA,FALSE,null,j,NA,NA,NA,2,6,"7,14,13,2,1,6,15,5,3,9,10,11,8,12,4"
14479,commdev-image-keyboard-response,290,557640,learnblock1,98.90000009536743,img/planet2_right.png,2,Community 1,NA,TRUE,j,j,NA,NA,NA,2,6,"7,14,13,2,1,6,15,5,3,9,10,11,8,12,4"
14479,commdev-image-keyboard-response,291,558896,learnblock1,541.7999999523163,img/planet13_right.png,13,Community 1,NA,TRUE,j,j,NA,NA,NA,2,6,"7,14,13,2,1,6,15,5,3,9,10,11,8,12,4"
14479,commdev-image-keyboard-response,292,560153,learnblock1,755.6999998092651,img/planet7_right.png,7,Community 1,NA,TRUE,j,j,NA,NA,NA,2,6,"7,14,13,2,1,6,15,5,3,9,10,11,8,12,4"
14479,commdev-image-keyboard-response,293,561408,learnblock1,759.7000000476837,img/planet1_left.png,1,Community 1,NA,TRUE,f,f,NA,NA,NA,2,6,"7,14,13,2,1,6,15,5,3,9,10,11,8,12,4"
14479,commdev-image-keyboard-response,294,562668,learnblock1,438.59999990463257,img/planet10_right.png,10,Community 3,NA,TRUE,j,j,NA,NA,NA,2,6,"7,14,13,2,1,6,15,5,3,9,10,11,8,12,4"
14479,commdev-image-keyboard-response,295,563926,learnblock1,522.5999999046326,img/planet4_right.png,4,Community 3,NA,FALSE,f,j,NA,NA,NA,2,6,"7,14,13,2,1,6,15,5,3,9,10,11,8,12,4"
14479,commdev-image-keyboard-response,296,565179,learnblock1,801.0999999046326,img/planet8_left.png,8,Community 3,NA,TRUE,f,f,NA,NA,NA,2,6,"7,14,13,2,1,6,15,5,3,9,10,11,8,12,4"
14479,commdev-image-keyboard-response,297,566435,learnblock1,679.2999999523163,img/planet10_left.png,10,Community 3,NA,TRUE,f,f,NA,NA,NA,2,6,"7,14,13,2,1,6,15,5,3,9,10,11,8,12,4"
14479,commdev-image-keyboard-response,298,567699,learnblock1,744.7000000476837,img/planet12_left.png,12,Community 3,NA,TRUE,f,f,NA,NA,NA,2,6,"7,14,13,2,1,6,15,5,3,9,10,11,8,12,4"
14479,commdev-image-keyboard-response,299,568958,learnblock1,523.7000000476837,img/planet10_right.png,10,Community 3,NA,TRUE,j,j,NA,NA,NA,2,6,"7,14,13,2,1,6,15,5,3,9,10,11,8,12,4"
14479,commdev-image-keyboard-response,300,570214,learnblock1,690.9000000953674,img/planet8_right.png,8,Community 3,NA,TRUE,j,j,NA,NA,NA,2,6,"7,14,13,2,1,6,15,5,3,9,10,11,8,12,4"
14479,commdev-image-keyboard-response,301,571476,learnblock1,513.5999999046326,img/planet10_right.png,10,Community 3,NA,TRUE,j,j,NA,NA,NA,2,6,"7,14,13,2,1,6,15,5,3,9,10,11,8,12,4"
14479,commdev-image-keyboard-response,302,572731,learnblock1,682.6000001430511,img/planet12_left.png,12,Community 3,NA,TRUE,f,f,NA,NA,NA,2,6,"7,14,13,2,1,6,15,5,3,9,10,11,8,12,4"
14479,commdev-image-keyboard-response,303,573983,learnblock1,547.8000001907349,img/planet11_right.png,11,Community 3,NA,TRUE,j,j,NA,NA,NA,2,6,"7,14,13,2,1,6,15,5,3,9,10,11,8,12,4"
14479,commdev-image-keyboard-response,304,575236,learnblock1,582.5,img/planet4_left.png,4,Community 3,NA,TRUE,f,f,NA,NA,NA,2,6,"7,14,13,2,1,6,15,5,3,9,10,11,8,12,4"
14479,commdev-image-keyboard-response,305,576488,learnblock1,577.8999998569489,img/planet10_left.png,10,Community 3,NA,TRUE,f,f,NA,NA,NA,2,6,"7,14,13,2,1,6,15,5,3,9,10,11,8,12,4"
14479,commdev-image-keyboard-response,306,577742,learnblock1,604.6000001430511,img/planet12_left.png,12,Community 3,NA,TRUE,f,f,NA,NA,NA,2,6,"7,14,13,2,1,6,15,5,3,9,10,11,8,12,4"
14479,commdev-image-keyboard-response,307,579005,learnblock1,455.5,img/planet4_right.png,4,Community 3,NA,TRUE,j,j,NA,NA,NA,2,6,"7,14,13,2,1,6,15,5,3,9,10,11,8,12,4"
14479,commdev-image-keyboard-response,308,580264,learnblock1,null,img/planet10_right.png,10,Community 3,NA,FALSE,null,j,NA,NA,NA,2,6,"7,14,13,2,1,6,15,5,3,9,10,11,8,12,4"
14479,commdev-image-keyboard-response,309,581520,learnblock1,716.4000000953674,img/planet12_left.png,12,Community 3,NA,TRUE,f,f,NA,NA,NA,2,6,"7,14,13,2,1,6,15,5,3,9,10,11,8,12,4"
14479,commdev-image-keyboard-response,310,582773,learnblock1,556.7999999523163,img/planet11_right.png,11,Community 3,NA,TRUE,j,j,NA,NA,NA,2,6,"7,14,13,2,1,6,15,5,3,9,10,11,8,12,4"
14479,commdev-image-keyboard-response,311,584033,learnblock1,576.9000000953674,img/planet4_right.png,4,Community 3,NA,TRUE,j,j,NA,NA,NA,2,6,"7,14,13,2,1,6,15,5,3,9,10,11,8,12,4"
14479,commdev-image-keyboard-response,312,585286,learnblock1,557.8999998569489,img/planet11_left.png,11,Community 3,NA,TRUE,f,f,NA,NA,NA,2,6,"7,14,13,2,1,6,15,5,3,9,10,11,8,12,4"
14479,commdev-image-keyboard-response,313,586544,learnblock1,685.1000001430511,img/planet12_left.png,12,Community 3,NA,TRUE,f,f,NA,NA,NA,2,6,"7,14,13,2,1,6,15,5,3,9,10,11,8,12,4"
14479,commdev-image-keyboard-response,314,587800,learnblock1,537,img/planet8_right.png,8,Community 3,NA,TRUE,j,j,NA,NA,NA,2,6,"7,14,13,2,1,6,15,5,3,9,10,11,8,12,4"
14479,commdev-image-keyboard-response,315,589056,learnblock1,546.5999999046326,img/planet11_right.png,11,Community 3,NA,TRUE,j,j,NA,NA,NA,2,6,"7,14,13,2,1,6,15,5,3,9,10,11,8,12,4"
14479,commdev-image-keyboard-response,316,590320,learnblock1,724.5999999046326,img/planet5_left.png,5,Community 2,NA,TRUE,f,f,NA,NA,NA,2,6,"7,14,13,2,1,6,15,5,3,9,10,11,8,12,4"
14479,commdev-image-keyboard-response,317,591577,learnblock1,666.4000000953674,img/planet9_right.png,9,Community 2,NA,TRUE,j,j,NA,NA,NA,2,6,"7,14,13,2,1,6,15,5,3,9,10,11,8,12,4"
14479,commdev-image-keyboard-response,318,592842,learnblock1,816.5,img/planet6_left.png,6,Community 2,NA,TRUE,f,f,NA,NA,NA,2,6,"7,14,13,2,1,6,15,5,3,9,10,11,8,12,4"
14479,commdev-image-keyboard-response,319,594110,learnblock1,608,img/planet15_right.png,15,Community 2,NA,TRUE,j,j,NA,NA,NA,2,6,"7,14,13,2,1,6,15,5,3,9,10,11,8,12,4"
14479,commdev-image-keyboard-response,320,595365,learnblock1,662.7999999523163,img/planet5_left.png,5,Community 2,NA,TRUE,f,f,NA,NA,NA,2,6,"7,14,13,2,1,6,15,5,3,9,10,11,8,12,4"
14479,commdev-image-keyboard-response,321,596621,learnblock1,586.9000000953674,img/planet9_right.png,9,Community 2,NA,TRUE,j,j,NA,NA,NA,2,6,"7,14,13,2,1,6,15,5,3,9,10,11,8,12,4"
14479,commdev-image-keyboard-response,322,597874,learnblock1,697.3000001907349,img/planet6_left.png,6,Community 2,NA,TRUE,f,f,NA,NA,NA,2,6,"7,14,13,2,1,6,15,5,3,9,10,11,8,12,4"
14479,commdev-image-keyboard-response,323,599137,learnblock1,616.7999999523163,img/planet2_left.png,2,Community 1,NA,TRUE,f,f,NA,NA,NA,2,6,"7,14,13,2,1,6,15,5,3,9,10,11,8,12,4"
14479,commdev-image-keyboard-response,324,600391,learnblock1,935.8999998569489,img/planet14_left.png,14,Community 1,NA,TRUE,f,f,NA,NA,NA,2,6,"7,14,13,2,1,6,15,5,3,9,10,11,8,12,4"
14479,commdev-image-keyboard-response,325,601647,learnblock1,565.3999998569489,img/planet13_right.png,13,Community 1,NA,TRUE,j,j,NA,NA,NA,2,6,"7,14,13,2,1,6,15,5,3,9,10,11,8,12,4"
14479,commdev-image-keyboard-response,326,602906,learnblock1,677.8999998569489,img/planet14_left.png,14,Community 1,NA,TRUE,f,f,NA,NA,NA,2,6,"7,14,13,2,1,6,15,5,3,9,10,11,8,12,4"
14479,commdev-image-keyboard-response,327,604172,learnblock1,484.59999990463257,img/planet13_right.png,13,Community 1,NA,TRUE,j,j,NA,NA,NA,2,6,"7,14,13,2,1,6,15,5,3,9,10,11,8,12,4"
14479,commdev-image-keyboard-response,328,605440,learnblock1,450.19999980926514,img/planet2_left.png,2,Community 1,NA,TRUE,f,f,NA,NA,NA,2,6,"7,14,13,2,1,6,15,5,3,9,10,11,8,12,4"
14479,commdev-image-keyboard-response,329,606693,learnblock1,637.9000000953674,img/planet7_right.png,7,Community 1,NA,TRUE,j,j,NA,NA,NA,2,6,"7,14,13,2,1,6,15,5,3,9,10,11,8,12,4"
14479,commdev-image-keyboard-response,330,607954,learnblock1,808.7999999523163,img/planet14_right.png,14,Community 1,NA,TRUE,j,j,NA,NA,NA,2,6,"7,14,13,2,1,6,15,5,3,9,10,11,8,12,4"
14479,commdev-image-keyboard-response,331,609217,learnblock1,626.4000000953674,img/planet13_left.png,13,Community 1,NA,TRUE,f,f,NA,NA,NA,2,6,"7,14,13,2,1,6,15,5,3,9,10,11,8,12,4"
14479,commdev-image-keyboard-response,332,610477,learnblock1,580.6999998092651,img/planet14_right.png,14,Community 1,NA,TRUE,j,j,NA,NA,NA,2,6,"7,14,13,2,1,6,15,5,3,9,10,11,8,12,4"
14479,commdev-image-keyboard-response,333,611736,learnblock1,958.4000000953674,img/planet1_right.png,1,Community 1,NA,TRUE,j,j,NA,NA,NA,2,6,"7,14,13,2,1,6,15,5,3,9,10,11,8,12,4"
14479,commdev-image-keyboard-response,334,612992,learnblock1,1254.8999998569489,img/planet10_right.png,10,Community 3,NA,TRUE,j,j,NA,NA,NA,2,6,"7,14,13,2,1,6,15,5,3,9,10,11,8,12,4"
14479,commdev-image-keyboard-response,335,614245,learnblock1,null,img/planet4_right.png,4,Community 3,NA,FALSE,null,j,NA,NA,NA,2,6,"7,14,13,2,1,6,15,5,3,9,10,11,8,12,4"
14479,commdev-image-keyboard-response,336,615498,learnblock1,298.39999985694885,img/planet12_left.png,12,Community 3,NA,FALSE,j,f,NA,NA,NA,2,6,"7,14,13,2,1,6,15,5,3,9,10,11,8,12,4"
14479,commdev-image-keyboard-response,337,616758,learnblock1,null,img/planet8_right.png,8,Community 3,NA,FALSE,null,j,NA,NA,NA,2,6,"7,14,13,2,1,6,15,5,3,9,10,11,8,12,4"
14479,commdev-image-keyboard-response,338,618012,learnblock1,831.2999999523163,img/planet10_left.png,10,Community 3,NA,TRUE,f,f,NA,NA,NA,2,6,"7,14,13,2,1,6,15,5,3,9,10,11,8,12,4"
14479,commdev-image-keyboard-response,339,619265,learnblock1,810.0999999046326,img/planet1_left.png,1,Community 1,NA,TRUE,f,f,NA,NA,NA,2,6,"7,14,13,2,1,6,15,5,3,9,10,11,8,12,4"
14479,commdev-image-keyboard-response,340,620524,learnblock1,679.5,img/planet10_left.png,10,Community 3,NA,TRUE,f,f,NA,NA,NA,2,6,"7,14,13,2,1,6,15,5,3,9,10,11,8,12,4"
14479,commdev-image-keyboard-response,341,621782,learnblock1,477.40000009536743,img/planet4_left.png,4,Community 3,NA,TRUE,f,f,NA,NA,NA,2,6,"7,14,13,2,1,6,15,5,3,9,10,11,8,12,4"
14479,commdev-image-keyboard-response,342,623037,learnblock1,682.6000001430511,img/planet12_right.png,12,Community 3,NA,TRUE,j,j,NA,NA,NA,2,6,"7,14,13,2,1,6,15,5,3,9,10,11,8,12,4"
14479,commdev-image-keyboard-response,343,624291,learnblock1,568.9000000953674,img/planet11_right.png,11,Community 3,NA,TRUE,j,j,NA,NA,NA,2,6,"7,14,13,2,1,6,15,5,3,9,10,11,8,12,4"
14479,commdev-image-keyboard-response,344,625547,learnblock1,882.7999999523163,img/planet12_left.png,12,Community 3,NA,TRUE,f,f,NA,NA,NA,2,6,"7,14,13,2,1,6,15,5,3,9,10,11,8,12,4"
14479,commdev-image-keyboard-response,345,626801,learnblock1,799.9000000953674,img/planet4_left.png,4,Community 3,NA,TRUE,f,f,NA,NA,NA,2,6,"7,14,13,2,1,6,15,5,3,9,10,11,8,12,4"
14479,commdev-image-keyboard-response,346,628061,learnblock1,555.0999999046326,img/planet11_left.png,11,Community 3,NA,TRUE,f,f,NA,NA,NA,2,6,"7,14,13,2,1,6,15,5,3,9,10,11,8,12,4"
14479,commdev-image-keyboard-response,347,629313,learnblock1,477.7000000476837,img/planet4_left.png,4,Community 3,NA,TRUE,f,f,NA,NA,NA,2,6,"7,14,13,2,1,6,15,5,3,9,10,11,8,12,4"
14479,commdev-image-keyboard-response,351,1497628,learnblock2,1046.7000000476837,img/planet14_right.png,14,Community 1,NA,TRUE,j,j,NA,NA,NA,2,6,"7,14,13,2,1,6,15,5,3,9,10,11,8,12,4"
14479,commdev-image-keyboard-response,352,1498887,learnblock2,707.3000001907349,img/planet2_right.png,2,Community 1,NA,TRUE,j,j,NA,NA,NA,2,6,"7,14,13,2,1,6,15,5,3,9,10,11,8,12,4"
14479,commdev-image-keyboard-response,353,1500138,learnblock2,553.2000000476837,img/planet13_left.png,13,Community 1,NA,TRUE,f,f,NA,NA,NA,2,6,"7,14,13,2,1,6,15,5,3,9,10,11,8,12,4"
14479,commdev-image-keyboard-response,354,1501395,learnblock2,629.4000000953674,img/planet7_left.png,7,Community 1,NA,TRUE,f,f,NA,NA,NA,2,6,"7,14,13,2,1,6,15,5,3,9,10,11,8,12,4"
14479,commdev-image-keyboard-response,355,1502653,learnblock2,541.3999998569489,img/planet13_right.png,13,Community 1,NA,TRUE,j,j,NA,NA,NA,2,6,"7,14,13,2,1,6,15,5,3,9,10,11,8,12,4"
14479,commdev-image-keyboard-response,356,1503907,learnblock2,493.39999985694885,img/planet1_right.png,1,Community 1,NA,TRUE,j,j,NA,NA,NA,2,6,"7,14,13,2,1,6,15,5,3,9,10,11,8,12,4"
14479,commdev-image-keyboard-response,357,1505168,learnblock2,584.7000000476837,img/planet14_left.png,14,Community 1,NA,TRUE,f,f,NA,NA,NA,2,6,"7,14,13,2,1,6,15,5,3,9,10,11,8,12,4"
14479,commdev-image-keyboard-response,358,1506421,learnblock2,519.7999999523163,img/planet7_left.png,7,Community 1,NA,FALSE,j,f,NA,NA,NA,2,6,"7,14,13,2,1,6,15,5,3,9,10,11,8,12,4"
14479,commdev-image-keyboard-response,359,1507678,learnblock2,596,img/planet13_right.png,13,Community 1,NA,TRUE,j,j,NA,NA,NA,2,6,"7,14,13,2,1,6,15,5,3,9,10,11,8,12,4"
14479,commdev-image-keyboard-response,360,1508934,learnblock2,481.90000009536743,img/planet2_right.png,2,Community 1,NA,TRUE,j,j,NA,NA,NA,2,6,"7,14,13,2,1,6,15,5,3,9,10,11,8,12,4"
14479,commdev-image-keyboard-response,361,1510189,learnblock2,584.3999998569489,img/planet7_left.png,7,Community 1,NA,TRUE,f,f,NA,NA,NA,2,6,"7,14,13,2,1,6,15,5,3,9,10,11,8,12,4"
14479,commdev-image-keyboard-response,362,1511441,learnblock2,503.7999999523163,img/planet2_left.png,2,Community 1,NA,TRUE,f,f,NA,NA,NA,2,6,"7,14,13,2,1,6,15,5,3,9,10,11,8,12,4"
14479,commdev-image-keyboard-response,363,1512699,learnblock2,470.09999990463257,img/planet7_right.png,7,Community 1,NA,TRUE,j,j,NA,NA,NA,2,6,"7,14,13,2,1,6,15,5,3,9,10,11,8,12,4"
14479,commdev-image-keyboard-response,364,1513957,learnblock2,568.7999999523163,img/planet2_right.png,2,Community 1,NA,TRUE,j,j,NA,NA,NA,2,6,"7,14,13,2,1,6,15,5,3,9,10,11,8,12,4"
14479,commdev-image-keyboard-response,365,1515213,learnblock2,574.7999999523163,img/planet14_left.png,14,Community 1,NA,TRUE,f,f,NA,NA,NA,2,6,"7,14,13,2,1,6,15,5,3,9,10,11,8,12,4"
14479,commdev-image-keyboard-response,366,1516465,learnblock2,563.1000001430511,img/planet7_left.png,7,Community 1,NA,TRUE,f,f,NA,NA,NA,2,6,"7,14,13,2,1,6,15,5,3,9,10,11,8,12,4"
14479,commdev-image-keyboard-response,367,1517726,learnblock2,742.7000000476837,img/planet14_left.png,14,Community 1,NA,TRUE,f,f,NA,NA,NA,2,6,"7,14,13,2,1,6,15,5,3,9,10,11,8,12,4"
14479,commdev-image-keyboard-response,368,1518977,learnblock2,787.8999998569489,img/planet1_right.png,1,Community 1,NA,TRUE,j,j,NA,NA,NA,2,6,"7,14,13,2,1,6,15,5,3,9,10,11,8,12,4"
14479,commdev-image-keyboard-response,369,1520237,learnblock2,697.5999999046326,img/planet7_right.png,7,Community 1,NA,TRUE,j,j,NA,NA,NA,2,6,"7,14,13,2,1,6,15,5,3,9,10,11,8,12,4"
14479,commdev-image-keyboard-response,370,1521494,learnblock2,641.5999999046326,img/planet13_right.png,13,Community 1,NA,TRUE,j,j,NA,NA,NA,2,6,"7,14,13,2,1,6,15,5,3,9,10,11,8,12,4"
14479,commdev-image-keyboard-response,371,1522754,learnblock2,545.0999999046326,img/planet2_right.png,2,Community 1,NA,TRUE,j,j,NA,NA,NA,2,6,"7,14,13,2,1,6,15,5,3,9,10,11,8,12,4"
14479,commdev-image-keyboard-response,372,1524009,learnblock2,673.6000001430511,img/planet6_left.png,6,Community 2,NA,TRUE,f,f,NA,NA,NA,2,6,"7,14,13,2,1,6,15,5,3,9,10,11,8,12,4"
14479,commdev-image-keyboard-response,373,1525273,learnblock2,551.7000000476837,img/planet15_left.png,15,Community 2,NA,TRUE,f,f,NA,NA,NA,2,6,"7,14,13,2,1,6,15,5,3,9,10,11,8,12,4"
14479,commdev-image-keyboard-response,374,1526526,learnblock2,622.3999998569489,img/planet5_right.png,5,Community 2,NA,TRUE,j,j,NA,NA,NA,2,6,"7,14,13,2,1,6,15,5,3,9,10,11,8,12,4"
14479,commdev-image-keyboard-response,375,1527788,learnblock2,596.2000000476837,img/planet3_left.png,3,Community 2,NA,TRUE,f,f,NA,NA,NA,2,6,"7,14,13,2,1,6,15,5,3,9,10,11,8,12,4"
14479,commdev-image-keyboard-response,376,1529047,learnblock2,565.5,img/planet5_left.png,5,Community 2,NA,TRUE,f,f,NA,NA,NA,2,6,"7,14,13,2,1,6,15,5,3,9,10,11,8,12,4"
14479,commdev-image-keyboard-response,377,1530302,learnblock2,464.10000014305115,img/planet3_left.png,3,Community 2,NA,TRUE,f,f,NA,NA,NA,2,6,"7,14,13,2,1,6,15,5,3,9,10,11,8,12,4"
14479,commdev-image-keyboard-response,378,1531555,learnblock2,716.7999999523163,img/planet5_right.png,5,Community 2,NA,TRUE,j,j,NA,NA,NA,2,6,"7,14,13,2,1,6,15,5,3,9,10,11,8,12,4"
14479,commdev-image-keyboard-response,379,1532807,learnblock2,567.5,img/planet9_left.png,9,Community 2,NA,TRUE,f,f,NA,NA,NA,2,6,"7,14,13,2,1,6,15,5,3,9,10,11,8,12,4"
14479,commdev-image-keyboard-response,380,1534067,learnblock2,570.7999999523163,img/planet5_left.png,5,Community 2,NA,TRUE,f,f,NA,NA,NA,2,6,"7,14,13,2,1,6,15,5,3,9,10,11,8,12,4"
14479,commdev-image-keyboard-response,381,1535320,learnblock2,699.3999998569489,img/planet15_right.png,15,Community 2,NA,TRUE,j,j,NA,NA,NA,2,6,"7,14,13,2,1,6,15,5,3,9,10,11,8,12,4"
14479,commdev-image-keyboard-response,382,1536574,learnblock2,486.5,img/planet5_right.png,5,Community 2,NA,TRUE,j,j,NA,NA,NA,2,6,"7,14,13,2,1,6,15,5,3,9,10,11,8,12,4"
14479,commdev-image-keyboard-response,383,1537834,learnblock2,587.7999999523163,img/planet11_left.png,11,Community 3,NA,TRUE,f,f,NA,NA,NA,2,6,"7,14,13,2,1,6,15,5,3,9,10,11,8,12,4"
14479,commdev-image-keyboard-response,384,1539091,learnblock2,509.90000009536743,img/planet5_right.png,5,Community 2,NA,TRUE,j,j,NA,NA,NA,2,6,"7,14,13,2,1,6,15,5,3,9,10,11,8,12,4"
14479,commdev-image-keyboard-response,385,1540350,learnblock2,552.5999999046326,img/planet3_left.png,3,Community 2,NA,TRUE,f,f,NA,NA,NA,2,6,"7,14,13,2,1,6,15,5,3,9,10,11,8,12,4"
14479,commdev-image-keyboard-response,386,1541602,learnblock2,733.7999999523163,img/planet6_right.png,6,Community 2,NA,TRUE,j,j,NA,NA,NA,2,6,"7,14,13,2,1,6,15,5,3,9,10,11,8,12,4"
14479,commdev-image-keyboard-response,387,1542855,learnblock2,601.8999998569489,img/planet2_left.png,2,Community 1,NA,TRUE,f,f,NA,NA,NA,2,6,"7,14,13,2,1,6,15,5,3,9,10,11,8,12,4"
14479,commdev-image-keyboard-response,388,1544118,learnblock2,620.8000001907349,img/planet14_left.png,14,Community 1,NA,TRUE,f,f,NA,NA,NA,2,6,"7,14,13,2,1,6,15,5,3,9,10,11,8,12,4"
14479,commdev-image-keyboard-response,389,1545377,learnblock2,476.59999990463257,img/planet1_right.png,1,Community 1,NA,TRUE,j,j,NA,NA,NA,2,6,"7,14,13,2,1,6,15,5,3,9,10,11,8,12,4"
14479,commdev-image-keyboard-response,390,1546643,learnblock2,491.60000014305115,img/planet14_right.png,14,Community 1,NA,TRUE,j,j,NA,NA,NA,2,6,"7,14,13,2,1,6,15,5,3,9,10,11,8,12,4"
14479,commdev-image-keyboard-response,391,1547895,learnblock2,593.1999998092651,img/planet2_right.png,2,Community 1,NA,TRUE,j,j,NA,NA,NA,2,6,"7,14,13,2,1,6,15,5,3,9,10,11,8,12,4"
14479,commdev-image-keyboard-response,392,1549160,learnblock2,787.5,img/planet14_right.png,14,Community 1,NA,TRUE,j,j,NA,NA,NA,2,6,"7,14,13,2,1,6,15,5,3,9,10,11,8,12,4"
14479,commdev-image-keyboard-response,393,1550411,learnblock2,574,img/planet13_left.png,13,Community 1,NA,TRUE,f,f,NA,NA,NA,2,6,"7,14,13,2,1,6,15,5,3,9,10,11,8,12,4"
14479,commdev-image-keyboard-response,394,1551664,learnblock2,587.0999999046326,img/planet1_left.png,1,Community 1,NA,TRUE,f,f,NA,NA,NA,2,6,"7,14,13,2,1,6,15,5,3,9,10,11,8,12,4"
14479,commdev-image-keyboard-response,395,1552916,learnblock2,502.09999990463257,img/planet10_right.png,10,Community 3,NA,TRUE,j,j,NA,NA,NA,2,6,"7,14,13,2,1,6,15,5,3,9,10,11,8,12,4"
14479,commdev-image-keyboard-response,396,1554168,learnblock2,465.7000000476837,img/planet4_right.png,4,Community 3,NA,TRUE,j,j,NA,NA,NA,2,6,"7,14,13,2,1,6,15,5,3,9,10,11,8,12,4"
14479,commdev-image-keyboard-response,397,1555423,learnblock2,647.2999999523163,img/planet8_left.png,8,Community 3,NA,FALSE,j,f,NA,NA,NA,2,6,"7,14,13,2,1,6,15,5,3,9,10,11,8,12,4"
14479,commdev-image-keyboard-response,398,1556684,learnblock2,583.9000000953674,img/planet10_right.png,10,Community 3,NA,TRUE,j,j,NA,NA,NA,2,6,"7,14,13,2,1,6,15,5,3,9,10,11,8,12,4"
14479,commdev-image-keyboard-response,399,1557936,learnblock2,766.5,img/planet8_right.png,8,Community 3,NA,TRUE,j,j,NA,NA,NA,2,6,"7,14,13,2,1,6,15,5,3,9,10,11,8,12,4"
14479,commdev-image-keyboard-response,400,1559187,learnblock2,702.0999999046326,img/planet4_right.png,4,Community 3,NA,TRUE,j,j,NA,NA,NA,2,6,"7,14,13,2,1,6,15,5,3,9,10,11,8,12,4"
14479,commdev-image-keyboard-response,401,1560439,learnblock2,666.6000001430511,img/planet12_left.png,12,Community 3,NA,TRUE,f,f,NA,NA,NA,2,6,"7,14,13,2,1,6,15,5,3,9,10,11,8,12,4"
14479,commdev-image-keyboard-response,402,1561691,learnblock2,537.4000000953674,img/planet10_left.png,10,Community 3,NA,TRUE,f,f,NA,NA,NA,2,6,"7,14,13,2,1,6,15,5,3,9,10,11,8,12,4"
14479,commdev-image-keyboard-response,403,1562943,learnblock2,557.6000001430511,img/planet1_left.png,1,Community 1,NA,TRUE,f,f,NA,NA,NA,2,6,"7,14,13,2,1,6,15,5,3,9,10,11,8,12,4"
14479,commdev-image-keyboard-response,404,1564195,learnblock2,696.6000001430511,img/planet13_right.png,13,Community 1,NA,TRUE,j,j,NA,NA,NA,2,6,"7,14,13,2,1,6,15,5,3,9,10,11,8,12,4"
14479,commdev-image-keyboard-response,405,1565447,learnblock2,797,img/planet1_left.png,1,Community 1,NA,TRUE,f,f,NA,NA,NA,2,6,"7,14,13,2,1,6,15,5,3,9,10,11,8,12,4"
14479,commdev-image-keyboard-response,406,1566698,learnblock2,804.4000000953674,img/planet10_right.png,10,Community 3,NA,TRUE,j,j,NA,NA,NA,2,6,"7,14,13,2,1,6,15,5,3,9,10,11,8,12,4"
14479,commdev-image-keyboard-response,407,1567950,learnblock2,708.9000000953674,img/planet1_left.png,1,Community 1,NA,TRUE,f,f,NA,NA,NA,2,6,"7,14,13,2,1,6,15,5,3,9,10,11,8,12,4"
14479,commdev-image-keyboard-response,408,1569202,learnblock2,769.3999998569489,img/planet13_right.png,13,Community 1,NA,TRUE,j,j,NA,NA,NA,2,6,"7,14,13,2,1,6,15,5,3,9,10,11,8,12,4"
14479,commdev-image-keyboard-response,409,1570454,learnblock2,702.7999999523163,img/planet14_right.png,14,Community 1,NA,TRUE,j,j,NA,NA,NA,2,6,"7,14,13,2,1,6,15,5,3,9,10,11,8,12,4"
14479,commdev-image-keyboard-response,410,1571705,learnblock2,733.4000000953674,img/planet2_right.png,2,Community 1,NA,TRUE,j,j,NA,NA,NA,2,6,"7,14,13,2,1,6,15,5,3,9,10,11,8,12,4"
14479,commdev-image-keyboard-response,411,1572958,learnblock2,990.9000000953674,img/planet6_left.png,6,Community 2,NA,TRUE,f,f,NA,NA,NA,2,6,"7,14,13,2,1,6,15,5,3,9,10,11,8,12,4"
14479,commdev-image-keyboard-response,412,1574210,learnblock2,800.9000000953674,img/planet3_left.png,3,Community 2,NA,TRUE,f,f,NA,NA,NA,2,6,"7,14,13,2,1,6,15,5,3,9,10,11,8,12,4"
14479,commdev-image-keyboard-response,413,1575462,learnblock2,697.5,img/planet15_right.png,15,Community 2,NA,TRUE,j,j,NA,NA,NA,2,6,"7,14,13,2,1,6,15,5,3,9,10,11,8,12,4"
14479,commdev-image-keyboard-response,414,1576714,learnblock2,711.2000000476837,img/planet9_right.png,9,Community 2,NA,FALSE,f,j,NA,NA,NA,2,6,"7,14,13,2,1,6,15,5,3,9,10,11,8,12,4"
14479,commdev-image-keyboard-response,415,1577966,learnblock2,705.6000001430511,img/planet3_left.png,3,Community 2,NA,TRUE,f,f,NA,NA,NA,2,6,"7,14,13,2,1,6,15,5,3,9,10,11,8,12,4"
14479,commdev-image-keyboard-response,416,1579218,learnblock2,540.2000000476837,img/planet6_left.png,6,Community 2,NA,TRUE,f,f,NA,NA,NA,2,6,"7,14,13,2,1,6,15,5,3,9,10,11,8,12,4"
14479,commdev-image-keyboard-response,417,1580482,learnblock2,738.2000000476837,img/planet9_left.png,9,Community 2,NA,TRUE,f,f,NA,NA,NA,2,6,"7,14,13,2,1,6,15,5,3,9,10,11,8,12,4"
14479,commdev-image-keyboard-response,418,1581734,learnblock2,594.3000001907349,img/planet5_right.png,5,Community 2,NA,TRUE,j,j,NA,NA,NA,2,6,"7,14,13,2,1,6,15,5,3,9,10,11,8,12,4"
14479,commdev-image-keyboard-response,419,1582985,learnblock2,760.3999998569489,img/planet3_left.png,3,Community 2,NA,TRUE,f,f,NA,NA,NA,2,6,"7,14,13,2,1,6,15,5,3,9,10,11,8,12,4"
14479,commdev-image-keyboard-response,420,1584238,learnblock2,1017.2999999523163,img/planet6_right.png,6,Community 2,NA,TRUE,j,j,NA,NA,NA,2,6,"7,14,13,2,1,6,15,5,3,9,10,11,8,12,4"
14479,commdev-image-keyboard-response,421,1585489,learnblock2,1055.0999999046326,img/planet3_right.png,3,Community 2,NA,TRUE,j,j,NA,NA,NA,2,6,"7,14,13,2,1,6,15,5,3,9,10,11,8,12,4"
14479,commdev-image-keyboard-response,422,1586740,learnblock2,null,img/planet5_left.png,5,Community 2,NA,FALSE,null,f,NA,NA,NA,2,6,"7,14,13,2,1,6,15,5,3,9,10,11,8,12,4"
14479,commdev-image-keyboard-response,423,1587992,learnblock2,77.19999980926514,img/planet11_right.png,11,Community 3,NA,FALSE,f,j,NA,NA,NA,2,6,"7,14,13,2,1,6,15,5,3,9,10,11,8,12,4"
14479,commdev-image-keyboard-response,424,1589243,learnblock2,785.7999999523163,img/planet4_left.png,4,Community 3,NA,TRUE,f,f,NA,NA,NA,2,6,"7,14,13,2,1,6,15,5,3,9,10,11,8,12,4"
14479,commdev-image-keyboard-response,425,1590495,learnblock2,642.7999999523163,img/planet10_left.png,10,Community 3,NA,TRUE,f,f,NA,NA,NA,2,6,"7,14,13,2,1,6,15,5,3,9,10,11,8,12,4"
14479,commdev-image-keyboard-response,426,1591747,learnblock2,754.4000000953674,img/planet1_right.png,1,Community 1,NA,TRUE,j,j,NA,NA,NA,2,6,"7,14,13,2,1,6,15,5,3,9,10,11,8,12,4"
14479,commdev-image-keyboard-response,427,1592999,learnblock2,508.40000009536743,img/planet7_left.png,7,Community 1,NA,TRUE,f,f,NA,NA,NA,2,6,"7,14,13,2,1,6,15,5,3,9,10,11,8,12,4"
14479,commdev-image-keyboard-response,428,1594251,learnblock2,515.2000000476837,img/planet2_left.png,2,Community 1,NA,TRUE,f,f,NA,NA,NA,2,6,"7,14,13,2,1,6,15,5,3,9,10,11,8,12,4"
14479,commdev-image-keyboard-response,429,1595502,learnblock2,466.2999999523163,img/planet13_left.png,13,Community 1,NA,TRUE,f,f,NA,NA,NA,2,6,"7,14,13,2,1,6,15,5,3,9,10,11,8,12,4"
14479,commdev-image-keyboard-response,430,1596755,learnblock2,580.4000000953674,img/planet14_left.png,14,Community 1,NA,TRUE,f,f,NA,NA,NA,2,6,"7,14,13,2,1,6,15,5,3,9,10,11,8,12,4"
14479,commdev-image-keyboard-response,431,1598007,learnblock2,552.4000000953674,img/planet13_left.png,13,Community 1,NA,TRUE,f,f,NA,NA,NA,2,6,"7,14,13,2,1,6,15,5,3,9,10,11,8,12,4"
14479,commdev-image-keyboard-response,432,1599259,learnblock2,593.6000001430511,img/planet14_right.png,14,Community 1,NA,TRUE,j,j,NA,NA,NA,2,6,"7,14,13,2,1,6,15,5,3,9,10,11,8,12,4"
14479,commdev-image-keyboard-response,433,1600511,learnblock2,782.7000000476837,img/planet7_right.png,7,Community 1,NA,TRUE,j,j,NA,NA,NA,2,6,"7,14,13,2,1,6,15,5,3,9,10,11,8,12,4"
14479,commdev-image-keyboard-response,434,1601763,learnblock2,871.5,img/planet1_right.png,1,Community 1,NA,TRUE,j,j,NA,NA,NA,2,6,"7,14,13,2,1,6,15,5,3,9,10,11,8,12,4"
14479,commdev-image-keyboard-response,435,1603015,learnblock2,477.2999999523163,img/planet13_left.png,13,Community 1,NA,TRUE,f,f,NA,NA,NA,2,6,"7,14,13,2,1,6,15,5,3,9,10,11,8,12,4"
14479,commdev-image-keyboard-response,436,1604268,learnblock2,525.5,img/planet14_right.png,14,Community 1,NA,TRUE,j,j,NA,NA,NA,2,6,"7,14,13,2,1,6,15,5,3,9,10,11,8,12,4"
14479,commdev-image-keyboard-response,437,1605520,learnblock2,521.8999998569489,img/planet13_right.png,13,Community 1,NA,FALSE,f,j,NA,NA,NA,2,6,"7,14,13,2,1,6,15,5,3,9,10,11,8,12,4"
14479,commdev-image-keyboard-response,438,1606772,learnblock2,481.39999985694885,img/planet14_right.png,14,Community 1,NA,TRUE,j,j,NA,NA,NA,2,6,"7,14,13,2,1,6,15,5,3,9,10,11,8,12,4"
14479,commdev-image-keyboard-response,439,1608024,learnblock2,701.7999999523163,img/planet13_left.png,13,Community 1,NA,TRUE,f,f,NA,NA,NA,2,6,"7,14,13,2,1,6,15,5,3,9,10,11,8,12,4"
14479,commdev-image-keyboard-response,440,1609276,learnblock2,783.7999999523163,img/planet2_right.png,2,Community 1,NA,TRUE,j,j,NA,NA,NA,2,6,"7,14,13,2,1,6,15,5,3,9,10,11,8,12,4"
14479,commdev-image-keyboard-response,441,1610540,learnblock2,653.0999999046326,img/planet7_left.png,7,Community 1,NA,TRUE,f,f,NA,NA,NA,2,6,"7,14,13,2,1,6,15,5,3,9,10,11,8,12,4"
14479,commdev-image-keyboard-response,442,1611792,learnblock2,451.59999990463257,img/planet2_left.png,2,Community 1,NA,TRUE,f,f,NA,NA,NA,2,6,"7,14,13,2,1,6,15,5,3,9,10,11,8,12,4"
14479,commdev-image-keyboard-response,443,1613044,learnblock2,506.7000000476837,img/planet7_right.png,7,Community 1,NA,TRUE,j,j,NA,NA,NA,2,6,"7,14,13,2,1,6,15,5,3,9,10,11,8,12,4"
14479,commdev-image-keyboard-response,444,1614296,learnblock2,640.9000000953674,img/planet1_right.png,1,Community 1,NA,TRUE,j,j,NA,NA,NA,2,6,"7,14,13,2,1,6,15,5,3,9,10,11,8,12,4"
14479,commdev-image-keyboard-response,445,1615547,learnblock2,606.0999999046326,img/planet14_right.png,14,Community 1,NA,TRUE,j,j,NA,NA,NA,2,6,"7,14,13,2,1,6,15,5,3,9,10,11,8,12,4"
14479,commdev-image-keyboard-response,446,1616799,learnblock2,521.7000000476837,img/planet13_right.png,13,Community 1,NA,TRUE,j,j,NA,NA,NA,2,6,"7,14,13,2,1,6,15,5,3,9,10,11,8,12,4"
14479,commdev-image-keyboard-response,447,1618052,learnblock2,462.5,img/planet14_right.png,14,Community 1,NA,TRUE,j,j,NA,NA,NA,2,6,"7,14,13,2,1,6,15,5,3,9,10,11,8,12,4"
14479,commdev-image-keyboard-response,448,1619304,learnblock2,553.0999999046326,img/planet7_right.png,7,Community 1,NA,TRUE,j,j,NA,NA,NA,2,6,"7,14,13,2,1,6,15,5,3,9,10,11,8,12,4"
14479,commdev-image-keyboard-response,449,1620555,learnblock2,587.7999999523163,img/planet14_right.png,14,Community 1,NA,TRUE,j,j,NA,NA,NA,2,6,"7,14,13,2,1,6,15,5,3,9,10,11,8,12,4"
14479,commdev-image-keyboard-response,450,1621807,learnblock2,566.0999999046326,img/planet1_left.png,1,Community 1,NA,TRUE,f,f,NA,NA,NA,2,6,"7,14,13,2,1,6,15,5,3,9,10,11,8,12,4"
14479,commdev-image-keyboard-response,451,1623059,learnblock2,857.0999999046326,img/planet13_right.png,13,Community 1,NA,TRUE,j,j,NA,NA,NA,2,6,"7,14,13,2,1,6,15,5,3,9,10,11,8,12,4"
14479,commdev-image-keyboard-response,452,1624311,learnblock2,838.0999999046326,img/planet14_right.png,14,Community 1,NA,TRUE,j,j,NA,NA,NA,2,6,"7,14,13,2,1,6,15,5,3,9,10,11,8,12,4"
14479,commdev-image-keyboard-response,453,1625563,learnblock2,676.1999998092651,img/planet7_right.png,7,Community 1,NA,TRUE,j,j,NA,NA,NA,2,6,"7,14,13,2,1,6,15,5,3,9,10,11,8,12,4"
14479,commdev-image-keyboard-response,454,1626815,learnblock2,517.0999999046326,img/planet14_right.png,14,Community 1,NA,TRUE,j,j,NA,NA,NA,2,6,"7,14,13,2,1,6,15,5,3,9,10,11,8,12,4"
14479,commdev-image-keyboard-response,455,1628067,learnblock2,444.5,img/planet1_right.png,1,Community 1,NA,TRUE,j,j,NA,NA,NA,2,6,"7,14,13,2,1,6,15,5,3,9,10,11,8,12,4"
14479,commdev-image-keyboard-response,456,1629319,learnblock2,726.2000000476837,img/planet7_left.png,7,Community 1,NA,TRUE,f,f,NA,NA,NA,2,6,"7,14,13,2,1,6,15,5,3,9,10,11,8,12,4"
14479,commdev-image-keyboard-response,457,1630570,learnblock2,846.5,img/planet2_left.png,2,Community 1,NA,TRUE,f,f,NA,NA,NA,2,6,"7,14,13,2,1,6,15,5,3,9,10,11,8,12,4"
14479,commdev-image-keyboard-response,458,1631822,learnblock2,594.0999999046326,img/planet7_left.png,7,Community 1,NA,TRUE,f,f,NA,NA,NA,2,6,"7,14,13,2,1,6,15,5,3,9,10,11,8,12,4"
14479,commdev-image-keyboard-response,459,1633073,learnblock2,766.2000000476837,img/planet1_right.png,1,Community 1,NA,TRUE,j,j,NA,NA,NA,2,6,"7,14,13,2,1,6,15,5,3,9,10,11,8,12,4"
14479,commdev-image-keyboard-response,460,1634326,learnblock2,799.7000000476837,img/planet14_right.png,14,Community 1,NA,TRUE,j,j,NA,NA,NA,2,6,"7,14,13,2,1,6,15,5,3,9,10,11,8,12,4"
14479,commdev-image-keyboard-response,461,1635578,learnblock2,668.7000000476837,img/planet7_left.png,7,Community 1,NA,TRUE,f,f,NA,NA,NA,2,6,"7,14,13,2,1,6,15,5,3,9,10,11,8,12,4"
14479,commdev-image-keyboard-response,462,1636830,learnblock2,511,img/planet2_left.png,2,Community 1,NA,TRUE,f,f,NA,NA,NA,2,6,"7,14,13,2,1,6,15,5,3,9,10,11,8,12,4"
14479,commdev-image-keyboard-response,463,1638083,learnblock2,657.7000000476837,img/planet14_left.png,14,Community 1,NA,TRUE,f,f,NA,NA,NA,2,6,"7,14,13,2,1,6,15,5,3,9,10,11,8,12,4"
14479,commdev-image-keyboard-response,464,1639335,learnblock2,561.7999999523163,img/planet13_right.png,13,Community 1,NA,TRUE,j,j,NA,NA,NA,2,6,"7,14,13,2,1,6,15,5,3,9,10,11,8,12,4"
14479,commdev-image-keyboard-response,465,1640589,learnblock2,446.5,img/planet14_right.png,14,Community 1,NA,TRUE,j,j,NA,NA,NA,2,6,"7,14,13,2,1,6,15,5,3,9,10,11,8,12,4"
14479,commdev-image-keyboard-response,466,1641841,learnblock2,504.59999990463257,img/planet13_left.png,13,Community 1,NA,TRUE,f,f,NA,NA,NA,2,6,"7,14,13,2,1,6,15,5,3,9,10,11,8,12,4"
14479,commdev-image-keyboard-response,467,1643093,learnblock2,605.9000000953674,img/planet14_left.png,14,Community 1,NA,TRUE,f,f,NA,NA,NA,2,6,"7,14,13,2,1,6,15,5,3,9,10,11,8,12,4"
14479,commdev-image-keyboard-response,468,1644345,learnblock2,580.4000000953674,img/planet1_left.png,1,Community 1,NA,TRUE,f,f,NA,NA,NA,2,6,"7,14,13,2,1,6,15,5,3,9,10,11,8,12,4"
14479,commdev-image-keyboard-response,469,1645596,learnblock2,496.90000009536743,img/planet14_right.png,14,Community 1,NA,TRUE,j,j,NA,NA,NA,2,6,"7,14,13,2,1,6,15,5,3,9,10,11,8,12,4"
14479,commdev-image-keyboard-response,470,1646848,learnblock2,645.2999999523163,img/planet2_right.png,2,Community 1,NA,TRUE,j,j,NA,NA,NA,2,6,"7,14,13,2,1,6,15,5,3,9,10,11,8,12,4"
14479,commdev-image-keyboard-response,471,1648099,learnblock2,555.4000000953674,img/planet6_left.png,6,Community 2,NA,TRUE,f,f,NA,NA,NA,2,6,"7,14,13,2,1,6,15,5,3,9,10,11,8,12,4"
14479,commdev-image-keyboard-response,472,1649352,learnblock2,944.7000000476837,img/planet3_right.png,3,Community 2,NA,TRUE,j,j,NA,NA,NA,2,6,"7,14,13,2,1,6,15,5,3,9,10,11,8,12,4"
14479,commdev-image-keyboard-response,473,1650604,learnblock2,637.7999999523163,img/planet6_right.png,6,Community 2,NA,FALSE,f,j,NA,NA,NA,2,6,"7,14,13,2,1,6,15,5,3,9,10,11,8,12,4"
14479,commdev-image-keyboard-response,474,1651855,learnblock2,565.2999999523163,img/planet2_right.png,2,Community 1,NA,TRUE,j,j,NA,NA,NA,2,6,"7,14,13,2,1,6,15,5,3,9,10,11,8,12,4"
14479,commdev-image-keyboard-response,475,1653106,learnblock2,501,img/planet14_left.png,14,Community 1,NA,FALSE,j,f,NA,NA,NA,2,6,"7,14,13,2,1,6,15,5,3,9,10,11,8,12,4"
14479,commdev-image-keyboard-response,476,1654359,learnblock2,523,img/planet2_right.png,2,Community 1,NA,TRUE,j,j,NA,NA,NA,2,6,"7,14,13,2,1,6,15,5,3,9,10,11,8,12,4"
14479,commdev-image-keyboard-response,477,1655610,learnblock2,570.8999998569489,img/planet6_right.png,6,Community 2,NA,TRUE,j,j,NA,NA,NA,2,6,"7,14,13,2,1,6,15,5,3,9,10,11,8,12,4"
14479,commdev-image-keyboard-response,478,1656863,learnblock2,562.0999999046326,img/planet3_right.png,3,Community 2,NA,TRUE,j,j,NA,NA,NA,2,6,"7,14,13,2,1,6,15,5,3,9,10,11,8,12,4"
14479,commdev-image-keyboard-response,479,1658115,learnblock2,539.9000000953674,img/planet5_right.png,5,Community 2,NA,TRUE,j,j,NA,NA,NA,2,6,"7,14,13,2,1,6,15,5,3,9,10,11,8,12,4"
14479,commdev-image-keyboard-response,480,1659367,learnblock2,596.8000001907349,img/planet11_right.png,11,Community 3,NA,TRUE,j,j,NA,NA,NA,2,6,"7,14,13,2,1,6,15,5,3,9,10,11,8,12,4"
14479,commdev-image-keyboard-response,481,1660619,learnblock2,629.2999999523163,img/planet12_left.png,12,Community 3,NA,TRUE,f,f,NA,NA,NA,2,6,"7,14,13,2,1,6,15,5,3,9,10,11,8,12,4"
14479,commdev-image-keyboard-response,482,1661871,learnblock2,480,img/planet4_right.png,4,Community 3,NA,TRUE,j,j,NA,NA,NA,2,6,"7,14,13,2,1,6,15,5,3,9,10,11,8,12,4"
14479,commdev-image-keyboard-response,483,1663123,learnblock2,629.2999999523163,img/planet12_left.png,12,Community 3,NA,TRUE,f,f,NA,NA,NA,2,6,"7,14,13,2,1,6,15,5,3,9,10,11,8,12,4"
14479,commdev-image-keyboard-response,484,1664376,learnblock2,680,img/planet10_left.png,10,Community 3,NA,TRUE,f,f,NA,NA,NA,2,6,"7,14,13,2,1,6,15,5,3,9,10,11,8,12,4"
14479,commdev-image-keyboard-response,485,1665628,learnblock2,503,img/planet1_right.png,1,Community 1,NA,TRUE,j,j,NA,NA,NA,2,6,"7,14,13,2,1,6,15,5,3,9,10,11,8,12,4"
14479,commdev-image-keyboard-response,486,1666882,learnblock2,525.7000000476837,img/planet10_right.png,10,Community 3,NA,TRUE,j,j,NA,NA,NA,2,6,"7,14,13,2,1,6,15,5,3,9,10,11,8,12,4"
14479,commdev-image-keyboard-response,487,1668146,learnblock2,562.4000000953674,img/planet8_right.png,8,Community 3,NA,TRUE,j,j,NA,NA,NA,2,6,"7,14,13,2,1,6,15,5,3,9,10,11,8,12,4"
14479,commdev-image-keyboard-response,488,1669398,learnblock2,530.6999998092651,img/planet11_right.png,11,Community 3,NA,FALSE,f,j,NA,NA,NA,2,6,"7,14,13,2,1,6,15,5,3,9,10,11,8,12,4"
14479,commdev-image-keyboard-response,489,1670664,learnblock2,532.7999999523163,img/planet4_right.png,4,Community 3,NA,TRUE,j,j,NA,NA,NA,2,6,"7,14,13,2,1,6,15,5,3,9,10,11,8,12,4"
14479,commdev-image-keyboard-response,490,1671916,learnblock2,587.6999998092651,img/planet11_left.png,11,Community 3,NA,TRUE,f,f,NA,NA,NA,2,6,"7,14,13,2,1,6,15,5,3,9,10,11,8,12,4"
14479,commdev-image-keyboard-response,491,1673169,learnblock2,600.1000001430511,img/planet5_left.png,5,Community 2,NA,TRUE,f,f,NA,NA,NA,2,6,"7,14,13,2,1,6,15,5,3,9,10,11,8,12,4"
14479,commdev-image-keyboard-response,492,1674421,learnblock2,494,img/planet9_right.png,9,Community 2,NA,TRUE,j,j,NA,NA,NA,2,6,"7,14,13,2,1,6,15,5,3,9,10,11,8,12,4"
14479,commdev-image-keyboard-response,493,1675673,learnblock2,611.7000000476837,img/planet6_left.png,6,Community 2,NA,TRUE,f,f,NA,NA,NA,2,6,"7,14,13,2,1,6,15,5,3,9,10,11,8,12,4"
14479,commdev-image-keyboard-response,494,1676925,learnblock2,460.39999985694885,img/planet3_right.png,3,Community 2,NA,TRUE,j,j,NA,NA,NA,2,6,"7,14,13,2,1,6,15,5,3,9,10,11,8,12,4"
14479,commdev-image-keyboard-response,495,1678178,learnblock2,509,img/planet9_right.png,9,Community 2,NA,TRUE,j,j,NA,NA,NA,2,6,"7,14,13,2,1,6,15,5,3,9,10,11,8,12,4"
14479,commdev-image-keyboard-response,496,1679430,learnblock2,671.5,img/planet6_left.png,6,Community 2,NA,TRUE,f,f,NA,NA,NA,2,6,"7,14,13,2,1,6,15,5,3,9,10,11,8,12,4"
14479,commdev-image-keyboard-response,497,1680682,learnblock2,623.4000000953674,img/planet2_right.png,2,Community 1,NA,FALSE,f,j,NA,NA,NA,2,6,"7,14,13,2,1,6,15,5,3,9,10,11,8,12,4"
14479,commdev-image-keyboard-response,498,1681935,learnblock2,503.59999990463257,img/planet7_right.png,7,Community 1,NA,FALSE,f,j,NA,NA,NA,2,6,"7,14,13,2,1,6,15,5,3,9,10,11,8,12,4"
14479,commdev-image-keyboard-response,499,1683186,learnblock2,596.1000001430511,img/planet14_right.png,14,Community 1,NA,FALSE,f,j,NA,NA,NA,2,6,"7,14,13,2,1,6,15,5,3,9,10,11,8,12,4"
14479,commdev-image-keyboard-response,500,1684439,learnblock2,980.2999999523163,img/planet7_right.png,7,Community 1,NA,FALSE,f,j,NA,NA,NA,2,6,"7,14,13,2,1,6,15,5,3,9,10,11,8,12,4"
14479,commdev-image-keyboard-response,501,1685691,learnblock2,null,img/planet2_left.png,2,Community 1,NA,FALSE,null,f,NA,NA,NA,2,6,"7,14,13,2,1,6,15,5,3,9,10,11,8,12,4"
14479,commdev-image-keyboard-response,502,1686943,learnblock2,127.5,img/planet13_left.png,13,Community 1,NA,TRUE,f,f,NA,NA,NA,2,6,"7,14,13,2,1,6,15,5,3,9,10,11,8,12,4"
14479,commdev-image-keyboard-response,503,1688206,learnblock2,511.69999980926514,img/planet7_right.png,7,Community 1,NA,TRUE,j,j,NA,NA,NA,2,6,"7,14,13,2,1,6,15,5,3,9,10,11,8,12,4"
14479,commdev-image-keyboard-response,504,1689459,learnblock2,533.2000000476837,img/planet2_right.png,2,Community 1,NA,TRUE,j,j,NA,NA,NA,2,6,"7,14,13,2,1,6,15,5,3,9,10,11,8,12,4"
14479,commdev-image-keyboard-response,505,1690722,learnblock2,553.3999998569489,img/planet13_right.png,13,Community 1,NA,TRUE,j,j,NA,NA,NA,2,6,"7,14,13,2,1,6,15,5,3,9,10,11,8,12,4"
14479,commdev-image-keyboard-response,506,1691974,learnblock2,574.3999998569489,img/planet1_left.png,1,Community 1,NA,TRUE,f,f,NA,NA,NA,2,6,"7,14,13,2,1,6,15,5,3,9,10,11,8,12,4"
14479,commdev-image-keyboard-response,507,1693226,learnblock2,472.90000009536743,img/planet7_left.png,7,Community 1,NA,TRUE,f,f,NA,NA,NA,2,6,"7,14,13,2,1,6,15,5,3,9,10,11,8,12,4"
14479,commdev-image-keyboard-response,508,1694477,learnblock2,479.69999980926514,img/planet1_right.png,1,Community 1,NA,TRUE,j,j,NA,NA,NA,2,6,"7,14,13,2,1,6,15,5,3,9,10,11,8,12,4"
14479,commdev-image-keyboard-response,509,1695729,learnblock2,550.7000000476837,img/planet10_right.png,10,Community 3,NA,TRUE,j,j,NA,NA,NA,2,6,"7,14,13,2,1,6,15,5,3,9,10,11,8,12,4"
14479,commdev-image-keyboard-response,510,1696981,learnblock2,533.0999999046326,img/planet12_right.png,12,Community 3,NA,TRUE,j,j,NA,NA,NA,2,6,"7,14,13,2,1,6,15,5,3,9,10,11,8,12,4"
14479,commdev-image-keyboard-response,511,1698234,learnblock2,546.7000000476837,img/planet10_left.png,10,Community 3,NA,TRUE,f,f,NA,NA,NA,2,6,"7,14,13,2,1,6,15,5,3,9,10,11,8,12,4"
14479,commdev-image-keyboard-response,512,1699487,learnblock2,496.89999985694885,img/planet12_right.png,12,Community 3,NA,TRUE,j,j,NA,NA,NA,2,6,"7,14,13,2,1,6,15,5,3,9,10,11,8,12,4"
14479,commdev-image-keyboard-response,513,1700739,learnblock2,554.4000000953674,img/planet8_left.png,8,Community 3,NA,TRUE,f,f,NA,NA,NA,2,6,"7,14,13,2,1,6,15,5,3,9,10,11,8,12,4"
14479,commdev-image-keyboard-response,514,1701991,learnblock2,559.5,img/planet10_left.png,10,Community 3,NA,TRUE,f,f,NA,NA,NA,2,6,"7,14,13,2,1,6,15,5,3,9,10,11,8,12,4"
14479,commdev-image-keyboard-response,515,1703242,learnblock2,480.40000009536743,img/planet8_right.png,8,Community 3,NA,TRUE,j,j,NA,NA,NA,2,6,"7,14,13,2,1,6,15,5,3,9,10,11,8,12,4"
14479,commdev-image-keyboard-response,516,1704494,learnblock2,603.8999998569489,img/planet11_right.png,11,Community 3,NA,TRUE,j,j,NA,NA,NA,2,6,"7,14,13,2,1,6,15,5,3,9,10,11,8,12,4"
14479,commdev-image-keyboard-response,517,1705746,learnblock2,583,img/planet12_left.png,12,Community 3,NA,TRUE,f,f,NA,NA,NA,2,6,"7,14,13,2,1,6,15,5,3,9,10,11,8,12,4"
14479,commdev-image-keyboard-response,518,1706998,learnblock2,479.5,img/planet10_right.png,10,Community 3,NA,TRUE,j,j,NA,NA,NA,2,6,"7,14,13,2,1,6,15,5,3,9,10,11,8,12,4"
14479,commdev-image-keyboard-response,519,1708249,learnblock2,501.5,img/planet1_left.png,1,Community 1,NA,TRUE,f,f,NA,NA,NA,2,6,"7,14,13,2,1,6,15,5,3,9,10,11,8,12,4"
14479,commdev-image-keyboard-response,520,1709501,learnblock2,590.5999999046326,img/planet14_right.png,14,Community 1,NA,TRUE,j,j,NA,NA,NA,2,6,"7,14,13,2,1,6,15,5,3,9,10,11,8,12,4"
14479,commdev-image-keyboard-response,521,1710754,learnblock2,493,img/planet13_left.png,13,Community 1,NA,TRUE,f,f,NA,NA,NA,2,6,"7,14,13,2,1,6,15,5,3,9,10,11,8,12,4"
14479,commdev-image-keyboard-response,522,1712005,learnblock2,523.7000000476837,img/planet7_left.png,7,Community 1,NA,TRUE,f,f,NA,NA,NA,2,6,"7,14,13,2,1,6,15,5,3,9,10,11,8,12,4"
14479,commdev-image-keyboard-response,523,1713258,learnblock2,483.39999985694885,img/planet1_left.png,1,Community 1,NA,TRUE,f,f,NA,NA,NA,2,6,"7,14,13,2,1,6,15,5,3,9,10,11,8,12,4"
14479,commdev-image-keyboard-response,524,1714510,learnblock2,488.59999990463257,img/planet13_right.png,13,Community 1,NA,TRUE,j,j,NA,NA,NA,2,6,"7,14,13,2,1,6,15,5,3,9,10,11,8,12,4"
14479,commdev-image-keyboard-response,525,1715762,learnblock2,475.5,img/planet2_left.png,2,Community 1,NA,TRUE,f,f,NA,NA,NA,2,6,"7,14,13,2,1,6,15,5,3,9,10,11,8,12,4"
14479,commdev-image-keyboard-response,526,1717014,learnblock2,513.1000001430511,img/planet14_left.png,14,Community 1,NA,TRUE,f,f,NA,NA,NA,2,6,"7,14,13,2,1,6,15,5,3,9,10,11,8,12,4"
14479,commdev-image-keyboard-response,527,1718266,learnblock2,585.4000000953674,img/planet1_right.png,1,Community 1,NA,TRUE,j,j,NA,NA,NA,2,6,"7,14,13,2,1,6,15,5,3,9,10,11,8,12,4"
14479,commdev-image-keyboard-response,528,1719519,learnblock2,481.39999985694885,img/planet10_left.png,10,Community 3,NA,TRUE,f,f,NA,NA,NA,2,6,"7,14,13,2,1,6,15,5,3,9,10,11,8,12,4"
14479,commdev-image-keyboard-response,529,1720771,learnblock2,617.5999999046326,img/planet8_left.png,8,Community 3,NA,TRUE,f,f,NA,NA,NA,2,6,"7,14,13,2,1,6,15,5,3,9,10,11,8,12,4"
14479,commdev-image-keyboard-response,530,1722023,learnblock2,519.5999999046326,img/planet10_right.png,10,Community 3,NA,TRUE,j,j,NA,NA,NA,2,6,"7,14,13,2,1,6,15,5,3,9,10,11,8,12,4"
14479,commdev-image-keyboard-response,531,1723275,learnblock2,617.4000000953674,img/planet8_left.png,8,Community 3,NA,TRUE,f,f,NA,NA,NA,2,6,"7,14,13,2,1,6,15,5,3,9,10,11,8,12,4"
14479,commdev-image-keyboard-response,532,1724527,learnblock2,523.1000001430511,img/planet10_left.png,10,Community 3,NA,TRUE,f,f,NA,NA,NA,2,6,"7,14,13,2,1,6,15,5,3,9,10,11,8,12,4"
14479,commdev-image-keyboard-response,533,1725780,learnblock2,482.2000000476837,img/planet1_left.png,1,Community 1,NA,TRUE,f,f,NA,NA,NA,2,6,"7,14,13,2,1,6,15,5,3,9,10,11,8,12,4"
14479,commdev-image-keyboard-response,534,1727031,learnblock2,458.2999999523163,img/planet7_right.png,7,Community 1,NA,TRUE,j,j,NA,NA,NA,2,6,"7,14,13,2,1,6,15,5,3,9,10,11,8,12,4"
14479,commdev-image-keyboard-response,535,1728283,learnblock2,618.6999998092651,img/planet2_left.png,2,Community 1,NA,TRUE,f,f,NA,NA,NA,2,6,"7,14,13,2,1,6,15,5,3,9,10,11,8,12,4"
14479,commdev-image-keyboard-response,536,1729535,learnblock2,596.2000000476837,img/planet6_right.png,6,Community 2,NA,TRUE,j,j,NA,NA,NA,2,6,"7,14,13,2,1,6,15,5,3,9,10,11,8,12,4"
14479,commdev-image-keyboard-response,537,1730788,learnblock2,961.6000001430511,img/planet3_right.png,3,Community 2,NA,TRUE,j,j,NA,NA,NA,2,6,"7,14,13,2,1,6,15,5,3,9,10,11,8,12,4"
14479,commdev-image-keyboard-response,538,1732040,learnblock2,655,img/planet9_left.png,9,Community 2,NA,TRUE,f,f,NA,NA,NA,2,6,"7,14,13,2,1,6,15,5,3,9,10,11,8,12,4"
14479,commdev-image-keyboard-response,539,1733305,learnblock2,524.5,img/planet6_right.png,6,Community 2,NA,TRUE,j,j,NA,NA,NA,2,6,"7,14,13,2,1,6,15,5,3,9,10,11,8,12,4"
14479,commdev-image-keyboard-response,540,1734557,learnblock2,551.7000000476837,img/planet9_right.png,9,Community 2,NA,TRUE,j,j,NA,NA,NA,2,6,"7,14,13,2,1,6,15,5,3,9,10,11,8,12,4"
14479,commdev-image-keyboard-response,541,1735810,learnblock2,580.5,img/planet15_right.png,15,Community 2,NA,TRUE,j,j,NA,NA,NA,2,6,"7,14,13,2,1,6,15,5,3,9,10,11,8,12,4"
14479,commdev-image-keyboard-response,542,1737062,learnblock2,668.5,img/planet9_left.png,9,Community 2,NA,TRUE,f,f,NA,NA,NA,2,6,"7,14,13,2,1,6,15,5,3,9,10,11,8,12,4"
14479,commdev-image-keyboard-response,543,1738314,learnblock2,789.2000000476837,img/planet5_left.png,5,Community 2,NA,TRUE,f,f,NA,NA,NA,2,6,"7,14,13,2,1,6,15,5,3,9,10,11,8,12,4"
14479,commdev-image-keyboard-response,544,1739566,learnblock2,521.2999999523163,img/planet11_left.png,11,Community 3,NA,FALSE,j,f,NA,NA,NA,2,6,"7,14,13,2,1,6,15,5,3,9,10,11,8,12,4"
14479,commdev-image-keyboard-response,545,1740818,learnblock2,603.3999998569489,img/planet4_right.png,4,Community 3,NA,TRUE,j,j,NA,NA,NA,2,6,"7,14,13,2,1,6,15,5,3,9,10,11,8,12,4"
14479,commdev-image-keyboard-response,546,1742069,learnblock2,834.8999998569489,img/planet12_left.png,12,Community 3,NA,TRUE,f,f,NA,NA,NA,2,6,"7,14,13,2,1,6,15,5,3,9,10,11,8,12,4"
14479,commdev-image-keyboard-response,547,1743327,learnblock2,735.6000001430511,img/planet4_left.png,4,Community 3,NA,TRUE,f,f,NA,NA,NA,2,6,"7,14,13,2,1,6,15,5,3,9,10,11,8,12,4"
14479,commdev-image-keyboard-response,548,1744580,learnblock2,560.2999999523163,img/planet12_left.png,12,Community 3,NA,TRUE,f,f,NA,NA,NA,2,6,"7,14,13,2,1,6,15,5,3,9,10,11,8,12,4"
14479,commdev-image-keyboard-response,549,1745832,learnblock2,702.2999999523163,img/planet8_right.png,8,Community 3,NA,FALSE,f,j,NA,NA,NA,2,6,"7,14,13,2,1,6,15,5,3,9,10,11,8,12,4"
14479,commdev-image-keyboard-response,550,1747084,learnblock2,1110.2000000476837,img/planet10_left.png,10,Community 3,NA,TRUE,f,f,NA,NA,NA,2,6,"7,14,13,2,1,6,15,5,3,9,10,11,8,12,4"
14479,commdev-image-keyboard-response,551,1748336,learnblock2,922.1000001430511,img/planet8_right.png,8,Community 3,NA,TRUE,j,j,NA,NA,NA,2,6,"7,14,13,2,1,6,15,5,3,9,10,11,8,12,4"
14479,commdev-image-keyboard-response,552,1749589,learnblock2,583.7000000476837,img/planet4_right.png,4,Community 3,NA,TRUE,j,j,NA,NA,NA,2,6,"7,14,13,2,1,6,15,5,3,9,10,11,8,12,4"
14479,commdev-image-keyboard-response,553,1750841,learnblock2,605.0999999046326,img/planet12_left.png,12,Community 3,NA,TRUE,f,f,NA,NA,NA,2,6,"7,14,13,2,1,6,15,5,3,9,10,11,8,12,4"
14479,commdev-image-keyboard-response,554,1752093,learnblock2,477.89999985694885,img/planet4_left.png,4,Community 3,NA,TRUE,f,f,NA,NA,NA,2,6,"7,14,13,2,1,6,15,5,3,9,10,11,8,12,4"
14479,commdev-image-keyboard-response,555,1753345,learnblock2,512.4000000953674,img/planet8_left.png,8,Community 3,NA,TRUE,f,f,NA,NA,NA,2,6,"7,14,13,2,1,6,15,5,3,9,10,11,8,12,4"
14479,commdev-image-keyboard-response,556,1754605,learnblock2,531.1999998092651,img/planet12_right.png,12,Community 3,NA,TRUE,j,j,NA,NA,NA,2,6,"7,14,13,2,1,6,15,5,3,9,10,11,8,12,4"
14479,commdev-image-keyboard-response,557,1755856,learnblock2,507.19999980926514,img/planet8_left.png,8,Community 3,NA,FALSE,j,f,NA,NA,NA,2,6,"7,14,13,2,1,6,15,5,3,9,10,11,8,12,4"
14479,commdev-image-keyboard-response,558,1757107,learnblock2,495.10000014305115,img/planet4_right.png,4,Community 3,NA,TRUE,j,j,NA,NA,NA,2,6,"7,14,13,2,1,6,15,5,3,9,10,11,8,12,4"
14479,commdev-image-keyboard-response,559,1758360,learnblock2,523,img/planet11_right.png,11,Community 3,NA,FALSE,f,j,NA,NA,NA,2,6,"7,14,13,2,1,6,15,5,3,9,10,11,8,12,4"
14479,commdev-image-keyboard-response,560,1759612,learnblock2,500,img/planet8_left.png,8,Community 3,NA,TRUE,f,f,NA,NA,NA,2,6,"7,14,13,2,1,6,15,5,3,9,10,11,8,12,4"
14479,commdev-image-keyboard-response,561,1760864,learnblock2,null,img/planet11_left.png,11,Community 3,NA,FALSE,null,f,NA,NA,NA,2,6,"7,14,13,2,1,6,15,5,3,9,10,11,8,12,4"
14479,commdev-image-keyboard-response,562,1762116,learnblock2,59,img/planet5_left.png,5,Community 2,NA,TRUE,f,f,NA,NA,NA,2,6,"7,14,13,2,1,6,15,5,3,9,10,11,8,12,4"
14479,commdev-image-keyboard-response,563,1763368,learnblock2,247.19999980926514,img/planet9_left.png,9,Community 2,NA,TRUE,f,f,NA,NA,NA,2,6,"7,14,13,2,1,6,15,5,3,9,10,11,8,12,4"
14479,commdev-image-keyboard-response,564,1764621,learnblock2,548.5999999046326,img/planet6_right.png,6,Community 2,NA,TRUE,j,j,NA,NA,NA,2,6,"7,14,13,2,1,6,15,5,3,9,10,11,8,12,4"
14479,commdev-image-keyboard-response,565,1765873,learnblock2,694.7999999523163,img/planet15_left.png,15,Community 2,NA,TRUE,f,f,NA,NA,NA,2,6,"7,14,13,2,1,6,15,5,3,9,10,11,8,12,4"
14479,commdev-image-keyboard-response,566,1767131,learnblock2,595.7000000476837,img/planet3_left.png,3,Community 2,NA,TRUE,f,f,NA,NA,NA,2,6,"7,14,13,2,1,6,15,5,3,9,10,11,8,12,4"
14479,commdev-image-keyboard-response,567,1768383,learnblock2,447.5,img/planet9_left.png,9,Community 2,NA,TRUE,f,f,NA,NA,NA,2,6,"7,14,13,2,1,6,15,5,3,9,10,11,8,12,4"
14479,commdev-image-keyboard-response,568,1769635,learnblock2,614.3000001907349,img/planet5_right.png,5,Community 2,NA,TRUE,j,j,NA,NA,NA,2,6,"7,14,13,2,1,6,15,5,3,9,10,11,8,12,4"
14479,commdev-image-keyboard-response,569,1770886,learnblock2,509.5,img/planet3_right.png,3,Community 2,NA,TRUE,j,j,NA,NA,NA,2,6,"7,14,13,2,1,6,15,5,3,9,10,11,8,12,4"
14479,commdev-image-keyboard-response,570,1772139,learnblock2,570,img/planet9_left.png,9,Community 2,NA,TRUE,f,f,NA,NA,NA,2,6,"7,14,13,2,1,6,15,5,3,9,10,11,8,12,4"
14479,commdev-image-keyboard-response,571,1773390,learnblock2,615.2000000476837,img/planet5_left.png,5,Community 2,NA,FALSE,j,f,NA,NA,NA,2,6,"7,14,13,2,1,6,15,5,3,9,10,11,8,12,4"
14479,commdev-image-keyboard-response,572,1774642,learnblock2,621.7999999523163,img/planet9_right.png,9,Community 2,NA,TRUE,j,j,NA,NA,NA,2,6,"7,14,13,2,1,6,15,5,3,9,10,11,8,12,4"
14479,commdev-image-keyboard-response,573,1775895,learnblock2,1100,img/planet5_left.png,5,Community 2,NA,TRUE,f,f,NA,NA,NA,2,6,"7,14,13,2,1,6,15,5,3,9,10,11,8,12,4"
14479,commdev-image-keyboard-response,574,1777147,learnblock2,554.7000000476837,img/planet15_right.png,15,Community 2,NA,TRUE,j,j,NA,NA,NA,2,6,"7,14,13,2,1,6,15,5,3,9,10,11,8,12,4"
14479,commdev-image-keyboard-response,575,1778399,learnblock2,477.40000009536743,img/planet5_left.png,5,Community 2,NA,TRUE,f,f,NA,NA,NA,2,6,"7,14,13,2,1,6,15,5,3,9,10,11,8,12,4"
14479,commdev-image-keyboard-response,576,1779652,learnblock2,445.09999990463257,img/planet11_right.png,11,Community 3,NA,TRUE,j,j,NA,NA,NA,2,6,"7,14,13,2,1,6,15,5,3,9,10,11,8,12,4"
14479,commdev-image-keyboard-response,577,1780903,learnblock2,521.9000000953674,img/planet12_right.png,12,Community 3,NA,TRUE,j,j,NA,NA,NA,2,6,"7,14,13,2,1,6,15,5,3,9,10,11,8,12,4"
14479,commdev-image-keyboard-response,578,1782159,learnblock2,600.2999999523163,img/planet8_right.png,8,Community 3,NA,TRUE,j,j,NA,NA,NA,2,6,"7,14,13,2,1,6,15,5,3,9,10,11,8,12,4"
14479,commdev-image-keyboard-response,579,1783418,learnblock2,592.9000000953674,img/planet11_left.png,11,Community 3,NA,TRUE,f,f,NA,NA,NA,2,6,"7,14,13,2,1,6,15,5,3,9,10,11,8,12,4"
14479,commdev-image-keyboard-response,580,1784682,learnblock2,506.2000000476837,img/planet12_right.png,12,Community 3,NA,TRUE,j,j,NA,NA,NA,2,6,"7,14,13,2,1,6,15,5,3,9,10,11,8,12,4"
14479,commdev-image-keyboard-response,581,1785943,learnblock2,493.2999999523163,img/planet4_right.png,4,Community 3,NA,TRUE,j,j,NA,NA,NA,2,6,"7,14,13,2,1,6,15,5,3,9,10,11,8,12,4"
14479,commdev-image-keyboard-response,582,1787196,learnblock2,500.59999990463257,img/planet8_right.png,8,Community 3,NA,TRUE,j,j,NA,NA,NA,2,6,"7,14,13,2,1,6,15,5,3,9,10,11,8,12,4"
14479,commdev-image-keyboard-response,583,1788449,learnblock2,500.09999990463257,img/planet4_right.png,4,Community 3,NA,TRUE,j,j,NA,NA,NA,2,6,"7,14,13,2,1,6,15,5,3,9,10,11,8,12,4"
