subject_id,trial_type,trial_index,time_elapsed,block,rt,stimulus,planet,community,response,correct,key_press,learning_correct_response,parse,init_locations,final_locations,browser_interactions,num_comp,planet_map
15144,commdev-instructions,7,33583,NA,2529.400001525879,"<p>In this game, you will be shown a 3x3 grid of patterns.</p> <p>The last one in the bottom right-hand corner, <strong>will be missing:</strong></p> <div style='width: 700px;'><div style='float: top;'><img style='width: 200px;' src='practice/p1_M1.png'></img><p class='small'>You need to select<strong> which of the four possible patterns </strong>along the bottom<strong> fits into the gap:</strong></p></div><div style='float: top;'><img style='width: 300px;' src='practice/p1_T1.png'></img></div><br>",NA,NA,NA,NA,NA,NA,NA,NA,NA,1,6,"5,11,13,9,15,7,8,10,14,6,3,2,4,12,1"
15144,commdev-instructions,8,85688,NA,32486.10000038147,"<p>Try to be as fast and as accurate as you can be.</p> <p>If you cannot solve the puzzle then you should guess - you will not be penalised for an incorrect answer.</p> <p>The task contains a shuffled mix of easy, medium and hard puzzles.</p> <p>You will have <strong>30 seconds</strong> to complete each puzzle.</p><br>",NA,NA,NA,NA,NA,NA,NA,NA,NA,1,6,"5,11,13,9,15,7,8,10,14,6,3,2,4,12,1"
15144,commdev-instructions,15,116492,NA,1630.6000003814697,<p><strong>Success!</strong></p> <p>You seem to be getting the hang of this...</p> <p>Let's move on to the real trials.</p><br>,NA,NA,NA,NA,NA,NA,NA,NA,NA,1,6,"5,11,13,9,15,7,8,10,14,6,3,2,4,12,1"
15144,commdev-instructions,123,933830,NA,325006.89999961853,"<p>In this game, you are a scientist on board a space shuttle. </p><p> On each mission, you will visit planets all across the universe.</p><img src=""img/controlroom.jpg"" width=300vw>",NA,NA,NA,NA,NA,NA,NA,NA,NA,1,6,"5,11,13,9,15,7,8,10,14,6,3,2,4,12,1"
15144,commdev-instructions,124,937517,NA,1204.6000003814697,"<p>Here are a few planets you might see:</p><img src=""img/practice1.png"" width=200vw><img src=""img/practice2.png"" width=200vw><img src=""img/practice3.png"" width=200vw>",NA,NA,NA,NA,NA,NA,NA,NA,NA,1,6,"5,11,13,9,15,7,8,10,14,6,3,2,4,12,1"
15144,commdev-instructions,125,948751,NA,3799.6000003814697,"<p>Your job as a scientist is to record which direction the winds are moving on each planet.</p><p>There are two types of wind directions:</p><img src=""img/practice1_left.png"" width=200vw><img src=""img/practice1_right.png"" width=200vw>",NA,NA,NA,NA,NA,NA,NA,NA,NA,1,6,"5,11,13,9,15,7,8,10,14,6,3,2,4,12,1"
15144,commdev-instructions,126,955611,NA,1947.6000003814697,"<p>If the winds are moving this way, press the letter <strong>F</strong> on the keyboard as fast as you can.</p><img src=""img/leftwind.png"" width=250vw>",NA,NA,NA,NA,NA,NA,NA,NA,NA,1,6,"5,11,13,9,15,7,8,10,14,6,3,2,4,12,1"
15144,commdev-instructions,127,963161,NA,3020.199998855591,"<p>If the winds are moving this way, press the letter <strong>J</strong> on the keyboard as fast as you can.</p><img src=""img/rightwind.png"" width=350vw>",NA,NA,NA,NA,NA,NA,NA,NA,NA,1,6,"5,11,13,9,15,7,8,10,14,6,3,2,4,12,1"
15144,commdev-instructions,128,983175,NA,15584.10000038147,<p>You will have 1 second to respond. Try to respond before the time runs out!,NA,NA,NA,NA,NA,NA,NA,NA,NA,1,6,"5,11,13,9,15,7,8,10,14,6,3,2,4,12,1"
15144,commdev-instructions,129,990279,NA,1647.400001525879,<p>The planets you will visit will look different from each other.</p><p>You should respond <strong>only</strong> based on wind direction.,NA,NA,NA,NA,NA,NA,NA,NA,NA,1,6,"5,11,13,9,15,7,8,10,14,6,3,2,4,12,1"
15144,commdev-instructions,130,998165,NA,2695,"<p> Ready to start the practice round? </p><p> Remember, press <strong>F</strong> or <strong>J</strong> depending on the wind direction.<br><img src=""img/categorize_planet_example.png""",NA,NA,NA,NA,NA,NA,NA,NA,NA,1,6,"5,11,13,9,15,7,8,10,14,6,3,2,4,12,1"
15144,commdev-instructions,142,1056878,NA,1583.8000011444092,"<p>Great, now try a short practice mission. </p><p> This time, you will have 1 second to respond and you won't know whether you pressed the right or wrong key for each planet.</p>",NA,NA,NA,NA,NA,NA,NA,NA,NA,1,6,"5,11,13,9,15,7,8,10,14,6,3,2,4,12,1"
15144,commdev-image-keyboard-response,143,1058248,practice,859.7000007629395,img/practice4_right.png,NA,Number not found in mappings,NA,TRUE,j,j,NA,NA,NA,1,6,"5,11,13,9,15,7,8,10,14,6,3,2,4,12,1"
15144,commdev-image-keyboard-response,144,1059502,practice,956.1000003814697,img/practice2_left.png,NA,Number not found in mappings,NA,TRUE,f,f,NA,NA,NA,1,6,"5,11,13,9,15,7,8,10,14,6,3,2,4,12,1"
15144,commdev-image-keyboard-response,145,1060760,practice,763.2000007629395,img/practice4_right.png,NA,Number not found in mappings,NA,TRUE,j,j,NA,NA,NA,1,6,"5,11,13,9,15,7,8,10,14,6,3,2,4,12,1"
15144,commdev-image-keyboard-response,146,1062019,practice,855.1999988555908,img/practice1_right.png,NA,Number not found in mappings,NA,TRUE,j,j,NA,NA,NA,1,6,"5,11,13,9,15,7,8,10,14,6,3,2,4,12,1"
15144,commdev-image-keyboard-response,147,1063285,practice,1041.400001525879,img/practice3_right.png,NA,Number not found in mappings,NA,TRUE,j,j,NA,NA,NA,1,6,"5,11,13,9,15,7,8,10,14,6,3,2,4,12,1"
15144,commdev-image-keyboard-response,148,1064539,practice,534,img/practice1_right.png,NA,Number not found in mappings,NA,TRUE,j,j,NA,NA,NA,1,6,"5,11,13,9,15,7,8,10,14,6,3,2,4,12,1"
15144,commdev-image-keyboard-response,149,1065796,practice,966.3000011444092,img/practice4_left.png,NA,Number not found in mappings,NA,TRUE,f,f,NA,NA,NA,1,6,"5,11,13,9,15,7,8,10,14,6,3,2,4,12,1"
15144,commdev-image-keyboard-response,150,1067052,practice,802,img/practice1_right.png,NA,Number not found in mappings,NA,TRUE,j,j,NA,NA,NA,1,6,"5,11,13,9,15,7,8,10,14,6,3,2,4,12,1"
15144,commdev-instructions,151,1077952,NA,1338.3000011444092,"<p>Great job with the practice round.</p><p>During real missions, you won't know whether you pressed the right or wrong key for each planet.</p><p>But between missions, we will tell you how you did overall.</p>",NA,NA,NA,NA,NA,NA,NA,NA,NA,1,6,"5,11,13,9,15,7,8,10,14,6,3,2,4,12,1"
15144,commdev-instructions,152,1089748,NA,3555.900001525879,<p>Try your best! You will be paid a bonus based on how many correct responses you make!</p><p>Responses that are too slow will not count toward your bonus.</p>,NA,NA,NA,NA,NA,NA,NA,NA,NA,1,6,"5,11,13,9,15,7,8,10,14,6,3,2,4,12,1"
15144,commdev-instructions,153,1098064,NA,2108.800001144409,"<p>You are almost ready to start the real game.</p><p> First, we are going to ask you some questions about how the game works.</p>",NA,NA,NA,NA,NA,NA,NA,NA,NA,1,6,"5,11,13,9,15,7,8,10,14,6,3,2,4,12,1"
15144,commdev-instructions,162,1185165,NA,939.6999988555908,"<p> Nice work! It is now time to start the real game.<p></p>You will go on two missions to record wind directions of different planets.<p></p>Each one will take about 5 minutes. You will get to take a break between missions.<p><p> Remember, press <strong>F</strong> or <strong>J</strong> depending on the wind direction. Good luck!<br><img src=""img/categorize_planet_example.png""",NA,NA,NA,NA,NA,NA,NA,NA,NA,1,6,"5,11,13,9,15,7,8,10,14,6,3,2,4,12,1"
15144,commdev-image-keyboard-response,164,1190700,learnblock1,872.2000007629395,img/planet15_right.png,15,Community 1,NA,TRUE,j,j,NA,NA,NA,1,6,"5,11,13,9,15,7,8,10,14,6,3,2,4,12,1"
15144,commdev-image-keyboard-response,165,1191957,learnblock1,1226.1000003814697,img/planet3_left.png,3,Community 3,NA,TRUE,f,f,NA,NA,NA,1,6,"5,11,13,9,15,7,8,10,14,6,3,2,4,12,1"
15144,commdev-image-keyboard-response,166,1193226,learnblock1,749.3999996185303,img/planet15_left.png,15,Community 1,NA,TRUE,f,f,NA,NA,NA,1,6,"5,11,13,9,15,7,8,10,14,6,3,2,4,12,1"
15144,commdev-image-keyboard-response,167,1194478,learnblock1,702,img/planet3_left.png,3,Community 3,NA,TRUE,f,f,NA,NA,NA,1,6,"5,11,13,9,15,7,8,10,14,6,3,2,4,12,1"
15144,commdev-image-keyboard-response,168,1195734,learnblock1,636.2999992370605,img/planet15_right.png,15,Community 1,NA,TRUE,j,j,NA,NA,NA,1,6,"5,11,13,9,15,7,8,10,14,6,3,2,4,12,1"
15144,commdev-image-keyboard-response,169,1196990,learnblock1,961.3999996185303,img/planet11_right.png,11,Community 1,NA,TRUE,j,j,NA,NA,NA,1,6,"5,11,13,9,15,7,8,10,14,6,3,2,4,12,1"
15144,commdev-image-keyboard-response,170,1198248,learnblock1,756,img/planet15_right.png,15,Community 1,NA,TRUE,j,j,NA,NA,NA,1,6,"5,11,13,9,15,7,8,10,14,6,3,2,4,12,1"
15144,commdev-image-keyboard-response,171,1199509,learnblock1,738,img/planet3_left.png,3,Community 3,NA,TRUE,f,f,NA,NA,NA,1,6,"5,11,13,9,15,7,8,10,14,6,3,2,4,12,1"
15144,commdev-image-keyboard-response,172,1200767,learnblock1,674.3999996185303,img/planet1_left.png,1,Community 3,NA,TRUE,f,f,NA,NA,NA,1,6,"5,11,13,9,15,7,8,10,14,6,3,2,4,12,1"
15144,commdev-image-keyboard-response,173,1202033,learnblock1,780.0999984741211,img/planet12_left.png,12,Community 3,NA,TRUE,f,f,NA,NA,NA,1,6,"5,11,13,9,15,7,8,10,14,6,3,2,4,12,1"
15144,commdev-image-keyboard-response,174,1203290,learnblock1,860.7999992370605,img/planet4_left.png,4,Community 3,NA,TRUE,f,f,NA,NA,NA,1,6,"5,11,13,9,15,7,8,10,14,6,3,2,4,12,1"
15144,commdev-image-keyboard-response,175,1204547,learnblock1,643.7000007629395,img/planet3_left.png,3,Community 3,NA,TRUE,f,f,NA,NA,NA,1,6,"5,11,13,9,15,7,8,10,14,6,3,2,4,12,1"
15144,commdev-image-keyboard-response,176,1205814,learnblock1,678.6999988555908,img/planet12_right.png,12,Community 3,NA,TRUE,j,j,NA,NA,NA,1,6,"5,11,13,9,15,7,8,10,14,6,3,2,4,12,1"
15144,commdev-image-keyboard-response,177,1207083,learnblock1,654.7999992370605,img/planet3_left.png,3,Community 3,NA,TRUE,f,f,NA,NA,NA,1,6,"5,11,13,9,15,7,8,10,14,6,3,2,4,12,1"
15144,commdev-image-keyboard-response,178,1208342,learnblock1,646,img/planet4_right.png,4,Community 3,NA,TRUE,j,j,NA,NA,NA,1,6,"5,11,13,9,15,7,8,10,14,6,3,2,4,12,1"
15144,commdev-image-keyboard-response,179,1209606,learnblock1,666.5,img/planet3_right.png,3,Community 3,NA,TRUE,j,j,NA,NA,NA,1,6,"5,11,13,9,15,7,8,10,14,6,3,2,4,12,1"
15144,commdev-image-keyboard-response,180,1210873,learnblock1,918.6999988555908,img/planet15_right.png,15,Community 1,NA,TRUE,j,j,NA,NA,NA,1,6,"5,11,13,9,15,7,8,10,14,6,3,2,4,12,1"
15144,commdev-image-keyboard-response,181,1212133,learnblock1,698.6000003814697,img/planet3_left.png,3,Community 3,NA,TRUE,f,f,NA,NA,NA,1,6,"5,11,13,9,15,7,8,10,14,6,3,2,4,12,1"
15144,commdev-image-keyboard-response,182,1213408,learnblock1,734.3999996185303,img/planet1_left.png,1,Community 3,NA,TRUE,f,f,NA,NA,NA,1,6,"5,11,13,9,15,7,8,10,14,6,3,2,4,12,1"
15144,commdev-image-keyboard-response,183,1214662,learnblock1,630.6999988555908,img/planet12_left.png,12,Community 3,NA,TRUE,f,f,NA,NA,NA,1,6,"5,11,13,9,15,7,8,10,14,6,3,2,4,12,1"
15144,commdev-image-keyboard-response,184,1215933,learnblock1,603.8999996185303,img/planet1_right.png,1,Community 3,NA,TRUE,j,j,NA,NA,NA,1,6,"5,11,13,9,15,7,8,10,14,6,3,2,4,12,1"
15144,commdev-image-keyboard-response,185,1217186,learnblock1,615.5999984741211,img/planet12_left.png,12,Community 3,NA,TRUE,f,f,NA,NA,NA,1,6,"5,11,13,9,15,7,8,10,14,6,3,2,4,12,1"
15144,commdev-image-keyboard-response,186,1218446,learnblock1,578.6000003814697,img/planet1_left.png,1,Community 3,NA,TRUE,f,f,NA,NA,NA,1,6,"5,11,13,9,15,7,8,10,14,6,3,2,4,12,1"
15144,commdev-image-keyboard-response,187,1219701,learnblock1,620.5,img/planet12_right.png,12,Community 3,NA,TRUE,j,j,NA,NA,NA,1,6,"5,11,13,9,15,7,8,10,14,6,3,2,4,12,1"
15144,commdev-image-keyboard-response,188,1221004,learnblock1,660.7999992370605,img/planet4_left.png,4,Community 3,NA,TRUE,f,f,NA,NA,NA,1,6,"5,11,13,9,15,7,8,10,14,6,3,2,4,12,1"
15144,commdev-image-keyboard-response,189,1222262,learnblock1,647.5,img/planet3_left.png,3,Community 3,NA,TRUE,f,f,NA,NA,NA,1,6,"5,11,13,9,15,7,8,10,14,6,3,2,4,12,1"
15144,commdev-image-keyboard-response,190,1223517,learnblock1,544.5999984741211,img/planet1_left.png,1,Community 3,NA,TRUE,f,f,NA,NA,NA,1,6,"5,11,13,9,15,7,8,10,14,6,3,2,4,12,1"
15144,commdev-image-keyboard-response,191,1224796,learnblock1,609.2999992370605,img/planet3_right.png,3,Community 3,NA,TRUE,j,j,NA,NA,NA,1,6,"5,11,13,9,15,7,8,10,14,6,3,2,4,12,1"
15144,commdev-image-keyboard-response,192,1226057,learnblock1,629.5,img/planet4_right.png,4,Community 3,NA,TRUE,j,j,NA,NA,NA,1,6,"5,11,13,9,15,7,8,10,14,6,3,2,4,12,1"
15144,commdev-image-keyboard-response,193,1227324,learnblock1,586.2000007629395,img/planet12_right.png,12,Community 3,NA,TRUE,j,j,NA,NA,NA,1,6,"5,11,13,9,15,7,8,10,14,6,3,2,4,12,1"
15144,commdev-image-keyboard-response,194,1228591,learnblock1,614.8000011444092,img/planet3_right.png,3,Community 3,NA,TRUE,j,j,NA,NA,NA,1,6,"5,11,13,9,15,7,8,10,14,6,3,2,4,12,1"
15144,commdev-image-keyboard-response,195,1229846,learnblock1,564.6000003814697,img/planet4_right.png,4,Community 3,NA,TRUE,j,j,NA,NA,NA,1,6,"5,11,13,9,15,7,8,10,14,6,3,2,4,12,1"
15144,commdev-image-keyboard-response,196,1231116,learnblock1,605.5999984741211,img/planet2_left.png,2,Community 3,NA,TRUE,f,f,NA,NA,NA,1,6,"5,11,13,9,15,7,8,10,14,6,3,2,4,12,1"
15144,commdev-image-keyboard-response,197,1232382,learnblock1,575.7999992370605,img/planet1_right.png,1,Community 3,NA,TRUE,j,j,NA,NA,NA,1,6,"5,11,13,9,15,7,8,10,14,6,3,2,4,12,1"
15144,commdev-image-keyboard-response,198,1233637,learnblock1,560.1000003814697,img/planet3_left.png,3,Community 3,NA,TRUE,f,f,NA,NA,NA,1,6,"5,11,13,9,15,7,8,10,14,6,3,2,4,12,1"
15144,commdev-image-keyboard-response,199,1234899,learnblock1,858.8999996185303,img/planet15_right.png,15,Community 1,NA,TRUE,j,j,NA,NA,NA,1,6,"5,11,13,9,15,7,8,10,14,6,3,2,4,12,1"
15144,commdev-image-keyboard-response,200,1236157,learnblock1,767.3999996185303,img/planet13_left.png,13,Community 1,NA,TRUE,f,f,NA,NA,NA,1,6,"5,11,13,9,15,7,8,10,14,6,3,2,4,12,1"
15144,commdev-image-keyboard-response,201,1237415,learnblock1,888.8999996185303,img/planet5_left.png,5,Community 1,NA,TRUE,f,f,NA,NA,NA,1,6,"5,11,13,9,15,7,8,10,14,6,3,2,4,12,1"
15144,commdev-image-keyboard-response,202,1238682,learnblock1,688.2999992370605,img/planet9_left.png,9,Community 1,NA,TRUE,f,f,NA,NA,NA,1,6,"5,11,13,9,15,7,8,10,14,6,3,2,4,12,1"
15144,commdev-image-keyboard-response,203,1239947,learnblock1,797.1999988555908,img/planet5_right.png,5,Community 1,NA,TRUE,j,j,NA,NA,NA,1,6,"5,11,13,9,15,7,8,10,14,6,3,2,4,12,1"
15144,commdev-image-keyboard-response,204,1241215,learnblock1,588.6000003814697,img/planet13_left.png,13,Community 1,NA,TRUE,f,f,NA,NA,NA,1,6,"5,11,13,9,15,7,8,10,14,6,3,2,4,12,1"
15144,commdev-image-keyboard-response,205,1242468,learnblock1,648.3000011444092,img/planet5_left.png,5,Community 1,NA,TRUE,f,f,NA,NA,NA,1,6,"5,11,13,9,15,7,8,10,14,6,3,2,4,12,1"
15144,commdev-image-keyboard-response,206,1243733,learnblock1,566.3999996185303,img/planet15_left.png,15,Community 1,NA,TRUE,f,f,NA,NA,NA,1,6,"5,11,13,9,15,7,8,10,14,6,3,2,4,12,1"
15144,commdev-image-keyboard-response,207,1244997,learnblock1,550.1000003814697,img/planet11_left.png,11,Community 1,NA,TRUE,f,f,NA,NA,NA,1,6,"5,11,13,9,15,7,8,10,14,6,3,2,4,12,1"
15144,commdev-image-keyboard-response,208,1246250,learnblock1,541.3999996185303,img/planet15_right.png,15,Community 1,NA,TRUE,j,j,NA,NA,NA,1,6,"5,11,13,9,15,7,8,10,14,6,3,2,4,12,1"
15144,commdev-image-keyboard-response,209,1247512,learnblock1,553.2000007629395,img/planet5_right.png,5,Community 1,NA,TRUE,j,j,NA,NA,NA,1,6,"5,11,13,9,15,7,8,10,14,6,3,2,4,12,1"
15144,commdev-image-keyboard-response,210,1248769,learnblock1,455.6000003814697,img/planet9_left.png,9,Community 1,NA,TRUE,f,f,NA,NA,NA,1,6,"5,11,13,9,15,7,8,10,14,6,3,2,4,12,1"
15144,commdev-image-keyboard-response,211,1250028,learnblock1,531.7999992370605,img/planet7_left.png,7,Community 2,NA,TRUE,f,f,NA,NA,NA,1,6,"5,11,13,9,15,7,8,10,14,6,3,2,4,12,1"
15144,commdev-image-keyboard-response,212,1251282,learnblock1,587.5,img/planet9_right.png,9,Community 1,NA,TRUE,j,j,NA,NA,NA,1,6,"5,11,13,9,15,7,8,10,14,6,3,2,4,12,1"
15144,commdev-image-keyboard-response,213,1252543,learnblock1,532.8000011444092,img/planet5_right.png,5,Community 1,NA,TRUE,j,j,NA,NA,NA,1,6,"5,11,13,9,15,7,8,10,14,6,3,2,4,12,1"
15144,commdev-image-keyboard-response,214,1253800,learnblock1,701.2999992370605,img/planet9_right.png,9,Community 1,NA,TRUE,j,j,NA,NA,NA,1,6,"5,11,13,9,15,7,8,10,14,6,3,2,4,12,1"
15144,commdev-image-keyboard-response,215,1255063,learnblock1,666.5,img/planet11_right.png,11,Community 1,NA,TRUE,j,j,NA,NA,NA,1,6,"5,11,13,9,15,7,8,10,14,6,3,2,4,12,1"
15144,commdev-image-keyboard-response,216,1256323,learnblock1,611.8000011444092,img/planet5_right.png,5,Community 1,NA,TRUE,j,j,NA,NA,NA,1,6,"5,11,13,9,15,7,8,10,14,6,3,2,4,12,1"
15144,commdev-image-keyboard-response,217,1257581,learnblock1,618.3999996185303,img/planet15_left.png,15,Community 1,NA,TRUE,f,f,NA,NA,NA,1,6,"5,11,13,9,15,7,8,10,14,6,3,2,4,12,1"
15144,commdev-image-keyboard-response,218,1258841,learnblock1,631.9000015258789,img/planet5_left.png,5,Community 1,NA,TRUE,f,f,NA,NA,NA,1,6,"5,11,13,9,15,7,8,10,14,6,3,2,4,12,1"
15144,commdev-image-keyboard-response,219,1260102,learnblock1,591.5,img/planet15_right.png,15,Community 1,NA,TRUE,j,j,NA,NA,NA,1,6,"5,11,13,9,15,7,8,10,14,6,3,2,4,12,1"
15144,commdev-image-keyboard-response,220,1261368,learnblock1,681.1999988555908,img/planet5_right.png,5,Community 1,NA,TRUE,j,j,NA,NA,NA,1,6,"5,11,13,9,15,7,8,10,14,6,3,2,4,12,1"
15144,commdev-image-keyboard-response,221,1262636,learnblock1,680.6999988555908,img/planet15_left.png,15,Community 1,NA,TRUE,f,f,NA,NA,NA,1,6,"5,11,13,9,15,7,8,10,14,6,3,2,4,12,1"
15144,commdev-image-keyboard-response,222,1263906,learnblock1,663.7999992370605,img/planet11_right.png,11,Community 1,NA,TRUE,j,j,NA,NA,NA,1,6,"5,11,13,9,15,7,8,10,14,6,3,2,4,12,1"
15144,commdev-image-keyboard-response,223,1265162,learnblock1,686.5999984741211,img/planet13_left.png,13,Community 1,NA,TRUE,f,f,NA,NA,NA,1,6,"5,11,13,9,15,7,8,10,14,6,3,2,4,12,1"
15144,commdev-image-keyboard-response,224,1266419,learnblock1,603.2000007629395,img/planet9_right.png,9,Community 1,NA,TRUE,j,j,NA,NA,NA,1,6,"5,11,13,9,15,7,8,10,14,6,3,2,4,12,1"
15144,commdev-image-keyboard-response,225,1267681,learnblock1,567.4000015258789,img/planet7_left.png,7,Community 2,NA,TRUE,f,f,NA,NA,NA,1,6,"5,11,13,9,15,7,8,10,14,6,3,2,4,12,1"
15144,commdev-image-keyboard-response,226,1268944,learnblock1,652.5,img/planet14_right.png,14,Community 2,NA,TRUE,j,j,NA,NA,NA,1,6,"5,11,13,9,15,7,8,10,14,6,3,2,4,12,1"
15144,commdev-image-keyboard-response,227,1270202,learnblock1,621.6999988555908,img/planet10_right.png,10,Community 2,NA,TRUE,j,j,NA,NA,NA,1,6,"5,11,13,9,15,7,8,10,14,6,3,2,4,12,1"
15144,commdev-image-keyboard-response,228,1271456,learnblock1,734,img/planet8_right.png,8,Community 2,NA,TRUE,j,j,NA,NA,NA,1,6,"5,11,13,9,15,7,8,10,14,6,3,2,4,12,1"
15144,commdev-image-keyboard-response,229,1272716,learnblock1,743.5,img/planet6_left.png,6,Community 2,NA,TRUE,f,f,NA,NA,NA,1,6,"5,11,13,9,15,7,8,10,14,6,3,2,4,12,1"
15144,commdev-image-keyboard-response,230,1273983,learnblock1,727.3999996185303,img/planet10_left.png,10,Community 2,NA,TRUE,f,f,NA,NA,NA,1,6,"5,11,13,9,15,7,8,10,14,6,3,2,4,12,1"
15144,commdev-image-keyboard-response,231,1275244,learnblock1,644.7999992370605,img/planet14_left.png,14,Community 2,NA,TRUE,f,f,NA,NA,NA,1,6,"5,11,13,9,15,7,8,10,14,6,3,2,4,12,1"
15144,commdev-image-keyboard-response,232,1276501,learnblock1,668.8999996185303,img/planet8_left.png,8,Community 2,NA,TRUE,f,f,NA,NA,NA,1,6,"5,11,13,9,15,7,8,10,14,6,3,2,4,12,1"
15144,commdev-image-keyboard-response,233,1277770,learnblock1,617.5999984741211,img/planet6_left.png,6,Community 2,NA,TRUE,f,f,NA,NA,NA,1,6,"5,11,13,9,15,7,8,10,14,6,3,2,4,12,1"
15144,commdev-image-keyboard-response,234,1279033,learnblock1,601.2999992370605,img/planet7_left.png,7,Community 2,NA,TRUE,f,f,NA,NA,NA,1,6,"5,11,13,9,15,7,8,10,14,6,3,2,4,12,1"
15144,commdev-image-keyboard-response,235,1280294,learnblock1,751.6000003814697,img/planet6_left.png,6,Community 2,NA,TRUE,f,f,NA,NA,NA,1,6,"5,11,13,9,15,7,8,10,14,6,3,2,4,12,1"
15144,commdev-image-keyboard-response,236,1281552,learnblock1,638.3000011444092,img/planet8_right.png,8,Community 2,NA,TRUE,j,j,NA,NA,NA,1,6,"5,11,13,9,15,7,8,10,14,6,3,2,4,12,1"
15144,commdev-image-keyboard-response,237,1282806,learnblock1,624.6999988555908,img/planet14_right.png,14,Community 2,NA,TRUE,j,j,NA,NA,NA,1,6,"5,11,13,9,15,7,8,10,14,6,3,2,4,12,1"
15144,commdev-image-keyboard-response,238,1284060,learnblock1,589.3999996185303,img/planet8_right.png,8,Community 2,NA,TRUE,j,j,NA,NA,NA,1,6,"5,11,13,9,15,7,8,10,14,6,3,2,4,12,1"
15144,commdev-image-keyboard-response,239,1285318,learnblock1,679.1000003814697,img/planet10_left.png,10,Community 2,NA,TRUE,f,f,NA,NA,NA,1,6,"5,11,13,9,15,7,8,10,14,6,3,2,4,12,1"
15144,commdev-image-keyboard-response,240,1286578,learnblock1,565,img/planet8_left.png,8,Community 2,NA,TRUE,f,f,NA,NA,NA,1,6,"5,11,13,9,15,7,8,10,14,6,3,2,4,12,1"
15144,commdev-image-keyboard-response,241,1287839,learnblock1,696.3999996185303,img/planet6_right.png,6,Community 2,NA,TRUE,j,j,NA,NA,NA,1,6,"5,11,13,9,15,7,8,10,14,6,3,2,4,12,1"
15144,commdev-image-keyboard-response,242,1289113,learnblock1,622.2999992370605,img/planet10_left.png,10,Community 2,NA,TRUE,f,f,NA,NA,NA,1,6,"5,11,13,9,15,7,8,10,14,6,3,2,4,12,1"
15144,commdev-image-keyboard-response,243,1290371,learnblock1,457.3000011444092,img/planet2_left.png,2,Community 3,NA,TRUE,f,f,NA,NA,NA,1,6,"5,11,13,9,15,7,8,10,14,6,3,2,4,12,1"
15144,commdev-image-keyboard-response,244,1291630,learnblock1,549.1000003814697,img/planet12_left.png,12,Community 3,NA,TRUE,f,f,NA,NA,NA,1,6,"5,11,13,9,15,7,8,10,14,6,3,2,4,12,1"
15144,commdev-image-keyboard-response,245,1292891,learnblock1,623.7000007629395,img/planet3_right.png,3,Community 3,NA,TRUE,j,j,NA,NA,NA,1,6,"5,11,13,9,15,7,8,10,14,6,3,2,4,12,1"
15144,commdev-image-keyboard-response,246,1294147,learnblock1,711.5999984741211,img/planet4_left.png,4,Community 3,NA,TRUE,f,f,NA,NA,NA,1,6,"5,11,13,9,15,7,8,10,14,6,3,2,4,12,1"
15144,commdev-image-keyboard-response,247,1295403,learnblock1,645.2999992370605,img/planet12_left.png,12,Community 3,NA,TRUE,f,f,NA,NA,NA,1,6,"5,11,13,9,15,7,8,10,14,6,3,2,4,12,1"
15144,commdev-image-keyboard-response,248,1296658,learnblock1,519.6000003814697,img/planet2_left.png,2,Community 3,NA,TRUE,f,f,NA,NA,NA,1,6,"5,11,13,9,15,7,8,10,14,6,3,2,4,12,1"
15144,commdev-image-keyboard-response,249,1297910,learnblock1,419.9000015258789,img/planet10_left.png,10,Community 2,NA,TRUE,f,f,NA,NA,NA,1,6,"5,11,13,9,15,7,8,10,14,6,3,2,4,12,1"
15144,commdev-image-keyboard-response,250,1299165,learnblock1,555.7999992370605,img/planet6_left.png,6,Community 2,NA,TRUE,f,f,NA,NA,NA,1,6,"5,11,13,9,15,7,8,10,14,6,3,2,4,12,1"
15144,commdev-image-keyboard-response,251,1300430,learnblock1,609.6000003814697,img/planet10_right.png,10,Community 2,NA,TRUE,j,j,NA,NA,NA,1,6,"5,11,13,9,15,7,8,10,14,6,3,2,4,12,1"
15144,commdev-image-keyboard-response,252,1301692,learnblock1,581.3999996185303,img/planet8_left.png,8,Community 2,NA,TRUE,f,f,NA,NA,NA,1,6,"5,11,13,9,15,7,8,10,14,6,3,2,4,12,1"
15144,commdev-image-keyboard-response,253,1302953,learnblock1,731.8999996185303,img/planet14_left.png,14,Community 2,NA,TRUE,f,f,NA,NA,NA,1,6,"5,11,13,9,15,7,8,10,14,6,3,2,4,12,1"
15144,commdev-image-keyboard-response,254,1304209,learnblock1,690,img/planet7_right.png,7,Community 2,NA,TRUE,j,j,NA,NA,NA,1,6,"5,11,13,9,15,7,8,10,14,6,3,2,4,12,1"
15144,commdev-image-keyboard-response,255,1305472,learnblock1,758.1000003814697,img/planet8_left.png,8,Community 2,NA,TRUE,f,f,NA,NA,NA,1,6,"5,11,13,9,15,7,8,10,14,6,3,2,4,12,1"
15144,commdev-image-keyboard-response,256,1306736,learnblock1,626.3999996185303,img/planet10_right.png,10,Community 2,NA,TRUE,j,j,NA,NA,NA,1,6,"5,11,13,9,15,7,8,10,14,6,3,2,4,12,1"
15144,commdev-image-keyboard-response,257,1308004,learnblock1,684,img/planet14_right.png,14,Community 2,NA,TRUE,j,j,NA,NA,NA,1,6,"5,11,13,9,15,7,8,10,14,6,3,2,4,12,1"
15144,commdev-image-keyboard-response,258,1309279,learnblock1,739.2000007629395,img/planet8_right.png,8,Community 2,NA,TRUE,j,j,NA,NA,NA,1,6,"5,11,13,9,15,7,8,10,14,6,3,2,4,12,1"
15144,commdev-image-keyboard-response,259,1310543,learnblock1,776.2999992370605,img/planet6_right.png,6,Community 2,NA,TRUE,j,j,NA,NA,NA,1,6,"5,11,13,9,15,7,8,10,14,6,3,2,4,12,1"
15144,commdev-image-keyboard-response,260,1311799,learnblock1,628.1000003814697,img/planet10_left.png,10,Community 2,NA,TRUE,f,f,NA,NA,NA,1,6,"5,11,13,9,15,7,8,10,14,6,3,2,4,12,1"
15144,commdev-image-keyboard-response,261,1313062,learnblock1,739.8000011444092,img/planet2_left.png,2,Community 3,NA,TRUE,f,f,NA,NA,NA,1,6,"5,11,13,9,15,7,8,10,14,6,3,2,4,12,1"
15144,commdev-image-keyboard-response,262,1314329,learnblock1,470.1999988555908,img/planet10_left.png,10,Community 2,NA,TRUE,f,f,NA,NA,NA,1,6,"5,11,13,9,15,7,8,10,14,6,3,2,4,12,1"
15144,commdev-image-keyboard-response,263,1315588,learnblock1,450.79999923706055,img/planet14_left.png,14,Community 2,NA,TRUE,f,f,NA,NA,NA,1,6,"5,11,13,9,15,7,8,10,14,6,3,2,4,12,1"
15144,commdev-image-keyboard-response,264,1316854,learnblock1,538,img/planet6_right.png,6,Community 2,NA,FALSE,f,j,NA,NA,NA,1,6,"5,11,13,9,15,7,8,10,14,6,3,2,4,12,1"
15144,commdev-image-keyboard-response,265,1318107,learnblock1,678.2999992370605,img/planet10_left.png,10,Community 2,NA,TRUE,f,f,NA,NA,NA,1,6,"5,11,13,9,15,7,8,10,14,6,3,2,4,12,1"
15144,commdev-image-keyboard-response,266,1319364,learnblock1,716,img/planet8_left.png,8,Community 2,NA,TRUE,f,f,NA,NA,NA,1,6,"5,11,13,9,15,7,8,10,14,6,3,2,4,12,1"
15144,commdev-image-keyboard-response,267,1320626,learnblock1,727.6999988555908,img/planet10_left.png,10,Community 2,NA,TRUE,f,f,NA,NA,NA,1,6,"5,11,13,9,15,7,8,10,14,6,3,2,4,12,1"
15144,commdev-image-keyboard-response,268,1321879,learnblock1,558.4000015258789,img/planet14_right.png,14,Community 2,NA,TRUE,j,j,NA,NA,NA,1,6,"5,11,13,9,15,7,8,10,14,6,3,2,4,12,1"
15144,commdev-image-keyboard-response,269,1323132,learnblock1,571.3999996185303,img/planet7_right.png,7,Community 2,NA,TRUE,j,j,NA,NA,NA,1,6,"5,11,13,9,15,7,8,10,14,6,3,2,4,12,1"
15144,commdev-image-keyboard-response,270,1324387,learnblock1,628.5,img/planet14_right.png,14,Community 2,NA,TRUE,j,j,NA,NA,NA,1,6,"5,11,13,9,15,7,8,10,14,6,3,2,4,12,1"
15144,commdev-image-keyboard-response,271,1325644,learnblock1,660.6000003814697,img/planet6_left.png,6,Community 2,NA,TRUE,f,f,NA,NA,NA,1,6,"5,11,13,9,15,7,8,10,14,6,3,2,4,12,1"
15144,commdev-image-keyboard-response,272,1326909,learnblock1,781.2999992370605,img/planet7_left.png,7,Community 2,NA,TRUE,f,f,NA,NA,NA,1,6,"5,11,13,9,15,7,8,10,14,6,3,2,4,12,1"
15144,commdev-image-keyboard-response,273,1328169,learnblock1,744.3999996185303,img/planet6_right.png,6,Community 2,NA,TRUE,j,j,NA,NA,NA,1,6,"5,11,13,9,15,7,8,10,14,6,3,2,4,12,1"
15144,commdev-image-keyboard-response,274,1329429,learnblock1,758.1999988555908,img/planet7_left.png,7,Community 2,NA,TRUE,f,f,NA,NA,NA,1,6,"5,11,13,9,15,7,8,10,14,6,3,2,4,12,1"
15144,commdev-image-keyboard-response,275,1330687,learnblock1,764,img/planet8_right.png,8,Community 2,NA,TRUE,j,j,NA,NA,NA,1,6,"5,11,13,9,15,7,8,10,14,6,3,2,4,12,1"
15144,commdev-image-keyboard-response,276,1331953,learnblock1,579.3999996185303,img/planet14_right.png,14,Community 2,NA,TRUE,j,j,NA,NA,NA,1,6,"5,11,13,9,15,7,8,10,14,6,3,2,4,12,1"
15144,commdev-image-keyboard-response,277,1333210,learnblock1,674.7999992370605,img/planet7_right.png,7,Community 2,NA,TRUE,j,j,NA,NA,NA,1,6,"5,11,13,9,15,7,8,10,14,6,3,2,4,12,1"
15144,commdev-image-keyboard-response,278,1334478,learnblock1,814,img/planet14_right.png,14,Community 2,NA,TRUE,j,j,NA,NA,NA,1,6,"5,11,13,9,15,7,8,10,14,6,3,2,4,12,1"
15144,commdev-image-keyboard-response,279,1335737,learnblock1,786.1000003814697,img/planet7_right.png,7,Community 2,NA,TRUE,j,j,NA,NA,NA,1,6,"5,11,13,9,15,7,8,10,14,6,3,2,4,12,1"
15144,commdev-image-keyboard-response,280,1336995,learnblock1,766.7000007629395,img/planet9_left.png,9,Community 1,NA,TRUE,f,f,NA,NA,NA,1,6,"5,11,13,9,15,7,8,10,14,6,3,2,4,12,1"
15144,commdev-image-keyboard-response,281,1338261,learnblock1,721.5,img/planet7_right.png,7,Community 2,NA,TRUE,j,j,NA,NA,NA,1,6,"5,11,13,9,15,7,8,10,14,6,3,2,4,12,1"
15144,commdev-image-keyboard-response,282,1339515,learnblock1,791.5,img/planet9_left.png,9,Community 1,NA,TRUE,f,f,NA,NA,NA,1,6,"5,11,13,9,15,7,8,10,14,6,3,2,4,12,1"
15144,commdev-image-keyboard-response,283,1340778,learnblock1,1039.8999996185303,img/planet11_left.png,11,Community 1,NA,FALSE,j,f,NA,NA,NA,1,6,"5,11,13,9,15,7,8,10,14,6,3,2,4,12,1"
15144,commdev-image-keyboard-response,284,1342036,learnblock1,1191.1000003814697,img/planet15_left.png,15,Community 1,NA,TRUE,f,f,NA,NA,NA,1,6,"5,11,13,9,15,7,8,10,14,6,3,2,4,12,1"
15144,commdev-image-keyboard-response,285,1343292,learnblock1,848.3999996185303,img/planet11_right.png,11,Community 1,NA,TRUE,j,j,NA,NA,NA,1,6,"5,11,13,9,15,7,8,10,14,6,3,2,4,12,1"
15144,commdev-image-keyboard-response,286,1344553,learnblock1,613.8999996185303,img/planet13_left.png,13,Community 1,NA,TRUE,f,f,NA,NA,NA,1,6,"5,11,13,9,15,7,8,10,14,6,3,2,4,12,1"
15144,commdev-image-keyboard-response,287,1345813,learnblock1,641.0999984741211,img/planet15_left.png,15,Community 1,NA,TRUE,f,f,NA,NA,NA,1,6,"5,11,13,9,15,7,8,10,14,6,3,2,4,12,1"
15144,commdev-image-keyboard-response,288,1347073,learnblock1,640.2999992370605,img/planet3_left.png,3,Community 3,NA,TRUE,f,f,NA,NA,NA,1,6,"5,11,13,9,15,7,8,10,14,6,3,2,4,12,1"
15144,commdev-image-keyboard-response,289,1348344,learnblock1,612.6000003814697,img/planet12_right.png,12,Community 3,NA,TRUE,j,j,NA,NA,NA,1,6,"5,11,13,9,15,7,8,10,14,6,3,2,4,12,1"
15144,commdev-image-keyboard-response,290,1349612,learnblock1,712.5,img/planet1_left.png,1,Community 3,NA,TRUE,f,f,NA,NA,NA,1,6,"5,11,13,9,15,7,8,10,14,6,3,2,4,12,1"
15144,commdev-image-keyboard-response,291,1350872,learnblock1,923.8000011444092,img/planet12_left.png,12,Community 3,NA,TRUE,f,f,NA,NA,NA,1,6,"5,11,13,9,15,7,8,10,14,6,3,2,4,12,1"
15144,commdev-image-keyboard-response,292,1352134,learnblock1,788.6999988555908,img/planet2_left.png,2,Community 3,NA,TRUE,f,f,NA,NA,NA,1,6,"5,11,13,9,15,7,8,10,14,6,3,2,4,12,1"
15144,commdev-image-keyboard-response,293,1353394,learnblock1,622.6000003814697,img/planet10_right.png,10,Community 2,NA,TRUE,j,j,NA,NA,NA,1,6,"5,11,13,9,15,7,8,10,14,6,3,2,4,12,1"
15144,commdev-image-keyboard-response,294,1354653,learnblock1,616.3999996185303,img/planet6_left.png,6,Community 2,NA,TRUE,f,f,NA,NA,NA,1,6,"5,11,13,9,15,7,8,10,14,6,3,2,4,12,1"
15144,commdev-image-keyboard-response,295,1355913,learnblock1,512.1999988555908,img/planet10_right.png,10,Community 2,NA,TRUE,j,j,NA,NA,NA,1,6,"5,11,13,9,15,7,8,10,14,6,3,2,4,12,1"
15144,commdev-image-keyboard-response,296,1357169,learnblock1,634.3000011444092,img/planet6_left.png,6,Community 2,NA,TRUE,f,f,NA,NA,NA,1,6,"5,11,13,9,15,7,8,10,14,6,3,2,4,12,1"
15144,commdev-image-keyboard-response,297,1358427,learnblock1,892.5,img/planet7_left.png,7,Community 2,NA,FALSE,j,f,NA,NA,NA,1,6,"5,11,13,9,15,7,8,10,14,6,3,2,4,12,1"
15144,commdev-image-keyboard-response,298,1359681,learnblock1,672.1999988555908,img/planet9_left.png,9,Community 1,NA,TRUE,f,f,NA,NA,NA,1,6,"5,11,13,9,15,7,8,10,14,6,3,2,4,12,1"
15144,commdev-image-keyboard-response,299,1360942,learnblock1,571.0999984741211,img/planet13_left.png,13,Community 1,NA,TRUE,f,f,NA,NA,NA,1,6,"5,11,13,9,15,7,8,10,14,6,3,2,4,12,1"
15144,commdev-image-keyboard-response,300,1362201,learnblock1,652.7000007629395,img/planet9_right.png,9,Community 1,NA,TRUE,j,j,NA,NA,NA,1,6,"5,11,13,9,15,7,8,10,14,6,3,2,4,12,1"
15144,commdev-image-keyboard-response,301,1363481,learnblock1,728.2000007629395,img/planet13_right.png,13,Community 1,NA,TRUE,j,j,NA,NA,NA,1,6,"5,11,13,9,15,7,8,10,14,6,3,2,4,12,1"
15144,commdev-image-keyboard-response,302,1364746,learnblock1,589.6000003814697,img/planet5_left.png,5,Community 1,NA,TRUE,f,f,NA,NA,NA,1,6,"5,11,13,9,15,7,8,10,14,6,3,2,4,12,1"
15144,commdev-image-keyboard-response,303,1366006,learnblock1,745.1000003814697,img/planet11_left.png,11,Community 1,NA,TRUE,f,f,NA,NA,NA,1,6,"5,11,13,9,15,7,8,10,14,6,3,2,4,12,1"
15144,commdev-image-keyboard-response,304,1367265,learnblock1,null,img/planet13_left.png,13,Community 1,NA,FALSE,null,f,NA,NA,NA,1,6,"5,11,13,9,15,7,8,10,14,6,3,2,4,12,1"
15144,commdev-image-keyboard-response,305,1368529,learnblock1,90,img/planet5_left.png,5,Community 1,NA,TRUE,f,f,NA,NA,NA,1,6,"5,11,13,9,15,7,8,10,14,6,3,2,4,12,1"
15144,commdev-image-keyboard-response,306,1369789,learnblock1,615.3000011444092,img/planet11_right.png,11,Community 1,NA,TRUE,j,j,NA,NA,NA,1,6,"5,11,13,9,15,7,8,10,14,6,3,2,4,12,1"
15144,commdev-image-keyboard-response,307,1371050,learnblock1,616.7999992370605,img/planet13_left.png,13,Community 1,NA,TRUE,f,f,NA,NA,NA,1,6,"5,11,13,9,15,7,8,10,14,6,3,2,4,12,1"
15144,commdev-image-keyboard-response,308,1372308,learnblock1,605.2999992370605,img/planet5_right.png,5,Community 1,NA,TRUE,j,j,NA,NA,NA,1,6,"5,11,13,9,15,7,8,10,14,6,3,2,4,12,1"
15144,commdev-image-keyboard-response,309,1373568,learnblock1,707.5,img/planet13_left.png,13,Community 1,NA,TRUE,f,f,NA,NA,NA,1,6,"5,11,13,9,15,7,8,10,14,6,3,2,4,12,1"
15144,commdev-image-keyboard-response,310,1374826,learnblock1,566.7999992370605,img/planet15_right.png,15,Community 1,NA,FALSE,f,j,NA,NA,NA,1,6,"5,11,13,9,15,7,8,10,14,6,3,2,4,12,1"
15144,commdev-image-keyboard-response,311,1376091,learnblock1,676.2000007629395,img/planet13_left.png,13,Community 1,NA,TRUE,f,f,NA,NA,NA,1,6,"5,11,13,9,15,7,8,10,14,6,3,2,4,12,1"
15144,commdev-image-keyboard-response,312,1377347,learnblock1,537.5,img/planet15_right.png,15,Community 1,NA,TRUE,j,j,NA,NA,NA,1,6,"5,11,13,9,15,7,8,10,14,6,3,2,4,12,1"
15144,commdev-image-keyboard-response,313,1378612,learnblock1,652.2000007629395,img/planet3_right.png,3,Community 3,NA,TRUE,j,j,NA,NA,NA,1,6,"5,11,13,9,15,7,8,10,14,6,3,2,4,12,1"
15144,commdev-image-keyboard-response,314,1379868,learnblock1,766.1000003814697,img/planet1_left.png,1,Community 3,NA,TRUE,f,f,NA,NA,NA,1,6,"5,11,13,9,15,7,8,10,14,6,3,2,4,12,1"
15144,commdev-image-keyboard-response,315,1381123,learnblock1,938.8000011444092,img/planet2_right.png,2,Community 3,NA,TRUE,j,j,NA,NA,NA,1,6,"5,11,13,9,15,7,8,10,14,6,3,2,4,12,1"
15144,commdev-image-keyboard-response,316,1382385,learnblock1,689.2999992370605,img/planet4_left.png,4,Community 3,NA,TRUE,f,f,NA,NA,NA,1,6,"5,11,13,9,15,7,8,10,14,6,3,2,4,12,1"
15144,commdev-image-keyboard-response,317,1383647,learnblock1,716.3000011444092,img/planet12_left.png,12,Community 3,NA,TRUE,f,f,NA,NA,NA,1,6,"5,11,13,9,15,7,8,10,14,6,3,2,4,12,1"
15144,commdev-image-keyboard-response,318,1384913,learnblock1,574.5,img/planet2_right.png,2,Community 3,NA,TRUE,j,j,NA,NA,NA,1,6,"5,11,13,9,15,7,8,10,14,6,3,2,4,12,1"
15144,commdev-image-keyboard-response,319,1386166,learnblock1,566.7999992370605,img/planet10_left.png,10,Community 2,NA,TRUE,f,f,NA,NA,NA,1,6,"5,11,13,9,15,7,8,10,14,6,3,2,4,12,1"
15144,commdev-image-keyboard-response,320,1387433,learnblock1,637.7999992370605,img/planet6_left.png,6,Community 2,NA,TRUE,f,f,NA,NA,NA,1,6,"5,11,13,9,15,7,8,10,14,6,3,2,4,12,1"
15144,commdev-image-keyboard-response,321,1388697,learnblock1,715.7999992370605,img/planet8_left.png,8,Community 2,NA,TRUE,f,f,NA,NA,NA,1,6,"5,11,13,9,15,7,8,10,14,6,3,2,4,12,1"
15144,commdev-image-keyboard-response,322,1389963,learnblock1,568.7000007629395,img/planet6_left.png,6,Community 2,NA,TRUE,f,f,NA,NA,NA,1,6,"5,11,13,9,15,7,8,10,14,6,3,2,4,12,1"
15144,commdev-image-keyboard-response,323,1391231,learnblock1,860.2000007629395,img/planet8_left.png,8,Community 2,NA,TRUE,f,f,NA,NA,NA,1,6,"5,11,13,9,15,7,8,10,14,6,3,2,4,12,1"
15144,commdev-image-keyboard-response,324,1392512,learnblock1,616.8999996185303,img/planet10_right.png,10,Community 2,NA,TRUE,j,j,NA,NA,NA,1,6,"5,11,13,9,15,7,8,10,14,6,3,2,4,12,1"
15144,commdev-image-keyboard-response,325,1393766,learnblock1,638.8999996185303,img/planet2_left.png,2,Community 3,NA,TRUE,f,f,NA,NA,NA,1,6,"5,11,13,9,15,7,8,10,14,6,3,2,4,12,1"
15144,commdev-image-keyboard-response,326,1395029,learnblock1,774.2000007629395,img/planet12_left.png,12,Community 3,NA,TRUE,f,f,NA,NA,NA,1,6,"5,11,13,9,15,7,8,10,14,6,3,2,4,12,1"
15144,commdev-image-keyboard-response,327,1396285,learnblock1,712.5,img/planet4_left.png,4,Community 3,NA,TRUE,f,f,NA,NA,NA,1,6,"5,11,13,9,15,7,8,10,14,6,3,2,4,12,1"
15144,commdev-image-keyboard-response,328,1397555,learnblock1,705.2999992370605,img/planet12_right.png,12,Community 3,NA,TRUE,j,j,NA,NA,NA,1,6,"5,11,13,9,15,7,8,10,14,6,3,2,4,12,1"
15144,commdev-image-keyboard-response,329,1398812,learnblock1,1091,img/planet1_right.png,1,Community 3,NA,TRUE,j,j,NA,NA,NA,1,6,"5,11,13,9,15,7,8,10,14,6,3,2,4,12,1"
15144,commdev-image-keyboard-response,330,1400071,learnblock1,605.1000003814697,img/planet12_right.png,12,Community 3,NA,TRUE,j,j,NA,NA,NA,1,6,"5,11,13,9,15,7,8,10,14,6,3,2,4,12,1"
15144,commdev-image-keyboard-response,331,1401326,learnblock1,584.8999996185303,img/planet4_left.png,4,Community 3,NA,TRUE,f,f,NA,NA,NA,1,6,"5,11,13,9,15,7,8,10,14,6,3,2,4,12,1"
15144,commdev-image-keyboard-response,332,1402584,learnblock1,584.7999992370605,img/planet1_right.png,1,Community 3,NA,TRUE,j,j,NA,NA,NA,1,6,"5,11,13,9,15,7,8,10,14,6,3,2,4,12,1"
15144,commdev-image-keyboard-response,333,1403855,learnblock1,596,img/planet4_left.png,4,Community 3,NA,TRUE,f,f,NA,NA,NA,1,6,"5,11,13,9,15,7,8,10,14,6,3,2,4,12,1"
15144,commdev-image-keyboard-response,334,1405129,learnblock1,765,img/planet3_right.png,3,Community 3,NA,TRUE,j,j,NA,NA,NA,1,6,"5,11,13,9,15,7,8,10,14,6,3,2,4,12,1"
15144,commdev-image-keyboard-response,335,1406396,learnblock1,709.3000011444092,img/planet1_right.png,1,Community 3,NA,TRUE,j,j,NA,NA,NA,1,6,"5,11,13,9,15,7,8,10,14,6,3,2,4,12,1"
15144,commdev-image-keyboard-response,336,1407651,learnblock1,701.2000007629395,img/planet4_right.png,4,Community 3,NA,TRUE,j,j,NA,NA,NA,1,6,"5,11,13,9,15,7,8,10,14,6,3,2,4,12,1"
15144,commdev-image-keyboard-response,337,1408905,learnblock1,644.2000007629395,img/planet12_right.png,12,Community 3,NA,TRUE,j,j,NA,NA,NA,1,6,"5,11,13,9,15,7,8,10,14,6,3,2,4,12,1"
15144,commdev-image-keyboard-response,338,1410165,learnblock1,643,img/planet3_right.png,3,Community 3,NA,TRUE,j,j,NA,NA,NA,1,6,"5,11,13,9,15,7,8,10,14,6,3,2,4,12,1"
15144,commdev-image-keyboard-response,339,1411419,learnblock1,644.1999988555908,img/planet15_left.png,15,Community 1,NA,TRUE,f,f,NA,NA,NA,1,6,"5,11,13,9,15,7,8,10,14,6,3,2,4,12,1"
15144,commdev-image-keyboard-response,340,1412679,learnblock1,726.8999996185303,img/planet11_left.png,11,Community 1,NA,TRUE,f,f,NA,NA,NA,1,6,"5,11,13,9,15,7,8,10,14,6,3,2,4,12,1"
15144,commdev-image-keyboard-response,341,1413933,learnblock1,502,img/planet15_left.png,15,Community 1,NA,TRUE,f,f,NA,NA,NA,1,6,"5,11,13,9,15,7,8,10,14,6,3,2,4,12,1"
15144,commdev-image-keyboard-response,342,1415187,learnblock1,590.8999996185303,img/planet5_left.png,5,Community 1,NA,TRUE,f,f,NA,NA,NA,1,6,"5,11,13,9,15,7,8,10,14,6,3,2,4,12,1"
15144,commdev-image-keyboard-response,343,1416439,learnblock1,620.5,img/planet9_right.png,9,Community 1,NA,TRUE,j,j,NA,NA,NA,1,6,"5,11,13,9,15,7,8,10,14,6,3,2,4,12,1"
15144,commdev-image-keyboard-response,344,1417695,learnblock1,727.2999992370605,img/planet7_left.png,7,Community 2,NA,TRUE,f,f,NA,NA,NA,1,6,"5,11,13,9,15,7,8,10,14,6,3,2,4,12,1"
15144,commdev-image-keyboard-response,345,1418954,learnblock1,635.8000011444092,img/planet9_right.png,9,Community 1,NA,TRUE,j,j,NA,NA,NA,1,6,"5,11,13,9,15,7,8,10,14,6,3,2,4,12,1"
15144,commdev-image-keyboard-response,346,1420210,learnblock1,787.8999996185303,img/planet7_left.png,7,Community 2,NA,TRUE,f,f,NA,NA,NA,1,6,"5,11,13,9,15,7,8,10,14,6,3,2,4,12,1"
15144,commdev-image-keyboard-response,347,1421465,learnblock1,930.6000003814697,img/planet14_right.png,14,Community 2,NA,FALSE,f,j,NA,NA,NA,1,6,"5,11,13,9,15,7,8,10,14,6,3,2,4,12,1"
15144,commdev-image-keyboard-response,348,1422721,learnblock1,906.1000003814697,img/planet6_right.png,6,Community 2,NA,TRUE,j,j,NA,NA,NA,1,6,"5,11,13,9,15,7,8,10,14,6,3,2,4,12,1"
15144,commdev-image-keyboard-response,349,1423977,learnblock1,729.5999984741211,img/planet10_left.png,10,Community 2,NA,TRUE,f,f,NA,NA,NA,1,6,"5,11,13,9,15,7,8,10,14,6,3,2,4,12,1"
15144,commdev-image-keyboard-response,350,1425231,learnblock1,1172,img/planet8_left.png,8,Community 2,NA,TRUE,f,f,NA,NA,NA,1,6,"5,11,13,9,15,7,8,10,14,6,3,2,4,12,1"
15144,commdev-image-keyboard-response,351,1426498,learnblock1,620.6000003814697,img/planet14_right.png,14,Community 2,NA,TRUE,j,j,NA,NA,NA,1,6,"5,11,13,9,15,7,8,10,14,6,3,2,4,12,1"
15144,commdev-image-keyboard-response,352,1427754,learnblock1,507.8999996185303,img/planet8_left.png,8,Community 2,NA,TRUE,f,f,NA,NA,NA,1,6,"5,11,13,9,15,7,8,10,14,6,3,2,4,12,1"
15144,commdev-image-keyboard-response,353,1429015,learnblock1,878.3000011444092,img/planet6_left.png,6,Community 2,NA,TRUE,f,f,NA,NA,NA,1,6,"5,11,13,9,15,7,8,10,14,6,3,2,4,12,1"
15144,commdev-image-keyboard-response,354,1430281,learnblock1,1191.6999988555908,img/planet10_left.png,10,Community 2,NA,FALSE,j,f,NA,NA,NA,1,6,"5,11,13,9,15,7,8,10,14,6,3,2,4,12,1"
15144,commdev-image-keyboard-response,355,1431548,learnblock1,1078.3000011444092,img/planet8_left.png,8,Community 2,NA,TRUE,f,f,NA,NA,NA,1,6,"5,11,13,9,15,7,8,10,14,6,3,2,4,12,1"
15144,commdev-image-keyboard-response,356,1432803,learnblock1,634.1999988555908,img/planet14_left.png,14,Community 2,NA,TRUE,f,f,NA,NA,NA,1,6,"5,11,13,9,15,7,8,10,14,6,3,2,4,12,1"
15144,commdev-image-keyboard-response,357,1434057,learnblock1,586.6000003814697,img/planet8_left.png,8,Community 2,NA,TRUE,f,f,NA,NA,NA,1,6,"5,11,13,9,15,7,8,10,14,6,3,2,4,12,1"
15144,commdev-image-keyboard-response,358,1435313,learnblock1,530.1000003814697,img/planet6_left.png,6,Community 2,NA,TRUE,f,f,NA,NA,NA,1,6,"5,11,13,9,15,7,8,10,14,6,3,2,4,12,1"
15144,commdev-image-keyboard-response,359,1436571,learnblock1,634.0999984741211,img/planet8_left.png,8,Community 2,NA,TRUE,f,f,NA,NA,NA,1,6,"5,11,13,9,15,7,8,10,14,6,3,2,4,12,1"
15144,commdev-image-keyboard-response,360,1437831,learnblock1,634.6000003814697,img/planet14_left.png,14,Community 2,NA,TRUE,f,f,NA,NA,NA,1,6,"5,11,13,9,15,7,8,10,14,6,3,2,4,12,1"
15144,commdev-image-keyboard-response,361,1439084,learnblock1,551.7999992370605,img/planet10_left.png,10,Community 2,NA,TRUE,f,f,NA,NA,NA,1,6,"5,11,13,9,15,7,8,10,14,6,3,2,4,12,1"
15144,commdev-image-keyboard-response,362,1440343,learnblock1,583.8999996185303,img/planet8_left.png,8,Community 2,NA,TRUE,f,f,NA,NA,NA,1,6,"5,11,13,9,15,7,8,10,14,6,3,2,4,12,1"
15144,commdev-image-keyboard-response,363,1441598,learnblock1,572.4000015258789,img/planet7_left.png,7,Community 2,NA,TRUE,f,f,NA,NA,NA,1,6,"5,11,13,9,15,7,8,10,14,6,3,2,4,12,1"
15144,commdev-image-keyboard-response,364,1442855,learnblock1,589.1000003814697,img/planet9_right.png,9,Community 1,NA,TRUE,j,j,NA,NA,NA,1,6,"5,11,13,9,15,7,8,10,14,6,3,2,4,12,1"
15144,commdev-image-keyboard-response,365,1444111,learnblock1,749.7000007629395,img/planet5_left.png,5,Community 1,NA,TRUE,f,f,NA,NA,NA,1,6,"5,11,13,9,15,7,8,10,14,6,3,2,4,12,1"
15144,commdev-image-keyboard-response,366,1445374,learnblock1,829.8000011444092,img/planet11_left.png,11,Community 1,NA,TRUE,f,f,NA,NA,NA,1,6,"5,11,13,9,15,7,8,10,14,6,3,2,4,12,1"
15144,commdev-image-keyboard-response,367,1446638,learnblock1,486,img/planet9_right.png,9,Community 1,NA,TRUE,j,j,NA,NA,NA,1,6,"5,11,13,9,15,7,8,10,14,6,3,2,4,12,1"
15144,commdev-image-keyboard-response,368,1447894,learnblock1,556,img/planet13_left.png,13,Community 1,NA,TRUE,f,f,NA,NA,NA,1,6,"5,11,13,9,15,7,8,10,14,6,3,2,4,12,1"
15144,commdev-image-keyboard-response,369,1449156,learnblock1,710.6999988555908,img/planet11_right.png,11,Community 1,NA,TRUE,j,j,NA,NA,NA,1,6,"5,11,13,9,15,7,8,10,14,6,3,2,4,12,1"
15144,commdev-image-keyboard-response,370,1450414,learnblock1,639.6000003814697,img/planet15_left.png,15,Community 1,NA,TRUE,f,f,NA,NA,NA,1,6,"5,11,13,9,15,7,8,10,14,6,3,2,4,12,1"
15144,commdev-image-keyboard-response,371,1451668,learnblock1,681.1000003814697,img/planet13_right.png,13,Community 1,NA,TRUE,j,j,NA,NA,NA,1,6,"5,11,13,9,15,7,8,10,14,6,3,2,4,12,1"
15144,commdev-image-keyboard-response,372,1452930,learnblock1,734.8000011444092,img/planet11_right.png,11,Community 1,NA,TRUE,j,j,NA,NA,NA,1,6,"5,11,13,9,15,7,8,10,14,6,3,2,4,12,1"
15144,commdev-image-keyboard-response,373,1454197,learnblock1,604.7999992370605,img/planet13_right.png,13,Community 1,NA,TRUE,j,j,NA,NA,NA,1,6,"5,11,13,9,15,7,8,10,14,6,3,2,4,12,1"
15144,commdev-image-keyboard-response,374,1455450,learnblock1,690.2000007629395,img/planet5_left.png,5,Community 1,NA,TRUE,f,f,NA,NA,NA,1,6,"5,11,13,9,15,7,8,10,14,6,3,2,4,12,1"
15144,commdev-image-keyboard-response,375,1456721,learnblock1,615.8999996185303,img/planet9_right.png,9,Community 1,NA,TRUE,j,j,NA,NA,NA,1,6,"5,11,13,9,15,7,8,10,14,6,3,2,4,12,1"
15144,commdev-image-keyboard-response,376,1457980,learnblock1,586.8999996185303,img/planet5_left.png,5,Community 1,NA,TRUE,f,f,NA,NA,NA,1,6,"5,11,13,9,15,7,8,10,14,6,3,2,4,12,1"
15144,commdev-image-keyboard-response,377,1459238,learnblock1,824.7999992370605,img/planet9_left.png,9,Community 1,NA,TRUE,f,f,NA,NA,NA,1,6,"5,11,13,9,15,7,8,10,14,6,3,2,4,12,1"
15144,commdev-image-keyboard-response,378,1460492,learnblock1,765.8999996185303,img/planet11_left.png,11,Community 1,NA,TRUE,f,f,NA,NA,NA,1,6,"5,11,13,9,15,7,8,10,14,6,3,2,4,12,1"
15144,commdev-image-keyboard-response,379,1461749,learnblock1,719.7000007629395,img/planet9_left.png,9,Community 1,NA,TRUE,f,f,NA,NA,NA,1,6,"5,11,13,9,15,7,8,10,14,6,3,2,4,12,1"
15144,commdev-image-keyboard-response,380,1463016,learnblock1,746,img/planet7_right.png,7,Community 2,NA,TRUE,j,j,NA,NA,NA,1,6,"5,11,13,9,15,7,8,10,14,6,3,2,4,12,1"
15144,commdev-image-keyboard-response,381,1464283,learnblock1,803.6999988555908,img/planet14_left.png,14,Community 2,NA,TRUE,f,f,NA,NA,NA,1,6,"5,11,13,9,15,7,8,10,14,6,3,2,4,12,1"
15144,commdev-image-keyboard-response,382,1465543,learnblock1,1030.5,img/planet8_left.png,8,Community 2,NA,TRUE,f,f,NA,NA,NA,1,6,"5,11,13,9,15,7,8,10,14,6,3,2,4,12,1"
15144,commdev-image-keyboard-response,383,1466802,learnblock1,null,img/planet6_left.png,6,Community 2,NA,FALSE,null,f,NA,NA,NA,1,6,"5,11,13,9,15,7,8,10,14,6,3,2,4,12,1"
15144,commdev-image-keyboard-response,384,1468063,learnblock1,130,img/planet8_left.png,8,Community 2,NA,TRUE,f,f,NA,NA,NA,1,6,"5,11,13,9,15,7,8,10,14,6,3,2,4,12,1"
15144,commdev-image-keyboard-response,385,1469321,learnblock1,802.3999996185303,img/planet10_right.png,10,Community 2,NA,TRUE,j,j,NA,NA,NA,1,6,"5,11,13,9,15,7,8,10,14,6,3,2,4,12,1"
15144,commdev-image-keyboard-response,386,1470575,learnblock1,1183,img/planet6_left.png,6,Community 2,NA,TRUE,f,f,NA,NA,NA,1,6,"5,11,13,9,15,7,8,10,14,6,3,2,4,12,1"
15144,commdev-image-keyboard-response,387,1471834,learnblock1,671.3999996185303,img/planet10_left.png,10,Community 2,NA,TRUE,f,f,NA,NA,NA,1,6,"5,11,13,9,15,7,8,10,14,6,3,2,4,12,1"
15144,commdev-image-keyboard-response,388,1473091,learnblock1,543.7000007629395,img/planet6_left.png,6,Community 2,NA,TRUE,f,f,NA,NA,NA,1,6,"5,11,13,9,15,7,8,10,14,6,3,2,4,12,1"
15144,commdev-image-keyboard-response,389,1474360,learnblock1,495.6000003814697,img/planet14_left.png,14,Community 2,NA,TRUE,f,f,NA,NA,NA,1,6,"5,11,13,9,15,7,8,10,14,6,3,2,4,12,1"
15144,commdev-image-keyboard-response,390,1475621,learnblock1,437.1000003814697,img/planet8_right.png,8,Community 2,NA,TRUE,j,j,NA,NA,NA,1,6,"5,11,13,9,15,7,8,10,14,6,3,2,4,12,1"
15144,commdev-image-keyboard-response,391,1476888,learnblock1,529.3999996185303,img/planet10_left.png,10,Community 2,NA,TRUE,f,f,NA,NA,NA,1,6,"5,11,13,9,15,7,8,10,14,6,3,2,4,12,1"
15144,commdev-image-keyboard-response,392,1478154,learnblock1,582.4000015258789,img/planet14_left.png,14,Community 2,NA,TRUE,f,f,NA,NA,NA,1,6,"5,11,13,9,15,7,8,10,14,6,3,2,4,12,1"
15144,commdev-image-keyboard-response,393,1479411,learnblock1,556.8000011444092,img/planet7_left.png,7,Community 2,NA,TRUE,f,f,NA,NA,NA,1,6,"5,11,13,9,15,7,8,10,14,6,3,2,4,12,1"
15144,commdev-image-keyboard-response,394,1480664,learnblock1,598.6000003814697,img/planet9_right.png,9,Community 1,NA,TRUE,j,j,NA,NA,NA,1,6,"5,11,13,9,15,7,8,10,14,6,3,2,4,12,1"
15144,commdev-image-keyboard-response,395,1481920,learnblock1,816,img/planet11_right.png,11,Community 1,NA,TRUE,j,j,NA,NA,NA,1,6,"5,11,13,9,15,7,8,10,14,6,3,2,4,12,1"
15144,commdev-image-keyboard-response,396,1483188,learnblock1,554.8999996185303,img/planet9_left.png,9,Community 1,NA,TRUE,f,f,NA,NA,NA,1,6,"5,11,13,9,15,7,8,10,14,6,3,2,4,12,1"
15144,commdev-image-keyboard-response,397,1484446,learnblock1,901,img/planet5_right.png,5,Community 1,NA,TRUE,j,j,NA,NA,NA,1,6,"5,11,13,9,15,7,8,10,14,6,3,2,4,12,1"
15144,commdev-image-keyboard-response,398,1485703,learnblock1,518.1999988555908,img/planet15_left.png,15,Community 1,NA,TRUE,f,f,NA,NA,NA,1,6,"5,11,13,9,15,7,8,10,14,6,3,2,4,12,1"
15144,commdev-image-keyboard-response,399,1486956,learnblock1,788,img/planet5_right.png,5,Community 1,NA,TRUE,j,j,NA,NA,NA,1,6,"5,11,13,9,15,7,8,10,14,6,3,2,4,12,1"
15144,commdev-image-keyboard-response,400,1488222,learnblock1,959.2999992370605,img/planet15_right.png,15,Community 1,NA,FALSE,f,j,NA,NA,NA,1,6,"5,11,13,9,15,7,8,10,14,6,3,2,4,12,1"
15144,commdev-image-keyboard-response,401,1489485,learnblock1,684.3000011444092,img/planet13_right.png,13,Community 1,NA,TRUE,j,j,NA,NA,NA,1,6,"5,11,13,9,15,7,8,10,14,6,3,2,4,12,1"
15144,commdev-image-keyboard-response,402,1490746,learnblock1,538.6999988555908,img/planet9_right.png,9,Community 1,NA,TRUE,j,j,NA,NA,NA,1,6,"5,11,13,9,15,7,8,10,14,6,3,2,4,12,1"
15144,commdev-image-keyboard-response,403,1492012,learnblock1,586.8999996185303,img/planet7_right.png,7,Community 2,NA,TRUE,j,j,NA,NA,NA,1,6,"5,11,13,9,15,7,8,10,14,6,3,2,4,12,1"
15144,commdev-image-keyboard-response,404,1493271,learnblock1,580.1000003814697,img/planet14_right.png,14,Community 2,NA,TRUE,j,j,NA,NA,NA,1,6,"5,11,13,9,15,7,8,10,14,6,3,2,4,12,1"
15144,commdev-image-keyboard-response,405,1494529,learnblock1,712,img/planet6_left.png,6,Community 2,NA,TRUE,f,f,NA,NA,NA,1,6,"5,11,13,9,15,7,8,10,14,6,3,2,4,12,1"
15144,commdev-image-keyboard-response,406,1495804,learnblock1,571.8999996185303,img/planet14_right.png,14,Community 2,NA,TRUE,j,j,NA,NA,NA,1,6,"5,11,13,9,15,7,8,10,14,6,3,2,4,12,1"
15144,commdev-image-keyboard-response,407,1497059,learnblock1,960.2999992370605,img/planet8_left.png,8,Community 2,NA,FALSE,j,f,NA,NA,NA,1,6,"5,11,13,9,15,7,8,10,14,6,3,2,4,12,1"
15144,commdev-image-keyboard-response,408,1498321,learnblock1,700.1000003814697,img/planet10_left.png,10,Community 2,NA,TRUE,f,f,NA,NA,NA,1,6,"5,11,13,9,15,7,8,10,14,6,3,2,4,12,1"
15144,commdev-image-keyboard-response,409,1499583,learnblock1,620,img/planet2_right.png,2,Community 3,NA,TRUE,j,j,NA,NA,NA,1,6,"5,11,13,9,15,7,8,10,14,6,3,2,4,12,1"
15144,commdev-image-keyboard-response,410,1500841,learnblock1,601.2000007629395,img/planet4_left.png,4,Community 3,NA,TRUE,f,f,NA,NA,NA,1,6,"5,11,13,9,15,7,8,10,14,6,3,2,4,12,1"
15144,commdev-image-keyboard-response,411,1502095,learnblock1,662.5999984741211,img/planet3_left.png,3,Community 3,NA,TRUE,f,f,NA,NA,NA,1,6,"5,11,13,9,15,7,8,10,14,6,3,2,4,12,1"
15144,commdev-image-keyboard-response,412,1503352,learnblock1,1082,img/planet1_right.png,1,Community 3,NA,TRUE,j,j,NA,NA,NA,1,6,"5,11,13,9,15,7,8,10,14,6,3,2,4,12,1"
15144,commdev-image-keyboard-response,413,1504615,learnblock1,592.8000011444092,img/planet3_right.png,3,Community 3,NA,TRUE,j,j,NA,NA,NA,1,6,"5,11,13,9,15,7,8,10,14,6,3,2,4,12,1"
15144,commdev-image-keyboard-response,414,1505878,learnblock1,616.8999996185303,img/planet1_right.png,1,Community 3,NA,TRUE,j,j,NA,NA,NA,1,6,"5,11,13,9,15,7,8,10,14,6,3,2,4,12,1"
15144,commdev-image-keyboard-response,415,1507137,learnblock1,554.1000003814697,img/planet4_right.png,4,Community 3,NA,TRUE,j,j,NA,NA,NA,1,6,"5,11,13,9,15,7,8,10,14,6,3,2,4,12,1"
15144,commdev-image-keyboard-response,416,1508394,learnblock1,555.2000007629395,img/planet12_left.png,12,Community 3,NA,TRUE,f,f,NA,NA,NA,1,6,"5,11,13,9,15,7,8,10,14,6,3,2,4,12,1"
15144,commdev-image-keyboard-response,417,1509651,learnblock1,657.2000007629395,img/planet2_right.png,2,Community 3,NA,TRUE,j,j,NA,NA,NA,1,6,"5,11,13,9,15,7,8,10,14,6,3,2,4,12,1"
15144,commdev-image-keyboard-response,418,1510911,learnblock1,658.7000007629395,img/planet12_left.png,12,Community 3,NA,TRUE,f,f,NA,NA,NA,1,6,"5,11,13,9,15,7,8,10,14,6,3,2,4,12,1"
15144,commdev-image-keyboard-response,419,1512166,learnblock1,805.1000003814697,img/planet4_right.png,4,Community 3,NA,TRUE,j,j,NA,NA,NA,1,6,"5,11,13,9,15,7,8,10,14,6,3,2,4,12,1"
15144,commdev-image-keyboard-response,420,1513423,learnblock1,1055.7000007629395,img/planet3_left.png,3,Community 3,NA,TRUE,f,f,NA,NA,NA,1,6,"5,11,13,9,15,7,8,10,14,6,3,2,4,12,1"
15144,commdev-image-keyboard-response,421,1514686,learnblock1,595.7999992370605,img/planet1_left.png,1,Community 3,NA,TRUE,f,f,NA,NA,NA,1,6,"5,11,13,9,15,7,8,10,14,6,3,2,4,12,1"
15144,commdev-image-keyboard-response,422,1515950,learnblock1,856.1999988555908,img/planet2_left.png,2,Community 3,NA,TRUE,f,f,NA,NA,NA,1,6,"5,11,13,9,15,7,8,10,14,6,3,2,4,12,1"
15144,commdev-image-keyboard-response,423,1517220,learnblock1,1265.2999992370605,img/planet1_left.png,1,Community 3,NA,TRUE,f,f,NA,NA,NA,1,6,"5,11,13,9,15,7,8,10,14,6,3,2,4,12,1"
15144,commdev-image-keyboard-response,424,1518494,learnblock1,770.3999996185303,img/planet12_right.png,12,Community 3,NA,TRUE,j,j,NA,NA,NA,1,6,"5,11,13,9,15,7,8,10,14,6,3,2,4,12,1"
15144,commdev-image-keyboard-response,425,1519752,learnblock1,null,img/planet3_left.png,3,Community 3,NA,FALSE,null,f,NA,NA,NA,1,6,"5,11,13,9,15,7,8,10,14,6,3,2,4,12,1"
15144,commdev-image-keyboard-response,426,1521014,learnblock1,14.5,img/planet1_right.png,1,Community 3,NA,TRUE,j,j,NA,NA,NA,1,6,"5,11,13,9,15,7,8,10,14,6,3,2,4,12,1"
15144,commdev-image-keyboard-response,427,1522266,learnblock1,607.2999992370605,img/planet4_left.png,4,Community 3,NA,TRUE,f,f,NA,NA,NA,1,6,"5,11,13,9,15,7,8,10,14,6,3,2,4,12,1"
15144,commdev-image-keyboard-response,428,1523525,learnblock1,768.5,img/planet12_right.png,12,Community 3,NA,TRUE,j,j,NA,NA,NA,1,6,"5,11,13,9,15,7,8,10,14,6,3,2,4,12,1"
15144,commdev-image-keyboard-response,429,1524790,learnblock1,597.3000011444092,img/planet2_right.png,2,Community 3,NA,TRUE,j,j,NA,NA,NA,1,6,"5,11,13,9,15,7,8,10,14,6,3,2,4,12,1"
15144,commdev-image-keyboard-response,430,1526053,learnblock1,797.7000007629395,img/planet1_left.png,1,Community 3,NA,FALSE,j,f,NA,NA,NA,1,6,"5,11,13,9,15,7,8,10,14,6,3,2,4,12,1"
15144,commdev-image-keyboard-response,431,1527319,learnblock1,599.1000003814697,img/planet2_left.png,2,Community 3,NA,TRUE,f,f,NA,NA,NA,1,6,"5,11,13,9,15,7,8,10,14,6,3,2,4,12,1"
15144,commdev-image-keyboard-response,432,1528594,learnblock1,720.1000003814697,img/planet1_right.png,1,Community 3,NA,TRUE,j,j,NA,NA,NA,1,6,"5,11,13,9,15,7,8,10,14,6,3,2,4,12,1"
15144,commdev-image-keyboard-response,433,1529853,learnblock1,611.3999996185303,img/planet12_left.png,12,Community 3,NA,TRUE,f,f,NA,NA,NA,1,6,"5,11,13,9,15,7,8,10,14,6,3,2,4,12,1"
15144,commdev-image-keyboard-response,434,1531111,learnblock1,587.5,img/planet1_right.png,1,Community 3,NA,TRUE,j,j,NA,NA,NA,1,6,"5,11,13,9,15,7,8,10,14,6,3,2,4,12,1"
15144,commdev-image-keyboard-response,435,1532372,learnblock1,652.6999988555908,img/planet12_left.png,12,Community 3,NA,TRUE,f,f,NA,NA,NA,1,6,"5,11,13,9,15,7,8,10,14,6,3,2,4,12,1"
15144,commdev-image-keyboard-response,436,1533629,learnblock1,635.1000003814697,img/planet3_right.png,3,Community 3,NA,TRUE,j,j,NA,NA,NA,1,6,"5,11,13,9,15,7,8,10,14,6,3,2,4,12,1"
15144,commdev-image-keyboard-response,437,1534892,learnblock1,579.7999992370605,img/planet15_left.png,15,Community 1,NA,TRUE,f,f,NA,NA,NA,1,6,"5,11,13,9,15,7,8,10,14,6,3,2,4,12,1"
15144,commdev-image-keyboard-response,438,1536152,learnblock1,747.1999988555908,img/planet11_left.png,11,Community 1,NA,TRUE,f,f,NA,NA,NA,1,6,"5,11,13,9,15,7,8,10,14,6,3,2,4,12,1"
15144,commdev-image-keyboard-response,439,1537411,learnblock1,715.2000007629395,img/planet9_right.png,9,Community 1,NA,TRUE,j,j,NA,NA,NA,1,6,"5,11,13,9,15,7,8,10,14,6,3,2,4,12,1"
15144,commdev-image-keyboard-response,440,1538669,learnblock1,626.5,img/planet11_right.png,11,Community 1,NA,TRUE,j,j,NA,NA,NA,1,6,"5,11,13,9,15,7,8,10,14,6,3,2,4,12,1"
15144,commdev-image-keyboard-response,441,1539935,learnblock1,636.7999992370605,img/planet9_left.png,9,Community 1,NA,TRUE,f,f,NA,NA,NA,1,6,"5,11,13,9,15,7,8,10,14,6,3,2,4,12,1"
15144,commdev-image-keyboard-response,442,1541192,learnblock1,720.7999992370605,img/planet5_left.png,5,Community 1,NA,TRUE,f,f,NA,NA,NA,1,6,"5,11,13,9,15,7,8,10,14,6,3,2,4,12,1"
15144,commdev-image-keyboard-response,443,1542450,learnblock1,741.5,img/planet13_left.png,13,Community 1,NA,TRUE,f,f,NA,NA,NA,1,6,"5,11,13,9,15,7,8,10,14,6,3,2,4,12,1"
15144,commdev-image-keyboard-response,444,1543710,learnblock1,772.5999984741211,img/planet11_right.png,11,Community 1,NA,TRUE,j,j,NA,NA,NA,1,6,"5,11,13,9,15,7,8,10,14,6,3,2,4,12,1"
15144,commdev-image-keyboard-response,445,1544972,learnblock1,677.6999988555908,img/planet15_right.png,15,Community 1,NA,TRUE,j,j,NA,NA,NA,1,6,"5,11,13,9,15,7,8,10,14,6,3,2,4,12,1"
15144,commdev-image-keyboard-response,446,1546230,learnblock1,740.7999992370605,img/planet13_right.png,13,Community 1,NA,TRUE,j,j,NA,NA,NA,1,6,"5,11,13,9,15,7,8,10,14,6,3,2,4,12,1"
15144,commdev-image-keyboard-response,447,1547492,learnblock1,783.1999988555908,img/planet5_right.png,5,Community 1,NA,TRUE,j,j,NA,NA,NA,1,6,"5,11,13,9,15,7,8,10,14,6,3,2,4,12,1"
15144,commdev-image-keyboard-response,448,1548757,learnblock1,710.2999992370605,img/planet9_right.png,9,Community 1,NA,TRUE,j,j,NA,NA,NA,1,6,"5,11,13,9,15,7,8,10,14,6,3,2,4,12,1"
15144,commdev-image-keyboard-response,449,1550018,learnblock1,635.2999992370605,img/planet13_right.png,13,Community 1,NA,TRUE,j,j,NA,NA,NA,1,6,"5,11,13,9,15,7,8,10,14,6,3,2,4,12,1"
15144,commdev-image-keyboard-response,450,1551275,learnblock1,665.1000003814697,img/planet9_left.png,9,Community 1,NA,TRUE,f,f,NA,NA,NA,1,6,"5,11,13,9,15,7,8,10,14,6,3,2,4,12,1"
15144,commdev-image-keyboard-response,451,1552533,learnblock1,740.2000007629395,img/planet11_right.png,11,Community 1,NA,TRUE,j,j,NA,NA,NA,1,6,"5,11,13,9,15,7,8,10,14,6,3,2,4,12,1"
15144,commdev-image-keyboard-response,452,1553808,learnblock1,624.5,img/planet13_left.png,13,Community 1,NA,TRUE,f,f,NA,NA,NA,1,6,"5,11,13,9,15,7,8,10,14,6,3,2,4,12,1"
15144,commdev-image-keyboard-response,453,1555075,learnblock1,525.8999996185303,img/planet11_right.png,11,Community 1,NA,TRUE,j,j,NA,NA,NA,1,6,"5,11,13,9,15,7,8,10,14,6,3,2,4,12,1"
15144,commdev-image-keyboard-response,454,1556331,learnblock1,508.6000003814697,img/planet9_left.png,9,Community 1,NA,TRUE,f,f,NA,NA,NA,1,6,"5,11,13,9,15,7,8,10,14,6,3,2,4,12,1"
15144,commdev-image-keyboard-response,455,1557591,learnblock1,799.6000003814697,img/planet5_left.png,5,Community 1,NA,FALSE,j,f,NA,NA,NA,1,6,"5,11,13,9,15,7,8,10,14,6,3,2,4,12,1"
15144,commdev-image-keyboard-response,456,1558897,learnblock1,791.5999984741211,img/planet13_left.png,13,Community 1,NA,TRUE,f,f,NA,NA,NA,1,6,"5,11,13,9,15,7,8,10,14,6,3,2,4,12,1"
15144,commdev-image-keyboard-response,457,1560158,learnblock1,568.0999984741211,img/planet15_right.png,15,Community 1,NA,TRUE,j,j,NA,NA,NA,1,6,"5,11,13,9,15,7,8,10,14,6,3,2,4,12,1"
15144,commdev-image-keyboard-response,458,1561424,learnblock1,694.7999992370605,img/planet13_right.png,13,Community 1,NA,TRUE,j,j,NA,NA,NA,1,6,"5,11,13,9,15,7,8,10,14,6,3,2,4,12,1"
15144,commdev-image-keyboard-response,459,1562682,learnblock1,808.1999988555908,img/planet11_left.png,11,Community 1,NA,TRUE,f,f,NA,NA,NA,1,6,"5,11,13,9,15,7,8,10,14,6,3,2,4,12,1"
15144,commdev-image-keyboard-response,460,1563942,learnblock1,775.2999992370605,img/planet5_right.png,5,Community 1,NA,TRUE,j,j,NA,NA,NA,1,6,"5,11,13,9,15,7,8,10,14,6,3,2,4,12,1"
15144,commdev-image-keyboard-response,461,1565199,learnblock1,693.1999988555908,img/planet11_left.png,11,Community 1,NA,TRUE,f,f,NA,NA,NA,1,6,"5,11,13,9,15,7,8,10,14,6,3,2,4,12,1"
15144,commdev-image-keyboard-response,462,1566457,learnblock1,715.6000003814697,img/planet5_left.png,5,Community 1,NA,TRUE,f,f,NA,NA,NA,1,6,"5,11,13,9,15,7,8,10,14,6,3,2,4,12,1"
15144,commdev-image-keyboard-response,463,1567711,learnblock1,597.2999992370605,img/planet11_left.png,11,Community 1,NA,TRUE,f,f,NA,NA,NA,1,6,"5,11,13,9,15,7,8,10,14,6,3,2,4,12,1"
15144,commdev-image-keyboard-response,467,1596915,learnblock2,1186.2999992370605,img/planet2_left.png,2,Community 3,NA,TRUE,f,f,NA,NA,NA,1,6,"5,11,13,9,15,7,8,10,14,6,3,2,4,12,1"
15144,commdev-image-keyboard-response,468,1598174,learnblock2,732.5,img/planet1_left.png,1,Community 3,NA,TRUE,f,f,NA,NA,NA,1,6,"5,11,13,9,15,7,8,10,14,6,3,2,4,12,1"
15144,commdev-image-keyboard-response,469,1599437,learnblock2,560.5999984741211,img/planet12_right.png,12,Community 3,NA,TRUE,j,j,NA,NA,NA,1,6,"5,11,13,9,15,7,8,10,14,6,3,2,4,12,1"
15144,commdev-image-keyboard-response,470,1600698,learnblock2,849.5,img/planet2_left.png,2,Community 3,NA,TRUE,f,f,NA,NA,NA,1,6,"5,11,13,9,15,7,8,10,14,6,3,2,4,12,1"
15144,commdev-image-keyboard-response,471,1601962,learnblock2,852.7000007629395,img/planet4_right.png,4,Community 3,NA,TRUE,j,j,NA,NA,NA,1,6,"5,11,13,9,15,7,8,10,14,6,3,2,4,12,1"
15144,commdev-image-keyboard-response,472,1603226,learnblock2,811.2000007629395,img/planet3_left.png,3,Community 3,NA,TRUE,f,f,NA,NA,NA,1,6,"5,11,13,9,15,7,8,10,14,6,3,2,4,12,1"
15144,commdev-image-keyboard-response,473,1604483,learnblock2,705,img/planet12_right.png,12,Community 3,NA,TRUE,j,j,NA,NA,NA,1,6,"5,11,13,9,15,7,8,10,14,6,3,2,4,12,1"
15144,commdev-image-keyboard-response,474,1605754,learnblock2,673.8999996185303,img/planet1_right.png,1,Community 3,NA,TRUE,j,j,NA,NA,NA,1,6,"5,11,13,9,15,7,8,10,14,6,3,2,4,12,1"
15144,commdev-image-keyboard-response,475,1607013,learnblock2,567.6000003814697,img/planet3_right.png,3,Community 3,NA,TRUE,j,j,NA,NA,NA,1,6,"5,11,13,9,15,7,8,10,14,6,3,2,4,12,1"
15144,commdev-image-keyboard-response,476,1608272,learnblock2,542.2999992370605,img/planet12_right.png,12,Community 3,NA,TRUE,j,j,NA,NA,NA,1,6,"5,11,13,9,15,7,8,10,14,6,3,2,4,12,1"
15144,commdev-image-keyboard-response,477,1609528,learnblock2,520.8999996185303,img/planet4_right.png,4,Community 3,NA,TRUE,j,j,NA,NA,NA,1,6,"5,11,13,9,15,7,8,10,14,6,3,2,4,12,1"
15144,commdev-image-keyboard-response,478,1610787,learnblock2,576.8999996185303,img/planet2_left.png,2,Community 3,NA,TRUE,f,f,NA,NA,NA,1,6,"5,11,13,9,15,7,8,10,14,6,3,2,4,12,1"
15144,commdev-image-keyboard-response,479,1612050,learnblock2,522.1000003814697,img/planet10_left.png,10,Community 2,NA,TRUE,f,f,NA,NA,NA,1,6,"5,11,13,9,15,7,8,10,14,6,3,2,4,12,1"
15144,commdev-image-keyboard-response,480,1613305,learnblock2,649,img/planet8_right.png,8,Community 2,NA,FALSE,f,j,NA,NA,NA,1,6,"5,11,13,9,15,7,8,10,14,6,3,2,4,12,1"
15144,commdev-image-keyboard-response,481,1614570,learnblock2,836.4000015258789,img/planet14_right.png,14,Community 2,NA,TRUE,j,j,NA,NA,NA,1,6,"5,11,13,9,15,7,8,10,14,6,3,2,4,12,1"
15144,commdev-image-keyboard-response,482,1615825,learnblock2,887.2000007629395,img/planet7_right.png,7,Community 2,NA,TRUE,j,j,NA,NA,NA,1,6,"5,11,13,9,15,7,8,10,14,6,3,2,4,12,1"
15144,commdev-image-keyboard-response,483,1617079,learnblock2,883.3999996185303,img/planet9_left.png,9,Community 1,NA,TRUE,f,f,NA,NA,NA,1,6,"5,11,13,9,15,7,8,10,14,6,3,2,4,12,1"
15144,commdev-image-keyboard-response,484,1618342,learnblock2,1091.8000011444092,img/planet13_left.png,13,Community 1,NA,TRUE,f,f,NA,NA,NA,1,6,"5,11,13,9,15,7,8,10,14,6,3,2,4,12,1"
15144,commdev-image-keyboard-response,485,1619617,learnblock2,857.3999996185303,img/planet15_left.png,15,Community 1,NA,TRUE,f,f,NA,NA,NA,1,6,"5,11,13,9,15,7,8,10,14,6,3,2,4,12,1"
15144,commdev-image-keyboard-response,486,1620875,learnblock2,766.3000011444092,img/planet3_right.png,3,Community 3,NA,TRUE,j,j,NA,NA,NA,1,6,"5,11,13,9,15,7,8,10,14,6,3,2,4,12,1"
15144,commdev-image-keyboard-response,487,1622133,learnblock2,683.6000003814697,img/planet12_left.png,12,Community 3,NA,TRUE,f,f,NA,NA,NA,1,6,"5,11,13,9,15,7,8,10,14,6,3,2,4,12,1"
15144,commdev-image-keyboard-response,488,1623399,learnblock2,699.8999996185303,img/planet3_left.png,3,Community 3,NA,TRUE,f,f,NA,NA,NA,1,6,"5,11,13,9,15,7,8,10,14,6,3,2,4,12,1"
15144,commdev-image-keyboard-response,489,1624659,learnblock2,746,img/planet1_right.png,1,Community 3,NA,TRUE,j,j,NA,NA,NA,1,6,"5,11,13,9,15,7,8,10,14,6,3,2,4,12,1"
15144,commdev-image-keyboard-response,490,1625916,learnblock2,596.5,img/planet2_right.png,2,Community 3,NA,TRUE,j,j,NA,NA,NA,1,6,"5,11,13,9,15,7,8,10,14,6,3,2,4,12,1"
15144,commdev-image-keyboard-response,491,1627175,learnblock2,536.2999992370605,img/planet4_right.png,4,Community 3,NA,TRUE,j,j,NA,NA,NA,1,6,"5,11,13,9,15,7,8,10,14,6,3,2,4,12,1"
15144,commdev-image-keyboard-response,492,1628444,learnblock2,535.9000015258789,img/planet12_left.png,12,Community 3,NA,TRUE,f,f,NA,NA,NA,1,6,"5,11,13,9,15,7,8,10,14,6,3,2,4,12,1"
15144,commdev-image-keyboard-response,493,1629706,learnblock2,563.2999992370605,img/planet1_right.png,1,Community 3,NA,TRUE,j,j,NA,NA,NA,1,6,"5,11,13,9,15,7,8,10,14,6,3,2,4,12,1"
15144,commdev-image-keyboard-response,494,1630966,learnblock2,628.8999996185303,img/planet12_right.png,12,Community 3,NA,TRUE,j,j,NA,NA,NA,1,6,"5,11,13,9,15,7,8,10,14,6,3,2,4,12,1"
15144,commdev-image-keyboard-response,495,1632227,learnblock2,768.7000007629395,img/planet4_right.png,4,Community 3,NA,TRUE,j,j,NA,NA,NA,1,6,"5,11,13,9,15,7,8,10,14,6,3,2,4,12,1"
15144,commdev-image-keyboard-response,496,1633481,learnblock2,666.1000003814697,img/planet2_left.png,2,Community 3,NA,TRUE,f,f,NA,NA,NA,1,6,"5,11,13,9,15,7,8,10,14,6,3,2,4,12,1"
15144,commdev-image-keyboard-response,497,1634745,learnblock2,698.7000007629395,img/planet1_right.png,1,Community 3,NA,TRUE,j,j,NA,NA,NA,1,6,"5,11,13,9,15,7,8,10,14,6,3,2,4,12,1"
15144,commdev-image-keyboard-response,498,1636007,learnblock2,696.6000003814697,img/planet2_left.png,2,Community 3,NA,TRUE,f,f,NA,NA,NA,1,6,"5,11,13,9,15,7,8,10,14,6,3,2,4,12,1"
15144,commdev-image-keyboard-response,499,1637274,learnblock2,599.2000007629395,img/planet12_left.png,12,Community 3,NA,TRUE,f,f,NA,NA,NA,1,6,"5,11,13,9,15,7,8,10,14,6,3,2,4,12,1"
15144,commdev-image-keyboard-response,500,1638529,learnblock2,656.7000007629395,img/planet3_left.png,3,Community 3,NA,TRUE,f,f,NA,NA,NA,1,6,"5,11,13,9,15,7,8,10,14,6,3,2,4,12,1"
15144,commdev-image-keyboard-response,501,1639791,learnblock2,699.7000007629395,img/planet15_right.png,15,Community 1,NA,TRUE,j,j,NA,NA,NA,1,6,"5,11,13,9,15,7,8,10,14,6,3,2,4,12,1"
15144,commdev-image-keyboard-response,502,1641049,learnblock2,957.3000011444092,img/planet5_left.png,5,Community 1,NA,TRUE,f,f,NA,NA,NA,1,6,"5,11,13,9,15,7,8,10,14,6,3,2,4,12,1"
15144,commdev-image-keyboard-response,503,1642305,learnblock2,780.3999996185303,img/planet13_left.png,13,Community 1,NA,TRUE,f,f,NA,NA,NA,1,6,"5,11,13,9,15,7,8,10,14,6,3,2,4,12,1"
15144,commdev-image-keyboard-response,504,1643566,learnblock2,705.8999996185303,img/planet5_right.png,5,Community 1,NA,TRUE,j,j,NA,NA,NA,1,6,"5,11,13,9,15,7,8,10,14,6,3,2,4,12,1"
15144,commdev-image-keyboard-response,505,1644822,learnblock2,847.9000015258789,img/planet15_right.png,15,Community 1,NA,TRUE,j,j,NA,NA,NA,1,6,"5,11,13,9,15,7,8,10,14,6,3,2,4,12,1"
15144,commdev-image-keyboard-response,506,1646083,learnblock2,1129.1000003814697,img/planet11_left.png,11,Community 1,NA,TRUE,f,f,NA,NA,NA,1,6,"5,11,13,9,15,7,8,10,14,6,3,2,4,12,1"
15144,commdev-image-keyboard-response,507,1647347,learnblock2,821.0999984741211,img/planet5_left.png,5,Community 1,NA,TRUE,f,f,NA,NA,NA,1,6,"5,11,13,9,15,7,8,10,14,6,3,2,4,12,1"
15144,commdev-image-keyboard-response,508,1648616,learnblock2,800.2000007629395,img/planet13_left.png,13,Community 1,NA,TRUE,f,f,NA,NA,NA,1,6,"5,11,13,9,15,7,8,10,14,6,3,2,4,12,1"
15144,commdev-image-keyboard-response,509,1649890,learnblock2,667.7999992370605,img/planet9_right.png,9,Community 1,NA,TRUE,j,j,NA,NA,NA,1,6,"5,11,13,9,15,7,8,10,14,6,3,2,4,12,1"
15144,commdev-image-keyboard-response,510,1651149,learnblock2,617,img/planet5_left.png,5,Community 1,NA,TRUE,f,f,NA,NA,NA,1,6,"5,11,13,9,15,7,8,10,14,6,3,2,4,12,1"
15144,commdev-image-keyboard-response,511,1652407,learnblock2,822.3999996185303,img/planet11_left.png,11,Community 1,NA,TRUE,f,f,NA,NA,NA,1,6,"5,11,13,9,15,7,8,10,14,6,3,2,4,12,1"
15144,commdev-image-keyboard-response,512,1653678,learnblock2,549.8999996185303,img/planet13_right.png,13,Community 1,NA,TRUE,j,j,NA,NA,NA,1,6,"5,11,13,9,15,7,8,10,14,6,3,2,4,12,1"
15144,commdev-image-keyboard-response,513,1654934,learnblock2,693.5,img/planet11_left.png,11,Community 1,NA,TRUE,f,f,NA,NA,NA,1,6,"5,11,13,9,15,7,8,10,14,6,3,2,4,12,1"
15144,commdev-image-keyboard-response,514,1656194,learnblock2,661.7999992370605,img/planet15_right.png,15,Community 1,NA,TRUE,j,j,NA,NA,NA,1,6,"5,11,13,9,15,7,8,10,14,6,3,2,4,12,1"
15144,commdev-image-keyboard-response,515,1657457,learnblock2,716.5999984741211,img/planet11_left.png,11,Community 1,NA,TRUE,f,f,NA,NA,NA,1,6,"5,11,13,9,15,7,8,10,14,6,3,2,4,12,1"
15144,commdev-image-keyboard-response,516,1658724,learnblock2,646.6999988555908,img/planet13_right.png,13,Community 1,NA,TRUE,j,j,NA,NA,NA,1,6,"5,11,13,9,15,7,8,10,14,6,3,2,4,12,1"
15144,commdev-image-keyboard-response,517,1659984,learnblock2,696.7999992370605,img/planet11_right.png,11,Community 1,NA,TRUE,j,j,NA,NA,NA,1,6,"5,11,13,9,15,7,8,10,14,6,3,2,4,12,1"
15144,commdev-image-keyboard-response,518,1661239,learnblock2,718,img/planet15_right.png,15,Community 1,NA,TRUE,j,j,NA,NA,NA,1,6,"5,11,13,9,15,7,8,10,14,6,3,2,4,12,1"
15144,commdev-image-keyboard-response,519,1662498,learnblock2,580.8999996185303,img/planet11_right.png,11,Community 1,NA,TRUE,j,j,NA,NA,NA,1,6,"5,11,13,9,15,7,8,10,14,6,3,2,4,12,1"
15144,commdev-image-keyboard-response,520,1663762,learnblock2,628.2000007629395,img/planet9_left.png,9,Community 1,NA,TRUE,f,f,NA,NA,NA,1,6,"5,11,13,9,15,7,8,10,14,6,3,2,4,12,1"
15144,commdev-image-keyboard-response,521,1665016,learnblock2,722.5,img/planet11_right.png,11,Community 1,NA,TRUE,j,j,NA,NA,NA,1,6,"5,11,13,9,15,7,8,10,14,6,3,2,4,12,1"
15144,commdev-image-keyboard-response,522,1666281,learnblock2,666.6999988555908,img/planet15_left.png,15,Community 1,NA,TRUE,f,f,NA,NA,NA,1,6,"5,11,13,9,15,7,8,10,14,6,3,2,4,12,1"
15144,commdev-image-keyboard-response,523,1667540,learnblock2,651.5,img/planet13_left.png,13,Community 1,NA,TRUE,f,f,NA,NA,NA,1,6,"5,11,13,9,15,7,8,10,14,6,3,2,4,12,1"
15144,commdev-image-keyboard-response,524,1668794,learnblock2,602.2999992370605,img/planet5_left.png,5,Community 1,NA,TRUE,f,f,NA,NA,NA,1,6,"5,11,13,9,15,7,8,10,14,6,3,2,4,12,1"
15144,commdev-image-keyboard-response,525,1670048,learnblock2,599.4000015258789,img/planet13_right.png,13,Community 1,NA,TRUE,j,j,NA,NA,NA,1,6,"5,11,13,9,15,7,8,10,14,6,3,2,4,12,1"
15144,commdev-image-keyboard-response,526,1671302,learnblock2,1160.3000011444092,img/planet11_left.png,11,Community 1,NA,FALSE,j,f,NA,NA,NA,1,6,"5,11,13,9,15,7,8,10,14,6,3,2,4,12,1"
15144,commdev-image-keyboard-response,527,1672561,learnblock2,859.1000003814697,img/planet13_right.png,13,Community 1,NA,TRUE,j,j,NA,NA,NA,1,6,"5,11,13,9,15,7,8,10,14,6,3,2,4,12,1"
15144,commdev-image-keyboard-response,528,1673816,learnblock2,672.5,img/planet5_right.png,5,Community 1,NA,TRUE,j,j,NA,NA,NA,1,6,"5,11,13,9,15,7,8,10,14,6,3,2,4,12,1"
15144,commdev-image-keyboard-response,529,1675074,learnblock2,576.3000011444092,img/planet15_left.png,15,Community 1,NA,TRUE,f,f,NA,NA,NA,1,6,"5,11,13,9,15,7,8,10,14,6,3,2,4,12,1"
15144,commdev-image-keyboard-response,530,1676336,learnblock2,782.1000003814697,img/planet3_right.png,3,Community 3,NA,TRUE,j,j,NA,NA,NA,1,6,"5,11,13,9,15,7,8,10,14,6,3,2,4,12,1"
15144,commdev-image-keyboard-response,531,1677596,learnblock2,1000.5,img/planet12_left.png,12,Community 3,NA,TRUE,f,f,NA,NA,NA,1,6,"5,11,13,9,15,7,8,10,14,6,3,2,4,12,1"
15144,commdev-image-keyboard-response,532,1678858,learnblock2,650,img/planet4_right.png,4,Community 3,NA,TRUE,j,j,NA,NA,NA,1,6,"5,11,13,9,15,7,8,10,14,6,3,2,4,12,1"
15144,commdev-image-keyboard-response,533,1680117,learnblock2,689.6999988555908,img/planet1_right.png,1,Community 3,NA,TRUE,j,j,NA,NA,NA,1,6,"5,11,13,9,15,7,8,10,14,6,3,2,4,12,1"
15144,commdev-image-keyboard-response,534,1681372,learnblock2,1074.1000003814697,img/planet12_left.png,12,Community 3,NA,TRUE,f,f,NA,NA,NA,1,6,"5,11,13,9,15,7,8,10,14,6,3,2,4,12,1"
15144,commdev-image-keyboard-response,535,1682626,learnblock2,649.7999992370605,img/planet3_right.png,3,Community 3,NA,TRUE,j,j,NA,NA,NA,1,6,"5,11,13,9,15,7,8,10,14,6,3,2,4,12,1"
15144,commdev-image-keyboard-response,536,1683881,learnblock2,728.2000007629395,img/planet15_right.png,15,Community 1,NA,TRUE,j,j,NA,NA,NA,1,6,"5,11,13,9,15,7,8,10,14,6,3,2,4,12,1"
15144,commdev-image-keyboard-response,537,1685143,learnblock2,932.3999996185303,img/planet5_left.png,5,Community 1,NA,FALSE,j,f,NA,NA,NA,1,6,"5,11,13,9,15,7,8,10,14,6,3,2,4,12,1"
15144,commdev-image-keyboard-response,538,1686414,learnblock2,720.2999992370605,img/planet11_left.png,11,Community 1,NA,TRUE,f,f,NA,NA,NA,1,6,"5,11,13,9,15,7,8,10,14,6,3,2,4,12,1"
15144,commdev-image-keyboard-response,539,1687669,learnblock2,601.1000003814697,img/planet9_left.png,9,Community 1,NA,TRUE,f,f,NA,NA,NA,1,6,"5,11,13,9,15,7,8,10,14,6,3,2,4,12,1"
15144,commdev-image-keyboard-response,540,1688926,learnblock2,556.5999984741211,img/planet11_right.png,11,Community 1,NA,TRUE,j,j,NA,NA,NA,1,6,"5,11,13,9,15,7,8,10,14,6,3,2,4,12,1"
15144,commdev-image-keyboard-response,541,1690183,learnblock2,1182.5,img/planet5_right.png,5,Community 1,NA,TRUE,j,j,NA,NA,NA,1,6,"5,11,13,9,15,7,8,10,14,6,3,2,4,12,1"
15144,commdev-image-keyboard-response,542,1691442,learnblock2,540.9000015258789,img/planet9_left.png,9,Community 1,NA,TRUE,f,f,NA,NA,NA,1,6,"5,11,13,9,15,7,8,10,14,6,3,2,4,12,1"
15144,commdev-image-keyboard-response,543,1692697,learnblock2,549.4000015258789,img/planet5_right.png,5,Community 1,NA,TRUE,j,j,NA,NA,NA,1,6,"5,11,13,9,15,7,8,10,14,6,3,2,4,12,1"
15144,commdev-image-keyboard-response,544,1693961,learnblock2,575.4000015258789,img/planet13_right.png,13,Community 1,NA,TRUE,j,j,NA,NA,NA,1,6,"5,11,13,9,15,7,8,10,14,6,3,2,4,12,1"
15144,commdev-image-keyboard-response,545,1695230,learnblock2,637,img/planet5_right.png,5,Community 1,NA,TRUE,j,j,NA,NA,NA,1,6,"5,11,13,9,15,7,8,10,14,6,3,2,4,12,1"
15144,commdev-image-keyboard-response,546,1696484,learnblock2,666.3000011444092,img/planet9_right.png,9,Community 1,NA,TRUE,j,j,NA,NA,NA,1,6,"5,11,13,9,15,7,8,10,14,6,3,2,4,12,1"
15144,commdev-image-keyboard-response,547,1697743,learnblock2,578,img/planet13_left.png,13,Community 1,NA,TRUE,f,f,NA,NA,NA,1,6,"5,11,13,9,15,7,8,10,14,6,3,2,4,12,1"
15144,commdev-image-keyboard-response,548,1699003,learnblock2,550.6999988555908,img/planet5_right.png,5,Community 1,NA,TRUE,j,j,NA,NA,NA,1,6,"5,11,13,9,15,7,8,10,14,6,3,2,4,12,1"
15144,commdev-image-keyboard-response,549,1700264,learnblock2,721.2999992370605,img/planet9_right.png,9,Community 1,NA,TRUE,j,j,NA,NA,NA,1,6,"5,11,13,9,15,7,8,10,14,6,3,2,4,12,1"
15144,commdev-image-keyboard-response,550,1701523,learnblock2,606.1000003814697,img/planet5_left.png,5,Community 1,NA,TRUE,f,f,NA,NA,NA,1,6,"5,11,13,9,15,7,8,10,14,6,3,2,4,12,1"
15144,commdev-image-keyboard-response,551,1702779,learnblock2,556,img/planet9_right.png,9,Community 1,NA,TRUE,j,j,NA,NA,NA,1,6,"5,11,13,9,15,7,8,10,14,6,3,2,4,12,1"
15144,commdev-image-keyboard-response,552,1704038,learnblock2,839.3000011444092,img/planet13_left.png,13,Community 1,NA,TRUE,f,f,NA,NA,NA,1,6,"5,11,13,9,15,7,8,10,14,6,3,2,4,12,1"
15144,commdev-image-keyboard-response,553,1705295,learnblock2,695.7999992370605,img/planet9_right.png,9,Community 1,NA,TRUE,j,j,NA,NA,NA,1,6,"5,11,13,9,15,7,8,10,14,6,3,2,4,12,1"
15144,commdev-image-keyboard-response,554,1706549,learnblock2,769.6000003814697,img/planet7_right.png,7,Community 2,NA,TRUE,j,j,NA,NA,NA,1,6,"5,11,13,9,15,7,8,10,14,6,3,2,4,12,1"
15144,commdev-image-keyboard-response,555,1707813,learnblock2,666,img/planet9_right.png,9,Community 1,NA,TRUE,j,j,NA,NA,NA,1,6,"5,11,13,9,15,7,8,10,14,6,3,2,4,12,1"
15144,commdev-image-keyboard-response,556,1709075,learnblock2,786.9000015258789,img/planet11_left.png,11,Community 1,NA,TRUE,f,f,NA,NA,NA,1,6,"5,11,13,9,15,7,8,10,14,6,3,2,4,12,1"
15144,commdev-image-keyboard-response,557,1710334,learnblock2,617.1000003814697,img/planet15_right.png,15,Community 1,NA,TRUE,j,j,NA,NA,NA,1,6,"5,11,13,9,15,7,8,10,14,6,3,2,4,12,1"
15144,commdev-image-keyboard-response,558,1711590,learnblock2,997.6999988555908,img/planet3_left.png,3,Community 3,NA,TRUE,f,f,NA,NA,NA,1,6,"5,11,13,9,15,7,8,10,14,6,3,2,4,12,1"
15144,commdev-image-keyboard-response,559,1712854,learnblock2,622.8999996185303,img/planet15_left.png,15,Community 1,NA,TRUE,f,f,NA,NA,NA,1,6,"5,11,13,9,15,7,8,10,14,6,3,2,4,12,1"
15144,commdev-image-keyboard-response,560,1714117,learnblock2,548.3999996185303,img/planet11_right.png,11,Community 1,NA,FALSE,f,j,NA,NA,NA,1,6,"5,11,13,9,15,7,8,10,14,6,3,2,4,12,1"
15144,commdev-image-keyboard-response,561,1715374,learnblock2,631.7000007629395,img/planet9_left.png,9,Community 1,NA,TRUE,f,f,NA,NA,NA,1,6,"5,11,13,9,15,7,8,10,14,6,3,2,4,12,1"
15144,commdev-image-keyboard-response,562,1716639,learnblock2,507.9000015258789,img/planet13_left.png,13,Community 1,NA,TRUE,f,f,NA,NA,NA,1,6,"5,11,13,9,15,7,8,10,14,6,3,2,4,12,1"
15144,commdev-image-keyboard-response,563,1717896,learnblock2,456.79999923706055,img/planet11_right.png,11,Community 1,NA,TRUE,j,j,NA,NA,NA,1,6,"5,11,13,9,15,7,8,10,14,6,3,2,4,12,1"
15144,commdev-image-keyboard-response,564,1719163,learnblock2,537.6999988555908,img/planet5_left.png,5,Community 1,NA,TRUE,f,f,NA,NA,NA,1,6,"5,11,13,9,15,7,8,10,14,6,3,2,4,12,1"
15144,commdev-image-keyboard-response,565,1720418,learnblock2,674.7999992370605,img/planet15_right.png,15,Community 1,NA,TRUE,j,j,NA,NA,NA,1,6,"5,11,13,9,15,7,8,10,14,6,3,2,4,12,1"
15144,commdev-image-keyboard-response,566,1721676,learnblock2,640,img/planet13_left.png,13,Community 1,NA,TRUE,f,f,NA,NA,NA,1,6,"5,11,13,9,15,7,8,10,14,6,3,2,4,12,1"
15144,commdev-image-keyboard-response,567,1722937,learnblock2,652.3999996185303,img/planet9_left.png,9,Community 1,NA,TRUE,f,f,NA,NA,NA,1,6,"5,11,13,9,15,7,8,10,14,6,3,2,4,12,1"
15144,commdev-image-keyboard-response,568,1724197,learnblock2,707.5,img/planet5_left.png,5,Community 1,NA,TRUE,f,f,NA,NA,NA,1,6,"5,11,13,9,15,7,8,10,14,6,3,2,4,12,1"
15144,commdev-image-keyboard-response,569,1725456,learnblock2,706.7000007629395,img/planet15_left.png,15,Community 1,NA,TRUE,f,f,NA,NA,NA,1,6,"5,11,13,9,15,7,8,10,14,6,3,2,4,12,1"
15144,commdev-image-keyboard-response,570,1726714,learnblock2,571.2000007629395,img/planet3_left.png,3,Community 3,NA,TRUE,f,f,NA,NA,NA,1,6,"5,11,13,9,15,7,8,10,14,6,3,2,4,12,1"
15144,commdev-image-keyboard-response,571,1727979,learnblock2,848.3000011444092,img/planet1_left.png,1,Community 3,NA,TRUE,f,f,NA,NA,NA,1,6,"5,11,13,9,15,7,8,10,14,6,3,2,4,12,1"
15144,commdev-image-keyboard-response,572,1729233,learnblock2,697.5,img/planet4_left.png,4,Community 3,NA,TRUE,f,f,NA,NA,NA,1,6,"5,11,13,9,15,7,8,10,14,6,3,2,4,12,1"
15144,commdev-image-keyboard-response,573,1730491,learnblock2,664.6999988555908,img/planet3_left.png,3,Community 3,NA,TRUE,f,f,NA,NA,NA,1,6,"5,11,13,9,15,7,8,10,14,6,3,2,4,12,1"
15144,commdev-image-keyboard-response,574,1731747,learnblock2,635.6000003814697,img/planet12_right.png,12,Community 3,NA,TRUE,j,j,NA,NA,NA,1,6,"5,11,13,9,15,7,8,10,14,6,3,2,4,12,1"
15144,commdev-image-keyboard-response,575,1733012,learnblock2,684.0999984741211,img/planet3_right.png,3,Community 3,NA,TRUE,j,j,NA,NA,NA,1,6,"5,11,13,9,15,7,8,10,14,6,3,2,4,12,1"
15144,commdev-image-keyboard-response,576,1734287,learnblock2,719.2999992370605,img/planet15_right.png,15,Community 1,NA,TRUE,j,j,NA,NA,NA,1,6,"5,11,13,9,15,7,8,10,14,6,3,2,4,12,1"
15144,commdev-image-keyboard-response,577,1735549,learnblock2,null,img/planet11_right.png,11,Community 1,NA,FALSE,null,j,NA,NA,NA,1,6,"5,11,13,9,15,7,8,10,14,6,3,2,4,12,1"
15144,commdev-image-keyboard-response,578,1736821,learnblock2,595.6999988555908,img/planet9_right.png,9,Community 1,NA,TRUE,j,j,NA,NA,NA,1,6,"5,11,13,9,15,7,8,10,14,6,3,2,4,12,1"
15144,commdev-image-keyboard-response,579,1738085,learnblock2,628.1000003814697,img/planet13_left.png,13,Community 1,NA,TRUE,f,f,NA,NA,NA,1,6,"5,11,13,9,15,7,8,10,14,6,3,2,4,12,1"
15144,commdev-image-keyboard-response,580,1739351,learnblock2,787.2000007629395,img/planet11_left.png,11,Community 1,NA,TRUE,f,f,NA,NA,NA,1,6,"5,11,13,9,15,7,8,10,14,6,3,2,4,12,1"
15144,commdev-image-keyboard-response,581,1740607,learnblock2,652.6000003814697,img/planet13_left.png,13,Community 1,NA,TRUE,f,f,NA,NA,NA,1,6,"5,11,13,9,15,7,8,10,14,6,3,2,4,12,1"
15144,commdev-image-keyboard-response,582,1741870,learnblock2,577.3000011444092,img/planet5_right.png,5,Community 1,NA,TRUE,j,j,NA,NA,NA,1,6,"5,11,13,9,15,7,8,10,14,6,3,2,4,12,1"
15144,commdev-image-keyboard-response,583,1743168,learnblock2,859.1000003814697,img/planet11_left.png,11,Community 1,NA,TRUE,f,f,NA,NA,NA,1,6,"5,11,13,9,15,7,8,10,14,6,3,2,4,12,1"
15144,commdev-image-keyboard-response,584,1744433,learnblock2,795.5,img/planet5_right.png,5,Community 1,NA,TRUE,j,j,NA,NA,NA,1,6,"5,11,13,9,15,7,8,10,14,6,3,2,4,12,1"
15144,commdev-image-keyboard-response,585,1745691,learnblock2,588,img/planet9_right.png,9,Community 1,NA,TRUE,j,j,NA,NA,NA,1,6,"5,11,13,9,15,7,8,10,14,6,3,2,4,12,1"
15144,commdev-image-keyboard-response,586,1746961,learnblock2,715.2000007629395,img/planet7_right.png,7,Community 2,NA,TRUE,j,j,NA,NA,NA,1,6,"5,11,13,9,15,7,8,10,14,6,3,2,4,12,1"
15144,commdev-image-keyboard-response,587,1748220,learnblock2,940.7000007629395,img/planet8_left.png,8,Community 2,NA,TRUE,f,f,NA,NA,NA,1,6,"5,11,13,9,15,7,8,10,14,6,3,2,4,12,1"
15144,commdev-image-keyboard-response,588,1749477,learnblock2,1086,img/planet7_left.png,7,Community 2,NA,TRUE,f,f,NA,NA,NA,1,6,"5,11,13,9,15,7,8,10,14,6,3,2,4,12,1"
15144,commdev-image-keyboard-response,589,1750732,learnblock2,636.7999992370605,img/planet14_right.png,14,Community 2,NA,TRUE,j,j,NA,NA,NA,1,6,"5,11,13,9,15,7,8,10,14,6,3,2,4,12,1"
15144,commdev-image-keyboard-response,590,1752003,learnblock2,910.7999992370605,img/planet7_left.png,7,Community 2,NA,TRUE,f,f,NA,NA,NA,1,6,"5,11,13,9,15,7,8,10,14,6,3,2,4,12,1"
15144,commdev-image-keyboard-response,591,1753267,learnblock2,687.5,img/planet8_right.png,8,Community 2,NA,TRUE,j,j,NA,NA,NA,1,6,"5,11,13,9,15,7,8,10,14,6,3,2,4,12,1"
15144,commdev-image-keyboard-response,592,1754522,learnblock2,null,img/planet7_right.png,7,Community 2,NA,FALSE,null,j,NA,NA,NA,1,6,"5,11,13,9,15,7,8,10,14,6,3,2,4,12,1"
15144,commdev-image-keyboard-response,593,1755786,learnblock2,775,img/planet8_left.png,8,Community 2,NA,TRUE,f,f,NA,NA,NA,1,6,"5,11,13,9,15,7,8,10,14,6,3,2,4,12,1"
15144,commdev-image-keyboard-response,594,1757048,learnblock2,null,img/planet14_left.png,14,Community 2,NA,FALSE,null,f,NA,NA,NA,1,6,"5,11,13,9,15,7,8,10,14,6,3,2,4,12,1"
15144,commdev-image-keyboard-response,595,1758311,learnblock2,45,img/planet6_right.png,6,Community 2,NA,FALSE,f,j,NA,NA,NA,1,6,"5,11,13,9,15,7,8,10,14,6,3,2,4,12,1"
15144,commdev-image-keyboard-response,596,1759570,learnblock2,614.6000003814697,img/planet7_left.png,7,Community 2,NA,TRUE,f,f,NA,NA,NA,1,6,"5,11,13,9,15,7,8,10,14,6,3,2,4,12,1"
15144,commdev-image-keyboard-response,597,1760832,learnblock2,533.2000007629395,img/planet6_right.png,6,Community 2,NA,TRUE,j,j,NA,NA,NA,1,6,"5,11,13,9,15,7,8,10,14,6,3,2,4,12,1"
15144,commdev-image-keyboard-response,598,1762102,learnblock2,547.7999992370605,img/planet8_right.png,8,Community 2,NA,TRUE,j,j,NA,NA,NA,1,6,"5,11,13,9,15,7,8,10,14,6,3,2,4,12,1"
15144,commdev-image-keyboard-response,599,1763356,learnblock2,630.2999992370605,img/planet10_left.png,10,Community 2,NA,TRUE,f,f,NA,NA,NA,1,6,"5,11,13,9,15,7,8,10,14,6,3,2,4,12,1"
15144,commdev-image-keyboard-response,600,1764611,learnblock2,1049.6000003814697,img/planet6_right.png,6,Community 2,NA,TRUE,j,j,NA,NA,NA,1,6,"5,11,13,9,15,7,8,10,14,6,3,2,4,12,1"
15144,commdev-image-keyboard-response,601,1765865,learnblock2,703.8000011444092,img/planet7_right.png,7,Community 2,NA,TRUE,j,j,NA,NA,NA,1,6,"5,11,13,9,15,7,8,10,14,6,3,2,4,12,1"
15144,commdev-image-keyboard-response,602,1767120,learnblock2,793.3999996185303,img/planet14_right.png,14,Community 2,NA,TRUE,j,j,NA,NA,NA,1,6,"5,11,13,9,15,7,8,10,14,6,3,2,4,12,1"
15144,commdev-image-keyboard-response,603,1768376,learnblock2,528.0999984741211,img/planet6_right.png,6,Community 2,NA,TRUE,j,j,NA,NA,NA,1,6,"5,11,13,9,15,7,8,10,14,6,3,2,4,12,1"
15144,commdev-image-keyboard-response,604,1769635,learnblock2,562.1000003814697,img/planet8_right.png,8,Community 2,NA,TRUE,j,j,NA,NA,NA,1,6,"5,11,13,9,15,7,8,10,14,6,3,2,4,12,1"
15144,commdev-image-keyboard-response,605,1770893,learnblock2,486.5,img/planet6_right.png,6,Community 2,NA,TRUE,j,j,NA,NA,NA,1,6,"5,11,13,9,15,7,8,10,14,6,3,2,4,12,1"
15144,commdev-image-keyboard-response,606,1772159,learnblock2,568.8999996185303,img/planet10_left.png,10,Community 2,NA,TRUE,f,f,NA,NA,NA,1,6,"5,11,13,9,15,7,8,10,14,6,3,2,4,12,1"
15144,commdev-image-keyboard-response,607,1773421,learnblock2,615.3000011444092,img/planet6_left.png,6,Community 2,NA,TRUE,f,f,NA,NA,NA,1,6,"5,11,13,9,15,7,8,10,14,6,3,2,4,12,1"
15144,commdev-image-keyboard-response,608,1774717,learnblock2,556.8999996185303,img/planet7_right.png,7,Community 2,NA,TRUE,j,j,NA,NA,NA,1,6,"5,11,13,9,15,7,8,10,14,6,3,2,4,12,1"
15144,commdev-image-keyboard-response,609,1775979,learnblock2,466.5,img/planet8_right.png,8,Community 2,NA,TRUE,j,j,NA,NA,NA,1,6,"5,11,13,9,15,7,8,10,14,6,3,2,4,12,1"
15144,commdev-image-keyboard-response,610,1777238,learnblock2,616.3000011444092,img/planet7_left.png,7,Community 2,NA,TRUE,f,f,NA,NA,NA,1,6,"5,11,13,9,15,7,8,10,14,6,3,2,4,12,1"
15144,commdev-image-keyboard-response,611,1778499,learnblock2,736.7000007629395,img/planet6_right.png,6,Community 2,NA,TRUE,j,j,NA,NA,NA,1,6,"5,11,13,9,15,7,8,10,14,6,3,2,4,12,1"
15144,commdev-image-keyboard-response,612,1779755,learnblock2,506.8000011444092,img/planet8_right.png,8,Community 2,NA,TRUE,j,j,NA,NA,NA,1,6,"5,11,13,9,15,7,8,10,14,6,3,2,4,12,1"
15144,commdev-image-keyboard-response,613,1781017,learnblock2,622.9000015258789,img/planet7_right.png,7,Community 2,NA,TRUE,j,j,NA,NA,NA,1,6,"5,11,13,9,15,7,8,10,14,6,3,2,4,12,1"
15144,commdev-image-keyboard-response,614,1782269,learnblock2,673.2000007629395,img/planet6_left.png,6,Community 2,NA,TRUE,f,f,NA,NA,NA,1,6,"5,11,13,9,15,7,8,10,14,6,3,2,4,12,1"
15144,commdev-image-keyboard-response,615,1783522,learnblock2,622.9000015258789,img/planet10_right.png,10,Community 2,NA,TRUE,j,j,NA,NA,NA,1,6,"5,11,13,9,15,7,8,10,14,6,3,2,4,12,1"
15144,commdev-image-keyboard-response,616,1784780,learnblock2,636.6000003814697,img/planet14_right.png,14,Community 2,NA,TRUE,j,j,NA,NA,NA,1,6,"5,11,13,9,15,7,8,10,14,6,3,2,4,12,1"
15144,commdev-image-keyboard-response,617,1786041,learnblock2,523.1000003814697,img/planet7_right.png,7,Community 2,NA,TRUE,j,j,NA,NA,NA,1,6,"5,11,13,9,15,7,8,10,14,6,3,2,4,12,1"
15144,commdev-image-keyboard-response,618,1787296,learnblock2,671.3999996185303,img/planet8_left.png,8,Community 2,NA,TRUE,f,f,NA,NA,NA,1,6,"5,11,13,9,15,7,8,10,14,6,3,2,4,12,1"
15144,commdev-image-keyboard-response,619,1788559,learnblock2,null,img/planet14_right.png,14,Community 2,NA,FALSE,null,j,NA,NA,NA,1,6,"5,11,13,9,15,7,8,10,14,6,3,2,4,12,1"
15144,commdev-image-keyboard-response,620,1789819,learnblock2,69.39999961853027,img/planet7_left.png,7,Community 2,NA,FALSE,j,f,NA,NA,NA,1,6,"5,11,13,9,15,7,8,10,14,6,3,2,4,12,1"
15144,commdev-image-keyboard-response,621,1791074,learnblock2,676,img/planet9_right.png,9,Community 1,NA,TRUE,j,j,NA,NA,NA,1,6,"5,11,13,9,15,7,8,10,14,6,3,2,4,12,1"
15144,commdev-image-keyboard-response,622,1792332,learnblock2,687.6999988555908,img/planet11_right.png,11,Community 1,NA,TRUE,j,j,NA,NA,NA,1,6,"5,11,13,9,15,7,8,10,14,6,3,2,4,12,1"
15144,commdev-image-keyboard-response,623,1793592,learnblock2,1082.599998474121,img/planet9_left.png,9,Community 1,NA,TRUE,f,f,NA,NA,NA,1,6,"5,11,13,9,15,7,8,10,14,6,3,2,4,12,1"
15144,commdev-image-keyboard-response,624,1794859,learnblock2,665.5,img/planet11_left.png,11,Community 1,NA,TRUE,f,f,NA,NA,NA,1,6,"5,11,13,9,15,7,8,10,14,6,3,2,4,12,1"
15144,commdev-image-keyboard-response,625,1796115,learnblock2,1112.8000011444092,img/planet9_right.png,9,Community 1,NA,TRUE,j,j,NA,NA,NA,1,6,"5,11,13,9,15,7,8,10,14,6,3,2,4,12,1"
15144,commdev-image-keyboard-response,626,1797370,learnblock2,642,img/planet11_left.png,11,Community 1,NA,TRUE,f,f,NA,NA,NA,1,6,"5,11,13,9,15,7,8,10,14,6,3,2,4,12,1"
15144,commdev-image-keyboard-response,627,1798622,learnblock2,841.3999996185303,img/planet9_right.png,9,Community 1,NA,TRUE,j,j,NA,NA,NA,1,6,"5,11,13,9,15,7,8,10,14,6,3,2,4,12,1"
15144,commdev-image-keyboard-response,628,1799876,learnblock2,796.8999996185303,img/planet7_left.png,7,Community 2,NA,TRUE,f,f,NA,NA,NA,1,6,"5,11,13,9,15,7,8,10,14,6,3,2,4,12,1"
15144,commdev-image-keyboard-response,629,1801132,learnblock2,705.5,img/planet8_left.png,8,Community 2,NA,FALSE,j,f,NA,NA,NA,1,6,"5,11,13,9,15,7,8,10,14,6,3,2,4,12,1"
15144,commdev-image-keyboard-response,630,1802389,learnblock2,560.2999992370605,img/planet7_right.png,7,Community 2,NA,TRUE,j,j,NA,NA,NA,1,6,"5,11,13,9,15,7,8,10,14,6,3,2,4,12,1"
15144,commdev-image-keyboard-response,631,1803659,learnblock2,692.3000011444092,img/planet6_right.png,6,Community 2,NA,TRUE,j,j,NA,NA,NA,1,6,"5,11,13,9,15,7,8,10,14,6,3,2,4,12,1"
15144,commdev-image-keyboard-response,632,1804925,learnblock2,686.8999996185303,img/planet7_left.png,7,Community 2,NA,TRUE,f,f,NA,NA,NA,1,6,"5,11,13,9,15,7,8,10,14,6,3,2,4,12,1"
15144,commdev-image-keyboard-response,633,1806181,learnblock2,728.2000007629395,img/planet9_left.png,9,Community 1,NA,FALSE,j,f,NA,NA,NA,1,6,"5,11,13,9,15,7,8,10,14,6,3,2,4,12,1"
15144,commdev-image-keyboard-response,634,1807438,learnblock2,695.1999988555908,img/planet11_left.png,11,Community 1,NA,TRUE,f,f,NA,NA,NA,1,6,"5,11,13,9,15,7,8,10,14,6,3,2,4,12,1"
15144,commdev-image-keyboard-response,635,1808700,learnblock2,null,img/planet5_right.png,5,Community 1,NA,FALSE,null,j,NA,NA,NA,1,6,"5,11,13,9,15,7,8,10,14,6,3,2,4,12,1"
15144,commdev-image-keyboard-response,636,1809957,learnblock2,85.80000114440918,img/planet9_right.png,9,Community 1,NA,TRUE,j,j,NA,NA,NA,1,6,"5,11,13,9,15,7,8,10,14,6,3,2,4,12,1"
15144,commdev-image-keyboard-response,637,1811225,learnblock2,537.6999988555908,img/planet7_right.png,7,Community 2,NA,TRUE,j,j,NA,NA,NA,1,6,"5,11,13,9,15,7,8,10,14,6,3,2,4,12,1"
15144,commdev-image-keyboard-response,638,1812491,learnblock2,654.7999992370605,img/planet6_left.png,6,Community 2,NA,TRUE,f,f,NA,NA,NA,1,6,"5,11,13,9,15,7,8,10,14,6,3,2,4,12,1"
15144,commdev-image-keyboard-response,639,1813752,learnblock2,651.5,img/planet10_right.png,10,Community 2,NA,TRUE,j,j,NA,NA,NA,1,6,"5,11,13,9,15,7,8,10,14,6,3,2,4,12,1"
15144,commdev-image-keyboard-response,640,1815010,learnblock2,523.7000007629395,img/planet8_left.png,8,Community 2,NA,TRUE,f,f,NA,NA,NA,1,6,"5,11,13,9,15,7,8,10,14,6,3,2,4,12,1"
15144,commdev-image-keyboard-response,641,1816283,learnblock2,566.3999996185303,img/planet10_left.png,10,Community 2,NA,TRUE,f,f,NA,NA,NA,1,6,"5,11,13,9,15,7,8,10,14,6,3,2,4,12,1"
15144,commdev-image-keyboard-response,642,1817542,learnblock2,509,img/planet8_right.png,8,Community 2,NA,TRUE,j,j,NA,NA,NA,1,6,"5,11,13,9,15,7,8,10,14,6,3,2,4,12,1"
15144,commdev-image-keyboard-response,643,1818804,learnblock2,728.3000011444092,img/planet6_left.png,6,Community 2,NA,TRUE,f,f,NA,NA,NA,1,6,"5,11,13,9,15,7,8,10,14,6,3,2,4,12,1"
15144,commdev-image-keyboard-response,644,1820063,learnblock2,726,img/planet8_left.png,8,Community 2,NA,TRUE,f,f,NA,NA,NA,1,6,"5,11,13,9,15,7,8,10,14,6,3,2,4,12,1"
15144,commdev-image-keyboard-response,645,1821318,learnblock2,null,img/planet6_right.png,6,Community 2,NA,FALSE,null,j,NA,NA,NA,1,6,"5,11,13,9,15,7,8,10,14,6,3,2,4,12,1"
15144,commdev-image-keyboard-response,646,1822576,learnblock2,636.3000011444092,img/planet8_left.png,8,Community 2,NA,TRUE,f,f,NA,NA,NA,1,6,"5,11,13,9,15,7,8,10,14,6,3,2,4,12,1"
15144,commdev-image-keyboard-response,647,1823833,learnblock2,817.6999988555908,img/planet6_left.png,6,Community 2,NA,TRUE,f,f,NA,NA,NA,1,6,"5,11,13,9,15,7,8,10,14,6,3,2,4,12,1"
15144,commdev-image-keyboard-response,648,1825099,learnblock2,null,img/planet8_left.png,8,Community 2,NA,FALSE,null,f,NA,NA,NA,1,6,"5,11,13,9,15,7,8,10,14,6,3,2,4,12,1"
15144,commdev-image-keyboard-response,649,1826358,learnblock2,834.3000011444092,img/planet14_right.png,14,Community 2,NA,TRUE,j,j,NA,NA,NA,1,6,"5,11,13,9,15,7,8,10,14,6,3,2,4,12,1"
15144,commdev-image-keyboard-response,650,1827624,learnblock2,712.1000003814697,img/planet8_right.png,8,Community 2,NA,TRUE,j,j,NA,NA,NA,1,6,"5,11,13,9,15,7,8,10,14,6,3,2,4,12,1"
15144,commdev-image-keyboard-response,651,1828885,learnblock2,607.7000007629395,img/planet10_right.png,10,Community 2,NA,TRUE,j,j,NA,NA,NA,1,6,"5,11,13,9,15,7,8,10,14,6,3,2,4,12,1"
15144,commdev-image-keyboard-response,652,1830145,learnblock2,531.2999992370605,img/planet8_right.png,8,Community 2,NA,TRUE,j,j,NA,NA,NA,1,6,"5,11,13,9,15,7,8,10,14,6,3,2,4,12,1"
15144,commdev-image-keyboard-response,653,1831408,learnblock2,654.1000003814697,img/planet7_left.png,7,Community 2,NA,TRUE,f,f,NA,NA,NA,1,6,"5,11,13,9,15,7,8,10,14,6,3,2,4,12,1"
15144,commdev-image-keyboard-response,654,1832674,learnblock2,565.2999992370605,img/planet14_left.png,14,Community 2,NA,TRUE,f,f,NA,NA,NA,1,6,"5,11,13,9,15,7,8,10,14,6,3,2,4,12,1"
15144,commdev-image-keyboard-response,655,1833930,learnblock2,639.8999996185303,img/planet7_left.png,7,Community 2,NA,TRUE,f,f,NA,NA,NA,1,6,"5,11,13,9,15,7,8,10,14,6,3,2,4,12,1"
15144,commdev-image-keyboard-response,656,1835191,learnblock2,572.8999996185303,img/planet6_left.png,6,Community 2,NA,TRUE,f,f,NA,NA,NA,1,6,"5,11,13,9,15,7,8,10,14,6,3,2,4,12,1"
15144,commdev-image-keyboard-response,657,1836455,learnblock2,552.8999996185303,img/planet7_right.png,7,Community 2,NA,TRUE,j,j,NA,NA,NA,1,6,"5,11,13,9,15,7,8,10,14,6,3,2,4,12,1"
15144,commdev-image-keyboard-response,658,1837718,learnblock2,505.20000076293945,img/planet8_left.png,8,Community 2,NA,TRUE,f,f,NA,NA,NA,1,6,"5,11,13,9,15,7,8,10,14,6,3,2,4,12,1"
15144,commdev-image-keyboard-response,659,1838978,learnblock2,683.6000003814697,img/planet6_right.png,6,Community 2,NA,TRUE,j,j,NA,NA,NA,1,6,"5,11,13,9,15,7,8,10,14,6,3,2,4,12,1"
15144,commdev-image-keyboard-response,660,1840240,learnblock2,573.7999992370605,img/planet8_left.png,8,Community 2,NA,TRUE,f,f,NA,NA,NA,1,6,"5,11,13,9,15,7,8,10,14,6,3,2,4,12,1"
15144,commdev-image-keyboard-response,661,1841495,learnblock2,582.6000003814697,img/planet6_left.png,6,Community 2,NA,TRUE,f,f,NA,NA,NA,1,6,"5,11,13,9,15,7,8,10,14,6,3,2,4,12,1"
15144,commdev-image-keyboard-response,662,1842763,learnblock2,951.8999996185303,img/planet7_left.png,7,Community 2,NA,TRUE,f,f,NA,NA,NA,1,6,"5,11,13,9,15,7,8,10,14,6,3,2,4,12,1"
15144,commdev-image-keyboard-response,663,1844019,learnblock2,545.7999992370605,img/planet14_right.png,14,Community 2,NA,FALSE,f,j,NA,NA,NA,1,6,"5,11,13,9,15,7,8,10,14,6,3,2,4,12,1"
15144,commdev-image-keyboard-response,664,1845273,learnblock2,576.8999996185303,img/planet6_right.png,6,Community 2,NA,TRUE,j,j,NA,NA,NA,1,6,"5,11,13,9,15,7,8,10,14,6,3,2,4,12,1"
15144,commdev-image-keyboard-response,665,1846536,learnblock2,663.9000015258789,img/planet7_left.png,7,Community 2,NA,TRUE,f,f,NA,NA,NA,1,6,"5,11,13,9,15,7,8,10,14,6,3,2,4,12,1"
15144,commdev-image-keyboard-response,666,1847799,learnblock2,932.7000007629395,img/planet14_right.png,14,Community 2,NA,TRUE,j,j,NA,NA,NA,1,6,"5,11,13,9,15,7,8,10,14,6,3,2,4,12,1"
15144,commdev-image-keyboard-response,667,1849060,learnblock2,529.6999988555908,img/planet6_right.png,6,Community 2,NA,TRUE,j,j,NA,NA,NA,1,6,"5,11,13,9,15,7,8,10,14,6,3,2,4,12,1"
15144,commdev-image-keyboard-response,668,1850322,learnblock2,579.3999996185303,img/planet10_left.png,10,Community 2,NA,TRUE,f,f,NA,NA,NA,1,6,"5,11,13,9,15,7,8,10,14,6,3,2,4,12,1"
15144,commdev-image-keyboard-response,669,1851588,learnblock2,575.8000011444092,img/planet14_left.png,14,Community 2,NA,TRUE,f,f,NA,NA,NA,1,6,"5,11,13,9,15,7,8,10,14,6,3,2,4,12,1"
15144,commdev-image-keyboard-response,670,1852853,learnblock2,522.5,img/planet10_right.png,10,Community 2,NA,TRUE,j,j,NA,NA,NA,1,6,"5,11,13,9,15,7,8,10,14,6,3,2,4,12,1"
15144,commdev-image-keyboard-response,671,1854109,learnblock2,590,img/planet8_right.png,8,Community 2,NA,TRUE,j,j,NA,NA,NA,1,6,"5,11,13,9,15,7,8,10,14,6,3,2,4,12,1"
15144,commdev-image-keyboard-response,672,1855374,learnblock2,543.3999996185303,img/planet7_left.png,7,Community 2,NA,TRUE,f,f,NA,NA,NA,1,6,"5,11,13,9,15,7,8,10,14,6,3,2,4,12,1"
15144,commdev-image-keyboard-response,673,1856648,learnblock2,559.1000003814697,img/planet6_left.png,6,Community 2,NA,TRUE,f,f,NA,NA,NA,1,6,"5,11,13,9,15,7,8,10,14,6,3,2,4,12,1"
15144,commdev-image-keyboard-response,674,1857905,learnblock2,530.2999992370605,img/planet7_right.png,7,Community 2,NA,TRUE,j,j,NA,NA,NA,1,6,"5,11,13,9,15,7,8,10,14,6,3,2,4,12,1"
15144,commdev-image-keyboard-response,675,1859178,learnblock2,584.7999992370605,img/planet8_left.png,8,Community 2,NA,FALSE,j,f,NA,NA,NA,1,6,"5,11,13,9,15,7,8,10,14,6,3,2,4,12,1"
15144,commdev-image-keyboard-response,676,1860432,learnblock2,489.1999988555908,img/planet6_right.png,6,Community 2,NA,TRUE,j,j,NA,NA,NA,1,6,"5,11,13,9,15,7,8,10,14,6,3,2,4,12,1"
15144,commdev-image-keyboard-response,677,1861692,learnblock2,491.1999988555908,img/planet14_right.png,14,Community 2,NA,TRUE,j,j,NA,NA,NA,1,6,"5,11,13,9,15,7,8,10,14,6,3,2,4,12,1"
15144,commdev-image-keyboard-response,678,1862946,learnblock2,523.2999992370605,img/planet7_left.png,7,Community 2,NA,TRUE,f,f,NA,NA,NA,1,6,"5,11,13,9,15,7,8,10,14,6,3,2,4,12,1"
15144,commdev-image-keyboard-response,679,1864202,learnblock2,707.1999988555908,img/planet6_left.png,6,Community 2,NA,TRUE,f,f,NA,NA,NA,1,6,"5,11,13,9,15,7,8,10,14,6,3,2,4,12,1"
15144,commdev-image-keyboard-response,680,1865466,learnblock2,573.5,img/planet14_right.png,14,Community 2,NA,TRUE,j,j,NA,NA,NA,1,6,"5,11,13,9,15,7,8,10,14,6,3,2,4,12,1"
15144,commdev-image-keyboard-response,681,1866726,learnblock2,560.5,img/planet6_left.png,6,Community 2,NA,TRUE,f,f,NA,NA,NA,1,6,"5,11,13,9,15,7,8,10,14,6,3,2,4,12,1"
15144,commdev-image-keyboard-response,682,1867986,learnblock2,613.3999996185303,img/planet10_left.png,10,Community 2,NA,TRUE,f,f,NA,NA,NA,1,6,"5,11,13,9,15,7,8,10,14,6,3,2,4,12,1"
15144,commdev-image-keyboard-response,683,1869244,learnblock2,1042.1000003814697,img/planet6_left.png,6,Community 2,NA,FALSE,j,f,NA,NA,NA,1,6,"5,11,13,9,15,7,8,10,14,6,3,2,4,12,1"
15144,commdev-image-keyboard-response,684,1870503,learnblock2,638.3000011444092,img/planet14_right.png,14,Community 2,NA,TRUE,j,j,NA,NA,NA,1,6,"5,11,13,9,15,7,8,10,14,6,3,2,4,12,1"
15144,commdev-image-keyboard-response,685,1871759,learnblock2,974.2000007629395,img/planet7_left.png,7,Community 2,NA,TRUE,f,f,NA,NA,NA,1,6,"5,11,13,9,15,7,8,10,14,6,3,2,4,12,1"
15144,commdev-image-keyboard-response,686,1873019,learnblock2,821.7999992370605,img/planet6_right.png,6,Community 2,NA,TRUE,j,j,NA,NA,NA,1,6,"5,11,13,9,15,7,8,10,14,6,3,2,4,12,1"
15144,commdev-image-keyboard-response,687,1874274,learnblock2,880.3999996185303,img/planet8_right.png,8,Community 2,NA,TRUE,j,j,NA,NA,NA,1,6,"5,11,13,9,15,7,8,10,14,6,3,2,4,12,1"
15144,commdev-image-keyboard-response,688,1875534,learnblock2,648,img/planet10_left.png,10,Community 2,NA,TRUE,f,f,NA,NA,NA,1,6,"5,11,13,9,15,7,8,10,14,6,3,2,4,12,1"
15144,commdev-image-keyboard-response,689,1876807,learnblock2,588,img/planet2_right.png,2,Community 3,NA,TRUE,j,j,NA,NA,NA,1,6,"5,11,13,9,15,7,8,10,14,6,3,2,4,12,1"
15144,commdev-image-keyboard-response,690,1878068,learnblock2,640.2000007629395,img/planet4_right.png,4,Community 3,NA,TRUE,j,j,NA,NA,NA,1,6,"5,11,13,9,15,7,8,10,14,6,3,2,4,12,1"
15144,commdev-image-keyboard-response,691,1879327,learnblock2,671.3999996185303,img/planet12_right.png,12,Community 3,NA,TRUE,j,j,NA,NA,NA,1,6,"5,11,13,9,15,7,8,10,14,6,3,2,4,12,1"
