subject_id,trial_type,trial_index,time_elapsed,block,rt,stimulus,planet,community,response,correct,key_press,learning_correct_response,parse,init_locations,final_locations,browser_interactions,num_comp,planet_map
15138,commdev-instructions,7,34597,NA,1760.2999999523163,"<p>In this game, you are a scientist on board a space shuttle. </p><p> On each mission, you will visit planets all across the universe.</p><img src=""img/controlroom.jpg"" width=300vw>",NA,NA,NA,NA,NA,NA,NA,NA,NA,1,7,"2,14,7,11,5,12,13,9,8,6,4,10,3,15,1"
15138,commdev-instructions,8,38531,NA,1855.300000011921,"<p>Here are a few planets you might see:</p><img src=""img/practice1.png"" width=200vw><img src=""img/practice2.png"" width=200vw><img src=""img/practice3.png"" width=200vw>",NA,NA,NA,NA,NA,NA,NA,NA,NA,1,7,"2,14,7,11,5,12,13,9,8,6,4,10,3,15,1"
15138,commdev-instructions,9,48275,NA,2339.899999976158,"<p>Your job as a scientist is to record which direction the winds are moving on each planet.</p><p>There are two types of wind directions:</p><img src=""img/practice1_left.png"" width=200vw><img src=""img/practice1_right.png"" width=200vw>",NA,NA,NA,NA,NA,NA,NA,NA,NA,1,7,"2,14,7,11,5,12,13,9,8,6,4,10,3,15,1"
15138,commdev-instructions,10,53986,NA,830.8999999761581,"<p>If the winds are moving this way, press the letter <strong>F</strong> on the keyboard as fast as you can.</p><img src=""img/leftwind.png"" width=250vw>",NA,NA,NA,NA,NA,NA,NA,NA,NA,1,7,"2,14,7,11,5,12,13,9,8,6,4,10,3,15,1"
15138,commdev-instructions,11,59641,NA,1151.2000000476837,"<p>If the winds are moving this way, press the letter <strong>J</strong> on the keyboard as fast as you can.</p><img src=""img/rightwind.png"" width=350vw>",NA,NA,NA,NA,NA,NA,NA,NA,NA,1,7,"2,14,7,11,5,12,13,9,8,6,4,10,3,15,1"
15138,commdev-instructions,12,65297,NA,1228.4000000357628,<p>You will have 1 second to respond. Try to respond before the time runs out!,NA,NA,NA,NA,NA,NA,NA,NA,NA,1,7,"2,14,7,11,5,12,13,9,8,6,4,10,3,15,1"
15138,commdev-instructions,13,71628,NA,894.3000000119209,<p>The planets you will visit will look different from each other.</p><p>You should respond <strong>only</strong> based on wind direction.,NA,NA,NA,NA,NA,NA,NA,NA,NA,1,7,"2,14,7,11,5,12,13,9,8,6,4,10,3,15,1"
15138,commdev-instructions,14,81661,NA,4867.799999952316,"<p> Ready to start the practice round? </p><p> Remember, press <strong>F</strong> or <strong>J</strong> depending on the wind direction.<br><img src=""img/categorize_planet_example.png""",NA,NA,NA,NA,NA,NA,NA,NA,NA,1,7,"2,14,7,11,5,12,13,9,8,6,4,10,3,15,1"
15138,commdev-instructions,26,131444,NA,4141.399999976158,"<p>Great, now try a short practice mission. </p><p> This time, you will have 1 second to respond and you won't know whether you pressed the right or wrong key for each planet.</p>",NA,NA,NA,NA,NA,NA,NA,NA,NA,1,7,"2,14,7,11,5,12,13,9,8,6,4,10,3,15,1"
15138,commdev-image-keyboard-response,27,132811,practice,null,img/practice4_right.png,NA,Number not found in mappings,NA,FALSE,null,j,NA,NA,NA,1,7,"2,14,7,11,5,12,13,9,8,6,4,10,3,15,1"
15138,commdev-image-keyboard-response,28,134069,practice,null,img/practice3_right.png,NA,Number not found in mappings,NA,FALSE,null,j,NA,NA,NA,1,7,"2,14,7,11,5,12,13,9,8,6,4,10,3,15,1"
15138,commdev-image-keyboard-response,29,135333,practice,239,img/practice1_left.png,NA,Number not found in mappings,NA,FALSE,j,f,NA,NA,NA,1,7,"2,14,7,11,5,12,13,9,8,6,4,10,3,15,1"
15138,commdev-image-keyboard-response,30,136587,practice,null,img/practice3_right.png,NA,Number not found in mappings,NA,FALSE,null,j,NA,NA,NA,1,7,"2,14,7,11,5,12,13,9,8,6,4,10,3,15,1"
15138,commdev-image-keyboard-response,31,137850,practice,242.80000001192093,img/practice4_right.png,NA,Number not found in mappings,NA,TRUE,j,j,NA,NA,NA,1,7,"2,14,7,11,5,12,13,9,8,6,4,10,3,15,1"
15138,commdev-image-keyboard-response,32,139114,practice,188.5999999642372,img/practice3_left.png,NA,Number not found in mappings,NA,FALSE,j,f,NA,NA,NA,1,7,"2,14,7,11,5,12,13,9,8,6,4,10,3,15,1"
15138,commdev-image-keyboard-response,33,140373,practice,147.19999998807907,img/practice1_left.png,NA,Number not found in mappings,NA,TRUE,f,f,NA,NA,NA,1,7,"2,14,7,11,5,12,13,9,8,6,4,10,3,15,1"
15138,commdev-image-keyboard-response,34,141626,practice,358.30000001192093,img/practice3_left.png,NA,Number not found in mappings,NA,TRUE,f,f,NA,NA,NA,1,7,"2,14,7,11,5,12,13,9,8,6,4,10,3,15,1"
15138,commdev-instructions,35,152552,NA,1368.1000000238419,"<p>Great job with the practice round.</p><p>During real missions, you won't know whether you pressed the right or wrong key for each planet.</p><p>But between missions, we will tell you how you did overall.</p>",NA,NA,NA,NA,NA,NA,NA,NA,NA,1,7,"2,14,7,11,5,12,13,9,8,6,4,10,3,15,1"
15138,commdev-instructions,36,162365,NA,1569.800000011921,<p>Try your best! You will be paid a bonus based on how many correct responses you make!</p><p>Responses that are too slow will not count toward your bonus.</p>,NA,NA,NA,NA,NA,NA,NA,NA,NA,1,7,"2,14,7,11,5,12,13,9,8,6,4,10,3,15,1"
15138,commdev-instructions,37,169116,NA,533.9000000357628,"<p>You are almost ready to start the real game.</p><p> First, we are going to ask you some questions about how the game works.</p>",NA,NA,NA,NA,NA,NA,NA,NA,NA,1,7,"2,14,7,11,5,12,13,9,8,6,4,10,3,15,1"
15138,commdev-instructions,48,298529,NA,1488.300000011921,"<p> Nice work! It is now time to start the real game.<p></p>You will go on two missions to record wind directions of different planets.<p></p>Each one will take about 5 minutes. You will get to take a break between missions.<p><p> Remember, press <strong>F</strong> or <strong>J</strong> depending on the wind direction. Good luck!<br><img src=""img/categorize_planet_example.png""",NA,NA,NA,NA,NA,NA,NA,NA,NA,1,7,"2,14,7,11,5,12,13,9,8,6,4,10,3,15,1"
15138,commdev-image-keyboard-response,50,303221,learnblock1,null,img/planet15_right.png,15,Community 3,NA,FALSE,null,j,NA,NA,NA,1,7,"2,14,7,11,5,12,13,9,8,6,4,10,3,15,1"
15138,commdev-image-keyboard-response,51,304485,learnblock1,797.6999999880791,img/planet10_right.png,10,Community 3,NA,FALSE,f,j,NA,NA,NA,1,7,"2,14,7,11,5,12,13,9,8,6,4,10,3,15,1"
15138,commdev-image-keyboard-response,52,305738,learnblock1,null,img/planet1_left.png,1,Community 3,NA,FALSE,null,f,NA,NA,NA,1,7,"2,14,7,11,5,12,13,9,8,6,4,10,3,15,1"
15138,commdev-image-keyboard-response,53,306997,learnblock1,315.30000001192093,img/planet15_right.png,15,Community 3,NA,TRUE,j,j,NA,NA,NA,1,7,"2,14,7,11,5,12,13,9,8,6,4,10,3,15,1"
15138,commdev-image-keyboard-response,54,308255,learnblock1,92.60000002384186,img/planet10_right.png,10,Community 3,NA,FALSE,f,j,NA,NA,NA,1,7,"2,14,7,11,5,12,13,9,8,6,4,10,3,15,1"
15138,commdev-image-keyboard-response,55,309509,learnblock1,546.5,img/planet3_right.png,3,Community 3,NA,TRUE,j,j,NA,NA,NA,1,7,"2,14,7,11,5,12,13,9,8,6,4,10,3,15,1"
15138,commdev-image-keyboard-response,56,310773,learnblock1,341.7000000476837,img/planet15_right.png,15,Community 3,NA,FALSE,f,j,NA,NA,NA,1,7,"2,14,7,11,5,12,13,9,8,6,4,10,3,15,1"
15138,commdev-image-keyboard-response,57,312037,learnblock1,264.5999999642372,img/planet4_right.png,4,Community 3,NA,TRUE,j,j,NA,NA,NA,1,7,"2,14,7,11,5,12,13,9,8,6,4,10,3,15,1"
15138,commdev-image-keyboard-response,58,313301,learnblock1,3.199999988079071,img/planet5_right.png,5,Community 1,NA,TRUE,j,j,NA,NA,NA,1,7,"2,14,7,11,5,12,13,9,8,6,4,10,3,15,1"
15138,commdev-image-keyboard-response,59,314560,learnblock1,105.69999998807907,img/planet7_right.png,7,Community 1,NA,FALSE,f,j,NA,NA,NA,1,7,"2,14,7,11,5,12,13,9,8,6,4,10,3,15,1"
15138,commdev-image-keyboard-response,60,315817,learnblock1,359.5,img/planet14_right.png,14,Community 1,NA,FALSE,f,j,NA,NA,NA,1,7,"2,14,7,11,5,12,13,9,8,6,4,10,3,15,1"
15138,commdev-image-keyboard-response,61,317075,learnblock1,412.2000000476837,img/planet2_left.png,2,Community 1,NA,FALSE,j,f,NA,NA,NA,1,7,"2,14,7,11,5,12,13,9,8,6,4,10,3,15,1"
15138,commdev-image-keyboard-response,62,318336,learnblock1,276.80000001192093,img/planet7_right.png,7,Community 1,NA,FALSE,f,j,NA,NA,NA,1,7,"2,14,7,11,5,12,13,9,8,6,4,10,3,15,1"
15138,commdev-image-keyboard-response,63,319589,learnblock1,257.5,img/planet14_right.png,14,Community 1,NA,TRUE,j,j,NA,NA,NA,1,7,"2,14,7,11,5,12,13,9,8,6,4,10,3,15,1"
15138,commdev-image-keyboard-response,64,320842,learnblock1,28.700000047683716,img/planet7_right.png,7,Community 1,NA,TRUE,j,j,NA,NA,NA,1,7,"2,14,7,11,5,12,13,9,8,6,4,10,3,15,1"
15138,commdev-image-keyboard-response,65,322095,learnblock1,186.29999995231628,img/planet2_left.png,2,Community 1,NA,FALSE,j,f,NA,NA,NA,1,7,"2,14,7,11,5,12,13,9,8,6,4,10,3,15,1"
15138,commdev-image-keyboard-response,66,323353,learnblock1,275.5999999642372,img/planet11_right.png,11,Community 1,NA,FALSE,f,j,NA,NA,NA,1,7,"2,14,7,11,5,12,13,9,8,6,4,10,3,15,1"
15138,commdev-image-keyboard-response,67,324606,learnblock1,39,img/planet12_left.png,12,Community 2,NA,TRUE,f,f,NA,NA,NA,1,7,"2,14,7,11,5,12,13,9,8,6,4,10,3,15,1"
15138,commdev-image-keyboard-response,68,325873,learnblock1,75.30000001192093,img/planet11_right.png,11,Community 1,NA,FALSE,f,j,NA,NA,NA,1,7,"2,14,7,11,5,12,13,9,8,6,4,10,3,15,1"
15138,commdev-image-keyboard-response,69,327133,learnblock1,77.09999996423721,img/planet14_left.png,14,Community 1,NA,FALSE,j,f,NA,NA,NA,1,7,"2,14,7,11,5,12,13,9,8,6,4,10,3,15,1"
15138,commdev-image-keyboard-response,70,328386,learnblock1,281.5,img/planet7_right.png,7,Community 1,NA,FALSE,f,j,NA,NA,NA,1,7,"2,14,7,11,5,12,13,9,8,6,4,10,3,15,1"
15138,commdev-image-keyboard-response,71,329637,learnblock1,186.4000000357628,img/planet14_right.png,14,Community 1,NA,FALSE,f,j,NA,NA,NA,1,7,"2,14,7,11,5,12,13,9,8,6,4,10,3,15,1"
15138,commdev-image-keyboard-response,72,330897,learnblock1,258.39999997615814,img/planet11_left.png,11,Community 1,NA,TRUE,f,f,NA,NA,NA,1,7,"2,14,7,11,5,12,13,9,8,6,4,10,3,15,1"
15138,commdev-image-keyboard-response,73,332156,learnblock1,132.4000000357628,img/planet2_left.png,2,Community 1,NA,TRUE,f,f,NA,NA,NA,1,7,"2,14,7,11,5,12,13,9,8,6,4,10,3,15,1"
15138,commdev-image-keyboard-response,74,333408,learnblock1,null,img/planet7_right.png,7,Community 1,NA,FALSE,null,j,NA,NA,NA,1,7,"2,14,7,11,5,12,13,9,8,6,4,10,3,15,1"
15138,commdev-image-keyboard-response,75,334664,learnblock1,469,img/planet5_right.png,5,Community 1,NA,FALSE,f,j,NA,NA,NA,1,7,"2,14,7,11,5,12,13,9,8,6,4,10,3,15,1"
15138,commdev-image-keyboard-response,76,335919,learnblock1,21.399999976158142,img/planet4_left.png,4,Community 3,NA,TRUE,f,f,NA,NA,NA,1,7,"2,14,7,11,5,12,13,9,8,6,4,10,3,15,1"
15138,commdev-image-keyboard-response,77,337171,learnblock1,653.3000000119209,img/planet3_right.png,3,Community 3,NA,FALSE,f,j,NA,NA,NA,1,7,"2,14,7,11,5,12,13,9,8,6,4,10,3,15,1"
15138,commdev-image-keyboard-response,78,338430,learnblock1,247.80000001192093,img/planet10_right.png,10,Community 3,NA,FALSE,f,j,NA,NA,NA,1,7,"2,14,7,11,5,12,13,9,8,6,4,10,3,15,1"
15138,commdev-image-keyboard-response,79,339690,learnblock1,160.89999997615814,img/planet15_left.png,15,Community 3,NA,TRUE,f,f,NA,NA,NA,1,7,"2,14,7,11,5,12,13,9,8,6,4,10,3,15,1"
15138,commdev-image-keyboard-response,80,340942,learnblock1,291,img/planet10_left.png,10,Community 3,NA,TRUE,f,f,NA,NA,NA,1,7,"2,14,7,11,5,12,13,9,8,6,4,10,3,15,1"
15138,commdev-image-keyboard-response,81,342201,learnblock1,126.5,img/planet9_right.png,9,Community 2,NA,FALSE,f,j,NA,NA,NA,1,7,"2,14,7,11,5,12,13,9,8,6,4,10,3,15,1"
15138,commdev-image-keyboard-response,82,343460,learnblock1,499.0999999642372,img/planet10_left.png,10,Community 3,NA,TRUE,f,f,NA,NA,NA,1,7,"2,14,7,11,5,12,13,9,8,6,4,10,3,15,1"
15138,commdev-image-keyboard-response,83,344718,learnblock1,878.0999999642372,img/planet3_left.png,3,Community 3,NA,TRUE,f,f,NA,NA,NA,1,7,"2,14,7,11,5,12,13,9,8,6,4,10,3,15,1"
15138,commdev-image-keyboard-response,84,345971,learnblock1,84.69999998807907,img/planet10_left.png,10,Community 3,NA,TRUE,f,f,NA,NA,NA,1,7,"2,14,7,11,5,12,13,9,8,6,4,10,3,15,1"
15138,commdev-image-keyboard-response,85,347223,learnblock1,111.60000002384186,img/planet9_right.png,9,Community 2,NA,FALSE,f,j,NA,NA,NA,1,7,"2,14,7,11,5,12,13,9,8,6,4,10,3,15,1"
15138,commdev-image-keyboard-response,86,348474,learnblock1,101.10000002384186,img/planet10_left.png,10,Community 3,NA,TRUE,f,f,NA,NA,NA,1,7,"2,14,7,11,5,12,13,9,8,6,4,10,3,15,1"
15138,commdev-image-keyboard-response,87,349732,learnblock1,232.9000000357628,img/planet1_right.png,1,Community 3,NA,FALSE,f,j,NA,NA,NA,1,7,"2,14,7,11,5,12,13,9,8,6,4,10,3,15,1"
15138,commdev-image-keyboard-response,88,350985,learnblock1,37.09999996423721,img/planet4_right.png,4,Community 3,NA,FALSE,f,j,NA,NA,NA,1,7,"2,14,7,11,5,12,13,9,8,6,4,10,3,15,1"
15138,commdev-image-keyboard-response,89,352238,learnblock1,1088.4000000357628,img/planet5_right.png,5,Community 1,NA,TRUE,j,j,NA,NA,NA,1,7,"2,14,7,11,5,12,13,9,8,6,4,10,3,15,1"
15138,commdev-image-keyboard-response,90,353496,learnblock1,50.69999998807907,img/planet7_left.png,7,Community 1,NA,FALSE,j,f,NA,NA,NA,1,7,"2,14,7,11,5,12,13,9,8,6,4,10,3,15,1"
15138,commdev-image-keyboard-response,91,354752,learnblock1,177.69999998807907,img/planet11_right.png,11,Community 1,NA,FALSE,f,j,NA,NA,NA,1,7,"2,14,7,11,5,12,13,9,8,6,4,10,3,15,1"
15138,commdev-image-keyboard-response,92,356008,learnblock1,143.19999998807907,img/planet7_left.png,7,Community 1,NA,FALSE,j,f,NA,NA,NA,1,7,"2,14,7,11,5,12,13,9,8,6,4,10,3,15,1"
15138,commdev-image-keyboard-response,93,357259,learnblock1,30.100000023841858,img/planet14_right.png,14,Community 1,NA,TRUE,j,j,NA,NA,NA,1,7,"2,14,7,11,5,12,13,9,8,6,4,10,3,15,1"
15138,commdev-image-keyboard-response,94,358511,learnblock1,243.60000002384186,img/planet7_right.png,7,Community 1,NA,TRUE,j,j,NA,NA,NA,1,7,"2,14,7,11,5,12,13,9,8,6,4,10,3,15,1"
15138,commdev-image-keyboard-response,95,359770,learnblock1,147.80000001192093,img/planet11_right.png,11,Community 1,NA,TRUE,j,j,NA,NA,NA,1,7,"2,14,7,11,5,12,13,9,8,6,4,10,3,15,1"
15138,commdev-image-keyboard-response,96,361022,learnblock1,68.09999996423721,img/planet14_left.png,14,Community 1,NA,FALSE,j,f,NA,NA,NA,1,7,"2,14,7,11,5,12,13,9,8,6,4,10,3,15,1"
15138,commdev-image-keyboard-response,97,362273,learnblock1,110.5,img/planet7_right.png,7,Community 1,NA,TRUE,j,j,NA,NA,NA,1,7,"2,14,7,11,5,12,13,9,8,6,4,10,3,15,1"
15138,commdev-image-keyboard-response,98,363533,learnblock1,104,img/planet11_left.png,11,Community 1,NA,TRUE,f,f,NA,NA,NA,1,7,"2,14,7,11,5,12,13,9,8,6,4,10,3,15,1"
15138,commdev-image-keyboard-response,99,364792,learnblock1,72.5,img/planet12_left.png,12,Community 2,NA,TRUE,f,f,NA,NA,NA,1,7,"2,14,7,11,5,12,13,9,8,6,4,10,3,15,1"
15138,commdev-image-keyboard-response,100,366052,learnblock1,165,img/planet8_left.png,8,Community 2,NA,TRUE,f,f,NA,NA,NA,1,7,"2,14,7,11,5,12,13,9,8,6,4,10,3,15,1"
15138,commdev-image-keyboard-response,101,367304,learnblock1,121.09999996423721,img/planet6_left.png,6,Community 2,NA,FALSE,j,f,NA,NA,NA,1,7,"2,14,7,11,5,12,13,9,8,6,4,10,3,15,1"
15138,commdev-image-keyboard-response,102,368556,learnblock1,119.89999997615814,img/planet8_right.png,8,Community 2,NA,TRUE,j,j,NA,NA,NA,1,7,"2,14,7,11,5,12,13,9,8,6,4,10,3,15,1"
15138,commdev-image-keyboard-response,103,369815,learnblock1,81.40000003576279,img/planet6_left.png,6,Community 2,NA,FALSE,j,f,NA,NA,NA,1,7,"2,14,7,11,5,12,13,9,8,6,4,10,3,15,1"
15138,commdev-image-keyboard-response,104,371070,learnblock1,69.09999996423721,img/planet13_right.png,13,Community 2,NA,TRUE,j,j,NA,NA,NA,1,7,"2,14,7,11,5,12,13,9,8,6,4,10,3,15,1"
15138,commdev-image-keyboard-response,105,372336,learnblock1,237.10000002384186,img/planet12_left.png,12,Community 2,NA,TRUE,f,f,NA,NA,NA,1,7,"2,14,7,11,5,12,13,9,8,6,4,10,3,15,1"
15138,commdev-image-keyboard-response,106,373596,learnblock1,10.5,img/planet13_right.png,13,Community 2,NA,FALSE,f,j,NA,NA,NA,1,7,"2,14,7,11,5,12,13,9,8,6,4,10,3,15,1"
15138,commdev-image-keyboard-response,107,374854,learnblock1,127.5,img/planet12_right.png,12,Community 2,NA,FALSE,f,j,NA,NA,NA,1,7,"2,14,7,11,5,12,13,9,8,6,4,10,3,15,1"
15138,commdev-image-keyboard-response,108,376109,learnblock1,114.09999996423721,img/planet8_left.png,8,Community 2,NA,TRUE,f,f,NA,NA,NA,1,7,"2,14,7,11,5,12,13,9,8,6,4,10,3,15,1"
15138,commdev-image-keyboard-response,109,377364,learnblock1,174,img/planet13_right.png,13,Community 2,NA,FALSE,f,j,NA,NA,NA,1,7,"2,14,7,11,5,12,13,9,8,6,4,10,3,15,1"
15138,commdev-image-keyboard-response,110,378617,learnblock1,123.30000001192093,img/planet6_right.png,6,Community 2,NA,FALSE,f,j,NA,NA,NA,1,7,"2,14,7,11,5,12,13,9,8,6,4,10,3,15,1"
15138,commdev-image-keyboard-response,111,379873,learnblock1,161.39999997615814,img/planet8_right.png,8,Community 2,NA,TRUE,j,j,NA,NA,NA,1,7,"2,14,7,11,5,12,13,9,8,6,4,10,3,15,1"
15138,commdev-image-keyboard-response,112,381126,learnblock1,189,img/planet9_left.png,9,Community 2,NA,FALSE,j,f,NA,NA,NA,1,7,"2,14,7,11,5,12,13,9,8,6,4,10,3,15,1"
15138,commdev-image-keyboard-response,113,382381,learnblock1,37.69999998807907,img/planet13_right.png,13,Community 2,NA,TRUE,j,j,NA,NA,NA,1,7,"2,14,7,11,5,12,13,9,8,6,4,10,3,15,1"
15138,commdev-image-keyboard-response,114,383637,learnblock1,157.80000001192093,img/planet6_right.png,6,Community 2,NA,FALSE,f,j,NA,NA,NA,1,7,"2,14,7,11,5,12,13,9,8,6,4,10,3,15,1"
15138,commdev-image-keyboard-response,115,384898,learnblock1,63.40000003576279,img/planet12_right.png,12,Community 2,NA,FALSE,f,j,NA,NA,NA,1,7,"2,14,7,11,5,12,13,9,8,6,4,10,3,15,1"
15138,commdev-image-keyboard-response,116,386157,learnblock1,3.5,img/planet8_left.png,8,Community 2,NA,TRUE,f,f,NA,NA,NA,1,7,"2,14,7,11,5,12,13,9,8,6,4,10,3,15,1"
15138,commdev-image-keyboard-response,117,387410,learnblock1,153.19999998807907,img/planet6_left.png,6,Community 2,NA,TRUE,f,f,NA,NA,NA,1,7,"2,14,7,11,5,12,13,9,8,6,4,10,3,15,1"
15138,commdev-image-keyboard-response,118,388665,learnblock1,68.89999997615814,img/planet13_right.png,13,Community 2,NA,FALSE,f,j,NA,NA,NA,1,7,"2,14,7,11,5,12,13,9,8,6,4,10,3,15,1"
15138,commdev-image-keyboard-response,119,389922,learnblock1,213.60000002384186,img/planet8_right.png,8,Community 2,NA,TRUE,j,j,NA,NA,NA,1,7,"2,14,7,11,5,12,13,9,8,6,4,10,3,15,1"
15138,commdev-image-keyboard-response,120,391178,learnblock1,222.79999995231628,img/planet9_right.png,9,Community 2,NA,TRUE,j,j,NA,NA,NA,1,7,"2,14,7,11,5,12,13,9,8,6,4,10,3,15,1"
15138,commdev-image-keyboard-response,121,392431,learnblock1,26.600000023841858,img/planet6_right.png,6,Community 2,NA,FALSE,f,j,NA,NA,NA,1,7,"2,14,7,11,5,12,13,9,8,6,4,10,3,15,1"
15138,commdev-image-keyboard-response,122,393690,learnblock1,49.10000002384186,img/planet12_right.png,12,Community 2,NA,FALSE,f,j,NA,NA,NA,1,7,"2,14,7,11,5,12,13,9,8,6,4,10,3,15,1"
15138,commdev-image-keyboard-response,123,394942,learnblock1,235.39999997615814,img/planet8_right.png,8,Community 2,NA,TRUE,j,j,NA,NA,NA,1,7,"2,14,7,11,5,12,13,9,8,6,4,10,3,15,1"
15138,commdev-image-keyboard-response,124,396198,learnblock1,165.20000004768372,img/planet6_right.png,6,Community 2,NA,TRUE,j,j,NA,NA,NA,1,7,"2,14,7,11,5,12,13,9,8,6,4,10,3,15,1"
15138,commdev-image-keyboard-response,125,397456,learnblock1,69,img/planet12_right.png,12,Community 2,NA,TRUE,j,j,NA,NA,NA,1,7,"2,14,7,11,5,12,13,9,8,6,4,10,3,15,1"
15138,commdev-image-keyboard-response,126,398713,learnblock1,87.39999997615814,img/planet8_right.png,8,Community 2,NA,FALSE,f,j,NA,NA,NA,1,7,"2,14,7,11,5,12,13,9,8,6,4,10,3,15,1"
15138,commdev-image-keyboard-response,127,399975,learnblock1,193,img/planet9_right.png,9,Community 2,NA,TRUE,j,j,NA,NA,NA,1,7,"2,14,7,11,5,12,13,9,8,6,4,10,3,15,1"
15138,commdev-image-keyboard-response,128,401233,learnblock1,176.5,img/planet13_right.png,13,Community 2,NA,FALSE,f,j,NA,NA,NA,1,7,"2,14,7,11,5,12,13,9,8,6,4,10,3,15,1"
15138,commdev-image-keyboard-response,129,402489,learnblock1,96.30000001192093,img/planet12_left.png,12,Community 2,NA,TRUE,f,f,NA,NA,NA,1,7,"2,14,7,11,5,12,13,9,8,6,4,10,3,15,1"
15138,commdev-image-keyboard-response,130,403743,learnblock1,11.800000011920929,img/planet13_left.png,13,Community 2,NA,TRUE,f,f,NA,NA,NA,1,7,"2,14,7,11,5,12,13,9,8,6,4,10,3,15,1"
15138,commdev-image-keyboard-response,131,405000,learnblock1,313.9000000357628,img/planet9_right.png,9,Community 2,NA,FALSE,f,j,NA,NA,NA,1,7,"2,14,7,11,5,12,13,9,8,6,4,10,3,15,1"
15138,commdev-image-keyboard-response,132,406254,learnblock1,232.10000002384186,img/planet10_right.png,10,Community 3,NA,TRUE,j,j,NA,NA,NA,1,7,"2,14,7,11,5,12,13,9,8,6,4,10,3,15,1"
15138,commdev-image-keyboard-response,133,407506,learnblock1,182.9000000357628,img/planet3_left.png,3,Community 3,NA,TRUE,f,f,NA,NA,NA,1,7,"2,14,7,11,5,12,13,9,8,6,4,10,3,15,1"
15138,commdev-image-keyboard-response,134,408759,learnblock1,307.60000002384186,img/planet10_right.png,10,Community 3,NA,FALSE,f,j,NA,NA,NA,1,7,"2,14,7,11,5,12,13,9,8,6,4,10,3,15,1"
15138,commdev-image-keyboard-response,135,410016,learnblock1,227.69999998807907,img/planet3_right.png,3,Community 3,NA,FALSE,f,j,NA,NA,NA,1,7,"2,14,7,11,5,12,13,9,8,6,4,10,3,15,1"
15138,commdev-image-keyboard-response,136,411276,learnblock1,188.80000001192093,img/planet15_right.png,15,Community 3,NA,FALSE,f,j,NA,NA,NA,1,7,"2,14,7,11,5,12,13,9,8,6,4,10,3,15,1"
15138,commdev-image-keyboard-response,137,412534,learnblock1,291.2000000476837,img/planet10_left.png,10,Community 3,NA,TRUE,f,f,NA,NA,NA,1,7,"2,14,7,11,5,12,13,9,8,6,4,10,3,15,1"
15138,commdev-image-keyboard-response,138,413789,learnblock1,64,img/planet3_left.png,3,Community 3,NA,TRUE,f,f,NA,NA,NA,1,7,"2,14,7,11,5,12,13,9,8,6,4,10,3,15,1"
15138,commdev-image-keyboard-response,139,415042,learnblock1,84.69999998807907,img/planet1_left.png,1,Community 3,NA,TRUE,f,f,NA,NA,NA,1,7,"2,14,7,11,5,12,13,9,8,6,4,10,3,15,1"
15138,commdev-image-keyboard-response,140,416299,learnblock1,132.30000001192093,img/planet15_right.png,15,Community 3,NA,FALSE,f,j,NA,NA,NA,1,7,"2,14,7,11,5,12,13,9,8,6,4,10,3,15,1"
15138,commdev-image-keyboard-response,141,417558,learnblock1,231.39999997615814,img/planet4_right.png,4,Community 3,NA,TRUE,j,j,NA,NA,NA,1,7,"2,14,7,11,5,12,13,9,8,6,4,10,3,15,1"
15138,commdev-image-keyboard-response,142,418811,learnblock1,29.899999976158142,img/planet5_right.png,5,Community 1,NA,FALSE,f,j,NA,NA,NA,1,7,"2,14,7,11,5,12,13,9,8,6,4,10,3,15,1"
15138,commdev-image-keyboard-response,143,420063,learnblock1,79.39999997615814,img/planet14_left.png,14,Community 1,NA,FALSE,j,f,NA,NA,NA,1,7,"2,14,7,11,5,12,13,9,8,6,4,10,3,15,1"
15138,commdev-image-keyboard-response,144,421321,learnblock1,197.19999998807907,img/planet7_left.png,7,Community 1,NA,TRUE,f,f,NA,NA,NA,1,7,"2,14,7,11,5,12,13,9,8,6,4,10,3,15,1"
15138,commdev-image-keyboard-response,145,422579,learnblock1,168.69999998807907,img/planet11_left.png,11,Community 1,NA,TRUE,f,f,NA,NA,NA,1,7,"2,14,7,11,5,12,13,9,8,6,4,10,3,15,1"
15138,commdev-image-keyboard-response,146,423832,learnblock1,125,img/planet7_right.png,7,Community 1,NA,TRUE,j,j,NA,NA,NA,1,7,"2,14,7,11,5,12,13,9,8,6,4,10,3,15,1"
15138,commdev-image-keyboard-response,147,425084,learnblock1,67.60000002384186,img/planet11_right.png,11,Community 1,NA,FALSE,f,j,NA,NA,NA,1,7,"2,14,7,11,5,12,13,9,8,6,4,10,3,15,1"
15138,commdev-image-keyboard-response,148,426342,learnblock1,382.30000001192093,img/planet12_left.png,12,Community 2,NA,TRUE,f,f,NA,NA,NA,1,7,"2,14,7,11,5,12,13,9,8,6,4,10,3,15,1"
15138,commdev-image-keyboard-response,149,427599,learnblock1,20.400000035762787,img/planet6_left.png,6,Community 2,NA,FALSE,j,f,NA,NA,NA,1,7,"2,14,7,11,5,12,13,9,8,6,4,10,3,15,1"
15138,commdev-image-keyboard-response,150,428853,learnblock1,110.5,img/planet8_right.png,8,Community 2,NA,FALSE,f,j,NA,NA,NA,1,7,"2,14,7,11,5,12,13,9,8,6,4,10,3,15,1"
15138,commdev-image-keyboard-response,151,430106,learnblock1,211.89999997615814,img/planet13_left.png,13,Community 2,NA,FALSE,j,f,NA,NA,NA,1,7,"2,14,7,11,5,12,13,9,8,6,4,10,3,15,1"
15138,commdev-image-keyboard-response,152,431357,learnblock1,59.80000001192093,img/planet12_left.png,12,Community 2,NA,TRUE,f,f,NA,NA,NA,1,7,"2,14,7,11,5,12,13,9,8,6,4,10,3,15,1"
15138,commdev-image-keyboard-response,153,432617,learnblock1,50.10000002384186,img/planet11_right.png,11,Community 1,NA,FALSE,f,j,NA,NA,NA,1,7,"2,14,7,11,5,12,13,9,8,6,4,10,3,15,1"
15138,commdev-image-keyboard-response,154,433868,learnblock1,222.5999999642372,img/planet14_left.png,14,Community 1,NA,TRUE,f,f,NA,NA,NA,1,7,"2,14,7,11,5,12,13,9,8,6,4,10,3,15,1"
15138,commdev-image-keyboard-response,155,435127,learnblock1,149.0999999642372,img/planet7_left.png,7,Community 1,NA,TRUE,f,f,NA,NA,NA,1,7,"2,14,7,11,5,12,13,9,8,6,4,10,3,15,1"
15138,commdev-image-keyboard-response,156,436383,learnblock1,162.80000001192093,img/planet14_right.png,14,Community 1,NA,FALSE,f,j,NA,NA,NA,1,7,"2,14,7,11,5,12,13,9,8,6,4,10,3,15,1"
15138,commdev-image-keyboard-response,157,437639,learnblock1,194.89999997615814,img/planet11_right.png,11,Community 1,NA,FALSE,f,j,NA,NA,NA,1,7,"2,14,7,11,5,12,13,9,8,6,4,10,3,15,1"
15138,commdev-image-keyboard-response,158,438892,learnblock1,103.89999997615814,img/planet7_left.png,7,Community 1,NA,TRUE,f,f,NA,NA,NA,1,7,"2,14,7,11,5,12,13,9,8,6,4,10,3,15,1"
15138,commdev-image-keyboard-response,159,440144,learnblock1,135.9000000357628,img/planet2_right.png,2,Community 1,NA,TRUE,j,j,NA,NA,NA,1,7,"2,14,7,11,5,12,13,9,8,6,4,10,3,15,1"
15138,commdev-image-keyboard-response,160,441398,learnblock1,509.80000001192093,img/planet14_right.png,14,Community 1,NA,TRUE,j,j,NA,NA,NA,1,7,"2,14,7,11,5,12,13,9,8,6,4,10,3,15,1"
15138,commdev-image-keyboard-response,161,442662,learnblock1,363,img/planet11_right.png,11,Community 1,NA,TRUE,j,j,NA,NA,NA,1,7,"2,14,7,11,5,12,13,9,8,6,4,10,3,15,1"
15138,commdev-image-keyboard-response,162,443913,learnblock1,1229.2000000476837,img/planet7_right.png,7,Community 1,NA,TRUE,j,j,NA,NA,NA,1,7,"2,14,7,11,5,12,13,9,8,6,4,10,3,15,1"
15138,commdev-image-keyboard-response,163,445169,learnblock1,368.30000001192093,img/planet2_right.png,2,Community 1,NA,TRUE,j,j,NA,NA,NA,1,7,"2,14,7,11,5,12,13,9,8,6,4,10,3,15,1"
15138,commdev-image-keyboard-response,164,446426,learnblock1,79.59999996423721,img/planet7_right.png,7,Community 1,NA,FALSE,f,j,NA,NA,NA,1,7,"2,14,7,11,5,12,13,9,8,6,4,10,3,15,1"
15138,commdev-image-keyboard-response,165,447679,learnblock1,73.19999998807907,img/planet11_left.png,11,Community 1,NA,TRUE,f,f,NA,NA,NA,1,7,"2,14,7,11,5,12,13,9,8,6,4,10,3,15,1"
15138,commdev-image-keyboard-response,166,448934,learnblock1,58.700000047683716,img/planet7_right.png,7,Community 1,NA,TRUE,j,j,NA,NA,NA,1,7,"2,14,7,11,5,12,13,9,8,6,4,10,3,15,1"
15138,commdev-image-keyboard-response,167,450186,learnblock1,92.80000001192093,img/planet14_right.png,14,Community 1,NA,TRUE,j,j,NA,NA,NA,1,7,"2,14,7,11,5,12,13,9,8,6,4,10,3,15,1"
15138,commdev-image-keyboard-response,168,451438,learnblock1,6.200000047683716,img/planet2_left.png,2,Community 1,NA,TRUE,f,f,NA,NA,NA,1,7,"2,14,7,11,5,12,13,9,8,6,4,10,3,15,1"
15138,commdev-image-keyboard-response,169,452693,learnblock1,201.80000001192093,img/planet14_right.png,14,Community 1,NA,FALSE,f,j,NA,NA,NA,1,7,"2,14,7,11,5,12,13,9,8,6,4,10,3,15,1"
15138,commdev-image-keyboard-response,170,453948,learnblock1,171.30000001192093,img/planet11_left.png,11,Community 1,NA,TRUE,f,f,NA,NA,NA,1,7,"2,14,7,11,5,12,13,9,8,6,4,10,3,15,1"
15138,commdev-image-keyboard-response,171,455209,learnblock1,93.40000003576279,img/planet14_left.png,14,Community 1,NA,FALSE,j,f,NA,NA,NA,1,7,"2,14,7,11,5,12,13,9,8,6,4,10,3,15,1"
15138,commdev-image-keyboard-response,172,456465,learnblock1,26.700000047683716,img/planet11_left.png,11,Community 1,NA,FALSE,j,f,NA,NA,NA,1,7,"2,14,7,11,5,12,13,9,8,6,4,10,3,15,1"
15138,commdev-image-keyboard-response,173,457717,learnblock1,193.5999999642372,img/planet14_right.png,14,Community 1,NA,TRUE,j,j,NA,NA,NA,1,7,"2,14,7,11,5,12,13,9,8,6,4,10,3,15,1"
15138,commdev-image-keyboard-response,174,458975,learnblock1,162.80000001192093,img/planet2_left.png,2,Community 1,NA,FALSE,j,f,NA,NA,NA,1,7,"2,14,7,11,5,12,13,9,8,6,4,10,3,15,1"
15138,commdev-image-keyboard-response,175,460231,learnblock1,82.5,img/planet5_right.png,5,Community 1,NA,TRUE,j,j,NA,NA,NA,1,7,"2,14,7,11,5,12,13,9,8,6,4,10,3,15,1"
15138,commdev-image-keyboard-response,176,461483,learnblock1,1.4000000357627869,img/planet7_left.png,7,Community 1,NA,TRUE,f,f,NA,NA,NA,1,7,"2,14,7,11,5,12,13,9,8,6,4,10,3,15,1"
15138,commdev-image-keyboard-response,177,462741,learnblock1,31,img/planet2_left.png,2,Community 1,NA,TRUE,f,f,NA,NA,NA,1,7,"2,14,7,11,5,12,13,9,8,6,4,10,3,15,1"
15138,commdev-image-keyboard-response,178,463994,learnblock1,107.80000001192093,img/planet7_left.png,7,Community 1,NA,TRUE,f,f,NA,NA,NA,1,7,"2,14,7,11,5,12,13,9,8,6,4,10,3,15,1"
15138,commdev-image-keyboard-response,179,465245,learnblock1,194.5999999642372,img/planet2_right.png,2,Community 1,NA,TRUE,j,j,NA,NA,NA,1,7,"2,14,7,11,5,12,13,9,8,6,4,10,3,15,1"
15138,commdev-image-keyboard-response,180,466501,learnblock1,177.89999997615814,img/planet14_right.png,14,Community 1,NA,TRUE,j,j,NA,NA,NA,1,7,"2,14,7,11,5,12,13,9,8,6,4,10,3,15,1"
15138,commdev-image-keyboard-response,181,467756,learnblock1,193.30000001192093,img/planet11_right.png,11,Community 1,NA,TRUE,j,j,NA,NA,NA,1,7,"2,14,7,11,5,12,13,9,8,6,4,10,3,15,1"
15138,commdev-image-keyboard-response,182,469007,learnblock1,49.30000001192093,img/planet12_left.png,12,Community 2,NA,TRUE,f,f,NA,NA,NA,1,7,"2,14,7,11,5,12,13,9,8,6,4,10,3,15,1"
15138,commdev-image-keyboard-response,183,470261,learnblock1,315.7000000476837,img/planet6_left.png,6,Community 2,NA,TRUE,f,f,NA,NA,NA,1,7,"2,14,7,11,5,12,13,9,8,6,4,10,3,15,1"
15138,commdev-image-keyboard-response,184,471517,learnblock1,61.89999997615814,img/planet12_left.png,12,Community 2,NA,TRUE,f,f,NA,NA,NA,1,7,"2,14,7,11,5,12,13,9,8,6,4,10,3,15,1"
15138,commdev-image-keyboard-response,185,472770,learnblock1,165.80000001192093,img/planet8_left.png,8,Community 2,NA,TRUE,f,f,NA,NA,NA,1,7,"2,14,7,11,5,12,13,9,8,6,4,10,3,15,1"
15138,commdev-image-keyboard-response,186,474029,learnblock1,127,img/planet12_right.png,12,Community 2,NA,TRUE,j,j,NA,NA,NA,1,7,"2,14,7,11,5,12,13,9,8,6,4,10,3,15,1"
15138,commdev-image-keyboard-response,187,475294,learnblock1,632,img/planet8_left.png,8,Community 2,NA,FALSE,j,f,NA,NA,NA,1,7,"2,14,7,11,5,12,13,9,8,6,4,10,3,15,1"
15138,commdev-image-keyboard-response,188,476551,learnblock1,138.39999997615814,img/planet13_right.png,13,Community 2,NA,TRUE,j,j,NA,NA,NA,1,7,"2,14,7,11,5,12,13,9,8,6,4,10,3,15,1"
15138,commdev-image-keyboard-response,189,477808,learnblock1,78.59999996423721,img/planet6_left.png,6,Community 2,NA,FALSE,j,f,NA,NA,NA,1,7,"2,14,7,11,5,12,13,9,8,6,4,10,3,15,1"
15138,commdev-image-keyboard-response,190,479064,learnblock1,142.4000000357628,img/planet13_left.png,13,Community 2,NA,FALSE,j,f,NA,NA,NA,1,7,"2,14,7,11,5,12,13,9,8,6,4,10,3,15,1"
15138,commdev-image-keyboard-response,191,480317,learnblock1,71.39999997615814,img/planet9_left.png,9,Community 2,NA,FALSE,j,f,NA,NA,NA,1,7,"2,14,7,11,5,12,13,9,8,6,4,10,3,15,1"
15138,commdev-image-keyboard-response,192,481571,learnblock1,203.19999998807907,img/planet6_left.png,6,Community 2,NA,TRUE,f,f,NA,NA,NA,1,7,"2,14,7,11,5,12,13,9,8,6,4,10,3,15,1"
15138,commdev-image-keyboard-response,193,482831,learnblock1,149.80000001192093,img/planet9_right.png,9,Community 2,NA,TRUE,j,j,NA,NA,NA,1,7,"2,14,7,11,5,12,13,9,8,6,4,10,3,15,1"
15138,commdev-image-keyboard-response,194,484087,learnblock1,161.0999999642372,img/planet8_left.png,8,Community 2,NA,FALSE,j,f,NA,NA,NA,1,7,"2,14,7,11,5,12,13,9,8,6,4,10,3,15,1"
15138,commdev-image-keyboard-response,195,485342,learnblock1,41.60000002384186,img/planet6_right.png,6,Community 2,NA,FALSE,f,j,NA,NA,NA,1,7,"2,14,7,11,5,12,13,9,8,6,4,10,3,15,1"
15138,commdev-image-keyboard-response,196,486596,learnblock1,87.29999995231628,img/planet13_right.png,13,Community 2,NA,TRUE,j,j,NA,NA,NA,1,7,"2,14,7,11,5,12,13,9,8,6,4,10,3,15,1"
15138,commdev-image-keyboard-response,197,487851,learnblock1,65.5,img/planet9_left.png,9,Community 2,NA,TRUE,f,f,NA,NA,NA,1,7,"2,14,7,11,5,12,13,9,8,6,4,10,3,15,1"
15138,commdev-image-keyboard-response,198,489104,learnblock1,59.69999998807907,img/planet6_right.png,6,Community 2,NA,FALSE,f,j,NA,NA,NA,1,7,"2,14,7,11,5,12,13,9,8,6,4,10,3,15,1"
15138,commdev-image-keyboard-response,199,490363,learnblock1,6.199999988079071,img/planet12_right.png,12,Community 2,NA,TRUE,j,j,NA,NA,NA,1,7,"2,14,7,11,5,12,13,9,8,6,4,10,3,15,1"
15138,commdev-image-keyboard-response,200,491616,learnblock1,105.60000002384186,img/planet11_left.png,11,Community 1,NA,TRUE,f,f,NA,NA,NA,1,7,"2,14,7,11,5,12,13,9,8,6,4,10,3,15,1"
15138,commdev-image-keyboard-response,201,492882,learnblock1,310.5999999642372,img/planet7_left.png,7,Community 1,NA,TRUE,f,f,NA,NA,NA,1,7,"2,14,7,11,5,12,13,9,8,6,4,10,3,15,1"
15138,commdev-image-keyboard-response,202,494133,learnblock1,188.39999997615814,img/planet14_right.png,14,Community 1,NA,TRUE,j,j,NA,NA,NA,1,7,"2,14,7,11,5,12,13,9,8,6,4,10,3,15,1"
15138,commdev-image-keyboard-response,203,495386,learnblock1,226.30000001192093,img/planet2_right.png,2,Community 1,NA,TRUE,j,j,NA,NA,NA,1,7,"2,14,7,11,5,12,13,9,8,6,4,10,3,15,1"
15138,commdev-image-keyboard-response,204,496642,learnblock1,142.79999995231628,img/planet5_right.png,5,Community 1,NA,FALSE,f,j,NA,NA,NA,1,7,"2,14,7,11,5,12,13,9,8,6,4,10,3,15,1"
15138,commdev-image-keyboard-response,205,497897,learnblock1,129.5,img/planet7_left.png,7,Community 1,NA,TRUE,f,f,NA,NA,NA,1,7,"2,14,7,11,5,12,13,9,8,6,4,10,3,15,1"
15138,commdev-image-keyboard-response,206,499149,learnblock1,242.39999997615814,img/planet14_right.png,14,Community 1,NA,FALSE,f,j,NA,NA,NA,1,7,"2,14,7,11,5,12,13,9,8,6,4,10,3,15,1"
15138,commdev-image-keyboard-response,207,500400,learnblock1,137.39999997615814,img/planet11_right.png,11,Community 1,NA,TRUE,j,j,NA,NA,NA,1,7,"2,14,7,11,5,12,13,9,8,6,4,10,3,15,1"
15138,commdev-image-keyboard-response,208,501656,learnblock1,187.4000000357628,img/planet7_right.png,7,Community 1,NA,TRUE,j,j,NA,NA,NA,1,7,"2,14,7,11,5,12,13,9,8,6,4,10,3,15,1"
15138,commdev-image-keyboard-response,209,502911,learnblock1,91,img/planet5_left.png,5,Community 1,NA,TRUE,f,f,NA,NA,NA,1,7,"2,14,7,11,5,12,13,9,8,6,4,10,3,15,1"
15138,commdev-image-keyboard-response,210,504171,learnblock1,163.9000000357628,img/planet7_right.png,7,Community 1,NA,TRUE,j,j,NA,NA,NA,1,7,"2,14,7,11,5,12,13,9,8,6,4,10,3,15,1"
15138,commdev-image-keyboard-response,211,505429,learnblock1,134.4000000357628,img/planet14_right.png,14,Community 1,NA,TRUE,j,j,NA,NA,NA,1,7,"2,14,7,11,5,12,13,9,8,6,4,10,3,15,1"
15138,commdev-image-keyboard-response,212,506682,learnblock1,189.5999999642372,img/planet5_left.png,5,Community 1,NA,TRUE,f,f,NA,NA,NA,1,7,"2,14,7,11,5,12,13,9,8,6,4,10,3,15,1"
15138,commdev-image-keyboard-response,213,507938,learnblock1,93.69999998807907,img/planet4_right.png,4,Community 3,NA,FALSE,f,j,NA,NA,NA,1,7,"2,14,7,11,5,12,13,9,8,6,4,10,3,15,1"
15138,commdev-image-keyboard-response,214,509190,learnblock1,253.80000001192093,img/planet3_right.png,3,Community 3,NA,TRUE,j,j,NA,NA,NA,1,7,"2,14,7,11,5,12,13,9,8,6,4,10,3,15,1"
15138,commdev-image-keyboard-response,215,510445,learnblock1,164.30000001192093,img/planet4_right.png,4,Community 3,NA,TRUE,j,j,NA,NA,NA,1,7,"2,14,7,11,5,12,13,9,8,6,4,10,3,15,1"
15138,commdev-image-keyboard-response,216,511703,learnblock1,78.5,img/planet1_left.png,1,Community 3,NA,TRUE,f,f,NA,NA,NA,1,7,"2,14,7,11,5,12,13,9,8,6,4,10,3,15,1"
15138,commdev-image-keyboard-response,217,512958,learnblock1,197.19999998807907,img/planet10_left.png,10,Community 3,NA,FALSE,j,f,NA,NA,NA,1,7,"2,14,7,11,5,12,13,9,8,6,4,10,3,15,1"
15138,commdev-image-keyboard-response,218,514212,learnblock1,255.30000001192093,img/planet3_right.png,3,Community 3,NA,TRUE,j,j,NA,NA,NA,1,7,"2,14,7,11,5,12,13,9,8,6,4,10,3,15,1"
15138,commdev-image-keyboard-response,219,515475,learnblock1,144.39999997615814,img/planet10_left.png,10,Community 3,NA,FALSE,j,f,NA,NA,NA,1,7,"2,14,7,11,5,12,13,9,8,6,4,10,3,15,1"
15138,commdev-image-keyboard-response,220,516734,learnblock1,4.299999952316284,img/planet1_right.png,1,Community 3,NA,FALSE,f,j,NA,NA,NA,1,7,"2,14,7,11,5,12,13,9,8,6,4,10,3,15,1"
15138,commdev-image-keyboard-response,221,517991,learnblock1,63,img/planet4_left.png,4,Community 3,NA,FALSE,j,f,NA,NA,NA,1,7,"2,14,7,11,5,12,13,9,8,6,4,10,3,15,1"
15138,commdev-image-keyboard-response,222,519245,learnblock1,188.5,img/planet1_right.png,1,Community 3,NA,FALSE,f,j,NA,NA,NA,1,7,"2,14,7,11,5,12,13,9,8,6,4,10,3,15,1"
15138,commdev-image-keyboard-response,223,520505,learnblock1,24.799999952316284,img/planet3_left.png,3,Community 3,NA,FALSE,j,f,NA,NA,NA,1,7,"2,14,7,11,5,12,13,9,8,6,4,10,3,15,1"
15138,commdev-image-keyboard-response,224,521764,learnblock1,190.5,img/planet15_left.png,15,Community 3,NA,TRUE,f,f,NA,NA,NA,1,7,"2,14,7,11,5,12,13,9,8,6,4,10,3,15,1"
15138,commdev-image-keyboard-response,225,523017,learnblock1,376.9000000357628,img/planet4_right.png,4,Community 3,NA,FALSE,f,j,NA,NA,NA,1,7,"2,14,7,11,5,12,13,9,8,6,4,10,3,15,1"
15138,commdev-image-keyboard-response,226,524276,learnblock1,889,img/planet1_left.png,1,Community 3,NA,FALSE,j,f,NA,NA,NA,1,7,"2,14,7,11,5,12,13,9,8,6,4,10,3,15,1"
15138,commdev-image-keyboard-response,227,525533,learnblock1,666.6000000238419,img/planet3_right.png,3,Community 3,NA,FALSE,f,j,NA,NA,NA,1,7,"2,14,7,11,5,12,13,9,8,6,4,10,3,15,1"
15138,commdev-image-keyboard-response,228,526802,learnblock1,298.19999998807907,img/planet1_left.png,1,Community 3,NA,FALSE,j,f,NA,NA,NA,1,7,"2,14,7,11,5,12,13,9,8,6,4,10,3,15,1"
15138,commdev-image-keyboard-response,229,528062,learnblock1,516.6000000238419,img/planet10_left.png,10,Community 3,NA,FALSE,j,f,NA,NA,NA,1,7,"2,14,7,11,5,12,13,9,8,6,4,10,3,15,1"
15138,commdev-image-keyboard-response,230,529318,learnblock1,247.5,img/planet3_right.png,3,Community 3,NA,TRUE,j,j,NA,NA,NA,1,7,"2,14,7,11,5,12,13,9,8,6,4,10,3,15,1"
15138,commdev-image-keyboard-response,231,530577,learnblock1,276.69999998807907,img/planet1_left.png,1,Community 3,NA,TRUE,f,f,NA,NA,NA,1,7,"2,14,7,11,5,12,13,9,8,6,4,10,3,15,1"
15138,commdev-image-keyboard-response,232,531832,learnblock1,287.39999997615814,img/planet3_left.png,3,Community 3,NA,TRUE,f,f,NA,NA,NA,1,7,"2,14,7,11,5,12,13,9,8,6,4,10,3,15,1"
15138,commdev-image-keyboard-response,233,533090,learnblock1,181.4000000357628,img/planet1_left.png,1,Community 3,NA,FALSE,j,f,NA,NA,NA,1,7,"2,14,7,11,5,12,13,9,8,6,4,10,3,15,1"
15138,commdev-image-keyboard-response,234,534345,learnblock1,275.69999998807907,img/planet4_right.png,4,Community 3,NA,FALSE,f,j,NA,NA,NA,1,7,"2,14,7,11,5,12,13,9,8,6,4,10,3,15,1"
15138,commdev-image-keyboard-response,235,535604,learnblock1,343.5999999642372,img/planet1_right.png,1,Community 3,NA,FALSE,f,j,NA,NA,NA,1,7,"2,14,7,11,5,12,13,9,8,6,4,10,3,15,1"
15138,commdev-image-keyboard-response,236,536866,learnblock1,274.80000001192093,img/planet4_left.png,4,Community 3,NA,FALSE,j,f,NA,NA,NA,1,7,"2,14,7,11,5,12,13,9,8,6,4,10,3,15,1"
15138,commdev-image-keyboard-response,237,538123,learnblock1,198.80000001192093,img/planet15_left.png,15,Community 3,NA,FALSE,j,f,NA,NA,NA,1,7,"2,14,7,11,5,12,13,9,8,6,4,10,3,15,1"
15138,commdev-image-keyboard-response,238,539388,learnblock1,200.60000002384186,img/planet3_left.png,3,Community 3,NA,FALSE,j,f,NA,NA,NA,1,7,"2,14,7,11,5,12,13,9,8,6,4,10,3,15,1"
15138,commdev-image-keyboard-response,239,540646,learnblock1,262.60000002384186,img/planet10_right.png,10,Community 3,NA,FALSE,f,j,NA,NA,NA,1,7,"2,14,7,11,5,12,13,9,8,6,4,10,3,15,1"
15138,commdev-image-keyboard-response,240,541904,learnblock1,305.30000001192093,img/planet15_left.png,15,Community 3,NA,TRUE,f,f,NA,NA,NA,1,7,"2,14,7,11,5,12,13,9,8,6,4,10,3,15,1"
15138,commdev-image-keyboard-response,241,543155,learnblock1,247.10000002384186,img/planet1_right.png,1,Community 3,NA,TRUE,j,j,NA,NA,NA,1,7,"2,14,7,11,5,12,13,9,8,6,4,10,3,15,1"
15138,commdev-image-keyboard-response,242,544415,learnblock1,281,img/planet3_right.png,3,Community 3,NA,TRUE,j,j,NA,NA,NA,1,7,"2,14,7,11,5,12,13,9,8,6,4,10,3,15,1"
15138,commdev-image-keyboard-response,243,545668,learnblock1,1245,img/planet15_right.png,15,Community 3,NA,FALSE,f,j,NA,NA,NA,1,7,"2,14,7,11,5,12,13,9,8,6,4,10,3,15,1"
15138,commdev-image-keyboard-response,244,546927,learnblock1,641,img/planet10_left.png,10,Community 3,NA,FALSE,j,f,NA,NA,NA,1,7,"2,14,7,11,5,12,13,9,8,6,4,10,3,15,1"
15138,commdev-image-keyboard-response,245,548186,learnblock1,296.69999998807907,img/planet3_right.png,3,Community 3,NA,FALSE,f,j,NA,NA,NA,1,7,"2,14,7,11,5,12,13,9,8,6,4,10,3,15,1"
15138,commdev-image-keyboard-response,246,549446,learnblock1,194.0999999642372,img/planet15_left.png,15,Community 3,NA,FALSE,j,f,NA,NA,NA,1,7,"2,14,7,11,5,12,13,9,8,6,4,10,3,15,1"
15138,commdev-image-keyboard-response,247,550705,learnblock1,238.69999998807907,img/planet3_left.png,3,Community 3,NA,FALSE,j,f,NA,NA,NA,1,7,"2,14,7,11,5,12,13,9,8,6,4,10,3,15,1"
15138,commdev-image-keyboard-response,248,551962,learnblock1,161,img/planet15_right.png,15,Community 3,NA,TRUE,j,j,NA,NA,NA,1,7,"2,14,7,11,5,12,13,9,8,6,4,10,3,15,1"
15138,commdev-image-keyboard-response,249,553225,learnblock1,null,img/planet10_right.png,10,Community 3,NA,FALSE,null,j,NA,NA,NA,1,7,"2,14,7,11,5,12,13,9,8,6,4,10,3,15,1"
15138,commdev-image-keyboard-response,250,554484,learnblock1,116.30000001192093,img/planet3_left.png,3,Community 3,NA,TRUE,f,f,NA,NA,NA,1,7,"2,14,7,11,5,12,13,9,8,6,4,10,3,15,1"
15138,commdev-image-keyboard-response,251,555744,learnblock1,1244.800000011921,img/planet10_right.png,10,Community 3,NA,FALSE,f,j,NA,NA,NA,1,7,"2,14,7,11,5,12,13,9,8,6,4,10,3,15,1"
15138,commdev-image-keyboard-response,252,556999,learnblock1,1104.800000011921,img/planet15_right.png,15,Community 3,NA,FALSE,f,j,NA,NA,NA,1,7,"2,14,7,11,5,12,13,9,8,6,4,10,3,15,1"
15138,commdev-image-keyboard-response,253,558255,learnblock1,1104.3999999761581,img/planet3_right.png,3,Community 3,NA,FALSE,f,j,NA,NA,NA,1,7,"2,14,7,11,5,12,13,9,8,6,4,10,3,15,1"
15138,commdev-image-keyboard-response,254,559515,learnblock1,998.6999999880791,img/planet1_left.png,1,Community 3,NA,FALSE,j,f,NA,NA,NA,1,7,"2,14,7,11,5,12,13,9,8,6,4,10,3,15,1"
15138,commdev-image-keyboard-response,255,560773,learnblock1,787.8000000119209,img/planet10_left.png,10,Community 3,NA,FALSE,j,f,NA,NA,NA,1,7,"2,14,7,11,5,12,13,9,8,6,4,10,3,15,1"
15138,commdev-image-keyboard-response,256,562026,learnblock1,949.6999999880791,img/planet9_right.png,9,Community 2,NA,FALSE,f,j,NA,NA,NA,1,7,"2,14,7,11,5,12,13,9,8,6,4,10,3,15,1"
15138,commdev-image-keyboard-response,257,563286,learnblock1,565.8999999761581,img/planet10_left.png,10,Community 3,NA,TRUE,f,f,NA,NA,NA,1,7,"2,14,7,11,5,12,13,9,8,6,4,10,3,15,1"
15138,commdev-image-keyboard-response,258,564542,learnblock1,546,img/planet3_right.png,3,Community 3,NA,TRUE,j,j,NA,NA,NA,1,7,"2,14,7,11,5,12,13,9,8,6,4,10,3,15,1"
15138,commdev-image-keyboard-response,259,565797,learnblock1,590,img/planet1_right.png,1,Community 3,NA,TRUE,j,j,NA,NA,NA,1,7,"2,14,7,11,5,12,13,9,8,6,4,10,3,15,1"
15138,commdev-image-keyboard-response,260,567050,learnblock1,468.39999997615814,img/planet10_right.png,10,Community 3,NA,TRUE,j,j,NA,NA,NA,1,7,"2,14,7,11,5,12,13,9,8,6,4,10,3,15,1"
15138,commdev-image-keyboard-response,261,568303,learnblock1,277.39999997615814,img/planet3_left.png,3,Community 3,NA,FALSE,j,f,NA,NA,NA,1,7,"2,14,7,11,5,12,13,9,8,6,4,10,3,15,1"
15138,commdev-image-keyboard-response,262,569559,learnblock1,1136.4000000357628,img/planet4_left.png,4,Community 3,NA,TRUE,f,f,NA,NA,NA,1,7,"2,14,7,11,5,12,13,9,8,6,4,10,3,15,1"
15138,commdev-image-keyboard-response,263,570819,learnblock1,804.8000000119209,img/planet5_right.png,5,Community 1,NA,TRUE,j,j,NA,NA,NA,1,7,"2,14,7,11,5,12,13,9,8,6,4,10,3,15,1"
15138,commdev-image-keyboard-response,264,572070,learnblock1,385.2999999523163,img/planet14_left.png,14,Community 1,NA,TRUE,f,f,NA,NA,NA,1,7,"2,14,7,11,5,12,13,9,8,6,4,10,3,15,1"
15138,commdev-image-keyboard-response,265,573322,learnblock1,28.30000001192093,img/planet11_right.png,11,Community 1,NA,TRUE,j,j,NA,NA,NA,1,7,"2,14,7,11,5,12,13,9,8,6,4,10,3,15,1"
15138,commdev-image-keyboard-response,266,574574,learnblock1,433.30000001192093,img/planet2_right.png,2,Community 1,NA,TRUE,j,j,NA,NA,NA,1,7,"2,14,7,11,5,12,13,9,8,6,4,10,3,15,1"
15138,commdev-image-keyboard-response,267,575830,learnblock1,502.4000000357628,img/planet14_left.png,14,Community 1,NA,FALSE,j,f,NA,NA,NA,1,7,"2,14,7,11,5,12,13,9,8,6,4,10,3,15,1"
15138,commdev-image-keyboard-response,268,577082,learnblock1,524.3999999761581,img/planet2_left.png,2,Community 1,NA,FALSE,j,f,NA,NA,NA,1,7,"2,14,7,11,5,12,13,9,8,6,4,10,3,15,1"
15138,commdev-image-keyboard-response,269,578340,learnblock1,645.5,img/planet5_left.png,5,Community 1,NA,FALSE,j,f,NA,NA,NA,1,7,"2,14,7,11,5,12,13,9,8,6,4,10,3,15,1"
15138,commdev-image-keyboard-response,270,579603,learnblock1,110.60000002384186,img/planet7_right.png,7,Community 1,NA,TRUE,j,j,NA,NA,NA,1,7,"2,14,7,11,5,12,13,9,8,6,4,10,3,15,1"
15138,commdev-image-keyboard-response,271,580855,learnblock1,85.5,img/planet5_right.png,5,Community 1,NA,TRUE,j,j,NA,NA,NA,1,7,"2,14,7,11,5,12,13,9,8,6,4,10,3,15,1"
15138,commdev-image-keyboard-response,272,582114,learnblock1,100.10000002384186,img/planet2_right.png,2,Community 1,NA,TRUE,j,j,NA,NA,NA,1,7,"2,14,7,11,5,12,13,9,8,6,4,10,3,15,1"
15138,commdev-image-keyboard-response,273,583365,learnblock1,156.5,img/planet11_left.png,11,Community 1,NA,FALSE,j,f,NA,NA,NA,1,7,"2,14,7,11,5,12,13,9,8,6,4,10,3,15,1"
15138,commdev-image-keyboard-response,274,584618,learnblock1,358.60000002384186,img/planet2_right.png,2,Community 1,NA,TRUE,j,j,NA,NA,NA,1,7,"2,14,7,11,5,12,13,9,8,6,4,10,3,15,1"
15138,commdev-image-keyboard-response,275,585876,learnblock1,504,img/planet11_left.png,11,Community 1,NA,FALSE,j,f,NA,NA,NA,1,7,"2,14,7,11,5,12,13,9,8,6,4,10,3,15,1"
15138,commdev-image-keyboard-response,276,587131,learnblock1,737.3000000119209,img/planet7_left.png,7,Community 1,NA,FALSE,j,f,NA,NA,NA,1,7,"2,14,7,11,5,12,13,9,8,6,4,10,3,15,1"
15138,commdev-image-keyboard-response,277,588399,learnblock1,null,img/planet5_right.png,5,Community 1,NA,FALSE,null,j,NA,NA,NA,1,7,"2,14,7,11,5,12,13,9,8,6,4,10,3,15,1"
15138,commdev-image-keyboard-response,278,589660,learnblock1,null,img/planet14_right.png,14,Community 1,NA,FALSE,null,j,NA,NA,NA,1,7,"2,14,7,11,5,12,13,9,8,6,4,10,3,15,1"
15138,commdev-image-keyboard-response,279,590919,learnblock1,null,img/planet2_left.png,2,Community 1,NA,FALSE,null,f,NA,NA,NA,1,7,"2,14,7,11,5,12,13,9,8,6,4,10,3,15,1"
15138,commdev-image-keyboard-response,280,592172,learnblock1,null,img/planet5_right.png,5,Community 1,NA,FALSE,null,j,NA,NA,NA,1,7,"2,14,7,11,5,12,13,9,8,6,4,10,3,15,1"
15138,commdev-image-keyboard-response,281,593427,learnblock1,null,img/planet4_right.png,4,Community 3,NA,FALSE,null,j,NA,NA,NA,1,7,"2,14,7,11,5,12,13,9,8,6,4,10,3,15,1"
15138,commdev-image-keyboard-response,282,594678,learnblock1,null,img/planet1_left.png,1,Community 3,NA,FALSE,null,f,NA,NA,NA,1,7,"2,14,7,11,5,12,13,9,8,6,4,10,3,15,1"
15138,commdev-image-keyboard-response,283,595930,learnblock1,1022.8999999761581,img/planet10_left.png,10,Community 3,NA,FALSE,j,f,NA,NA,NA,1,7,"2,14,7,11,5,12,13,9,8,6,4,10,3,15,1"
15138,commdev-image-keyboard-response,284,597190,learnblock1,null,img/planet3_right.png,3,Community 3,NA,FALSE,null,j,NA,NA,NA,1,7,"2,14,7,11,5,12,13,9,8,6,4,10,3,15,1"
15138,commdev-image-keyboard-response,285,598444,learnblock1,1022.8000000119209,img/planet15_right.png,15,Community 3,NA,FALSE,f,j,NA,NA,NA,1,7,"2,14,7,11,5,12,13,9,8,6,4,10,3,15,1"
15138,commdev-image-keyboard-response,286,599701,learnblock1,332.39999997615814,img/planet1_left.png,1,Community 3,NA,TRUE,f,f,NA,NA,NA,1,7,"2,14,7,11,5,12,13,9,8,6,4,10,3,15,1"
15138,commdev-image-keyboard-response,287,600953,learnblock1,null,img/planet3_right.png,3,Community 3,NA,FALSE,null,j,NA,NA,NA,1,7,"2,14,7,11,5,12,13,9,8,6,4,10,3,15,1"
15138,commdev-image-keyboard-response,288,602204,learnblock1,5.5,img/planet10_left.png,10,Community 3,NA,TRUE,f,f,NA,NA,NA,1,7,"2,14,7,11,5,12,13,9,8,6,4,10,3,15,1"
15138,commdev-image-keyboard-response,289,603463,learnblock1,null,img/planet3_left.png,3,Community 3,NA,FALSE,null,f,NA,NA,NA,1,7,"2,14,7,11,5,12,13,9,8,6,4,10,3,15,1"
15138,commdev-image-keyboard-response,290,604723,learnblock1,440.89999997615814,img/planet1_right.png,1,Community 3,NA,FALSE,f,j,NA,NA,NA,1,7,"2,14,7,11,5,12,13,9,8,6,4,10,3,15,1"
15138,commdev-image-keyboard-response,291,605978,learnblock1,null,img/planet4_left.png,4,Community 3,NA,FALSE,null,f,NA,NA,NA,1,7,"2,14,7,11,5,12,13,9,8,6,4,10,3,15,1"
15138,commdev-image-keyboard-response,292,607234,learnblock1,null,img/planet1_right.png,1,Community 3,NA,FALSE,null,j,NA,NA,NA,1,7,"2,14,7,11,5,12,13,9,8,6,4,10,3,15,1"
15138,commdev-image-keyboard-response,293,608485,learnblock1,398.19999998807907,img/planet4_right.png,4,Community 3,NA,FALSE,f,j,NA,NA,NA,1,7,"2,14,7,11,5,12,13,9,8,6,4,10,3,15,1"
15138,commdev-image-keyboard-response,294,609746,learnblock1,343,img/planet1_right.png,1,Community 3,NA,TRUE,j,j,NA,NA,NA,1,7,"2,14,7,11,5,12,13,9,8,6,4,10,3,15,1"
15138,commdev-image-keyboard-response,295,611002,learnblock1,224.5,img/planet4_right.png,4,Community 3,NA,FALSE,f,j,NA,NA,NA,1,7,"2,14,7,11,5,12,13,9,8,6,4,10,3,15,1"
15138,commdev-image-keyboard-response,296,612266,learnblock1,229.9000000357628,img/planet15_left.png,15,Community 3,NA,FALSE,j,f,NA,NA,NA,1,7,"2,14,7,11,5,12,13,9,8,6,4,10,3,15,1"
15138,commdev-image-keyboard-response,297,613526,learnblock1,333.69999998807907,img/planet4_right.png,4,Community 3,NA,TRUE,j,j,NA,NA,NA,1,7,"2,14,7,11,5,12,13,9,8,6,4,10,3,15,1"
15138,commdev-image-keyboard-response,298,614784,learnblock1,259.19999998807907,img/planet1_right.png,1,Community 3,NA,TRUE,j,j,NA,NA,NA,1,7,"2,14,7,11,5,12,13,9,8,6,4,10,3,15,1"
15138,commdev-image-keyboard-response,299,616043,learnblock1,224.60000002384186,img/planet3_left.png,3,Community 3,NA,TRUE,f,f,NA,NA,NA,1,7,"2,14,7,11,5,12,13,9,8,6,4,10,3,15,1"
15138,commdev-image-keyboard-response,300,617295,learnblock1,713.3999999761581,img/planet4_right.png,4,Community 3,NA,FALSE,f,j,NA,NA,NA,1,7,"2,14,7,11,5,12,13,9,8,6,4,10,3,15,1"
15138,commdev-image-keyboard-response,301,618554,learnblock1,null,img/planet5_left.png,5,Community 1,NA,FALSE,null,f,NA,NA,NA,1,7,"2,14,7,11,5,12,13,9,8,6,4,10,3,15,1"
15138,commdev-image-keyboard-response,302,619806,learnblock1,null,img/planet4_left.png,4,Community 3,NA,FALSE,null,f,NA,NA,NA,1,7,"2,14,7,11,5,12,13,9,8,6,4,10,3,15,1"
15138,commdev-image-keyboard-response,303,621066,learnblock1,null,img/planet3_right.png,3,Community 3,NA,FALSE,null,j,NA,NA,NA,1,7,"2,14,7,11,5,12,13,9,8,6,4,10,3,15,1"
15138,commdev-image-keyboard-response,304,622317,learnblock1,null,img/planet15_left.png,15,Community 3,NA,FALSE,null,f,NA,NA,NA,1,7,"2,14,7,11,5,12,13,9,8,6,4,10,3,15,1"
15138,commdev-image-keyboard-response,305,623569,learnblock1,null,img/planet4_right.png,4,Community 3,NA,FALSE,null,j,NA,NA,NA,1,7,"2,14,7,11,5,12,13,9,8,6,4,10,3,15,1"
15138,commdev-image-keyboard-response,306,624828,learnblock1,null,img/planet3_right.png,3,Community 3,NA,FALSE,null,j,NA,NA,NA,1,7,"2,14,7,11,5,12,13,9,8,6,4,10,3,15,1"
15138,commdev-image-keyboard-response,307,626081,learnblock1,29.600000023841858,img/planet10_right.png,10,Community 3,NA,TRUE,j,j,NA,NA,NA,1,7,"2,14,7,11,5,12,13,9,8,6,4,10,3,15,1"
15138,commdev-image-keyboard-response,308,627336,learnblock1,1073.5,img/planet3_left.png,3,Community 3,NA,FALSE,j,f,NA,NA,NA,1,7,"2,14,7,11,5,12,13,9,8,6,4,10,3,15,1"
15138,commdev-image-keyboard-response,309,628591,learnblock1,552.2999999523163,img/planet10_left.png,10,Community 3,NA,TRUE,f,f,NA,NA,NA,1,7,"2,14,7,11,5,12,13,9,8,6,4,10,3,15,1"
15138,commdev-image-keyboard-response,310,629851,learnblock1,859.6999999880791,img/planet15_left.png,15,Community 3,NA,TRUE,f,f,NA,NA,NA,1,7,"2,14,7,11,5,12,13,9,8,6,4,10,3,15,1"
15138,commdev-image-keyboard-response,311,631110,learnblock1,907.4000000357628,img/planet1_left.png,1,Community 3,NA,TRUE,f,f,NA,NA,NA,1,7,"2,14,7,11,5,12,13,9,8,6,4,10,3,15,1"
15138,commdev-image-keyboard-response,312,632370,learnblock1,759.0999999642372,img/planet15_right.png,15,Community 3,NA,TRUE,j,j,NA,NA,NA,1,7,"2,14,7,11,5,12,13,9,8,6,4,10,3,15,1"
15138,commdev-image-keyboard-response,313,633625,learnblock1,408.39999997615814,img/planet10_right.png,10,Community 3,NA,TRUE,j,j,NA,NA,NA,1,7,"2,14,7,11,5,12,13,9,8,6,4,10,3,15,1"
15138,commdev-image-keyboard-response,314,634878,learnblock1,544.7000000476837,img/planet3_left.png,3,Community 3,NA,TRUE,f,f,NA,NA,NA,1,7,"2,14,7,11,5,12,13,9,8,6,4,10,3,15,1"
15138,commdev-image-keyboard-response,315,636141,learnblock1,null,img/planet15_left.png,15,Community 3,NA,FALSE,null,f,NA,NA,NA,1,7,"2,14,7,11,5,12,13,9,8,6,4,10,3,15,1"
15138,commdev-image-keyboard-response,316,637397,learnblock1,1130.2000000476837,img/planet4_right.png,4,Community 3,NA,FALSE,f,j,NA,NA,NA,1,7,"2,14,7,11,5,12,13,9,8,6,4,10,3,15,1"
15138,commdev-image-keyboard-response,317,638652,learnblock1,null,img/planet15_right.png,15,Community 3,NA,FALSE,null,j,NA,NA,NA,1,7,"2,14,7,11,5,12,13,9,8,6,4,10,3,15,1"
15138,commdev-image-keyboard-response,318,639910,learnblock1,null,img/planet10_right.png,10,Community 3,NA,FALSE,null,j,NA,NA,NA,1,7,"2,14,7,11,5,12,13,9,8,6,4,10,3,15,1"
15138,commdev-image-keyboard-response,319,641163,learnblock1,null,img/planet1_right.png,1,Community 3,NA,FALSE,null,j,NA,NA,NA,1,7,"2,14,7,11,5,12,13,9,8,6,4,10,3,15,1"
15138,commdev-image-keyboard-response,320,642417,learnblock1,681.5,img/planet3_right.png,3,Community 3,NA,FALSE,f,j,NA,NA,NA,1,7,"2,14,7,11,5,12,13,9,8,6,4,10,3,15,1"
15138,commdev-image-keyboard-response,321,643682,learnblock1,1229.0999999642372,img/planet1_left.png,1,Community 3,NA,TRUE,f,f,NA,NA,NA,1,7,"2,14,7,11,5,12,13,9,8,6,4,10,3,15,1"
15138,commdev-image-keyboard-response,322,644935,learnblock1,951.3000000119209,img/planet4_right.png,4,Community 3,NA,FALSE,f,j,NA,NA,NA,1,7,"2,14,7,11,5,12,13,9,8,6,4,10,3,15,1"
15138,commdev-image-keyboard-response,323,646190,learnblock1,433.0999999642372,img/planet1_right.png,1,Community 3,NA,FALSE,f,j,NA,NA,NA,1,7,"2,14,7,11,5,12,13,9,8,6,4,10,3,15,1"
15138,commdev-image-keyboard-response,324,647452,learnblock1,171.5,img/planet15_right.png,15,Community 3,NA,FALSE,f,j,NA,NA,NA,1,7,"2,14,7,11,5,12,13,9,8,6,4,10,3,15,1"
15138,commdev-image-keyboard-response,325,648711,learnblock1,493.80000001192093,img/planet1_right.png,1,Community 3,NA,FALSE,f,j,NA,NA,NA,1,7,"2,14,7,11,5,12,13,9,8,6,4,10,3,15,1"
15138,commdev-image-keyboard-response,326,649965,learnblock1,691.3000000119209,img/planet10_right.png,10,Community 3,NA,FALSE,f,j,NA,NA,NA,1,7,"2,14,7,11,5,12,13,9,8,6,4,10,3,15,1"
15138,commdev-image-keyboard-response,327,651216,learnblock1,1005.3999999761581,img/planet1_left.png,1,Community 3,NA,TRUE,f,f,NA,NA,NA,1,7,"2,14,7,11,5,12,13,9,8,6,4,10,3,15,1"
15138,commdev-image-keyboard-response,328,652469,learnblock1,1228.5999999642372,img/planet3_left.png,3,Community 3,NA,TRUE,f,f,NA,NA,NA,1,7,"2,14,7,11,5,12,13,9,8,6,4,10,3,15,1"
15138,commdev-image-keyboard-response,329,653735,learnblock1,1150.9000000357628,img/planet10_right.png,10,Community 3,NA,FALSE,f,j,NA,NA,NA,1,7,"2,14,7,11,5,12,13,9,8,6,4,10,3,15,1"
15138,commdev-image-keyboard-response,330,654995,learnblock1,null,img/planet15_right.png,15,Community 3,NA,FALSE,null,j,NA,NA,NA,1,7,"2,14,7,11,5,12,13,9,8,6,4,10,3,15,1"
15138,commdev-image-keyboard-response,331,656263,learnblock1,58.60000002384186,img/planet3_left.png,3,Community 3,NA,TRUE,f,f,NA,NA,NA,1,7,"2,14,7,11,5,12,13,9,8,6,4,10,3,15,1"
15138,commdev-image-keyboard-response,332,657516,learnblock1,23.799999952316284,img/planet15_left.png,15,Community 3,NA,TRUE,f,f,NA,NA,NA,1,7,"2,14,7,11,5,12,13,9,8,6,4,10,3,15,1"
15138,commdev-image-keyboard-response,333,658774,learnblock1,1120.1000000238419,img/planet4_left.png,4,Community 3,NA,TRUE,f,f,NA,NA,NA,1,7,"2,14,7,11,5,12,13,9,8,6,4,10,3,15,1"
15138,commdev-image-keyboard-response,334,660030,learnblock1,1032.1000000238419,img/planet5_right.png,5,Community 1,NA,FALSE,f,j,NA,NA,NA,1,7,"2,14,7,11,5,12,13,9,8,6,4,10,3,15,1"
15138,commdev-image-keyboard-response,335,661285,learnblock1,944.2999999523163,img/planet4_right.png,4,Community 3,NA,FALSE,f,j,NA,NA,NA,1,7,"2,14,7,11,5,12,13,9,8,6,4,10,3,15,1"
15138,commdev-image-keyboard-response,336,662544,learnblock1,963.3999999761581,img/planet15_right.png,15,Community 3,NA,FALSE,f,j,NA,NA,NA,1,7,"2,14,7,11,5,12,13,9,8,6,4,10,3,15,1"
15138,commdev-image-keyboard-response,337,663798,learnblock1,961.8999999761581,img/planet10_right.png,10,Community 3,NA,FALSE,f,j,NA,NA,NA,1,7,"2,14,7,11,5,12,13,9,8,6,4,10,3,15,1"
15138,commdev-image-keyboard-response,338,665056,learnblock1,989.4000000357628,img/planet9_right.png,9,Community 2,NA,FALSE,f,j,NA,NA,NA,1,7,"2,14,7,11,5,12,13,9,8,6,4,10,3,15,1"
15138,commdev-image-keyboard-response,339,666315,learnblock1,819.8999999761581,img/planet6_right.png,6,Community 2,NA,FALSE,f,j,NA,NA,NA,1,7,"2,14,7,11,5,12,13,9,8,6,4,10,3,15,1"
15138,commdev-image-keyboard-response,340,667567,learnblock1,554.1999999880791,img/planet13_left.png,13,Community 2,NA,TRUE,f,f,NA,NA,NA,1,7,"2,14,7,11,5,12,13,9,8,6,4,10,3,15,1"
15138,commdev-image-keyboard-response,341,668819,learnblock1,976.3000000119209,img/planet6_left.png,6,Community 2,NA,TRUE,f,f,NA,NA,NA,1,7,"2,14,7,11,5,12,13,9,8,6,4,10,3,15,1"
15138,commdev-image-keyboard-response,342,670075,learnblock1,1080,img/planet13_left.png,13,Community 2,NA,TRUE,f,f,NA,NA,NA,1,7,"2,14,7,11,5,12,13,9,8,6,4,10,3,15,1"
15138,commdev-image-keyboard-response,343,671329,learnblock1,1117.1000000238419,img/planet12_left.png,12,Community 2,NA,TRUE,f,f,NA,NA,NA,1,7,"2,14,7,11,5,12,13,9,8,6,4,10,3,15,1"
15138,commdev-image-keyboard-response,344,672581,learnblock1,null,img/planet13_left.png,13,Community 2,NA,FALSE,null,f,NA,NA,NA,1,7,"2,14,7,11,5,12,13,9,8,6,4,10,3,15,1"
15138,commdev-image-keyboard-response,345,673839,learnblock1,279.89999997615814,img/planet9_right.png,9,Community 2,NA,FALSE,f,j,NA,NA,NA,1,7,"2,14,7,11,5,12,13,9,8,6,4,10,3,15,1"
15138,commdev-image-keyboard-response,346,675091,learnblock1,1041.7999999523163,img/planet13_left.png,13,Community 2,NA,TRUE,f,f,NA,NA,NA,1,7,"2,14,7,11,5,12,13,9,8,6,4,10,3,15,1"
15138,commdev-image-keyboard-response,347,676358,learnblock1,606,img/planet12_left.png,12,Community 2,NA,TRUE,f,f,NA,NA,NA,1,7,"2,14,7,11,5,12,13,9,8,6,4,10,3,15,1"
15138,commdev-image-keyboard-response,348,677622,learnblock1,null,img/planet13_left.png,13,Community 2,NA,FALSE,null,f,NA,NA,NA,1,7,"2,14,7,11,5,12,13,9,8,6,4,10,3,15,1"
15138,commdev-image-keyboard-response,349,678879,learnblock1,null,img/planet12_left.png,12,Community 2,NA,FALSE,null,f,NA,NA,NA,1,7,"2,14,7,11,5,12,13,9,8,6,4,10,3,15,1"
15138,commdev-image-keyboard-response,353,892459,learnblock2,null,img/planet4_right.png,4,Community 3,NA,FALSE,null,j,NA,NA,NA,1,7,"2,14,7,11,5,12,13,9,8,6,4,10,3,15,1"
15138,commdev-image-keyboard-response,354,893714,learnblock2,211.9000000357628,img/planet5_left.png,5,Community 1,NA,FALSE,j,f,NA,NA,NA,1,7,"2,14,7,11,5,12,13,9,8,6,4,10,3,15,1"
15138,commdev-image-keyboard-response,355,894969,learnblock2,680.1999999880791,img/planet4_left.png,4,Community 3,NA,TRUE,f,f,NA,NA,NA,1,7,"2,14,7,11,5,12,13,9,8,6,4,10,3,15,1"
15138,commdev-image-keyboard-response,356,896225,learnblock2,75,img/planet15_right.png,15,Community 3,NA,FALSE,f,j,NA,NA,NA,1,7,"2,14,7,11,5,12,13,9,8,6,4,10,3,15,1"
15138,commdev-image-keyboard-response,357,897482,learnblock2,220.10000002384186,img/planet10_right.png,10,Community 3,NA,TRUE,j,j,NA,NA,NA,1,7,"2,14,7,11,5,12,13,9,8,6,4,10,3,15,1"
15138,commdev-image-keyboard-response,358,898738,learnblock2,125.30000001192093,img/planet3_right.png,3,Community 3,NA,TRUE,j,j,NA,NA,NA,1,7,"2,14,7,11,5,12,13,9,8,6,4,10,3,15,1"
15138,commdev-image-keyboard-response,359,899996,learnblock2,98.5,img/planet15_right.png,15,Community 3,NA,TRUE,j,j,NA,NA,NA,1,7,"2,14,7,11,5,12,13,9,8,6,4,10,3,15,1"
15138,commdev-image-keyboard-response,360,901253,learnblock2,283.39999997615814,img/planet3_right.png,3,Community 3,NA,TRUE,j,j,NA,NA,NA,1,7,"2,14,7,11,5,12,13,9,8,6,4,10,3,15,1"
15138,commdev-image-keyboard-response,361,902509,learnblock2,273.5999999642372,img/planet1_right.png,1,Community 3,NA,TRUE,j,j,NA,NA,NA,1,7,"2,14,7,11,5,12,13,9,8,6,4,10,3,15,1"
15138,commdev-image-keyboard-response,362,903765,learnblock2,152.5999999642372,img/planet10_left.png,10,Community 3,NA,FALSE,j,f,NA,NA,NA,1,7,"2,14,7,11,5,12,13,9,8,6,4,10,3,15,1"
15138,commdev-image-keyboard-response,363,905024,learnblock2,177.10000002384186,img/planet15_right.png,15,Community 3,NA,TRUE,j,j,NA,NA,NA,1,7,"2,14,7,11,5,12,13,9,8,6,4,10,3,15,1"
15138,commdev-image-keyboard-response,364,906281,learnblock2,149.20000004768372,img/planet1_right.png,1,Community 3,NA,TRUE,j,j,NA,NA,NA,1,7,"2,14,7,11,5,12,13,9,8,6,4,10,3,15,1"
15138,commdev-image-keyboard-response,365,907539,learnblock2,164,img/planet3_right.png,3,Community 3,NA,TRUE,j,j,NA,NA,NA,1,7,"2,14,7,11,5,12,13,9,8,6,4,10,3,15,1"
15138,commdev-image-keyboard-response,366,908797,learnblock2,130.80000001192093,img/planet1_right.png,1,Community 3,NA,TRUE,j,j,NA,NA,NA,1,7,"2,14,7,11,5,12,13,9,8,6,4,10,3,15,1"
15138,commdev-image-keyboard-response,367,910051,learnblock2,46.89999997615814,img/planet4_left.png,4,Community 3,NA,FALSE,j,f,NA,NA,NA,1,7,"2,14,7,11,5,12,13,9,8,6,4,10,3,15,1"
15138,commdev-image-keyboard-response,368,911304,learnblock2,267,img/planet15_left.png,15,Community 3,NA,TRUE,f,f,NA,NA,NA,1,7,"2,14,7,11,5,12,13,9,8,6,4,10,3,15,1"
15138,commdev-image-keyboard-response,369,912563,learnblock2,128.39999997615814,img/planet3_left.png,3,Community 3,NA,TRUE,f,f,NA,NA,NA,1,7,"2,14,7,11,5,12,13,9,8,6,4,10,3,15,1"
15138,commdev-image-keyboard-response,370,913815,learnblock2,183.70000004768372,img/planet1_left.png,1,Community 3,NA,TRUE,f,f,NA,NA,NA,1,7,"2,14,7,11,5,12,13,9,8,6,4,10,3,15,1"
15138,commdev-image-keyboard-response,371,915066,learnblock2,169.29999995231628,img/planet4_left.png,4,Community 3,NA,TRUE,f,f,NA,NA,NA,1,7,"2,14,7,11,5,12,13,9,8,6,4,10,3,15,1"
15138,commdev-image-keyboard-response,372,916321,learnblock2,227.19999998807907,img/planet3_right.png,3,Community 3,NA,FALSE,f,j,NA,NA,NA,1,7,"2,14,7,11,5,12,13,9,8,6,4,10,3,15,1"
15138,commdev-image-keyboard-response,373,917574,learnblock2,29.19999998807907,img/planet1_right.png,1,Community 3,NA,TRUE,j,j,NA,NA,NA,1,7,"2,14,7,11,5,12,13,9,8,6,4,10,3,15,1"
15138,commdev-image-keyboard-response,374,918833,learnblock2,46.39999997615814,img/planet15_right.png,15,Community 3,NA,TRUE,j,j,NA,NA,NA,1,7,"2,14,7,11,5,12,13,9,8,6,4,10,3,15,1"
15138,commdev-image-keyboard-response,375,920092,learnblock2,178.5,img/planet10_right.png,10,Community 3,NA,TRUE,j,j,NA,NA,NA,1,7,"2,14,7,11,5,12,13,9,8,6,4,10,3,15,1"
15138,commdev-image-keyboard-response,376,921346,learnblock2,218.30000001192093,img/planet9_left.png,9,Community 2,NA,FALSE,j,f,NA,NA,NA,1,7,"2,14,7,11,5,12,13,9,8,6,4,10,3,15,1"
15138,commdev-image-keyboard-response,377,922597,learnblock2,73.20000004768372,img/planet10_left.png,10,Community 3,NA,FALSE,j,f,NA,NA,NA,1,7,"2,14,7,11,5,12,13,9,8,6,4,10,3,15,1"
15138,commdev-image-keyboard-response,378,923849,learnblock2,294.5,img/planet9_right.png,9,Community 2,NA,TRUE,j,j,NA,NA,NA,1,7,"2,14,7,11,5,12,13,9,8,6,4,10,3,15,1"
15138,commdev-image-keyboard-response,379,925106,learnblock2,204.20000004768372,img/planet8_right.png,8,Community 2,NA,TRUE,j,j,NA,NA,NA,1,7,"2,14,7,11,5,12,13,9,8,6,4,10,3,15,1"
15138,commdev-image-keyboard-response,380,926364,learnblock2,313.80000001192093,img/planet6_right.png,6,Community 2,NA,TRUE,j,j,NA,NA,NA,1,7,"2,14,7,11,5,12,13,9,8,6,4,10,3,15,1"
15138,commdev-image-keyboard-response,381,927624,learnblock2,328.0999999642372,img/planet9_left.png,9,Community 2,NA,TRUE,f,f,NA,NA,NA,1,7,"2,14,7,11,5,12,13,9,8,6,4,10,3,15,1"
15138,commdev-image-keyboard-response,382,928879,learnblock2,17.30000001192093,img/planet6_left.png,6,Community 2,NA,TRUE,f,f,NA,NA,NA,1,7,"2,14,7,11,5,12,13,9,8,6,4,10,3,15,1"
15138,commdev-image-keyboard-response,383,930134,learnblock2,158.0999999642372,img/planet9_right.png,9,Community 2,NA,FALSE,f,j,NA,NA,NA,1,7,"2,14,7,11,5,12,13,9,8,6,4,10,3,15,1"
15138,commdev-image-keyboard-response,384,931396,learnblock2,198.0999999642372,img/planet13_right.png,13,Community 2,NA,FALSE,f,j,NA,NA,NA,1,7,"2,14,7,11,5,12,13,9,8,6,4,10,3,15,1"
15138,commdev-image-keyboard-response,385,932649,learnblock2,146.30000001192093,img/planet8_right.png,8,Community 2,NA,FALSE,f,j,NA,NA,NA,1,7,"2,14,7,11,5,12,13,9,8,6,4,10,3,15,1"
15138,commdev-image-keyboard-response,386,933906,learnblock2,74.19999998807907,img/planet6_right.png,6,Community 2,NA,FALSE,f,j,NA,NA,NA,1,7,"2,14,7,11,5,12,13,9,8,6,4,10,3,15,1"
15138,commdev-image-keyboard-response,387,935159,learnblock2,6.199999988079071,img/planet12_right.png,12,Community 2,NA,TRUE,j,j,NA,NA,NA,1,7,"2,14,7,11,5,12,13,9,8,6,4,10,3,15,1"
15138,commdev-image-keyboard-response,388,936422,learnblock2,30.30000001192093,img/planet13_right.png,13,Community 2,NA,TRUE,j,j,NA,NA,NA,1,7,"2,14,7,11,5,12,13,9,8,6,4,10,3,15,1"
15138,commdev-image-keyboard-response,389,937674,learnblock2,36.5,img/planet6_right.png,6,Community 2,NA,TRUE,j,j,NA,NA,NA,1,7,"2,14,7,11,5,12,13,9,8,6,4,10,3,15,1"
15138,commdev-image-keyboard-response,390,938931,learnblock2,138.5,img/planet12_right.png,12,Community 2,NA,TRUE,j,j,NA,NA,NA,1,7,"2,14,7,11,5,12,13,9,8,6,4,10,3,15,1"
15138,commdev-image-keyboard-response,391,940183,learnblock2,168.30000001192093,img/planet6_right.png,6,Community 2,NA,FALSE,f,j,NA,NA,NA,1,7,"2,14,7,11,5,12,13,9,8,6,4,10,3,15,1"
15138,commdev-image-keyboard-response,392,941442,learnblock2,6.199999988079071,img/planet12_left.png,12,Community 2,NA,FALSE,j,f,NA,NA,NA,1,7,"2,14,7,11,5,12,13,9,8,6,4,10,3,15,1"
15138,commdev-image-keyboard-response,393,942696,learnblock2,47.60000002384186,img/planet8_right.png,8,Community 2,NA,TRUE,j,j,NA,NA,NA,1,7,"2,14,7,11,5,12,13,9,8,6,4,10,3,15,1"
15138,commdev-image-keyboard-response,394,943949,learnblock2,55.80000001192093,img/planet9_left.png,9,Community 2,NA,TRUE,f,f,NA,NA,NA,1,7,"2,14,7,11,5,12,13,9,8,6,4,10,3,15,1"
15138,commdev-image-keyboard-response,395,945201,learnblock2,182.30000001192093,img/planet8_right.png,8,Community 2,NA,FALSE,f,j,NA,NA,NA,1,7,"2,14,7,11,5,12,13,9,8,6,4,10,3,15,1"
15138,commdev-image-keyboard-response,396,946458,learnblock2,42.89999997615814,img/planet6_left.png,6,Community 2,NA,TRUE,f,f,NA,NA,NA,1,7,"2,14,7,11,5,12,13,9,8,6,4,10,3,15,1"
15138,commdev-image-keyboard-response,397,947717,learnblock2,235.5,img/planet8_left.png,8,Community 2,NA,FALSE,j,f,NA,NA,NA,1,7,"2,14,7,11,5,12,13,9,8,6,4,10,3,15,1"
15138,commdev-image-keyboard-response,398,948968,learnblock2,195.39999997615814,img/planet13_right.png,13,Community 2,NA,TRUE,j,j,NA,NA,NA,1,7,"2,14,7,11,5,12,13,9,8,6,4,10,3,15,1"
15138,commdev-image-keyboard-response,399,950222,learnblock2,127.5,img/planet12_left.png,12,Community 2,NA,FALSE,j,f,NA,NA,NA,1,7,"2,14,7,11,5,12,13,9,8,6,4,10,3,15,1"
15138,commdev-image-keyboard-response,400,951480,learnblock2,78.5,img/planet8_left.png,8,Community 2,NA,FALSE,j,f,NA,NA,NA,1,7,"2,14,7,11,5,12,13,9,8,6,4,10,3,15,1"
15138,commdev-image-keyboard-response,401,952736,learnblock2,138.69999998807907,img/planet12_left.png,12,Community 2,NA,FALSE,j,f,NA,NA,NA,1,7,"2,14,7,11,5,12,13,9,8,6,4,10,3,15,1"
15138,commdev-image-keyboard-response,402,953991,learnblock2,595.5999999642372,img/planet11_right.png,11,Community 1,NA,TRUE,j,j,NA,NA,NA,1,7,"2,14,7,11,5,12,13,9,8,6,4,10,3,15,1"
15138,commdev-image-keyboard-response,403,955243,learnblock2,401.89999997615814,img/planet12_right.png,12,Community 2,NA,TRUE,j,j,NA,NA,NA,1,7,"2,14,7,11,5,12,13,9,8,6,4,10,3,15,1"
15138,commdev-image-keyboard-response,404,956495,learnblock2,715.3000000119209,img/planet13_right.png,13,Community 2,NA,TRUE,j,j,NA,NA,NA,1,7,"2,14,7,11,5,12,13,9,8,6,4,10,3,15,1"
15138,commdev-image-keyboard-response,405,957749,learnblock2,null,img/planet8_left.png,8,Community 2,NA,FALSE,null,f,NA,NA,NA,1,7,"2,14,7,11,5,12,13,9,8,6,4,10,3,15,1"
15138,commdev-image-keyboard-response,406,959003,learnblock2,null,img/planet9_left.png,9,Community 2,NA,FALSE,null,f,NA,NA,NA,1,7,"2,14,7,11,5,12,13,9,8,6,4,10,3,15,1"
15138,commdev-image-keyboard-response,407,960256,learnblock2,502,img/planet10_left.png,10,Community 3,NA,FALSE,j,f,NA,NA,NA,1,7,"2,14,7,11,5,12,13,9,8,6,4,10,3,15,1"
15138,commdev-image-keyboard-response,408,961509,learnblock2,428,img/planet9_left.png,9,Community 2,NA,FALSE,j,f,NA,NA,NA,1,7,"2,14,7,11,5,12,13,9,8,6,4,10,3,15,1"
15138,commdev-image-keyboard-response,409,962770,learnblock2,null,img/planet6_right.png,6,Community 2,NA,FALSE,null,j,NA,NA,NA,1,7,"2,14,7,11,5,12,13,9,8,6,4,10,3,15,1"
15138,commdev-image-keyboard-response,410,964029,learnblock2,null,img/planet8_left.png,8,Community 2,NA,FALSE,null,f,NA,NA,NA,1,7,"2,14,7,11,5,12,13,9,8,6,4,10,3,15,1"
15138,commdev-image-keyboard-response,411,965287,learnblock2,null,img/planet9_left.png,9,Community 2,NA,FALSE,null,f,NA,NA,NA,1,7,"2,14,7,11,5,12,13,9,8,6,4,10,3,15,1"
15138,commdev-image-keyboard-response,412,966540,learnblock2,1071.5,img/planet10_right.png,10,Community 3,NA,TRUE,j,j,NA,NA,NA,1,7,"2,14,7,11,5,12,13,9,8,6,4,10,3,15,1"
15138,commdev-image-keyboard-response,413,967799,learnblock2,123.09999996423721,img/planet9_left.png,9,Community 2,NA,FALSE,j,f,NA,NA,NA,1,7,"2,14,7,11,5,12,13,9,8,6,4,10,3,15,1"
15138,commdev-image-keyboard-response,414,969052,learnblock2,230.20000004768372,img/planet6_right.png,6,Community 2,NA,FALSE,f,j,NA,NA,NA,1,7,"2,14,7,11,5,12,13,9,8,6,4,10,3,15,1"
15138,commdev-image-keyboard-response,415,970307,learnblock2,375.69999998807907,img/planet12_right.png,12,Community 2,NA,FALSE,f,j,NA,NA,NA,1,7,"2,14,7,11,5,12,13,9,8,6,4,10,3,15,1"
15138,commdev-image-keyboard-response,416,971559,learnblock2,172.30000001192093,img/planet13_right.png,13,Community 2,NA,TRUE,j,j,NA,NA,NA,1,7,"2,14,7,11,5,12,13,9,8,6,4,10,3,15,1"
15138,commdev-image-keyboard-response,417,972817,learnblock2,17.19999998807907,img/planet8_right.png,8,Community 2,NA,FALSE,f,j,NA,NA,NA,1,7,"2,14,7,11,5,12,13,9,8,6,4,10,3,15,1"
15138,commdev-image-keyboard-response,418,974070,learnblock2,158.89999997615814,img/planet12_left.png,12,Community 2,NA,FALSE,j,f,NA,NA,NA,1,7,"2,14,7,11,5,12,13,9,8,6,4,10,3,15,1"
15138,commdev-image-keyboard-response,419,975329,learnblock2,250.89999997615814,img/planet8_right.png,8,Community 2,NA,TRUE,j,j,NA,NA,NA,1,7,"2,14,7,11,5,12,13,9,8,6,4,10,3,15,1"
15138,commdev-image-keyboard-response,420,976581,learnblock2,163.5,img/planet6_left.png,6,Community 2,NA,FALSE,j,f,NA,NA,NA,1,7,"2,14,7,11,5,12,13,9,8,6,4,10,3,15,1"
15138,commdev-image-keyboard-response,421,977840,learnblock2,172.10000002384186,img/planet8_left.png,8,Community 2,NA,FALSE,j,f,NA,NA,NA,1,7,"2,14,7,11,5,12,13,9,8,6,4,10,3,15,1"
15138,commdev-image-keyboard-response,422,979094,learnblock2,131.80000001192093,img/planet6_left.png,6,Community 2,NA,FALSE,j,f,NA,NA,NA,1,7,"2,14,7,11,5,12,13,9,8,6,4,10,3,15,1"
15138,commdev-image-keyboard-response,423,980351,learnblock2,162.30000001192093,img/planet13_left.png,13,Community 2,NA,FALSE,j,f,NA,NA,NA,1,7,"2,14,7,11,5,12,13,9,8,6,4,10,3,15,1"
15138,commdev-image-keyboard-response,424,981608,learnblock2,229.5,img/planet9_right.png,9,Community 2,NA,TRUE,j,j,NA,NA,NA,1,7,"2,14,7,11,5,12,13,9,8,6,4,10,3,15,1"
15138,commdev-image-keyboard-response,425,982862,learnblock2,38.60000002384186,img/planet8_right.png,8,Community 2,NA,TRUE,j,j,NA,NA,NA,1,7,"2,14,7,11,5,12,13,9,8,6,4,10,3,15,1"
15138,commdev-image-keyboard-response,426,984126,learnblock2,2.300000011920929,img/planet9_right.png,9,Community 2,NA,TRUE,j,j,NA,NA,NA,1,7,"2,14,7,11,5,12,13,9,8,6,4,10,3,15,1"
15138,commdev-image-keyboard-response,427,985387,learnblock2,null,img/planet8_right.png,8,Community 2,NA,FALSE,null,j,NA,NA,NA,1,7,"2,14,7,11,5,12,13,9,8,6,4,10,3,15,1"
15138,commdev-image-keyboard-response,428,986652,learnblock2,null,img/planet6_left.png,6,Community 2,NA,FALSE,null,f,NA,NA,NA,1,7,"2,14,7,11,5,12,13,9,8,6,4,10,3,15,1"
15138,commdev-image-keyboard-response,429,987911,learnblock2,null,img/planet12_right.png,12,Community 2,NA,FALSE,null,j,NA,NA,NA,1,7,"2,14,7,11,5,12,13,9,8,6,4,10,3,15,1"
15138,commdev-image-keyboard-response,430,989170,learnblock2,null,img/planet13_left.png,13,Community 2,NA,FALSE,null,f,NA,NA,NA,1,7,"2,14,7,11,5,12,13,9,8,6,4,10,3,15,1"
15138,commdev-image-keyboard-response,431,990428,learnblock2,null,img/planet8_left.png,8,Community 2,NA,FALSE,null,f,NA,NA,NA,1,7,"2,14,7,11,5,12,13,9,8,6,4,10,3,15,1"
15138,commdev-image-keyboard-response,432,991682,learnblock2,null,img/planet6_right.png,6,Community 2,NA,FALSE,null,j,NA,NA,NA,1,7,"2,14,7,11,5,12,13,9,8,6,4,10,3,15,1"
15138,commdev-image-keyboard-response,433,992942,learnblock2,null,img/planet8_right.png,8,Community 2,NA,FALSE,null,j,NA,NA,NA,1,7,"2,14,7,11,5,12,13,9,8,6,4,10,3,15,1"
15138,commdev-image-keyboard-response,434,994201,learnblock2,null,img/planet13_right.png,13,Community 2,NA,FALSE,null,j,NA,NA,NA,1,7,"2,14,7,11,5,12,13,9,8,6,4,10,3,15,1"
15138,commdev-image-keyboard-response,435,995461,learnblock2,null,img/planet12_right.png,12,Community 2,NA,FALSE,null,j,NA,NA,NA,1,7,"2,14,7,11,5,12,13,9,8,6,4,10,3,15,1"
15138,commdev-image-keyboard-response,436,996718,learnblock2,null,img/planet13_right.png,13,Community 2,NA,FALSE,null,j,NA,NA,NA,1,7,"2,14,7,11,5,12,13,9,8,6,4,10,3,15,1"
15138,commdev-image-keyboard-response,437,997972,learnblock2,null,img/planet9_right.png,9,Community 2,NA,FALSE,null,j,NA,NA,NA,1,7,"2,14,7,11,5,12,13,9,8,6,4,10,3,15,1"
15138,commdev-image-keyboard-response,438,999232,learnblock2,null,img/planet8_left.png,8,Community 2,NA,FALSE,null,f,NA,NA,NA,1,7,"2,14,7,11,5,12,13,9,8,6,4,10,3,15,1"
15138,commdev-image-keyboard-response,439,1000492,learnblock2,638.4000000357628,img/planet9_right.png,9,Community 2,NA,TRUE,j,j,NA,NA,NA,1,7,"2,14,7,11,5,12,13,9,8,6,4,10,3,15,1"
15138,commdev-image-keyboard-response,440,1001751,learnblock2,12.5,img/planet10_left.png,10,Community 3,NA,FALSE,j,f,NA,NA,NA,1,7,"2,14,7,11,5,12,13,9,8,6,4,10,3,15,1"
15138,commdev-image-keyboard-response,441,1003007,learnblock2,25.400000035762787,img/planet9_left.png,9,Community 2,NA,TRUE,f,f,NA,NA,NA,1,7,"2,14,7,11,5,12,13,9,8,6,4,10,3,15,1"
15138,commdev-image-keyboard-response,442,1004263,learnblock2,58.299999952316284,img/planet10_right.png,10,Community 3,NA,FALSE,f,j,NA,NA,NA,1,7,"2,14,7,11,5,12,13,9,8,6,4,10,3,15,1"
15138,commdev-image-keyboard-response,443,1005514,learnblock2,247.4000000357628,img/planet15_right.png,15,Community 3,NA,TRUE,j,j,NA,NA,NA,1,7,"2,14,7,11,5,12,13,9,8,6,4,10,3,15,1"
15138,commdev-image-keyboard-response,444,1006773,learnblock2,720.1999999880791,img/planet10_right.png,10,Community 3,NA,TRUE,j,j,NA,NA,NA,1,7,"2,14,7,11,5,12,13,9,8,6,4,10,3,15,1"
15138,commdev-image-keyboard-response,445,1008029,learnblock2,15.899999976158142,img/planet1_right.png,1,Community 3,NA,TRUE,j,j,NA,NA,NA,1,7,"2,14,7,11,5,12,13,9,8,6,4,10,3,15,1"
15138,commdev-image-keyboard-response,446,1009282,learnblock2,210.39999997615814,img/planet3_left.png,3,Community 3,NA,TRUE,f,f,NA,NA,NA,1,7,"2,14,7,11,5,12,13,9,8,6,4,10,3,15,1"
15138,commdev-image-keyboard-response,447,1010535,learnblock2,286,img/planet10_right.png,10,Community 3,NA,FALSE,f,j,NA,NA,NA,1,7,"2,14,7,11,5,12,13,9,8,6,4,10,3,15,1"
15138,commdev-image-keyboard-response,448,1011796,learnblock2,883.9000000357628,img/planet9_left.png,9,Community 2,NA,TRUE,f,f,NA,NA,NA,1,7,"2,14,7,11,5,12,13,9,8,6,4,10,3,15,1"
15138,commdev-image-keyboard-response,449,1013056,learnblock2,56,img/planet10_left.png,10,Community 3,NA,TRUE,f,f,NA,NA,NA,1,7,"2,14,7,11,5,12,13,9,8,6,4,10,3,15,1"
15138,commdev-image-keyboard-response,450,1014315,learnblock2,420.5,img/planet1_left.png,1,Community 3,NA,TRUE,f,f,NA,NA,NA,1,7,"2,14,7,11,5,12,13,9,8,6,4,10,3,15,1"
15138,commdev-image-keyboard-response,451,1015572,learnblock2,176.9000000357628,img/planet4_right.png,4,Community 3,NA,FALSE,f,j,NA,NA,NA,1,7,"2,14,7,11,5,12,13,9,8,6,4,10,3,15,1"
15138,commdev-image-keyboard-response,452,1016827,learnblock2,449.60000002384186,img/planet1_left.png,1,Community 3,NA,TRUE,f,f,NA,NA,NA,1,7,"2,14,7,11,5,12,13,9,8,6,4,10,3,15,1"
15138,commdev-image-keyboard-response,453,1018081,learnblock2,47.19999998807907,img/planet3_right.png,3,Community 3,NA,FALSE,f,j,NA,NA,NA,1,7,"2,14,7,11,5,12,13,9,8,6,4,10,3,15,1"
15138,commdev-image-keyboard-response,454,1019345,learnblock2,124.10000002384186,img/planet4_left.png,4,Community 3,NA,TRUE,f,f,NA,NA,NA,1,7,"2,14,7,11,5,12,13,9,8,6,4,10,3,15,1"
15138,commdev-image-keyboard-response,455,1020598,learnblock2,194.0999999642372,img/planet15_right.png,15,Community 3,NA,TRUE,j,j,NA,NA,NA,1,7,"2,14,7,11,5,12,13,9,8,6,4,10,3,15,1"
15138,commdev-image-keyboard-response,456,1021857,learnblock2,280.89999997615814,img/planet4_right.png,4,Community 3,NA,FALSE,f,j,NA,NA,NA,1,7,"2,14,7,11,5,12,13,9,8,6,4,10,3,15,1"
15138,commdev-image-keyboard-response,457,1023114,learnblock2,581.5999999642372,img/planet5_right.png,5,Community 1,NA,TRUE,j,j,NA,NA,NA,1,7,"2,14,7,11,5,12,13,9,8,6,4,10,3,15,1"
15138,commdev-image-keyboard-response,458,1024368,learnblock2,266.5,img/planet7_right.png,7,Community 1,NA,TRUE,j,j,NA,NA,NA,1,7,"2,14,7,11,5,12,13,9,8,6,4,10,3,15,1"
15138,commdev-image-keyboard-response,459,1025628,learnblock2,191.20000004768372,img/planet2_right.png,2,Community 1,NA,TRUE,j,j,NA,NA,NA,1,7,"2,14,7,11,5,12,13,9,8,6,4,10,3,15,1"
15138,commdev-image-keyboard-response,460,1026884,learnblock2,null,img/planet11_right.png,11,Community 1,NA,FALSE,null,j,NA,NA,NA,1,7,"2,14,7,11,5,12,13,9,8,6,4,10,3,15,1"
15138,commdev-image-keyboard-response,461,1028139,learnblock2,220.39999997615814,img/planet12_left.png,12,Community 2,NA,FALSE,j,f,NA,NA,NA,1,7,"2,14,7,11,5,12,13,9,8,6,4,10,3,15,1"
15138,commdev-image-keyboard-response,462,1029399,learnblock2,90.29999995231628,img/planet6_left.png,6,Community 2,NA,FALSE,j,f,NA,NA,NA,1,7,"2,14,7,11,5,12,13,9,8,6,4,10,3,15,1"
15138,commdev-image-keyboard-response,463,1030654,learnblock2,245.29999995231628,img/planet9_left.png,9,Community 2,NA,FALSE,j,f,NA,NA,NA,1,7,"2,14,7,11,5,12,13,9,8,6,4,10,3,15,1"
15138,commdev-image-keyboard-response,464,1031910,learnblock2,185.60000002384186,img/planet13_left.png,13,Community 2,NA,FALSE,j,f,NA,NA,NA,1,7,"2,14,7,11,5,12,13,9,8,6,4,10,3,15,1"
15138,commdev-image-keyboard-response,465,1033161,learnblock2,752.8000000119209,img/planet9_left.png,9,Community 2,NA,TRUE,f,f,NA,NA,NA,1,7,"2,14,7,11,5,12,13,9,8,6,4,10,3,15,1"
15138,commdev-image-keyboard-response,466,1034419,learnblock2,320.9000000357628,img/planet10_left.png,10,Community 3,NA,TRUE,f,f,NA,NA,NA,1,7,"2,14,7,11,5,12,13,9,8,6,4,10,3,15,1"
15138,commdev-image-keyboard-response,467,1035673,learnblock2,151,img/planet9_left.png,9,Community 2,NA,TRUE,f,f,NA,NA,NA,1,7,"2,14,7,11,5,12,13,9,8,6,4,10,3,15,1"
15138,commdev-image-keyboard-response,468,1036936,learnblock2,137.70000004768372,img/planet13_left.png,13,Community 2,NA,TRUE,f,f,NA,NA,NA,1,7,"2,14,7,11,5,12,13,9,8,6,4,10,3,15,1"
15138,commdev-image-keyboard-response,469,1038190,learnblock2,null,img/planet6_right.png,6,Community 2,NA,FALSE,null,j,NA,NA,NA,1,7,"2,14,7,11,5,12,13,9,8,6,4,10,3,15,1"
15138,commdev-image-keyboard-response,470,1039445,learnblock2,175.4000000357628,img/planet9_left.png,9,Community 2,NA,FALSE,j,f,NA,NA,NA,1,7,"2,14,7,11,5,12,13,9,8,6,4,10,3,15,1"
15138,commdev-image-keyboard-response,471,1040697,learnblock2,16.600000023841858,img/planet13_right.png,13,Community 2,NA,TRUE,j,j,NA,NA,NA,1,7,"2,14,7,11,5,12,13,9,8,6,4,10,3,15,1"
15138,commdev-image-keyboard-response,472,1041951,learnblock2,130.89999997615814,img/planet6_left.png,6,Community 2,NA,FALSE,j,f,NA,NA,NA,1,7,"2,14,7,11,5,12,13,9,8,6,4,10,3,15,1"
15138,commdev-image-keyboard-response,473,1043203,learnblock2,465.80000001192093,img/planet12_right.png,12,Community 2,NA,TRUE,j,j,NA,NA,NA,1,7,"2,14,7,11,5,12,13,9,8,6,4,10,3,15,1"
15138,commdev-image-keyboard-response,474,1044457,learnblock2,286.10000002384186,img/planet13_right.png,13,Community 2,NA,TRUE,j,j,NA,NA,NA,1,7,"2,14,7,11,5,12,13,9,8,6,4,10,3,15,1"
15138,commdev-image-keyboard-response,475,1045712,learnblock2,405.69999998807907,img/planet9_right.png,9,Community 2,NA,FALSE,f,j,NA,NA,NA,1,7,"2,14,7,11,5,12,13,9,8,6,4,10,3,15,1"
15138,commdev-image-keyboard-response,476,1046969,learnblock2,527.3000000119209,img/planet13_left.png,13,Community 2,NA,TRUE,f,f,NA,NA,NA,1,7,"2,14,7,11,5,12,13,9,8,6,4,10,3,15,1"
15138,commdev-image-keyboard-response,477,1048228,learnblock2,607.8999999761581,img/planet12_right.png,12,Community 2,NA,FALSE,f,j,NA,NA,NA,1,7,"2,14,7,11,5,12,13,9,8,6,4,10,3,15,1"
15138,commdev-image-keyboard-response,478,1049496,learnblock2,690.3999999761581,img/planet8_right.png,8,Community 2,NA,FALSE,f,j,NA,NA,NA,1,7,"2,14,7,11,5,12,13,9,8,6,4,10,3,15,1"
15138,commdev-image-keyboard-response,479,1050748,learnblock2,63.19999998807907,img/planet6_right.png,6,Community 2,NA,FALSE,f,j,NA,NA,NA,1,7,"2,14,7,11,5,12,13,9,8,6,4,10,3,15,1"
15138,commdev-image-keyboard-response,480,1051999,learnblock2,243.0999999642372,img/planet9_left.png,9,Community 2,NA,TRUE,f,f,NA,NA,NA,1,7,"2,14,7,11,5,12,13,9,8,6,4,10,3,15,1"
15138,commdev-image-keyboard-response,481,1053258,learnblock2,681.7999999523163,img/planet6_left.png,6,Community 2,NA,TRUE,f,f,NA,NA,NA,1,7,"2,14,7,11,5,12,13,9,8,6,4,10,3,15,1"
15138,commdev-image-keyboard-response,482,1054517,learnblock2,254.39999997615814,img/planet13_right.png,13,Community 2,NA,FALSE,f,j,NA,NA,NA,1,7,"2,14,7,11,5,12,13,9,8,6,4,10,3,15,1"
15138,commdev-image-keyboard-response,483,1055769,learnblock2,186.19999998807907,img/planet9_right.png,9,Community 2,NA,TRUE,j,j,NA,NA,NA,1,7,"2,14,7,11,5,12,13,9,8,6,4,10,3,15,1"
15138,commdev-image-keyboard-response,484,1057025,learnblock2,88.19999998807907,img/planet13_left.png,13,Community 2,NA,FALSE,j,f,NA,NA,NA,1,7,"2,14,7,11,5,12,13,9,8,6,4,10,3,15,1"
15138,commdev-image-keyboard-response,485,1058280,learnblock2,0.5,img/planet9_left.png,9,Community 2,NA,FALSE,j,f,NA,NA,NA,1,7,"2,14,7,11,5,12,13,9,8,6,4,10,3,15,1"
15138,commdev-image-keyboard-response,486,1059532,learnblock2,17.399999976158142,img/planet6_left.png,6,Community 2,NA,FALSE,j,f,NA,NA,NA,1,7,"2,14,7,11,5,12,13,9,8,6,4,10,3,15,1"
15138,commdev-image-keyboard-response,487,1060784,learnblock2,71.60000002384186,img/planet13_left.png,13,Community 2,NA,TRUE,f,f,NA,NA,NA,1,7,"2,14,7,11,5,12,13,9,8,6,4,10,3,15,1"
15138,commdev-image-keyboard-response,488,1062043,learnblock2,443.69999998807907,img/planet9_left.png,9,Community 2,NA,TRUE,f,f,NA,NA,NA,1,7,"2,14,7,11,5,12,13,9,8,6,4,10,3,15,1"
15138,commdev-image-keyboard-response,489,1063294,learnblock2,877.2999999523163,img/planet6_right.png,6,Community 2,NA,FALSE,f,j,NA,NA,NA,1,7,"2,14,7,11,5,12,13,9,8,6,4,10,3,15,1"
15138,commdev-image-keyboard-response,490,1064546,learnblock2,256.5,img/planet9_left.png,9,Community 2,NA,TRUE,f,f,NA,NA,NA,1,7,"2,14,7,11,5,12,13,9,8,6,4,10,3,15,1"
15138,commdev-image-keyboard-response,491,1065798,learnblock2,507.69999998807907,img/planet6_right.png,6,Community 2,NA,FALSE,f,j,NA,NA,NA,1,7,"2,14,7,11,5,12,13,9,8,6,4,10,3,15,1"
15138,commdev-image-keyboard-response,492,1067055,learnblock2,203.30000001192093,img/planet13_left.png,13,Community 2,NA,TRUE,f,f,NA,NA,NA,1,7,"2,14,7,11,5,12,13,9,8,6,4,10,3,15,1"
15138,commdev-image-keyboard-response,493,1068310,learnblock2,836.0999999642372,img/planet9_left.png,9,Community 2,NA,FALSE,j,f,NA,NA,NA,1,7,"2,14,7,11,5,12,13,9,8,6,4,10,3,15,1"
15138,commdev-image-keyboard-response,494,1069575,learnblock2,549.1000000238419,img/planet13_right.png,13,Community 2,NA,FALSE,f,j,NA,NA,NA,1,7,"2,14,7,11,5,12,13,9,8,6,4,10,3,15,1"
15138,commdev-image-keyboard-response,495,1070827,learnblock2,593.2999999523163,img/planet9_left.png,9,Community 2,NA,FALSE,j,f,NA,NA,NA,1,7,"2,14,7,11,5,12,13,9,8,6,4,10,3,15,1"
15138,commdev-image-keyboard-response,496,1072087,learnblock2,331.5,img/planet6_left.png,6,Community 2,NA,FALSE,j,f,NA,NA,NA,1,7,"2,14,7,11,5,12,13,9,8,6,4,10,3,15,1"
15138,commdev-image-keyboard-response,497,1073356,learnblock2,980.6999999880791,img/planet9_right.png,9,Community 2,NA,TRUE,j,j,NA,NA,NA,1,7,"2,14,7,11,5,12,13,9,8,6,4,10,3,15,1"
15138,commdev-image-keyboard-response,498,1074610,learnblock2,92.30000001192093,img/planet10_right.png,10,Community 3,NA,TRUE,j,j,NA,NA,NA,1,7,"2,14,7,11,5,12,13,9,8,6,4,10,3,15,1"
15138,commdev-image-keyboard-response,499,1075866,learnblock2,175.60000002384186,img/planet3_right.png,3,Community 3,NA,TRUE,j,j,NA,NA,NA,1,7,"2,14,7,11,5,12,13,9,8,6,4,10,3,15,1"
15138,commdev-image-keyboard-response,500,1077122,learnblock2,170.20000004768372,img/planet15_left.png,15,Community 3,NA,TRUE,f,f,NA,NA,NA,1,7,"2,14,7,11,5,12,13,9,8,6,4,10,3,15,1"
15138,commdev-image-keyboard-response,501,1078386,learnblock2,806.5,img/planet10_right.png,10,Community 3,NA,FALSE,f,j,NA,NA,NA,1,7,"2,14,7,11,5,12,13,9,8,6,4,10,3,15,1"
15138,commdev-image-keyboard-response,502,1079644,learnblock2,639.9000000357628,img/planet1_right.png,1,Community 3,NA,TRUE,j,j,NA,NA,NA,1,7,"2,14,7,11,5,12,13,9,8,6,4,10,3,15,1"
15138,commdev-image-keyboard-response,503,1080904,learnblock2,null,img/planet4_left.png,4,Community 3,NA,FALSE,null,f,NA,NA,NA,1,7,"2,14,7,11,5,12,13,9,8,6,4,10,3,15,1"
15138,commdev-image-keyboard-response,504,1082162,learnblock2,null,img/planet1_right.png,1,Community 3,NA,FALSE,null,j,NA,NA,NA,1,7,"2,14,7,11,5,12,13,9,8,6,4,10,3,15,1"
15138,commdev-image-keyboard-response,505,1083423,learnblock2,406.7000000476837,img/planet15_right.png,15,Community 3,NA,TRUE,j,j,NA,NA,NA,1,7,"2,14,7,11,5,12,13,9,8,6,4,10,3,15,1"
15138,commdev-image-keyboard-response,506,1084685,learnblock2,null,img/planet10_right.png,10,Community 3,NA,FALSE,null,j,NA,NA,NA,1,7,"2,14,7,11,5,12,13,9,8,6,4,10,3,15,1"
15138,commdev-image-keyboard-response,507,1085942,learnblock2,null,img/planet1_left.png,1,Community 3,NA,FALSE,null,f,NA,NA,NA,1,7,"2,14,7,11,5,12,13,9,8,6,4,10,3,15,1"
15138,commdev-image-keyboard-response,508,1087197,learnblock2,null,img/planet3_right.png,3,Community 3,NA,FALSE,null,j,NA,NA,NA,1,7,"2,14,7,11,5,12,13,9,8,6,4,10,3,15,1"
15138,commdev-image-keyboard-response,509,1088453,learnblock2,257.89999997615814,img/planet15_right.png,15,Community 3,NA,TRUE,j,j,NA,NA,NA,1,7,"2,14,7,11,5,12,13,9,8,6,4,10,3,15,1"
15138,commdev-image-keyboard-response,510,1089707,learnblock2,null,img/planet1_left.png,1,Community 3,NA,FALSE,null,f,NA,NA,NA,1,7,"2,14,7,11,5,12,13,9,8,6,4,10,3,15,1"
15138,commdev-image-keyboard-response,511,1090962,learnblock2,585.3000000119209,img/planet10_left.png,10,Community 3,NA,FALSE,j,f,NA,NA,NA,1,7,"2,14,7,11,5,12,13,9,8,6,4,10,3,15,1"
15138,commdev-image-keyboard-response,512,1092215,learnblock2,128,img/planet3_left.png,3,Community 3,NA,FALSE,j,f,NA,NA,NA,1,7,"2,14,7,11,5,12,13,9,8,6,4,10,3,15,1"
15138,commdev-image-keyboard-response,513,1093469,learnblock2,154.5999999642372,img/planet15_left.png,15,Community 3,NA,FALSE,j,f,NA,NA,NA,1,7,"2,14,7,11,5,12,13,9,8,6,4,10,3,15,1"
15138,commdev-image-keyboard-response,514,1094724,learnblock2,null,img/planet1_right.png,1,Community 3,NA,FALSE,null,j,NA,NA,NA,1,7,"2,14,7,11,5,12,13,9,8,6,4,10,3,15,1"
15138,commdev-image-keyboard-response,515,1095985,learnblock2,null,img/planet3_left.png,3,Community 3,NA,FALSE,null,f,NA,NA,NA,1,7,"2,14,7,11,5,12,13,9,8,6,4,10,3,15,1"
15138,commdev-image-keyboard-response,516,1097240,learnblock2,1121.3999999761581,img/planet10_left.png,10,Community 3,NA,TRUE,f,f,NA,NA,NA,1,7,"2,14,7,11,5,12,13,9,8,6,4,10,3,15,1"
15138,commdev-image-keyboard-response,517,1098496,learnblock2,57,img/planet1_right.png,1,Community 3,NA,FALSE,f,j,NA,NA,NA,1,7,"2,14,7,11,5,12,13,9,8,6,4,10,3,15,1"
15138,commdev-image-keyboard-response,518,1099751,learnblock2,157.30000001192093,img/planet3_left.png,3,Community 3,NA,TRUE,f,f,NA,NA,NA,1,7,"2,14,7,11,5,12,13,9,8,6,4,10,3,15,1"
15138,commdev-image-keyboard-response,519,1101011,learnblock2,1096.5,img/planet4_left.png,4,Community 3,NA,TRUE,f,f,NA,NA,NA,1,7,"2,14,7,11,5,12,13,9,8,6,4,10,3,15,1"
15138,commdev-image-keyboard-response,520,1102274,learnblock2,null,img/planet15_right.png,15,Community 3,NA,FALSE,null,j,NA,NA,NA,1,7,"2,14,7,11,5,12,13,9,8,6,4,10,3,15,1"
15138,commdev-image-keyboard-response,521,1103529,learnblock2,743.6000000238419,img/planet10_left.png,10,Community 3,NA,TRUE,f,f,NA,NA,NA,1,7,"2,14,7,11,5,12,13,9,8,6,4,10,3,15,1"
15138,commdev-image-keyboard-response,522,1104782,learnblock2,103.30000001192093,img/planet1_left.png,1,Community 3,NA,TRUE,f,f,NA,NA,NA,1,7,"2,14,7,11,5,12,13,9,8,6,4,10,3,15,1"
15138,commdev-image-keyboard-response,523,1106041,learnblock2,25.700000047683716,img/planet10_right.png,10,Community 3,NA,FALSE,f,j,NA,NA,NA,1,7,"2,14,7,11,5,12,13,9,8,6,4,10,3,15,1"
15138,commdev-image-keyboard-response,524,1107293,learnblock2,89.5,img/planet9_right.png,9,Community 2,NA,FALSE,f,j,NA,NA,NA,1,7,"2,14,7,11,5,12,13,9,8,6,4,10,3,15,1"
15138,commdev-image-keyboard-response,525,1108550,learnblock2,null,img/planet8_left.png,8,Community 2,NA,FALSE,null,f,NA,NA,NA,1,7,"2,14,7,11,5,12,13,9,8,6,4,10,3,15,1"
15138,commdev-image-keyboard-response,526,1109803,learnblock2,null,img/planet13_right.png,13,Community 2,NA,FALSE,null,j,NA,NA,NA,1,7,"2,14,7,11,5,12,13,9,8,6,4,10,3,15,1"
15138,commdev-image-keyboard-response,527,1111070,learnblock2,null,img/planet9_right.png,9,Community 2,NA,FALSE,null,j,NA,NA,NA,1,7,"2,14,7,11,5,12,13,9,8,6,4,10,3,15,1"
15138,commdev-image-keyboard-response,528,1112323,learnblock2,null,img/planet8_right.png,8,Community 2,NA,FALSE,null,j,NA,NA,NA,1,7,"2,14,7,11,5,12,13,9,8,6,4,10,3,15,1"
15138,commdev-image-keyboard-response,529,1113581,learnblock2,null,img/planet12_left.png,12,Community 2,NA,FALSE,null,f,NA,NA,NA,1,7,"2,14,7,11,5,12,13,9,8,6,4,10,3,15,1"
15138,commdev-image-keyboard-response,530,1114839,learnblock2,null,img/planet11_right.png,11,Community 1,NA,FALSE,null,j,NA,NA,NA,1,7,"2,14,7,11,5,12,13,9,8,6,4,10,3,15,1"
15138,commdev-image-keyboard-response,531,1116099,learnblock2,null,img/planet2_right.png,2,Community 1,NA,FALSE,null,j,NA,NA,NA,1,7,"2,14,7,11,5,12,13,9,8,6,4,10,3,15,1"
15138,commdev-image-keyboard-response,532,1117356,learnblock2,null,img/planet11_right.png,11,Community 1,NA,FALSE,null,j,NA,NA,NA,1,7,"2,14,7,11,5,12,13,9,8,6,4,10,3,15,1"
15138,commdev-image-keyboard-response,533,1118613,learnblock2,1024.3999999761581,img/planet7_right.png,7,Community 1,NA,TRUE,j,j,NA,NA,NA,1,7,"2,14,7,11,5,12,13,9,8,6,4,10,3,15,1"
15138,commdev-image-keyboard-response,534,1119879,learnblock2,166.39999997615814,img/planet2_right.png,2,Community 1,NA,TRUE,j,j,NA,NA,NA,1,7,"2,14,7,11,5,12,13,9,8,6,4,10,3,15,1"
15138,commdev-image-keyboard-response,535,1121133,learnblock2,154.5,img/planet14_right.png,14,Community 1,NA,TRUE,j,j,NA,NA,NA,1,7,"2,14,7,11,5,12,13,9,8,6,4,10,3,15,1"
15138,commdev-image-keyboard-response,536,1122390,learnblock2,115,img/planet7_left.png,7,Community 1,NA,FALSE,j,f,NA,NA,NA,1,7,"2,14,7,11,5,12,13,9,8,6,4,10,3,15,1"
15138,commdev-image-keyboard-response,537,1123641,learnblock2,null,img/planet2_left.png,2,Community 1,NA,FALSE,null,f,NA,NA,NA,1,7,"2,14,7,11,5,12,13,9,8,6,4,10,3,15,1"
15138,commdev-image-keyboard-response,538,1124896,learnblock2,474.69999998807907,img/planet7_right.png,7,Community 1,NA,TRUE,j,j,NA,NA,NA,1,7,"2,14,7,11,5,12,13,9,8,6,4,10,3,15,1"
15138,commdev-image-keyboard-response,539,1126155,learnblock2,91.69999998807907,img/planet5_left.png,5,Community 1,NA,FALSE,j,f,NA,NA,NA,1,7,"2,14,7,11,5,12,13,9,8,6,4,10,3,15,1"
15138,commdev-image-keyboard-response,540,1127407,learnblock2,109.5,img/planet14_left.png,14,Community 1,NA,FALSE,j,f,NA,NA,NA,1,7,"2,14,7,11,5,12,13,9,8,6,4,10,3,15,1"
15138,commdev-image-keyboard-response,541,1128667,learnblock2,135.19999998807907,img/planet11_right.png,11,Community 1,NA,TRUE,j,j,NA,NA,NA,1,7,"2,14,7,11,5,12,13,9,8,6,4,10,3,15,1"
15138,commdev-image-keyboard-response,542,1129926,learnblock2,347.9000000357628,img/planet12_right.png,12,Community 2,NA,TRUE,j,j,NA,NA,NA,1,7,"2,14,7,11,5,12,13,9,8,6,4,10,3,15,1"
15138,commdev-image-keyboard-response,543,1131181,learnblock2,287,img/planet6_left.png,6,Community 2,NA,FALSE,j,f,NA,NA,NA,1,7,"2,14,7,11,5,12,13,9,8,6,4,10,3,15,1"
15138,commdev-image-keyboard-response,544,1132437,learnblock2,null,img/planet9_left.png,9,Community 2,NA,FALSE,null,f,NA,NA,NA,1,7,"2,14,7,11,5,12,13,9,8,6,4,10,3,15,1"
15138,commdev-image-keyboard-response,545,1133690,learnblock2,null,img/planet13_left.png,13,Community 2,NA,FALSE,null,f,NA,NA,NA,1,7,"2,14,7,11,5,12,13,9,8,6,4,10,3,15,1"
15138,commdev-image-keyboard-response,546,1134949,learnblock2,null,img/planet9_left.png,9,Community 2,NA,FALSE,null,f,NA,NA,NA,1,7,"2,14,7,11,5,12,13,9,8,6,4,10,3,15,1"
15138,commdev-image-keyboard-response,547,1136208,learnblock2,null,img/planet6_right.png,6,Community 2,NA,FALSE,null,j,NA,NA,NA,1,7,"2,14,7,11,5,12,13,9,8,6,4,10,3,15,1"
15138,commdev-image-keyboard-response,548,1137459,learnblock2,null,img/planet13_left.png,13,Community 2,NA,FALSE,null,f,NA,NA,NA,1,7,"2,14,7,11,5,12,13,9,8,6,4,10,3,15,1"
15138,commdev-image-keyboard-response,549,1138716,learnblock2,1183.800000011921,img/planet6_left.png,6,Community 2,NA,FALSE,j,f,NA,NA,NA,1,7,"2,14,7,11,5,12,13,9,8,6,4,10,3,15,1"
15138,commdev-image-keyboard-response,550,1139973,learnblock2,142.30000001192093,img/planet8_left.png,8,Community 2,NA,FALSE,j,f,NA,NA,NA,1,7,"2,14,7,11,5,12,13,9,8,6,4,10,3,15,1"
15138,commdev-image-keyboard-response,551,1141232,learnblock2,76.59999996423721,img/planet9_left.png,9,Community 2,NA,FALSE,j,f,NA,NA,NA,1,7,"2,14,7,11,5,12,13,9,8,6,4,10,3,15,1"
15138,commdev-image-keyboard-response,552,1142487,learnblock2,178,img/planet13_right.png,13,Community 2,NA,TRUE,j,j,NA,NA,NA,1,7,"2,14,7,11,5,12,13,9,8,6,4,10,3,15,1"
15138,commdev-image-keyboard-response,553,1143741,learnblock2,160.5,img/planet6_right.png,6,Community 2,NA,TRUE,j,j,NA,NA,NA,1,7,"2,14,7,11,5,12,13,9,8,6,4,10,3,15,1"
15138,commdev-image-keyboard-response,554,1144993,learnblock2,659.3999999761581,img/planet9_right.png,9,Community 2,NA,FALSE,f,j,NA,NA,NA,1,7,"2,14,7,11,5,12,13,9,8,6,4,10,3,15,1"
15138,commdev-image-keyboard-response,555,1146246,learnblock2,6.800000011920929,img/planet13_left.png,13,Community 2,NA,TRUE,f,f,NA,NA,NA,1,7,"2,14,7,11,5,12,13,9,8,6,4,10,3,15,1"
15138,commdev-image-keyboard-response,556,1147504,learnblock2,36.39999997615814,img/planet9_left.png,9,Community 2,NA,TRUE,f,f,NA,NA,NA,1,7,"2,14,7,11,5,12,13,9,8,6,4,10,3,15,1"
15138,commdev-image-keyboard-response,557,1148760,learnblock2,89.80000001192093,img/planet13_right.png,13,Community 2,NA,FALSE,f,j,NA,NA,NA,1,7,"2,14,7,11,5,12,13,9,8,6,4,10,3,15,1"
15138,commdev-image-keyboard-response,558,1150023,learnblock2,67,img/planet8_left.png,8,Community 2,NA,FALSE,j,f,NA,NA,NA,1,7,"2,14,7,11,5,12,13,9,8,6,4,10,3,15,1"
15138,commdev-image-keyboard-response,559,1151283,learnblock2,283.5,img/planet9_right.png,9,Community 2,NA,TRUE,j,j,NA,NA,NA,1,7,"2,14,7,11,5,12,13,9,8,6,4,10,3,15,1"
15138,commdev-image-keyboard-response,560,1152541,learnblock2,59.5,img/planet13_left.png,13,Community 2,NA,TRUE,f,f,NA,NA,NA,1,7,"2,14,7,11,5,12,13,9,8,6,4,10,3,15,1"
15138,commdev-image-keyboard-response,561,1153809,learnblock2,198.70000004768372,img/planet8_left.png,8,Community 2,NA,TRUE,f,f,NA,NA,NA,1,7,"2,14,7,11,5,12,13,9,8,6,4,10,3,15,1"
15138,commdev-image-keyboard-response,562,1155063,learnblock2,229.60000002384186,img/planet9_right.png,9,Community 2,NA,FALSE,f,j,NA,NA,NA,1,7,"2,14,7,11,5,12,13,9,8,6,4,10,3,15,1"
15138,commdev-image-keyboard-response,563,1156329,learnblock2,238.19999998807907,img/planet8_right.png,8,Community 2,NA,FALSE,f,j,NA,NA,NA,1,7,"2,14,7,11,5,12,13,9,8,6,4,10,3,15,1"
15138,commdev-image-keyboard-response,564,1157582,learnblock2,214.10000002384186,img/planet12_right.png,12,Community 2,NA,FALSE,f,j,NA,NA,NA,1,7,"2,14,7,11,5,12,13,9,8,6,4,10,3,15,1"
15138,commdev-image-keyboard-response,565,1158833,learnblock2,170,img/planet13_right.png,13,Community 2,NA,TRUE,j,j,NA,NA,NA,1,7,"2,14,7,11,5,12,13,9,8,6,4,10,3,15,1"
15138,commdev-image-keyboard-response,566,1160092,learnblock2,100.39999997615814,img/planet8_left.png,8,Community 2,NA,FALSE,j,f,NA,NA,NA,1,7,"2,14,7,11,5,12,13,9,8,6,4,10,3,15,1"
15138,commdev-image-keyboard-response,567,1161344,learnblock2,null,img/planet6_right.png,6,Community 2,NA,FALSE,null,j,NA,NA,NA,1,7,"2,14,7,11,5,12,13,9,8,6,4,10,3,15,1"
15138,commdev-image-keyboard-response,568,1162598,learnblock2,172,img/planet8_left.png,8,Community 2,NA,TRUE,f,f,NA,NA,NA,1,7,"2,14,7,11,5,12,13,9,8,6,4,10,3,15,1"
15138,commdev-image-keyboard-response,569,1163850,learnblock2,256.5999999642372,img/planet13_left.png,13,Community 2,NA,TRUE,f,f,NA,NA,NA,1,7,"2,14,7,11,5,12,13,9,8,6,4,10,3,15,1"
15138,commdev-image-keyboard-response,570,1165115,learnblock2,252.30000001192093,img/planet6_right.png,6,Community 2,NA,FALSE,f,j,NA,NA,NA,1,7,"2,14,7,11,5,12,13,9,8,6,4,10,3,15,1"
15138,commdev-image-keyboard-response,571,1166375,learnblock2,219.80000001192093,img/planet9_right.png,9,Community 2,NA,TRUE,j,j,NA,NA,NA,1,7,"2,14,7,11,5,12,13,9,8,6,4,10,3,15,1"
15138,commdev-image-keyboard-response,572,1167628,learnblock2,174.30000001192093,img/planet6_right.png,6,Community 2,NA,TRUE,j,j,NA,NA,NA,1,7,"2,14,7,11,5,12,13,9,8,6,4,10,3,15,1"
15138,commdev-image-keyboard-response,573,1168882,learnblock2,277.2999999523163,img/planet8_right.png,8,Community 2,NA,TRUE,j,j,NA,NA,NA,1,7,"2,14,7,11,5,12,13,9,8,6,4,10,3,15,1"
15138,commdev-image-keyboard-response,574,1170135,learnblock2,62.5,img/planet12_left.png,12,Community 2,NA,FALSE,j,f,NA,NA,NA,1,7,"2,14,7,11,5,12,13,9,8,6,4,10,3,15,1"
15138,commdev-image-keyboard-response,575,1171399,learnblock2,244.5,img/planet13_right.png,13,Community 2,NA,FALSE,f,j,NA,NA,NA,1,7,"2,14,7,11,5,12,13,9,8,6,4,10,3,15,1"
15138,commdev-image-keyboard-response,576,1172655,learnblock2,15,img/planet8_right.png,8,Community 2,NA,TRUE,j,j,NA,NA,NA,1,7,"2,14,7,11,5,12,13,9,8,6,4,10,3,15,1"
15138,commdev-image-keyboard-response,577,1173914,learnblock2,1108.5,img/planet12_left.png,12,Community 2,NA,FALSE,j,f,NA,NA,NA,1,7,"2,14,7,11,5,12,13,9,8,6,4,10,3,15,1"
15138,commdev-image-keyboard-response,578,1175170,learnblock2,948,img/planet8_left.png,8,Community 2,NA,FALSE,j,f,NA,NA,NA,1,7,"2,14,7,11,5,12,13,9,8,6,4,10,3,15,1"
15138,commdev-image-keyboard-response,579,1176424,learnblock2,614.5,img/planet12_left.png,12,Community 2,NA,FALSE,j,f,NA,NA,NA,1,7,"2,14,7,11,5,12,13,9,8,6,4,10,3,15,1"
15138,commdev-image-keyboard-response,580,1177687,learnblock2,41.5,img/planet8_right.png,8,Community 2,NA,TRUE,j,j,NA,NA,NA,1,7,"2,14,7,11,5,12,13,9,8,6,4,10,3,15,1"
15138,commdev-image-keyboard-response,581,1178944,learnblock2,null,img/planet12_left.png,12,Community 2,NA,FALSE,null,f,NA,NA,NA,1,7,"2,14,7,11,5,12,13,9,8,6,4,10,3,15,1"
15138,commdev-image-keyboard-response,582,1180202,learnblock2,null,img/planet11_left.png,11,Community 1,NA,FALSE,null,f,NA,NA,NA,1,7,"2,14,7,11,5,12,13,9,8,6,4,10,3,15,1"
15138,commdev-image-keyboard-response,583,1181458,learnblock2,null,img/planet2_left.png,2,Community 1,NA,FALSE,null,f,NA,NA,NA,1,7,"2,14,7,11,5,12,13,9,8,6,4,10,3,15,1"
15138,commdev-image-keyboard-response,584,1182716,learnblock2,null,img/planet5_right.png,5,Community 1,NA,FALSE,null,j,NA,NA,NA,1,7,"2,14,7,11,5,12,13,9,8,6,4,10,3,15,1"
15138,commdev-image-keyboard-response,585,1183969,learnblock2,null,img/planet14_left.png,14,Community 1,NA,FALSE,null,f,NA,NA,NA,1,7,"2,14,7,11,5,12,13,9,8,6,4,10,3,15,1"
15138,commdev-image-keyboard-response,586,1185222,learnblock2,null,img/planet7_right.png,7,Community 1,NA,FALSE,null,j,NA,NA,NA,1,7,"2,14,7,11,5,12,13,9,8,6,4,10,3,15,1"
15138,commdev-image-keyboard-response,587,1186480,learnblock2,null,img/planet2_left.png,2,Community 1,NA,FALSE,null,f,NA,NA,NA,1,7,"2,14,7,11,5,12,13,9,8,6,4,10,3,15,1"
15138,commdev-image-keyboard-response,588,1187740,learnblock2,null,img/planet14_right.png,14,Community 1,NA,FALSE,null,j,NA,NA,NA,1,7,"2,14,7,11,5,12,13,9,8,6,4,10,3,15,1"
15138,commdev-image-keyboard-response,589,1188992,learnblock2,null,img/planet11_right.png,11,Community 1,NA,FALSE,null,j,NA,NA,NA,1,7,"2,14,7,11,5,12,13,9,8,6,4,10,3,15,1"
