subject_id,trial_type,trial_index,time_elapsed,block,rt,stimulus,planet,community,response,correct,key_press,learning_correct_response,parse,init_locations,final_locations,browser_interactions,num_comp,planet_map
14689,commdev-instructions,7,29768,NA,2826,"<p>In this game, you are a scientist on board a space shuttle. </p><p> On each mission, you will visit planets all across the universe.</p><img src=""img/controlroom.jpg"" width=300vw>",NA,NA,NA,NA,NA,NA,NA,NA,NA,3,6,"11,1,6,2,15,4,14,12,5,7,8,13,10,3,9"
14689,commdev-instructions,8,33033,NA,1195.7000000029802,"<p>Here are a few planets you might see:</p><img src=""img/practice1.png"" width=200vw><img src=""img/practice2.png"" width=200vw><img src=""img/practice3.png"" width=200vw>",NA,NA,NA,NA,NA,NA,NA,NA,NA,3,6,"11,1,6,2,15,4,14,12,5,7,8,13,10,3,9"
14689,commdev-instructions,9,41351,NA,921.6999999955297,"<p>Your job as a scientist is to record which direction the winds are moving on each planet.</p><p>There are two types of wind directions:</p><img src=""img/practice1_left.png"" width=200vw><img src=""img/practice1_right.png"" width=200vw>",NA,NA,NA,NA,NA,NA,NA,NA,NA,3,6,"11,1,6,2,15,4,14,12,5,7,8,13,10,3,9"
14689,commdev-instructions,10,48018,NA,1786.1000000014901,"<p>If the winds are moving this way, press the letter <strong>F</strong> on the keyboard as fast as you can.</p><img src=""img/leftwind.png"" width=250vw>",NA,NA,NA,NA,NA,NA,NA,NA,NA,3,6,"11,1,6,2,15,4,14,12,5,7,8,13,10,3,9"
14689,commdev-instructions,11,53301,NA,787.2000000029802,"<p>If the winds are moving this way, press the letter <strong>J</strong> on the keyboard as fast as you can.</p><img src=""img/rightwind.png"" width=350vw>",NA,NA,NA,NA,NA,NA,NA,NA,NA,3,6,"11,1,6,2,15,4,14,12,5,7,8,13,10,3,9"
14689,commdev-instructions,12,59450,NA,1725.7000000029802,<p>You will have 1 second to respond. Try to respond before the time runs out!,NA,NA,NA,NA,NA,NA,NA,NA,NA,3,6,"11,1,6,2,15,4,14,12,5,7,8,13,10,3,9"
14689,commdev-instructions,13,66368,NA,1486.2999999970198,<p>The planets you will visit will look different from each other.</p><p>You should respond <strong>only</strong> based on wind direction.,NA,NA,NA,NA,NA,NA,NA,NA,NA,3,6,"11,1,6,2,15,4,14,12,5,7,8,13,10,3,9"
14689,commdev-instructions,14,73985,NA,2446.3000000044703,"<p> Ready to start the practice round? </p><p> Remember, press <strong>F</strong> or <strong>J</strong> depending on the wind direction.<br><img src=""img/categorize_planet_example.png""",NA,NA,NA,NA,NA,NA,NA,NA,NA,3,6,"11,1,6,2,15,4,14,12,5,7,8,13,10,3,9"
14689,commdev-instructions,26,128769,NA,4616.29999999702,"<p>Great, now try a short practice mission. </p><p> This time, you will have 1 second to respond and you won't know whether you pressed the right or wrong key for each planet.</p>",NA,NA,NA,NA,NA,NA,NA,NA,NA,3,6,"11,1,6,2,15,4,14,12,5,7,8,13,10,3,9"
14689,commdev-image-keyboard-response,27,130127,practice,875.5,img/practice2_left.png,NA,Number not found in mappings,NA,TRUE,f,f,NA,NA,NA,3,6,"11,1,6,2,15,4,14,12,5,7,8,13,10,3,9"
14689,commdev-image-keyboard-response,28,131381,practice,840.1999999955297,img/practice3_right.png,NA,Number not found in mappings,NA,TRUE,j,j,NA,NA,NA,3,6,"11,1,6,2,15,4,14,12,5,7,8,13,10,3,9"
14689,commdev-image-keyboard-response,29,132635,practice,824.1000000014901,img/practice1_right.png,NA,Number not found in mappings,NA,TRUE,j,j,NA,NA,NA,3,6,"11,1,6,2,15,4,14,12,5,7,8,13,10,3,9"
14689,commdev-image-keyboard-response,30,133888,practice,977.2000000029802,img/practice2_right.png,NA,Number not found in mappings,NA,TRUE,j,j,NA,NA,NA,3,6,"11,1,6,2,15,4,14,12,5,7,8,13,10,3,9"
14689,commdev-image-keyboard-response,31,135142,practice,854,img/practice3_right.png,NA,Number not found in mappings,NA,TRUE,j,j,NA,NA,NA,3,6,"11,1,6,2,15,4,14,12,5,7,8,13,10,3,9"
14689,commdev-image-keyboard-response,32,136394,practice,820.1999999955297,img/practice2_right.png,NA,Number not found in mappings,NA,TRUE,j,j,NA,NA,NA,3,6,"11,1,6,2,15,4,14,12,5,7,8,13,10,3,9"
14689,commdev-image-keyboard-response,33,137647,practice,994.3999999985099,img/practice3_right.png,NA,Number not found in mappings,NA,TRUE,j,j,NA,NA,NA,3,6,"11,1,6,2,15,4,14,12,5,7,8,13,10,3,9"
14689,commdev-image-keyboard-response,34,138900,practice,676.5,img/practice2_right.png,NA,Number not found in mappings,NA,TRUE,j,j,NA,NA,NA,3,6,"11,1,6,2,15,4,14,12,5,7,8,13,10,3,9"
14689,commdev-instructions,35,149502,NA,1050.8999999985099,"<p>Great job with the practice round.</p><p>During real missions, you won't know whether you pressed the right or wrong key for each planet.</p><p>But between missions, we will tell you how you did overall.</p>",NA,NA,NA,NA,NA,NA,NA,NA,NA,3,6,"11,1,6,2,15,4,14,12,5,7,8,13,10,3,9"
14689,commdev-instructions,36,161451,NA,3709.39999999851,<p>Try your best! You will be paid a bonus based on how many correct responses you make!</p><p>Responses that are too slow will not count toward your bonus.</p>,NA,NA,NA,NA,NA,NA,NA,NA,NA,3,6,"11,1,6,2,15,4,14,12,5,7,8,13,10,3,9"
14689,commdev-instructions,37,168919,NA,1268.3000000044703,"<p>You are almost ready to start the real game.</p><p> First, we are going to ask you some questions about how the game works.</p>",NA,NA,NA,NA,NA,NA,NA,NA,NA,3,6,"11,1,6,2,15,4,14,12,5,7,8,13,10,3,9"
14689,commdev-instructions,46,253635,NA,2015.6999999955297,"<p> Nice work! It is now time to start the real game.<p></p>You will go on two missions to record wind directions of different planets.<p></p>Each one will take about 5 minutes. You will get to take a break between missions.<p><p> Remember, press <strong>F</strong> or <strong>J</strong> depending on the wind direction. Good luck!<br><img src=""img/categorize_planet_example.png""",NA,NA,NA,NA,NA,NA,NA,NA,NA,3,6,"11,1,6,2,15,4,14,12,5,7,8,13,10,3,9"
14689,commdev-image-keyboard-response,48,257336,learnblock1,1183.7000000029802,img/planet14_left.png,14,Community 2,NA,TRUE,f,f,NA,NA,NA,3,6,"11,1,6,2,15,4,14,12,5,7,8,13,10,3,9"
14689,commdev-image-keyboard-response,49,258589,learnblock1,635.6000000014901,img/planet7_left.png,7,Community 2,NA,FALSE,j,f,NA,NA,NA,3,6,"11,1,6,2,15,4,14,12,5,7,8,13,10,3,9"
14689,commdev-image-keyboard-response,50,259842,learnblock1,858.7999999970198,img/planet14_right.png,14,Community 2,NA,TRUE,j,j,NA,NA,NA,3,6,"11,1,6,2,15,4,14,12,5,7,8,13,10,3,9"
14689,commdev-image-keyboard-response,51,261095,learnblock1,1074,img/planet12_left.png,12,Community 2,NA,TRUE,f,f,NA,NA,NA,3,6,"11,1,6,2,15,4,14,12,5,7,8,13,10,3,9"
14689,commdev-image-keyboard-response,52,262347,learnblock1,940.2000000029802,img/planet13_left.png,13,Community 3,NA,TRUE,f,f,NA,NA,NA,3,6,"11,1,6,2,15,4,14,12,5,7,8,13,10,3,9"
14689,commdev-image-keyboard-response,53,263600,learnblock1,721.5999999940395,img/planet9_left.png,9,Community 3,NA,TRUE,f,f,NA,NA,NA,3,6,"11,1,6,2,15,4,14,12,5,7,8,13,10,3,9"
14689,commdev-image-keyboard-response,54,264853,learnblock1,1229.5,img/planet8_left.png,8,Community 3,NA,TRUE,f,f,NA,NA,NA,3,6,"11,1,6,2,15,4,14,12,5,7,8,13,10,3,9"
14689,commdev-image-keyboard-response,55,266105,learnblock1,828.6999999955297,img/planet9_left.png,9,Community 3,NA,TRUE,f,f,NA,NA,NA,3,6,"11,1,6,2,15,4,14,12,5,7,8,13,10,3,9"
14689,commdev-image-keyboard-response,56,267358,learnblock1,713.5,img/planet13_left.png,13,Community 3,NA,TRUE,f,f,NA,NA,NA,3,6,"11,1,6,2,15,4,14,12,5,7,8,13,10,3,9"
14689,commdev-image-keyboard-response,57,268610,learnblock1,862.8999999985099,img/planet12_right.png,12,Community 2,NA,TRUE,j,j,NA,NA,NA,3,6,"11,1,6,2,15,4,14,12,5,7,8,13,10,3,9"
14689,commdev-image-keyboard-response,58,269863,learnblock1,723.7000000029802,img/planet14_right.png,14,Community 2,NA,TRUE,j,j,NA,NA,NA,3,6,"11,1,6,2,15,4,14,12,5,7,8,13,10,3,9"
14689,commdev-image-keyboard-response,59,271117,learnblock1,981.3999999985099,img/planet12_right.png,12,Community 2,NA,TRUE,j,j,NA,NA,NA,3,6,"11,1,6,2,15,4,14,12,5,7,8,13,10,3,9"
14689,commdev-image-keyboard-response,60,272370,learnblock1,856.5999999940395,img/planet14_right.png,14,Community 2,NA,TRUE,j,j,NA,NA,NA,3,6,"11,1,6,2,15,4,14,12,5,7,8,13,10,3,9"
14689,commdev-image-keyboard-response,61,273622,learnblock1,737.7000000029802,img/planet4_left.png,4,Community 2,NA,TRUE,f,f,NA,NA,NA,3,6,"11,1,6,2,15,4,14,12,5,7,8,13,10,3,9"
14689,commdev-image-keyboard-response,62,274875,learnblock1,877.1000000014901,img/planet14_left.png,14,Community 2,NA,TRUE,f,f,NA,NA,NA,3,6,"11,1,6,2,15,4,14,12,5,7,8,13,10,3,9"
14689,commdev-image-keyboard-response,63,276128,learnblock1,709.6000000014901,img/planet5_left.png,5,Community 2,NA,TRUE,f,f,NA,NA,NA,3,6,"11,1,6,2,15,4,14,12,5,7,8,13,10,3,9"
14689,commdev-image-keyboard-response,64,277381,learnblock1,698.8999999985099,img/planet7_right.png,7,Community 2,NA,FALSE,f,j,NA,NA,NA,3,6,"11,1,6,2,15,4,14,12,5,7,8,13,10,3,9"
14689,commdev-image-keyboard-response,65,278634,learnblock1,1054.0999999940395,img/planet12_left.png,12,Community 2,NA,TRUE,f,f,NA,NA,NA,3,6,"11,1,6,2,15,4,14,12,5,7,8,13,10,3,9"
14689,commdev-image-keyboard-response,66,279887,learnblock1,696.2000000029802,img/planet7_right.png,7,Community 2,NA,TRUE,j,j,NA,NA,NA,3,6,"11,1,6,2,15,4,14,12,5,7,8,13,10,3,9"
14689,commdev-image-keyboard-response,67,281140,learnblock1,712.1999999955297,img/planet14_left.png,14,Community 2,NA,TRUE,f,f,NA,NA,NA,3,6,"11,1,6,2,15,4,14,12,5,7,8,13,10,3,9"
14689,commdev-image-keyboard-response,68,282392,learnblock1,594.3000000044703,img/planet7_right.png,7,Community 2,NA,TRUE,j,j,NA,NA,NA,3,6,"11,1,6,2,15,4,14,12,5,7,8,13,10,3,9"
14689,commdev-image-keyboard-response,69,283644,learnblock1,585.7000000029802,img/planet14_right.png,14,Community 2,NA,FALSE,f,j,NA,NA,NA,3,6,"11,1,6,2,15,4,14,12,5,7,8,13,10,3,9"
14689,commdev-image-keyboard-response,70,284896,learnblock1,996.8999999985099,img/planet7_left.png,7,Community 2,NA,TRUE,f,f,NA,NA,NA,3,6,"11,1,6,2,15,4,14,12,5,7,8,13,10,3,9"
14689,commdev-image-keyboard-response,71,286149,learnblock1,769.3999999985099,img/planet5_left.png,5,Community 2,NA,FALSE,j,f,NA,NA,NA,3,6,"11,1,6,2,15,4,14,12,5,7,8,13,10,3,9"
14689,commdev-image-keyboard-response,72,287402,learnblock1,1211.2000000029802,img/planet12_left.png,12,Community 2,NA,TRUE,f,f,NA,NA,NA,3,6,"11,1,6,2,15,4,14,12,5,7,8,13,10,3,9"
14689,commdev-image-keyboard-response,73,288655,learnblock1,886.3999999985099,img/planet14_left.png,14,Community 2,NA,TRUE,f,f,NA,NA,NA,3,6,"11,1,6,2,15,4,14,12,5,7,8,13,10,3,9"
14689,commdev-image-keyboard-response,74,289909,learnblock1,1013.3999999985099,img/planet4_left.png,4,Community 2,NA,TRUE,f,f,NA,NA,NA,3,6,"11,1,6,2,15,4,14,12,5,7,8,13,10,3,9"
14689,commdev-image-keyboard-response,75,291161,learnblock1,824.5,img/planet14_left.png,14,Community 2,NA,TRUE,f,f,NA,NA,NA,3,6,"11,1,6,2,15,4,14,12,5,7,8,13,10,3,9"
14689,commdev-image-keyboard-response,76,292414,learnblock1,792.2999999970198,img/planet12_left.png,12,Community 2,NA,TRUE,f,f,NA,NA,NA,3,6,"11,1,6,2,15,4,14,12,5,7,8,13,10,3,9"
14689,commdev-image-keyboard-response,77,293667,learnblock1,669,img/planet14_left.png,14,Community 2,NA,TRUE,f,f,NA,NA,NA,3,6,"11,1,6,2,15,4,14,12,5,7,8,13,10,3,9"
14689,commdev-image-keyboard-response,78,294919,learnblock1,894,img/planet4_left.png,4,Community 2,NA,TRUE,f,f,NA,NA,NA,3,6,"11,1,6,2,15,4,14,12,5,7,8,13,10,3,9"
14689,commdev-image-keyboard-response,79,296172,learnblock1,919.6999999955297,img/planet7_left.png,7,Community 2,NA,TRUE,f,f,NA,NA,NA,3,6,"11,1,6,2,15,4,14,12,5,7,8,13,10,3,9"
14689,commdev-image-keyboard-response,80,297425,learnblock1,683.3999999985099,img/planet4_right.png,4,Community 2,NA,TRUE,j,j,NA,NA,NA,3,6,"11,1,6,2,15,4,14,12,5,7,8,13,10,3,9"
14689,commdev-image-keyboard-response,81,298678,learnblock1,711.2999999970198,img/planet5_right.png,5,Community 2,NA,TRUE,j,j,NA,NA,NA,3,6,"11,1,6,2,15,4,14,12,5,7,8,13,10,3,9"
14689,commdev-image-keyboard-response,82,299931,learnblock1,651.2999999970198,img/planet7_left.png,7,Community 2,NA,TRUE,f,f,NA,NA,NA,3,6,"11,1,6,2,15,4,14,12,5,7,8,13,10,3,9"
14689,commdev-image-keyboard-response,83,301185,learnblock1,681.5,img/planet12_left.png,12,Community 2,NA,TRUE,f,f,NA,NA,NA,3,6,"11,1,6,2,15,4,14,12,5,7,8,13,10,3,9"
14689,commdev-image-keyboard-response,84,302438,learnblock1,674.1999999955297,img/planet14_left.png,14,Community 2,NA,TRUE,f,f,NA,NA,NA,3,6,"11,1,6,2,15,4,14,12,5,7,8,13,10,3,9"
14689,commdev-image-keyboard-response,85,303691,learnblock1,621.3000000044703,img/planet7_right.png,7,Community 2,NA,TRUE,j,j,NA,NA,NA,3,6,"11,1,6,2,15,4,14,12,5,7,8,13,10,3,9"
14689,commdev-image-keyboard-response,86,304944,learnblock1,677.3999999985099,img/planet5_right.png,5,Community 2,NA,TRUE,j,j,NA,NA,NA,3,6,"11,1,6,2,15,4,14,12,5,7,8,13,10,3,9"
14689,commdev-image-keyboard-response,87,306196,learnblock1,703,img/planet14_left.png,14,Community 2,NA,TRUE,f,f,NA,NA,NA,3,6,"11,1,6,2,15,4,14,12,5,7,8,13,10,3,9"
14689,commdev-image-keyboard-response,88,307449,learnblock1,608.2999999970198,img/planet7_right.png,7,Community 2,NA,TRUE,j,j,NA,NA,NA,3,6,"11,1,6,2,15,4,14,12,5,7,8,13,10,3,9"
14689,commdev-image-keyboard-response,89,308701,learnblock1,599.2999999970198,img/planet5_right.png,5,Community 2,NA,FALSE,f,j,NA,NA,NA,3,6,"11,1,6,2,15,4,14,12,5,7,8,13,10,3,9"
14689,commdev-image-keyboard-response,90,309954,learnblock1,669.8000000044703,img/planet12_left.png,12,Community 2,NA,TRUE,f,f,NA,NA,NA,3,6,"11,1,6,2,15,4,14,12,5,7,8,13,10,3,9"
14689,commdev-image-keyboard-response,91,311207,learnblock1,592.5,img/planet5_right.png,5,Community 2,NA,TRUE,j,j,NA,NA,NA,3,6,"11,1,6,2,15,4,14,12,5,7,8,13,10,3,9"
14689,commdev-image-keyboard-response,92,312460,learnblock1,681.6000000014901,img/planet7_right.png,7,Community 2,NA,TRUE,j,j,NA,NA,NA,3,6,"11,1,6,2,15,4,14,12,5,7,8,13,10,3,9"
14689,commdev-image-keyboard-response,93,313712,learnblock1,835.7000000029802,img/planet12_right.png,12,Community 2,NA,TRUE,j,j,NA,NA,NA,3,6,"11,1,6,2,15,4,14,12,5,7,8,13,10,3,9"
14689,commdev-image-keyboard-response,94,314965,learnblock1,855.5,img/planet5_left.png,5,Community 2,NA,TRUE,f,f,NA,NA,NA,3,6,"11,1,6,2,15,4,14,12,5,7,8,13,10,3,9"
14689,commdev-image-keyboard-response,95,316217,learnblock1,766.2999999970198,img/planet7_right.png,7,Community 2,NA,TRUE,j,j,NA,NA,NA,3,6,"11,1,6,2,15,4,14,12,5,7,8,13,10,3,9"
14689,commdev-image-keyboard-response,96,317470,learnblock1,934.6999999955297,img/planet5_left.png,5,Community 2,NA,TRUE,f,f,NA,NA,NA,3,6,"11,1,6,2,15,4,14,12,5,7,8,13,10,3,9"
14689,commdev-image-keyboard-response,97,318722,learnblock1,934.2999999970198,img/planet4_left.png,4,Community 2,NA,TRUE,f,f,NA,NA,NA,3,6,"11,1,6,2,15,4,14,12,5,7,8,13,10,3,9"
14689,commdev-image-keyboard-response,98,319973,learnblock1,860.3999999985099,img/planet5_left.png,5,Community 2,NA,TRUE,f,f,NA,NA,NA,3,6,"11,1,6,2,15,4,14,12,5,7,8,13,10,3,9"
14689,commdev-image-keyboard-response,99,321226,learnblock1,859,img/planet7_right.png,7,Community 2,NA,TRUE,j,j,NA,NA,NA,3,6,"11,1,6,2,15,4,14,12,5,7,8,13,10,3,9"
14689,commdev-image-keyboard-response,100,322478,learnblock1,770,img/planet4_left.png,4,Community 2,NA,TRUE,f,f,NA,NA,NA,3,6,"11,1,6,2,15,4,14,12,5,7,8,13,10,3,9"
14689,commdev-image-keyboard-response,101,323731,learnblock1,606.6999999955297,img/planet7_right.png,7,Community 2,NA,TRUE,j,j,NA,NA,NA,3,6,"11,1,6,2,15,4,14,12,5,7,8,13,10,3,9"
14689,commdev-image-keyboard-response,102,324984,learnblock1,841.7000000029802,img/planet4_right.png,4,Community 2,NA,FALSE,f,j,NA,NA,NA,3,6,"11,1,6,2,15,4,14,12,5,7,8,13,10,3,9"
14689,commdev-image-keyboard-response,103,326236,learnblock1,null,img/planet5_left.png,5,Community 2,NA,FALSE,null,f,NA,NA,NA,3,6,"11,1,6,2,15,4,14,12,5,7,8,13,10,3,9"
14689,commdev-image-keyboard-response,104,327489,learnblock1,103.39999999850988,img/planet7_left.png,7,Community 2,NA,TRUE,f,f,NA,NA,NA,3,6,"11,1,6,2,15,4,14,12,5,7,8,13,10,3,9"
14689,commdev-image-keyboard-response,105,328742,learnblock1,null,img/planet4_right.png,4,Community 2,NA,FALSE,null,j,NA,NA,NA,3,6,"11,1,6,2,15,4,14,12,5,7,8,13,10,3,9"
14689,commdev-image-keyboard-response,106,329994,learnblock1,208,img/planet5_left.png,5,Community 2,NA,FALSE,j,f,NA,NA,NA,3,6,"11,1,6,2,15,4,14,12,5,7,8,13,10,3,9"
14689,commdev-image-keyboard-response,107,331248,learnblock1,865.3999999985099,img/planet12_right.png,12,Community 2,NA,TRUE,j,j,NA,NA,NA,3,6,"11,1,6,2,15,4,14,12,5,7,8,13,10,3,9"
14689,commdev-image-keyboard-response,108,332501,learnblock1,579.6000000014901,img/planet7_left.png,7,Community 2,NA,TRUE,f,f,NA,NA,NA,3,6,"11,1,6,2,15,4,14,12,5,7,8,13,10,3,9"
14689,commdev-image-keyboard-response,109,333753,learnblock1,831.8000000044703,img/planet14_left.png,14,Community 2,NA,TRUE,f,f,NA,NA,NA,3,6,"11,1,6,2,15,4,14,12,5,7,8,13,10,3,9"
14689,commdev-image-keyboard-response,110,335006,learnblock1,685,img/planet12_left.png,12,Community 2,NA,TRUE,f,f,NA,NA,NA,3,6,"11,1,6,2,15,4,14,12,5,7,8,13,10,3,9"
14689,commdev-image-keyboard-response,111,336259,learnblock1,908.2000000029802,img/planet5_left.png,5,Community 2,NA,TRUE,f,f,NA,NA,NA,3,6,"11,1,6,2,15,4,14,12,5,7,8,13,10,3,9"
14689,commdev-image-keyboard-response,112,337512,learnblock1,1010.6000000014901,img/planet4_left.png,4,Community 2,NA,TRUE,f,f,NA,NA,NA,3,6,"11,1,6,2,15,4,14,12,5,7,8,13,10,3,9"
14689,commdev-image-keyboard-response,113,338765,learnblock1,735,img/planet7_left.png,7,Community 2,NA,TRUE,f,f,NA,NA,NA,3,6,"11,1,6,2,15,4,14,12,5,7,8,13,10,3,9"
14689,commdev-image-keyboard-response,114,340018,learnblock1,689.3000000044703,img/planet5_right.png,5,Community 2,NA,TRUE,j,j,NA,NA,NA,3,6,"11,1,6,2,15,4,14,12,5,7,8,13,10,3,9"
14689,commdev-image-keyboard-response,115,341270,learnblock1,658.3999999985099,img/planet7_left.png,7,Community 2,NA,TRUE,f,f,NA,NA,NA,3,6,"11,1,6,2,15,4,14,12,5,7,8,13,10,3,9"
14689,commdev-image-keyboard-response,116,342522,learnblock1,714.6000000014901,img/planet12_right.png,12,Community 2,NA,TRUE,j,j,NA,NA,NA,3,6,"11,1,6,2,15,4,14,12,5,7,8,13,10,3,9"
14689,commdev-image-keyboard-response,117,343776,learnblock1,699.7999999970198,img/planet14_right.png,14,Community 2,NA,FALSE,f,j,NA,NA,NA,3,6,"11,1,6,2,15,4,14,12,5,7,8,13,10,3,9"
14689,commdev-image-keyboard-response,118,345029,learnblock1,706.2000000029802,img/planet5_left.png,5,Community 2,NA,TRUE,f,f,NA,NA,NA,3,6,"11,1,6,2,15,4,14,12,5,7,8,13,10,3,9"
14689,commdev-image-keyboard-response,119,346282,learnblock1,829.6000000014901,img/planet7_left.png,7,Community 2,NA,TRUE,f,f,NA,NA,NA,3,6,"11,1,6,2,15,4,14,12,5,7,8,13,10,3,9"
14689,commdev-image-keyboard-response,120,347534,learnblock1,913,img/planet12_left.png,12,Community 2,NA,TRUE,f,f,NA,NA,NA,3,6,"11,1,6,2,15,4,14,12,5,7,8,13,10,3,9"
14689,commdev-image-keyboard-response,121,348787,learnblock1,949.5,img/planet13_left.png,13,Community 3,NA,TRUE,f,f,NA,NA,NA,3,6,"11,1,6,2,15,4,14,12,5,7,8,13,10,3,9"
14689,commdev-image-keyboard-response,122,350040,learnblock1,982,img/planet3_right.png,3,Community 3,NA,TRUE,j,j,NA,NA,NA,3,6,"11,1,6,2,15,4,14,12,5,7,8,13,10,3,9"
14689,commdev-image-keyboard-response,123,351293,learnblock1,760.8999999985099,img/planet10_left.png,10,Community 3,NA,TRUE,f,f,NA,NA,NA,3,6,"11,1,6,2,15,4,14,12,5,7,8,13,10,3,9"
14689,commdev-image-keyboard-response,124,352546,learnblock1,null,img/planet9_left.png,9,Community 3,NA,FALSE,null,f,NA,NA,NA,3,6,"11,1,6,2,15,4,14,12,5,7,8,13,10,3,9"
14689,commdev-image-keyboard-response,125,353798,learnblock1,1163.2000000029802,img/planet8_left.png,8,Community 3,NA,TRUE,f,f,NA,NA,NA,3,6,"11,1,6,2,15,4,14,12,5,7,8,13,10,3,9"
14689,commdev-image-keyboard-response,126,355051,learnblock1,784.5,img/planet3_right.png,3,Community 3,NA,TRUE,j,j,NA,NA,NA,3,6,"11,1,6,2,15,4,14,12,5,7,8,13,10,3,9"
14689,commdev-image-keyboard-response,127,356304,learnblock1,546.5,img/planet9_left.png,9,Community 3,NA,TRUE,f,f,NA,NA,NA,3,6,"11,1,6,2,15,4,14,12,5,7,8,13,10,3,9"
14689,commdev-image-keyboard-response,128,357557,learnblock1,458.3999999985099,img/planet10_right.png,10,Community 3,NA,TRUE,j,j,NA,NA,NA,3,6,"11,1,6,2,15,4,14,12,5,7,8,13,10,3,9"
14689,commdev-image-keyboard-response,129,358810,learnblock1,545.2999999970198,img/planet8_left.png,8,Community 3,NA,TRUE,f,f,NA,NA,NA,3,6,"11,1,6,2,15,4,14,12,5,7,8,13,10,3,9"
14689,commdev-image-keyboard-response,130,360064,learnblock1,607,img/planet15_right.png,15,Community 1,NA,TRUE,j,j,NA,NA,NA,3,6,"11,1,6,2,15,4,14,12,5,7,8,13,10,3,9"
14689,commdev-image-keyboard-response,131,361317,learnblock1,657.7999999970198,img/planet8_left.png,8,Community 3,NA,TRUE,f,f,NA,NA,NA,3,6,"11,1,6,2,15,4,14,12,5,7,8,13,10,3,9"
14689,commdev-image-keyboard-response,132,362569,learnblock1,726.1000000014901,img/planet15_left.png,15,Community 1,NA,FALSE,j,f,NA,NA,NA,3,6,"11,1,6,2,15,4,14,12,5,7,8,13,10,3,9"
14689,commdev-image-keyboard-response,133,363821,learnblock1,835.8999999985099,img/planet6_right.png,6,Community 1,NA,TRUE,j,j,NA,NA,NA,3,6,"11,1,6,2,15,4,14,12,5,7,8,13,10,3,9"
14689,commdev-image-keyboard-response,134,365074,learnblock1,862.7999999970198,img/planet1_left.png,1,Community 1,NA,TRUE,f,f,NA,NA,NA,3,6,"11,1,6,2,15,4,14,12,5,7,8,13,10,3,9"
14689,commdev-image-keyboard-response,135,366327,learnblock1,498.1000000014901,img/planet6_right.png,6,Community 1,NA,TRUE,j,j,NA,NA,NA,3,6,"11,1,6,2,15,4,14,12,5,7,8,13,10,3,9"
14689,commdev-image-keyboard-response,136,367580,learnblock1,589.7999999970198,img/planet2_left.png,2,Community 1,NA,TRUE,f,f,NA,NA,NA,3,6,"11,1,6,2,15,4,14,12,5,7,8,13,10,3,9"
14689,commdev-image-keyboard-response,137,368833,learnblock1,854.1000000014901,img/planet11_right.png,11,Community 1,NA,TRUE,j,j,NA,NA,NA,3,6,"11,1,6,2,15,4,14,12,5,7,8,13,10,3,9"
14689,commdev-image-keyboard-response,138,370086,learnblock1,929.5,img/planet6_right.png,6,Community 1,NA,FALSE,f,j,NA,NA,NA,3,6,"11,1,6,2,15,4,14,12,5,7,8,13,10,3,9"
14689,commdev-image-keyboard-response,139,371338,learnblock1,910.7000000029802,img/planet15_right.png,15,Community 1,NA,TRUE,j,j,NA,NA,NA,3,6,"11,1,6,2,15,4,14,12,5,7,8,13,10,3,9"
14689,commdev-image-keyboard-response,140,372591,learnblock1,979.1000000014901,img/planet1_right.png,1,Community 1,NA,TRUE,j,j,NA,NA,NA,3,6,"11,1,6,2,15,4,14,12,5,7,8,13,10,3,9"
14689,commdev-image-keyboard-response,141,373844,learnblock1,1000.5,img/planet11_left.png,11,Community 1,NA,TRUE,f,f,NA,NA,NA,3,6,"11,1,6,2,15,4,14,12,5,7,8,13,10,3,9"
14689,commdev-image-keyboard-response,142,375097,learnblock1,800.6000000014901,img/planet6_right.png,6,Community 1,NA,TRUE,j,j,NA,NA,NA,3,6,"11,1,6,2,15,4,14,12,5,7,8,13,10,3,9"
14689,commdev-image-keyboard-response,143,376349,learnblock1,678,img/planet11_left.png,11,Community 1,NA,TRUE,f,f,NA,NA,NA,3,6,"11,1,6,2,15,4,14,12,5,7,8,13,10,3,9"
14689,commdev-image-keyboard-response,144,377602,learnblock1,627.5999999940395,img/planet1_right.png,1,Community 1,NA,TRUE,j,j,NA,NA,NA,3,6,"11,1,6,2,15,4,14,12,5,7,8,13,10,3,9"
14689,commdev-image-keyboard-response,145,378854,learnblock1,788.3000000044703,img/planet6_right.png,6,Community 1,NA,TRUE,j,j,NA,NA,NA,3,6,"11,1,6,2,15,4,14,12,5,7,8,13,10,3,9"
14689,commdev-image-keyboard-response,146,380107,learnblock1,715.6000000014901,img/planet11_left.png,11,Community 1,NA,TRUE,f,f,NA,NA,NA,3,6,"11,1,6,2,15,4,14,12,5,7,8,13,10,3,9"
14689,commdev-image-keyboard-response,147,381359,learnblock1,701.7000000029802,img/planet6_right.png,6,Community 1,NA,TRUE,j,j,NA,NA,NA,3,6,"11,1,6,2,15,4,14,12,5,7,8,13,10,3,9"
14689,commdev-image-keyboard-response,148,382612,learnblock1,771,img/planet1_right.png,1,Community 1,NA,TRUE,j,j,NA,NA,NA,3,6,"11,1,6,2,15,4,14,12,5,7,8,13,10,3,9"
14689,commdev-image-keyboard-response,149,383864,learnblock1,null,img/planet15_right.png,15,Community 1,NA,FALSE,null,j,NA,NA,NA,3,6,"11,1,6,2,15,4,14,12,5,7,8,13,10,3,9"
14689,commdev-image-keyboard-response,150,385117,learnblock1,724.3999999985099,img/planet6_left.png,6,Community 1,NA,TRUE,f,f,NA,NA,NA,3,6,"11,1,6,2,15,4,14,12,5,7,8,13,10,3,9"
14689,commdev-image-keyboard-response,151,386370,learnblock1,172,img/planet1_right.png,1,Community 1,NA,TRUE,j,j,NA,NA,NA,3,6,"11,1,6,2,15,4,14,12,5,7,8,13,10,3,9"
14689,commdev-image-keyboard-response,152,387623,learnblock1,580.1000000014901,img/planet15_left.png,15,Community 1,NA,TRUE,f,f,NA,NA,NA,3,6,"11,1,6,2,15,4,14,12,5,7,8,13,10,3,9"
14689,commdev-image-keyboard-response,153,388876,learnblock1,592.2000000029802,img/planet1_left.png,1,Community 1,NA,FALSE,j,f,NA,NA,NA,3,6,"11,1,6,2,15,4,14,12,5,7,8,13,10,3,9"
14689,commdev-image-keyboard-response,154,390129,learnblock1,655.7000000029802,img/planet11_right.png,11,Community 1,NA,TRUE,j,j,NA,NA,NA,3,6,"11,1,6,2,15,4,14,12,5,7,8,13,10,3,9"
14689,commdev-image-keyboard-response,155,391382,learnblock1,959,img/planet15_right.png,15,Community 1,NA,TRUE,j,j,NA,NA,NA,3,6,"11,1,6,2,15,4,14,12,5,7,8,13,10,3,9"
14689,commdev-image-keyboard-response,156,392635,learnblock1,986.9000000059605,img/planet11_right.png,11,Community 1,NA,TRUE,j,j,NA,NA,NA,3,6,"11,1,6,2,15,4,14,12,5,7,8,13,10,3,9"
14689,commdev-image-keyboard-response,157,393888,learnblock1,774.2999999970198,img/planet1_right.png,1,Community 1,NA,TRUE,j,j,NA,NA,NA,3,6,"11,1,6,2,15,4,14,12,5,7,8,13,10,3,9"
14689,commdev-image-keyboard-response,158,395140,learnblock1,830.6000000014901,img/planet15_left.png,15,Community 1,NA,TRUE,f,f,NA,NA,NA,3,6,"11,1,6,2,15,4,14,12,5,7,8,13,10,3,9"
14689,commdev-image-keyboard-response,159,396394,learnblock1,945.6000000014901,img/planet8_right.png,8,Community 3,NA,FALSE,f,j,NA,NA,NA,3,6,"11,1,6,2,15,4,14,12,5,7,8,13,10,3,9"
14689,commdev-image-keyboard-response,160,397647,learnblock1,null,img/planet9_right.png,9,Community 3,NA,FALSE,null,j,NA,NA,NA,3,6,"11,1,6,2,15,4,14,12,5,7,8,13,10,3,9"
14689,commdev-image-keyboard-response,161,398900,learnblock1,301.19999999552965,img/planet10_left.png,10,Community 3,NA,TRUE,f,f,NA,NA,NA,3,6,"11,1,6,2,15,4,14,12,5,7,8,13,10,3,9"
14689,commdev-image-keyboard-response,162,400152,learnblock1,748.3000000044703,img/planet9_right.png,9,Community 3,NA,TRUE,j,j,NA,NA,NA,3,6,"11,1,6,2,15,4,14,12,5,7,8,13,10,3,9"
14689,commdev-image-keyboard-response,163,401405,learnblock1,551.3999999985099,img/planet13_right.png,13,Community 3,NA,FALSE,f,j,NA,NA,NA,3,6,"11,1,6,2,15,4,14,12,5,7,8,13,10,3,9"
14689,commdev-image-keyboard-response,164,402658,learnblock1,487.20000000298023,img/planet10_left.png,10,Community 3,NA,FALSE,j,f,NA,NA,NA,3,6,"11,1,6,2,15,4,14,12,5,7,8,13,10,3,9"
14689,commdev-image-keyboard-response,165,403911,learnblock1,189.89999999850988,img/planet13_right.png,13,Community 3,NA,FALSE,f,j,NA,NA,NA,3,6,"11,1,6,2,15,4,14,12,5,7,8,13,10,3,9"
14689,commdev-image-keyboard-response,166,405163,learnblock1,613.2999999970198,img/planet12_left.png,12,Community 2,NA,TRUE,f,f,NA,NA,NA,3,6,"11,1,6,2,15,4,14,12,5,7,8,13,10,3,9"
14689,commdev-image-keyboard-response,167,406417,learnblock1,698.3999999985099,img/planet13_right.png,13,Community 3,NA,FALSE,f,j,NA,NA,NA,3,6,"11,1,6,2,15,4,14,12,5,7,8,13,10,3,9"
14689,commdev-image-keyboard-response,168,407670,learnblock1,902.5,img/planet12_right.png,12,Community 2,NA,FALSE,f,j,NA,NA,NA,3,6,"11,1,6,2,15,4,14,12,5,7,8,13,10,3,9"
14689,commdev-image-keyboard-response,169,408923,learnblock1,970.6999999955297,img/planet14_left.png,14,Community 2,NA,TRUE,f,f,NA,NA,NA,3,6,"11,1,6,2,15,4,14,12,5,7,8,13,10,3,9"
14689,commdev-image-keyboard-response,170,410176,learnblock1,1063.8999999985099,img/planet4_left.png,4,Community 2,NA,TRUE,f,f,NA,NA,NA,3,6,"11,1,6,2,15,4,14,12,5,7,8,13,10,3,9"
14689,commdev-image-keyboard-response,171,411429,learnblock1,913,img/planet14_left.png,14,Community 2,NA,TRUE,f,f,NA,NA,NA,3,6,"11,1,6,2,15,4,14,12,5,7,8,13,10,3,9"
14689,commdev-image-keyboard-response,172,412682,learnblock1,718.2999999970198,img/planet12_right.png,12,Community 2,NA,TRUE,j,j,NA,NA,NA,3,6,"11,1,6,2,15,4,14,12,5,7,8,13,10,3,9"
14689,commdev-image-keyboard-response,173,413936,learnblock1,809.3999999985099,img/planet7_right.png,7,Community 2,NA,TRUE,j,j,NA,NA,NA,3,6,"11,1,6,2,15,4,14,12,5,7,8,13,10,3,9"
14689,commdev-image-keyboard-response,174,415188,learnblock1,961.8000000044703,img/planet4_right.png,4,Community 2,NA,TRUE,j,j,NA,NA,NA,3,6,"11,1,6,2,15,4,14,12,5,7,8,13,10,3,9"
14689,commdev-image-keyboard-response,175,416441,learnblock1,801.6000000014901,img/planet7_right.png,7,Community 2,NA,TRUE,j,j,NA,NA,NA,3,6,"11,1,6,2,15,4,14,12,5,7,8,13,10,3,9"
14689,commdev-image-keyboard-response,176,417693,learnblock1,1114.7999999970198,img/planet12_right.png,12,Community 2,NA,TRUE,j,j,NA,NA,NA,3,6,"11,1,6,2,15,4,14,12,5,7,8,13,10,3,9"
14689,commdev-image-keyboard-response,177,418946,learnblock1,923.2000000029802,img/planet13_left.png,13,Community 3,NA,FALSE,j,f,NA,NA,NA,3,6,"11,1,6,2,15,4,14,12,5,7,8,13,10,3,9"
14689,commdev-image-keyboard-response,178,420199,learnblock1,34,img/planet12_left.png,12,Community 2,NA,TRUE,f,f,NA,NA,NA,3,6,"11,1,6,2,15,4,14,12,5,7,8,13,10,3,9"
14689,commdev-image-keyboard-response,179,421452,learnblock1,759.8999999985099,img/planet13_right.png,13,Community 3,NA,TRUE,j,j,NA,NA,NA,3,6,"11,1,6,2,15,4,14,12,5,7,8,13,10,3,9"
14689,commdev-image-keyboard-response,180,422705,learnblock1,820.1000000014901,img/planet10_left.png,10,Community 3,NA,TRUE,f,f,NA,NA,NA,3,6,"11,1,6,2,15,4,14,12,5,7,8,13,10,3,9"
14689,commdev-image-keyboard-response,181,423958,learnblock1,745.9000000059605,img/planet13_left.png,13,Community 3,NA,TRUE,f,f,NA,NA,NA,3,6,"11,1,6,2,15,4,14,12,5,7,8,13,10,3,9"
14689,commdev-image-keyboard-response,182,425211,learnblock1,838.7999999970198,img/planet9_right.png,9,Community 3,NA,TRUE,j,j,NA,NA,NA,3,6,"11,1,6,2,15,4,14,12,5,7,8,13,10,3,9"
14689,commdev-image-keyboard-response,183,426464,learnblock1,1027.5,img/planet3_left.png,3,Community 3,NA,TRUE,f,f,NA,NA,NA,3,6,"11,1,6,2,15,4,14,12,5,7,8,13,10,3,9"
14689,commdev-image-keyboard-response,184,427717,learnblock1,null,img/planet8_right.png,8,Community 3,NA,FALSE,null,j,NA,NA,NA,3,6,"11,1,6,2,15,4,14,12,5,7,8,13,10,3,9"
14689,commdev-image-keyboard-response,185,428970,learnblock1,133.69999999552965,img/planet15_right.png,15,Community 1,NA,TRUE,j,j,NA,NA,NA,3,6,"11,1,6,2,15,4,14,12,5,7,8,13,10,3,9"
14689,commdev-image-keyboard-response,186,430223,learnblock1,1117,img/planet11_right.png,11,Community 1,NA,FALSE,f,j,NA,NA,NA,3,6,"11,1,6,2,15,4,14,12,5,7,8,13,10,3,9"
14689,commdev-image-keyboard-response,187,431476,learnblock1,902,img/planet6_left.png,6,Community 1,NA,FALSE,j,f,NA,NA,NA,3,6,"11,1,6,2,15,4,14,12,5,7,8,13,10,3,9"
14689,commdev-image-keyboard-response,188,432729,learnblock1,75.70000000298023,img/planet15_left.png,15,Community 1,NA,TRUE,f,f,NA,NA,NA,3,6,"11,1,6,2,15,4,14,12,5,7,8,13,10,3,9"
14689,commdev-image-keyboard-response,189,433982,learnblock1,1118.5,img/planet1_left.png,1,Community 1,NA,FALSE,j,f,NA,NA,NA,3,6,"11,1,6,2,15,4,14,12,5,7,8,13,10,3,9"
14689,commdev-image-keyboard-response,190,435235,learnblock1,1158.2999999970198,img/planet2_left.png,2,Community 1,NA,TRUE,f,f,NA,NA,NA,3,6,"11,1,6,2,15,4,14,12,5,7,8,13,10,3,9"
14689,commdev-image-keyboard-response,191,436488,learnblock1,1050.2000000029802,img/planet6_right.png,6,Community 1,NA,FALSE,f,j,NA,NA,NA,3,6,"11,1,6,2,15,4,14,12,5,7,8,13,10,3,9"
14689,commdev-image-keyboard-response,192,437741,learnblock1,208.5,img/planet1_right.png,1,Community 1,NA,TRUE,j,j,NA,NA,NA,3,6,"11,1,6,2,15,4,14,12,5,7,8,13,10,3,9"
14689,commdev-image-keyboard-response,193,438993,learnblock1,320.69999999552965,img/planet6_left.png,6,Community 1,NA,FALSE,j,f,NA,NA,NA,3,6,"11,1,6,2,15,4,14,12,5,7,8,13,10,3,9"
14689,commdev-image-keyboard-response,194,440246,learnblock1,843.6000000014901,img/planet1_right.png,1,Community 1,NA,TRUE,j,j,NA,NA,NA,3,6,"11,1,6,2,15,4,14,12,5,7,8,13,10,3,9"
14689,commdev-image-keyboard-response,195,441499,learnblock1,1142.3999999985099,img/planet15_right.png,15,Community 1,NA,FALSE,f,j,NA,NA,NA,3,6,"11,1,6,2,15,4,14,12,5,7,8,13,10,3,9"
14689,commdev-image-keyboard-response,196,442752,learnblock1,21.30000000447035,img/planet1_right.png,1,Community 1,NA,TRUE,j,j,NA,NA,NA,3,6,"11,1,6,2,15,4,14,12,5,7,8,13,10,3,9"
14689,commdev-image-keyboard-response,197,444005,learnblock1,115.29999999701977,img/planet2_left.png,2,Community 1,NA,TRUE,f,f,NA,NA,NA,3,6,"11,1,6,2,15,4,14,12,5,7,8,13,10,3,9"
14689,commdev-image-keyboard-response,198,445258,learnblock1,18.5,img/planet6_left.png,6,Community 1,NA,TRUE,f,f,NA,NA,NA,3,6,"11,1,6,2,15,4,14,12,5,7,8,13,10,3,9"
14689,commdev-image-keyboard-response,199,446511,learnblock1,536.3999999985099,img/planet2_right.png,2,Community 1,NA,FALSE,f,j,NA,NA,NA,3,6,"11,1,6,2,15,4,14,12,5,7,8,13,10,3,9"
14689,commdev-image-keyboard-response,200,447763,learnblock1,762.1000000014901,img/planet11_left.png,11,Community 1,NA,FALSE,j,f,NA,NA,NA,3,6,"11,1,6,2,15,4,14,12,5,7,8,13,10,3,9"
14689,commdev-image-keyboard-response,201,449015,learnblock1,227.89999999850988,img/planet15_left.png,15,Community 1,NA,TRUE,f,f,NA,NA,NA,3,6,"11,1,6,2,15,4,14,12,5,7,8,13,10,3,9"
14689,commdev-image-keyboard-response,202,450269,learnblock1,502.5,img/planet1_left.png,1,Community 1,NA,FALSE,j,f,NA,NA,NA,3,6,"11,1,6,2,15,4,14,12,5,7,8,13,10,3,9"
14689,commdev-image-keyboard-response,203,451521,learnblock1,1191.6000000014901,img/planet11_left.png,11,Community 1,NA,TRUE,f,f,NA,NA,NA,3,6,"11,1,6,2,15,4,14,12,5,7,8,13,10,3,9"
14689,commdev-image-keyboard-response,204,452774,learnblock1,969.3999999985099,img/planet6_right.png,6,Community 1,NA,TRUE,j,j,NA,NA,NA,3,6,"11,1,6,2,15,4,14,12,5,7,8,13,10,3,9"
14689,commdev-image-keyboard-response,205,454027,learnblock1,768.2000000029802,img/planet11_left.png,11,Community 1,NA,TRUE,f,f,NA,NA,NA,3,6,"11,1,6,2,15,4,14,12,5,7,8,13,10,3,9"
14689,commdev-image-keyboard-response,206,455280,learnblock1,1050.1999999955297,img/planet15_left.png,15,Community 1,NA,TRUE,f,f,NA,NA,NA,3,6,"11,1,6,2,15,4,14,12,5,7,8,13,10,3,9"
14689,commdev-image-keyboard-response,207,456534,learnblock1,null,img/planet6_left.png,6,Community 1,NA,FALSE,null,f,NA,NA,NA,3,6,"11,1,6,2,15,4,14,12,5,7,8,13,10,3,9"
14689,commdev-image-keyboard-response,208,457786,learnblock1,177.5,img/planet1_left.png,1,Community 1,NA,TRUE,f,f,NA,NA,NA,3,6,"11,1,6,2,15,4,14,12,5,7,8,13,10,3,9"
14689,commdev-image-keyboard-response,209,459038,learnblock1,878.3999999985099,img/planet2_left.png,2,Community 1,NA,TRUE,f,f,NA,NA,NA,3,6,"11,1,6,2,15,4,14,12,5,7,8,13,10,3,9"
14689,commdev-image-keyboard-response,210,460290,learnblock1,1027.7999999970198,img/planet1_left.png,1,Community 1,NA,FALSE,j,f,NA,NA,NA,3,6,"11,1,6,2,15,4,14,12,5,7,8,13,10,3,9"
14689,commdev-image-keyboard-response,211,461544,learnblock1,1073.2000000029802,img/planet11_right.png,11,Community 1,NA,TRUE,j,j,NA,NA,NA,3,6,"11,1,6,2,15,4,14,12,5,7,8,13,10,3,9"
14689,commdev-image-keyboard-response,212,462796,learnblock1,883.1000000014901,img/planet6_left.png,6,Community 1,NA,TRUE,f,f,NA,NA,NA,3,6,"11,1,6,2,15,4,14,12,5,7,8,13,10,3,9"
14689,commdev-image-keyboard-response,213,464049,learnblock1,889.5,img/planet2_right.png,2,Community 1,NA,TRUE,j,j,NA,NA,NA,3,6,"11,1,6,2,15,4,14,12,5,7,8,13,10,3,9"
14689,commdev-image-keyboard-response,214,465302,learnblock1,1107.1000000014901,img/planet1_right.png,1,Community 1,NA,FALSE,f,j,NA,NA,NA,3,6,"11,1,6,2,15,4,14,12,5,7,8,13,10,3,9"
14689,commdev-image-keyboard-response,215,466555,learnblock1,943.3000000044703,img/planet6_right.png,6,Community 1,NA,TRUE,j,j,NA,NA,NA,3,6,"11,1,6,2,15,4,14,12,5,7,8,13,10,3,9"
14689,commdev-image-keyboard-response,216,467808,learnblock1,null,img/planet2_left.png,2,Community 1,NA,FALSE,null,f,NA,NA,NA,3,6,"11,1,6,2,15,4,14,12,5,7,8,13,10,3,9"
14689,commdev-image-keyboard-response,217,469060,learnblock1,144.69999999552965,img/planet4_left.png,4,Community 2,NA,TRUE,f,f,NA,NA,NA,3,6,"11,1,6,2,15,4,14,12,5,7,8,13,10,3,9"
14689,commdev-image-keyboard-response,218,470312,learnblock1,734.1999999955297,img/planet7_right.png,7,Community 2,NA,TRUE,j,j,NA,NA,NA,3,6,"11,1,6,2,15,4,14,12,5,7,8,13,10,3,9"
14689,commdev-image-keyboard-response,219,471565,learnblock1,556.3999999985099,img/planet4_right.png,4,Community 2,NA,TRUE,j,j,NA,NA,NA,3,6,"11,1,6,2,15,4,14,12,5,7,8,13,10,3,9"
14689,commdev-image-keyboard-response,220,472818,learnblock1,698,img/planet2_right.png,2,Community 1,NA,TRUE,j,j,NA,NA,NA,3,6,"11,1,6,2,15,4,14,12,5,7,8,13,10,3,9"
14689,commdev-image-keyboard-response,221,474071,learnblock1,null,img/planet4_left.png,4,Community 2,NA,FALSE,null,f,NA,NA,NA,3,6,"11,1,6,2,15,4,14,12,5,7,8,13,10,3,9"
14689,commdev-image-keyboard-response,222,475324,learnblock1,405.8999999985099,img/planet2_left.png,2,Community 1,NA,TRUE,f,f,NA,NA,NA,3,6,"11,1,6,2,15,4,14,12,5,7,8,13,10,3,9"
14689,commdev-image-keyboard-response,223,476577,learnblock1,585.3999999985099,img/planet1_left.png,1,Community 1,NA,FALSE,j,f,NA,NA,NA,3,6,"11,1,6,2,15,4,14,12,5,7,8,13,10,3,9"
14689,commdev-image-keyboard-response,224,477830,learnblock1,947.2999999970198,img/planet11_left.png,11,Community 1,NA,TRUE,f,f,NA,NA,NA,3,6,"11,1,6,2,15,4,14,12,5,7,8,13,10,3,9"
14689,commdev-image-keyboard-response,225,479083,learnblock1,712.3999999985099,img/planet1_left.png,1,Community 1,NA,TRUE,f,f,NA,NA,NA,3,6,"11,1,6,2,15,4,14,12,5,7,8,13,10,3,9"
14689,commdev-image-keyboard-response,226,480336,learnblock1,709.3999999985099,img/planet15_right.png,15,Community 1,NA,TRUE,j,j,NA,NA,NA,3,6,"11,1,6,2,15,4,14,12,5,7,8,13,10,3,9"
14689,commdev-image-keyboard-response,227,481588,learnblock1,432.29999999701977,img/planet6_left.png,6,Community 1,NA,FALSE,j,f,NA,NA,NA,3,6,"11,1,6,2,15,4,14,12,5,7,8,13,10,3,9"
14689,commdev-image-keyboard-response,228,482841,learnblock1,651.3999999985099,img/planet1_right.png,1,Community 1,NA,FALSE,f,j,NA,NA,NA,3,6,"11,1,6,2,15,4,14,12,5,7,8,13,10,3,9"
14689,commdev-image-keyboard-response,229,484092,learnblock1,535.3000000044703,img/planet15_right.png,15,Community 1,NA,TRUE,j,j,NA,NA,NA,3,6,"11,1,6,2,15,4,14,12,5,7,8,13,10,3,9"
14689,commdev-image-keyboard-response,230,485345,learnblock1,null,img/planet11_right.png,11,Community 1,NA,FALSE,null,j,NA,NA,NA,3,6,"11,1,6,2,15,4,14,12,5,7,8,13,10,3,9"
14689,commdev-image-keyboard-response,231,486598,learnblock1,192,img/planet1_left.png,1,Community 1,NA,TRUE,f,f,NA,NA,NA,3,6,"11,1,6,2,15,4,14,12,5,7,8,13,10,3,9"
14689,commdev-image-keyboard-response,232,487851,learnblock1,387.30000000447035,img/planet2_right.png,2,Community 1,NA,FALSE,f,j,NA,NA,NA,3,6,"11,1,6,2,15,4,14,12,5,7,8,13,10,3,9"
14689,commdev-image-keyboard-response,233,489105,learnblock1,811.5,img/planet6_right.png,6,Community 1,NA,FALSE,f,j,NA,NA,NA,3,6,"11,1,6,2,15,4,14,12,5,7,8,13,10,3,9"
14689,commdev-image-keyboard-response,234,490358,learnblock1,1134.2999999970198,img/planet15_left.png,15,Community 1,NA,TRUE,f,f,NA,NA,NA,3,6,"11,1,6,2,15,4,14,12,5,7,8,13,10,3,9"
14689,commdev-image-keyboard-response,235,491611,learnblock1,580.8000000044703,img/planet11_left.png,11,Community 1,NA,FALSE,j,f,NA,NA,NA,3,6,"11,1,6,2,15,4,14,12,5,7,8,13,10,3,9"
14689,commdev-image-keyboard-response,236,492864,learnblock1,683,img/planet15_right.png,15,Community 1,NA,TRUE,j,j,NA,NA,NA,3,6,"11,1,6,2,15,4,14,12,5,7,8,13,10,3,9"
14689,commdev-image-keyboard-response,237,494117,learnblock1,1078.5,img/planet6_right.png,6,Community 1,NA,TRUE,j,j,NA,NA,NA,3,6,"11,1,6,2,15,4,14,12,5,7,8,13,10,3,9"
14689,commdev-image-keyboard-response,238,495370,learnblock1,1058.2000000029802,img/planet11_left.png,11,Community 1,NA,TRUE,f,f,NA,NA,NA,3,6,"11,1,6,2,15,4,14,12,5,7,8,13,10,3,9"
14689,commdev-image-keyboard-response,239,496623,learnblock1,850.7000000029802,img/planet15_left.png,15,Community 1,NA,FALSE,j,f,NA,NA,NA,3,6,"11,1,6,2,15,4,14,12,5,7,8,13,10,3,9"
14689,commdev-image-keyboard-response,240,497874,learnblock1,1023.8000000044703,img/planet6_right.png,6,Community 1,NA,FALSE,f,j,NA,NA,NA,3,6,"11,1,6,2,15,4,14,12,5,7,8,13,10,3,9"
14689,commdev-image-keyboard-response,241,499128,learnblock1,null,img/planet11_right.png,11,Community 1,NA,FALSE,null,j,NA,NA,NA,3,6,"11,1,6,2,15,4,14,12,5,7,8,13,10,3,9"
14689,commdev-image-keyboard-response,242,500381,learnblock1,259.6000000014901,img/planet2_left.png,2,Community 1,NA,TRUE,f,f,NA,NA,NA,3,6,"11,1,6,2,15,4,14,12,5,7,8,13,10,3,9"
14689,commdev-image-keyboard-response,243,501633,learnblock1,1178,img/planet6_right.png,6,Community 1,NA,TRUE,j,j,NA,NA,NA,3,6,"11,1,6,2,15,4,14,12,5,7,8,13,10,3,9"
14689,commdev-image-keyboard-response,244,502886,learnblock1,633.1000000014901,img/planet15_left.png,15,Community 1,NA,TRUE,f,f,NA,NA,NA,3,6,"11,1,6,2,15,4,14,12,5,7,8,13,10,3,9"
14689,commdev-image-keyboard-response,245,504139,learnblock1,675.6999999955297,img/planet11_left.png,11,Community 1,NA,FALSE,j,f,NA,NA,NA,3,6,"11,1,6,2,15,4,14,12,5,7,8,13,10,3,9"
14689,commdev-image-keyboard-response,246,505391,learnblock1,744.7999999970198,img/planet2_right.png,2,Community 1,NA,FALSE,f,j,NA,NA,NA,3,6,"11,1,6,2,15,4,14,12,5,7,8,13,10,3,9"
14689,commdev-image-keyboard-response,247,506644,learnblock1,715,img/planet6_left.png,6,Community 1,NA,TRUE,f,f,NA,NA,NA,3,6,"11,1,6,2,15,4,14,12,5,7,8,13,10,3,9"
14689,commdev-image-keyboard-response,248,507896,learnblock1,636.4000000059605,img/planet2_right.png,2,Community 1,NA,TRUE,j,j,NA,NA,NA,3,6,"11,1,6,2,15,4,14,12,5,7,8,13,10,3,9"
14689,commdev-image-keyboard-response,249,509149,learnblock1,695.5999999940395,img/planet4_left.png,4,Community 2,NA,TRUE,f,f,NA,NA,NA,3,6,"11,1,6,2,15,4,14,12,5,7,8,13,10,3,9"
14689,commdev-image-keyboard-response,250,510401,learnblock1,642,img/planet7_right.png,7,Community 2,NA,TRUE,j,j,NA,NA,NA,3,6,"11,1,6,2,15,4,14,12,5,7,8,13,10,3,9"
14689,commdev-image-keyboard-response,251,511655,learnblock1,768,img/planet4_left.png,4,Community 2,NA,TRUE,f,f,NA,NA,NA,3,6,"11,1,6,2,15,4,14,12,5,7,8,13,10,3,9"
14689,commdev-image-keyboard-response,252,512908,learnblock1,767.0999999940395,img/planet5_left.png,5,Community 2,NA,TRUE,f,f,NA,NA,NA,3,6,"11,1,6,2,15,4,14,12,5,7,8,13,10,3,9"
14689,commdev-image-keyboard-response,253,514161,learnblock1,1107.7000000029802,img/planet12_left.png,12,Community 2,NA,TRUE,f,f,NA,NA,NA,3,6,"11,1,6,2,15,4,14,12,5,7,8,13,10,3,9"
14689,commdev-image-keyboard-response,254,515414,learnblock1,808.1000000014901,img/planet7_right.png,7,Community 2,NA,FALSE,f,j,NA,NA,NA,3,6,"11,1,6,2,15,4,14,12,5,7,8,13,10,3,9"
14689,commdev-image-keyboard-response,255,516667,learnblock1,962.5,img/planet4_left.png,4,Community 2,NA,TRUE,f,f,NA,NA,NA,3,6,"11,1,6,2,15,4,14,12,5,7,8,13,10,3,9"
14689,commdev-image-keyboard-response,256,517919,learnblock1,766.1000000014901,img/planet7_right.png,7,Community 2,NA,TRUE,j,j,NA,NA,NA,3,6,"11,1,6,2,15,4,14,12,5,7,8,13,10,3,9"
14689,commdev-image-keyboard-response,257,519173,learnblock1,985.5,img/planet14_left.png,14,Community 2,NA,TRUE,f,f,NA,NA,NA,3,6,"11,1,6,2,15,4,14,12,5,7,8,13,10,3,9"
14689,commdev-image-keyboard-response,258,520426,learnblock1,846.2999999970198,img/planet7_left.png,7,Community 2,NA,TRUE,f,f,NA,NA,NA,3,6,"11,1,6,2,15,4,14,12,5,7,8,13,10,3,9"
14689,commdev-image-keyboard-response,259,521679,learnblock1,824.3000000044703,img/planet12_left.png,12,Community 2,NA,TRUE,f,f,NA,NA,NA,3,6,"11,1,6,2,15,4,14,12,5,7,8,13,10,3,9"
14689,commdev-image-keyboard-response,260,522932,learnblock1,null,img/planet14_right.png,14,Community 2,NA,FALSE,null,j,NA,NA,NA,3,6,"11,1,6,2,15,4,14,12,5,7,8,13,10,3,9"
14689,commdev-image-keyboard-response,261,524184,learnblock1,186.89999999850988,img/planet12_right.png,12,Community 2,NA,FALSE,f,j,NA,NA,NA,3,6,"11,1,6,2,15,4,14,12,5,7,8,13,10,3,9"
14689,commdev-image-keyboard-response,262,525437,learnblock1,816.2999999970198,img/planet13_right.png,13,Community 3,NA,FALSE,f,j,NA,NA,NA,3,6,"11,1,6,2,15,4,14,12,5,7,8,13,10,3,9"
14689,commdev-image-keyboard-response,263,526689,learnblock1,873.1000000014901,img/planet9_left.png,9,Community 3,NA,FALSE,j,f,NA,NA,NA,3,6,"11,1,6,2,15,4,14,12,5,7,8,13,10,3,9"
14689,commdev-image-keyboard-response,264,527942,learnblock1,959.8999999985099,img/planet8_left.png,8,Community 3,NA,FALSE,j,f,NA,NA,NA,3,6,"11,1,6,2,15,4,14,12,5,7,8,13,10,3,9"
14689,commdev-image-keyboard-response,265,529194,learnblock1,945.0999999940395,img/planet10_left.png,10,Community 3,NA,TRUE,f,f,NA,NA,NA,3,6,"11,1,6,2,15,4,14,12,5,7,8,13,10,3,9"
14689,commdev-image-keyboard-response,266,530447,learnblock1,null,img/planet3_right.png,3,Community 3,NA,FALSE,null,j,NA,NA,NA,3,6,"11,1,6,2,15,4,14,12,5,7,8,13,10,3,9"
14689,commdev-image-keyboard-response,267,531700,learnblock1,237.5,img/planet10_left.png,10,Community 3,NA,FALSE,j,f,NA,NA,NA,3,6,"11,1,6,2,15,4,14,12,5,7,8,13,10,3,9"
14689,commdev-image-keyboard-response,268,532952,learnblock1,157.20000000298023,img/planet9_right.png,9,Community 3,NA,FALSE,f,j,NA,NA,NA,3,6,"11,1,6,2,15,4,14,12,5,7,8,13,10,3,9"
14689,commdev-image-keyboard-response,269,534205,learnblock1,920.5999999940395,img/planet8_left.png,8,Community 3,NA,TRUE,f,f,NA,NA,NA,3,6,"11,1,6,2,15,4,14,12,5,7,8,13,10,3,9"
14689,commdev-image-keyboard-response,270,535458,learnblock1,745.8999999985099,img/planet3_right.png,3,Community 3,NA,TRUE,j,j,NA,NA,NA,3,6,"11,1,6,2,15,4,14,12,5,7,8,13,10,3,9"
14689,commdev-image-keyboard-response,271,536711,learnblock1,609.3999999985099,img/planet9_right.png,9,Community 3,NA,FALSE,f,j,NA,NA,NA,3,6,"11,1,6,2,15,4,14,12,5,7,8,13,10,3,9"
14689,commdev-image-keyboard-response,272,537963,learnblock1,931.2999999970198,img/planet8_right.png,8,Community 3,NA,TRUE,j,j,NA,NA,NA,3,6,"11,1,6,2,15,4,14,12,5,7,8,13,10,3,9"
14689,commdev-image-keyboard-response,273,539216,learnblock1,null,img/planet3_left.png,3,Community 3,NA,FALSE,null,f,NA,NA,NA,3,6,"11,1,6,2,15,4,14,12,5,7,8,13,10,3,9"
14689,commdev-image-keyboard-response,274,540469,learnblock1,88.39999999850988,img/planet8_left.png,8,Community 3,NA,FALSE,j,f,NA,NA,NA,3,6,"11,1,6,2,15,4,14,12,5,7,8,13,10,3,9"
14689,commdev-image-keyboard-response,275,541721,learnblock1,980,img/planet3_left.png,3,Community 3,NA,FALSE,j,f,NA,NA,NA,3,6,"11,1,6,2,15,4,14,12,5,7,8,13,10,3,9"
14689,commdev-image-keyboard-response,276,542974,learnblock1,888.3999999985099,img/planet13_right.png,13,Community 3,NA,TRUE,j,j,NA,NA,NA,3,6,"11,1,6,2,15,4,14,12,5,7,8,13,10,3,9"
14689,commdev-image-keyboard-response,277,544227,learnblock1,898.5,img/planet12_left.png,12,Community 2,NA,TRUE,f,f,NA,NA,NA,3,6,"11,1,6,2,15,4,14,12,5,7,8,13,10,3,9"
14689,commdev-image-keyboard-response,278,545480,learnblock1,798.6999999955297,img/planet5_right.png,5,Community 2,NA,TRUE,j,j,NA,NA,NA,3,6,"11,1,6,2,15,4,14,12,5,7,8,13,10,3,9"
14689,commdev-image-keyboard-response,279,546733,learnblock1,831.5,img/planet14_right.png,14,Community 2,NA,TRUE,j,j,NA,NA,NA,3,6,"11,1,6,2,15,4,14,12,5,7,8,13,10,3,9"
14689,commdev-image-keyboard-response,280,547986,learnblock1,947.7000000029802,img/planet5_left.png,5,Community 2,NA,TRUE,f,f,NA,NA,NA,3,6,"11,1,6,2,15,4,14,12,5,7,8,13,10,3,9"
14689,commdev-image-keyboard-response,281,549239,learnblock1,843,img/planet14_left.png,14,Community 2,NA,TRUE,f,f,NA,NA,NA,3,6,"11,1,6,2,15,4,14,12,5,7,8,13,10,3,9"
14689,commdev-image-keyboard-response,282,550491,learnblock1,830.3000000044703,img/planet7_right.png,7,Community 2,NA,TRUE,j,j,NA,NA,NA,3,6,"11,1,6,2,15,4,14,12,5,7,8,13,10,3,9"
14689,commdev-image-keyboard-response,283,551744,learnblock1,1169,img/planet12_left.png,12,Community 2,NA,TRUE,f,f,NA,NA,NA,3,6,"11,1,6,2,15,4,14,12,5,7,8,13,10,3,9"
14689,commdev-image-keyboard-response,284,552996,learnblock1,958,img/planet14_right.png,14,Community 2,NA,TRUE,j,j,NA,NA,NA,3,6,"11,1,6,2,15,4,14,12,5,7,8,13,10,3,9"
14689,commdev-image-keyboard-response,285,554250,learnblock1,null,img/planet4_right.png,4,Community 2,NA,FALSE,null,j,NA,NA,NA,3,6,"11,1,6,2,15,4,14,12,5,7,8,13,10,3,9"
14689,commdev-image-keyboard-response,286,555502,learnblock1,61.600000001490116,img/planet7_left.png,7,Community 2,NA,FALSE,j,f,NA,NA,NA,3,6,"11,1,6,2,15,4,14,12,5,7,8,13,10,3,9"
14689,commdev-image-keyboard-response,287,556754,learnblock1,1012.5,img/planet5_right.png,5,Community 2,NA,TRUE,j,j,NA,NA,NA,3,6,"11,1,6,2,15,4,14,12,5,7,8,13,10,3,9"
14689,commdev-image-keyboard-response,288,558007,learnblock1,972.3999999985099,img/planet4_right.png,4,Community 2,NA,FALSE,f,j,NA,NA,NA,3,6,"11,1,6,2,15,4,14,12,5,7,8,13,10,3,9"
14689,commdev-image-keyboard-response,289,559260,learnblock1,855.2999999970198,img/planet5_left.png,5,Community 2,NA,FALSE,j,f,NA,NA,NA,3,6,"11,1,6,2,15,4,14,12,5,7,8,13,10,3,9"
14689,commdev-image-keyboard-response,290,560513,learnblock1,59.70000000298023,img/planet12_left.png,12,Community 2,NA,TRUE,f,f,NA,NA,NA,3,6,"11,1,6,2,15,4,14,12,5,7,8,13,10,3,9"
14689,commdev-image-keyboard-response,291,561766,learnblock1,863.3999999985099,img/planet14_left.png,14,Community 2,NA,TRUE,f,f,NA,NA,NA,3,6,"11,1,6,2,15,4,14,12,5,7,8,13,10,3,9"
14689,commdev-image-keyboard-response,292,563019,learnblock1,936.8000000044703,img/planet12_right.png,12,Community 2,NA,TRUE,j,j,NA,NA,NA,3,6,"11,1,6,2,15,4,14,12,5,7,8,13,10,3,9"
14689,commdev-image-keyboard-response,293,564271,learnblock1,767.0999999940395,img/planet14_right.png,14,Community 2,NA,TRUE,j,j,NA,NA,NA,3,6,"11,1,6,2,15,4,14,12,5,7,8,13,10,3,9"
14689,commdev-image-keyboard-response,294,565524,learnblock1,790.5,img/planet7_left.png,7,Community 2,NA,TRUE,f,f,NA,NA,NA,3,6,"11,1,6,2,15,4,14,12,5,7,8,13,10,3,9"
14689,commdev-image-keyboard-response,295,566777,learnblock1,890,img/planet5_right.png,5,Community 2,NA,TRUE,j,j,NA,NA,NA,3,6,"11,1,6,2,15,4,14,12,5,7,8,13,10,3,9"
14689,commdev-image-keyboard-response,296,568030,learnblock1,828.6000000014901,img/planet14_left.png,14,Community 2,NA,TRUE,f,f,NA,NA,NA,3,6,"11,1,6,2,15,4,14,12,5,7,8,13,10,3,9"
14689,commdev-image-keyboard-response,297,569281,learnblock1,935.6000000014901,img/planet4_right.png,4,Community 2,NA,TRUE,j,j,NA,NA,NA,3,6,"11,1,6,2,15,4,14,12,5,7,8,13,10,3,9"
14689,commdev-image-keyboard-response,298,570534,learnblock1,926.6000000014901,img/planet14_left.png,14,Community 2,NA,TRUE,f,f,NA,NA,NA,3,6,"11,1,6,2,15,4,14,12,5,7,8,13,10,3,9"
14689,commdev-image-keyboard-response,299,571787,learnblock1,759.5,img/planet12_right.png,12,Community 2,NA,TRUE,j,j,NA,NA,NA,3,6,"11,1,6,2,15,4,14,12,5,7,8,13,10,3,9"
14689,commdev-image-keyboard-response,300,573040,learnblock1,759.8000000044703,img/planet14_left.png,14,Community 2,NA,TRUE,f,f,NA,NA,NA,3,6,"11,1,6,2,15,4,14,12,5,7,8,13,10,3,9"
14689,commdev-image-keyboard-response,301,574292,learnblock1,1021.8999999985099,img/planet7_right.png,7,Community 2,NA,TRUE,j,j,NA,NA,NA,3,6,"11,1,6,2,15,4,14,12,5,7,8,13,10,3,9"
14689,commdev-image-keyboard-response,302,575545,learnblock1,1191.7000000029802,img/planet5_right.png,5,Community 2,NA,TRUE,j,j,NA,NA,NA,3,6,"11,1,6,2,15,4,14,12,5,7,8,13,10,3,9"
14689,commdev-image-keyboard-response,303,576798,learnblock1,839.6999999955297,img/planet12_left.png,12,Community 2,NA,TRUE,f,f,NA,NA,NA,3,6,"11,1,6,2,15,4,14,12,5,7,8,13,10,3,9"
14689,commdev-image-keyboard-response,304,578051,learnblock1,620.1000000014901,img/planet5_right.png,5,Community 2,NA,TRUE,j,j,NA,NA,NA,3,6,"11,1,6,2,15,4,14,12,5,7,8,13,10,3,9"
14689,commdev-image-keyboard-response,305,579303,learnblock1,645.1999999955297,img/planet7_left.png,7,Community 2,NA,FALSE,j,f,NA,NA,NA,3,6,"11,1,6,2,15,4,14,12,5,7,8,13,10,3,9"
14689,commdev-image-keyboard-response,306,580556,learnblock1,1028.7000000029802,img/planet5_left.png,5,Community 2,NA,TRUE,f,f,NA,NA,NA,3,6,"11,1,6,2,15,4,14,12,5,7,8,13,10,3,9"
14689,commdev-image-keyboard-response,307,581809,learnblock1,966,img/planet12_left.png,12,Community 2,NA,TRUE,f,f,NA,NA,NA,3,6,"11,1,6,2,15,4,14,12,5,7,8,13,10,3,9"
14689,commdev-image-keyboard-response,308,583062,learnblock1,831.3999999985099,img/planet7_left.png,7,Community 2,NA,TRUE,f,f,NA,NA,NA,3,6,"11,1,6,2,15,4,14,12,5,7,8,13,10,3,9"
14689,commdev-image-keyboard-response,309,584314,learnblock1,682,img/planet14_left.png,14,Community 2,NA,TRUE,f,f,NA,NA,NA,3,6,"11,1,6,2,15,4,14,12,5,7,8,13,10,3,9"
14689,commdev-image-keyboard-response,310,585566,learnblock1,949,img/planet4_right.png,4,Community 2,NA,TRUE,j,j,NA,NA,NA,3,6,"11,1,6,2,15,4,14,12,5,7,8,13,10,3,9"
14689,commdev-image-keyboard-response,311,586818,learnblock1,null,img/planet7_right.png,7,Community 2,NA,FALSE,null,j,NA,NA,NA,3,6,"11,1,6,2,15,4,14,12,5,7,8,13,10,3,9"
14689,commdev-image-keyboard-response,312,588072,learnblock1,395.5,img/planet14_left.png,14,Community 2,NA,TRUE,f,f,NA,NA,NA,3,6,"11,1,6,2,15,4,14,12,5,7,8,13,10,3,9"
14689,commdev-image-keyboard-response,313,589324,learnblock1,535.8999999985099,img/planet4_left.png,4,Community 2,NA,FALSE,j,f,NA,NA,NA,3,6,"11,1,6,2,15,4,14,12,5,7,8,13,10,3,9"
14689,commdev-image-keyboard-response,314,590578,learnblock1,602.3999999985099,img/planet2_left.png,2,Community 1,NA,TRUE,f,f,NA,NA,NA,3,6,"11,1,6,2,15,4,14,12,5,7,8,13,10,3,9"
14689,commdev-image-keyboard-response,315,591831,learnblock1,455.29999999701977,img/planet6_left.png,6,Community 1,NA,TRUE,f,f,NA,NA,NA,3,6,"11,1,6,2,15,4,14,12,5,7,8,13,10,3,9"
14689,commdev-image-keyboard-response,316,593083,learnblock1,1128.8999999985099,img/planet1_right.png,1,Community 1,NA,TRUE,j,j,NA,NA,NA,3,6,"11,1,6,2,15,4,14,12,5,7,8,13,10,3,9"
14689,commdev-image-keyboard-response,317,594336,learnblock1,1238.2999999970198,img/planet11_right.png,11,Community 1,NA,TRUE,j,j,NA,NA,NA,3,6,"11,1,6,2,15,4,14,12,5,7,8,13,10,3,9"
14689,commdev-image-keyboard-response,318,595588,learnblock1,null,img/planet1_right.png,1,Community 1,NA,FALSE,null,j,NA,NA,NA,3,6,"11,1,6,2,15,4,14,12,5,7,8,13,10,3,9"
14689,commdev-image-keyboard-response,319,596842,learnblock1,74.79999999701977,img/planet11_left.png,11,Community 1,NA,TRUE,f,f,NA,NA,NA,3,6,"11,1,6,2,15,4,14,12,5,7,8,13,10,3,9"
14689,commdev-image-keyboard-response,320,598094,learnblock1,565,img/planet1_left.png,1,Community 1,NA,FALSE,j,f,NA,NA,NA,3,6,"11,1,6,2,15,4,14,12,5,7,8,13,10,3,9"
14689,commdev-image-keyboard-response,321,599347,learnblock1,1173,img/planet6_right.png,6,Community 1,NA,FALSE,f,j,NA,NA,NA,3,6,"11,1,6,2,15,4,14,12,5,7,8,13,10,3,9"
14689,commdev-image-keyboard-response,322,600599,learnblock1,146.89999999850988,img/planet2_left.png,2,Community 1,NA,FALSE,j,f,NA,NA,NA,3,6,"11,1,6,2,15,4,14,12,5,7,8,13,10,3,9"
14689,commdev-image-keyboard-response,323,601852,learnblock1,728.3000000044703,img/planet4_right.png,4,Community 2,NA,TRUE,j,j,NA,NA,NA,3,6,"11,1,6,2,15,4,14,12,5,7,8,13,10,3,9"
14689,commdev-image-keyboard-response,324,603105,learnblock1,858.2999999970198,img/planet5_left.png,5,Community 2,NA,TRUE,f,f,NA,NA,NA,3,6,"11,1,6,2,15,4,14,12,5,7,8,13,10,3,9"
14689,commdev-image-keyboard-response,325,604357,learnblock1,919,img/planet14_left.png,14,Community 2,NA,TRUE,f,f,NA,NA,NA,3,6,"11,1,6,2,15,4,14,12,5,7,8,13,10,3,9"
14689,commdev-image-keyboard-response,326,605610,learnblock1,790.2999999970198,img/planet12_left.png,12,Community 2,NA,FALSE,j,f,NA,NA,NA,3,6,"11,1,6,2,15,4,14,12,5,7,8,13,10,3,9"
14689,commdev-image-keyboard-response,327,606863,learnblock1,535.5,img/planet14_left.png,14,Community 2,NA,TRUE,f,f,NA,NA,NA,3,6,"11,1,6,2,15,4,14,12,5,7,8,13,10,3,9"
14689,commdev-image-keyboard-response,328,608116,learnblock1,488.79999999701977,img/planet12_left.png,12,Community 2,NA,FALSE,j,f,NA,NA,NA,3,6,"11,1,6,2,15,4,14,12,5,7,8,13,10,3,9"
14689,commdev-image-keyboard-response,329,609368,learnblock1,395.80000000447035,img/planet7_right.png,7,Community 2,NA,FALSE,f,j,NA,NA,NA,3,6,"11,1,6,2,15,4,14,12,5,7,8,13,10,3,9"
14689,commdev-image-keyboard-response,330,610621,learnblock1,466.90000000596046,img/planet4_left.png,4,Community 2,NA,FALSE,j,f,NA,NA,NA,3,6,"11,1,6,2,15,4,14,12,5,7,8,13,10,3,9"
14689,commdev-image-keyboard-response,331,611873,learnblock1,538.5,img/planet2_right.png,2,Community 1,NA,TRUE,j,j,NA,NA,NA,3,6,"11,1,6,2,15,4,14,12,5,7,8,13,10,3,9"
14689,commdev-image-keyboard-response,332,613125,learnblock1,377.3999999985099,img/planet11_right.png,11,Community 1,NA,TRUE,j,j,NA,NA,NA,3,6,"11,1,6,2,15,4,14,12,5,7,8,13,10,3,9"
14689,commdev-image-keyboard-response,333,614378,learnblock1,507.3999999985099,img/planet1_right.png,1,Community 1,NA,TRUE,j,j,NA,NA,NA,3,6,"11,1,6,2,15,4,14,12,5,7,8,13,10,3,9"
14689,commdev-image-keyboard-response,334,615631,learnblock1,679,img/planet6_right.png,6,Community 1,NA,TRUE,j,j,NA,NA,NA,3,6,"11,1,6,2,15,4,14,12,5,7,8,13,10,3,9"
14689,commdev-image-keyboard-response,335,616885,learnblock1,528.6000000014901,img/planet1_left.png,1,Community 1,NA,FALSE,j,f,NA,NA,NA,3,6,"11,1,6,2,15,4,14,12,5,7,8,13,10,3,9"
14689,commdev-image-keyboard-response,336,618137,learnblock1,191.5,img/planet15_right.png,15,Community 1,NA,FALSE,f,j,NA,NA,NA,3,6,"11,1,6,2,15,4,14,12,5,7,8,13,10,3,9"
14689,commdev-image-keyboard-response,337,619390,learnblock1,763.6000000014901,img/planet1_left.png,1,Community 1,NA,TRUE,f,f,NA,NA,NA,3,6,"11,1,6,2,15,4,14,12,5,7,8,13,10,3,9"
14689,commdev-image-keyboard-response,338,620643,learnblock1,784.2999999970198,img/planet6_left.png,6,Community 1,NA,FALSE,j,f,NA,NA,NA,3,6,"11,1,6,2,15,4,14,12,5,7,8,13,10,3,9"
14689,commdev-image-keyboard-response,339,621896,learnblock1,933.8000000044703,img/planet2_right.png,2,Community 1,NA,TRUE,j,j,NA,NA,NA,3,6,"11,1,6,2,15,4,14,12,5,7,8,13,10,3,9"
14689,commdev-image-keyboard-response,340,623148,learnblock1,971,img/planet4_right.png,4,Community 2,NA,TRUE,j,j,NA,NA,NA,3,6,"11,1,6,2,15,4,14,12,5,7,8,13,10,3,9"
14689,commdev-image-keyboard-response,341,624400,learnblock1,1147.8999999985099,img/planet14_left.png,14,Community 2,NA,FALSE,j,f,NA,NA,NA,3,6,"11,1,6,2,15,4,14,12,5,7,8,13,10,3,9"
14689,commdev-image-keyboard-response,342,625653,learnblock1,null,img/planet12_right.png,12,Community 2,NA,FALSE,null,j,NA,NA,NA,3,6,"11,1,6,2,15,4,14,12,5,7,8,13,10,3,9"
14689,commdev-image-keyboard-response,343,626906,learnblock1,44.5,img/planet7_right.png,7,Community 2,NA,TRUE,j,j,NA,NA,NA,3,6,"11,1,6,2,15,4,14,12,5,7,8,13,10,3,9"
14689,commdev-image-keyboard-response,344,628159,learnblock1,612.3999999985099,img/planet12_left.png,12,Community 2,NA,FALSE,j,f,NA,NA,NA,3,6,"11,1,6,2,15,4,14,12,5,7,8,13,10,3,9"
14689,commdev-image-keyboard-response,345,629412,learnblock1,709.0999999940395,img/planet14_left.png,14,Community 2,NA,TRUE,f,f,NA,NA,NA,3,6,"11,1,6,2,15,4,14,12,5,7,8,13,10,3,9"
14689,commdev-image-keyboard-response,346,630665,learnblock1,817.1000000014901,img/planet4_right.png,4,Community 2,NA,TRUE,j,j,NA,NA,NA,3,6,"11,1,6,2,15,4,14,12,5,7,8,13,10,3,9"
14689,commdev-image-keyboard-response,347,631917,learnblock1,824.2000000029802,img/planet7_left.png,7,Community 2,NA,TRUE,f,f,NA,NA,NA,3,6,"11,1,6,2,15,4,14,12,5,7,8,13,10,3,9"
14689,commdev-image-keyboard-response,351,1138585,learnblock2,707.1000000014901,img/planet3_left.png,3,Community 3,NA,TRUE,f,f,NA,NA,NA,3,6,"11,1,6,2,15,4,14,12,5,7,8,13,10,3,9"
14689,commdev-image-keyboard-response,352,1139839,learnblock2,488.30000000447035,img/planet9_left.png,9,Community 3,NA,TRUE,f,f,NA,NA,NA,3,6,"11,1,6,2,15,4,14,12,5,7,8,13,10,3,9"
14689,commdev-image-keyboard-response,353,1141091,learnblock2,637.4000000059605,img/planet8_right.png,8,Community 3,NA,TRUE,j,j,NA,NA,NA,3,6,"11,1,6,2,15,4,14,12,5,7,8,13,10,3,9"
14689,commdev-image-keyboard-response,354,1142342,learnblock2,554.7999999970198,img/planet3_right.png,3,Community 3,NA,FALSE,f,j,NA,NA,NA,3,6,"11,1,6,2,15,4,14,12,5,7,8,13,10,3,9"
14689,commdev-image-keyboard-response,355,1143593,learnblock2,613.7000000029802,img/planet13_left.png,13,Community 3,NA,TRUE,f,f,NA,NA,NA,3,6,"11,1,6,2,15,4,14,12,5,7,8,13,10,3,9"
14689,commdev-image-keyboard-response,356,1144844,learnblock2,703.2000000029802,img/planet10_left.png,10,Community 3,NA,TRUE,f,f,NA,NA,NA,3,6,"11,1,6,2,15,4,14,12,5,7,8,13,10,3,9"
14689,commdev-image-keyboard-response,357,1146095,learnblock2,614.8999999985099,img/planet13_right.png,13,Community 3,NA,TRUE,j,j,NA,NA,NA,3,6,"11,1,6,2,15,4,14,12,5,7,8,13,10,3,9"
14689,commdev-image-keyboard-response,358,1147347,learnblock2,318.3999999985099,img/planet10_left.png,10,Community 3,NA,FALSE,j,f,NA,NA,NA,3,6,"11,1,6,2,15,4,14,12,5,7,8,13,10,3,9"
14689,commdev-image-keyboard-response,359,1148598,learnblock2,609.3999999985099,img/planet9_left.png,9,Community 3,NA,TRUE,f,f,NA,NA,NA,3,6,"11,1,6,2,15,4,14,12,5,7,8,13,10,3,9"
14689,commdev-image-keyboard-response,360,1149849,learnblock2,574.7000000029802,img/planet13_left.png,13,Community 3,NA,TRUE,f,f,NA,NA,NA,3,6,"11,1,6,2,15,4,14,12,5,7,8,13,10,3,9"
14689,commdev-image-keyboard-response,361,1151101,learnblock2,486.5,img/planet10_left.png,10,Community 3,NA,TRUE,f,f,NA,NA,NA,3,6,"11,1,6,2,15,4,14,12,5,7,8,13,10,3,9"
14689,commdev-image-keyboard-response,362,1152353,learnblock2,597.7000000029802,img/planet9_right.png,9,Community 3,NA,TRUE,j,j,NA,NA,NA,3,6,"11,1,6,2,15,4,14,12,5,7,8,13,10,3,9"
14689,commdev-image-keyboard-response,363,1153605,learnblock2,682.4000000059605,img/planet3_left.png,3,Community 3,NA,TRUE,f,f,NA,NA,NA,3,6,"11,1,6,2,15,4,14,12,5,7,8,13,10,3,9"
14689,commdev-image-keyboard-response,364,1154857,learnblock2,552.5999999940395,img/planet9_right.png,9,Community 3,NA,TRUE,j,j,NA,NA,NA,3,6,"11,1,6,2,15,4,14,12,5,7,8,13,10,3,9"
14689,commdev-image-keyboard-response,365,1156109,learnblock2,559.5,img/planet13_right.png,13,Community 3,NA,FALSE,f,j,NA,NA,NA,3,6,"11,1,6,2,15,4,14,12,5,7,8,13,10,3,9"
14689,commdev-image-keyboard-response,366,1157361,learnblock2,671.3999999985099,img/planet12_left.png,12,Community 2,NA,TRUE,f,f,NA,NA,NA,3,6,"11,1,6,2,15,4,14,12,5,7,8,13,10,3,9"
14689,commdev-image-keyboard-response,367,1158614,learnblock2,576.4000000059605,img/planet5_right.png,5,Community 2,NA,TRUE,j,j,NA,NA,NA,3,6,"11,1,6,2,15,4,14,12,5,7,8,13,10,3,9"
14689,commdev-image-keyboard-response,368,1159867,learnblock2,546.5,img/planet7_right.png,7,Community 2,NA,TRUE,j,j,NA,NA,NA,3,6,"11,1,6,2,15,4,14,12,5,7,8,13,10,3,9"
14689,commdev-image-keyboard-response,369,1161119,learnblock2,662.7000000029802,img/planet14_left.png,14,Community 2,NA,TRUE,f,f,NA,NA,NA,3,6,"11,1,6,2,15,4,14,12,5,7,8,13,10,3,9"
14689,commdev-image-keyboard-response,370,1162372,learnblock2,414.5,img/planet5_left.png,5,Community 2,NA,FALSE,j,f,NA,NA,NA,3,6,"11,1,6,2,15,4,14,12,5,7,8,13,10,3,9"
14689,commdev-image-keyboard-response,371,1163624,learnblock2,595.7999999970198,img/planet14_right.png,14,Community 2,NA,TRUE,j,j,NA,NA,NA,3,6,"11,1,6,2,15,4,14,12,5,7,8,13,10,3,9"
14689,commdev-image-keyboard-response,372,1164876,learnblock2,616.7000000029802,img/planet5_right.png,5,Community 2,NA,TRUE,j,j,NA,NA,NA,3,6,"11,1,6,2,15,4,14,12,5,7,8,13,10,3,9"
14689,commdev-image-keyboard-response,373,1166129,learnblock2,726.3999999985099,img/planet4_right.png,4,Community 2,NA,TRUE,j,j,NA,NA,NA,3,6,"11,1,6,2,15,4,14,12,5,7,8,13,10,3,9"
14689,commdev-image-keyboard-response,374,1167382,learnblock2,609.6000000014901,img/planet7_right.png,7,Community 2,NA,TRUE,j,j,NA,NA,NA,3,6,"11,1,6,2,15,4,14,12,5,7,8,13,10,3,9"
14689,commdev-image-keyboard-response,375,1168634,learnblock2,596.3999999985099,img/planet5_right.png,5,Community 2,NA,TRUE,j,j,NA,NA,NA,3,6,"11,1,6,2,15,4,14,12,5,7,8,13,10,3,9"
14689,commdev-image-keyboard-response,376,1169885,learnblock2,760,img/planet4_right.png,4,Community 2,NA,TRUE,j,j,NA,NA,NA,3,6,"11,1,6,2,15,4,14,12,5,7,8,13,10,3,9"
14689,commdev-image-keyboard-response,377,1171137,learnblock2,800.3000000044703,img/planet14_right.png,14,Community 2,NA,TRUE,j,j,NA,NA,NA,3,6,"11,1,6,2,15,4,14,12,5,7,8,13,10,3,9"
14689,commdev-image-keyboard-response,378,1172390,learnblock2,572.3999999985099,img/planet4_left.png,4,Community 2,NA,TRUE,f,f,NA,NA,NA,3,6,"11,1,6,2,15,4,14,12,5,7,8,13,10,3,9"
14689,commdev-image-keyboard-response,379,1173644,learnblock2,508.40000000596046,img/planet2_right.png,2,Community 1,NA,TRUE,j,j,NA,NA,NA,3,6,"11,1,6,2,15,4,14,12,5,7,8,13,10,3,9"
14689,commdev-image-keyboard-response,380,1174897,learnblock2,704.7999999970198,img/planet1_right.png,1,Community 1,NA,TRUE,j,j,NA,NA,NA,3,6,"11,1,6,2,15,4,14,12,5,7,8,13,10,3,9"
14689,commdev-image-keyboard-response,381,1176150,learnblock2,795.7000000029802,img/planet15_left.png,15,Community 1,NA,TRUE,f,f,NA,NA,NA,3,6,"11,1,6,2,15,4,14,12,5,7,8,13,10,3,9"
14689,commdev-image-keyboard-response,382,1177403,learnblock2,706.3999999985099,img/planet6_left.png,6,Community 1,NA,TRUE,f,f,NA,NA,NA,3,6,"11,1,6,2,15,4,14,12,5,7,8,13,10,3,9"
14689,commdev-image-keyboard-response,383,1178656,learnblock2,605.7999999970198,img/planet2_left.png,2,Community 1,NA,TRUE,f,f,NA,NA,NA,3,6,"11,1,6,2,15,4,14,12,5,7,8,13,10,3,9"
14689,commdev-image-keyboard-response,384,1179908,learnblock2,665.6000000014901,img/planet4_left.png,4,Community 2,NA,TRUE,f,f,NA,NA,NA,3,6,"11,1,6,2,15,4,14,12,5,7,8,13,10,3,9"
14689,commdev-image-keyboard-response,385,1181161,learnblock2,637.1999999955297,img/planet2_right.png,2,Community 1,NA,TRUE,j,j,NA,NA,NA,3,6,"11,1,6,2,15,4,14,12,5,7,8,13,10,3,9"
14689,commdev-image-keyboard-response,386,1182413,learnblock2,672.1000000014901,img/planet6_right.png,6,Community 1,NA,TRUE,j,j,NA,NA,NA,3,6,"11,1,6,2,15,4,14,12,5,7,8,13,10,3,9"
14689,commdev-image-keyboard-response,387,1183666,learnblock2,632.0999999940395,img/planet1_right.png,1,Community 1,NA,FALSE,f,j,NA,NA,NA,3,6,"11,1,6,2,15,4,14,12,5,7,8,13,10,3,9"
14689,commdev-image-keyboard-response,388,1184918,learnblock2,820.0999999940395,img/planet11_right.png,11,Community 1,NA,TRUE,j,j,NA,NA,NA,3,6,"11,1,6,2,15,4,14,12,5,7,8,13,10,3,9"
14689,commdev-image-keyboard-response,389,1186171,learnblock2,624.2000000029802,img/planet2_left.png,2,Community 1,NA,TRUE,f,f,NA,NA,NA,3,6,"11,1,6,2,15,4,14,12,5,7,8,13,10,3,9"
14689,commdev-image-keyboard-response,390,1187423,learnblock2,889.3999999985099,img/planet1_left.png,1,Community 1,NA,TRUE,f,f,NA,NA,NA,3,6,"11,1,6,2,15,4,14,12,5,7,8,13,10,3,9"
14689,commdev-image-keyboard-response,391,1188675,learnblock2,645.5,img/planet15_right.png,15,Community 1,NA,TRUE,j,j,NA,NA,NA,3,6,"11,1,6,2,15,4,14,12,5,7,8,13,10,3,9"
14689,commdev-image-keyboard-response,392,1189928,learnblock2,678.5,img/planet1_right.png,1,Community 1,NA,TRUE,j,j,NA,NA,NA,3,6,"11,1,6,2,15,4,14,12,5,7,8,13,10,3,9"
14689,commdev-image-keyboard-response,393,1191180,learnblock2,685.3999999985099,img/planet15_left.png,15,Community 1,NA,TRUE,f,f,NA,NA,NA,3,6,"11,1,6,2,15,4,14,12,5,7,8,13,10,3,9"
14689,commdev-image-keyboard-response,394,1192434,learnblock2,536.2000000029802,img/planet6_right.png,6,Community 1,NA,TRUE,j,j,NA,NA,NA,3,6,"11,1,6,2,15,4,14,12,5,7,8,13,10,3,9"
14689,commdev-image-keyboard-response,395,1193687,learnblock2,506.59999999403954,img/planet2_left.png,2,Community 1,NA,TRUE,f,f,NA,NA,NA,3,6,"11,1,6,2,15,4,14,12,5,7,8,13,10,3,9"
14689,commdev-image-keyboard-response,396,1194940,learnblock2,535.5,img/planet11_right.png,11,Community 1,NA,TRUE,j,j,NA,NA,NA,3,6,"11,1,6,2,15,4,14,12,5,7,8,13,10,3,9"
14689,commdev-image-keyboard-response,397,1196193,learnblock2,351.70000000298023,img/planet1_right.png,1,Community 1,NA,FALSE,f,j,NA,NA,NA,3,6,"11,1,6,2,15,4,14,12,5,7,8,13,10,3,9"
14689,commdev-image-keyboard-response,398,1197446,learnblock2,596,img/planet6_left.png,6,Community 1,NA,TRUE,f,f,NA,NA,NA,3,6,"11,1,6,2,15,4,14,12,5,7,8,13,10,3,9"
14689,commdev-image-keyboard-response,399,1198699,learnblock2,639.5,img/planet11_right.png,11,Community 1,NA,TRUE,j,j,NA,NA,NA,3,6,"11,1,6,2,15,4,14,12,5,7,8,13,10,3,9"
14689,commdev-image-keyboard-response,400,1199951,learnblock2,495.3999999985099,img/planet2_left.png,2,Community 1,NA,TRUE,f,f,NA,NA,NA,3,6,"11,1,6,2,15,4,14,12,5,7,8,13,10,3,9"
14689,commdev-image-keyboard-response,401,1201204,learnblock2,625.2999999970198,img/planet6_left.png,6,Community 1,NA,TRUE,f,f,NA,NA,NA,3,6,"11,1,6,2,15,4,14,12,5,7,8,13,10,3,9"
14689,commdev-image-keyboard-response,402,1202456,learnblock2,640.8999999985099,img/planet15_right.png,15,Community 1,NA,TRUE,j,j,NA,NA,NA,3,6,"11,1,6,2,15,4,14,12,5,7,8,13,10,3,9"
14689,commdev-image-keyboard-response,403,1203709,learnblock2,716.2999999970198,img/planet1_right.png,1,Community 1,NA,TRUE,j,j,NA,NA,NA,3,6,"11,1,6,2,15,4,14,12,5,7,8,13,10,3,9"
14689,commdev-image-keyboard-response,404,1204961,learnblock2,727.8999999985099,img/planet2_left.png,2,Community 1,NA,TRUE,f,f,NA,NA,NA,3,6,"11,1,6,2,15,4,14,12,5,7,8,13,10,3,9"
14689,commdev-image-keyboard-response,405,1206214,learnblock2,608.6000000014901,img/planet6_right.png,6,Community 1,NA,TRUE,j,j,NA,NA,NA,3,6,"11,1,6,2,15,4,14,12,5,7,8,13,10,3,9"
14689,commdev-image-keyboard-response,406,1207467,learnblock2,735.7999999970198,img/planet1_right.png,1,Community 1,NA,TRUE,j,j,NA,NA,NA,3,6,"11,1,6,2,15,4,14,12,5,7,8,13,10,3,9"
14689,commdev-image-keyboard-response,407,1208720,learnblock2,976,img/planet11_right.png,11,Community 1,NA,TRUE,j,j,NA,NA,NA,3,6,"11,1,6,2,15,4,14,12,5,7,8,13,10,3,9"
14689,commdev-image-keyboard-response,408,1209974,learnblock2,761.7000000029802,img/planet1_left.png,1,Community 1,NA,TRUE,f,f,NA,NA,NA,3,6,"11,1,6,2,15,4,14,12,5,7,8,13,10,3,9"
14689,commdev-image-keyboard-response,409,1211226,learnblock2,621.6000000014901,img/planet11_left.png,11,Community 1,NA,TRUE,f,f,NA,NA,NA,3,6,"11,1,6,2,15,4,14,12,5,7,8,13,10,3,9"
14689,commdev-image-keyboard-response,410,1212479,learnblock2,506.69999999552965,img/planet15_left.png,15,Community 1,NA,TRUE,f,f,NA,NA,NA,3,6,"11,1,6,2,15,4,14,12,5,7,8,13,10,3,9"
14689,commdev-image-keyboard-response,411,1213732,learnblock2,737.8000000044703,img/planet1_right.png,1,Community 1,NA,TRUE,j,j,NA,NA,NA,3,6,"11,1,6,2,15,4,14,12,5,7,8,13,10,3,9"
14689,commdev-image-keyboard-response,412,1214985,learnblock2,722.8999999985099,img/planet11_left.png,11,Community 1,NA,TRUE,f,f,NA,NA,NA,3,6,"11,1,6,2,15,4,14,12,5,7,8,13,10,3,9"
14689,commdev-image-keyboard-response,413,1216238,learnblock2,665.9000000059605,img/planet2_left.png,2,Community 1,NA,TRUE,f,f,NA,NA,NA,3,6,"11,1,6,2,15,4,14,12,5,7,8,13,10,3,9"
14689,commdev-image-keyboard-response,414,1217490,learnblock2,696.5,img/planet1_left.png,1,Community 1,NA,TRUE,f,f,NA,NA,NA,3,6,"11,1,6,2,15,4,14,12,5,7,8,13,10,3,9"
14689,commdev-image-keyboard-response,415,1218743,learnblock2,591.1999999955297,img/planet15_left.png,15,Community 1,NA,TRUE,f,f,NA,NA,NA,3,6,"11,1,6,2,15,4,14,12,5,7,8,13,10,3,9"
14689,commdev-image-keyboard-response,416,1219996,learnblock2,626.1000000014901,img/planet1_right.png,1,Community 1,NA,TRUE,j,j,NA,NA,NA,3,6,"11,1,6,2,15,4,14,12,5,7,8,13,10,3,9"
14689,commdev-image-keyboard-response,417,1221248,learnblock2,589.3999999985099,img/planet11_right.png,11,Community 1,NA,TRUE,j,j,NA,NA,NA,3,6,"11,1,6,2,15,4,14,12,5,7,8,13,10,3,9"
14689,commdev-image-keyboard-response,418,1222500,learnblock2,652.3999999985099,img/planet1_left.png,1,Community 1,NA,TRUE,f,f,NA,NA,NA,3,6,"11,1,6,2,15,4,14,12,5,7,8,13,10,3,9"
14689,commdev-image-keyboard-response,419,1223753,learnblock2,651.1000000014901,img/planet15_right.png,15,Community 1,NA,TRUE,j,j,NA,NA,NA,3,6,"11,1,6,2,15,4,14,12,5,7,8,13,10,3,9"
14689,commdev-image-keyboard-response,420,1225005,learnblock2,682.1999999955297,img/planet11_right.png,11,Community 1,NA,TRUE,j,j,NA,NA,NA,3,6,"11,1,6,2,15,4,14,12,5,7,8,13,10,3,9"
14689,commdev-image-keyboard-response,421,1226258,learnblock2,572.8999999985099,img/planet2_left.png,2,Community 1,NA,TRUE,f,f,NA,NA,NA,3,6,"11,1,6,2,15,4,14,12,5,7,8,13,10,3,9"
14689,commdev-image-keyboard-response,422,1227511,learnblock2,500.30000000447035,img/planet6_right.png,6,Community 1,NA,TRUE,j,j,NA,NA,NA,3,6,"11,1,6,2,15,4,14,12,5,7,8,13,10,3,9"
14689,commdev-image-keyboard-response,423,1228765,learnblock2,363,img/planet1_left.png,1,Community 1,NA,TRUE,f,f,NA,NA,NA,3,6,"11,1,6,2,15,4,14,12,5,7,8,13,10,3,9"
14689,commdev-image-keyboard-response,424,1230018,learnblock2,467.19999999552965,img/planet6_left.png,6,Community 1,NA,FALSE,j,f,NA,NA,NA,3,6,"11,1,6,2,15,4,14,12,5,7,8,13,10,3,9"
14689,commdev-image-keyboard-response,425,1231271,learnblock2,518.3999999985099,img/planet11_right.png,11,Community 1,NA,TRUE,j,j,NA,NA,NA,3,6,"11,1,6,2,15,4,14,12,5,7,8,13,10,3,9"
14689,commdev-image-keyboard-response,426,1232523,learnblock2,598,img/planet1_right.png,1,Community 1,NA,TRUE,j,j,NA,NA,NA,3,6,"11,1,6,2,15,4,14,12,5,7,8,13,10,3,9"
14689,commdev-image-keyboard-response,427,1233776,learnblock2,624.8000000044703,img/planet15_left.png,15,Community 1,NA,TRUE,f,f,NA,NA,NA,3,6,"11,1,6,2,15,4,14,12,5,7,8,13,10,3,9"
14689,commdev-image-keyboard-response,428,1235030,learnblock2,703.5,img/planet8_left.png,8,Community 3,NA,FALSE,j,f,NA,NA,NA,3,6,"11,1,6,2,15,4,14,12,5,7,8,13,10,3,9"
14689,commdev-image-keyboard-response,429,1236283,learnblock2,711.1000000014901,img/planet3_right.png,3,Community 3,NA,TRUE,j,j,NA,NA,NA,3,6,"11,1,6,2,15,4,14,12,5,7,8,13,10,3,9"
14689,commdev-image-keyboard-response,430,1237536,learnblock2,622.6000000014901,img/planet10_right.png,10,Community 3,NA,TRUE,j,j,NA,NA,NA,3,6,"11,1,6,2,15,4,14,12,5,7,8,13,10,3,9"
14689,commdev-image-keyboard-response,431,1238788,learnblock2,751.7999999970198,img/planet3_left.png,3,Community 3,NA,TRUE,f,f,NA,NA,NA,3,6,"11,1,6,2,15,4,14,12,5,7,8,13,10,3,9"
14689,commdev-image-keyboard-response,432,1240041,learnblock2,614.5999999940395,img/planet9_left.png,9,Community 3,NA,TRUE,f,f,NA,NA,NA,3,6,"11,1,6,2,15,4,14,12,5,7,8,13,10,3,9"
14689,commdev-image-keyboard-response,433,1241294,learnblock2,602.8999999985099,img/planet10_left.png,10,Community 3,NA,TRUE,f,f,NA,NA,NA,3,6,"11,1,6,2,15,4,14,12,5,7,8,13,10,3,9"
14689,commdev-image-keyboard-response,434,1242546,learnblock2,740.5,img/planet8_right.png,8,Community 3,NA,TRUE,j,j,NA,NA,NA,3,6,"11,1,6,2,15,4,14,12,5,7,8,13,10,3,9"
14689,commdev-image-keyboard-response,435,1243800,learnblock2,619.8000000044703,img/planet9_left.png,9,Community 3,NA,TRUE,f,f,NA,NA,NA,3,6,"11,1,6,2,15,4,14,12,5,7,8,13,10,3,9"
14689,commdev-image-keyboard-response,436,1245053,learnblock2,593,img/planet3_left.png,3,Community 3,NA,FALSE,j,f,NA,NA,NA,3,6,"11,1,6,2,15,4,14,12,5,7,8,13,10,3,9"
14689,commdev-image-keyboard-response,437,1246305,learnblock2,901.8999999985099,img/planet13_right.png,13,Community 3,NA,TRUE,j,j,NA,NA,NA,3,6,"11,1,6,2,15,4,14,12,5,7,8,13,10,3,9"
14689,commdev-image-keyboard-response,438,1247557,learnblock2,725.1000000014901,img/planet9_left.png,9,Community 3,NA,TRUE,f,f,NA,NA,NA,3,6,"11,1,6,2,15,4,14,12,5,7,8,13,10,3,9"
14689,commdev-image-keyboard-response,439,1248811,learnblock2,624.8000000044703,img/planet13_left.png,13,Community 3,NA,TRUE,f,f,NA,NA,NA,3,6,"11,1,6,2,15,4,14,12,5,7,8,13,10,3,9"
14689,commdev-image-keyboard-response,440,1250064,learnblock2,621,img/planet9_left.png,9,Community 3,NA,TRUE,f,f,NA,NA,NA,3,6,"11,1,6,2,15,4,14,12,5,7,8,13,10,3,9"
14689,commdev-image-keyboard-response,441,1251317,learnblock2,631.5,img/planet10_left.png,10,Community 3,NA,TRUE,f,f,NA,NA,NA,3,6,"11,1,6,2,15,4,14,12,5,7,8,13,10,3,9"
14689,commdev-image-keyboard-response,442,1252570,learnblock2,584.6000000014901,img/planet8_right.png,8,Community 3,NA,TRUE,j,j,NA,NA,NA,3,6,"11,1,6,2,15,4,14,12,5,7,8,13,10,3,9"
14689,commdev-image-keyboard-response,443,1253822,learnblock2,606.1000000014901,img/planet15_right.png,15,Community 1,NA,FALSE,f,j,NA,NA,NA,3,6,"11,1,6,2,15,4,14,12,5,7,8,13,10,3,9"
14689,commdev-image-keyboard-response,444,1255076,learnblock2,913.8999999985099,img/planet8_right.png,8,Community 3,NA,TRUE,j,j,NA,NA,NA,3,6,"11,1,6,2,15,4,14,12,5,7,8,13,10,3,9"
14689,commdev-image-keyboard-response,445,1256329,learnblock2,586.5,img/planet10_left.png,10,Community 3,NA,TRUE,f,f,NA,NA,NA,3,6,"11,1,6,2,15,4,14,12,5,7,8,13,10,3,9"
14689,commdev-image-keyboard-response,446,1257582,learnblock2,333.30000000447035,img/planet9_right.png,9,Community 3,NA,TRUE,j,j,NA,NA,NA,3,6,"11,1,6,2,15,4,14,12,5,7,8,13,10,3,9"
14689,commdev-image-keyboard-response,447,1258835,learnblock2,306.5,img/planet13_left.png,13,Community 3,NA,TRUE,f,f,NA,NA,NA,3,6,"11,1,6,2,15,4,14,12,5,7,8,13,10,3,9"
14689,commdev-image-keyboard-response,448,1260088,learnblock2,311.5,img/planet3_left.png,3,Community 3,NA,FALSE,j,f,NA,NA,NA,3,6,"11,1,6,2,15,4,14,12,5,7,8,13,10,3,9"
14689,commdev-image-keyboard-response,449,1261341,learnblock2,592,img/planet9_right.png,9,Community 3,NA,TRUE,j,j,NA,NA,NA,3,6,"11,1,6,2,15,4,14,12,5,7,8,13,10,3,9"
14689,commdev-image-keyboard-response,450,1262595,learnblock2,604.2999999970198,img/planet8_right.png,8,Community 3,NA,TRUE,j,j,NA,NA,NA,3,6,"11,1,6,2,15,4,14,12,5,7,8,13,10,3,9"
14689,commdev-image-keyboard-response,451,1263847,learnblock2,543.6000000014901,img/planet10_left.png,10,Community 3,NA,TRUE,f,f,NA,NA,NA,3,6,"11,1,6,2,15,4,14,12,5,7,8,13,10,3,9"
14689,commdev-image-keyboard-response,452,1265100,learnblock2,793.2999999970198,img/planet8_right.png,8,Community 3,NA,TRUE,j,j,NA,NA,NA,3,6,"11,1,6,2,15,4,14,12,5,7,8,13,10,3,9"
14689,commdev-image-keyboard-response,453,1266353,learnblock2,477.69999999552965,img/planet10_right.png,10,Community 3,NA,FALSE,f,j,NA,NA,NA,3,6,"11,1,6,2,15,4,14,12,5,7,8,13,10,3,9"
14689,commdev-image-keyboard-response,454,1267606,learnblock2,659.5999999940395,img/planet8_left.png,8,Community 3,NA,TRUE,f,f,NA,NA,NA,3,6,"11,1,6,2,15,4,14,12,5,7,8,13,10,3,9"
14689,commdev-image-keyboard-response,455,1268858,learnblock2,679.8000000044703,img/planet3_left.png,3,Community 3,NA,TRUE,f,f,NA,NA,NA,3,6,"11,1,6,2,15,4,14,12,5,7,8,13,10,3,9"
14689,commdev-image-keyboard-response,456,1270110,learnblock2,527.6999999955297,img/planet10_left.png,10,Community 3,NA,FALSE,j,f,NA,NA,NA,3,6,"11,1,6,2,15,4,14,12,5,7,8,13,10,3,9"
14689,commdev-image-keyboard-response,457,1271362,learnblock2,null,img/planet9_left.png,9,Community 3,NA,FALSE,null,f,NA,NA,NA,3,6,"11,1,6,2,15,4,14,12,5,7,8,13,10,3,9"
14689,commdev-image-keyboard-response,458,1272614,learnblock2,698.1000000014901,img/planet10_right.png,10,Community 3,NA,TRUE,j,j,NA,NA,NA,3,6,"11,1,6,2,15,4,14,12,5,7,8,13,10,3,9"
14689,commdev-image-keyboard-response,459,1273867,learnblock2,617.3000000044703,img/planet13_right.png,13,Community 3,NA,TRUE,j,j,NA,NA,NA,3,6,"11,1,6,2,15,4,14,12,5,7,8,13,10,3,9"
14689,commdev-image-keyboard-response,460,1275120,learnblock2,397,img/planet10_right.png,10,Community 3,NA,TRUE,j,j,NA,NA,NA,3,6,"11,1,6,2,15,4,14,12,5,7,8,13,10,3,9"
14689,commdev-image-keyboard-response,461,1276374,learnblock2,310.79999999701977,img/planet3_right.png,3,Community 3,NA,TRUE,j,j,NA,NA,NA,3,6,"11,1,6,2,15,4,14,12,5,7,8,13,10,3,9"
14689,commdev-image-keyboard-response,462,1277627,learnblock2,568.2999999970198,img/planet13_right.png,13,Community 3,NA,TRUE,j,j,NA,NA,NA,3,6,"11,1,6,2,15,4,14,12,5,7,8,13,10,3,9"
14689,commdev-image-keyboard-response,463,1278880,learnblock2,603.8999999985099,img/planet10_left.png,10,Community 3,NA,TRUE,f,f,NA,NA,NA,3,6,"11,1,6,2,15,4,14,12,5,7,8,13,10,3,9"
14689,commdev-image-keyboard-response,464,1280132,learnblock2,463.29999999701977,img/planet8_right.png,8,Community 3,NA,TRUE,j,j,NA,NA,NA,3,6,"11,1,6,2,15,4,14,12,5,7,8,13,10,3,9"
14689,commdev-image-keyboard-response,465,1281386,learnblock2,497.70000000298023,img/planet9_left.png,9,Community 3,NA,TRUE,f,f,NA,NA,NA,3,6,"11,1,6,2,15,4,14,12,5,7,8,13,10,3,9"
14689,commdev-image-keyboard-response,466,1282638,learnblock2,470.30000000447035,img/planet10_left.png,10,Community 3,NA,FALSE,j,f,NA,NA,NA,3,6,"11,1,6,2,15,4,14,12,5,7,8,13,10,3,9"
14689,commdev-image-keyboard-response,467,1283891,learnblock2,623,img/planet13_right.png,13,Community 3,NA,TRUE,j,j,NA,NA,NA,3,6,"11,1,6,2,15,4,14,12,5,7,8,13,10,3,9"
14689,commdev-image-keyboard-response,468,1285144,learnblock2,506.90000000596046,img/planet10_left.png,10,Community 3,NA,TRUE,f,f,NA,NA,NA,3,6,"11,1,6,2,15,4,14,12,5,7,8,13,10,3,9"
14689,commdev-image-keyboard-response,469,1286397,learnblock2,421.8999999985099,img/planet8_left.png,8,Community 3,NA,FALSE,j,f,NA,NA,NA,3,6,"11,1,6,2,15,4,14,12,5,7,8,13,10,3,9"
14689,commdev-image-keyboard-response,470,1287650,learnblock2,586.6000000014901,img/planet9_right.png,9,Community 3,NA,TRUE,j,j,NA,NA,NA,3,6,"11,1,6,2,15,4,14,12,5,7,8,13,10,3,9"
14689,commdev-image-keyboard-response,471,1288903,learnblock2,701.2999999970198,img/planet8_right.png,8,Community 3,NA,TRUE,j,j,NA,NA,NA,3,6,"11,1,6,2,15,4,14,12,5,7,8,13,10,3,9"
14689,commdev-image-keyboard-response,472,1290157,learnblock2,689.0999999940395,img/planet10_right.png,10,Community 3,NA,TRUE,j,j,NA,NA,NA,3,6,"11,1,6,2,15,4,14,12,5,7,8,13,10,3,9"
14689,commdev-image-keyboard-response,473,1291410,learnblock2,724.5999999940395,img/planet3_left.png,3,Community 3,NA,TRUE,f,f,NA,NA,NA,3,6,"11,1,6,2,15,4,14,12,5,7,8,13,10,3,9"
14689,commdev-image-keyboard-response,474,1292664,learnblock2,615.7999999970198,img/planet8_right.png,8,Community 3,NA,TRUE,j,j,NA,NA,NA,3,6,"11,1,6,2,15,4,14,12,5,7,8,13,10,3,9"
14689,commdev-image-keyboard-response,475,1293917,learnblock2,514.2000000029802,img/planet9_left.png,9,Community 3,NA,TRUE,f,f,NA,NA,NA,3,6,"11,1,6,2,15,4,14,12,5,7,8,13,10,3,9"
14689,commdev-image-keyboard-response,476,1295170,learnblock2,523.5,img/planet10_right.png,10,Community 3,NA,TRUE,j,j,NA,NA,NA,3,6,"11,1,6,2,15,4,14,12,5,7,8,13,10,3,9"
14689,commdev-image-keyboard-response,477,1296423,learnblock2,529,img/planet8_right.png,8,Community 3,NA,FALSE,f,j,NA,NA,NA,3,6,"11,1,6,2,15,4,14,12,5,7,8,13,10,3,9"
14689,commdev-image-keyboard-response,478,1297676,learnblock2,800.1999999955297,img/planet3_right.png,3,Community 3,NA,TRUE,j,j,NA,NA,NA,3,6,"11,1,6,2,15,4,14,12,5,7,8,13,10,3,9"
14689,commdev-image-keyboard-response,479,1298929,learnblock2,658.8000000044703,img/planet8_right.png,8,Community 3,NA,TRUE,j,j,NA,NA,NA,3,6,"11,1,6,2,15,4,14,12,5,7,8,13,10,3,9"
14689,commdev-image-keyboard-response,480,1300181,learnblock2,659.3999999985099,img/planet10_left.png,10,Community 3,NA,TRUE,f,f,NA,NA,NA,3,6,"11,1,6,2,15,4,14,12,5,7,8,13,10,3,9"
14689,commdev-image-keyboard-response,481,1301434,learnblock2,519.1000000014901,img/planet9_left.png,9,Community 3,NA,FALSE,j,f,NA,NA,NA,3,6,"11,1,6,2,15,4,14,12,5,7,8,13,10,3,9"
14689,commdev-image-keyboard-response,482,1302687,learnblock2,730.1999999955297,img/planet8_right.png,8,Community 3,NA,TRUE,j,j,NA,NA,NA,3,6,"11,1,6,2,15,4,14,12,5,7,8,13,10,3,9"
14689,commdev-image-keyboard-response,483,1303941,learnblock2,846.8000000044703,img/planet15_right.png,15,Community 1,NA,TRUE,j,j,NA,NA,NA,3,6,"11,1,6,2,15,4,14,12,5,7,8,13,10,3,9"
14689,commdev-image-keyboard-response,484,1305193,learnblock2,876.3000000044703,img/planet6_left.png,6,Community 1,NA,TRUE,f,f,NA,NA,NA,3,6,"11,1,6,2,15,4,14,12,5,7,8,13,10,3,9"
14689,commdev-image-keyboard-response,485,1306446,learnblock2,874.7000000029802,img/planet15_left.png,15,Community 1,NA,TRUE,f,f,NA,NA,NA,3,6,"11,1,6,2,15,4,14,12,5,7,8,13,10,3,9"
14689,commdev-image-keyboard-response,486,1307699,learnblock2,644.7999999970198,img/planet6_left.png,6,Community 1,NA,TRUE,f,f,NA,NA,NA,3,6,"11,1,6,2,15,4,14,12,5,7,8,13,10,3,9"
14689,commdev-image-keyboard-response,487,1308952,learnblock2,606.5999999940395,img/planet2_left.png,2,Community 1,NA,TRUE,f,f,NA,NA,NA,3,6,"11,1,6,2,15,4,14,12,5,7,8,13,10,3,9"
14689,commdev-image-keyboard-response,488,1310205,learnblock2,619.5,img/planet4_right.png,4,Community 2,NA,TRUE,j,j,NA,NA,NA,3,6,"11,1,6,2,15,4,14,12,5,7,8,13,10,3,9"
14689,commdev-image-keyboard-response,489,1311457,learnblock2,596.8999999985099,img/planet5_right.png,5,Community 2,NA,TRUE,j,j,NA,NA,NA,3,6,"11,1,6,2,15,4,14,12,5,7,8,13,10,3,9"
14689,commdev-image-keyboard-response,490,1312710,learnblock2,388.80000000447035,img/planet4_left.png,4,Community 2,NA,FALSE,j,f,NA,NA,NA,3,6,"11,1,6,2,15,4,14,12,5,7,8,13,10,3,9"
14689,commdev-image-keyboard-response,491,1313963,learnblock2,529.2999999970198,img/planet5_right.png,5,Community 2,NA,TRUE,j,j,NA,NA,NA,3,6,"11,1,6,2,15,4,14,12,5,7,8,13,10,3,9"
14689,commdev-image-keyboard-response,492,1315216,learnblock2,563.6000000014901,img/planet12_left.png,12,Community 2,NA,TRUE,f,f,NA,NA,NA,3,6,"11,1,6,2,15,4,14,12,5,7,8,13,10,3,9"
14689,commdev-image-keyboard-response,493,1316469,learnblock2,381.3999999985099,img/planet13_left.png,13,Community 3,NA,FALSE,j,f,NA,NA,NA,3,6,"11,1,6,2,15,4,14,12,5,7,8,13,10,3,9"
14689,commdev-image-keyboard-response,494,1317721,learnblock2,975.6999999955297,img/planet3_left.png,3,Community 3,NA,TRUE,f,f,NA,NA,NA,3,6,"11,1,6,2,15,4,14,12,5,7,8,13,10,3,9"
14689,commdev-image-keyboard-response,495,1318975,learnblock2,546.3000000044703,img/planet9_right.png,9,Community 3,NA,FALSE,f,j,NA,NA,NA,3,6,"11,1,6,2,15,4,14,12,5,7,8,13,10,3,9"
14689,commdev-image-keyboard-response,496,1320228,learnblock2,923.5,img/planet13_right.png,13,Community 3,NA,TRUE,j,j,NA,NA,NA,3,6,"11,1,6,2,15,4,14,12,5,7,8,13,10,3,9"
14689,commdev-image-keyboard-response,497,1321480,learnblock2,646.1000000014901,img/planet10_right.png,10,Community 3,NA,TRUE,j,j,NA,NA,NA,3,6,"11,1,6,2,15,4,14,12,5,7,8,13,10,3,9"
14689,commdev-image-keyboard-response,498,1322734,learnblock2,710.7000000029802,img/planet3_left.png,3,Community 3,NA,TRUE,f,f,NA,NA,NA,3,6,"11,1,6,2,15,4,14,12,5,7,8,13,10,3,9"
14689,commdev-image-keyboard-response,499,1323986,learnblock2,648.8000000044703,img/planet13_left.png,13,Community 3,NA,TRUE,f,f,NA,NA,NA,3,6,"11,1,6,2,15,4,14,12,5,7,8,13,10,3,9"
14689,commdev-image-keyboard-response,500,1325239,learnblock2,717.3000000044703,img/planet12_right.png,12,Community 2,NA,FALSE,f,j,NA,NA,NA,3,6,"11,1,6,2,15,4,14,12,5,7,8,13,10,3,9"
14689,commdev-image-keyboard-response,501,1326492,learnblock2,647.8999999985099,img/planet13_right.png,13,Community 3,NA,FALSE,f,j,NA,NA,NA,3,6,"11,1,6,2,15,4,14,12,5,7,8,13,10,3,9"
14689,commdev-image-keyboard-response,502,1327745,learnblock2,853.1999999955297,img/planet10_left.png,10,Community 3,NA,TRUE,f,f,NA,NA,NA,3,6,"11,1,6,2,15,4,14,12,5,7,8,13,10,3,9"
14689,commdev-image-keyboard-response,503,1328998,learnblock2,1080.8999999985099,img/planet3_left.png,3,Community 3,NA,TRUE,f,f,NA,NA,NA,3,6,"11,1,6,2,15,4,14,12,5,7,8,13,10,3,9"
14689,commdev-image-keyboard-response,504,1330251,learnblock2,587.3000000044703,img/planet9_right.png,9,Community 3,NA,TRUE,j,j,NA,NA,NA,3,6,"11,1,6,2,15,4,14,12,5,7,8,13,10,3,9"
14689,commdev-image-keyboard-response,505,1331504,learnblock2,662.3000000044703,img/planet3_right.png,3,Community 3,NA,TRUE,j,j,NA,NA,NA,3,6,"11,1,6,2,15,4,14,12,5,7,8,13,10,3,9"
14689,commdev-image-keyboard-response,506,1332757,learnblock2,587.7999999970198,img/planet10_left.png,10,Community 3,NA,TRUE,f,f,NA,NA,NA,3,6,"11,1,6,2,15,4,14,12,5,7,8,13,10,3,9"
14689,commdev-image-keyboard-response,507,1334010,learnblock2,547.7999999970198,img/planet9_right.png,9,Community 3,NA,TRUE,j,j,NA,NA,NA,3,6,"11,1,6,2,15,4,14,12,5,7,8,13,10,3,9"
14689,commdev-image-keyboard-response,508,1335263,learnblock2,503.6000000014901,img/planet3_left.png,3,Community 3,NA,TRUE,f,f,NA,NA,NA,3,6,"11,1,6,2,15,4,14,12,5,7,8,13,10,3,9"
14689,commdev-image-keyboard-response,509,1336515,learnblock2,539.5,img/planet8_right.png,8,Community 3,NA,TRUE,j,j,NA,NA,NA,3,6,"11,1,6,2,15,4,14,12,5,7,8,13,10,3,9"
14689,commdev-image-keyboard-response,510,1337768,learnblock2,500.30000000447035,img/planet10_left.png,10,Community 3,NA,TRUE,f,f,NA,NA,NA,3,6,"11,1,6,2,15,4,14,12,5,7,8,13,10,3,9"
14689,commdev-image-keyboard-response,511,1339020,learnblock2,644.8999999985099,img/planet3_left.png,3,Community 3,NA,FALSE,j,f,NA,NA,NA,3,6,"11,1,6,2,15,4,14,12,5,7,8,13,10,3,9"
14689,commdev-image-keyboard-response,512,1340274,learnblock2,810.5,img/planet9_right.png,9,Community 3,NA,TRUE,j,j,NA,NA,NA,3,6,"11,1,6,2,15,4,14,12,5,7,8,13,10,3,9"
14689,commdev-image-keyboard-response,513,1341527,learnblock2,732.2999999970198,img/planet13_right.png,13,Community 3,NA,TRUE,j,j,NA,NA,NA,3,6,"11,1,6,2,15,4,14,12,5,7,8,13,10,3,9"
14689,commdev-image-keyboard-response,514,1342780,learnblock2,608.1000000014901,img/planet9_left.png,9,Community 3,NA,TRUE,f,f,NA,NA,NA,3,6,"11,1,6,2,15,4,14,12,5,7,8,13,10,3,9"
14689,commdev-image-keyboard-response,515,1344033,learnblock2,759.2000000029802,img/planet13_left.png,13,Community 3,NA,TRUE,f,f,NA,NA,NA,3,6,"11,1,6,2,15,4,14,12,5,7,8,13,10,3,9"
14689,commdev-image-keyboard-response,516,1345286,learnblock2,802.1999999955297,img/planet12_right.png,12,Community 2,NA,TRUE,j,j,NA,NA,NA,3,6,"11,1,6,2,15,4,14,12,5,7,8,13,10,3,9"
14689,commdev-image-keyboard-response,517,1346540,learnblock2,565.2999999970198,img/planet7_right.png,7,Community 2,NA,TRUE,j,j,NA,NA,NA,3,6,"11,1,6,2,15,4,14,12,5,7,8,13,10,3,9"
14689,commdev-image-keyboard-response,518,1347792,learnblock2,580.6000000014901,img/planet14_left.png,14,Community 2,NA,TRUE,f,f,NA,NA,NA,3,6,"11,1,6,2,15,4,14,12,5,7,8,13,10,3,9"
14689,commdev-image-keyboard-response,519,1349046,learnblock2,519.3999999985099,img/planet12_right.png,12,Community 2,NA,TRUE,j,j,NA,NA,NA,3,6,"11,1,6,2,15,4,14,12,5,7,8,13,10,3,9"
14689,commdev-image-keyboard-response,520,1350299,learnblock2,484.79999999701977,img/planet14_left.png,14,Community 2,NA,TRUE,f,f,NA,NA,NA,3,6,"11,1,6,2,15,4,14,12,5,7,8,13,10,3,9"
14689,commdev-image-keyboard-response,521,1351552,learnblock2,435.5,img/planet4_right.png,4,Community 2,NA,TRUE,j,j,NA,NA,NA,3,6,"11,1,6,2,15,4,14,12,5,7,8,13,10,3,9"
14689,commdev-image-keyboard-response,522,1352805,learnblock2,399.6000000014901,img/planet14_right.png,14,Community 2,NA,FALSE,f,j,NA,NA,NA,3,6,"11,1,6,2,15,4,14,12,5,7,8,13,10,3,9"
14689,commdev-image-keyboard-response,523,1354059,learnblock2,904.7000000029802,img/planet4_right.png,4,Community 2,NA,TRUE,j,j,NA,NA,NA,3,6,"11,1,6,2,15,4,14,12,5,7,8,13,10,3,9"
14689,commdev-image-keyboard-response,524,1355312,learnblock2,611.1999999955297,img/planet5_right.png,5,Community 2,NA,TRUE,j,j,NA,NA,NA,3,6,"11,1,6,2,15,4,14,12,5,7,8,13,10,3,9"
14689,commdev-image-keyboard-response,525,1356565,learnblock2,500.79999999701977,img/planet7_left.png,7,Community 2,NA,FALSE,j,f,NA,NA,NA,3,6,"11,1,6,2,15,4,14,12,5,7,8,13,10,3,9"
14689,commdev-image-keyboard-response,526,1357817,learnblock2,648.8999999985099,img/planet4_left.png,4,Community 2,NA,TRUE,f,f,NA,NA,NA,3,6,"11,1,6,2,15,4,14,12,5,7,8,13,10,3,9"
14689,commdev-image-keyboard-response,527,1359071,learnblock2,667.4000000059605,img/planet2_left.png,2,Community 1,NA,TRUE,f,f,NA,NA,NA,3,6,"11,1,6,2,15,4,14,12,5,7,8,13,10,3,9"
14689,commdev-image-keyboard-response,528,1360323,learnblock2,556.6999999955297,img/planet6_right.png,6,Community 1,NA,TRUE,j,j,NA,NA,NA,3,6,"11,1,6,2,15,4,14,12,5,7,8,13,10,3,9"
14689,commdev-image-keyboard-response,529,1361576,learnblock2,644.6000000014901,img/planet15_left.png,15,Community 1,NA,TRUE,f,f,NA,NA,NA,3,6,"11,1,6,2,15,4,14,12,5,7,8,13,10,3,9"
14689,commdev-image-keyboard-response,530,1362829,learnblock2,354.6000000014901,img/planet8_left.png,8,Community 3,NA,FALSE,j,f,NA,NA,NA,3,6,"11,1,6,2,15,4,14,12,5,7,8,13,10,3,9"
14689,commdev-image-keyboard-response,531,1364082,learnblock2,603.7999999970198,img/planet9_right.png,9,Community 3,NA,TRUE,j,j,NA,NA,NA,3,6,"11,1,6,2,15,4,14,12,5,7,8,13,10,3,9"
14689,commdev-image-keyboard-response,532,1365335,learnblock2,399.5,img/planet13_right.png,13,Community 3,NA,FALSE,f,j,NA,NA,NA,3,6,"11,1,6,2,15,4,14,12,5,7,8,13,10,3,9"
14689,commdev-image-keyboard-response,533,1366588,learnblock2,621.0999999940395,img/planet10_right.png,10,Community 3,NA,TRUE,j,j,NA,NA,NA,3,6,"11,1,6,2,15,4,14,12,5,7,8,13,10,3,9"
14689,commdev-image-keyboard-response,534,1367841,learnblock2,632.0999999940395,img/planet3_right.png,3,Community 3,NA,TRUE,j,j,NA,NA,NA,3,6,"11,1,6,2,15,4,14,12,5,7,8,13,10,3,9"
14689,commdev-image-keyboard-response,535,1369094,learnblock2,512.7999999970198,img/planet10_right.png,10,Community 3,NA,TRUE,j,j,NA,NA,NA,3,6,"11,1,6,2,15,4,14,12,5,7,8,13,10,3,9"
14689,commdev-image-keyboard-response,536,1370348,learnblock2,557.8999999985099,img/planet8_right.png,8,Community 3,NA,TRUE,j,j,NA,NA,NA,3,6,"11,1,6,2,15,4,14,12,5,7,8,13,10,3,9"
14689,commdev-image-keyboard-response,537,1371600,learnblock2,889.1999999955297,img/planet3_right.png,3,Community 3,NA,TRUE,j,j,NA,NA,NA,3,6,"11,1,6,2,15,4,14,12,5,7,8,13,10,3,9"
14689,commdev-image-keyboard-response,538,1372852,learnblock2,620.1999999955297,img/planet10_right.png,10,Community 3,NA,TRUE,j,j,NA,NA,NA,3,6,"11,1,6,2,15,4,14,12,5,7,8,13,10,3,9"
14689,commdev-image-keyboard-response,539,1374105,learnblock2,728.2000000029802,img/planet8_left.png,8,Community 3,NA,TRUE,f,f,NA,NA,NA,3,6,"11,1,6,2,15,4,14,12,5,7,8,13,10,3,9"
14689,commdev-image-keyboard-response,540,1375358,learnblock2,642.6000000014901,img/planet15_left.png,15,Community 1,NA,FALSE,j,f,NA,NA,NA,3,6,"11,1,6,2,15,4,14,12,5,7,8,13,10,3,9"
14689,commdev-image-keyboard-response,541,1376610,learnblock2,759.1000000014901,img/planet6_right.png,6,Community 1,NA,TRUE,j,j,NA,NA,NA,3,6,"11,1,6,2,15,4,14,12,5,7,8,13,10,3,9"
14689,commdev-image-keyboard-response,542,1377862,learnblock2,691,img/planet2_left.png,2,Community 1,NA,TRUE,f,f,NA,NA,NA,3,6,"11,1,6,2,15,4,14,12,5,7,8,13,10,3,9"
14689,commdev-image-keyboard-response,543,1379115,learnblock2,927.6999999955297,img/planet11_right.png,11,Community 1,NA,TRUE,j,j,NA,NA,NA,3,6,"11,1,6,2,15,4,14,12,5,7,8,13,10,3,9"
14689,commdev-image-keyboard-response,544,1380368,learnblock2,718.5,img/planet6_left.png,6,Community 1,NA,TRUE,f,f,NA,NA,NA,3,6,"11,1,6,2,15,4,14,12,5,7,8,13,10,3,9"
14689,commdev-image-keyboard-response,545,1381620,learnblock2,666.2000000029802,img/planet15_left.png,15,Community 1,NA,TRUE,f,f,NA,NA,NA,3,6,"11,1,6,2,15,4,14,12,5,7,8,13,10,3,9"
14689,commdev-image-keyboard-response,546,1382873,learnblock2,660.2999999970198,img/planet11_right.png,11,Community 1,NA,TRUE,j,j,NA,NA,NA,3,6,"11,1,6,2,15,4,14,12,5,7,8,13,10,3,9"
14689,commdev-image-keyboard-response,547,1384127,learnblock2,687.7999999970198,img/planet2_left.png,2,Community 1,NA,TRUE,f,f,NA,NA,NA,3,6,"11,1,6,2,15,4,14,12,5,7,8,13,10,3,9"
14689,commdev-image-keyboard-response,548,1385379,learnblock2,645.1999999955297,img/planet4_right.png,4,Community 2,NA,TRUE,j,j,NA,NA,NA,3,6,"11,1,6,2,15,4,14,12,5,7,8,13,10,3,9"
14689,commdev-image-keyboard-response,549,1386632,learnblock2,552,img/planet2_left.png,2,Community 1,NA,TRUE,f,f,NA,NA,NA,3,6,"11,1,6,2,15,4,14,12,5,7,8,13,10,3,9"
14689,commdev-image-keyboard-response,550,1387885,learnblock2,720.7999999970198,img/planet11_left.png,11,Community 1,NA,TRUE,f,f,NA,NA,NA,3,6,"11,1,6,2,15,4,14,12,5,7,8,13,10,3,9"
14689,commdev-image-keyboard-response,551,1389138,learnblock2,739.1000000014901,img/planet1_right.png,1,Community 1,NA,TRUE,j,j,NA,NA,NA,3,6,"11,1,6,2,15,4,14,12,5,7,8,13,10,3,9"
14689,commdev-image-keyboard-response,552,1390391,learnblock2,595.1000000014901,img/planet6_left.png,6,Community 1,NA,TRUE,f,f,NA,NA,NA,3,6,"11,1,6,2,15,4,14,12,5,7,8,13,10,3,9"
14689,commdev-image-keyboard-response,553,1391644,learnblock2,607.7000000029802,img/planet15_right.png,15,Community 1,NA,TRUE,j,j,NA,NA,NA,3,6,"11,1,6,2,15,4,14,12,5,7,8,13,10,3,9"
14689,commdev-image-keyboard-response,554,1392897,learnblock2,659.5,img/planet6_right.png,6,Community 1,NA,TRUE,j,j,NA,NA,NA,3,6,"11,1,6,2,15,4,14,12,5,7,8,13,10,3,9"
14689,commdev-image-keyboard-response,555,1394150,learnblock2,626.7000000029802,img/planet15_left.png,15,Community 1,NA,TRUE,f,f,NA,NA,NA,3,6,"11,1,6,2,15,4,14,12,5,7,8,13,10,3,9"
14689,commdev-image-keyboard-response,556,1395404,learnblock2,607.7999999970198,img/planet6_right.png,6,Community 1,NA,TRUE,j,j,NA,NA,NA,3,6,"11,1,6,2,15,4,14,12,5,7,8,13,10,3,9"
14689,commdev-image-keyboard-response,557,1396657,learnblock2,521.3999999985099,img/planet2_right.png,2,Community 1,NA,FALSE,f,j,NA,NA,NA,3,6,"11,1,6,2,15,4,14,12,5,7,8,13,10,3,9"
14689,commdev-image-keyboard-response,558,1397910,learnblock2,661.5,img/planet4_right.png,4,Community 2,NA,TRUE,j,j,NA,NA,NA,3,6,"11,1,6,2,15,4,14,12,5,7,8,13,10,3,9"
14689,commdev-image-keyboard-response,559,1399163,learnblock2,689.5,img/planet5_left.png,5,Community 2,NA,TRUE,f,f,NA,NA,NA,3,6,"11,1,6,2,15,4,14,12,5,7,8,13,10,3,9"
14689,commdev-image-keyboard-response,560,1400415,learnblock2,650.1999999955297,img/planet4_left.png,4,Community 2,NA,TRUE,f,f,NA,NA,NA,3,6,"11,1,6,2,15,4,14,12,5,7,8,13,10,3,9"
14689,commdev-image-keyboard-response,561,1401668,learnblock2,513.8999999985099,img/planet7_right.png,7,Community 2,NA,FALSE,f,j,NA,NA,NA,3,6,"11,1,6,2,15,4,14,12,5,7,8,13,10,3,9"
14689,commdev-image-keyboard-response,562,1402922,learnblock2,757.1000000014901,img/planet4_left.png,4,Community 2,NA,TRUE,f,f,NA,NA,NA,3,6,"11,1,6,2,15,4,14,12,5,7,8,13,10,3,9"
14689,commdev-image-keyboard-response,563,1404174,learnblock2,544.9000000059605,img/planet7_right.png,7,Community 2,NA,TRUE,j,j,NA,NA,NA,3,6,"11,1,6,2,15,4,14,12,5,7,8,13,10,3,9"
14689,commdev-image-keyboard-response,564,1405427,learnblock2,318.69999999552965,img/planet5_right.png,5,Community 2,NA,FALSE,f,j,NA,NA,NA,3,6,"11,1,6,2,15,4,14,12,5,7,8,13,10,3,9"
14689,commdev-image-keyboard-response,565,1406679,learnblock2,646.9000000059605,img/planet7_left.png,7,Community 2,NA,TRUE,f,f,NA,NA,NA,3,6,"11,1,6,2,15,4,14,12,5,7,8,13,10,3,9"
14689,commdev-image-keyboard-response,566,1407931,learnblock2,333.3999999985099,img/planet12_right.png,12,Community 2,NA,TRUE,j,j,NA,NA,NA,3,6,"11,1,6,2,15,4,14,12,5,7,8,13,10,3,9"
14689,commdev-image-keyboard-response,567,1409185,learnblock2,643.6000000014901,img/planet7_right.png,7,Community 2,NA,TRUE,j,j,NA,NA,NA,3,6,"11,1,6,2,15,4,14,12,5,7,8,13,10,3,9"
14689,commdev-image-keyboard-response,568,1410438,learnblock2,607.4000000059605,img/planet4_right.png,4,Community 2,NA,TRUE,j,j,NA,NA,NA,3,6,"11,1,6,2,15,4,14,12,5,7,8,13,10,3,9"
14689,commdev-image-keyboard-response,569,1411692,learnblock2,537.8000000044703,img/planet5_right.png,5,Community 2,NA,TRUE,j,j,NA,NA,NA,3,6,"11,1,6,2,15,4,14,12,5,7,8,13,10,3,9"
14689,commdev-image-keyboard-response,570,1412945,learnblock2,328.5,img/planet12_left.png,12,Community 2,NA,FALSE,j,f,NA,NA,NA,3,6,"11,1,6,2,15,4,14,12,5,7,8,13,10,3,9"
14689,commdev-image-keyboard-response,571,1414198,learnblock2,364.19999999552965,img/planet5_right.png,5,Community 2,NA,FALSE,f,j,NA,NA,NA,3,6,"11,1,6,2,15,4,14,12,5,7,8,13,10,3,9"
14689,commdev-image-keyboard-response,572,1415451,learnblock2,712.5,img/planet14_left.png,14,Community 2,NA,TRUE,f,f,NA,NA,NA,3,6,"11,1,6,2,15,4,14,12,5,7,8,13,10,3,9"
14689,commdev-image-keyboard-response,573,1416704,learnblock2,459.29999999701977,img/planet12_left.png,12,Community 2,NA,FALSE,j,f,NA,NA,NA,3,6,"11,1,6,2,15,4,14,12,5,7,8,13,10,3,9"
14689,commdev-image-keyboard-response,574,1417956,learnblock2,812.3999999985099,img/planet14_left.png,14,Community 2,NA,FALSE,j,f,NA,NA,NA,3,6,"11,1,6,2,15,4,14,12,5,7,8,13,10,3,9"
14689,commdev-image-keyboard-response,575,1419209,learnblock2,1057.6000000014901,img/planet5_right.png,5,Community 2,NA,TRUE,j,j,NA,NA,NA,3,6,"11,1,6,2,15,4,14,12,5,7,8,13,10,3,9"
14689,commdev-image-keyboard-response,576,1420462,learnblock2,607.1000000014901,img/planet7_right.png,7,Community 2,NA,TRUE,j,j,NA,NA,NA,3,6,"11,1,6,2,15,4,14,12,5,7,8,13,10,3,9"
14689,commdev-image-keyboard-response,577,1421715,learnblock2,557.6000000014901,img/planet14_left.png,14,Community 2,NA,TRUE,f,f,NA,NA,NA,3,6,"11,1,6,2,15,4,14,12,5,7,8,13,10,3,9"
14689,commdev-image-keyboard-response,578,1422968,learnblock2,544.5999999940395,img/planet7_right.png,7,Community 2,NA,TRUE,j,j,NA,NA,NA,3,6,"11,1,6,2,15,4,14,12,5,7,8,13,10,3,9"
14689,commdev-image-keyboard-response,579,1424221,learnblock2,339.5,img/planet4_left.png,4,Community 2,NA,TRUE,f,f,NA,NA,NA,3,6,"11,1,6,2,15,4,14,12,5,7,8,13,10,3,9"
14689,commdev-image-keyboard-response,580,1425474,learnblock2,284.1000000014901,img/planet14_right.png,14,Community 2,NA,TRUE,j,j,NA,NA,NA,3,6,"11,1,6,2,15,4,14,12,5,7,8,13,10,3,9"
14689,commdev-image-keyboard-response,581,1426726,learnblock2,341.6000000014901,img/planet12_left.png,12,Community 2,NA,TRUE,f,f,NA,NA,NA,3,6,"11,1,6,2,15,4,14,12,5,7,8,13,10,3,9"
14689,commdev-image-keyboard-response,582,1427979,learnblock2,278.29999999701977,img/planet13_left.png,13,Community 3,NA,FALSE,j,f,NA,NA,NA,3,6,"11,1,6,2,15,4,14,12,5,7,8,13,10,3,9"
14689,commdev-image-keyboard-response,583,1429233,learnblock2,607.3999999985099,img/planet3_right.png,3,Community 3,NA,TRUE,j,j,NA,NA,NA,3,6,"11,1,6,2,15,4,14,12,5,7,8,13,10,3,9"
14689,commdev-image-keyboard-response,584,1430486,learnblock2,577,img/planet10_left.png,10,Community 3,NA,FALSE,j,f,NA,NA,NA,3,6,"11,1,6,2,15,4,14,12,5,7,8,13,10,3,9"
14689,commdev-image-keyboard-response,585,1431739,learnblock2,425.3999999985099,img/planet13_left.png,13,Community 3,NA,FALSE,j,f,NA,NA,NA,3,6,"11,1,6,2,15,4,14,12,5,7,8,13,10,3,9"
14689,commdev-image-keyboard-response,586,1432993,learnblock2,779.6999999955297,img/planet10_left.png,10,Community 3,NA,TRUE,f,f,NA,NA,NA,3,6,"11,1,6,2,15,4,14,12,5,7,8,13,10,3,9"
