subject_id,trial_type,trial_index,time_elapsed,block,rt,stimulus,planet,community,response,correct,key_press,learning_correct_response,parse,init_locations,final_locations,browser_interactions,num_comp,planet_map
15009,commdev-instructions,7,34420,NA,1978.599998474121,"<p>In this game, you will be shown a 3x3 grid of patterns.</p> <p>The last one in the bottom right-hand corner, <strong>will be missing:</strong></p> <div style='width: 700px;'><div style='float: top;'><img style='width: 200px;' src='practice/p1_M1.png'></img><p class='small'>You need to select<strong> which of the four possible patterns </strong>along the bottom<strong> fits into the gap:</strong></p></div><div style='float: top;'><img style='width: 300px;' src='practice/p1_T1.png'></img></div><br>",NA,NA,NA,NA,NA,NA,NA,NA,NA,1,6,"4,15,7,14,12,3,6,5,13,11,9,8,2,10,1"
15009,commdev-instructions,8,56989,NA,2108.599998474121,"<p>Try to be as fast and as accurate as you can be.</p> <p>If you cannot solve the puzzle then you should guess - you will not be penalised for an incorrect answer.</p> <p>The task contains a shuffled mix of easy, medium and hard puzzles.</p> <p>You will have <strong>30 seconds</strong> to complete each puzzle.</p><br>",NA,NA,NA,NA,NA,NA,NA,NA,NA,1,6,"4,15,7,14,12,3,6,5,13,11,9,8,2,10,1"
15009,commdev-instructions,15,79367,NA,1468.400001525879,<p><strong>Success!</strong></p> <p>You seem to be getting the hang of this...</p> <p>Let's move on to the real trials.</p><br>,NA,NA,NA,NA,NA,NA,NA,NA,NA,1,6,"4,15,7,14,12,3,6,5,13,11,9,8,2,10,1"
15009,commdev-instructions,178,456165,NA,5760.299995422363,"<p>In this game, you are a scientist on board a space shuttle. </p><p> On each mission, you will visit planets all across the universe.</p><img src=""img/controlroom.jpg"" width=300vw>",NA,NA,NA,NA,NA,NA,NA,NA,NA,1,6,"4,15,7,14,12,3,6,5,13,11,9,8,2,10,1"
15009,commdev-instructions,179,459310,NA,1066.6999969482422,"<p>Here are a few planets you might see:</p><img src=""img/practice1.png"" width=200vw><img src=""img/practice2.png"" width=200vw><img src=""img/practice3.png"" width=200vw>",NA,NA,NA,NA,NA,NA,NA,NA,NA,1,6,"4,15,7,14,12,3,6,5,13,11,9,8,2,10,1"
15009,commdev-instructions,180,479270,NA,12544.300003051758,"<p>Your job as a scientist is to record which direction the winds are moving on each planet.</p><p>There are two types of wind directions:</p><img src=""img/practice1_left.png"" width=200vw><img src=""img/practice1_right.png"" width=200vw>",NA,NA,NA,NA,NA,NA,NA,NA,NA,1,6,"4,15,7,14,12,3,6,5,13,11,9,8,2,10,1"
15009,commdev-instructions,181,487534,NA,3374,"<p>If the winds are moving this way, press the letter <strong>F</strong> on the keyboard as fast as you can.</p><img src=""img/leftwind.png"" width=250vw>",NA,NA,NA,NA,NA,NA,NA,NA,NA,1,6,"4,15,7,14,12,3,6,5,13,11,9,8,2,10,1"
15009,commdev-instructions,182,492565,NA,534.3000030517578,"<p>If the winds are moving this way, press the letter <strong>J</strong> on the keyboard as fast as you can.</p><img src=""img/rightwind.png"" width=350vw>",NA,NA,NA,NA,NA,NA,NA,NA,NA,1,6,"4,15,7,14,12,3,6,5,13,11,9,8,2,10,1"
15009,commdev-instructions,183,501272,NA,4270.800003051758,<p>You will have 1 second to respond. Try to respond before the time runs out!,NA,NA,NA,NA,NA,NA,NA,NA,NA,1,6,"4,15,7,14,12,3,6,5,13,11,9,8,2,10,1"
15009,commdev-instructions,184,509220,NA,2512.2000045776367,<p>The planets you will visit will look different from each other.</p><p>You should respond <strong>only</strong> based on wind direction.,NA,NA,NA,NA,NA,NA,NA,NA,NA,1,6,"4,15,7,14,12,3,6,5,13,11,9,8,2,10,1"
15009,commdev-instructions,185,516387,NA,1988.900001525879,"<p> Ready to start the practice round? </p><p> Remember, press <strong>F</strong> or <strong>J</strong> depending on the wind direction.<br><img src=""img/categorize_planet_example.png""",NA,NA,NA,NA,NA,NA,NA,NA,NA,1,6,"4,15,7,14,12,3,6,5,13,11,9,8,2,10,1"
15009,commdev-instructions,197,559486,NA,NA,NA,NA,NA,NA,NA,NA,NA,NA,NA,NA,1,6,"4,15,7,14,12,3,6,5,13,11,9,8,2,10,1"
15009,commdev-image-keyboard-response,198,560866,practice,830.3000030517578,img/practice4_right.png,NA,Number not found in mappings,NA,TRUE,j,j,NA,NA,NA,1,6,"4,15,7,14,12,3,6,5,13,11,9,8,2,10,1"
15009,commdev-image-keyboard-response,199,562134,practice,530.0999984741211,img/practice2_left.png,NA,Number not found in mappings,NA,TRUE,f,f,NA,NA,NA,1,6,"4,15,7,14,12,3,6,5,13,11,9,8,2,10,1"
15009,commdev-image-keyboard-response,200,563394,practice,762.2000045776367,img/practice3_right.png,NA,Number not found in mappings,NA,TRUE,j,j,NA,NA,NA,1,6,"4,15,7,14,12,3,6,5,13,11,9,8,2,10,1"
15009,commdev-image-keyboard-response,201,564662,practice,498.7000045776367,img/practice1_left.png,NA,Number not found in mappings,NA,TRUE,f,f,NA,NA,NA,1,6,"4,15,7,14,12,3,6,5,13,11,9,8,2,10,1"
15009,commdev-image-keyboard-response,202,565928,practice,420.1000061035156,img/practice4_right.png,NA,Number not found in mappings,NA,TRUE,j,j,NA,NA,NA,1,6,"4,15,7,14,12,3,6,5,13,11,9,8,2,10,1"
15009,commdev-image-keyboard-response,203,567190,practice,467.3000030517578,img/practice2_left.png,NA,Number not found in mappings,NA,TRUE,f,f,NA,NA,NA,1,6,"4,15,7,14,12,3,6,5,13,11,9,8,2,10,1"
15009,commdev-image-keyboard-response,204,568456,practice,496.7999954223633,img/practice1_left.png,NA,Number not found in mappings,NA,TRUE,f,f,NA,NA,NA,1,6,"4,15,7,14,12,3,6,5,13,11,9,8,2,10,1"
15009,commdev-image-keyboard-response,205,569723,practice,656.9000015258789,img/practice2_right.png,NA,Number not found in mappings,NA,TRUE,j,j,NA,NA,NA,1,6,"4,15,7,14,12,3,6,5,13,11,9,8,2,10,1"
15009,commdev-instructions,206,582122,NA,2841.099998474121,"<p>Great job with the practice round.</p><p>During real missions, you won't know whether you pressed the right or wrong key for each planet.</p><p>But between missions, we will tell you how you did overall.</p>",NA,NA,NA,NA,NA,NA,NA,NA,NA,1,6,"4,15,7,14,12,3,6,5,13,11,9,8,2,10,1"
15009,commdev-instructions,207,591523,NA,1144.8999938964844,<p>Try your best! You will be paid a bonus based on how many correct responses you make!</p><p>Responses that are too slow will not count toward your bonus.</p>,NA,NA,NA,NA,NA,NA,NA,NA,NA,1,6,"4,15,7,14,12,3,6,5,13,11,9,8,2,10,1"
15009,commdev-instructions,208,601616,NA,3888.5,"<p>You are almost ready to start the real game.</p><p> First, we are going to ask you some questions about how the game works.</p>",NA,NA,NA,NA,NA,NA,NA,NA,NA,1,6,"4,15,7,14,12,3,6,5,13,11,9,8,2,10,1"
15009,commdev-instructions,217,685778,NA,3388.7000045776367,"<p> Nice work! It is now time to start the real game.<p></p>You will go on two missions to record wind directions of different planets.<p></p>Each one will take about 5 minutes. You will get to take a break between missions.<p><p> Remember, press <strong>F</strong> or <strong>J</strong> depending on the wind direction. Good luck!<br><img src=""img/categorize_planet_example.png""",NA,NA,NA,NA,NA,NA,NA,NA,NA,1,6,"4,15,7,14,12,3,6,5,13,11,9,8,2,10,1"
15009,commdev-image-keyboard-response,219,689998,learnblock1,1050.1999969482422,img/planet8_right.png,8,Community 3,NA,TRUE,j,j,NA,NA,NA,1,6,"4,15,7,14,12,3,6,5,13,11,9,8,2,10,1"
15009,commdev-image-keyboard-response,220,691261,learnblock1,700.6999969482422,img/planet2_right.png,2,Community 3,NA,TRUE,j,j,NA,NA,NA,1,6,"4,15,7,14,12,3,6,5,13,11,9,8,2,10,1"
15009,commdev-image-keyboard-response,221,692523,learnblock1,593.2999954223633,img/planet10_right.png,10,Community 3,NA,TRUE,j,j,NA,NA,NA,1,6,"4,15,7,14,12,3,6,5,13,11,9,8,2,10,1"
15009,commdev-image-keyboard-response,222,693785,learnblock1,717.3000030517578,img/planet8_left.png,8,Community 3,NA,TRUE,f,f,NA,NA,NA,1,6,"4,15,7,14,12,3,6,5,13,11,9,8,2,10,1"
15009,commdev-image-keyboard-response,223,695049,learnblock1,735.5999984741211,img/planet5_right.png,5,Community 2,NA,TRUE,j,j,NA,NA,NA,1,6,"4,15,7,14,12,3,6,5,13,11,9,8,2,10,1"
15009,commdev-image-keyboard-response,224,696302,learnblock1,773,img/planet8_right.png,8,Community 3,NA,TRUE,j,j,NA,NA,NA,1,6,"4,15,7,14,12,3,6,5,13,11,9,8,2,10,1"
15009,commdev-image-keyboard-response,225,697562,learnblock1,592.1999969482422,img/planet1_left.png,1,Community 3,NA,TRUE,f,f,NA,NA,NA,1,6,"4,15,7,14,12,3,6,5,13,11,9,8,2,10,1"
15009,commdev-image-keyboard-response,226,698824,learnblock1,608.5999984741211,img/planet10_right.png,10,Community 3,NA,TRUE,j,j,NA,NA,NA,1,6,"4,15,7,14,12,3,6,5,13,11,9,8,2,10,1"
15009,commdev-image-keyboard-response,227,700080,learnblock1,636.5,img/planet1_right.png,1,Community 3,NA,TRUE,j,j,NA,NA,NA,1,6,"4,15,7,14,12,3,6,5,13,11,9,8,2,10,1"
15009,commdev-image-keyboard-response,228,701337,learnblock1,772,img/planet8_left.png,8,Community 3,NA,TRUE,f,f,NA,NA,NA,1,6,"4,15,7,14,12,3,6,5,13,11,9,8,2,10,1"
15009,commdev-image-keyboard-response,229,702593,learnblock1,620,img/planet5_right.png,5,Community 2,NA,TRUE,j,j,NA,NA,NA,1,6,"4,15,7,14,12,3,6,5,13,11,9,8,2,10,1"
15009,commdev-image-keyboard-response,230,703855,learnblock1,715.5999984741211,img/planet8_left.png,8,Community 3,NA,TRUE,f,f,NA,NA,NA,1,6,"4,15,7,14,12,3,6,5,13,11,9,8,2,10,1"
15009,commdev-image-keyboard-response,231,705124,learnblock1,648.5999984741211,img/planet5_right.png,5,Community 2,NA,TRUE,j,j,NA,NA,NA,1,6,"4,15,7,14,12,3,6,5,13,11,9,8,2,10,1"
15009,commdev-image-keyboard-response,232,706380,learnblock1,725.3000030517578,img/planet11_left.png,11,Community 2,NA,TRUE,f,f,NA,NA,NA,1,6,"4,15,7,14,12,3,6,5,13,11,9,8,2,10,1"
15009,commdev-image-keyboard-response,233,707646,learnblock1,639.4000015258789,img/planet13_left.png,13,Community 2,NA,TRUE,f,f,NA,NA,NA,1,6,"4,15,7,14,12,3,6,5,13,11,9,8,2,10,1"
15009,commdev-image-keyboard-response,234,708905,learnblock1,595.2999954223633,img/planet11_left.png,11,Community 2,NA,TRUE,f,f,NA,NA,NA,1,6,"4,15,7,14,12,3,6,5,13,11,9,8,2,10,1"
15009,commdev-image-keyboard-response,235,710169,learnblock1,645.4000015258789,img/planet6_right.png,6,Community 2,NA,TRUE,j,j,NA,NA,NA,1,6,"4,15,7,14,12,3,6,5,13,11,9,8,2,10,1"
15009,commdev-image-keyboard-response,236,711433,learnblock1,733.0999984741211,img/planet5_right.png,5,Community 2,NA,TRUE,j,j,NA,NA,NA,1,6,"4,15,7,14,12,3,6,5,13,11,9,8,2,10,1"
15009,commdev-image-keyboard-response,237,712684,learnblock1,760.0999984741211,img/planet8_left.png,8,Community 3,NA,TRUE,f,f,NA,NA,NA,1,6,"4,15,7,14,12,3,6,5,13,11,9,8,2,10,1"
15009,commdev-image-keyboard-response,238,713943,learnblock1,579.2000045776367,img/planet2_right.png,2,Community 3,NA,TRUE,j,j,NA,NA,NA,1,6,"4,15,7,14,12,3,6,5,13,11,9,8,2,10,1"
15009,commdev-image-keyboard-response,239,715202,learnblock1,612.5999984741211,img/planet9_left.png,9,Community 3,NA,TRUE,f,f,NA,NA,NA,1,6,"4,15,7,14,12,3,6,5,13,11,9,8,2,10,1"
15009,commdev-image-keyboard-response,240,716457,learnblock1,518.8000030517578,img/planet2_right.png,2,Community 3,NA,TRUE,j,j,NA,NA,NA,1,6,"4,15,7,14,12,3,6,5,13,11,9,8,2,10,1"
15009,commdev-image-keyboard-response,241,717719,learnblock1,610.9000015258789,img/planet9_right.png,9,Community 3,NA,TRUE,j,j,NA,NA,NA,1,6,"4,15,7,14,12,3,6,5,13,11,9,8,2,10,1"
15009,commdev-image-keyboard-response,242,718980,learnblock1,649.3000030517578,img/planet10_left.png,10,Community 3,NA,TRUE,f,f,NA,NA,NA,1,6,"4,15,7,14,12,3,6,5,13,11,9,8,2,10,1"
15009,commdev-image-keyboard-response,243,720239,learnblock1,495.5,img/planet8_right.png,8,Community 3,NA,TRUE,j,j,NA,NA,NA,1,6,"4,15,7,14,12,3,6,5,13,11,9,8,2,10,1"
15009,commdev-image-keyboard-response,244,721501,learnblock1,524.1999969482422,img/planet1_left.png,1,Community 3,NA,TRUE,f,f,NA,NA,NA,1,6,"4,15,7,14,12,3,6,5,13,11,9,8,2,10,1"
15009,commdev-image-keyboard-response,245,722759,learnblock1,517.0999984741211,img/planet2_right.png,2,Community 3,NA,TRUE,j,j,NA,NA,NA,1,6,"4,15,7,14,12,3,6,5,13,11,9,8,2,10,1"
15009,commdev-image-keyboard-response,246,724019,learnblock1,570.7999954223633,img/planet9_left.png,9,Community 3,NA,TRUE,f,f,NA,NA,NA,1,6,"4,15,7,14,12,3,6,5,13,11,9,8,2,10,1"
15009,commdev-image-keyboard-response,247,725277,learnblock1,489.5,img/planet10_left.png,10,Community 3,NA,TRUE,f,f,NA,NA,NA,1,6,"4,15,7,14,12,3,6,5,13,11,9,8,2,10,1"
15009,commdev-image-keyboard-response,248,726531,learnblock1,554.7999954223633,img/planet1_left.png,1,Community 3,NA,TRUE,f,f,NA,NA,NA,1,6,"4,15,7,14,12,3,6,5,13,11,9,8,2,10,1"
15009,commdev-image-keyboard-response,249,727797,learnblock1,704.3999938964844,img/planet8_left.png,8,Community 3,NA,TRUE,f,f,NA,NA,NA,1,6,"4,15,7,14,12,3,6,5,13,11,9,8,2,10,1"
15009,commdev-image-keyboard-response,250,729062,learnblock1,758.1999969482422,img/planet5_left.png,5,Community 2,NA,TRUE,f,f,NA,NA,NA,1,6,"4,15,7,14,12,3,6,5,13,11,9,8,2,10,1"
15009,commdev-image-keyboard-response,251,730318,learnblock1,718.9000015258789,img/planet13_left.png,13,Community 2,NA,TRUE,f,f,NA,NA,NA,1,6,"4,15,7,14,12,3,6,5,13,11,9,8,2,10,1"
15009,commdev-image-keyboard-response,252,731573,learnblock1,655.9000015258789,img/planet11_left.png,11,Community 2,NA,TRUE,f,f,NA,NA,NA,1,6,"4,15,7,14,12,3,6,5,13,11,9,8,2,10,1"
15009,commdev-image-keyboard-response,253,732827,learnblock1,599.2000045776367,img/planet6_left.png,6,Community 2,NA,TRUE,f,f,NA,NA,NA,1,6,"4,15,7,14,12,3,6,5,13,11,9,8,2,10,1"
15009,commdev-image-keyboard-response,254,734083,learnblock1,570.5,img/planet13_left.png,13,Community 2,NA,TRUE,f,f,NA,NA,NA,1,6,"4,15,7,14,12,3,6,5,13,11,9,8,2,10,1"
15009,commdev-image-keyboard-response,255,735342,learnblock1,555.8999938964844,img/planet11_right.png,11,Community 2,NA,TRUE,j,j,NA,NA,NA,1,6,"4,15,7,14,12,3,6,5,13,11,9,8,2,10,1"
15009,commdev-image-keyboard-response,256,736610,learnblock1,602.5,img/planet3_right.png,3,Community 2,NA,TRUE,j,j,NA,NA,NA,1,6,"4,15,7,14,12,3,6,5,13,11,9,8,2,10,1"
15009,commdev-image-keyboard-response,257,737867,learnblock1,596.2000045776367,img/planet6_left.png,6,Community 2,NA,TRUE,f,f,NA,NA,NA,1,6,"4,15,7,14,12,3,6,5,13,11,9,8,2,10,1"
15009,commdev-image-keyboard-response,258,739125,learnblock1,622.0999984741211,img/planet5_right.png,5,Community 2,NA,TRUE,j,j,NA,NA,NA,1,6,"4,15,7,14,12,3,6,5,13,11,9,8,2,10,1"
15009,commdev-image-keyboard-response,259,740382,learnblock1,663.9000015258789,img/planet13_left.png,13,Community 2,NA,TRUE,f,f,NA,NA,NA,1,6,"4,15,7,14,12,3,6,5,13,11,9,8,2,10,1"
15009,commdev-image-keyboard-response,260,741647,learnblock1,669.0999984741211,img/planet3_left.png,3,Community 2,NA,TRUE,f,f,NA,NA,NA,1,6,"4,15,7,14,12,3,6,5,13,11,9,8,2,10,1"
15009,commdev-image-keyboard-response,261,742901,learnblock1,697.5,img/planet6_right.png,6,Community 2,NA,TRUE,j,j,NA,NA,NA,1,6,"4,15,7,14,12,3,6,5,13,11,9,8,2,10,1"
15009,commdev-image-keyboard-response,262,744160,learnblock1,651.1999969482422,img/planet13_left.png,13,Community 2,NA,TRUE,f,f,NA,NA,NA,1,6,"4,15,7,14,12,3,6,5,13,11,9,8,2,10,1"
15009,commdev-image-keyboard-response,263,745413,learnblock1,523.6999969482422,img/planet11_left.png,11,Community 2,NA,TRUE,f,f,NA,NA,NA,1,6,"4,15,7,14,12,3,6,5,13,11,9,8,2,10,1"
15009,commdev-image-keyboard-response,264,746674,learnblock1,798.6999969482422,img/planet3_left.png,3,Community 2,NA,TRUE,f,f,NA,NA,NA,1,6,"4,15,7,14,12,3,6,5,13,11,9,8,2,10,1"
15009,commdev-image-keyboard-response,265,747928,learnblock1,592.9000015258789,img/planet11_left.png,11,Community 2,NA,TRUE,f,f,NA,NA,NA,1,6,"4,15,7,14,12,3,6,5,13,11,9,8,2,10,1"
15009,commdev-image-keyboard-response,266,749192,learnblock1,591.4000015258789,img/planet6_left.png,6,Community 2,NA,TRUE,f,f,NA,NA,NA,1,6,"4,15,7,14,12,3,6,5,13,11,9,8,2,10,1"
15009,commdev-image-keyboard-response,267,750454,learnblock1,576.3000030517578,img/planet3_left.png,3,Community 2,NA,TRUE,f,f,NA,NA,NA,1,6,"4,15,7,14,12,3,6,5,13,11,9,8,2,10,1"
15009,commdev-image-keyboard-response,268,751711,learnblock1,740,img/planet14_right.png,14,Community 1,NA,TRUE,j,j,NA,NA,NA,1,6,"4,15,7,14,12,3,6,5,13,11,9,8,2,10,1"
15009,commdev-image-keyboard-response,269,752975,learnblock1,700.5999984741211,img/planet3_left.png,3,Community 2,NA,TRUE,f,f,NA,NA,NA,1,6,"4,15,7,14,12,3,6,5,13,11,9,8,2,10,1"
15009,commdev-image-keyboard-response,270,754239,learnblock1,604.4000015258789,img/planet11_right.png,11,Community 2,NA,TRUE,j,j,NA,NA,NA,1,6,"4,15,7,14,12,3,6,5,13,11,9,8,2,10,1"
15009,commdev-image-keyboard-response,271,755506,learnblock1,549.3000030517578,img/planet5_left.png,5,Community 2,NA,TRUE,f,f,NA,NA,NA,1,6,"4,15,7,14,12,3,6,5,13,11,9,8,2,10,1"
15009,commdev-image-keyboard-response,272,756761,learnblock1,598.0999984741211,img/planet6_left.png,6,Community 2,NA,TRUE,f,f,NA,NA,NA,1,6,"4,15,7,14,12,3,6,5,13,11,9,8,2,10,1"
15009,commdev-image-keyboard-response,273,758030,learnblock1,572.0999984741211,img/planet11_right.png,11,Community 2,NA,TRUE,j,j,NA,NA,NA,1,6,"4,15,7,14,12,3,6,5,13,11,9,8,2,10,1"
15009,commdev-image-keyboard-response,274,759284,learnblock1,566.5999984741211,img/planet13_right.png,13,Community 2,NA,TRUE,j,j,NA,NA,NA,1,6,"4,15,7,14,12,3,6,5,13,11,9,8,2,10,1"
15009,commdev-image-keyboard-response,275,760542,learnblock1,567.0999984741211,img/planet11_right.png,11,Community 2,NA,TRUE,j,j,NA,NA,NA,1,6,"4,15,7,14,12,3,6,5,13,11,9,8,2,10,1"
15009,commdev-image-keyboard-response,276,761802,learnblock1,571.7000045776367,img/planet3_right.png,3,Community 2,NA,TRUE,j,j,NA,NA,NA,1,6,"4,15,7,14,12,3,6,5,13,11,9,8,2,10,1"
15009,commdev-image-keyboard-response,277,763066,learnblock1,540.0999984741211,img/planet11_right.png,11,Community 2,NA,TRUE,j,j,NA,NA,NA,1,6,"4,15,7,14,12,3,6,5,13,11,9,8,2,10,1"
15009,commdev-image-keyboard-response,278,764331,learnblock1,565.5999984741211,img/planet3_right.png,3,Community 2,NA,TRUE,j,j,NA,NA,NA,1,6,"4,15,7,14,12,3,6,5,13,11,9,8,2,10,1"
15009,commdev-image-keyboard-response,279,765591,learnblock1,571.5,img/planet11_right.png,11,Community 2,NA,TRUE,j,j,NA,NA,NA,1,6,"4,15,7,14,12,3,6,5,13,11,9,8,2,10,1"
15009,commdev-image-keyboard-response,280,766851,learnblock1,572.0999984741211,img/planet13_right.png,13,Community 2,NA,TRUE,j,j,NA,NA,NA,1,6,"4,15,7,14,12,3,6,5,13,11,9,8,2,10,1"
15009,commdev-image-keyboard-response,281,768110,learnblock1,557.9000015258789,img/planet6_right.png,6,Community 2,NA,TRUE,j,j,NA,NA,NA,1,6,"4,15,7,14,12,3,6,5,13,11,9,8,2,10,1"
15009,commdev-image-keyboard-response,282,769362,learnblock1,689.3999938964844,img/planet13_left.png,13,Community 2,NA,TRUE,f,f,NA,NA,NA,1,6,"4,15,7,14,12,3,6,5,13,11,9,8,2,10,1"
15009,commdev-image-keyboard-response,283,770623,learnblock1,571,img/planet6_right.png,6,Community 2,NA,TRUE,j,j,NA,NA,NA,1,6,"4,15,7,14,12,3,6,5,13,11,9,8,2,10,1"
15009,commdev-image-keyboard-response,284,771881,learnblock1,511.3000030517578,img/planet11_right.png,11,Community 2,NA,TRUE,j,j,NA,NA,NA,1,6,"4,15,7,14,12,3,6,5,13,11,9,8,2,10,1"
15009,commdev-image-keyboard-response,285,773147,learnblock1,596.9000015258789,img/planet3_left.png,3,Community 2,NA,TRUE,f,f,NA,NA,NA,1,6,"4,15,7,14,12,3,6,5,13,11,9,8,2,10,1"
15009,commdev-image-keyboard-response,286,774409,learnblock1,567.6999969482422,img/planet14_left.png,14,Community 1,NA,TRUE,f,f,NA,NA,NA,1,6,"4,15,7,14,12,3,6,5,13,11,9,8,2,10,1"
15009,commdev-image-keyboard-response,287,775668,learnblock1,660.5999984741211,img/planet7_left.png,7,Community 1,NA,TRUE,f,f,NA,NA,NA,1,6,"4,15,7,14,12,3,6,5,13,11,9,8,2,10,1"
15009,commdev-image-keyboard-response,288,776927,learnblock1,538.4000015258789,img/planet4_left.png,4,Community 1,NA,TRUE,f,f,NA,NA,NA,1,6,"4,15,7,14,12,3,6,5,13,11,9,8,2,10,1"
15009,commdev-image-keyboard-response,289,778183,learnblock1,522,img/planet15_left.png,15,Community 1,NA,TRUE,f,f,NA,NA,NA,1,6,"4,15,7,14,12,3,6,5,13,11,9,8,2,10,1"
15009,commdev-image-keyboard-response,290,779440,learnblock1,562.2999954223633,img/planet7_right.png,7,Community 1,NA,TRUE,j,j,NA,NA,NA,1,6,"4,15,7,14,12,3,6,5,13,11,9,8,2,10,1"
15009,commdev-image-keyboard-response,291,780699,learnblock1,865.7999954223633,img/planet15_right.png,15,Community 1,NA,TRUE,j,j,NA,NA,NA,1,6,"4,15,7,14,12,3,6,5,13,11,9,8,2,10,1"
15009,commdev-image-keyboard-response,292,781958,learnblock1,891.6999969482422,img/planet14_left.png,14,Community 1,NA,TRUE,f,f,NA,NA,NA,1,6,"4,15,7,14,12,3,6,5,13,11,9,8,2,10,1"
15009,commdev-image-keyboard-response,293,783210,learnblock1,722.1999969482422,img/planet7_left.png,7,Community 1,NA,TRUE,f,f,NA,NA,NA,1,6,"4,15,7,14,12,3,6,5,13,11,9,8,2,10,1"
15009,commdev-image-keyboard-response,294,784465,learnblock1,681.8000030517578,img/planet14_left.png,14,Community 1,NA,TRUE,f,f,NA,NA,NA,1,6,"4,15,7,14,12,3,6,5,13,11,9,8,2,10,1"
15009,commdev-image-keyboard-response,295,785724,learnblock1,538.5,img/planet7_left.png,7,Community 1,NA,TRUE,f,f,NA,NA,NA,1,6,"4,15,7,14,12,3,6,5,13,11,9,8,2,10,1"
15009,commdev-image-keyboard-response,296,786980,learnblock1,512,img/planet15_left.png,15,Community 1,NA,TRUE,f,f,NA,NA,NA,1,6,"4,15,7,14,12,3,6,5,13,11,9,8,2,10,1"
15009,commdev-image-keyboard-response,297,788238,learnblock1,553,img/planet12_right.png,12,Community 1,NA,TRUE,j,j,NA,NA,NA,1,6,"4,15,7,14,12,3,6,5,13,11,9,8,2,10,1"
15009,commdev-image-keyboard-response,298,789494,learnblock1,531,img/planet9_right.png,9,Community 3,NA,TRUE,j,j,NA,NA,NA,1,6,"4,15,7,14,12,3,6,5,13,11,9,8,2,10,1"
15009,commdev-image-keyboard-response,299,790749,learnblock1,577.8000030517578,img/planet2_left.png,2,Community 3,NA,TRUE,f,f,NA,NA,NA,1,6,"4,15,7,14,12,3,6,5,13,11,9,8,2,10,1"
15009,commdev-image-keyboard-response,300,792006,learnblock1,520.2999954223633,img/planet1_left.png,1,Community 3,NA,TRUE,f,f,NA,NA,NA,1,6,"4,15,7,14,12,3,6,5,13,11,9,8,2,10,1"
15009,commdev-image-keyboard-response,301,793263,learnblock1,478.7999954223633,img/planet10_left.png,10,Community 3,NA,TRUE,f,f,NA,NA,NA,1,6,"4,15,7,14,12,3,6,5,13,11,9,8,2,10,1"
15009,commdev-image-keyboard-response,302,794527,learnblock1,492.5999984741211,img/planet9_right.png,9,Community 3,NA,TRUE,j,j,NA,NA,NA,1,6,"4,15,7,14,12,3,6,5,13,11,9,8,2,10,1"
15009,commdev-image-keyboard-response,303,795784,learnblock1,465.5,img/planet2_right.png,2,Community 3,NA,TRUE,j,j,NA,NA,NA,1,6,"4,15,7,14,12,3,6,5,13,11,9,8,2,10,1"
15009,commdev-image-keyboard-response,304,797045,learnblock1,589.1999969482422,img/planet8_right.png,8,Community 3,NA,TRUE,j,j,NA,NA,NA,1,6,"4,15,7,14,12,3,6,5,13,11,9,8,2,10,1"
15009,commdev-image-keyboard-response,305,798309,learnblock1,520,img/planet1_right.png,1,Community 3,NA,TRUE,j,j,NA,NA,NA,1,6,"4,15,7,14,12,3,6,5,13,11,9,8,2,10,1"
15009,commdev-image-keyboard-response,306,799566,learnblock1,441.2999954223633,img/planet10_right.png,10,Community 3,NA,TRUE,j,j,NA,NA,NA,1,6,"4,15,7,14,12,3,6,5,13,11,9,8,2,10,1"
15009,commdev-image-keyboard-response,307,800824,learnblock1,526.2000045776367,img/planet2_left.png,2,Community 3,NA,TRUE,f,f,NA,NA,NA,1,6,"4,15,7,14,12,3,6,5,13,11,9,8,2,10,1"
15009,commdev-image-keyboard-response,308,802077,learnblock1,509.1000061035156,img/planet1_right.png,1,Community 3,NA,TRUE,j,j,NA,NA,NA,1,6,"4,15,7,14,12,3,6,5,13,11,9,8,2,10,1"
15009,commdev-image-keyboard-response,309,803347,learnblock1,528,img/planet10_right.png,10,Community 3,NA,FALSE,f,j,NA,NA,NA,1,6,"4,15,7,14,12,3,6,5,13,11,9,8,2,10,1"
15009,commdev-image-keyboard-response,310,804608,learnblock1,659.4000015258789,img/planet2_right.png,2,Community 3,NA,TRUE,j,j,NA,NA,NA,1,6,"4,15,7,14,12,3,6,5,13,11,9,8,2,10,1"
15009,commdev-image-keyboard-response,311,805874,learnblock1,583.1000061035156,img/planet10_left.png,10,Community 3,NA,TRUE,f,f,NA,NA,NA,1,6,"4,15,7,14,12,3,6,5,13,11,9,8,2,10,1"
15009,commdev-image-keyboard-response,312,807134,learnblock1,488.5,img/planet2_left.png,2,Community 3,NA,TRUE,f,f,NA,NA,NA,1,6,"4,15,7,14,12,3,6,5,13,11,9,8,2,10,1"
15009,commdev-image-keyboard-response,313,808398,learnblock1,488.4000015258789,img/planet9_right.png,9,Community 3,NA,TRUE,j,j,NA,NA,NA,1,6,"4,15,7,14,12,3,6,5,13,11,9,8,2,10,1"
15009,commdev-image-keyboard-response,314,809655,learnblock1,470.8999938964844,img/planet10_right.png,10,Community 3,NA,TRUE,j,j,NA,NA,NA,1,6,"4,15,7,14,12,3,6,5,13,11,9,8,2,10,1"
15009,commdev-image-keyboard-response,315,810912,learnblock1,584.4000015258789,img/planet1_left.png,1,Community 3,NA,TRUE,f,f,NA,NA,NA,1,6,"4,15,7,14,12,3,6,5,13,11,9,8,2,10,1"
15009,commdev-image-keyboard-response,316,812179,learnblock1,600,img/planet9_left.png,9,Community 3,NA,TRUE,f,f,NA,NA,NA,1,6,"4,15,7,14,12,3,6,5,13,11,9,8,2,10,1"
15009,commdev-image-keyboard-response,317,813436,learnblock1,618,img/planet12_left.png,12,Community 1,NA,TRUE,f,f,NA,NA,NA,1,6,"4,15,7,14,12,3,6,5,13,11,9,8,2,10,1"
15009,commdev-image-keyboard-response,318,814699,learnblock1,496.7999954223633,img/planet9_right.png,9,Community 3,NA,TRUE,j,j,NA,NA,NA,1,6,"4,15,7,14,12,3,6,5,13,11,9,8,2,10,1"
15009,commdev-image-keyboard-response,319,815963,learnblock1,519.8000030517578,img/planet2_left.png,2,Community 3,NA,TRUE,f,f,NA,NA,NA,1,6,"4,15,7,14,12,3,6,5,13,11,9,8,2,10,1"
15009,commdev-image-keyboard-response,320,817222,learnblock1,462.8000030517578,img/planet1_right.png,1,Community 3,NA,TRUE,j,j,NA,NA,NA,1,6,"4,15,7,14,12,3,6,5,13,11,9,8,2,10,1"
15009,commdev-image-keyboard-response,321,818480,learnblock1,523.8000030517578,img/planet2_left.png,2,Community 3,NA,TRUE,f,f,NA,NA,NA,1,6,"4,15,7,14,12,3,6,5,13,11,9,8,2,10,1"
15009,commdev-image-keyboard-response,322,819736,learnblock1,417.4000015258789,img/planet10_left.png,10,Community 3,NA,TRUE,f,f,NA,NA,NA,1,6,"4,15,7,14,12,3,6,5,13,11,9,8,2,10,1"
15009,commdev-image-keyboard-response,323,820997,learnblock1,612,img/planet8_left.png,8,Community 3,NA,TRUE,f,f,NA,NA,NA,1,6,"4,15,7,14,12,3,6,5,13,11,9,8,2,10,1"
15009,commdev-image-keyboard-response,324,822255,learnblock1,527.9000015258789,img/planet1_right.png,1,Community 3,NA,TRUE,j,j,NA,NA,NA,1,6,"4,15,7,14,12,3,6,5,13,11,9,8,2,10,1"
15009,commdev-image-keyboard-response,325,823507,learnblock1,600.9000015258789,img/planet8_left.png,8,Community 3,NA,TRUE,f,f,NA,NA,NA,1,6,"4,15,7,14,12,3,6,5,13,11,9,8,2,10,1"
15009,commdev-image-keyboard-response,326,824771,learnblock1,531.0999984741211,img/planet1_left.png,1,Community 3,NA,TRUE,f,f,NA,NA,NA,1,6,"4,15,7,14,12,3,6,5,13,11,9,8,2,10,1"
15009,commdev-image-keyboard-response,327,826028,learnblock1,506.8000030517578,img/planet2_right.png,2,Community 3,NA,TRUE,j,j,NA,NA,NA,1,6,"4,15,7,14,12,3,6,5,13,11,9,8,2,10,1"
15009,commdev-image-keyboard-response,328,827290,learnblock1,455.1000061035156,img/planet10_right.png,10,Community 3,NA,TRUE,j,j,NA,NA,NA,1,6,"4,15,7,14,12,3,6,5,13,11,9,8,2,10,1"
15009,commdev-image-keyboard-response,329,828549,learnblock1,520.2999954223633,img/planet8_right.png,8,Community 3,NA,TRUE,j,j,NA,NA,NA,1,6,"4,15,7,14,12,3,6,5,13,11,9,8,2,10,1"
15009,commdev-image-keyboard-response,330,829809,learnblock1,433.5999984741211,img/planet2_right.png,2,Community 3,NA,TRUE,j,j,NA,NA,NA,1,6,"4,15,7,14,12,3,6,5,13,11,9,8,2,10,1"
15009,commdev-image-keyboard-response,331,831062,learnblock1,522.5999984741211,img/planet1_right.png,1,Community 3,NA,TRUE,j,j,NA,NA,NA,1,6,"4,15,7,14,12,3,6,5,13,11,9,8,2,10,1"
15009,commdev-image-keyboard-response,332,832319,learnblock1,456,img/planet2_right.png,2,Community 3,NA,TRUE,j,j,NA,NA,NA,1,6,"4,15,7,14,12,3,6,5,13,11,9,8,2,10,1"
15009,commdev-image-keyboard-response,333,833581,learnblock1,516.2000045776367,img/planet10_left.png,10,Community 3,NA,TRUE,f,f,NA,NA,NA,1,6,"4,15,7,14,12,3,6,5,13,11,9,8,2,10,1"
15009,commdev-image-keyboard-response,334,834837,learnblock1,510.9000015258789,img/planet8_right.png,8,Community 3,NA,TRUE,j,j,NA,NA,NA,1,6,"4,15,7,14,12,3,6,5,13,11,9,8,2,10,1"
15009,commdev-image-keyboard-response,335,836091,learnblock1,601.4000015258789,img/planet5_left.png,5,Community 2,NA,TRUE,f,f,NA,NA,NA,1,6,"4,15,7,14,12,3,6,5,13,11,9,8,2,10,1"
15009,commdev-image-keyboard-response,336,837348,learnblock1,636.7000045776367,img/planet11_left.png,11,Community 2,NA,TRUE,f,f,NA,NA,NA,1,6,"4,15,7,14,12,3,6,5,13,11,9,8,2,10,1"
15009,commdev-image-keyboard-response,337,838613,learnblock1,680.0999984741211,img/planet6_left.png,6,Community 2,NA,TRUE,f,f,NA,NA,NA,1,6,"4,15,7,14,12,3,6,5,13,11,9,8,2,10,1"
15009,commdev-image-keyboard-response,338,839871,learnblock1,571.5999984741211,img/planet13_left.png,13,Community 2,NA,TRUE,f,f,NA,NA,NA,1,6,"4,15,7,14,12,3,6,5,13,11,9,8,2,10,1"
15009,commdev-image-keyboard-response,339,841135,learnblock1,584.1000061035156,img/planet6_right.png,6,Community 2,NA,TRUE,j,j,NA,NA,NA,1,6,"4,15,7,14,12,3,6,5,13,11,9,8,2,10,1"
15009,commdev-image-keyboard-response,340,842396,learnblock1,616,img/planet3_right.png,3,Community 2,NA,TRUE,j,j,NA,NA,NA,1,6,"4,15,7,14,12,3,6,5,13,11,9,8,2,10,1"
15009,commdev-image-keyboard-response,341,843655,learnblock1,533,img/planet6_right.png,6,Community 2,NA,TRUE,j,j,NA,NA,NA,1,6,"4,15,7,14,12,3,6,5,13,11,9,8,2,10,1"
15009,commdev-image-keyboard-response,342,844916,learnblock1,623.7999954223633,img/planet5_left.png,5,Community 2,NA,TRUE,f,f,NA,NA,NA,1,6,"4,15,7,14,12,3,6,5,13,11,9,8,2,10,1"
15009,commdev-image-keyboard-response,343,846182,learnblock1,597.6000061035156,img/planet6_right.png,6,Community 2,NA,TRUE,j,j,NA,NA,NA,1,6,"4,15,7,14,12,3,6,5,13,11,9,8,2,10,1"
15009,commdev-image-keyboard-response,344,847438,learnblock1,633.0999984741211,img/planet11_right.png,11,Community 2,NA,TRUE,j,j,NA,NA,NA,1,6,"4,15,7,14,12,3,6,5,13,11,9,8,2,10,1"
15009,commdev-image-keyboard-response,345,848698,learnblock1,516.4000015258789,img/planet6_right.png,6,Community 2,NA,TRUE,j,j,NA,NA,NA,1,6,"4,15,7,14,12,3,6,5,13,11,9,8,2,10,1"
15009,commdev-image-keyboard-response,346,849957,learnblock1,615.3000030517578,img/planet3_right.png,3,Community 2,NA,TRUE,j,j,NA,NA,NA,1,6,"4,15,7,14,12,3,6,5,13,11,9,8,2,10,1"
15009,commdev-image-keyboard-response,347,851211,learnblock1,620.8999938964844,img/planet13_left.png,13,Community 2,NA,TRUE,f,f,NA,NA,NA,1,6,"4,15,7,14,12,3,6,5,13,11,9,8,2,10,1"
15009,commdev-image-keyboard-response,348,852464,learnblock1,528.7999954223633,img/planet3_right.png,3,Community 2,NA,TRUE,j,j,NA,NA,NA,1,6,"4,15,7,14,12,3,6,5,13,11,9,8,2,10,1"
15009,commdev-image-keyboard-response,349,853724,learnblock1,557.3000030517578,img/planet14_right.png,14,Community 1,NA,TRUE,j,j,NA,NA,NA,1,6,"4,15,7,14,12,3,6,5,13,11,9,8,2,10,1"
15009,commdev-image-keyboard-response,350,854986,learnblock1,607.8999938964844,img/planet7_left.png,7,Community 1,NA,TRUE,f,f,NA,NA,NA,1,6,"4,15,7,14,12,3,6,5,13,11,9,8,2,10,1"
15009,commdev-image-keyboard-response,351,856247,learnblock1,556.1999969482422,img/planet14_right.png,14,Community 1,NA,TRUE,j,j,NA,NA,NA,1,6,"4,15,7,14,12,3,6,5,13,11,9,8,2,10,1"
15009,commdev-image-keyboard-response,352,857506,learnblock1,557.9000015258789,img/planet7_right.png,7,Community 1,NA,TRUE,j,j,NA,NA,NA,1,6,"4,15,7,14,12,3,6,5,13,11,9,8,2,10,1"
15009,commdev-image-keyboard-response,353,858767,learnblock1,544.3000030517578,img/planet12_right.png,12,Community 1,NA,TRUE,j,j,NA,NA,NA,1,6,"4,15,7,14,12,3,6,5,13,11,9,8,2,10,1"
15009,commdev-image-keyboard-response,354,860023,learnblock1,554.6999969482422,img/planet15_left.png,15,Community 1,NA,TRUE,f,f,NA,NA,NA,1,6,"4,15,7,14,12,3,6,5,13,11,9,8,2,10,1"
15009,commdev-image-keyboard-response,355,861282,learnblock1,554.5,img/planet4_right.png,4,Community 1,NA,TRUE,j,j,NA,NA,NA,1,6,"4,15,7,14,12,3,6,5,13,11,9,8,2,10,1"
15009,commdev-image-keyboard-response,356,862546,learnblock1,696.3999938964844,img/planet14_left.png,14,Community 1,NA,TRUE,f,f,NA,NA,NA,1,6,"4,15,7,14,12,3,6,5,13,11,9,8,2,10,1"
15009,commdev-image-keyboard-response,357,863810,learnblock1,539,img/planet4_left.png,4,Community 1,NA,TRUE,f,f,NA,NA,NA,1,6,"4,15,7,14,12,3,6,5,13,11,9,8,2,10,1"
15009,commdev-image-keyboard-response,358,865070,learnblock1,546.1000061035156,img/planet14_left.png,14,Community 1,NA,TRUE,f,f,NA,NA,NA,1,6,"4,15,7,14,12,3,6,5,13,11,9,8,2,10,1"
15009,commdev-image-keyboard-response,359,866326,learnblock1,606,img/planet3_left.png,3,Community 2,NA,TRUE,f,f,NA,NA,NA,1,6,"4,15,7,14,12,3,6,5,13,11,9,8,2,10,1"
15009,commdev-image-keyboard-response,360,867585,learnblock1,562.5,img/planet11_right.png,11,Community 2,NA,TRUE,j,j,NA,NA,NA,1,6,"4,15,7,14,12,3,6,5,13,11,9,8,2,10,1"
15009,commdev-image-keyboard-response,361,868841,learnblock1,523.9000015258789,img/planet13_right.png,13,Community 2,NA,TRUE,j,j,NA,NA,NA,1,6,"4,15,7,14,12,3,6,5,13,11,9,8,2,10,1"
15009,commdev-image-keyboard-response,362,870097,learnblock1,608.2000045776367,img/planet3_left.png,3,Community 2,NA,TRUE,f,f,NA,NA,NA,1,6,"4,15,7,14,12,3,6,5,13,11,9,8,2,10,1"
15009,commdev-image-keyboard-response,363,871351,learnblock1,528.9000015258789,img/planet13_right.png,13,Community 2,NA,TRUE,j,j,NA,NA,NA,1,6,"4,15,7,14,12,3,6,5,13,11,9,8,2,10,1"
15009,commdev-image-keyboard-response,364,872608,learnblock1,525.8000030517578,img/planet3_left.png,3,Community 2,NA,TRUE,f,f,NA,NA,NA,1,6,"4,15,7,14,12,3,6,5,13,11,9,8,2,10,1"
15009,commdev-image-keyboard-response,365,873864,learnblock1,315.1999969482422,img/planet6_left.png,6,Community 2,NA,FALSE,j,f,NA,NA,NA,1,6,"4,15,7,14,12,3,6,5,13,11,9,8,2,10,1"
15009,commdev-image-keyboard-response,366,875122,learnblock1,526.0999984741211,img/planet3_right.png,3,Community 2,NA,TRUE,j,j,NA,NA,NA,1,6,"4,15,7,14,12,3,6,5,13,11,9,8,2,10,1"
15009,commdev-image-keyboard-response,367,876382,learnblock1,539.9000015258789,img/planet6_left.png,6,Community 2,NA,TRUE,f,f,NA,NA,NA,1,6,"4,15,7,14,12,3,6,5,13,11,9,8,2,10,1"
15009,commdev-image-keyboard-response,368,877641,learnblock1,593.8000030517578,img/planet5_left.png,5,Community 2,NA,TRUE,f,f,NA,NA,NA,1,6,"4,15,7,14,12,3,6,5,13,11,9,8,2,10,1"
15009,commdev-image-keyboard-response,369,878900,learnblock1,570.2999954223633,img/planet13_right.png,13,Community 2,NA,TRUE,j,j,NA,NA,NA,1,6,"4,15,7,14,12,3,6,5,13,11,9,8,2,10,1"
15009,commdev-image-keyboard-response,370,880158,learnblock1,528.3999938964844,img/planet6_right.png,6,Community 2,NA,TRUE,j,j,NA,NA,NA,1,6,"4,15,7,14,12,3,6,5,13,11,9,8,2,10,1"
15009,commdev-image-keyboard-response,371,881426,learnblock1,534.7000045776367,img/planet13_right.png,13,Community 2,NA,TRUE,j,j,NA,NA,NA,1,6,"4,15,7,14,12,3,6,5,13,11,9,8,2,10,1"
15009,commdev-image-keyboard-response,372,882679,learnblock1,589,img/planet5_right.png,5,Community 2,NA,TRUE,j,j,NA,NA,NA,1,6,"4,15,7,14,12,3,6,5,13,11,9,8,2,10,1"
15009,commdev-image-keyboard-response,373,883938,learnblock1,618.5,img/planet13_left.png,13,Community 2,NA,TRUE,f,f,NA,NA,NA,1,6,"4,15,7,14,12,3,6,5,13,11,9,8,2,10,1"
15009,commdev-image-keyboard-response,374,885200,learnblock1,524.6999969482422,img/planet6_right.png,6,Community 2,NA,TRUE,j,j,NA,NA,NA,1,6,"4,15,7,14,12,3,6,5,13,11,9,8,2,10,1"
15009,commdev-image-keyboard-response,375,886456,learnblock1,614.1000061035156,img/planet11_left.png,11,Community 2,NA,TRUE,f,f,NA,NA,NA,1,6,"4,15,7,14,12,3,6,5,13,11,9,8,2,10,1"
15009,commdev-image-keyboard-response,376,887717,learnblock1,627.3999938964844,img/planet3_right.png,3,Community 2,NA,TRUE,j,j,NA,NA,NA,1,6,"4,15,7,14,12,3,6,5,13,11,9,8,2,10,1"
15009,commdev-image-keyboard-response,377,888979,learnblock1,563.3000030517578,img/planet6_left.png,6,Community 2,NA,TRUE,f,f,NA,NA,NA,1,6,"4,15,7,14,12,3,6,5,13,11,9,8,2,10,1"
15009,commdev-image-keyboard-response,378,890235,learnblock1,579.2000045776367,img/planet3_left.png,3,Community 2,NA,TRUE,f,f,NA,NA,NA,1,6,"4,15,7,14,12,3,6,5,13,11,9,8,2,10,1"
15009,commdev-image-keyboard-response,379,891493,learnblock1,564.6999969482422,img/planet14_left.png,14,Community 1,NA,TRUE,f,f,NA,NA,NA,1,6,"4,15,7,14,12,3,6,5,13,11,9,8,2,10,1"
15009,commdev-image-keyboard-response,380,892749,learnblock1,630.0999984741211,img/planet15_left.png,15,Community 1,NA,TRUE,f,f,NA,NA,NA,1,6,"4,15,7,14,12,3,6,5,13,11,9,8,2,10,1"
15009,commdev-image-keyboard-response,381,894008,learnblock1,620.2999954223633,img/planet12_right.png,12,Community 1,NA,TRUE,j,j,NA,NA,NA,1,6,"4,15,7,14,12,3,6,5,13,11,9,8,2,10,1"
15009,commdev-image-keyboard-response,382,895263,learnblock1,542.8000030517578,img/planet9_left.png,9,Community 3,NA,TRUE,f,f,NA,NA,NA,1,6,"4,15,7,14,12,3,6,5,13,11,9,8,2,10,1"
15009,commdev-image-keyboard-response,383,896520,learnblock1,568.7999954223633,img/planet1_right.png,1,Community 3,NA,TRUE,j,j,NA,NA,NA,1,6,"4,15,7,14,12,3,6,5,13,11,9,8,2,10,1"
15009,commdev-image-keyboard-response,384,897773,learnblock1,527.9000015258789,img/planet10_left.png,10,Community 3,NA,TRUE,f,f,NA,NA,NA,1,6,"4,15,7,14,12,3,6,5,13,11,9,8,2,10,1"
15009,commdev-image-keyboard-response,385,899025,learnblock1,540.5999984741211,img/planet9_right.png,9,Community 3,NA,TRUE,j,j,NA,NA,NA,1,6,"4,15,7,14,12,3,6,5,13,11,9,8,2,10,1"
15009,commdev-image-keyboard-response,386,900285,learnblock1,559.8000030517578,img/planet1_right.png,1,Community 3,NA,TRUE,j,j,NA,NA,NA,1,6,"4,15,7,14,12,3,6,5,13,11,9,8,2,10,1"
15009,commdev-image-keyboard-response,387,901543,learnblock1,610.3999938964844,img/planet8_right.png,8,Community 3,NA,TRUE,j,j,NA,NA,NA,1,6,"4,15,7,14,12,3,6,5,13,11,9,8,2,10,1"
15009,commdev-image-keyboard-response,388,902796,learnblock1,552.6999969482422,img/planet2_right.png,2,Community 3,NA,TRUE,j,j,NA,NA,NA,1,6,"4,15,7,14,12,3,6,5,13,11,9,8,2,10,1"
15009,commdev-image-keyboard-response,389,904062,learnblock1,551.4000015258789,img/planet1_right.png,1,Community 3,NA,TRUE,j,j,NA,NA,NA,1,6,"4,15,7,14,12,3,6,5,13,11,9,8,2,10,1"
15009,commdev-image-keyboard-response,390,905322,learnblock1,546.5,img/planet10_left.png,10,Community 3,NA,TRUE,f,f,NA,NA,NA,1,6,"4,15,7,14,12,3,6,5,13,11,9,8,2,10,1"
15009,commdev-image-keyboard-response,391,906581,learnblock1,434.2000045776367,img/planet9_left.png,9,Community 3,NA,TRUE,f,f,NA,NA,NA,1,6,"4,15,7,14,12,3,6,5,13,11,9,8,2,10,1"
15009,commdev-image-keyboard-response,392,907838,learnblock1,569.8999938964844,img/planet12_left.png,12,Community 1,NA,TRUE,f,f,NA,NA,NA,1,6,"4,15,7,14,12,3,6,5,13,11,9,8,2,10,1"
15009,commdev-image-keyboard-response,393,909098,learnblock1,558.3000030517578,img/planet4_right.png,4,Community 1,NA,TRUE,j,j,NA,NA,NA,1,6,"4,15,7,14,12,3,6,5,13,11,9,8,2,10,1"
15009,commdev-image-keyboard-response,394,910357,learnblock1,652.6999969482422,img/planet14_left.png,14,Community 1,NA,TRUE,f,f,NA,NA,NA,1,6,"4,15,7,14,12,3,6,5,13,11,9,8,2,10,1"
15009,commdev-image-keyboard-response,395,911619,learnblock1,621.5,img/planet15_right.png,15,Community 1,NA,TRUE,j,j,NA,NA,NA,1,6,"4,15,7,14,12,3,6,5,13,11,9,8,2,10,1"
15009,commdev-image-keyboard-response,396,912873,learnblock1,533.5999984741211,img/planet12_left.png,12,Community 1,NA,TRUE,f,f,NA,NA,NA,1,6,"4,15,7,14,12,3,6,5,13,11,9,8,2,10,1"
15009,commdev-image-keyboard-response,397,914131,learnblock1,537,img/planet9_left.png,9,Community 3,NA,TRUE,f,f,NA,NA,NA,1,6,"4,15,7,14,12,3,6,5,13,11,9,8,2,10,1"
15009,commdev-image-keyboard-response,398,915399,learnblock1,541.8000030517578,img/planet1_left.png,1,Community 3,NA,TRUE,f,f,NA,NA,NA,1,6,"4,15,7,14,12,3,6,5,13,11,9,8,2,10,1"
15009,commdev-image-keyboard-response,399,916659,learnblock1,666.6000061035156,img/planet8_right.png,8,Community 3,NA,TRUE,j,j,NA,NA,NA,1,6,"4,15,7,14,12,3,6,5,13,11,9,8,2,10,1"
15009,commdev-image-keyboard-response,400,917913,learnblock1,628,img/planet5_right.png,5,Community 2,NA,TRUE,j,j,NA,NA,NA,1,6,"4,15,7,14,12,3,6,5,13,11,9,8,2,10,1"
15009,commdev-image-keyboard-response,401,919165,learnblock1,536.7000045776367,img/planet13_left.png,13,Community 2,NA,TRUE,f,f,NA,NA,NA,1,6,"4,15,7,14,12,3,6,5,13,11,9,8,2,10,1"
15009,commdev-image-keyboard-response,402,920421,learnblock1,668.3000030517578,img/planet6_right.png,6,Community 2,NA,TRUE,j,j,NA,NA,NA,1,6,"4,15,7,14,12,3,6,5,13,11,9,8,2,10,1"
15009,commdev-image-keyboard-response,403,921674,learnblock1,564.6999969482422,img/planet3_left.png,3,Community 2,NA,FALSE,j,f,NA,NA,NA,1,6,"4,15,7,14,12,3,6,5,13,11,9,8,2,10,1"
15009,commdev-image-keyboard-response,404,922932,learnblock1,600.8000030517578,img/planet11_right.png,11,Community 2,NA,TRUE,j,j,NA,NA,NA,1,6,"4,15,7,14,12,3,6,5,13,11,9,8,2,10,1"
15009,commdev-image-keyboard-response,405,924199,learnblock1,629.8000030517578,img/planet6_left.png,6,Community 2,NA,TRUE,f,f,NA,NA,NA,1,6,"4,15,7,14,12,3,6,5,13,11,9,8,2,10,1"
15009,commdev-image-keyboard-response,406,925454,learnblock1,520.5999984741211,img/planet3_right.png,3,Community 2,NA,TRUE,j,j,NA,NA,NA,1,6,"4,15,7,14,12,3,6,5,13,11,9,8,2,10,1"
15009,commdev-image-keyboard-response,407,926714,learnblock1,522.1999969482422,img/planet11_right.png,11,Community 2,NA,FALSE,f,j,NA,NA,NA,1,6,"4,15,7,14,12,3,6,5,13,11,9,8,2,10,1"
15009,commdev-image-keyboard-response,408,927980,learnblock1,476,img/planet6_left.png,6,Community 2,NA,TRUE,f,f,NA,NA,NA,1,6,"4,15,7,14,12,3,6,5,13,11,9,8,2,10,1"
15009,commdev-image-keyboard-response,409,929234,learnblock1,555.7999954223633,img/planet13_right.png,13,Community 2,NA,TRUE,j,j,NA,NA,NA,1,6,"4,15,7,14,12,3,6,5,13,11,9,8,2,10,1"
15009,commdev-image-keyboard-response,410,930487,learnblock1,470.1999969482422,img/planet6_right.png,6,Community 2,NA,TRUE,j,j,NA,NA,NA,1,6,"4,15,7,14,12,3,6,5,13,11,9,8,2,10,1"
15009,commdev-image-keyboard-response,411,931741,learnblock1,547.1999969482422,img/planet11_left.png,11,Community 2,NA,TRUE,f,f,NA,NA,NA,1,6,"4,15,7,14,12,3,6,5,13,11,9,8,2,10,1"
15009,commdev-image-keyboard-response,412,933000,learnblock1,555.7999954223633,img/planet13_left.png,13,Community 2,NA,TRUE,f,f,NA,NA,NA,1,6,"4,15,7,14,12,3,6,5,13,11,9,8,2,10,1"
15009,commdev-image-keyboard-response,413,934256,learnblock1,560.5999984741211,img/planet11_left.png,11,Community 2,NA,TRUE,f,f,NA,NA,NA,1,6,"4,15,7,14,12,3,6,5,13,11,9,8,2,10,1"
15009,commdev-image-keyboard-response,414,935516,learnblock1,596.0999984741211,img/planet6_left.png,6,Community 2,NA,TRUE,f,f,NA,NA,NA,1,6,"4,15,7,14,12,3,6,5,13,11,9,8,2,10,1"
15009,commdev-image-keyboard-response,415,936775,learnblock1,602.5,img/planet5_right.png,5,Community 2,NA,TRUE,j,j,NA,NA,NA,1,6,"4,15,7,14,12,3,6,5,13,11,9,8,2,10,1"
15009,commdev-image-keyboard-response,416,938031,learnblock1,547.3000030517578,img/planet13_right.png,13,Community 2,NA,TRUE,j,j,NA,NA,NA,1,6,"4,15,7,14,12,3,6,5,13,11,9,8,2,10,1"
15009,commdev-image-keyboard-response,417,939290,learnblock1,588.5,img/planet5_right.png,5,Community 2,NA,TRUE,j,j,NA,NA,NA,1,6,"4,15,7,14,12,3,6,5,13,11,9,8,2,10,1"
15009,commdev-image-keyboard-response,418,940555,learnblock1,580,img/planet11_left.png,11,Community 2,NA,TRUE,f,f,NA,NA,NA,1,6,"4,15,7,14,12,3,6,5,13,11,9,8,2,10,1"
15009,commdev-image-keyboard-response,419,941810,learnblock1,589.6000061035156,img/planet6_left.png,6,Community 2,NA,TRUE,f,f,NA,NA,NA,1,6,"4,15,7,14,12,3,6,5,13,11,9,8,2,10,1"
15009,commdev-image-keyboard-response,420,943071,learnblock1,631.8999938964844,img/planet13_left.png,13,Community 2,NA,TRUE,f,f,NA,NA,NA,1,6,"4,15,7,14,12,3,6,5,13,11,9,8,2,10,1"
15009,commdev-image-keyboard-response,421,944337,learnblock1,608,img/planet3_left.png,3,Community 2,NA,TRUE,f,f,NA,NA,NA,1,6,"4,15,7,14,12,3,6,5,13,11,9,8,2,10,1"
15009,commdev-image-keyboard-response,422,945595,learnblock1,626.7999954223633,img/planet6_left.png,6,Community 2,NA,TRUE,f,f,NA,NA,NA,1,6,"4,15,7,14,12,3,6,5,13,11,9,8,2,10,1"
15009,commdev-image-keyboard-response,423,946851,learnblock1,605.1000061035156,img/planet13_right.png,13,Community 2,NA,TRUE,j,j,NA,NA,NA,1,6,"4,15,7,14,12,3,6,5,13,11,9,8,2,10,1"
15009,commdev-image-keyboard-response,424,948112,learnblock1,543.7000045776367,img/planet11_right.png,11,Community 2,NA,TRUE,j,j,NA,NA,NA,1,6,"4,15,7,14,12,3,6,5,13,11,9,8,2,10,1"
15009,commdev-image-keyboard-response,425,949366,learnblock1,411.3000030517578,img/planet3_right.png,3,Community 2,NA,TRUE,j,j,NA,NA,NA,1,6,"4,15,7,14,12,3,6,5,13,11,9,8,2,10,1"
15009,commdev-image-keyboard-response,426,950634,learnblock1,590.0999984741211,img/planet6_left.png,6,Community 2,NA,TRUE,f,f,NA,NA,NA,1,6,"4,15,7,14,12,3,6,5,13,11,9,8,2,10,1"
15009,commdev-image-keyboard-response,427,951889,learnblock1,554,img/planet5_left.png,5,Community 2,NA,TRUE,f,f,NA,NA,NA,1,6,"4,15,7,14,12,3,6,5,13,11,9,8,2,10,1"
15009,commdev-image-keyboard-response,428,953154,learnblock1,531,img/planet6_right.png,6,Community 2,NA,TRUE,j,j,NA,NA,NA,1,6,"4,15,7,14,12,3,6,5,13,11,9,8,2,10,1"
15009,commdev-image-keyboard-response,429,954411,learnblock1,549,img/planet11_right.png,11,Community 2,NA,TRUE,j,j,NA,NA,NA,1,6,"4,15,7,14,12,3,6,5,13,11,9,8,2,10,1"
15009,commdev-image-keyboard-response,430,955669,learnblock1,600.0999984741211,img/planet13_right.png,13,Community 2,NA,TRUE,j,j,NA,NA,NA,1,6,"4,15,7,14,12,3,6,5,13,11,9,8,2,10,1"
15009,commdev-image-keyboard-response,431,956929,learnblock1,562.7999954223633,img/planet3_right.png,3,Community 2,NA,TRUE,j,j,NA,NA,NA,1,6,"4,15,7,14,12,3,6,5,13,11,9,8,2,10,1"
15009,commdev-image-keyboard-response,432,958187,learnblock1,604,img/planet13_left.png,13,Community 2,NA,TRUE,f,f,NA,NA,NA,1,6,"4,15,7,14,12,3,6,5,13,11,9,8,2,10,1"
15009,commdev-image-keyboard-response,433,959451,learnblock1,592,img/planet5_left.png,5,Community 2,NA,TRUE,f,f,NA,NA,NA,1,6,"4,15,7,14,12,3,6,5,13,11,9,8,2,10,1"
15009,commdev-image-keyboard-response,434,960707,learnblock1,642.6999969482422,img/planet13_right.png,13,Community 2,NA,TRUE,j,j,NA,NA,NA,1,6,"4,15,7,14,12,3,6,5,13,11,9,8,2,10,1"
15009,commdev-image-keyboard-response,435,961964,learnblock1,598.8000030517578,img/planet3_right.png,3,Community 2,NA,TRUE,j,j,NA,NA,NA,1,6,"4,15,7,14,12,3,6,5,13,11,9,8,2,10,1"
15009,commdev-image-keyboard-response,436,963227,learnblock1,620.8000030517578,img/planet11_left.png,11,Community 2,NA,TRUE,f,f,NA,NA,NA,1,6,"4,15,7,14,12,3,6,5,13,11,9,8,2,10,1"
15009,commdev-image-keyboard-response,437,964485,learnblock1,559.2999954223633,img/planet5_left.png,5,Community 2,NA,TRUE,f,f,NA,NA,NA,1,6,"4,15,7,14,12,3,6,5,13,11,9,8,2,10,1"
15009,commdev-image-keyboard-response,438,965743,learnblock1,523.6999969482422,img/planet11_right.png,11,Community 2,NA,TRUE,j,j,NA,NA,NA,1,6,"4,15,7,14,12,3,6,5,13,11,9,8,2,10,1"
15009,commdev-image-keyboard-response,439,966997,learnblock1,568.6000061035156,img/planet3_left.png,3,Community 2,NA,TRUE,f,f,NA,NA,NA,1,6,"4,15,7,14,12,3,6,5,13,11,9,8,2,10,1"
15009,commdev-image-keyboard-response,440,968253,learnblock1,543.1999969482422,img/planet13_right.png,13,Community 2,NA,TRUE,j,j,NA,NA,NA,1,6,"4,15,7,14,12,3,6,5,13,11,9,8,2,10,1"
15009,commdev-image-keyboard-response,441,969505,learnblock1,552.5999984741211,img/planet3_right.png,3,Community 2,NA,TRUE,j,j,NA,NA,NA,1,6,"4,15,7,14,12,3,6,5,13,11,9,8,2,10,1"
15009,commdev-image-keyboard-response,442,970763,learnblock1,591.5999984741211,img/planet14_left.png,14,Community 1,NA,TRUE,f,f,NA,NA,NA,1,6,"4,15,7,14,12,3,6,5,13,11,9,8,2,10,1"
15009,commdev-image-keyboard-response,443,972024,learnblock1,588.2999954223633,img/planet4_left.png,4,Community 1,NA,TRUE,f,f,NA,NA,NA,1,6,"4,15,7,14,12,3,6,5,13,11,9,8,2,10,1"
15009,commdev-image-keyboard-response,444,973276,learnblock1,650.3000030517578,img/planet15_right.png,15,Community 1,NA,TRUE,j,j,NA,NA,NA,1,6,"4,15,7,14,12,3,6,5,13,11,9,8,2,10,1"
15009,commdev-image-keyboard-response,445,974532,learnblock1,813.9000015258789,img/planet4_right.png,4,Community 1,NA,TRUE,j,j,NA,NA,NA,1,6,"4,15,7,14,12,3,6,5,13,11,9,8,2,10,1"
15009,commdev-image-keyboard-response,446,975786,learnblock1,680.0999984741211,img/planet14_left.png,14,Community 1,NA,TRUE,f,f,NA,NA,NA,1,6,"4,15,7,14,12,3,6,5,13,11,9,8,2,10,1"
15009,commdev-image-keyboard-response,447,977044,learnblock1,740.6000061035156,img/planet15_left.png,15,Community 1,NA,TRUE,f,f,NA,NA,NA,1,6,"4,15,7,14,12,3,6,5,13,11,9,8,2,10,1"
15009,commdev-image-keyboard-response,448,978310,learnblock1,744.1000061035156,img/planet12_left.png,12,Community 1,NA,TRUE,f,f,NA,NA,NA,1,6,"4,15,7,14,12,3,6,5,13,11,9,8,2,10,1"
15009,commdev-image-keyboard-response,449,979571,learnblock1,551.3999938964844,img/planet15_right.png,15,Community 1,NA,TRUE,j,j,NA,NA,NA,1,6,"4,15,7,14,12,3,6,5,13,11,9,8,2,10,1"
15009,commdev-image-keyboard-response,450,980829,learnblock1,709,img/planet7_right.png,7,Community 1,NA,TRUE,j,j,NA,NA,NA,1,6,"4,15,7,14,12,3,6,5,13,11,9,8,2,10,1"
15009,commdev-image-keyboard-response,451,982086,learnblock1,738.0999984741211,img/planet12_left.png,12,Community 1,NA,TRUE,f,f,NA,NA,NA,1,6,"4,15,7,14,12,3,6,5,13,11,9,8,2,10,1"
15009,commdev-image-keyboard-response,452,983353,learnblock1,586.1000061035156,img/planet15_left.png,15,Community 1,NA,TRUE,f,f,NA,NA,NA,1,6,"4,15,7,14,12,3,6,5,13,11,9,8,2,10,1"
15009,commdev-image-keyboard-response,453,984614,learnblock1,525.5,img/planet12_right.png,12,Community 1,NA,TRUE,j,j,NA,NA,NA,1,6,"4,15,7,14,12,3,6,5,13,11,9,8,2,10,1"
15009,commdev-image-keyboard-response,454,985879,learnblock1,546,img/planet9_right.png,9,Community 3,NA,TRUE,j,j,NA,NA,NA,1,6,"4,15,7,14,12,3,6,5,13,11,9,8,2,10,1"
15009,commdev-image-keyboard-response,455,987134,learnblock1,572.5999984741211,img/planet12_right.png,12,Community 1,NA,TRUE,j,j,NA,NA,NA,1,6,"4,15,7,14,12,3,6,5,13,11,9,8,2,10,1"
15009,commdev-image-keyboard-response,456,988386,learnblock1,631.7000045776367,img/planet7_left.png,7,Community 1,NA,TRUE,f,f,NA,NA,NA,1,6,"4,15,7,14,12,3,6,5,13,11,9,8,2,10,1"
15009,commdev-image-keyboard-response,457,989640,learnblock1,491.3000030517578,img/planet15_left.png,15,Community 1,NA,TRUE,f,f,NA,NA,NA,1,6,"4,15,7,14,12,3,6,5,13,11,9,8,2,10,1"
15009,commdev-image-keyboard-response,458,990900,learnblock1,458.5,img/planet7_right.png,7,Community 1,NA,TRUE,j,j,NA,NA,NA,1,6,"4,15,7,14,12,3,6,5,13,11,9,8,2,10,1"
15009,commdev-image-keyboard-response,459,992159,learnblock1,649.1999969482422,img/planet14_left.png,14,Community 1,NA,TRUE,f,f,NA,NA,NA,1,6,"4,15,7,14,12,3,6,5,13,11,9,8,2,10,1"
15009,commdev-image-keyboard-response,460,993417,learnblock1,527.5,img/planet7_left.png,7,Community 1,NA,TRUE,f,f,NA,NA,NA,1,6,"4,15,7,14,12,3,6,5,13,11,9,8,2,10,1"
15009,commdev-image-keyboard-response,461,994676,learnblock1,538.0999984741211,img/planet12_right.png,12,Community 1,NA,TRUE,j,j,NA,NA,NA,1,6,"4,15,7,14,12,3,6,5,13,11,9,8,2,10,1"
15009,commdev-image-keyboard-response,462,995941,learnblock1,606.6999969482422,img/planet15_left.png,15,Community 1,NA,TRUE,f,f,NA,NA,NA,1,6,"4,15,7,14,12,3,6,5,13,11,9,8,2,10,1"
15009,commdev-image-keyboard-response,463,997198,learnblock1,636.7000045776367,img/planet7_right.png,7,Community 1,NA,TRUE,j,j,NA,NA,NA,1,6,"4,15,7,14,12,3,6,5,13,11,9,8,2,10,1"
15009,commdev-image-keyboard-response,464,998462,learnblock1,536.3999938964844,img/planet14_left.png,14,Community 1,NA,TRUE,f,f,NA,NA,NA,1,6,"4,15,7,14,12,3,6,5,13,11,9,8,2,10,1"
15009,commdev-image-keyboard-response,465,999723,learnblock1,633.3000030517578,img/planet7_right.png,7,Community 1,NA,TRUE,j,j,NA,NA,NA,1,6,"4,15,7,14,12,3,6,5,13,11,9,8,2,10,1"
15009,commdev-image-keyboard-response,466,1000975,learnblock1,528.8000030517578,img/planet15_left.png,15,Community 1,NA,TRUE,f,f,NA,NA,NA,1,6,"4,15,7,14,12,3,6,5,13,11,9,8,2,10,1"
15009,commdev-image-keyboard-response,467,1002235,learnblock1,700.4000015258789,img/planet4_left.png,4,Community 1,NA,TRUE,f,f,NA,NA,NA,1,6,"4,15,7,14,12,3,6,5,13,11,9,8,2,10,1"
15009,commdev-image-keyboard-response,468,1003495,learnblock1,558.9000015258789,img/planet14_right.png,14,Community 1,NA,TRUE,j,j,NA,NA,NA,1,6,"4,15,7,14,12,3,6,5,13,11,9,8,2,10,1"
15009,commdev-image-keyboard-response,469,1004751,learnblock1,596.2999954223633,img/planet7_left.png,7,Community 1,NA,TRUE,f,f,NA,NA,NA,1,6,"4,15,7,14,12,3,6,5,13,11,9,8,2,10,1"
15009,commdev-image-keyboard-response,470,1006013,learnblock1,612.1999969482422,img/planet4_left.png,4,Community 1,NA,TRUE,f,f,NA,NA,NA,1,6,"4,15,7,14,12,3,6,5,13,11,9,8,2,10,1"
15009,commdev-image-keyboard-response,471,1007281,learnblock1,635.9000015258789,img/planet12_left.png,12,Community 1,NA,TRUE,f,f,NA,NA,NA,1,6,"4,15,7,14,12,3,6,5,13,11,9,8,2,10,1"
15009,commdev-image-keyboard-response,472,1008545,learnblock1,526.2999954223633,img/planet9_right.png,9,Community 3,NA,TRUE,j,j,NA,NA,NA,1,6,"4,15,7,14,12,3,6,5,13,11,9,8,2,10,1"
15009,commdev-image-keyboard-response,473,1009804,learnblock1,538.6000061035156,img/planet10_right.png,10,Community 3,NA,TRUE,j,j,NA,NA,NA,1,6,"4,15,7,14,12,3,6,5,13,11,9,8,2,10,1"
15009,commdev-image-keyboard-response,474,1011058,learnblock1,515.6999969482422,img/planet9_right.png,9,Community 3,NA,TRUE,j,j,NA,NA,NA,1,6,"4,15,7,14,12,3,6,5,13,11,9,8,2,10,1"
15009,commdev-image-keyboard-response,475,1012317,learnblock1,542.3000030517578,img/planet2_right.png,2,Community 3,NA,TRUE,j,j,NA,NA,NA,1,6,"4,15,7,14,12,3,6,5,13,11,9,8,2,10,1"
15009,commdev-image-keyboard-response,476,1013575,learnblock1,502,img/planet1_right.png,1,Community 3,NA,TRUE,j,j,NA,NA,NA,1,6,"4,15,7,14,12,3,6,5,13,11,9,8,2,10,1"
15009,commdev-image-keyboard-response,477,1014830,learnblock1,493.4000015258789,img/planet9_left.png,9,Community 3,NA,FALSE,j,f,NA,NA,NA,1,6,"4,15,7,14,12,3,6,5,13,11,9,8,2,10,1"
15009,commdev-image-keyboard-response,478,1016090,learnblock1,786.7000045776367,img/planet1_left.png,1,Community 3,NA,TRUE,f,f,NA,NA,NA,1,6,"4,15,7,14,12,3,6,5,13,11,9,8,2,10,1"
15009,commdev-image-keyboard-response,479,1017345,learnblock1,549.6999969482422,img/planet2_left.png,2,Community 3,NA,TRUE,f,f,NA,NA,NA,1,6,"4,15,7,14,12,3,6,5,13,11,9,8,2,10,1"
15009,commdev-image-keyboard-response,480,1018600,learnblock1,642.4000015258789,img/planet9_right.png,9,Community 3,NA,TRUE,j,j,NA,NA,NA,1,6,"4,15,7,14,12,3,6,5,13,11,9,8,2,10,1"
15009,commdev-image-keyboard-response,481,1019857,learnblock1,571.1999969482422,img/planet10_right.png,10,Community 3,NA,TRUE,j,j,NA,NA,NA,1,6,"4,15,7,14,12,3,6,5,13,11,9,8,2,10,1"
15009,commdev-image-keyboard-response,482,1021112,learnblock1,520.7000045776367,img/planet9_right.png,9,Community 3,NA,TRUE,j,j,NA,NA,NA,1,6,"4,15,7,14,12,3,6,5,13,11,9,8,2,10,1"
15009,commdev-image-keyboard-response,483,1022367,learnblock1,530.9000015258789,img/planet10_left.png,10,Community 3,NA,TRUE,f,f,NA,NA,NA,1,6,"4,15,7,14,12,3,6,5,13,11,9,8,2,10,1"
15009,commdev-image-keyboard-response,484,1023619,learnblock1,423.6999969482422,img/planet2_left.png,2,Community 3,NA,TRUE,f,f,NA,NA,NA,1,6,"4,15,7,14,12,3,6,5,13,11,9,8,2,10,1"
15009,commdev-image-keyboard-response,485,1024872,learnblock1,614.5,img/planet8_left.png,8,Community 3,NA,TRUE,f,f,NA,NA,NA,1,6,"4,15,7,14,12,3,6,5,13,11,9,8,2,10,1"
15009,commdev-image-keyboard-response,486,1026132,learnblock1,480.0999984741211,img/planet10_right.png,10,Community 3,NA,TRUE,j,j,NA,NA,NA,1,6,"4,15,7,14,12,3,6,5,13,11,9,8,2,10,1"
15009,commdev-image-keyboard-response,487,1027394,learnblock1,529.3000030517578,img/planet9_right.png,9,Community 3,NA,TRUE,j,j,NA,NA,NA,1,6,"4,15,7,14,12,3,6,5,13,11,9,8,2,10,1"
15009,commdev-image-keyboard-response,488,1028656,learnblock1,494.3999938964844,img/planet2_left.png,2,Community 3,NA,TRUE,f,f,NA,NA,NA,1,6,"4,15,7,14,12,3,6,5,13,11,9,8,2,10,1"
15009,commdev-image-keyboard-response,489,1029913,learnblock1,621.8000030517578,img/planet1_right.png,1,Community 3,NA,TRUE,j,j,NA,NA,NA,1,6,"4,15,7,14,12,3,6,5,13,11,9,8,2,10,1"
15009,commdev-image-keyboard-response,490,1031175,learnblock1,557.0999984741211,img/planet10_right.png,10,Community 3,NA,TRUE,j,j,NA,NA,NA,1,6,"4,15,7,14,12,3,6,5,13,11,9,8,2,10,1"
15009,commdev-image-keyboard-response,491,1032429,learnblock1,512,img/planet9_right.png,9,Community 3,NA,TRUE,j,j,NA,NA,NA,1,6,"4,15,7,14,12,3,6,5,13,11,9,8,2,10,1"
15009,commdev-image-keyboard-response,492,1033684,learnblock1,626.8000030517578,img/planet12_right.png,12,Community 1,NA,TRUE,j,j,NA,NA,NA,1,6,"4,15,7,14,12,3,6,5,13,11,9,8,2,10,1"
15009,commdev-image-keyboard-response,493,1034947,learnblock1,733.3999938964844,img/planet15_right.png,15,Community 1,NA,TRUE,j,j,NA,NA,NA,1,6,"4,15,7,14,12,3,6,5,13,11,9,8,2,10,1"
15009,commdev-image-keyboard-response,494,1036213,learnblock1,635.7999954223633,img/planet4_left.png,4,Community 1,NA,TRUE,f,f,NA,NA,NA,1,6,"4,15,7,14,12,3,6,5,13,11,9,8,2,10,1"
15009,commdev-image-keyboard-response,495,1037468,learnblock1,636.6999969482422,img/planet15_right.png,15,Community 1,NA,TRUE,j,j,NA,NA,NA,1,6,"4,15,7,14,12,3,6,5,13,11,9,8,2,10,1"
15009,commdev-image-keyboard-response,496,1038726,learnblock1,644.5,img/planet7_left.png,7,Community 1,NA,TRUE,f,f,NA,NA,NA,1,6,"4,15,7,14,12,3,6,5,13,11,9,8,2,10,1"
15009,commdev-image-keyboard-response,497,1039982,learnblock1,651.7000045776367,img/planet14_left.png,14,Community 1,NA,TRUE,f,f,NA,NA,NA,1,6,"4,15,7,14,12,3,6,5,13,11,9,8,2,10,1"
15009,commdev-image-keyboard-response,498,1041235,learnblock1,581.9000015258789,img/planet15_left.png,15,Community 1,NA,TRUE,f,f,NA,NA,NA,1,6,"4,15,7,14,12,3,6,5,13,11,9,8,2,10,1"
15009,commdev-image-keyboard-response,499,1042489,learnblock1,539.1000061035156,img/planet12_left.png,12,Community 1,NA,TRUE,f,f,NA,NA,NA,1,6,"4,15,7,14,12,3,6,5,13,11,9,8,2,10,1"
15009,commdev-image-keyboard-response,500,1043750,learnblock1,615.2999954223633,img/planet7_right.png,7,Community 1,NA,TRUE,j,j,NA,NA,NA,1,6,"4,15,7,14,12,3,6,5,13,11,9,8,2,10,1"
15009,commdev-image-keyboard-response,501,1045017,learnblock1,510.8000030517578,img/planet4_left.png,4,Community 1,NA,TRUE,f,f,NA,NA,NA,1,6,"4,15,7,14,12,3,6,5,13,11,9,8,2,10,1"
15009,commdev-image-keyboard-response,502,1046278,learnblock1,619.3000030517578,img/planet7_right.png,7,Community 1,NA,FALSE,f,j,NA,NA,NA,1,6,"4,15,7,14,12,3,6,5,13,11,9,8,2,10,1"
15009,commdev-image-keyboard-response,503,1047537,learnblock1,null,img/planet15_left.png,15,Community 1,NA,FALSE,null,f,NA,NA,NA,1,6,"4,15,7,14,12,3,6,5,13,11,9,8,2,10,1"
15009,commdev-image-keyboard-response,504,1048801,learnblock1,162.6999969482422,img/planet7_right.png,7,Community 1,NA,FALSE,f,j,NA,NA,NA,1,6,"4,15,7,14,12,3,6,5,13,11,9,8,2,10,1"
15009,commdev-image-keyboard-response,505,1050053,learnblock1,null,img/planet4_left.png,4,Community 1,NA,FALSE,null,f,NA,NA,NA,1,6,"4,15,7,14,12,3,6,5,13,11,9,8,2,10,1"
15009,commdev-image-keyboard-response,506,1051320,learnblock1,97.0999984741211,img/planet7_left.png,7,Community 1,NA,TRUE,f,f,NA,NA,NA,1,6,"4,15,7,14,12,3,6,5,13,11,9,8,2,10,1"
15009,commdev-image-keyboard-response,507,1052590,learnblock1,561.2999954223633,img/planet4_left.png,4,Community 1,NA,TRUE,f,f,NA,NA,NA,1,6,"4,15,7,14,12,3,6,5,13,11,9,8,2,10,1"
15009,commdev-image-keyboard-response,508,1053845,learnblock1,504.5999984741211,img/planet15_left.png,15,Community 1,NA,TRUE,f,f,NA,NA,NA,1,6,"4,15,7,14,12,3,6,5,13,11,9,8,2,10,1"
15009,commdev-image-keyboard-response,509,1055115,learnblock1,586.1999969482422,img/planet4_left.png,4,Community 1,NA,TRUE,f,f,NA,NA,NA,1,6,"4,15,7,14,12,3,6,5,13,11,9,8,2,10,1"
15009,commdev-image-keyboard-response,510,1056369,learnblock1,564.5999984741211,img/planet12_left.png,12,Community 1,NA,TRUE,f,f,NA,NA,NA,1,6,"4,15,7,14,12,3,6,5,13,11,9,8,2,10,1"
15009,commdev-image-keyboard-response,511,1057637,learnblock1,544,img/planet9_right.png,9,Community 3,NA,TRUE,j,j,NA,NA,NA,1,6,"4,15,7,14,12,3,6,5,13,11,9,8,2,10,1"
15009,commdev-image-keyboard-response,512,1058893,learnblock1,703.6999969482422,img/planet2_left.png,2,Community 3,NA,TRUE,f,f,NA,NA,NA,1,6,"4,15,7,14,12,3,6,5,13,11,9,8,2,10,1"
15009,commdev-image-keyboard-response,513,1060154,learnblock1,788.9000015258789,img/planet9_left.png,9,Community 3,NA,TRUE,f,f,NA,NA,NA,1,6,"4,15,7,14,12,3,6,5,13,11,9,8,2,10,1"
15009,commdev-image-keyboard-response,514,1061406,learnblock1,624.8000030517578,img/planet10_right.png,10,Community 3,NA,TRUE,j,j,NA,NA,NA,1,6,"4,15,7,14,12,3,6,5,13,11,9,8,2,10,1"
15009,commdev-image-keyboard-response,515,1062666,learnblock1,587.1999969482422,img/planet2_left.png,2,Community 3,NA,TRUE,f,f,NA,NA,NA,1,6,"4,15,7,14,12,3,6,5,13,11,9,8,2,10,1"
15009,commdev-image-keyboard-response,516,1063922,learnblock1,625.5,img/planet1_right.png,1,Community 3,NA,TRUE,j,j,NA,NA,NA,1,6,"4,15,7,14,12,3,6,5,13,11,9,8,2,10,1"
15009,commdev-image-keyboard-response,517,1065180,learnblock1,639.4000015258789,img/planet8_left.png,8,Community 3,NA,TRUE,f,f,NA,NA,NA,1,6,"4,15,7,14,12,3,6,5,13,11,9,8,2,10,1"
15009,commdev-image-keyboard-response,518,1066435,learnblock1,486.1999969482422,img/planet1_right.png,1,Community 3,NA,TRUE,j,j,NA,NA,NA,1,6,"4,15,7,14,12,3,6,5,13,11,9,8,2,10,1"
15009,commdev-image-keyboard-response,522,1087466,learnblock2,670.4000015258789,img/planet3_left.png,3,Community 2,NA,TRUE,f,f,NA,NA,NA,1,6,"4,15,7,14,12,3,6,5,13,11,9,8,2,10,1"
15009,commdev-image-keyboard-response,523,1088725,learnblock2,754.9000015258789,img/planet6_right.png,6,Community 2,NA,TRUE,j,j,NA,NA,NA,1,6,"4,15,7,14,12,3,6,5,13,11,9,8,2,10,1"
15009,commdev-image-keyboard-response,524,1089981,learnblock2,568.7000045776367,img/planet5_left.png,5,Community 2,NA,TRUE,f,f,NA,NA,NA,1,6,"4,15,7,14,12,3,6,5,13,11,9,8,2,10,1"
15009,commdev-image-keyboard-response,525,1091240,learnblock2,474.6000061035156,img/planet11_right.png,11,Community 2,NA,TRUE,j,j,NA,NA,NA,1,6,"4,15,7,14,12,3,6,5,13,11,9,8,2,10,1"
15009,commdev-image-keyboard-response,526,1092508,learnblock2,570.7000045776367,img/planet3_right.png,3,Community 2,NA,TRUE,j,j,NA,NA,NA,1,6,"4,15,7,14,12,3,6,5,13,11,9,8,2,10,1"
15009,commdev-image-keyboard-response,527,1093768,learnblock2,578.3999938964844,img/planet6_right.png,6,Community 2,NA,TRUE,j,j,NA,NA,NA,1,6,"4,15,7,14,12,3,6,5,13,11,9,8,2,10,1"
15009,commdev-image-keyboard-response,528,1095030,learnblock2,606.2999954223633,img/planet13_left.png,13,Community 2,NA,TRUE,f,f,NA,NA,NA,1,6,"4,15,7,14,12,3,6,5,13,11,9,8,2,10,1"
15009,commdev-image-keyboard-response,529,1096288,learnblock2,578.5,img/planet3_left.png,3,Community 2,NA,TRUE,f,f,NA,NA,NA,1,6,"4,15,7,14,12,3,6,5,13,11,9,8,2,10,1"
15009,commdev-image-keyboard-response,530,1097543,learnblock2,488.8000030517578,img/planet13_left.png,13,Community 2,NA,TRUE,f,f,NA,NA,NA,1,6,"4,15,7,14,12,3,6,5,13,11,9,8,2,10,1"
15009,commdev-image-keyboard-response,531,1098797,learnblock2,802.8999938964844,img/planet3_left.png,3,Community 2,NA,TRUE,f,f,NA,NA,NA,1,6,"4,15,7,14,12,3,6,5,13,11,9,8,2,10,1"
15009,commdev-image-keyboard-response,532,1100053,learnblock2,798.9000015258789,img/planet11_right.png,11,Community 2,NA,TRUE,j,j,NA,NA,NA,1,6,"4,15,7,14,12,3,6,5,13,11,9,8,2,10,1"
15009,commdev-image-keyboard-response,533,1101313,learnblock2,621.7000045776367,img/planet13_right.png,13,Community 2,NA,TRUE,j,j,NA,NA,NA,1,6,"4,15,7,14,12,3,6,5,13,11,9,8,2,10,1"
15009,commdev-image-keyboard-response,534,1102569,learnblock2,616.7000045776367,img/planet3_left.png,3,Community 2,NA,TRUE,f,f,NA,NA,NA,1,6,"4,15,7,14,12,3,6,5,13,11,9,8,2,10,1"
15009,commdev-image-keyboard-response,535,1103833,learnblock2,579.0999984741211,img/planet11_left.png,11,Community 2,NA,TRUE,f,f,NA,NA,NA,1,6,"4,15,7,14,12,3,6,5,13,11,9,8,2,10,1"
15009,commdev-image-keyboard-response,536,1105088,learnblock2,578,img/planet5_right.png,5,Community 2,NA,TRUE,j,j,NA,NA,NA,1,6,"4,15,7,14,12,3,6,5,13,11,9,8,2,10,1"
15009,commdev-image-keyboard-response,537,1106351,learnblock2,641.5,img/planet6_left.png,6,Community 2,NA,TRUE,f,f,NA,NA,NA,1,6,"4,15,7,14,12,3,6,5,13,11,9,8,2,10,1"
15009,commdev-image-keyboard-response,538,1107615,learnblock2,790,img/planet13_left.png,13,Community 2,NA,TRUE,f,f,NA,NA,NA,1,6,"4,15,7,14,12,3,6,5,13,11,9,8,2,10,1"
15009,commdev-image-keyboard-response,539,1108878,learnblock2,649.1000061035156,img/planet6_left.png,6,Community 2,NA,TRUE,f,f,NA,NA,NA,1,6,"4,15,7,14,12,3,6,5,13,11,9,8,2,10,1"
15009,commdev-image-keyboard-response,540,1110135,learnblock2,592.8000030517578,img/planet3_right.png,3,Community 2,NA,TRUE,j,j,NA,NA,NA,1,6,"4,15,7,14,12,3,6,5,13,11,9,8,2,10,1"
15009,commdev-image-keyboard-response,541,1111402,learnblock2,547.4000015258789,img/planet11_left.png,11,Community 2,NA,TRUE,f,f,NA,NA,NA,1,6,"4,15,7,14,12,3,6,5,13,11,9,8,2,10,1"
15009,commdev-image-keyboard-response,542,1112667,learnblock2,592,img/planet5_left.png,5,Community 2,NA,TRUE,f,f,NA,NA,NA,1,6,"4,15,7,14,12,3,6,5,13,11,9,8,2,10,1"
15009,commdev-image-keyboard-response,543,1113921,learnblock2,554.5,img/planet11_left.png,11,Community 2,NA,TRUE,f,f,NA,NA,NA,1,6,"4,15,7,14,12,3,6,5,13,11,9,8,2,10,1"
15009,commdev-image-keyboard-response,544,1115176,learnblock2,625.7999954223633,img/planet6_left.png,6,Community 2,NA,TRUE,f,f,NA,NA,NA,1,6,"4,15,7,14,12,3,6,5,13,11,9,8,2,10,1"
15009,commdev-image-keyboard-response,545,1116435,learnblock2,563.0999984741211,img/planet5_left.png,5,Community 2,NA,TRUE,f,f,NA,NA,NA,1,6,"4,15,7,14,12,3,6,5,13,11,9,8,2,10,1"
15009,commdev-image-keyboard-response,546,1117698,learnblock2,611.6999969482422,img/planet11_right.png,11,Community 2,NA,TRUE,j,j,NA,NA,NA,1,6,"4,15,7,14,12,3,6,5,13,11,9,8,2,10,1"
15009,commdev-image-keyboard-response,547,1118955,learnblock2,616.5999984741211,img/planet3_right.png,3,Community 2,NA,TRUE,j,j,NA,NA,NA,1,6,"4,15,7,14,12,3,6,5,13,11,9,8,2,10,1"
15009,commdev-image-keyboard-response,548,1120209,learnblock2,630,img/planet6_left.png,6,Community 2,NA,TRUE,f,f,NA,NA,NA,1,6,"4,15,7,14,12,3,6,5,13,11,9,8,2,10,1"
15009,commdev-image-keyboard-response,549,1121478,learnblock2,518.0999984741211,img/planet3_right.png,3,Community 2,NA,TRUE,j,j,NA,NA,NA,1,6,"4,15,7,14,12,3,6,5,13,11,9,8,2,10,1"
15009,commdev-image-keyboard-response,550,1122737,learnblock2,516,img/planet6_left.png,6,Community 2,NA,TRUE,f,f,NA,NA,NA,1,6,"4,15,7,14,12,3,6,5,13,11,9,8,2,10,1"
15009,commdev-image-keyboard-response,551,1123996,learnblock2,513.8000030517578,img/planet11_right.png,11,Community 2,NA,TRUE,j,j,NA,NA,NA,1,6,"4,15,7,14,12,3,6,5,13,11,9,8,2,10,1"
15009,commdev-image-keyboard-response,552,1125259,learnblock2,497.1999969482422,img/planet5_right.png,5,Community 2,NA,TRUE,j,j,NA,NA,NA,1,6,"4,15,7,14,12,3,6,5,13,11,9,8,2,10,1"
15009,commdev-image-keyboard-response,553,1126523,learnblock2,502.4000015258789,img/planet11_left.png,11,Community 2,NA,TRUE,f,f,NA,NA,NA,1,6,"4,15,7,14,12,3,6,5,13,11,9,8,2,10,1"
15009,commdev-image-keyboard-response,554,1127776,learnblock2,634.8000030517578,img/planet13_left.png,13,Community 2,NA,TRUE,f,f,NA,NA,NA,1,6,"4,15,7,14,12,3,6,5,13,11,9,8,2,10,1"
15009,commdev-image-keyboard-response,555,1129033,learnblock2,617.7999954223633,img/planet5_right.png,5,Community 2,NA,TRUE,j,j,NA,NA,NA,1,6,"4,15,7,14,12,3,6,5,13,11,9,8,2,10,1"
15009,commdev-image-keyboard-response,556,1130289,learnblock2,598.0999984741211,img/planet6_left.png,6,Community 2,NA,TRUE,f,f,NA,NA,NA,1,6,"4,15,7,14,12,3,6,5,13,11,9,8,2,10,1"
15009,commdev-image-keyboard-response,557,1131551,learnblock2,546.9000015258789,img/planet11_left.png,11,Community 2,NA,TRUE,f,f,NA,NA,NA,1,6,"4,15,7,14,12,3,6,5,13,11,9,8,2,10,1"
15009,commdev-image-keyboard-response,558,1132808,learnblock2,546.6999969482422,img/planet13_right.png,13,Community 2,NA,TRUE,j,j,NA,NA,NA,1,6,"4,15,7,14,12,3,6,5,13,11,9,8,2,10,1"
15009,commdev-image-keyboard-response,559,1134074,learnblock2,460.1999969482422,img/planet6_right.png,6,Community 2,NA,TRUE,j,j,NA,NA,NA,1,6,"4,15,7,14,12,3,6,5,13,11,9,8,2,10,1"
15009,commdev-image-keyboard-response,560,1135332,learnblock2,520,img/planet5_right.png,5,Community 2,NA,TRUE,j,j,NA,NA,NA,1,6,"4,15,7,14,12,3,6,5,13,11,9,8,2,10,1"
15009,commdev-image-keyboard-response,561,1136588,learnblock2,514.6999969482422,img/planet6_right.png,6,Community 2,NA,TRUE,j,j,NA,NA,NA,1,6,"4,15,7,14,12,3,6,5,13,11,9,8,2,10,1"
15009,commdev-image-keyboard-response,562,1137846,learnblock2,775.6999969482422,img/planet3_left.png,3,Community 2,NA,TRUE,f,f,NA,NA,NA,1,6,"4,15,7,14,12,3,6,5,13,11,9,8,2,10,1"
15009,commdev-image-keyboard-response,563,1139106,learnblock2,670.8000030517578,img/planet14_left.png,14,Community 1,NA,TRUE,f,f,NA,NA,NA,1,6,"4,15,7,14,12,3,6,5,13,11,9,8,2,10,1"
15009,commdev-image-keyboard-response,564,1140361,learnblock2,568.1000061035156,img/planet15_right.png,15,Community 1,NA,TRUE,j,j,NA,NA,NA,1,6,"4,15,7,14,12,3,6,5,13,11,9,8,2,10,1"
15009,commdev-image-keyboard-response,565,1141620,learnblock2,579.4000015258789,img/planet12_left.png,12,Community 1,NA,TRUE,f,f,NA,NA,NA,1,6,"4,15,7,14,12,3,6,5,13,11,9,8,2,10,1"
15009,commdev-image-keyboard-response,566,1142877,learnblock2,512.8000030517578,img/planet7_left.png,7,Community 1,NA,TRUE,f,f,NA,NA,NA,1,6,"4,15,7,14,12,3,6,5,13,11,9,8,2,10,1"
15009,commdev-image-keyboard-response,567,1144132,learnblock2,550.5999984741211,img/planet15_right.png,15,Community 1,NA,TRUE,j,j,NA,NA,NA,1,6,"4,15,7,14,12,3,6,5,13,11,9,8,2,10,1"
15009,commdev-image-keyboard-response,568,1145391,learnblock2,581.5999984741211,img/planet14_right.png,14,Community 1,NA,TRUE,j,j,NA,NA,NA,1,6,"4,15,7,14,12,3,6,5,13,11,9,8,2,10,1"
15009,commdev-image-keyboard-response,569,1146652,learnblock2,569.9000015258789,img/planet4_left.png,4,Community 1,NA,TRUE,f,f,NA,NA,NA,1,6,"4,15,7,14,12,3,6,5,13,11,9,8,2,10,1"
15009,commdev-image-keyboard-response,570,1147909,learnblock2,522.6999969482422,img/planet14_right.png,14,Community 1,NA,TRUE,j,j,NA,NA,NA,1,6,"4,15,7,14,12,3,6,5,13,11,9,8,2,10,1"
15009,commdev-image-keyboard-response,571,1149167,learnblock2,533.0999984741211,img/planet7_left.png,7,Community 1,NA,TRUE,f,f,NA,NA,NA,1,6,"4,15,7,14,12,3,6,5,13,11,9,8,2,10,1"
15009,commdev-image-keyboard-response,572,1150434,learnblock2,507.8999938964844,img/planet12_right.png,12,Community 1,NA,TRUE,j,j,NA,NA,NA,1,6,"4,15,7,14,12,3,6,5,13,11,9,8,2,10,1"
15009,commdev-image-keyboard-response,573,1151690,learnblock2,547.4000015258789,img/planet4_left.png,4,Community 1,NA,TRUE,f,f,NA,NA,NA,1,6,"4,15,7,14,12,3,6,5,13,11,9,8,2,10,1"
15009,commdev-image-keyboard-response,574,1152949,learnblock2,740.3999938964844,img/planet7_right.png,7,Community 1,NA,TRUE,j,j,NA,NA,NA,1,6,"4,15,7,14,12,3,6,5,13,11,9,8,2,10,1"
15009,commdev-image-keyboard-response,575,1154202,learnblock2,532.5,img/planet4_right.png,4,Community 1,NA,TRUE,j,j,NA,NA,NA,1,6,"4,15,7,14,12,3,6,5,13,11,9,8,2,10,1"
15009,commdev-image-keyboard-response,576,1155456,learnblock2,681.5999984741211,img/planet15_right.png,15,Community 1,NA,TRUE,j,j,NA,NA,NA,1,6,"4,15,7,14,12,3,6,5,13,11,9,8,2,10,1"
15009,commdev-image-keyboard-response,577,1156709,learnblock2,547.0999984741211,img/planet7_right.png,7,Community 1,NA,TRUE,j,j,NA,NA,NA,1,6,"4,15,7,14,12,3,6,5,13,11,9,8,2,10,1"
15009,commdev-image-keyboard-response,578,1157968,learnblock2,556.1999969482422,img/planet12_left.png,12,Community 1,NA,TRUE,f,f,NA,NA,NA,1,6,"4,15,7,14,12,3,6,5,13,11,9,8,2,10,1"
15009,commdev-image-keyboard-response,579,1159229,learnblock2,786.8000030517578,img/planet9_left.png,9,Community 3,NA,TRUE,f,f,NA,NA,NA,1,6,"4,15,7,14,12,3,6,5,13,11,9,8,2,10,1"
15009,commdev-image-keyboard-response,580,1160488,learnblock2,615.8999938964844,img/planet2_left.png,2,Community 3,NA,TRUE,f,f,NA,NA,NA,1,6,"4,15,7,14,12,3,6,5,13,11,9,8,2,10,1"
15009,commdev-image-keyboard-response,581,1161748,learnblock2,520.7999954223633,img/planet1_left.png,1,Community 3,NA,TRUE,f,f,NA,NA,NA,1,6,"4,15,7,14,12,3,6,5,13,11,9,8,2,10,1"
15009,commdev-image-keyboard-response,582,1163004,learnblock2,585.5999984741211,img/planet2_left.png,2,Community 3,NA,TRUE,f,f,NA,NA,NA,1,6,"4,15,7,14,12,3,6,5,13,11,9,8,2,10,1"
15009,commdev-image-keyboard-response,583,1164262,learnblock2,462.3000030517578,img/planet1_left.png,1,Community 3,NA,TRUE,f,f,NA,NA,NA,1,6,"4,15,7,14,12,3,6,5,13,11,9,8,2,10,1"
15009,commdev-image-keyboard-response,584,1165525,learnblock2,552.5,img/planet9_right.png,9,Community 3,NA,TRUE,j,j,NA,NA,NA,1,6,"4,15,7,14,12,3,6,5,13,11,9,8,2,10,1"
15009,commdev-image-keyboard-response,585,1166787,learnblock2,625.5,img/planet2_left.png,2,Community 3,NA,TRUE,f,f,NA,NA,NA,1,6,"4,15,7,14,12,3,6,5,13,11,9,8,2,10,1"
15009,commdev-image-keyboard-response,586,1168047,learnblock2,542.0999984741211,img/planet9_right.png,9,Community 3,NA,TRUE,j,j,NA,NA,NA,1,6,"4,15,7,14,12,3,6,5,13,11,9,8,2,10,1"
15009,commdev-image-keyboard-response,587,1169313,learnblock2,627.1999969482422,img/planet2_left.png,2,Community 3,NA,TRUE,f,f,NA,NA,NA,1,6,"4,15,7,14,12,3,6,5,13,11,9,8,2,10,1"
15009,commdev-image-keyboard-response,588,1170566,learnblock2,747.0999984741211,img/planet8_left.png,8,Community 3,NA,TRUE,f,f,NA,NA,NA,1,6,"4,15,7,14,12,3,6,5,13,11,9,8,2,10,1"
15009,commdev-image-keyboard-response,589,1171822,learnblock2,522.5999984741211,img/planet1_left.png,1,Community 3,NA,TRUE,f,f,NA,NA,NA,1,6,"4,15,7,14,12,3,6,5,13,11,9,8,2,10,1"
15009,commdev-image-keyboard-response,590,1173082,learnblock2,476.0999984741211,img/planet2_right.png,2,Community 3,NA,TRUE,j,j,NA,NA,NA,1,6,"4,15,7,14,12,3,6,5,13,11,9,8,2,10,1"
15009,commdev-image-keyboard-response,591,1174340,learnblock2,612.0999984741211,img/planet9_left.png,9,Community 3,NA,TRUE,f,f,NA,NA,NA,1,6,"4,15,7,14,12,3,6,5,13,11,9,8,2,10,1"
15009,commdev-image-keyboard-response,592,1175600,learnblock2,486.5999984741211,img/planet2_right.png,2,Community 3,NA,TRUE,j,j,NA,NA,NA,1,6,"4,15,7,14,12,3,6,5,13,11,9,8,2,10,1"
15009,commdev-image-keyboard-response,593,1176859,learnblock2,586.8000030517578,img/planet8_right.png,8,Community 3,NA,TRUE,j,j,NA,NA,NA,1,6,"4,15,7,14,12,3,6,5,13,11,9,8,2,10,1"
15009,commdev-image-keyboard-response,594,1178116,learnblock2,485,img/planet10_left.png,10,Community 3,NA,TRUE,f,f,NA,NA,NA,1,6,"4,15,7,14,12,3,6,5,13,11,9,8,2,10,1"
15009,commdev-image-keyboard-response,595,1179369,learnblock2,522.0999984741211,img/planet2_right.png,2,Community 3,NA,TRUE,j,j,NA,NA,NA,1,6,"4,15,7,14,12,3,6,5,13,11,9,8,2,10,1"
15009,commdev-image-keyboard-response,596,1180636,learnblock2,639.5,img/planet9_right.png,9,Community 3,NA,TRUE,j,j,NA,NA,NA,1,6,"4,15,7,14,12,3,6,5,13,11,9,8,2,10,1"
15009,commdev-image-keyboard-response,597,1181896,learnblock2,498.7000045776367,img/planet2_right.png,2,Community 3,NA,TRUE,j,j,NA,NA,NA,1,6,"4,15,7,14,12,3,6,5,13,11,9,8,2,10,1"
15009,commdev-image-keyboard-response,598,1183155,learnblock2,531.1999969482422,img/planet10_right.png,10,Community 3,NA,TRUE,j,j,NA,NA,NA,1,6,"4,15,7,14,12,3,6,5,13,11,9,8,2,10,1"
15009,commdev-image-keyboard-response,599,1184412,learnblock2,679.2000045776367,img/planet2_left.png,2,Community 3,NA,TRUE,f,f,NA,NA,NA,1,6,"4,15,7,14,12,3,6,5,13,11,9,8,2,10,1"
15009,commdev-image-keyboard-response,600,1185667,learnblock2,442.6999969482422,img/planet10_right.png,10,Community 3,NA,TRUE,j,j,NA,NA,NA,1,6,"4,15,7,14,12,3,6,5,13,11,9,8,2,10,1"
15009,commdev-image-keyboard-response,601,1186922,learnblock2,507.0999984741211,img/planet1_right.png,1,Community 3,NA,TRUE,j,j,NA,NA,NA,1,6,"4,15,7,14,12,3,6,5,13,11,9,8,2,10,1"
15009,commdev-image-keyboard-response,602,1188178,learnblock2,584.4000015258789,img/planet10_right.png,10,Community 3,NA,TRUE,j,j,NA,NA,NA,1,6,"4,15,7,14,12,3,6,5,13,11,9,8,2,10,1"
15009,commdev-image-keyboard-response,603,1189440,learnblock2,562.2999954223633,img/planet2_right.png,2,Community 3,NA,TRUE,j,j,NA,NA,NA,1,6,"4,15,7,14,12,3,6,5,13,11,9,8,2,10,1"
15009,commdev-image-keyboard-response,604,1190700,learnblock2,675,img/planet8_right.png,8,Community 3,NA,TRUE,j,j,NA,NA,NA,1,6,"4,15,7,14,12,3,6,5,13,11,9,8,2,10,1"
15009,commdev-image-keyboard-response,605,1191952,learnblock2,486.4000015258789,img/planet10_left.png,10,Community 3,NA,TRUE,f,f,NA,NA,NA,1,6,"4,15,7,14,12,3,6,5,13,11,9,8,2,10,1"
15009,commdev-image-keyboard-response,606,1193220,learnblock2,504.7000045776367,img/planet1_left.png,1,Community 3,NA,TRUE,f,f,NA,NA,NA,1,6,"4,15,7,14,12,3,6,5,13,11,9,8,2,10,1"
15009,commdev-image-keyboard-response,607,1194477,learnblock2,571.8000030517578,img/planet8_right.png,8,Community 3,NA,TRUE,j,j,NA,NA,NA,1,6,"4,15,7,14,12,3,6,5,13,11,9,8,2,10,1"
15009,commdev-image-keyboard-response,608,1195735,learnblock2,486,img/planet1_left.png,1,Community 3,NA,TRUE,f,f,NA,NA,NA,1,6,"4,15,7,14,12,3,6,5,13,11,9,8,2,10,1"
15009,commdev-image-keyboard-response,609,1196991,learnblock2,599.4000015258789,img/planet2_left.png,2,Community 3,NA,TRUE,f,f,NA,NA,NA,1,6,"4,15,7,14,12,3,6,5,13,11,9,8,2,10,1"
15009,commdev-image-keyboard-response,610,1198249,learnblock2,633.9000015258789,img/planet8_left.png,8,Community 3,NA,TRUE,f,f,NA,NA,NA,1,6,"4,15,7,14,12,3,6,5,13,11,9,8,2,10,1"
15009,commdev-image-keyboard-response,611,1199501,learnblock2,551.4000015258789,img/planet10_right.png,10,Community 3,NA,TRUE,j,j,NA,NA,NA,1,6,"4,15,7,14,12,3,6,5,13,11,9,8,2,10,1"
15009,commdev-image-keyboard-response,612,1200755,learnblock2,536.5,img/planet1_left.png,1,Community 3,NA,TRUE,f,f,NA,NA,NA,1,6,"4,15,7,14,12,3,6,5,13,11,9,8,2,10,1"
15009,commdev-image-keyboard-response,613,1202011,learnblock2,644.2000045776367,img/planet9_left.png,9,Community 3,NA,TRUE,f,f,NA,NA,NA,1,6,"4,15,7,14,12,3,6,5,13,11,9,8,2,10,1"
15009,commdev-image-keyboard-response,614,1203279,learnblock2,476.5999984741211,img/planet12_right.png,12,Community 1,NA,TRUE,j,j,NA,NA,NA,1,6,"4,15,7,14,12,3,6,5,13,11,9,8,2,10,1"
15009,commdev-image-keyboard-response,615,1204549,learnblock2,595.5,img/planet4_right.png,4,Community 1,NA,TRUE,j,j,NA,NA,NA,1,6,"4,15,7,14,12,3,6,5,13,11,9,8,2,10,1"
15009,commdev-image-keyboard-response,616,1205809,learnblock2,612.5,img/planet12_right.png,12,Community 1,NA,TRUE,j,j,NA,NA,NA,1,6,"4,15,7,14,12,3,6,5,13,11,9,8,2,10,1"
15009,commdev-image-keyboard-response,617,1207069,learnblock2,738.5,img/planet4_right.png,4,Community 1,NA,TRUE,j,j,NA,NA,NA,1,6,"4,15,7,14,12,3,6,5,13,11,9,8,2,10,1"
15009,commdev-image-keyboard-response,618,1208325,learnblock2,713.0999984741211,img/planet15_right.png,15,Community 1,NA,TRUE,j,j,NA,NA,NA,1,6,"4,15,7,14,12,3,6,5,13,11,9,8,2,10,1"
15009,commdev-image-keyboard-response,619,1209588,learnblock2,661.9000015258789,img/planet14_left.png,14,Community 1,NA,TRUE,f,f,NA,NA,NA,1,6,"4,15,7,14,12,3,6,5,13,11,9,8,2,10,1"
15009,commdev-image-keyboard-response,620,1210843,learnblock2,644.7999954223633,img/planet15_right.png,15,Community 1,NA,FALSE,f,j,NA,NA,NA,1,6,"4,15,7,14,12,3,6,5,13,11,9,8,2,10,1"
15009,commdev-image-keyboard-response,621,1212107,learnblock2,545,img/planet14_left.png,14,Community 1,NA,TRUE,f,f,NA,NA,NA,1,6,"4,15,7,14,12,3,6,5,13,11,9,8,2,10,1"
15009,commdev-image-keyboard-response,622,1213362,learnblock2,747.9000015258789,img/planet3_right.png,3,Community 2,NA,TRUE,j,j,NA,NA,NA,1,6,"4,15,7,14,12,3,6,5,13,11,9,8,2,10,1"
15009,commdev-image-keyboard-response,623,1214621,learnblock2,594.5,img/planet14_right.png,14,Community 1,NA,TRUE,j,j,NA,NA,NA,1,6,"4,15,7,14,12,3,6,5,13,11,9,8,2,10,1"
15009,commdev-image-keyboard-response,624,1215891,learnblock2,697.1000061035156,img/planet7_right.png,7,Community 1,NA,TRUE,j,j,NA,NA,NA,1,6,"4,15,7,14,12,3,6,5,13,11,9,8,2,10,1"
15009,commdev-image-keyboard-response,625,1217143,learnblock2,771.5999984741211,img/planet14_right.png,14,Community 1,NA,TRUE,j,j,NA,NA,NA,1,6,"4,15,7,14,12,3,6,5,13,11,9,8,2,10,1"
15009,commdev-image-keyboard-response,626,1218402,learnblock2,612.5999984741211,img/planet3_left.png,3,Community 2,NA,TRUE,f,f,NA,NA,NA,1,6,"4,15,7,14,12,3,6,5,13,11,9,8,2,10,1"
15009,commdev-image-keyboard-response,627,1219662,learnblock2,622.7999954223633,img/planet11_left.png,11,Community 2,NA,TRUE,f,f,NA,NA,NA,1,6,"4,15,7,14,12,3,6,5,13,11,9,8,2,10,1"
15009,commdev-image-keyboard-response,628,1220914,learnblock2,574.5999984741211,img/planet3_right.png,3,Community 2,NA,TRUE,j,j,NA,NA,NA,1,6,"4,15,7,14,12,3,6,5,13,11,9,8,2,10,1"
15009,commdev-image-keyboard-response,629,1222173,learnblock2,602.6000061035156,img/planet11_left.png,11,Community 2,NA,TRUE,f,f,NA,NA,NA,1,6,"4,15,7,14,12,3,6,5,13,11,9,8,2,10,1"
15009,commdev-image-keyboard-response,630,1223433,learnblock2,689.9000015258789,img/planet5_left.png,5,Community 2,NA,TRUE,f,f,NA,NA,NA,1,6,"4,15,7,14,12,3,6,5,13,11,9,8,2,10,1"
15009,commdev-image-keyboard-response,631,1224691,learnblock2,746.6999969482422,img/planet13_left.png,13,Community 2,NA,TRUE,f,f,NA,NA,NA,1,6,"4,15,7,14,12,3,6,5,13,11,9,8,2,10,1"
15009,commdev-image-keyboard-response,632,1225956,learnblock2,598.3000030517578,img/planet11_right.png,11,Community 2,NA,TRUE,j,j,NA,NA,NA,1,6,"4,15,7,14,12,3,6,5,13,11,9,8,2,10,1"
15009,commdev-image-keyboard-response,633,1227225,learnblock2,692.5,img/planet3_left.png,3,Community 2,NA,TRUE,f,f,NA,NA,NA,1,6,"4,15,7,14,12,3,6,5,13,11,9,8,2,10,1"
15009,commdev-image-keyboard-response,634,1228480,learnblock2,608.0999984741211,img/planet13_right.png,13,Community 2,NA,TRUE,j,j,NA,NA,NA,1,6,"4,15,7,14,12,3,6,5,13,11,9,8,2,10,1"
15009,commdev-image-keyboard-response,635,1229733,learnblock2,536.6000061035156,img/planet3_right.png,3,Community 2,NA,TRUE,j,j,NA,NA,NA,1,6,"4,15,7,14,12,3,6,5,13,11,9,8,2,10,1"
15009,commdev-image-keyboard-response,636,1231000,learnblock2,610.1999969482422,img/planet6_right.png,6,Community 2,NA,TRUE,j,j,NA,NA,NA,1,6,"4,15,7,14,12,3,6,5,13,11,9,8,2,10,1"
15009,commdev-image-keyboard-response,637,1232255,learnblock2,656.1000061035156,img/planet13_left.png,13,Community 2,NA,TRUE,f,f,NA,NA,NA,1,6,"4,15,7,14,12,3,6,5,13,11,9,8,2,10,1"
15009,commdev-image-keyboard-response,638,1233512,learnblock2,530.4000015258789,img/planet11_right.png,11,Community 2,NA,TRUE,j,j,NA,NA,NA,1,6,"4,15,7,14,12,3,6,5,13,11,9,8,2,10,1"
15009,commdev-image-keyboard-response,639,1234778,learnblock2,562.8000030517578,img/planet13_left.png,13,Community 2,NA,TRUE,f,f,NA,NA,NA,1,6,"4,15,7,14,12,3,6,5,13,11,9,8,2,10,1"
15009,commdev-image-keyboard-response,640,1236034,learnblock2,541.4000015258789,img/planet5_left.png,5,Community 2,NA,TRUE,f,f,NA,NA,NA,1,6,"4,15,7,14,12,3,6,5,13,11,9,8,2,10,1"
15009,commdev-image-keyboard-response,641,1237292,learnblock2,511.3000030517578,img/planet13_right.png,13,Community 2,NA,TRUE,j,j,NA,NA,NA,1,6,"4,15,7,14,12,3,6,5,13,11,9,8,2,10,1"
15009,commdev-image-keyboard-response,642,1238546,learnblock2,491.4000015258789,img/planet11_right.png,11,Community 2,NA,TRUE,j,j,NA,NA,NA,1,6,"4,15,7,14,12,3,6,5,13,11,9,8,2,10,1"
15009,commdev-image-keyboard-response,643,1239802,learnblock2,541.5999984741211,img/planet5_left.png,5,Community 2,NA,TRUE,f,f,NA,NA,NA,1,6,"4,15,7,14,12,3,6,5,13,11,9,8,2,10,1"
15009,commdev-image-keyboard-response,644,1241062,learnblock2,642,img/planet6_left.png,6,Community 2,NA,TRUE,f,f,NA,NA,NA,1,6,"4,15,7,14,12,3,6,5,13,11,9,8,2,10,1"
15009,commdev-image-keyboard-response,645,1242323,learnblock2,629.8000030517578,img/planet3_left.png,3,Community 2,NA,TRUE,f,f,NA,NA,NA,1,6,"4,15,7,14,12,3,6,5,13,11,9,8,2,10,1"
15009,commdev-image-keyboard-response,646,1243584,learnblock2,546.0999984741211,img/planet14_right.png,14,Community 1,NA,TRUE,j,j,NA,NA,NA,1,6,"4,15,7,14,12,3,6,5,13,11,9,8,2,10,1"
15009,commdev-image-keyboard-response,647,1244846,learnblock2,553.9000015258789,img/planet7_left.png,7,Community 1,NA,TRUE,f,f,NA,NA,NA,1,6,"4,15,7,14,12,3,6,5,13,11,9,8,2,10,1"
15009,commdev-image-keyboard-response,648,1246103,learnblock2,507.2999954223633,img/planet4_right.png,4,Community 1,NA,TRUE,j,j,NA,NA,NA,1,6,"4,15,7,14,12,3,6,5,13,11,9,8,2,10,1"
15009,commdev-image-keyboard-response,649,1247362,learnblock2,592.0999984741211,img/planet12_right.png,12,Community 1,NA,TRUE,j,j,NA,NA,NA,1,6,"4,15,7,14,12,3,6,5,13,11,9,8,2,10,1"
15009,commdev-image-keyboard-response,650,1248623,learnblock2,607.6999969482422,img/planet7_right.png,7,Community 1,NA,TRUE,j,j,NA,NA,NA,1,6,"4,15,7,14,12,3,6,5,13,11,9,8,2,10,1"
15009,commdev-image-keyboard-response,651,1249879,learnblock2,657.3999938964844,img/planet14_left.png,14,Community 1,NA,TRUE,f,f,NA,NA,NA,1,6,"4,15,7,14,12,3,6,5,13,11,9,8,2,10,1"
15009,commdev-image-keyboard-response,652,1251147,learnblock2,564.8999938964844,img/planet4_left.png,4,Community 1,NA,TRUE,f,f,NA,NA,NA,1,6,"4,15,7,14,12,3,6,5,13,11,9,8,2,10,1"
15009,commdev-image-keyboard-response,653,1252414,learnblock2,536.5999984741211,img/planet15_right.png,15,Community 1,NA,TRUE,j,j,NA,NA,NA,1,6,"4,15,7,14,12,3,6,5,13,11,9,8,2,10,1"
15009,commdev-image-keyboard-response,654,1253669,learnblock2,549.1000061035156,img/planet12_right.png,12,Community 1,NA,TRUE,j,j,NA,NA,NA,1,6,"4,15,7,14,12,3,6,5,13,11,9,8,2,10,1"
15009,commdev-image-keyboard-response,655,1254936,learnblock2,541.2999954223633,img/planet9_left.png,9,Community 3,NA,TRUE,f,f,NA,NA,NA,1,6,"4,15,7,14,12,3,6,5,13,11,9,8,2,10,1"
15009,commdev-image-keyboard-response,656,1256196,learnblock2,509.5999984741211,img/planet10_left.png,10,Community 3,NA,TRUE,f,f,NA,NA,NA,1,6,"4,15,7,14,12,3,6,5,13,11,9,8,2,10,1"
15009,commdev-image-keyboard-response,657,1257455,learnblock2,650.2999954223633,img/planet8_left.png,8,Community 3,NA,TRUE,f,f,NA,NA,NA,1,6,"4,15,7,14,12,3,6,5,13,11,9,8,2,10,1"
15009,commdev-image-keyboard-response,658,1258711,learnblock2,610.5,img/planet5_left.png,5,Community 2,NA,TRUE,f,f,NA,NA,NA,1,6,"4,15,7,14,12,3,6,5,13,11,9,8,2,10,1"
15009,commdev-image-keyboard-response,659,1259972,learnblock2,610.1999969482422,img/planet8_right.png,8,Community 3,NA,TRUE,j,j,NA,NA,NA,1,6,"4,15,7,14,12,3,6,5,13,11,9,8,2,10,1"
15009,commdev-image-keyboard-response,660,1261231,learnblock2,594,img/planet5_right.png,5,Community 2,NA,TRUE,j,j,NA,NA,NA,1,6,"4,15,7,14,12,3,6,5,13,11,9,8,2,10,1"
15009,commdev-image-keyboard-response,661,1262488,learnblock2,657,img/planet11_left.png,11,Community 2,NA,TRUE,f,f,NA,NA,NA,1,6,"4,15,7,14,12,3,6,5,13,11,9,8,2,10,1"
15009,commdev-image-keyboard-response,662,1263753,learnblock2,812.9000015258789,img/planet3_right.png,3,Community 2,NA,TRUE,j,j,NA,NA,NA,1,6,"4,15,7,14,12,3,6,5,13,11,9,8,2,10,1"
15009,commdev-image-keyboard-response,663,1265009,learnblock2,545.1000061035156,img/planet13_left.png,13,Community 2,NA,TRUE,f,f,NA,NA,NA,1,6,"4,15,7,14,12,3,6,5,13,11,9,8,2,10,1"
15009,commdev-image-keyboard-response,664,1266276,learnblock2,709.7999954223633,img/planet6_left.png,6,Community 2,NA,TRUE,f,f,NA,NA,NA,1,6,"4,15,7,14,12,3,6,5,13,11,9,8,2,10,1"
15009,commdev-image-keyboard-response,665,1267532,learnblock2,564.7999954223633,img/planet3_right.png,3,Community 2,NA,TRUE,j,j,NA,NA,NA,1,6,"4,15,7,14,12,3,6,5,13,11,9,8,2,10,1"
15009,commdev-image-keyboard-response,666,1268796,learnblock2,543.6000061035156,img/planet13_left.png,13,Community 2,NA,TRUE,f,f,NA,NA,NA,1,6,"4,15,7,14,12,3,6,5,13,11,9,8,2,10,1"
15009,commdev-image-keyboard-response,667,1270056,learnblock2,697.2999954223633,img/planet5_left.png,5,Community 2,NA,TRUE,f,f,NA,NA,NA,1,6,"4,15,7,14,12,3,6,5,13,11,9,8,2,10,1"
15009,commdev-image-keyboard-response,668,1271315,learnblock2,681.5,img/planet8_left.png,8,Community 3,NA,TRUE,f,f,NA,NA,NA,1,6,"4,15,7,14,12,3,6,5,13,11,9,8,2,10,1"
15009,commdev-image-keyboard-response,669,1272579,learnblock2,554.6999969482422,img/planet5_right.png,5,Community 2,NA,FALSE,f,j,NA,NA,NA,1,6,"4,15,7,14,12,3,6,5,13,11,9,8,2,10,1"
15009,commdev-image-keyboard-response,670,1273833,learnblock2,586.5,img/planet13_right.png,13,Community 2,NA,TRUE,j,j,NA,NA,NA,1,6,"4,15,7,14,12,3,6,5,13,11,9,8,2,10,1"
15009,commdev-image-keyboard-response,671,1275093,learnblock2,505.8000030517578,img/planet5_right.png,5,Community 2,NA,TRUE,j,j,NA,NA,NA,1,6,"4,15,7,14,12,3,6,5,13,11,9,8,2,10,1"
15009,commdev-image-keyboard-response,672,1276353,learnblock2,586.7999954223633,img/planet6_right.png,6,Community 2,NA,TRUE,j,j,NA,NA,NA,1,6,"4,15,7,14,12,3,6,5,13,11,9,8,2,10,1"
15009,commdev-image-keyboard-response,673,1277614,learnblock2,512,img/planet11_left.png,11,Community 2,NA,TRUE,f,f,NA,NA,NA,1,6,"4,15,7,14,12,3,6,5,13,11,9,8,2,10,1"
15009,commdev-image-keyboard-response,674,1278867,learnblock2,515.9000015258789,img/planet6_right.png,6,Community 2,NA,TRUE,j,j,NA,NA,NA,1,6,"4,15,7,14,12,3,6,5,13,11,9,8,2,10,1"
15009,commdev-image-keyboard-response,675,1280126,learnblock2,519.2000045776367,img/planet11_left.png,11,Community 2,NA,TRUE,f,f,NA,NA,NA,1,6,"4,15,7,14,12,3,6,5,13,11,9,8,2,10,1"
15009,commdev-image-keyboard-response,676,1281388,learnblock2,527.5999984741211,img/planet5_right.png,5,Community 2,NA,TRUE,j,j,NA,NA,NA,1,6,"4,15,7,14,12,3,6,5,13,11,9,8,2,10,1"
15009,commdev-image-keyboard-response,677,1282647,learnblock2,433.8000030517578,img/planet11_left.png,11,Community 2,NA,TRUE,f,f,NA,NA,NA,1,6,"4,15,7,14,12,3,6,5,13,11,9,8,2,10,1"
15009,commdev-image-keyboard-response,678,1283906,learnblock2,471.6000061035156,img/planet5_right.png,5,Community 2,NA,TRUE,j,j,NA,NA,NA,1,6,"4,15,7,14,12,3,6,5,13,11,9,8,2,10,1"
15009,commdev-image-keyboard-response,679,1285168,learnblock2,503.0999984741211,img/planet13_left.png,13,Community 2,NA,TRUE,f,f,NA,NA,NA,1,6,"4,15,7,14,12,3,6,5,13,11,9,8,2,10,1"
15009,commdev-image-keyboard-response,680,1286427,learnblock2,484.9000015258789,img/planet6_right.png,6,Community 2,NA,TRUE,j,j,NA,NA,NA,1,6,"4,15,7,14,12,3,6,5,13,11,9,8,2,10,1"
15009,commdev-image-keyboard-response,681,1287691,learnblock2,576.1999969482422,img/planet13_right.png,13,Community 2,NA,TRUE,j,j,NA,NA,NA,1,6,"4,15,7,14,12,3,6,5,13,11,9,8,2,10,1"
15009,commdev-image-keyboard-response,682,1288951,learnblock2,629.1999969482422,img/planet3_left.png,3,Community 2,NA,TRUE,f,f,NA,NA,NA,1,6,"4,15,7,14,12,3,6,5,13,11,9,8,2,10,1"
15009,commdev-image-keyboard-response,683,1290209,learnblock2,559.8000030517578,img/planet11_right.png,11,Community 2,NA,TRUE,j,j,NA,NA,NA,1,6,"4,15,7,14,12,3,6,5,13,11,9,8,2,10,1"
15009,commdev-image-keyboard-response,684,1291472,learnblock2,592,img/planet6_left.png,6,Community 2,NA,TRUE,f,f,NA,NA,NA,1,6,"4,15,7,14,12,3,6,5,13,11,9,8,2,10,1"
15009,commdev-image-keyboard-response,685,1292725,learnblock2,548.9000015258789,img/planet13_right.png,13,Community 2,NA,TRUE,j,j,NA,NA,NA,1,6,"4,15,7,14,12,3,6,5,13,11,9,8,2,10,1"
15009,commdev-image-keyboard-response,686,1293978,learnblock2,557.5,img/planet5_right.png,5,Community 2,NA,TRUE,j,j,NA,NA,NA,1,6,"4,15,7,14,12,3,6,5,13,11,9,8,2,10,1"
15009,commdev-image-keyboard-response,687,1295236,learnblock2,551.7000045776367,img/planet11_left.png,11,Community 2,NA,TRUE,f,f,NA,NA,NA,1,6,"4,15,7,14,12,3,6,5,13,11,9,8,2,10,1"
15009,commdev-image-keyboard-response,688,1296496,learnblock2,548.8000030517578,img/planet5_left.png,5,Community 2,NA,TRUE,f,f,NA,NA,NA,1,6,"4,15,7,14,12,3,6,5,13,11,9,8,2,10,1"
15009,commdev-image-keyboard-response,689,1297753,learnblock2,510.3000030517578,img/planet6_right.png,6,Community 2,NA,TRUE,j,j,NA,NA,NA,1,6,"4,15,7,14,12,3,6,5,13,11,9,8,2,10,1"
15009,commdev-image-keyboard-response,690,1299015,learnblock2,523.7999954223633,img/planet11_right.png,11,Community 2,NA,TRUE,j,j,NA,NA,NA,1,6,"4,15,7,14,12,3,6,5,13,11,9,8,2,10,1"
15009,commdev-image-keyboard-response,691,1300277,learnblock2,587.2000045776367,img/planet3_right.png,3,Community 2,NA,TRUE,j,j,NA,NA,NA,1,6,"4,15,7,14,12,3,6,5,13,11,9,8,2,10,1"
15009,commdev-image-keyboard-response,692,1301531,learnblock2,601.7999954223633,img/planet13_left.png,13,Community 2,NA,TRUE,f,f,NA,NA,NA,1,6,"4,15,7,14,12,3,6,5,13,11,9,8,2,10,1"
15009,commdev-image-keyboard-response,693,1302783,learnblock2,533.9000015258789,img/planet11_left.png,11,Community 2,NA,TRUE,f,f,NA,NA,NA,1,6,"4,15,7,14,12,3,6,5,13,11,9,8,2,10,1"
15009,commdev-image-keyboard-response,694,1304040,learnblock2,548.1999969482422,img/planet13_left.png,13,Community 2,NA,TRUE,f,f,NA,NA,NA,1,6,"4,15,7,14,12,3,6,5,13,11,9,8,2,10,1"
15009,commdev-image-keyboard-response,695,1305294,learnblock2,577.1999969482422,img/planet3_left.png,3,Community 2,NA,TRUE,f,f,NA,NA,NA,1,6,"4,15,7,14,12,3,6,5,13,11,9,8,2,10,1"
15009,commdev-image-keyboard-response,696,1306547,learnblock2,564.9000015258789,img/planet6_left.png,6,Community 2,NA,TRUE,f,f,NA,NA,NA,1,6,"4,15,7,14,12,3,6,5,13,11,9,8,2,10,1"
15009,commdev-image-keyboard-response,697,1307810,learnblock2,537.6999969482422,img/planet5_right.png,5,Community 2,NA,FALSE,f,j,NA,NA,NA,1,6,"4,15,7,14,12,3,6,5,13,11,9,8,2,10,1"
15009,commdev-image-keyboard-response,698,1309065,learnblock2,555.7000045776367,img/planet11_left.png,11,Community 2,NA,TRUE,f,f,NA,NA,NA,1,6,"4,15,7,14,12,3,6,5,13,11,9,8,2,10,1"
15009,commdev-image-keyboard-response,699,1310322,learnblock2,473.0999984741211,img/planet5_left.png,5,Community 2,NA,TRUE,f,f,NA,NA,NA,1,6,"4,15,7,14,12,3,6,5,13,11,9,8,2,10,1"
15009,commdev-image-keyboard-response,700,1311580,learnblock2,576.5,img/planet8_right.png,8,Community 3,NA,TRUE,j,j,NA,NA,NA,1,6,"4,15,7,14,12,3,6,5,13,11,9,8,2,10,1"
15009,commdev-image-keyboard-response,701,1312847,learnblock2,554.4000015258789,img/planet1_left.png,1,Community 3,NA,TRUE,f,f,NA,NA,NA,1,6,"4,15,7,14,12,3,6,5,13,11,9,8,2,10,1"
15009,commdev-image-keyboard-response,702,1314106,learnblock2,623.3000030517578,img/planet9_left.png,9,Community 3,NA,TRUE,f,f,NA,NA,NA,1,6,"4,15,7,14,12,3,6,5,13,11,9,8,2,10,1"
15009,commdev-image-keyboard-response,703,1315365,learnblock2,500.7999954223633,img/planet10_left.png,10,Community 3,NA,TRUE,f,f,NA,NA,NA,1,6,"4,15,7,14,12,3,6,5,13,11,9,8,2,10,1"
15009,commdev-image-keyboard-response,704,1316624,learnblock2,537.5,img/planet9_right.png,9,Community 3,NA,TRUE,j,j,NA,NA,NA,1,6,"4,15,7,14,12,3,6,5,13,11,9,8,2,10,1"
15009,commdev-image-keyboard-response,705,1317886,learnblock2,668.9000015258789,img/planet12_left.png,12,Community 1,NA,TRUE,f,f,NA,NA,NA,1,6,"4,15,7,14,12,3,6,5,13,11,9,8,2,10,1"
15009,commdev-image-keyboard-response,706,1319140,learnblock2,519,img/planet7_right.png,7,Community 1,NA,FALSE,f,j,NA,NA,NA,1,6,"4,15,7,14,12,3,6,5,13,11,9,8,2,10,1"
15009,commdev-image-keyboard-response,707,1320398,learnblock2,675.7999954223633,img/planet12_right.png,12,Community 1,NA,TRUE,j,j,NA,NA,NA,1,6,"4,15,7,14,12,3,6,5,13,11,9,8,2,10,1"
15009,commdev-image-keyboard-response,708,1321653,learnblock2,783.8000030517578,img/planet15_right.png,15,Community 1,NA,TRUE,j,j,NA,NA,NA,1,6,"4,15,7,14,12,3,6,5,13,11,9,8,2,10,1"
15009,commdev-image-keyboard-response,709,1322914,learnblock2,564.3999938964844,img/planet7_right.png,7,Community 1,NA,TRUE,j,j,NA,NA,NA,1,6,"4,15,7,14,12,3,6,5,13,11,9,8,2,10,1"
15009,commdev-image-keyboard-response,710,1324168,learnblock2,545.5999984741211,img/planet12_right.png,12,Community 1,NA,TRUE,j,j,NA,NA,NA,1,6,"4,15,7,14,12,3,6,5,13,11,9,8,2,10,1"
15009,commdev-image-keyboard-response,711,1325424,learnblock2,625.7000045776367,img/planet7_right.png,7,Community 1,NA,TRUE,j,j,NA,NA,NA,1,6,"4,15,7,14,12,3,6,5,13,11,9,8,2,10,1"
15009,commdev-image-keyboard-response,712,1326685,learnblock2,920.5999984741211,img/planet14_right.png,14,Community 1,NA,TRUE,j,j,NA,NA,NA,1,6,"4,15,7,14,12,3,6,5,13,11,9,8,2,10,1"
15009,commdev-image-keyboard-response,713,1327943,learnblock2,576,img/planet15_right.png,15,Community 1,NA,TRUE,j,j,NA,NA,NA,1,6,"4,15,7,14,12,3,6,5,13,11,9,8,2,10,1"
15009,commdev-image-keyboard-response,714,1329201,learnblock2,629.8999938964844,img/planet4_left.png,4,Community 1,NA,TRUE,f,f,NA,NA,NA,1,6,"4,15,7,14,12,3,6,5,13,11,9,8,2,10,1"
15009,commdev-image-keyboard-response,715,1330459,learnblock2,639.1999969482422,img/planet15_right.png,15,Community 1,NA,TRUE,j,j,NA,NA,NA,1,6,"4,15,7,14,12,3,6,5,13,11,9,8,2,10,1"
15009,commdev-image-keyboard-response,716,1331713,learnblock2,695.5,img/planet14_left.png,14,Community 1,NA,TRUE,f,f,NA,NA,NA,1,6,"4,15,7,14,12,3,6,5,13,11,9,8,2,10,1"
15009,commdev-image-keyboard-response,717,1332967,learnblock2,534.1999969482422,img/planet15_right.png,15,Community 1,NA,TRUE,j,j,NA,NA,NA,1,6,"4,15,7,14,12,3,6,5,13,11,9,8,2,10,1"
15009,commdev-image-keyboard-response,718,1334223,learnblock2,764.3000030517578,img/planet7_right.png,7,Community 1,NA,TRUE,j,j,NA,NA,NA,1,6,"4,15,7,14,12,3,6,5,13,11,9,8,2,10,1"
15009,commdev-image-keyboard-response,719,1335483,learnblock2,605.0999984741211,img/planet12_right.png,12,Community 1,NA,TRUE,j,j,NA,NA,NA,1,6,"4,15,7,14,12,3,6,5,13,11,9,8,2,10,1"
15009,commdev-image-keyboard-response,720,1336739,learnblock2,611.5999984741211,img/planet4_right.png,4,Community 1,NA,TRUE,j,j,NA,NA,NA,1,6,"4,15,7,14,12,3,6,5,13,11,9,8,2,10,1"
15009,commdev-image-keyboard-response,721,1337998,learnblock2,606.0999984741211,img/planet12_left.png,12,Community 1,NA,TRUE,f,f,NA,NA,NA,1,6,"4,15,7,14,12,3,6,5,13,11,9,8,2,10,1"
15009,commdev-image-keyboard-response,722,1339254,learnblock2,514,img/planet15_left.png,15,Community 1,NA,TRUE,f,f,NA,NA,NA,1,6,"4,15,7,14,12,3,6,5,13,11,9,8,2,10,1"
15009,commdev-image-keyboard-response,723,1340516,learnblock2,593.0999984741211,img/planet7_left.png,7,Community 1,NA,TRUE,f,f,NA,NA,NA,1,6,"4,15,7,14,12,3,6,5,13,11,9,8,2,10,1"
15009,commdev-image-keyboard-response,724,1341768,learnblock2,596.5,img/planet4_left.png,4,Community 1,NA,TRUE,f,f,NA,NA,NA,1,6,"4,15,7,14,12,3,6,5,13,11,9,8,2,10,1"
15009,commdev-image-keyboard-response,725,1343024,learnblock2,526.8000030517578,img/planet15_left.png,15,Community 1,NA,TRUE,f,f,NA,NA,NA,1,6,"4,15,7,14,12,3,6,5,13,11,9,8,2,10,1"
15009,commdev-image-keyboard-response,726,1344276,learnblock2,516.5999984741211,img/planet14_right.png,14,Community 1,NA,TRUE,j,j,NA,NA,NA,1,6,"4,15,7,14,12,3,6,5,13,11,9,8,2,10,1"
15009,commdev-image-keyboard-response,727,1345534,learnblock2,555,img/planet7_left.png,7,Community 1,NA,TRUE,f,f,NA,NA,NA,1,6,"4,15,7,14,12,3,6,5,13,11,9,8,2,10,1"
15009,commdev-image-keyboard-response,728,1346790,learnblock2,518.1999969482422,img/planet4_right.png,4,Community 1,NA,TRUE,j,j,NA,NA,NA,1,6,"4,15,7,14,12,3,6,5,13,11,9,8,2,10,1"
15009,commdev-image-keyboard-response,729,1348045,learnblock2,508.9000015258789,img/planet7_left.png,7,Community 1,NA,TRUE,f,f,NA,NA,NA,1,6,"4,15,7,14,12,3,6,5,13,11,9,8,2,10,1"
15009,commdev-image-keyboard-response,730,1349301,learnblock2,525.2999954223633,img/planet4_left.png,4,Community 1,NA,TRUE,f,f,NA,NA,NA,1,6,"4,15,7,14,12,3,6,5,13,11,9,8,2,10,1"
15009,commdev-image-keyboard-response,731,1350559,learnblock2,484.0999984741211,img/planet12_right.png,12,Community 1,NA,TRUE,j,j,NA,NA,NA,1,6,"4,15,7,14,12,3,6,5,13,11,9,8,2,10,1"
15009,commdev-image-keyboard-response,732,1351818,learnblock2,498.3999938964844,img/planet15_left.png,15,Community 1,NA,TRUE,f,f,NA,NA,NA,1,6,"4,15,7,14,12,3,6,5,13,11,9,8,2,10,1"
15009,commdev-image-keyboard-response,733,1353082,learnblock2,531.3000030517578,img/planet14_right.png,14,Community 1,NA,TRUE,j,j,NA,NA,NA,1,6,"4,15,7,14,12,3,6,5,13,11,9,8,2,10,1"
15009,commdev-image-keyboard-response,734,1354336,learnblock2,543.1999969482422,img/planet15_right.png,15,Community 1,NA,FALSE,f,j,NA,NA,NA,1,6,"4,15,7,14,12,3,6,5,13,11,9,8,2,10,1"
15009,commdev-image-keyboard-response,735,1355590,learnblock2,697.5,img/planet4_right.png,4,Community 1,NA,TRUE,j,j,NA,NA,NA,1,6,"4,15,7,14,12,3,6,5,13,11,9,8,2,10,1"
15009,commdev-image-keyboard-response,736,1356846,learnblock2,521,img/planet12_left.png,12,Community 1,NA,TRUE,f,f,NA,NA,NA,1,6,"4,15,7,14,12,3,6,5,13,11,9,8,2,10,1"
15009,commdev-image-keyboard-response,737,1358097,learnblock2,825.8000030517578,img/planet9_left.png,9,Community 3,NA,TRUE,f,f,NA,NA,NA,1,6,"4,15,7,14,12,3,6,5,13,11,9,8,2,10,1"
15009,commdev-image-keyboard-response,738,1359354,learnblock2,535.5,img/planet1_left.png,1,Community 3,NA,TRUE,f,f,NA,NA,NA,1,6,"4,15,7,14,12,3,6,5,13,11,9,8,2,10,1"
15009,commdev-image-keyboard-response,739,1360608,learnblock2,490.3999938964844,img/planet2_right.png,2,Community 3,NA,TRUE,j,j,NA,NA,NA,1,6,"4,15,7,14,12,3,6,5,13,11,9,8,2,10,1"
15009,commdev-image-keyboard-response,740,1361867,learnblock2,482.6999969482422,img/planet10_right.png,10,Community 3,NA,TRUE,j,j,NA,NA,NA,1,6,"4,15,7,14,12,3,6,5,13,11,9,8,2,10,1"
15009,commdev-image-keyboard-response,741,1363121,learnblock2,539.3000030517578,img/planet8_right.png,8,Community 3,NA,TRUE,j,j,NA,NA,NA,1,6,"4,15,7,14,12,3,6,5,13,11,9,8,2,10,1"
15009,commdev-image-keyboard-response,742,1364389,learnblock2,550.4000015258789,img/planet10_left.png,10,Community 3,NA,TRUE,f,f,NA,NA,NA,1,6,"4,15,7,14,12,3,6,5,13,11,9,8,2,10,1"
15009,commdev-image-keyboard-response,743,1365657,learnblock2,518.6999969482422,img/planet1_left.png,1,Community 3,NA,TRUE,f,f,NA,NA,NA,1,6,"4,15,7,14,12,3,6,5,13,11,9,8,2,10,1"
15009,commdev-image-keyboard-response,744,1366914,learnblock2,493.3000030517578,img/planet10_left.png,10,Community 3,NA,TRUE,f,f,NA,NA,NA,1,6,"4,15,7,14,12,3,6,5,13,11,9,8,2,10,1"
15009,commdev-image-keyboard-response,745,1368169,learnblock2,521.9000015258789,img/planet9_right.png,9,Community 3,NA,TRUE,j,j,NA,NA,NA,1,6,"4,15,7,14,12,3,6,5,13,11,9,8,2,10,1"
15009,commdev-image-keyboard-response,746,1369423,learnblock2,607.1999969482422,img/planet12_left.png,12,Community 1,NA,TRUE,f,f,NA,NA,NA,1,6,"4,15,7,14,12,3,6,5,13,11,9,8,2,10,1"
15009,commdev-image-keyboard-response,747,1370677,learnblock2,584.0999984741211,img/planet9_left.png,9,Community 3,NA,TRUE,f,f,NA,NA,NA,1,6,"4,15,7,14,12,3,6,5,13,11,9,8,2,10,1"
15009,commdev-image-keyboard-response,748,1371932,learnblock2,486.5,img/planet1_left.png,1,Community 3,NA,TRUE,f,f,NA,NA,NA,1,6,"4,15,7,14,12,3,6,5,13,11,9,8,2,10,1"
