subject_id,trial_type,trial_index,time_elapsed,block,rt,stimulus,planet,community,response,correct,key_press,learning_correct_response,parse,init_locations,final_locations,browser_interactions,num_comp,planet_map
14243,commdev-instructions,7,45901,NA,1345,"<p>In this game, you will be shown a 3x3 grid of patterns.</p> <p>The last one in the bottom right-hand corner, <strong>will be missing:</strong></p> <div style='width: 700px;'><div style='float: top;'><img style='width: 200px;' src='practice/p1_M1.png'></img><p class='small'>You need to select<strong> which of the four possible patterns </strong>along the bottom<strong> fits into the gap:</strong></p></div><div style='float: top;'><img style='width: 300px;' src='practice/p1_T1.png'></img></div><br>",NA,NA,NA,NA,NA,NA,NA,NA,NA,26,6,"13,11,10,1,5,4,15,2,12,6,3,9,8,7,14"
14243,commdev-instructions,8,65286,NA,1422,"<p>Try to be as fast and as accurate as you can be.</p> <p>If you cannot solve the puzzle then you should guess - you will not be penalised for an incorrect answer.</p> <p>The task contains a shuffled mix of easy, medium and hard puzzles.</p> <p>You will have <strong>30 seconds</strong> to complete each puzzle.</p><br>",NA,NA,NA,NA,NA,NA,NA,NA,NA,26,6,"13,11,10,1,5,4,15,2,12,6,3,9,8,7,14"
14243,commdev-instructions,15,108084,NA,16955,<p><strong>Success!</strong></p> <p>You seem to be getting the hang of this...</p> <p>Let's move on to the real trials.</p><br>,NA,NA,NA,NA,NA,NA,NA,NA,NA,26,6,"13,11,10,1,5,4,15,2,12,6,3,9,8,7,14"
14243,commdev-instructions,75,622598,NA,22564,"<p>In this game, you are a scientist on board a space shuttle. </p><p> On each mission, you will visit planets all across the universe.</p><img src=""img/controlroom.jpg"" width=300vw>",NA,NA,NA,NA,NA,NA,NA,NA,NA,26,6,"13,11,10,1,5,4,15,2,12,6,3,9,8,7,14"
14243,commdev-instructions,76,626296,NA,1622,"<p>Here are a few planets you might see:</p><img src=""img/practice1.png"" width=200vw><img src=""img/practice2.png"" width=200vw><img src=""img/practice3.png"" width=200vw>",NA,NA,NA,NA,NA,NA,NA,NA,NA,26,6,"13,11,10,1,5,4,15,2,12,6,3,9,8,7,14"
14243,commdev-instructions,77,634697,NA,1007,"<p>Your job as a scientist is to record which direction the winds are moving on each planet.</p><p>There are two types of wind directions:</p><img src=""img/practice1_left.png"" width=200vw><img src=""img/practice1_right.png"" width=200vw>",NA,NA,NA,NA,NA,NA,NA,NA,NA,26,6,"13,11,10,1,5,4,15,2,12,6,3,9,8,7,14"
14243,commdev-instructions,78,639746,NA,169,"<p>If the winds are moving this way, press the letter <strong>F</strong> on the keyboard as fast as you can.</p><img src=""img/leftwind.png"" width=250vw>",NA,NA,NA,NA,NA,NA,NA,NA,NA,26,6,"13,11,10,1,5,4,15,2,12,6,3,9,8,7,14"
14243,commdev-instructions,79,645281,NA,1038,"<p>If the winds are moving this way, press the letter <strong>J</strong> on the keyboard as fast as you can.</p><img src=""img/rightwind.png"" width=350vw>",NA,NA,NA,NA,NA,NA,NA,NA,NA,26,6,"13,11,10,1,5,4,15,2,12,6,3,9,8,7,14"
14243,commdev-instructions,80,655881,NA,6176,<p>You will have 1 second to respond. Try to respond before the time runs out!,NA,NA,NA,NA,NA,NA,NA,NA,NA,26,6,"13,11,10,1,5,4,15,2,12,6,3,9,8,7,14"
14243,commdev-instructions,81,661713,NA,403,<p>The planets you will visit will look different from each other.</p><p>You should respond <strong>only</strong> based on wind direction.,NA,NA,NA,NA,NA,NA,NA,NA,NA,26,6,"13,11,10,1,5,4,15,2,12,6,3,9,8,7,14"
14243,commdev-instructions,82,667847,NA,964,"<p> Ready to start the practice round? </p><p> Remember, press <strong>F</strong> or <strong>J</strong> depending on the wind direction.<br><img src=""img/categorize_planet_example.png""",NA,NA,NA,NA,NA,NA,NA,NA,NA,26,6,"13,11,10,1,5,4,15,2,12,6,3,9,8,7,14"
14243,commdev-instructions,94,720780,NA,1374,"<p>Great, now try a short practice mission. </p><p> This time, you will have 1 second to respond and you won't know whether you pressed the right or wrong key for each planet.</p>",NA,NA,NA,NA,NA,NA,NA,NA,NA,26,6,"13,11,10,1,5,4,15,2,12,6,3,9,8,7,14"
14243,commdev-image-keyboard-response,95,722133,practice,779,img/practice1_left.png,NA,Number not found in mappings,NA,TRUE,f,f,NA,NA,NA,26,6,"13,11,10,1,5,4,15,2,12,6,3,9,8,7,14"
14243,commdev-image-keyboard-response,96,723386,practice,760,img/practice2_left.png,NA,Number not found in mappings,NA,TRUE,f,f,NA,NA,NA,26,6,"13,11,10,1,5,4,15,2,12,6,3,9,8,7,14"
14243,commdev-image-keyboard-response,97,724638,practice,582,img/practice3_right.png,NA,Number not found in mappings,NA,TRUE,j,j,NA,NA,NA,26,6,"13,11,10,1,5,4,15,2,12,6,3,9,8,7,14"
14243,commdev-image-keyboard-response,98,725890,practice,464,img/practice1_right.png,NA,Number not found in mappings,NA,TRUE,j,j,NA,NA,NA,26,6,"13,11,10,1,5,4,15,2,12,6,3,9,8,7,14"
14243,commdev-image-keyboard-response,99,727142,practice,516,img/practice2_left.png,NA,Number not found in mappings,NA,TRUE,f,f,NA,NA,NA,26,6,"13,11,10,1,5,4,15,2,12,6,3,9,8,7,14"
14243,commdev-image-keyboard-response,100,728393,practice,462,img/practice3_right.png,NA,Number not found in mappings,NA,FALSE,f,j,NA,NA,NA,26,6,"13,11,10,1,5,4,15,2,12,6,3,9,8,7,14"
14243,commdev-image-keyboard-response,101,729646,practice,480,img/practice4_left.png,NA,Number not found in mappings,NA,FALSE,j,f,NA,NA,NA,26,6,"13,11,10,1,5,4,15,2,12,6,3,9,8,7,14"
14243,commdev-image-keyboard-response,102,730898,practice,null,img/practice2_left.png,NA,Number not found in mappings,NA,FALSE,null,f,NA,NA,NA,26,6,"13,11,10,1,5,4,15,2,12,6,3,9,8,7,14"
14243,commdev-instructions,103,787480,NA,47025,"<p>Great job with the practice round.</p><p>During real missions, you won't know whether you pressed the right or wrong key for each planet.</p><p>But between missions, we will tell you how you did overall.</p>",NA,NA,NA,NA,NA,NA,NA,NA,NA,26,6,"13,11,10,1,5,4,15,2,12,6,3,9,8,7,14"
14243,commdev-instructions,104,806896,NA,11125,<p>Try your best! You will be paid a bonus based on how many correct responses you make!</p><p>Responses that are too slow will not count toward your bonus.</p>,NA,NA,NA,NA,NA,NA,NA,NA,NA,26,6,"13,11,10,1,5,4,15,2,12,6,3,9,8,7,14"
14243,commdev-instructions,105,813429,NA,332,"<p>You are almost ready to start the real game.</p><p> First, we are going to ask you some questions about how the game works.</p>",NA,NA,NA,NA,NA,NA,NA,NA,NA,26,6,"13,11,10,1,5,4,15,2,12,6,3,9,8,7,14"
14243,commdev-instructions,114,906178,NA,15897,"<p> Nice work! It is now time to start the real game.<p></p>You will go on two missions to record wind directions of different planets.<p></p>Each one will take about 5 minutes. You will get to take a break between missions.<p><p> Remember, press <strong>F</strong> or <strong>J</strong> depending on the wind direction. Good luck!<br><img src=""img/categorize_planet_example.png""",NA,NA,NA,NA,NA,NA,NA,NA,NA,26,6,"13,11,10,1,5,4,15,2,12,6,3,9,8,7,14"
14243,commdev-image-keyboard-response,116,909410,learnblock1,599,img/planet3_right.png,3,Community 3,NA,TRUE,j,j,NA,NA,NA,26,6,"13,11,10,1,5,4,15,2,12,6,3,9,8,7,14"
14243,commdev-image-keyboard-response,117,910663,learnblock1,498,img/planet8_right.png,8,Community 3,NA,TRUE,j,j,NA,NA,NA,26,6,"13,11,10,1,5,4,15,2,12,6,3,9,8,7,14"
14243,commdev-image-keyboard-response,118,911914,learnblock1,564,img/planet7_left.png,7,Community 3,NA,TRUE,f,f,NA,NA,NA,26,6,"13,11,10,1,5,4,15,2,12,6,3,9,8,7,14"
14243,commdev-image-keyboard-response,119,913166,learnblock1,402,img/planet9_left.png,9,Community 3,NA,TRUE,f,f,NA,NA,NA,26,6,"13,11,10,1,5,4,15,2,12,6,3,9,8,7,14"
14243,commdev-image-keyboard-response,120,914418,learnblock1,419,img/planet2_right.png,2,Community 2,NA,TRUE,j,j,NA,NA,NA,26,6,"13,11,10,1,5,4,15,2,12,6,3,9,8,7,14"
14243,commdev-image-keyboard-response,121,915671,learnblock1,685,img/planet6_left.png,6,Community 2,NA,TRUE,f,f,NA,NA,NA,26,6,"13,11,10,1,5,4,15,2,12,6,3,9,8,7,14"
14243,commdev-image-keyboard-response,122,916922,learnblock1,563,img/planet12_right.png,12,Community 2,NA,FALSE,f,j,NA,NA,NA,26,6,"13,11,10,1,5,4,15,2,12,6,3,9,8,7,14"
14243,commdev-image-keyboard-response,123,918174,learnblock1,644,img/planet15_left.png,15,Community 2,NA,TRUE,f,f,NA,NA,NA,26,6,"13,11,10,1,5,4,15,2,12,6,3,9,8,7,14"
14243,commdev-image-keyboard-response,124,919426,learnblock1,483,img/planet2_right.png,2,Community 2,NA,TRUE,j,j,NA,NA,NA,26,6,"13,11,10,1,5,4,15,2,12,6,3,9,8,7,14"
14243,commdev-image-keyboard-response,125,920679,learnblock1,440,img/planet12_left.png,12,Community 2,NA,TRUE,f,f,NA,NA,NA,26,6,"13,11,10,1,5,4,15,2,12,6,3,9,8,7,14"
14243,commdev-image-keyboard-response,126,921931,learnblock1,411,img/planet2_right.png,2,Community 2,NA,TRUE,j,j,NA,NA,NA,26,6,"13,11,10,1,5,4,15,2,12,6,3,9,8,7,14"
14243,commdev-image-keyboard-response,127,923184,learnblock1,539,img/planet15_right.png,15,Community 2,NA,FALSE,f,j,NA,NA,NA,26,6,"13,11,10,1,5,4,15,2,12,6,3,9,8,7,14"
14243,commdev-image-keyboard-response,128,924437,learnblock1,760,img/planet2_right.png,2,Community 2,NA,TRUE,j,j,NA,NA,NA,26,6,"13,11,10,1,5,4,15,2,12,6,3,9,8,7,14"
14243,commdev-image-keyboard-response,129,925688,learnblock1,564,img/planet12_right.png,12,Community 2,NA,TRUE,j,j,NA,NA,NA,26,6,"13,11,10,1,5,4,15,2,12,6,3,9,8,7,14"
14243,commdev-image-keyboard-response,130,926940,learnblock1,448,img/planet2_left.png,2,Community 2,NA,FALSE,j,f,NA,NA,NA,26,6,"13,11,10,1,5,4,15,2,12,6,3,9,8,7,14"
14243,commdev-image-keyboard-response,131,928191,learnblock1,592,img/planet12_right.png,12,Community 2,NA,TRUE,j,j,NA,NA,NA,26,6,"13,11,10,1,5,4,15,2,12,6,3,9,8,7,14"
14243,commdev-image-keyboard-response,132,929444,learnblock1,483,img/planet4_right.png,4,Community 2,NA,TRUE,j,j,NA,NA,NA,26,6,"13,11,10,1,5,4,15,2,12,6,3,9,8,7,14"
14243,commdev-image-keyboard-response,133,930696,learnblock1,445,img/planet1_left.png,1,Community 1,NA,FALSE,j,f,NA,NA,NA,26,6,"13,11,10,1,5,4,15,2,12,6,3,9,8,7,14"
14243,commdev-image-keyboard-response,134,931948,learnblock1,563,img/planet13_right.png,13,Community 1,NA,TRUE,j,j,NA,NA,NA,26,6,"13,11,10,1,5,4,15,2,12,6,3,9,8,7,14"
14243,commdev-image-keyboard-response,135,933200,learnblock1,510,img/planet5_left.png,5,Community 1,NA,TRUE,f,f,NA,NA,NA,26,6,"13,11,10,1,5,4,15,2,12,6,3,9,8,7,14"
14243,commdev-image-keyboard-response,136,934452,learnblock1,442,img/planet13_right.png,13,Community 1,NA,FALSE,f,j,NA,NA,NA,26,6,"13,11,10,1,5,4,15,2,12,6,3,9,8,7,14"
14243,commdev-image-keyboard-response,137,935704,learnblock1,586,img/planet1_right.png,1,Community 1,NA,TRUE,j,j,NA,NA,NA,26,6,"13,11,10,1,5,4,15,2,12,6,3,9,8,7,14"
14243,commdev-image-keyboard-response,138,936956,learnblock1,634,img/planet4_left.png,4,Community 2,NA,TRUE,f,f,NA,NA,NA,26,6,"13,11,10,1,5,4,15,2,12,6,3,9,8,7,14"
14243,commdev-image-keyboard-response,139,938207,learnblock1,539,img/planet1_left.png,1,Community 1,NA,TRUE,f,f,NA,NA,NA,26,6,"13,11,10,1,5,4,15,2,12,6,3,9,8,7,14"
14243,commdev-image-keyboard-response,140,939460,learnblock1,492,img/planet11_right.png,11,Community 1,NA,TRUE,j,j,NA,NA,NA,26,6,"13,11,10,1,5,4,15,2,12,6,3,9,8,7,14"
14243,commdev-image-keyboard-response,141,940711,learnblock1,466,img/planet5_right.png,5,Community 1,NA,TRUE,j,j,NA,NA,NA,26,6,"13,11,10,1,5,4,15,2,12,6,3,9,8,7,14"
14243,commdev-image-keyboard-response,142,941964,learnblock1,645,img/planet3_right.png,3,Community 3,NA,TRUE,j,j,NA,NA,NA,26,6,"13,11,10,1,5,4,15,2,12,6,3,9,8,7,14"
14243,commdev-image-keyboard-response,143,943216,learnblock1,659,img/planet14_left.png,14,Community 3,NA,TRUE,f,f,NA,NA,NA,26,6,"13,11,10,1,5,4,15,2,12,6,3,9,8,7,14"
14243,commdev-image-keyboard-response,144,944469,learnblock1,514,img/planet8_right.png,8,Community 3,NA,TRUE,j,j,NA,NA,NA,26,6,"13,11,10,1,5,4,15,2,12,6,3,9,8,7,14"
14243,commdev-image-keyboard-response,145,945721,learnblock1,478,img/planet9_right.png,9,Community 3,NA,TRUE,j,j,NA,NA,NA,26,6,"13,11,10,1,5,4,15,2,12,6,3,9,8,7,14"
14243,commdev-image-keyboard-response,146,946972,learnblock1,503,img/planet8_right.png,8,Community 3,NA,TRUE,j,j,NA,NA,NA,26,6,"13,11,10,1,5,4,15,2,12,6,3,9,8,7,14"
14243,commdev-image-keyboard-response,147,948223,learnblock1,501,img/planet9_left.png,9,Community 3,NA,TRUE,f,f,NA,NA,NA,26,6,"13,11,10,1,5,4,15,2,12,6,3,9,8,7,14"
14243,commdev-image-keyboard-response,148,949474,learnblock1,452,img/planet14_left.png,14,Community 3,NA,TRUE,f,f,NA,NA,NA,26,6,"13,11,10,1,5,4,15,2,12,6,3,9,8,7,14"
14243,commdev-image-keyboard-response,149,950727,learnblock1,579,img/planet8_left.png,8,Community 3,NA,FALSE,j,f,NA,NA,NA,26,6,"13,11,10,1,5,4,15,2,12,6,3,9,8,7,14"
14243,commdev-image-keyboard-response,150,951979,learnblock1,465,img/planet3_right.png,3,Community 3,NA,TRUE,j,j,NA,NA,NA,26,6,"13,11,10,1,5,4,15,2,12,6,3,9,8,7,14"
14243,commdev-image-keyboard-response,151,953231,learnblock1,495,img/planet14_right.png,14,Community 3,NA,TRUE,j,j,NA,NA,NA,26,6,"13,11,10,1,5,4,15,2,12,6,3,9,8,7,14"
14243,commdev-image-keyboard-response,152,954483,learnblock1,497,img/planet8_left.png,8,Community 3,NA,TRUE,f,f,NA,NA,NA,26,6,"13,11,10,1,5,4,15,2,12,6,3,9,8,7,14"
14243,commdev-image-keyboard-response,153,955736,learnblock1,482,img/planet7_right.png,7,Community 3,NA,FALSE,f,j,NA,NA,NA,26,6,"13,11,10,1,5,4,15,2,12,6,3,9,8,7,14"
14243,commdev-image-keyboard-response,154,956987,learnblock1,600,img/planet8_right.png,8,Community 3,NA,TRUE,j,j,NA,NA,NA,26,6,"13,11,10,1,5,4,15,2,12,6,3,9,8,7,14"
14243,commdev-image-keyboard-response,155,958238,learnblock1,493,img/planet7_left.png,7,Community 3,NA,TRUE,f,f,NA,NA,NA,26,6,"13,11,10,1,5,4,15,2,12,6,3,9,8,7,14"
14243,commdev-image-keyboard-response,156,959491,learnblock1,600,img/planet3_left.png,3,Community 3,NA,TRUE,f,f,NA,NA,NA,26,6,"13,11,10,1,5,4,15,2,12,6,3,9,8,7,14"
14243,commdev-image-keyboard-response,157,960743,learnblock1,504,img/planet5_right.png,5,Community 1,NA,TRUE,j,j,NA,NA,NA,26,6,"13,11,10,1,5,4,15,2,12,6,3,9,8,7,14"
14243,commdev-image-keyboard-response,158,961995,learnblock1,576,img/planet10_left.png,10,Community 1,NA,TRUE,f,f,NA,NA,NA,26,6,"13,11,10,1,5,4,15,2,12,6,3,9,8,7,14"
14243,commdev-image-keyboard-response,159,963248,learnblock1,500,img/planet5_left.png,5,Community 1,NA,TRUE,f,f,NA,NA,NA,26,6,"13,11,10,1,5,4,15,2,12,6,3,9,8,7,14"
14243,commdev-image-keyboard-response,160,964500,learnblock1,1083,img/planet10_left.png,10,Community 1,NA,TRUE,f,f,NA,NA,NA,26,6,"13,11,10,1,5,4,15,2,12,6,3,9,8,7,14"
14243,commdev-image-keyboard-response,161,965751,learnblock1,636,img/planet5_right.png,5,Community 1,NA,TRUE,j,j,NA,NA,NA,26,6,"13,11,10,1,5,4,15,2,12,6,3,9,8,7,14"
14243,commdev-image-keyboard-response,162,967004,learnblock1,514,img/planet3_right.png,3,Community 3,NA,TRUE,j,j,NA,NA,NA,26,6,"13,11,10,1,5,4,15,2,12,6,3,9,8,7,14"
14243,commdev-image-keyboard-response,163,968255,learnblock1,700,img/planet5_right.png,5,Community 1,NA,TRUE,j,j,NA,NA,NA,26,6,"13,11,10,1,5,4,15,2,12,6,3,9,8,7,14"
14243,commdev-image-keyboard-response,164,969506,learnblock1,551,img/planet10_right.png,10,Community 1,NA,TRUE,j,j,NA,NA,NA,26,6,"13,11,10,1,5,4,15,2,12,6,3,9,8,7,14"
14243,commdev-image-keyboard-response,165,970758,learnblock1,468,img/planet11_left.png,11,Community 1,NA,TRUE,f,f,NA,NA,NA,26,6,"13,11,10,1,5,4,15,2,12,6,3,9,8,7,14"
14243,commdev-image-keyboard-response,166,972011,learnblock1,620,img/planet5_right.png,5,Community 1,NA,TRUE,j,j,NA,NA,NA,26,6,"13,11,10,1,5,4,15,2,12,6,3,9,8,7,14"
14243,commdev-image-keyboard-response,167,973263,learnblock1,496,img/planet10_left.png,10,Community 1,NA,TRUE,f,f,NA,NA,NA,26,6,"13,11,10,1,5,4,15,2,12,6,3,9,8,7,14"
14243,commdev-image-keyboard-response,168,974516,learnblock1,408,img/planet1_left.png,1,Community 1,NA,FALSE,j,f,NA,NA,NA,26,6,"13,11,10,1,5,4,15,2,12,6,3,9,8,7,14"
14243,commdev-image-keyboard-response,169,975768,learnblock1,515,img/planet10_left.png,10,Community 1,NA,TRUE,f,f,NA,NA,NA,26,6,"13,11,10,1,5,4,15,2,12,6,3,9,8,7,14"
14243,commdev-image-keyboard-response,170,977020,learnblock1,470,img/planet1_right.png,1,Community 1,NA,TRUE,j,j,NA,NA,NA,26,6,"13,11,10,1,5,4,15,2,12,6,3,9,8,7,14"
14243,commdev-image-keyboard-response,171,978272,learnblock1,473,img/planet11_right.png,11,Community 1,NA,TRUE,j,j,NA,NA,NA,26,6,"13,11,10,1,5,4,15,2,12,6,3,9,8,7,14"
14243,commdev-image-keyboard-response,172,979523,learnblock1,403,img/planet5_left.png,5,Community 1,NA,TRUE,f,f,NA,NA,NA,26,6,"13,11,10,1,5,4,15,2,12,6,3,9,8,7,14"
14243,commdev-image-keyboard-response,173,980776,learnblock1,529,img/planet13_right.png,13,Community 1,NA,TRUE,j,j,NA,NA,NA,26,6,"13,11,10,1,5,4,15,2,12,6,3,9,8,7,14"
14243,commdev-image-keyboard-response,174,982028,learnblock1,444,img/planet10_right.png,10,Community 1,NA,TRUE,j,j,NA,NA,NA,26,6,"13,11,10,1,5,4,15,2,12,6,3,9,8,7,14"
14243,commdev-image-keyboard-response,175,983280,learnblock1,466,img/planet13_right.png,13,Community 1,NA,TRUE,j,j,NA,NA,NA,26,6,"13,11,10,1,5,4,15,2,12,6,3,9,8,7,14"
14243,commdev-image-keyboard-response,176,984531,learnblock1,439,img/planet5_right.png,5,Community 1,NA,TRUE,j,j,NA,NA,NA,26,6,"13,11,10,1,5,4,15,2,12,6,3,9,8,7,14"
14243,commdev-image-keyboard-response,177,985783,learnblock1,563,img/planet11_left.png,11,Community 1,NA,TRUE,f,f,NA,NA,NA,26,6,"13,11,10,1,5,4,15,2,12,6,3,9,8,7,14"
14243,commdev-image-keyboard-response,178,987036,learnblock1,564,img/planet5_left.png,5,Community 1,NA,FALSE,j,f,NA,NA,NA,26,6,"13,11,10,1,5,4,15,2,12,6,3,9,8,7,14"
14243,commdev-image-keyboard-response,179,988289,learnblock1,931,img/planet11_left.png,11,Community 1,NA,TRUE,f,f,NA,NA,NA,26,6,"13,11,10,1,5,4,15,2,12,6,3,9,8,7,14"
14243,commdev-image-keyboard-response,180,989541,learnblock1,614,img/planet10_left.png,10,Community 1,NA,TRUE,f,f,NA,NA,NA,26,6,"13,11,10,1,5,4,15,2,12,6,3,9,8,7,14"
14243,commdev-image-keyboard-response,181,990794,learnblock1,485,img/planet1_right.png,1,Community 1,NA,TRUE,j,j,NA,NA,NA,26,6,"13,11,10,1,5,4,15,2,12,6,3,9,8,7,14"
14243,commdev-image-keyboard-response,182,992046,learnblock1,479,img/planet10_left.png,10,Community 1,NA,TRUE,f,f,NA,NA,NA,26,6,"13,11,10,1,5,4,15,2,12,6,3,9,8,7,14"
14243,commdev-image-keyboard-response,183,993297,learnblock1,529,img/planet5_left.png,5,Community 1,NA,TRUE,f,f,NA,NA,NA,26,6,"13,11,10,1,5,4,15,2,12,6,3,9,8,7,14"
14243,commdev-image-keyboard-response,184,994549,learnblock1,643,img/planet3_right.png,3,Community 3,NA,TRUE,j,j,NA,NA,NA,26,6,"13,11,10,1,5,4,15,2,12,6,3,9,8,7,14"
14243,commdev-image-keyboard-response,185,995800,learnblock1,567,img/planet14_right.png,14,Community 3,NA,TRUE,j,j,NA,NA,NA,26,6,"13,11,10,1,5,4,15,2,12,6,3,9,8,7,14"
14243,commdev-image-keyboard-response,186,997052,learnblock1,536,img/planet3_right.png,3,Community 3,NA,TRUE,j,j,NA,NA,NA,26,6,"13,11,10,1,5,4,15,2,12,6,3,9,8,7,14"
14243,commdev-image-keyboard-response,187,998304,learnblock1,549,img/planet14_right.png,14,Community 3,NA,TRUE,j,j,NA,NA,NA,26,6,"13,11,10,1,5,4,15,2,12,6,3,9,8,7,14"
14243,commdev-image-keyboard-response,188,999557,learnblock1,571,img/planet8_left.png,8,Community 3,NA,TRUE,f,f,NA,NA,NA,26,6,"13,11,10,1,5,4,15,2,12,6,3,9,8,7,14"
14243,commdev-image-keyboard-response,189,1000808,learnblock1,573,img/planet14_right.png,14,Community 3,NA,TRUE,j,j,NA,NA,NA,26,6,"13,11,10,1,5,4,15,2,12,6,3,9,8,7,14"
14243,commdev-image-keyboard-response,190,1002061,learnblock1,497,img/planet9_left.png,9,Community 3,NA,TRUE,f,f,NA,NA,NA,26,6,"13,11,10,1,5,4,15,2,12,6,3,9,8,7,14"
14243,commdev-image-keyboard-response,191,1003313,learnblock1,480,img/planet8_left.png,8,Community 3,NA,FALSE,j,f,NA,NA,NA,26,6,"13,11,10,1,5,4,15,2,12,6,3,9,8,7,14"
14243,commdev-image-keyboard-response,192,1004565,learnblock1,520,img/planet9_left.png,9,Community 3,NA,TRUE,f,f,NA,NA,NA,26,6,"13,11,10,1,5,4,15,2,12,6,3,9,8,7,14"
14243,commdev-image-keyboard-response,193,1005817,learnblock1,571,img/planet7_right.png,7,Community 3,NA,FALSE,f,j,NA,NA,NA,26,6,"13,11,10,1,5,4,15,2,12,6,3,9,8,7,14"
14243,commdev-image-keyboard-response,194,1007069,learnblock1,560,img/planet8_left.png,8,Community 3,NA,FALSE,j,f,NA,NA,NA,26,6,"13,11,10,1,5,4,15,2,12,6,3,9,8,7,14"
14243,commdev-image-keyboard-response,195,1008321,learnblock1,738,img/planet14_left.png,14,Community 3,NA,TRUE,f,f,NA,NA,NA,26,6,"13,11,10,1,5,4,15,2,12,6,3,9,8,7,14"
14243,commdev-image-keyboard-response,196,1009572,learnblock1,651,img/planet9_left.png,9,Community 3,NA,TRUE,f,f,NA,NA,NA,26,6,"13,11,10,1,5,4,15,2,12,6,3,9,8,7,14"
14243,commdev-image-keyboard-response,197,1010824,learnblock1,528,img/planet8_right.png,8,Community 3,NA,TRUE,j,j,NA,NA,NA,26,6,"13,11,10,1,5,4,15,2,12,6,3,9,8,7,14"
14243,commdev-image-keyboard-response,198,1012077,learnblock1,495,img/planet9_right.png,9,Community 3,NA,TRUE,j,j,NA,NA,NA,26,6,"13,11,10,1,5,4,15,2,12,6,3,9,8,7,14"
14243,commdev-image-keyboard-response,199,1013329,learnblock1,678,img/planet7_left.png,7,Community 3,NA,TRUE,f,f,NA,NA,NA,26,6,"13,11,10,1,5,4,15,2,12,6,3,9,8,7,14"
14243,commdev-image-keyboard-response,200,1014581,learnblock1,612,img/planet14_left.png,14,Community 3,NA,TRUE,f,f,NA,NA,NA,26,6,"13,11,10,1,5,4,15,2,12,6,3,9,8,7,14"
14243,commdev-image-keyboard-response,201,1015834,learnblock1,621,img/planet9_right.png,9,Community 3,NA,TRUE,j,j,NA,NA,NA,26,6,"13,11,10,1,5,4,15,2,12,6,3,9,8,7,14"
14243,commdev-image-keyboard-response,202,1017086,learnblock1,695,img/planet7_left.png,7,Community 3,NA,TRUE,f,f,NA,NA,NA,26,6,"13,11,10,1,5,4,15,2,12,6,3,9,8,7,14"
14243,commdev-image-keyboard-response,203,1018338,learnblock1,535,img/planet9_left.png,9,Community 3,NA,TRUE,f,f,NA,NA,NA,26,6,"13,11,10,1,5,4,15,2,12,6,3,9,8,7,14"
14243,commdev-image-keyboard-response,204,1019590,learnblock1,517,img/planet8_left.png,8,Community 3,NA,TRUE,f,f,NA,NA,NA,26,6,"13,11,10,1,5,4,15,2,12,6,3,9,8,7,14"
14243,commdev-image-keyboard-response,205,1020842,learnblock1,489,img/planet3_left.png,3,Community 3,NA,TRUE,f,f,NA,NA,NA,26,6,"13,11,10,1,5,4,15,2,12,6,3,9,8,7,14"
14243,commdev-image-keyboard-response,206,1022094,learnblock1,495,img/planet14_right.png,14,Community 3,NA,TRUE,j,j,NA,NA,NA,26,6,"13,11,10,1,5,4,15,2,12,6,3,9,8,7,14"
14243,commdev-image-keyboard-response,207,1023347,learnblock1,522,img/planet9_right.png,9,Community 3,NA,TRUE,j,j,NA,NA,NA,26,6,"13,11,10,1,5,4,15,2,12,6,3,9,8,7,14"
14243,commdev-image-keyboard-response,208,1024598,learnblock1,582,img/planet2_right.png,2,Community 2,NA,FALSE,f,j,NA,NA,NA,26,6,"13,11,10,1,5,4,15,2,12,6,3,9,8,7,14"
14243,commdev-image-keyboard-response,209,1025850,learnblock1,709,img/planet6_left.png,6,Community 2,NA,TRUE,f,f,NA,NA,NA,26,6,"13,11,10,1,5,4,15,2,12,6,3,9,8,7,14"
14243,commdev-image-keyboard-response,210,1027102,learnblock1,541,img/planet15_right.png,15,Community 2,NA,FALSE,f,j,NA,NA,NA,26,6,"13,11,10,1,5,4,15,2,12,6,3,9,8,7,14"
14243,commdev-image-keyboard-response,211,1028354,learnblock1,747,img/planet4_left.png,4,Community 2,NA,TRUE,f,f,NA,NA,NA,26,6,"13,11,10,1,5,4,15,2,12,6,3,9,8,7,14"
14243,commdev-image-keyboard-response,212,1029604,learnblock1,542,img/planet12_left.png,12,Community 2,NA,TRUE,f,f,NA,NA,NA,26,6,"13,11,10,1,5,4,15,2,12,6,3,9,8,7,14"
14243,commdev-image-keyboard-response,213,1030857,learnblock1,452,img/planet15_left.png,15,Community 2,NA,TRUE,f,f,NA,NA,NA,26,6,"13,11,10,1,5,4,15,2,12,6,3,9,8,7,14"
14243,commdev-image-keyboard-response,214,1032109,learnblock1,266,img/planet6_right.png,6,Community 2,NA,TRUE,j,j,NA,NA,NA,26,6,"13,11,10,1,5,4,15,2,12,6,3,9,8,7,14"
14243,commdev-image-keyboard-response,215,1033361,learnblock1,587,img/planet12_right.png,12,Community 2,NA,TRUE,j,j,NA,NA,NA,26,6,"13,11,10,1,5,4,15,2,12,6,3,9,8,7,14"
14243,commdev-image-keyboard-response,216,1034612,learnblock1,544,img/planet6_left.png,6,Community 2,NA,FALSE,j,f,NA,NA,NA,26,6,"13,11,10,1,5,4,15,2,12,6,3,9,8,7,14"
14243,commdev-image-keyboard-response,217,1035865,learnblock1,706,img/planet2_left.png,2,Community 2,NA,TRUE,f,f,NA,NA,NA,26,6,"13,11,10,1,5,4,15,2,12,6,3,9,8,7,14"
14243,commdev-image-keyboard-response,218,1037117,learnblock1,589,img/planet12_left.png,12,Community 2,NA,TRUE,f,f,NA,NA,NA,26,6,"13,11,10,1,5,4,15,2,12,6,3,9,8,7,14"
14243,commdev-image-keyboard-response,219,1038369,learnblock1,588,img/planet6_left.png,6,Community 2,NA,TRUE,f,f,NA,NA,NA,26,6,"13,11,10,1,5,4,15,2,12,6,3,9,8,7,14"
14243,commdev-image-keyboard-response,220,1039620,learnblock1,637,img/planet15_left.png,15,Community 2,NA,FALSE,j,f,NA,NA,NA,26,6,"13,11,10,1,5,4,15,2,12,6,3,9,8,7,14"
14243,commdev-image-keyboard-response,221,1040872,learnblock1,837,img/planet2_left.png,2,Community 2,NA,TRUE,f,f,NA,NA,NA,26,6,"13,11,10,1,5,4,15,2,12,6,3,9,8,7,14"
14243,commdev-image-keyboard-response,222,1042124,learnblock1,536,img/planet15_left.png,15,Community 2,NA,TRUE,f,f,NA,NA,NA,26,6,"13,11,10,1,5,4,15,2,12,6,3,9,8,7,14"
14243,commdev-image-keyboard-response,223,1043377,learnblock1,472,img/planet2_left.png,2,Community 2,NA,TRUE,f,f,NA,NA,NA,26,6,"13,11,10,1,5,4,15,2,12,6,3,9,8,7,14"
14243,commdev-image-keyboard-response,224,1044629,learnblock1,476,img/planet12_right.png,12,Community 2,NA,FALSE,f,j,NA,NA,NA,26,6,"13,11,10,1,5,4,15,2,12,6,3,9,8,7,14"
14243,commdev-image-keyboard-response,225,1045881,learnblock1,561,img/planet4_left.png,4,Community 2,NA,TRUE,f,f,NA,NA,NA,26,6,"13,11,10,1,5,4,15,2,12,6,3,9,8,7,14"
14243,commdev-image-keyboard-response,226,1047133,learnblock1,590,img/planet12_right.png,12,Community 2,NA,TRUE,j,j,NA,NA,NA,26,6,"13,11,10,1,5,4,15,2,12,6,3,9,8,7,14"
14243,commdev-image-keyboard-response,227,1048386,learnblock1,577,img/planet6_left.png,6,Community 2,NA,TRUE,f,f,NA,NA,NA,26,6,"13,11,10,1,5,4,15,2,12,6,3,9,8,7,14"
14243,commdev-image-keyboard-response,228,1049637,learnblock1,534,img/planet4_left.png,4,Community 2,NA,TRUE,f,f,NA,NA,NA,26,6,"13,11,10,1,5,4,15,2,12,6,3,9,8,7,14"
14243,commdev-image-keyboard-response,229,1050889,learnblock1,436,img/planet1_right.png,1,Community 1,NA,TRUE,j,j,NA,NA,NA,26,6,"13,11,10,1,5,4,15,2,12,6,3,9,8,7,14"
14243,commdev-image-keyboard-response,230,1052141,learnblock1,407,img/planet10_left.png,10,Community 1,NA,TRUE,f,f,NA,NA,NA,26,6,"13,11,10,1,5,4,15,2,12,6,3,9,8,7,14"
14243,commdev-image-keyboard-response,231,1053392,learnblock1,547,img/planet1_right.png,1,Community 1,NA,TRUE,j,j,NA,NA,NA,26,6,"13,11,10,1,5,4,15,2,12,6,3,9,8,7,14"
14243,commdev-image-keyboard-response,232,1054644,learnblock1,549,img/planet10_right.png,10,Community 1,NA,TRUE,j,j,NA,NA,NA,26,6,"13,11,10,1,5,4,15,2,12,6,3,9,8,7,14"
14243,commdev-image-keyboard-response,233,1055897,learnblock1,553,img/planet1_left.png,1,Community 1,NA,TRUE,f,f,NA,NA,NA,26,6,"13,11,10,1,5,4,15,2,12,6,3,9,8,7,14"
14243,commdev-image-keyboard-response,234,1057150,learnblock1,595,img/planet11_left.png,11,Community 1,NA,TRUE,f,f,NA,NA,NA,26,6,"13,11,10,1,5,4,15,2,12,6,3,9,8,7,14"
14243,commdev-image-keyboard-response,235,1058402,learnblock1,507,img/planet10_left.png,10,Community 1,NA,TRUE,f,f,NA,NA,NA,26,6,"13,11,10,1,5,4,15,2,12,6,3,9,8,7,14"
14243,commdev-image-keyboard-response,236,1059653,learnblock1,392,img/planet1_right.png,1,Community 1,NA,TRUE,j,j,NA,NA,NA,26,6,"13,11,10,1,5,4,15,2,12,6,3,9,8,7,14"
14243,commdev-image-keyboard-response,237,1060906,learnblock1,523,img/planet11_right.png,11,Community 1,NA,TRUE,j,j,NA,NA,NA,26,6,"13,11,10,1,5,4,15,2,12,6,3,9,8,7,14"
14243,commdev-image-keyboard-response,238,1062159,learnblock1,466,img/planet10_left.png,10,Community 1,NA,FALSE,j,f,NA,NA,NA,26,6,"13,11,10,1,5,4,15,2,12,6,3,9,8,7,14"
14243,commdev-image-keyboard-response,239,1063411,learnblock1,565,img/planet5_right.png,5,Community 1,NA,TRUE,j,j,NA,NA,NA,26,6,"13,11,10,1,5,4,15,2,12,6,3,9,8,7,14"
14243,commdev-image-keyboard-response,240,1064663,learnblock1,511,img/planet11_right.png,11,Community 1,NA,TRUE,j,j,NA,NA,NA,26,6,"13,11,10,1,5,4,15,2,12,6,3,9,8,7,14"
14243,commdev-image-keyboard-response,241,1065915,learnblock1,467,img/planet10_left.png,10,Community 1,NA,TRUE,f,f,NA,NA,NA,26,6,"13,11,10,1,5,4,15,2,12,6,3,9,8,7,14"
14243,commdev-image-keyboard-response,242,1067167,learnblock1,538,img/planet1_left.png,1,Community 1,NA,TRUE,f,f,NA,NA,NA,26,6,"13,11,10,1,5,4,15,2,12,6,3,9,8,7,14"
14243,commdev-image-keyboard-response,243,1068419,learnblock1,487,img/planet11_left.png,11,Community 1,NA,FALSE,j,f,NA,NA,NA,26,6,"13,11,10,1,5,4,15,2,12,6,3,9,8,7,14"
14243,commdev-image-keyboard-response,244,1069671,learnblock1,526,img/planet1_right.png,1,Community 1,NA,TRUE,j,j,NA,NA,NA,26,6,"13,11,10,1,5,4,15,2,12,6,3,9,8,7,14"
14243,commdev-image-keyboard-response,245,1070922,learnblock1,553,img/planet13_left.png,13,Community 1,NA,TRUE,f,f,NA,NA,NA,26,6,"13,11,10,1,5,4,15,2,12,6,3,9,8,7,14"
14243,commdev-image-keyboard-response,246,1072174,learnblock1,427,img/planet11_right.png,11,Community 1,NA,FALSE,f,j,NA,NA,NA,26,6,"13,11,10,1,5,4,15,2,12,6,3,9,8,7,14"
14243,commdev-image-keyboard-response,247,1073426,learnblock1,653,img/planet13_left.png,13,Community 1,NA,TRUE,f,f,NA,NA,NA,26,6,"13,11,10,1,5,4,15,2,12,6,3,9,8,7,14"
14243,commdev-image-keyboard-response,248,1074678,learnblock1,607,img/planet11_right.png,11,Community 1,NA,TRUE,j,j,NA,NA,NA,26,6,"13,11,10,1,5,4,15,2,12,6,3,9,8,7,14"
14243,commdev-image-keyboard-response,249,1075931,learnblock1,607,img/planet1_right.png,1,Community 1,NA,FALSE,f,j,NA,NA,NA,26,6,"13,11,10,1,5,4,15,2,12,6,3,9,8,7,14"
14243,commdev-image-keyboard-response,250,1077183,learnblock1,505,img/planet10_left.png,10,Community 1,NA,TRUE,f,f,NA,NA,NA,26,6,"13,11,10,1,5,4,15,2,12,6,3,9,8,7,14"
14243,commdev-image-keyboard-response,251,1078434,learnblock1,529,img/planet1_right.png,1,Community 1,NA,FALSE,f,j,NA,NA,NA,26,6,"13,11,10,1,5,4,15,2,12,6,3,9,8,7,14"
14243,commdev-image-keyboard-response,252,1079686,learnblock1,551,img/planet10_right.png,10,Community 1,NA,FALSE,f,j,NA,NA,NA,26,6,"13,11,10,1,5,4,15,2,12,6,3,9,8,7,14"
14243,commdev-image-keyboard-response,253,1080939,learnblock1,609,img/planet11_left.png,11,Community 1,NA,TRUE,f,f,NA,NA,NA,26,6,"13,11,10,1,5,4,15,2,12,6,3,9,8,7,14"
14243,commdev-image-keyboard-response,254,1082190,learnblock1,457,img/planet13_left.png,13,Community 1,NA,FALSE,j,f,NA,NA,NA,26,6,"13,11,10,1,5,4,15,2,12,6,3,9,8,7,14"
14243,commdev-image-keyboard-response,255,1083441,learnblock1,581,img/planet10_right.png,10,Community 1,NA,TRUE,j,j,NA,NA,NA,26,6,"13,11,10,1,5,4,15,2,12,6,3,9,8,7,14"
14243,commdev-image-keyboard-response,256,1084694,learnblock1,564,img/planet5_right.png,5,Community 1,NA,TRUE,j,j,NA,NA,NA,26,6,"13,11,10,1,5,4,15,2,12,6,3,9,8,7,14"
14243,commdev-image-keyboard-response,257,1085946,learnblock1,517,img/planet11_right.png,11,Community 1,NA,FALSE,f,j,NA,NA,NA,26,6,"13,11,10,1,5,4,15,2,12,6,3,9,8,7,14"
14243,commdev-image-keyboard-response,258,1087199,learnblock1,447,img/planet1_right.png,1,Community 1,NA,FALSE,f,j,NA,NA,NA,26,6,"13,11,10,1,5,4,15,2,12,6,3,9,8,7,14"
14243,commdev-image-keyboard-response,259,1088451,learnblock1,524,img/planet13_right.png,13,Community 1,NA,TRUE,j,j,NA,NA,NA,26,6,"13,11,10,1,5,4,15,2,12,6,3,9,8,7,14"
14243,commdev-image-keyboard-response,260,1089703,learnblock1,513,img/planet10_right.png,10,Community 1,NA,TRUE,j,j,NA,NA,NA,26,6,"13,11,10,1,5,4,15,2,12,6,3,9,8,7,14"
14243,commdev-image-keyboard-response,261,1090955,learnblock1,377,img/planet1_left.png,1,Community 1,NA,TRUE,f,f,NA,NA,NA,26,6,"13,11,10,1,5,4,15,2,12,6,3,9,8,7,14"
14243,commdev-image-keyboard-response,262,1092207,learnblock1,652,img/planet4_right.png,4,Community 2,NA,TRUE,j,j,NA,NA,NA,26,6,"13,11,10,1,5,4,15,2,12,6,3,9,8,7,14"
14243,commdev-image-keyboard-response,263,1093459,learnblock1,513,img/planet12_right.png,12,Community 2,NA,TRUE,j,j,NA,NA,NA,26,6,"13,11,10,1,5,4,15,2,12,6,3,9,8,7,14"
14243,commdev-image-keyboard-response,264,1094711,learnblock1,549,img/planet2_left.png,2,Community 2,NA,FALSE,j,f,NA,NA,NA,26,6,"13,11,10,1,5,4,15,2,12,6,3,9,8,7,14"
14243,commdev-image-keyboard-response,265,1095964,learnblock1,715,img/planet15_right.png,15,Community 2,NA,TRUE,j,j,NA,NA,NA,26,6,"13,11,10,1,5,4,15,2,12,6,3,9,8,7,14"
14243,commdev-image-keyboard-response,266,1097216,learnblock1,605,img/planet12_right.png,12,Community 2,NA,TRUE,j,j,NA,NA,NA,26,6,"13,11,10,1,5,4,15,2,12,6,3,9,8,7,14"
14243,commdev-image-keyboard-response,267,1098467,learnblock1,577,img/planet6_right.png,6,Community 2,NA,TRUE,j,j,NA,NA,NA,26,6,"13,11,10,1,5,4,15,2,12,6,3,9,8,7,14"
14243,commdev-image-keyboard-response,268,1099719,learnblock1,740,img/planet15_left.png,15,Community 2,NA,TRUE,f,f,NA,NA,NA,26,6,"13,11,10,1,5,4,15,2,12,6,3,9,8,7,14"
14243,commdev-image-keyboard-response,269,1100971,learnblock1,552,img/planet2_right.png,2,Community 2,NA,TRUE,j,j,NA,NA,NA,26,6,"13,11,10,1,5,4,15,2,12,6,3,9,8,7,14"
14243,commdev-image-keyboard-response,270,1102222,learnblock1,590,img/planet15_right.png,15,Community 2,NA,FALSE,f,j,NA,NA,NA,26,6,"13,11,10,1,5,4,15,2,12,6,3,9,8,7,14"
14243,commdev-image-keyboard-response,271,1103475,learnblock1,695,img/planet2_right.png,2,Community 2,NA,TRUE,j,j,NA,NA,NA,26,6,"13,11,10,1,5,4,15,2,12,6,3,9,8,7,14"
14243,commdev-image-keyboard-response,272,1104728,learnblock1,684,img/planet15_left.png,15,Community 2,NA,TRUE,f,f,NA,NA,NA,26,6,"13,11,10,1,5,4,15,2,12,6,3,9,8,7,14"
14243,commdev-image-keyboard-response,273,1105980,learnblock1,657,img/planet4_right.png,4,Community 2,NA,TRUE,j,j,NA,NA,NA,26,6,"13,11,10,1,5,4,15,2,12,6,3,9,8,7,14"
14243,commdev-image-keyboard-response,274,1107232,learnblock1,601,img/planet15_left.png,15,Community 2,NA,TRUE,f,f,NA,NA,NA,26,6,"13,11,10,1,5,4,15,2,12,6,3,9,8,7,14"
14243,commdev-image-keyboard-response,275,1108483,learnblock1,597,img/planet2_right.png,2,Community 2,NA,FALSE,f,j,NA,NA,NA,26,6,"13,11,10,1,5,4,15,2,12,6,3,9,8,7,14"
14243,commdev-image-keyboard-response,276,1109736,learnblock1,648,img/planet6_right.png,6,Community 2,NA,TRUE,j,j,NA,NA,NA,26,6,"13,11,10,1,5,4,15,2,12,6,3,9,8,7,14"
14243,commdev-image-keyboard-response,277,1110988,learnblock1,577,img/planet4_right.png,4,Community 2,NA,TRUE,j,j,NA,NA,NA,26,6,"13,11,10,1,5,4,15,2,12,6,3,9,8,7,14"
14243,commdev-image-keyboard-response,278,1112241,learnblock1,435,img/planet15_left.png,15,Community 2,NA,TRUE,f,f,NA,NA,NA,26,6,"13,11,10,1,5,4,15,2,12,6,3,9,8,7,14"
14243,commdev-image-keyboard-response,279,1113492,learnblock1,614,img/planet12_right.png,12,Community 2,NA,TRUE,j,j,NA,NA,NA,26,6,"13,11,10,1,5,4,15,2,12,6,3,9,8,7,14"
14243,commdev-image-keyboard-response,280,1114744,learnblock1,700,img/planet4_left.png,4,Community 2,NA,TRUE,f,f,NA,NA,NA,26,6,"13,11,10,1,5,4,15,2,12,6,3,9,8,7,14"
14243,commdev-image-keyboard-response,281,1115997,learnblock1,586,img/planet15_right.png,15,Community 2,NA,TRUE,j,j,NA,NA,NA,26,6,"13,11,10,1,5,4,15,2,12,6,3,9,8,7,14"
14243,commdev-image-keyboard-response,282,1117248,learnblock1,586,img/planet6_left.png,6,Community 2,NA,FALSE,j,f,NA,NA,NA,26,6,"13,11,10,1,5,4,15,2,12,6,3,9,8,7,14"
14243,commdev-image-keyboard-response,283,1118501,learnblock1,502,img/planet12_right.png,12,Community 2,NA,FALSE,f,j,NA,NA,NA,26,6,"13,11,10,1,5,4,15,2,12,6,3,9,8,7,14"
14243,commdev-image-keyboard-response,284,1119753,learnblock1,632,img/planet15_left.png,15,Community 2,NA,TRUE,f,f,NA,NA,NA,26,6,"13,11,10,1,5,4,15,2,12,6,3,9,8,7,14"
14243,commdev-image-keyboard-response,285,1121005,learnblock1,512,img/planet6_left.png,6,Community 2,NA,TRUE,f,f,NA,NA,NA,26,6,"13,11,10,1,5,4,15,2,12,6,3,9,8,7,14"
14243,commdev-image-keyboard-response,286,1122256,learnblock1,644,img/planet15_left.png,15,Community 2,NA,TRUE,f,f,NA,NA,NA,26,6,"13,11,10,1,5,4,15,2,12,6,3,9,8,7,14"
14243,commdev-image-keyboard-response,287,1123508,learnblock1,489,img/planet6_right.png,6,Community 2,NA,TRUE,j,j,NA,NA,NA,26,6,"13,11,10,1,5,4,15,2,12,6,3,9,8,7,14"
14243,commdev-image-keyboard-response,288,1124760,learnblock1,500,img/planet4_left.png,4,Community 2,NA,FALSE,j,f,NA,NA,NA,26,6,"13,11,10,1,5,4,15,2,12,6,3,9,8,7,14"
14243,commdev-image-keyboard-response,289,1126013,learnblock1,461,img/planet1_left.png,1,Community 1,NA,TRUE,f,f,NA,NA,NA,26,6,"13,11,10,1,5,4,15,2,12,6,3,9,8,7,14"
14243,commdev-image-keyboard-response,290,1127266,learnblock1,499,img/planet4_left.png,4,Community 2,NA,FALSE,j,f,NA,NA,NA,26,6,"13,11,10,1,5,4,15,2,12,6,3,9,8,7,14"
14243,commdev-image-keyboard-response,291,1128518,learnblock1,644,img/planet12_right.png,12,Community 2,NA,FALSE,f,j,NA,NA,NA,26,6,"13,11,10,1,5,4,15,2,12,6,3,9,8,7,14"
14243,commdev-image-keyboard-response,292,1129769,learnblock1,592,img/planet4_left.png,4,Community 2,NA,TRUE,f,f,NA,NA,NA,26,6,"13,11,10,1,5,4,15,2,12,6,3,9,8,7,14"
14243,commdev-image-keyboard-response,293,1131021,learnblock1,487,img/planet6_right.png,6,Community 2,NA,TRUE,j,j,NA,NA,NA,26,6,"13,11,10,1,5,4,15,2,12,6,3,9,8,7,14"
14243,commdev-image-keyboard-response,294,1132274,learnblock1,657,img/planet12_left.png,12,Community 2,NA,TRUE,f,f,NA,NA,NA,26,6,"13,11,10,1,5,4,15,2,12,6,3,9,8,7,14"
14243,commdev-image-keyboard-response,295,1133526,learnblock1,470,img/planet2_right.png,2,Community 2,NA,TRUE,j,j,NA,NA,NA,26,6,"13,11,10,1,5,4,15,2,12,6,3,9,8,7,14"
14243,commdev-image-keyboard-response,296,1134778,learnblock1,478,img/planet9_left.png,9,Community 3,NA,TRUE,f,f,NA,NA,NA,26,6,"13,11,10,1,5,4,15,2,12,6,3,9,8,7,14"
14243,commdev-image-keyboard-response,297,1136030,learnblock1,643,img/planet7_left.png,7,Community 3,NA,TRUE,f,f,NA,NA,NA,26,6,"13,11,10,1,5,4,15,2,12,6,3,9,8,7,14"
14243,commdev-image-keyboard-response,298,1137282,learnblock1,642,img/planet9_left.png,9,Community 3,NA,TRUE,f,f,NA,NA,NA,26,6,"13,11,10,1,5,4,15,2,12,6,3,9,8,7,14"
14243,commdev-image-keyboard-response,299,1138534,learnblock1,593,img/planet2_right.png,2,Community 2,NA,TRUE,j,j,NA,NA,NA,26,6,"13,11,10,1,5,4,15,2,12,6,3,9,8,7,14"
14243,commdev-image-keyboard-response,300,1139786,learnblock1,555,img/planet9_left.png,9,Community 3,NA,TRUE,f,f,NA,NA,NA,26,6,"13,11,10,1,5,4,15,2,12,6,3,9,8,7,14"
14243,commdev-image-keyboard-response,301,1141038,learnblock1,605,img/planet7_right.png,7,Community 3,NA,TRUE,j,j,NA,NA,NA,26,6,"13,11,10,1,5,4,15,2,12,6,3,9,8,7,14"
14243,commdev-image-keyboard-response,302,1142290,learnblock1,456,img/planet3_left.png,3,Community 3,NA,TRUE,f,f,NA,NA,NA,26,6,"13,11,10,1,5,4,15,2,12,6,3,9,8,7,14"
14243,commdev-image-keyboard-response,303,1143543,learnblock1,639,img/planet7_left.png,7,Community 3,NA,TRUE,f,f,NA,NA,NA,26,6,"13,11,10,1,5,4,15,2,12,6,3,9,8,7,14"
14243,commdev-image-keyboard-response,304,1144794,learnblock1,669,img/planet14_right.png,14,Community 3,NA,TRUE,j,j,NA,NA,NA,26,6,"13,11,10,1,5,4,15,2,12,6,3,9,8,7,14"
14243,commdev-image-keyboard-response,305,1146045,learnblock1,461,img/planet3_right.png,3,Community 3,NA,FALSE,f,j,NA,NA,NA,26,6,"13,11,10,1,5,4,15,2,12,6,3,9,8,7,14"
14243,commdev-image-keyboard-response,306,1147297,learnblock1,511,img/planet8_right.png,8,Community 3,NA,FALSE,f,j,NA,NA,NA,26,6,"13,11,10,1,5,4,15,2,12,6,3,9,8,7,14"
14243,commdev-image-keyboard-response,307,1148550,learnblock1,578,img/planet7_right.png,7,Community 3,NA,TRUE,j,j,NA,NA,NA,26,6,"13,11,10,1,5,4,15,2,12,6,3,9,8,7,14"
14243,commdev-image-keyboard-response,308,1149803,learnblock1,691,img/planet14_left.png,14,Community 3,NA,TRUE,f,f,NA,NA,NA,26,6,"13,11,10,1,5,4,15,2,12,6,3,9,8,7,14"
14243,commdev-image-keyboard-response,309,1151055,learnblock1,643,img/planet9_left.png,9,Community 3,NA,TRUE,f,f,NA,NA,NA,26,6,"13,11,10,1,5,4,15,2,12,6,3,9,8,7,14"
14243,commdev-image-keyboard-response,310,1152306,learnblock1,599,img/planet7_right.png,7,Community 3,NA,TRUE,j,j,NA,NA,NA,26,6,"13,11,10,1,5,4,15,2,12,6,3,9,8,7,14"
14243,commdev-image-keyboard-response,311,1153559,learnblock1,503,img/planet3_right.png,3,Community 3,NA,FALSE,f,j,NA,NA,NA,26,6,"13,11,10,1,5,4,15,2,12,6,3,9,8,7,14"
14243,commdev-image-keyboard-response,312,1154812,learnblock1,647,img/planet14_right.png,14,Community 3,NA,TRUE,j,j,NA,NA,NA,26,6,"13,11,10,1,5,4,15,2,12,6,3,9,8,7,14"
14243,commdev-image-keyboard-response,313,1156064,learnblock1,588,img/planet7_left.png,7,Community 3,NA,TRUE,f,f,NA,NA,NA,26,6,"13,11,10,1,5,4,15,2,12,6,3,9,8,7,14"
14243,commdev-image-keyboard-response,314,1157315,learnblock1,486,img/planet14_right.png,14,Community 3,NA,TRUE,j,j,NA,NA,NA,26,6,"13,11,10,1,5,4,15,2,12,6,3,9,8,7,14"
14243,commdev-image-keyboard-response,315,1158568,learnblock1,576,img/planet3_left.png,3,Community 3,NA,TRUE,f,f,NA,NA,NA,26,6,"13,11,10,1,5,4,15,2,12,6,3,9,8,7,14"
14243,commdev-image-keyboard-response,316,1159819,learnblock1,536,img/planet8_left.png,8,Community 3,NA,FALSE,j,f,NA,NA,NA,26,6,"13,11,10,1,5,4,15,2,12,6,3,9,8,7,14"
14243,commdev-image-keyboard-response,317,1161072,learnblock1,509,img/planet3_right.png,3,Community 3,NA,FALSE,f,j,NA,NA,NA,26,6,"13,11,10,1,5,4,15,2,12,6,3,9,8,7,14"
14243,commdev-image-keyboard-response,318,1162324,learnblock1,643,img/planet14_right.png,14,Community 3,NA,TRUE,j,j,NA,NA,NA,26,6,"13,11,10,1,5,4,15,2,12,6,3,9,8,7,14"
14243,commdev-image-keyboard-response,319,1163575,learnblock1,566,img/planet8_left.png,8,Community 3,NA,TRUE,f,f,NA,NA,NA,26,6,"13,11,10,1,5,4,15,2,12,6,3,9,8,7,14"
14243,commdev-image-keyboard-response,320,1164827,learnblock1,557,img/planet14_right.png,14,Community 3,NA,TRUE,j,j,NA,NA,NA,26,6,"13,11,10,1,5,4,15,2,12,6,3,9,8,7,14"
14243,commdev-image-keyboard-response,321,1166080,learnblock1,640,img/planet3_left.png,3,Community 3,NA,TRUE,f,f,NA,NA,NA,26,6,"13,11,10,1,5,4,15,2,12,6,3,9,8,7,14"
14243,commdev-image-keyboard-response,322,1167332,learnblock1,568,img/planet14_right.png,14,Community 3,NA,TRUE,j,j,NA,NA,NA,26,6,"13,11,10,1,5,4,15,2,12,6,3,9,8,7,14"
14243,commdev-image-keyboard-response,323,1168585,learnblock1,631,img/planet7_right.png,7,Community 3,NA,TRUE,j,j,NA,NA,NA,26,6,"13,11,10,1,5,4,15,2,12,6,3,9,8,7,14"
14243,commdev-image-keyboard-response,324,1169836,learnblock1,494,img/planet3_right.png,3,Community 3,NA,TRUE,j,j,NA,NA,NA,26,6,"13,11,10,1,5,4,15,2,12,6,3,9,8,7,14"
14243,commdev-image-keyboard-response,325,1171088,learnblock1,581,img/planet8_left.png,8,Community 3,NA,TRUE,f,f,NA,NA,NA,26,6,"13,11,10,1,5,4,15,2,12,6,3,9,8,7,14"
14243,commdev-image-keyboard-response,326,1172340,learnblock1,534,img/planet3_right.png,3,Community 3,NA,TRUE,j,j,NA,NA,NA,26,6,"13,11,10,1,5,4,15,2,12,6,3,9,8,7,14"
14243,commdev-image-keyboard-response,327,1173592,learnblock1,474,img/planet14_right.png,14,Community 3,NA,TRUE,j,j,NA,NA,NA,26,6,"13,11,10,1,5,4,15,2,12,6,3,9,8,7,14"
14243,commdev-image-keyboard-response,328,1174844,learnblock1,728,img/planet3_right.png,3,Community 3,NA,TRUE,j,j,NA,NA,NA,26,6,"13,11,10,1,5,4,15,2,12,6,3,9,8,7,14"
14243,commdev-image-keyboard-response,329,1176096,learnblock1,682,img/planet14_left.png,14,Community 3,NA,TRUE,f,f,NA,NA,NA,26,6,"13,11,10,1,5,4,15,2,12,6,3,9,8,7,14"
14243,commdev-image-keyboard-response,330,1177349,learnblock1,494,img/planet9_left.png,9,Community 3,NA,FALSE,j,f,NA,NA,NA,26,6,"13,11,10,1,5,4,15,2,12,6,3,9,8,7,14"
14243,commdev-image-keyboard-response,331,1178601,learnblock1,551,img/planet8_left.png,8,Community 3,NA,FALSE,j,f,NA,NA,NA,26,6,"13,11,10,1,5,4,15,2,12,6,3,9,8,7,14"
14243,commdev-image-keyboard-response,332,1179853,learnblock1,692,img/planet14_left.png,14,Community 3,NA,TRUE,f,f,NA,NA,NA,26,6,"13,11,10,1,5,4,15,2,12,6,3,9,8,7,14"
14243,commdev-image-keyboard-response,333,1181105,learnblock1,619,img/planet8_left.png,8,Community 3,NA,FALSE,j,f,NA,NA,NA,26,6,"13,11,10,1,5,4,15,2,12,6,3,9,8,7,14"
14243,commdev-image-keyboard-response,334,1182357,learnblock1,579,img/planet3_left.png,3,Community 3,NA,TRUE,f,f,NA,NA,NA,26,6,"13,11,10,1,5,4,15,2,12,6,3,9,8,7,14"
14243,commdev-image-keyboard-response,335,1183609,learnblock1,776,img/planet14_left.png,14,Community 3,NA,TRUE,f,f,NA,NA,NA,26,6,"13,11,10,1,5,4,15,2,12,6,3,9,8,7,14"
14243,commdev-image-keyboard-response,336,1184862,learnblock1,863,img/planet9_left.png,9,Community 3,NA,TRUE,f,f,NA,NA,NA,26,6,"13,11,10,1,5,4,15,2,12,6,3,9,8,7,14"
14243,commdev-image-keyboard-response,337,1186114,learnblock1,608,img/planet7_left.png,7,Community 3,NA,TRUE,f,f,NA,NA,NA,26,6,"13,11,10,1,5,4,15,2,12,6,3,9,8,7,14"
14243,commdev-image-keyboard-response,338,1187367,learnblock1,533,img/planet9_left.png,9,Community 3,NA,TRUE,f,f,NA,NA,NA,26,6,"13,11,10,1,5,4,15,2,12,6,3,9,8,7,14"
14243,commdev-image-keyboard-response,339,1188618,learnblock1,711,img/planet8_right.png,8,Community 3,NA,TRUE,j,j,NA,NA,NA,26,6,"13,11,10,1,5,4,15,2,12,6,3,9,8,7,14"
14243,commdev-image-keyboard-response,340,1189870,learnblock1,980,img/planet7_left.png,7,Community 3,NA,TRUE,f,f,NA,NA,NA,26,6,"13,11,10,1,5,4,15,2,12,6,3,9,8,7,14"
14243,commdev-image-keyboard-response,341,1191122,learnblock1,638,img/planet9_left.png,9,Community 3,NA,TRUE,f,f,NA,NA,NA,26,6,"13,11,10,1,5,4,15,2,12,6,3,9,8,7,14"
14243,commdev-image-keyboard-response,342,1192374,learnblock1,777,img/planet8_left.png,8,Community 3,NA,TRUE,f,f,NA,NA,NA,26,6,"13,11,10,1,5,4,15,2,12,6,3,9,8,7,14"
14243,commdev-image-keyboard-response,343,1193626,learnblock1,696,img/planet3_right.png,3,Community 3,NA,TRUE,j,j,NA,NA,NA,26,6,"13,11,10,1,5,4,15,2,12,6,3,9,8,7,14"
14243,commdev-image-keyboard-response,344,1194877,learnblock1,669,img/planet14_right.png,14,Community 3,NA,TRUE,j,j,NA,NA,NA,26,6,"13,11,10,1,5,4,15,2,12,6,3,9,8,7,14"
14243,commdev-image-keyboard-response,345,1196130,learnblock1,563,img/planet9_left.png,9,Community 3,NA,TRUE,f,f,NA,NA,NA,26,6,"13,11,10,1,5,4,15,2,12,6,3,9,8,7,14"
14243,commdev-image-keyboard-response,346,1197383,learnblock1,614,img/planet2_right.png,2,Community 2,NA,TRUE,j,j,NA,NA,NA,26,6,"13,11,10,1,5,4,15,2,12,6,3,9,8,7,14"
14243,commdev-image-keyboard-response,347,1198634,learnblock1,669,img/planet15_right.png,15,Community 2,NA,TRUE,j,j,NA,NA,NA,26,6,"13,11,10,1,5,4,15,2,12,6,3,9,8,7,14"
14243,commdev-image-keyboard-response,348,1199886,learnblock1,522,img/planet4_right.png,4,Community 2,NA,TRUE,j,j,NA,NA,NA,26,6,"13,11,10,1,5,4,15,2,12,6,3,9,8,7,14"
14243,commdev-image-keyboard-response,349,1201137,learnblock1,610,img/planet6_right.png,6,Community 2,NA,TRUE,j,j,NA,NA,NA,26,6,"13,11,10,1,5,4,15,2,12,6,3,9,8,7,14"
14243,commdev-image-keyboard-response,350,1202389,learnblock1,450,img/planet12_left.png,12,Community 2,NA,FALSE,j,f,NA,NA,NA,26,6,"13,11,10,1,5,4,15,2,12,6,3,9,8,7,14"
14243,commdev-image-keyboard-response,351,1203641,learnblock1,497,img/planet4_left.png,4,Community 2,NA,TRUE,f,f,NA,NA,NA,26,6,"13,11,10,1,5,4,15,2,12,6,3,9,8,7,14"
14243,commdev-image-keyboard-response,352,1204893,learnblock1,410,img/planet15_right.png,15,Community 2,NA,FALSE,f,j,NA,NA,NA,26,6,"13,11,10,1,5,4,15,2,12,6,3,9,8,7,14"
14243,commdev-image-keyboard-response,353,1206146,learnblock1,788,img/planet12_left.png,12,Community 2,NA,TRUE,f,f,NA,NA,NA,26,6,"13,11,10,1,5,4,15,2,12,6,3,9,8,7,14"
14243,commdev-image-keyboard-response,354,1207398,learnblock1,760,img/planet4_right.png,4,Community 2,NA,TRUE,j,j,NA,NA,NA,26,6,"13,11,10,1,5,4,15,2,12,6,3,9,8,7,14"
14243,commdev-image-keyboard-response,355,1208651,learnblock1,634,img/planet15_left.png,15,Community 2,NA,TRUE,f,f,NA,NA,NA,26,6,"13,11,10,1,5,4,15,2,12,6,3,9,8,7,14"
14243,commdev-image-keyboard-response,356,1209903,learnblock1,565,img/planet4_right.png,4,Community 2,NA,TRUE,j,j,NA,NA,NA,26,6,"13,11,10,1,5,4,15,2,12,6,3,9,8,7,14"
14243,commdev-image-keyboard-response,357,1211155,learnblock1,552,img/planet15_left.png,15,Community 2,NA,TRUE,f,f,NA,NA,NA,26,6,"13,11,10,1,5,4,15,2,12,6,3,9,8,7,14"
14243,commdev-image-keyboard-response,358,1212407,learnblock1,456,img/planet6_right.png,6,Community 2,NA,TRUE,j,j,NA,NA,NA,26,6,"13,11,10,1,5,4,15,2,12,6,3,9,8,7,14"
14243,commdev-image-keyboard-response,359,1213659,learnblock1,532,img/planet12_right.png,12,Community 2,NA,FALSE,f,j,NA,NA,NA,26,6,"13,11,10,1,5,4,15,2,12,6,3,9,8,7,14"
14243,commdev-image-keyboard-response,360,1214910,learnblock1,731,img/planet6_right.png,6,Community 2,NA,TRUE,j,j,NA,NA,NA,26,6,"13,11,10,1,5,4,15,2,12,6,3,9,8,7,14"
14243,commdev-image-keyboard-response,361,1216163,learnblock1,524,img/planet15_right.png,15,Community 2,NA,TRUE,j,j,NA,NA,NA,26,6,"13,11,10,1,5,4,15,2,12,6,3,9,8,7,14"
14243,commdev-image-keyboard-response,362,1217415,learnblock1,503,img/planet6_left.png,6,Community 2,NA,TRUE,f,f,NA,NA,NA,26,6,"13,11,10,1,5,4,15,2,12,6,3,9,8,7,14"
14243,commdev-image-keyboard-response,363,1218667,learnblock1,461,img/planet2_right.png,2,Community 2,NA,TRUE,j,j,NA,NA,NA,26,6,"13,11,10,1,5,4,15,2,12,6,3,9,8,7,14"
14243,commdev-image-keyboard-response,364,1219918,learnblock1,586,img/planet15_left.png,15,Community 2,NA,TRUE,f,f,NA,NA,NA,26,6,"13,11,10,1,5,4,15,2,12,6,3,9,8,7,14"
14243,commdev-image-keyboard-response,365,1221171,learnblock1,501,img/planet6_left.png,6,Community 2,NA,FALSE,j,f,NA,NA,NA,26,6,"13,11,10,1,5,4,15,2,12,6,3,9,8,7,14"
14243,commdev-image-keyboard-response,366,1222423,learnblock1,867,img/planet12_left.png,12,Community 2,NA,TRUE,f,f,NA,NA,NA,26,6,"13,11,10,1,5,4,15,2,12,6,3,9,8,7,14"
14243,commdev-image-keyboard-response,367,1223676,learnblock1,585,img/planet2_right.png,2,Community 2,NA,TRUE,j,j,NA,NA,NA,26,6,"13,11,10,1,5,4,15,2,12,6,3,9,8,7,14"
14243,commdev-image-keyboard-response,368,1224928,learnblock1,469,img/planet9_left.png,9,Community 3,NA,TRUE,f,f,NA,NA,NA,26,6,"13,11,10,1,5,4,15,2,12,6,3,9,8,7,14"
14243,commdev-image-keyboard-response,369,1226180,learnblock1,403,img/planet2_right.png,2,Community 2,NA,TRUE,j,j,NA,NA,NA,26,6,"13,11,10,1,5,4,15,2,12,6,3,9,8,7,14"
14243,commdev-image-keyboard-response,370,1227433,learnblock1,490,img/planet12_left.png,12,Community 2,NA,FALSE,j,f,NA,NA,NA,26,6,"13,11,10,1,5,4,15,2,12,6,3,9,8,7,14"
14243,commdev-image-keyboard-response,371,1228685,learnblock1,622,img/planet6_right.png,6,Community 2,NA,TRUE,j,j,NA,NA,NA,26,6,"13,11,10,1,5,4,15,2,12,6,3,9,8,7,14"
14243,commdev-image-keyboard-response,372,1229938,learnblock1,599,img/planet15_right.png,15,Community 2,NA,FALSE,f,j,NA,NA,NA,26,6,"13,11,10,1,5,4,15,2,12,6,3,9,8,7,14"
14243,commdev-image-keyboard-response,373,1231189,learnblock1,996,img/planet4_left.png,4,Community 2,NA,TRUE,f,f,NA,NA,NA,26,6,"13,11,10,1,5,4,15,2,12,6,3,9,8,7,14"
14243,commdev-image-keyboard-response,374,1232442,learnblock1,931,img/planet1_right.png,1,Community 1,NA,FALSE,f,j,NA,NA,NA,26,6,"13,11,10,1,5,4,15,2,12,6,3,9,8,7,14"
14243,commdev-image-keyboard-response,375,1233694,learnblock1,702,img/planet13_left.png,13,Community 1,NA,TRUE,f,f,NA,NA,NA,26,6,"13,11,10,1,5,4,15,2,12,6,3,9,8,7,14"
14243,commdev-image-keyboard-response,376,1234946,learnblock1,533,img/planet10_left.png,10,Community 1,NA,TRUE,f,f,NA,NA,NA,26,6,"13,11,10,1,5,4,15,2,12,6,3,9,8,7,14"
14243,commdev-image-keyboard-response,377,1236198,learnblock1,494,img/planet13_left.png,13,Community 1,NA,FALSE,j,f,NA,NA,NA,26,6,"13,11,10,1,5,4,15,2,12,6,3,9,8,7,14"
14243,commdev-image-keyboard-response,378,1237450,learnblock1,592,img/planet1_left.png,1,Community 1,NA,TRUE,f,f,NA,NA,NA,26,6,"13,11,10,1,5,4,15,2,12,6,3,9,8,7,14"
14243,commdev-image-keyboard-response,379,1238702,learnblock1,565,img/planet4_left.png,4,Community 2,NA,TRUE,f,f,NA,NA,NA,26,6,"13,11,10,1,5,4,15,2,12,6,3,9,8,7,14"
14243,commdev-image-keyboard-response,380,1239954,learnblock1,527,img/planet1_left.png,1,Community 1,NA,TRUE,f,f,NA,NA,NA,26,6,"13,11,10,1,5,4,15,2,12,6,3,9,8,7,14"
14243,commdev-image-keyboard-response,381,1241207,learnblock1,541,img/planet13_right.png,13,Community 1,NA,FALSE,f,j,NA,NA,NA,26,6,"13,11,10,1,5,4,15,2,12,6,3,9,8,7,14"
14243,commdev-image-keyboard-response,382,1242459,learnblock1,638,img/planet1_left.png,1,Community 1,NA,TRUE,f,f,NA,NA,NA,26,6,"13,11,10,1,5,4,15,2,12,6,3,9,8,7,14"
14243,commdev-image-keyboard-response,383,1243712,learnblock1,609,img/planet13_right.png,13,Community 1,NA,FALSE,f,j,NA,NA,NA,26,6,"13,11,10,1,5,4,15,2,12,6,3,9,8,7,14"
14243,commdev-image-keyboard-response,384,1244964,learnblock1,613,img/planet1_right.png,1,Community 1,NA,TRUE,j,j,NA,NA,NA,26,6,"13,11,10,1,5,4,15,2,12,6,3,9,8,7,14"
14243,commdev-image-keyboard-response,385,1246217,learnblock1,731,img/planet13_left.png,13,Community 1,NA,TRUE,f,f,NA,NA,NA,26,6,"13,11,10,1,5,4,15,2,12,6,3,9,8,7,14"
14243,commdev-image-keyboard-response,386,1247468,learnblock1,663,img/planet5_right.png,5,Community 1,NA,TRUE,j,j,NA,NA,NA,26,6,"13,11,10,1,5,4,15,2,12,6,3,9,8,7,14"
14243,commdev-image-keyboard-response,387,1248721,learnblock1,611,img/planet11_left.png,11,Community 1,NA,FALSE,j,f,NA,NA,NA,26,6,"13,11,10,1,5,4,15,2,12,6,3,9,8,7,14"
14243,commdev-image-keyboard-response,388,1249973,learnblock1,575,img/planet1_right.png,1,Community 1,NA,TRUE,j,j,NA,NA,NA,26,6,"13,11,10,1,5,4,15,2,12,6,3,9,8,7,14"
14243,commdev-image-keyboard-response,389,1251225,learnblock1,666,img/planet11_right.png,11,Community 1,NA,FALSE,f,j,NA,NA,NA,26,6,"13,11,10,1,5,4,15,2,12,6,3,9,8,7,14"
14243,commdev-image-keyboard-response,390,1252478,learnblock1,604,img/planet10_right.png,10,Community 1,NA,TRUE,j,j,NA,NA,NA,26,6,"13,11,10,1,5,4,15,2,12,6,3,9,8,7,14"
14243,commdev-image-keyboard-response,391,1253730,learnblock1,540,img/planet13_right.png,13,Community 1,NA,TRUE,j,j,NA,NA,NA,26,6,"13,11,10,1,5,4,15,2,12,6,3,9,8,7,14"
14243,commdev-image-keyboard-response,392,1254981,learnblock1,729,img/planet10_right.png,10,Community 1,NA,FALSE,f,j,NA,NA,NA,26,6,"13,11,10,1,5,4,15,2,12,6,3,9,8,7,14"
14243,commdev-image-keyboard-response,393,1256233,learnblock1,1138,img/planet13_left.png,13,Community 1,NA,FALSE,j,f,NA,NA,NA,26,6,"13,11,10,1,5,4,15,2,12,6,3,9,8,7,14"
14243,commdev-image-keyboard-response,394,1257486,learnblock1,157,img/planet5_right.png,5,Community 1,NA,FALSE,f,j,NA,NA,NA,26,6,"13,11,10,1,5,4,15,2,12,6,3,9,8,7,14"
14243,commdev-image-keyboard-response,395,1258738,learnblock1,503,img/planet10_right.png,10,Community 1,NA,TRUE,j,j,NA,NA,NA,26,6,"13,11,10,1,5,4,15,2,12,6,3,9,8,7,14"
14243,commdev-image-keyboard-response,396,1259990,learnblock1,507,img/planet13_left.png,13,Community 1,NA,TRUE,f,f,NA,NA,NA,26,6,"13,11,10,1,5,4,15,2,12,6,3,9,8,7,14"
14243,commdev-image-keyboard-response,397,1261243,learnblock1,613,img/planet11_right.png,11,Community 1,NA,TRUE,j,j,NA,NA,NA,26,6,"13,11,10,1,5,4,15,2,12,6,3,9,8,7,14"
14243,commdev-image-keyboard-response,398,1262495,learnblock1,536,img/planet5_left.png,5,Community 1,NA,TRUE,f,f,NA,NA,NA,26,6,"13,11,10,1,5,4,15,2,12,6,3,9,8,7,14"
14243,commdev-image-keyboard-response,399,1263746,learnblock1,547,img/planet11_right.png,11,Community 1,NA,TRUE,j,j,NA,NA,NA,26,6,"13,11,10,1,5,4,15,2,12,6,3,9,8,7,14"
14243,commdev-image-keyboard-response,400,1264999,learnblock1,538,img/planet1_left.png,1,Community 1,NA,FALSE,j,f,NA,NA,NA,26,6,"13,11,10,1,5,4,15,2,12,6,3,9,8,7,14"
14243,commdev-image-keyboard-response,401,1266250,learnblock1,541,img/planet10_left.png,10,Community 1,NA,FALSE,j,f,NA,NA,NA,26,6,"13,11,10,1,5,4,15,2,12,6,3,9,8,7,14"
14243,commdev-image-keyboard-response,402,1267501,learnblock1,653,img/planet11_right.png,11,Community 1,NA,TRUE,j,j,NA,NA,NA,26,6,"13,11,10,1,5,4,15,2,12,6,3,9,8,7,14"
14243,commdev-image-keyboard-response,403,1268753,learnblock1,601,img/planet1_left.png,1,Community 1,NA,TRUE,f,f,NA,NA,NA,26,6,"13,11,10,1,5,4,15,2,12,6,3,9,8,7,14"
14243,commdev-image-keyboard-response,404,1270006,learnblock1,545,img/planet11_right.png,11,Community 1,NA,TRUE,j,j,NA,NA,NA,26,6,"13,11,10,1,5,4,15,2,12,6,3,9,8,7,14"
14243,commdev-image-keyboard-response,405,1271258,learnblock1,556,img/planet5_right.png,5,Community 1,NA,TRUE,j,j,NA,NA,NA,26,6,"13,11,10,1,5,4,15,2,12,6,3,9,8,7,14"
14243,commdev-image-keyboard-response,406,1272509,learnblock1,576,img/planet3_left.png,3,Community 3,NA,TRUE,f,f,NA,NA,NA,26,6,"13,11,10,1,5,4,15,2,12,6,3,9,8,7,14"
14243,commdev-image-keyboard-response,407,1273762,learnblock1,677,img/planet8_left.png,8,Community 3,NA,TRUE,f,f,NA,NA,NA,26,6,"13,11,10,1,5,4,15,2,12,6,3,9,8,7,14"
14243,commdev-image-keyboard-response,408,1275015,learnblock1,753,img/planet14_left.png,14,Community 3,NA,TRUE,f,f,NA,NA,NA,26,6,"13,11,10,1,5,4,15,2,12,6,3,9,8,7,14"
14243,commdev-image-keyboard-response,409,1276266,learnblock1,580,img/planet7_right.png,7,Community 3,NA,TRUE,j,j,NA,NA,NA,26,6,"13,11,10,1,5,4,15,2,12,6,3,9,8,7,14"
14243,commdev-image-keyboard-response,410,1277518,learnblock1,725,img/planet9_right.png,9,Community 3,NA,TRUE,j,j,NA,NA,NA,26,6,"13,11,10,1,5,4,15,2,12,6,3,9,8,7,14"
14243,commdev-image-keyboard-response,411,1278771,learnblock1,623,img/planet8_left.png,8,Community 3,NA,TRUE,f,f,NA,NA,NA,26,6,"13,11,10,1,5,4,15,2,12,6,3,9,8,7,14"
14243,commdev-image-keyboard-response,412,1280023,learnblock1,629,img/planet14_right.png,14,Community 3,NA,TRUE,j,j,NA,NA,NA,26,6,"13,11,10,1,5,4,15,2,12,6,3,9,8,7,14"
14243,commdev-image-keyboard-response,413,1281276,learnblock1,639,img/planet3_right.png,3,Community 3,NA,TRUE,j,j,NA,NA,NA,26,6,"13,11,10,1,5,4,15,2,12,6,3,9,8,7,14"
14243,commdev-image-keyboard-response,414,1282527,learnblock1,541,img/planet8_left.png,8,Community 3,NA,TRUE,f,f,NA,NA,NA,26,6,"13,11,10,1,5,4,15,2,12,6,3,9,8,7,14"
14243,commdev-image-keyboard-response,415,1283779,learnblock1,606,img/planet14_left.png,14,Community 3,NA,FALSE,j,f,NA,NA,NA,26,6,"13,11,10,1,5,4,15,2,12,6,3,9,8,7,14"
14243,commdev-image-keyboard-response,419,4014163,learnblock2,null,img/planet7_left.png,7,Community 3,NA,FALSE,null,f,NA,NA,NA,26,6,"13,11,10,1,5,4,15,2,12,6,3,9,8,7,14"
14243,commdev-image-keyboard-response,420,4015414,learnblock2,342,img/planet3_right.png,3,Community 3,NA,FALSE,f,j,NA,NA,NA,26,6,"13,11,10,1,5,4,15,2,12,6,3,9,8,7,14"
14243,commdev-image-keyboard-response,421,4016666,learnblock2,1071,img/planet5_right.png,5,Community 1,NA,TRUE,j,j,NA,NA,NA,26,6,"13,11,10,1,5,4,15,2,12,6,3,9,8,7,14"
14243,commdev-image-keyboard-response,422,4017918,learnblock2,585,img/planet3_right.png,3,Community 3,NA,FALSE,f,j,NA,NA,NA,26,6,"13,11,10,1,5,4,15,2,12,6,3,9,8,7,14"
14243,commdev-image-keyboard-response,423,4019169,learnblock2,1177,img/planet14_right.png,14,Community 3,NA,TRUE,j,j,NA,NA,NA,26,6,"13,11,10,1,5,4,15,2,12,6,3,9,8,7,14"
14243,commdev-image-keyboard-response,424,4020422,learnblock2,628,img/planet7_left.png,7,Community 3,NA,TRUE,f,f,NA,NA,NA,26,6,"13,11,10,1,5,4,15,2,12,6,3,9,8,7,14"
14243,commdev-image-keyboard-response,425,4021674,learnblock2,1122,img/planet9_right.png,9,Community 3,NA,TRUE,j,j,NA,NA,NA,26,6,"13,11,10,1,5,4,15,2,12,6,3,9,8,7,14"
14243,commdev-image-keyboard-response,426,4022927,learnblock2,570,img/planet7_left.png,7,Community 3,NA,TRUE,f,f,NA,NA,NA,26,6,"13,11,10,1,5,4,15,2,12,6,3,9,8,7,14"
14243,commdev-image-keyboard-response,427,4024179,learnblock2,1156,img/planet8_left.png,8,Community 3,NA,FALSE,j,f,NA,NA,NA,26,6,"13,11,10,1,5,4,15,2,12,6,3,9,8,7,14"
14243,commdev-image-keyboard-response,428,4025430,learnblock2,63,img/planet3_left.png,3,Community 3,NA,TRUE,f,f,NA,NA,NA,26,6,"13,11,10,1,5,4,15,2,12,6,3,9,8,7,14"
14243,commdev-image-keyboard-response,429,4026683,learnblock2,1048,img/planet7_right.png,7,Community 3,NA,TRUE,j,j,NA,NA,NA,26,6,"13,11,10,1,5,4,15,2,12,6,3,9,8,7,14"
14243,commdev-image-keyboard-response,430,4027934,learnblock2,1101,img/planet8_right.png,8,Community 3,NA,TRUE,j,j,NA,NA,NA,26,6,"13,11,10,1,5,4,15,2,12,6,3,9,8,7,14"
14243,commdev-image-keyboard-response,431,4029186,learnblock2,41,img/planet3_right.png,3,Community 3,NA,FALSE,f,j,NA,NA,NA,26,6,"13,11,10,1,5,4,15,2,12,6,3,9,8,7,14"
14243,commdev-image-keyboard-response,432,4030438,learnblock2,793,img/planet8_right.png,8,Community 3,NA,TRUE,j,j,NA,NA,NA,26,6,"13,11,10,1,5,4,15,2,12,6,3,9,8,7,14"
14243,commdev-image-keyboard-response,433,4031690,learnblock2,1097,img/planet14_left.png,14,Community 3,NA,TRUE,f,f,NA,NA,NA,26,6,"13,11,10,1,5,4,15,2,12,6,3,9,8,7,14"
14243,commdev-image-keyboard-response,434,4032942,learnblock2,643,img/planet8_left.png,8,Community 3,NA,FALSE,j,f,NA,NA,NA,26,6,"13,11,10,1,5,4,15,2,12,6,3,9,8,7,14"
14243,commdev-image-keyboard-response,435,4034194,learnblock2,1139,img/planet9_left.png,9,Community 3,NA,FALSE,j,f,NA,NA,NA,26,6,"13,11,10,1,5,4,15,2,12,6,3,9,8,7,14"
14243,commdev-image-keyboard-response,436,4035446,learnblock2,114,img/planet8_left.png,8,Community 3,NA,TRUE,f,f,NA,NA,NA,26,6,"13,11,10,1,5,4,15,2,12,6,3,9,8,7,14"
14243,commdev-image-keyboard-response,437,4036697,learnblock2,null,img/planet3_right.png,3,Community 3,NA,FALSE,null,j,NA,NA,NA,26,6,"13,11,10,1,5,4,15,2,12,6,3,9,8,7,14"
14243,commdev-image-keyboard-response,438,4037950,learnblock2,null,img/planet7_right.png,7,Community 3,NA,FALSE,null,j,NA,NA,NA,26,6,"13,11,10,1,5,4,15,2,12,6,3,9,8,7,14"
14243,commdev-image-keyboard-response,439,4039203,learnblock2,null,img/planet9_right.png,9,Community 3,NA,FALSE,null,j,NA,NA,NA,26,6,"13,11,10,1,5,4,15,2,12,6,3,9,8,7,14"
14243,commdev-image-keyboard-response,440,4040455,learnblock2,null,img/planet14_left.png,14,Community 3,NA,FALSE,null,f,NA,NA,NA,26,6,"13,11,10,1,5,4,15,2,12,6,3,9,8,7,14"
14243,commdev-image-keyboard-response,441,4041707,learnblock2,null,img/planet7_right.png,7,Community 3,NA,FALSE,null,j,NA,NA,NA,26,6,"13,11,10,1,5,4,15,2,12,6,3,9,8,7,14"
14243,commdev-image-keyboard-response,442,4042959,learnblock2,null,img/planet8_right.png,8,Community 3,NA,FALSE,null,j,NA,NA,NA,26,6,"13,11,10,1,5,4,15,2,12,6,3,9,8,7,14"
14243,commdev-image-keyboard-response,443,4044210,learnblock2,473,img/planet7_right.png,7,Community 3,NA,FALSE,f,j,NA,NA,NA,26,6,"13,11,10,1,5,4,15,2,12,6,3,9,8,7,14"
14243,commdev-image-keyboard-response,444,4045463,learnblock2,485,img/planet8_left.png,8,Community 3,NA,TRUE,f,f,NA,NA,NA,26,6,"13,11,10,1,5,4,15,2,12,6,3,9,8,7,14"
14243,commdev-image-keyboard-response,445,4046715,learnblock2,420,img/planet7_left.png,7,Community 3,NA,FALSE,j,f,NA,NA,NA,26,6,"13,11,10,1,5,4,15,2,12,6,3,9,8,7,14"
14243,commdev-image-keyboard-response,446,4047966,learnblock2,503,img/planet8_right.png,8,Community 3,NA,FALSE,f,j,NA,NA,NA,26,6,"13,11,10,1,5,4,15,2,12,6,3,9,8,7,14"
14243,commdev-image-keyboard-response,447,4049217,learnblock2,490,img/planet3_right.png,3,Community 3,NA,TRUE,j,j,NA,NA,NA,26,6,"13,11,10,1,5,4,15,2,12,6,3,9,8,7,14"
14243,commdev-image-keyboard-response,448,4050469,learnblock2,531,img/planet14_right.png,14,Community 3,NA,TRUE,j,j,NA,NA,NA,26,6,"13,11,10,1,5,4,15,2,12,6,3,9,8,7,14"
14243,commdev-image-keyboard-response,449,4051721,learnblock2,495,img/planet9_left.png,9,Community 3,NA,TRUE,f,f,NA,NA,NA,26,6,"13,11,10,1,5,4,15,2,12,6,3,9,8,7,14"
14243,commdev-image-keyboard-response,450,4052973,learnblock2,574,img/planet8_right.png,8,Community 3,NA,TRUE,j,j,NA,NA,NA,26,6,"13,11,10,1,5,4,15,2,12,6,3,9,8,7,14"
14243,commdev-image-keyboard-response,451,4054224,learnblock2,557,img/planet3_left.png,3,Community 3,NA,TRUE,f,f,NA,NA,NA,26,6,"13,11,10,1,5,4,15,2,12,6,3,9,8,7,14"
14243,commdev-image-keyboard-response,452,4055477,learnblock2,526,img/planet7_right.png,7,Community 3,NA,TRUE,j,j,NA,NA,NA,26,6,"13,11,10,1,5,4,15,2,12,6,3,9,8,7,14"
14243,commdev-image-keyboard-response,453,4056728,learnblock2,504,img/planet8_left.png,8,Community 3,NA,TRUE,f,f,NA,NA,NA,26,6,"13,11,10,1,5,4,15,2,12,6,3,9,8,7,14"
14243,commdev-image-keyboard-response,454,4057980,learnblock2,478,img/planet14_right.png,14,Community 3,NA,TRUE,j,j,NA,NA,NA,26,6,"13,11,10,1,5,4,15,2,12,6,3,9,8,7,14"
14243,commdev-image-keyboard-response,455,4059232,learnblock2,440,img/planet8_left.png,8,Community 3,NA,FALSE,j,f,NA,NA,NA,26,6,"13,11,10,1,5,4,15,2,12,6,3,9,8,7,14"
14243,commdev-image-keyboard-response,456,4060484,learnblock2,446,img/planet7_right.png,7,Community 3,NA,TRUE,j,j,NA,NA,NA,26,6,"13,11,10,1,5,4,15,2,12,6,3,9,8,7,14"
14243,commdev-image-keyboard-response,457,4061736,learnblock2,558,img/planet3_right.png,3,Community 3,NA,TRUE,j,j,NA,NA,NA,26,6,"13,11,10,1,5,4,15,2,12,6,3,9,8,7,14"
14243,commdev-image-keyboard-response,458,4062987,learnblock2,532,img/planet5_right.png,5,Community 1,NA,TRUE,j,j,NA,NA,NA,26,6,"13,11,10,1,5,4,15,2,12,6,3,9,8,7,14"
14243,commdev-image-keyboard-response,459,4064240,learnblock2,1102,img/planet11_right.png,11,Community 1,NA,FALSE,f,j,NA,NA,NA,26,6,"13,11,10,1,5,4,15,2,12,6,3,9,8,7,14"
14243,commdev-image-keyboard-response,460,4065492,learnblock2,1044,img/planet13_right.png,13,Community 1,NA,TRUE,j,j,NA,NA,NA,26,6,"13,11,10,1,5,4,15,2,12,6,3,9,8,7,14"
14243,commdev-image-keyboard-response,461,4066743,learnblock2,1021,img/planet5_left.png,5,Community 1,NA,TRUE,f,f,NA,NA,NA,26,6,"13,11,10,1,5,4,15,2,12,6,3,9,8,7,14"
14243,commdev-image-keyboard-response,462,4067995,learnblock2,507,img/planet13_right.png,13,Community 1,NA,TRUE,j,j,NA,NA,NA,26,6,"13,11,10,1,5,4,15,2,12,6,3,9,8,7,14"
14243,commdev-image-keyboard-response,463,4069247,learnblock2,552,img/planet5_left.png,5,Community 1,NA,TRUE,f,f,NA,NA,NA,26,6,"13,11,10,1,5,4,15,2,12,6,3,9,8,7,14"
14243,commdev-image-keyboard-response,464,4070499,learnblock2,478,img/planet3_right.png,3,Community 3,NA,TRUE,j,j,NA,NA,NA,26,6,"13,11,10,1,5,4,15,2,12,6,3,9,8,7,14"
14243,commdev-image-keyboard-response,465,4071750,learnblock2,432,img/planet5_left.png,5,Community 1,NA,TRUE,f,f,NA,NA,NA,26,6,"13,11,10,1,5,4,15,2,12,6,3,9,8,7,14"
14243,commdev-image-keyboard-response,466,4073002,learnblock2,779,img/planet10_right.png,10,Community 1,NA,TRUE,j,j,NA,NA,NA,26,6,"13,11,10,1,5,4,15,2,12,6,3,9,8,7,14"
14243,commdev-image-keyboard-response,467,4074254,learnblock2,1106,img/planet1_right.png,1,Community 1,NA,FALSE,f,j,NA,NA,NA,26,6,"13,11,10,1,5,4,15,2,12,6,3,9,8,7,14"
14243,commdev-image-keyboard-response,468,4075507,learnblock2,85,img/planet10_left.png,10,Community 1,NA,FALSE,j,f,NA,NA,NA,26,6,"13,11,10,1,5,4,15,2,12,6,3,9,8,7,14"
14243,commdev-image-keyboard-response,469,4076759,learnblock2,null,img/planet5_left.png,5,Community 1,NA,FALSE,null,f,NA,NA,NA,26,6,"13,11,10,1,5,4,15,2,12,6,3,9,8,7,14"
14243,commdev-image-keyboard-response,470,4078011,learnblock2,158,img/planet3_left.png,3,Community 3,NA,TRUE,f,f,NA,NA,NA,26,6,"13,11,10,1,5,4,15,2,12,6,3,9,8,7,14"
14243,commdev-image-keyboard-response,471,4079263,learnblock2,538,img/planet14_left.png,14,Community 3,NA,FALSE,j,f,NA,NA,NA,26,6,"13,11,10,1,5,4,15,2,12,6,3,9,8,7,14"
14243,commdev-image-keyboard-response,472,4080516,learnblock2,670,img/planet3_left.png,3,Community 3,NA,TRUE,f,f,NA,NA,NA,26,6,"13,11,10,1,5,4,15,2,12,6,3,9,8,7,14"
14243,commdev-image-keyboard-response,473,4081768,learnblock2,542,img/planet7_right.png,7,Community 3,NA,TRUE,j,j,NA,NA,NA,26,6,"13,11,10,1,5,4,15,2,12,6,3,9,8,7,14"
14243,commdev-image-keyboard-response,474,4083020,learnblock2,566,img/planet14_left.png,14,Community 3,NA,TRUE,f,f,NA,NA,NA,26,6,"13,11,10,1,5,4,15,2,12,6,3,9,8,7,14"
14243,commdev-image-keyboard-response,475,4084272,learnblock2,586,img/planet8_right.png,8,Community 3,NA,TRUE,j,j,NA,NA,NA,26,6,"13,11,10,1,5,4,15,2,12,6,3,9,8,7,14"
14243,commdev-image-keyboard-response,476,4085525,learnblock2,557,img/planet7_right.png,7,Community 3,NA,TRUE,j,j,NA,NA,NA,26,6,"13,11,10,1,5,4,15,2,12,6,3,9,8,7,14"
14243,commdev-image-keyboard-response,477,4086777,learnblock2,533,img/planet3_left.png,3,Community 3,NA,TRUE,f,f,NA,NA,NA,26,6,"13,11,10,1,5,4,15,2,12,6,3,9,8,7,14"
14243,commdev-image-keyboard-response,478,4088029,learnblock2,651,img/planet5_left.png,5,Community 1,NA,TRUE,f,f,NA,NA,NA,26,6,"13,11,10,1,5,4,15,2,12,6,3,9,8,7,14"
14243,commdev-image-keyboard-response,479,4089282,learnblock2,1036,img/planet3_left.png,3,Community 3,NA,TRUE,f,f,NA,NA,NA,26,6,"13,11,10,1,5,4,15,2,12,6,3,9,8,7,14"
14243,commdev-image-keyboard-response,480,4090534,learnblock2,608,img/planet14_left.png,14,Community 3,NA,TRUE,f,f,NA,NA,NA,26,6,"13,11,10,1,5,4,15,2,12,6,3,9,8,7,14"
14243,commdev-image-keyboard-response,481,4091787,learnblock2,595,img/planet9_right.png,9,Community 3,NA,TRUE,j,j,NA,NA,NA,26,6,"13,11,10,1,5,4,15,2,12,6,3,9,8,7,14"
14243,commdev-image-keyboard-response,482,4093038,learnblock2,714,img/planet7_right.png,7,Community 3,NA,TRUE,j,j,NA,NA,NA,26,6,"13,11,10,1,5,4,15,2,12,6,3,9,8,7,14"
14243,commdev-image-keyboard-response,483,4094290,learnblock2,869,img/planet14_left.png,14,Community 3,NA,TRUE,f,f,NA,NA,NA,26,6,"13,11,10,1,5,4,15,2,12,6,3,9,8,7,14"
14243,commdev-image-keyboard-response,484,4095542,learnblock2,990,img/planet9_right.png,9,Community 3,NA,FALSE,f,j,NA,NA,NA,26,6,"13,11,10,1,5,4,15,2,12,6,3,9,8,7,14"
14243,commdev-image-keyboard-response,485,4096794,learnblock2,742,img/planet7_right.png,7,Community 3,NA,TRUE,j,j,NA,NA,NA,26,6,"13,11,10,1,5,4,15,2,12,6,3,9,8,7,14"
14243,commdev-image-keyboard-response,486,4098045,learnblock2,812,img/planet3_left.png,3,Community 3,NA,TRUE,f,f,NA,NA,NA,26,6,"13,11,10,1,5,4,15,2,12,6,3,9,8,7,14"
14243,commdev-image-keyboard-response,487,4099297,learnblock2,738,img/planet14_right.png,14,Community 3,NA,TRUE,j,j,NA,NA,NA,26,6,"13,11,10,1,5,4,15,2,12,6,3,9,8,7,14"
14243,commdev-image-keyboard-response,488,4100548,learnblock2,859,img/planet8_left.png,8,Community 3,NA,TRUE,f,f,NA,NA,NA,26,6,"13,11,10,1,5,4,15,2,12,6,3,9,8,7,14"
14243,commdev-image-keyboard-response,489,4101800,learnblock2,744,img/planet3_right.png,3,Community 3,NA,TRUE,j,j,NA,NA,NA,26,6,"13,11,10,1,5,4,15,2,12,6,3,9,8,7,14"
14243,commdev-image-keyboard-response,490,4103052,learnblock2,956,img/planet14_left.png,14,Community 3,NA,TRUE,f,f,NA,NA,NA,26,6,"13,11,10,1,5,4,15,2,12,6,3,9,8,7,14"
14243,commdev-image-keyboard-response,491,4104305,learnblock2,970,img/planet3_left.png,3,Community 3,NA,TRUE,f,f,NA,NA,NA,26,6,"13,11,10,1,5,4,15,2,12,6,3,9,8,7,14"
14243,commdev-image-keyboard-response,492,4105557,learnblock2,616,img/planet14_right.png,14,Community 3,NA,TRUE,j,j,NA,NA,NA,26,6,"13,11,10,1,5,4,15,2,12,6,3,9,8,7,14"
14243,commdev-image-keyboard-response,493,4106810,learnblock2,677,img/planet8_left.png,8,Community 3,NA,TRUE,f,f,NA,NA,NA,26,6,"13,11,10,1,5,4,15,2,12,6,3,9,8,7,14"
14243,commdev-image-keyboard-response,494,4108063,learnblock2,706,img/planet9_right.png,9,Community 3,NA,FALSE,f,j,NA,NA,NA,26,6,"13,11,10,1,5,4,15,2,12,6,3,9,8,7,14"
14243,commdev-image-keyboard-response,495,4109314,learnblock2,677,img/planet8_right.png,8,Community 3,NA,TRUE,j,j,NA,NA,NA,26,6,"13,11,10,1,5,4,15,2,12,6,3,9,8,7,14"
14243,commdev-image-keyboard-response,496,4110565,learnblock2,718,img/planet14_left.png,14,Community 3,NA,TRUE,f,f,NA,NA,NA,26,6,"13,11,10,1,5,4,15,2,12,6,3,9,8,7,14"
14243,commdev-image-keyboard-response,497,4111817,learnblock2,960,img/planet9_right.png,9,Community 3,NA,TRUE,j,j,NA,NA,NA,26,6,"13,11,10,1,5,4,15,2,12,6,3,9,8,7,14"
14243,commdev-image-keyboard-response,498,4113068,learnblock2,816,img/planet14_right.png,14,Community 3,NA,FALSE,f,j,NA,NA,NA,26,6,"13,11,10,1,5,4,15,2,12,6,3,9,8,7,14"
14243,commdev-image-keyboard-response,499,4114320,learnblock2,626,img/planet7_right.png,7,Community 3,NA,FALSE,f,j,NA,NA,NA,26,6,"13,11,10,1,5,4,15,2,12,6,3,9,8,7,14"
14243,commdev-image-keyboard-response,500,4115572,learnblock2,631,img/planet9_right.png,9,Community 3,NA,TRUE,j,j,NA,NA,NA,26,6,"13,11,10,1,5,4,15,2,12,6,3,9,8,7,14"
14243,commdev-image-keyboard-response,501,4116824,learnblock2,591,img/planet8_left.png,8,Community 3,NA,TRUE,f,f,NA,NA,NA,26,6,"13,11,10,1,5,4,15,2,12,6,3,9,8,7,14"
14243,commdev-image-keyboard-response,502,4118076,learnblock2,472,img/planet9_left.png,9,Community 3,NA,FALSE,j,f,NA,NA,NA,26,6,"13,11,10,1,5,4,15,2,12,6,3,9,8,7,14"
14243,commdev-image-keyboard-response,503,4119328,learnblock2,540,img/planet14_left.png,14,Community 3,NA,TRUE,f,f,NA,NA,NA,26,6,"13,11,10,1,5,4,15,2,12,6,3,9,8,7,14"
14243,commdev-image-keyboard-response,504,4120581,learnblock2,595,img/planet7_left.png,7,Community 3,NA,TRUE,f,f,NA,NA,NA,26,6,"13,11,10,1,5,4,15,2,12,6,3,9,8,7,14"
14243,commdev-image-keyboard-response,505,4121833,learnblock2,569,img/planet14_right.png,14,Community 3,NA,FALSE,f,j,NA,NA,NA,26,6,"13,11,10,1,5,4,15,2,12,6,3,9,8,7,14"
14243,commdev-image-keyboard-response,506,4123084,learnblock2,770,img/planet3_left.png,3,Community 3,NA,TRUE,f,f,NA,NA,NA,26,6,"13,11,10,1,5,4,15,2,12,6,3,9,8,7,14"
14243,commdev-image-keyboard-response,507,4124336,learnblock2,602,img/planet7_right.png,7,Community 3,NA,TRUE,j,j,NA,NA,NA,26,6,"13,11,10,1,5,4,15,2,12,6,3,9,8,7,14"
14243,commdev-image-keyboard-response,508,4125589,learnblock2,558,img/planet8_right.png,8,Community 3,NA,TRUE,j,j,NA,NA,NA,26,6,"13,11,10,1,5,4,15,2,12,6,3,9,8,7,14"
14243,commdev-image-keyboard-response,509,4126841,learnblock2,563,img/planet9_right.png,9,Community 3,NA,TRUE,j,j,NA,NA,NA,26,6,"13,11,10,1,5,4,15,2,12,6,3,9,8,7,14"
14243,commdev-image-keyboard-response,510,4128093,learnblock2,539,img/planet7_right.png,7,Community 3,NA,TRUE,j,j,NA,NA,NA,26,6,"13,11,10,1,5,4,15,2,12,6,3,9,8,7,14"
14243,commdev-image-keyboard-response,511,4129346,learnblock2,472,img/planet14_left.png,14,Community 3,NA,TRUE,f,f,NA,NA,NA,26,6,"13,11,10,1,5,4,15,2,12,6,3,9,8,7,14"
14243,commdev-image-keyboard-response,512,4130599,learnblock2,543,img/planet9_left.png,9,Community 3,NA,TRUE,f,f,NA,NA,NA,26,6,"13,11,10,1,5,4,15,2,12,6,3,9,8,7,14"
14243,commdev-image-keyboard-response,513,4131850,learnblock2,553,img/planet7_right.png,7,Community 3,NA,FALSE,f,j,NA,NA,NA,26,6,"13,11,10,1,5,4,15,2,12,6,3,9,8,7,14"
14243,commdev-image-keyboard-response,514,4133103,learnblock2,669,img/planet8_right.png,8,Community 3,NA,FALSE,f,j,NA,NA,NA,26,6,"13,11,10,1,5,4,15,2,12,6,3,9,8,7,14"
14243,commdev-image-keyboard-response,515,4134355,learnblock2,941,img/planet9_right.png,9,Community 3,NA,TRUE,j,j,NA,NA,NA,26,6,"13,11,10,1,5,4,15,2,12,6,3,9,8,7,14"
14243,commdev-image-keyboard-response,516,4135606,learnblock2,1131,img/planet2_right.png,2,Community 2,NA,TRUE,j,j,NA,NA,NA,26,6,"13,11,10,1,5,4,15,2,12,6,3,9,8,7,14"
14243,commdev-image-keyboard-response,517,4136858,learnblock2,564,img/planet9_right.png,9,Community 3,NA,TRUE,j,j,NA,NA,NA,26,6,"13,11,10,1,5,4,15,2,12,6,3,9,8,7,14"
14243,commdev-image-keyboard-response,518,4138109,learnblock2,558,img/planet8_left.png,8,Community 3,NA,FALSE,j,f,NA,NA,NA,26,6,"13,11,10,1,5,4,15,2,12,6,3,9,8,7,14"
14243,commdev-image-keyboard-response,519,4139361,learnblock2,593,img/planet9_left.png,9,Community 3,NA,TRUE,f,f,NA,NA,NA,26,6,"13,11,10,1,5,4,15,2,12,6,3,9,8,7,14"
14243,commdev-image-keyboard-response,520,4140613,learnblock2,742,img/planet7_right.png,7,Community 3,NA,TRUE,j,j,NA,NA,NA,26,6,"13,11,10,1,5,4,15,2,12,6,3,9,8,7,14"
14243,commdev-image-keyboard-response,521,4141866,learnblock2,636,img/planet14_left.png,14,Community 3,NA,TRUE,f,f,NA,NA,NA,26,6,"13,11,10,1,5,4,15,2,12,6,3,9,8,7,14"
14243,commdev-image-keyboard-response,522,4143117,learnblock2,685,img/planet7_right.png,7,Community 3,NA,TRUE,j,j,NA,NA,NA,26,6,"13,11,10,1,5,4,15,2,12,6,3,9,8,7,14"
14243,commdev-image-keyboard-response,523,4144370,learnblock2,617,img/planet14_left.png,14,Community 3,NA,TRUE,f,f,NA,NA,NA,26,6,"13,11,10,1,5,4,15,2,12,6,3,9,8,7,14"
14243,commdev-image-keyboard-response,524,4145622,learnblock2,727,img/planet9_right.png,9,Community 3,NA,TRUE,j,j,NA,NA,NA,26,6,"13,11,10,1,5,4,15,2,12,6,3,9,8,7,14"
14243,commdev-image-keyboard-response,525,4146875,learnblock2,859,img/planet2_right.png,2,Community 2,NA,TRUE,j,j,NA,NA,NA,26,6,"13,11,10,1,5,4,15,2,12,6,3,9,8,7,14"
14243,commdev-image-keyboard-response,526,4148127,learnblock2,1042,img/planet6_right.png,6,Community 2,NA,FALSE,f,j,NA,NA,NA,26,6,"13,11,10,1,5,4,15,2,12,6,3,9,8,7,14"
14243,commdev-image-keyboard-response,527,4149379,learnblock2,34,img/planet2_left.png,2,Community 2,NA,FALSE,j,f,NA,NA,NA,26,6,"13,11,10,1,5,4,15,2,12,6,3,9,8,7,14"
14243,commdev-image-keyboard-response,528,4150630,learnblock2,945,img/planet15_left.png,15,Community 2,NA,FALSE,j,f,NA,NA,NA,26,6,"13,11,10,1,5,4,15,2,12,6,3,9,8,7,14"
14243,commdev-image-keyboard-response,529,4151882,learnblock2,964,img/planet12_right.png,12,Community 2,NA,TRUE,j,j,NA,NA,NA,26,6,"13,11,10,1,5,4,15,2,12,6,3,9,8,7,14"
14243,commdev-image-keyboard-response,530,4153134,learnblock2,620,img/planet6_right.png,6,Community 2,NA,TRUE,j,j,NA,NA,NA,26,6,"13,11,10,1,5,4,15,2,12,6,3,9,8,7,14"
14243,commdev-image-keyboard-response,531,4154386,learnblock2,479,img/planet2_left.png,2,Community 2,NA,TRUE,f,f,NA,NA,NA,26,6,"13,11,10,1,5,4,15,2,12,6,3,9,8,7,14"
14243,commdev-image-keyboard-response,532,4155639,learnblock2,1048,img/planet12_left.png,12,Community 2,NA,TRUE,f,f,NA,NA,NA,26,6,"13,11,10,1,5,4,15,2,12,6,3,9,8,7,14"
14243,commdev-image-keyboard-response,533,4156890,learnblock2,1035,img/planet6_left.png,6,Community 2,NA,TRUE,f,f,NA,NA,NA,26,6,"13,11,10,1,5,4,15,2,12,6,3,9,8,7,14"
14243,commdev-image-keyboard-response,534,4158141,learnblock2,502,img/planet2_left.png,2,Community 2,NA,TRUE,f,f,NA,NA,NA,26,6,"13,11,10,1,5,4,15,2,12,6,3,9,8,7,14"
14243,commdev-image-keyboard-response,535,4159394,learnblock2,446,img/planet6_right.png,6,Community 2,NA,TRUE,j,j,NA,NA,NA,26,6,"13,11,10,1,5,4,15,2,12,6,3,9,8,7,14"
14243,commdev-image-keyboard-response,536,4160647,learnblock2,490,img/planet15_left.png,15,Community 2,NA,TRUE,f,f,NA,NA,NA,26,6,"13,11,10,1,5,4,15,2,12,6,3,9,8,7,14"
14243,commdev-image-keyboard-response,537,4161897,learnblock2,961,img/planet4_right.png,4,Community 2,NA,TRUE,j,j,NA,NA,NA,26,6,"13,11,10,1,5,4,15,2,12,6,3,9,8,7,14"
14243,commdev-image-keyboard-response,538,4163149,learnblock2,597,img/planet15_left.png,15,Community 2,NA,TRUE,f,f,NA,NA,NA,26,6,"13,11,10,1,5,4,15,2,12,6,3,9,8,7,14"
14243,commdev-image-keyboard-response,539,4164401,learnblock2,586,img/planet6_left.png,6,Community 2,NA,FALSE,j,f,NA,NA,NA,26,6,"13,11,10,1,5,4,15,2,12,6,3,9,8,7,14"
14243,commdev-image-keyboard-response,540,4165653,learnblock2,487,img/planet15_left.png,15,Community 2,NA,TRUE,f,f,NA,NA,NA,26,6,"13,11,10,1,5,4,15,2,12,6,3,9,8,7,14"
14243,commdev-image-keyboard-response,541,4166906,learnblock2,647,img/planet12_right.png,12,Community 2,NA,TRUE,j,j,NA,NA,NA,26,6,"13,11,10,1,5,4,15,2,12,6,3,9,8,7,14"
14243,commdev-image-keyboard-response,542,4168157,learnblock2,512,img/planet2_right.png,2,Community 2,NA,TRUE,j,j,NA,NA,NA,26,6,"13,11,10,1,5,4,15,2,12,6,3,9,8,7,14"
14243,commdev-image-keyboard-response,543,4169410,learnblock2,1013,img/planet15_right.png,15,Community 2,NA,FALSE,f,j,NA,NA,NA,26,6,"13,11,10,1,5,4,15,2,12,6,3,9,8,7,14"
14243,commdev-image-keyboard-response,544,4170662,learnblock2,1006,img/planet2_left.png,2,Community 2,NA,TRUE,f,f,NA,NA,NA,26,6,"13,11,10,1,5,4,15,2,12,6,3,9,8,7,14"
14243,commdev-image-keyboard-response,545,4171913,learnblock2,608,img/planet15_right.png,15,Community 2,NA,TRUE,j,j,NA,NA,NA,26,6,"13,11,10,1,5,4,15,2,12,6,3,9,8,7,14"
14243,commdev-image-keyboard-response,546,4173165,learnblock2,534,img/planet12_left.png,12,Community 2,NA,TRUE,f,f,NA,NA,NA,26,6,"13,11,10,1,5,4,15,2,12,6,3,9,8,7,14"
14243,commdev-image-keyboard-response,547,4174417,learnblock2,722,img/planet4_left.png,4,Community 2,NA,FALSE,j,f,NA,NA,NA,26,6,"13,11,10,1,5,4,15,2,12,6,3,9,8,7,14"
14243,commdev-image-keyboard-response,548,4175670,learnblock2,526,img/planet12_right.png,12,Community 2,NA,FALSE,f,j,NA,NA,NA,26,6,"13,11,10,1,5,4,15,2,12,6,3,9,8,7,14"
14243,commdev-image-keyboard-response,549,4176922,learnblock2,570,img/planet4_right.png,4,Community 2,NA,TRUE,j,j,NA,NA,NA,26,6,"13,11,10,1,5,4,15,2,12,6,3,9,8,7,14"
14243,commdev-image-keyboard-response,550,4178174,learnblock2,534,img/planet6_left.png,6,Community 2,NA,TRUE,f,f,NA,NA,NA,26,6,"13,11,10,1,5,4,15,2,12,6,3,9,8,7,14"
14243,commdev-image-keyboard-response,551,4179425,learnblock2,636,img/planet15_left.png,15,Community 2,NA,TRUE,f,f,NA,NA,NA,26,6,"13,11,10,1,5,4,15,2,12,6,3,9,8,7,14"
14243,commdev-image-keyboard-response,552,4180677,learnblock2,562,img/planet6_right.png,6,Community 2,NA,FALSE,f,j,NA,NA,NA,26,6,"13,11,10,1,5,4,15,2,12,6,3,9,8,7,14"
14243,commdev-image-keyboard-response,553,4181930,learnblock2,664,img/planet12_left.png,12,Community 2,NA,TRUE,f,f,NA,NA,NA,26,6,"13,11,10,1,5,4,15,2,12,6,3,9,8,7,14"
14243,commdev-image-keyboard-response,554,4183182,learnblock2,572,img/planet6_right.png,6,Community 2,NA,TRUE,j,j,NA,NA,NA,26,6,"13,11,10,1,5,4,15,2,12,6,3,9,8,7,14"
14243,commdev-image-keyboard-response,555,4184434,learnblock2,533,img/planet2_right.png,2,Community 2,NA,TRUE,j,j,NA,NA,NA,26,6,"13,11,10,1,5,4,15,2,12,6,3,9,8,7,14"
14243,commdev-image-keyboard-response,556,4185686,learnblock2,606,img/planet12_left.png,12,Community 2,NA,TRUE,f,f,NA,NA,NA,26,6,"13,11,10,1,5,4,15,2,12,6,3,9,8,7,14"
14243,commdev-image-keyboard-response,557,4186938,learnblock2,874,img/planet15_left.png,15,Community 2,NA,TRUE,f,f,NA,NA,NA,26,6,"13,11,10,1,5,4,15,2,12,6,3,9,8,7,14"
14243,commdev-image-keyboard-response,558,4188191,learnblock2,638,img/planet12_left.png,12,Community 2,NA,TRUE,f,f,NA,NA,NA,26,6,"13,11,10,1,5,4,15,2,12,6,3,9,8,7,14"
14243,commdev-image-keyboard-response,559,4189444,learnblock2,638,img/planet4_left.png,4,Community 2,NA,TRUE,f,f,NA,NA,NA,26,6,"13,11,10,1,5,4,15,2,12,6,3,9,8,7,14"
14243,commdev-image-keyboard-response,560,4190695,learnblock2,488,img/planet6_right.png,6,Community 2,NA,FALSE,f,j,NA,NA,NA,26,6,"13,11,10,1,5,4,15,2,12,6,3,9,8,7,14"
14243,commdev-image-keyboard-response,561,4191947,learnblock2,561,img/planet4_right.png,4,Community 2,NA,TRUE,j,j,NA,NA,NA,26,6,"13,11,10,1,5,4,15,2,12,6,3,9,8,7,14"
14243,commdev-image-keyboard-response,562,4193199,learnblock2,480,img/planet12_right.png,12,Community 2,NA,TRUE,j,j,NA,NA,NA,26,6,"13,11,10,1,5,4,15,2,12,6,3,9,8,7,14"
14243,commdev-image-keyboard-response,563,4194451,learnblock2,429,img/planet2_right.png,2,Community 2,NA,TRUE,j,j,NA,NA,NA,26,6,"13,11,10,1,5,4,15,2,12,6,3,9,8,7,14"
14243,commdev-image-keyboard-response,564,4195703,learnblock2,420,img/planet15_right.png,15,Community 2,NA,TRUE,j,j,NA,NA,NA,26,6,"13,11,10,1,5,4,15,2,12,6,3,9,8,7,14"
14243,commdev-image-keyboard-response,565,4196956,learnblock2,498,img/planet12_right.png,12,Community 2,NA,TRUE,j,j,NA,NA,NA,26,6,"13,11,10,1,5,4,15,2,12,6,3,9,8,7,14"
14243,commdev-image-keyboard-response,566,4198208,learnblock2,378,img/planet2_left.png,2,Community 2,NA,TRUE,f,f,NA,NA,NA,26,6,"13,11,10,1,5,4,15,2,12,6,3,9,8,7,14"
14243,commdev-image-keyboard-response,567,4199460,learnblock2,428,img/planet15_left.png,15,Community 2,NA,TRUE,f,f,NA,NA,NA,26,6,"13,11,10,1,5,4,15,2,12,6,3,9,8,7,14"
14243,commdev-image-keyboard-response,568,4200711,learnblock2,447,img/planet4_right.png,4,Community 2,NA,TRUE,j,j,NA,NA,NA,26,6,"13,11,10,1,5,4,15,2,12,6,3,9,8,7,14"
14243,commdev-image-keyboard-response,569,4201963,learnblock2,1046,img/planet1_left.png,1,Community 1,NA,TRUE,f,f,NA,NA,NA,26,6,"13,11,10,1,5,4,15,2,12,6,3,9,8,7,14"
14243,commdev-image-keyboard-response,570,4203215,learnblock2,584,img/planet4_right.png,4,Community 2,NA,TRUE,j,j,NA,NA,NA,26,6,"13,11,10,1,5,4,15,2,12,6,3,9,8,7,14"
14243,commdev-image-keyboard-response,571,4204467,learnblock2,518,img/planet1_right.png,1,Community 1,NA,TRUE,j,j,NA,NA,NA,26,6,"13,11,10,1,5,4,15,2,12,6,3,9,8,7,14"
14243,commdev-image-keyboard-response,572,4205719,learnblock2,467,img/planet4_left.png,4,Community 2,NA,TRUE,f,f,NA,NA,NA,26,6,"13,11,10,1,5,4,15,2,12,6,3,9,8,7,14"
14243,commdev-image-keyboard-response,573,4206972,learnblock2,475,img/planet6_left.png,6,Community 2,NA,TRUE,f,f,NA,NA,NA,26,6,"13,11,10,1,5,4,15,2,12,6,3,9,8,7,14"
14243,commdev-image-keyboard-response,574,4208225,learnblock2,472,img/planet4_right.png,4,Community 2,NA,TRUE,j,j,NA,NA,NA,26,6,"13,11,10,1,5,4,15,2,12,6,3,9,8,7,14"
14243,commdev-image-keyboard-response,575,4209477,learnblock2,439,img/planet15_right.png,15,Community 2,NA,FALSE,f,j,NA,NA,NA,26,6,"13,11,10,1,5,4,15,2,12,6,3,9,8,7,14"
14243,commdev-image-keyboard-response,576,4210729,learnblock2,492,img/planet6_left.png,6,Community 2,NA,TRUE,f,f,NA,NA,NA,26,6,"13,11,10,1,5,4,15,2,12,6,3,9,8,7,14"
14243,commdev-image-keyboard-response,577,4211981,learnblock2,441,img/planet2_right.png,2,Community 2,NA,TRUE,j,j,NA,NA,NA,26,6,"13,11,10,1,5,4,15,2,12,6,3,9,8,7,14"
14243,commdev-image-keyboard-response,578,4213233,learnblock2,508,img/planet12_left.png,12,Community 2,NA,TRUE,f,f,NA,NA,NA,26,6,"13,11,10,1,5,4,15,2,12,6,3,9,8,7,14"
14243,commdev-image-keyboard-response,579,4214484,learnblock2,448,img/planet2_left.png,2,Community 2,NA,FALSE,j,f,NA,NA,NA,26,6,"13,11,10,1,5,4,15,2,12,6,3,9,8,7,14"
14243,commdev-image-keyboard-response,580,4215737,learnblock2,930,img/planet12_left.png,12,Community 2,NA,TRUE,f,f,NA,NA,NA,26,6,"13,11,10,1,5,4,15,2,12,6,3,9,8,7,14"
14243,commdev-image-keyboard-response,581,4216989,learnblock2,566,img/planet6_right.png,6,Community 2,NA,TRUE,j,j,NA,NA,NA,26,6,"13,11,10,1,5,4,15,2,12,6,3,9,8,7,14"
14243,commdev-image-keyboard-response,582,4218242,learnblock2,518,img/planet12_left.png,12,Community 2,NA,TRUE,f,f,NA,NA,NA,26,6,"13,11,10,1,5,4,15,2,12,6,3,9,8,7,14"
14243,commdev-image-keyboard-response,583,4219493,learnblock2,587,img/planet4_left.png,4,Community 2,NA,TRUE,f,f,NA,NA,NA,26,6,"13,11,10,1,5,4,15,2,12,6,3,9,8,7,14"
14243,commdev-image-keyboard-response,584,4220746,learnblock2,542,img/planet1_left.png,1,Community 1,NA,TRUE,f,f,NA,NA,NA,26,6,"13,11,10,1,5,4,15,2,12,6,3,9,8,7,14"
14243,commdev-image-keyboard-response,585,4221998,learnblock2,581,img/planet13_right.png,13,Community 1,NA,TRUE,j,j,NA,NA,NA,26,6,"13,11,10,1,5,4,15,2,12,6,3,9,8,7,14"
14243,commdev-image-keyboard-response,586,4223250,learnblock2,529,img/planet1_left.png,1,Community 1,NA,TRUE,f,f,NA,NA,NA,26,6,"13,11,10,1,5,4,15,2,12,6,3,9,8,7,14"
14243,commdev-image-keyboard-response,587,4224503,learnblock2,1022,img/planet13_left.png,13,Community 1,NA,TRUE,f,f,NA,NA,NA,26,6,"13,11,10,1,5,4,15,2,12,6,3,9,8,7,14"
14243,commdev-image-keyboard-response,588,4225756,learnblock2,706,img/planet11_right.png,11,Community 1,NA,FALSE,f,j,NA,NA,NA,26,6,"13,11,10,1,5,4,15,2,12,6,3,9,8,7,14"
14243,commdev-image-keyboard-response,589,4227007,learnblock2,599,img/planet5_right.png,5,Community 1,NA,FALSE,f,j,NA,NA,NA,26,6,"13,11,10,1,5,4,15,2,12,6,3,9,8,7,14"
14243,commdev-image-keyboard-response,590,4228259,learnblock2,1072,img/planet11_left.png,11,Community 1,NA,FALSE,j,f,NA,NA,NA,26,6,"13,11,10,1,5,4,15,2,12,6,3,9,8,7,14"
14243,commdev-image-keyboard-response,591,4229511,learnblock2,589,img/planet10_left.png,10,Community 1,NA,TRUE,f,f,NA,NA,NA,26,6,"13,11,10,1,5,4,15,2,12,6,3,9,8,7,14"
14243,commdev-image-keyboard-response,592,4230763,learnblock2,513,img/planet5_left.png,5,Community 1,NA,TRUE,f,f,NA,NA,NA,26,6,"13,11,10,1,5,4,15,2,12,6,3,9,8,7,14"
14243,commdev-image-keyboard-response,593,4232016,learnblock2,641,img/planet3_left.png,3,Community 3,NA,TRUE,f,f,NA,NA,NA,26,6,"13,11,10,1,5,4,15,2,12,6,3,9,8,7,14"
14243,commdev-image-keyboard-response,594,4233268,learnblock2,554,img/planet5_right.png,5,Community 1,NA,TRUE,j,j,NA,NA,NA,26,6,"13,11,10,1,5,4,15,2,12,6,3,9,8,7,14"
14243,commdev-image-keyboard-response,595,4234520,learnblock2,528,img/planet3_right.png,3,Community 3,NA,TRUE,j,j,NA,NA,NA,26,6,"13,11,10,1,5,4,15,2,12,6,3,9,8,7,14"
14243,commdev-image-keyboard-response,596,4235772,learnblock2,567,img/planet14_right.png,14,Community 3,NA,FALSE,f,j,NA,NA,NA,26,6,"13,11,10,1,5,4,15,2,12,6,3,9,8,7,14"
14243,commdev-image-keyboard-response,597,4237024,learnblock2,540,img/planet3_right.png,3,Community 3,NA,TRUE,j,j,NA,NA,NA,26,6,"13,11,10,1,5,4,15,2,12,6,3,9,8,7,14"
14243,commdev-image-keyboard-response,598,4238276,learnblock2,504,img/planet7_left.png,7,Community 3,NA,TRUE,f,f,NA,NA,NA,26,6,"13,11,10,1,5,4,15,2,12,6,3,9,8,7,14"
14243,commdev-image-keyboard-response,599,4239529,learnblock2,542,img/planet14_right.png,14,Community 3,NA,TRUE,j,j,NA,NA,NA,26,6,"13,11,10,1,5,4,15,2,12,6,3,9,8,7,14"
14243,commdev-image-keyboard-response,600,4240781,learnblock2,408,img/planet3_left.png,3,Community 3,NA,TRUE,f,f,NA,NA,NA,26,6,"13,11,10,1,5,4,15,2,12,6,3,9,8,7,14"
14243,commdev-image-keyboard-response,601,4242033,learnblock2,609,img/planet7_right.png,7,Community 3,NA,TRUE,j,j,NA,NA,NA,26,6,"13,11,10,1,5,4,15,2,12,6,3,9,8,7,14"
14243,commdev-image-keyboard-response,602,4243286,learnblock2,417,img/planet8_left.png,8,Community 3,NA,FALSE,j,f,NA,NA,NA,26,6,"13,11,10,1,5,4,15,2,12,6,3,9,8,7,14"
14243,commdev-image-keyboard-response,603,4244537,learnblock2,569,img/planet3_right.png,3,Community 3,NA,TRUE,j,j,NA,NA,NA,26,6,"13,11,10,1,5,4,15,2,12,6,3,9,8,7,14"
14243,commdev-image-keyboard-response,604,4245789,learnblock2,469,img/planet7_left.png,7,Community 3,NA,FALSE,j,f,NA,NA,NA,26,6,"13,11,10,1,5,4,15,2,12,6,3,9,8,7,14"
14243,commdev-image-keyboard-response,605,4247042,learnblock2,533,img/planet3_left.png,3,Community 3,NA,FALSE,j,f,NA,NA,NA,26,6,"13,11,10,1,5,4,15,2,12,6,3,9,8,7,14"
14243,commdev-image-keyboard-response,606,4248294,learnblock2,674,img/planet7_left.png,7,Community 3,NA,TRUE,f,f,NA,NA,NA,26,6,"13,11,10,1,5,4,15,2,12,6,3,9,8,7,14"
14243,commdev-image-keyboard-response,607,4249545,learnblock2,644,img/planet14_right.png,14,Community 3,NA,TRUE,j,j,NA,NA,NA,26,6,"13,11,10,1,5,4,15,2,12,6,3,9,8,7,14"
14243,commdev-image-keyboard-response,608,4250797,learnblock2,598,img/planet9_right.png,9,Community 3,NA,TRUE,j,j,NA,NA,NA,26,6,"13,11,10,1,5,4,15,2,12,6,3,9,8,7,14"
14243,commdev-image-keyboard-response,609,4252049,learnblock2,591,img/planet8_right.png,8,Community 3,NA,TRUE,j,j,NA,NA,NA,26,6,"13,11,10,1,5,4,15,2,12,6,3,9,8,7,14"
14243,commdev-image-keyboard-response,610,4253301,learnblock2,604,img/planet14_left.png,14,Community 3,NA,TRUE,f,f,NA,NA,NA,26,6,"13,11,10,1,5,4,15,2,12,6,3,9,8,7,14"
14243,commdev-image-keyboard-response,611,4254553,learnblock2,583,img/planet3_right.png,3,Community 3,NA,TRUE,j,j,NA,NA,NA,26,6,"13,11,10,1,5,4,15,2,12,6,3,9,8,7,14"
14243,commdev-image-keyboard-response,612,4255805,learnblock2,560,img/planet8_left.png,8,Community 3,NA,TRUE,f,f,NA,NA,NA,26,6,"13,11,10,1,5,4,15,2,12,6,3,9,8,7,14"
14243,commdev-image-keyboard-response,613,4257058,learnblock2,539,img/planet14_left.png,14,Community 3,NA,TRUE,f,f,NA,NA,NA,26,6,"13,11,10,1,5,4,15,2,12,6,3,9,8,7,14"
14243,commdev-image-keyboard-response,614,4258311,learnblock2,628,img/planet8_left.png,8,Community 3,NA,TRUE,f,f,NA,NA,NA,26,6,"13,11,10,1,5,4,15,2,12,6,3,9,8,7,14"
14243,commdev-image-keyboard-response,615,4259563,learnblock2,521,img/planet9_left.png,9,Community 3,NA,TRUE,f,f,NA,NA,NA,26,6,"13,11,10,1,5,4,15,2,12,6,3,9,8,7,14"
14243,commdev-image-keyboard-response,616,4260815,learnblock2,504,img/planet2_right.png,2,Community 2,NA,TRUE,j,j,NA,NA,NA,26,6,"13,11,10,1,5,4,15,2,12,6,3,9,8,7,14"
14243,commdev-image-keyboard-response,617,4262067,learnblock2,477,img/planet15_right.png,15,Community 2,NA,TRUE,j,j,NA,NA,NA,26,6,"13,11,10,1,5,4,15,2,12,6,3,9,8,7,14"
14243,commdev-image-keyboard-response,618,4263320,learnblock2,232,img/planet6_left.png,6,Community 2,NA,FALSE,j,f,NA,NA,NA,26,6,"13,11,10,1,5,4,15,2,12,6,3,9,8,7,14"
14243,commdev-image-keyboard-response,619,4264572,learnblock2,533,img/planet15_left.png,15,Community 2,NA,TRUE,f,f,NA,NA,NA,26,6,"13,11,10,1,5,4,15,2,12,6,3,9,8,7,14"
14243,commdev-image-keyboard-response,620,4265824,learnblock2,479,img/planet12_right.png,12,Community 2,NA,TRUE,j,j,NA,NA,NA,26,6,"13,11,10,1,5,4,15,2,12,6,3,9,8,7,14"
14243,commdev-image-keyboard-response,621,4267077,learnblock2,551,img/planet4_right.png,4,Community 2,NA,TRUE,j,j,NA,NA,NA,26,6,"13,11,10,1,5,4,15,2,12,6,3,9,8,7,14"
14243,commdev-image-keyboard-response,622,4268329,learnblock2,500,img/planet12_left.png,12,Community 2,NA,TRUE,f,f,NA,NA,NA,26,6,"13,11,10,1,5,4,15,2,12,6,3,9,8,7,14"
14243,commdev-image-keyboard-response,623,4269581,learnblock2,449,img/planet15_left.png,15,Community 2,NA,TRUE,f,f,NA,NA,NA,26,6,"13,11,10,1,5,4,15,2,12,6,3,9,8,7,14"
14243,commdev-image-keyboard-response,624,4270833,learnblock2,509,img/planet6_right.png,6,Community 2,NA,TRUE,j,j,NA,NA,NA,26,6,"13,11,10,1,5,4,15,2,12,6,3,9,8,7,14"
14243,commdev-image-keyboard-response,625,4272086,learnblock2,617,img/planet4_left.png,4,Community 2,NA,FALSE,j,f,NA,NA,NA,26,6,"13,11,10,1,5,4,15,2,12,6,3,9,8,7,14"
14243,commdev-image-keyboard-response,626,4273337,learnblock2,595,img/planet12_right.png,12,Community 2,NA,TRUE,j,j,NA,NA,NA,26,6,"13,11,10,1,5,4,15,2,12,6,3,9,8,7,14"
14243,commdev-image-keyboard-response,627,4274590,learnblock2,555,img/planet6_left.png,6,Community 2,NA,FALSE,j,f,NA,NA,NA,26,6,"13,11,10,1,5,4,15,2,12,6,3,9,8,7,14"
14243,commdev-image-keyboard-response,628,4275841,learnblock2,577,img/planet12_right.png,12,Community 2,NA,TRUE,j,j,NA,NA,NA,26,6,"13,11,10,1,5,4,15,2,12,6,3,9,8,7,14"
14243,commdev-image-keyboard-response,629,4277094,learnblock2,599,img/planet2_right.png,2,Community 2,NA,TRUE,j,j,NA,NA,NA,26,6,"13,11,10,1,5,4,15,2,12,6,3,9,8,7,14"
14243,commdev-image-keyboard-response,630,4278347,learnblock2,624,img/planet6_right.png,6,Community 2,NA,TRUE,j,j,NA,NA,NA,26,6,"13,11,10,1,5,4,15,2,12,6,3,9,8,7,14"
14243,commdev-image-keyboard-response,631,4279599,learnblock2,753,img/planet4_left.png,4,Community 2,NA,TRUE,f,f,NA,NA,NA,26,6,"13,11,10,1,5,4,15,2,12,6,3,9,8,7,14"
14243,commdev-image-keyboard-response,632,4280851,learnblock2,618,img/planet1_left.png,1,Community 1,NA,TRUE,f,f,NA,NA,NA,26,6,"13,11,10,1,5,4,15,2,12,6,3,9,8,7,14"
14243,commdev-image-keyboard-response,633,4282102,learnblock2,953,img/planet4_left.png,4,Community 2,NA,TRUE,f,f,NA,NA,NA,26,6,"13,11,10,1,5,4,15,2,12,6,3,9,8,7,14"
14243,commdev-image-keyboard-response,634,4283353,learnblock2,623,img/planet1_right.png,1,Community 1,NA,TRUE,j,j,NA,NA,NA,26,6,"13,11,10,1,5,4,15,2,12,6,3,9,8,7,14"
14243,commdev-image-keyboard-response,635,4284604,learnblock2,511,img/planet4_left.png,4,Community 2,NA,TRUE,f,f,NA,NA,NA,26,6,"13,11,10,1,5,4,15,2,12,6,3,9,8,7,14"
14243,commdev-image-keyboard-response,636,4285857,learnblock2,531,img/planet12_left.png,12,Community 2,NA,TRUE,f,f,NA,NA,NA,26,6,"13,11,10,1,5,4,15,2,12,6,3,9,8,7,14"
14243,commdev-image-keyboard-response,637,4287109,learnblock2,402,img/planet6_right.png,6,Community 2,NA,TRUE,j,j,NA,NA,NA,26,6,"13,11,10,1,5,4,15,2,12,6,3,9,8,7,14"
14243,commdev-image-keyboard-response,638,4288361,learnblock2,414,img/planet12_left.png,12,Community 2,NA,FALSE,j,f,NA,NA,NA,26,6,"13,11,10,1,5,4,15,2,12,6,3,9,8,7,14"
14243,commdev-image-keyboard-response,639,4289613,learnblock2,554,img/planet6_left.png,6,Community 2,NA,TRUE,f,f,NA,NA,NA,26,6,"13,11,10,1,5,4,15,2,12,6,3,9,8,7,14"
14243,commdev-image-keyboard-response,640,4290866,learnblock2,506,img/planet2_left.png,2,Community 2,NA,TRUE,f,f,NA,NA,NA,26,6,"13,11,10,1,5,4,15,2,12,6,3,9,8,7,14"
14243,commdev-image-keyboard-response,641,4292117,learnblock2,517,img/planet9_left.png,9,Community 3,NA,TRUE,f,f,NA,NA,NA,26,6,"13,11,10,1,5,4,15,2,12,6,3,9,8,7,14"
14243,commdev-image-keyboard-response,642,4293370,learnblock2,491,img/planet7_right.png,7,Community 3,NA,TRUE,j,j,NA,NA,NA,26,6,"13,11,10,1,5,4,15,2,12,6,3,9,8,7,14"
14243,commdev-image-keyboard-response,643,4294623,learnblock2,759,img/planet8_right.png,8,Community 3,NA,TRUE,j,j,NA,NA,NA,26,6,"13,11,10,1,5,4,15,2,12,6,3,9,8,7,14"
14243,commdev-image-keyboard-response,644,4295875,learnblock2,696,img/planet3_left.png,3,Community 3,NA,TRUE,f,f,NA,NA,NA,26,6,"13,11,10,1,5,4,15,2,12,6,3,9,8,7,14"
14243,commdev-image-keyboard-response,645,4297126,learnblock2,552,img/planet7_right.png,7,Community 3,NA,TRUE,j,j,NA,NA,NA,26,6,"13,11,10,1,5,4,15,2,12,6,3,9,8,7,14"
14243,commdev-image-keyboard-response,646,4298379,learnblock2,708,img/planet8_right.png,8,Community 3,NA,TRUE,j,j,NA,NA,NA,26,6,"13,11,10,1,5,4,15,2,12,6,3,9,8,7,14"
14243,commdev-image-keyboard-response,647,4299630,learnblock2,589,img/planet14_left.png,14,Community 3,NA,TRUE,f,f,NA,NA,NA,26,6,"13,11,10,1,5,4,15,2,12,6,3,9,8,7,14"
14243,commdev-image-keyboard-response,648,4300882,learnblock2,788,img/planet8_left.png,8,Community 3,NA,TRUE,f,f,NA,NA,NA,26,6,"13,11,10,1,5,4,15,2,12,6,3,9,8,7,14"
14243,commdev-image-keyboard-response,649,4302135,learnblock2,888,img/planet3_left.png,3,Community 3,NA,TRUE,f,f,NA,NA,NA,26,6,"13,11,10,1,5,4,15,2,12,6,3,9,8,7,14"
14243,commdev-image-keyboard-response,650,4303387,learnblock2,1083,img/planet5_right.png,5,Community 1,NA,TRUE,j,j,NA,NA,NA,26,6,"13,11,10,1,5,4,15,2,12,6,3,9,8,7,14"
14243,commdev-image-keyboard-response,651,4304640,learnblock2,907,img/planet10_left.png,10,Community 1,NA,TRUE,f,f,NA,NA,NA,26,6,"13,11,10,1,5,4,15,2,12,6,3,9,8,7,14"
14243,commdev-image-keyboard-response,652,4305892,learnblock2,648,img/planet5_left.png,5,Community 1,NA,TRUE,f,f,NA,NA,NA,26,6,"13,11,10,1,5,4,15,2,12,6,3,9,8,7,14"
14243,commdev-image-keyboard-response,653,4307144,learnblock2,637,img/planet11_right.png,11,Community 1,NA,TRUE,j,j,NA,NA,NA,26,6,"13,11,10,1,5,4,15,2,12,6,3,9,8,7,14"
14243,commdev-image-keyboard-response,654,4308397,learnblock2,590,img/planet1_left.png,1,Community 1,NA,TRUE,f,f,NA,NA,NA,26,6,"13,11,10,1,5,4,15,2,12,6,3,9,8,7,14"
14243,commdev-image-keyboard-response,655,4309650,learnblock2,589,img/planet11_left.png,11,Community 1,NA,TRUE,f,f,NA,NA,NA,26,6,"13,11,10,1,5,4,15,2,12,6,3,9,8,7,14"
14243,commdev-image-keyboard-response,656,4310902,learnblock2,539,img/planet10_right.png,10,Community 1,NA,TRUE,j,j,NA,NA,NA,26,6,"13,11,10,1,5,4,15,2,12,6,3,9,8,7,14"
14243,commdev-image-keyboard-response,657,4312154,learnblock2,566,img/planet13_left.png,13,Community 1,NA,TRUE,f,f,NA,NA,NA,26,6,"13,11,10,1,5,4,15,2,12,6,3,9,8,7,14"
14243,commdev-image-keyboard-response,658,4313406,learnblock2,540,img/planet1_right.png,1,Community 1,NA,TRUE,j,j,NA,NA,NA,26,6,"13,11,10,1,5,4,15,2,12,6,3,9,8,7,14"
14243,commdev-image-keyboard-response,659,4314658,learnblock2,499,img/planet11_left.png,11,Community 1,NA,TRUE,f,f,NA,NA,NA,26,6,"13,11,10,1,5,4,15,2,12,6,3,9,8,7,14"
14243,commdev-image-keyboard-response,660,4315911,learnblock2,517,img/planet10_right.png,10,Community 1,NA,TRUE,j,j,NA,NA,NA,26,6,"13,11,10,1,5,4,15,2,12,6,3,9,8,7,14"
14243,commdev-image-keyboard-response,661,4317162,learnblock2,501,img/planet5_left.png,5,Community 1,NA,FALSE,j,f,NA,NA,NA,26,6,"13,11,10,1,5,4,15,2,12,6,3,9,8,7,14"
14243,commdev-image-keyboard-response,662,4318414,learnblock2,516,img/planet3_left.png,3,Community 3,NA,TRUE,f,f,NA,NA,NA,26,6,"13,11,10,1,5,4,15,2,12,6,3,9,8,7,14"
14243,commdev-image-keyboard-response,663,4319667,learnblock2,531,img/planet7_right.png,7,Community 3,NA,TRUE,j,j,NA,NA,NA,26,6,"13,11,10,1,5,4,15,2,12,6,3,9,8,7,14"
14243,commdev-image-keyboard-response,664,4320919,learnblock2,511,img/planet9_left.png,9,Community 3,NA,TRUE,f,f,NA,NA,NA,26,6,"13,11,10,1,5,4,15,2,12,6,3,9,8,7,14"
14243,commdev-image-keyboard-response,665,4322171,learnblock2,586,img/planet7_left.png,7,Community 3,NA,TRUE,f,f,NA,NA,NA,26,6,"13,11,10,1,5,4,15,2,12,6,3,9,8,7,14"
14243,commdev-image-keyboard-response,666,4323423,learnblock2,427,img/planet9_right.png,9,Community 3,NA,TRUE,j,j,NA,NA,NA,26,6,"13,11,10,1,5,4,15,2,12,6,3,9,8,7,14"
14243,commdev-image-keyboard-response,667,4324676,learnblock2,580,img/planet8_right.png,8,Community 3,NA,TRUE,j,j,NA,NA,NA,26,6,"13,11,10,1,5,4,15,2,12,6,3,9,8,7,14"
14243,commdev-image-keyboard-response,668,4325928,learnblock2,494,img/planet14_right.png,14,Community 3,NA,TRUE,j,j,NA,NA,NA,26,6,"13,11,10,1,5,4,15,2,12,6,3,9,8,7,14"
14243,commdev-image-keyboard-response,669,4327179,learnblock2,518,img/planet7_right.png,7,Community 3,NA,TRUE,j,j,NA,NA,NA,26,6,"13,11,10,1,5,4,15,2,12,6,3,9,8,7,14"
14243,commdev-image-keyboard-response,670,4328431,learnblock2,513,img/planet14_left.png,14,Community 3,NA,TRUE,f,f,NA,NA,NA,26,6,"13,11,10,1,5,4,15,2,12,6,3,9,8,7,14"
14243,commdev-image-keyboard-response,671,4329682,learnblock2,454,img/planet9_right.png,9,Community 3,NA,FALSE,f,j,NA,NA,NA,26,6,"13,11,10,1,5,4,15,2,12,6,3,9,8,7,14"
14243,commdev-image-keyboard-response,672,4330934,learnblock2,562,img/planet7_left.png,7,Community 3,NA,TRUE,f,f,NA,NA,NA,26,6,"13,11,10,1,5,4,15,2,12,6,3,9,8,7,14"
14243,commdev-image-keyboard-response,673,4332186,learnblock2,474,img/planet3_right.png,3,Community 3,NA,TRUE,j,j,NA,NA,NA,26,6,"13,11,10,1,5,4,15,2,12,6,3,9,8,7,14"
14243,commdev-image-keyboard-response,674,4333439,learnblock2,477,img/planet7_right.png,7,Community 3,NA,TRUE,j,j,NA,NA,NA,26,6,"13,11,10,1,5,4,15,2,12,6,3,9,8,7,14"
14243,commdev-image-keyboard-response,675,4334691,learnblock2,494,img/planet9_left.png,9,Community 3,NA,TRUE,f,f,NA,NA,NA,26,6,"13,11,10,1,5,4,15,2,12,6,3,9,8,7,14"
14243,commdev-image-keyboard-response,676,4335942,learnblock2,505,img/planet8_left.png,8,Community 3,NA,FALSE,j,f,NA,NA,NA,26,6,"13,11,10,1,5,4,15,2,12,6,3,9,8,7,14"
14243,commdev-image-keyboard-response,677,4337194,learnblock2,617,img/planet9_left.png,9,Community 3,NA,TRUE,f,f,NA,NA,NA,26,6,"13,11,10,1,5,4,15,2,12,6,3,9,8,7,14"
