subject_id,trial_type,trial_index,time_elapsed,block,rt,stimulus,planet,community,response,correct,key_press,learning_correct_response,parse,init_locations,final_locations,browser_interactions,num_comp,planet_map
15333,commdev-instructions,7,27312,NA,685.1000000238419,"<p>In this game, you are a scientist on board a space shuttle. </p><p> On each mission, you will visit planets all across the universe.</p><img src=""img/controlroom.jpg"" width=300vw>",NA,NA,NA,NA,NA,NA,NA,NA,NA,1,7,"13,4,2,1,5,11,15,10,8,9,7,3,14,12,6"
15333,commdev-instructions,8,30191,NA,804.7000000476837,"<p>Here are a few planets you might see:</p><img src=""img/practice1.png"" width=200vw><img src=""img/practice2.png"" width=200vw><img src=""img/practice3.png"" width=200vw>",NA,NA,NA,NA,NA,NA,NA,NA,NA,1,7,"13,4,2,1,5,11,15,10,8,9,7,3,14,12,6"
15333,commdev-instructions,9,38455,NA,848.1999999284744,"<p>Your job as a scientist is to record which direction the winds are moving on each planet.</p><p>There are two types of wind directions:</p><img src=""img/practice1_left.png"" width=200vw><img src=""img/practice1_right.png"" width=200vw>",NA,NA,NA,NA,NA,NA,NA,NA,NA,1,7,"13,4,2,1,5,11,15,10,8,9,7,3,14,12,6"
15333,commdev-instructions,10,44655,NA,1308.4000000953674,"<p>If the winds are moving this way, press the letter <strong>F</strong> on the keyboard as fast as you can.</p><img src=""img/leftwind.png"" width=250vw>",NA,NA,NA,NA,NA,NA,NA,NA,NA,1,7,"13,4,2,1,5,11,15,10,8,9,7,3,14,12,6"
15333,commdev-instructions,11,49679,NA,522.5,"<p>If the winds are moving this way, press the letter <strong>J</strong> on the keyboard as fast as you can.</p><img src=""img/rightwind.png"" width=350vw>",NA,NA,NA,NA,NA,NA,NA,NA,NA,1,7,"13,4,2,1,5,11,15,10,8,9,7,3,14,12,6"
15333,commdev-instructions,12,55271,NA,1165,<p>You will have 1 second to respond. Try to respond before the time runs out!,NA,NA,NA,NA,NA,NA,NA,NA,NA,1,7,"13,4,2,1,5,11,15,10,8,9,7,3,14,12,6"
15333,commdev-instructions,13,61855,NA,1149.1999999284744,<p>The planets you will visit will look different from each other.</p><p>You should respond <strong>only</strong> based on wind direction.,NA,NA,NA,NA,NA,NA,NA,NA,NA,1,7,"13,4,2,1,5,11,15,10,8,9,7,3,14,12,6"
15333,commdev-instructions,14,68023,NA,996.3000000715256,"<p> Ready to start the practice round? </p><p> Remember, press <strong>F</strong> or <strong>J</strong> depending on the wind direction.<br><img src=""img/categorize_planet_example.png""",NA,NA,NA,NA,NA,NA,NA,NA,NA,1,7,"13,4,2,1,5,11,15,10,8,9,7,3,14,12,6"
15333,commdev-instructions,26,117334,NA,1011.6000000238419,"<p>Great, now try a short practice mission. </p><p> This time, you will have 1 second to respond and you won't know whether you pressed the right or wrong key for each planet.</p>",NA,NA,NA,NA,NA,NA,NA,NA,NA,1,7,"13,4,2,1,5,11,15,10,8,9,7,3,14,12,6"
15333,commdev-image-keyboard-response,27,118701,practice,829.3999999761581,img/practice2_right.png,NA,Number not found in mappings,NA,TRUE,j,j,NA,NA,NA,1,7,"13,4,2,1,5,11,15,10,8,9,7,3,14,12,6"
15333,commdev-image-keyboard-response,28,119957,practice,798.6000000238419,img/practice4_right.png,NA,Number not found in mappings,NA,TRUE,j,j,NA,NA,NA,1,7,"13,4,2,1,5,11,15,10,8,9,7,3,14,12,6"
15333,commdev-image-keyboard-response,29,121210,practice,622.5999999046326,img/practice3_right.png,NA,Number not found in mappings,NA,TRUE,j,j,NA,NA,NA,1,7,"13,4,2,1,5,11,15,10,8,9,7,3,14,12,6"
15333,commdev-image-keyboard-response,30,122476,practice,481.60000002384186,img/practice4_right.png,NA,Number not found in mappings,NA,TRUE,j,j,NA,NA,NA,1,7,"13,4,2,1,5,11,15,10,8,9,7,3,14,12,6"
15333,commdev-image-keyboard-response,31,123742,practice,631.1999999284744,img/practice3_right.png,NA,Number not found in mappings,NA,TRUE,j,j,NA,NA,NA,1,7,"13,4,2,1,5,11,15,10,8,9,7,3,14,12,6"
15333,commdev-image-keyboard-response,32,124996,practice,541.5,img/practice1_left.png,NA,Number not found in mappings,NA,TRUE,f,f,NA,NA,NA,1,7,"13,4,2,1,5,11,15,10,8,9,7,3,14,12,6"
15333,commdev-image-keyboard-response,33,126252,practice,495,img/practice4_right.png,NA,Number not found in mappings,NA,TRUE,j,j,NA,NA,NA,1,7,"13,4,2,1,5,11,15,10,8,9,7,3,14,12,6"
15333,commdev-image-keyboard-response,34,127507,practice,751.5,img/practice3_right.png,NA,Number not found in mappings,NA,TRUE,j,j,NA,NA,NA,1,7,"13,4,2,1,5,11,15,10,8,9,7,3,14,12,6"
15333,commdev-instructions,35,137918,NA,856.2000000476837,"<p>Great job with the practice round.</p><p>During real missions, you won't know whether you pressed the right or wrong key for each planet.</p><p>But between missions, we will tell you how you did overall.</p>",NA,NA,NA,NA,NA,NA,NA,NA,NA,1,7,"13,4,2,1,5,11,15,10,8,9,7,3,14,12,6"
15333,commdev-instructions,36,147038,NA,875.5,<p>Try your best! You will be paid a bonus based on how many correct responses you make!</p><p>Responses that are too slow will not count toward your bonus.</p>,NA,NA,NA,NA,NA,NA,NA,NA,NA,1,7,"13,4,2,1,5,11,15,10,8,9,7,3,14,12,6"
15333,commdev-instructions,37,153926,NA,684.1000000238419,"<p>You are almost ready to start the real game.</p><p> First, we are going to ask you some questions about how the game works.</p>",NA,NA,NA,NA,NA,NA,NA,NA,NA,1,7,"13,4,2,1,5,11,15,10,8,9,7,3,14,12,6"
15333,commdev-instructions,46,230350,NA,1147.7999999523163,"<p> Nice work! It is now time to start the real game.<p></p>You will go on two missions to record wind directions of different planets.<p></p>Each one will take about 5 minutes. You will get to take a break between missions.<p><p> Remember, press <strong>F</strong> or <strong>J</strong> depending on the wind direction. Good luck!<br><img src=""img/categorize_planet_example.png""",NA,NA,NA,NA,NA,NA,NA,NA,NA,1,7,"13,4,2,1,5,11,15,10,8,9,7,3,14,12,6"
15333,commdev-image-keyboard-response,48,234351,learnblock1,749.5999999046326,img/planet3_right.png,3,Community 3,NA,TRUE,j,j,NA,NA,NA,1,7,"13,4,2,1,5,11,15,10,8,9,7,3,14,12,6"
15333,commdev-image-keyboard-response,49,235617,learnblock1,811.5999999046326,img/planet6_left.png,6,Community 3,NA,TRUE,f,f,NA,NA,NA,1,7,"13,4,2,1,5,11,15,10,8,9,7,3,14,12,6"
15333,commdev-image-keyboard-response,50,236884,learnblock1,683.6000000238419,img/planet7_right.png,7,Community 3,NA,TRUE,j,j,NA,NA,NA,1,7,"13,4,2,1,5,11,15,10,8,9,7,3,14,12,6"
15333,commdev-image-keyboard-response,51,238150,learnblock1,566.4000000953674,img/planet6_left.png,6,Community 3,NA,TRUE,f,f,NA,NA,NA,1,7,"13,4,2,1,5,11,15,10,8,9,7,3,14,12,6"
15333,commdev-image-keyboard-response,52,239402,learnblock1,740.7999999523163,img/planet12_left.png,12,Community 3,NA,TRUE,f,f,NA,NA,NA,1,7,"13,4,2,1,5,11,15,10,8,9,7,3,14,12,6"
15333,commdev-image-keyboard-response,53,240663,learnblock1,744.7999999523163,img/planet7_left.png,7,Community 3,NA,TRUE,f,f,NA,NA,NA,1,7,"13,4,2,1,5,11,15,10,8,9,7,3,14,12,6"
15333,commdev-image-keyboard-response,54,241923,learnblock1,683.7999999523163,img/planet12_left.png,12,Community 3,NA,TRUE,f,f,NA,NA,NA,1,7,"13,4,2,1,5,11,15,10,8,9,7,3,14,12,6"
15333,commdev-image-keyboard-response,55,243188,learnblock1,623.5,img/planet3_right.png,3,Community 3,NA,TRUE,j,j,NA,NA,NA,1,7,"13,4,2,1,5,11,15,10,8,9,7,3,14,12,6"
15333,commdev-image-keyboard-response,56,244453,learnblock1,758.7000000476837,img/planet14_right.png,14,Community 3,NA,TRUE,j,j,NA,NA,NA,1,7,"13,4,2,1,5,11,15,10,8,9,7,3,14,12,6"
15333,commdev-image-keyboard-response,57,245710,learnblock1,861,img/planet7_left.png,7,Community 3,NA,TRUE,f,f,NA,NA,NA,1,7,"13,4,2,1,5,11,15,10,8,9,7,3,14,12,6"
15333,commdev-image-keyboard-response,58,246966,learnblock1,836.5,img/planet5_left.png,5,Community 1,NA,TRUE,f,f,NA,NA,NA,1,7,"13,4,2,1,5,11,15,10,8,9,7,3,14,12,6"
15333,commdev-image-keyboard-response,59,248229,learnblock1,796.4000000953674,img/planet13_left.png,13,Community 1,NA,TRUE,f,f,NA,NA,NA,1,7,"13,4,2,1,5,11,15,10,8,9,7,3,14,12,6"
15333,commdev-image-keyboard-response,60,249494,learnblock1,749.5,img/planet1_left.png,1,Community 1,NA,TRUE,f,f,NA,NA,NA,1,7,"13,4,2,1,5,11,15,10,8,9,7,3,14,12,6"
15333,commdev-image-keyboard-response,61,250756,learnblock1,844.7000000476837,img/planet4_left.png,4,Community 1,NA,TRUE,f,f,NA,NA,NA,1,7,"13,4,2,1,5,11,15,10,8,9,7,3,14,12,6"
15333,commdev-image-keyboard-response,62,252022,learnblock1,838.6000000238419,img/planet2_left.png,2,Community 1,NA,TRUE,f,f,NA,NA,NA,1,7,"13,4,2,1,5,11,15,10,8,9,7,3,14,12,6"
15333,commdev-image-keyboard-response,63,253289,learnblock1,652.9000000953674,img/planet5_right.png,5,Community 1,NA,TRUE,j,j,NA,NA,NA,1,7,"13,4,2,1,5,11,15,10,8,9,7,3,14,12,6"
15333,commdev-image-keyboard-response,64,254555,learnblock1,801.8000000715256,img/planet7_right.png,7,Community 3,NA,TRUE,j,j,NA,NA,NA,1,7,"13,4,2,1,5,11,15,10,8,9,7,3,14,12,6"
15333,commdev-image-keyboard-response,65,255806,learnblock1,735.7000000476837,img/planet6_left.png,6,Community 3,NA,TRUE,f,f,NA,NA,NA,1,7,"13,4,2,1,5,11,15,10,8,9,7,3,14,12,6"
15333,commdev-image-keyboard-response,66,257072,learnblock1,620.2000000476837,img/planet3_left.png,3,Community 3,NA,TRUE,f,f,NA,NA,NA,1,7,"13,4,2,1,5,11,15,10,8,9,7,3,14,12,6"
15333,commdev-image-keyboard-response,67,258338,learnblock1,666.3999999761581,img/planet12_right.png,12,Community 3,NA,TRUE,j,j,NA,NA,NA,1,7,"13,4,2,1,5,11,15,10,8,9,7,3,14,12,6"
15333,commdev-image-keyboard-response,68,259590,learnblock1,792.7000000476837,img/planet7_left.png,7,Community 3,NA,FALSE,j,f,NA,NA,NA,1,7,"13,4,2,1,5,11,15,10,8,9,7,3,14,12,6"
15333,commdev-image-keyboard-response,69,260841,learnblock1,652.5,img/planet6_left.png,6,Community 3,NA,FALSE,j,f,NA,NA,NA,1,7,"13,4,2,1,5,11,15,10,8,9,7,3,14,12,6"
15333,commdev-image-keyboard-response,70,262092,learnblock1,793.5,img/planet7_right.png,7,Community 3,NA,TRUE,j,j,NA,NA,NA,1,7,"13,4,2,1,5,11,15,10,8,9,7,3,14,12,6"
15333,commdev-image-keyboard-response,71,263344,learnblock1,null,img/planet12_right.png,12,Community 3,NA,FALSE,null,j,NA,NA,NA,1,7,"13,4,2,1,5,11,15,10,8,9,7,3,14,12,6"
15333,commdev-image-keyboard-response,72,264596,learnblock1,90.5,img/planet14_right.png,14,Community 3,NA,TRUE,j,j,NA,NA,NA,1,7,"13,4,2,1,5,11,15,10,8,9,7,3,14,12,6"
15333,commdev-image-keyboard-response,73,265848,learnblock1,814.7000000476837,img/planet6_left.png,6,Community 3,NA,TRUE,f,f,NA,NA,NA,1,7,"13,4,2,1,5,11,15,10,8,9,7,3,14,12,6"
15333,commdev-image-keyboard-response,74,267099,learnblock1,722.3000000715256,img/planet12_right.png,12,Community 3,NA,TRUE,j,j,NA,NA,NA,1,7,"13,4,2,1,5,11,15,10,8,9,7,3,14,12,6"
15333,commdev-image-keyboard-response,75,268351,learnblock1,615.3000000715256,img/planet7_left.png,7,Community 3,NA,TRUE,f,f,NA,NA,NA,1,7,"13,4,2,1,5,11,15,10,8,9,7,3,14,12,6"
15333,commdev-image-keyboard-response,76,269603,learnblock1,699.3999999761581,img/planet14_left.png,14,Community 3,NA,TRUE,f,f,NA,NA,NA,1,7,"13,4,2,1,5,11,15,10,8,9,7,3,14,12,6"
15333,commdev-image-keyboard-response,77,270855,learnblock1,742.7999999523163,img/planet12_left.png,12,Community 3,NA,TRUE,f,f,NA,NA,NA,1,7,"13,4,2,1,5,11,15,10,8,9,7,3,14,12,6"
15333,commdev-image-keyboard-response,78,272106,learnblock1,667.2000000476837,img/planet6_right.png,6,Community 3,NA,TRUE,j,j,NA,NA,NA,1,7,"13,4,2,1,5,11,15,10,8,9,7,3,14,12,6"
15333,commdev-image-keyboard-response,79,273358,learnblock1,560.2000000476837,img/planet7_left.png,7,Community 3,NA,TRUE,f,f,NA,NA,NA,1,7,"13,4,2,1,5,11,15,10,8,9,7,3,14,12,6"
15333,commdev-image-keyboard-response,80,274611,learnblock1,468,img/planet6_right.png,6,Community 3,NA,TRUE,j,j,NA,NA,NA,1,7,"13,4,2,1,5,11,15,10,8,9,7,3,14,12,6"
15333,commdev-image-keyboard-response,81,275863,learnblock1,471.2999999523163,img/planet7_left.png,7,Community 3,NA,TRUE,f,f,NA,NA,NA,1,7,"13,4,2,1,5,11,15,10,8,9,7,3,14,12,6"
15333,commdev-image-keyboard-response,82,277123,learnblock1,667.3999999761581,img/planet6_left.png,6,Community 3,NA,TRUE,f,f,NA,NA,NA,1,7,"13,4,2,1,5,11,15,10,8,9,7,3,14,12,6"
15333,commdev-image-keyboard-response,83,278375,learnblock1,615.2999999523163,img/planet3_right.png,3,Community 3,NA,TRUE,j,j,NA,NA,NA,1,7,"13,4,2,1,5,11,15,10,8,9,7,3,14,12,6"
15333,commdev-image-keyboard-response,84,279626,learnblock1,907.3999999761581,img/planet14_left.png,14,Community 3,NA,FALSE,j,f,NA,NA,NA,1,7,"13,4,2,1,5,11,15,10,8,9,7,3,14,12,6"
15333,commdev-image-keyboard-response,85,280878,learnblock1,1088.1000000238419,img/planet7_right.png,7,Community 3,NA,TRUE,j,j,NA,NA,NA,1,7,"13,4,2,1,5,11,15,10,8,9,7,3,14,12,6"
15333,commdev-image-keyboard-response,86,282129,learnblock1,null,img/planet14_right.png,14,Community 3,NA,FALSE,null,j,NA,NA,NA,1,7,"13,4,2,1,5,11,15,10,8,9,7,3,14,12,6"
15333,commdev-image-keyboard-response,87,283381,learnblock1,56.89999997615814,img/planet3_left.png,3,Community 3,NA,TRUE,f,f,NA,NA,NA,1,7,"13,4,2,1,5,11,15,10,8,9,7,3,14,12,6"
15333,commdev-image-keyboard-response,88,284633,learnblock1,532.8999999761581,img/planet6_right.png,6,Community 3,NA,TRUE,j,j,NA,NA,NA,1,7,"13,4,2,1,5,11,15,10,8,9,7,3,14,12,6"
15333,commdev-image-keyboard-response,89,285885,learnblock1,609.2000000476837,img/planet14_right.png,14,Community 3,NA,TRUE,j,j,NA,NA,NA,1,7,"13,4,2,1,5,11,15,10,8,9,7,3,14,12,6"
15333,commdev-image-keyboard-response,90,287136,learnblock1,1085.3999999761581,img/planet6_right.png,6,Community 3,NA,TRUE,j,j,NA,NA,NA,1,7,"13,4,2,1,5,11,15,10,8,9,7,3,14,12,6"
15333,commdev-image-keyboard-response,91,288387,learnblock1,666.0999999046326,img/planet12_left.png,12,Community 3,NA,TRUE,f,f,NA,NA,NA,1,7,"13,4,2,1,5,11,15,10,8,9,7,3,14,12,6"
15333,commdev-image-keyboard-response,92,289639,learnblock1,719.0999999046326,img/planet14_right.png,14,Community 3,NA,TRUE,j,j,NA,NA,NA,1,7,"13,4,2,1,5,11,15,10,8,9,7,3,14,12,6"
15333,commdev-image-keyboard-response,93,290891,learnblock1,795.2999999523163,img/planet7_left.png,7,Community 3,NA,TRUE,f,f,NA,NA,NA,1,7,"13,4,2,1,5,11,15,10,8,9,7,3,14,12,6"
15333,commdev-image-keyboard-response,94,292142,learnblock1,647.2999999523163,img/planet6_left.png,6,Community 3,NA,TRUE,f,f,NA,NA,NA,1,7,"13,4,2,1,5,11,15,10,8,9,7,3,14,12,6"
15333,commdev-image-keyboard-response,95,293394,learnblock1,668,img/planet14_left.png,14,Community 3,NA,TRUE,f,f,NA,NA,NA,1,7,"13,4,2,1,5,11,15,10,8,9,7,3,14,12,6"
15333,commdev-image-keyboard-response,96,294647,learnblock1,592.1000000238419,img/planet12_left.png,12,Community 3,NA,TRUE,f,f,NA,NA,NA,1,7,"13,4,2,1,5,11,15,10,8,9,7,3,14,12,6"
15333,commdev-image-keyboard-response,97,295898,learnblock1,587.3000000715256,img/planet3_left.png,3,Community 3,NA,TRUE,f,f,NA,NA,NA,1,7,"13,4,2,1,5,11,15,10,8,9,7,3,14,12,6"
15333,commdev-image-keyboard-response,98,297150,learnblock1,815.7999999523163,img/planet14_right.png,14,Community 3,NA,TRUE,j,j,NA,NA,NA,1,7,"13,4,2,1,5,11,15,10,8,9,7,3,14,12,6"
15333,commdev-image-keyboard-response,99,298401,learnblock1,636.2999999523163,img/planet7_left.png,7,Community 3,NA,TRUE,f,f,NA,NA,NA,1,7,"13,4,2,1,5,11,15,10,8,9,7,3,14,12,6"
15333,commdev-image-keyboard-response,100,299653,learnblock1,673.1000000238419,img/planet12_left.png,12,Community 3,NA,TRUE,f,f,NA,NA,NA,1,7,"13,4,2,1,5,11,15,10,8,9,7,3,14,12,6"
15333,commdev-image-keyboard-response,101,300904,learnblock1,557.1000000238419,img/planet3_right.png,3,Community 3,NA,TRUE,j,j,NA,NA,NA,1,7,"13,4,2,1,5,11,15,10,8,9,7,3,14,12,6"
15333,commdev-image-keyboard-response,102,302155,learnblock1,417.89999997615814,img/planet10_left.png,10,Community 2,NA,FALSE,j,f,NA,NA,NA,1,7,"13,4,2,1,5,11,15,10,8,9,7,3,14,12,6"
15333,commdev-image-keyboard-response,103,303406,learnblock1,623.1999999284744,img/planet3_right.png,3,Community 3,NA,TRUE,j,j,NA,NA,NA,1,7,"13,4,2,1,5,11,15,10,8,9,7,3,14,12,6"
15333,commdev-image-keyboard-response,104,304658,learnblock1,924.1000000238419,img/planet14_right.png,14,Community 3,NA,TRUE,j,j,NA,NA,NA,1,7,"13,4,2,1,5,11,15,10,8,9,7,3,14,12,6"
15333,commdev-image-keyboard-response,105,305910,learnblock1,992.2000000476837,img/planet6_right.png,6,Community 3,NA,FALSE,f,j,NA,NA,NA,1,7,"13,4,2,1,5,11,15,10,8,9,7,3,14,12,6"
15333,commdev-image-keyboard-response,106,307162,learnblock1,980.2000000476837,img/planet12_right.png,12,Community 3,NA,FALSE,f,j,NA,NA,NA,1,7,"13,4,2,1,5,11,15,10,8,9,7,3,14,12,6"
15333,commdev-image-keyboard-response,107,308413,learnblock1,1152.9000000953674,img/planet3_left.png,3,Community 3,NA,TRUE,f,f,NA,NA,NA,1,7,"13,4,2,1,5,11,15,10,8,9,7,3,14,12,6"
15333,commdev-image-keyboard-response,108,309665,learnblock1,612.6000000238419,img/planet10_right.png,10,Community 2,NA,FALSE,f,j,NA,NA,NA,1,7,"13,4,2,1,5,11,15,10,8,9,7,3,14,12,6"
15333,commdev-image-keyboard-response,109,310916,learnblock1,1089,img/planet3_right.png,3,Community 3,NA,TRUE,j,j,NA,NA,NA,1,7,"13,4,2,1,5,11,15,10,8,9,7,3,14,12,6"
15333,commdev-image-keyboard-response,110,312168,learnblock1,821.7000000476837,img/planet10_right.png,10,Community 2,NA,TRUE,j,j,NA,NA,NA,1,7,"13,4,2,1,5,11,15,10,8,9,7,3,14,12,6"
15333,commdev-image-keyboard-response,111,313419,learnblock1,738.3000000715256,img/planet3_right.png,3,Community 3,NA,TRUE,j,j,NA,NA,NA,1,7,"13,4,2,1,5,11,15,10,8,9,7,3,14,12,6"
15333,commdev-image-keyboard-response,112,314670,learnblock1,503.10000002384186,img/planet10_left.png,10,Community 2,NA,TRUE,f,f,NA,NA,NA,1,7,"13,4,2,1,5,11,15,10,8,9,7,3,14,12,6"
15333,commdev-image-keyboard-response,113,315921,learnblock1,571.9000000953674,img/planet8_right.png,8,Community 2,NA,FALSE,f,j,NA,NA,NA,1,7,"13,4,2,1,5,11,15,10,8,9,7,3,14,12,6"
15333,commdev-image-keyboard-response,114,317173,learnblock1,696.7000000476837,img/planet10_left.png,10,Community 2,NA,TRUE,f,f,NA,NA,NA,1,7,"13,4,2,1,5,11,15,10,8,9,7,3,14,12,6"
15333,commdev-image-keyboard-response,115,318424,learnblock1,685.1000000238419,img/planet8_right.png,8,Community 2,NA,TRUE,j,j,NA,NA,NA,1,7,"13,4,2,1,5,11,15,10,8,9,7,3,14,12,6"
15333,commdev-image-keyboard-response,116,319675,learnblock1,802.1000000238419,img/planet15_right.png,15,Community 2,NA,TRUE,j,j,NA,NA,NA,1,7,"13,4,2,1,5,11,15,10,8,9,7,3,14,12,6"
15333,commdev-image-keyboard-response,117,320927,learnblock1,799.8999999761581,img/planet8_left.png,8,Community 2,NA,TRUE,f,f,NA,NA,NA,1,7,"13,4,2,1,5,11,15,10,8,9,7,3,14,12,6"
15333,commdev-image-keyboard-response,118,322178,learnblock1,579.2000000476837,img/planet10_left.png,10,Community 2,NA,FALSE,j,f,NA,NA,NA,1,7,"13,4,2,1,5,11,15,10,8,9,7,3,14,12,6"
15333,commdev-image-keyboard-response,119,323430,learnblock1,976.3000000715256,img/planet15_left.png,15,Community 2,NA,TRUE,f,f,NA,NA,NA,1,7,"13,4,2,1,5,11,15,10,8,9,7,3,14,12,6"
15333,commdev-image-keyboard-response,120,324682,learnblock1,724.2000000476837,img/planet8_right.png,8,Community 2,NA,TRUE,j,j,NA,NA,NA,1,7,"13,4,2,1,5,11,15,10,8,9,7,3,14,12,6"
15333,commdev-image-keyboard-response,121,325934,learnblock1,872.5,img/planet15_right.png,15,Community 2,NA,TRUE,j,j,NA,NA,NA,1,7,"13,4,2,1,5,11,15,10,8,9,7,3,14,12,6"
15333,commdev-image-keyboard-response,122,327185,learnblock1,660.2999999523163,img/planet9_left.png,9,Community 2,NA,TRUE,f,f,NA,NA,NA,1,7,"13,4,2,1,5,11,15,10,8,9,7,3,14,12,6"
15333,commdev-image-keyboard-response,123,328436,learnblock1,809.1000000238419,img/planet11_left.png,11,Community 2,NA,TRUE,f,f,NA,NA,NA,1,7,"13,4,2,1,5,11,15,10,8,9,7,3,14,12,6"
15333,commdev-image-keyboard-response,124,329688,learnblock1,742.1000000238419,img/planet8_left.png,8,Community 2,NA,TRUE,f,f,NA,NA,NA,1,7,"13,4,2,1,5,11,15,10,8,9,7,3,14,12,6"
15333,commdev-image-keyboard-response,125,330940,learnblock1,634.3999999761581,img/planet15_right.png,15,Community 2,NA,TRUE,j,j,NA,NA,NA,1,7,"13,4,2,1,5,11,15,10,8,9,7,3,14,12,6"
15333,commdev-image-keyboard-response,126,332194,learnblock1,590.1000000238419,img/planet11_left.png,11,Community 2,NA,TRUE,f,f,NA,NA,NA,1,7,"13,4,2,1,5,11,15,10,8,9,7,3,14,12,6"
15333,commdev-image-keyboard-response,127,333445,learnblock1,600.1000000238419,img/planet15_right.png,15,Community 2,NA,TRUE,j,j,NA,NA,NA,1,7,"13,4,2,1,5,11,15,10,8,9,7,3,14,12,6"
15333,commdev-image-keyboard-response,128,334697,learnblock1,940.8999999761581,img/planet11_right.png,11,Community 2,NA,FALSE,f,j,NA,NA,NA,1,7,"13,4,2,1,5,11,15,10,8,9,7,3,14,12,6"
15333,commdev-image-keyboard-response,129,335950,learnblock1,728.5,img/planet9_left.png,9,Community 2,NA,TRUE,f,f,NA,NA,NA,1,7,"13,4,2,1,5,11,15,10,8,9,7,3,14,12,6"
15333,commdev-image-keyboard-response,130,337201,learnblock1,748.5,img/planet10_right.png,10,Community 2,NA,TRUE,j,j,NA,NA,NA,1,7,"13,4,2,1,5,11,15,10,8,9,7,3,14,12,6"
15333,commdev-image-keyboard-response,131,338453,learnblock1,680.8999999761581,img/planet8_right.png,8,Community 2,NA,TRUE,j,j,NA,NA,NA,1,7,"13,4,2,1,5,11,15,10,8,9,7,3,14,12,6"
15333,commdev-image-keyboard-response,132,339705,learnblock1,660.6999999284744,img/planet15_left.png,15,Community 2,NA,TRUE,f,f,NA,NA,NA,1,7,"13,4,2,1,5,11,15,10,8,9,7,3,14,12,6"
15333,commdev-image-keyboard-response,133,340956,learnblock1,664.7000000476837,img/planet11_left.png,11,Community 2,NA,TRUE,f,f,NA,NA,NA,1,7,"13,4,2,1,5,11,15,10,8,9,7,3,14,12,6"
15333,commdev-image-keyboard-response,134,342208,learnblock1,1109.7999999523163,img/planet1_right.png,1,Community 1,NA,FALSE,f,j,NA,NA,NA,1,7,"13,4,2,1,5,11,15,10,8,9,7,3,14,12,6"
15333,commdev-image-keyboard-response,135,343459,learnblock1,930.2999999523163,img/planet4_right.png,4,Community 1,NA,TRUE,j,j,NA,NA,NA,1,7,"13,4,2,1,5,11,15,10,8,9,7,3,14,12,6"
15333,commdev-image-keyboard-response,136,344710,learnblock1,695.0999999046326,img/planet1_right.png,1,Community 1,NA,FALSE,f,j,NA,NA,NA,1,7,"13,4,2,1,5,11,15,10,8,9,7,3,14,12,6"
15333,commdev-image-keyboard-response,137,345962,learnblock1,755.5999999046326,img/planet11_left.png,11,Community 2,NA,TRUE,f,f,NA,NA,NA,1,7,"13,4,2,1,5,11,15,10,8,9,7,3,14,12,6"
15333,commdev-image-keyboard-response,138,347213,learnblock1,720.2999999523163,img/planet9_left.png,9,Community 2,NA,TRUE,f,f,NA,NA,NA,1,7,"13,4,2,1,5,11,15,10,8,9,7,3,14,12,6"
15333,commdev-image-keyboard-response,139,348465,learnblock1,829,img/planet8_left.png,8,Community 2,NA,TRUE,f,f,NA,NA,NA,1,7,"13,4,2,1,5,11,15,10,8,9,7,3,14,12,6"
15333,commdev-image-keyboard-response,140,349716,learnblock1,1145.0999999046326,img/planet9_left.png,9,Community 2,NA,FALSE,j,f,NA,NA,NA,1,7,"13,4,2,1,5,11,15,10,8,9,7,3,14,12,6"
15333,commdev-image-keyboard-response,141,350969,learnblock1,740.6999999284744,img/planet8_left.png,8,Community 2,NA,TRUE,f,f,NA,NA,NA,1,7,"13,4,2,1,5,11,15,10,8,9,7,3,14,12,6"
15333,commdev-image-keyboard-response,142,352227,learnblock1,864.7999999523163,img/planet9_left.png,9,Community 2,NA,TRUE,f,f,NA,NA,NA,1,7,"13,4,2,1,5,11,15,10,8,9,7,3,14,12,6"
15333,commdev-image-keyboard-response,143,353478,learnblock1,758.8999999761581,img/planet8_left.png,8,Community 2,NA,TRUE,f,f,NA,NA,NA,1,7,"13,4,2,1,5,11,15,10,8,9,7,3,14,12,6"
15333,commdev-image-keyboard-response,144,354730,learnblock1,747.8000000715256,img/planet9_left.png,9,Community 2,NA,TRUE,f,f,NA,NA,NA,1,7,"13,4,2,1,5,11,15,10,8,9,7,3,14,12,6"
15333,commdev-image-keyboard-response,145,355981,learnblock1,736.2000000476837,img/planet10_left.png,10,Community 2,NA,TRUE,f,f,NA,NA,NA,1,7,"13,4,2,1,5,11,15,10,8,9,7,3,14,12,6"
15333,commdev-image-keyboard-response,146,357232,learnblock1,700.8000000715256,img/planet3_right.png,3,Community 3,NA,TRUE,j,j,NA,NA,NA,1,7,"13,4,2,1,5,11,15,10,8,9,7,3,14,12,6"
15333,commdev-image-keyboard-response,147,358483,learnblock1,834.1000000238419,img/planet6_left.png,6,Community 3,NA,TRUE,f,f,NA,NA,NA,1,7,"13,4,2,1,5,11,15,10,8,9,7,3,14,12,6"
15333,commdev-image-keyboard-response,148,359734,learnblock1,902.3000000715256,img/planet12_right.png,12,Community 3,NA,FALSE,f,j,NA,NA,NA,1,7,"13,4,2,1,5,11,15,10,8,9,7,3,14,12,6"
15333,commdev-image-keyboard-response,149,360985,learnblock1,795.1000000238419,img/planet3_right.png,3,Community 3,NA,TRUE,j,j,NA,NA,NA,1,7,"13,4,2,1,5,11,15,10,8,9,7,3,14,12,6"
15333,commdev-image-keyboard-response,150,362237,learnblock1,1048.2000000476837,img/planet6_right.png,6,Community 3,NA,TRUE,j,j,NA,NA,NA,1,7,"13,4,2,1,5,11,15,10,8,9,7,3,14,12,6"
15333,commdev-image-keyboard-response,151,363491,learnblock1,1020.8000000715256,img/planet14_right.png,14,Community 3,NA,TRUE,j,j,NA,NA,NA,1,7,"13,4,2,1,5,11,15,10,8,9,7,3,14,12,6"
15333,commdev-image-keyboard-response,152,364742,learnblock1,1110.8999999761581,img/planet6_right.png,6,Community 3,NA,TRUE,j,j,NA,NA,NA,1,7,"13,4,2,1,5,11,15,10,8,9,7,3,14,12,6"
15333,commdev-image-keyboard-response,153,365993,learnblock1,851.1000000238419,img/planet12_right.png,12,Community 3,NA,TRUE,j,j,NA,NA,NA,1,7,"13,4,2,1,5,11,15,10,8,9,7,3,14,12,6"
15333,commdev-image-keyboard-response,154,367245,learnblock1,1040.1000000238419,img/planet14_right.png,14,Community 3,NA,FALSE,f,j,NA,NA,NA,1,7,"13,4,2,1,5,11,15,10,8,9,7,3,14,12,6"
15333,commdev-image-keyboard-response,155,368497,learnblock1,1188.8999999761581,img/planet7_right.png,7,Community 3,NA,TRUE,j,j,NA,NA,NA,1,7,"13,4,2,1,5,11,15,10,8,9,7,3,14,12,6"
15333,commdev-image-keyboard-response,156,369748,learnblock1,936.8999999761581,img/planet14_left.png,14,Community 3,NA,TRUE,f,f,NA,NA,NA,1,7,"13,4,2,1,5,11,15,10,8,9,7,3,14,12,6"
15333,commdev-image-keyboard-response,157,371000,learnblock1,869.1000000238419,img/planet3_left.png,3,Community 3,NA,TRUE,f,f,NA,NA,NA,1,7,"13,4,2,1,5,11,15,10,8,9,7,3,14,12,6"
15333,commdev-image-keyboard-response,158,372251,learnblock1,945.6000000238419,img/planet12_left.png,12,Community 3,NA,TRUE,f,f,NA,NA,NA,1,7,"13,4,2,1,5,11,15,10,8,9,7,3,14,12,6"
15333,commdev-image-keyboard-response,159,373503,learnblock1,710.2000000476837,img/planet3_right.png,3,Community 3,NA,TRUE,j,j,NA,NA,NA,1,7,"13,4,2,1,5,11,15,10,8,9,7,3,14,12,6"
15333,commdev-image-keyboard-response,160,374755,learnblock1,778.6000000238419,img/planet14_left.png,14,Community 3,NA,FALSE,j,f,NA,NA,NA,1,7,"13,4,2,1,5,11,15,10,8,9,7,3,14,12,6"
15333,commdev-image-keyboard-response,161,376006,learnblock1,734.8999999761581,img/planet12_right.png,12,Community 3,NA,TRUE,j,j,NA,NA,NA,1,7,"13,4,2,1,5,11,15,10,8,9,7,3,14,12,6"
15333,commdev-image-keyboard-response,162,377258,learnblock1,523.1000000238419,img/planet3_left.png,3,Community 3,NA,TRUE,f,f,NA,NA,NA,1,7,"13,4,2,1,5,11,15,10,8,9,7,3,14,12,6"
15333,commdev-image-keyboard-response,163,378509,learnblock1,823.3999999761581,img/planet10_right.png,10,Community 2,NA,TRUE,j,j,NA,NA,NA,1,7,"13,4,2,1,5,11,15,10,8,9,7,3,14,12,6"
15333,commdev-image-keyboard-response,164,379760,learnblock1,828.3000000715256,img/planet9_left.png,9,Community 2,NA,FALSE,j,f,NA,NA,NA,1,7,"13,4,2,1,5,11,15,10,8,9,7,3,14,12,6"
15333,commdev-image-keyboard-response,165,381011,learnblock1,729.1000000238419,img/planet10_left.png,10,Community 2,NA,TRUE,f,f,NA,NA,NA,1,7,"13,4,2,1,5,11,15,10,8,9,7,3,14,12,6"
15333,commdev-image-keyboard-response,166,382263,learnblock1,790.2000000476837,img/planet15_right.png,15,Community 2,NA,TRUE,j,j,NA,NA,NA,1,7,"13,4,2,1,5,11,15,10,8,9,7,3,14,12,6"
15333,commdev-image-keyboard-response,167,383515,learnblock1,714.3999999761581,img/planet8_right.png,8,Community 2,NA,FALSE,f,j,NA,NA,NA,1,7,"13,4,2,1,5,11,15,10,8,9,7,3,14,12,6"
15333,commdev-image-keyboard-response,168,384766,learnblock1,702.7000000476837,img/planet11_left.png,11,Community 2,NA,TRUE,f,f,NA,NA,NA,1,7,"13,4,2,1,5,11,15,10,8,9,7,3,14,12,6"
15333,commdev-image-keyboard-response,169,386018,learnblock1,691.1000000238419,img/planet9_left.png,9,Community 2,NA,TRUE,f,f,NA,NA,NA,1,7,"13,4,2,1,5,11,15,10,8,9,7,3,14,12,6"
15333,commdev-image-keyboard-response,170,387269,learnblock1,783.6000000238419,img/planet15_left.png,15,Community 2,NA,TRUE,f,f,NA,NA,NA,1,7,"13,4,2,1,5,11,15,10,8,9,7,3,14,12,6"
15333,commdev-image-keyboard-response,171,388520,learnblock1,612.1000000238419,img/planet9_right.png,9,Community 2,NA,TRUE,j,j,NA,NA,NA,1,7,"13,4,2,1,5,11,15,10,8,9,7,3,14,12,6"
15333,commdev-image-keyboard-response,172,389773,learnblock1,624.8999999761581,img/planet8_left.png,8,Community 2,NA,TRUE,f,f,NA,NA,NA,1,7,"13,4,2,1,5,11,15,10,8,9,7,3,14,12,6"
15333,commdev-image-keyboard-response,173,391024,learnblock1,924.8000000715256,img/planet11_right.png,11,Community 2,NA,FALSE,f,j,NA,NA,NA,1,7,"13,4,2,1,5,11,15,10,8,9,7,3,14,12,6"
15333,commdev-image-keyboard-response,174,392276,learnblock1,913,img/planet8_left.png,8,Community 2,NA,TRUE,f,f,NA,NA,NA,1,7,"13,4,2,1,5,11,15,10,8,9,7,3,14,12,6"
15333,commdev-image-keyboard-response,175,393527,learnblock1,605.2999999523163,img/planet15_right.png,15,Community 2,NA,TRUE,j,j,NA,NA,NA,1,7,"13,4,2,1,5,11,15,10,8,9,7,3,14,12,6"
15333,commdev-image-keyboard-response,176,394778,learnblock1,658.2999999523163,img/planet8_right.png,8,Community 2,NA,TRUE,j,j,NA,NA,NA,1,7,"13,4,2,1,5,11,15,10,8,9,7,3,14,12,6"
15333,commdev-image-keyboard-response,177,396030,learnblock1,null,img/planet11_left.png,11,Community 2,NA,FALSE,null,f,NA,NA,NA,1,7,"13,4,2,1,5,11,15,10,8,9,7,3,14,12,6"
15333,commdev-image-keyboard-response,178,397281,learnblock1,195.19999992847443,img/planet9_right.png,9,Community 2,NA,FALSE,f,j,NA,NA,NA,1,7,"13,4,2,1,5,11,15,10,8,9,7,3,14,12,6"
15333,commdev-image-keyboard-response,179,398536,learnblock1,928.1999999284744,img/planet11_left.png,11,Community 2,NA,TRUE,f,f,NA,NA,NA,1,7,"13,4,2,1,5,11,15,10,8,9,7,3,14,12,6"
15333,commdev-image-keyboard-response,180,399788,learnblock1,897.0999999046326,img/planet15_left.png,15,Community 2,NA,TRUE,f,f,NA,NA,NA,1,7,"13,4,2,1,5,11,15,10,8,9,7,3,14,12,6"
15333,commdev-image-keyboard-response,181,401040,learnblock1,773.1999999284744,img/planet11_left.png,11,Community 2,NA,TRUE,f,f,NA,NA,NA,1,7,"13,4,2,1,5,11,15,10,8,9,7,3,14,12,6"
15333,commdev-image-keyboard-response,182,402291,learnblock1,657.3999999761581,img/planet15_right.png,15,Community 2,NA,TRUE,j,j,NA,NA,NA,1,7,"13,4,2,1,5,11,15,10,8,9,7,3,14,12,6"
15333,commdev-image-keyboard-response,183,403544,learnblock1,502.09999990463257,img/planet11_left.png,11,Community 2,NA,TRUE,f,f,NA,NA,NA,1,7,"13,4,2,1,5,11,15,10,8,9,7,3,14,12,6"
15333,commdev-image-keyboard-response,184,404795,learnblock1,513.5,img/planet15_right.png,15,Community 2,NA,TRUE,j,j,NA,NA,NA,1,7,"13,4,2,1,5,11,15,10,8,9,7,3,14,12,6"
15333,commdev-image-keyboard-response,185,406047,learnblock1,406,img/planet8_left.png,8,Community 2,NA,TRUE,f,f,NA,NA,NA,1,7,"13,4,2,1,5,11,15,10,8,9,7,3,14,12,6"
15333,commdev-image-keyboard-response,186,407298,learnblock1,651.2999999523163,img/planet11_left.png,11,Community 2,NA,TRUE,f,f,NA,NA,NA,1,7,"13,4,2,1,5,11,15,10,8,9,7,3,14,12,6"
15333,commdev-image-keyboard-response,187,408549,learnblock1,575,img/planet9_left.png,9,Community 2,NA,TRUE,f,f,NA,NA,NA,1,7,"13,4,2,1,5,11,15,10,8,9,7,3,14,12,6"
15333,commdev-image-keyboard-response,188,409801,learnblock1,652.0999999046326,img/planet15_right.png,15,Community 2,NA,TRUE,j,j,NA,NA,NA,1,7,"13,4,2,1,5,11,15,10,8,9,7,3,14,12,6"
15333,commdev-image-keyboard-response,189,411053,learnblock1,520.4000000953674,img/planet10_left.png,10,Community 2,NA,TRUE,f,f,NA,NA,NA,1,7,"13,4,2,1,5,11,15,10,8,9,7,3,14,12,6"
15333,commdev-image-keyboard-response,190,412304,learnblock1,612.3000000715256,img/planet8_left.png,8,Community 2,NA,TRUE,f,f,NA,NA,NA,1,7,"13,4,2,1,5,11,15,10,8,9,7,3,14,12,6"
15333,commdev-image-keyboard-response,191,413555,learnblock1,545.2999999523163,img/planet10_left.png,10,Community 2,NA,TRUE,f,f,NA,NA,NA,1,7,"13,4,2,1,5,11,15,10,8,9,7,3,14,12,6"
15333,commdev-image-keyboard-response,192,414807,learnblock1,653.7000000476837,img/planet3_right.png,3,Community 3,NA,TRUE,j,j,NA,NA,NA,1,7,"13,4,2,1,5,11,15,10,8,9,7,3,14,12,6"
15333,commdev-image-keyboard-response,193,416059,learnblock1,778.1000000238419,img/planet14_right.png,14,Community 3,NA,FALSE,f,j,NA,NA,NA,1,7,"13,4,2,1,5,11,15,10,8,9,7,3,14,12,6"
15333,commdev-image-keyboard-response,194,417310,learnblock1,958.1000000238419,img/planet3_right.png,3,Community 3,NA,TRUE,j,j,NA,NA,NA,1,7,"13,4,2,1,5,11,15,10,8,9,7,3,14,12,6"
15333,commdev-image-keyboard-response,195,418562,learnblock1,739.2000000476837,img/planet14_right.png,14,Community 3,NA,TRUE,j,j,NA,NA,NA,1,7,"13,4,2,1,5,11,15,10,8,9,7,3,14,12,6"
15333,commdev-image-keyboard-response,196,419813,learnblock1,703.4000000953674,img/planet7_right.png,7,Community 3,NA,TRUE,j,j,NA,NA,NA,1,7,"13,4,2,1,5,11,15,10,8,9,7,3,14,12,6"
15333,commdev-image-keyboard-response,197,421065,learnblock1,508,img/planet14_left.png,14,Community 3,NA,TRUE,f,f,NA,NA,NA,1,7,"13,4,2,1,5,11,15,10,8,9,7,3,14,12,6"
15333,commdev-image-keyboard-response,198,422316,learnblock1,496.39999997615814,img/planet3_right.png,3,Community 3,NA,TRUE,j,j,NA,NA,NA,1,7,"13,4,2,1,5,11,15,10,8,9,7,3,14,12,6"
15333,commdev-image-keyboard-response,199,423567,learnblock1,637.6000000238419,img/planet12_left.png,12,Community 3,NA,TRUE,f,f,NA,NA,NA,1,7,"13,4,2,1,5,11,15,10,8,9,7,3,14,12,6"
15333,commdev-image-keyboard-response,200,424819,learnblock1,457.7999999523163,img/planet14_right.png,14,Community 3,NA,TRUE,j,j,NA,NA,NA,1,7,"13,4,2,1,5,11,15,10,8,9,7,3,14,12,6"
15333,commdev-image-keyboard-response,201,426071,learnblock1,630.1000000238419,img/planet6_left.png,6,Community 3,NA,TRUE,f,f,NA,NA,NA,1,7,"13,4,2,1,5,11,15,10,8,9,7,3,14,12,6"
15333,commdev-image-keyboard-response,202,427323,learnblock1,466,img/planet3_right.png,3,Community 3,NA,TRUE,j,j,NA,NA,NA,1,7,"13,4,2,1,5,11,15,10,8,9,7,3,14,12,6"
15333,commdev-image-keyboard-response,203,428574,learnblock1,630.3000000715256,img/planet14_right.png,14,Community 3,NA,FALSE,f,j,NA,NA,NA,1,7,"13,4,2,1,5,11,15,10,8,9,7,3,14,12,6"
15333,commdev-image-keyboard-response,204,429825,learnblock1,691.1000000238419,img/planet7_left.png,7,Community 3,NA,TRUE,f,f,NA,NA,NA,1,7,"13,4,2,1,5,11,15,10,8,9,7,3,14,12,6"
15333,commdev-image-keyboard-response,205,431077,learnblock1,576,img/planet14_right.png,14,Community 3,NA,TRUE,j,j,NA,NA,NA,1,7,"13,4,2,1,5,11,15,10,8,9,7,3,14,12,6"
15333,commdev-image-keyboard-response,206,432329,learnblock1,787.6000000238419,img/planet6_left.png,6,Community 3,NA,TRUE,f,f,NA,NA,NA,1,7,"13,4,2,1,5,11,15,10,8,9,7,3,14,12,6"
15333,commdev-image-keyboard-response,207,433580,learnblock1,928.4000000953674,img/planet14_left.png,14,Community 3,NA,TRUE,f,f,NA,NA,NA,1,7,"13,4,2,1,5,11,15,10,8,9,7,3,14,12,6"
15333,commdev-image-keyboard-response,208,434832,learnblock1,669,img/planet6_right.png,6,Community 3,NA,TRUE,j,j,NA,NA,NA,1,7,"13,4,2,1,5,11,15,10,8,9,7,3,14,12,6"
15333,commdev-image-keyboard-response,209,436084,learnblock1,776.3999999761581,img/planet3_left.png,3,Community 3,NA,FALSE,j,f,NA,NA,NA,1,7,"13,4,2,1,5,11,15,10,8,9,7,3,14,12,6"
15333,commdev-image-keyboard-response,210,437335,learnblock1,565.2000000476837,img/planet10_right.png,10,Community 2,NA,FALSE,f,j,NA,NA,NA,1,7,"13,4,2,1,5,11,15,10,8,9,7,3,14,12,6"
15333,commdev-image-keyboard-response,211,438586,learnblock1,906.2000000476837,img/planet15_left.png,15,Community 2,NA,TRUE,f,f,NA,NA,NA,1,7,"13,4,2,1,5,11,15,10,8,9,7,3,14,12,6"
15333,commdev-image-keyboard-response,212,439837,learnblock1,790.7999999523163,img/planet9_left.png,9,Community 2,NA,TRUE,f,f,NA,NA,NA,1,7,"13,4,2,1,5,11,15,10,8,9,7,3,14,12,6"
15333,commdev-image-keyboard-response,213,441089,learnblock1,619.5999999046326,img/planet10_right.png,10,Community 2,NA,TRUE,j,j,NA,NA,NA,1,7,"13,4,2,1,5,11,15,10,8,9,7,3,14,12,6"
15333,commdev-image-keyboard-response,214,442341,learnblock1,480.2000000476837,img/planet15_left.png,15,Community 2,NA,TRUE,f,f,NA,NA,NA,1,7,"13,4,2,1,5,11,15,10,8,9,7,3,14,12,6"
15333,commdev-image-keyboard-response,215,443592,learnblock1,508,img/planet9_right.png,9,Community 2,NA,TRUE,j,j,NA,NA,NA,1,7,"13,4,2,1,5,11,15,10,8,9,7,3,14,12,6"
15333,commdev-image-keyboard-response,216,444844,learnblock1,464.8000000715256,img/planet8_left.png,8,Community 2,NA,TRUE,f,f,NA,NA,NA,1,7,"13,4,2,1,5,11,15,10,8,9,7,3,14,12,6"
15333,commdev-image-keyboard-response,217,446095,learnblock1,413.60000002384186,img/planet15_right.png,15,Community 2,NA,TRUE,j,j,NA,NA,NA,1,7,"13,4,2,1,5,11,15,10,8,9,7,3,14,12,6"
15333,commdev-image-keyboard-response,218,447347,learnblock1,385.39999997615814,img/planet10_right.png,10,Community 2,NA,FALSE,f,j,NA,NA,NA,1,7,"13,4,2,1,5,11,15,10,8,9,7,3,14,12,6"
15333,commdev-image-keyboard-response,219,448600,learnblock1,325.59999990463257,img/planet3_left.png,3,Community 3,NA,FALSE,j,f,NA,NA,NA,1,7,"13,4,2,1,5,11,15,10,8,9,7,3,14,12,6"
15333,commdev-image-keyboard-response,220,449851,learnblock1,793.1000000238419,img/planet12_right.png,12,Community 3,NA,TRUE,j,j,NA,NA,NA,1,7,"13,4,2,1,5,11,15,10,8,9,7,3,14,12,6"
15333,commdev-image-keyboard-response,221,451103,learnblock1,702.1000000238419,img/planet3_right.png,3,Community 3,NA,TRUE,j,j,NA,NA,NA,1,7,"13,4,2,1,5,11,15,10,8,9,7,3,14,12,6"
15333,commdev-image-keyboard-response,222,452354,learnblock1,802.1999999284744,img/planet6_right.png,6,Community 3,NA,TRUE,j,j,NA,NA,NA,1,7,"13,4,2,1,5,11,15,10,8,9,7,3,14,12,6"
15333,commdev-image-keyboard-response,223,453605,learnblock1,623.0999999046326,img/planet14_right.png,14,Community 3,NA,TRUE,j,j,NA,NA,NA,1,7,"13,4,2,1,5,11,15,10,8,9,7,3,14,12,6"
15333,commdev-image-keyboard-response,224,454856,learnblock1,972.2000000476837,img/planet7_right.png,7,Community 3,NA,TRUE,j,j,NA,NA,NA,1,7,"13,4,2,1,5,11,15,10,8,9,7,3,14,12,6"
15333,commdev-image-keyboard-response,225,456107,learnblock1,777,img/planet12_left.png,12,Community 3,NA,TRUE,f,f,NA,NA,NA,1,7,"13,4,2,1,5,11,15,10,8,9,7,3,14,12,6"
15333,commdev-image-keyboard-response,226,457359,learnblock1,693.2999999523163,img/planet14_left.png,14,Community 3,NA,TRUE,f,f,NA,NA,NA,1,7,"13,4,2,1,5,11,15,10,8,9,7,3,14,12,6"
15333,commdev-image-keyboard-response,227,458610,learnblock1,674.2999999523163,img/planet3_right.png,3,Community 3,NA,TRUE,j,j,NA,NA,NA,1,7,"13,4,2,1,5,11,15,10,8,9,7,3,14,12,6"
15333,commdev-image-keyboard-response,228,459862,learnblock1,719,img/planet10_right.png,10,Community 2,NA,TRUE,j,j,NA,NA,NA,1,7,"13,4,2,1,5,11,15,10,8,9,7,3,14,12,6"
15333,commdev-image-keyboard-response,229,461114,learnblock1,594.1000000238419,img/planet8_left.png,8,Community 2,NA,TRUE,f,f,NA,NA,NA,1,7,"13,4,2,1,5,11,15,10,8,9,7,3,14,12,6"
15333,commdev-image-keyboard-response,230,462366,learnblock1,583.1000000238419,img/planet15_right.png,15,Community 2,NA,TRUE,j,j,NA,NA,NA,1,7,"13,4,2,1,5,11,15,10,8,9,7,3,14,12,6"
15333,commdev-image-keyboard-response,231,463617,learnblock1,514.8999999761581,img/planet11_left.png,11,Community 2,NA,TRUE,f,f,NA,NA,NA,1,7,"13,4,2,1,5,11,15,10,8,9,7,3,14,12,6"
15333,commdev-image-keyboard-response,232,464870,learnblock1,559.5,img/planet1_right.png,1,Community 1,NA,TRUE,j,j,NA,NA,NA,1,7,"13,4,2,1,5,11,15,10,8,9,7,3,14,12,6"
15333,commdev-image-keyboard-response,233,466121,learnblock1,587,img/planet11_right.png,11,Community 2,NA,TRUE,j,j,NA,NA,NA,1,7,"13,4,2,1,5,11,15,10,8,9,7,3,14,12,6"
15333,commdev-image-keyboard-response,234,467373,learnblock1,631.1000000238419,img/planet8_left.png,8,Community 2,NA,TRUE,f,f,NA,NA,NA,1,7,"13,4,2,1,5,11,15,10,8,9,7,3,14,12,6"
15333,commdev-image-keyboard-response,235,468624,learnblock1,675.8000000715256,img/planet15_right.png,15,Community 2,NA,TRUE,j,j,NA,NA,NA,1,7,"13,4,2,1,5,11,15,10,8,9,7,3,14,12,6"
15333,commdev-image-keyboard-response,236,469875,learnblock1,880.5,img/planet10_right.png,10,Community 2,NA,TRUE,j,j,NA,NA,NA,1,7,"13,4,2,1,5,11,15,10,8,9,7,3,14,12,6"
15333,commdev-image-keyboard-response,237,471127,learnblock1,917.2000000476837,img/planet3_right.png,3,Community 3,NA,TRUE,j,j,NA,NA,NA,1,7,"13,4,2,1,5,11,15,10,8,9,7,3,14,12,6"
15333,commdev-image-keyboard-response,238,472378,learnblock1,1121.7000000476837,img/planet14_right.png,14,Community 3,NA,FALSE,f,j,NA,NA,NA,1,7,"13,4,2,1,5,11,15,10,8,9,7,3,14,12,6"
15333,commdev-image-keyboard-response,239,473629,learnblock1,1022.3000000715256,img/planet12_left.png,12,Community 3,NA,TRUE,f,f,NA,NA,NA,1,7,"13,4,2,1,5,11,15,10,8,9,7,3,14,12,6"
15333,commdev-image-keyboard-response,240,474881,learnblock1,923.2000000476837,img/planet6_right.png,6,Community 3,NA,TRUE,j,j,NA,NA,NA,1,7,"13,4,2,1,5,11,15,10,8,9,7,3,14,12,6"
15333,commdev-image-keyboard-response,241,476133,learnblock1,951.8000000715256,img/planet12_right.png,12,Community 3,NA,TRUE,j,j,NA,NA,NA,1,7,"13,4,2,1,5,11,15,10,8,9,7,3,14,12,6"
15333,commdev-image-keyboard-response,242,477384,learnblock1,1203.6000000238419,img/planet7_right.png,7,Community 3,NA,TRUE,j,j,NA,NA,NA,1,7,"13,4,2,1,5,11,15,10,8,9,7,3,14,12,6"
15333,commdev-image-keyboard-response,243,478637,learnblock1,952.2000000476837,img/planet5_left.png,5,Community 1,NA,TRUE,f,f,NA,NA,NA,1,7,"13,4,2,1,5,11,15,10,8,9,7,3,14,12,6"
15333,commdev-image-keyboard-response,244,479888,learnblock1,1099.5,img/planet4_right.png,4,Community 1,NA,TRUE,j,j,NA,NA,NA,1,7,"13,4,2,1,5,11,15,10,8,9,7,3,14,12,6"
15333,commdev-image-keyboard-response,245,481139,learnblock1,1008.3000000715256,img/planet5_left.png,5,Community 1,NA,TRUE,f,f,NA,NA,NA,1,7,"13,4,2,1,5,11,15,10,8,9,7,3,14,12,6"
15333,commdev-image-keyboard-response,246,482391,learnblock1,933.2000000476837,img/planet7_left.png,7,Community 3,NA,FALSE,j,f,NA,NA,NA,1,7,"13,4,2,1,5,11,15,10,8,9,7,3,14,12,6"
15333,commdev-image-keyboard-response,247,483643,learnblock1,1217.6000000238419,img/planet6_left.png,6,Community 3,NA,TRUE,f,f,NA,NA,NA,1,7,"13,4,2,1,5,11,15,10,8,9,7,3,14,12,6"
15333,commdev-image-keyboard-response,248,484908,learnblock1,821.5,img/planet12_right.png,12,Community 3,NA,TRUE,j,j,NA,NA,NA,1,7,"13,4,2,1,5,11,15,10,8,9,7,3,14,12,6"
15333,commdev-image-keyboard-response,249,486159,learnblock1,1092.7000000476837,img/planet6_right.png,6,Community 3,NA,FALSE,f,j,NA,NA,NA,1,7,"13,4,2,1,5,11,15,10,8,9,7,3,14,12,6"
15333,commdev-image-keyboard-response,250,487410,learnblock1,905.2000000476837,img/planet3_left.png,3,Community 3,NA,TRUE,f,f,NA,NA,NA,1,7,"13,4,2,1,5,11,15,10,8,9,7,3,14,12,6"
15333,commdev-image-keyboard-response,251,488661,learnblock1,694.2000000476837,img/planet12_left.png,12,Community 3,NA,FALSE,j,f,NA,NA,NA,1,7,"13,4,2,1,5,11,15,10,8,9,7,3,14,12,6"
15333,commdev-image-keyboard-response,252,489912,learnblock1,827.1000000238419,img/planet6_right.png,6,Community 3,NA,TRUE,j,j,NA,NA,NA,1,7,"13,4,2,1,5,11,15,10,8,9,7,3,14,12,6"
15333,commdev-image-keyboard-response,253,491164,learnblock1,968,img/planet12_left.png,12,Community 3,NA,TRUE,f,f,NA,NA,NA,1,7,"13,4,2,1,5,11,15,10,8,9,7,3,14,12,6"
15333,commdev-image-keyboard-response,254,492416,learnblock1,740.3000000715256,img/planet14_right.png,14,Community 3,NA,TRUE,j,j,NA,NA,NA,1,7,"13,4,2,1,5,11,15,10,8,9,7,3,14,12,6"
15333,commdev-image-keyboard-response,255,493668,learnblock1,704.3999999761581,img/planet3_right.png,3,Community 3,NA,TRUE,j,j,NA,NA,NA,1,7,"13,4,2,1,5,11,15,10,8,9,7,3,14,12,6"
15333,commdev-image-keyboard-response,256,494919,learnblock1,820.6999999284744,img/planet12_right.png,12,Community 3,NA,TRUE,j,j,NA,NA,NA,1,7,"13,4,2,1,5,11,15,10,8,9,7,3,14,12,6"
15333,commdev-image-keyboard-response,257,496170,learnblock1,489.2000000476837,img/planet7_left.png,7,Community 3,NA,TRUE,f,f,NA,NA,NA,1,7,"13,4,2,1,5,11,15,10,8,9,7,3,14,12,6"
15333,commdev-image-keyboard-response,258,497423,learnblock1,542.2000000476837,img/planet12_left.png,12,Community 3,NA,TRUE,f,f,NA,NA,NA,1,7,"13,4,2,1,5,11,15,10,8,9,7,3,14,12,6"
15333,commdev-image-keyboard-response,259,498675,learnblock1,585.5,img/planet14_right.png,14,Community 3,NA,TRUE,j,j,NA,NA,NA,1,7,"13,4,2,1,5,11,15,10,8,9,7,3,14,12,6"
15333,commdev-image-keyboard-response,260,499926,learnblock1,461.10000002384186,img/planet6_left.png,6,Community 3,NA,TRUE,f,f,NA,NA,NA,1,7,"13,4,2,1,5,11,15,10,8,9,7,3,14,12,6"
15333,commdev-image-keyboard-response,261,501178,learnblock1,585.8999999761581,img/planet12_right.png,12,Community 3,NA,FALSE,f,j,NA,NA,NA,1,7,"13,4,2,1,5,11,15,10,8,9,7,3,14,12,6"
15333,commdev-image-keyboard-response,262,502430,learnblock1,1125.8999999761581,img/planet6_right.png,6,Community 3,NA,FALSE,f,j,NA,NA,NA,1,7,"13,4,2,1,5,11,15,10,8,9,7,3,14,12,6"
15333,commdev-image-keyboard-response,263,503683,learnblock1,186.09999990463257,img/planet14_left.png,14,Community 3,NA,FALSE,j,f,NA,NA,NA,1,7,"13,4,2,1,5,11,15,10,8,9,7,3,14,12,6"
15333,commdev-image-keyboard-response,264,504934,learnblock1,1197.3999999761581,img/planet7_left.png,7,Community 3,NA,FALSE,j,f,NA,NA,NA,1,7,"13,4,2,1,5,11,15,10,8,9,7,3,14,12,6"
15333,commdev-image-keyboard-response,265,506186,learnblock1,754.0999999046326,img/planet5_left.png,5,Community 1,NA,TRUE,f,f,NA,NA,NA,1,7,"13,4,2,1,5,11,15,10,8,9,7,3,14,12,6"
15333,commdev-image-keyboard-response,266,507438,learnblock1,798.1000000238419,img/planet2_right.png,2,Community 1,NA,TRUE,j,j,NA,NA,NA,1,7,"13,4,2,1,5,11,15,10,8,9,7,3,14,12,6"
15333,commdev-image-keyboard-response,267,508690,learnblock1,978.6999999284744,img/planet13_left.png,13,Community 1,NA,TRUE,f,f,NA,NA,NA,1,7,"13,4,2,1,5,11,15,10,8,9,7,3,14,12,6"
15333,commdev-image-keyboard-response,268,509942,learnblock1,686.0999999046326,img/planet5_left.png,5,Community 1,NA,TRUE,f,f,NA,NA,NA,1,7,"13,4,2,1,5,11,15,10,8,9,7,3,14,12,6"
15333,commdev-image-keyboard-response,269,511193,learnblock1,754.5,img/planet4_left.png,4,Community 1,NA,TRUE,f,f,NA,NA,NA,1,7,"13,4,2,1,5,11,15,10,8,9,7,3,14,12,6"
15333,commdev-image-keyboard-response,270,512445,learnblock1,743,img/planet5_left.png,5,Community 1,NA,TRUE,f,f,NA,NA,NA,1,7,"13,4,2,1,5,11,15,10,8,9,7,3,14,12,6"
15333,commdev-image-keyboard-response,271,513697,learnblock1,675.0999999046326,img/planet4_right.png,4,Community 1,NA,TRUE,j,j,NA,NA,NA,1,7,"13,4,2,1,5,11,15,10,8,9,7,3,14,12,6"
15333,commdev-image-keyboard-response,272,514948,learnblock1,599.4000000953674,img/planet13_left.png,13,Community 1,NA,TRUE,f,f,NA,NA,NA,1,7,"13,4,2,1,5,11,15,10,8,9,7,3,14,12,6"
15333,commdev-image-keyboard-response,273,516199,learnblock1,1108.0999999046326,img/planet2_left.png,2,Community 1,NA,TRUE,f,f,NA,NA,NA,1,7,"13,4,2,1,5,11,15,10,8,9,7,3,14,12,6"
15333,commdev-image-keyboard-response,274,517450,learnblock1,889.2999999523163,img/planet1_left.png,1,Community 1,NA,TRUE,f,f,NA,NA,NA,1,7,"13,4,2,1,5,11,15,10,8,9,7,3,14,12,6"
15333,commdev-image-keyboard-response,275,518701,learnblock1,982,img/planet2_right.png,2,Community 1,NA,TRUE,j,j,NA,NA,NA,1,7,"13,4,2,1,5,11,15,10,8,9,7,3,14,12,6"
15333,commdev-image-keyboard-response,276,519953,learnblock1,827.1000000238419,img/planet4_right.png,4,Community 1,NA,TRUE,j,j,NA,NA,NA,1,7,"13,4,2,1,5,11,15,10,8,9,7,3,14,12,6"
15333,commdev-image-keyboard-response,277,521205,learnblock1,671,img/planet2_left.png,2,Community 1,NA,TRUE,f,f,NA,NA,NA,1,7,"13,4,2,1,5,11,15,10,8,9,7,3,14,12,6"
15333,commdev-image-keyboard-response,278,522456,learnblock1,587.4000000953674,img/planet4_left.png,4,Community 1,NA,TRUE,f,f,NA,NA,NA,1,7,"13,4,2,1,5,11,15,10,8,9,7,3,14,12,6"
15333,commdev-image-keyboard-response,279,523708,learnblock1,577.3999999761581,img/planet2_left.png,2,Community 1,NA,TRUE,f,f,NA,NA,NA,1,7,"13,4,2,1,5,11,15,10,8,9,7,3,14,12,6"
15333,commdev-image-keyboard-response,280,524959,learnblock1,492.5,img/planet13_left.png,13,Community 1,NA,TRUE,f,f,NA,NA,NA,1,7,"13,4,2,1,5,11,15,10,8,9,7,3,14,12,6"
15333,commdev-image-keyboard-response,281,526210,learnblock1,584.9000000953674,img/planet2_left.png,2,Community 1,NA,TRUE,f,f,NA,NA,NA,1,7,"13,4,2,1,5,11,15,10,8,9,7,3,14,12,6"
15333,commdev-image-keyboard-response,282,527463,learnblock1,525.8999999761581,img/planet4_left.png,4,Community 1,NA,TRUE,f,f,NA,NA,NA,1,7,"13,4,2,1,5,11,15,10,8,9,7,3,14,12,6"
15333,commdev-image-keyboard-response,283,528714,learnblock1,545.6000000238419,img/planet13_left.png,13,Community 1,NA,TRUE,f,f,NA,NA,NA,1,7,"13,4,2,1,5,11,15,10,8,9,7,3,14,12,6"
15333,commdev-image-keyboard-response,284,529965,learnblock1,590,img/planet1_right.png,1,Community 1,NA,TRUE,j,j,NA,NA,NA,1,7,"13,4,2,1,5,11,15,10,8,9,7,3,14,12,6"
15333,commdev-image-keyboard-response,285,531217,learnblock1,619.2000000476837,img/planet11_left.png,11,Community 2,NA,TRUE,f,f,NA,NA,NA,1,7,"13,4,2,1,5,11,15,10,8,9,7,3,14,12,6"
15333,commdev-image-keyboard-response,286,532480,learnblock1,495.2000000476837,img/planet1_right.png,1,Community 1,NA,TRUE,j,j,NA,NA,NA,1,7,"13,4,2,1,5,11,15,10,8,9,7,3,14,12,6"
15333,commdev-image-keyboard-response,287,533733,learnblock1,807.6000000238419,img/planet13_right.png,13,Community 1,NA,FALSE,f,j,NA,NA,NA,1,7,"13,4,2,1,5,11,15,10,8,9,7,3,14,12,6"
15333,commdev-image-keyboard-response,288,534984,learnblock1,771.6000000238419,img/planet5_right.png,5,Community 1,NA,TRUE,j,j,NA,NA,NA,1,7,"13,4,2,1,5,11,15,10,8,9,7,3,14,12,6"
15333,commdev-image-keyboard-response,289,536236,learnblock1,911.8999999761581,img/planet7_right.png,7,Community 3,NA,TRUE,j,j,NA,NA,NA,1,7,"13,4,2,1,5,11,15,10,8,9,7,3,14,12,6"
15333,commdev-image-keyboard-response,290,537487,learnblock1,804.1000000238419,img/planet6_right.png,6,Community 3,NA,TRUE,j,j,NA,NA,NA,1,7,"13,4,2,1,5,11,15,10,8,9,7,3,14,12,6"
15333,commdev-image-keyboard-response,291,538739,learnblock1,777.2999999523163,img/planet7_right.png,7,Community 3,NA,TRUE,j,j,NA,NA,NA,1,7,"13,4,2,1,5,11,15,10,8,9,7,3,14,12,6"
15333,commdev-image-keyboard-response,292,539990,learnblock1,797.5999999046326,img/planet14_right.png,14,Community 3,NA,TRUE,j,j,NA,NA,NA,1,7,"13,4,2,1,5,11,15,10,8,9,7,3,14,12,6"
15333,commdev-image-keyboard-response,293,541242,learnblock1,802.6000000238419,img/planet6_right.png,6,Community 3,NA,TRUE,j,j,NA,NA,NA,1,7,"13,4,2,1,5,11,15,10,8,9,7,3,14,12,6"
15333,commdev-image-keyboard-response,294,542494,learnblock1,854.1000000238419,img/planet3_right.png,3,Community 3,NA,TRUE,j,j,NA,NA,NA,1,7,"13,4,2,1,5,11,15,10,8,9,7,3,14,12,6"
15333,commdev-image-keyboard-response,295,543745,learnblock1,842,img/planet12_left.png,12,Community 3,NA,TRUE,f,f,NA,NA,NA,1,7,"13,4,2,1,5,11,15,10,8,9,7,3,14,12,6"
15333,commdev-image-keyboard-response,296,544997,learnblock1,782.8999999761581,img/planet3_left.png,3,Community 3,NA,TRUE,f,f,NA,NA,NA,1,7,"13,4,2,1,5,11,15,10,8,9,7,3,14,12,6"
15333,commdev-image-keyboard-response,297,546248,learnblock1,923.2000000476837,img/planet14_right.png,14,Community 3,NA,TRUE,j,j,NA,NA,NA,1,7,"13,4,2,1,5,11,15,10,8,9,7,3,14,12,6"
15333,commdev-image-keyboard-response,298,547500,learnblock1,834.1000000238419,img/planet3_left.png,3,Community 3,NA,TRUE,f,f,NA,NA,NA,1,7,"13,4,2,1,5,11,15,10,8,9,7,3,14,12,6"
15333,commdev-image-keyboard-response,299,548752,learnblock1,812.6000000238419,img/planet14_right.png,14,Community 3,NA,TRUE,j,j,NA,NA,NA,1,7,"13,4,2,1,5,11,15,10,8,9,7,3,14,12,6"
15333,commdev-image-keyboard-response,300,550004,learnblock1,951.5,img/planet12_left.png,12,Community 3,NA,TRUE,f,f,NA,NA,NA,1,7,"13,4,2,1,5,11,15,10,8,9,7,3,14,12,6"
15333,commdev-image-keyboard-response,301,551255,learnblock1,972.1000000238419,img/planet6_left.png,6,Community 3,NA,FALSE,j,f,NA,NA,NA,1,7,"13,4,2,1,5,11,15,10,8,9,7,3,14,12,6"
15333,commdev-image-keyboard-response,302,552507,learnblock1,null,img/planet12_right.png,12,Community 3,NA,FALSE,null,j,NA,NA,NA,1,7,"13,4,2,1,5,11,15,10,8,9,7,3,14,12,6"
15333,commdev-image-keyboard-response,303,553758,learnblock1,null,img/planet3_left.png,3,Community 3,NA,FALSE,null,f,NA,NA,NA,1,7,"13,4,2,1,5,11,15,10,8,9,7,3,14,12,6"
15333,commdev-image-keyboard-response,304,555009,learnblock1,null,img/planet14_left.png,14,Community 3,NA,FALSE,null,f,NA,NA,NA,1,7,"13,4,2,1,5,11,15,10,8,9,7,3,14,12,6"
15333,commdev-image-keyboard-response,305,556261,learnblock1,782.3999999761581,img/planet7_right.png,7,Community 3,NA,TRUE,j,j,NA,NA,NA,1,7,"13,4,2,1,5,11,15,10,8,9,7,3,14,12,6"
15333,commdev-image-keyboard-response,306,557513,learnblock1,706.7999999523163,img/planet5_right.png,5,Community 1,NA,TRUE,j,j,NA,NA,NA,1,7,"13,4,2,1,5,11,15,10,8,9,7,3,14,12,6"
15333,commdev-image-keyboard-response,307,558765,learnblock1,622.8999999761581,img/planet2_left.png,2,Community 1,NA,TRUE,f,f,NA,NA,NA,1,7,"13,4,2,1,5,11,15,10,8,9,7,3,14,12,6"
15333,commdev-image-keyboard-response,308,560017,learnblock1,547.2000000476837,img/planet1_right.png,1,Community 1,NA,FALSE,f,j,NA,NA,NA,1,7,"13,4,2,1,5,11,15,10,8,9,7,3,14,12,6"
15333,commdev-image-keyboard-response,309,561268,learnblock1,558.8999999761581,img/planet11_left.png,11,Community 2,NA,FALSE,j,f,NA,NA,NA,1,7,"13,4,2,1,5,11,15,10,8,9,7,3,14,12,6"
15333,commdev-image-keyboard-response,310,562520,learnblock1,883.5,img/planet9_left.png,9,Community 2,NA,TRUE,f,f,NA,NA,NA,1,7,"13,4,2,1,5,11,15,10,8,9,7,3,14,12,6"
15333,commdev-image-keyboard-response,311,563771,learnblock1,760.2999999523163,img/planet11_left.png,11,Community 2,NA,TRUE,f,f,NA,NA,NA,1,7,"13,4,2,1,5,11,15,10,8,9,7,3,14,12,6"
15333,commdev-image-keyboard-response,312,565023,learnblock1,741.1999999284744,img/planet15_left.png,15,Community 2,NA,TRUE,f,f,NA,NA,NA,1,7,"13,4,2,1,5,11,15,10,8,9,7,3,14,12,6"
15333,commdev-image-keyboard-response,313,566275,learnblock1,520.5,img/planet10_left.png,10,Community 2,NA,TRUE,f,f,NA,NA,NA,1,7,"13,4,2,1,5,11,15,10,8,9,7,3,14,12,6"
15333,commdev-image-keyboard-response,314,567527,learnblock1,476.59999990463257,img/planet8_right.png,8,Community 2,NA,FALSE,f,j,NA,NA,NA,1,7,"13,4,2,1,5,11,15,10,8,9,7,3,14,12,6"
15333,commdev-image-keyboard-response,315,568779,learnblock1,992.6999999284744,img/planet15_left.png,15,Community 2,NA,TRUE,f,f,NA,NA,NA,1,7,"13,4,2,1,5,11,15,10,8,9,7,3,14,12,6"
15333,commdev-image-keyboard-response,316,570030,learnblock1,805.2999999523163,img/planet11_right.png,11,Community 2,NA,TRUE,j,j,NA,NA,NA,1,7,"13,4,2,1,5,11,15,10,8,9,7,3,14,12,6"
15333,commdev-image-keyboard-response,317,571283,learnblock1,929.5999999046326,img/planet9_left.png,9,Community 2,NA,TRUE,f,f,NA,NA,NA,1,7,"13,4,2,1,5,11,15,10,8,9,7,3,14,12,6"
15333,commdev-image-keyboard-response,318,572534,learnblock1,685.0999999046326,img/planet11_left.png,11,Community 2,NA,TRUE,f,f,NA,NA,NA,1,7,"13,4,2,1,5,11,15,10,8,9,7,3,14,12,6"
15333,commdev-image-keyboard-response,319,573787,learnblock1,585.2999999523163,img/planet9_left.png,9,Community 2,NA,TRUE,f,f,NA,NA,NA,1,7,"13,4,2,1,5,11,15,10,8,9,7,3,14,12,6"
15333,commdev-image-keyboard-response,320,575042,learnblock1,652.6000000238419,img/planet11_left.png,11,Community 2,NA,TRUE,f,f,NA,NA,NA,1,7,"13,4,2,1,5,11,15,10,8,9,7,3,14,12,6"
15333,commdev-image-keyboard-response,321,576293,learnblock1,613.5999999046326,img/planet1_left.png,1,Community 1,NA,TRUE,f,f,NA,NA,NA,1,7,"13,4,2,1,5,11,15,10,8,9,7,3,14,12,6"
15333,commdev-image-keyboard-response,322,577545,learnblock1,562.5,img/planet4_right.png,4,Community 1,NA,TRUE,j,j,NA,NA,NA,1,7,"13,4,2,1,5,11,15,10,8,9,7,3,14,12,6"
15333,commdev-image-keyboard-response,323,578796,learnblock1,887.1000000238419,img/planet2_right.png,2,Community 1,NA,FALSE,f,j,NA,NA,NA,1,7,"13,4,2,1,5,11,15,10,8,9,7,3,14,12,6"
15333,commdev-image-keyboard-response,324,580048,learnblock1,691.8000000715256,img/planet1_left.png,1,Community 1,NA,TRUE,f,f,NA,NA,NA,1,7,"13,4,2,1,5,11,15,10,8,9,7,3,14,12,6"
15333,commdev-image-keyboard-response,325,581299,learnblock1,752.1999999284744,img/planet2_left.png,2,Community 1,NA,TRUE,f,f,NA,NA,NA,1,7,"13,4,2,1,5,11,15,10,8,9,7,3,14,12,6"
15333,commdev-image-keyboard-response,326,582550,learnblock1,684.3000000715256,img/planet1_left.png,1,Community 1,NA,TRUE,f,f,NA,NA,NA,1,7,"13,4,2,1,5,11,15,10,8,9,7,3,14,12,6"
15333,commdev-image-keyboard-response,327,583802,learnblock1,657.2999999523163,img/planet11_left.png,11,Community 2,NA,TRUE,f,f,NA,NA,NA,1,7,"13,4,2,1,5,11,15,10,8,9,7,3,14,12,6"
15333,commdev-image-keyboard-response,328,585053,learnblock1,694,img/planet8_left.png,8,Community 2,NA,TRUE,f,f,NA,NA,NA,1,7,"13,4,2,1,5,11,15,10,8,9,7,3,14,12,6"
15333,commdev-image-keyboard-response,329,586305,learnblock1,490.3000000715256,img/planet15_right.png,15,Community 2,NA,FALSE,f,j,NA,NA,NA,1,7,"13,4,2,1,5,11,15,10,8,9,7,3,14,12,6"
15333,commdev-image-keyboard-response,330,587556,learnblock1,710.2000000476837,img/planet11_right.png,11,Community 2,NA,FALSE,f,j,NA,NA,NA,1,7,"13,4,2,1,5,11,15,10,8,9,7,3,14,12,6"
15333,commdev-image-keyboard-response,331,588807,learnblock1,771.1000000238419,img/planet1_right.png,1,Community 1,NA,TRUE,j,j,NA,NA,NA,1,7,"13,4,2,1,5,11,15,10,8,9,7,3,14,12,6"
15333,commdev-image-keyboard-response,332,590059,learnblock1,672.1000000238419,img/planet13_left.png,13,Community 1,NA,TRUE,f,f,NA,NA,NA,1,7,"13,4,2,1,5,11,15,10,8,9,7,3,14,12,6"
15333,commdev-image-keyboard-response,333,591310,learnblock1,605.2000000476837,img/planet4_left.png,4,Community 1,NA,TRUE,f,f,NA,NA,NA,1,7,"13,4,2,1,5,11,15,10,8,9,7,3,14,12,6"
15333,commdev-image-keyboard-response,334,592563,learnblock1,641.3000000715256,img/planet2_left.png,2,Community 1,NA,TRUE,f,f,NA,NA,NA,1,7,"13,4,2,1,5,11,15,10,8,9,7,3,14,12,6"
15333,commdev-image-keyboard-response,335,593814,learnblock1,636.9000000953674,img/planet5_left.png,5,Community 1,NA,TRUE,f,f,NA,NA,NA,1,7,"13,4,2,1,5,11,15,10,8,9,7,3,14,12,6"
15333,commdev-image-keyboard-response,336,595065,learnblock1,569.1000000238419,img/planet13_right.png,13,Community 1,NA,TRUE,j,j,NA,NA,NA,1,7,"13,4,2,1,5,11,15,10,8,9,7,3,14,12,6"
15333,commdev-image-keyboard-response,337,596317,learnblock1,590.1000000238419,img/planet4_left.png,4,Community 1,NA,TRUE,f,f,NA,NA,NA,1,7,"13,4,2,1,5,11,15,10,8,9,7,3,14,12,6"
15333,commdev-image-keyboard-response,338,597569,learnblock1,722.1000000238419,img/planet5_left.png,5,Community 1,NA,TRUE,f,f,NA,NA,NA,1,7,"13,4,2,1,5,11,15,10,8,9,7,3,14,12,6"
15333,commdev-image-keyboard-response,339,598820,learnblock1,686.3999999761581,img/planet7_left.png,7,Community 3,NA,TRUE,f,f,NA,NA,NA,1,7,"13,4,2,1,5,11,15,10,8,9,7,3,14,12,6"
15333,commdev-image-keyboard-response,340,600072,learnblock1,571.1999999284744,img/planet6_right.png,6,Community 3,NA,TRUE,j,j,NA,NA,NA,1,7,"13,4,2,1,5,11,15,10,8,9,7,3,14,12,6"
15333,commdev-image-keyboard-response,341,601324,learnblock1,671,img/planet14_right.png,14,Community 3,NA,FALSE,f,j,NA,NA,NA,1,7,"13,4,2,1,5,11,15,10,8,9,7,3,14,12,6"
15333,commdev-image-keyboard-response,342,602576,learnblock1,563.1999999284744,img/planet3_left.png,3,Community 3,NA,TRUE,f,f,NA,NA,NA,1,7,"13,4,2,1,5,11,15,10,8,9,7,3,14,12,6"
15333,commdev-image-keyboard-response,343,603828,learnblock1,607.2000000476837,img/planet14_right.png,14,Community 3,NA,TRUE,j,j,NA,NA,NA,1,7,"13,4,2,1,5,11,15,10,8,9,7,3,14,12,6"
15333,commdev-image-keyboard-response,344,605079,learnblock1,675.3999999761581,img/planet7_left.png,7,Community 3,NA,TRUE,f,f,NA,NA,NA,1,7,"13,4,2,1,5,11,15,10,8,9,7,3,14,12,6"
15333,commdev-image-keyboard-response,345,606331,learnblock1,816.2000000476837,img/planet12_right.png,12,Community 3,NA,FALSE,f,j,NA,NA,NA,1,7,"13,4,2,1,5,11,15,10,8,9,7,3,14,12,6"
15333,commdev-image-keyboard-response,346,607583,learnblock1,917.3999999761581,img/planet7_right.png,7,Community 3,NA,TRUE,j,j,NA,NA,NA,1,7,"13,4,2,1,5,11,15,10,8,9,7,3,14,12,6"
15333,commdev-image-keyboard-response,347,608834,learnblock1,728.7999999523163,img/planet5_left.png,5,Community 1,NA,TRUE,f,f,NA,NA,NA,1,7,"13,4,2,1,5,11,15,10,8,9,7,3,14,12,6"
15333,commdev-image-keyboard-response,351,641596,learnblock2,790.1000000238419,img/planet1_left.png,1,Community 1,NA,TRUE,f,f,NA,NA,NA,1,7,"13,4,2,1,5,11,15,10,8,9,7,3,14,12,6"
15333,commdev-image-keyboard-response,352,642848,learnblock2,595.2000000476837,img/planet2_right.png,2,Community 1,NA,TRUE,j,j,NA,NA,NA,1,7,"13,4,2,1,5,11,15,10,8,9,7,3,14,12,6"
15333,commdev-image-keyboard-response,353,644099,learnblock2,583.1000000238419,img/planet13_right.png,13,Community 1,NA,TRUE,j,j,NA,NA,NA,1,7,"13,4,2,1,5,11,15,10,8,9,7,3,14,12,6"
15333,commdev-image-keyboard-response,354,645351,learnblock2,635.8000000715256,img/planet2_left.png,2,Community 1,NA,TRUE,f,f,NA,NA,NA,1,7,"13,4,2,1,5,11,15,10,8,9,7,3,14,12,6"
15333,commdev-image-keyboard-response,355,646603,learnblock2,568.2000000476837,img/planet4_right.png,4,Community 1,NA,TRUE,j,j,NA,NA,NA,1,7,"13,4,2,1,5,11,15,10,8,9,7,3,14,12,6"
15333,commdev-image-keyboard-response,356,647854,learnblock2,483.89999997615814,img/planet13_right.png,13,Community 1,NA,TRUE,j,j,NA,NA,NA,1,7,"13,4,2,1,5,11,15,10,8,9,7,3,14,12,6"
15333,commdev-image-keyboard-response,357,649106,learnblock2,416.39999997615814,img/planet2_left.png,2,Community 1,NA,TRUE,f,f,NA,NA,NA,1,7,"13,4,2,1,5,11,15,10,8,9,7,3,14,12,6"
15333,commdev-image-keyboard-response,358,650358,learnblock2,492.7000000476837,img/planet1_left.png,1,Community 1,NA,TRUE,f,f,NA,NA,NA,1,7,"13,4,2,1,5,11,15,10,8,9,7,3,14,12,6"
15333,commdev-image-keyboard-response,359,651610,learnblock2,561,img/planet11_left.png,11,Community 2,NA,TRUE,f,f,NA,NA,NA,1,7,"13,4,2,1,5,11,15,10,8,9,7,3,14,12,6"
15333,commdev-image-keyboard-response,360,652862,learnblock2,525.1000000238419,img/planet1_right.png,1,Community 1,NA,TRUE,j,j,NA,NA,NA,1,7,"13,4,2,1,5,11,15,10,8,9,7,3,14,12,6"
15333,commdev-image-keyboard-response,361,654114,learnblock2,521,img/planet11_right.png,11,Community 2,NA,FALSE,f,j,NA,NA,NA,1,7,"13,4,2,1,5,11,15,10,8,9,7,3,14,12,6"
15333,commdev-image-keyboard-response,362,655365,learnblock2,813.1000000238419,img/planet1_right.png,1,Community 1,NA,TRUE,j,j,NA,NA,NA,1,7,"13,4,2,1,5,11,15,10,8,9,7,3,14,12,6"
15333,commdev-image-keyboard-response,363,656617,learnblock2,601.5,img/planet13_right.png,13,Community 1,NA,TRUE,j,j,NA,NA,NA,1,7,"13,4,2,1,5,11,15,10,8,9,7,3,14,12,6"
15333,commdev-image-keyboard-response,364,657869,learnblock2,605.8999999761581,img/planet4_left.png,4,Community 1,NA,TRUE,f,f,NA,NA,NA,1,7,"13,4,2,1,5,11,15,10,8,9,7,3,14,12,6"
15333,commdev-image-keyboard-response,365,659120,learnblock2,610.1000000238419,img/planet13_left.png,13,Community 1,NA,TRUE,f,f,NA,NA,NA,1,7,"13,4,2,1,5,11,15,10,8,9,7,3,14,12,6"
15333,commdev-image-keyboard-response,366,660372,learnblock2,583.2000000476837,img/planet1_right.png,1,Community 1,NA,TRUE,j,j,NA,NA,NA,1,7,"13,4,2,1,5,11,15,10,8,9,7,3,14,12,6"
15333,commdev-image-keyboard-response,367,661624,learnblock2,483,img/planet2_right.png,2,Community 1,NA,TRUE,j,j,NA,NA,NA,1,7,"13,4,2,1,5,11,15,10,8,9,7,3,14,12,6"
15333,commdev-image-keyboard-response,368,662875,learnblock2,543,img/planet4_right.png,4,Community 1,NA,TRUE,j,j,NA,NA,NA,1,7,"13,4,2,1,5,11,15,10,8,9,7,3,14,12,6"
15333,commdev-image-keyboard-response,369,664126,learnblock2,531.8999999761581,img/planet2_left.png,2,Community 1,NA,TRUE,f,f,NA,NA,NA,1,7,"13,4,2,1,5,11,15,10,8,9,7,3,14,12,6"
15333,commdev-image-keyboard-response,370,665378,learnblock2,808.5,img/planet1_left.png,1,Community 1,NA,TRUE,f,f,NA,NA,NA,1,7,"13,4,2,1,5,11,15,10,8,9,7,3,14,12,6"
15333,commdev-image-keyboard-response,371,666629,learnblock2,573.1999999284744,img/planet13_right.png,13,Community 1,NA,TRUE,j,j,NA,NA,NA,1,7,"13,4,2,1,5,11,15,10,8,9,7,3,14,12,6"
15333,commdev-image-keyboard-response,372,667880,learnblock2,674.1000000238419,img/planet5_right.png,5,Community 1,NA,TRUE,j,j,NA,NA,NA,1,7,"13,4,2,1,5,11,15,10,8,9,7,3,14,12,6"
15333,commdev-image-keyboard-response,373,669132,learnblock2,470.60000002384186,img/planet13_right.png,13,Community 1,NA,TRUE,j,j,NA,NA,NA,1,7,"13,4,2,1,5,11,15,10,8,9,7,3,14,12,6"
15333,commdev-image-keyboard-response,374,670384,learnblock2,570.5,img/planet1_right.png,1,Community 1,NA,TRUE,j,j,NA,NA,NA,1,7,"13,4,2,1,5,11,15,10,8,9,7,3,14,12,6"
15333,commdev-image-keyboard-response,375,671636,learnblock2,574.8000000715256,img/planet4_right.png,4,Community 1,NA,TRUE,j,j,NA,NA,NA,1,7,"13,4,2,1,5,11,15,10,8,9,7,3,14,12,6"
15333,commdev-image-keyboard-response,376,672887,learnblock2,490.1999999284744,img/planet13_left.png,13,Community 1,NA,TRUE,f,f,NA,NA,NA,1,7,"13,4,2,1,5,11,15,10,8,9,7,3,14,12,6"
15333,commdev-image-keyboard-response,377,674139,learnblock2,623.2999999523163,img/planet1_right.png,1,Community 1,NA,TRUE,j,j,NA,NA,NA,1,7,"13,4,2,1,5,11,15,10,8,9,7,3,14,12,6"
15333,commdev-image-keyboard-response,378,675390,learnblock2,827.6000000238419,img/planet11_right.png,11,Community 2,NA,TRUE,j,j,NA,NA,NA,1,7,"13,4,2,1,5,11,15,10,8,9,7,3,14,12,6"
15333,commdev-image-keyboard-response,379,676642,learnblock2,736.0999999046326,img/planet9_right.png,9,Community 2,NA,TRUE,j,j,NA,NA,NA,1,7,"13,4,2,1,5,11,15,10,8,9,7,3,14,12,6"
15333,commdev-image-keyboard-response,380,677893,learnblock2,804.9000000953674,img/planet15_right.png,15,Community 2,NA,TRUE,j,j,NA,NA,NA,1,7,"13,4,2,1,5,11,15,10,8,9,7,3,14,12,6"
15333,commdev-image-keyboard-response,381,679144,learnblock2,745.5999999046326,img/planet11_right.png,11,Community 2,NA,TRUE,j,j,NA,NA,NA,1,7,"13,4,2,1,5,11,15,10,8,9,7,3,14,12,6"
15333,commdev-image-keyboard-response,382,680396,learnblock2,910.0999999046326,img/planet1_left.png,1,Community 1,NA,TRUE,f,f,NA,NA,NA,1,7,"13,4,2,1,5,11,15,10,8,9,7,3,14,12,6"
15333,commdev-image-keyboard-response,383,681647,learnblock2,914.1999999284744,img/planet2_right.png,2,Community 1,NA,TRUE,j,j,NA,NA,NA,1,7,"13,4,2,1,5,11,15,10,8,9,7,3,14,12,6"
15333,commdev-image-keyboard-response,384,682899,learnblock2,775,img/planet13_right.png,13,Community 1,NA,TRUE,j,j,NA,NA,NA,1,7,"13,4,2,1,5,11,15,10,8,9,7,3,14,12,6"
15333,commdev-image-keyboard-response,385,684151,learnblock2,819,img/planet2_right.png,2,Community 1,NA,TRUE,j,j,NA,NA,NA,1,7,"13,4,2,1,5,11,15,10,8,9,7,3,14,12,6"
15333,commdev-image-keyboard-response,386,685403,learnblock2,759,img/planet1_left.png,1,Community 1,NA,TRUE,f,f,NA,NA,NA,1,7,"13,4,2,1,5,11,15,10,8,9,7,3,14,12,6"
15333,commdev-image-keyboard-response,387,686655,learnblock2,603.8000000715256,img/planet4_left.png,4,Community 1,NA,TRUE,f,f,NA,NA,NA,1,7,"13,4,2,1,5,11,15,10,8,9,7,3,14,12,6"
15333,commdev-image-keyboard-response,388,687906,learnblock2,616,img/planet5_left.png,5,Community 1,NA,TRUE,f,f,NA,NA,NA,1,7,"13,4,2,1,5,11,15,10,8,9,7,3,14,12,6"
15333,commdev-image-keyboard-response,389,689158,learnblock2,588.1000000238419,img/planet7_left.png,7,Community 3,NA,TRUE,f,f,NA,NA,NA,1,7,"13,4,2,1,5,11,15,10,8,9,7,3,14,12,6"
15333,commdev-image-keyboard-response,390,690409,learnblock2,704.1000000238419,img/planet6_left.png,6,Community 3,NA,TRUE,f,f,NA,NA,NA,1,7,"13,4,2,1,5,11,15,10,8,9,7,3,14,12,6"
15333,commdev-image-keyboard-response,391,691661,learnblock2,589.1000000238419,img/planet7_right.png,7,Community 3,NA,TRUE,j,j,NA,NA,NA,1,7,"13,4,2,1,5,11,15,10,8,9,7,3,14,12,6"
15333,commdev-image-keyboard-response,392,692913,learnblock2,602,img/planet6_right.png,6,Community 3,NA,TRUE,j,j,NA,NA,NA,1,7,"13,4,2,1,5,11,15,10,8,9,7,3,14,12,6"
15333,commdev-image-keyboard-response,393,694164,learnblock2,613.6000000238419,img/planet7_right.png,7,Community 3,NA,TRUE,j,j,NA,NA,NA,1,7,"13,4,2,1,5,11,15,10,8,9,7,3,14,12,6"
15333,commdev-image-keyboard-response,394,695416,learnblock2,682.1000000238419,img/planet14_left.png,14,Community 3,NA,TRUE,f,f,NA,NA,NA,1,7,"13,4,2,1,5,11,15,10,8,9,7,3,14,12,6"
15333,commdev-image-keyboard-response,395,696668,learnblock2,582,img/planet7_right.png,7,Community 3,NA,TRUE,j,j,NA,NA,NA,1,7,"13,4,2,1,5,11,15,10,8,9,7,3,14,12,6"
15333,commdev-image-keyboard-response,396,697919,learnblock2,642.6999999284744,img/planet5_right.png,5,Community 1,NA,TRUE,j,j,NA,NA,NA,1,7,"13,4,2,1,5,11,15,10,8,9,7,3,14,12,6"
15333,commdev-image-keyboard-response,397,699170,learnblock2,624,img/planet4_right.png,4,Community 1,NA,TRUE,j,j,NA,NA,NA,1,7,"13,4,2,1,5,11,15,10,8,9,7,3,14,12,6"
15333,commdev-image-keyboard-response,398,700422,learnblock2,588,img/planet1_right.png,1,Community 1,NA,TRUE,j,j,NA,NA,NA,1,7,"13,4,2,1,5,11,15,10,8,9,7,3,14,12,6"
15333,commdev-image-keyboard-response,399,701673,learnblock2,552.5,img/planet2_right.png,2,Community 1,NA,TRUE,j,j,NA,NA,NA,1,7,"13,4,2,1,5,11,15,10,8,9,7,3,14,12,6"
15333,commdev-image-keyboard-response,400,702925,learnblock2,445.2000000476837,img/planet4_left.png,4,Community 1,NA,TRUE,f,f,NA,NA,NA,1,7,"13,4,2,1,5,11,15,10,8,9,7,3,14,12,6"
15333,commdev-image-keyboard-response,401,704176,learnblock2,474,img/planet5_left.png,5,Community 1,NA,TRUE,f,f,NA,NA,NA,1,7,"13,4,2,1,5,11,15,10,8,9,7,3,14,12,6"
15333,commdev-image-keyboard-response,402,705427,learnblock2,534.5,img/planet4_right.png,4,Community 1,NA,TRUE,j,j,NA,NA,NA,1,7,"13,4,2,1,5,11,15,10,8,9,7,3,14,12,6"
15333,commdev-image-keyboard-response,403,706679,learnblock2,611.2000000476837,img/planet1_left.png,1,Community 1,NA,TRUE,f,f,NA,NA,NA,1,7,"13,4,2,1,5,11,15,10,8,9,7,3,14,12,6"
15333,commdev-image-keyboard-response,404,707930,learnblock2,703.1000000238419,img/planet11_right.png,11,Community 2,NA,FALSE,f,j,NA,NA,NA,1,7,"13,4,2,1,5,11,15,10,8,9,7,3,14,12,6"
15333,commdev-image-keyboard-response,405,709181,learnblock2,756.1000000238419,img/planet15_right.png,15,Community 2,NA,TRUE,j,j,NA,NA,NA,1,7,"13,4,2,1,5,11,15,10,8,9,7,3,14,12,6"
15333,commdev-image-keyboard-response,406,710434,learnblock2,721,img/planet11_left.png,11,Community 2,NA,TRUE,f,f,NA,NA,NA,1,7,"13,4,2,1,5,11,15,10,8,9,7,3,14,12,6"
15333,commdev-image-keyboard-response,407,711685,learnblock2,612.7999999523163,img/planet9_left.png,9,Community 2,NA,FALSE,j,f,NA,NA,NA,1,7,"13,4,2,1,5,11,15,10,8,9,7,3,14,12,6"
15333,commdev-image-keyboard-response,408,712938,learnblock2,697,img/planet15_right.png,15,Community 2,NA,TRUE,j,j,NA,NA,NA,1,7,"13,4,2,1,5,11,15,10,8,9,7,3,14,12,6"
15333,commdev-image-keyboard-response,409,714189,learnblock2,780.8999999761581,img/planet10_right.png,10,Community 2,NA,TRUE,j,j,NA,NA,NA,1,7,"13,4,2,1,5,11,15,10,8,9,7,3,14,12,6"
15333,commdev-image-keyboard-response,410,715441,learnblock2,737.8999999761581,img/planet8_right.png,8,Community 2,NA,TRUE,j,j,NA,NA,NA,1,7,"13,4,2,1,5,11,15,10,8,9,7,3,14,12,6"
15333,commdev-image-keyboard-response,411,716693,learnblock2,684.8999999761581,img/planet10_right.png,10,Community 2,NA,TRUE,j,j,NA,NA,NA,1,7,"13,4,2,1,5,11,15,10,8,9,7,3,14,12,6"
15333,commdev-image-keyboard-response,412,717945,learnblock2,729,img/planet3_left.png,3,Community 3,NA,TRUE,f,f,NA,NA,NA,1,7,"13,4,2,1,5,11,15,10,8,9,7,3,14,12,6"
15333,commdev-image-keyboard-response,413,719197,learnblock2,957.1000000238419,img/planet12_right.png,12,Community 3,NA,TRUE,j,j,NA,NA,NA,1,7,"13,4,2,1,5,11,15,10,8,9,7,3,14,12,6"
15333,commdev-image-keyboard-response,414,720448,learnblock2,665.1000000238419,img/planet14_left.png,14,Community 3,NA,TRUE,f,f,NA,NA,NA,1,7,"13,4,2,1,5,11,15,10,8,9,7,3,14,12,6"
15333,commdev-image-keyboard-response,415,721700,learnblock2,550,img/planet12_right.png,12,Community 3,NA,TRUE,j,j,NA,NA,NA,1,7,"13,4,2,1,5,11,15,10,8,9,7,3,14,12,6"
15333,commdev-image-keyboard-response,416,722953,learnblock2,522,img/planet6_left.png,6,Community 3,NA,TRUE,f,f,NA,NA,NA,1,7,"13,4,2,1,5,11,15,10,8,9,7,3,14,12,6"
15333,commdev-image-keyboard-response,417,724205,learnblock2,389.09999990463257,img/planet12_left.png,12,Community 3,NA,FALSE,j,f,NA,NA,NA,1,7,"13,4,2,1,5,11,15,10,8,9,7,3,14,12,6"
15333,commdev-image-keyboard-response,418,725457,learnblock2,489.39999997615814,img/planet3_left.png,3,Community 3,NA,TRUE,f,f,NA,NA,NA,1,7,"13,4,2,1,5,11,15,10,8,9,7,3,14,12,6"
15333,commdev-image-keyboard-response,419,726721,learnblock2,533.7999999523163,img/planet10_right.png,10,Community 2,NA,TRUE,j,j,NA,NA,NA,1,7,"13,4,2,1,5,11,15,10,8,9,7,3,14,12,6"
15333,commdev-image-keyboard-response,420,727973,learnblock2,668.6999999284744,img/planet9_right.png,9,Community 2,NA,TRUE,j,j,NA,NA,NA,1,7,"13,4,2,1,5,11,15,10,8,9,7,3,14,12,6"
15333,commdev-image-keyboard-response,421,729224,learnblock2,657.6000000238419,img/planet11_left.png,11,Community 2,NA,FALSE,j,f,NA,NA,NA,1,7,"13,4,2,1,5,11,15,10,8,9,7,3,14,12,6"
15333,commdev-image-keyboard-response,422,730476,learnblock2,750.0999999046326,img/planet1_left.png,1,Community 1,NA,TRUE,f,f,NA,NA,NA,1,7,"13,4,2,1,5,11,15,10,8,9,7,3,14,12,6"
15333,commdev-image-keyboard-response,423,731727,learnblock2,578.5,img/planet2_right.png,2,Community 1,NA,TRUE,j,j,NA,NA,NA,1,7,"13,4,2,1,5,11,15,10,8,9,7,3,14,12,6"
15333,commdev-image-keyboard-response,424,732978,learnblock2,574.8999999761581,img/planet13_right.png,13,Community 1,NA,TRUE,j,j,NA,NA,NA,1,7,"13,4,2,1,5,11,15,10,8,9,7,3,14,12,6"
15333,commdev-image-keyboard-response,425,734231,learnblock2,587.9000000953674,img/planet1_right.png,1,Community 1,NA,TRUE,j,j,NA,NA,NA,1,7,"13,4,2,1,5,11,15,10,8,9,7,3,14,12,6"
15333,commdev-image-keyboard-response,426,735483,learnblock2,551.7000000476837,img/planet2_left.png,2,Community 1,NA,TRUE,f,f,NA,NA,NA,1,7,"13,4,2,1,5,11,15,10,8,9,7,3,14,12,6"
15333,commdev-image-keyboard-response,427,736734,learnblock2,555.3000000715256,img/planet1_right.png,1,Community 1,NA,TRUE,j,j,NA,NA,NA,1,7,"13,4,2,1,5,11,15,10,8,9,7,3,14,12,6"
15333,commdev-image-keyboard-response,428,737986,learnblock2,624.2000000476837,img/planet11_right.png,11,Community 2,NA,FALSE,f,j,NA,NA,NA,1,7,"13,4,2,1,5,11,15,10,8,9,7,3,14,12,6"
15333,commdev-image-keyboard-response,429,739237,learnblock2,756.2999999523163,img/planet15_right.png,15,Community 2,NA,TRUE,j,j,NA,NA,NA,1,7,"13,4,2,1,5,11,15,10,8,9,7,3,14,12,6"
15333,commdev-image-keyboard-response,430,740489,learnblock2,704.7000000476837,img/planet11_left.png,11,Community 2,NA,TRUE,f,f,NA,NA,NA,1,7,"13,4,2,1,5,11,15,10,8,9,7,3,14,12,6"
15333,commdev-image-keyboard-response,431,741741,learnblock2,589,img/planet8_left.png,8,Community 2,NA,TRUE,f,f,NA,NA,NA,1,7,"13,4,2,1,5,11,15,10,8,9,7,3,14,12,6"
15333,commdev-image-keyboard-response,432,742992,learnblock2,594.4000000953674,img/planet10_left.png,10,Community 2,NA,TRUE,f,f,NA,NA,NA,1,7,"13,4,2,1,5,11,15,10,8,9,7,3,14,12,6"
15333,commdev-image-keyboard-response,433,744243,learnblock2,565.8999999761581,img/planet15_right.png,15,Community 2,NA,TRUE,j,j,NA,NA,NA,1,7,"13,4,2,1,5,11,15,10,8,9,7,3,14,12,6"
15333,commdev-image-keyboard-response,434,745495,learnblock2,658.9000000953674,img/planet8_right.png,8,Community 2,NA,TRUE,j,j,NA,NA,NA,1,7,"13,4,2,1,5,11,15,10,8,9,7,3,14,12,6"
15333,commdev-image-keyboard-response,435,746747,learnblock2,551.2000000476837,img/planet9_right.png,9,Community 2,NA,TRUE,j,j,NA,NA,NA,1,7,"13,4,2,1,5,11,15,10,8,9,7,3,14,12,6"
15333,commdev-image-keyboard-response,436,748001,learnblock2,539.2000000476837,img/planet11_left.png,11,Community 2,NA,FALSE,j,f,NA,NA,NA,1,7,"13,4,2,1,5,11,15,10,8,9,7,3,14,12,6"
15333,commdev-image-keyboard-response,437,749253,learnblock2,557.1000000238419,img/planet1_right.png,1,Community 1,NA,TRUE,j,j,NA,NA,NA,1,7,"13,4,2,1,5,11,15,10,8,9,7,3,14,12,6"
15333,commdev-image-keyboard-response,438,750505,learnblock2,720.7000000476837,img/planet13_right.png,13,Community 1,NA,TRUE,j,j,NA,NA,NA,1,7,"13,4,2,1,5,11,15,10,8,9,7,3,14,12,6"
15333,commdev-image-keyboard-response,439,751756,learnblock2,613,img/planet2_right.png,2,Community 1,NA,TRUE,j,j,NA,NA,NA,1,7,"13,4,2,1,5,11,15,10,8,9,7,3,14,12,6"
15333,commdev-image-keyboard-response,440,753008,learnblock2,713.6000000238419,img/planet5_left.png,5,Community 1,NA,TRUE,f,f,NA,NA,NA,1,7,"13,4,2,1,5,11,15,10,8,9,7,3,14,12,6"
15333,commdev-image-keyboard-response,441,754259,learnblock2,813.8999999761581,img/planet2_right.png,2,Community 1,NA,FALSE,f,j,NA,NA,NA,1,7,"13,4,2,1,5,11,15,10,8,9,7,3,14,12,6"
15333,commdev-image-keyboard-response,442,755511,learnblock2,538.8000000715256,img/planet1_left.png,1,Community 1,NA,TRUE,f,f,NA,NA,NA,1,7,"13,4,2,1,5,11,15,10,8,9,7,3,14,12,6"
15333,commdev-image-keyboard-response,443,756763,learnblock2,672.1000000238419,img/planet11_left.png,11,Community 2,NA,TRUE,f,f,NA,NA,NA,1,7,"13,4,2,1,5,11,15,10,8,9,7,3,14,12,6"
15333,commdev-image-keyboard-response,444,758015,learnblock2,819,img/planet9_right.png,9,Community 2,NA,TRUE,j,j,NA,NA,NA,1,7,"13,4,2,1,5,11,15,10,8,9,7,3,14,12,6"
15333,commdev-image-keyboard-response,445,759266,learnblock2,703,img/planet11_left.png,11,Community 2,NA,TRUE,f,f,NA,NA,NA,1,7,"13,4,2,1,5,11,15,10,8,9,7,3,14,12,6"
15333,commdev-image-keyboard-response,446,760519,learnblock2,515.6000000238419,img/planet8_right.png,8,Community 2,NA,TRUE,j,j,NA,NA,NA,1,7,"13,4,2,1,5,11,15,10,8,9,7,3,14,12,6"
15333,commdev-image-keyboard-response,447,761771,learnblock2,390.89999997615814,img/planet11_right.png,11,Community 2,NA,FALSE,f,j,NA,NA,NA,1,7,"13,4,2,1,5,11,15,10,8,9,7,3,14,12,6"
15333,commdev-image-keyboard-response,448,763022,learnblock2,515.3000000715256,img/planet15_right.png,15,Community 2,NA,TRUE,j,j,NA,NA,NA,1,7,"13,4,2,1,5,11,15,10,8,9,7,3,14,12,6"
15333,commdev-image-keyboard-response,449,764275,learnblock2,479.39999997615814,img/planet10_left.png,10,Community 2,NA,TRUE,f,f,NA,NA,NA,1,7,"13,4,2,1,5,11,15,10,8,9,7,3,14,12,6"
15333,commdev-image-keyboard-response,450,765526,learnblock2,619.3999999761581,img/planet15_right.png,15,Community 2,NA,TRUE,j,j,NA,NA,NA,1,7,"13,4,2,1,5,11,15,10,8,9,7,3,14,12,6"
15333,commdev-image-keyboard-response,451,766777,learnblock2,520.1000000238419,img/planet10_right.png,10,Community 2,NA,TRUE,j,j,NA,NA,NA,1,7,"13,4,2,1,5,11,15,10,8,9,7,3,14,12,6"
15333,commdev-image-keyboard-response,452,768028,learnblock2,589.4000000953674,img/planet8_left.png,8,Community 2,NA,TRUE,f,f,NA,NA,NA,1,7,"13,4,2,1,5,11,15,10,8,9,7,3,14,12,6"
15333,commdev-image-keyboard-response,453,769280,learnblock2,521.8999999761581,img/planet9_right.png,9,Community 2,NA,TRUE,j,j,NA,NA,NA,1,7,"13,4,2,1,5,11,15,10,8,9,7,3,14,12,6"
15333,commdev-image-keyboard-response,454,770531,learnblock2,653.8999999761581,img/planet11_left.png,11,Community 2,NA,TRUE,f,f,NA,NA,NA,1,7,"13,4,2,1,5,11,15,10,8,9,7,3,14,12,6"
15333,commdev-image-keyboard-response,455,771783,learnblock2,627,img/planet1_left.png,1,Community 1,NA,TRUE,f,f,NA,NA,NA,1,7,"13,4,2,1,5,11,15,10,8,9,7,3,14,12,6"
15333,commdev-image-keyboard-response,456,773035,learnblock2,703.1000000238419,img/planet11_left.png,11,Community 2,NA,TRUE,f,f,NA,NA,NA,1,7,"13,4,2,1,5,11,15,10,8,9,7,3,14,12,6"
15333,commdev-image-keyboard-response,457,774287,learnblock2,619.1000000238419,img/planet9_right.png,9,Community 2,NA,TRUE,j,j,NA,NA,NA,1,7,"13,4,2,1,5,11,15,10,8,9,7,3,14,12,6"
15333,commdev-image-keyboard-response,458,775539,learnblock2,726.7999999523163,img/planet15_left.png,15,Community 2,NA,TRUE,f,f,NA,NA,NA,1,7,"13,4,2,1,5,11,15,10,8,9,7,3,14,12,6"
15333,commdev-image-keyboard-response,459,776790,learnblock2,619.1000000238419,img/planet10_left.png,10,Community 2,NA,FALSE,j,f,NA,NA,NA,1,7,"13,4,2,1,5,11,15,10,8,9,7,3,14,12,6"
15333,commdev-image-keyboard-response,460,778041,learnblock2,800.1000000238419,img/planet3_right.png,3,Community 3,NA,TRUE,j,j,NA,NA,NA,1,7,"13,4,2,1,5,11,15,10,8,9,7,3,14,12,6"
15333,commdev-image-keyboard-response,461,779293,learnblock2,836.2999999523163,img/planet12_right.png,12,Community 3,NA,TRUE,j,j,NA,NA,NA,1,7,"13,4,2,1,5,11,15,10,8,9,7,3,14,12,6"
15333,commdev-image-keyboard-response,462,780556,learnblock2,913,img/planet3_right.png,3,Community 3,NA,TRUE,j,j,NA,NA,NA,1,7,"13,4,2,1,5,11,15,10,8,9,7,3,14,12,6"
15333,commdev-image-keyboard-response,463,781808,learnblock2,1001.8000000715256,img/planet12_left.png,12,Community 3,NA,FALSE,j,f,NA,NA,NA,1,7,"13,4,2,1,5,11,15,10,8,9,7,3,14,12,6"
15333,commdev-image-keyboard-response,464,783060,learnblock2,878,img/planet6_left.png,6,Community 3,NA,TRUE,f,f,NA,NA,NA,1,7,"13,4,2,1,5,11,15,10,8,9,7,3,14,12,6"
15333,commdev-image-keyboard-response,465,784311,learnblock2,716.3000000715256,img/planet7_left.png,7,Community 3,NA,TRUE,f,f,NA,NA,NA,1,7,"13,4,2,1,5,11,15,10,8,9,7,3,14,12,6"
15333,commdev-image-keyboard-response,466,785563,learnblock2,622.3999999761581,img/planet14_left.png,14,Community 3,NA,TRUE,f,f,NA,NA,NA,1,7,"13,4,2,1,5,11,15,10,8,9,7,3,14,12,6"
15333,commdev-image-keyboard-response,467,786815,learnblock2,650.5,img/planet6_left.png,6,Community 3,NA,TRUE,f,f,NA,NA,NA,1,7,"13,4,2,1,5,11,15,10,8,9,7,3,14,12,6"
15333,commdev-image-keyboard-response,468,788066,learnblock2,567,img/planet7_left.png,7,Community 3,NA,TRUE,f,f,NA,NA,NA,1,7,"13,4,2,1,5,11,15,10,8,9,7,3,14,12,6"
15333,commdev-image-keyboard-response,469,789317,learnblock2,579.7999999523163,img/planet5_right.png,5,Community 1,NA,TRUE,j,j,NA,NA,NA,1,7,"13,4,2,1,5,11,15,10,8,9,7,3,14,12,6"
15333,commdev-image-keyboard-response,470,790569,learnblock2,600.2999999523163,img/planet13_right.png,13,Community 1,NA,TRUE,j,j,NA,NA,NA,1,7,"13,4,2,1,5,11,15,10,8,9,7,3,14,12,6"
15333,commdev-image-keyboard-response,471,791821,learnblock2,524.8000000715256,img/planet4_right.png,4,Community 1,NA,TRUE,j,j,NA,NA,NA,1,7,"13,4,2,1,5,11,15,10,8,9,7,3,14,12,6"
15333,commdev-image-keyboard-response,472,793073,learnblock2,513,img/planet13_right.png,13,Community 1,NA,TRUE,j,j,NA,NA,NA,1,7,"13,4,2,1,5,11,15,10,8,9,7,3,14,12,6"
15333,commdev-image-keyboard-response,473,794325,learnblock2,380.8000000715256,img/planet2_left.png,2,Community 1,NA,TRUE,f,f,NA,NA,NA,1,7,"13,4,2,1,5,11,15,10,8,9,7,3,14,12,6"
15333,commdev-image-keyboard-response,474,795576,learnblock2,601.0999999046326,img/planet1_left.png,1,Community 1,NA,TRUE,f,f,NA,NA,NA,1,7,"13,4,2,1,5,11,15,10,8,9,7,3,14,12,6"
15333,commdev-image-keyboard-response,475,796828,learnblock2,501.60000002384186,img/planet4_left.png,4,Community 1,NA,TRUE,f,f,NA,NA,NA,1,7,"13,4,2,1,5,11,15,10,8,9,7,3,14,12,6"
15333,commdev-image-keyboard-response,476,798080,learnblock2,553.7999999523163,img/planet5_right.png,5,Community 1,NA,TRUE,j,j,NA,NA,NA,1,7,"13,4,2,1,5,11,15,10,8,9,7,3,14,12,6"
15333,commdev-image-keyboard-response,477,799331,learnblock2,630.1999999284744,img/planet7_right.png,7,Community 3,NA,TRUE,j,j,NA,NA,NA,1,7,"13,4,2,1,5,11,15,10,8,9,7,3,14,12,6"
15333,commdev-image-keyboard-response,478,800582,learnblock2,746.1000000238419,img/planet5_right.png,5,Community 1,NA,TRUE,j,j,NA,NA,NA,1,7,"13,4,2,1,5,11,15,10,8,9,7,3,14,12,6"
15333,commdev-image-keyboard-response,479,801834,learnblock2,591.1000000238419,img/planet13_left.png,13,Community 1,NA,TRUE,f,f,NA,NA,NA,1,7,"13,4,2,1,5,11,15,10,8,9,7,3,14,12,6"
15333,commdev-image-keyboard-response,480,803086,learnblock2,507,img/planet1_left.png,1,Community 1,NA,TRUE,f,f,NA,NA,NA,1,7,"13,4,2,1,5,11,15,10,8,9,7,3,14,12,6"
15333,commdev-image-keyboard-response,481,804338,learnblock2,495.3000000715256,img/planet11_left.png,11,Community 2,NA,TRUE,f,f,NA,NA,NA,1,7,"13,4,2,1,5,11,15,10,8,9,7,3,14,12,6"
15333,commdev-image-keyboard-response,482,805589,learnblock2,507.89999997615814,img/planet15_left.png,15,Community 2,NA,TRUE,f,f,NA,NA,NA,1,7,"13,4,2,1,5,11,15,10,8,9,7,3,14,12,6"
15333,commdev-image-keyboard-response,483,806841,learnblock2,568.7000000476837,img/planet8_left.png,8,Community 2,NA,TRUE,f,f,NA,NA,NA,1,7,"13,4,2,1,5,11,15,10,8,9,7,3,14,12,6"
15333,commdev-image-keyboard-response,484,808091,learnblock2,525.2000000476837,img/planet11_right.png,11,Community 2,NA,TRUE,j,j,NA,NA,NA,1,7,"13,4,2,1,5,11,15,10,8,9,7,3,14,12,6"
15333,commdev-image-keyboard-response,485,809343,learnblock2,529.8999999761581,img/planet15_left.png,15,Community 2,NA,TRUE,f,f,NA,NA,NA,1,7,"13,4,2,1,5,11,15,10,8,9,7,3,14,12,6"
15333,commdev-image-keyboard-response,486,810595,learnblock2,583.5,img/planet11_left.png,11,Community 2,NA,TRUE,f,f,NA,NA,NA,1,7,"13,4,2,1,5,11,15,10,8,9,7,3,14,12,6"
15333,commdev-image-keyboard-response,487,811846,learnblock2,602.7000000476837,img/planet9_right.png,9,Community 2,NA,TRUE,j,j,NA,NA,NA,1,7,"13,4,2,1,5,11,15,10,8,9,7,3,14,12,6"
15333,commdev-image-keyboard-response,488,813099,learnblock2,654.6000000238419,img/planet10_right.png,10,Community 2,NA,TRUE,j,j,NA,NA,NA,1,7,"13,4,2,1,5,11,15,10,8,9,7,3,14,12,6"
15333,commdev-image-keyboard-response,489,814351,learnblock2,706.2999999523163,img/planet15_left.png,15,Community 2,NA,TRUE,f,f,NA,NA,NA,1,7,"13,4,2,1,5,11,15,10,8,9,7,3,14,12,6"
15333,commdev-image-keyboard-response,490,815604,learnblock2,654.1000000238419,img/planet10_left.png,10,Community 2,NA,TRUE,f,f,NA,NA,NA,1,7,"13,4,2,1,5,11,15,10,8,9,7,3,14,12,6"
15333,commdev-image-keyboard-response,491,816855,learnblock2,569.5,img/planet3_left.png,3,Community 3,NA,TRUE,f,f,NA,NA,NA,1,7,"13,4,2,1,5,11,15,10,8,9,7,3,14,12,6"
15333,commdev-image-keyboard-response,492,818106,learnblock2,646,img/planet6_right.png,6,Community 3,NA,TRUE,j,j,NA,NA,NA,1,7,"13,4,2,1,5,11,15,10,8,9,7,3,14,12,6"
15333,commdev-image-keyboard-response,493,819358,learnblock2,778.8999999761581,img/planet3_right.png,3,Community 3,NA,TRUE,j,j,NA,NA,NA,1,7,"13,4,2,1,5,11,15,10,8,9,7,3,14,12,6"
15333,commdev-image-keyboard-response,494,820610,learnblock2,838.8999999761581,img/planet14_right.png,14,Community 3,NA,TRUE,j,j,NA,NA,NA,1,7,"13,4,2,1,5,11,15,10,8,9,7,3,14,12,6"
15333,commdev-image-keyboard-response,495,821862,learnblock2,619,img/planet12_left.png,12,Community 3,NA,TRUE,f,f,NA,NA,NA,1,7,"13,4,2,1,5,11,15,10,8,9,7,3,14,12,6"
15333,commdev-image-keyboard-response,496,823114,learnblock2,559.1000000238419,img/planet6_left.png,6,Community 3,NA,TRUE,f,f,NA,NA,NA,1,7,"13,4,2,1,5,11,15,10,8,9,7,3,14,12,6"
15333,commdev-image-keyboard-response,497,824367,learnblock2,627,img/planet14_left.png,14,Community 3,NA,TRUE,f,f,NA,NA,NA,1,7,"13,4,2,1,5,11,15,10,8,9,7,3,14,12,6"
15333,commdev-image-keyboard-response,498,825618,learnblock2,838.3999999761581,img/planet6_right.png,6,Community 3,NA,TRUE,j,j,NA,NA,NA,1,7,"13,4,2,1,5,11,15,10,8,9,7,3,14,12,6"
15333,commdev-image-keyboard-response,499,826870,learnblock2,811.1000000238419,img/planet7_left.png,7,Community 3,NA,TRUE,f,f,NA,NA,NA,1,7,"13,4,2,1,5,11,15,10,8,9,7,3,14,12,6"
15333,commdev-image-keyboard-response,500,828121,learnblock2,767.3000000715256,img/planet14_left.png,14,Community 3,NA,TRUE,f,f,NA,NA,NA,1,7,"13,4,2,1,5,11,15,10,8,9,7,3,14,12,6"
15333,commdev-image-keyboard-response,501,829373,learnblock2,756.2000000476837,img/planet3_right.png,3,Community 3,NA,TRUE,j,j,NA,NA,NA,1,7,"13,4,2,1,5,11,15,10,8,9,7,3,14,12,6"
15333,commdev-image-keyboard-response,502,830624,learnblock2,744.5,img/planet14_left.png,14,Community 3,NA,TRUE,f,f,NA,NA,NA,1,7,"13,4,2,1,5,11,15,10,8,9,7,3,14,12,6"
15333,commdev-image-keyboard-response,503,831875,learnblock2,693.5,img/planet12_right.png,12,Community 3,NA,TRUE,j,j,NA,NA,NA,1,7,"13,4,2,1,5,11,15,10,8,9,7,3,14,12,6"
15333,commdev-image-keyboard-response,504,833126,learnblock2,617.7999999523163,img/planet3_left.png,3,Community 3,NA,TRUE,f,f,NA,NA,NA,1,7,"13,4,2,1,5,11,15,10,8,9,7,3,14,12,6"
15333,commdev-image-keyboard-response,505,834378,learnblock2,654.8999999761581,img/planet6_right.png,6,Community 3,NA,TRUE,j,j,NA,NA,NA,1,7,"13,4,2,1,5,11,15,10,8,9,7,3,14,12,6"
15333,commdev-image-keyboard-response,506,835630,learnblock2,571.3999999761581,img/planet3_right.png,3,Community 3,NA,FALSE,f,j,NA,NA,NA,1,7,"13,4,2,1,5,11,15,10,8,9,7,3,14,12,6"
15333,commdev-image-keyboard-response,507,836882,learnblock2,615.5999999046326,img/planet6_left.png,6,Community 3,NA,TRUE,f,f,NA,NA,NA,1,7,"13,4,2,1,5,11,15,10,8,9,7,3,14,12,6"
15333,commdev-image-keyboard-response,508,838133,learnblock2,1003.2000000476837,img/planet7_right.png,7,Community 3,NA,TRUE,j,j,NA,NA,NA,1,7,"13,4,2,1,5,11,15,10,8,9,7,3,14,12,6"
15333,commdev-image-keyboard-response,509,839385,learnblock2,839.6999999284744,img/planet12_right.png,12,Community 3,NA,TRUE,j,j,NA,NA,NA,1,7,"13,4,2,1,5,11,15,10,8,9,7,3,14,12,6"
15333,commdev-image-keyboard-response,510,840637,learnblock2,620.5,img/planet6_left.png,6,Community 3,NA,TRUE,f,f,NA,NA,NA,1,7,"13,4,2,1,5,11,15,10,8,9,7,3,14,12,6"
15333,commdev-image-keyboard-response,511,841889,learnblock2,623.8000000715256,img/planet12_left.png,12,Community 3,NA,TRUE,f,f,NA,NA,NA,1,7,"13,4,2,1,5,11,15,10,8,9,7,3,14,12,6"
15333,commdev-image-keyboard-response,512,843141,learnblock2,643.6999999284744,img/planet3_right.png,3,Community 3,NA,TRUE,j,j,NA,NA,NA,1,7,"13,4,2,1,5,11,15,10,8,9,7,3,14,12,6"
15333,commdev-image-keyboard-response,513,844394,learnblock2,623.9000000953674,img/planet10_right.png,10,Community 2,NA,TRUE,j,j,NA,NA,NA,1,7,"13,4,2,1,5,11,15,10,8,9,7,3,14,12,6"
15333,commdev-image-keyboard-response,514,845645,learnblock2,539.2000000476837,img/planet9_left.png,9,Community 2,NA,TRUE,f,f,NA,NA,NA,1,7,"13,4,2,1,5,11,15,10,8,9,7,3,14,12,6"
15333,commdev-image-keyboard-response,515,846897,learnblock2,471.60000002384186,img/planet11_left.png,11,Community 2,NA,TRUE,f,f,NA,NA,NA,1,7,"13,4,2,1,5,11,15,10,8,9,7,3,14,12,6"
15333,commdev-image-keyboard-response,516,848150,learnblock2,764,img/planet8_right.png,8,Community 2,NA,TRUE,j,j,NA,NA,NA,1,7,"13,4,2,1,5,11,15,10,8,9,7,3,14,12,6"
15333,commdev-image-keyboard-response,517,849401,learnblock2,1007.1999999284744,img/planet15_right.png,15,Community 2,NA,TRUE,j,j,NA,NA,NA,1,7,"13,4,2,1,5,11,15,10,8,9,7,3,14,12,6"
15333,commdev-image-keyboard-response,518,850652,learnblock2,524,img/planet10_left.png,10,Community 2,NA,TRUE,f,f,NA,NA,NA,1,7,"13,4,2,1,5,11,15,10,8,9,7,3,14,12,6"
15333,commdev-image-keyboard-response,519,851904,learnblock2,504.39999997615814,img/planet15_left.png,15,Community 2,NA,TRUE,f,f,NA,NA,NA,1,7,"13,4,2,1,5,11,15,10,8,9,7,3,14,12,6"
15333,commdev-image-keyboard-response,520,853156,learnblock2,596.8999999761581,img/planet11_right.png,11,Community 2,NA,TRUE,j,j,NA,NA,NA,1,7,"13,4,2,1,5,11,15,10,8,9,7,3,14,12,6"
15333,commdev-image-keyboard-response,521,854407,learnblock2,568.8999999761581,img/planet1_right.png,1,Community 1,NA,TRUE,j,j,NA,NA,NA,1,7,"13,4,2,1,5,11,15,10,8,9,7,3,14,12,6"
15333,commdev-image-keyboard-response,522,855659,learnblock2,533.7000000476837,img/planet2_left.png,2,Community 1,NA,FALSE,j,f,NA,NA,NA,1,7,"13,4,2,1,5,11,15,10,8,9,7,3,14,12,6"
15333,commdev-image-keyboard-response,523,856917,learnblock2,738,img/planet13_right.png,13,Community 1,NA,TRUE,j,j,NA,NA,NA,1,7,"13,4,2,1,5,11,15,10,8,9,7,3,14,12,6"
15333,commdev-image-keyboard-response,524,858169,learnblock2,671.9000000953674,img/planet4_left.png,4,Community 1,NA,TRUE,f,f,NA,NA,NA,1,7,"13,4,2,1,5,11,15,10,8,9,7,3,14,12,6"
15333,commdev-image-keyboard-response,525,859421,learnblock2,684.3999999761581,img/planet13_left.png,13,Community 1,NA,TRUE,f,f,NA,NA,NA,1,7,"13,4,2,1,5,11,15,10,8,9,7,3,14,12,6"
15333,commdev-image-keyboard-response,526,860672,learnblock2,704.4000000953674,img/planet2_right.png,2,Community 1,NA,TRUE,j,j,NA,NA,NA,1,7,"13,4,2,1,5,11,15,10,8,9,7,3,14,12,6"
15333,commdev-image-keyboard-response,527,861924,learnblock2,668.8000000715256,img/planet13_left.png,13,Community 1,NA,TRUE,f,f,NA,NA,NA,1,7,"13,4,2,1,5,11,15,10,8,9,7,3,14,12,6"
15333,commdev-image-keyboard-response,528,863176,learnblock2,705.2000000476837,img/planet5_right.png,5,Community 1,NA,TRUE,j,j,NA,NA,NA,1,7,"13,4,2,1,5,11,15,10,8,9,7,3,14,12,6"
15333,commdev-image-keyboard-response,529,864427,learnblock2,789.5999999046326,img/planet2_right.png,2,Community 1,NA,FALSE,f,j,NA,NA,NA,1,7,"13,4,2,1,5,11,15,10,8,9,7,3,14,12,6"
15333,commdev-image-keyboard-response,530,865678,learnblock2,626.5,img/planet4_right.png,4,Community 1,NA,TRUE,j,j,NA,NA,NA,1,7,"13,4,2,1,5,11,15,10,8,9,7,3,14,12,6"
15333,commdev-image-keyboard-response,531,866930,learnblock2,550.7000000476837,img/planet1_right.png,1,Community 1,NA,TRUE,j,j,NA,NA,NA,1,7,"13,4,2,1,5,11,15,10,8,9,7,3,14,12,6"
15333,commdev-image-keyboard-response,532,868182,learnblock2,515.3999999761581,img/planet11_right.png,11,Community 2,NA,TRUE,j,j,NA,NA,NA,1,7,"13,4,2,1,5,11,15,10,8,9,7,3,14,12,6"
15333,commdev-image-keyboard-response,533,869434,learnblock2,510.7000000476837,img/planet1_left.png,1,Community 1,NA,TRUE,f,f,NA,NA,NA,1,7,"13,4,2,1,5,11,15,10,8,9,7,3,14,12,6"
15333,commdev-image-keyboard-response,534,870686,learnblock2,379,img/planet2_right.png,2,Community 1,NA,TRUE,j,j,NA,NA,NA,1,7,"13,4,2,1,5,11,15,10,8,9,7,3,14,12,6"
15333,commdev-image-keyboard-response,535,871938,learnblock2,463.10000002384186,img/planet4_left.png,4,Community 1,NA,TRUE,f,f,NA,NA,NA,1,7,"13,4,2,1,5,11,15,10,8,9,7,3,14,12,6"
15333,commdev-image-keyboard-response,536,873189,learnblock2,443,img/planet5_left.png,5,Community 1,NA,FALSE,j,f,NA,NA,NA,1,7,"13,4,2,1,5,11,15,10,8,9,7,3,14,12,6"
15333,commdev-image-keyboard-response,537,874441,learnblock2,599.7000000476837,img/planet7_left.png,7,Community 3,NA,FALSE,j,f,NA,NA,NA,1,7,"13,4,2,1,5,11,15,10,8,9,7,3,14,12,6"
15333,commdev-image-keyboard-response,538,875694,learnblock2,612,img/planet14_left.png,14,Community 3,NA,TRUE,f,f,NA,NA,NA,1,7,"13,4,2,1,5,11,15,10,8,9,7,3,14,12,6"
15333,commdev-image-keyboard-response,539,876945,learnblock2,719,img/planet12_left.png,12,Community 3,NA,TRUE,f,f,NA,NA,NA,1,7,"13,4,2,1,5,11,15,10,8,9,7,3,14,12,6"
15333,commdev-image-keyboard-response,540,878197,learnblock2,843.7000000476837,img/planet14_left.png,14,Community 3,NA,FALSE,j,f,NA,NA,NA,1,7,"13,4,2,1,5,11,15,10,8,9,7,3,14,12,6"
15333,commdev-image-keyboard-response,541,879455,learnblock2,1128.2000000476837,img/planet7_right.png,7,Community 3,NA,TRUE,j,j,NA,NA,NA,1,7,"13,4,2,1,5,11,15,10,8,9,7,3,14,12,6"
15333,commdev-image-keyboard-response,542,880707,learnblock2,757.6000000238419,img/planet14_left.png,14,Community 3,NA,TRUE,f,f,NA,NA,NA,1,7,"13,4,2,1,5,11,15,10,8,9,7,3,14,12,6"
15333,commdev-image-keyboard-response,543,881959,learnblock2,610,img/planet3_right.png,3,Community 3,NA,TRUE,j,j,NA,NA,NA,1,7,"13,4,2,1,5,11,15,10,8,9,7,3,14,12,6"
15333,commdev-image-keyboard-response,544,883211,learnblock2,598.1000000238419,img/planet6_left.png,6,Community 3,NA,TRUE,f,f,NA,NA,NA,1,7,"13,4,2,1,5,11,15,10,8,9,7,3,14,12,6"
15333,commdev-image-keyboard-response,545,884462,learnblock2,561.7999999523163,img/planet7_left.png,7,Community 3,NA,TRUE,f,f,NA,NA,NA,1,7,"13,4,2,1,5,11,15,10,8,9,7,3,14,12,6"
15333,commdev-image-keyboard-response,546,885714,learnblock2,510.5,img/planet6_left.png,6,Community 3,NA,TRUE,f,f,NA,NA,NA,1,7,"13,4,2,1,5,11,15,10,8,9,7,3,14,12,6"
15333,commdev-image-keyboard-response,547,886965,learnblock2,627.1000000238419,img/planet3_right.png,3,Community 3,NA,TRUE,j,j,NA,NA,NA,1,7,"13,4,2,1,5,11,15,10,8,9,7,3,14,12,6"
15333,commdev-image-keyboard-response,548,888217,learnblock2,527.3999999761581,img/planet6_left.png,6,Community 3,NA,TRUE,f,f,NA,NA,NA,1,7,"13,4,2,1,5,11,15,10,8,9,7,3,14,12,6"
15333,commdev-image-keyboard-response,549,889469,learnblock2,516,img/planet7_left.png,7,Community 3,NA,TRUE,f,f,NA,NA,NA,1,7,"13,4,2,1,5,11,15,10,8,9,7,3,14,12,6"
15333,commdev-image-keyboard-response,550,890720,learnblock2,600,img/planet5_right.png,5,Community 1,NA,TRUE,j,j,NA,NA,NA,1,7,"13,4,2,1,5,11,15,10,8,9,7,3,14,12,6"
15333,commdev-image-keyboard-response,551,891972,learnblock2,605,img/planet2_right.png,2,Community 1,NA,TRUE,j,j,NA,NA,NA,1,7,"13,4,2,1,5,11,15,10,8,9,7,3,14,12,6"
15333,commdev-image-keyboard-response,552,893223,learnblock2,656.7000000476837,img/planet5_left.png,5,Community 1,NA,TRUE,f,f,NA,NA,NA,1,7,"13,4,2,1,5,11,15,10,8,9,7,3,14,12,6"
15333,commdev-image-keyboard-response,553,894475,learnblock2,693.1999999284744,img/planet13_left.png,13,Community 1,NA,TRUE,f,f,NA,NA,NA,1,7,"13,4,2,1,5,11,15,10,8,9,7,3,14,12,6"
15333,commdev-image-keyboard-response,554,895727,learnblock2,530,img/planet4_left.png,4,Community 1,NA,TRUE,f,f,NA,NA,NA,1,7,"13,4,2,1,5,11,15,10,8,9,7,3,14,12,6"
15333,commdev-image-keyboard-response,555,896979,learnblock2,566.4000000953674,img/planet2_left.png,2,Community 1,NA,TRUE,f,f,NA,NA,NA,1,7,"13,4,2,1,5,11,15,10,8,9,7,3,14,12,6"
15333,commdev-image-keyboard-response,556,898231,learnblock2,497.7999999523163,img/planet1_right.png,1,Community 1,NA,TRUE,j,j,NA,NA,NA,1,7,"13,4,2,1,5,11,15,10,8,9,7,3,14,12,6"
15333,commdev-image-keyboard-response,557,899482,learnblock2,534,img/planet13_left.png,13,Community 1,NA,TRUE,f,f,NA,NA,NA,1,7,"13,4,2,1,5,11,15,10,8,9,7,3,14,12,6"
15333,commdev-image-keyboard-response,558,900734,learnblock2,482.1999999284744,img/planet4_left.png,4,Community 1,NA,TRUE,f,f,NA,NA,NA,1,7,"13,4,2,1,5,11,15,10,8,9,7,3,14,12,6"
15333,commdev-image-keyboard-response,559,901995,learnblock2,479.09999990463257,img/planet2_right.png,2,Community 1,NA,TRUE,j,j,NA,NA,NA,1,7,"13,4,2,1,5,11,15,10,8,9,7,3,14,12,6"
15333,commdev-image-keyboard-response,560,903246,learnblock2,465.59999990463257,img/planet5_right.png,5,Community 1,NA,TRUE,j,j,NA,NA,NA,1,7,"13,4,2,1,5,11,15,10,8,9,7,3,14,12,6"
15333,commdev-image-keyboard-response,561,904497,learnblock2,430.60000002384186,img/planet7_right.png,7,Community 3,NA,FALSE,f,j,NA,NA,NA,1,7,"13,4,2,1,5,11,15,10,8,9,7,3,14,12,6"
15333,commdev-image-keyboard-response,562,905748,learnblock2,604.3999999761581,img/planet5_left.png,5,Community 1,NA,TRUE,f,f,NA,NA,NA,1,7,"13,4,2,1,5,11,15,10,8,9,7,3,14,12,6"
15333,commdev-image-keyboard-response,563,907000,learnblock2,496.2000000476837,img/planet2_left.png,2,Community 1,NA,TRUE,f,f,NA,NA,NA,1,7,"13,4,2,1,5,11,15,10,8,9,7,3,14,12,6"
15333,commdev-image-keyboard-response,564,908251,learnblock2,557,img/planet5_right.png,5,Community 1,NA,TRUE,j,j,NA,NA,NA,1,7,"13,4,2,1,5,11,15,10,8,9,7,3,14,12,6"
15333,commdev-image-keyboard-response,565,909503,learnblock2,585.0999999046326,img/planet13_right.png,13,Community 1,NA,TRUE,j,j,NA,NA,NA,1,7,"13,4,2,1,5,11,15,10,8,9,7,3,14,12,6"
15333,commdev-image-keyboard-response,566,910754,learnblock2,557.5,img/planet2_left.png,2,Community 1,NA,TRUE,f,f,NA,NA,NA,1,7,"13,4,2,1,5,11,15,10,8,9,7,3,14,12,6"
15333,commdev-image-keyboard-response,567,912006,learnblock2,738.1000000238419,img/planet13_right.png,13,Community 1,NA,FALSE,f,j,NA,NA,NA,1,7,"13,4,2,1,5,11,15,10,8,9,7,3,14,12,6"
15333,commdev-image-keyboard-response,568,913258,learnblock2,974,img/planet4_right.png,4,Community 1,NA,TRUE,j,j,NA,NA,NA,1,7,"13,4,2,1,5,11,15,10,8,9,7,3,14,12,6"
15333,commdev-image-keyboard-response,569,914509,learnblock2,762.4000000953674,img/planet13_right.png,13,Community 1,NA,TRUE,j,j,NA,NA,NA,1,7,"13,4,2,1,5,11,15,10,8,9,7,3,14,12,6"
15333,commdev-image-keyboard-response,570,915760,learnblock2,735.2999999523163,img/planet5_left.png,5,Community 1,NA,TRUE,f,f,NA,NA,NA,1,7,"13,4,2,1,5,11,15,10,8,9,7,3,14,12,6"
15333,commdev-image-keyboard-response,571,917013,learnblock2,796.1000000238419,img/planet7_right.png,7,Community 3,NA,TRUE,j,j,NA,NA,NA,1,7,"13,4,2,1,5,11,15,10,8,9,7,3,14,12,6"
15333,commdev-image-keyboard-response,572,918264,learnblock2,639.6000000238419,img/planet12_left.png,12,Community 3,NA,TRUE,f,f,NA,NA,NA,1,7,"13,4,2,1,5,11,15,10,8,9,7,3,14,12,6"
15333,commdev-image-keyboard-response,573,919515,learnblock2,636.7000000476837,img/planet7_right.png,7,Community 3,NA,TRUE,j,j,NA,NA,NA,1,7,"13,4,2,1,5,11,15,10,8,9,7,3,14,12,6"
15333,commdev-image-keyboard-response,574,920767,learnblock2,521.3999999761581,img/planet5_right.png,5,Community 1,NA,TRUE,j,j,NA,NA,NA,1,7,"13,4,2,1,5,11,15,10,8,9,7,3,14,12,6"
15333,commdev-image-keyboard-response,575,922018,learnblock2,645.8000000715256,img/planet2_right.png,2,Community 1,NA,TRUE,j,j,NA,NA,NA,1,7,"13,4,2,1,5,11,15,10,8,9,7,3,14,12,6"
15333,commdev-image-keyboard-response,576,923269,learnblock2,618.3000000715256,img/planet5_right.png,5,Community 1,NA,TRUE,j,j,NA,NA,NA,1,7,"13,4,2,1,5,11,15,10,8,9,7,3,14,12,6"
15333,commdev-image-keyboard-response,577,924521,learnblock2,791.1000000238419,img/planet7_right.png,7,Community 3,NA,TRUE,j,j,NA,NA,NA,1,7,"13,4,2,1,5,11,15,10,8,9,7,3,14,12,6"
15333,commdev-image-keyboard-response,578,925773,learnblock2,563.3999999761581,img/planet5_right.png,5,Community 1,NA,TRUE,j,j,NA,NA,NA,1,7,"13,4,2,1,5,11,15,10,8,9,7,3,14,12,6"
15333,commdev-image-keyboard-response,579,927024,learnblock2,623.8000000715256,img/planet4_right.png,4,Community 1,NA,TRUE,j,j,NA,NA,NA,1,7,"13,4,2,1,5,11,15,10,8,9,7,3,14,12,6"
15333,commdev-image-keyboard-response,580,928275,learnblock2,595.7999999523163,img/planet2_left.png,2,Community 1,NA,TRUE,f,f,NA,NA,NA,1,7,"13,4,2,1,5,11,15,10,8,9,7,3,14,12,6"
15333,commdev-image-keyboard-response,581,929527,learnblock2,593,img/planet13_right.png,13,Community 1,NA,TRUE,j,j,NA,NA,NA,1,7,"13,4,2,1,5,11,15,10,8,9,7,3,14,12,6"
15333,commdev-image-keyboard-response,582,930779,learnblock2,693.1000000238419,img/planet4_right.png,4,Community 1,NA,TRUE,j,j,NA,NA,NA,1,7,"13,4,2,1,5,11,15,10,8,9,7,3,14,12,6"
15333,commdev-image-keyboard-response,583,932030,learnblock2,825.2000000476837,img/planet13_right.png,13,Community 1,NA,TRUE,j,j,NA,NA,NA,1,7,"13,4,2,1,5,11,15,10,8,9,7,3,14,12,6"
15333,commdev-image-keyboard-response,584,933282,learnblock2,678.1000000238419,img/planet4_left.png,4,Community 1,NA,TRUE,f,f,NA,NA,NA,1,7,"13,4,2,1,5,11,15,10,8,9,7,3,14,12,6"
15333,commdev-image-keyboard-response,585,934534,learnblock2,698.7000000476837,img/planet1_right.png,1,Community 1,NA,TRUE,j,j,NA,NA,NA,1,7,"13,4,2,1,5,11,15,10,8,9,7,3,14,12,6"
15333,commdev-image-keyboard-response,586,935786,learnblock2,582.6000000238419,img/planet4_right.png,4,Community 1,NA,TRUE,j,j,NA,NA,NA,1,7,"13,4,2,1,5,11,15,10,8,9,7,3,14,12,6"
