subject_id,trial_type,trial_index,time_elapsed,block,rt,stimulus,planet,community,response,correct,key_press,learning_correct_response,parse,init_locations,final_locations,browser_interactions,num_comp,planet_map
14268,commdev-instructions,7,22101,NA,775.5,"<p>In this game, you are a scientist on board a space shuttle. </p><p> On each mission, you will visit planets all across the universe.</p><img src=""img/controlroom.jpg"" width=300vw>",NA,NA,NA,NA,NA,NA,NA,NA,NA,1,6,"5,12,1,10,9,14,2,11,15,13,7,4,8,6,3"
14268,commdev-instructions,8,24613,NA,437.6999999284744,"<p>Here are a few planets you might see:</p><img src=""img/practice1.png"" width=200vw><img src=""img/practice2.png"" width=200vw><img src=""img/practice3.png"" width=200vw>",NA,NA,NA,NA,NA,NA,NA,NA,NA,1,6,"5,12,1,10,9,14,2,11,15,13,7,4,8,6,3"
14268,commdev-instructions,9,32719,NA,703.8000000715256,"<p>Your job as a scientist is to record which direction the winds are moving on each planet.</p><p>There are two types of wind directions:</p><img src=""img/practice1_left.png"" width=200vw><img src=""img/practice1_right.png"" width=200vw>",NA,NA,NA,NA,NA,NA,NA,NA,NA,1,6,"5,12,1,10,9,14,2,11,15,13,7,4,8,6,3"
14268,commdev-instructions,10,38123,NA,527.5,"<p>If the winds are moving this way, press the letter <strong>F</strong> on the keyboard as fast as you can.</p><img src=""img/leftwind.png"" width=250vw>",NA,NA,NA,NA,NA,NA,NA,NA,NA,1,6,"5,12,1,10,9,14,2,11,15,13,7,4,8,6,3"
14268,commdev-instructions,11,43005,NA,398.60000002384186,"<p>If the winds are moving this way, press the letter <strong>J</strong> on the keyboard as fast as you can.</p><img src=""img/rightwind.png"" width=350vw>",NA,NA,NA,NA,NA,NA,NA,NA,NA,1,6,"5,12,1,10,9,14,2,11,15,13,7,4,8,6,3"
14268,commdev-instructions,12,57500,NA,10074.899999976158,<p>You will have 1 second to respond. Try to respond before the time runs out!,NA,NA,NA,NA,NA,NA,NA,NA,NA,1,6,"5,12,1,10,9,14,2,11,15,13,7,4,8,6,3"
14268,commdev-instructions,13,64940,NA,2005,<p>The planets you will visit will look different from each other.</p><p>You should respond <strong>only</strong> based on wind direction.,NA,NA,NA,NA,NA,NA,NA,NA,NA,1,6,"5,12,1,10,9,14,2,11,15,13,7,4,8,6,3"
14268,commdev-instructions,14,71736,NA,1621.0999999046326,"<p> Ready to start the practice round? </p><p> Remember, press <strong>F</strong> or <strong>J</strong> depending on the wind direction.<br><img src=""img/categorize_planet_example.png""",NA,NA,NA,NA,NA,NA,NA,NA,NA,1,6,"5,12,1,10,9,14,2,11,15,13,7,4,8,6,3"
14268,commdev-instructions,26,123076,NA,2164.899999976158,"<p>Great, now try a short practice mission. </p><p> This time, you will have 1 second to respond and you won't know whether you pressed the right or wrong key for each planet.</p>",NA,NA,NA,NA,NA,NA,NA,NA,NA,1,6,"5,12,1,10,9,14,2,11,15,13,7,4,8,6,3"
14268,commdev-image-keyboard-response,27,124451,practice,1046.3999999761581,img/practice3_left.png,NA,Number not found in mappings,NA,TRUE,f,f,NA,NA,NA,1,6,"5,12,1,10,9,14,2,11,15,13,7,4,8,6,3"
14268,commdev-image-keyboard-response,28,125704,practice,858.8999999761581,img/practice4_right.png,NA,Number not found in mappings,NA,TRUE,j,j,NA,NA,NA,1,6,"5,12,1,10,9,14,2,11,15,13,7,4,8,6,3"
14268,commdev-image-keyboard-response,29,126971,practice,532.5,img/practice1_left.png,NA,Number not found in mappings,NA,TRUE,f,f,NA,NA,NA,1,6,"5,12,1,10,9,14,2,11,15,13,7,4,8,6,3"
14268,commdev-image-keyboard-response,30,128223,practice,547,img/practice2_right.png,NA,Number not found in mappings,NA,TRUE,j,j,NA,NA,NA,1,6,"5,12,1,10,9,14,2,11,15,13,7,4,8,6,3"
14268,commdev-image-keyboard-response,31,129486,practice,666.7999999523163,img/practice3_right.png,NA,Number not found in mappings,NA,TRUE,j,j,NA,NA,NA,1,6,"5,12,1,10,9,14,2,11,15,13,7,4,8,6,3"
14268,commdev-image-keyboard-response,32,130750,practice,539.3000000715256,img/practice1_right.png,NA,Number not found in mappings,NA,TRUE,j,j,NA,NA,NA,1,6,"5,12,1,10,9,14,2,11,15,13,7,4,8,6,3"
14268,commdev-image-keyboard-response,33,132014,practice,573.7999999523163,img/practice2_right.png,NA,Number not found in mappings,NA,TRUE,j,j,NA,NA,NA,1,6,"5,12,1,10,9,14,2,11,15,13,7,4,8,6,3"
14268,commdev-image-keyboard-response,34,133280,practice,490.10000002384186,img/practice1_left.png,NA,Number not found in mappings,NA,TRUE,f,f,NA,NA,NA,1,6,"5,12,1,10,9,14,2,11,15,13,7,4,8,6,3"
14268,commdev-instructions,35,144261,NA,1430.3000000715256,"<p>Great job with the practice round.</p><p>During real missions, you won't know whether you pressed the right or wrong key for each planet.</p><p>But between missions, we will tell you how you did overall.</p>",NA,NA,NA,NA,NA,NA,NA,NA,NA,1,6,"5,12,1,10,9,14,2,11,15,13,7,4,8,6,3"
14268,commdev-instructions,36,154000,NA,1489.0999999046326,<p>Try your best! You will be paid a bonus based on how many correct responses you make!</p><p>Responses that are too slow will not count toward your bonus.</p>,NA,NA,NA,NA,NA,NA,NA,NA,NA,1,6,"5,12,1,10,9,14,2,11,15,13,7,4,8,6,3"
14268,commdev-instructions,37,160767,NA,565.9000000953674,"<p>You are almost ready to start the real game.</p><p> First, we are going to ask you some questions about how the game works.</p>",NA,NA,NA,NA,NA,NA,NA,NA,NA,1,6,"5,12,1,10,9,14,2,11,15,13,7,4,8,6,3"
14268,commdev-instructions,46,238408,NA,1137.3999999761581,"<p> Nice work! It is now time to start the real game.<p></p>You will go on two missions to record wind directions of different planets.<p></p>Each one will take about 5 minutes. You will get to take a break between missions.<p><p> Remember, press <strong>F</strong> or <strong>J</strong> depending on the wind direction. Good luck!<br><img src=""img/categorize_planet_example.png""",NA,NA,NA,NA,NA,NA,NA,NA,NA,1,6,"5,12,1,10,9,14,2,11,15,13,7,4,8,6,3"
14268,commdev-image-keyboard-response,48,245001,learnblock1,703,img/planet10_left.png,10,Community 1,NA,TRUE,f,f,NA,NA,NA,1,6,"5,12,1,10,9,14,2,11,15,13,7,4,8,6,3"
14268,commdev-image-keyboard-response,49,246262,learnblock1,631.5,img/planet5_right.png,5,Community 1,NA,TRUE,j,j,NA,NA,NA,1,6,"5,12,1,10,9,14,2,11,15,13,7,4,8,6,3"
14268,commdev-image-keyboard-response,50,247524,learnblock1,618.1000000238419,img/planet10_right.png,10,Community 1,NA,TRUE,j,j,NA,NA,NA,1,6,"5,12,1,10,9,14,2,11,15,13,7,4,8,6,3"
14268,commdev-image-keyboard-response,51,248780,learnblock1,554.7000000476837,img/planet14_right.png,14,Community 2,NA,TRUE,j,j,NA,NA,NA,1,6,"5,12,1,10,9,14,2,11,15,13,7,4,8,6,3"
14268,commdev-image-keyboard-response,52,250046,learnblock1,761.3000000715256,img/planet13_right.png,13,Community 2,NA,TRUE,j,j,NA,NA,NA,1,6,"5,12,1,10,9,14,2,11,15,13,7,4,8,6,3"
14268,commdev-image-keyboard-response,53,251305,learnblock1,623.5,img/planet15_right.png,15,Community 2,NA,TRUE,j,j,NA,NA,NA,1,6,"5,12,1,10,9,14,2,11,15,13,7,4,8,6,3"
14268,commdev-image-keyboard-response,54,252562,learnblock1,683.3999999761581,img/planet14_right.png,14,Community 2,NA,TRUE,j,j,NA,NA,NA,1,6,"5,12,1,10,9,14,2,11,15,13,7,4,8,6,3"
14268,commdev-image-keyboard-response,55,253828,learnblock1,504.1999999284744,img/planet10_left.png,10,Community 1,NA,TRUE,f,f,NA,NA,NA,1,6,"5,12,1,10,9,14,2,11,15,13,7,4,8,6,3"
14268,commdev-image-keyboard-response,56,255092,learnblock1,523.8999999761581,img/planet12_left.png,12,Community 1,NA,TRUE,f,f,NA,NA,NA,1,6,"5,12,1,10,9,14,2,11,15,13,7,4,8,6,3"
14268,commdev-image-keyboard-response,57,256355,learnblock1,527.7000000476837,img/planet9_left.png,9,Community 1,NA,TRUE,f,f,NA,NA,NA,1,6,"5,12,1,10,9,14,2,11,15,13,7,4,8,6,3"
14268,commdev-image-keyboard-response,58,257616,learnblock1,395.8000000715256,img/planet12_left.png,12,Community 1,NA,TRUE,f,f,NA,NA,NA,1,6,"5,12,1,10,9,14,2,11,15,13,7,4,8,6,3"
14268,commdev-image-keyboard-response,59,258877,learnblock1,487.7000000476837,img/planet10_left.png,10,Community 1,NA,TRUE,f,f,NA,NA,NA,1,6,"5,12,1,10,9,14,2,11,15,13,7,4,8,6,3"
14268,commdev-image-keyboard-response,60,260141,learnblock1,668.6999999284744,img/planet1_right.png,1,Community 1,NA,TRUE,j,j,NA,NA,NA,1,6,"5,12,1,10,9,14,2,11,15,13,7,4,8,6,3"
14268,commdev-image-keyboard-response,61,261405,learnblock1,503.7000000476837,img/planet9_right.png,9,Community 1,NA,TRUE,j,j,NA,NA,NA,1,6,"5,12,1,10,9,14,2,11,15,13,7,4,8,6,3"
14268,commdev-image-keyboard-response,62,262658,learnblock1,525.8999999761581,img/planet1_right.png,1,Community 1,NA,TRUE,j,j,NA,NA,NA,1,6,"5,12,1,10,9,14,2,11,15,13,7,4,8,6,3"
14268,commdev-image-keyboard-response,63,263924,learnblock1,503.10000002384186,img/planet12_right.png,12,Community 1,NA,TRUE,j,j,NA,NA,NA,1,6,"5,12,1,10,9,14,2,11,15,13,7,4,8,6,3"
14268,commdev-image-keyboard-response,64,265185,learnblock1,518.0999999046326,img/planet5_left.png,5,Community 1,NA,TRUE,f,f,NA,NA,NA,1,6,"5,12,1,10,9,14,2,11,15,13,7,4,8,6,3"
14268,commdev-image-keyboard-response,65,266450,learnblock1,425.1999999284744,img/planet12_left.png,12,Community 1,NA,TRUE,f,f,NA,NA,NA,1,6,"5,12,1,10,9,14,2,11,15,13,7,4,8,6,3"
14268,commdev-image-keyboard-response,66,267701,learnblock1,491.8000000715256,img/planet5_right.png,5,Community 1,NA,TRUE,j,j,NA,NA,NA,1,6,"5,12,1,10,9,14,2,11,15,13,7,4,8,6,3"
14268,commdev-image-keyboard-response,67,268954,learnblock1,465.7999999523163,img/planet12_left.png,12,Community 1,NA,TRUE,f,f,NA,NA,NA,1,6,"5,12,1,10,9,14,2,11,15,13,7,4,8,6,3"
14268,commdev-image-keyboard-response,68,270206,learnblock1,473,img/planet10_right.png,10,Community 1,NA,TRUE,j,j,NA,NA,NA,1,6,"5,12,1,10,9,14,2,11,15,13,7,4,8,6,3"
14268,commdev-image-keyboard-response,69,271458,learnblock1,526.3999999761581,img/planet14_right.png,14,Community 2,NA,TRUE,j,j,NA,NA,NA,1,6,"5,12,1,10,9,14,2,11,15,13,7,4,8,6,3"
14268,commdev-image-keyboard-response,70,272709,learnblock1,506,img/planet10_left.png,10,Community 1,NA,TRUE,f,f,NA,NA,NA,1,6,"5,12,1,10,9,14,2,11,15,13,7,4,8,6,3"
14268,commdev-image-keyboard-response,71,273961,learnblock1,594,img/planet14_left.png,14,Community 2,NA,TRUE,f,f,NA,NA,NA,1,6,"5,12,1,10,9,14,2,11,15,13,7,4,8,6,3"
14268,commdev-image-keyboard-response,72,275213,learnblock1,541.7000000476837,img/planet13_left.png,13,Community 2,NA,TRUE,f,f,NA,NA,NA,1,6,"5,12,1,10,9,14,2,11,15,13,7,4,8,6,3"
14268,commdev-image-keyboard-response,73,276464,learnblock1,554.2999999523163,img/planet14_left.png,14,Community 2,NA,TRUE,f,f,NA,NA,NA,1,6,"5,12,1,10,9,14,2,11,15,13,7,4,8,6,3"
14268,commdev-image-keyboard-response,74,277715,learnblock1,500.2000000476837,img/planet13_left.png,13,Community 2,NA,TRUE,f,f,NA,NA,NA,1,6,"5,12,1,10,9,14,2,11,15,13,7,4,8,6,3"
14268,commdev-image-keyboard-response,75,278967,learnblock1,498.39999997615814,img/planet11_left.png,11,Community 2,NA,TRUE,f,f,NA,NA,NA,1,6,"5,12,1,10,9,14,2,11,15,13,7,4,8,6,3"
14268,commdev-image-keyboard-response,76,280219,learnblock1,451.89999997615814,img/planet15_left.png,15,Community 2,NA,TRUE,f,f,NA,NA,NA,1,6,"5,12,1,10,9,14,2,11,15,13,7,4,8,6,3"
14268,commdev-image-keyboard-response,77,281470,learnblock1,433.10000002384186,img/planet2_left.png,2,Community 2,NA,TRUE,f,f,NA,NA,NA,1,6,"5,12,1,10,9,14,2,11,15,13,7,4,8,6,3"
14268,commdev-image-keyboard-response,78,282721,learnblock1,493.60000002384186,img/planet13_right.png,13,Community 2,NA,TRUE,j,j,NA,NA,NA,1,6,"5,12,1,10,9,14,2,11,15,13,7,4,8,6,3"
14268,commdev-image-keyboard-response,79,283973,learnblock1,437.60000002384186,img/planet11_left.png,11,Community 2,NA,TRUE,f,f,NA,NA,NA,1,6,"5,12,1,10,9,14,2,11,15,13,7,4,8,6,3"
14268,commdev-image-keyboard-response,80,285224,learnblock1,431.2000000476837,img/planet13_right.png,13,Community 2,NA,TRUE,j,j,NA,NA,NA,1,6,"5,12,1,10,9,14,2,11,15,13,7,4,8,6,3"
14268,commdev-image-keyboard-response,81,286476,learnblock1,512.8999999761581,img/planet11_right.png,11,Community 2,NA,TRUE,j,j,NA,NA,NA,1,6,"5,12,1,10,9,14,2,11,15,13,7,4,8,6,3"
14268,commdev-image-keyboard-response,82,287727,learnblock1,480.7999999523163,img/planet4_right.png,4,Community 3,NA,TRUE,j,j,NA,NA,NA,1,6,"5,12,1,10,9,14,2,11,15,13,7,4,8,6,3"
14268,commdev-image-keyboard-response,83,288979,learnblock1,406.60000002384186,img/planet11_right.png,11,Community 2,NA,TRUE,j,j,NA,NA,NA,1,6,"5,12,1,10,9,14,2,11,15,13,7,4,8,6,3"
14268,commdev-image-keyboard-response,84,290230,learnblock1,459.39999997615814,img/planet2_left.png,2,Community 2,NA,TRUE,f,f,NA,NA,NA,1,6,"5,12,1,10,9,14,2,11,15,13,7,4,8,6,3"
14268,commdev-image-keyboard-response,85,291484,learnblock1,418.8000000715256,img/planet15_right.png,15,Community 2,NA,TRUE,j,j,NA,NA,NA,1,6,"5,12,1,10,9,14,2,11,15,13,7,4,8,6,3"
14268,commdev-image-keyboard-response,86,292735,learnblock1,464.2999999523163,img/planet2_left.png,2,Community 2,NA,TRUE,f,f,NA,NA,NA,1,6,"5,12,1,10,9,14,2,11,15,13,7,4,8,6,3"
14268,commdev-image-keyboard-response,87,293986,learnblock1,688.5,img/planet14_left.png,14,Community 2,NA,TRUE,f,f,NA,NA,NA,1,6,"5,12,1,10,9,14,2,11,15,13,7,4,8,6,3"
14268,commdev-image-keyboard-response,88,295237,learnblock1,490.2000000476837,img/planet15_left.png,15,Community 2,NA,TRUE,f,f,NA,NA,NA,1,6,"5,12,1,10,9,14,2,11,15,13,7,4,8,6,3"
14268,commdev-image-keyboard-response,89,296488,learnblock1,498.89999997615814,img/planet11_left.png,11,Community 2,NA,TRUE,f,f,NA,NA,NA,1,6,"5,12,1,10,9,14,2,11,15,13,7,4,8,6,3"
14268,commdev-image-keyboard-response,90,297750,learnblock1,521.7999999523163,img/planet15_right.png,15,Community 2,NA,TRUE,j,j,NA,NA,NA,1,6,"5,12,1,10,9,14,2,11,15,13,7,4,8,6,3"
14268,commdev-image-keyboard-response,91,299001,learnblock1,577.4000000953674,img/planet13_right.png,13,Community 2,NA,TRUE,j,j,NA,NA,NA,1,6,"5,12,1,10,9,14,2,11,15,13,7,4,8,6,3"
14268,commdev-image-keyboard-response,92,300252,learnblock1,511.39999997615814,img/planet2_left.png,2,Community 2,NA,TRUE,f,f,NA,NA,NA,1,6,"5,12,1,10,9,14,2,11,15,13,7,4,8,6,3"
14268,commdev-image-keyboard-response,93,301503,learnblock1,536.5,img/planet15_right.png,15,Community 2,NA,TRUE,j,j,NA,NA,NA,1,6,"5,12,1,10,9,14,2,11,15,13,7,4,8,6,3"
14268,commdev-image-keyboard-response,94,302755,learnblock1,704.1999999284744,img/planet2_left.png,2,Community 2,NA,TRUE,f,f,NA,NA,NA,1,6,"5,12,1,10,9,14,2,11,15,13,7,4,8,6,3"
14268,commdev-image-keyboard-response,95,304007,learnblock1,539.6999999284744,img/planet13_left.png,13,Community 2,NA,TRUE,f,f,NA,NA,NA,1,6,"5,12,1,10,9,14,2,11,15,13,7,4,8,6,3"
14268,commdev-image-keyboard-response,96,305258,learnblock1,466.7999999523163,img/planet15_left.png,15,Community 2,NA,TRUE,f,f,NA,NA,NA,1,6,"5,12,1,10,9,14,2,11,15,13,7,4,8,6,3"
14268,commdev-image-keyboard-response,97,306509,learnblock1,588.0999999046326,img/planet13_left.png,13,Community 2,NA,TRUE,f,f,NA,NA,NA,1,6,"5,12,1,10,9,14,2,11,15,13,7,4,8,6,3"
14268,commdev-image-keyboard-response,98,307761,learnblock1,453.09999990463257,img/planet14_left.png,14,Community 2,NA,TRUE,f,f,NA,NA,NA,1,6,"5,12,1,10,9,14,2,11,15,13,7,4,8,6,3"
14268,commdev-image-keyboard-response,99,309013,learnblock1,454.60000002384186,img/planet13_left.png,13,Community 2,NA,TRUE,f,f,NA,NA,NA,1,6,"5,12,1,10,9,14,2,11,15,13,7,4,8,6,3"
14268,commdev-image-keyboard-response,100,310264,learnblock1,426.7000000476837,img/planet11_right.png,11,Community 2,NA,TRUE,j,j,NA,NA,NA,1,6,"5,12,1,10,9,14,2,11,15,13,7,4,8,6,3"
14268,commdev-image-keyboard-response,101,311517,learnblock1,476.89999997615814,img/planet15_right.png,15,Community 2,NA,TRUE,j,j,NA,NA,NA,1,6,"5,12,1,10,9,14,2,11,15,13,7,4,8,6,3"
14268,commdev-image-keyboard-response,102,312769,learnblock1,486.8000000715256,img/planet2_left.png,2,Community 2,NA,TRUE,f,f,NA,NA,NA,1,6,"5,12,1,10,9,14,2,11,15,13,7,4,8,6,3"
14268,commdev-image-keyboard-response,103,314021,learnblock1,488.39999997615814,img/planet11_left.png,11,Community 2,NA,TRUE,f,f,NA,NA,NA,1,6,"5,12,1,10,9,14,2,11,15,13,7,4,8,6,3"
14268,commdev-image-keyboard-response,104,315273,learnblock1,638.5,img/planet13_left.png,13,Community 2,NA,TRUE,f,f,NA,NA,NA,1,6,"5,12,1,10,9,14,2,11,15,13,7,4,8,6,3"
14268,commdev-image-keyboard-response,105,316526,learnblock1,501.3000000715256,img/planet15_left.png,15,Community 2,NA,TRUE,f,f,NA,NA,NA,1,6,"5,12,1,10,9,14,2,11,15,13,7,4,8,6,3"
14268,commdev-image-keyboard-response,106,317777,learnblock1,429.2999999523163,img/planet11_left.png,11,Community 2,NA,TRUE,f,f,NA,NA,NA,1,6,"5,12,1,10,9,14,2,11,15,13,7,4,8,6,3"
14268,commdev-image-keyboard-response,107,319028,learnblock1,482,img/planet13_right.png,13,Community 2,NA,TRUE,j,j,NA,NA,NA,1,6,"5,12,1,10,9,14,2,11,15,13,7,4,8,6,3"
14268,commdev-image-keyboard-response,108,320278,learnblock1,462.60000002384186,img/planet14_right.png,14,Community 2,NA,TRUE,j,j,NA,NA,NA,1,6,"5,12,1,10,9,14,2,11,15,13,7,4,8,6,3"
14268,commdev-image-keyboard-response,109,321530,learnblock1,503.10000002384186,img/planet15_right.png,15,Community 2,NA,FALSE,f,j,NA,NA,NA,1,6,"5,12,1,10,9,14,2,11,15,13,7,4,8,6,3"
14268,commdev-image-keyboard-response,110,322781,learnblock1,604.8000000715256,img/planet13_right.png,13,Community 2,NA,TRUE,j,j,NA,NA,NA,1,6,"5,12,1,10,9,14,2,11,15,13,7,4,8,6,3"
14268,commdev-image-keyboard-response,111,324033,learnblock1,514.3999999761581,img/planet11_left.png,11,Community 2,NA,TRUE,f,f,NA,NA,NA,1,6,"5,12,1,10,9,14,2,11,15,13,7,4,8,6,3"
14268,commdev-image-keyboard-response,112,325283,learnblock1,511.6999999284744,img/planet2_left.png,2,Community 2,NA,TRUE,f,f,NA,NA,NA,1,6,"5,12,1,10,9,14,2,11,15,13,7,4,8,6,3"
14268,commdev-image-keyboard-response,113,326535,learnblock1,514.1999999284744,img/planet14_right.png,14,Community 2,NA,TRUE,j,j,NA,NA,NA,1,6,"5,12,1,10,9,14,2,11,15,13,7,4,8,6,3"
14268,commdev-image-keyboard-response,114,327786,learnblock1,510.5,img/planet10_left.png,10,Community 1,NA,FALSE,j,f,NA,NA,NA,1,6,"5,12,1,10,9,14,2,11,15,13,7,4,8,6,3"
14268,commdev-image-keyboard-response,115,329043,learnblock1,485.09999990463257,img/planet14_right.png,14,Community 2,NA,TRUE,j,j,NA,NA,NA,1,6,"5,12,1,10,9,14,2,11,15,13,7,4,8,6,3"
14268,commdev-image-keyboard-response,116,330294,learnblock1,546.2000000476837,img/planet15_left.png,15,Community 2,NA,TRUE,f,f,NA,NA,NA,1,6,"5,12,1,10,9,14,2,11,15,13,7,4,8,6,3"
14268,commdev-image-keyboard-response,117,331545,learnblock1,438.89999997615814,img/planet14_right.png,14,Community 2,NA,TRUE,j,j,NA,NA,NA,1,6,"5,12,1,10,9,14,2,11,15,13,7,4,8,6,3"
14268,commdev-image-keyboard-response,118,332796,learnblock1,473.2000000476837,img/planet10_right.png,10,Community 1,NA,TRUE,j,j,NA,NA,NA,1,6,"5,12,1,10,9,14,2,11,15,13,7,4,8,6,3"
14268,commdev-image-keyboard-response,119,334047,learnblock1,425.39999997615814,img/planet5_right.png,5,Community 1,NA,TRUE,j,j,NA,NA,NA,1,6,"5,12,1,10,9,14,2,11,15,13,7,4,8,6,3"
14268,commdev-image-keyboard-response,120,335299,learnblock1,427.2000000476837,img/planet12_right.png,12,Community 1,NA,TRUE,j,j,NA,NA,NA,1,6,"5,12,1,10,9,14,2,11,15,13,7,4,8,6,3"
14268,commdev-image-keyboard-response,121,336551,learnblock1,443.39999997615814,img/planet10_left.png,10,Community 1,NA,TRUE,f,f,NA,NA,NA,1,6,"5,12,1,10,9,14,2,11,15,13,7,4,8,6,3"
14268,commdev-image-keyboard-response,122,337802,learnblock1,438,img/planet12_left.png,12,Community 1,NA,TRUE,f,f,NA,NA,NA,1,6,"5,12,1,10,9,14,2,11,15,13,7,4,8,6,3"
14268,commdev-image-keyboard-response,123,339053,learnblock1,425.09999990463257,img/planet9_right.png,9,Community 1,NA,TRUE,j,j,NA,NA,NA,1,6,"5,12,1,10,9,14,2,11,15,13,7,4,8,6,3"
14268,commdev-image-keyboard-response,124,340307,learnblock1,677.8000000715256,img/planet5_left.png,5,Community 1,NA,TRUE,f,f,NA,NA,NA,1,6,"5,12,1,10,9,14,2,11,15,13,7,4,8,6,3"
14268,commdev-image-keyboard-response,125,341559,learnblock1,469.5,img/planet12_right.png,12,Community 1,NA,TRUE,j,j,NA,NA,NA,1,6,"5,12,1,10,9,14,2,11,15,13,7,4,8,6,3"
14268,commdev-image-keyboard-response,126,342812,learnblock1,431.09999990463257,img/planet10_left.png,10,Community 1,NA,TRUE,f,f,NA,NA,NA,1,6,"5,12,1,10,9,14,2,11,15,13,7,4,8,6,3"
14268,commdev-image-keyboard-response,127,344063,learnblock1,471.8000000715256,img/planet1_right.png,1,Community 1,NA,TRUE,j,j,NA,NA,NA,1,6,"5,12,1,10,9,14,2,11,15,13,7,4,8,6,3"
14268,commdev-image-keyboard-response,128,345314,learnblock1,444,img/planet12_right.png,12,Community 1,NA,TRUE,j,j,NA,NA,NA,1,6,"5,12,1,10,9,14,2,11,15,13,7,4,8,6,3"
14268,commdev-image-keyboard-response,129,346564,learnblock1,450.60000002384186,img/planet5_right.png,5,Community 1,NA,TRUE,j,j,NA,NA,NA,1,6,"5,12,1,10,9,14,2,11,15,13,7,4,8,6,3"
14268,commdev-image-keyboard-response,130,347816,learnblock1,500.1999999284744,img/planet9_right.png,9,Community 1,NA,TRUE,j,j,NA,NA,NA,1,6,"5,12,1,10,9,14,2,11,15,13,7,4,8,6,3"
14268,commdev-image-keyboard-response,131,349068,learnblock1,531.6999999284744,img/planet1_left.png,1,Community 1,NA,TRUE,f,f,NA,NA,NA,1,6,"5,12,1,10,9,14,2,11,15,13,7,4,8,6,3"
14268,commdev-image-keyboard-response,132,350319,learnblock1,500.5,img/planet9_left.png,9,Community 1,NA,TRUE,f,f,NA,NA,NA,1,6,"5,12,1,10,9,14,2,11,15,13,7,4,8,6,3"
14268,commdev-image-keyboard-response,133,351570,learnblock1,447.10000002384186,img/planet7_left.png,7,Community 3,NA,TRUE,f,f,NA,NA,NA,1,6,"5,12,1,10,9,14,2,11,15,13,7,4,8,6,3"
14268,commdev-image-keyboard-response,134,352821,learnblock1,451.7000000476837,img/planet3_right.png,3,Community 3,NA,TRUE,j,j,NA,NA,NA,1,6,"5,12,1,10,9,14,2,11,15,13,7,4,8,6,3"
14268,commdev-image-keyboard-response,135,354072,learnblock1,654.5,img/planet7_right.png,7,Community 3,NA,TRUE,j,j,NA,NA,NA,1,6,"5,12,1,10,9,14,2,11,15,13,7,4,8,6,3"
14268,commdev-image-keyboard-response,136,355323,learnblock1,610.7999999523163,img/planet8_left.png,8,Community 3,NA,TRUE,f,f,NA,NA,NA,1,6,"5,12,1,10,9,14,2,11,15,13,7,4,8,6,3"
14268,commdev-image-keyboard-response,137,356575,learnblock1,595.3999999761581,img/planet3_right.png,3,Community 3,NA,TRUE,j,j,NA,NA,NA,1,6,"5,12,1,10,9,14,2,11,15,13,7,4,8,6,3"
14268,commdev-image-keyboard-response,138,357827,learnblock1,552.1000000238419,img/planet4_right.png,4,Community 3,NA,TRUE,j,j,NA,NA,NA,1,6,"5,12,1,10,9,14,2,11,15,13,7,4,8,6,3"
14268,commdev-image-keyboard-response,139,359084,learnblock1,563.3000000715256,img/planet3_left.png,3,Community 3,NA,TRUE,f,f,NA,NA,NA,1,6,"5,12,1,10,9,14,2,11,15,13,7,4,8,6,3"
14268,commdev-image-keyboard-response,140,360336,learnblock1,618.1999999284744,img/planet7_left.png,7,Community 3,NA,TRUE,f,f,NA,NA,NA,1,6,"5,12,1,10,9,14,2,11,15,13,7,4,8,6,3"
14268,commdev-image-keyboard-response,141,361588,learnblock1,490.2999999523163,img/planet3_right.png,3,Community 3,NA,TRUE,j,j,NA,NA,NA,1,6,"5,12,1,10,9,14,2,11,15,13,7,4,8,6,3"
14268,commdev-image-keyboard-response,142,362840,learnblock1,593.3999999761581,img/planet6_left.png,6,Community 3,NA,TRUE,f,f,NA,NA,NA,1,6,"5,12,1,10,9,14,2,11,15,13,7,4,8,6,3"
14268,commdev-image-keyboard-response,143,364091,learnblock1,455.2000000476837,img/planet4_right.png,4,Community 3,NA,TRUE,j,j,NA,NA,NA,1,6,"5,12,1,10,9,14,2,11,15,13,7,4,8,6,3"
14268,commdev-image-keyboard-response,144,365343,learnblock1,462.10000002384186,img/planet8_left.png,8,Community 3,NA,TRUE,f,f,NA,NA,NA,1,6,"5,12,1,10,9,14,2,11,15,13,7,4,8,6,3"
14268,commdev-image-keyboard-response,145,366595,learnblock1,530.8000000715256,img/planet3_left.png,3,Community 3,NA,TRUE,f,f,NA,NA,NA,1,6,"5,12,1,10,9,14,2,11,15,13,7,4,8,6,3"
14268,commdev-image-keyboard-response,146,367847,learnblock1,631.6999999284744,img/planet8_left.png,8,Community 3,NA,TRUE,f,f,NA,NA,NA,1,6,"5,12,1,10,9,14,2,11,15,13,7,4,8,6,3"
14268,commdev-image-keyboard-response,147,369099,learnblock1,587.6000000238419,img/planet3_right.png,3,Community 3,NA,TRUE,j,j,NA,NA,NA,1,6,"5,12,1,10,9,14,2,11,15,13,7,4,8,6,3"
14268,commdev-image-keyboard-response,148,370351,learnblock1,592.2000000476837,img/planet7_left.png,7,Community 3,NA,TRUE,f,f,NA,NA,NA,1,6,"5,12,1,10,9,14,2,11,15,13,7,4,8,6,3"
14268,commdev-image-keyboard-response,149,371602,learnblock1,658,img/planet3_left.png,3,Community 3,NA,TRUE,f,f,NA,NA,NA,1,6,"5,12,1,10,9,14,2,11,15,13,7,4,8,6,3"
14268,commdev-image-keyboard-response,150,372854,learnblock1,617.3999999761581,img/planet6_right.png,6,Community 3,NA,TRUE,j,j,NA,NA,NA,1,6,"5,12,1,10,9,14,2,11,15,13,7,4,8,6,3"
14268,commdev-image-keyboard-response,151,374106,learnblock1,565.1000000238419,img/planet4_left.png,4,Community 3,NA,TRUE,f,f,NA,NA,NA,1,6,"5,12,1,10,9,14,2,11,15,13,7,4,8,6,3"
14268,commdev-image-keyboard-response,152,375357,learnblock1,536.8999999761581,img/planet6_right.png,6,Community 3,NA,TRUE,j,j,NA,NA,NA,1,6,"5,12,1,10,9,14,2,11,15,13,7,4,8,6,3"
14268,commdev-image-keyboard-response,153,376609,learnblock1,553.3999999761581,img/planet8_left.png,8,Community 3,NA,TRUE,f,f,NA,NA,NA,1,6,"5,12,1,10,9,14,2,11,15,13,7,4,8,6,3"
14268,commdev-image-keyboard-response,154,377860,learnblock1,652.1999999284744,img/planet7_left.png,7,Community 3,NA,TRUE,f,f,NA,NA,NA,1,6,"5,12,1,10,9,14,2,11,15,13,7,4,8,6,3"
14268,commdev-image-keyboard-response,155,379112,learnblock1,954.7999999523163,img/planet6_left.png,6,Community 3,NA,TRUE,f,f,NA,NA,NA,1,6,"5,12,1,10,9,14,2,11,15,13,7,4,8,6,3"
14268,commdev-image-keyboard-response,156,380364,learnblock1,556.6000000238419,img/planet3_right.png,3,Community 3,NA,TRUE,j,j,NA,NA,NA,1,6,"5,12,1,10,9,14,2,11,15,13,7,4,8,6,3"
14268,commdev-image-keyboard-response,157,381614,learnblock1,631.8999999761581,img/planet6_right.png,6,Community 3,NA,TRUE,j,j,NA,NA,NA,1,6,"5,12,1,10,9,14,2,11,15,13,7,4,8,6,3"
14268,commdev-image-keyboard-response,158,382866,learnblock1,497.39999997615814,img/planet4_right.png,4,Community 3,NA,TRUE,j,j,NA,NA,NA,1,6,"5,12,1,10,9,14,2,11,15,13,7,4,8,6,3"
14268,commdev-image-keyboard-response,159,384118,learnblock1,483,img/planet8_right.png,8,Community 3,NA,FALSE,f,j,NA,NA,NA,1,6,"5,12,1,10,9,14,2,11,15,13,7,4,8,6,3"
14268,commdev-image-keyboard-response,160,385370,learnblock1,529.7000000476837,img/planet3_right.png,3,Community 3,NA,TRUE,j,j,NA,NA,NA,1,6,"5,12,1,10,9,14,2,11,15,13,7,4,8,6,3"
14268,commdev-image-keyboard-response,161,386621,learnblock1,547,img/planet7_left.png,7,Community 3,NA,TRUE,f,f,NA,NA,NA,1,6,"5,12,1,10,9,14,2,11,15,13,7,4,8,6,3"
14268,commdev-image-keyboard-response,162,387872,learnblock1,616.5,img/planet9_left.png,9,Community 1,NA,TRUE,f,f,NA,NA,NA,1,6,"5,12,1,10,9,14,2,11,15,13,7,4,8,6,3"
14268,commdev-image-keyboard-response,163,389124,learnblock1,598.9000000953674,img/planet7_right.png,7,Community 3,NA,TRUE,j,j,NA,NA,NA,1,6,"5,12,1,10,9,14,2,11,15,13,7,4,8,6,3"
14268,commdev-image-keyboard-response,164,390375,learnblock1,708.8999999761581,img/planet8_right.png,8,Community 3,NA,TRUE,j,j,NA,NA,NA,1,6,"5,12,1,10,9,14,2,11,15,13,7,4,8,6,3"
14268,commdev-image-keyboard-response,165,391626,learnblock1,547.7000000476837,img/planet4_left.png,4,Community 3,NA,TRUE,f,f,NA,NA,NA,1,6,"5,12,1,10,9,14,2,11,15,13,7,4,8,6,3"
14268,commdev-image-keyboard-response,166,392878,learnblock1,514.8000000715256,img/planet6_right.png,6,Community 3,NA,TRUE,j,j,NA,NA,NA,1,6,"5,12,1,10,9,14,2,11,15,13,7,4,8,6,3"
14268,commdev-image-keyboard-response,167,394128,learnblock1,704,img/planet8_right.png,8,Community 3,NA,TRUE,j,j,NA,NA,NA,1,6,"5,12,1,10,9,14,2,11,15,13,7,4,8,6,3"
14268,commdev-image-keyboard-response,168,395380,learnblock1,658.7999999523163,img/planet6_left.png,6,Community 3,NA,TRUE,f,f,NA,NA,NA,1,6,"5,12,1,10,9,14,2,11,15,13,7,4,8,6,3"
14268,commdev-image-keyboard-response,169,396631,learnblock1,584.2000000476837,img/planet7_left.png,7,Community 3,NA,TRUE,f,f,NA,NA,NA,1,6,"5,12,1,10,9,14,2,11,15,13,7,4,8,6,3"
14268,commdev-image-keyboard-response,170,397883,learnblock1,487.3000000715256,img/planet8_right.png,8,Community 3,NA,TRUE,j,j,NA,NA,NA,1,6,"5,12,1,10,9,14,2,11,15,13,7,4,8,6,3"
14268,commdev-image-keyboard-response,171,399134,learnblock1,498.10000002384186,img/planet4_right.png,4,Community 3,NA,TRUE,j,j,NA,NA,NA,1,6,"5,12,1,10,9,14,2,11,15,13,7,4,8,6,3"
14268,commdev-image-keyboard-response,172,400385,learnblock1,504.39999997615814,img/planet3_right.png,3,Community 3,NA,TRUE,j,j,NA,NA,NA,1,6,"5,12,1,10,9,14,2,11,15,13,7,4,8,6,3"
14268,commdev-image-keyboard-response,173,401638,learnblock1,454.2999999523163,img/planet4_right.png,4,Community 3,NA,TRUE,j,j,NA,NA,NA,1,6,"5,12,1,10,9,14,2,11,15,13,7,4,8,6,3"
14268,commdev-image-keyboard-response,174,402888,learnblock1,376.89999997615814,img/planet3_left.png,3,Community 3,NA,FALSE,j,f,NA,NA,NA,1,6,"5,12,1,10,9,14,2,11,15,13,7,4,8,6,3"
14268,commdev-image-keyboard-response,175,404140,learnblock1,550.5,img/planet6_left.png,6,Community 3,NA,TRUE,f,f,NA,NA,NA,1,6,"5,12,1,10,9,14,2,11,15,13,7,4,8,6,3"
14268,commdev-image-keyboard-response,176,405392,learnblock1,582.8999999761581,img/planet7_left.png,7,Community 3,NA,TRUE,f,f,NA,NA,NA,1,6,"5,12,1,10,9,14,2,11,15,13,7,4,8,6,3"
14268,commdev-image-keyboard-response,177,406644,learnblock1,485.5,img/planet8_right.png,8,Community 3,NA,TRUE,j,j,NA,NA,NA,1,6,"5,12,1,10,9,14,2,11,15,13,7,4,8,6,3"
14268,commdev-image-keyboard-response,178,407896,learnblock1,457.5,img/planet4_right.png,4,Community 3,NA,TRUE,j,j,NA,NA,NA,1,6,"5,12,1,10,9,14,2,11,15,13,7,4,8,6,3"
14268,commdev-image-keyboard-response,179,409148,learnblock1,415.7000000476837,img/planet6_right.png,6,Community 3,NA,TRUE,j,j,NA,NA,NA,1,6,"5,12,1,10,9,14,2,11,15,13,7,4,8,6,3"
14268,commdev-image-keyboard-response,180,410399,learnblock1,532.5,img/planet7_left.png,7,Community 3,NA,TRUE,f,f,NA,NA,NA,1,6,"5,12,1,10,9,14,2,11,15,13,7,4,8,6,3"
14268,commdev-image-keyboard-response,181,411650,learnblock1,565.6000000238419,img/planet6_right.png,6,Community 3,NA,TRUE,j,j,NA,NA,NA,1,6,"5,12,1,10,9,14,2,11,15,13,7,4,8,6,3"
14268,commdev-image-keyboard-response,182,412902,learnblock1,521,img/planet3_left.png,3,Community 3,NA,TRUE,f,f,NA,NA,NA,1,6,"5,12,1,10,9,14,2,11,15,13,7,4,8,6,3"
14268,commdev-image-keyboard-response,183,414154,learnblock1,588.3999999761581,img/planet4_left.png,4,Community 3,NA,TRUE,f,f,NA,NA,NA,1,6,"5,12,1,10,9,14,2,11,15,13,7,4,8,6,3"
14268,commdev-image-keyboard-response,184,415406,learnblock1,554.7000000476837,img/planet6_left.png,6,Community 3,NA,TRUE,f,f,NA,NA,NA,1,6,"5,12,1,10,9,14,2,11,15,13,7,4,8,6,3"
14268,commdev-image-keyboard-response,185,416672,learnblock1,465.59999990463257,img/planet4_right.png,4,Community 3,NA,TRUE,j,j,NA,NA,NA,1,6,"5,12,1,10,9,14,2,11,15,13,7,4,8,6,3"
14268,commdev-image-keyboard-response,186,417923,learnblock1,425.1999999284744,img/planet6_right.png,6,Community 3,NA,TRUE,j,j,NA,NA,NA,1,6,"5,12,1,10,9,14,2,11,15,13,7,4,8,6,3"
14268,commdev-image-keyboard-response,187,419175,learnblock1,586.8999999761581,img/planet4_right.png,4,Community 3,NA,TRUE,j,j,NA,NA,NA,1,6,"5,12,1,10,9,14,2,11,15,13,7,4,8,6,3"
14268,commdev-image-keyboard-response,188,420426,learnblock1,571.6000000238419,img/planet6_right.png,6,Community 3,NA,TRUE,j,j,NA,NA,NA,1,6,"5,12,1,10,9,14,2,11,15,13,7,4,8,6,3"
14268,commdev-image-keyboard-response,189,421689,learnblock1,705.2999999523163,img/planet3_right.png,3,Community 3,NA,TRUE,j,j,NA,NA,NA,1,6,"5,12,1,10,9,14,2,11,15,13,7,4,8,6,3"
14268,commdev-image-keyboard-response,190,422940,learnblock1,466.2000000476837,img/planet7_left.png,7,Community 3,NA,FALSE,j,f,NA,NA,NA,1,6,"5,12,1,10,9,14,2,11,15,13,7,4,8,6,3"
14268,commdev-image-keyboard-response,191,424192,learnblock1,472.2999999523163,img/planet9_left.png,9,Community 1,NA,TRUE,f,f,NA,NA,NA,1,6,"5,12,1,10,9,14,2,11,15,13,7,4,8,6,3"
14268,commdev-image-keyboard-response,192,425444,learnblock1,489.10000002384186,img/planet1_left.png,1,Community 1,NA,TRUE,f,f,NA,NA,NA,1,6,"5,12,1,10,9,14,2,11,15,13,7,4,8,6,3"
14268,commdev-image-keyboard-response,193,426696,learnblock1,479,img/planet5_left.png,5,Community 1,NA,TRUE,f,f,NA,NA,NA,1,6,"5,12,1,10,9,14,2,11,15,13,7,4,8,6,3"
14268,commdev-image-keyboard-response,194,427948,learnblock1,431.90000009536743,img/planet9_left.png,9,Community 1,NA,TRUE,f,f,NA,NA,NA,1,6,"5,12,1,10,9,14,2,11,15,13,7,4,8,6,3"
14268,commdev-image-keyboard-response,195,429200,learnblock1,499.1999999284744,img/planet1_right.png,1,Community 1,NA,TRUE,j,j,NA,NA,NA,1,6,"5,12,1,10,9,14,2,11,15,13,7,4,8,6,3"
14268,commdev-image-keyboard-response,196,430451,learnblock1,545.3999999761581,img/planet12_right.png,12,Community 1,NA,TRUE,j,j,NA,NA,NA,1,6,"5,12,1,10,9,14,2,11,15,13,7,4,8,6,3"
14268,commdev-image-keyboard-response,197,431702,learnblock1,520.2999999523163,img/planet1_right.png,1,Community 1,NA,TRUE,j,j,NA,NA,NA,1,6,"5,12,1,10,9,14,2,11,15,13,7,4,8,6,3"
14268,commdev-image-keyboard-response,198,432953,learnblock1,466.7999999523163,img/planet10_right.png,10,Community 1,NA,TRUE,j,j,NA,NA,NA,1,6,"5,12,1,10,9,14,2,11,15,13,7,4,8,6,3"
14268,commdev-image-keyboard-response,199,434205,learnblock1,534.2999999523163,img/planet14_right.png,14,Community 2,NA,TRUE,j,j,NA,NA,NA,1,6,"5,12,1,10,9,14,2,11,15,13,7,4,8,6,3"
14268,commdev-image-keyboard-response,200,435457,learnblock1,427.89999997615814,img/planet10_right.png,10,Community 1,NA,TRUE,j,j,NA,NA,NA,1,6,"5,12,1,10,9,14,2,11,15,13,7,4,8,6,3"
14268,commdev-image-keyboard-response,201,436708,learnblock1,459,img/planet5_left.png,5,Community 1,NA,TRUE,f,f,NA,NA,NA,1,6,"5,12,1,10,9,14,2,11,15,13,7,4,8,6,3"
14268,commdev-image-keyboard-response,202,437959,learnblock1,413,img/planet10_left.png,10,Community 1,NA,TRUE,f,f,NA,NA,NA,1,6,"5,12,1,10,9,14,2,11,15,13,7,4,8,6,3"
14268,commdev-image-keyboard-response,203,439210,learnblock1,438.39999997615814,img/planet12_left.png,12,Community 1,NA,TRUE,f,f,NA,NA,NA,1,6,"5,12,1,10,9,14,2,11,15,13,7,4,8,6,3"
14268,commdev-image-keyboard-response,204,440462,learnblock1,449.40000009536743,img/planet9_right.png,9,Community 1,NA,TRUE,j,j,NA,NA,NA,1,6,"5,12,1,10,9,14,2,11,15,13,7,4,8,6,3"
14268,commdev-image-keyboard-response,205,441714,learnblock1,433.5,img/planet5_right.png,5,Community 1,NA,TRUE,j,j,NA,NA,NA,1,6,"5,12,1,10,9,14,2,11,15,13,7,4,8,6,3"
14268,commdev-image-keyboard-response,206,442966,learnblock1,450.6999999284744,img/planet1_left.png,1,Community 1,NA,TRUE,f,f,NA,NA,NA,1,6,"5,12,1,10,9,14,2,11,15,13,7,4,8,6,3"
14268,commdev-image-keyboard-response,207,444217,learnblock1,589.3999999761581,img/planet10_left.png,10,Community 1,NA,TRUE,f,f,NA,NA,NA,1,6,"5,12,1,10,9,14,2,11,15,13,7,4,8,6,3"
14268,commdev-image-keyboard-response,208,445468,learnblock1,562.8999999761581,img/planet1_right.png,1,Community 1,NA,TRUE,j,j,NA,NA,NA,1,6,"5,12,1,10,9,14,2,11,15,13,7,4,8,6,3"
14268,commdev-image-keyboard-response,209,446721,learnblock1,436.60000002384186,img/planet10_right.png,10,Community 1,NA,TRUE,j,j,NA,NA,NA,1,6,"5,12,1,10,9,14,2,11,15,13,7,4,8,6,3"
14268,commdev-image-keyboard-response,210,447972,learnblock1,533.8000000715256,img/planet14_left.png,14,Community 2,NA,TRUE,f,f,NA,NA,NA,1,6,"5,12,1,10,9,14,2,11,15,13,7,4,8,6,3"
14268,commdev-image-keyboard-response,211,449223,learnblock1,451.90000009536743,img/planet13_right.png,13,Community 2,NA,TRUE,j,j,NA,NA,NA,1,6,"5,12,1,10,9,14,2,11,15,13,7,4,8,6,3"
14268,commdev-image-keyboard-response,212,450475,learnblock1,436.90000009536743,img/planet2_right.png,2,Community 2,NA,TRUE,j,j,NA,NA,NA,1,6,"5,12,1,10,9,14,2,11,15,13,7,4,8,6,3"
14268,commdev-image-keyboard-response,213,451726,learnblock1,585,img/planet11_right.png,11,Community 2,NA,TRUE,j,j,NA,NA,NA,1,6,"5,12,1,10,9,14,2,11,15,13,7,4,8,6,3"
14268,commdev-image-keyboard-response,214,452977,learnblock1,777.4000000953674,img/planet13_right.png,13,Community 2,NA,TRUE,j,j,NA,NA,NA,1,6,"5,12,1,10,9,14,2,11,15,13,7,4,8,6,3"
14268,commdev-image-keyboard-response,215,454228,learnblock1,515.1000000238419,img/planet15_left.png,15,Community 2,NA,TRUE,f,f,NA,NA,NA,1,6,"5,12,1,10,9,14,2,11,15,13,7,4,8,6,3"
14268,commdev-image-keyboard-response,216,455479,learnblock1,553.6000000238419,img/planet13_left.png,13,Community 2,NA,TRUE,f,f,NA,NA,NA,1,6,"5,12,1,10,9,14,2,11,15,13,7,4,8,6,3"
14268,commdev-image-keyboard-response,217,456739,learnblock1,509.39999997615814,img/planet15_right.png,15,Community 2,NA,TRUE,j,j,NA,NA,NA,1,6,"5,12,1,10,9,14,2,11,15,13,7,4,8,6,3"
14268,commdev-image-keyboard-response,218,457990,learnblock1,587.2999999523163,img/planet14_right.png,14,Community 2,NA,TRUE,j,j,NA,NA,NA,1,6,"5,12,1,10,9,14,2,11,15,13,7,4,8,6,3"
14268,commdev-image-keyboard-response,219,459241,learnblock1,526.5,img/planet13_left.png,13,Community 2,NA,TRUE,f,f,NA,NA,NA,1,6,"5,12,1,10,9,14,2,11,15,13,7,4,8,6,3"
14268,commdev-image-keyboard-response,220,460492,learnblock1,459.5,img/planet15_left.png,15,Community 2,NA,TRUE,f,f,NA,NA,NA,1,6,"5,12,1,10,9,14,2,11,15,13,7,4,8,6,3"
14268,commdev-image-keyboard-response,221,461745,learnblock1,421.2999999523163,img/planet2_right.png,2,Community 2,NA,TRUE,j,j,NA,NA,NA,1,6,"5,12,1,10,9,14,2,11,15,13,7,4,8,6,3"
14268,commdev-image-keyboard-response,222,462997,learnblock1,552.7000000476837,img/planet14_left.png,14,Community 2,NA,TRUE,f,f,NA,NA,NA,1,6,"5,12,1,10,9,14,2,11,15,13,7,4,8,6,3"
14268,commdev-image-keyboard-response,223,464248,learnblock1,478.7999999523163,img/planet15_left.png,15,Community 2,NA,TRUE,f,f,NA,NA,NA,1,6,"5,12,1,10,9,14,2,11,15,13,7,4,8,6,3"
14268,commdev-image-keyboard-response,224,465501,learnblock1,637.8000000715256,img/planet13_left.png,13,Community 2,NA,TRUE,f,f,NA,NA,NA,1,6,"5,12,1,10,9,14,2,11,15,13,7,4,8,6,3"
14268,commdev-image-keyboard-response,225,466752,learnblock1,484.60000002384186,img/planet11_right.png,11,Community 2,NA,TRUE,j,j,NA,NA,NA,1,6,"5,12,1,10,9,14,2,11,15,13,7,4,8,6,3"
14268,commdev-image-keyboard-response,226,468003,learnblock1,715.1000000238419,img/planet4_left.png,4,Community 3,NA,TRUE,f,f,NA,NA,NA,1,6,"5,12,1,10,9,14,2,11,15,13,7,4,8,6,3"
14268,commdev-image-keyboard-response,227,469255,learnblock1,630.5,img/planet3_left.png,3,Community 3,NA,TRUE,f,f,NA,NA,NA,1,6,"5,12,1,10,9,14,2,11,15,13,7,4,8,6,3"
14268,commdev-image-keyboard-response,228,470506,learnblock1,468.2999999523163,img/planet4_right.png,4,Community 3,NA,TRUE,j,j,NA,NA,NA,1,6,"5,12,1,10,9,14,2,11,15,13,7,4,8,6,3"
14268,commdev-image-keyboard-response,229,471757,learnblock1,513.2999999523163,img/planet8_left.png,8,Community 3,NA,TRUE,f,f,NA,NA,NA,1,6,"5,12,1,10,9,14,2,11,15,13,7,4,8,6,3"
14268,commdev-image-keyboard-response,230,473008,learnblock1,410.2000000476837,img/planet6_right.png,6,Community 3,NA,TRUE,j,j,NA,NA,NA,1,6,"5,12,1,10,9,14,2,11,15,13,7,4,8,6,3"
14268,commdev-image-keyboard-response,231,474259,learnblock1,738.7000000476837,img/planet4_right.png,4,Community 3,NA,TRUE,j,j,NA,NA,NA,1,6,"5,12,1,10,9,14,2,11,15,13,7,4,8,6,3"
14268,commdev-image-keyboard-response,232,475511,learnblock1,646.4000000953674,img/planet11_right.png,11,Community 2,NA,TRUE,j,j,NA,NA,NA,1,6,"5,12,1,10,9,14,2,11,15,13,7,4,8,6,3"
14268,commdev-image-keyboard-response,233,476762,learnblock1,460.39999997615814,img/planet4_left.png,4,Community 3,NA,TRUE,f,f,NA,NA,NA,1,6,"5,12,1,10,9,14,2,11,15,13,7,4,8,6,3"
14268,commdev-image-keyboard-response,234,478013,learnblock1,552.2000000476837,img/planet3_right.png,3,Community 3,NA,TRUE,j,j,NA,NA,NA,1,6,"5,12,1,10,9,14,2,11,15,13,7,4,8,6,3"
14268,commdev-image-keyboard-response,235,479264,learnblock1,510.2000000476837,img/planet6_left.png,6,Community 3,NA,TRUE,f,f,NA,NA,NA,1,6,"5,12,1,10,9,14,2,11,15,13,7,4,8,6,3"
14268,commdev-image-keyboard-response,236,480515,learnblock1,408.5,img/planet4_right.png,4,Community 3,NA,TRUE,j,j,NA,NA,NA,1,6,"5,12,1,10,9,14,2,11,15,13,7,4,8,6,3"
14268,commdev-image-keyboard-response,237,481767,learnblock1,573.8999999761581,img/planet3_left.png,3,Community 3,NA,TRUE,f,f,NA,NA,NA,1,6,"5,12,1,10,9,14,2,11,15,13,7,4,8,6,3"
14268,commdev-image-keyboard-response,238,483020,learnblock1,586.3000000715256,img/planet8_left.png,8,Community 3,NA,TRUE,f,f,NA,NA,NA,1,6,"5,12,1,10,9,14,2,11,15,13,7,4,8,6,3"
14268,commdev-image-keyboard-response,239,484271,learnblock1,529.5,img/planet4_left.png,4,Community 3,NA,TRUE,f,f,NA,NA,NA,1,6,"5,12,1,10,9,14,2,11,15,13,7,4,8,6,3"
14268,commdev-image-keyboard-response,240,485523,learnblock1,423.90000009536743,img/planet3_right.png,3,Community 3,NA,TRUE,j,j,NA,NA,NA,1,6,"5,12,1,10,9,14,2,11,15,13,7,4,8,6,3"
14268,commdev-image-keyboard-response,241,486774,learnblock1,631.3999999761581,img/planet7_right.png,7,Community 3,NA,TRUE,j,j,NA,NA,NA,1,6,"5,12,1,10,9,14,2,11,15,13,7,4,8,6,3"
14268,commdev-image-keyboard-response,242,488026,learnblock1,614.7000000476837,img/planet3_right.png,3,Community 3,NA,TRUE,j,j,NA,NA,NA,1,6,"5,12,1,10,9,14,2,11,15,13,7,4,8,6,3"
14268,commdev-image-keyboard-response,243,489278,learnblock1,406.89999997615814,img/planet6_left.png,6,Community 3,NA,TRUE,f,f,NA,NA,NA,1,6,"5,12,1,10,9,14,2,11,15,13,7,4,8,6,3"
14268,commdev-image-keyboard-response,244,490529,learnblock1,646.5,img/planet4_left.png,4,Community 3,NA,TRUE,f,f,NA,NA,NA,1,6,"5,12,1,10,9,14,2,11,15,13,7,4,8,6,3"
14268,commdev-image-keyboard-response,245,491780,learnblock1,462.39999997615814,img/planet11_right.png,11,Community 2,NA,TRUE,j,j,NA,NA,NA,1,6,"5,12,1,10,9,14,2,11,15,13,7,4,8,6,3"
14268,commdev-image-keyboard-response,246,493031,learnblock1,561.8999999761581,img/planet15_right.png,15,Community 2,NA,FALSE,f,j,NA,NA,NA,1,6,"5,12,1,10,9,14,2,11,15,13,7,4,8,6,3"
14268,commdev-image-keyboard-response,247,494282,learnblock1,730.5999999046326,img/planet11_left.png,11,Community 2,NA,TRUE,f,f,NA,NA,NA,1,6,"5,12,1,10,9,14,2,11,15,13,7,4,8,6,3"
14268,commdev-image-keyboard-response,248,495534,learnblock1,690.5,img/planet2_right.png,2,Community 2,NA,TRUE,j,j,NA,NA,NA,1,6,"5,12,1,10,9,14,2,11,15,13,7,4,8,6,3"
14268,commdev-image-keyboard-response,249,496785,learnblock1,527.7000000476837,img/planet11_left.png,11,Community 2,NA,TRUE,f,f,NA,NA,NA,1,6,"5,12,1,10,9,14,2,11,15,13,7,4,8,6,3"
14268,commdev-image-keyboard-response,250,498037,learnblock1,464.60000002384186,img/planet2_left.png,2,Community 2,NA,TRUE,f,f,NA,NA,NA,1,6,"5,12,1,10,9,14,2,11,15,13,7,4,8,6,3"
14268,commdev-image-keyboard-response,251,499288,learnblock1,499.39999997615814,img/planet14_right.png,14,Community 2,NA,TRUE,j,j,NA,NA,NA,1,6,"5,12,1,10,9,14,2,11,15,13,7,4,8,6,3"
14268,commdev-image-keyboard-response,252,500539,learnblock1,384.10000002384186,img/planet10_right.png,10,Community 1,NA,TRUE,j,j,NA,NA,NA,1,6,"5,12,1,10,9,14,2,11,15,13,7,4,8,6,3"
14268,commdev-image-keyboard-response,253,501790,learnblock1,659.6000000238419,img/planet14_left.png,14,Community 2,NA,TRUE,f,f,NA,NA,NA,1,6,"5,12,1,10,9,14,2,11,15,13,7,4,8,6,3"
14268,commdev-image-keyboard-response,254,503041,learnblock1,483.5,img/planet13_left.png,13,Community 2,NA,TRUE,f,f,NA,NA,NA,1,6,"5,12,1,10,9,14,2,11,15,13,7,4,8,6,3"
14268,commdev-image-keyboard-response,255,504293,learnblock1,430,img/planet11_left.png,11,Community 2,NA,TRUE,f,f,NA,NA,NA,1,6,"5,12,1,10,9,14,2,11,15,13,7,4,8,6,3"
14268,commdev-image-keyboard-response,256,505545,learnblock1,529.8000000715256,img/planet13_right.png,13,Community 2,NA,TRUE,j,j,NA,NA,NA,1,6,"5,12,1,10,9,14,2,11,15,13,7,4,8,6,3"
14268,commdev-image-keyboard-response,257,506795,learnblock1,470.5,img/planet11_left.png,11,Community 2,NA,TRUE,f,f,NA,NA,NA,1,6,"5,12,1,10,9,14,2,11,15,13,7,4,8,6,3"
14268,commdev-image-keyboard-response,258,508047,learnblock1,689.7000000476837,img/planet13_left.png,13,Community 2,NA,TRUE,f,f,NA,NA,NA,1,6,"5,12,1,10,9,14,2,11,15,13,7,4,8,6,3"
14268,commdev-image-keyboard-response,259,509298,learnblock1,447.7999999523163,img/planet14_left.png,14,Community 2,NA,TRUE,f,f,NA,NA,NA,1,6,"5,12,1,10,9,14,2,11,15,13,7,4,8,6,3"
14268,commdev-image-keyboard-response,260,510550,learnblock1,413.5,img/planet15_left.png,15,Community 2,NA,TRUE,f,f,NA,NA,NA,1,6,"5,12,1,10,9,14,2,11,15,13,7,4,8,6,3"
14268,commdev-image-keyboard-response,261,511801,learnblock1,515.7000000476837,img/planet11_right.png,11,Community 2,NA,TRUE,j,j,NA,NA,NA,1,6,"5,12,1,10,9,14,2,11,15,13,7,4,8,6,3"
14268,commdev-image-keyboard-response,262,513054,learnblock1,371.40000009536743,img/planet2_right.png,2,Community 2,NA,TRUE,j,j,NA,NA,NA,1,6,"5,12,1,10,9,14,2,11,15,13,7,4,8,6,3"
14268,commdev-image-keyboard-response,263,514306,learnblock1,587.1000000238419,img/planet11_right.png,11,Community 2,NA,TRUE,j,j,NA,NA,NA,1,6,"5,12,1,10,9,14,2,11,15,13,7,4,8,6,3"
14268,commdev-image-keyboard-response,264,515558,learnblock1,579.2999999523163,img/planet2_left.png,2,Community 2,NA,TRUE,f,f,NA,NA,NA,1,6,"5,12,1,10,9,14,2,11,15,13,7,4,8,6,3"
14268,commdev-image-keyboard-response,265,516809,learnblock1,504.7000000476837,img/planet15_right.png,15,Community 2,NA,TRUE,j,j,NA,NA,NA,1,6,"5,12,1,10,9,14,2,11,15,13,7,4,8,6,3"
14268,commdev-image-keyboard-response,266,518060,learnblock1,557.5,img/planet2_left.png,2,Community 2,NA,TRUE,f,f,NA,NA,NA,1,6,"5,12,1,10,9,14,2,11,15,13,7,4,8,6,3"
14268,commdev-image-keyboard-response,267,519312,learnblock1,457.60000002384186,img/planet15_right.png,15,Community 2,NA,TRUE,j,j,NA,NA,NA,1,6,"5,12,1,10,9,14,2,11,15,13,7,4,8,6,3"
14268,commdev-image-keyboard-response,268,520563,learnblock1,520.5,img/planet11_right.png,11,Community 2,NA,TRUE,j,j,NA,NA,NA,1,6,"5,12,1,10,9,14,2,11,15,13,7,4,8,6,3"
14268,commdev-image-keyboard-response,269,521815,learnblock1,570.5,img/planet13_right.png,13,Community 2,NA,TRUE,j,j,NA,NA,NA,1,6,"5,12,1,10,9,14,2,11,15,13,7,4,8,6,3"
14268,commdev-image-keyboard-response,270,523067,learnblock1,627.8999999761581,img/planet15_right.png,15,Community 2,NA,TRUE,j,j,NA,NA,NA,1,6,"5,12,1,10,9,14,2,11,15,13,7,4,8,6,3"
14268,commdev-image-keyboard-response,271,524319,learnblock1,545.2000000476837,img/planet2_left.png,2,Community 2,NA,TRUE,f,f,NA,NA,NA,1,6,"5,12,1,10,9,14,2,11,15,13,7,4,8,6,3"
14268,commdev-image-keyboard-response,272,525571,learnblock1,496.39999997615814,img/planet14_right.png,14,Community 2,NA,TRUE,j,j,NA,NA,NA,1,6,"5,12,1,10,9,14,2,11,15,13,7,4,8,6,3"
14268,commdev-image-keyboard-response,273,526823,learnblock1,602.7999999523163,img/planet13_right.png,13,Community 2,NA,TRUE,j,j,NA,NA,NA,1,6,"5,12,1,10,9,14,2,11,15,13,7,4,8,6,3"
14268,commdev-image-keyboard-response,274,528075,learnblock1,486.8000000715256,img/planet15_left.png,15,Community 2,NA,TRUE,f,f,NA,NA,NA,1,6,"5,12,1,10,9,14,2,11,15,13,7,4,8,6,3"
14268,commdev-image-keyboard-response,275,529327,learnblock1,474,img/planet2_left.png,2,Community 2,NA,TRUE,f,f,NA,NA,NA,1,6,"5,12,1,10,9,14,2,11,15,13,7,4,8,6,3"
14268,commdev-image-keyboard-response,276,530579,learnblock1,450.6999999284744,img/planet14_right.png,14,Community 2,NA,TRUE,j,j,NA,NA,NA,1,6,"5,12,1,10,9,14,2,11,15,13,7,4,8,6,3"
14268,commdev-image-keyboard-response,277,531831,learnblock1,470.2000000476837,img/planet15_left.png,15,Community 2,NA,TRUE,f,f,NA,NA,NA,1,6,"5,12,1,10,9,14,2,11,15,13,7,4,8,6,3"
14268,commdev-image-keyboard-response,278,533082,learnblock1,592,img/planet13_left.png,13,Community 2,NA,TRUE,f,f,NA,NA,NA,1,6,"5,12,1,10,9,14,2,11,15,13,7,4,8,6,3"
14268,commdev-image-keyboard-response,279,534332,learnblock1,409.5,img/planet2_right.png,2,Community 2,NA,TRUE,j,j,NA,NA,NA,1,6,"5,12,1,10,9,14,2,11,15,13,7,4,8,6,3"
14268,commdev-image-keyboard-response,280,535583,learnblock1,511,img/planet11_left.png,11,Community 2,NA,TRUE,f,f,NA,NA,NA,1,6,"5,12,1,10,9,14,2,11,15,13,7,4,8,6,3"
14268,commdev-image-keyboard-response,281,536835,learnblock1,481.5,img/planet13_right.png,13,Community 2,NA,TRUE,j,j,NA,NA,NA,1,6,"5,12,1,10,9,14,2,11,15,13,7,4,8,6,3"
14268,commdev-image-keyboard-response,282,538087,learnblock1,427.10000002384186,img/planet15_left.png,15,Community 2,NA,TRUE,f,f,NA,NA,NA,1,6,"5,12,1,10,9,14,2,11,15,13,7,4,8,6,3"
14268,commdev-image-keyboard-response,283,539339,learnblock1,502.7999999523163,img/planet14_left.png,14,Community 2,NA,FALSE,j,f,NA,NA,NA,1,6,"5,12,1,10,9,14,2,11,15,13,7,4,8,6,3"
14268,commdev-image-keyboard-response,284,540593,learnblock1,448.39999997615814,img/planet15_right.png,15,Community 2,NA,TRUE,j,j,NA,NA,NA,1,6,"5,12,1,10,9,14,2,11,15,13,7,4,8,6,3"
14268,commdev-image-keyboard-response,285,541846,learnblock1,453.5,img/planet11_right.png,11,Community 2,NA,TRUE,j,j,NA,NA,NA,1,6,"5,12,1,10,9,14,2,11,15,13,7,4,8,6,3"
14268,commdev-image-keyboard-response,286,543098,learnblock1,446.39999997615814,img/planet2_right.png,2,Community 2,NA,TRUE,j,j,NA,NA,NA,1,6,"5,12,1,10,9,14,2,11,15,13,7,4,8,6,3"
14268,commdev-image-keyboard-response,287,544349,learnblock1,499.60000002384186,img/planet11_right.png,11,Community 2,NA,TRUE,j,j,NA,NA,NA,1,6,"5,12,1,10,9,14,2,11,15,13,7,4,8,6,3"
14268,commdev-image-keyboard-response,288,545600,learnblock1,541.5,img/planet13_right.png,13,Community 2,NA,TRUE,j,j,NA,NA,NA,1,6,"5,12,1,10,9,14,2,11,15,13,7,4,8,6,3"
14268,commdev-image-keyboard-response,289,546851,learnblock1,402.10000002384186,img/planet2_right.png,2,Community 2,NA,TRUE,j,j,NA,NA,NA,1,6,"5,12,1,10,9,14,2,11,15,13,7,4,8,6,3"
14268,commdev-image-keyboard-response,290,548103,learnblock1,554.2000000476837,img/planet14_right.png,14,Community 2,NA,TRUE,j,j,NA,NA,NA,1,6,"5,12,1,10,9,14,2,11,15,13,7,4,8,6,3"
14268,commdev-image-keyboard-response,291,549355,learnblock1,526.2999999523163,img/planet13_left.png,13,Community 2,NA,TRUE,f,f,NA,NA,NA,1,6,"5,12,1,10,9,14,2,11,15,13,7,4,8,6,3"
14268,commdev-image-keyboard-response,292,550606,learnblock1,471.39999997615814,img/planet11_left.png,11,Community 2,NA,TRUE,f,f,NA,NA,NA,1,6,"5,12,1,10,9,14,2,11,15,13,7,4,8,6,3"
14268,commdev-image-keyboard-response,293,551858,learnblock1,465.39999997615814,img/planet13_right.png,13,Community 2,NA,TRUE,j,j,NA,NA,NA,1,6,"5,12,1,10,9,14,2,11,15,13,7,4,8,6,3"
14268,commdev-image-keyboard-response,294,553109,learnblock1,521.6999999284744,img/planet14_left.png,14,Community 2,NA,TRUE,f,f,NA,NA,NA,1,6,"5,12,1,10,9,14,2,11,15,13,7,4,8,6,3"
14268,commdev-image-keyboard-response,295,554360,learnblock1,435.89999997615814,img/planet10_right.png,10,Community 1,NA,TRUE,j,j,NA,NA,NA,1,6,"5,12,1,10,9,14,2,11,15,13,7,4,8,6,3"
14268,commdev-image-keyboard-response,296,555610,learnblock1,499.89999997615814,img/planet14_left.png,14,Community 2,NA,TRUE,f,f,NA,NA,NA,1,6,"5,12,1,10,9,14,2,11,15,13,7,4,8,6,3"
14268,commdev-image-keyboard-response,297,556862,learnblock1,492.1999999284744,img/planet2_left.png,2,Community 2,NA,TRUE,f,f,NA,NA,NA,1,6,"5,12,1,10,9,14,2,11,15,13,7,4,8,6,3"
14268,commdev-image-keyboard-response,298,558113,learnblock1,536.4000000953674,img/planet15_right.png,15,Community 2,NA,TRUE,j,j,NA,NA,NA,1,6,"5,12,1,10,9,14,2,11,15,13,7,4,8,6,3"
14268,commdev-image-keyboard-response,299,559365,learnblock1,486.7999999523163,img/planet13_right.png,13,Community 2,NA,TRUE,j,j,NA,NA,NA,1,6,"5,12,1,10,9,14,2,11,15,13,7,4,8,6,3"
14268,commdev-image-keyboard-response,300,560617,learnblock1,473.89999997615814,img/planet2_right.png,2,Community 2,NA,TRUE,j,j,NA,NA,NA,1,6,"5,12,1,10,9,14,2,11,15,13,7,4,8,6,3"
14268,commdev-image-keyboard-response,301,561868,learnblock1,587.1000000238419,img/planet11_right.png,11,Community 2,NA,TRUE,j,j,NA,NA,NA,1,6,"5,12,1,10,9,14,2,11,15,13,7,4,8,6,3"
14268,commdev-image-keyboard-response,302,563120,learnblock1,456.7999999523163,img/planet15_right.png,15,Community 2,NA,TRUE,j,j,NA,NA,NA,1,6,"5,12,1,10,9,14,2,11,15,13,7,4,8,6,3"
14268,commdev-image-keyboard-response,303,564371,learnblock1,653.6000000238419,img/planet11_right.png,11,Community 2,NA,TRUE,j,j,NA,NA,NA,1,6,"5,12,1,10,9,14,2,11,15,13,7,4,8,6,3"
14268,commdev-image-keyboard-response,304,565623,learnblock1,534.8999999761581,img/planet4_left.png,4,Community 3,NA,TRUE,f,f,NA,NA,NA,1,6,"5,12,1,10,9,14,2,11,15,13,7,4,8,6,3"
14268,commdev-image-keyboard-response,305,566875,learnblock1,627.9000000953674,img/planet3_left.png,3,Community 3,NA,TRUE,f,f,NA,NA,NA,1,6,"5,12,1,10,9,14,2,11,15,13,7,4,8,6,3"
14268,commdev-image-keyboard-response,306,568126,learnblock1,495.1999999284744,img/planet6_right.png,6,Community 3,NA,TRUE,j,j,NA,NA,NA,1,6,"5,12,1,10,9,14,2,11,15,13,7,4,8,6,3"
14268,commdev-image-keyboard-response,307,569377,learnblock1,506,img/planet3_left.png,3,Community 3,NA,TRUE,f,f,NA,NA,NA,1,6,"5,12,1,10,9,14,2,11,15,13,7,4,8,6,3"
14268,commdev-image-keyboard-response,308,570629,learnblock1,457.39999997615814,img/planet6_right.png,6,Community 3,NA,TRUE,j,j,NA,NA,NA,1,6,"5,12,1,10,9,14,2,11,15,13,7,4,8,6,3"
14268,commdev-image-keyboard-response,309,571880,learnblock1,646.1000000238419,img/planet8_right.png,8,Community 3,NA,TRUE,j,j,NA,NA,NA,1,6,"5,12,1,10,9,14,2,11,15,13,7,4,8,6,3"
14268,commdev-image-keyboard-response,310,573132,learnblock1,603.8999999761581,img/planet3_left.png,3,Community 3,NA,TRUE,f,f,NA,NA,NA,1,6,"5,12,1,10,9,14,2,11,15,13,7,4,8,6,3"
14268,commdev-image-keyboard-response,311,574383,learnblock1,496.40000009536743,img/planet8_right.png,8,Community 3,NA,TRUE,j,j,NA,NA,NA,1,6,"5,12,1,10,9,14,2,11,15,13,7,4,8,6,3"
14268,commdev-image-keyboard-response,312,575634,learnblock1,554,img/planet6_left.png,6,Community 3,NA,TRUE,f,f,NA,NA,NA,1,6,"5,12,1,10,9,14,2,11,15,13,7,4,8,6,3"
14268,commdev-image-keyboard-response,313,576887,learnblock1,599.3000000715256,img/planet7_left.png,7,Community 3,NA,TRUE,f,f,NA,NA,NA,1,6,"5,12,1,10,9,14,2,11,15,13,7,4,8,6,3"
14268,commdev-image-keyboard-response,314,578140,learnblock1,796.7999999523163,img/planet8_left.png,8,Community 3,NA,TRUE,f,f,NA,NA,NA,1,6,"5,12,1,10,9,14,2,11,15,13,7,4,8,6,3"
14268,commdev-image-keyboard-response,315,579392,learnblock1,642.3999999761581,img/planet6_left.png,6,Community 3,NA,TRUE,f,f,NA,NA,NA,1,6,"5,12,1,10,9,14,2,11,15,13,7,4,8,6,3"
14268,commdev-image-keyboard-response,316,580642,learnblock1,689.5,img/planet7_left.png,7,Community 3,NA,TRUE,f,f,NA,NA,NA,1,6,"5,12,1,10,9,14,2,11,15,13,7,4,8,6,3"
14268,commdev-image-keyboard-response,317,581894,learnblock1,932.1000000238419,img/planet8_left.png,8,Community 3,NA,TRUE,f,f,NA,NA,NA,1,6,"5,12,1,10,9,14,2,11,15,13,7,4,8,6,3"
14268,commdev-image-keyboard-response,318,583145,learnblock1,760.6000000238419,img/planet6_right.png,6,Community 3,NA,TRUE,j,j,NA,NA,NA,1,6,"5,12,1,10,9,14,2,11,15,13,7,4,8,6,3"
14268,commdev-image-keyboard-response,319,584397,learnblock1,543.3999999761581,img/planet8_left.png,8,Community 3,NA,TRUE,f,f,NA,NA,NA,1,6,"5,12,1,10,9,14,2,11,15,13,7,4,8,6,3"
14268,commdev-image-keyboard-response,320,585648,learnblock1,441.6999999284744,img/planet3_right.png,3,Community 3,NA,TRUE,j,j,NA,NA,NA,1,6,"5,12,1,10,9,14,2,11,15,13,7,4,8,6,3"
14268,commdev-image-keyboard-response,321,586900,learnblock1,483.5,img/planet7_left.png,7,Community 3,NA,TRUE,f,f,NA,NA,NA,1,6,"5,12,1,10,9,14,2,11,15,13,7,4,8,6,3"
14268,commdev-image-keyboard-response,322,588152,learnblock1,544.6000000238419,img/planet6_left.png,6,Community 3,NA,TRUE,f,f,NA,NA,NA,1,6,"5,12,1,10,9,14,2,11,15,13,7,4,8,6,3"
14268,commdev-image-keyboard-response,323,589403,learnblock1,622.2000000476837,img/planet7_left.png,7,Community 3,NA,TRUE,f,f,NA,NA,NA,1,6,"5,12,1,10,9,14,2,11,15,13,7,4,8,6,3"
14268,commdev-image-keyboard-response,324,590654,learnblock1,467.2999999523163,img/planet6_right.png,6,Community 3,NA,TRUE,j,j,NA,NA,NA,1,6,"5,12,1,10,9,14,2,11,15,13,7,4,8,6,3"
14268,commdev-image-keyboard-response,325,591906,learnblock1,563.5,img/planet3_right.png,3,Community 3,NA,TRUE,j,j,NA,NA,NA,1,6,"5,12,1,10,9,14,2,11,15,13,7,4,8,6,3"
14268,commdev-image-keyboard-response,326,593157,learnblock1,585.8999999761581,img/planet6_left.png,6,Community 3,NA,TRUE,f,f,NA,NA,NA,1,6,"5,12,1,10,9,14,2,11,15,13,7,4,8,6,3"
14268,commdev-image-keyboard-response,327,594408,learnblock1,529.1000000238419,img/planet3_left.png,3,Community 3,NA,FALSE,j,f,NA,NA,NA,1,6,"5,12,1,10,9,14,2,11,15,13,7,4,8,6,3"
14268,commdev-image-keyboard-response,328,595659,learnblock1,439,img/planet8_right.png,8,Community 3,NA,TRUE,j,j,NA,NA,NA,1,6,"5,12,1,10,9,14,2,11,15,13,7,4,8,6,3"
14268,commdev-image-keyboard-response,329,596913,learnblock1,546.3000000715256,img/planet4_left.png,4,Community 3,NA,TRUE,f,f,NA,NA,NA,1,6,"5,12,1,10,9,14,2,11,15,13,7,4,8,6,3"
14268,commdev-image-keyboard-response,330,598164,learnblock1,553.2999999523163,img/planet6_right.png,6,Community 3,NA,TRUE,j,j,NA,NA,NA,1,6,"5,12,1,10,9,14,2,11,15,13,7,4,8,6,3"
14268,commdev-image-keyboard-response,331,599416,learnblock1,504.7000000476837,img/planet7_left.png,7,Community 3,NA,TRUE,f,f,NA,NA,NA,1,6,"5,12,1,10,9,14,2,11,15,13,7,4,8,6,3"
14268,commdev-image-keyboard-response,332,600668,learnblock1,609.1000000238419,img/planet3_right.png,3,Community 3,NA,TRUE,j,j,NA,NA,NA,1,6,"5,12,1,10,9,14,2,11,15,13,7,4,8,6,3"
14268,commdev-image-keyboard-response,333,601919,learnblock1,487.59999990463257,img/planet7_right.png,7,Community 3,NA,TRUE,j,j,NA,NA,NA,1,6,"5,12,1,10,9,14,2,11,15,13,7,4,8,6,3"
14268,commdev-image-keyboard-response,334,603170,learnblock1,453.2000000476837,img/planet9_right.png,9,Community 1,NA,TRUE,j,j,NA,NA,NA,1,6,"5,12,1,10,9,14,2,11,15,13,7,4,8,6,3"
14268,commdev-image-keyboard-response,335,604435,learnblock1,526.7000000476837,img/planet7_left.png,7,Community 3,NA,TRUE,f,f,NA,NA,NA,1,6,"5,12,1,10,9,14,2,11,15,13,7,4,8,6,3"
14268,commdev-image-keyboard-response,336,605687,learnblock1,570.7999999523163,img/planet6_right.png,6,Community 3,NA,TRUE,j,j,NA,NA,NA,1,6,"5,12,1,10,9,14,2,11,15,13,7,4,8,6,3"
14268,commdev-image-keyboard-response,337,606939,learnblock1,541.5,img/planet3_right.png,3,Community 3,NA,FALSE,f,j,NA,NA,NA,1,6,"5,12,1,10,9,14,2,11,15,13,7,4,8,6,3"
14268,commdev-image-keyboard-response,338,608191,learnblock1,507.7000000476837,img/planet6_left.png,6,Community 3,NA,TRUE,f,f,NA,NA,NA,1,6,"5,12,1,10,9,14,2,11,15,13,7,4,8,6,3"
14268,commdev-image-keyboard-response,339,609442,learnblock1,497.60000002384186,img/planet8_left.png,8,Community 3,NA,TRUE,f,f,NA,NA,NA,1,6,"5,12,1,10,9,14,2,11,15,13,7,4,8,6,3"
14268,commdev-image-keyboard-response,340,610693,learnblock1,507.5,img/planet3_right.png,3,Community 3,NA,TRUE,j,j,NA,NA,NA,1,6,"5,12,1,10,9,14,2,11,15,13,7,4,8,6,3"
14268,commdev-image-keyboard-response,341,611946,learnblock1,468.7000000476837,img/planet4_right.png,4,Community 3,NA,TRUE,j,j,NA,NA,NA,1,6,"5,12,1,10,9,14,2,11,15,13,7,4,8,6,3"
14268,commdev-image-keyboard-response,342,613197,learnblock1,555.7000000476837,img/planet3_left.png,3,Community 3,NA,TRUE,f,f,NA,NA,NA,1,6,"5,12,1,10,9,14,2,11,15,13,7,4,8,6,3"
14268,commdev-image-keyboard-response,343,614449,learnblock1,618.6000000238419,img/planet7_right.png,7,Community 3,NA,TRUE,j,j,NA,NA,NA,1,6,"5,12,1,10,9,14,2,11,15,13,7,4,8,6,3"
14268,commdev-image-keyboard-response,344,615701,learnblock1,586.7000000476837,img/planet9_right.png,9,Community 1,NA,FALSE,f,j,NA,NA,NA,1,6,"5,12,1,10,9,14,2,11,15,13,7,4,8,6,3"
14268,commdev-image-keyboard-response,345,616953,learnblock1,701.5999999046326,img/planet7_right.png,7,Community 3,NA,TRUE,j,j,NA,NA,NA,1,6,"5,12,1,10,9,14,2,11,15,13,7,4,8,6,3"
14268,commdev-image-keyboard-response,346,618205,learnblock1,553.5999999046326,img/planet6_left.png,6,Community 3,NA,TRUE,f,f,NA,NA,NA,1,6,"5,12,1,10,9,14,2,11,15,13,7,4,8,6,3"
14268,commdev-image-keyboard-response,347,619455,learnblock1,478,img/planet4_right.png,4,Community 3,NA,TRUE,j,j,NA,NA,NA,1,6,"5,12,1,10,9,14,2,11,15,13,7,4,8,6,3"
14268,commdev-image-keyboard-response,351,650724,learnblock2,657.8999999761581,img/planet5_right.png,5,Community 1,NA,TRUE,j,j,NA,NA,NA,1,6,"5,12,1,10,9,14,2,11,15,13,7,4,8,6,3"
14268,commdev-image-keyboard-response,352,651975,learnblock2,556,img/planet12_right.png,12,Community 1,NA,TRUE,j,j,NA,NA,NA,1,6,"5,12,1,10,9,14,2,11,15,13,7,4,8,6,3"
14268,commdev-image-keyboard-response,353,653227,learnblock2,450.7999999523163,img/planet5_right.png,5,Community 1,NA,TRUE,j,j,NA,NA,NA,1,6,"5,12,1,10,9,14,2,11,15,13,7,4,8,6,3"
14268,commdev-image-keyboard-response,354,654478,learnblock2,546.3999999761581,img/planet10_right.png,10,Community 1,NA,TRUE,j,j,NA,NA,NA,1,6,"5,12,1,10,9,14,2,11,15,13,7,4,8,6,3"
14268,commdev-image-keyboard-response,355,655729,learnblock2,517.5999999046326,img/planet1_left.png,1,Community 1,NA,TRUE,f,f,NA,NA,NA,1,6,"5,12,1,10,9,14,2,11,15,13,7,4,8,6,3"
14268,commdev-image-keyboard-response,356,656981,learnblock2,443.2000000476837,img/planet12_left.png,12,Community 1,NA,TRUE,f,f,NA,NA,NA,1,6,"5,12,1,10,9,14,2,11,15,13,7,4,8,6,3"
14268,commdev-image-keyboard-response,357,658232,learnblock2,464.39999997615814,img/planet1_right.png,1,Community 1,NA,TRUE,j,j,NA,NA,NA,1,6,"5,12,1,10,9,14,2,11,15,13,7,4,8,6,3"
14268,commdev-image-keyboard-response,358,659483,learnblock2,455.5,img/planet9_right.png,9,Community 1,NA,TRUE,j,j,NA,NA,NA,1,6,"5,12,1,10,9,14,2,11,15,13,7,4,8,6,3"
14268,commdev-image-keyboard-response,359,660736,learnblock2,440.39999997615814,img/planet1_right.png,1,Community 1,NA,TRUE,j,j,NA,NA,NA,1,6,"5,12,1,10,9,14,2,11,15,13,7,4,8,6,3"
14268,commdev-image-keyboard-response,360,661987,learnblock2,437.89999997615814,img/planet9_left.png,9,Community 1,NA,TRUE,f,f,NA,NA,NA,1,6,"5,12,1,10,9,14,2,11,15,13,7,4,8,6,3"
14268,commdev-image-keyboard-response,361,663239,learnblock2,489.39999997615814,img/planet12_left.png,12,Community 1,NA,TRUE,f,f,NA,NA,NA,1,6,"5,12,1,10,9,14,2,11,15,13,7,4,8,6,3"
14268,commdev-image-keyboard-response,362,664490,learnblock2,494.2000000476837,img/planet9_right.png,9,Community 1,NA,TRUE,j,j,NA,NA,NA,1,6,"5,12,1,10,9,14,2,11,15,13,7,4,8,6,3"
14268,commdev-image-keyboard-response,363,665742,learnblock2,579.7000000476837,img/planet7_left.png,7,Community 3,NA,TRUE,f,f,NA,NA,NA,1,6,"5,12,1,10,9,14,2,11,15,13,7,4,8,6,3"
14268,commdev-image-keyboard-response,364,666993,learnblock2,634.6999999284744,img/planet3_right.png,3,Community 3,NA,TRUE,j,j,NA,NA,NA,1,6,"5,12,1,10,9,14,2,11,15,13,7,4,8,6,3"
14268,commdev-image-keyboard-response,365,668244,learnblock2,524.1000000238419,img/planet4_right.png,4,Community 3,NA,TRUE,j,j,NA,NA,NA,1,6,"5,12,1,10,9,14,2,11,15,13,7,4,8,6,3"
14268,commdev-image-keyboard-response,366,669495,learnblock2,473.10000002384186,img/planet8_left.png,8,Community 3,NA,TRUE,f,f,NA,NA,NA,1,6,"5,12,1,10,9,14,2,11,15,13,7,4,8,6,3"
14268,commdev-image-keyboard-response,367,670748,learnblock2,568.1000000238419,img/planet7_right.png,7,Community 3,NA,TRUE,j,j,NA,NA,NA,1,6,"5,12,1,10,9,14,2,11,15,13,7,4,8,6,3"
14268,commdev-image-keyboard-response,368,672000,learnblock2,459.5,img/planet6_right.png,6,Community 3,NA,TRUE,j,j,NA,NA,NA,1,6,"5,12,1,10,9,14,2,11,15,13,7,4,8,6,3"
14268,commdev-image-keyboard-response,369,673251,learnblock2,496.40000009536743,img/planet7_right.png,7,Community 3,NA,TRUE,j,j,NA,NA,NA,1,6,"5,12,1,10,9,14,2,11,15,13,7,4,8,6,3"
14268,commdev-image-keyboard-response,370,674503,learnblock2,497.8000000715256,img/planet9_right.png,9,Community 1,NA,TRUE,j,j,NA,NA,NA,1,6,"5,12,1,10,9,14,2,11,15,13,7,4,8,6,3"
14268,commdev-image-keyboard-response,371,675755,learnblock2,473.40000009536743,img/planet7_left.png,7,Community 3,NA,TRUE,f,f,NA,NA,NA,1,6,"5,12,1,10,9,14,2,11,15,13,7,4,8,6,3"
14268,commdev-image-keyboard-response,372,677006,learnblock2,776.2999999523163,img/planet8_left.png,8,Community 3,NA,TRUE,f,f,NA,NA,NA,1,6,"5,12,1,10,9,14,2,11,15,13,7,4,8,6,3"
14268,commdev-image-keyboard-response,373,678258,learnblock2,561.9000000953674,img/planet4_right.png,4,Community 3,NA,TRUE,j,j,NA,NA,NA,1,6,"5,12,1,10,9,14,2,11,15,13,7,4,8,6,3"
14268,commdev-image-keyboard-response,374,679510,learnblock2,495.8000000715256,img/planet11_right.png,11,Community 2,NA,TRUE,j,j,NA,NA,NA,1,6,"5,12,1,10,9,14,2,11,15,13,7,4,8,6,3"
14268,commdev-image-keyboard-response,375,680761,learnblock2,560.1999999284744,img/planet4_left.png,4,Community 3,NA,TRUE,f,f,NA,NA,NA,1,6,"5,12,1,10,9,14,2,11,15,13,7,4,8,6,3"
14268,commdev-image-keyboard-response,376,682012,learnblock2,579.1000000238419,img/planet8_right.png,8,Community 3,NA,TRUE,j,j,NA,NA,NA,1,6,"5,12,1,10,9,14,2,11,15,13,7,4,8,6,3"
14268,commdev-image-keyboard-response,377,683263,learnblock2,516.2000000476837,img/planet6_left.png,6,Community 3,NA,TRUE,f,f,NA,NA,NA,1,6,"5,12,1,10,9,14,2,11,15,13,7,4,8,6,3"
14268,commdev-image-keyboard-response,378,684515,learnblock2,529.7999999523163,img/planet3_right.png,3,Community 3,NA,TRUE,j,j,NA,NA,NA,1,6,"5,12,1,10,9,14,2,11,15,13,7,4,8,6,3"
14268,commdev-image-keyboard-response,379,685766,learnblock2,470.8000000715256,img/planet8_right.png,8,Community 3,NA,TRUE,j,j,NA,NA,NA,1,6,"5,12,1,10,9,14,2,11,15,13,7,4,8,6,3"
14268,commdev-image-keyboard-response,380,687019,learnblock2,502.3000000715256,img/planet6_left.png,6,Community 3,NA,TRUE,f,f,NA,NA,NA,1,6,"5,12,1,10,9,14,2,11,15,13,7,4,8,6,3"
14268,commdev-image-keyboard-response,381,688270,learnblock2,550.9000000953674,img/planet4_left.png,4,Community 3,NA,TRUE,f,f,NA,NA,NA,1,6,"5,12,1,10,9,14,2,11,15,13,7,4,8,6,3"
14268,commdev-image-keyboard-response,382,689521,learnblock2,474.60000002384186,img/planet3_right.png,3,Community 3,NA,TRUE,j,j,NA,NA,NA,1,6,"5,12,1,10,9,14,2,11,15,13,7,4,8,6,3"
14268,commdev-image-keyboard-response,383,690773,learnblock2,465.2999999523163,img/planet4_right.png,4,Community 3,NA,TRUE,j,j,NA,NA,NA,1,6,"5,12,1,10,9,14,2,11,15,13,7,4,8,6,3"
14268,commdev-image-keyboard-response,384,692024,learnblock2,450.60000002384186,img/planet8_right.png,8,Community 3,NA,TRUE,j,j,NA,NA,NA,1,6,"5,12,1,10,9,14,2,11,15,13,7,4,8,6,3"
14268,commdev-image-keyboard-response,385,693276,learnblock2,427.39999997615814,img/planet7_left.png,7,Community 3,NA,TRUE,f,f,NA,NA,NA,1,6,"5,12,1,10,9,14,2,11,15,13,7,4,8,6,3"
14268,commdev-image-keyboard-response,386,694527,learnblock2,454.2999999523163,img/planet9_left.png,9,Community 1,NA,TRUE,f,f,NA,NA,NA,1,6,"5,12,1,10,9,14,2,11,15,13,7,4,8,6,3"
14268,commdev-image-keyboard-response,387,695779,learnblock2,472.59999990463257,img/planet7_left.png,7,Community 3,NA,TRUE,f,f,NA,NA,NA,1,6,"5,12,1,10,9,14,2,11,15,13,7,4,8,6,3"
14268,commdev-image-keyboard-response,388,697030,learnblock2,416.1999999284744,img/planet6_right.png,6,Community 3,NA,TRUE,j,j,NA,NA,NA,1,6,"5,12,1,10,9,14,2,11,15,13,7,4,8,6,3"
14268,commdev-image-keyboard-response,389,698283,learnblock2,436.2999999523163,img/planet8_right.png,8,Community 3,NA,TRUE,j,j,NA,NA,NA,1,6,"5,12,1,10,9,14,2,11,15,13,7,4,8,6,3"
14268,commdev-image-keyboard-response,390,699533,learnblock2,612.5999999046326,img/planet7_right.png,7,Community 3,NA,TRUE,j,j,NA,NA,NA,1,6,"5,12,1,10,9,14,2,11,15,13,7,4,8,6,3"
14268,commdev-image-keyboard-response,391,700785,learnblock2,654.2000000476837,img/planet8_left.png,8,Community 3,NA,TRUE,f,f,NA,NA,NA,1,6,"5,12,1,10,9,14,2,11,15,13,7,4,8,6,3"
14268,commdev-image-keyboard-response,392,702037,learnblock2,485.89999997615814,img/planet4_right.png,4,Community 3,NA,TRUE,j,j,NA,NA,NA,1,6,"5,12,1,10,9,14,2,11,15,13,7,4,8,6,3"
14268,commdev-image-keyboard-response,393,703289,learnblock2,424,img/planet8_right.png,8,Community 3,NA,TRUE,j,j,NA,NA,NA,1,6,"5,12,1,10,9,14,2,11,15,13,7,4,8,6,3"
14268,commdev-image-keyboard-response,394,704540,learnblock2,462.1999999284744,img/planet7_right.png,7,Community 3,NA,TRUE,j,j,NA,NA,NA,1,6,"5,12,1,10,9,14,2,11,15,13,7,4,8,6,3"
14268,commdev-image-keyboard-response,395,705793,learnblock2,579.6000000238419,img/planet6_right.png,6,Community 3,NA,TRUE,j,j,NA,NA,NA,1,6,"5,12,1,10,9,14,2,11,15,13,7,4,8,6,3"
14268,commdev-image-keyboard-response,396,707044,learnblock2,533.1000000238419,img/planet8_right.png,8,Community 3,NA,TRUE,j,j,NA,NA,NA,1,6,"5,12,1,10,9,14,2,11,15,13,7,4,8,6,3"
14268,commdev-image-keyboard-response,397,708296,learnblock2,549.8000000715256,img/planet3_right.png,3,Community 3,NA,TRUE,j,j,NA,NA,NA,1,6,"5,12,1,10,9,14,2,11,15,13,7,4,8,6,3"
14268,commdev-image-keyboard-response,398,709547,learnblock2,442.2000000476837,img/planet6_left.png,6,Community 3,NA,TRUE,f,f,NA,NA,NA,1,6,"5,12,1,10,9,14,2,11,15,13,7,4,8,6,3"
14268,commdev-image-keyboard-response,399,710803,learnblock2,582.5999999046326,img/planet7_left.png,7,Community 3,NA,TRUE,f,f,NA,NA,NA,1,6,"5,12,1,10,9,14,2,11,15,13,7,4,8,6,3"
14268,commdev-image-keyboard-response,400,712054,learnblock2,502.6999999284744,img/planet6_right.png,6,Community 3,NA,TRUE,j,j,NA,NA,NA,1,6,"5,12,1,10,9,14,2,11,15,13,7,4,8,6,3"
14268,commdev-image-keyboard-response,401,713306,learnblock2,540.3000000715256,img/planet4_right.png,4,Community 3,NA,TRUE,j,j,NA,NA,NA,1,6,"5,12,1,10,9,14,2,11,15,13,7,4,8,6,3"
14268,commdev-image-keyboard-response,402,714556,learnblock2,480.59999990463257,img/planet3_right.png,3,Community 3,NA,TRUE,j,j,NA,NA,NA,1,6,"5,12,1,10,9,14,2,11,15,13,7,4,8,6,3"
14268,commdev-image-keyboard-response,403,715808,learnblock2,490.10000002384186,img/planet8_right.png,8,Community 3,NA,TRUE,j,j,NA,NA,NA,1,6,"5,12,1,10,9,14,2,11,15,13,7,4,8,6,3"
14268,commdev-image-keyboard-response,404,717060,learnblock2,510.10000002384186,img/planet7_right.png,7,Community 3,NA,TRUE,j,j,NA,NA,NA,1,6,"5,12,1,10,9,14,2,11,15,13,7,4,8,6,3"
14268,commdev-image-keyboard-response,405,718311,learnblock2,531,img/planet6_left.png,6,Community 3,NA,TRUE,f,f,NA,NA,NA,1,6,"5,12,1,10,9,14,2,11,15,13,7,4,8,6,3"
14268,commdev-image-keyboard-response,406,719563,learnblock2,527.6000000238419,img/planet7_right.png,7,Community 3,NA,TRUE,j,j,NA,NA,NA,1,6,"5,12,1,10,9,14,2,11,15,13,7,4,8,6,3"
14268,commdev-image-keyboard-response,407,720813,learnblock2,511.7000000476837,img/planet8_left.png,8,Community 3,NA,TRUE,f,f,NA,NA,NA,1,6,"5,12,1,10,9,14,2,11,15,13,7,4,8,6,3"
14268,commdev-image-keyboard-response,408,722066,learnblock2,593.1000000238419,img/planet4_left.png,4,Community 3,NA,TRUE,f,f,NA,NA,NA,1,6,"5,12,1,10,9,14,2,11,15,13,7,4,8,6,3"
14268,commdev-image-keyboard-response,409,723317,learnblock2,587.6000000238419,img/planet8_left.png,8,Community 3,NA,TRUE,f,f,NA,NA,NA,1,6,"5,12,1,10,9,14,2,11,15,13,7,4,8,6,3"
14268,commdev-image-keyboard-response,410,724569,learnblock2,446.2999999523163,img/planet4_left.png,4,Community 3,NA,TRUE,f,f,NA,NA,NA,1,6,"5,12,1,10,9,14,2,11,15,13,7,4,8,6,3"
14268,commdev-image-keyboard-response,411,725820,learnblock2,555.7999999523163,img/planet11_left.png,11,Community 2,NA,TRUE,f,f,NA,NA,NA,1,6,"5,12,1,10,9,14,2,11,15,13,7,4,8,6,3"
14268,commdev-image-keyboard-response,412,727071,learnblock2,647.1000000238419,img/planet15_left.png,15,Community 2,NA,TRUE,f,f,NA,NA,NA,1,6,"5,12,1,10,9,14,2,11,15,13,7,4,8,6,3"
14268,commdev-image-keyboard-response,413,728323,learnblock2,421.89999997615814,img/planet2_right.png,2,Community 2,NA,TRUE,j,j,NA,NA,NA,1,6,"5,12,1,10,9,14,2,11,15,13,7,4,8,6,3"
14268,commdev-image-keyboard-response,414,729575,learnblock2,431.7999999523163,img/planet13_left.png,13,Community 2,NA,FALSE,j,f,NA,NA,NA,1,6,"5,12,1,10,9,14,2,11,15,13,7,4,8,6,3"
14268,commdev-image-keyboard-response,415,730827,learnblock2,581.5,img/planet11_left.png,11,Community 2,NA,TRUE,f,f,NA,NA,NA,1,6,"5,12,1,10,9,14,2,11,15,13,7,4,8,6,3"
14268,commdev-image-keyboard-response,416,732079,learnblock2,485,img/planet4_left.png,4,Community 3,NA,TRUE,f,f,NA,NA,NA,1,6,"5,12,1,10,9,14,2,11,15,13,7,4,8,6,3"
14268,commdev-image-keyboard-response,417,733330,learnblock2,818.7000000476837,img/planet8_left.png,8,Community 3,NA,TRUE,f,f,NA,NA,NA,1,6,"5,12,1,10,9,14,2,11,15,13,7,4,8,6,3"
14268,commdev-image-keyboard-response,418,734582,learnblock2,514.8999999761581,img/planet3_left.png,3,Community 3,NA,TRUE,f,f,NA,NA,NA,1,6,"5,12,1,10,9,14,2,11,15,13,7,4,8,6,3"
14268,commdev-image-keyboard-response,419,735833,learnblock2,484.89999997615814,img/planet7_right.png,7,Community 3,NA,TRUE,j,j,NA,NA,NA,1,6,"5,12,1,10,9,14,2,11,15,13,7,4,8,6,3"
14268,commdev-image-keyboard-response,420,737085,learnblock2,528.2999999523163,img/planet3_left.png,3,Community 3,NA,TRUE,f,f,NA,NA,NA,1,6,"5,12,1,10,9,14,2,11,15,13,7,4,8,6,3"
14268,commdev-image-keyboard-response,421,738336,learnblock2,526.3999999761581,img/planet7_right.png,7,Community 3,NA,TRUE,j,j,NA,NA,NA,1,6,"5,12,1,10,9,14,2,11,15,13,7,4,8,6,3"
14268,commdev-image-keyboard-response,422,739587,learnblock2,527.5,img/planet3_left.png,3,Community 3,NA,TRUE,f,f,NA,NA,NA,1,6,"5,12,1,10,9,14,2,11,15,13,7,4,8,6,3"
14268,commdev-image-keyboard-response,423,740839,learnblock2,454.09999990463257,img/planet8_left.png,8,Community 3,NA,TRUE,f,f,NA,NA,NA,1,6,"5,12,1,10,9,14,2,11,15,13,7,4,8,6,3"
14268,commdev-image-keyboard-response,424,742092,learnblock2,574.9000000953674,img/planet3_right.png,3,Community 3,NA,TRUE,j,j,NA,NA,NA,1,6,"5,12,1,10,9,14,2,11,15,13,7,4,8,6,3"
14268,commdev-image-keyboard-response,425,743344,learnblock2,487.39999997615814,img/planet6_left.png,6,Community 3,NA,TRUE,f,f,NA,NA,NA,1,6,"5,12,1,10,9,14,2,11,15,13,7,4,8,6,3"
14268,commdev-image-keyboard-response,426,744595,learnblock2,463.7000000476837,img/planet4_right.png,4,Community 3,NA,TRUE,j,j,NA,NA,NA,1,6,"5,12,1,10,9,14,2,11,15,13,7,4,8,6,3"
14268,commdev-image-keyboard-response,427,745848,learnblock2,602,img/planet3_right.png,3,Community 3,NA,TRUE,j,j,NA,NA,NA,1,6,"5,12,1,10,9,14,2,11,15,13,7,4,8,6,3"
14268,commdev-image-keyboard-response,428,747099,learnblock2,481.5,img/planet6_right.png,6,Community 3,NA,FALSE,f,j,NA,NA,NA,1,6,"5,12,1,10,9,14,2,11,15,13,7,4,8,6,3"
14268,commdev-image-keyboard-response,429,748351,learnblock2,644.7999999523163,img/planet3_right.png,3,Community 3,NA,TRUE,j,j,NA,NA,NA,1,6,"5,12,1,10,9,14,2,11,15,13,7,4,8,6,3"
14268,commdev-image-keyboard-response,430,749602,learnblock2,528,img/planet6_right.png,6,Community 3,NA,TRUE,j,j,NA,NA,NA,1,6,"5,12,1,10,9,14,2,11,15,13,7,4,8,6,3"
14268,commdev-image-keyboard-response,431,750854,learnblock2,501.89999997615814,img/planet8_left.png,8,Community 3,NA,TRUE,f,f,NA,NA,NA,1,6,"5,12,1,10,9,14,2,11,15,13,7,4,8,6,3"
14268,commdev-image-keyboard-response,432,752106,learnblock2,572,img/planet7_right.png,7,Community 3,NA,TRUE,j,j,NA,NA,NA,1,6,"5,12,1,10,9,14,2,11,15,13,7,4,8,6,3"
14268,commdev-image-keyboard-response,433,753358,learnblock2,492.5,img/planet6_left.png,6,Community 3,NA,TRUE,f,f,NA,NA,NA,1,6,"5,12,1,10,9,14,2,11,15,13,7,4,8,6,3"
14268,commdev-image-keyboard-response,434,754610,learnblock2,589.8000000715256,img/planet4_left.png,4,Community 3,NA,TRUE,f,f,NA,NA,NA,1,6,"5,12,1,10,9,14,2,11,15,13,7,4,8,6,3"
14268,commdev-image-keyboard-response,435,755861,learnblock2,533.3000000715256,img/planet6_right.png,6,Community 3,NA,TRUE,j,j,NA,NA,NA,1,6,"5,12,1,10,9,14,2,11,15,13,7,4,8,6,3"
14268,commdev-image-keyboard-response,436,757122,learnblock2,568.2999999523163,img/planet8_left.png,8,Community 3,NA,TRUE,f,f,NA,NA,NA,1,6,"5,12,1,10,9,14,2,11,15,13,7,4,8,6,3"
14268,commdev-image-keyboard-response,437,758374,learnblock2,468.2000000476837,img/planet4_right.png,4,Community 3,NA,TRUE,j,j,NA,NA,NA,1,6,"5,12,1,10,9,14,2,11,15,13,7,4,8,6,3"
14268,commdev-image-keyboard-response,438,759626,learnblock2,654.7999999523163,img/planet6_left.png,6,Community 3,NA,TRUE,f,f,NA,NA,NA,1,6,"5,12,1,10,9,14,2,11,15,13,7,4,8,6,3"
14268,commdev-image-keyboard-response,439,760876,learnblock2,568.3999999761581,img/planet3_left.png,3,Community 3,NA,TRUE,f,f,NA,NA,NA,1,6,"5,12,1,10,9,14,2,11,15,13,7,4,8,6,3"
14268,commdev-image-keyboard-response,440,762128,learnblock2,425.39999997615814,img/planet7_right.png,7,Community 3,NA,TRUE,j,j,NA,NA,NA,1,6,"5,12,1,10,9,14,2,11,15,13,7,4,8,6,3"
14268,commdev-image-keyboard-response,441,763380,learnblock2,664.7000000476837,img/planet8_right.png,8,Community 3,NA,TRUE,j,j,NA,NA,NA,1,6,"5,12,1,10,9,14,2,11,15,13,7,4,8,6,3"
14268,commdev-image-keyboard-response,442,764632,learnblock2,521.2000000476837,img/planet6_left.png,6,Community 3,NA,TRUE,f,f,NA,NA,NA,1,6,"5,12,1,10,9,14,2,11,15,13,7,4,8,6,3"
14268,commdev-image-keyboard-response,443,765883,learnblock2,515.5,img/planet8_right.png,8,Community 3,NA,TRUE,j,j,NA,NA,NA,1,6,"5,12,1,10,9,14,2,11,15,13,7,4,8,6,3"
14268,commdev-image-keyboard-response,444,767135,learnblock2,645.1000000238419,img/planet7_right.png,7,Community 3,NA,TRUE,j,j,NA,NA,NA,1,6,"5,12,1,10,9,14,2,11,15,13,7,4,8,6,3"
14268,commdev-image-keyboard-response,445,768387,learnblock2,461,img/planet6_right.png,6,Community 3,NA,TRUE,j,j,NA,NA,NA,1,6,"5,12,1,10,9,14,2,11,15,13,7,4,8,6,3"
14268,commdev-image-keyboard-response,446,769639,learnblock2,568.3000000715256,img/planet4_right.png,4,Community 3,NA,TRUE,j,j,NA,NA,NA,1,6,"5,12,1,10,9,14,2,11,15,13,7,4,8,6,3"
14268,commdev-image-keyboard-response,447,770891,learnblock2,437.10000002384186,img/planet11_right.png,11,Community 2,NA,TRUE,j,j,NA,NA,NA,1,6,"5,12,1,10,9,14,2,11,15,13,7,4,8,6,3"
14268,commdev-image-keyboard-response,448,772143,learnblock2,473.3000000715256,img/planet2_right.png,2,Community 2,NA,TRUE,j,j,NA,NA,NA,1,6,"5,12,1,10,9,14,2,11,15,13,7,4,8,6,3"
14268,commdev-image-keyboard-response,449,773394,learnblock2,494.60000002384186,img/planet14_left.png,14,Community 2,NA,TRUE,f,f,NA,NA,NA,1,6,"5,12,1,10,9,14,2,11,15,13,7,4,8,6,3"
14268,commdev-image-keyboard-response,450,774645,learnblock2,431.7999999523163,img/planet2_left.png,2,Community 2,NA,TRUE,f,f,NA,NA,NA,1,6,"5,12,1,10,9,14,2,11,15,13,7,4,8,6,3"
14268,commdev-image-keyboard-response,451,775897,learnblock2,465.2000000476837,img/planet11_right.png,11,Community 2,NA,TRUE,j,j,NA,NA,NA,1,6,"5,12,1,10,9,14,2,11,15,13,7,4,8,6,3"
14268,commdev-image-keyboard-response,452,777149,learnblock2,627.3000000715256,img/planet2_right.png,2,Community 2,NA,TRUE,j,j,NA,NA,NA,1,6,"5,12,1,10,9,14,2,11,15,13,7,4,8,6,3"
14268,commdev-image-keyboard-response,453,778401,learnblock2,623.3000000715256,img/planet14_left.png,14,Community 2,NA,TRUE,f,f,NA,NA,NA,1,6,"5,12,1,10,9,14,2,11,15,13,7,4,8,6,3"
14268,commdev-image-keyboard-response,454,779651,learnblock2,647.1999999284744,img/planet13_right.png,13,Community 2,NA,TRUE,j,j,NA,NA,NA,1,6,"5,12,1,10,9,14,2,11,15,13,7,4,8,6,3"
14268,commdev-image-keyboard-response,455,780904,learnblock2,473.7000000476837,img/planet11_right.png,11,Community 2,NA,TRUE,j,j,NA,NA,NA,1,6,"5,12,1,10,9,14,2,11,15,13,7,4,8,6,3"
14268,commdev-image-keyboard-response,456,782154,learnblock2,490.1999999284744,img/planet4_right.png,4,Community 3,NA,TRUE,j,j,NA,NA,NA,1,6,"5,12,1,10,9,14,2,11,15,13,7,4,8,6,3"
14268,commdev-image-keyboard-response,457,783406,learnblock2,463.7999999523163,img/planet3_right.png,3,Community 3,NA,TRUE,j,j,NA,NA,NA,1,6,"5,12,1,10,9,14,2,11,15,13,7,4,8,6,3"
14268,commdev-image-keyboard-response,458,784657,learnblock2,522.3999999761581,img/planet4_left.png,4,Community 3,NA,TRUE,f,f,NA,NA,NA,1,6,"5,12,1,10,9,14,2,11,15,13,7,4,8,6,3"
14268,commdev-image-keyboard-response,459,785908,learnblock2,544.5999999046326,img/planet6_left.png,6,Community 3,NA,TRUE,f,f,NA,NA,NA,1,6,"5,12,1,10,9,14,2,11,15,13,7,4,8,6,3"
14268,commdev-image-keyboard-response,460,787159,learnblock2,434.2000000476837,img/planet7_right.png,7,Community 3,NA,TRUE,j,j,NA,NA,NA,1,6,"5,12,1,10,9,14,2,11,15,13,7,4,8,6,3"
14268,commdev-image-keyboard-response,461,788411,learnblock2,463.5,img/planet9_right.png,9,Community 1,NA,TRUE,j,j,NA,NA,NA,1,6,"5,12,1,10,9,14,2,11,15,13,7,4,8,6,3"
14268,commdev-image-keyboard-response,462,789663,learnblock2,462.7000000476837,img/planet12_left.png,12,Community 1,NA,TRUE,f,f,NA,NA,NA,1,6,"5,12,1,10,9,14,2,11,15,13,7,4,8,6,3"
14268,commdev-image-keyboard-response,463,790915,learnblock2,568.2999999523163,img/planet10_left.png,10,Community 1,NA,TRUE,f,f,NA,NA,NA,1,6,"5,12,1,10,9,14,2,11,15,13,7,4,8,6,3"
14268,commdev-image-keyboard-response,464,792167,learnblock2,426.10000002384186,img/planet1_right.png,1,Community 1,NA,TRUE,j,j,NA,NA,NA,1,6,"5,12,1,10,9,14,2,11,15,13,7,4,8,6,3"
14268,commdev-image-keyboard-response,465,793418,learnblock2,438.7000000476837,img/planet12_right.png,12,Community 1,NA,TRUE,j,j,NA,NA,NA,1,6,"5,12,1,10,9,14,2,11,15,13,7,4,8,6,3"
14268,commdev-image-keyboard-response,466,794670,learnblock2,467.60000002384186,img/planet1_left.png,1,Community 1,NA,TRUE,f,f,NA,NA,NA,1,6,"5,12,1,10,9,14,2,11,15,13,7,4,8,6,3"
14268,commdev-image-keyboard-response,467,795921,learnblock2,460.8000000715256,img/planet10_left.png,10,Community 1,NA,TRUE,f,f,NA,NA,NA,1,6,"5,12,1,10,9,14,2,11,15,13,7,4,8,6,3"
14268,commdev-image-keyboard-response,468,797176,learnblock2,398.60000002384186,img/planet5_right.png,5,Community 1,NA,TRUE,j,j,NA,NA,NA,1,6,"5,12,1,10,9,14,2,11,15,13,7,4,8,6,3"
14268,commdev-image-keyboard-response,469,798428,learnblock2,505.6999999284744,img/planet10_left.png,10,Community 1,NA,TRUE,f,f,NA,NA,NA,1,6,"5,12,1,10,9,14,2,11,15,13,7,4,8,6,3"
14268,commdev-image-keyboard-response,470,799679,learnblock2,558,img/planet12_right.png,12,Community 1,NA,TRUE,j,j,NA,NA,NA,1,6,"5,12,1,10,9,14,2,11,15,13,7,4,8,6,3"
14268,commdev-image-keyboard-response,471,800930,learnblock2,570.7999999523163,img/planet10_right.png,10,Community 1,NA,TRUE,j,j,NA,NA,NA,1,6,"5,12,1,10,9,14,2,11,15,13,7,4,8,6,3"
14268,commdev-image-keyboard-response,472,802181,learnblock2,444.8000000715256,img/planet1_left.png,1,Community 1,NA,TRUE,f,f,NA,NA,NA,1,6,"5,12,1,10,9,14,2,11,15,13,7,4,8,6,3"
14268,commdev-image-keyboard-response,473,803432,learnblock2,586.9000000953674,img/planet12_left.png,12,Community 1,NA,TRUE,f,f,NA,NA,NA,1,6,"5,12,1,10,9,14,2,11,15,13,7,4,8,6,3"
14268,commdev-image-keyboard-response,474,804683,learnblock2,470.10000002384186,img/planet1_right.png,1,Community 1,NA,TRUE,j,j,NA,NA,NA,1,6,"5,12,1,10,9,14,2,11,15,13,7,4,8,6,3"
14268,commdev-image-keyboard-response,475,805934,learnblock2,505,img/planet10_right.png,10,Community 1,NA,TRUE,j,j,NA,NA,NA,1,6,"5,12,1,10,9,14,2,11,15,13,7,4,8,6,3"
14268,commdev-image-keyboard-response,476,807187,learnblock2,566.5,img/planet12_right.png,12,Community 1,NA,TRUE,j,j,NA,NA,NA,1,6,"5,12,1,10,9,14,2,11,15,13,7,4,8,6,3"
14268,commdev-image-keyboard-response,477,808439,learnblock2,590.9000000953674,img/planet5_right.png,5,Community 1,NA,TRUE,j,j,NA,NA,NA,1,6,"5,12,1,10,9,14,2,11,15,13,7,4,8,6,3"
14268,commdev-image-keyboard-response,478,809691,learnblock2,504.7999999523163,img/planet12_right.png,12,Community 1,NA,TRUE,j,j,NA,NA,NA,1,6,"5,12,1,10,9,14,2,11,15,13,7,4,8,6,3"
14268,commdev-image-keyboard-response,479,810942,learnblock2,551.0999999046326,img/planet1_right.png,1,Community 1,NA,TRUE,j,j,NA,NA,NA,1,6,"5,12,1,10,9,14,2,11,15,13,7,4,8,6,3"
14268,commdev-image-keyboard-response,480,812194,learnblock2,523.2000000476837,img/planet10_left.png,10,Community 1,NA,TRUE,f,f,NA,NA,NA,1,6,"5,12,1,10,9,14,2,11,15,13,7,4,8,6,3"
14268,commdev-image-keyboard-response,481,813445,learnblock2,481.10000002384186,img/planet1_right.png,1,Community 1,NA,TRUE,j,j,NA,NA,NA,1,6,"5,12,1,10,9,14,2,11,15,13,7,4,8,6,3"
14268,commdev-image-keyboard-response,482,814696,learnblock2,474.7000000476837,img/planet5_left.png,5,Community 1,NA,TRUE,f,f,NA,NA,NA,1,6,"5,12,1,10,9,14,2,11,15,13,7,4,8,6,3"
14268,commdev-image-keyboard-response,483,815948,learnblock2,561,img/planet12_left.png,12,Community 1,NA,TRUE,f,f,NA,NA,NA,1,6,"5,12,1,10,9,14,2,11,15,13,7,4,8,6,3"
14268,commdev-image-keyboard-response,484,817199,learnblock2,578.6999999284744,img/planet10_left.png,10,Community 1,NA,TRUE,f,f,NA,NA,NA,1,6,"5,12,1,10,9,14,2,11,15,13,7,4,8,6,3"
14268,commdev-image-keyboard-response,485,818451,learnblock2,694.7000000476837,img/planet5_left.png,5,Community 1,NA,TRUE,f,f,NA,NA,NA,1,6,"5,12,1,10,9,14,2,11,15,13,7,4,8,6,3"
14268,commdev-image-keyboard-response,486,819703,learnblock2,597.6000000238419,img/planet12_right.png,12,Community 1,NA,TRUE,j,j,NA,NA,NA,1,6,"5,12,1,10,9,14,2,11,15,13,7,4,8,6,3"
14268,commdev-image-keyboard-response,487,820954,learnblock2,524,img/planet10_left.png,10,Community 1,NA,TRUE,f,f,NA,NA,NA,1,6,"5,12,1,10,9,14,2,11,15,13,7,4,8,6,3"
14268,commdev-image-keyboard-response,488,822205,learnblock2,431.5,img/planet5_right.png,5,Community 1,NA,TRUE,j,j,NA,NA,NA,1,6,"5,12,1,10,9,14,2,11,15,13,7,4,8,6,3"
14268,commdev-image-keyboard-response,489,823457,learnblock2,493.7999999523163,img/planet1_right.png,1,Community 1,NA,TRUE,j,j,NA,NA,NA,1,6,"5,12,1,10,9,14,2,11,15,13,7,4,8,6,3"
14268,commdev-image-keyboard-response,490,824709,learnblock2,442.5,img/planet9_left.png,9,Community 1,NA,TRUE,f,f,NA,NA,NA,1,6,"5,12,1,10,9,14,2,11,15,13,7,4,8,6,3"
14268,commdev-image-keyboard-response,491,825963,learnblock2,444.39999997615814,img/planet5_left.png,5,Community 1,NA,TRUE,f,f,NA,NA,NA,1,6,"5,12,1,10,9,14,2,11,15,13,7,4,8,6,3"
14268,commdev-image-keyboard-response,492,827215,learnblock2,422.7999999523163,img/planet10_left.png,10,Community 1,NA,TRUE,f,f,NA,NA,NA,1,6,"5,12,1,10,9,14,2,11,15,13,7,4,8,6,3"
14268,commdev-image-keyboard-response,493,828466,learnblock2,476.3000000715256,img/planet12_left.png,12,Community 1,NA,TRUE,f,f,NA,NA,NA,1,6,"5,12,1,10,9,14,2,11,15,13,7,4,8,6,3"
14268,commdev-image-keyboard-response,494,829719,learnblock2,488.7000000476837,img/planet10_right.png,10,Community 1,NA,TRUE,j,j,NA,NA,NA,1,6,"5,12,1,10,9,14,2,11,15,13,7,4,8,6,3"
14268,commdev-image-keyboard-response,495,830970,learnblock2,606.8999999761581,img/planet1_left.png,1,Community 1,NA,TRUE,f,f,NA,NA,NA,1,6,"5,12,1,10,9,14,2,11,15,13,7,4,8,6,3"
14268,commdev-image-keyboard-response,496,832221,learnblock2,567.7999999523163,img/planet5_left.png,5,Community 1,NA,TRUE,f,f,NA,NA,NA,1,6,"5,12,1,10,9,14,2,11,15,13,7,4,8,6,3"
14268,commdev-image-keyboard-response,497,833474,learnblock2,573.1000000238419,img/planet9_right.png,9,Community 1,NA,TRUE,j,j,NA,NA,NA,1,6,"5,12,1,10,9,14,2,11,15,13,7,4,8,6,3"
14268,commdev-image-keyboard-response,498,834726,learnblock2,476.89999997615814,img/planet12_left.png,12,Community 1,NA,TRUE,f,f,NA,NA,NA,1,6,"5,12,1,10,9,14,2,11,15,13,7,4,8,6,3"
14268,commdev-image-keyboard-response,499,835976,learnblock2,480.09999990463257,img/planet9_left.png,9,Community 1,NA,FALSE,j,f,NA,NA,NA,1,6,"5,12,1,10,9,14,2,11,15,13,7,4,8,6,3"
14268,commdev-image-keyboard-response,500,837228,learnblock2,628.8999999761581,img/planet5_left.png,5,Community 1,NA,TRUE,f,f,NA,NA,NA,1,6,"5,12,1,10,9,14,2,11,15,13,7,4,8,6,3"
14268,commdev-image-keyboard-response,501,838479,learnblock2,523.7999999523163,img/planet12_left.png,12,Community 1,NA,TRUE,f,f,NA,NA,NA,1,6,"5,12,1,10,9,14,2,11,15,13,7,4,8,6,3"
14268,commdev-image-keyboard-response,502,839730,learnblock2,411,img/planet5_right.png,5,Community 1,NA,TRUE,j,j,NA,NA,NA,1,6,"5,12,1,10,9,14,2,11,15,13,7,4,8,6,3"
14268,commdev-image-keyboard-response,503,840981,learnblock2,456.89999997615814,img/planet12_left.png,12,Community 1,NA,TRUE,f,f,NA,NA,NA,1,6,"5,12,1,10,9,14,2,11,15,13,7,4,8,6,3"
14268,commdev-image-keyboard-response,504,842233,learnblock2,485.7000000476837,img/planet9_right.png,9,Community 1,NA,TRUE,j,j,NA,NA,NA,1,6,"5,12,1,10,9,14,2,11,15,13,7,4,8,6,3"
14268,commdev-image-keyboard-response,505,843484,learnblock2,500.7999999523163,img/planet12_left.png,12,Community 1,NA,TRUE,f,f,NA,NA,NA,1,6,"5,12,1,10,9,14,2,11,15,13,7,4,8,6,3"
14268,commdev-image-keyboard-response,506,844750,learnblock2,657.6999999284744,img/planet5_left.png,5,Community 1,NA,TRUE,f,f,NA,NA,NA,1,6,"5,12,1,10,9,14,2,11,15,13,7,4,8,6,3"
14268,commdev-image-keyboard-response,507,846002,learnblock2,600.0999999046326,img/planet12_right.png,12,Community 1,NA,TRUE,j,j,NA,NA,NA,1,6,"5,12,1,10,9,14,2,11,15,13,7,4,8,6,3"
14268,commdev-image-keyboard-response,508,847253,learnblock2,536.5999999046326,img/planet5_right.png,5,Community 1,NA,TRUE,j,j,NA,NA,NA,1,6,"5,12,1,10,9,14,2,11,15,13,7,4,8,6,3"
14268,commdev-image-keyboard-response,509,848504,learnblock2,594.7999999523163,img/planet1_right.png,1,Community 1,NA,TRUE,j,j,NA,NA,NA,1,6,"5,12,1,10,9,14,2,11,15,13,7,4,8,6,3"
14268,commdev-image-keyboard-response,510,849756,learnblock2,683.6000000238419,img/planet9_right.png,9,Community 1,NA,TRUE,j,j,NA,NA,NA,1,6,"5,12,1,10,9,14,2,11,15,13,7,4,8,6,3"
14268,commdev-image-keyboard-response,511,851008,learnblock2,531,img/planet1_left.png,1,Community 1,NA,TRUE,f,f,NA,NA,NA,1,6,"5,12,1,10,9,14,2,11,15,13,7,4,8,6,3"
14268,commdev-image-keyboard-response,512,852259,learnblock2,598.0999999046326,img/planet5_right.png,5,Community 1,NA,TRUE,j,j,NA,NA,NA,1,6,"5,12,1,10,9,14,2,11,15,13,7,4,8,6,3"
14268,commdev-image-keyboard-response,513,853512,learnblock2,487.39999997615814,img/planet10_left.png,10,Community 1,NA,TRUE,f,f,NA,NA,NA,1,6,"5,12,1,10,9,14,2,11,15,13,7,4,8,6,3"
14268,commdev-image-keyboard-response,514,854762,learnblock2,587.5,img/planet14_left.png,14,Community 2,NA,TRUE,f,f,NA,NA,NA,1,6,"5,12,1,10,9,14,2,11,15,13,7,4,8,6,3"
14268,commdev-image-keyboard-response,515,856013,learnblock2,539.6000000238419,img/planet13_right.png,13,Community 2,NA,TRUE,j,j,NA,NA,NA,1,6,"5,12,1,10,9,14,2,11,15,13,7,4,8,6,3"
14268,commdev-image-keyboard-response,516,857265,learnblock2,560.8999999761581,img/planet14_right.png,14,Community 2,NA,TRUE,j,j,NA,NA,NA,1,6,"5,12,1,10,9,14,2,11,15,13,7,4,8,6,3"
14268,commdev-image-keyboard-response,517,858516,learnblock2,534.2999999523163,img/planet13_right.png,13,Community 2,NA,TRUE,j,j,NA,NA,NA,1,6,"5,12,1,10,9,14,2,11,15,13,7,4,8,6,3"
14268,commdev-image-keyboard-response,518,859768,learnblock2,412.60000002384186,img/planet2_right.png,2,Community 2,NA,TRUE,j,j,NA,NA,NA,1,6,"5,12,1,10,9,14,2,11,15,13,7,4,8,6,3"
14268,commdev-image-keyboard-response,519,861020,learnblock2,861.6999999284744,img/planet13_right.png,13,Community 2,NA,TRUE,j,j,NA,NA,NA,1,6,"5,12,1,10,9,14,2,11,15,13,7,4,8,6,3"
14268,commdev-image-keyboard-response,520,862272,learnblock2,465.7999999523163,img/planet11_left.png,11,Community 2,NA,TRUE,f,f,NA,NA,NA,1,6,"5,12,1,10,9,14,2,11,15,13,7,4,8,6,3"
14268,commdev-image-keyboard-response,521,863523,learnblock2,434.60000002384186,img/planet13_left.png,13,Community 2,NA,TRUE,f,f,NA,NA,NA,1,6,"5,12,1,10,9,14,2,11,15,13,7,4,8,6,3"
14268,commdev-image-keyboard-response,522,864775,learnblock2,429.60000002384186,img/planet2_right.png,2,Community 2,NA,TRUE,j,j,NA,NA,NA,1,6,"5,12,1,10,9,14,2,11,15,13,7,4,8,6,3"
14268,commdev-image-keyboard-response,523,866026,learnblock2,467.60000002384186,img/planet11_left.png,11,Community 2,NA,TRUE,f,f,NA,NA,NA,1,6,"5,12,1,10,9,14,2,11,15,13,7,4,8,6,3"
14268,commdev-image-keyboard-response,524,867277,learnblock2,488.39999997615814,img/planet13_right.png,13,Community 2,NA,TRUE,j,j,NA,NA,NA,1,6,"5,12,1,10,9,14,2,11,15,13,7,4,8,6,3"
14268,commdev-image-keyboard-response,525,868529,learnblock2,689.7000000476837,img/planet15_right.png,15,Community 2,NA,TRUE,j,j,NA,NA,NA,1,6,"5,12,1,10,9,14,2,11,15,13,7,4,8,6,3"
14268,commdev-image-keyboard-response,526,869780,learnblock2,922.6999999284744,img/planet14_right.png,14,Community 2,NA,TRUE,j,j,NA,NA,NA,1,6,"5,12,1,10,9,14,2,11,15,13,7,4,8,6,3"
14268,commdev-image-keyboard-response,527,871040,learnblock2,569.1000000238419,img/planet2_left.png,2,Community 2,NA,TRUE,f,f,NA,NA,NA,1,6,"5,12,1,10,9,14,2,11,15,13,7,4,8,6,3"
14268,commdev-image-keyboard-response,528,872292,learnblock2,485.5,img/planet11_right.png,11,Community 2,NA,TRUE,j,j,NA,NA,NA,1,6,"5,12,1,10,9,14,2,11,15,13,7,4,8,6,3"
14268,commdev-image-keyboard-response,529,873544,learnblock2,535.8999999761581,img/planet15_left.png,15,Community 2,NA,TRUE,f,f,NA,NA,NA,1,6,"5,12,1,10,9,14,2,11,15,13,7,4,8,6,3"
14268,commdev-image-keyboard-response,530,874796,learnblock2,508.60000002384186,img/planet13_left.png,13,Community 2,NA,TRUE,f,f,NA,NA,NA,1,6,"5,12,1,10,9,14,2,11,15,13,7,4,8,6,3"
14268,commdev-image-keyboard-response,531,876047,learnblock2,421,img/planet11_right.png,11,Community 2,NA,TRUE,j,j,NA,NA,NA,1,6,"5,12,1,10,9,14,2,11,15,13,7,4,8,6,3"
14268,commdev-image-keyboard-response,532,877298,learnblock2,504.2000000476837,img/planet15_right.png,15,Community 2,NA,FALSE,f,j,NA,NA,NA,1,6,"5,12,1,10,9,14,2,11,15,13,7,4,8,6,3"
14268,commdev-image-keyboard-response,533,878549,learnblock2,513.8999999761581,img/planet11_left.png,11,Community 2,NA,TRUE,f,f,NA,NA,NA,1,6,"5,12,1,10,9,14,2,11,15,13,7,4,8,6,3"
14268,commdev-image-keyboard-response,534,879802,learnblock2,410.6999999284744,img/planet2_right.png,2,Community 2,NA,TRUE,j,j,NA,NA,NA,1,6,"5,12,1,10,9,14,2,11,15,13,7,4,8,6,3"
14268,commdev-image-keyboard-response,535,881054,learnblock2,720,img/planet13_right.png,13,Community 2,NA,TRUE,j,j,NA,NA,NA,1,6,"5,12,1,10,9,14,2,11,15,13,7,4,8,6,3"
14268,commdev-image-keyboard-response,536,882304,learnblock2,526.5999999046326,img/planet11_right.png,11,Community 2,NA,TRUE,j,j,NA,NA,NA,1,6,"5,12,1,10,9,14,2,11,15,13,7,4,8,6,3"
14268,commdev-image-keyboard-response,537,883557,learnblock2,460.89999997615814,img/planet2_left.png,2,Community 2,NA,TRUE,f,f,NA,NA,NA,1,6,"5,12,1,10,9,14,2,11,15,13,7,4,8,6,3"
14268,commdev-image-keyboard-response,538,884808,learnblock2,570,img/planet15_right.png,15,Community 2,NA,TRUE,j,j,NA,NA,NA,1,6,"5,12,1,10,9,14,2,11,15,13,7,4,8,6,3"
14268,commdev-image-keyboard-response,539,886059,learnblock2,594.1999999284744,img/planet13_left.png,13,Community 2,NA,TRUE,f,f,NA,NA,NA,1,6,"5,12,1,10,9,14,2,11,15,13,7,4,8,6,3"
14268,commdev-image-keyboard-response,540,887311,learnblock2,608.6999999284744,img/planet14_left.png,14,Community 2,NA,TRUE,f,f,NA,NA,NA,1,6,"5,12,1,10,9,14,2,11,15,13,7,4,8,6,3"
14268,commdev-image-keyboard-response,541,888563,learnblock2,627.7000000476837,img/planet10_right.png,10,Community 1,NA,TRUE,j,j,NA,NA,NA,1,6,"5,12,1,10,9,14,2,11,15,13,7,4,8,6,3"
14268,commdev-image-keyboard-response,542,889814,learnblock2,537.5,img/planet1_right.png,1,Community 1,NA,TRUE,j,j,NA,NA,NA,1,6,"5,12,1,10,9,14,2,11,15,13,7,4,8,6,3"
14268,commdev-image-keyboard-response,543,891065,learnblock2,458.89999997615814,img/planet9_right.png,9,Community 1,NA,TRUE,j,j,NA,NA,NA,1,6,"5,12,1,10,9,14,2,11,15,13,7,4,8,6,3"
14268,commdev-image-keyboard-response,544,892317,learnblock2,429,img/planet5_left.png,5,Community 1,NA,TRUE,f,f,NA,NA,NA,1,6,"5,12,1,10,9,14,2,11,15,13,7,4,8,6,3"
14268,commdev-image-keyboard-response,545,893569,learnblock2,558.6999999284744,img/planet12_right.png,12,Community 1,NA,TRUE,j,j,NA,NA,NA,1,6,"5,12,1,10,9,14,2,11,15,13,7,4,8,6,3"
14268,commdev-image-keyboard-response,546,894821,learnblock2,507.39999997615814,img/planet10_left.png,10,Community 1,NA,TRUE,f,f,NA,NA,NA,1,6,"5,12,1,10,9,14,2,11,15,13,7,4,8,6,3"
14268,commdev-image-keyboard-response,547,896073,learnblock2,569.6000000238419,img/planet14_left.png,14,Community 2,NA,TRUE,f,f,NA,NA,NA,1,6,"5,12,1,10,9,14,2,11,15,13,7,4,8,6,3"
14268,commdev-image-keyboard-response,548,897324,learnblock2,482.7000000476837,img/planet2_left.png,2,Community 2,NA,TRUE,f,f,NA,NA,NA,1,6,"5,12,1,10,9,14,2,11,15,13,7,4,8,6,3"
14268,commdev-image-keyboard-response,549,898576,learnblock2,494.10000002384186,img/planet13_right.png,13,Community 2,NA,TRUE,j,j,NA,NA,NA,1,6,"5,12,1,10,9,14,2,11,15,13,7,4,8,6,3"
14268,commdev-image-keyboard-response,550,899827,learnblock2,479.5,img/planet2_left.png,2,Community 2,NA,TRUE,f,f,NA,NA,NA,1,6,"5,12,1,10,9,14,2,11,15,13,7,4,8,6,3"
14268,commdev-image-keyboard-response,551,901077,learnblock2,509,img/planet15_left.png,15,Community 2,NA,TRUE,f,f,NA,NA,NA,1,6,"5,12,1,10,9,14,2,11,15,13,7,4,8,6,3"
14268,commdev-image-keyboard-response,552,902329,learnblock2,533,img/planet14_left.png,14,Community 2,NA,TRUE,f,f,NA,NA,NA,1,6,"5,12,1,10,9,14,2,11,15,13,7,4,8,6,3"
14268,commdev-image-keyboard-response,553,903580,learnblock2,764.5,img/planet13_left.png,13,Community 2,NA,TRUE,f,f,NA,NA,NA,1,6,"5,12,1,10,9,14,2,11,15,13,7,4,8,6,3"
14268,commdev-image-keyboard-response,554,904832,learnblock2,528.8999999761581,img/planet14_left.png,14,Community 2,NA,TRUE,f,f,NA,NA,NA,1,6,"5,12,1,10,9,14,2,11,15,13,7,4,8,6,3"
14268,commdev-image-keyboard-response,555,906084,learnblock2,526.1999999284744,img/planet15_left.png,15,Community 2,NA,TRUE,f,f,NA,NA,NA,1,6,"5,12,1,10,9,14,2,11,15,13,7,4,8,6,3"
14268,commdev-image-keyboard-response,556,907334,learnblock2,540.8000000715256,img/planet14_left.png,14,Community 2,NA,TRUE,f,f,NA,NA,NA,1,6,"5,12,1,10,9,14,2,11,15,13,7,4,8,6,3"
14268,commdev-image-keyboard-response,557,908587,learnblock2,476,img/planet10_left.png,10,Community 1,NA,TRUE,f,f,NA,NA,NA,1,6,"5,12,1,10,9,14,2,11,15,13,7,4,8,6,3"
14268,commdev-image-keyboard-response,558,909839,learnblock2,419.39999997615814,img/planet12_right.png,12,Community 1,NA,TRUE,j,j,NA,NA,NA,1,6,"5,12,1,10,9,14,2,11,15,13,7,4,8,6,3"
14268,commdev-image-keyboard-response,559,911091,learnblock2,485.2999999523163,img/planet10_right.png,10,Community 1,NA,TRUE,j,j,NA,NA,NA,1,6,"5,12,1,10,9,14,2,11,15,13,7,4,8,6,3"
14268,commdev-image-keyboard-response,560,912342,learnblock2,436.10000002384186,img/planet5_right.png,5,Community 1,NA,TRUE,j,j,NA,NA,NA,1,6,"5,12,1,10,9,14,2,11,15,13,7,4,8,6,3"
14268,commdev-image-keyboard-response,561,913593,learnblock2,490.6999999284744,img/planet9_right.png,9,Community 1,NA,TRUE,j,j,NA,NA,NA,1,6,"5,12,1,10,9,14,2,11,15,13,7,4,8,6,3"
14268,commdev-image-keyboard-response,562,914845,learnblock2,516.7999999523163,img/planet5_left.png,5,Community 1,NA,TRUE,f,f,NA,NA,NA,1,6,"5,12,1,10,9,14,2,11,15,13,7,4,8,6,3"
14268,commdev-image-keyboard-response,563,916097,learnblock2,480.90000009536743,img/planet9_right.png,9,Community 1,NA,TRUE,j,j,NA,NA,NA,1,6,"5,12,1,10,9,14,2,11,15,13,7,4,8,6,3"
14268,commdev-image-keyboard-response,564,917347,learnblock2,467.5,img/planet12_left.png,12,Community 1,NA,TRUE,f,f,NA,NA,NA,1,6,"5,12,1,10,9,14,2,11,15,13,7,4,8,6,3"
14268,commdev-image-keyboard-response,565,918598,learnblock2,524.7000000476837,img/planet1_right.png,1,Community 1,NA,TRUE,j,j,NA,NA,NA,1,6,"5,12,1,10,9,14,2,11,15,13,7,4,8,6,3"
14268,commdev-image-keyboard-response,566,919850,learnblock2,606,img/planet5_left.png,5,Community 1,NA,TRUE,f,f,NA,NA,NA,1,6,"5,12,1,10,9,14,2,11,15,13,7,4,8,6,3"
14268,commdev-image-keyboard-response,567,921102,learnblock2,584.1000000238419,img/planet12_left.png,12,Community 1,NA,TRUE,f,f,NA,NA,NA,1,6,"5,12,1,10,9,14,2,11,15,13,7,4,8,6,3"
14268,commdev-image-keyboard-response,568,922354,learnblock2,544.3999999761581,img/planet10_left.png,10,Community 1,NA,TRUE,f,f,NA,NA,NA,1,6,"5,12,1,10,9,14,2,11,15,13,7,4,8,6,3"
14268,commdev-image-keyboard-response,569,923604,learnblock2,481.8000000715256,img/planet14_right.png,14,Community 2,NA,TRUE,j,j,NA,NA,NA,1,6,"5,12,1,10,9,14,2,11,15,13,7,4,8,6,3"
14268,commdev-image-keyboard-response,570,924856,learnblock2,620,img/planet15_right.png,15,Community 2,NA,TRUE,j,j,NA,NA,NA,1,6,"5,12,1,10,9,14,2,11,15,13,7,4,8,6,3"
14268,commdev-image-keyboard-response,571,926107,learnblock2,1250.3999999761581,img/planet11_right.png,11,Community 2,NA,TRUE,j,j,NA,NA,NA,1,6,"5,12,1,10,9,14,2,11,15,13,7,4,8,6,3"
14268,commdev-image-keyboard-response,572,927359,learnblock2,1143.1000000238419,img/planet13_right.png,13,Community 2,NA,TRUE,j,j,NA,NA,NA,1,6,"5,12,1,10,9,14,2,11,15,13,7,4,8,6,3"
14268,commdev-image-keyboard-response,573,928610,learnblock2,601.5,img/planet14_left.png,14,Community 2,NA,TRUE,f,f,NA,NA,NA,1,6,"5,12,1,10,9,14,2,11,15,13,7,4,8,6,3"
14268,commdev-image-keyboard-response,574,929860,learnblock2,504,img/planet15_left.png,15,Community 2,NA,TRUE,f,f,NA,NA,NA,1,6,"5,12,1,10,9,14,2,11,15,13,7,4,8,6,3"
14268,commdev-image-keyboard-response,575,931112,learnblock2,430.7999999523163,img/planet2_right.png,2,Community 2,NA,TRUE,j,j,NA,NA,NA,1,6,"5,12,1,10,9,14,2,11,15,13,7,4,8,6,3"
14268,commdev-image-keyboard-response,576,932363,learnblock2,472.5,img/planet11_left.png,11,Community 2,NA,TRUE,f,f,NA,NA,NA,1,6,"5,12,1,10,9,14,2,11,15,13,7,4,8,6,3"
14268,commdev-image-keyboard-response,577,933616,learnblock2,662.2999999523163,img/planet2_left.png,2,Community 2,NA,TRUE,f,f,NA,NA,NA,1,6,"5,12,1,10,9,14,2,11,15,13,7,4,8,6,3"
14268,commdev-image-keyboard-response,578,934868,learnblock2,492.39999997615814,img/planet13_right.png,13,Community 2,NA,TRUE,j,j,NA,NA,NA,1,6,"5,12,1,10,9,14,2,11,15,13,7,4,8,6,3"
14268,commdev-image-keyboard-response,579,936119,learnblock2,432,img/planet11_right.png,11,Community 2,NA,TRUE,j,j,NA,NA,NA,1,6,"5,12,1,10,9,14,2,11,15,13,7,4,8,6,3"
14268,commdev-image-keyboard-response,580,937370,learnblock2,596.8000000715256,img/planet4_right.png,4,Community 3,NA,TRUE,j,j,NA,NA,NA,1,6,"5,12,1,10,9,14,2,11,15,13,7,4,8,6,3"
14268,commdev-image-keyboard-response,581,938622,learnblock2,507.10000002384186,img/planet11_left.png,11,Community 2,NA,TRUE,f,f,NA,NA,NA,1,6,"5,12,1,10,9,14,2,11,15,13,7,4,8,6,3"
14268,commdev-image-keyboard-response,582,939875,learnblock2,508.2999999523163,img/planet4_left.png,4,Community 3,NA,TRUE,f,f,NA,NA,NA,1,6,"5,12,1,10,9,14,2,11,15,13,7,4,8,6,3"
14268,commdev-image-keyboard-response,583,941126,learnblock2,572,img/planet3_right.png,3,Community 3,NA,TRUE,j,j,NA,NA,NA,1,6,"5,12,1,10,9,14,2,11,15,13,7,4,8,6,3"
14268,commdev-image-keyboard-response,584,942378,learnblock2,557,img/planet6_right.png,6,Community 3,NA,TRUE,j,j,NA,NA,NA,1,6,"5,12,1,10,9,14,2,11,15,13,7,4,8,6,3"
14268,commdev-image-keyboard-response,585,943629,learnblock2,559.3999999761581,img/planet7_right.png,7,Community 3,NA,TRUE,j,j,NA,NA,NA,1,6,"5,12,1,10,9,14,2,11,15,13,7,4,8,6,3"
