subject_id,trial_type,trial_index,time_elapsed,block,rt,stimulus,planet,community,response,correct,key_press,learning_correct_response,parse,init_locations,final_locations,browser_interactions,num_comp,planet_map
14690,commdev-instructions,7,27803,NA,1152.5,"<p>In this game, you are a scientist on board a space shuttle. </p><p> On each mission, you will visit planets all across the universe.</p><img src=""img/controlroom.jpg"" width=300vw>",NA,NA,NA,NA,NA,NA,NA,NA,NA,1,6,"9,5,13,12,11,6,2,4,3,14,7,15,1,10,8"
14690,commdev-instructions,8,30832,NA,951.8000001907349,"<p>Here are a few planets you might see:</p><img src=""img/practice1.png"" width=200vw><img src=""img/practice2.png"" width=200vw><img src=""img/practice3.png"" width=200vw>",NA,NA,NA,NA,NA,NA,NA,NA,NA,1,6,"9,5,13,12,11,6,2,4,3,14,7,15,1,10,8"
14690,commdev-instructions,9,39088,NA,838,"<p>Your job as a scientist is to record which direction the winds are moving on each planet.</p><p>There are two types of wind directions:</p><img src=""img/practice1_left.png"" width=200vw><img src=""img/practice1_right.png"" width=200vw>",NA,NA,NA,NA,NA,NA,NA,NA,NA,1,6,"9,5,13,12,11,6,2,4,3,14,7,15,1,10,8"
14690,commdev-instructions,10,45567,NA,1597.5,"<p>If the winds are moving this way, press the letter <strong>F</strong> on the keyboard as fast as you can.</p><img src=""img/leftwind.png"" width=250vw>",NA,NA,NA,NA,NA,NA,NA,NA,NA,1,6,"9,5,13,12,11,6,2,4,3,14,7,15,1,10,8"
14690,commdev-instructions,11,50942,NA,873.7000000476837,"<p>If the winds are moving this way, press the letter <strong>J</strong> on the keyboard as fast as you can.</p><img src=""img/rightwind.png"" width=350vw>",NA,NA,NA,NA,NA,NA,NA,NA,NA,1,6,"9,5,13,12,11,6,2,4,3,14,7,15,1,10,8"
14690,commdev-instructions,12,56388,NA,1020.5999999046326,<p>You will have 1 second to respond. Try to respond before the time runs out!,NA,NA,NA,NA,NA,NA,NA,NA,NA,1,6,"9,5,13,12,11,6,2,4,3,14,7,15,1,10,8"
14690,commdev-instructions,13,62651,NA,823.5,<p>The planets you will visit will look different from each other.</p><p>You should respond <strong>only</strong> based on wind direction.,NA,NA,NA,NA,NA,NA,NA,NA,NA,1,6,"9,5,13,12,11,6,2,4,3,14,7,15,1,10,8"
14690,commdev-instructions,14,68567,NA,728.7000000476837,"<p> Ready to start the practice round? </p><p> Remember, press <strong>F</strong> or <strong>J</strong> depending on the wind direction.<br><img src=""img/categorize_planet_example.png""",NA,NA,NA,NA,NA,NA,NA,NA,NA,1,6,"9,5,13,12,11,6,2,4,3,14,7,15,1,10,8"
14690,commdev-instructions,26,122322,NA,512.5,"<p>Great, now try a short practice mission. </p><p> This time, you will have 1 second to respond and you won't know whether you pressed the right or wrong key for each planet.</p>",NA,NA,NA,NA,NA,NA,NA,NA,NA,1,6,"9,5,13,12,11,6,2,4,3,14,7,15,1,10,8"
14690,commdev-image-keyboard-response,27,123694,practice,null,img/practice2_left.png,NA,Number not found in mappings,NA,FALSE,null,f,NA,NA,NA,1,6,"9,5,13,12,11,6,2,4,3,14,7,15,1,10,8"
14690,commdev-image-keyboard-response,28,124947,practice,36.799999952316284,img/practice1_right.png,NA,Number not found in mappings,NA,FALSE,f,j,NA,NA,NA,1,6,"9,5,13,12,11,6,2,4,3,14,7,15,1,10,8"
14690,commdev-image-keyboard-response,29,126207,practice,803.8999998569489,img/practice3_right.png,NA,Number not found in mappings,NA,TRUE,j,j,NA,NA,NA,1,6,"9,5,13,12,11,6,2,4,3,14,7,15,1,10,8"
14690,commdev-image-keyboard-response,30,127468,practice,787.4000000953674,img/practice2_right.png,NA,Number not found in mappings,NA,TRUE,j,j,NA,NA,NA,1,6,"9,5,13,12,11,6,2,4,3,14,7,15,1,10,8"
14690,commdev-image-keyboard-response,31,128724,practice,637.5,img/practice1_right.png,NA,Number not found in mappings,NA,TRUE,j,j,NA,NA,NA,1,6,"9,5,13,12,11,6,2,4,3,14,7,15,1,10,8"
14690,commdev-image-keyboard-response,32,129976,practice,651.5999999046326,img/practice3_right.png,NA,Number not found in mappings,NA,TRUE,j,j,NA,NA,NA,1,6,"9,5,13,12,11,6,2,4,3,14,7,15,1,10,8"
14690,commdev-image-keyboard-response,33,131236,practice,584,img/practice1_left.png,NA,Number not found in mappings,NA,TRUE,f,f,NA,NA,NA,1,6,"9,5,13,12,11,6,2,4,3,14,7,15,1,10,8"
14690,commdev-image-keyboard-response,34,132495,practice,733.7999999523163,img/practice3_left.png,NA,Number not found in mappings,NA,TRUE,f,f,NA,NA,NA,1,6,"9,5,13,12,11,6,2,4,3,14,7,15,1,10,8"
14690,commdev-instructions,35,143038,NA,987.6999998092651,"<p>Great job with the practice round.</p><p>During real missions, you won't know whether you pressed the right or wrong key for each planet.</p><p>But between missions, we will tell you how you did overall.</p>",NA,NA,NA,NA,NA,NA,NA,NA,NA,1,6,"9,5,13,12,11,6,2,4,3,14,7,15,1,10,8"
14690,commdev-instructions,36,151806,NA,515.6000001430511,<p>Try your best! You will be paid a bonus based on how many correct responses you make!</p><p>Responses that are too slow will not count toward your bonus.</p>,NA,NA,NA,NA,NA,NA,NA,NA,NA,1,6,"9,5,13,12,11,6,2,4,3,14,7,15,1,10,8"
14690,commdev-instructions,37,158571,NA,551.2999999523163,"<p>You are almost ready to start the real game.</p><p> First, we are going to ask you some questions about how the game works.</p>",NA,NA,NA,NA,NA,NA,NA,NA,NA,1,6,"9,5,13,12,11,6,2,4,3,14,7,15,1,10,8"
14690,commdev-instructions,46,235942,NA,3111.7999999523163,"<p> Nice work! It is now time to start the real game.<p></p>You will go on two missions to record wind directions of different planets.<p></p>Each one will take about 5 minutes. You will get to take a break between missions.<p><p> Remember, press <strong>F</strong> or <strong>J</strong> depending on the wind direction. Good luck!<br><img src=""img/categorize_planet_example.png""",NA,NA,NA,NA,NA,NA,NA,NA,NA,1,6,"9,5,13,12,11,6,2,4,3,14,7,15,1,10,8"
14690,commdev-image-keyboard-response,48,240238,learnblock1,812.7999999523163,img/planet6_right.png,6,Community 2,NA,TRUE,j,j,NA,NA,NA,1,6,"9,5,13,12,11,6,2,4,3,14,7,15,1,10,8"
14690,commdev-image-keyboard-response,49,241505,learnblock1,643.5999999046326,img/planet12_left.png,12,Community 1,NA,TRUE,f,f,NA,NA,NA,1,6,"9,5,13,12,11,6,2,4,3,14,7,15,1,10,8"
14690,commdev-image-keyboard-response,50,242762,learnblock1,497.40000009536743,img/planet9_right.png,9,Community 1,NA,TRUE,j,j,NA,NA,NA,1,6,"9,5,13,12,11,6,2,4,3,14,7,15,1,10,8"
14690,commdev-image-keyboard-response,51,244017,learnblock1,479,img/planet11_left.png,11,Community 1,NA,TRUE,f,f,NA,NA,NA,1,6,"9,5,13,12,11,6,2,4,3,14,7,15,1,10,8"
14690,commdev-image-keyboard-response,52,245278,learnblock1,496,img/planet5_right.png,5,Community 1,NA,TRUE,j,j,NA,NA,NA,1,6,"9,5,13,12,11,6,2,4,3,14,7,15,1,10,8"
14690,commdev-image-keyboard-response,53,246537,learnblock1,910.5,img/planet11_right.png,11,Community 1,NA,TRUE,j,j,NA,NA,NA,1,6,"9,5,13,12,11,6,2,4,3,14,7,15,1,10,8"
14690,commdev-image-keyboard-response,54,247797,learnblock1,703.2999999523163,img/planet13_right.png,13,Community 1,NA,TRUE,j,j,NA,NA,NA,1,6,"9,5,13,12,11,6,2,4,3,14,7,15,1,10,8"
14690,commdev-image-keyboard-response,55,249055,learnblock1,508.10000014305115,img/planet9_left.png,9,Community 1,NA,TRUE,f,f,NA,NA,NA,1,6,"9,5,13,12,11,6,2,4,3,14,7,15,1,10,8"
14690,commdev-image-keyboard-response,56,250313,learnblock1,723.4000000953674,img/planet5_left.png,5,Community 1,NA,TRUE,f,f,NA,NA,NA,1,6,"9,5,13,12,11,6,2,4,3,14,7,15,1,10,8"
14690,commdev-image-keyboard-response,57,251572,learnblock1,497.80000019073486,img/planet13_left.png,13,Community 1,NA,TRUE,f,f,NA,NA,NA,1,6,"9,5,13,12,11,6,2,4,3,14,7,15,1,10,8"
14690,commdev-image-keyboard-response,58,252826,learnblock1,684.5999999046326,img/planet5_left.png,5,Community 1,NA,TRUE,f,f,NA,NA,NA,1,6,"9,5,13,12,11,6,2,4,3,14,7,15,1,10,8"
14690,commdev-image-keyboard-response,59,254087,learnblock1,745.7999999523163,img/planet12_right.png,12,Community 1,NA,TRUE,j,j,NA,NA,NA,1,6,"9,5,13,12,11,6,2,4,3,14,7,15,1,10,8"
14690,commdev-image-keyboard-response,60,255343,learnblock1,532.7000000476837,img/planet5_left.png,5,Community 1,NA,TRUE,f,f,NA,NA,NA,1,6,"9,5,13,12,11,6,2,4,3,14,7,15,1,10,8"
14690,commdev-image-keyboard-response,61,256597,learnblock1,750.3000001907349,img/planet9_left.png,9,Community 1,NA,TRUE,f,f,NA,NA,NA,1,6,"9,5,13,12,11,6,2,4,3,14,7,15,1,10,8"
14690,commdev-image-keyboard-response,62,257853,learnblock1,651.9000000953674,img/planet12_left.png,12,Community 1,NA,TRUE,f,f,NA,NA,NA,1,6,"9,5,13,12,11,6,2,4,3,14,7,15,1,10,8"
14690,commdev-image-keyboard-response,63,259113,learnblock1,604.5,img/planet5_left.png,5,Community 1,NA,TRUE,f,f,NA,NA,NA,1,6,"9,5,13,12,11,6,2,4,3,14,7,15,1,10,8"
14690,commdev-image-keyboard-response,64,260367,learnblock1,505.10000014305115,img/planet9_left.png,9,Community 1,NA,TRUE,f,f,NA,NA,NA,1,6,"9,5,13,12,11,6,2,4,3,14,7,15,1,10,8"
14690,commdev-image-keyboard-response,65,261625,learnblock1,488.2999999523163,img/planet12_right.png,12,Community 1,NA,TRUE,j,j,NA,NA,NA,1,6,"9,5,13,12,11,6,2,4,3,14,7,15,1,10,8"
14690,commdev-image-keyboard-response,66,262882,learnblock1,467.39999985694885,img/planet13_left.png,13,Community 1,NA,TRUE,f,f,NA,NA,NA,1,6,"9,5,13,12,11,6,2,4,3,14,7,15,1,10,8"
14690,commdev-image-keyboard-response,67,264135,learnblock1,543.2999999523163,img/planet11_left.png,11,Community 1,NA,TRUE,f,f,NA,NA,NA,1,6,"9,5,13,12,11,6,2,4,3,14,7,15,1,10,8"
14690,commdev-image-keyboard-response,68,265391,learnblock1,440.59999990463257,img/planet13_left.png,13,Community 1,NA,TRUE,f,f,NA,NA,NA,1,6,"9,5,13,12,11,6,2,4,3,14,7,15,1,10,8"
14690,commdev-image-keyboard-response,69,266643,learnblock1,519.4000000953674,img/planet12_right.png,12,Community 1,NA,TRUE,j,j,NA,NA,NA,1,6,"9,5,13,12,11,6,2,4,3,14,7,15,1,10,8"
14690,commdev-image-keyboard-response,70,267901,learnblock1,596.1999998092651,img/planet5_right.png,5,Community 1,NA,TRUE,j,j,NA,NA,NA,1,6,"9,5,13,12,11,6,2,4,3,14,7,15,1,10,8"
14690,commdev-image-keyboard-response,71,269158,learnblock1,418.89999985694885,img/planet12_left.png,12,Community 1,NA,TRUE,f,f,NA,NA,NA,1,6,"9,5,13,12,11,6,2,4,3,14,7,15,1,10,8"
14690,commdev-image-keyboard-response,72,270418,learnblock1,425.5,img/planet6_right.png,6,Community 2,NA,TRUE,j,j,NA,NA,NA,1,6,"9,5,13,12,11,6,2,4,3,14,7,15,1,10,8"
14690,commdev-image-keyboard-response,73,271675,learnblock1,698.3999998569489,img/planet12_right.png,12,Community 1,NA,TRUE,j,j,NA,NA,NA,1,6,"9,5,13,12,11,6,2,4,3,14,7,15,1,10,8"
14690,commdev-image-keyboard-response,74,272933,learnblock1,453.80000019073486,img/planet6_left.png,6,Community 2,NA,TRUE,f,f,NA,NA,NA,1,6,"9,5,13,12,11,6,2,4,3,14,7,15,1,10,8"
14690,commdev-image-keyboard-response,75,274187,learnblock1,498.2999999523163,img/planet3_right.png,3,Community 2,NA,TRUE,j,j,NA,NA,NA,1,6,"9,5,13,12,11,6,2,4,3,14,7,15,1,10,8"
14690,commdev-image-keyboard-response,76,275451,learnblock1,534.4000000953674,img/planet2_right.png,2,Community 2,NA,TRUE,j,j,NA,NA,NA,1,6,"9,5,13,12,11,6,2,4,3,14,7,15,1,10,8"
14690,commdev-image-keyboard-response,77,276710,learnblock1,390.90000009536743,img/planet6_left.png,6,Community 2,NA,TRUE,f,f,NA,NA,NA,1,6,"9,5,13,12,11,6,2,4,3,14,7,15,1,10,8"
14690,commdev-image-keyboard-response,78,277968,learnblock1,447.69999980926514,img/planet14_right.png,14,Community 2,NA,TRUE,j,j,NA,NA,NA,1,6,"9,5,13,12,11,6,2,4,3,14,7,15,1,10,8"
14690,commdev-image-keyboard-response,79,279223,learnblock1,546,img/planet3_right.png,3,Community 2,NA,TRUE,j,j,NA,NA,NA,1,6,"9,5,13,12,11,6,2,4,3,14,7,15,1,10,8"
14690,commdev-image-keyboard-response,80,280477,learnblock1,370.2999999523163,img/planet6_left.png,6,Community 2,NA,TRUE,f,f,NA,NA,NA,1,6,"9,5,13,12,11,6,2,4,3,14,7,15,1,10,8"
14690,commdev-image-keyboard-response,81,281744,learnblock1,546.4000000953674,img/planet14_left.png,14,Community 2,NA,TRUE,f,f,NA,NA,NA,1,6,"9,5,13,12,11,6,2,4,3,14,7,15,1,10,8"
14690,commdev-image-keyboard-response,82,282999,learnblock1,371.40000009536743,img/planet4_right.png,4,Community 2,NA,TRUE,j,j,NA,NA,NA,1,6,"9,5,13,12,11,6,2,4,3,14,7,15,1,10,8"
14690,commdev-image-keyboard-response,83,284253,learnblock1,545.9000000953674,img/planet2_right.png,2,Community 2,NA,FALSE,f,j,NA,NA,NA,1,6,"9,5,13,12,11,6,2,4,3,14,7,15,1,10,8"
14690,commdev-image-keyboard-response,84,285508,learnblock1,580.8999998569489,img/planet3_right.png,3,Community 2,NA,TRUE,j,j,NA,NA,NA,1,6,"9,5,13,12,11,6,2,4,3,14,7,15,1,10,8"
14690,commdev-image-keyboard-response,85,286775,learnblock1,439.89999985694885,img/planet2_left.png,2,Community 2,NA,TRUE,f,f,NA,NA,NA,1,6,"9,5,13,12,11,6,2,4,3,14,7,15,1,10,8"
14690,commdev-image-keyboard-response,86,288031,learnblock1,594,img/planet14_left.png,14,Community 2,NA,TRUE,f,f,NA,NA,NA,1,6,"9,5,13,12,11,6,2,4,3,14,7,15,1,10,8"
14690,commdev-image-keyboard-response,87,289287,learnblock1,460,img/planet6_left.png,6,Community 2,NA,TRUE,f,f,NA,NA,NA,1,6,"9,5,13,12,11,6,2,4,3,14,7,15,1,10,8"
14690,commdev-image-keyboard-response,88,290541,learnblock1,486.59999990463257,img/planet14_left.png,14,Community 2,NA,TRUE,f,f,NA,NA,NA,1,6,"9,5,13,12,11,6,2,4,3,14,7,15,1,10,8"
14690,commdev-image-keyboard-response,89,291796,learnblock1,422.40000009536743,img/planet4_left.png,4,Community 2,NA,TRUE,f,f,NA,NA,NA,1,6,"9,5,13,12,11,6,2,4,3,14,7,15,1,10,8"
14690,commdev-image-keyboard-response,90,293051,learnblock1,413.7999999523163,img/planet15_left.png,15,Community 3,NA,TRUE,f,f,NA,NA,NA,1,6,"9,5,13,12,11,6,2,4,3,14,7,15,1,10,8"
14690,commdev-image-keyboard-response,91,294307,learnblock1,402.30000019073486,img/planet4_right.png,4,Community 2,NA,TRUE,j,j,NA,NA,NA,1,6,"9,5,13,12,11,6,2,4,3,14,7,15,1,10,8"
14690,commdev-image-keyboard-response,92,295564,learnblock1,472.10000014305115,img/planet3_left.png,3,Community 2,NA,TRUE,f,f,NA,NA,NA,1,6,"9,5,13,12,11,6,2,4,3,14,7,15,1,10,8"
14690,commdev-image-keyboard-response,93,296821,learnblock1,386.10000014305115,img/planet6_left.png,6,Community 2,NA,TRUE,f,f,NA,NA,NA,1,6,"9,5,13,12,11,6,2,4,3,14,7,15,1,10,8"
14690,commdev-image-keyboard-response,94,298079,learnblock1,395.60000014305115,img/planet2_left.png,2,Community 2,NA,TRUE,f,f,NA,NA,NA,1,6,"9,5,13,12,11,6,2,4,3,14,7,15,1,10,8"
14690,commdev-image-keyboard-response,95,299338,learnblock1,334.39999985694885,img/planet6_right.png,6,Community 2,NA,TRUE,j,j,NA,NA,NA,1,6,"9,5,13,12,11,6,2,4,3,14,7,15,1,10,8"
14690,commdev-image-keyboard-response,96,300592,learnblock1,436,img/planet14_left.png,14,Community 2,NA,TRUE,f,f,NA,NA,NA,1,6,"9,5,13,12,11,6,2,4,3,14,7,15,1,10,8"
14690,commdev-image-keyboard-response,97,301849,learnblock1,392.80000019073486,img/planet2_left.png,2,Community 2,NA,TRUE,f,f,NA,NA,NA,1,6,"9,5,13,12,11,6,2,4,3,14,7,15,1,10,8"
14690,commdev-image-keyboard-response,98,303106,learnblock1,445.2000000476837,img/planet4_left.png,4,Community 2,NA,TRUE,f,f,NA,NA,NA,1,6,"9,5,13,12,11,6,2,4,3,14,7,15,1,10,8"
14690,commdev-image-keyboard-response,99,304364,learnblock1,404.7000000476837,img/planet15_left.png,15,Community 3,NA,TRUE,f,f,NA,NA,NA,1,6,"9,5,13,12,11,6,2,4,3,14,7,15,1,10,8"
14690,commdev-image-keyboard-response,100,305630,learnblock1,619.7999999523163,img/planet8_left.png,8,Community 3,NA,TRUE,f,f,NA,NA,NA,1,6,"9,5,13,12,11,6,2,4,3,14,7,15,1,10,8"
14690,commdev-image-keyboard-response,101,306888,learnblock1,490.10000014305115,img/planet10_right.png,10,Community 3,NA,TRUE,j,j,NA,NA,NA,1,6,"9,5,13,12,11,6,2,4,3,14,7,15,1,10,8"
14690,commdev-image-keyboard-response,102,308144,learnblock1,591.4000000953674,img/planet8_right.png,8,Community 3,NA,FALSE,f,j,NA,NA,NA,1,6,"9,5,13,12,11,6,2,4,3,14,7,15,1,10,8"
14690,commdev-image-keyboard-response,103,309401,learnblock1,497,img/planet10_right.png,10,Community 3,NA,TRUE,j,j,NA,NA,NA,1,6,"9,5,13,12,11,6,2,4,3,14,7,15,1,10,8"
14690,commdev-image-keyboard-response,104,310653,learnblock1,608.8000001907349,img/planet1_right.png,1,Community 3,NA,TRUE,j,j,NA,NA,NA,1,6,"9,5,13,12,11,6,2,4,3,14,7,15,1,10,8"
14690,commdev-image-keyboard-response,105,311907,learnblock1,759,img/planet15_right.png,15,Community 3,NA,TRUE,j,j,NA,NA,NA,1,6,"9,5,13,12,11,6,2,4,3,14,7,15,1,10,8"
14690,commdev-image-keyboard-response,106,313167,learnblock1,549.5,img/planet10_left.png,10,Community 3,NA,TRUE,f,f,NA,NA,NA,1,6,"9,5,13,12,11,6,2,4,3,14,7,15,1,10,8"
14690,commdev-image-keyboard-response,107,314425,learnblock1,499,img/planet15_left.png,15,Community 3,NA,TRUE,f,f,NA,NA,NA,1,6,"9,5,13,12,11,6,2,4,3,14,7,15,1,10,8"
14690,commdev-image-keyboard-response,108,315678,learnblock1,446,img/planet4_right.png,4,Community 2,NA,TRUE,j,j,NA,NA,NA,1,6,"9,5,13,12,11,6,2,4,3,14,7,15,1,10,8"
14690,commdev-image-keyboard-response,109,316941,learnblock1,456.5,img/planet3_left.png,3,Community 2,NA,TRUE,f,f,NA,NA,NA,1,6,"9,5,13,12,11,6,2,4,3,14,7,15,1,10,8"
14690,commdev-image-keyboard-response,110,318208,learnblock1,392.7999999523163,img/planet2_right.png,2,Community 2,NA,TRUE,j,j,NA,NA,NA,1,6,"9,5,13,12,11,6,2,4,3,14,7,15,1,10,8"
14690,commdev-image-keyboard-response,111,319464,learnblock1,669.3999998569489,img/planet3_left.png,3,Community 2,NA,TRUE,f,f,NA,NA,NA,1,6,"9,5,13,12,11,6,2,4,3,14,7,15,1,10,8"
14690,commdev-image-keyboard-response,112,320721,learnblock1,609.7000000476837,img/planet4_left.png,4,Community 2,NA,TRUE,f,f,NA,NA,NA,1,6,"9,5,13,12,11,6,2,4,3,14,7,15,1,10,8"
14690,commdev-image-keyboard-response,113,321977,learnblock1,553.8999998569489,img/planet14_left.png,14,Community 2,NA,TRUE,f,f,NA,NA,NA,1,6,"9,5,13,12,11,6,2,4,3,14,7,15,1,10,8"
14690,commdev-image-keyboard-response,114,323236,learnblock1,505.10000014305115,img/planet6_left.png,6,Community 2,NA,TRUE,f,f,NA,NA,NA,1,6,"9,5,13,12,11,6,2,4,3,14,7,15,1,10,8"
14690,commdev-image-keyboard-response,115,324493,learnblock1,388.2999999523163,img/planet2_right.png,2,Community 2,NA,TRUE,j,j,NA,NA,NA,1,6,"9,5,13,12,11,6,2,4,3,14,7,15,1,10,8"
14690,commdev-image-keyboard-response,116,325755,learnblock1,680.2000000476837,img/planet3_right.png,3,Community 2,NA,TRUE,j,j,NA,NA,NA,1,6,"9,5,13,12,11,6,2,4,3,14,7,15,1,10,8"
14690,commdev-image-keyboard-response,117,327014,learnblock1,610,img/planet2_left.png,2,Community 2,NA,TRUE,f,f,NA,NA,NA,1,6,"9,5,13,12,11,6,2,4,3,14,7,15,1,10,8"
14690,commdev-image-keyboard-response,118,328269,learnblock1,632.4000000953674,img/planet6_right.png,6,Community 2,NA,TRUE,j,j,NA,NA,NA,1,6,"9,5,13,12,11,6,2,4,3,14,7,15,1,10,8"
14690,commdev-image-keyboard-response,119,329526,learnblock1,556.7999999523163,img/planet2_right.png,2,Community 2,NA,TRUE,j,j,NA,NA,NA,1,6,"9,5,13,12,11,6,2,4,3,14,7,15,1,10,8"
14690,commdev-image-keyboard-response,120,330785,learnblock1,527.6000001430511,img/planet14_left.png,14,Community 2,NA,TRUE,f,f,NA,NA,NA,1,6,"9,5,13,12,11,6,2,4,3,14,7,15,1,10,8"
14690,commdev-image-keyboard-response,121,332044,learnblock1,451.39999985694885,img/planet6_right.png,6,Community 2,NA,TRUE,j,j,NA,NA,NA,1,6,"9,5,13,12,11,6,2,4,3,14,7,15,1,10,8"
14690,commdev-image-keyboard-response,122,333300,learnblock1,547.5,img/planet3_right.png,3,Community 2,NA,TRUE,j,j,NA,NA,NA,1,6,"9,5,13,12,11,6,2,4,3,14,7,15,1,10,8"
14690,commdev-image-keyboard-response,123,334557,learnblock1,634.4000000953674,img/planet6_right.png,6,Community 2,NA,TRUE,j,j,NA,NA,NA,1,6,"9,5,13,12,11,6,2,4,3,14,7,15,1,10,8"
14690,commdev-image-keyboard-response,124,335815,learnblock1,564,img/planet12_right.png,12,Community 1,NA,FALSE,f,j,NA,NA,NA,1,6,"9,5,13,12,11,6,2,4,3,14,7,15,1,10,8"
14690,commdev-image-keyboard-response,125,337069,learnblock1,988.6000001430511,img/planet9_right.png,9,Community 1,NA,TRUE,j,j,NA,NA,NA,1,6,"9,5,13,12,11,6,2,4,3,14,7,15,1,10,8"
14690,commdev-image-keyboard-response,126,338325,learnblock1,736.5999999046326,img/planet13_left.png,13,Community 1,NA,TRUE,f,f,NA,NA,NA,1,6,"9,5,13,12,11,6,2,4,3,14,7,15,1,10,8"
14690,commdev-image-keyboard-response,127,339586,learnblock1,586.7000000476837,img/planet12_left.png,12,Community 1,NA,TRUE,f,f,NA,NA,NA,1,6,"9,5,13,12,11,6,2,4,3,14,7,15,1,10,8"
14690,commdev-image-keyboard-response,128,340844,learnblock1,488.7000000476837,img/planet13_left.png,13,Community 1,NA,TRUE,f,f,NA,NA,NA,1,6,"9,5,13,12,11,6,2,4,3,14,7,15,1,10,8"
14690,commdev-image-keyboard-response,129,342100,learnblock1,457.09999990463257,img/planet11_left.png,11,Community 1,NA,TRUE,f,f,NA,NA,NA,1,6,"9,5,13,12,11,6,2,4,3,14,7,15,1,10,8"
14690,commdev-image-keyboard-response,130,343365,learnblock1,469.30000019073486,img/planet5_right.png,5,Community 1,NA,TRUE,j,j,NA,NA,NA,1,6,"9,5,13,12,11,6,2,4,3,14,7,15,1,10,8"
14690,commdev-image-keyboard-response,131,344623,learnblock1,936.2000000476837,img/planet12_right.png,12,Community 1,NA,TRUE,j,j,NA,NA,NA,1,6,"9,5,13,12,11,6,2,4,3,14,7,15,1,10,8"
14690,commdev-image-keyboard-response,132,345876,learnblock1,545.7999999523163,img/planet13_left.png,13,Community 1,NA,TRUE,f,f,NA,NA,NA,1,6,"9,5,13,12,11,6,2,4,3,14,7,15,1,10,8"
14690,commdev-image-keyboard-response,133,347129,learnblock1,452.10000014305115,img/planet5_left.png,5,Community 1,NA,FALSE,j,f,NA,NA,NA,1,6,"9,5,13,12,11,6,2,4,3,14,7,15,1,10,8"
14690,commdev-image-keyboard-response,134,348386,learnblock1,739.5999999046326,img/planet12_left.png,12,Community 1,NA,TRUE,f,f,NA,NA,NA,1,6,"9,5,13,12,11,6,2,4,3,14,7,15,1,10,8"
14690,commdev-image-keyboard-response,135,349638,learnblock1,513.0999999046326,img/planet13_right.png,13,Community 1,NA,TRUE,j,j,NA,NA,NA,1,6,"9,5,13,12,11,6,2,4,3,14,7,15,1,10,8"
14690,commdev-image-keyboard-response,136,350897,learnblock1,515.0999999046326,img/planet5_right.png,5,Community 1,NA,TRUE,j,j,NA,NA,NA,1,6,"9,5,13,12,11,6,2,4,3,14,7,15,1,10,8"
14690,commdev-image-keyboard-response,137,352156,learnblock1,484.09999990463257,img/planet12_left.png,12,Community 1,NA,TRUE,f,f,NA,NA,NA,1,6,"9,5,13,12,11,6,2,4,3,14,7,15,1,10,8"
14690,commdev-image-keyboard-response,138,353414,learnblock1,405.2000000476837,img/planet9_right.png,9,Community 1,NA,TRUE,j,j,NA,NA,NA,1,6,"9,5,13,12,11,6,2,4,3,14,7,15,1,10,8"
14690,commdev-image-keyboard-response,139,354667,learnblock1,474.5,img/planet11_left.png,11,Community 1,NA,TRUE,f,f,NA,NA,NA,1,6,"9,5,13,12,11,6,2,4,3,14,7,15,1,10,8"
14690,commdev-image-keyboard-response,140,355921,learnblock1,384.09999990463257,img/planet13_left.png,13,Community 1,NA,TRUE,f,f,NA,NA,NA,1,6,"9,5,13,12,11,6,2,4,3,14,7,15,1,10,8"
14690,commdev-image-keyboard-response,141,357185,learnblock1,394.7999999523163,img/planet11_right.png,11,Community 1,NA,TRUE,j,j,NA,NA,NA,1,6,"9,5,13,12,11,6,2,4,3,14,7,15,1,10,8"
14690,commdev-image-keyboard-response,142,358442,learnblock1,773.1999998092651,img/planet7_right.png,7,Community 3,NA,TRUE,j,j,NA,NA,NA,1,6,"9,5,13,12,11,6,2,4,3,14,7,15,1,10,8"
14690,commdev-image-keyboard-response,143,359699,learnblock1,521.2999999523163,img/planet11_left.png,11,Community 1,NA,TRUE,f,f,NA,NA,NA,1,6,"9,5,13,12,11,6,2,4,3,14,7,15,1,10,8"
14690,commdev-image-keyboard-response,144,360958,learnblock1,503.39999985694885,img/planet13_left.png,13,Community 1,NA,TRUE,f,f,NA,NA,NA,1,6,"9,5,13,12,11,6,2,4,3,14,7,15,1,10,8"
14690,commdev-image-keyboard-response,145,362212,learnblock1,583.6000001430511,img/planet9_left.png,9,Community 1,NA,TRUE,f,f,NA,NA,NA,1,6,"9,5,13,12,11,6,2,4,3,14,7,15,1,10,8"
14690,commdev-image-keyboard-response,146,363470,learnblock1,547,img/planet12_right.png,12,Community 1,NA,TRUE,j,j,NA,NA,NA,1,6,"9,5,13,12,11,6,2,4,3,14,7,15,1,10,8"
14690,commdev-image-keyboard-response,147,364728,learnblock1,454.2000000476837,img/planet5_left.png,5,Community 1,NA,TRUE,f,f,NA,NA,NA,1,6,"9,5,13,12,11,6,2,4,3,14,7,15,1,10,8"
14690,commdev-image-keyboard-response,148,365982,learnblock1,486.2000000476837,img/planet13_right.png,13,Community 1,NA,TRUE,j,j,NA,NA,NA,1,6,"9,5,13,12,11,6,2,4,3,14,7,15,1,10,8"
14690,commdev-image-keyboard-response,149,367247,learnblock1,450.39999985694885,img/planet11_left.png,11,Community 1,NA,TRUE,f,f,NA,NA,NA,1,6,"9,5,13,12,11,6,2,4,3,14,7,15,1,10,8"
14690,commdev-image-keyboard-response,150,368508,learnblock1,732.7000000476837,img/planet7_left.png,7,Community 3,NA,TRUE,f,f,NA,NA,NA,1,6,"9,5,13,12,11,6,2,4,3,14,7,15,1,10,8"
14690,commdev-image-keyboard-response,151,369764,learnblock1,626.6000001430511,img/planet10_left.png,10,Community 3,NA,TRUE,f,f,NA,NA,NA,1,6,"9,5,13,12,11,6,2,4,3,14,7,15,1,10,8"
14690,commdev-image-keyboard-response,152,371020,learnblock1,752.8999998569489,img/planet8_left.png,8,Community 3,NA,TRUE,f,f,NA,NA,NA,1,6,"9,5,13,12,11,6,2,4,3,14,7,15,1,10,8"
14690,commdev-image-keyboard-response,153,372285,learnblock1,491.10000014305115,img/planet15_right.png,15,Community 3,NA,TRUE,j,j,NA,NA,NA,1,6,"9,5,13,12,11,6,2,4,3,14,7,15,1,10,8"
14690,commdev-image-keyboard-response,154,373541,learnblock1,917.7999999523163,img/planet4_right.png,4,Community 2,NA,TRUE,j,j,NA,NA,NA,1,6,"9,5,13,12,11,6,2,4,3,14,7,15,1,10,8"
14690,commdev-image-keyboard-response,155,374807,learnblock1,734.7999999523163,img/planet3_right.png,3,Community 2,NA,TRUE,j,j,NA,NA,NA,1,6,"9,5,13,12,11,6,2,4,3,14,7,15,1,10,8"
14690,commdev-image-keyboard-response,156,376063,learnblock1,626.9000000953674,img/planet6_right.png,6,Community 2,NA,TRUE,j,j,NA,NA,NA,1,6,"9,5,13,12,11,6,2,4,3,14,7,15,1,10,8"
14690,commdev-image-keyboard-response,157,377320,learnblock1,579.7000000476837,img/planet2_right.png,2,Community 2,NA,TRUE,j,j,NA,NA,NA,1,6,"9,5,13,12,11,6,2,4,3,14,7,15,1,10,8"
14690,commdev-image-keyboard-response,158,378580,learnblock1,588.3000001907349,img/planet14_left.png,14,Community 2,NA,TRUE,f,f,NA,NA,NA,1,6,"9,5,13,12,11,6,2,4,3,14,7,15,1,10,8"
14690,commdev-image-keyboard-response,159,379845,learnblock1,495.2000000476837,img/planet6_right.png,6,Community 2,NA,TRUE,j,j,NA,NA,NA,1,6,"9,5,13,12,11,6,2,4,3,14,7,15,1,10,8"
14690,commdev-image-keyboard-response,160,381105,learnblock1,494.2999999523163,img/planet2_right.png,2,Community 2,NA,TRUE,j,j,NA,NA,NA,1,6,"9,5,13,12,11,6,2,4,3,14,7,15,1,10,8"
14690,commdev-image-keyboard-response,161,382357,learnblock1,453.5,img/planet4_left.png,4,Community 2,NA,TRUE,f,f,NA,NA,NA,1,6,"9,5,13,12,11,6,2,4,3,14,7,15,1,10,8"
14690,commdev-image-keyboard-response,162,383620,learnblock1,640.6000001430511,img/planet3_left.png,3,Community 2,NA,TRUE,f,f,NA,NA,NA,1,6,"9,5,13,12,11,6,2,4,3,14,7,15,1,10,8"
14690,commdev-image-keyboard-response,163,384883,learnblock1,647.8999998569489,img/planet6_left.png,6,Community 2,NA,TRUE,f,f,NA,NA,NA,1,6,"9,5,13,12,11,6,2,4,3,14,7,15,1,10,8"
14690,commdev-image-keyboard-response,164,386139,learnblock1,567,img/planet14_left.png,14,Community 2,NA,TRUE,f,f,NA,NA,NA,1,6,"9,5,13,12,11,6,2,4,3,14,7,15,1,10,8"
14690,commdev-image-keyboard-response,165,387395,learnblock1,507.2000000476837,img/planet4_right.png,4,Community 2,NA,TRUE,j,j,NA,NA,NA,1,6,"9,5,13,12,11,6,2,4,3,14,7,15,1,10,8"
14690,commdev-image-keyboard-response,166,388652,learnblock1,401.89999985694885,img/planet2_right.png,2,Community 2,NA,TRUE,j,j,NA,NA,NA,1,6,"9,5,13,12,11,6,2,4,3,14,7,15,1,10,8"
14690,commdev-image-keyboard-response,167,389911,learnblock1,461.5,img/planet3_left.png,3,Community 2,NA,TRUE,f,f,NA,NA,NA,1,6,"9,5,13,12,11,6,2,4,3,14,7,15,1,10,8"
14690,commdev-image-keyboard-response,168,391178,learnblock1,629.8000001907349,img/planet14_left.png,14,Community 2,NA,TRUE,f,f,NA,NA,NA,1,6,"9,5,13,12,11,6,2,4,3,14,7,15,1,10,8"
14690,commdev-image-keyboard-response,169,392436,learnblock1,456,img/planet6_right.png,6,Community 2,NA,TRUE,j,j,NA,NA,NA,1,6,"9,5,13,12,11,6,2,4,3,14,7,15,1,10,8"
14690,commdev-image-keyboard-response,170,393692,learnblock1,454.7000000476837,img/planet14_left.png,14,Community 2,NA,TRUE,f,f,NA,NA,NA,1,6,"9,5,13,12,11,6,2,4,3,14,7,15,1,10,8"
14690,commdev-image-keyboard-response,171,394945,learnblock1,427.90000009536743,img/planet4_left.png,4,Community 2,NA,TRUE,f,f,NA,NA,NA,1,6,"9,5,13,12,11,6,2,4,3,14,7,15,1,10,8"
14690,commdev-image-keyboard-response,172,396198,learnblock1,471,img/planet3_right.png,3,Community 2,NA,TRUE,j,j,NA,NA,NA,1,6,"9,5,13,12,11,6,2,4,3,14,7,15,1,10,8"
14690,commdev-image-keyboard-response,173,397458,learnblock1,399.90000009536743,img/planet2_right.png,2,Community 2,NA,TRUE,j,j,NA,NA,NA,1,6,"9,5,13,12,11,6,2,4,3,14,7,15,1,10,8"
14690,commdev-image-keyboard-response,174,398715,learnblock1,496.90000009536743,img/planet3_right.png,3,Community 2,NA,TRUE,j,j,NA,NA,NA,1,6,"9,5,13,12,11,6,2,4,3,14,7,15,1,10,8"
14690,commdev-image-keyboard-response,175,399973,learnblock1,470.90000009536743,img/planet2_right.png,2,Community 2,NA,TRUE,j,j,NA,NA,NA,1,6,"9,5,13,12,11,6,2,4,3,14,7,15,1,10,8"
14690,commdev-image-keyboard-response,176,401240,learnblock1,484.90000009536743,img/planet4_left.png,4,Community 2,NA,TRUE,f,f,NA,NA,NA,1,6,"9,5,13,12,11,6,2,4,3,14,7,15,1,10,8"
14690,commdev-image-keyboard-response,177,402496,learnblock1,513.7999999523163,img/planet14_right.png,14,Community 2,NA,TRUE,j,j,NA,NA,NA,1,6,"9,5,13,12,11,6,2,4,3,14,7,15,1,10,8"
14690,commdev-image-keyboard-response,178,403759,learnblock1,512.7000000476837,img/planet4_right.png,4,Community 2,NA,TRUE,j,j,NA,NA,NA,1,6,"9,5,13,12,11,6,2,4,3,14,7,15,1,10,8"
14690,commdev-image-keyboard-response,179,405023,learnblock1,533.0999999046326,img/planet3_right.png,3,Community 2,NA,TRUE,j,j,NA,NA,NA,1,6,"9,5,13,12,11,6,2,4,3,14,7,15,1,10,8"
14690,commdev-image-keyboard-response,180,406277,learnblock1,568.2000000476837,img/planet4_right.png,4,Community 2,NA,TRUE,j,j,NA,NA,NA,1,6,"9,5,13,12,11,6,2,4,3,14,7,15,1,10,8"
14690,commdev-image-keyboard-response,181,407544,learnblock1,498.39999985694885,img/planet15_left.png,15,Community 3,NA,TRUE,f,f,NA,NA,NA,1,6,"9,5,13,12,11,6,2,4,3,14,7,15,1,10,8"
14690,commdev-image-keyboard-response,182,408807,learnblock1,445.2000000476837,img/planet8_right.png,8,Community 3,NA,TRUE,j,j,NA,NA,NA,1,6,"9,5,13,12,11,6,2,4,3,14,7,15,1,10,8"
14690,commdev-image-keyboard-response,183,410059,learnblock1,390.90000009536743,img/planet1_left.png,1,Community 3,NA,TRUE,f,f,NA,NA,NA,1,6,"9,5,13,12,11,6,2,4,3,14,7,15,1,10,8"
14690,commdev-image-keyboard-response,184,411311,learnblock1,478.89999985694885,img/planet7_left.png,7,Community 3,NA,TRUE,f,f,NA,NA,NA,1,6,"9,5,13,12,11,6,2,4,3,14,7,15,1,10,8"
14690,commdev-image-keyboard-response,185,412567,learnblock1,399.7000000476837,img/planet10_left.png,10,Community 3,NA,TRUE,f,f,NA,NA,NA,1,6,"9,5,13,12,11,6,2,4,3,14,7,15,1,10,8"
14690,commdev-image-keyboard-response,186,413836,learnblock1,398.5,img/planet8_right.png,8,Community 3,NA,TRUE,j,j,NA,NA,NA,1,6,"9,5,13,12,11,6,2,4,3,14,7,15,1,10,8"
14690,commdev-image-keyboard-response,187,415094,learnblock1,483.5,img/planet1_left.png,1,Community 3,NA,TRUE,f,f,NA,NA,NA,1,6,"9,5,13,12,11,6,2,4,3,14,7,15,1,10,8"
14690,commdev-image-keyboard-response,188,416348,learnblock1,366.69999980926514,img/planet7_right.png,7,Community 3,NA,TRUE,j,j,NA,NA,NA,1,6,"9,5,13,12,11,6,2,4,3,14,7,15,1,10,8"
14690,commdev-image-keyboard-response,189,417605,learnblock1,392.7000000476837,img/planet8_left.png,8,Community 3,NA,TRUE,f,f,NA,NA,NA,1,6,"9,5,13,12,11,6,2,4,3,14,7,15,1,10,8"
14690,commdev-image-keyboard-response,190,418858,learnblock1,370.2000000476837,img/planet7_right.png,7,Community 3,NA,TRUE,j,j,NA,NA,NA,1,6,"9,5,13,12,11,6,2,4,3,14,7,15,1,10,8"
14690,commdev-image-keyboard-response,191,420117,learnblock1,418,img/planet8_left.png,8,Community 3,NA,TRUE,f,f,NA,NA,NA,1,6,"9,5,13,12,11,6,2,4,3,14,7,15,1,10,8"
14690,commdev-image-keyboard-response,192,421371,learnblock1,406.39999985694885,img/planet1_left.png,1,Community 3,NA,TRUE,f,f,NA,NA,NA,1,6,"9,5,13,12,11,6,2,4,3,14,7,15,1,10,8"
14690,commdev-image-keyboard-response,193,422624,learnblock1,418.10000014305115,img/planet15_right.png,15,Community 3,NA,TRUE,j,j,NA,NA,NA,1,6,"9,5,13,12,11,6,2,4,3,14,7,15,1,10,8"
14690,commdev-image-keyboard-response,194,423883,learnblock1,571.5,img/planet1_right.png,1,Community 3,NA,TRUE,j,j,NA,NA,NA,1,6,"9,5,13,12,11,6,2,4,3,14,7,15,1,10,8"
14690,commdev-image-keyboard-response,195,425137,learnblock1,455.69999980926514,img/planet8_left.png,8,Community 3,NA,TRUE,f,f,NA,NA,NA,1,6,"9,5,13,12,11,6,2,4,3,14,7,15,1,10,8"
14690,commdev-image-keyboard-response,196,426390,learnblock1,403.80000019073486,img/planet15_right.png,15,Community 3,NA,FALSE,f,j,NA,NA,NA,1,6,"9,5,13,12,11,6,2,4,3,14,7,15,1,10,8"
14690,commdev-image-keyboard-response,197,427647,learnblock1,464.5,img/planet4_left.png,4,Community 2,NA,TRUE,f,f,NA,NA,NA,1,6,"9,5,13,12,11,6,2,4,3,14,7,15,1,10,8"
14690,commdev-image-keyboard-response,198,428906,learnblock1,498.39999985694885,img/planet14_right.png,14,Community 2,NA,TRUE,j,j,NA,NA,NA,1,6,"9,5,13,12,11,6,2,4,3,14,7,15,1,10,8"
14690,commdev-image-keyboard-response,199,430167,learnblock1,441.2000000476837,img/planet4_left.png,4,Community 2,NA,TRUE,f,f,NA,NA,NA,1,6,"9,5,13,12,11,6,2,4,3,14,7,15,1,10,8"
14690,commdev-image-keyboard-response,200,431421,learnblock1,564,img/planet3_left.png,3,Community 2,NA,TRUE,f,f,NA,NA,NA,1,6,"9,5,13,12,11,6,2,4,3,14,7,15,1,10,8"
14690,commdev-image-keyboard-response,201,432678,learnblock1,782.5,img/planet14_left.png,14,Community 2,NA,TRUE,f,f,NA,NA,NA,1,6,"9,5,13,12,11,6,2,4,3,14,7,15,1,10,8"
14690,commdev-image-keyboard-response,202,433938,learnblock1,472.90000009536743,img/planet6_right.png,6,Community 2,NA,TRUE,j,j,NA,NA,NA,1,6,"9,5,13,12,11,6,2,4,3,14,7,15,1,10,8"
14690,commdev-image-keyboard-response,203,435204,learnblock1,860.8999998569489,img/planet14_right.png,14,Community 2,NA,TRUE,j,j,NA,NA,NA,1,6,"9,5,13,12,11,6,2,4,3,14,7,15,1,10,8"
14690,commdev-image-keyboard-response,204,436459,learnblock1,500.2000000476837,img/planet4_left.png,4,Community 2,NA,TRUE,f,f,NA,NA,NA,1,6,"9,5,13,12,11,6,2,4,3,14,7,15,1,10,8"
14690,commdev-image-keyboard-response,205,437716,learnblock1,886.3999998569489,img/planet14_left.png,14,Community 2,NA,TRUE,f,f,NA,NA,NA,1,6,"9,5,13,12,11,6,2,4,3,14,7,15,1,10,8"
14690,commdev-image-keyboard-response,206,438974,learnblock1,643.0999999046326,img/planet3_left.png,3,Community 2,NA,TRUE,f,f,NA,NA,NA,1,6,"9,5,13,12,11,6,2,4,3,14,7,15,1,10,8"
14690,commdev-image-keyboard-response,207,440235,learnblock1,475.2999999523163,img/planet6_left.png,6,Community 2,NA,TRUE,f,f,NA,NA,NA,1,6,"9,5,13,12,11,6,2,4,3,14,7,15,1,10,8"
14690,commdev-image-keyboard-response,208,441490,learnblock1,781.5,img/planet12_left.png,12,Community 1,NA,TRUE,f,f,NA,NA,NA,1,6,"9,5,13,12,11,6,2,4,3,14,7,15,1,10,8"
14690,commdev-image-keyboard-response,209,442753,learnblock1,613.8999998569489,img/planet13_left.png,13,Community 1,NA,TRUE,f,f,NA,NA,NA,1,6,"9,5,13,12,11,6,2,4,3,14,7,15,1,10,8"
14690,commdev-image-keyboard-response,210,444012,learnblock1,763.2999999523163,img/planet9_left.png,9,Community 1,NA,TRUE,f,f,NA,NA,NA,1,6,"9,5,13,12,11,6,2,4,3,14,7,15,1,10,8"
14690,commdev-image-keyboard-response,211,445270,learnblock1,528.2999999523163,img/planet5_right.png,5,Community 1,NA,TRUE,j,j,NA,NA,NA,1,6,"9,5,13,12,11,6,2,4,3,14,7,15,1,10,8"
14690,commdev-image-keyboard-response,212,446534,learnblock1,426.2000000476837,img/planet13_left.png,13,Community 1,NA,TRUE,f,f,NA,NA,NA,1,6,"9,5,13,12,11,6,2,4,3,14,7,15,1,10,8"
14690,commdev-image-keyboard-response,213,447790,learnblock1,1231.1000001430511,img/planet12_left.png,12,Community 1,NA,TRUE,f,f,NA,NA,NA,1,6,"9,5,13,12,11,6,2,4,3,14,7,15,1,10,8"
14690,commdev-image-keyboard-response,214,449054,learnblock1,521.2999999523163,img/planet5_right.png,5,Community 1,NA,TRUE,j,j,NA,NA,NA,1,6,"9,5,13,12,11,6,2,4,3,14,7,15,1,10,8"
14690,commdev-image-keyboard-response,215,450318,learnblock1,874.5,img/planet11_right.png,11,Community 1,NA,TRUE,j,j,NA,NA,NA,1,6,"9,5,13,12,11,6,2,4,3,14,7,15,1,10,8"
14690,commdev-image-keyboard-response,216,451579,learnblock1,517.5,img/planet9_left.png,9,Community 1,NA,TRUE,f,f,NA,NA,NA,1,6,"9,5,13,12,11,6,2,4,3,14,7,15,1,10,8"
14690,commdev-image-keyboard-response,217,452834,learnblock1,598.5,img/planet5_left.png,5,Community 1,NA,TRUE,f,f,NA,NA,NA,1,6,"9,5,13,12,11,6,2,4,3,14,7,15,1,10,8"
14690,commdev-image-keyboard-response,218,454092,learnblock1,499.2999999523163,img/planet12_right.png,12,Community 1,NA,TRUE,j,j,NA,NA,NA,1,6,"9,5,13,12,11,6,2,4,3,14,7,15,1,10,8"
14690,commdev-image-keyboard-response,219,455349,learnblock1,451.60000014305115,img/planet13_right.png,13,Community 1,NA,FALSE,f,j,NA,NA,NA,1,6,"9,5,13,12,11,6,2,4,3,14,7,15,1,10,8"
14690,commdev-image-keyboard-response,220,456604,learnblock1,694.5,img/planet9_right.png,9,Community 1,NA,TRUE,j,j,NA,NA,NA,1,6,"9,5,13,12,11,6,2,4,3,14,7,15,1,10,8"
14690,commdev-image-keyboard-response,221,457861,learnblock1,1039.9000000953674,img/planet12_right.png,12,Community 1,NA,TRUE,j,j,NA,NA,NA,1,6,"9,5,13,12,11,6,2,4,3,14,7,15,1,10,8"
14690,commdev-image-keyboard-response,222,459129,learnblock1,560.5999999046326,img/planet5_left.png,5,Community 1,NA,TRUE,f,f,NA,NA,NA,1,6,"9,5,13,12,11,6,2,4,3,14,7,15,1,10,8"
14690,commdev-image-keyboard-response,223,460384,learnblock1,459,img/planet9_right.png,9,Community 1,NA,TRUE,j,j,NA,NA,NA,1,6,"9,5,13,12,11,6,2,4,3,14,7,15,1,10,8"
14690,commdev-image-keyboard-response,224,461640,learnblock1,439.89999985694885,img/planet13_left.png,13,Community 1,NA,TRUE,f,f,NA,NA,NA,1,6,"9,5,13,12,11,6,2,4,3,14,7,15,1,10,8"
14690,commdev-image-keyboard-response,225,462903,learnblock1,518.6000001430511,img/planet5_left.png,5,Community 1,NA,TRUE,f,f,NA,NA,NA,1,6,"9,5,13,12,11,6,2,4,3,14,7,15,1,10,8"
14690,commdev-image-keyboard-response,226,464157,learnblock1,487.7999999523163,img/planet12_right.png,12,Community 1,NA,TRUE,j,j,NA,NA,NA,1,6,"9,5,13,12,11,6,2,4,3,14,7,15,1,10,8"
14690,commdev-image-keyboard-response,227,465416,learnblock1,461.2999999523163,img/planet13_right.png,13,Community 1,NA,FALSE,f,j,NA,NA,NA,1,6,"9,5,13,12,11,6,2,4,3,14,7,15,1,10,8"
14690,commdev-image-keyboard-response,228,466679,learnblock1,742.5999999046326,img/planet12_right.png,12,Community 1,NA,TRUE,j,j,NA,NA,NA,1,6,"9,5,13,12,11,6,2,4,3,14,7,15,1,10,8"
14690,commdev-image-keyboard-response,229,467935,learnblock1,495.40000009536743,img/planet5_right.png,5,Community 1,NA,TRUE,j,j,NA,NA,NA,1,6,"9,5,13,12,11,6,2,4,3,14,7,15,1,10,8"
14690,commdev-image-keyboard-response,230,469191,learnblock1,509.7000000476837,img/planet9_right.png,9,Community 1,NA,TRUE,j,j,NA,NA,NA,1,6,"9,5,13,12,11,6,2,4,3,14,7,15,1,10,8"
14690,commdev-image-keyboard-response,231,470454,learnblock1,483.2000000476837,img/planet13_left.png,13,Community 1,NA,FALSE,j,f,NA,NA,NA,1,6,"9,5,13,12,11,6,2,4,3,14,7,15,1,10,8"
14690,commdev-image-keyboard-response,232,471722,learnblock1,616.7000000476837,img/planet5_left.png,5,Community 1,NA,TRUE,f,f,NA,NA,NA,1,6,"9,5,13,12,11,6,2,4,3,14,7,15,1,10,8"
14690,commdev-image-keyboard-response,233,472980,learnblock1,408.60000014305115,img/planet9_left.png,9,Community 1,NA,TRUE,f,f,NA,NA,NA,1,6,"9,5,13,12,11,6,2,4,3,14,7,15,1,10,8"
14690,commdev-image-keyboard-response,234,474245,learnblock1,895.8999998569489,img/planet12_left.png,12,Community 1,NA,TRUE,f,f,NA,NA,NA,1,6,"9,5,13,12,11,6,2,4,3,14,7,15,1,10,8"
14690,commdev-image-keyboard-response,235,475504,learnblock1,486.80000019073486,img/planet9_right.png,9,Community 1,NA,TRUE,j,j,NA,NA,NA,1,6,"9,5,13,12,11,6,2,4,3,14,7,15,1,10,8"
14690,commdev-image-keyboard-response,236,476762,learnblock1,541.5,img/planet5_right.png,5,Community 1,NA,TRUE,j,j,NA,NA,NA,1,6,"9,5,13,12,11,6,2,4,3,14,7,15,1,10,8"
14690,commdev-image-keyboard-response,237,478018,learnblock1,414.10000014305115,img/planet13_left.png,13,Community 1,NA,TRUE,f,f,NA,NA,NA,1,6,"9,5,13,12,11,6,2,4,3,14,7,15,1,10,8"
14690,commdev-image-keyboard-response,238,479272,learnblock1,587.3999998569489,img/planet11_left.png,11,Community 1,NA,TRUE,f,f,NA,NA,NA,1,6,"9,5,13,12,11,6,2,4,3,14,7,15,1,10,8"
14690,commdev-image-keyboard-response,239,480530,learnblock1,441,img/planet9_right.png,9,Community 1,NA,TRUE,j,j,NA,NA,NA,1,6,"9,5,13,12,11,6,2,4,3,14,7,15,1,10,8"
14690,commdev-image-keyboard-response,240,481787,learnblock1,355.7999999523163,img/planet5_left.png,5,Community 1,NA,TRUE,f,f,NA,NA,NA,1,6,"9,5,13,12,11,6,2,4,3,14,7,15,1,10,8"
14690,commdev-image-keyboard-response,241,483046,learnblock1,413.7000000476837,img/planet9_right.png,9,Community 1,NA,TRUE,j,j,NA,NA,NA,1,6,"9,5,13,12,11,6,2,4,3,14,7,15,1,10,8"
14690,commdev-image-keyboard-response,242,484315,learnblock1,402.59999990463257,img/planet13_right.png,13,Community 1,NA,FALSE,f,j,NA,NA,NA,1,6,"9,5,13,12,11,6,2,4,3,14,7,15,1,10,8"
14690,commdev-image-keyboard-response,243,485568,learnblock1,410.10000014305115,img/planet12_left.png,12,Community 1,NA,TRUE,f,f,NA,NA,NA,1,6,"9,5,13,12,11,6,2,4,3,14,7,15,1,10,8"
14690,commdev-image-keyboard-response,244,486826,learnblock1,350.69999980926514,img/planet13_right.png,13,Community 1,NA,TRUE,j,j,NA,NA,NA,1,6,"9,5,13,12,11,6,2,4,3,14,7,15,1,10,8"
14690,commdev-image-keyboard-response,245,488080,learnblock1,429.30000019073486,img/planet9_left.png,9,Community 1,NA,TRUE,f,f,NA,NA,NA,1,6,"9,5,13,12,11,6,2,4,3,14,7,15,1,10,8"
14690,commdev-image-keyboard-response,246,489337,learnblock1,411.39999985694885,img/planet13_right.png,13,Community 1,NA,TRUE,j,j,NA,NA,NA,1,6,"9,5,13,12,11,6,2,4,3,14,7,15,1,10,8"
14690,commdev-image-keyboard-response,247,490597,learnblock1,475.89999985694885,img/planet9_left.png,9,Community 1,NA,TRUE,f,f,NA,NA,NA,1,6,"9,5,13,12,11,6,2,4,3,14,7,15,1,10,8"
14690,commdev-image-keyboard-response,248,491865,learnblock1,421,img/planet13_right.png,13,Community 1,NA,TRUE,j,j,NA,NA,NA,1,6,"9,5,13,12,11,6,2,4,3,14,7,15,1,10,8"
14690,commdev-image-keyboard-response,249,493127,learnblock1,489.40000009536743,img/planet9_right.png,9,Community 1,NA,TRUE,j,j,NA,NA,NA,1,6,"9,5,13,12,11,6,2,4,3,14,7,15,1,10,8"
14690,commdev-image-keyboard-response,250,494384,learnblock1,463.5,img/planet5_right.png,5,Community 1,NA,TRUE,j,j,NA,NA,NA,1,6,"9,5,13,12,11,6,2,4,3,14,7,15,1,10,8"
14690,commdev-image-keyboard-response,251,495640,learnblock1,419.39999985694885,img/planet9_left.png,9,Community 1,NA,TRUE,f,f,NA,NA,NA,1,6,"9,5,13,12,11,6,2,4,3,14,7,15,1,10,8"
14690,commdev-image-keyboard-response,252,496896,learnblock1,306.2999999523163,img/planet12_right.png,12,Community 1,NA,TRUE,j,j,NA,NA,NA,1,6,"9,5,13,12,11,6,2,4,3,14,7,15,1,10,8"
14690,commdev-image-keyboard-response,253,498163,learnblock1,596.2000000476837,img/planet6_right.png,6,Community 2,NA,TRUE,j,j,NA,NA,NA,1,6,"9,5,13,12,11,6,2,4,3,14,7,15,1,10,8"
14690,commdev-image-keyboard-response,254,499417,learnblock1,495.69999980926514,img/planet2_left.png,2,Community 2,NA,TRUE,f,f,NA,NA,NA,1,6,"9,5,13,12,11,6,2,4,3,14,7,15,1,10,8"
14690,commdev-image-keyboard-response,255,500673,learnblock1,411.80000019073486,img/planet4_right.png,4,Community 2,NA,TRUE,j,j,NA,NA,NA,1,6,"9,5,13,12,11,6,2,4,3,14,7,15,1,10,8"
14690,commdev-image-keyboard-response,256,501930,learnblock1,529.7999999523163,img/planet15_right.png,15,Community 3,NA,TRUE,j,j,NA,NA,NA,1,6,"9,5,13,12,11,6,2,4,3,14,7,15,1,10,8"
14690,commdev-image-keyboard-response,257,503188,learnblock1,582.2000000476837,img/planet1_right.png,1,Community 3,NA,TRUE,j,j,NA,NA,NA,1,6,"9,5,13,12,11,6,2,4,3,14,7,15,1,10,8"
14690,commdev-image-keyboard-response,258,504454,learnblock1,527.5,img/planet10_right.png,10,Community 3,NA,TRUE,j,j,NA,NA,NA,1,6,"9,5,13,12,11,6,2,4,3,14,7,15,1,10,8"
14690,commdev-image-keyboard-response,259,505711,learnblock1,450.2000000476837,img/planet7_right.png,7,Community 3,NA,TRUE,j,j,NA,NA,NA,1,6,"9,5,13,12,11,6,2,4,3,14,7,15,1,10,8"
14690,commdev-image-keyboard-response,260,506969,learnblock1,492.5,img/planet8_left.png,8,Community 3,NA,TRUE,f,f,NA,NA,NA,1,6,"9,5,13,12,11,6,2,4,3,14,7,15,1,10,8"
14690,commdev-image-keyboard-response,261,508226,learnblock1,356.90000009536743,img/planet15_right.png,15,Community 3,NA,TRUE,j,j,NA,NA,NA,1,6,"9,5,13,12,11,6,2,4,3,14,7,15,1,10,8"
14690,commdev-image-keyboard-response,262,509486,learnblock1,410.09999990463257,img/planet1_left.png,1,Community 3,NA,TRUE,f,f,NA,NA,NA,1,6,"9,5,13,12,11,6,2,4,3,14,7,15,1,10,8"
14690,commdev-image-keyboard-response,263,510742,learnblock1,495.5,img/planet8_left.png,8,Community 3,NA,TRUE,f,f,NA,NA,NA,1,6,"9,5,13,12,11,6,2,4,3,14,7,15,1,10,8"
14690,commdev-image-keyboard-response,264,512003,learnblock1,423.2000000476837,img/planet7_right.png,7,Community 3,NA,TRUE,j,j,NA,NA,NA,1,6,"9,5,13,12,11,6,2,4,3,14,7,15,1,10,8"
14690,commdev-image-keyboard-response,265,513259,learnblock1,658.1999998092651,img/planet11_right.png,11,Community 1,NA,TRUE,j,j,NA,NA,NA,1,6,"9,5,13,12,11,6,2,4,3,14,7,15,1,10,8"
14690,commdev-image-keyboard-response,266,514511,learnblock1,506.2000000476837,img/planet9_right.png,9,Community 1,NA,TRUE,j,j,NA,NA,NA,1,6,"9,5,13,12,11,6,2,4,3,14,7,15,1,10,8"
14690,commdev-image-keyboard-response,267,515772,learnblock1,488.10000014305115,img/planet12_left.png,12,Community 1,NA,TRUE,f,f,NA,NA,NA,1,6,"9,5,13,12,11,6,2,4,3,14,7,15,1,10,8"
14690,commdev-image-keyboard-response,268,517026,learnblock1,390.2000000476837,img/planet6_right.png,6,Community 2,NA,TRUE,j,j,NA,NA,NA,1,6,"9,5,13,12,11,6,2,4,3,14,7,15,1,10,8"
14690,commdev-image-keyboard-response,269,518287,learnblock1,416.2000000476837,img/planet12_left.png,12,Community 1,NA,TRUE,f,f,NA,NA,NA,1,6,"9,5,13,12,11,6,2,4,3,14,7,15,1,10,8"
14690,commdev-image-keyboard-response,270,519544,learnblock1,600.1999998092651,img/planet9_left.png,9,Community 1,NA,TRUE,f,f,NA,NA,NA,1,6,"9,5,13,12,11,6,2,4,3,14,7,15,1,10,8"
14690,commdev-image-keyboard-response,271,520798,learnblock1,482.7999999523163,img/planet12_right.png,12,Community 1,NA,TRUE,j,j,NA,NA,NA,1,6,"9,5,13,12,11,6,2,4,3,14,7,15,1,10,8"
14690,commdev-image-keyboard-response,272,522055,learnblock1,538.7000000476837,img/planet5_right.png,5,Community 1,NA,TRUE,j,j,NA,NA,NA,1,6,"9,5,13,12,11,6,2,4,3,14,7,15,1,10,8"
14690,commdev-image-keyboard-response,273,523318,learnblock1,403.5,img/planet12_left.png,12,Community 1,NA,TRUE,f,f,NA,NA,NA,1,6,"9,5,13,12,11,6,2,4,3,14,7,15,1,10,8"
14690,commdev-image-keyboard-response,274,524574,learnblock1,531.5,img/planet6_left.png,6,Community 2,NA,TRUE,f,f,NA,NA,NA,1,6,"9,5,13,12,11,6,2,4,3,14,7,15,1,10,8"
14690,commdev-image-keyboard-response,275,525840,learnblock1,503.7999999523163,img/planet3_right.png,3,Community 2,NA,TRUE,j,j,NA,NA,NA,1,6,"9,5,13,12,11,6,2,4,3,14,7,15,1,10,8"
14690,commdev-image-keyboard-response,276,527095,learnblock1,424.90000009536743,img/planet14_left.png,14,Community 2,NA,TRUE,f,f,NA,NA,NA,1,6,"9,5,13,12,11,6,2,4,3,14,7,15,1,10,8"
14690,commdev-image-keyboard-response,277,528359,learnblock1,379.39999985694885,img/planet4_right.png,4,Community 2,NA,TRUE,j,j,NA,NA,NA,1,6,"9,5,13,12,11,6,2,4,3,14,7,15,1,10,8"
14690,commdev-image-keyboard-response,278,529623,learnblock1,349.40000009536743,img/planet15_right.png,15,Community 3,NA,FALSE,f,j,NA,NA,NA,1,6,"9,5,13,12,11,6,2,4,3,14,7,15,1,10,8"
14690,commdev-image-keyboard-response,279,530884,learnblock1,435.2000000476837,img/planet1_left.png,1,Community 3,NA,TRUE,f,f,NA,NA,NA,1,6,"9,5,13,12,11,6,2,4,3,14,7,15,1,10,8"
14690,commdev-image-keyboard-response,280,532137,learnblock1,625.4000000953674,img/planet7_left.png,7,Community 3,NA,TRUE,f,f,NA,NA,NA,1,6,"9,5,13,12,11,6,2,4,3,14,7,15,1,10,8"
14690,commdev-image-keyboard-response,281,533394,learnblock1,468.40000009536743,img/planet1_right.png,1,Community 3,NA,TRUE,j,j,NA,NA,NA,1,6,"9,5,13,12,11,6,2,4,3,14,7,15,1,10,8"
14690,commdev-image-keyboard-response,282,534650,learnblock1,469.7000000476837,img/planet8_left.png,8,Community 3,NA,TRUE,f,f,NA,NA,NA,1,6,"9,5,13,12,11,6,2,4,3,14,7,15,1,10,8"
14690,commdev-image-keyboard-response,283,535903,learnblock1,396.10000014305115,img/planet10_right.png,10,Community 3,NA,TRUE,j,j,NA,NA,NA,1,6,"9,5,13,12,11,6,2,4,3,14,7,15,1,10,8"
14690,commdev-image-keyboard-response,284,537161,learnblock1,542.7999999523163,img/planet15_right.png,15,Community 3,NA,TRUE,j,j,NA,NA,NA,1,6,"9,5,13,12,11,6,2,4,3,14,7,15,1,10,8"
14690,commdev-image-keyboard-response,285,538420,learnblock1,544,img/planet1_right.png,1,Community 3,NA,TRUE,j,j,NA,NA,NA,1,6,"9,5,13,12,11,6,2,4,3,14,7,15,1,10,8"
14690,commdev-image-keyboard-response,286,539677,learnblock1,622.5,img/planet8_right.png,8,Community 3,NA,TRUE,j,j,NA,NA,NA,1,6,"9,5,13,12,11,6,2,4,3,14,7,15,1,10,8"
14690,commdev-image-keyboard-response,287,540944,learnblock1,449.7000000476837,img/planet10_left.png,10,Community 3,NA,TRUE,f,f,NA,NA,NA,1,6,"9,5,13,12,11,6,2,4,3,14,7,15,1,10,8"
14690,commdev-image-keyboard-response,288,542203,learnblock1,359.19999980926514,img/planet8_right.png,8,Community 3,NA,TRUE,j,j,NA,NA,NA,1,6,"9,5,13,12,11,6,2,4,3,14,7,15,1,10,8"
14690,commdev-image-keyboard-response,289,543456,learnblock1,429.7999999523163,img/planet1_left.png,1,Community 3,NA,TRUE,f,f,NA,NA,NA,1,6,"9,5,13,12,11,6,2,4,3,14,7,15,1,10,8"
14690,commdev-image-keyboard-response,290,544721,learnblock1,430.7000000476837,img/planet8_left.png,8,Community 3,NA,FALSE,j,f,NA,NA,NA,1,6,"9,5,13,12,11,6,2,4,3,14,7,15,1,10,8"
14690,commdev-image-keyboard-response,291,545988,learnblock1,406.2000000476837,img/planet1_right.png,1,Community 3,NA,TRUE,j,j,NA,NA,NA,1,6,"9,5,13,12,11,6,2,4,3,14,7,15,1,10,8"
14690,commdev-image-keyboard-response,292,547245,learnblock1,448.09999990463257,img/planet10_right.png,10,Community 3,NA,FALSE,f,j,NA,NA,NA,1,6,"9,5,13,12,11,6,2,4,3,14,7,15,1,10,8"
14690,commdev-image-keyboard-response,293,548507,learnblock1,525.3000001907349,img/planet1_right.png,1,Community 3,NA,TRUE,j,j,NA,NA,NA,1,6,"9,5,13,12,11,6,2,4,3,14,7,15,1,10,8"
14690,commdev-image-keyboard-response,294,549769,learnblock1,476.2999999523163,img/planet15_left.png,15,Community 3,NA,TRUE,f,f,NA,NA,NA,1,6,"9,5,13,12,11,6,2,4,3,14,7,15,1,10,8"
14690,commdev-image-keyboard-response,295,551026,learnblock1,363.40000009536743,img/planet4_right.png,4,Community 2,NA,TRUE,j,j,NA,NA,NA,1,6,"9,5,13,12,11,6,2,4,3,14,7,15,1,10,8"
14690,commdev-image-keyboard-response,296,552282,learnblock1,739.7999999523163,img/planet3_right.png,3,Community 2,NA,TRUE,j,j,NA,NA,NA,1,6,"9,5,13,12,11,6,2,4,3,14,7,15,1,10,8"
14690,commdev-image-keyboard-response,297,553537,learnblock1,508.2999999523163,img/planet2_left.png,2,Community 2,NA,TRUE,f,f,NA,NA,NA,1,6,"9,5,13,12,11,6,2,4,3,14,7,15,1,10,8"
14690,commdev-image-keyboard-response,298,554801,learnblock1,391.5,img/planet4_right.png,4,Community 2,NA,TRUE,j,j,NA,NA,NA,1,6,"9,5,13,12,11,6,2,4,3,14,7,15,1,10,8"
14690,commdev-image-keyboard-response,299,556060,learnblock1,524.2999999523163,img/planet3_right.png,3,Community 2,NA,TRUE,j,j,NA,NA,NA,1,6,"9,5,13,12,11,6,2,4,3,14,7,15,1,10,8"
14690,commdev-image-keyboard-response,300,557318,learnblock1,512.8000001907349,img/planet14_left.png,14,Community 2,NA,TRUE,f,f,NA,NA,NA,1,6,"9,5,13,12,11,6,2,4,3,14,7,15,1,10,8"
14690,commdev-image-keyboard-response,301,558575,learnblock1,802.3999998569489,img/planet4_left.png,4,Community 2,NA,TRUE,f,f,NA,NA,NA,1,6,"9,5,13,12,11,6,2,4,3,14,7,15,1,10,8"
14690,commdev-image-keyboard-response,302,559835,learnblock1,471.5,img/planet3_right.png,3,Community 2,NA,TRUE,j,j,NA,NA,NA,1,6,"9,5,13,12,11,6,2,4,3,14,7,15,1,10,8"
14690,commdev-image-keyboard-response,303,561090,learnblock1,419.60000014305115,img/planet4_left.png,4,Community 2,NA,TRUE,f,f,NA,NA,NA,1,6,"9,5,13,12,11,6,2,4,3,14,7,15,1,10,8"
14690,commdev-image-keyboard-response,304,562347,learnblock1,411.89999985694885,img/planet3_right.png,3,Community 2,NA,TRUE,j,j,NA,NA,NA,1,6,"9,5,13,12,11,6,2,4,3,14,7,15,1,10,8"
14690,commdev-image-keyboard-response,305,563602,learnblock1,519.9000000953674,img/planet6_right.png,6,Community 2,NA,TRUE,j,j,NA,NA,NA,1,6,"9,5,13,12,11,6,2,4,3,14,7,15,1,10,8"
14690,commdev-image-keyboard-response,306,564859,learnblock1,535.7000000476837,img/planet14_left.png,14,Community 2,NA,TRUE,f,f,NA,NA,NA,1,6,"9,5,13,12,11,6,2,4,3,14,7,15,1,10,8"
14690,commdev-image-keyboard-response,307,566118,learnblock1,1000.2000000476837,img/planet4_left.png,4,Community 2,NA,TRUE,f,f,NA,NA,NA,1,6,"9,5,13,12,11,6,2,4,3,14,7,15,1,10,8"
14690,commdev-image-keyboard-response,308,567375,learnblock1,485.7000000476837,img/planet14_right.png,14,Community 2,NA,TRUE,j,j,NA,NA,NA,1,6,"9,5,13,12,11,6,2,4,3,14,7,15,1,10,8"
14690,commdev-image-keyboard-response,309,568632,learnblock1,612.2999999523163,img/planet6_right.png,6,Community 2,NA,TRUE,j,j,NA,NA,NA,1,6,"9,5,13,12,11,6,2,4,3,14,7,15,1,10,8"
14690,commdev-image-keyboard-response,310,569887,learnblock1,478.90000009536743,img/planet3_left.png,3,Community 2,NA,TRUE,f,f,NA,NA,NA,1,6,"9,5,13,12,11,6,2,4,3,14,7,15,1,10,8"
14690,commdev-image-keyboard-response,311,571140,learnblock1,665.9000000953674,img/planet14_left.png,14,Community 2,NA,TRUE,f,f,NA,NA,NA,1,6,"9,5,13,12,11,6,2,4,3,14,7,15,1,10,8"
14690,commdev-image-keyboard-response,312,572397,learnblock1,482.90000009536743,img/planet4_right.png,4,Community 2,NA,TRUE,j,j,NA,NA,NA,1,6,"9,5,13,12,11,6,2,4,3,14,7,15,1,10,8"
14690,commdev-image-keyboard-response,313,573652,learnblock1,480.30000019073486,img/planet15_left.png,15,Community 3,NA,TRUE,f,f,NA,NA,NA,1,6,"9,5,13,12,11,6,2,4,3,14,7,15,1,10,8"
14690,commdev-image-keyboard-response,314,574909,learnblock1,363.39999985694885,img/planet4_right.png,4,Community 2,NA,TRUE,j,j,NA,NA,NA,1,6,"9,5,13,12,11,6,2,4,3,14,7,15,1,10,8"
14690,commdev-image-keyboard-response,315,576174,learnblock1,475,img/planet14_left.png,14,Community 2,NA,TRUE,f,f,NA,NA,NA,1,6,"9,5,13,12,11,6,2,4,3,14,7,15,1,10,8"
14690,commdev-image-keyboard-response,316,577431,learnblock1,446.80000019073486,img/planet2_right.png,2,Community 2,NA,FALSE,f,j,NA,NA,NA,1,6,"9,5,13,12,11,6,2,4,3,14,7,15,1,10,8"
14690,commdev-image-keyboard-response,317,578692,learnblock1,728.2000000476837,img/planet14_right.png,14,Community 2,NA,TRUE,j,j,NA,NA,NA,1,6,"9,5,13,12,11,6,2,4,3,14,7,15,1,10,8"
14690,commdev-image-keyboard-response,318,579949,learnblock1,682.5,img/planet4_right.png,4,Community 2,NA,TRUE,j,j,NA,NA,NA,1,6,"9,5,13,12,11,6,2,4,3,14,7,15,1,10,8"
14690,commdev-image-keyboard-response,319,581209,learnblock1,1189,img/planet14_right.png,14,Community 2,NA,TRUE,j,j,NA,NA,NA,1,6,"9,5,13,12,11,6,2,4,3,14,7,15,1,10,8"
14690,commdev-image-keyboard-response,320,582468,learnblock1,549.6000001430511,img/planet4_left.png,4,Community 2,NA,TRUE,f,f,NA,NA,NA,1,6,"9,5,13,12,11,6,2,4,3,14,7,15,1,10,8"
14690,commdev-image-keyboard-response,321,583728,learnblock1,490.09999990463257,img/planet15_right.png,15,Community 3,NA,TRUE,j,j,NA,NA,NA,1,6,"9,5,13,12,11,6,2,4,3,14,7,15,1,10,8"
14690,commdev-image-keyboard-response,322,584988,learnblock1,651.5999999046326,img/planet10_right.png,10,Community 3,NA,TRUE,j,j,NA,NA,NA,1,6,"9,5,13,12,11,6,2,4,3,14,7,15,1,10,8"
14690,commdev-image-keyboard-response,323,586241,learnblock1,602.6000001430511,img/planet1_right.png,1,Community 3,NA,TRUE,j,j,NA,NA,NA,1,6,"9,5,13,12,11,6,2,4,3,14,7,15,1,10,8"
14690,commdev-image-keyboard-response,324,587495,learnblock1,434.60000014305115,img/planet10_left.png,10,Community 3,NA,TRUE,f,f,NA,NA,NA,1,6,"9,5,13,12,11,6,2,4,3,14,7,15,1,10,8"
14690,commdev-image-keyboard-response,325,588761,learnblock1,421.2999999523163,img/planet7_right.png,7,Community 3,NA,TRUE,j,j,NA,NA,NA,1,6,"9,5,13,12,11,6,2,4,3,14,7,15,1,10,8"
14690,commdev-image-keyboard-response,326,590017,learnblock1,496.2000000476837,img/planet8_left.png,8,Community 3,NA,TRUE,f,f,NA,NA,NA,1,6,"9,5,13,12,11,6,2,4,3,14,7,15,1,10,8"
14690,commdev-image-keyboard-response,327,591281,learnblock1,376.7999999523163,img/planet1_right.png,1,Community 3,NA,TRUE,j,j,NA,NA,NA,1,6,"9,5,13,12,11,6,2,4,3,14,7,15,1,10,8"
14690,commdev-image-keyboard-response,328,592534,learnblock1,424.59999990463257,img/planet8_left.png,8,Community 3,NA,TRUE,f,f,NA,NA,NA,1,6,"9,5,13,12,11,6,2,4,3,14,7,15,1,10,8"
14690,commdev-image-keyboard-response,329,593790,learnblock1,446,img/planet15_right.png,15,Community 3,NA,TRUE,j,j,NA,NA,NA,1,6,"9,5,13,12,11,6,2,4,3,14,7,15,1,10,8"
14690,commdev-image-keyboard-response,330,595045,learnblock1,551.5,img/planet1_left.png,1,Community 3,NA,TRUE,f,f,NA,NA,NA,1,6,"9,5,13,12,11,6,2,4,3,14,7,15,1,10,8"
14690,commdev-image-keyboard-response,331,596304,learnblock1,383.2999999523163,img/planet10_right.png,10,Community 3,NA,TRUE,j,j,NA,NA,NA,1,6,"9,5,13,12,11,6,2,4,3,14,7,15,1,10,8"
14690,commdev-image-keyboard-response,332,597556,learnblock1,479.7999999523163,img/planet1_left.png,1,Community 3,NA,TRUE,f,f,NA,NA,NA,1,6,"9,5,13,12,11,6,2,4,3,14,7,15,1,10,8"
14690,commdev-image-keyboard-response,333,598808,learnblock1,348.7000000476837,img/planet15_right.png,15,Community 3,NA,TRUE,j,j,NA,NA,NA,1,6,"9,5,13,12,11,6,2,4,3,14,7,15,1,10,8"
14690,commdev-image-keyboard-response,334,600060,learnblock1,463.09999990463257,img/planet8_left.png,8,Community 3,NA,TRUE,f,f,NA,NA,NA,1,6,"9,5,13,12,11,6,2,4,3,14,7,15,1,10,8"
14690,commdev-image-keyboard-response,335,601324,learnblock1,464.7999999523163,img/planet1_left.png,1,Community 3,NA,TRUE,f,f,NA,NA,NA,1,6,"9,5,13,12,11,6,2,4,3,14,7,15,1,10,8"
14690,commdev-image-keyboard-response,336,602577,learnblock1,471.2000000476837,img/planet10_left.png,10,Community 3,NA,TRUE,f,f,NA,NA,NA,1,6,"9,5,13,12,11,6,2,4,3,14,7,15,1,10,8"
14690,commdev-image-keyboard-response,337,603844,learnblock1,531.2000000476837,img/planet7_left.png,7,Community 3,NA,FALSE,j,f,NA,NA,NA,1,6,"9,5,13,12,11,6,2,4,3,14,7,15,1,10,8"
14690,commdev-image-keyboard-response,338,605103,learnblock1,812.4000000953674,img/planet11_left.png,11,Community 1,NA,TRUE,f,f,NA,NA,NA,1,6,"9,5,13,12,11,6,2,4,3,14,7,15,1,10,8"
14690,commdev-image-keyboard-response,339,606371,learnblock1,617.0999999046326,img/planet5_left.png,5,Community 1,NA,TRUE,f,f,NA,NA,NA,1,6,"9,5,13,12,11,6,2,4,3,14,7,15,1,10,8"
14690,commdev-image-keyboard-response,340,607624,learnblock1,481.89999985694885,img/planet9_right.png,9,Community 1,NA,TRUE,j,j,NA,NA,NA,1,6,"9,5,13,12,11,6,2,4,3,14,7,15,1,10,8"
14690,commdev-image-keyboard-response,341,608891,learnblock1,417.59999990463257,img/planet12_left.png,12,Community 1,NA,TRUE,f,f,NA,NA,NA,1,6,"9,5,13,12,11,6,2,4,3,14,7,15,1,10,8"
14690,commdev-image-keyboard-response,342,610145,learnblock1,334.89999985694885,img/planet9_right.png,9,Community 1,NA,TRUE,j,j,NA,NA,NA,1,6,"9,5,13,12,11,6,2,4,3,14,7,15,1,10,8"
14690,commdev-image-keyboard-response,343,611413,learnblock1,453.90000009536743,img/planet5_right.png,5,Community 1,NA,TRUE,j,j,NA,NA,NA,1,6,"9,5,13,12,11,6,2,4,3,14,7,15,1,10,8"
14690,commdev-image-keyboard-response,344,612667,learnblock1,387,img/planet12_left.png,12,Community 1,NA,TRUE,f,f,NA,NA,NA,1,6,"9,5,13,12,11,6,2,4,3,14,7,15,1,10,8"
14690,commdev-image-keyboard-response,345,613931,learnblock1,498.10000014305115,img/planet13_left.png,13,Community 1,NA,TRUE,f,f,NA,NA,NA,1,6,"9,5,13,12,11,6,2,4,3,14,7,15,1,10,8"
14690,commdev-image-keyboard-response,346,615192,learnblock1,399.2999999523163,img/planet9_left.png,9,Community 1,NA,TRUE,f,f,NA,NA,NA,1,6,"9,5,13,12,11,6,2,4,3,14,7,15,1,10,8"
14690,commdev-image-keyboard-response,347,616447,learnblock1,666.8000001907349,img/planet12_left.png,12,Community 1,NA,TRUE,f,f,NA,NA,NA,1,6,"9,5,13,12,11,6,2,4,3,14,7,15,1,10,8"
14690,commdev-image-keyboard-response,351,688837,learnblock2,734.9000000953674,img/planet13_left.png,13,Community 1,NA,TRUE,f,f,NA,NA,NA,1,6,"9,5,13,12,11,6,2,4,3,14,7,15,1,10,8"
14690,commdev-image-keyboard-response,352,690097,learnblock2,444.7999999523163,img/planet11_left.png,11,Community 1,NA,TRUE,f,f,NA,NA,NA,1,6,"9,5,13,12,11,6,2,4,3,14,7,15,1,10,8"
14690,commdev-image-keyboard-response,353,691359,learnblock2,494.60000014305115,img/planet5_left.png,5,Community 1,NA,TRUE,f,f,NA,NA,NA,1,6,"9,5,13,12,11,6,2,4,3,14,7,15,1,10,8"
14690,commdev-image-keyboard-response,354,692614,learnblock2,349.90000009536743,img/planet13_left.png,13,Community 1,NA,TRUE,f,f,NA,NA,NA,1,6,"9,5,13,12,11,6,2,4,3,14,7,15,1,10,8"
14690,commdev-image-keyboard-response,355,693871,learnblock2,435.2999999523163,img/planet5_right.png,5,Community 1,NA,TRUE,j,j,NA,NA,NA,1,6,"9,5,13,12,11,6,2,4,3,14,7,15,1,10,8"
14690,commdev-image-keyboard-response,356,695131,learnblock2,504.60000014305115,img/planet12_left.png,12,Community 1,NA,TRUE,f,f,NA,NA,NA,1,6,"9,5,13,12,11,6,2,4,3,14,7,15,1,10,8"
14690,commdev-image-keyboard-response,357,696394,learnblock2,426.40000009536743,img/planet5_left.png,5,Community 1,NA,TRUE,f,f,NA,NA,NA,1,6,"9,5,13,12,11,6,2,4,3,14,7,15,1,10,8"
14690,commdev-image-keyboard-response,358,697653,learnblock2,394.89999985694885,img/planet9_right.png,9,Community 1,NA,TRUE,j,j,NA,NA,NA,1,6,"9,5,13,12,11,6,2,4,3,14,7,15,1,10,8"
14690,commdev-image-keyboard-response,359,698916,learnblock2,403.39999985694885,img/planet12_left.png,12,Community 1,NA,TRUE,f,f,NA,NA,NA,1,6,"9,5,13,12,11,6,2,4,3,14,7,15,1,10,8"
14690,commdev-image-keyboard-response,360,700176,learnblock2,423.89999985694885,img/planet9_left.png,9,Community 1,NA,TRUE,f,f,NA,NA,NA,1,6,"9,5,13,12,11,6,2,4,3,14,7,15,1,10,8"
14690,commdev-image-keyboard-response,361,701436,learnblock2,407.2999999523163,img/planet13_right.png,13,Community 1,NA,TRUE,j,j,NA,NA,NA,1,6,"9,5,13,12,11,6,2,4,3,14,7,15,1,10,8"
14690,commdev-image-keyboard-response,362,702690,learnblock2,365.7999999523163,img/planet12_left.png,12,Community 1,NA,TRUE,f,f,NA,NA,NA,1,6,"9,5,13,12,11,6,2,4,3,14,7,15,1,10,8"
14690,commdev-image-keyboard-response,363,703955,learnblock2,403.89999985694885,img/planet9_left.png,9,Community 1,NA,TRUE,f,f,NA,NA,NA,1,6,"9,5,13,12,11,6,2,4,3,14,7,15,1,10,8"
14690,commdev-image-keyboard-response,364,705221,learnblock2,399.2000000476837,img/planet11_right.png,11,Community 1,NA,TRUE,j,j,NA,NA,NA,1,6,"9,5,13,12,11,6,2,4,3,14,7,15,1,10,8"
14690,commdev-image-keyboard-response,365,706488,learnblock2,359,img/planet9_right.png,9,Community 1,NA,TRUE,j,j,NA,NA,NA,1,6,"9,5,13,12,11,6,2,4,3,14,7,15,1,10,8"
14690,commdev-image-keyboard-response,366,707745,learnblock2,346.5,img/planet13_right.png,13,Community 1,NA,TRUE,j,j,NA,NA,NA,1,6,"9,5,13,12,11,6,2,4,3,14,7,15,1,10,8"
14690,commdev-image-keyboard-response,367,709000,learnblock2,309.5,img/planet9_right.png,9,Community 1,NA,TRUE,j,j,NA,NA,NA,1,6,"9,5,13,12,11,6,2,4,3,14,7,15,1,10,8"
14690,commdev-image-keyboard-response,368,710265,learnblock2,559.5,img/planet13_right.png,13,Community 1,NA,FALSE,f,j,NA,NA,NA,1,6,"9,5,13,12,11,6,2,4,3,14,7,15,1,10,8"
14690,commdev-image-keyboard-response,369,711522,learnblock2,502.60000014305115,img/planet11_left.png,11,Community 1,NA,TRUE,f,f,NA,NA,NA,1,6,"9,5,13,12,11,6,2,4,3,14,7,15,1,10,8"
14690,commdev-image-keyboard-response,370,712788,learnblock2,413.09999990463257,img/planet5_right.png,5,Community 1,NA,TRUE,j,j,NA,NA,NA,1,6,"9,5,13,12,11,6,2,4,3,14,7,15,1,10,8"
14690,commdev-image-keyboard-response,371,714044,learnblock2,650.5999999046326,img/planet12_right.png,12,Community 1,NA,TRUE,j,j,NA,NA,NA,1,6,"9,5,13,12,11,6,2,4,3,14,7,15,1,10,8"
14690,commdev-image-keyboard-response,372,715297,learnblock2,539.7999999523163,img/planet5_left.png,5,Community 1,NA,TRUE,f,f,NA,NA,NA,1,6,"9,5,13,12,11,6,2,4,3,14,7,15,1,10,8"
14690,commdev-image-keyboard-response,373,716558,learnblock2,524.5,img/planet9_left.png,9,Community 1,NA,TRUE,f,f,NA,NA,NA,1,6,"9,5,13,12,11,6,2,4,3,14,7,15,1,10,8"
14690,commdev-image-keyboard-response,374,717817,learnblock2,502.2000000476837,img/planet13_left.png,13,Community 1,NA,TRUE,f,f,NA,NA,NA,1,6,"9,5,13,12,11,6,2,4,3,14,7,15,1,10,8"
14690,commdev-image-keyboard-response,375,719074,learnblock2,455.10000014305115,img/planet11_left.png,11,Community 1,NA,TRUE,f,f,NA,NA,NA,1,6,"9,5,13,12,11,6,2,4,3,14,7,15,1,10,8"
14690,commdev-image-keyboard-response,376,720330,learnblock2,396.09999990463257,img/planet13_left.png,13,Community 1,NA,TRUE,f,f,NA,NA,NA,1,6,"9,5,13,12,11,6,2,4,3,14,7,15,1,10,8"
14690,commdev-image-keyboard-response,377,721587,learnblock2,344.7000000476837,img/planet11_left.png,11,Community 1,NA,TRUE,f,f,NA,NA,NA,1,6,"9,5,13,12,11,6,2,4,3,14,7,15,1,10,8"
14690,commdev-image-keyboard-response,378,722843,learnblock2,417.2999999523163,img/planet13_left.png,13,Community 1,NA,TRUE,f,f,NA,NA,NA,1,6,"9,5,13,12,11,6,2,4,3,14,7,15,1,10,8"
14690,commdev-image-keyboard-response,379,724101,learnblock2,364.30000019073486,img/planet9_right.png,9,Community 1,NA,TRUE,j,j,NA,NA,NA,1,6,"9,5,13,12,11,6,2,4,3,14,7,15,1,10,8"
14690,commdev-image-keyboard-response,380,725359,learnblock2,595.2999999523163,img/planet11_right.png,11,Community 1,NA,TRUE,j,j,NA,NA,NA,1,6,"9,5,13,12,11,6,2,4,3,14,7,15,1,10,8"
14690,commdev-image-keyboard-response,381,726615,learnblock2,467.40000009536743,img/planet5_left.png,5,Community 1,NA,FALSE,j,f,NA,NA,NA,1,6,"9,5,13,12,11,6,2,4,3,14,7,15,1,10,8"
14690,commdev-image-keyboard-response,382,727872,learnblock2,527.3000001907349,img/planet13_left.png,13,Community 1,NA,TRUE,f,f,NA,NA,NA,1,6,"9,5,13,12,11,6,2,4,3,14,7,15,1,10,8"
14690,commdev-image-keyboard-response,383,729135,learnblock2,425.09999990463257,img/planet5_right.png,5,Community 1,NA,TRUE,j,j,NA,NA,NA,1,6,"9,5,13,12,11,6,2,4,3,14,7,15,1,10,8"
14690,commdev-image-keyboard-response,384,730393,learnblock2,514.2000000476837,img/planet9_right.png,9,Community 1,NA,TRUE,j,j,NA,NA,NA,1,6,"9,5,13,12,11,6,2,4,3,14,7,15,1,10,8"
14690,commdev-image-keyboard-response,385,731662,learnblock2,656.5,img/planet11_right.png,11,Community 1,NA,TRUE,j,j,NA,NA,NA,1,6,"9,5,13,12,11,6,2,4,3,14,7,15,1,10,8"
14690,commdev-image-keyboard-response,386,732917,learnblock2,604.8000001907349,img/planet7_left.png,7,Community 3,NA,TRUE,f,f,NA,NA,NA,1,6,"9,5,13,12,11,6,2,4,3,14,7,15,1,10,8"
14690,commdev-image-keyboard-response,387,734175,learnblock2,525.8999998569489,img/planet11_right.png,11,Community 1,NA,TRUE,j,j,NA,NA,NA,1,6,"9,5,13,12,11,6,2,4,3,14,7,15,1,10,8"
14690,commdev-image-keyboard-response,388,735429,learnblock2,567.3999998569489,img/planet9_left.png,9,Community 1,NA,TRUE,f,f,NA,NA,NA,1,6,"9,5,13,12,11,6,2,4,3,14,7,15,1,10,8"
14690,commdev-image-keyboard-response,389,736693,learnblock2,500.59999990463257,img/planet12_right.png,12,Community 1,NA,TRUE,j,j,NA,NA,NA,1,6,"9,5,13,12,11,6,2,4,3,14,7,15,1,10,8"
14690,commdev-image-keyboard-response,390,737945,learnblock2,479.2999999523163,img/planet5_left.png,5,Community 1,NA,TRUE,f,f,NA,NA,NA,1,6,"9,5,13,12,11,6,2,4,3,14,7,15,1,10,8"
14690,commdev-image-keyboard-response,391,739198,learnblock2,509.7999999523163,img/planet12_right.png,12,Community 1,NA,TRUE,j,j,NA,NA,NA,1,6,"9,5,13,12,11,6,2,4,3,14,7,15,1,10,8"
14690,commdev-image-keyboard-response,392,740452,learnblock2,450,img/planet5_left.png,5,Community 1,NA,TRUE,f,f,NA,NA,NA,1,6,"9,5,13,12,11,6,2,4,3,14,7,15,1,10,8"
14690,commdev-image-keyboard-response,393,741716,learnblock2,462.2999999523163,img/planet13_left.png,13,Community 1,NA,TRUE,f,f,NA,NA,NA,1,6,"9,5,13,12,11,6,2,4,3,14,7,15,1,10,8"
14690,commdev-image-keyboard-response,394,742979,learnblock2,445.39999985694885,img/planet9_left.png,9,Community 1,NA,TRUE,f,f,NA,NA,NA,1,6,"9,5,13,12,11,6,2,4,3,14,7,15,1,10,8"
14690,commdev-image-keyboard-response,395,744237,learnblock2,557.5,img/planet11_left.png,11,Community 1,NA,TRUE,f,f,NA,NA,NA,1,6,"9,5,13,12,11,6,2,4,3,14,7,15,1,10,8"
14690,commdev-image-keyboard-response,396,745499,learnblock2,438.2000000476837,img/planet5_right.png,5,Community 1,NA,TRUE,j,j,NA,NA,NA,1,6,"9,5,13,12,11,6,2,4,3,14,7,15,1,10,8"
14690,commdev-image-keyboard-response,397,746752,learnblock2,415.89999985694885,img/planet12_left.png,12,Community 1,NA,TRUE,f,f,NA,NA,NA,1,6,"9,5,13,12,11,6,2,4,3,14,7,15,1,10,8"
14690,commdev-image-keyboard-response,398,748005,learnblock2,461.09999990463257,img/planet13_left.png,13,Community 1,NA,TRUE,f,f,NA,NA,NA,1,6,"9,5,13,12,11,6,2,4,3,14,7,15,1,10,8"
14690,commdev-image-keyboard-response,399,749269,learnblock2,434.7999999523163,img/planet12_right.png,12,Community 1,NA,TRUE,j,j,NA,NA,NA,1,6,"9,5,13,12,11,6,2,4,3,14,7,15,1,10,8"
14690,commdev-image-keyboard-response,400,750525,learnblock2,468.5,img/planet9_right.png,9,Community 1,NA,TRUE,j,j,NA,NA,NA,1,6,"9,5,13,12,11,6,2,4,3,14,7,15,1,10,8"
14690,commdev-image-keyboard-response,401,751788,learnblock2,586.4000000953674,img/planet11_right.png,11,Community 1,NA,TRUE,j,j,NA,NA,NA,1,6,"9,5,13,12,11,6,2,4,3,14,7,15,1,10,8"
14690,commdev-image-keyboard-response,402,753048,learnblock2,494.7000000476837,img/planet13_left.png,13,Community 1,NA,TRUE,f,f,NA,NA,NA,1,6,"9,5,13,12,11,6,2,4,3,14,7,15,1,10,8"
14690,commdev-image-keyboard-response,403,754304,learnblock2,454.5,img/planet5_right.png,5,Community 1,NA,TRUE,j,j,NA,NA,NA,1,6,"9,5,13,12,11,6,2,4,3,14,7,15,1,10,8"
14690,commdev-image-keyboard-response,404,755562,learnblock2,733.2999999523163,img/planet13_right.png,13,Community 1,NA,TRUE,j,j,NA,NA,NA,1,6,"9,5,13,12,11,6,2,4,3,14,7,15,1,10,8"
14690,commdev-image-keyboard-response,405,756819,learnblock2,538,img/planet9_left.png,9,Community 1,NA,TRUE,f,f,NA,NA,NA,1,6,"9,5,13,12,11,6,2,4,3,14,7,15,1,10,8"
14690,commdev-image-keyboard-response,406,758087,learnblock2,450.09999990463257,img/planet13_right.png,13,Community 1,NA,TRUE,j,j,NA,NA,NA,1,6,"9,5,13,12,11,6,2,4,3,14,7,15,1,10,8"
14690,commdev-image-keyboard-response,407,759340,learnblock2,488.39999985694885,img/planet5_right.png,5,Community 1,NA,TRUE,j,j,NA,NA,NA,1,6,"9,5,13,12,11,6,2,4,3,14,7,15,1,10,8"
14690,commdev-image-keyboard-response,408,760601,learnblock2,457.7999999523163,img/planet9_left.png,9,Community 1,NA,TRUE,f,f,NA,NA,NA,1,6,"9,5,13,12,11,6,2,4,3,14,7,15,1,10,8"
14690,commdev-image-keyboard-response,409,761856,learnblock2,457.40000009536743,img/planet5_right.png,5,Community 1,NA,TRUE,j,j,NA,NA,NA,1,6,"9,5,13,12,11,6,2,4,3,14,7,15,1,10,8"
14690,commdev-image-keyboard-response,410,763116,learnblock2,410.60000014305115,img/planet9_left.png,9,Community 1,NA,TRUE,f,f,NA,NA,NA,1,6,"9,5,13,12,11,6,2,4,3,14,7,15,1,10,8"
14690,commdev-image-keyboard-response,411,764378,learnblock2,516.3999998569489,img/planet5_left.png,5,Community 1,NA,TRUE,f,f,NA,NA,NA,1,6,"9,5,13,12,11,6,2,4,3,14,7,15,1,10,8"
14690,commdev-image-keyboard-response,412,765636,learnblock2,480.5,img/planet11_left.png,11,Community 1,NA,TRUE,f,f,NA,NA,NA,1,6,"9,5,13,12,11,6,2,4,3,14,7,15,1,10,8"
14690,commdev-image-keyboard-response,413,766896,learnblock2,793.2999999523163,img/planet7_left.png,7,Community 3,NA,TRUE,f,f,NA,NA,NA,1,6,"9,5,13,12,11,6,2,4,3,14,7,15,1,10,8"
14690,commdev-image-keyboard-response,414,768160,learnblock2,685.9000000953674,img/planet11_left.png,11,Community 1,NA,TRUE,f,f,NA,NA,NA,1,6,"9,5,13,12,11,6,2,4,3,14,7,15,1,10,8"
14690,commdev-image-keyboard-response,415,769418,learnblock2,468.39999985694885,img/planet9_right.png,9,Community 1,NA,TRUE,j,j,NA,NA,NA,1,6,"9,5,13,12,11,6,2,4,3,14,7,15,1,10,8"
14690,commdev-image-keyboard-response,416,770672,learnblock2,424.2999999523163,img/planet13_left.png,13,Community 1,NA,TRUE,f,f,NA,NA,NA,1,6,"9,5,13,12,11,6,2,4,3,14,7,15,1,10,8"
14690,commdev-image-keyboard-response,417,771931,learnblock2,477.5,img/planet12_left.png,12,Community 1,NA,TRUE,f,f,NA,NA,NA,1,6,"9,5,13,12,11,6,2,4,3,14,7,15,1,10,8"
14690,commdev-image-keyboard-response,418,773186,learnblock2,429.30000019073486,img/planet9_right.png,9,Community 1,NA,TRUE,j,j,NA,NA,NA,1,6,"9,5,13,12,11,6,2,4,3,14,7,15,1,10,8"
14690,commdev-image-keyboard-response,419,774449,learnblock2,434.2999999523163,img/planet13_right.png,13,Community 1,NA,TRUE,j,j,NA,NA,NA,1,6,"9,5,13,12,11,6,2,4,3,14,7,15,1,10,8"
14690,commdev-image-keyboard-response,420,775706,learnblock2,443.5,img/planet9_right.png,9,Community 1,NA,TRUE,j,j,NA,NA,NA,1,6,"9,5,13,12,11,6,2,4,3,14,7,15,1,10,8"
14690,commdev-image-keyboard-response,421,776965,learnblock2,404,img/planet11_left.png,11,Community 1,NA,TRUE,f,f,NA,NA,NA,1,6,"9,5,13,12,11,6,2,4,3,14,7,15,1,10,8"
14690,commdev-image-keyboard-response,422,778225,learnblock2,563.0999999046326,img/planet7_left.png,7,Community 3,NA,TRUE,f,f,NA,NA,NA,1,6,"9,5,13,12,11,6,2,4,3,14,7,15,1,10,8"
14690,commdev-image-keyboard-response,423,779480,learnblock2,536.5,img/planet8_left.png,8,Community 3,NA,TRUE,f,f,NA,NA,NA,1,6,"9,5,13,12,11,6,2,4,3,14,7,15,1,10,8"
14690,commdev-image-keyboard-response,424,780734,learnblock2,568,img/planet7_right.png,7,Community 3,NA,TRUE,j,j,NA,NA,NA,1,6,"9,5,13,12,11,6,2,4,3,14,7,15,1,10,8"
14690,commdev-image-keyboard-response,425,781994,learnblock2,542.9000000953674,img/planet1_right.png,1,Community 3,NA,TRUE,j,j,NA,NA,NA,1,6,"9,5,13,12,11,6,2,4,3,14,7,15,1,10,8"
14690,commdev-image-keyboard-response,426,783246,learnblock2,411.39999985694885,img/planet7_right.png,7,Community 3,NA,TRUE,j,j,NA,NA,NA,1,6,"9,5,13,12,11,6,2,4,3,14,7,15,1,10,8"
14690,commdev-image-keyboard-response,427,784500,learnblock2,451.2999999523163,img/planet11_left.png,11,Community 1,NA,TRUE,f,f,NA,NA,NA,1,6,"9,5,13,12,11,6,2,4,3,14,7,15,1,10,8"
14690,commdev-image-keyboard-response,428,785755,learnblock2,442.7999999523163,img/planet5_right.png,5,Community 1,NA,TRUE,j,j,NA,NA,NA,1,6,"9,5,13,12,11,6,2,4,3,14,7,15,1,10,8"
14690,commdev-image-keyboard-response,429,787010,learnblock2,430.59999990463257,img/planet9_left.png,9,Community 1,NA,TRUE,f,f,NA,NA,NA,1,6,"9,5,13,12,11,6,2,4,3,14,7,15,1,10,8"
14690,commdev-image-keyboard-response,430,788265,learnblock2,469.2000000476837,img/planet11_right.png,11,Community 1,NA,TRUE,j,j,NA,NA,NA,1,6,"9,5,13,12,11,6,2,4,3,14,7,15,1,10,8"
14690,commdev-image-keyboard-response,431,789520,learnblock2,468.7000000476837,img/planet9_left.png,9,Community 1,NA,TRUE,f,f,NA,NA,NA,1,6,"9,5,13,12,11,6,2,4,3,14,7,15,1,10,8"
14690,commdev-image-keyboard-response,432,790773,learnblock2,416.7000000476837,img/planet13_left.png,13,Community 1,NA,TRUE,f,f,NA,NA,NA,1,6,"9,5,13,12,11,6,2,4,3,14,7,15,1,10,8"
14690,commdev-image-keyboard-response,433,792028,learnblock2,344.5,img/planet11_left.png,11,Community 1,NA,TRUE,f,f,NA,NA,NA,1,6,"9,5,13,12,11,6,2,4,3,14,7,15,1,10,8"
14690,commdev-image-keyboard-response,434,793280,learnblock2,599,img/planet7_left.png,7,Community 3,NA,TRUE,f,f,NA,NA,NA,1,6,"9,5,13,12,11,6,2,4,3,14,7,15,1,10,8"
14690,commdev-image-keyboard-response,435,794533,learnblock2,433.10000014305115,img/planet11_left.png,11,Community 1,NA,TRUE,f,f,NA,NA,NA,1,6,"9,5,13,12,11,6,2,4,3,14,7,15,1,10,8"
14690,commdev-image-keyboard-response,436,795797,learnblock2,442.59999990463257,img/planet5_left.png,5,Community 1,NA,TRUE,f,f,NA,NA,NA,1,6,"9,5,13,12,11,6,2,4,3,14,7,15,1,10,8"
14690,commdev-image-keyboard-response,437,797062,learnblock2,347.5,img/planet13_left.png,13,Community 1,NA,TRUE,f,f,NA,NA,NA,1,6,"9,5,13,12,11,6,2,4,3,14,7,15,1,10,8"
14690,commdev-image-keyboard-response,438,798320,learnblock2,449.2000000476837,img/planet12_left.png,12,Community 1,NA,TRUE,f,f,NA,NA,NA,1,6,"9,5,13,12,11,6,2,4,3,14,7,15,1,10,8"
14690,commdev-image-keyboard-response,439,799576,learnblock2,552.8000001907349,img/planet5_left.png,5,Community 1,NA,TRUE,f,f,NA,NA,NA,1,6,"9,5,13,12,11,6,2,4,3,14,7,15,1,10,8"
14690,commdev-image-keyboard-response,440,800834,learnblock2,439.39999985694885,img/planet13_left.png,13,Community 1,NA,TRUE,f,f,NA,NA,NA,1,6,"9,5,13,12,11,6,2,4,3,14,7,15,1,10,8"
14690,commdev-image-keyboard-response,441,802092,learnblock2,446.2000000476837,img/planet12_left.png,12,Community 1,NA,TRUE,f,f,NA,NA,NA,1,6,"9,5,13,12,11,6,2,4,3,14,7,15,1,10,8"
14690,commdev-image-keyboard-response,442,803345,learnblock2,535.4000000953674,img/planet5_right.png,5,Community 1,NA,TRUE,j,j,NA,NA,NA,1,6,"9,5,13,12,11,6,2,4,3,14,7,15,1,10,8"
14690,commdev-image-keyboard-response,443,804604,learnblock2,486.2000000476837,img/planet13_left.png,13,Community 1,NA,TRUE,f,f,NA,NA,NA,1,6,"9,5,13,12,11,6,2,4,3,14,7,15,1,10,8"
14690,commdev-image-keyboard-response,444,805860,learnblock2,474.2999999523163,img/planet12_left.png,12,Community 1,NA,TRUE,f,f,NA,NA,NA,1,6,"9,5,13,12,11,6,2,4,3,14,7,15,1,10,8"
14690,commdev-image-keyboard-response,445,807124,learnblock2,471.7000000476837,img/planet13_right.png,13,Community 1,NA,TRUE,j,j,NA,NA,NA,1,6,"9,5,13,12,11,6,2,4,3,14,7,15,1,10,8"
14690,commdev-image-keyboard-response,446,808384,learnblock2,470.59999990463257,img/planet11_right.png,11,Community 1,NA,TRUE,j,j,NA,NA,NA,1,6,"9,5,13,12,11,6,2,4,3,14,7,15,1,10,8"
14690,commdev-image-keyboard-response,447,809641,learnblock2,417.7000000476837,img/planet13_left.png,13,Community 1,NA,TRUE,f,f,NA,NA,NA,1,6,"9,5,13,12,11,6,2,4,3,14,7,15,1,10,8"
14690,commdev-image-keyboard-response,448,810898,learnblock2,449.60000014305115,img/planet12_left.png,12,Community 1,NA,TRUE,f,f,NA,NA,NA,1,6,"9,5,13,12,11,6,2,4,3,14,7,15,1,10,8"
14690,commdev-image-keyboard-response,449,812155,learnblock2,444.2999999523163,img/planet6_right.png,6,Community 2,NA,TRUE,j,j,NA,NA,NA,1,6,"9,5,13,12,11,6,2,4,3,14,7,15,1,10,8"
14690,commdev-image-keyboard-response,450,813409,learnblock2,463.7999999523163,img/planet2_right.png,2,Community 2,NA,TRUE,j,j,NA,NA,NA,1,6,"9,5,13,12,11,6,2,4,3,14,7,15,1,10,8"
14690,commdev-image-keyboard-response,451,814662,learnblock2,552.5,img/planet4_right.png,4,Community 2,NA,TRUE,j,j,NA,NA,NA,1,6,"9,5,13,12,11,6,2,4,3,14,7,15,1,10,8"
14690,commdev-image-keyboard-response,452,815917,learnblock2,502,img/planet2_right.png,2,Community 2,NA,TRUE,j,j,NA,NA,NA,1,6,"9,5,13,12,11,6,2,4,3,14,7,15,1,10,8"
14690,commdev-image-keyboard-response,453,817183,learnblock2,613.6000001430511,img/planet3_left.png,3,Community 2,NA,TRUE,f,f,NA,NA,NA,1,6,"9,5,13,12,11,6,2,4,3,14,7,15,1,10,8"
14690,commdev-image-keyboard-response,454,818442,learnblock2,757.6000001430511,img/planet4_left.png,4,Community 2,NA,TRUE,f,f,NA,NA,NA,1,6,"9,5,13,12,11,6,2,4,3,14,7,15,1,10,8"
14690,commdev-image-keyboard-response,455,819708,learnblock2,559.5999999046326,img/planet14_right.png,14,Community 2,NA,TRUE,j,j,NA,NA,NA,1,6,"9,5,13,12,11,6,2,4,3,14,7,15,1,10,8"
14690,commdev-image-keyboard-response,456,820966,learnblock2,468.7999999523163,img/planet2_right.png,2,Community 2,NA,TRUE,j,j,NA,NA,NA,1,6,"9,5,13,12,11,6,2,4,3,14,7,15,1,10,8"
14690,commdev-image-keyboard-response,457,822229,learnblock2,493,img/planet4_left.png,4,Community 2,NA,TRUE,f,f,NA,NA,NA,1,6,"9,5,13,12,11,6,2,4,3,14,7,15,1,10,8"
14690,commdev-image-keyboard-response,458,823489,learnblock2,554.4000000953674,img/planet2_left.png,2,Community 2,NA,TRUE,f,f,NA,NA,NA,1,6,"9,5,13,12,11,6,2,4,3,14,7,15,1,10,8"
14690,commdev-image-keyboard-response,459,824744,learnblock2,540.2999999523163,img/planet14_left.png,14,Community 2,NA,TRUE,f,f,NA,NA,NA,1,6,"9,5,13,12,11,6,2,4,3,14,7,15,1,10,8"
14690,commdev-image-keyboard-response,460,825999,learnblock2,480.2000000476837,img/planet2_left.png,2,Community 2,NA,TRUE,f,f,NA,NA,NA,1,6,"9,5,13,12,11,6,2,4,3,14,7,15,1,10,8"
14690,commdev-image-keyboard-response,461,827264,learnblock2,455.7000000476837,img/planet14_right.png,14,Community 2,NA,TRUE,j,j,NA,NA,NA,1,6,"9,5,13,12,11,6,2,4,3,14,7,15,1,10,8"
14690,commdev-image-keyboard-response,462,828522,learnblock2,415.90000009536743,img/planet2_left.png,2,Community 2,NA,TRUE,f,f,NA,NA,NA,1,6,"9,5,13,12,11,6,2,4,3,14,7,15,1,10,8"
14690,commdev-image-keyboard-response,463,829776,learnblock2,569.6000001430511,img/planet6_left.png,6,Community 2,NA,TRUE,f,f,NA,NA,NA,1,6,"9,5,13,12,11,6,2,4,3,14,7,15,1,10,8"
14690,commdev-image-keyboard-response,464,831029,learnblock2,563.5,img/planet2_left.png,2,Community 2,NA,TRUE,f,f,NA,NA,NA,1,6,"9,5,13,12,11,6,2,4,3,14,7,15,1,10,8"
14690,commdev-image-keyboard-response,465,832285,learnblock2,622.4000000953674,img/planet3_left.png,3,Community 2,NA,TRUE,f,f,NA,NA,NA,1,6,"9,5,13,12,11,6,2,4,3,14,7,15,1,10,8"
14690,commdev-image-keyboard-response,466,833545,learnblock2,576.3999998569489,img/planet2_right.png,2,Community 2,NA,TRUE,j,j,NA,NA,NA,1,6,"9,5,13,12,11,6,2,4,3,14,7,15,1,10,8"
14690,commdev-image-keyboard-response,467,834798,learnblock2,553.8999998569489,img/planet3_left.png,3,Community 2,NA,TRUE,f,f,NA,NA,NA,1,6,"9,5,13,12,11,6,2,4,3,14,7,15,1,10,8"
14690,commdev-image-keyboard-response,468,836055,learnblock2,510.89999985694885,img/planet2_left.png,2,Community 2,NA,TRUE,f,f,NA,NA,NA,1,6,"9,5,13,12,11,6,2,4,3,14,7,15,1,10,8"
14690,commdev-image-keyboard-response,469,837322,learnblock2,538.8999998569489,img/planet3_left.png,3,Community 2,NA,TRUE,f,f,NA,NA,NA,1,6,"9,5,13,12,11,6,2,4,3,14,7,15,1,10,8"
14690,commdev-image-keyboard-response,470,838577,learnblock2,534.9000000953674,img/planet14_right.png,14,Community 2,NA,TRUE,j,j,NA,NA,NA,1,6,"9,5,13,12,11,6,2,4,3,14,7,15,1,10,8"
14690,commdev-image-keyboard-response,471,839834,learnblock2,473.39999985694885,img/planet6_left.png,6,Community 2,NA,TRUE,f,f,NA,NA,NA,1,6,"9,5,13,12,11,6,2,4,3,14,7,15,1,10,8"
14690,commdev-image-keyboard-response,472,841092,learnblock2,632.1999998092651,img/planet14_left.png,14,Community 2,NA,TRUE,f,f,NA,NA,NA,1,6,"9,5,13,12,11,6,2,4,3,14,7,15,1,10,8"
14690,commdev-image-keyboard-response,473,842351,learnblock2,470.2999999523163,img/planet2_left.png,2,Community 2,NA,TRUE,f,f,NA,NA,NA,1,6,"9,5,13,12,11,6,2,4,3,14,7,15,1,10,8"
14690,commdev-image-keyboard-response,474,843617,learnblock2,421.7000000476837,img/planet3_right.png,3,Community 2,NA,TRUE,j,j,NA,NA,NA,1,6,"9,5,13,12,11,6,2,4,3,14,7,15,1,10,8"
14690,commdev-image-keyboard-response,475,844870,learnblock2,414.90000009536743,img/planet4_left.png,4,Community 2,NA,TRUE,f,f,NA,NA,NA,1,6,"9,5,13,12,11,6,2,4,3,14,7,15,1,10,8"
14690,commdev-image-keyboard-response,476,846137,learnblock2,485,img/planet3_right.png,3,Community 2,NA,FALSE,f,j,NA,NA,NA,1,6,"9,5,13,12,11,6,2,4,3,14,7,15,1,10,8"
14690,commdev-image-keyboard-response,477,847405,learnblock2,455.7000000476837,img/planet4_left.png,4,Community 2,NA,TRUE,f,f,NA,NA,NA,1,6,"9,5,13,12,11,6,2,4,3,14,7,15,1,10,8"
14690,commdev-image-keyboard-response,478,848659,learnblock2,501.40000009536743,img/planet3_right.png,3,Community 2,NA,TRUE,j,j,NA,NA,NA,1,6,"9,5,13,12,11,6,2,4,3,14,7,15,1,10,8"
14690,commdev-image-keyboard-response,479,849915,learnblock2,397.19999980926514,img/planet2_left.png,2,Community 2,NA,TRUE,f,f,NA,NA,NA,1,6,"9,5,13,12,11,6,2,4,3,14,7,15,1,10,8"
14690,commdev-image-keyboard-response,480,851174,learnblock2,372.59999990463257,img/planet6_right.png,6,Community 2,NA,TRUE,j,j,NA,NA,NA,1,6,"9,5,13,12,11,6,2,4,3,14,7,15,1,10,8"
14690,commdev-image-keyboard-response,481,852435,learnblock2,503.5,img/planet12_right.png,12,Community 1,NA,TRUE,j,j,NA,NA,NA,1,6,"9,5,13,12,11,6,2,4,3,14,7,15,1,10,8"
14690,commdev-image-keyboard-response,482,853695,learnblock2,419,img/planet13_left.png,13,Community 1,NA,TRUE,f,f,NA,NA,NA,1,6,"9,5,13,12,11,6,2,4,3,14,7,15,1,10,8"
14690,commdev-image-keyboard-response,483,854951,learnblock2,508.40000009536743,img/planet5_left.png,5,Community 1,NA,TRUE,f,f,NA,NA,NA,1,6,"9,5,13,12,11,6,2,4,3,14,7,15,1,10,8"
14690,commdev-image-keyboard-response,484,856208,learnblock2,502.59999990463257,img/planet11_left.png,11,Community 1,NA,TRUE,f,f,NA,NA,NA,1,6,"9,5,13,12,11,6,2,4,3,14,7,15,1,10,8"
14690,commdev-image-keyboard-response,485,857465,learnblock2,450.2000000476837,img/planet13_right.png,13,Community 1,NA,TRUE,j,j,NA,NA,NA,1,6,"9,5,13,12,11,6,2,4,3,14,7,15,1,10,8"
14690,commdev-image-keyboard-response,486,858720,learnblock2,539,img/planet5_right.png,5,Community 1,NA,TRUE,j,j,NA,NA,NA,1,6,"9,5,13,12,11,6,2,4,3,14,7,15,1,10,8"
14690,commdev-image-keyboard-response,487,859979,learnblock2,431.10000014305115,img/planet9_left.png,9,Community 1,NA,TRUE,f,f,NA,NA,NA,1,6,"9,5,13,12,11,6,2,4,3,14,7,15,1,10,8"
14690,commdev-image-keyboard-response,488,861238,learnblock2,559.5999999046326,img/planet5_left.png,5,Community 1,NA,TRUE,f,f,NA,NA,NA,1,6,"9,5,13,12,11,6,2,4,3,14,7,15,1,10,8"
14690,commdev-image-keyboard-response,489,862493,learnblock2,451.90000009536743,img/planet12_left.png,12,Community 1,NA,TRUE,f,f,NA,NA,NA,1,6,"9,5,13,12,11,6,2,4,3,14,7,15,1,10,8"
14690,commdev-image-keyboard-response,490,863752,learnblock2,447.80000019073486,img/planet5_left.png,5,Community 1,NA,TRUE,f,f,NA,NA,NA,1,6,"9,5,13,12,11,6,2,4,3,14,7,15,1,10,8"
14690,commdev-image-keyboard-response,491,865017,learnblock2,447.2000000476837,img/planet13_right.png,13,Community 1,NA,TRUE,j,j,NA,NA,NA,1,6,"9,5,13,12,11,6,2,4,3,14,7,15,1,10,8"
14690,commdev-image-keyboard-response,492,866273,learnblock2,410.2999999523163,img/planet9_left.png,9,Community 1,NA,TRUE,f,f,NA,NA,NA,1,6,"9,5,13,12,11,6,2,4,3,14,7,15,1,10,8"
14690,commdev-image-keyboard-response,493,867526,learnblock2,423.90000009536743,img/planet5_left.png,5,Community 1,NA,TRUE,f,f,NA,NA,NA,1,6,"9,5,13,12,11,6,2,4,3,14,7,15,1,10,8"
14690,commdev-image-keyboard-response,494,868780,learnblock2,417.5,img/planet12_right.png,12,Community 1,NA,TRUE,j,j,NA,NA,NA,1,6,"9,5,13,12,11,6,2,4,3,14,7,15,1,10,8"
14690,commdev-image-keyboard-response,495,870039,learnblock2,339.2999999523163,img/planet13_left.png,13,Community 1,NA,TRUE,f,f,NA,NA,NA,1,6,"9,5,13,12,11,6,2,4,3,14,7,15,1,10,8"
14690,commdev-image-keyboard-response,496,871299,learnblock2,366.2000000476837,img/planet5_right.png,5,Community 1,NA,TRUE,j,j,NA,NA,NA,1,6,"9,5,13,12,11,6,2,4,3,14,7,15,1,10,8"
14690,commdev-image-keyboard-response,497,872556,learnblock2,285.7000000476837,img/planet13_right.png,13,Community 1,NA,FALSE,f,j,NA,NA,NA,1,6,"9,5,13,12,11,6,2,4,3,14,7,15,1,10,8"
14690,commdev-image-keyboard-response,498,873810,learnblock2,376.2000000476837,img/planet11_left.png,11,Community 1,NA,TRUE,f,f,NA,NA,NA,1,6,"9,5,13,12,11,6,2,4,3,14,7,15,1,10,8"
14690,commdev-image-keyboard-response,499,875065,learnblock2,583.5999999046326,img/planet7_left.png,7,Community 3,NA,TRUE,f,f,NA,NA,NA,1,6,"9,5,13,12,11,6,2,4,3,14,7,15,1,10,8"
14690,commdev-image-keyboard-response,500,876330,learnblock2,458.5,img/planet1_right.png,1,Community 3,NA,TRUE,j,j,NA,NA,NA,1,6,"9,5,13,12,11,6,2,4,3,14,7,15,1,10,8"
14690,commdev-image-keyboard-response,501,877586,learnblock2,437.59999990463257,img/planet7_left.png,7,Community 3,NA,TRUE,f,f,NA,NA,NA,1,6,"9,5,13,12,11,6,2,4,3,14,7,15,1,10,8"
14690,commdev-image-keyboard-response,502,878853,learnblock2,494.10000014305115,img/planet11_left.png,11,Community 1,NA,TRUE,f,f,NA,NA,NA,1,6,"9,5,13,12,11,6,2,4,3,14,7,15,1,10,8"
14690,commdev-image-keyboard-response,503,880106,learnblock2,393.39999985694885,img/planet9_left.png,9,Community 1,NA,TRUE,f,f,NA,NA,NA,1,6,"9,5,13,12,11,6,2,4,3,14,7,15,1,10,8"
14690,commdev-image-keyboard-response,504,881365,learnblock2,447.89999985694885,img/planet12_right.png,12,Community 1,NA,TRUE,j,j,NA,NA,NA,1,6,"9,5,13,12,11,6,2,4,3,14,7,15,1,10,8"
14690,commdev-image-keyboard-response,505,882623,learnblock2,469.7000000476837,img/planet13_right.png,13,Community 1,NA,TRUE,j,j,NA,NA,NA,1,6,"9,5,13,12,11,6,2,4,3,14,7,15,1,10,8"
14690,commdev-image-keyboard-response,506,883881,learnblock2,480.7000000476837,img/planet5_left.png,5,Community 1,NA,TRUE,f,f,NA,NA,NA,1,6,"9,5,13,12,11,6,2,4,3,14,7,15,1,10,8"
14690,commdev-image-keyboard-response,507,885143,learnblock2,424.7000000476837,img/planet11_left.png,11,Community 1,NA,TRUE,f,f,NA,NA,NA,1,6,"9,5,13,12,11,6,2,4,3,14,7,15,1,10,8"
14690,commdev-image-keyboard-response,508,886405,learnblock2,398.10000014305115,img/planet13_left.png,13,Community 1,NA,FALSE,j,f,NA,NA,NA,1,6,"9,5,13,12,11,6,2,4,3,14,7,15,1,10,8"
14690,commdev-image-keyboard-response,509,887662,learnblock2,599.3000001907349,img/planet12_left.png,12,Community 1,NA,TRUE,f,f,NA,NA,NA,1,6,"9,5,13,12,11,6,2,4,3,14,7,15,1,10,8"
14690,commdev-image-keyboard-response,510,888916,learnblock2,511.09999990463257,img/planet5_right.png,5,Community 1,NA,TRUE,j,j,NA,NA,NA,1,6,"9,5,13,12,11,6,2,4,3,14,7,15,1,10,8"
14690,commdev-image-keyboard-response,511,890176,learnblock2,454.2999999523163,img/planet9_left.png,9,Community 1,NA,TRUE,f,f,NA,NA,NA,1,6,"9,5,13,12,11,6,2,4,3,14,7,15,1,10,8"
14690,commdev-image-keyboard-response,512,891431,learnblock2,504.19999980926514,img/planet5_left.png,5,Community 1,NA,TRUE,f,f,NA,NA,NA,1,6,"9,5,13,12,11,6,2,4,3,14,7,15,1,10,8"
14690,commdev-image-keyboard-response,513,892687,learnblock2,446.90000009536743,img/planet12_right.png,12,Community 1,NA,TRUE,j,j,NA,NA,NA,1,6,"9,5,13,12,11,6,2,4,3,14,7,15,1,10,8"
14690,commdev-image-keyboard-response,514,893943,learnblock2,577.7999999523163,img/planet13_left.png,13,Community 1,NA,TRUE,f,f,NA,NA,NA,1,6,"9,5,13,12,11,6,2,4,3,14,7,15,1,10,8"
14690,commdev-image-keyboard-response,515,895197,learnblock2,520.7999999523163,img/planet11_left.png,11,Community 1,NA,TRUE,f,f,NA,NA,NA,1,6,"9,5,13,12,11,6,2,4,3,14,7,15,1,10,8"
14690,commdev-image-keyboard-response,516,896457,learnblock2,474.40000009536743,img/planet9_right.png,9,Community 1,NA,TRUE,j,j,NA,NA,NA,1,6,"9,5,13,12,11,6,2,4,3,14,7,15,1,10,8"
14690,commdev-image-keyboard-response,517,897717,learnblock2,372.5,img/planet11_left.png,11,Community 1,NA,TRUE,f,f,NA,NA,NA,1,6,"9,5,13,12,11,6,2,4,3,14,7,15,1,10,8"
14690,commdev-image-keyboard-response,518,898973,learnblock2,465.7999999523163,img/planet13_right.png,13,Community 1,NA,TRUE,j,j,NA,NA,NA,1,6,"9,5,13,12,11,6,2,4,3,14,7,15,1,10,8"
14690,commdev-image-keyboard-response,519,900228,learnblock2,384.7000000476837,img/planet11_right.png,11,Community 1,NA,FALSE,f,j,NA,NA,NA,1,6,"9,5,13,12,11,6,2,4,3,14,7,15,1,10,8"
14690,commdev-image-keyboard-response,520,901483,learnblock2,520.2999999523163,img/planet7_left.png,7,Community 3,NA,FALSE,j,f,NA,NA,NA,1,6,"9,5,13,12,11,6,2,4,3,14,7,15,1,10,8"
14690,commdev-image-keyboard-response,521,902741,learnblock2,534,img/planet11_left.png,11,Community 1,NA,TRUE,f,f,NA,NA,NA,1,6,"9,5,13,12,11,6,2,4,3,14,7,15,1,10,8"
14690,commdev-image-keyboard-response,522,904001,learnblock2,435.59999990463257,img/planet9_left.png,9,Community 1,NA,TRUE,f,f,NA,NA,NA,1,6,"9,5,13,12,11,6,2,4,3,14,7,15,1,10,8"
14690,commdev-image-keyboard-response,523,905266,learnblock2,526.1999998092651,img/planet12_right.png,12,Community 1,NA,TRUE,j,j,NA,NA,NA,1,6,"9,5,13,12,11,6,2,4,3,14,7,15,1,10,8"
14690,commdev-image-keyboard-response,524,906524,learnblock2,480.09999990463257,img/planet9_right.png,9,Community 1,NA,TRUE,j,j,NA,NA,NA,1,6,"9,5,13,12,11,6,2,4,3,14,7,15,1,10,8"
14690,commdev-image-keyboard-response,525,907782,learnblock2,574.7000000476837,img/planet12_right.png,12,Community 1,NA,TRUE,j,j,NA,NA,NA,1,6,"9,5,13,12,11,6,2,4,3,14,7,15,1,10,8"
14690,commdev-image-keyboard-response,526,909045,learnblock2,513.6999998092651,img/planet5_left.png,5,Community 1,NA,TRUE,f,f,NA,NA,NA,1,6,"9,5,13,12,11,6,2,4,3,14,7,15,1,10,8"
14690,commdev-image-keyboard-response,527,910302,learnblock2,466.7999999523163,img/planet12_right.png,12,Community 1,NA,TRUE,j,j,NA,NA,NA,1,6,"9,5,13,12,11,6,2,4,3,14,7,15,1,10,8"
14690,commdev-image-keyboard-response,528,911561,learnblock2,579.9000000953674,img/planet6_right.png,6,Community 2,NA,TRUE,j,j,NA,NA,NA,1,6,"9,5,13,12,11,6,2,4,3,14,7,15,1,10,8"
14690,commdev-image-keyboard-response,529,912818,learnblock2,494.40000009536743,img/planet12_right.png,12,Community 1,NA,TRUE,j,j,NA,NA,NA,1,6,"9,5,13,12,11,6,2,4,3,14,7,15,1,10,8"
14690,commdev-image-keyboard-response,530,914073,learnblock2,471.5,img/planet9_right.png,9,Community 1,NA,TRUE,j,j,NA,NA,NA,1,6,"9,5,13,12,11,6,2,4,3,14,7,15,1,10,8"
14690,commdev-image-keyboard-response,531,915338,learnblock2,636.4000000953674,img/planet11_right.png,11,Community 1,NA,TRUE,j,j,NA,NA,NA,1,6,"9,5,13,12,11,6,2,4,3,14,7,15,1,10,8"
14690,commdev-image-keyboard-response,532,916601,learnblock2,539.7000000476837,img/planet5_right.png,5,Community 1,NA,TRUE,j,j,NA,NA,NA,1,6,"9,5,13,12,11,6,2,4,3,14,7,15,1,10,8"
14690,commdev-image-keyboard-response,533,917859,learnblock2,469,img/planet11_right.png,11,Community 1,NA,TRUE,j,j,NA,NA,NA,1,6,"9,5,13,12,11,6,2,4,3,14,7,15,1,10,8"
14690,commdev-image-keyboard-response,534,919111,learnblock2,471.40000009536743,img/planet9_left.png,9,Community 1,NA,TRUE,f,f,NA,NA,NA,1,6,"9,5,13,12,11,6,2,4,3,14,7,15,1,10,8"
14690,commdev-image-keyboard-response,535,920365,learnblock2,530,img/planet13_right.png,13,Community 1,NA,TRUE,j,j,NA,NA,NA,1,6,"9,5,13,12,11,6,2,4,3,14,7,15,1,10,8"
14690,commdev-image-keyboard-response,536,921619,learnblock2,517.9000000953674,img/planet5_right.png,5,Community 1,NA,TRUE,j,j,NA,NA,NA,1,6,"9,5,13,12,11,6,2,4,3,14,7,15,1,10,8"
14690,commdev-image-keyboard-response,537,922873,learnblock2,471.5,img/planet13_left.png,13,Community 1,NA,TRUE,f,f,NA,NA,NA,1,6,"9,5,13,12,11,6,2,4,3,14,7,15,1,10,8"
14690,commdev-image-keyboard-response,538,924140,learnblock2,460.10000014305115,img/planet9_right.png,9,Community 1,NA,TRUE,j,j,NA,NA,NA,1,6,"9,5,13,12,11,6,2,4,3,14,7,15,1,10,8"
14690,commdev-image-keyboard-response,539,925396,learnblock2,442.90000009536743,img/planet5_right.png,5,Community 1,NA,TRUE,j,j,NA,NA,NA,1,6,"9,5,13,12,11,6,2,4,3,14,7,15,1,10,8"
14690,commdev-image-keyboard-response,540,926652,learnblock2,466.7999999523163,img/planet9_right.png,9,Community 1,NA,TRUE,j,j,NA,NA,NA,1,6,"9,5,13,12,11,6,2,4,3,14,7,15,1,10,8"
14690,commdev-image-keyboard-response,541,927910,learnblock2,452,img/planet12_left.png,12,Community 1,NA,TRUE,f,f,NA,NA,NA,1,6,"9,5,13,12,11,6,2,4,3,14,7,15,1,10,8"
14690,commdev-image-keyboard-response,542,929177,learnblock2,411,img/planet6_right.png,6,Community 2,NA,TRUE,j,j,NA,NA,NA,1,6,"9,5,13,12,11,6,2,4,3,14,7,15,1,10,8"
14690,commdev-image-keyboard-response,543,930435,learnblock2,504.2999999523163,img/planet2_right.png,2,Community 2,NA,TRUE,j,j,NA,NA,NA,1,6,"9,5,13,12,11,6,2,4,3,14,7,15,1,10,8"
14690,commdev-image-keyboard-response,544,931689,learnblock2,418.40000009536743,img/planet4_right.png,4,Community 2,NA,TRUE,j,j,NA,NA,NA,1,6,"9,5,13,12,11,6,2,4,3,14,7,15,1,10,8"
14690,commdev-image-keyboard-response,545,932951,learnblock2,473.60000014305115,img/planet15_left.png,15,Community 3,NA,TRUE,f,f,NA,NA,NA,1,6,"9,5,13,12,11,6,2,4,3,14,7,15,1,10,8"
14690,commdev-image-keyboard-response,546,934213,learnblock2,514.5,img/planet10_left.png,10,Community 3,NA,TRUE,f,f,NA,NA,NA,1,6,"9,5,13,12,11,6,2,4,3,14,7,15,1,10,8"
14690,commdev-image-keyboard-response,547,935471,learnblock2,486.2000000476837,img/planet8_right.png,8,Community 3,NA,TRUE,j,j,NA,NA,NA,1,6,"9,5,13,12,11,6,2,4,3,14,7,15,1,10,8"
14690,commdev-image-keyboard-response,548,936737,learnblock2,664,img/planet15_right.png,15,Community 3,NA,TRUE,j,j,NA,NA,NA,1,6,"9,5,13,12,11,6,2,4,3,14,7,15,1,10,8"
14690,commdev-image-keyboard-response,549,937997,learnblock2,536.2999999523163,img/planet10_left.png,10,Community 3,NA,TRUE,f,f,NA,NA,NA,1,6,"9,5,13,12,11,6,2,4,3,14,7,15,1,10,8"
14690,commdev-image-keyboard-response,550,939255,learnblock2,495.7000000476837,img/planet1_right.png,1,Community 3,NA,TRUE,j,j,NA,NA,NA,1,6,"9,5,13,12,11,6,2,4,3,14,7,15,1,10,8"
14690,commdev-image-keyboard-response,551,940507,learnblock2,564.7000000476837,img/planet10_right.png,10,Community 3,NA,TRUE,j,j,NA,NA,NA,1,6,"9,5,13,12,11,6,2,4,3,14,7,15,1,10,8"
14690,commdev-image-keyboard-response,552,941762,learnblock2,481.2000000476837,img/planet8_left.png,8,Community 3,NA,TRUE,f,f,NA,NA,NA,1,6,"9,5,13,12,11,6,2,4,3,14,7,15,1,10,8"
14690,commdev-image-keyboard-response,553,943024,learnblock2,521.0999999046326,img/planet15_left.png,15,Community 3,NA,TRUE,f,f,NA,NA,NA,1,6,"9,5,13,12,11,6,2,4,3,14,7,15,1,10,8"
14690,commdev-image-keyboard-response,554,944292,learnblock2,432,img/planet1_left.png,1,Community 3,NA,TRUE,f,f,NA,NA,NA,1,6,"9,5,13,12,11,6,2,4,3,14,7,15,1,10,8"
14690,commdev-image-keyboard-response,555,945550,learnblock2,435.59999990463257,img/planet15_right.png,15,Community 3,NA,TRUE,j,j,NA,NA,NA,1,6,"9,5,13,12,11,6,2,4,3,14,7,15,1,10,8"
14690,commdev-image-keyboard-response,556,946808,learnblock2,575,img/planet8_right.png,8,Community 3,NA,TRUE,j,j,NA,NA,NA,1,6,"9,5,13,12,11,6,2,4,3,14,7,15,1,10,8"
14690,commdev-image-keyboard-response,557,948073,learnblock2,444.59999990463257,img/planet15_left.png,15,Community 3,NA,TRUE,f,f,NA,NA,NA,1,6,"9,5,13,12,11,6,2,4,3,14,7,15,1,10,8"
14690,commdev-image-keyboard-response,558,949338,learnblock2,518,img/planet8_right.png,8,Community 3,NA,TRUE,j,j,NA,NA,NA,1,6,"9,5,13,12,11,6,2,4,3,14,7,15,1,10,8"
14690,commdev-image-keyboard-response,559,950601,learnblock2,509.40000009536743,img/planet1_left.png,1,Community 3,NA,TRUE,f,f,NA,NA,NA,1,6,"9,5,13,12,11,6,2,4,3,14,7,15,1,10,8"
14690,commdev-image-keyboard-response,560,951859,learnblock2,477.09999990463257,img/planet7_right.png,7,Community 3,NA,TRUE,j,j,NA,NA,NA,1,6,"9,5,13,12,11,6,2,4,3,14,7,15,1,10,8"
14690,commdev-image-keyboard-response,561,953126,learnblock2,582.7999999523163,img/planet8_right.png,8,Community 3,NA,TRUE,j,j,NA,NA,NA,1,6,"9,5,13,12,11,6,2,4,3,14,7,15,1,10,8"
14690,commdev-image-keyboard-response,562,954382,learnblock2,497.5,img/planet10_left.png,10,Community 3,NA,TRUE,f,f,NA,NA,NA,1,6,"9,5,13,12,11,6,2,4,3,14,7,15,1,10,8"
14690,commdev-image-keyboard-response,563,955647,learnblock2,560.2999999523163,img/planet7_left.png,7,Community 3,NA,TRUE,f,f,NA,NA,NA,1,6,"9,5,13,12,11,6,2,4,3,14,7,15,1,10,8"
14690,commdev-image-keyboard-response,564,956914,learnblock2,481.2000000476837,img/planet8_right.png,8,Community 3,NA,TRUE,j,j,NA,NA,NA,1,6,"9,5,13,12,11,6,2,4,3,14,7,15,1,10,8"
14690,commdev-image-keyboard-response,565,958168,learnblock2,455.5,img/planet15_left.png,15,Community 3,NA,TRUE,f,f,NA,NA,NA,1,6,"9,5,13,12,11,6,2,4,3,14,7,15,1,10,8"
14690,commdev-image-keyboard-response,566,959436,learnblock2,434.7000000476837,img/planet4_right.png,4,Community 2,NA,TRUE,j,j,NA,NA,NA,1,6,"9,5,13,12,11,6,2,4,3,14,7,15,1,10,8"
14690,commdev-image-keyboard-response,567,960690,learnblock2,685.4000000953674,img/planet3_right.png,3,Community 2,NA,TRUE,j,j,NA,NA,NA,1,6,"9,5,13,12,11,6,2,4,3,14,7,15,1,10,8"
14690,commdev-image-keyboard-response,568,961950,learnblock2,517.7999999523163,img/planet6_left.png,6,Community 2,NA,TRUE,f,f,NA,NA,NA,1,6,"9,5,13,12,11,6,2,4,3,14,7,15,1,10,8"
14690,commdev-image-keyboard-response,569,963210,learnblock2,512.6000001430511,img/planet3_right.png,3,Community 2,NA,TRUE,j,j,NA,NA,NA,1,6,"9,5,13,12,11,6,2,4,3,14,7,15,1,10,8"
14690,commdev-image-keyboard-response,570,964476,learnblock2,574.3000001907349,img/planet4_right.png,4,Community 2,NA,TRUE,j,j,NA,NA,NA,1,6,"9,5,13,12,11,6,2,4,3,14,7,15,1,10,8"
14690,commdev-image-keyboard-response,571,965736,learnblock2,606.8000001907349,img/planet15_right.png,15,Community 3,NA,TRUE,j,j,NA,NA,NA,1,6,"9,5,13,12,11,6,2,4,3,14,7,15,1,10,8"
14690,commdev-image-keyboard-response,572,966993,learnblock2,478.5,img/planet10_left.png,10,Community 3,NA,TRUE,f,f,NA,NA,NA,1,6,"9,5,13,12,11,6,2,4,3,14,7,15,1,10,8"
14690,commdev-image-keyboard-response,573,968252,learnblock2,604,img/planet8_left.png,8,Community 3,NA,TRUE,f,f,NA,NA,NA,1,6,"9,5,13,12,11,6,2,4,3,14,7,15,1,10,8"
14690,commdev-image-keyboard-response,574,969517,learnblock2,518.5,img/planet7_right.png,7,Community 3,NA,TRUE,j,j,NA,NA,NA,1,6,"9,5,13,12,11,6,2,4,3,14,7,15,1,10,8"
14690,commdev-image-keyboard-response,575,970774,learnblock2,532.5,img/planet11_left.png,11,Community 1,NA,TRUE,f,f,NA,NA,NA,1,6,"9,5,13,12,11,6,2,4,3,14,7,15,1,10,8"
14690,commdev-image-keyboard-response,576,972030,learnblock2,456.90000009536743,img/planet5_right.png,5,Community 1,NA,TRUE,j,j,NA,NA,NA,1,6,"9,5,13,12,11,6,2,4,3,14,7,15,1,10,8"
14690,commdev-image-keyboard-response,577,973285,learnblock2,703,img/planet12_right.png,12,Community 1,NA,TRUE,j,j,NA,NA,NA,1,6,"9,5,13,12,11,6,2,4,3,14,7,15,1,10,8"
14690,commdev-image-keyboard-response,578,974544,learnblock2,496,img/planet6_left.png,6,Community 2,NA,TRUE,f,f,NA,NA,NA,1,6,"9,5,13,12,11,6,2,4,3,14,7,15,1,10,8"
14690,commdev-image-keyboard-response,579,975802,learnblock2,459.90000009536743,img/planet3_right.png,3,Community 2,NA,TRUE,j,j,NA,NA,NA,1,6,"9,5,13,12,11,6,2,4,3,14,7,15,1,10,8"
14690,commdev-image-keyboard-response,580,977058,learnblock2,442.2000000476837,img/planet2_left.png,2,Community 2,NA,TRUE,f,f,NA,NA,NA,1,6,"9,5,13,12,11,6,2,4,3,14,7,15,1,10,8"
14690,commdev-image-keyboard-response,581,978322,learnblock2,429.90000009536743,img/planet6_right.png,6,Community 2,NA,TRUE,j,j,NA,NA,NA,1,6,"9,5,13,12,11,6,2,4,3,14,7,15,1,10,8"
14690,commdev-image-keyboard-response,582,979580,learnblock2,628.7999999523163,img/planet14_right.png,14,Community 2,NA,TRUE,j,j,NA,NA,NA,1,6,"9,5,13,12,11,6,2,4,3,14,7,15,1,10,8"
14690,commdev-image-keyboard-response,583,980847,learnblock2,511.89999985694885,img/planet4_left.png,4,Community 2,NA,TRUE,f,f,NA,NA,NA,1,6,"9,5,13,12,11,6,2,4,3,14,7,15,1,10,8"
14690,commdev-image-keyboard-response,584,982106,learnblock2,443.7999999523163,img/planet14_right.png,14,Community 2,NA,TRUE,j,j,NA,NA,NA,1,6,"9,5,13,12,11,6,2,4,3,14,7,15,1,10,8"
14690,commdev-image-keyboard-response,585,983370,learnblock2,495.7000000476837,img/planet6_left.png,6,Community 2,NA,TRUE,f,f,NA,NA,NA,1,6,"9,5,13,12,11,6,2,4,3,14,7,15,1,10,8"
