subject_id,trial_type,trial_index,time_elapsed,block,rt,stimulus,planet,community,response,correct,key_press,learning_correct_response,parse,init_locations,final_locations,browser_interactions,num_comp,planet_map
14967,commdev-instructions,7,32897,NA,1377.9000000000233,"<p>In this game, you will be shown a 3x3 grid of patterns.</p> <p>The last one in the bottom right-hand corner, <strong>will be missing:</strong></p> <div style='width: 700px;'><div style='float: top;'><img style='width: 200px;' src='practice/p1_M1.png'></img><p class='small'>You need to select<strong> which of the four possible patterns </strong>along the bottom<strong> fits into the gap:</strong></p></div><div style='float: top;'><img style='width: 300px;' src='practice/p1_T1.png'></img></div><br>",NA,NA,NA,NA,NA,NA,NA,NA,NA,1,6,"15,13,2,10,14,12,6,4,5,1,7,8,3,11,9"
14967,commdev-instructions,8,53224,NA,1931.0999999999767,"<p>Try to be as fast and as accurate as you can be.</p> <p>If you cannot solve the puzzle then you should guess - you will not be penalised for an incorrect answer.</p> <p>The task contains a shuffled mix of easy, medium and hard puzzles.</p> <p>You will have <strong>30 seconds</strong> to complete each puzzle.</p><br>",NA,NA,NA,NA,NA,NA,NA,NA,NA,1,6,"15,13,2,10,14,12,6,4,5,1,7,8,3,11,9"
14967,commdev-instructions,15,81642,NA,972.6999999999534,<p><strong>Success!</strong></p> <p>You seem to be getting the hang of this...</p> <p>Let's move on to the real trials.</p><br>,NA,NA,NA,NA,NA,NA,NA,NA,NA,1,6,"15,13,2,10,14,12,6,4,5,1,7,8,3,11,9"
14967,commdev-instructions,75,580795,NA,7070.899999999907,"<p>In this game, you are a scientist on board a space shuttle. </p><p> On each mission, you will visit planets all across the universe.</p><img src=""img/controlroom.jpg"" width=300vw>",NA,NA,NA,NA,NA,NA,NA,NA,NA,1,6,"15,13,2,10,14,12,6,4,5,1,7,8,3,11,9"
14967,commdev-instructions,76,583871,NA,1006.1999999999534,"<p>Here are a few planets you might see:</p><img src=""img/practice1.png"" width=200vw><img src=""img/practice2.png"" width=200vw><img src=""img/practice3.png"" width=200vw>",NA,NA,NA,NA,NA,NA,NA,NA,NA,1,6,"15,13,2,10,14,12,6,4,5,1,7,8,3,11,9"
14967,commdev-instructions,77,593277,NA,2006.6000000000931,"<p>Your job as a scientist is to record which direction the winds are moving on each planet.</p><p>There are two types of wind directions:</p><img src=""img/practice1_left.png"" width=200vw><img src=""img/practice1_right.png"" width=200vw>",NA,NA,NA,NA,NA,NA,NA,NA,NA,1,6,"15,13,2,10,14,12,6,4,5,1,7,8,3,11,9"
14967,commdev-instructions,78,601061,NA,2899.6999999999534,"<p>If the winds are moving this way, press the letter <strong>F</strong> on the keyboard as fast as you can.</p><img src=""img/leftwind.png"" width=250vw>",NA,NA,NA,NA,NA,NA,NA,NA,NA,1,6,"15,13,2,10,14,12,6,4,5,1,7,8,3,11,9"
14967,commdev-instructions,79,611818,NA,6265.300000000047,"<p>If the winds are moving this way, press the letter <strong>J</strong> on the keyboard as fast as you can.</p><img src=""img/rightwind.png"" width=350vw>",NA,NA,NA,NA,NA,NA,NA,NA,NA,1,6,"15,13,2,10,14,12,6,4,5,1,7,8,3,11,9"
14967,commdev-instructions,80,617587,NA,1347,<p>You will have 1 second to respond. Try to respond before the time runs out!,NA,NA,NA,NA,NA,NA,NA,NA,NA,1,6,"15,13,2,10,14,12,6,4,5,1,7,8,3,11,9"
14967,commdev-instructions,81,628959,NA,5935.100000000093,<p>The planets you will visit will look different from each other.</p><p>You should respond <strong>only</strong> based on wind direction.,NA,NA,NA,NA,NA,NA,NA,NA,NA,1,6,"15,13,2,10,14,12,6,4,5,1,7,8,3,11,9"
14967,commdev-instructions,82,635692,NA,1563.4000000001397,"<p> Ready to start the practice round? </p><p> Remember, press <strong>F</strong> or <strong>J</strong> depending on the wind direction.<br><img src=""img/categorize_planet_example.png""",NA,NA,NA,NA,NA,NA,NA,NA,NA,1,6,"15,13,2,10,14,12,6,4,5,1,7,8,3,11,9"
14967,commdev-instructions,94,693828,NA,8610.800000000047,"<p>Great, now try a short practice mission. </p><p> This time, you will have 1 second to respond and you won't know whether you pressed the right or wrong key for each planet.</p>",NA,NA,NA,NA,NA,NA,NA,NA,NA,1,6,"15,13,2,10,14,12,6,4,5,1,7,8,3,11,9"
14967,commdev-image-keyboard-response,95,695182,practice,1064.9000000001397,img/practice2_left.png,NA,Number not found in mappings,NA,FALSE,j,f,NA,NA,NA,1,6,"15,13,2,10,14,12,6,4,5,1,7,8,3,11,9"
14967,commdev-image-keyboard-response,96,696435,practice,1206.4000000001397,img/practice3_right.png,NA,Number not found in mappings,NA,FALSE,f,j,NA,NA,NA,1,6,"15,13,2,10,14,12,6,4,5,1,7,8,3,11,9"
14967,commdev-image-keyboard-response,97,697689,practice,1.5,img/practice1_left.png,NA,Number not found in mappings,NA,TRUE,f,f,NA,NA,NA,1,6,"15,13,2,10,14,12,6,4,5,1,7,8,3,11,9"
14967,commdev-image-keyboard-response,98,698941,practice,550.3000000000466,img/practice3_right.png,NA,Number not found in mappings,NA,FALSE,f,j,NA,NA,NA,1,6,"15,13,2,10,14,12,6,4,5,1,7,8,3,11,9"
14967,commdev-image-keyboard-response,99,700194,practice,780.5999999998603,img/practice4_right.png,NA,Number not found in mappings,NA,TRUE,j,j,NA,NA,NA,1,6,"15,13,2,10,14,12,6,4,5,1,7,8,3,11,9"
14967,commdev-image-keyboard-response,100,701447,practice,558,img/practice1_right.png,NA,Number not found in mappings,NA,TRUE,j,j,NA,NA,NA,1,6,"15,13,2,10,14,12,6,4,5,1,7,8,3,11,9"
14967,commdev-image-keyboard-response,101,702700,practice,599.3999999999069,img/practice2_left.png,NA,Number not found in mappings,NA,TRUE,f,f,NA,NA,NA,1,6,"15,13,2,10,14,12,6,4,5,1,7,8,3,11,9"
14967,commdev-image-keyboard-response,102,703953,practice,429.30000000004657,img/practice4_left.png,NA,Number not found in mappings,NA,TRUE,f,f,NA,NA,NA,1,6,"15,13,2,10,14,12,6,4,5,1,7,8,3,11,9"
14967,commdev-instructions,103,754172,NA,40667.40000000014,"<p>Great job with the practice round.</p><p>During real missions, you won't know whether you pressed the right or wrong key for each planet.</p><p>But between missions, we will tell you how you did overall.</p>",NA,NA,NA,NA,NA,NA,NA,NA,NA,1,6,"15,13,2,10,14,12,6,4,5,1,7,8,3,11,9"
14967,commdev-instructions,104,763560,NA,1151.6000000000931,<p>Try your best! You will be paid a bonus based on how many correct responses you make!</p><p>Responses that are too slow will not count toward your bonus.</p>,NA,NA,NA,NA,NA,NA,NA,NA,NA,1,6,"15,13,2,10,14,12,6,4,5,1,7,8,3,11,9"
14967,commdev-instructions,105,770560,NA,801.3000000000466,"<p>You are almost ready to start the real game.</p><p> First, we are going to ask you some questions about how the game works.</p>",NA,NA,NA,NA,NA,NA,NA,NA,NA,1,6,"15,13,2,10,14,12,6,4,5,1,7,8,3,11,9"
14967,commdev-instructions,114,853899,NA,1654.5,"<p> Nice work! It is now time to start the real game.<p></p>You will go on two missions to record wind directions of different planets.<p></p>Each one will take about 5 minutes. You will get to take a break between missions.<p><p> Remember, press <strong>F</strong> or <strong>J</strong> depending on the wind direction. Good luck!<br><img src=""img/categorize_planet_example.png""",NA,NA,NA,NA,NA,NA,NA,NA,NA,1,6,"15,13,2,10,14,12,6,4,5,1,7,8,3,11,9"
14967,commdev-image-keyboard-response,116,857761,learnblock1,730.1999999999534,img/planet14_left.png,14,Community 1,NA,FALSE,j,f,NA,NA,NA,1,6,"15,13,2,10,14,12,6,4,5,1,7,8,3,11,9"
14967,commdev-image-keyboard-response,117,859013,learnblock1,700.1000000000931,img/planet15_right.png,15,Community 1,NA,FALSE,f,j,NA,NA,NA,1,6,"15,13,2,10,14,12,6,4,5,1,7,8,3,11,9"
14967,commdev-image-keyboard-response,118,860266,learnblock1,595,img/planet10_left.png,10,Community 1,NA,FALSE,j,f,NA,NA,NA,1,6,"15,13,2,10,14,12,6,4,5,1,7,8,3,11,9"
14967,commdev-image-keyboard-response,119,861517,learnblock1,650.5,img/planet13_left.png,13,Community 1,NA,FALSE,j,f,NA,NA,NA,1,6,"15,13,2,10,14,12,6,4,5,1,7,8,3,11,9"
14967,commdev-image-keyboard-response,120,862770,learnblock1,709,img/planet2_right.png,2,Community 1,NA,FALSE,f,j,NA,NA,NA,1,6,"15,13,2,10,14,12,6,4,5,1,7,8,3,11,9"
14967,commdev-image-keyboard-response,121,864022,learnblock1,691.5,img/planet10_right.png,10,Community 1,NA,FALSE,f,j,NA,NA,NA,1,6,"15,13,2,10,14,12,6,4,5,1,7,8,3,11,9"
14967,commdev-image-keyboard-response,122,865274,learnblock1,712,img/planet15_right.png,15,Community 1,NA,FALSE,f,j,NA,NA,NA,1,6,"15,13,2,10,14,12,6,4,5,1,7,8,3,11,9"
14967,commdev-image-keyboard-response,123,866526,learnblock1,593.1999999999534,img/planet2_left.png,2,Community 1,NA,FALSE,j,f,NA,NA,NA,1,6,"15,13,2,10,14,12,6,4,5,1,7,8,3,11,9"
14967,commdev-image-keyboard-response,124,867778,learnblock1,622.8000000000466,img/planet10_right.png,10,Community 1,NA,FALSE,f,j,NA,NA,NA,1,6,"15,13,2,10,14,12,6,4,5,1,7,8,3,11,9"
14967,commdev-image-keyboard-response,125,869031,learnblock1,599.6999999999534,img/planet2_right.png,2,Community 1,NA,FALSE,f,j,NA,NA,NA,1,6,"15,13,2,10,14,12,6,4,5,1,7,8,3,11,9"
14967,commdev-image-keyboard-response,126,870284,learnblock1,796.6000000000931,img/planet13_left.png,13,Community 1,NA,FALSE,j,f,NA,NA,NA,1,6,"15,13,2,10,14,12,6,4,5,1,7,8,3,11,9"
14967,commdev-image-keyboard-response,127,871536,learnblock1,548.1000000000931,img/planet14_right.png,14,Community 1,NA,FALSE,f,j,NA,NA,NA,1,6,"15,13,2,10,14,12,6,4,5,1,7,8,3,11,9"
14967,commdev-image-keyboard-response,128,872787,learnblock1,564.8999999999069,img/planet15_left.png,15,Community 1,NA,FALSE,j,f,NA,NA,NA,1,6,"15,13,2,10,14,12,6,4,5,1,7,8,3,11,9"
14967,commdev-image-keyboard-response,129,874039,learnblock1,526.6999999999534,img/planet13_left.png,13,Community 1,NA,FALSE,j,f,NA,NA,NA,1,6,"15,13,2,10,14,12,6,4,5,1,7,8,3,11,9"
14967,commdev-image-keyboard-response,130,875292,learnblock1,581.6999999999534,img/planet15_right.png,15,Community 1,NA,FALSE,f,j,NA,NA,NA,1,6,"15,13,2,10,14,12,6,4,5,1,7,8,3,11,9"
14967,commdev-image-keyboard-response,131,876545,learnblock1,724.9000000001397,img/planet14_right.png,14,Community 1,NA,FALSE,f,j,NA,NA,NA,1,6,"15,13,2,10,14,12,6,4,5,1,7,8,3,11,9"
14967,commdev-image-keyboard-response,132,877797,learnblock1,649.6999999999534,img/planet2_right.png,2,Community 1,NA,FALSE,f,j,NA,NA,NA,1,6,"15,13,2,10,14,12,6,4,5,1,7,8,3,11,9"
14967,commdev-image-keyboard-response,133,879050,learnblock1,477.80000000004657,img/planet14_left.png,14,Community 1,NA,TRUE,f,f,NA,NA,NA,1,6,"15,13,2,10,14,12,6,4,5,1,7,8,3,11,9"
14967,commdev-image-keyboard-response,134,880303,learnblock1,619,img/planet2_right.png,2,Community 1,NA,FALSE,f,j,NA,NA,NA,1,6,"15,13,2,10,14,12,6,4,5,1,7,8,3,11,9"
14967,commdev-image-keyboard-response,135,881555,learnblock1,713.6999999999534,img/planet15_right.png,15,Community 1,NA,FALSE,f,j,NA,NA,NA,1,6,"15,13,2,10,14,12,6,4,5,1,7,8,3,11,9"
14967,commdev-image-keyboard-response,136,882806,learnblock1,673.3000000000466,img/planet10_left.png,10,Community 1,NA,FALSE,j,f,NA,NA,NA,1,6,"15,13,2,10,14,12,6,4,5,1,7,8,3,11,9"
14967,commdev-image-keyboard-response,137,884059,learnblock1,607.7999999998137,img/planet15_right.png,15,Community 1,NA,FALSE,f,j,NA,NA,NA,1,6,"15,13,2,10,14,12,6,4,5,1,7,8,3,11,9"
14967,commdev-image-keyboard-response,138,885311,learnblock1,791.1000000000931,img/planet10_right.png,10,Community 1,NA,FALSE,f,j,NA,NA,NA,1,6,"15,13,2,10,14,12,6,4,5,1,7,8,3,11,9"
14967,commdev-image-keyboard-response,139,886563,learnblock1,727.9000000001397,img/planet12_right.png,12,Community 2,NA,FALSE,f,j,NA,NA,NA,1,6,"15,13,2,10,14,12,6,4,5,1,7,8,3,11,9"
14967,commdev-image-keyboard-response,140,887816,learnblock1,617.1000000000931,img/planet10_right.png,10,Community 1,NA,FALSE,f,j,NA,NA,NA,1,6,"15,13,2,10,14,12,6,4,5,1,7,8,3,11,9"
14967,commdev-image-keyboard-response,141,889068,learnblock1,532.8999999999069,img/planet13_right.png,13,Community 1,NA,FALSE,f,j,NA,NA,NA,1,6,"15,13,2,10,14,12,6,4,5,1,7,8,3,11,9"
14967,commdev-image-keyboard-response,142,890319,learnblock1,463.30000000004657,img/planet2_right.png,2,Community 1,NA,FALSE,f,j,NA,NA,NA,1,6,"15,13,2,10,14,12,6,4,5,1,7,8,3,11,9"
14967,commdev-image-keyboard-response,143,891572,learnblock1,554.2000000001863,img/planet13_left.png,13,Community 1,NA,FALSE,j,f,NA,NA,NA,1,6,"15,13,2,10,14,12,6,4,5,1,7,8,3,11,9"
14967,commdev-image-keyboard-response,144,892824,learnblock1,514,img/planet14_left.png,14,Community 1,NA,FALSE,j,f,NA,NA,NA,1,6,"15,13,2,10,14,12,6,4,5,1,7,8,3,11,9"
14967,commdev-image-keyboard-response,145,894075,learnblock1,561.5,img/planet7_left.png,7,Community 3,NA,FALSE,j,f,NA,NA,NA,1,6,"15,13,2,10,14,12,6,4,5,1,7,8,3,11,9"
14967,commdev-image-keyboard-response,146,895327,learnblock1,504.79999999981374,img/planet11_left.png,11,Community 3,NA,FALSE,j,f,NA,NA,NA,1,6,"15,13,2,10,14,12,6,4,5,1,7,8,3,11,9"
14967,commdev-image-keyboard-response,147,896579,learnblock1,591.3999999999069,img/planet9_right.png,9,Community 3,NA,FALSE,f,j,NA,NA,NA,1,6,"15,13,2,10,14,12,6,4,5,1,7,8,3,11,9"
14967,commdev-image-keyboard-response,148,897832,learnblock1,674.3000000000466,img/planet8_right.png,8,Community 3,NA,FALSE,f,j,NA,NA,NA,1,6,"15,13,2,10,14,12,6,4,5,1,7,8,3,11,9"
14967,commdev-image-keyboard-response,149,899084,learnblock1,513.3000000000466,img/planet9_left.png,9,Community 3,NA,FALSE,j,f,NA,NA,NA,1,6,"15,13,2,10,14,12,6,4,5,1,7,8,3,11,9"
14967,commdev-image-keyboard-response,150,900336,learnblock1,656.6000000000931,img/planet8_left.png,8,Community 3,NA,FALSE,j,f,NA,NA,NA,1,6,"15,13,2,10,14,12,6,4,5,1,7,8,3,11,9"
14967,commdev-image-keyboard-response,151,901588,learnblock1,504.10000000009313,img/planet4_right.png,4,Community 2,NA,FALSE,f,j,NA,NA,NA,1,6,"15,13,2,10,14,12,6,4,5,1,7,8,3,11,9"
14967,commdev-image-keyboard-response,152,902839,learnblock1,857.5,img/planet6_left.png,6,Community 2,NA,FALSE,j,f,NA,NA,NA,1,6,"15,13,2,10,14,12,6,4,5,1,7,8,3,11,9"
14967,commdev-image-keyboard-response,153,904091,learnblock1,822.6999999999534,img/planet1_left.png,1,Community 2,NA,FALSE,j,f,NA,NA,NA,1,6,"15,13,2,10,14,12,6,4,5,1,7,8,3,11,9"
14967,commdev-image-keyboard-response,154,905343,learnblock1,518.7999999998137,img/planet4_left.png,4,Community 2,NA,FALSE,j,f,NA,NA,NA,1,6,"15,13,2,10,14,12,6,4,5,1,7,8,3,11,9"
14967,commdev-image-keyboard-response,155,906595,learnblock1,600.1999999999534,img/planet5_left.png,5,Community 2,NA,FALSE,j,f,NA,NA,NA,1,6,"15,13,2,10,14,12,6,4,5,1,7,8,3,11,9"
14967,commdev-image-keyboard-response,156,907847,learnblock1,595.6999999999534,img/planet1_right.png,1,Community 2,NA,FALSE,f,j,NA,NA,NA,1,6,"15,13,2,10,14,12,6,4,5,1,7,8,3,11,9"
14967,commdev-image-keyboard-response,157,909100,learnblock1,618.6999999999534,img/planet4_left.png,4,Community 2,NA,FALSE,j,f,NA,NA,NA,1,6,"15,13,2,10,14,12,6,4,5,1,7,8,3,11,9"
14967,commdev-image-keyboard-response,158,910353,learnblock1,590.0999999998603,img/planet8_left.png,8,Community 3,NA,FALSE,j,f,NA,NA,NA,1,6,"15,13,2,10,14,12,6,4,5,1,7,8,3,11,9"
14967,commdev-image-keyboard-response,159,911605,learnblock1,662.8999999999069,img/planet9_left.png,9,Community 3,NA,FALSE,j,f,NA,NA,NA,1,6,"15,13,2,10,14,12,6,4,5,1,7,8,3,11,9"
14967,commdev-image-keyboard-response,160,912858,learnblock1,655.8000000000466,img/planet7_left.png,7,Community 3,NA,FALSE,j,f,NA,NA,NA,1,6,"15,13,2,10,14,12,6,4,5,1,7,8,3,11,9"
14967,commdev-image-keyboard-response,161,914110,learnblock1,638.5,img/planet3_right.png,3,Community 3,NA,FALSE,f,j,NA,NA,NA,1,6,"15,13,2,10,14,12,6,4,5,1,7,8,3,11,9"
14967,commdev-image-keyboard-response,162,915362,learnblock1,597.5,img/planet9_left.png,9,Community 3,NA,FALSE,j,f,NA,NA,NA,1,6,"15,13,2,10,14,12,6,4,5,1,7,8,3,11,9"
14967,commdev-image-keyboard-response,163,916614,learnblock1,700.5,img/planet11_right.png,11,Community 3,NA,FALSE,f,j,NA,NA,NA,1,6,"15,13,2,10,14,12,6,4,5,1,7,8,3,11,9"
14967,commdev-image-keyboard-response,164,917866,learnblock1,744.8000000000466,img/planet7_right.png,7,Community 3,NA,TRUE,j,j,NA,NA,NA,1,6,"15,13,2,10,14,12,6,4,5,1,7,8,3,11,9"
14967,commdev-image-keyboard-response,165,919119,learnblock1,828.3000000000466,img/planet9_left.png,9,Community 3,NA,FALSE,j,f,NA,NA,NA,1,6,"15,13,2,10,14,12,6,4,5,1,7,8,3,11,9"
14967,commdev-image-keyboard-response,166,920371,learnblock1,671.5,img/planet7_right.png,7,Community 3,NA,FALSE,f,j,NA,NA,NA,1,6,"15,13,2,10,14,12,6,4,5,1,7,8,3,11,9"
14967,commdev-image-keyboard-response,167,921624,learnblock1,618.3000000000466,img/planet14_right.png,14,Community 1,NA,FALSE,f,j,NA,NA,NA,1,6,"15,13,2,10,14,12,6,4,5,1,7,8,3,11,9"
14967,commdev-image-keyboard-response,168,922877,learnblock1,620.1999999999534,img/planet7_left.png,7,Community 3,NA,FALSE,j,f,NA,NA,NA,1,6,"15,13,2,10,14,12,6,4,5,1,7,8,3,11,9"
14967,commdev-image-keyboard-response,169,924129,learnblock1,688,img/planet11_right.png,11,Community 3,NA,FALSE,f,j,NA,NA,NA,1,6,"15,13,2,10,14,12,6,4,5,1,7,8,3,11,9"
14967,commdev-image-keyboard-response,170,925382,learnblock1,850.6999999999534,img/planet7_right.png,7,Community 3,NA,FALSE,f,j,NA,NA,NA,1,6,"15,13,2,10,14,12,6,4,5,1,7,8,3,11,9"
14967,commdev-image-keyboard-response,171,926634,learnblock1,703.8999999999069,img/planet14_right.png,14,Community 1,NA,FALSE,f,j,NA,NA,NA,1,6,"15,13,2,10,14,12,6,4,5,1,7,8,3,11,9"
14967,commdev-image-keyboard-response,172,927886,learnblock1,547,img/planet2_right.png,2,Community 1,NA,FALSE,f,j,NA,NA,NA,1,6,"15,13,2,10,14,12,6,4,5,1,7,8,3,11,9"
14967,commdev-image-keyboard-response,173,929139,learnblock1,564.6000000000931,img/planet14_left.png,14,Community 1,NA,FALSE,j,f,NA,NA,NA,1,6,"15,13,2,10,14,12,6,4,5,1,7,8,3,11,9"
14967,commdev-image-keyboard-response,174,930391,learnblock1,482.30000000004657,img/planet2_left.png,2,Community 1,NA,FALSE,j,f,NA,NA,NA,1,6,"15,13,2,10,14,12,6,4,5,1,7,8,3,11,9"
14967,commdev-image-keyboard-response,175,931644,learnblock1,452.39999999990687,img/planet14_left.png,14,Community 1,NA,FALSE,j,f,NA,NA,NA,1,6,"15,13,2,10,14,12,6,4,5,1,7,8,3,11,9"
14967,commdev-image-keyboard-response,176,932896,learnblock1,440.4000000001397,img/planet13_left.png,13,Community 1,NA,FALSE,j,f,NA,NA,NA,1,6,"15,13,2,10,14,12,6,4,5,1,7,8,3,11,9"
14967,commdev-image-keyboard-response,177,934149,learnblock1,525.3000000000466,img/planet14_left.png,14,Community 1,NA,FALSE,j,f,NA,NA,NA,1,6,"15,13,2,10,14,12,6,4,5,1,7,8,3,11,9"
14967,commdev-image-keyboard-response,178,935402,learnblock1,544.0999999998603,img/planet15_left.png,15,Community 1,NA,FALSE,j,f,NA,NA,NA,1,6,"15,13,2,10,14,12,6,4,5,1,7,8,3,11,9"
14967,commdev-image-keyboard-response,179,936654,learnblock1,580.8000000000466,img/planet14_right.png,14,Community 1,NA,FALSE,f,j,NA,NA,NA,1,6,"15,13,2,10,14,12,6,4,5,1,7,8,3,11,9"
14967,commdev-image-keyboard-response,180,937907,learnblock1,585.1999999999534,img/planet13_right.png,13,Community 1,NA,FALSE,f,j,NA,NA,NA,1,6,"15,13,2,10,14,12,6,4,5,1,7,8,3,11,9"
14967,commdev-image-keyboard-response,181,939159,learnblock1,587.2999999998137,img/planet2_right.png,2,Community 1,NA,FALSE,f,j,NA,NA,NA,1,6,"15,13,2,10,14,12,6,4,5,1,7,8,3,11,9"
14967,commdev-image-keyboard-response,182,940412,learnblock1,646.1999999999534,img/planet14_left.png,14,Community 1,NA,FALSE,j,f,NA,NA,NA,1,6,"15,13,2,10,14,12,6,4,5,1,7,8,3,11,9"
14967,commdev-image-keyboard-response,183,941664,learnblock1,566.1999999999534,img/planet15_left.png,15,Community 1,NA,FALSE,j,f,NA,NA,NA,1,6,"15,13,2,10,14,12,6,4,5,1,7,8,3,11,9"
14967,commdev-image-keyboard-response,184,942917,learnblock1,412.9000000001397,img/planet13_right.png,13,Community 1,NA,TRUE,j,j,NA,NA,NA,1,6,"15,13,2,10,14,12,6,4,5,1,7,8,3,11,9"
14967,commdev-image-keyboard-response,185,944169,learnblock1,602.6999999999534,img/planet14_left.png,14,Community 1,NA,FALSE,j,f,NA,NA,NA,1,6,"15,13,2,10,14,12,6,4,5,1,7,8,3,11,9"
14967,commdev-image-keyboard-response,186,945422,learnblock1,612.8000000000466,img/planet7_right.png,7,Community 3,NA,FALSE,f,j,NA,NA,NA,1,6,"15,13,2,10,14,12,6,4,5,1,7,8,3,11,9"
14967,commdev-image-keyboard-response,187,946674,learnblock1,614.6000000000931,img/planet11_left.png,11,Community 3,NA,FALSE,j,f,NA,NA,NA,1,6,"15,13,2,10,14,12,6,4,5,1,7,8,3,11,9"
14967,commdev-image-keyboard-response,188,947927,learnblock1,540.3999999999069,img/planet8_right.png,8,Community 3,NA,FALSE,f,j,NA,NA,NA,1,6,"15,13,2,10,14,12,6,4,5,1,7,8,3,11,9"
14967,commdev-image-keyboard-response,189,949179,learnblock1,451.79999999981374,img/planet9_left.png,9,Community 3,NA,FALSE,j,f,NA,NA,NA,1,6,"15,13,2,10,14,12,6,4,5,1,7,8,3,11,9"
14967,commdev-image-keyboard-response,190,950432,learnblock1,496.10000000009313,img/planet7_right.png,7,Community 3,NA,FALSE,f,j,NA,NA,NA,1,6,"15,13,2,10,14,12,6,4,5,1,7,8,3,11,9"
14967,commdev-image-keyboard-response,191,951685,learnblock1,756.1999999999534,img/planet3_right.png,3,Community 3,NA,FALSE,f,j,NA,NA,NA,1,6,"15,13,2,10,14,12,6,4,5,1,7,8,3,11,9"
14967,commdev-image-keyboard-response,192,952937,learnblock1,685.6999999999534,img/planet8_right.png,8,Community 3,NA,FALSE,f,j,NA,NA,NA,1,6,"15,13,2,10,14,12,6,4,5,1,7,8,3,11,9"
14967,commdev-image-keyboard-response,193,954189,learnblock1,580.7999999998137,img/planet3_left.png,3,Community 3,NA,FALSE,j,f,NA,NA,NA,1,6,"15,13,2,10,14,12,6,4,5,1,7,8,3,11,9"
14967,commdev-image-keyboard-response,194,955441,learnblock1,745.1000000000931,img/planet11_left.png,11,Community 3,NA,TRUE,f,f,NA,NA,NA,1,6,"15,13,2,10,14,12,6,4,5,1,7,8,3,11,9"
14967,commdev-image-keyboard-response,195,956694,learnblock1,1104.2000000001863,img/planet9_left.png,9,Community 3,NA,FALSE,j,f,NA,NA,NA,1,6,"15,13,2,10,14,12,6,4,5,1,7,8,3,11,9"
14967,commdev-image-keyboard-response,196,957946,learnblock1,520,img/planet11_left.png,11,Community 3,NA,FALSE,j,f,NA,NA,NA,1,6,"15,13,2,10,14,12,6,4,5,1,7,8,3,11,9"
14967,commdev-image-keyboard-response,197,959199,learnblock1,503.5,img/planet8_left.png,8,Community 3,NA,FALSE,j,f,NA,NA,NA,1,6,"15,13,2,10,14,12,6,4,5,1,7,8,3,11,9"
14967,commdev-image-keyboard-response,198,960451,learnblock1,402.69999999995343,img/planet3_left.png,3,Community 3,NA,FALSE,j,f,NA,NA,NA,1,6,"15,13,2,10,14,12,6,4,5,1,7,8,3,11,9"
14967,commdev-image-keyboard-response,199,961704,learnblock1,341.89999999990687,img/planet9_right.png,9,Community 3,NA,TRUE,j,j,NA,NA,NA,1,6,"15,13,2,10,14,12,6,4,5,1,7,8,3,11,9"
14967,commdev-image-keyboard-response,200,962956,learnblock1,893.9000000001397,img/planet7_right.png,7,Community 3,NA,FALSE,f,j,NA,NA,NA,1,6,"15,13,2,10,14,12,6,4,5,1,7,8,3,11,9"
14967,commdev-image-keyboard-response,201,964209,learnblock1,604.5,img/planet9_right.png,9,Community 3,NA,FALSE,f,j,NA,NA,NA,1,6,"15,13,2,10,14,12,6,4,5,1,7,8,3,11,9"
14967,commdev-image-keyboard-response,202,965461,learnblock1,547.2000000001863,img/planet8_left.png,8,Community 3,NA,FALSE,j,f,NA,NA,NA,1,6,"15,13,2,10,14,12,6,4,5,1,7,8,3,11,9"
14967,commdev-image-keyboard-response,203,966714,learnblock1,639.3999999999069,img/planet3_left.png,3,Community 3,NA,FALSE,j,f,NA,NA,NA,1,6,"15,13,2,10,14,12,6,4,5,1,7,8,3,11,9"
14967,commdev-image-keyboard-response,204,967966,learnblock1,645.3000000000466,img/planet8_right.png,8,Community 3,NA,FALSE,f,j,NA,NA,NA,1,6,"15,13,2,10,14,12,6,4,5,1,7,8,3,11,9"
14967,commdev-image-keyboard-response,205,969218,learnblock1,606.8999999999069,img/planet11_left.png,11,Community 3,NA,FALSE,j,f,NA,NA,NA,1,6,"15,13,2,10,14,12,6,4,5,1,7,8,3,11,9"
14967,commdev-image-keyboard-response,206,970471,learnblock1,649.4000000001397,img/planet8_left.png,8,Community 3,NA,FALSE,j,f,NA,NA,NA,1,6,"15,13,2,10,14,12,6,4,5,1,7,8,3,11,9"
14967,commdev-image-keyboard-response,207,971724,learnblock1,608.6999999999534,img/planet9_right.png,9,Community 3,NA,FALSE,f,j,NA,NA,NA,1,6,"15,13,2,10,14,12,6,4,5,1,7,8,3,11,9"
14967,commdev-image-keyboard-response,208,972976,learnblock1,659.0999999998603,img/planet11_left.png,11,Community 3,NA,FALSE,j,f,NA,NA,NA,1,6,"15,13,2,10,14,12,6,4,5,1,7,8,3,11,9"
14967,commdev-image-keyboard-response,209,974228,learnblock1,759.1000000000931,img/planet7_right.png,7,Community 3,NA,FALSE,f,j,NA,NA,NA,1,6,"15,13,2,10,14,12,6,4,5,1,7,8,3,11,9"
14967,commdev-image-keyboard-response,210,975480,learnblock1,532,img/planet9_left.png,9,Community 3,NA,FALSE,j,f,NA,NA,NA,1,6,"15,13,2,10,14,12,6,4,5,1,7,8,3,11,9"
14967,commdev-image-keyboard-response,211,976733,learnblock1,520.2000000001863,img/planet8_right.png,8,Community 3,NA,FALSE,f,j,NA,NA,NA,1,6,"15,13,2,10,14,12,6,4,5,1,7,8,3,11,9"
14967,commdev-image-keyboard-response,212,977985,learnblock1,478.30000000004657,img/planet4_left.png,4,Community 2,NA,FALSE,j,f,NA,NA,NA,1,6,"15,13,2,10,14,12,6,4,5,1,7,8,3,11,9"
14967,commdev-image-keyboard-response,213,979237,learnblock1,613.5,img/planet5_right.png,5,Community 2,NA,FALSE,f,j,NA,NA,NA,1,6,"15,13,2,10,14,12,6,4,5,1,7,8,3,11,9"
14967,commdev-image-keyboard-response,214,980489,learnblock1,591.5999999998603,img/planet12_right.png,12,Community 2,NA,FALSE,f,j,NA,NA,NA,1,6,"15,13,2,10,14,12,6,4,5,1,7,8,3,11,9"
14967,commdev-image-keyboard-response,215,981741,learnblock1,572.8999999999069,img/planet10_left.png,10,Community 1,NA,FALSE,j,f,NA,NA,NA,1,6,"15,13,2,10,14,12,6,4,5,1,7,8,3,11,9"
14967,commdev-image-keyboard-response,216,982994,learnblock1,581.9000000001397,img/planet15_right.png,15,Community 1,NA,FALSE,f,j,NA,NA,NA,1,6,"15,13,2,10,14,12,6,4,5,1,7,8,3,11,9"
14967,commdev-image-keyboard-response,217,984246,learnblock1,664.3999999999069,img/planet2_right.png,2,Community 1,NA,FALSE,f,j,NA,NA,NA,1,6,"15,13,2,10,14,12,6,4,5,1,7,8,3,11,9"
14967,commdev-image-keyboard-response,218,985498,learnblock1,642.6999999999534,img/planet14_right.png,14,Community 1,NA,FALSE,f,j,NA,NA,NA,1,6,"15,13,2,10,14,12,6,4,5,1,7,8,3,11,9"
14967,commdev-image-keyboard-response,219,986751,learnblock1,611.0999999998603,img/planet15_right.png,15,Community 1,NA,FALSE,f,j,NA,NA,NA,1,6,"15,13,2,10,14,12,6,4,5,1,7,8,3,11,9"
14967,commdev-image-keyboard-response,220,988003,learnblock1,661.5,img/planet2_right.png,2,Community 1,NA,FALSE,f,j,NA,NA,NA,1,6,"15,13,2,10,14,12,6,4,5,1,7,8,3,11,9"
14967,commdev-image-keyboard-response,221,989255,learnblock1,879.1999999999534,img/planet15_right.png,15,Community 1,NA,TRUE,j,j,NA,NA,NA,1,6,"15,13,2,10,14,12,6,4,5,1,7,8,3,11,9"
14967,commdev-image-keyboard-response,222,990508,learnblock1,758.0999999998603,img/planet2_left.png,2,Community 1,NA,TRUE,f,f,NA,NA,NA,1,6,"15,13,2,10,14,12,6,4,5,1,7,8,3,11,9"
14967,commdev-image-keyboard-response,223,991760,learnblock1,904.6000000000931,img/planet14_right.png,14,Community 1,NA,TRUE,j,j,NA,NA,NA,1,6,"15,13,2,10,14,12,6,4,5,1,7,8,3,11,9"
14967,commdev-image-keyboard-response,224,993013,learnblock1,850.0999999998603,img/planet2_right.png,2,Community 1,NA,TRUE,j,j,NA,NA,NA,1,6,"15,13,2,10,14,12,6,4,5,1,7,8,3,11,9"
14967,commdev-image-keyboard-response,225,994266,learnblock1,1028.5,img/planet14_right.png,14,Community 1,NA,FALSE,f,j,NA,NA,NA,1,6,"15,13,2,10,14,12,6,4,5,1,7,8,3,11,9"
14967,commdev-image-keyboard-response,226,995518,learnblock1,738.8999999999069,img/planet7_right.png,7,Community 3,NA,TRUE,j,j,NA,NA,NA,1,6,"15,13,2,10,14,12,6,4,5,1,7,8,3,11,9"
14967,commdev-image-keyboard-response,227,996770,learnblock1,798.8999999999069,img/planet11_left.png,11,Community 3,NA,FALSE,j,f,NA,NA,NA,1,6,"15,13,2,10,14,12,6,4,5,1,7,8,3,11,9"
14967,commdev-image-keyboard-response,228,998023,learnblock1,688.3000000000466,img/planet7_right.png,7,Community 3,NA,FALSE,f,j,NA,NA,NA,1,6,"15,13,2,10,14,12,6,4,5,1,7,8,3,11,9"
14967,commdev-image-keyboard-response,229,999275,learnblock1,780.3000000000466,img/planet3_right.png,3,Community 3,NA,TRUE,j,j,NA,NA,NA,1,6,"15,13,2,10,14,12,6,4,5,1,7,8,3,11,9"
14967,commdev-image-keyboard-response,230,1000527,learnblock1,896.2999999998137,img/planet8_left.png,8,Community 3,NA,TRUE,f,f,NA,NA,NA,1,6,"15,13,2,10,14,12,6,4,5,1,7,8,3,11,9"
14967,commdev-image-keyboard-response,231,1001779,learnblock1,1210.1999999999534,img/planet9_right.png,9,Community 3,NA,FALSE,f,j,NA,NA,NA,1,6,"15,13,2,10,14,12,6,4,5,1,7,8,3,11,9"
14967,commdev-image-keyboard-response,232,1003031,learnblock1,551.1999999999534,img/planet8_left.png,8,Community 3,NA,TRUE,f,f,NA,NA,NA,1,6,"15,13,2,10,14,12,6,4,5,1,7,8,3,11,9"
14967,commdev-image-keyboard-response,233,1004284,learnblock1,539.6000000000931,img/planet11_left.png,11,Community 3,NA,TRUE,f,f,NA,NA,NA,1,6,"15,13,2,10,14,12,6,4,5,1,7,8,3,11,9"
14967,commdev-image-keyboard-response,234,1005536,learnblock1,575.0999999998603,img/planet8_left.png,8,Community 3,NA,TRUE,f,f,NA,NA,NA,1,6,"15,13,2,10,14,12,6,4,5,1,7,8,3,11,9"
14967,commdev-image-keyboard-response,235,1006789,learnblock1,487.80000000004657,img/planet11_left.png,11,Community 3,NA,TRUE,f,f,NA,NA,NA,1,6,"15,13,2,10,14,12,6,4,5,1,7,8,3,11,9"
14967,commdev-image-keyboard-response,236,1008041,learnblock1,604.5,img/planet7_right.png,7,Community 3,NA,TRUE,j,j,NA,NA,NA,1,6,"15,13,2,10,14,12,6,4,5,1,7,8,3,11,9"
14967,commdev-image-keyboard-response,237,1009293,learnblock1,494.29999999981374,img/planet14_left.png,14,Community 1,NA,TRUE,f,f,NA,NA,NA,1,6,"15,13,2,10,14,12,6,4,5,1,7,8,3,11,9"
14967,commdev-image-keyboard-response,238,1010546,learnblock1,289.10000000009313,img/planet2_right.png,2,Community 1,NA,FALSE,f,j,NA,NA,NA,1,6,"15,13,2,10,14,12,6,4,5,1,7,8,3,11,9"
14967,commdev-image-keyboard-response,239,1011798,learnblock1,577.3000000000466,img/planet10_right.png,10,Community 1,NA,TRUE,j,j,NA,NA,NA,1,6,"15,13,2,10,14,12,6,4,5,1,7,8,3,11,9"
14967,commdev-image-keyboard-response,240,1013050,learnblock1,521.1999999999534,img/planet13_left.png,13,Community 1,NA,TRUE,f,f,NA,NA,NA,1,6,"15,13,2,10,14,12,6,4,5,1,7,8,3,11,9"
14967,commdev-image-keyboard-response,241,1014303,learnblock1,665.8000000000466,img/planet15_left.png,15,Community 1,NA,TRUE,f,f,NA,NA,NA,1,6,"15,13,2,10,14,12,6,4,5,1,7,8,3,11,9"
14967,commdev-image-keyboard-response,242,1015555,learnblock1,628.5,img/planet10_right.png,10,Community 1,NA,TRUE,j,j,NA,NA,NA,1,6,"15,13,2,10,14,12,6,4,5,1,7,8,3,11,9"
14967,commdev-image-keyboard-response,243,1016808,learnblock1,602.6000000000931,img/planet2_right.png,2,Community 1,NA,TRUE,j,j,NA,NA,NA,1,6,"15,13,2,10,14,12,6,4,5,1,7,8,3,11,9"
14967,commdev-image-keyboard-response,244,1018060,learnblock1,427.39999999990687,img/planet13_left.png,13,Community 1,NA,TRUE,f,f,NA,NA,NA,1,6,"15,13,2,10,14,12,6,4,5,1,7,8,3,11,9"
14967,commdev-image-keyboard-response,245,1019312,learnblock1,544.8000000000466,img/planet10_right.png,10,Community 1,NA,TRUE,j,j,NA,NA,NA,1,6,"15,13,2,10,14,12,6,4,5,1,7,8,3,11,9"
14967,commdev-image-keyboard-response,246,1020565,learnblock1,567.1000000000931,img/planet13_right.png,13,Community 1,NA,TRUE,j,j,NA,NA,NA,1,6,"15,13,2,10,14,12,6,4,5,1,7,8,3,11,9"
14967,commdev-image-keyboard-response,247,1021817,learnblock1,456.60000000009313,img/planet15_left.png,15,Community 1,NA,FALSE,j,f,NA,NA,NA,1,6,"15,13,2,10,14,12,6,4,5,1,7,8,3,11,9"
14967,commdev-image-keyboard-response,248,1023070,learnblock1,465.89999999990687,img/planet10_left.png,10,Community 1,NA,TRUE,f,f,NA,NA,NA,1,6,"15,13,2,10,14,12,6,4,5,1,7,8,3,11,9"
14967,commdev-image-keyboard-response,249,1024322,learnblock1,520.8000000000466,img/planet15_right.png,15,Community 1,NA,TRUE,j,j,NA,NA,NA,1,6,"15,13,2,10,14,12,6,4,5,1,7,8,3,11,9"
14967,commdev-image-keyboard-response,250,1025575,learnblock1,592,img/planet14_right.png,14,Community 1,NA,TRUE,j,j,NA,NA,NA,1,6,"15,13,2,10,14,12,6,4,5,1,7,8,3,11,9"
14967,commdev-image-keyboard-response,251,1026827,learnblock1,757.1000000000931,img/planet13_right.png,13,Community 1,NA,TRUE,j,j,NA,NA,NA,1,6,"15,13,2,10,14,12,6,4,5,1,7,8,3,11,9"
14967,commdev-image-keyboard-response,252,1028080,learnblock1,666.8000000000466,img/planet2_left.png,2,Community 1,NA,TRUE,f,f,NA,NA,NA,1,6,"15,13,2,10,14,12,6,4,5,1,7,8,3,11,9"
14967,commdev-image-keyboard-response,253,1029332,learnblock1,516.6000000000931,img/planet13_left.png,13,Community 1,NA,TRUE,f,f,NA,NA,NA,1,6,"15,13,2,10,14,12,6,4,5,1,7,8,3,11,9"
14967,commdev-image-keyboard-response,254,1030584,learnblock1,534.8000000000466,img/planet14_right.png,14,Community 1,NA,TRUE,j,j,NA,NA,NA,1,6,"15,13,2,10,14,12,6,4,5,1,7,8,3,11,9"
14967,commdev-image-keyboard-response,255,1031837,learnblock1,577.3000000000466,img/planet2_right.png,2,Community 1,NA,TRUE,j,j,NA,NA,NA,1,6,"15,13,2,10,14,12,6,4,5,1,7,8,3,11,9"
14967,commdev-image-keyboard-response,256,1033090,learnblock1,973.7000000001863,img/planet10_right.png,10,Community 1,NA,TRUE,j,j,NA,NA,NA,1,6,"15,13,2,10,14,12,6,4,5,1,7,8,3,11,9"
14967,commdev-image-keyboard-response,257,1034342,learnblock1,633.6999999999534,img/planet15_left.png,15,Community 1,NA,TRUE,f,f,NA,NA,NA,1,6,"15,13,2,10,14,12,6,4,5,1,7,8,3,11,9"
14967,commdev-image-keyboard-response,258,1035595,learnblock1,599,img/planet10_left.png,10,Community 1,NA,TRUE,f,f,NA,NA,NA,1,6,"15,13,2,10,14,12,6,4,5,1,7,8,3,11,9"
14967,commdev-image-keyboard-response,259,1036847,learnblock1,554.9000000001397,img/planet12_left.png,12,Community 2,NA,TRUE,f,f,NA,NA,NA,1,6,"15,13,2,10,14,12,6,4,5,1,7,8,3,11,9"
14967,commdev-image-keyboard-response,260,1038099,learnblock1,463.19999999995343,img/planet5_right.png,5,Community 2,NA,FALSE,f,j,NA,NA,NA,1,6,"15,13,2,10,14,12,6,4,5,1,7,8,3,11,9"
14967,commdev-image-keyboard-response,261,1039351,learnblock1,704.5,img/planet12_right.png,12,Community 2,NA,TRUE,j,j,NA,NA,NA,1,6,"15,13,2,10,14,12,6,4,5,1,7,8,3,11,9"
14967,commdev-image-keyboard-response,262,1040603,learnblock1,593.8999999999069,img/planet1_left.png,1,Community 2,NA,TRUE,f,f,NA,NA,NA,1,6,"15,13,2,10,14,12,6,4,5,1,7,8,3,11,9"
14967,commdev-image-keyboard-response,263,1041856,learnblock1,588.1999999999534,img/planet5_left.png,5,Community 2,NA,TRUE,f,f,NA,NA,NA,1,6,"15,13,2,10,14,12,6,4,5,1,7,8,3,11,9"
14967,commdev-image-keyboard-response,264,1043108,learnblock1,673.3000000000466,img/planet1_right.png,1,Community 2,NA,TRUE,j,j,NA,NA,NA,1,6,"15,13,2,10,14,12,6,4,5,1,7,8,3,11,9"
14967,commdev-image-keyboard-response,265,1044360,learnblock1,537.7000000001863,img/planet5_left.png,5,Community 2,NA,TRUE,f,f,NA,NA,NA,1,6,"15,13,2,10,14,12,6,4,5,1,7,8,3,11,9"
14967,commdev-image-keyboard-response,266,1045613,learnblock1,878.1999999999534,img/planet6_left.png,6,Community 2,NA,TRUE,f,f,NA,NA,NA,1,6,"15,13,2,10,14,12,6,4,5,1,7,8,3,11,9"
14967,commdev-image-keyboard-response,267,1046865,learnblock1,844.1999999999534,img/planet1_left.png,1,Community 2,NA,TRUE,f,f,NA,NA,NA,1,6,"15,13,2,10,14,12,6,4,5,1,7,8,3,11,9"
14967,commdev-image-keyboard-response,268,1048118,learnblock1,903.7000000001863,img/planet6_left.png,6,Community 2,NA,TRUE,f,f,NA,NA,NA,1,6,"15,13,2,10,14,12,6,4,5,1,7,8,3,11,9"
14967,commdev-image-keyboard-response,269,1049371,learnblock1,513.7000000001863,img/planet5_right.png,5,Community 2,NA,TRUE,j,j,NA,NA,NA,1,6,"15,13,2,10,14,12,6,4,5,1,7,8,3,11,9"
14967,commdev-image-keyboard-response,270,1050622,learnblock1,931.6000000000931,img/planet6_right.png,6,Community 2,NA,TRUE,j,j,NA,NA,NA,1,6,"15,13,2,10,14,12,6,4,5,1,7,8,3,11,9"
14967,commdev-image-keyboard-response,271,1051875,learnblock1,552.4000000001397,img/planet5_right.png,5,Community 2,NA,TRUE,j,j,NA,NA,NA,1,6,"15,13,2,10,14,12,6,4,5,1,7,8,3,11,9"
14967,commdev-image-keyboard-response,272,1053127,learnblock1,453.69999999995343,img/planet12_left.png,12,Community 2,NA,FALSE,j,f,NA,NA,NA,1,6,"15,13,2,10,14,12,6,4,5,1,7,8,3,11,9"
14967,commdev-image-keyboard-response,273,1054380,learnblock1,647.1999999999534,img/planet5_right.png,5,Community 2,NA,TRUE,j,j,NA,NA,NA,1,6,"15,13,2,10,14,12,6,4,5,1,7,8,3,11,9"
14967,commdev-image-keyboard-response,274,1055632,learnblock1,541.5,img/planet1_right.png,1,Community 2,NA,TRUE,j,j,NA,NA,NA,1,6,"15,13,2,10,14,12,6,4,5,1,7,8,3,11,9"
14967,commdev-image-keyboard-response,275,1056884,learnblock1,513.5,img/planet5_right.png,5,Community 2,NA,TRUE,j,j,NA,NA,NA,1,6,"15,13,2,10,14,12,6,4,5,1,7,8,3,11,9"
14967,commdev-image-keyboard-response,276,1058137,learnblock1,552,img/planet6_left.png,6,Community 2,NA,TRUE,f,f,NA,NA,NA,1,6,"15,13,2,10,14,12,6,4,5,1,7,8,3,11,9"
14967,commdev-image-keyboard-response,277,1059389,learnblock1,521.1000000000931,img/planet5_right.png,5,Community 2,NA,TRUE,j,j,NA,NA,NA,1,6,"15,13,2,10,14,12,6,4,5,1,7,8,3,11,9"
14967,commdev-image-keyboard-response,278,1060642,learnblock1,503.5,img/planet1_left.png,1,Community 2,NA,TRUE,f,f,NA,NA,NA,1,6,"15,13,2,10,14,12,6,4,5,1,7,8,3,11,9"
14967,commdev-image-keyboard-response,279,1061895,learnblock1,832.1000000000931,img/planet6_right.png,6,Community 2,NA,TRUE,j,j,NA,NA,NA,1,6,"15,13,2,10,14,12,6,4,5,1,7,8,3,11,9"
14967,commdev-image-keyboard-response,280,1063147,learnblock1,631.1999999999534,img/planet4_right.png,4,Community 2,NA,TRUE,j,j,NA,NA,NA,1,6,"15,13,2,10,14,12,6,4,5,1,7,8,3,11,9"
14967,commdev-image-keyboard-response,281,1064400,learnblock1,640.5,img/planet5_right.png,5,Community 2,NA,TRUE,j,j,NA,NA,NA,1,6,"15,13,2,10,14,12,6,4,5,1,7,8,3,11,9"
14967,commdev-image-keyboard-response,282,1065652,learnblock1,620.3000000000466,img/planet12_right.png,12,Community 2,NA,TRUE,j,j,NA,NA,NA,1,6,"15,13,2,10,14,12,6,4,5,1,7,8,3,11,9"
14967,commdev-image-keyboard-response,283,1066905,learnblock1,466.5,img/planet5_left.png,5,Community 2,NA,TRUE,f,f,NA,NA,NA,1,6,"15,13,2,10,14,12,6,4,5,1,7,8,3,11,9"
14967,commdev-image-keyboard-response,284,1068157,learnblock1,610.9000000001397,img/planet4_right.png,4,Community 2,NA,TRUE,j,j,NA,NA,NA,1,6,"15,13,2,10,14,12,6,4,5,1,7,8,3,11,9"
14967,commdev-image-keyboard-response,285,1069410,learnblock1,548.8999999999069,img/planet6_left.png,6,Community 2,NA,TRUE,f,f,NA,NA,NA,1,6,"15,13,2,10,14,12,6,4,5,1,7,8,3,11,9"
14967,commdev-image-keyboard-response,286,1070662,learnblock1,503.10000000009313,img/planet12_right.png,12,Community 2,NA,TRUE,j,j,NA,NA,NA,1,6,"15,13,2,10,14,12,6,4,5,1,7,8,3,11,9"
14967,commdev-image-keyboard-response,287,1071915,learnblock1,490.5,img/planet10_left.png,10,Community 1,NA,TRUE,f,f,NA,NA,NA,1,6,"15,13,2,10,14,12,6,4,5,1,7,8,3,11,9"
14967,commdev-image-keyboard-response,288,1073167,learnblock1,477.70000000018626,img/planet2_right.png,2,Community 1,NA,TRUE,j,j,NA,NA,NA,1,6,"15,13,2,10,14,12,6,4,5,1,7,8,3,11,9"
14967,commdev-image-keyboard-response,289,1074419,learnblock1,475.60000000009313,img/planet13_left.png,13,Community 1,NA,TRUE,f,f,NA,NA,NA,1,6,"15,13,2,10,14,12,6,4,5,1,7,8,3,11,9"
14967,commdev-image-keyboard-response,290,1075671,learnblock1,584.3000000000466,img/planet2_left.png,2,Community 1,NA,TRUE,f,f,NA,NA,NA,1,6,"15,13,2,10,14,12,6,4,5,1,7,8,3,11,9"
14967,commdev-image-keyboard-response,291,1076924,learnblock1,535.4000000001397,img/planet10_right.png,10,Community 1,NA,TRUE,j,j,NA,NA,NA,1,6,"15,13,2,10,14,12,6,4,5,1,7,8,3,11,9"
14967,commdev-image-keyboard-response,292,1078176,learnblock1,502,img/planet2_left.png,2,Community 1,NA,TRUE,f,f,NA,NA,NA,1,6,"15,13,2,10,14,12,6,4,5,1,7,8,3,11,9"
14967,commdev-image-keyboard-response,293,1079429,learnblock1,598.3000000000466,img/planet13_right.png,13,Community 1,NA,TRUE,j,j,NA,NA,NA,1,6,"15,13,2,10,14,12,6,4,5,1,7,8,3,11,9"
14967,commdev-image-keyboard-response,294,1080681,learnblock1,703.4000000001397,img/planet15_right.png,15,Community 1,NA,TRUE,j,j,NA,NA,NA,1,6,"15,13,2,10,14,12,6,4,5,1,7,8,3,11,9"
14967,commdev-image-keyboard-response,295,1081933,learnblock1,626.8000000000466,img/planet2_right.png,2,Community 1,NA,TRUE,j,j,NA,NA,NA,1,6,"15,13,2,10,14,12,6,4,5,1,7,8,3,11,9"
14967,commdev-image-keyboard-response,296,1083186,learnblock1,474.4000000001397,img/planet14_right.png,14,Community 1,NA,TRUE,j,j,NA,NA,NA,1,6,"15,13,2,10,14,12,6,4,5,1,7,8,3,11,9"
14967,commdev-image-keyboard-response,297,1084438,learnblock1,481.89999999990687,img/planet7_left.png,7,Community 3,NA,TRUE,f,f,NA,NA,NA,1,6,"15,13,2,10,14,12,6,4,5,1,7,8,3,11,9"
14967,commdev-image-keyboard-response,298,1085690,learnblock1,415.19999999995343,img/planet14_left.png,14,Community 1,NA,TRUE,f,f,NA,NA,NA,1,6,"15,13,2,10,14,12,6,4,5,1,7,8,3,11,9"
14967,commdev-image-keyboard-response,299,1086942,learnblock1,392.5999999998603,img/planet15_right.png,15,Community 1,NA,FALSE,f,j,NA,NA,NA,1,6,"15,13,2,10,14,12,6,4,5,1,7,8,3,11,9"
14967,commdev-image-keyboard-response,300,1088195,learnblock1,499.80000000004657,img/planet10_left.png,10,Community 1,NA,TRUE,f,f,NA,NA,NA,1,6,"15,13,2,10,14,12,6,4,5,1,7,8,3,11,9"
14967,commdev-image-keyboard-response,301,1089448,learnblock1,813.3999999999069,img/planet12_left.png,12,Community 2,NA,FALSE,j,f,NA,NA,NA,1,6,"15,13,2,10,14,12,6,4,5,1,7,8,3,11,9"
14967,commdev-image-keyboard-response,302,1090700,learnblock1,502.60000000009313,img/planet10_right.png,10,Community 1,NA,TRUE,j,j,NA,NA,NA,1,6,"15,13,2,10,14,12,6,4,5,1,7,8,3,11,9"
14967,commdev-image-keyboard-response,303,1091953,learnblock1,551,img/planet13_right.png,13,Community 1,NA,TRUE,j,j,NA,NA,NA,1,6,"15,13,2,10,14,12,6,4,5,1,7,8,3,11,9"
14967,commdev-image-keyboard-response,304,1093205,learnblock1,563,img/planet10_right.png,10,Community 1,NA,TRUE,j,j,NA,NA,NA,1,6,"15,13,2,10,14,12,6,4,5,1,7,8,3,11,9"
14967,commdev-image-keyboard-response,305,1094458,learnblock1,537.8999999999069,img/planet13_left.png,13,Community 1,NA,TRUE,f,f,NA,NA,NA,1,6,"15,13,2,10,14,12,6,4,5,1,7,8,3,11,9"
14967,commdev-image-keyboard-response,306,1095710,learnblock1,600.5,img/planet10_right.png,10,Community 1,NA,TRUE,j,j,NA,NA,NA,1,6,"15,13,2,10,14,12,6,4,5,1,7,8,3,11,9"
14967,commdev-image-keyboard-response,307,1096962,learnblock1,395.0999999998603,img/planet13_right.png,13,Community 1,NA,FALSE,f,j,NA,NA,NA,1,6,"15,13,2,10,14,12,6,4,5,1,7,8,3,11,9"
14967,commdev-image-keyboard-response,308,1098215,learnblock1,529.0999999998603,img/planet2_left.png,2,Community 1,NA,TRUE,f,f,NA,NA,NA,1,6,"15,13,2,10,14,12,6,4,5,1,7,8,3,11,9"
14967,commdev-image-keyboard-response,309,1099467,learnblock1,672,img/planet13_left.png,13,Community 1,NA,TRUE,f,f,NA,NA,NA,1,6,"15,13,2,10,14,12,6,4,5,1,7,8,3,11,9"
14967,commdev-image-keyboard-response,310,1100720,learnblock1,585.5,img/planet10_left.png,10,Community 1,NA,TRUE,f,f,NA,NA,NA,1,6,"15,13,2,10,14,12,6,4,5,1,7,8,3,11,9"
14967,commdev-image-keyboard-response,311,1101972,learnblock1,447.4000000001397,img/planet15_right.png,15,Community 1,NA,FALSE,f,j,NA,NA,NA,1,6,"15,13,2,10,14,12,6,4,5,1,7,8,3,11,9"
14967,commdev-image-keyboard-response,312,1103224,learnblock1,604.3000000000466,img/planet13_right.png,13,Community 1,NA,TRUE,j,j,NA,NA,NA,1,6,"15,13,2,10,14,12,6,4,5,1,7,8,3,11,9"
14967,commdev-image-keyboard-response,313,1104477,learnblock1,388.5,img/planet2_right.png,2,Community 1,NA,TRUE,j,j,NA,NA,NA,1,6,"15,13,2,10,14,12,6,4,5,1,7,8,3,11,9"
14967,commdev-image-keyboard-response,314,1105729,learnblock1,510.5999999998603,img/planet13_left.png,13,Community 1,NA,TRUE,f,f,NA,NA,NA,1,6,"15,13,2,10,14,12,6,4,5,1,7,8,3,11,9"
14967,commdev-image-keyboard-response,315,1106982,learnblock1,571.5,img/planet14_left.png,14,Community 1,NA,TRUE,f,f,NA,NA,NA,1,6,"15,13,2,10,14,12,6,4,5,1,7,8,3,11,9"
14967,commdev-image-keyboard-response,316,1108234,learnblock1,616.1999999999534,img/planet7_left.png,7,Community 3,NA,TRUE,f,f,NA,NA,NA,1,6,"15,13,2,10,14,12,6,4,5,1,7,8,3,11,9"
14967,commdev-image-keyboard-response,317,1109487,learnblock1,584.8000000000466,img/planet11_left.png,11,Community 3,NA,TRUE,f,f,NA,NA,NA,1,6,"15,13,2,10,14,12,6,4,5,1,7,8,3,11,9"
14967,commdev-image-keyboard-response,318,1110739,learnblock1,681.0999999998603,img/planet8_left.png,8,Community 3,NA,TRUE,f,f,NA,NA,NA,1,6,"15,13,2,10,14,12,6,4,5,1,7,8,3,11,9"
14967,commdev-image-keyboard-response,319,1111991,learnblock1,548.5,img/planet11_left.png,11,Community 3,NA,TRUE,f,f,NA,NA,NA,1,6,"15,13,2,10,14,12,6,4,5,1,7,8,3,11,9"
14967,commdev-image-keyboard-response,320,1113244,learnblock1,511.5,img/planet9_left.png,9,Community 3,NA,TRUE,f,f,NA,NA,NA,1,6,"15,13,2,10,14,12,6,4,5,1,7,8,3,11,9"
14967,commdev-image-keyboard-response,321,1114496,learnblock1,581.9000000001397,img/planet3_right.png,3,Community 3,NA,TRUE,j,j,NA,NA,NA,1,6,"15,13,2,10,14,12,6,4,5,1,7,8,3,11,9"
14967,commdev-image-keyboard-response,322,1115749,learnblock1,630.1000000000931,img/planet7_right.png,7,Community 3,NA,TRUE,j,j,NA,NA,NA,1,6,"15,13,2,10,14,12,6,4,5,1,7,8,3,11,9"
14967,commdev-image-keyboard-response,323,1117001,learnblock1,676.1999999999534,img/planet9_left.png,9,Community 3,NA,TRUE,f,f,NA,NA,NA,1,6,"15,13,2,10,14,12,6,4,5,1,7,8,3,11,9"
14967,commdev-image-keyboard-response,324,1118253,learnblock1,770.1999999999534,img/planet11_right.png,11,Community 3,NA,TRUE,j,j,NA,NA,NA,1,6,"15,13,2,10,14,12,6,4,5,1,7,8,3,11,9"
14967,commdev-image-keyboard-response,325,1119506,learnblock1,591.6999999999534,img/planet8_right.png,8,Community 3,NA,TRUE,j,j,NA,NA,NA,1,6,"15,13,2,10,14,12,6,4,5,1,7,8,3,11,9"
14967,commdev-image-keyboard-response,326,1120758,learnblock1,596.0999999998603,img/planet3_right.png,3,Community 3,NA,TRUE,j,j,NA,NA,NA,1,6,"15,13,2,10,14,12,6,4,5,1,7,8,3,11,9"
14967,commdev-image-keyboard-response,327,1122010,learnblock1,512.9000000001397,img/planet8_left.png,8,Community 3,NA,FALSE,j,f,NA,NA,NA,1,6,"15,13,2,10,14,12,6,4,5,1,7,8,3,11,9"
14967,commdev-image-keyboard-response,328,1123262,learnblock1,460.29999999981374,img/planet3_left.png,3,Community 3,NA,TRUE,f,f,NA,NA,NA,1,6,"15,13,2,10,14,12,6,4,5,1,7,8,3,11,9"
14967,commdev-image-keyboard-response,329,1124515,learnblock1,549,img/planet11_right.png,11,Community 3,NA,TRUE,j,j,NA,NA,NA,1,6,"15,13,2,10,14,12,6,4,5,1,7,8,3,11,9"
14967,commdev-image-keyboard-response,330,1125766,learnblock1,550.3000000000466,img/planet9_right.png,9,Community 3,NA,TRUE,j,j,NA,NA,NA,1,6,"15,13,2,10,14,12,6,4,5,1,7,8,3,11,9"
14967,commdev-image-keyboard-response,331,1127018,learnblock1,460.9000000001397,img/planet11_left.png,11,Community 3,NA,TRUE,f,f,NA,NA,NA,1,6,"15,13,2,10,14,12,6,4,5,1,7,8,3,11,9"
14967,commdev-image-keyboard-response,332,1128273,learnblock1,494.30000000004657,img/planet7_right.png,7,Community 3,NA,TRUE,j,j,NA,NA,NA,1,6,"15,13,2,10,14,12,6,4,5,1,7,8,3,11,9"
14967,commdev-image-keyboard-response,333,1129524,learnblock1,632.7999999998137,img/planet11_right.png,11,Community 3,NA,TRUE,j,j,NA,NA,NA,1,6,"15,13,2,10,14,12,6,4,5,1,7,8,3,11,9"
14967,commdev-image-keyboard-response,334,1130777,learnblock1,618.4000000001397,img/planet8_left.png,8,Community 3,NA,TRUE,f,f,NA,NA,NA,1,6,"15,13,2,10,14,12,6,4,5,1,7,8,3,11,9"
14967,commdev-image-keyboard-response,335,1132029,learnblock1,534.6999999999534,img/planet9_right.png,9,Community 3,NA,TRUE,j,j,NA,NA,NA,1,6,"15,13,2,10,14,12,6,4,5,1,7,8,3,11,9"
14967,commdev-image-keyboard-response,336,1133282,learnblock1,437.19999999995343,img/planet11_left.png,11,Community 3,NA,TRUE,f,f,NA,NA,NA,1,6,"15,13,2,10,14,12,6,4,5,1,7,8,3,11,9"
14967,commdev-image-keyboard-response,337,1134535,learnblock1,680.7000000001863,img/planet7_left.png,7,Community 3,NA,FALSE,j,f,NA,NA,NA,1,6,"15,13,2,10,14,12,6,4,5,1,7,8,3,11,9"
14967,commdev-image-keyboard-response,338,1135787,learnblock1,650.8999999999069,img/planet3_right.png,3,Community 3,NA,TRUE,j,j,NA,NA,NA,1,6,"15,13,2,10,14,12,6,4,5,1,7,8,3,11,9"
14967,commdev-image-keyboard-response,339,1137040,learnblock1,453.89999999990687,img/planet9_left.png,9,Community 3,NA,TRUE,f,f,NA,NA,NA,1,6,"15,13,2,10,14,12,6,4,5,1,7,8,3,11,9"
14967,commdev-image-keyboard-response,340,1138292,learnblock1,536.8999999999069,img/planet8_right.png,8,Community 3,NA,TRUE,j,j,NA,NA,NA,1,6,"15,13,2,10,14,12,6,4,5,1,7,8,3,11,9"
14967,commdev-image-keyboard-response,341,1139544,learnblock1,441,img/planet11_left.png,11,Community 3,NA,TRUE,f,f,NA,NA,NA,1,6,"15,13,2,10,14,12,6,4,5,1,7,8,3,11,9"
14967,commdev-image-keyboard-response,342,1140797,learnblock1,506.5,img/planet3_right.png,3,Community 3,NA,TRUE,j,j,NA,NA,NA,1,6,"15,13,2,10,14,12,6,4,5,1,7,8,3,11,9"
14967,commdev-image-keyboard-response,343,1142049,learnblock1,449.9000000001397,img/planet8_left.png,8,Community 3,NA,FALSE,j,f,NA,NA,NA,1,6,"15,13,2,10,14,12,6,4,5,1,7,8,3,11,9"
14967,commdev-image-keyboard-response,344,1143301,learnblock1,601.2999999998137,img/planet4_right.png,4,Community 2,NA,TRUE,j,j,NA,NA,NA,1,6,"15,13,2,10,14,12,6,4,5,1,7,8,3,11,9"
14967,commdev-image-keyboard-response,345,1144554,learnblock1,612,img/planet6_right.png,6,Community 2,NA,TRUE,j,j,NA,NA,NA,1,6,"15,13,2,10,14,12,6,4,5,1,7,8,3,11,9"
14967,commdev-image-keyboard-response,346,1145806,learnblock1,543.5,img/planet12_right.png,12,Community 2,NA,TRUE,j,j,NA,NA,NA,1,6,"15,13,2,10,14,12,6,4,5,1,7,8,3,11,9"
14967,commdev-image-keyboard-response,347,1147058,learnblock1,544.1999999999534,img/planet10_right.png,10,Community 1,NA,TRUE,j,j,NA,NA,NA,1,6,"15,13,2,10,14,12,6,4,5,1,7,8,3,11,9"
14967,commdev-image-keyboard-response,348,1148311,learnblock1,449.30000000004657,img/planet12_left.png,12,Community 2,NA,TRUE,f,f,NA,NA,NA,1,6,"15,13,2,10,14,12,6,4,5,1,7,8,3,11,9"
14967,commdev-image-keyboard-response,349,1149564,learnblock1,436.5,img/planet10_left.png,10,Community 1,NA,TRUE,f,f,NA,NA,NA,1,6,"15,13,2,10,14,12,6,4,5,1,7,8,3,11,9"
14967,commdev-image-keyboard-response,350,1150816,learnblock1,489.30000000004657,img/planet15_right.png,15,Community 1,NA,TRUE,j,j,NA,NA,NA,1,6,"15,13,2,10,14,12,6,4,5,1,7,8,3,11,9"
14967,commdev-image-keyboard-response,351,1152069,learnblock1,559.1999999999534,img/planet14_right.png,14,Community 1,NA,TRUE,j,j,NA,NA,NA,1,6,"15,13,2,10,14,12,6,4,5,1,7,8,3,11,9"
14967,commdev-image-keyboard-response,352,1153321,learnblock1,680.1999999999534,img/planet13_right.png,13,Community 1,NA,TRUE,j,j,NA,NA,NA,1,6,"15,13,2,10,14,12,6,4,5,1,7,8,3,11,9"
14967,commdev-image-keyboard-response,353,1154574,learnblock1,458.89999999990687,img/planet14_left.png,14,Community 1,NA,TRUE,f,f,NA,NA,NA,1,6,"15,13,2,10,14,12,6,4,5,1,7,8,3,11,9"
14967,commdev-image-keyboard-response,354,1155826,learnblock1,570.2999999998137,img/planet7_right.png,7,Community 3,NA,TRUE,j,j,NA,NA,NA,1,6,"15,13,2,10,14,12,6,4,5,1,7,8,3,11,9"
14967,commdev-image-keyboard-response,355,1157079,learnblock1,757.1999999999534,img/planet9_right.png,9,Community 3,NA,TRUE,j,j,NA,NA,NA,1,6,"15,13,2,10,14,12,6,4,5,1,7,8,3,11,9"
14967,commdev-image-keyboard-response,356,1158331,learnblock1,631.3999999999069,img/planet7_right.png,7,Community 3,NA,TRUE,j,j,NA,NA,NA,1,6,"15,13,2,10,14,12,6,4,5,1,7,8,3,11,9"
14967,commdev-image-keyboard-response,357,1159583,learnblock1,555.2000000001863,img/planet14_right.png,14,Community 1,NA,TRUE,j,j,NA,NA,NA,1,6,"15,13,2,10,14,12,6,4,5,1,7,8,3,11,9"
14967,commdev-image-keyboard-response,358,1160835,learnblock1,492.30000000004657,img/planet2_right.png,2,Community 1,NA,TRUE,j,j,NA,NA,NA,1,6,"15,13,2,10,14,12,6,4,5,1,7,8,3,11,9"
14967,commdev-image-keyboard-response,359,1162088,learnblock1,453.29999999981374,img/planet13_left.png,13,Community 1,NA,FALSE,j,f,NA,NA,NA,1,6,"15,13,2,10,14,12,6,4,5,1,7,8,3,11,9"
14967,commdev-image-keyboard-response,360,1163340,learnblock1,522.6000000000931,img/planet2_right.png,2,Community 1,NA,TRUE,j,j,NA,NA,NA,1,6,"15,13,2,10,14,12,6,4,5,1,7,8,3,11,9"
14967,commdev-image-keyboard-response,361,1164593,learnblock1,531.2000000001863,img/planet10_left.png,10,Community 1,NA,TRUE,f,f,NA,NA,NA,1,6,"15,13,2,10,14,12,6,4,5,1,7,8,3,11,9"
14967,commdev-image-keyboard-response,362,1165845,learnblock1,559.6999999999534,img/planet2_right.png,2,Community 1,NA,TRUE,j,j,NA,NA,NA,1,6,"15,13,2,10,14,12,6,4,5,1,7,8,3,11,9"
14967,commdev-image-keyboard-response,363,1167098,learnblock1,573,img/planet15_right.png,15,Community 1,NA,TRUE,j,j,NA,NA,NA,1,6,"15,13,2,10,14,12,6,4,5,1,7,8,3,11,9"
14967,commdev-image-keyboard-response,364,1168350,learnblock1,487.5,img/planet13_left.png,13,Community 1,NA,TRUE,f,f,NA,NA,NA,1,6,"15,13,2,10,14,12,6,4,5,1,7,8,3,11,9"
14967,commdev-image-keyboard-response,365,1169603,learnblock1,530,img/planet10_right.png,10,Community 1,NA,TRUE,j,j,NA,NA,NA,1,6,"15,13,2,10,14,12,6,4,5,1,7,8,3,11,9"
14967,commdev-image-keyboard-response,366,1170855,learnblock1,504.20000000018626,img/planet12_right.png,12,Community 2,NA,TRUE,j,j,NA,NA,NA,1,6,"15,13,2,10,14,12,6,4,5,1,7,8,3,11,9"
14967,commdev-image-keyboard-response,367,1172107,learnblock1,656.5,img/planet10_right.png,10,Community 1,NA,TRUE,j,j,NA,NA,NA,1,6,"15,13,2,10,14,12,6,4,5,1,7,8,3,11,9"
14967,commdev-image-keyboard-response,368,1173360,learnblock1,654.1999999999534,img/planet12_left.png,12,Community 2,NA,TRUE,f,f,NA,NA,NA,1,6,"15,13,2,10,14,12,6,4,5,1,7,8,3,11,9"
14967,commdev-image-keyboard-response,369,1174613,learnblock1,532.6000000000931,img/planet1_left.png,1,Community 2,NA,TRUE,f,f,NA,NA,NA,1,6,"15,13,2,10,14,12,6,4,5,1,7,8,3,11,9"
14967,commdev-image-keyboard-response,370,1175865,learnblock1,480.39999999990687,img/planet12_right.png,12,Community 2,NA,TRUE,j,j,NA,NA,NA,1,6,"15,13,2,10,14,12,6,4,5,1,7,8,3,11,9"
14967,commdev-image-keyboard-response,371,1177118,learnblock1,565.3999999999069,img/planet1_right.png,1,Community 2,NA,TRUE,j,j,NA,NA,NA,1,6,"15,13,2,10,14,12,6,4,5,1,7,8,3,11,9"
14967,commdev-image-keyboard-response,372,1178370,learnblock1,628.9000000001397,img/planet6_right.png,6,Community 2,NA,TRUE,j,j,NA,NA,NA,1,6,"15,13,2,10,14,12,6,4,5,1,7,8,3,11,9"
14967,commdev-image-keyboard-response,373,1179623,learnblock1,600.1000000000931,img/planet4_left.png,4,Community 2,NA,TRUE,f,f,NA,NA,NA,1,6,"15,13,2,10,14,12,6,4,5,1,7,8,3,11,9"
14967,commdev-image-keyboard-response,374,1180875,learnblock1,736.6999999999534,img/planet5_right.png,5,Community 2,NA,TRUE,j,j,NA,NA,NA,1,6,"15,13,2,10,14,12,6,4,5,1,7,8,3,11,9"
14967,commdev-image-keyboard-response,375,1182128,learnblock1,550.5999999998603,img/planet6_left.png,6,Community 2,NA,TRUE,f,f,NA,NA,NA,1,6,"15,13,2,10,14,12,6,4,5,1,7,8,3,11,9"
14967,commdev-image-keyboard-response,376,1183380,learnblock1,558.6000000000931,img/planet1_left.png,1,Community 2,NA,TRUE,f,f,NA,NA,NA,1,6,"15,13,2,10,14,12,6,4,5,1,7,8,3,11,9"
14967,commdev-image-keyboard-response,377,1184633,learnblock1,543.6999999999534,img/planet5_left.png,5,Community 2,NA,TRUE,f,f,NA,NA,NA,1,6,"15,13,2,10,14,12,6,4,5,1,7,8,3,11,9"
14967,commdev-image-keyboard-response,378,1185885,learnblock1,883.6999999999534,img/planet6_left.png,6,Community 2,NA,FALSE,j,f,NA,NA,NA,1,6,"15,13,2,10,14,12,6,4,5,1,7,8,3,11,9"
14967,commdev-image-keyboard-response,379,1187137,learnblock1,914.5999999998603,img/planet4_right.png,4,Community 2,NA,TRUE,j,j,NA,NA,NA,1,6,"15,13,2,10,14,12,6,4,5,1,7,8,3,11,9"
14967,commdev-image-keyboard-response,380,1188390,learnblock1,607.3000000000466,img/planet1_right.png,1,Community 2,NA,TRUE,j,j,NA,NA,NA,1,6,"15,13,2,10,14,12,6,4,5,1,7,8,3,11,9"
14967,commdev-image-keyboard-response,381,1189642,learnblock1,685.9000000001397,img/planet4_left.png,4,Community 2,NA,TRUE,f,f,NA,NA,NA,1,6,"15,13,2,10,14,12,6,4,5,1,7,8,3,11,9"
14967,commdev-image-keyboard-response,382,1190895,learnblock1,519.6999999999534,img/planet5_left.png,5,Community 2,NA,TRUE,f,f,NA,NA,NA,1,6,"15,13,2,10,14,12,6,4,5,1,7,8,3,11,9"
14967,commdev-image-keyboard-response,383,1192148,learnblock1,505.5,img/planet12_left.png,12,Community 2,NA,TRUE,f,f,NA,NA,NA,1,6,"15,13,2,10,14,12,6,4,5,1,7,8,3,11,9"
14967,commdev-image-keyboard-response,384,1193400,learnblock1,489.10000000009313,img/planet1_left.png,1,Community 2,NA,FALSE,j,f,NA,NA,NA,1,6,"15,13,2,10,14,12,6,4,5,1,7,8,3,11,9"
14967,commdev-image-keyboard-response,385,1194653,learnblock1,617.6999999999534,img/planet5_right.png,5,Community 2,NA,TRUE,j,j,NA,NA,NA,1,6,"15,13,2,10,14,12,6,4,5,1,7,8,3,11,9"
14967,commdev-image-keyboard-response,386,1195905,learnblock1,526.6999999999534,img/planet1_right.png,1,Community 2,NA,TRUE,j,j,NA,NA,NA,1,6,"15,13,2,10,14,12,6,4,5,1,7,8,3,11,9"
14967,commdev-image-keyboard-response,387,1197157,learnblock1,582.3000000000466,img/planet4_right.png,4,Community 2,NA,TRUE,j,j,NA,NA,NA,1,6,"15,13,2,10,14,12,6,4,5,1,7,8,3,11,9"
14967,commdev-image-keyboard-response,388,1198410,learnblock1,635.6000000000931,img/planet1_left.png,1,Community 2,NA,TRUE,f,f,NA,NA,NA,1,6,"15,13,2,10,14,12,6,4,5,1,7,8,3,11,9"
14967,commdev-image-keyboard-response,389,1199662,learnblock1,717.8999999999069,img/planet5_right.png,5,Community 2,NA,TRUE,j,j,NA,NA,NA,1,6,"15,13,2,10,14,12,6,4,5,1,7,8,3,11,9"
14967,commdev-image-keyboard-response,390,1200915,learnblock1,639.5999999998603,img/planet1_right.png,1,Community 2,NA,TRUE,j,j,NA,NA,NA,1,6,"15,13,2,10,14,12,6,4,5,1,7,8,3,11,9"
14967,commdev-image-keyboard-response,391,1202167,learnblock1,674.2000000001863,img/planet4_right.png,4,Community 2,NA,TRUE,j,j,NA,NA,NA,1,6,"15,13,2,10,14,12,6,4,5,1,7,8,3,11,9"
14967,commdev-image-keyboard-response,392,1203420,learnblock1,587.7999999998137,img/planet6_right.png,6,Community 2,NA,TRUE,j,j,NA,NA,NA,1,6,"15,13,2,10,14,12,6,4,5,1,7,8,3,11,9"
14967,commdev-image-keyboard-response,393,1204672,learnblock1,477.80000000004657,img/planet5_right.png,5,Community 2,NA,TRUE,j,j,NA,NA,NA,1,6,"15,13,2,10,14,12,6,4,5,1,7,8,3,11,9"
14967,commdev-image-keyboard-response,394,1205925,learnblock1,503.39999999990687,img/planet4_right.png,4,Community 2,NA,TRUE,j,j,NA,NA,NA,1,6,"15,13,2,10,14,12,6,4,5,1,7,8,3,11,9"
14967,commdev-image-keyboard-response,395,1207177,learnblock1,505.69999999995343,img/planet1_right.png,1,Community 2,NA,TRUE,j,j,NA,NA,NA,1,6,"15,13,2,10,14,12,6,4,5,1,7,8,3,11,9"
14967,commdev-image-keyboard-response,396,1208430,learnblock1,462.80000000004657,img/planet12_right.png,12,Community 2,NA,TRUE,j,j,NA,NA,NA,1,6,"15,13,2,10,14,12,6,4,5,1,7,8,3,11,9"
14967,commdev-image-keyboard-response,397,1209682,learnblock1,363.69999999995343,img/planet10_left.png,10,Community 1,NA,TRUE,f,f,NA,NA,NA,1,6,"15,13,2,10,14,12,6,4,5,1,7,8,3,11,9"
14967,commdev-image-keyboard-response,398,1210935,learnblock1,549.1999999999534,img/planet12_left.png,12,Community 2,NA,TRUE,f,f,NA,NA,NA,1,6,"15,13,2,10,14,12,6,4,5,1,7,8,3,11,9"
14967,commdev-image-keyboard-response,399,1212188,learnblock1,572.4000000001397,img/planet6_right.png,6,Community 2,NA,TRUE,j,j,NA,NA,NA,1,6,"15,13,2,10,14,12,6,4,5,1,7,8,3,11,9"
14967,commdev-image-keyboard-response,400,1213440,learnblock1,536.1999999999534,img/planet12_right.png,12,Community 2,NA,TRUE,j,j,NA,NA,NA,1,6,"15,13,2,10,14,12,6,4,5,1,7,8,3,11,9"
14967,commdev-image-keyboard-response,401,1214693,learnblock1,498.89999999990687,img/planet10_left.png,10,Community 1,NA,TRUE,f,f,NA,NA,NA,1,6,"15,13,2,10,14,12,6,4,5,1,7,8,3,11,9"
14967,commdev-image-keyboard-response,402,1215945,learnblock1,470,img/planet12_right.png,12,Community 2,NA,TRUE,j,j,NA,NA,NA,1,6,"15,13,2,10,14,12,6,4,5,1,7,8,3,11,9"
14967,commdev-image-keyboard-response,403,1217198,learnblock1,519.6999999999534,img/planet1_right.png,1,Community 2,NA,TRUE,j,j,NA,NA,NA,1,6,"15,13,2,10,14,12,6,4,5,1,7,8,3,11,9"
14967,commdev-image-keyboard-response,404,1218450,learnblock1,528.8000000000466,img/planet4_left.png,4,Community 2,NA,TRUE,f,f,NA,NA,NA,1,6,"15,13,2,10,14,12,6,4,5,1,7,8,3,11,9"
14967,commdev-image-keyboard-response,405,1219702,learnblock1,542.6000000000931,img/planet5_right.png,5,Community 2,NA,TRUE,j,j,NA,NA,NA,1,6,"15,13,2,10,14,12,6,4,5,1,7,8,3,11,9"
14967,commdev-image-keyboard-response,406,1220955,learnblock1,518.8999999999069,img/planet6_right.png,6,Community 2,NA,TRUE,j,j,NA,NA,NA,1,6,"15,13,2,10,14,12,6,4,5,1,7,8,3,11,9"
14967,commdev-image-keyboard-response,407,1222207,learnblock1,568.6999999999534,img/planet5_right.png,5,Community 2,NA,TRUE,j,j,NA,NA,NA,1,6,"15,13,2,10,14,12,6,4,5,1,7,8,3,11,9"
14967,commdev-image-keyboard-response,408,1223460,learnblock1,638,img/planet6_right.png,6,Community 2,NA,TRUE,j,j,NA,NA,NA,1,6,"15,13,2,10,14,12,6,4,5,1,7,8,3,11,9"
14967,commdev-image-keyboard-response,409,1224713,learnblock1,448.69999999995343,img/planet5_right.png,5,Community 2,NA,TRUE,j,j,NA,NA,NA,1,6,"15,13,2,10,14,12,6,4,5,1,7,8,3,11,9"
14967,commdev-image-keyboard-response,410,1225965,learnblock1,541.6999999999534,img/planet4_right.png,4,Community 2,NA,TRUE,j,j,NA,NA,NA,1,6,"15,13,2,10,14,12,6,4,5,1,7,8,3,11,9"
14967,commdev-image-keyboard-response,411,1227218,learnblock1,467.9000000001397,img/planet8_left.png,8,Community 3,NA,TRUE,f,f,NA,NA,NA,1,6,"15,13,2,10,14,12,6,4,5,1,7,8,3,11,9"
14967,commdev-image-keyboard-response,412,1228470,learnblock1,596.5,img/planet3_left.png,3,Community 3,NA,TRUE,f,f,NA,NA,NA,1,6,"15,13,2,10,14,12,6,4,5,1,7,8,3,11,9"
14967,commdev-image-keyboard-response,413,1229723,learnblock1,469.69999999995343,img/planet7_right.png,7,Community 3,NA,FALSE,f,j,NA,NA,NA,1,6,"15,13,2,10,14,12,6,4,5,1,7,8,3,11,9"
14967,commdev-image-keyboard-response,414,1230975,learnblock1,582.5,img/planet14_right.png,14,Community 1,NA,TRUE,j,j,NA,NA,NA,1,6,"15,13,2,10,14,12,6,4,5,1,7,8,3,11,9"
14967,commdev-image-keyboard-response,415,1232227,learnblock1,711.5,img/planet15_right.png,15,Community 1,NA,TRUE,j,j,NA,NA,NA,1,6,"15,13,2,10,14,12,6,4,5,1,7,8,3,11,9"
14967,commdev-image-keyboard-response,419,1299443,learnblock2,570.3999999999069,img/planet1_right.png,1,Community 2,NA,TRUE,j,j,NA,NA,NA,1,6,"15,13,2,10,14,12,6,4,5,1,7,8,3,11,9"
14967,commdev-image-keyboard-response,420,1300696,learnblock2,551.5,img/planet4_left.png,4,Community 2,NA,TRUE,f,f,NA,NA,NA,1,6,"15,13,2,10,14,12,6,4,5,1,7,8,3,11,9"
14967,commdev-image-keyboard-response,421,1301949,learnblock2,411.5999999998603,img/planet1_left.png,1,Community 2,NA,TRUE,f,f,NA,NA,NA,1,6,"15,13,2,10,14,12,6,4,5,1,7,8,3,11,9"
14967,commdev-image-keyboard-response,422,1303201,learnblock2,488.5,img/planet4_left.png,4,Community 2,NA,TRUE,f,f,NA,NA,NA,1,6,"15,13,2,10,14,12,6,4,5,1,7,8,3,11,9"
14967,commdev-image-keyboard-response,423,1304454,learnblock2,483.89999999990687,img/planet5_left.png,5,Community 2,NA,TRUE,f,f,NA,NA,NA,1,6,"15,13,2,10,14,12,6,4,5,1,7,8,3,11,9"
14967,commdev-image-keyboard-response,424,1305706,learnblock2,473.80000000004657,img/planet4_left.png,4,Community 2,NA,TRUE,f,f,NA,NA,NA,1,6,"15,13,2,10,14,12,6,4,5,1,7,8,3,11,9"
14967,commdev-image-keyboard-response,425,1306959,learnblock2,414.4000000001397,img/planet5_left.png,5,Community 2,NA,TRUE,f,f,NA,NA,NA,1,6,"15,13,2,10,14,12,6,4,5,1,7,8,3,11,9"
14967,commdev-image-keyboard-response,426,1308211,learnblock2,520.1999999999534,img/planet12_left.png,12,Community 2,NA,TRUE,f,f,NA,NA,NA,1,6,"15,13,2,10,14,12,6,4,5,1,7,8,3,11,9"
14967,commdev-image-keyboard-response,427,1309464,learnblock2,441.80000000004657,img/planet5_left.png,5,Community 2,NA,TRUE,f,f,NA,NA,NA,1,6,"15,13,2,10,14,12,6,4,5,1,7,8,3,11,9"
14967,commdev-image-keyboard-response,428,1310717,learnblock2,389.9000000001397,img/planet4_left.png,4,Community 2,NA,TRUE,f,f,NA,NA,NA,1,6,"15,13,2,10,14,12,6,4,5,1,7,8,3,11,9"
14967,commdev-image-keyboard-response,429,1311969,learnblock2,528,img/planet6_right.png,6,Community 2,NA,TRUE,j,j,NA,NA,NA,1,6,"15,13,2,10,14,12,6,4,5,1,7,8,3,11,9"
14967,commdev-image-keyboard-response,430,1313222,learnblock2,476.79999999981374,img/planet4_left.png,4,Community 2,NA,TRUE,f,f,NA,NA,NA,1,6,"15,13,2,10,14,12,6,4,5,1,7,8,3,11,9"
14967,commdev-image-keyboard-response,431,1314474,learnblock2,500.20000000018626,img/planet8_left.png,8,Community 3,NA,TRUE,f,f,NA,NA,NA,1,6,"15,13,2,10,14,12,6,4,5,1,7,8,3,11,9"
14967,commdev-image-keyboard-response,432,1315727,learnblock2,461.0999999998603,img/planet9_right.png,9,Community 3,NA,TRUE,j,j,NA,NA,NA,1,6,"15,13,2,10,14,12,6,4,5,1,7,8,3,11,9"
14967,commdev-image-keyboard-response,433,1316979,learnblock2,670.9000000001397,img/planet7_right.png,7,Community 3,NA,FALSE,f,j,NA,NA,NA,1,6,"15,13,2,10,14,12,6,4,5,1,7,8,3,11,9"
14967,commdev-image-keyboard-response,434,1318232,learnblock2,650.8999999999069,img/planet11_right.png,11,Community 3,NA,TRUE,j,j,NA,NA,NA,1,6,"15,13,2,10,14,12,6,4,5,1,7,8,3,11,9"
14967,commdev-image-keyboard-response,435,1319485,learnblock2,526,img/planet3_left.png,3,Community 3,NA,FALSE,j,f,NA,NA,NA,1,6,"15,13,2,10,14,12,6,4,5,1,7,8,3,11,9"
14967,commdev-image-keyboard-response,436,1320737,learnblock2,575.7999999998137,img/planet8_left.png,8,Community 3,NA,FALSE,j,f,NA,NA,NA,1,6,"15,13,2,10,14,12,6,4,5,1,7,8,3,11,9"
14967,commdev-image-keyboard-response,437,1321989,learnblock2,508.5,img/planet4_right.png,4,Community 2,NA,TRUE,j,j,NA,NA,NA,1,6,"15,13,2,10,14,12,6,4,5,1,7,8,3,11,9"
14967,commdev-image-keyboard-response,438,1323242,learnblock2,557,img/planet8_right.png,8,Community 3,NA,FALSE,f,j,NA,NA,NA,1,6,"15,13,2,10,14,12,6,4,5,1,7,8,3,11,9"
14967,commdev-image-keyboard-response,439,1324494,learnblock2,849.8000000000466,img/planet3_right.png,3,Community 3,NA,TRUE,j,j,NA,NA,NA,1,6,"15,13,2,10,14,12,6,4,5,1,7,8,3,11,9"
14967,commdev-image-keyboard-response,440,1325747,learnblock2,542.8999999999069,img/planet11_right.png,11,Community 3,NA,TRUE,j,j,NA,NA,NA,1,6,"15,13,2,10,14,12,6,4,5,1,7,8,3,11,9"
14967,commdev-image-keyboard-response,441,1327000,learnblock2,426.69999999995343,img/planet3_left.png,3,Community 3,NA,FALSE,j,f,NA,NA,NA,1,6,"15,13,2,10,14,12,6,4,5,1,7,8,3,11,9"
14967,commdev-image-keyboard-response,442,1328252,learnblock2,581.4000000001397,img/planet9_left.png,9,Community 3,NA,FALSE,j,f,NA,NA,NA,1,6,"15,13,2,10,14,12,6,4,5,1,7,8,3,11,9"
14967,commdev-image-keyboard-response,443,1329505,learnblock2,519.3000000000466,img/planet8_left.png,8,Community 3,NA,TRUE,f,f,NA,NA,NA,1,6,"15,13,2,10,14,12,6,4,5,1,7,8,3,11,9"
14967,commdev-image-keyboard-response,444,1330758,learnblock2,554.5,img/planet3_right.png,3,Community 3,NA,TRUE,j,j,NA,NA,NA,1,6,"15,13,2,10,14,12,6,4,5,1,7,8,3,11,9"
14967,commdev-image-keyboard-response,445,1332010,learnblock2,586.6999999999534,img/planet8_right.png,8,Community 3,NA,TRUE,j,j,NA,NA,NA,1,6,"15,13,2,10,14,12,6,4,5,1,7,8,3,11,9"
14967,commdev-image-keyboard-response,446,1333263,learnblock2,556.1999999999534,img/planet3_left.png,3,Community 3,NA,TRUE,f,f,NA,NA,NA,1,6,"15,13,2,10,14,12,6,4,5,1,7,8,3,11,9"
14967,commdev-image-keyboard-response,447,1334515,learnblock2,554.8999999999069,img/planet8_right.png,8,Community 3,NA,TRUE,j,j,NA,NA,NA,1,6,"15,13,2,10,14,12,6,4,5,1,7,8,3,11,9"
14967,commdev-image-keyboard-response,448,1335767,learnblock2,432.69999999995343,img/planet3_left.png,3,Community 3,NA,TRUE,f,f,NA,NA,NA,1,6,"15,13,2,10,14,12,6,4,5,1,7,8,3,11,9"
14967,commdev-image-keyboard-response,449,1337020,learnblock2,566.5,img/planet11_right.png,11,Community 3,NA,TRUE,j,j,NA,NA,NA,1,6,"15,13,2,10,14,12,6,4,5,1,7,8,3,11,9"
14967,commdev-image-keyboard-response,450,1338272,learnblock2,541.3999999999069,img/planet3_right.png,3,Community 3,NA,TRUE,j,j,NA,NA,NA,1,6,"15,13,2,10,14,12,6,4,5,1,7,8,3,11,9"
14967,commdev-image-keyboard-response,451,1339524,learnblock2,496.9000000001397,img/planet8_left.png,8,Community 3,NA,TRUE,f,f,NA,NA,NA,1,6,"15,13,2,10,14,12,6,4,5,1,7,8,3,11,9"
14967,commdev-image-keyboard-response,452,1340777,learnblock2,517.6000000000931,img/planet3_right.png,3,Community 3,NA,FALSE,f,j,NA,NA,NA,1,6,"15,13,2,10,14,12,6,4,5,1,7,8,3,11,9"
14967,commdev-image-keyboard-response,453,1342029,learnblock2,587.3999999999069,img/planet7_right.png,7,Community 3,NA,TRUE,j,j,NA,NA,NA,1,6,"15,13,2,10,14,12,6,4,5,1,7,8,3,11,9"
14967,commdev-image-keyboard-response,454,1343281,learnblock2,627.5,img/planet11_left.png,11,Community 3,NA,TRUE,f,f,NA,NA,NA,1,6,"15,13,2,10,14,12,6,4,5,1,7,8,3,11,9"
14967,commdev-image-keyboard-response,455,1344534,learnblock2,855.5999999998603,img/planet7_left.png,7,Community 3,NA,TRUE,f,f,NA,NA,NA,1,6,"15,13,2,10,14,12,6,4,5,1,7,8,3,11,9"
14967,commdev-image-keyboard-response,456,1345786,learnblock2,517.8000000000466,img/planet9_right.png,9,Community 3,NA,TRUE,j,j,NA,NA,NA,1,6,"15,13,2,10,14,12,6,4,5,1,7,8,3,11,9"
14967,commdev-image-keyboard-response,457,1347039,learnblock2,644.5,img/planet7_right.png,7,Community 3,NA,TRUE,j,j,NA,NA,NA,1,6,"15,13,2,10,14,12,6,4,5,1,7,8,3,11,9"
14967,commdev-image-keyboard-response,458,1348291,learnblock2,406,img/planet9_left.png,9,Community 3,NA,TRUE,f,f,NA,NA,NA,1,6,"15,13,2,10,14,12,6,4,5,1,7,8,3,11,9"
14967,commdev-image-keyboard-response,459,1349544,learnblock2,580.8999999999069,img/planet8_right.png,8,Community 3,NA,TRUE,j,j,NA,NA,NA,1,6,"15,13,2,10,14,12,6,4,5,1,7,8,3,11,9"
14967,commdev-image-keyboard-response,460,1350796,learnblock2,844.8000000000466,img/planet9_right.png,9,Community 3,NA,TRUE,j,j,NA,NA,NA,1,6,"15,13,2,10,14,12,6,4,5,1,7,8,3,11,9"
14967,commdev-image-keyboard-response,461,1352049,learnblock2,852,img/planet3_right.png,3,Community 3,NA,TRUE,j,j,NA,NA,NA,1,6,"15,13,2,10,14,12,6,4,5,1,7,8,3,11,9"
14967,commdev-image-keyboard-response,462,1353301,learnblock2,638.3000000000466,img/planet7_left.png,7,Community 3,NA,TRUE,f,f,NA,NA,NA,1,6,"15,13,2,10,14,12,6,4,5,1,7,8,3,11,9"
14967,commdev-image-keyboard-response,463,1354554,learnblock2,607.8999999999069,img/planet14_left.png,14,Community 1,NA,TRUE,f,f,NA,NA,NA,1,6,"15,13,2,10,14,12,6,4,5,1,7,8,3,11,9"
14967,commdev-image-keyboard-response,464,1355806,learnblock2,471.80000000004657,img/planet2_left.png,2,Community 1,NA,TRUE,f,f,NA,NA,NA,1,6,"15,13,2,10,14,12,6,4,5,1,7,8,3,11,9"
14967,commdev-image-keyboard-response,465,1357059,learnblock2,431.5,img/planet10_left.png,10,Community 1,NA,TRUE,f,f,NA,NA,NA,1,6,"15,13,2,10,14,12,6,4,5,1,7,8,3,11,9"
14967,commdev-image-keyboard-response,466,1358312,learnblock2,476.80000000004657,img/planet2_left.png,2,Community 1,NA,TRUE,f,f,NA,NA,NA,1,6,"15,13,2,10,14,12,6,4,5,1,7,8,3,11,9"
14967,commdev-image-keyboard-response,467,1359564,learnblock2,375.69999999995343,img/planet10_left.png,10,Community 1,NA,TRUE,f,f,NA,NA,NA,1,6,"15,13,2,10,14,12,6,4,5,1,7,8,3,11,9"
14967,commdev-image-keyboard-response,468,1360817,learnblock2,454.39999999990687,img/planet15_left.png,15,Community 1,NA,TRUE,f,f,NA,NA,NA,1,6,"15,13,2,10,14,12,6,4,5,1,7,8,3,11,9"
14967,commdev-image-keyboard-response,469,1362069,learnblock2,457.5,img/planet14_right.png,14,Community 1,NA,TRUE,j,j,NA,NA,NA,1,6,"15,13,2,10,14,12,6,4,5,1,7,8,3,11,9"
14967,commdev-image-keyboard-response,470,1363322,learnblock2,452,img/planet2_right.png,2,Community 1,NA,TRUE,j,j,NA,NA,NA,1,6,"15,13,2,10,14,12,6,4,5,1,7,8,3,11,9"
14967,commdev-image-keyboard-response,471,1364574,learnblock2,576.5,img/planet13_right.png,13,Community 1,NA,TRUE,j,j,NA,NA,NA,1,6,"15,13,2,10,14,12,6,4,5,1,7,8,3,11,9"
14967,commdev-image-keyboard-response,472,1365827,learnblock2,542.3000000000466,img/planet14_right.png,14,Community 1,NA,TRUE,j,j,NA,NA,NA,1,6,"15,13,2,10,14,12,6,4,5,1,7,8,3,11,9"
14967,commdev-image-keyboard-response,473,1367079,learnblock2,589.3000000000466,img/planet15_right.png,15,Community 1,NA,FALSE,f,j,NA,NA,NA,1,6,"15,13,2,10,14,12,6,4,5,1,7,8,3,11,9"
14967,commdev-image-keyboard-response,474,1368332,learnblock2,530.1999999999534,img/planet2_right.png,2,Community 1,NA,TRUE,j,j,NA,NA,NA,1,6,"15,13,2,10,14,12,6,4,5,1,7,8,3,11,9"
14967,commdev-image-keyboard-response,475,1369584,learnblock2,439.30000000004657,img/planet10_right.png,10,Community 1,NA,TRUE,j,j,NA,NA,NA,1,6,"15,13,2,10,14,12,6,4,5,1,7,8,3,11,9"
14967,commdev-image-keyboard-response,476,1370836,learnblock2,401.70000000018626,img/planet2_right.png,2,Community 1,NA,TRUE,j,j,NA,NA,NA,1,6,"15,13,2,10,14,12,6,4,5,1,7,8,3,11,9"
14967,commdev-image-keyboard-response,477,1372089,learnblock2,470.20000000018626,img/planet15_left.png,15,Community 1,NA,FALSE,j,f,NA,NA,NA,1,6,"15,13,2,10,14,12,6,4,5,1,7,8,3,11,9"
14967,commdev-image-keyboard-response,478,1373341,learnblock2,479.30000000004657,img/planet14_left.png,14,Community 1,NA,TRUE,f,f,NA,NA,NA,1,6,"15,13,2,10,14,12,6,4,5,1,7,8,3,11,9"
14967,commdev-image-keyboard-response,479,1374594,learnblock2,571.5999999998603,img/planet7_left.png,7,Community 3,NA,TRUE,f,f,NA,NA,NA,1,6,"15,13,2,10,14,12,6,4,5,1,7,8,3,11,9"
14967,commdev-image-keyboard-response,480,1375847,learnblock2,587.6999999999534,img/planet3_left.png,3,Community 3,NA,TRUE,f,f,NA,NA,NA,1,6,"15,13,2,10,14,12,6,4,5,1,7,8,3,11,9"
14967,commdev-image-keyboard-response,481,1377099,learnblock2,562,img/planet7_left.png,7,Community 3,NA,TRUE,f,f,NA,NA,NA,1,6,"15,13,2,10,14,12,6,4,5,1,7,8,3,11,9"
14967,commdev-image-keyboard-response,482,1378351,learnblock2,442.39999999990687,img/planet9_right.png,9,Community 3,NA,FALSE,f,j,NA,NA,NA,1,6,"15,13,2,10,14,12,6,4,5,1,7,8,3,11,9"
14967,commdev-image-keyboard-response,483,1379604,learnblock2,546,img/planet7_right.png,7,Community 3,NA,TRUE,j,j,NA,NA,NA,1,6,"15,13,2,10,14,12,6,4,5,1,7,8,3,11,9"
14967,commdev-image-keyboard-response,484,1380856,learnblock2,493.30000000004657,img/planet14_right.png,14,Community 1,NA,TRUE,j,j,NA,NA,NA,1,6,"15,13,2,10,14,12,6,4,5,1,7,8,3,11,9"
14967,commdev-image-keyboard-response,485,1382109,learnblock2,517.3999999999069,img/planet2_right.png,2,Community 1,NA,TRUE,j,j,NA,NA,NA,1,6,"15,13,2,10,14,12,6,4,5,1,7,8,3,11,9"
14967,commdev-image-keyboard-response,486,1383361,learnblock2,625,img/planet13_left.png,13,Community 1,NA,TRUE,f,f,NA,NA,NA,1,6,"15,13,2,10,14,12,6,4,5,1,7,8,3,11,9"
14967,commdev-image-keyboard-response,487,1384613,learnblock2,474.0999999998603,img/planet10_left.png,10,Community 1,NA,TRUE,f,f,NA,NA,NA,1,6,"15,13,2,10,14,12,6,4,5,1,7,8,3,11,9"
14967,commdev-image-keyboard-response,488,1385866,learnblock2,533,img/planet15_right.png,15,Community 1,NA,TRUE,j,j,NA,NA,NA,1,6,"15,13,2,10,14,12,6,4,5,1,7,8,3,11,9"
14967,commdev-image-keyboard-response,489,1387118,learnblock2,603.8000000000466,img/planet13_right.png,13,Community 1,NA,TRUE,j,j,NA,NA,NA,1,6,"15,13,2,10,14,12,6,4,5,1,7,8,3,11,9"
14967,commdev-image-keyboard-response,490,1388371,learnblock2,618.4000000001397,img/planet15_left.png,15,Community 1,NA,TRUE,f,f,NA,NA,NA,1,6,"15,13,2,10,14,12,6,4,5,1,7,8,3,11,9"
14967,commdev-image-keyboard-response,491,1389624,learnblock2,1162.4000000001397,img/planet13_left.png,13,Community 1,NA,TRUE,f,f,NA,NA,NA,1,6,"15,13,2,10,14,12,6,4,5,1,7,8,3,11,9"
14967,commdev-image-keyboard-response,492,1390876,learnblock2,572.3999999999069,img/planet15_right.png,15,Community 1,NA,TRUE,j,j,NA,NA,NA,1,6,"15,13,2,10,14,12,6,4,5,1,7,8,3,11,9"
14967,commdev-image-keyboard-response,493,1392128,learnblock2,449.4000000001397,img/planet2_left.png,2,Community 1,NA,TRUE,f,f,NA,NA,NA,1,6,"15,13,2,10,14,12,6,4,5,1,7,8,3,11,9"
14967,commdev-image-keyboard-response,494,1393381,learnblock2,616.8000000000466,img/planet10_right.png,10,Community 1,NA,TRUE,j,j,NA,NA,NA,1,6,"15,13,2,10,14,12,6,4,5,1,7,8,3,11,9"
14967,commdev-image-keyboard-response,495,1394633,learnblock2,476.80000000004657,img/planet12_left.png,12,Community 2,NA,TRUE,f,f,NA,NA,NA,1,6,"15,13,2,10,14,12,6,4,5,1,7,8,3,11,9"
14967,commdev-image-keyboard-response,496,1395886,learnblock2,517.2999999998137,img/planet6_right.png,6,Community 2,NA,TRUE,j,j,NA,NA,NA,1,6,"15,13,2,10,14,12,6,4,5,1,7,8,3,11,9"
14967,commdev-image-keyboard-response,497,1397138,learnblock2,null,img/planet12_right.png,12,Community 2,NA,FALSE,null,j,NA,NA,NA,1,6,"15,13,2,10,14,12,6,4,5,1,7,8,3,11,9"
14967,commdev-image-keyboard-response,498,1398391,learnblock2,11.899999999906868,img/planet5_right.png,5,Community 2,NA,FALSE,f,j,NA,NA,NA,1,6,"15,13,2,10,14,12,6,4,5,1,7,8,3,11,9"
14967,commdev-image-keyboard-response,499,1399643,learnblock2,411.10000000009313,img/planet12_right.png,12,Community 2,NA,TRUE,j,j,NA,NA,NA,1,6,"15,13,2,10,14,12,6,4,5,1,7,8,3,11,9"
14967,commdev-image-keyboard-response,500,1400896,learnblock2,440.4000000001397,img/planet5_right.png,5,Community 2,NA,TRUE,j,j,NA,NA,NA,1,6,"15,13,2,10,14,12,6,4,5,1,7,8,3,11,9"
14967,commdev-image-keyboard-response,501,1402149,learnblock2,493.39999999990687,img/planet1_right.png,1,Community 2,NA,TRUE,j,j,NA,NA,NA,1,6,"15,13,2,10,14,12,6,4,5,1,7,8,3,11,9"
14967,commdev-image-keyboard-response,502,1403401,learnblock2,573.1999999999534,img/planet4_left.png,4,Community 2,NA,TRUE,f,f,NA,NA,NA,1,6,"15,13,2,10,14,12,6,4,5,1,7,8,3,11,9"
14967,commdev-image-keyboard-response,503,1404653,learnblock2,466,img/planet5_left.png,5,Community 2,NA,TRUE,f,f,NA,NA,NA,1,6,"15,13,2,10,14,12,6,4,5,1,7,8,3,11,9"
14967,commdev-image-keyboard-response,504,1405906,learnblock2,565.1999999999534,img/planet1_right.png,1,Community 2,NA,TRUE,j,j,NA,NA,NA,1,6,"15,13,2,10,14,12,6,4,5,1,7,8,3,11,9"
14967,commdev-image-keyboard-response,505,1407158,learnblock2,580.8000000000466,img/planet6_left.png,6,Community 2,NA,TRUE,f,f,NA,NA,NA,1,6,"15,13,2,10,14,12,6,4,5,1,7,8,3,11,9"
14967,commdev-image-keyboard-response,506,1408411,learnblock2,701.1000000000931,img/planet4_right.png,4,Community 2,NA,TRUE,j,j,NA,NA,NA,1,6,"15,13,2,10,14,12,6,4,5,1,7,8,3,11,9"
14967,commdev-image-keyboard-response,507,1409663,learnblock2,677.6999999999534,img/planet5_left.png,5,Community 2,NA,TRUE,f,f,NA,NA,NA,1,6,"15,13,2,10,14,12,6,4,5,1,7,8,3,11,9"
14967,commdev-image-keyboard-response,508,1410916,learnblock2,927,img/planet12_left.png,12,Community 2,NA,TRUE,f,f,NA,NA,NA,1,6,"15,13,2,10,14,12,6,4,5,1,7,8,3,11,9"
14967,commdev-image-keyboard-response,509,1412169,learnblock2,517.6000000000931,img/planet10_left.png,10,Community 1,NA,FALSE,j,f,NA,NA,NA,1,6,"15,13,2,10,14,12,6,4,5,1,7,8,3,11,9"
14967,commdev-image-keyboard-response,510,1413421,learnblock2,491.10000000009313,img/planet12_right.png,12,Community 2,NA,TRUE,j,j,NA,NA,NA,1,6,"15,13,2,10,14,12,6,4,5,1,7,8,3,11,9"
14967,commdev-image-keyboard-response,511,1414674,learnblock2,510.5,img/planet1_left.png,1,Community 2,NA,TRUE,f,f,NA,NA,NA,1,6,"15,13,2,10,14,12,6,4,5,1,7,8,3,11,9"
14967,commdev-image-keyboard-response,512,1415926,learnblock2,546.1000000000931,img/planet12_left.png,12,Community 2,NA,TRUE,f,f,NA,NA,NA,1,6,"15,13,2,10,14,12,6,4,5,1,7,8,3,11,9"
14967,commdev-image-keyboard-response,513,1417178,learnblock2,435.4000000001397,img/planet5_left.png,5,Community 2,NA,TRUE,f,f,NA,NA,NA,1,6,"15,13,2,10,14,12,6,4,5,1,7,8,3,11,9"
14967,commdev-image-keyboard-response,514,1418430,learnblock2,457.30000000004657,img/planet12_left.png,12,Community 2,NA,TRUE,f,f,NA,NA,NA,1,6,"15,13,2,10,14,12,6,4,5,1,7,8,3,11,9"
14967,commdev-image-keyboard-response,515,1419683,learnblock2,502.89999999990687,img/planet1_right.png,1,Community 2,NA,TRUE,j,j,NA,NA,NA,1,6,"15,13,2,10,14,12,6,4,5,1,7,8,3,11,9"
14967,commdev-image-keyboard-response,516,1420936,learnblock2,624.9000000001397,img/planet6_left.png,6,Community 2,NA,TRUE,f,f,NA,NA,NA,1,6,"15,13,2,10,14,12,6,4,5,1,7,8,3,11,9"
14967,commdev-image-keyboard-response,517,1422189,learnblock2,563.4000000001397,img/planet12_left.png,12,Community 2,NA,TRUE,f,f,NA,NA,NA,1,6,"15,13,2,10,14,12,6,4,5,1,7,8,3,11,9"
14967,commdev-image-keyboard-response,518,1423442,learnblock2,781.4000000001397,img/planet10_right.png,10,Community 1,NA,TRUE,j,j,NA,NA,NA,1,6,"15,13,2,10,14,12,6,4,5,1,7,8,3,11,9"
14967,commdev-image-keyboard-response,519,1424695,learnblock2,587.8000000000466,img/planet13_right.png,13,Community 1,NA,TRUE,j,j,NA,NA,NA,1,6,"15,13,2,10,14,12,6,4,5,1,7,8,3,11,9"
14967,commdev-image-keyboard-response,520,1425947,learnblock2,479.30000000004657,img/planet15_left.png,15,Community 1,NA,TRUE,f,f,NA,NA,NA,1,6,"15,13,2,10,14,12,6,4,5,1,7,8,3,11,9"
14967,commdev-image-keyboard-response,521,1427199,learnblock2,543.6000000000931,img/planet10_left.png,10,Community 1,NA,TRUE,f,f,NA,NA,NA,1,6,"15,13,2,10,14,12,6,4,5,1,7,8,3,11,9"
14967,commdev-image-keyboard-response,522,1428452,learnblock2,743.1999999999534,img/planet13_left.png,13,Community 1,NA,TRUE,f,f,NA,NA,NA,1,6,"15,13,2,10,14,12,6,4,5,1,7,8,3,11,9"
14967,commdev-image-keyboard-response,523,1429705,learnblock2,509.4000000001397,img/planet10_left.png,10,Community 1,NA,TRUE,f,f,NA,NA,NA,1,6,"15,13,2,10,14,12,6,4,5,1,7,8,3,11,9"
14967,commdev-image-keyboard-response,524,1430957,learnblock2,533.8999999999069,img/planet2_right.png,2,Community 1,NA,TRUE,j,j,NA,NA,NA,1,6,"15,13,2,10,14,12,6,4,5,1,7,8,3,11,9"
14967,commdev-image-keyboard-response,525,1432209,learnblock2,408,img/planet10_left.png,10,Community 1,NA,TRUE,f,f,NA,NA,NA,1,6,"15,13,2,10,14,12,6,4,5,1,7,8,3,11,9"
14967,commdev-image-keyboard-response,526,1433462,learnblock2,817.9000000001397,img/planet12_left.png,12,Community 2,NA,TRUE,f,f,NA,NA,NA,1,6,"15,13,2,10,14,12,6,4,5,1,7,8,3,11,9"
14967,commdev-image-keyboard-response,527,1434714,learnblock2,680.3000000000466,img/planet5_right.png,5,Community 2,NA,TRUE,j,j,NA,NA,NA,1,6,"15,13,2,10,14,12,6,4,5,1,7,8,3,11,9"
14967,commdev-image-keyboard-response,528,1435967,learnblock2,676.3000000000466,img/planet6_right.png,6,Community 2,NA,FALSE,f,j,NA,NA,NA,1,6,"15,13,2,10,14,12,6,4,5,1,7,8,3,11,9"
14967,commdev-image-keyboard-response,529,1437219,learnblock2,1011.3999999999069,img/planet12_right.png,12,Community 2,NA,TRUE,j,j,NA,NA,NA,1,6,"15,13,2,10,14,12,6,4,5,1,7,8,3,11,9"
14967,commdev-image-keyboard-response,530,1438472,learnblock2,830.1000000000931,img/planet5_left.png,5,Community 2,NA,FALSE,j,f,NA,NA,NA,1,6,"15,13,2,10,14,12,6,4,5,1,7,8,3,11,9"
14967,commdev-image-keyboard-response,531,1439724,learnblock2,1003.5,img/planet6_right.png,6,Community 2,NA,TRUE,j,j,NA,NA,NA,1,6,"15,13,2,10,14,12,6,4,5,1,7,8,3,11,9"
14967,commdev-image-keyboard-response,532,1440977,learnblock2,729.5,img/planet4_left.png,4,Community 2,NA,TRUE,f,f,NA,NA,NA,1,6,"15,13,2,10,14,12,6,4,5,1,7,8,3,11,9"
14967,commdev-image-keyboard-response,533,1442229,learnblock2,577.8000000000466,img/planet6_right.png,6,Community 2,NA,TRUE,j,j,NA,NA,NA,1,6,"15,13,2,10,14,12,6,4,5,1,7,8,3,11,9"
14967,commdev-image-keyboard-response,534,1443482,learnblock2,773.5,img/planet4_right.png,4,Community 2,NA,FALSE,f,j,NA,NA,NA,1,6,"15,13,2,10,14,12,6,4,5,1,7,8,3,11,9"
14967,commdev-image-keyboard-response,535,1444734,learnblock2,773.0999999998603,img/planet5_right.png,5,Community 2,NA,FALSE,f,j,NA,NA,NA,1,6,"15,13,2,10,14,12,6,4,5,1,7,8,3,11,9"
14967,commdev-image-keyboard-response,536,1445987,learnblock2,720,img/planet4_left.png,4,Community 2,NA,FALSE,j,f,NA,NA,NA,1,6,"15,13,2,10,14,12,6,4,5,1,7,8,3,11,9"
14967,commdev-image-keyboard-response,537,1447239,learnblock2,847.9000000001397,img/planet6_left.png,6,Community 2,NA,TRUE,f,f,NA,NA,NA,1,6,"15,13,2,10,14,12,6,4,5,1,7,8,3,11,9"
14967,commdev-image-keyboard-response,538,1448491,learnblock2,565.6000000000931,img/planet12_left.png,12,Community 2,NA,TRUE,f,f,NA,NA,NA,1,6,"15,13,2,10,14,12,6,4,5,1,7,8,3,11,9"
14967,commdev-image-keyboard-response,539,1449744,learnblock2,581.4000000001397,img/planet10_right.png,10,Community 1,NA,TRUE,j,j,NA,NA,NA,1,6,"15,13,2,10,14,12,6,4,5,1,7,8,3,11,9"
14967,commdev-image-keyboard-response,540,1450996,learnblock2,757.3000000000466,img/planet15_right.png,15,Community 1,NA,TRUE,j,j,NA,NA,NA,1,6,"15,13,2,10,14,12,6,4,5,1,7,8,3,11,9"
14967,commdev-image-keyboard-response,541,1452249,learnblock2,440.5,img/planet2_right.png,2,Community 1,NA,TRUE,j,j,NA,NA,NA,1,6,"15,13,2,10,14,12,6,4,5,1,7,8,3,11,9"
14967,commdev-image-keyboard-response,542,1453501,learnblock2,581.3999999999069,img/planet15_right.png,15,Community 1,NA,TRUE,j,j,NA,NA,NA,1,6,"15,13,2,10,14,12,6,4,5,1,7,8,3,11,9"
14967,commdev-image-keyboard-response,543,1454754,learnblock2,650.8000000000466,img/planet10_right.png,10,Community 1,NA,TRUE,j,j,NA,NA,NA,1,6,"15,13,2,10,14,12,6,4,5,1,7,8,3,11,9"
14967,commdev-image-keyboard-response,544,1456006,learnblock2,983.2999999998137,img/planet12_left.png,12,Community 2,NA,TRUE,f,f,NA,NA,NA,1,6,"15,13,2,10,14,12,6,4,5,1,7,8,3,11,9"
14967,commdev-image-keyboard-response,545,1457259,learnblock2,810.6999999999534,img/planet6_left.png,6,Community 2,NA,FALSE,j,f,NA,NA,NA,1,6,"15,13,2,10,14,12,6,4,5,1,7,8,3,11,9"
14967,commdev-image-keyboard-response,546,1458511,learnblock2,606.3999999999069,img/planet1_right.png,1,Community 2,NA,FALSE,f,j,NA,NA,NA,1,6,"15,13,2,10,14,12,6,4,5,1,7,8,3,11,9"
14967,commdev-image-keyboard-response,547,1459764,learnblock2,525.4000000001397,img/planet12_left.png,12,Community 2,NA,FALSE,j,f,NA,NA,NA,1,6,"15,13,2,10,14,12,6,4,5,1,7,8,3,11,9"
14967,commdev-image-keyboard-response,548,1461016,learnblock2,522.8000000000466,img/planet6_right.png,6,Community 2,NA,FALSE,f,j,NA,NA,NA,1,6,"15,13,2,10,14,12,6,4,5,1,7,8,3,11,9"
14967,commdev-image-keyboard-response,549,1462269,learnblock2,569.5,img/planet4_left.png,4,Community 2,NA,FALSE,j,f,NA,NA,NA,1,6,"15,13,2,10,14,12,6,4,5,1,7,8,3,11,9"
14967,commdev-image-keyboard-response,550,1463521,learnblock2,623.6999999999534,img/planet5_left.png,5,Community 2,NA,FALSE,j,f,NA,NA,NA,1,6,"15,13,2,10,14,12,6,4,5,1,7,8,3,11,9"
14967,commdev-image-keyboard-response,551,1464773,learnblock2,617.1999999999534,img/planet4_left.png,4,Community 2,NA,FALSE,j,f,NA,NA,NA,1,6,"15,13,2,10,14,12,6,4,5,1,7,8,3,11,9"
14967,commdev-image-keyboard-response,552,1466025,learnblock2,608.3999999999069,img/planet5_left.png,5,Community 2,NA,FALSE,j,f,NA,NA,NA,1,6,"15,13,2,10,14,12,6,4,5,1,7,8,3,11,9"
14967,commdev-image-keyboard-response,553,1467278,learnblock2,490.19999999995343,img/planet1_left.png,1,Community 2,NA,FALSE,j,f,NA,NA,NA,1,6,"15,13,2,10,14,12,6,4,5,1,7,8,3,11,9"
14967,commdev-image-keyboard-response,554,1468530,learnblock2,482.80000000004657,img/planet12_left.png,12,Community 2,NA,FALSE,j,f,NA,NA,NA,1,6,"15,13,2,10,14,12,6,4,5,1,7,8,3,11,9"
14967,commdev-image-keyboard-response,555,1469783,learnblock2,510.19999999995343,img/planet6_right.png,6,Community 2,NA,FALSE,f,j,NA,NA,NA,1,6,"15,13,2,10,14,12,6,4,5,1,7,8,3,11,9"
14967,commdev-image-keyboard-response,556,1471035,learnblock2,410,img/planet4_right.png,4,Community 2,NA,TRUE,j,j,NA,NA,NA,1,6,"15,13,2,10,14,12,6,4,5,1,7,8,3,11,9"
14967,commdev-image-keyboard-response,557,1472288,learnblock2,517.8999999999069,img/planet5_right.png,5,Community 2,NA,FALSE,f,j,NA,NA,NA,1,6,"15,13,2,10,14,12,6,4,5,1,7,8,3,11,9"
14967,commdev-image-keyboard-response,558,1473540,learnblock2,364.30000000004657,img/planet4_left.png,4,Community 2,NA,TRUE,f,f,NA,NA,NA,1,6,"15,13,2,10,14,12,6,4,5,1,7,8,3,11,9"
14967,commdev-image-keyboard-response,559,1474793,learnblock2,471.39999999990687,img/planet1_left.png,1,Community 2,NA,FALSE,j,f,NA,NA,NA,1,6,"15,13,2,10,14,12,6,4,5,1,7,8,3,11,9"
14967,commdev-image-keyboard-response,560,1476046,learnblock2,531.5,img/planet6_right.png,6,Community 2,NA,FALSE,f,j,NA,NA,NA,1,6,"15,13,2,10,14,12,6,4,5,1,7,8,3,11,9"
14967,commdev-image-keyboard-response,561,1477298,learnblock2,809.2999999998137,img/planet1_right.png,1,Community 2,NA,TRUE,j,j,NA,NA,NA,1,6,"15,13,2,10,14,12,6,4,5,1,7,8,3,11,9"
14967,commdev-image-keyboard-response,562,1478551,learnblock2,589.8000000000466,img/planet4_right.png,4,Community 2,NA,FALSE,f,j,NA,NA,NA,1,6,"15,13,2,10,14,12,6,4,5,1,7,8,3,11,9"
14967,commdev-image-keyboard-response,563,1479803,learnblock2,690.6000000000931,img/planet8_right.png,8,Community 3,NA,FALSE,f,j,NA,NA,NA,1,6,"15,13,2,10,14,12,6,4,5,1,7,8,3,11,9"
14967,commdev-image-keyboard-response,564,1481056,learnblock2,453.4000000001397,img/planet4_left.png,4,Community 2,NA,TRUE,f,f,NA,NA,NA,1,6,"15,13,2,10,14,12,6,4,5,1,7,8,3,11,9"
14967,commdev-image-keyboard-response,565,1482307,learnblock2,721.3000000000466,img/planet6_right.png,6,Community 2,NA,FALSE,f,j,NA,NA,NA,1,6,"15,13,2,10,14,12,6,4,5,1,7,8,3,11,9"
14967,commdev-image-keyboard-response,566,1483560,learnblock2,558.4000000001397,img/planet5_right.png,5,Community 2,NA,FALSE,f,j,NA,NA,NA,1,6,"15,13,2,10,14,12,6,4,5,1,7,8,3,11,9"
14967,commdev-image-keyboard-response,567,1484813,learnblock2,656.5,img/planet1_right.png,1,Community 2,NA,FALSE,f,j,NA,NA,NA,1,6,"15,13,2,10,14,12,6,4,5,1,7,8,3,11,9"
14967,commdev-image-keyboard-response,568,1486065,learnblock2,427.20000000018626,img/planet5_left.png,5,Community 2,NA,TRUE,f,f,NA,NA,NA,1,6,"15,13,2,10,14,12,6,4,5,1,7,8,3,11,9"
14967,commdev-image-keyboard-response,569,1487317,learnblock2,564.8999999999069,img/planet1_left.png,1,Community 2,NA,FALSE,j,f,NA,NA,NA,1,6,"15,13,2,10,14,12,6,4,5,1,7,8,3,11,9"
14967,commdev-image-keyboard-response,570,1488570,learnblock2,528.1000000000931,img/planet5_right.png,5,Community 2,NA,FALSE,f,j,NA,NA,NA,1,6,"15,13,2,10,14,12,6,4,5,1,7,8,3,11,9"
14967,commdev-image-keyboard-response,571,1489822,learnblock2,519.1000000000931,img/planet1_left.png,1,Community 2,NA,FALSE,j,f,NA,NA,NA,1,6,"15,13,2,10,14,12,6,4,5,1,7,8,3,11,9"
14967,commdev-image-keyboard-response,572,1491074,learnblock2,722.1000000000931,img/planet6_left.png,6,Community 2,NA,FALSE,j,f,NA,NA,NA,1,6,"15,13,2,10,14,12,6,4,5,1,7,8,3,11,9"
14967,commdev-image-keyboard-response,573,1492327,learnblock2,554.7000000001863,img/planet4_right.png,4,Community 2,NA,FALSE,f,j,NA,NA,NA,1,6,"15,13,2,10,14,12,6,4,5,1,7,8,3,11,9"
14967,commdev-image-keyboard-response,574,1493580,learnblock2,485.9000000001397,img/planet6_left.png,6,Community 2,NA,FALSE,j,f,NA,NA,NA,1,6,"15,13,2,10,14,12,6,4,5,1,7,8,3,11,9"
14967,commdev-image-keyboard-response,575,1494832,learnblock2,531.5,img/planet1_right.png,1,Community 2,NA,FALSE,f,j,NA,NA,NA,1,6,"15,13,2,10,14,12,6,4,5,1,7,8,3,11,9"
14967,commdev-image-keyboard-response,576,1496085,learnblock2,680.5,img/planet4_right.png,4,Community 2,NA,FALSE,f,j,NA,NA,NA,1,6,"15,13,2,10,14,12,6,4,5,1,7,8,3,11,9"
14967,commdev-image-keyboard-response,577,1497337,learnblock2,483.9000000001397,img/planet1_right.png,1,Community 2,NA,FALSE,f,j,NA,NA,NA,1,6,"15,13,2,10,14,12,6,4,5,1,7,8,3,11,9"
14967,commdev-image-keyboard-response,578,1498589,learnblock2,567.6999999999534,img/planet12_left.png,12,Community 2,NA,FALSE,j,f,NA,NA,NA,1,6,"15,13,2,10,14,12,6,4,5,1,7,8,3,11,9"
14967,commdev-image-keyboard-response,579,1499842,learnblock2,602.5,img/planet10_right.png,10,Community 1,NA,FALSE,f,j,NA,NA,NA,1,6,"15,13,2,10,14,12,6,4,5,1,7,8,3,11,9"
14967,commdev-image-keyboard-response,580,1501094,learnblock2,494.19999999995343,img/planet12_left.png,12,Community 2,NA,FALSE,j,f,NA,NA,NA,1,6,"15,13,2,10,14,12,6,4,5,1,7,8,3,11,9"
14967,commdev-image-keyboard-response,581,1502347,learnblock2,700.8000000000466,img/planet1_right.png,1,Community 2,NA,FALSE,f,j,NA,NA,NA,1,6,"15,13,2,10,14,12,6,4,5,1,7,8,3,11,9"
14967,commdev-image-keyboard-response,582,1503599,learnblock2,466.0999999998603,img/planet12_left.png,12,Community 2,NA,FALSE,j,f,NA,NA,NA,1,6,"15,13,2,10,14,12,6,4,5,1,7,8,3,11,9"
14967,commdev-image-keyboard-response,583,1504851,learnblock2,629.3000000000466,img/planet10_left.png,10,Community 1,NA,FALSE,j,f,NA,NA,NA,1,6,"15,13,2,10,14,12,6,4,5,1,7,8,3,11,9"
14967,commdev-image-keyboard-response,584,1506104,learnblock2,676,img/planet15_left.png,15,Community 1,NA,FALSE,j,f,NA,NA,NA,1,6,"15,13,2,10,14,12,6,4,5,1,7,8,3,11,9"
14967,commdev-image-keyboard-response,585,1507356,learnblock2,692.0999999998603,img/planet14_left.png,14,Community 1,NA,FALSE,j,f,NA,NA,NA,1,6,"15,13,2,10,14,12,6,4,5,1,7,8,3,11,9"
14967,commdev-image-keyboard-response,586,1508609,learnblock2,545.6999999999534,img/planet13_left.png,13,Community 1,NA,FALSE,j,f,NA,NA,NA,1,6,"15,13,2,10,14,12,6,4,5,1,7,8,3,11,9"
14967,commdev-image-keyboard-response,587,1509861,learnblock2,546.9000000001397,img/planet2_left.png,2,Community 1,NA,FALSE,j,f,NA,NA,NA,1,6,"15,13,2,10,14,12,6,4,5,1,7,8,3,11,9"
14967,commdev-image-keyboard-response,588,1511113,learnblock2,660.3000000000466,img/planet15_left.png,15,Community 1,NA,FALSE,j,f,NA,NA,NA,1,6,"15,13,2,10,14,12,6,4,5,1,7,8,3,11,9"
14967,commdev-image-keyboard-response,589,1512366,learnblock2,545.5999999998603,img/planet2_left.png,2,Community 1,NA,FALSE,j,f,NA,NA,NA,1,6,"15,13,2,10,14,12,6,4,5,1,7,8,3,11,9"
14967,commdev-image-keyboard-response,590,1513618,learnblock2,483.89999999990687,img/planet13_left.png,13,Community 1,NA,FALSE,j,f,NA,NA,NA,1,6,"15,13,2,10,14,12,6,4,5,1,7,8,3,11,9"
14967,commdev-image-keyboard-response,591,1514870,learnblock2,563.1000000000931,img/planet14_right.png,14,Community 1,NA,FALSE,f,j,NA,NA,NA,1,6,"15,13,2,10,14,12,6,4,5,1,7,8,3,11,9"
14967,commdev-image-keyboard-response,592,1516123,learnblock2,515,img/planet15_right.png,15,Community 1,NA,FALSE,f,j,NA,NA,NA,1,6,"15,13,2,10,14,12,6,4,5,1,7,8,3,11,9"
14967,commdev-image-keyboard-response,593,1517375,learnblock2,450.5,img/planet14_left.png,14,Community 1,NA,FALSE,j,f,NA,NA,NA,1,6,"15,13,2,10,14,12,6,4,5,1,7,8,3,11,9"
14967,commdev-image-keyboard-response,594,1518628,learnblock2,528.6000000000931,img/planet7_right.png,7,Community 3,NA,FALSE,f,j,NA,NA,NA,1,6,"15,13,2,10,14,12,6,4,5,1,7,8,3,11,9"
14967,commdev-image-keyboard-response,595,1519880,learnblock2,579.0999999998603,img/planet3_left.png,3,Community 3,NA,FALSE,j,f,NA,NA,NA,1,6,"15,13,2,10,14,12,6,4,5,1,7,8,3,11,9"
14967,commdev-image-keyboard-response,596,1521132,learnblock2,619.6000000000931,img/planet9_left.png,9,Community 3,NA,FALSE,j,f,NA,NA,NA,1,6,"15,13,2,10,14,12,6,4,5,1,7,8,3,11,9"
14967,commdev-image-keyboard-response,597,1522385,learnblock2,584,img/planet7_left.png,7,Community 3,NA,FALSE,j,f,NA,NA,NA,1,6,"15,13,2,10,14,12,6,4,5,1,7,8,3,11,9"
14967,commdev-image-keyboard-response,598,1523637,learnblock2,628.3999999999069,img/planet11_left.png,11,Community 3,NA,FALSE,j,f,NA,NA,NA,1,6,"15,13,2,10,14,12,6,4,5,1,7,8,3,11,9"
14967,commdev-image-keyboard-response,599,1524890,learnblock2,541.8999999999069,img/planet7_left.png,7,Community 3,NA,FALSE,j,f,NA,NA,NA,1,6,"15,13,2,10,14,12,6,4,5,1,7,8,3,11,9"
14967,commdev-image-keyboard-response,600,1526142,learnblock2,494.4000000001397,img/planet3_right.png,3,Community 3,NA,FALSE,f,j,NA,NA,NA,1,6,"15,13,2,10,14,12,6,4,5,1,7,8,3,11,9"
14967,commdev-image-keyboard-response,601,1527395,learnblock2,501.5999999998603,img/planet9_right.png,9,Community 3,NA,FALSE,f,j,NA,NA,NA,1,6,"15,13,2,10,14,12,6,4,5,1,7,8,3,11,9"
14967,commdev-image-keyboard-response,602,1528648,learnblock2,473.0999999998603,img/planet11_right.png,11,Community 3,NA,FALSE,f,j,NA,NA,NA,1,6,"15,13,2,10,14,12,6,4,5,1,7,8,3,11,9"
14967,commdev-image-keyboard-response,603,1529900,learnblock2,489.19999999995343,img/planet9_left.png,9,Community 3,NA,FALSE,j,f,NA,NA,NA,1,6,"15,13,2,10,14,12,6,4,5,1,7,8,3,11,9"
14967,commdev-image-keyboard-response,604,1531152,learnblock2,560.1000000000931,img/planet8_left.png,8,Community 3,NA,FALSE,j,f,NA,NA,NA,1,6,"15,13,2,10,14,12,6,4,5,1,7,8,3,11,9"
14967,commdev-image-keyboard-response,605,1532404,learnblock2,484.19999999995343,img/planet4_left.png,4,Community 2,NA,FALSE,j,f,NA,NA,NA,1,6,"15,13,2,10,14,12,6,4,5,1,7,8,3,11,9"
14967,commdev-image-keyboard-response,606,1533656,learnblock2,562.3000000000466,img/planet6_right.png,6,Community 2,NA,FALSE,f,j,NA,NA,NA,1,6,"15,13,2,10,14,12,6,4,5,1,7,8,3,11,9"
14967,commdev-image-keyboard-response,607,1534908,learnblock2,501.69999999995343,img/planet5_right.png,5,Community 2,NA,FALSE,f,j,NA,NA,NA,1,6,"15,13,2,10,14,12,6,4,5,1,7,8,3,11,9"
14967,commdev-image-keyboard-response,608,1536161,learnblock2,497.5,img/planet4_right.png,4,Community 2,NA,FALSE,f,j,NA,NA,NA,1,6,"15,13,2,10,14,12,6,4,5,1,7,8,3,11,9"
14967,commdev-image-keyboard-response,609,1537413,learnblock2,507.5,img/planet6_right.png,6,Community 2,NA,FALSE,f,j,NA,NA,NA,1,6,"15,13,2,10,14,12,6,4,5,1,7,8,3,11,9"
14967,commdev-image-keyboard-response,610,1538665,learnblock2,484.10000000009313,img/planet4_left.png,4,Community 2,NA,TRUE,f,f,NA,NA,NA,1,6,"15,13,2,10,14,12,6,4,5,1,7,8,3,11,9"
14967,commdev-image-keyboard-response,611,1539917,learnblock2,538,img/planet5_right.png,5,Community 2,NA,FALSE,f,j,NA,NA,NA,1,6,"15,13,2,10,14,12,6,4,5,1,7,8,3,11,9"
14967,commdev-image-keyboard-response,612,1541170,learnblock2,604.3000000000466,img/planet12_right.png,12,Community 2,NA,FALSE,f,j,NA,NA,NA,1,6,"15,13,2,10,14,12,6,4,5,1,7,8,3,11,9"
14967,commdev-image-keyboard-response,613,1542422,learnblock2,624.2999999998137,img/planet1_right.png,1,Community 2,NA,FALSE,f,j,NA,NA,NA,1,6,"15,13,2,10,14,12,6,4,5,1,7,8,3,11,9"
14967,commdev-image-keyboard-response,614,1543674,learnblock2,687.2999999998137,img/planet12_left.png,12,Community 2,NA,FALSE,j,f,NA,NA,NA,1,6,"15,13,2,10,14,12,6,4,5,1,7,8,3,11,9"
14967,commdev-image-keyboard-response,615,1544926,learnblock2,727.7000000001863,img/planet6_right.png,6,Community 2,NA,FALSE,f,j,NA,NA,NA,1,6,"15,13,2,10,14,12,6,4,5,1,7,8,3,11,9"
14967,commdev-image-keyboard-response,616,1546178,learnblock2,914.0999999998603,img/planet5_right.png,5,Community 2,NA,FALSE,f,j,NA,NA,NA,1,6,"15,13,2,10,14,12,6,4,5,1,7,8,3,11,9"
14967,commdev-image-keyboard-response,617,1547433,learnblock2,698.6999999999534,img/planet6_right.png,6,Community 2,NA,FALSE,f,j,NA,NA,NA,1,6,"15,13,2,10,14,12,6,4,5,1,7,8,3,11,9"
14967,commdev-image-keyboard-response,618,1548685,learnblock2,586.3000000000466,img/planet4_right.png,4,Community 2,NA,FALSE,f,j,NA,NA,NA,1,6,"15,13,2,10,14,12,6,4,5,1,7,8,3,11,9"
14967,commdev-image-keyboard-response,619,1549937,learnblock2,677,img/planet6_right.png,6,Community 2,NA,FALSE,f,j,NA,NA,NA,1,6,"15,13,2,10,14,12,6,4,5,1,7,8,3,11,9"
14967,commdev-image-keyboard-response,620,1551189,learnblock2,546.3999999999069,img/planet4_right.png,4,Community 2,NA,FALSE,f,j,NA,NA,NA,1,6,"15,13,2,10,14,12,6,4,5,1,7,8,3,11,9"
14967,commdev-image-keyboard-response,621,1552441,learnblock2,507.69999999995343,img/planet8_left.png,8,Community 3,NA,FALSE,j,f,NA,NA,NA,1,6,"15,13,2,10,14,12,6,4,5,1,7,8,3,11,9"
14967,commdev-image-keyboard-response,622,1553694,learnblock2,405.60000000009313,img/planet4_right.png,4,Community 2,NA,FALSE,f,j,NA,NA,NA,1,6,"15,13,2,10,14,12,6,4,5,1,7,8,3,11,9"
14967,commdev-image-keyboard-response,623,1554946,learnblock2,479,img/planet8_left.png,8,Community 3,NA,FALSE,j,f,NA,NA,NA,1,6,"15,13,2,10,14,12,6,4,5,1,7,8,3,11,9"
14967,commdev-image-keyboard-response,624,1556199,learnblock2,488.29999999981374,img/planet9_right.png,9,Community 3,NA,FALSE,f,j,NA,NA,NA,1,6,"15,13,2,10,14,12,6,4,5,1,7,8,3,11,9"
14967,commdev-image-keyboard-response,625,1557451,learnblock2,489,img/planet3_right.png,3,Community 3,NA,TRUE,j,j,NA,NA,NA,1,6,"15,13,2,10,14,12,6,4,5,1,7,8,3,11,9"
14967,commdev-image-keyboard-response,626,1558704,learnblock2,617.0999999998603,img/planet11_right.png,11,Community 3,NA,FALSE,f,j,NA,NA,NA,1,6,"15,13,2,10,14,12,6,4,5,1,7,8,3,11,9"
14967,commdev-image-keyboard-response,627,1559956,learnblock2,601,img/planet3_right.png,3,Community 3,NA,FALSE,f,j,NA,NA,NA,1,6,"15,13,2,10,14,12,6,4,5,1,7,8,3,11,9"
14967,commdev-image-keyboard-response,628,1561209,learnblock2,552.5,img/planet8_left.png,8,Community 3,NA,FALSE,j,f,NA,NA,NA,1,6,"15,13,2,10,14,12,6,4,5,1,7,8,3,11,9"
14967,commdev-image-keyboard-response,629,1562461,learnblock2,614.6000000000931,img/planet3_right.png,3,Community 3,NA,FALSE,f,j,NA,NA,NA,1,6,"15,13,2,10,14,12,6,4,5,1,7,8,3,11,9"
14967,commdev-image-keyboard-response,630,1563714,learnblock2,827.5,img/planet9_left.png,9,Community 3,NA,FALSE,j,f,NA,NA,NA,1,6,"15,13,2,10,14,12,6,4,5,1,7,8,3,11,9"
14967,commdev-image-keyboard-response,631,1564966,learnblock2,998.1000000000931,img/planet8_right.png,8,Community 3,NA,FALSE,f,j,NA,NA,NA,1,6,"15,13,2,10,14,12,6,4,5,1,7,8,3,11,9"
14967,commdev-image-keyboard-response,632,1566219,learnblock2,1036.7000000001863,img/planet3_left.png,3,Community 3,NA,FALSE,j,f,NA,NA,NA,1,6,"15,13,2,10,14,12,6,4,5,1,7,8,3,11,9"
14967,commdev-image-keyboard-response,633,1567471,learnblock2,730.1000000000931,img/planet7_right.png,7,Community 3,NA,FALSE,f,j,NA,NA,NA,1,6,"15,13,2,10,14,12,6,4,5,1,7,8,3,11,9"
14967,commdev-image-keyboard-response,634,1568723,learnblock2,626.7000000001863,img/planet14_left.png,14,Community 1,NA,FALSE,j,f,NA,NA,NA,1,6,"15,13,2,10,14,12,6,4,5,1,7,8,3,11,9"
14967,commdev-image-keyboard-response,635,1569976,learnblock2,540.0999999996275,img/planet15_right.png,15,Community 1,NA,FALSE,f,j,NA,NA,NA,1,6,"15,13,2,10,14,12,6,4,5,1,7,8,3,11,9"
14967,commdev-image-keyboard-response,636,1571228,learnblock2,768.7000000001863,img/planet13_right.png,13,Community 1,NA,FALSE,f,j,NA,NA,NA,1,6,"15,13,2,10,14,12,6,4,5,1,7,8,3,11,9"
14967,commdev-image-keyboard-response,637,1572481,learnblock2,810.6000000000931,img/planet2_right.png,2,Community 1,NA,TRUE,j,j,NA,NA,NA,1,6,"15,13,2,10,14,12,6,4,5,1,7,8,3,11,9"
14967,commdev-image-keyboard-response,638,1573733,learnblock2,465.09999999962747,img/planet15_right.png,15,Community 1,NA,FALSE,f,j,NA,NA,NA,1,6,"15,13,2,10,14,12,6,4,5,1,7,8,3,11,9"
14967,commdev-image-keyboard-response,639,1574986,learnblock2,675.5,img/planet2_left.png,2,Community 1,NA,FALSE,j,f,NA,NA,NA,1,6,"15,13,2,10,14,12,6,4,5,1,7,8,3,11,9"
14967,commdev-image-keyboard-response,640,1576239,learnblock2,715.1000000000931,img/planet15_right.png,15,Community 1,NA,FALSE,f,j,NA,NA,NA,1,6,"15,13,2,10,14,12,6,4,5,1,7,8,3,11,9"
14967,commdev-image-keyboard-response,641,1577491,learnblock2,548.1999999997206,img/planet14_left.png,14,Community 1,NA,FALSE,j,f,NA,NA,NA,1,6,"15,13,2,10,14,12,6,4,5,1,7,8,3,11,9"
14967,commdev-image-keyboard-response,642,1578744,learnblock2,609.6000000000931,img/planet13_left.png,13,Community 1,NA,FALSE,j,f,NA,NA,NA,1,6,"15,13,2,10,14,12,6,4,5,1,7,8,3,11,9"
