subject_id,trial_type,trial_index,time_elapsed,block,rt,stimulus,planet,community,response,correct,key_press,learning_correct_response,parse,init_locations,final_locations,browser_interactions,num_comp,planet_map
14702,commdev-instructions,7,57359,NA,853.4000000953674,"<p>In this game, you are a scientist on board a space shuttle. </p><p> On each mission, you will visit planets all across the universe.</p><img src=""img/controlroom.jpg"" width=300vw>",NA,NA,NA,NA,NA,NA,NA,NA,NA,3,7,"11,15,14,13,2,7,3,8,9,4,6,10,1,12,5"
14702,commdev-instructions,8,60028,NA,597.4000000953674,"<p>Here are a few planets you might see:</p><img src=""img/practice1.png"" width=200vw><img src=""img/practice2.png"" width=200vw><img src=""img/practice3.png"" width=200vw>",NA,NA,NA,NA,NA,NA,NA,NA,NA,3,7,"11,15,14,13,2,7,3,8,9,4,6,10,1,12,5"
14702,commdev-instructions,9,67918,NA,494.09999990463257,"<p>Your job as a scientist is to record which direction the winds are moving on each planet.</p><p>There are two types of wind directions:</p><img src=""img/practice1_left.png"" width=200vw><img src=""img/practice1_right.png"" width=200vw>",NA,NA,NA,NA,NA,NA,NA,NA,NA,3,7,"11,15,14,13,2,7,3,8,9,4,6,10,1,12,5"
14702,commdev-instructions,10,73438,NA,644.8000001907349,"<p>If the winds are moving this way, press the letter <strong>F</strong> on the keyboard as fast as you can.</p><img src=""img/leftwind.png"" width=250vw>",NA,NA,NA,NA,NA,NA,NA,NA,NA,3,7,"11,15,14,13,2,7,3,8,9,4,6,10,1,12,5"
14702,commdev-instructions,11,78462,NA,531.0999999046326,"<p>If the winds are moving this way, press the letter <strong>J</strong> on the keyboard as fast as you can.</p><img src=""img/rightwind.png"" width=350vw>",NA,NA,NA,NA,NA,NA,NA,NA,NA,3,7,"11,15,14,13,2,7,3,8,9,4,6,10,1,12,5"
14702,commdev-instructions,12,83632,NA,743.7999997138977,<p>You will have 1 second to respond. Try to respond before the time runs out!,NA,NA,NA,NA,NA,NA,NA,NA,NA,3,7,"11,15,14,13,2,7,3,8,9,4,6,10,1,12,5"
14702,commdev-instructions,13,89590,NA,530.9000000953674,<p>The planets you will visit will look different from each other.</p><p>You should respond <strong>only</strong> based on wind direction.,NA,NA,NA,NA,NA,NA,NA,NA,NA,3,7,"11,15,14,13,2,7,3,8,9,4,6,10,1,12,5"
14702,commdev-instructions,14,95796,NA,1036.3999996185303,"<p> Ready to start the practice round? </p><p> Remember, press <strong>F</strong> or <strong>J</strong> depending on the wind direction.<br><img src=""img/categorize_planet_example.png""",NA,NA,NA,NA,NA,NA,NA,NA,NA,3,7,"11,15,14,13,2,7,3,8,9,4,6,10,1,12,5"
14702,commdev-instructions,26,144389,NA,897.5,"<p>Great, now try a short practice mission. </p><p> This time, you will have 1 second to respond and you won't know whether you pressed the right or wrong key for each planet.</p>",NA,NA,NA,NA,NA,NA,NA,NA,NA,3,7,"11,15,14,13,2,7,3,8,9,4,6,10,1,12,5"
14702,commdev-image-keyboard-response,27,145741,practice,1125.7000002861023,img/practice1_left.png,NA,Number not found in mappings,NA,TRUE,f,f,NA,NA,NA,3,7,"11,15,14,13,2,7,3,8,9,4,6,10,1,12,5"
14702,commdev-image-keyboard-response,28,146994,practice,null,img/practice3_right.png,NA,Number not found in mappings,NA,FALSE,null,j,NA,NA,NA,3,7,"11,15,14,13,2,7,3,8,9,4,6,10,1,12,5"
14702,commdev-image-keyboard-response,29,148245,practice,2.5,img/practice1_left.png,NA,Number not found in mappings,NA,FALSE,j,f,NA,NA,NA,3,7,"11,15,14,13,2,7,3,8,9,4,6,10,1,12,5"
14702,commdev-image-keyboard-response,30,149498,practice,729.9000000953674,img/practice2_left.png,NA,Number not found in mappings,NA,TRUE,f,f,NA,NA,NA,3,7,"11,15,14,13,2,7,3,8,9,4,6,10,1,12,5"
14702,commdev-image-keyboard-response,31,150749,practice,null,img/practice1_left.png,NA,Number not found in mappings,NA,FALSE,null,f,NA,NA,NA,3,7,"11,15,14,13,2,7,3,8,9,4,6,10,1,12,5"
14702,commdev-image-keyboard-response,32,152001,practice,12.299999713897705,img/practice2_left.png,NA,Number not found in mappings,NA,TRUE,f,f,NA,NA,NA,3,7,"11,15,14,13,2,7,3,8,9,4,6,10,1,12,5"
14702,commdev-image-keyboard-response,33,153253,practice,649.8000001907349,img/practice4_right.png,NA,Number not found in mappings,NA,TRUE,j,j,NA,NA,NA,3,7,"11,15,14,13,2,7,3,8,9,4,6,10,1,12,5"
14702,commdev-image-keyboard-response,34,154505,practice,552.5,img/practice3_left.png,NA,Number not found in mappings,NA,TRUE,f,f,NA,NA,NA,3,7,"11,15,14,13,2,7,3,8,9,4,6,10,1,12,5"
14702,commdev-instructions,35,164812,NA,754.0999999046326,"<p>Great job with the practice round.</p><p>During real missions, you won't know whether you pressed the right or wrong key for each planet.</p><p>But between missions, we will tell you how you did overall.</p>",NA,NA,NA,NA,NA,NA,NA,NA,NA,3,7,"11,15,14,13,2,7,3,8,9,4,6,10,1,12,5"
14702,commdev-instructions,36,175078,NA,2028.1999998092651,<p>Try your best! You will be paid a bonus based on how many correct responses you make!</p><p>Responses that are too slow will not count toward your bonus.</p>,NA,NA,NA,NA,NA,NA,NA,NA,NA,3,7,"11,15,14,13,2,7,3,8,9,4,6,10,1,12,5"
14702,commdev-instructions,37,181550,NA,268.40000009536743,"<p>You are almost ready to start the real game.</p><p> First, we are going to ask you some questions about how the game works.</p>",NA,NA,NA,NA,NA,NA,NA,NA,NA,3,7,"11,15,14,13,2,7,3,8,9,4,6,10,1,12,5"
14702,commdev-instructions,46,256830,NA,1459.1999998092651,"<p> Nice work! It is now time to start the real game.<p></p>You will go on two missions to record wind directions of different planets.<p></p>Each one will take about 5 minutes. You will get to take a break between missions.<p><p> Remember, press <strong>F</strong> or <strong>J</strong> depending on the wind direction. Good luck!<br><img src=""img/categorize_planet_example.png""",NA,NA,NA,NA,NA,NA,NA,NA,NA,3,7,"11,15,14,13,2,7,3,8,9,4,6,10,1,12,5"
14702,commdev-image-keyboard-response,48,260676,learnblock1,1019.2999997138977,img/planet1_left.png,1,Community 3,NA,FALSE,j,f,NA,NA,NA,3,7,"11,15,14,13,2,7,3,8,9,4,6,10,1,12,5"
14702,commdev-image-keyboard-response,49,261928,learnblock1,996.8000001907349,img/planet5_right.png,5,Community 3,NA,TRUE,j,j,NA,NA,NA,3,7,"11,15,14,13,2,7,3,8,9,4,6,10,1,12,5"
14702,commdev-image-keyboard-response,50,263180,learnblock1,810.1999998092651,img/planet12_right.png,12,Community 3,NA,TRUE,j,j,NA,NA,NA,3,7,"11,15,14,13,2,7,3,8,9,4,6,10,1,12,5"
14702,commdev-image-keyboard-response,51,264432,learnblock1,818.2000002861023,img/planet6_right.png,6,Community 3,NA,TRUE,j,j,NA,NA,NA,3,7,"11,15,14,13,2,7,3,8,9,4,6,10,1,12,5"
14702,commdev-image-keyboard-response,52,265684,learnblock1,1141.1999998092651,img/planet12_right.png,12,Community 3,NA,TRUE,j,j,NA,NA,NA,3,7,"11,15,14,13,2,7,3,8,9,4,6,10,1,12,5"
14702,commdev-image-keyboard-response,53,266935,learnblock1,834.7000002861023,img/planet5_left.png,5,Community 3,NA,TRUE,f,f,NA,NA,NA,3,7,"11,15,14,13,2,7,3,8,9,4,6,10,1,12,5"
14702,commdev-image-keyboard-response,54,268187,learnblock1,768.1000003814697,img/planet6_left.png,6,Community 3,NA,TRUE,f,f,NA,NA,NA,3,7,"11,15,14,13,2,7,3,8,9,4,6,10,1,12,5"
14702,commdev-image-keyboard-response,55,269439,learnblock1,655.9000000953674,img/planet2_left.png,2,Community 1,NA,TRUE,f,f,NA,NA,NA,3,7,"11,15,14,13,2,7,3,8,9,4,6,10,1,12,5"
14702,commdev-image-keyboard-response,56,270691,learnblock1,664,img/planet15_right.png,15,Community 1,NA,TRUE,j,j,NA,NA,NA,3,7,"11,15,14,13,2,7,3,8,9,4,6,10,1,12,5"
14702,commdev-image-keyboard-response,57,271944,learnblock1,537.0999999046326,img/planet11_right.png,11,Community 1,NA,TRUE,j,j,NA,NA,NA,3,7,"11,15,14,13,2,7,3,8,9,4,6,10,1,12,5"
14702,commdev-image-keyboard-response,58,273196,learnblock1,694.5,img/planet13_right.png,13,Community 1,NA,TRUE,j,j,NA,NA,NA,3,7,"11,15,14,13,2,7,3,8,9,4,6,10,1,12,5"
14702,commdev-image-keyboard-response,59,274447,learnblock1,627.2999997138977,img/planet7_right.png,7,Community 2,NA,TRUE,j,j,NA,NA,NA,3,7,"11,15,14,13,2,7,3,8,9,4,6,10,1,12,5"
14702,commdev-image-keyboard-response,60,275699,learnblock1,575.6999998092651,img/planet9_right.png,9,Community 2,NA,TRUE,j,j,NA,NA,NA,3,7,"11,15,14,13,2,7,3,8,9,4,6,10,1,12,5"
14702,commdev-image-keyboard-response,61,276952,learnblock1,538.6999998092651,img/planet8_left.png,8,Community 2,NA,TRUE,f,f,NA,NA,NA,3,7,"11,15,14,13,2,7,3,8,9,4,6,10,1,12,5"
14702,commdev-image-keyboard-response,62,278203,learnblock1,456.59999990463257,img/planet9_right.png,9,Community 2,NA,TRUE,j,j,NA,NA,NA,3,7,"11,15,14,13,2,7,3,8,9,4,6,10,1,12,5"
14702,commdev-image-keyboard-response,63,279454,learnblock1,539.7999997138977,img/planet7_right.png,7,Community 2,NA,TRUE,j,j,NA,NA,NA,3,7,"11,15,14,13,2,7,3,8,9,4,6,10,1,12,5"
14702,commdev-image-keyboard-response,64,280706,learnblock1,399.09999990463257,img/planet9_left.png,9,Community 2,NA,FALSE,j,f,NA,NA,NA,3,7,"11,15,14,13,2,7,3,8,9,4,6,10,1,12,5"
14702,commdev-image-keyboard-response,65,281957,learnblock1,707.8000001907349,img/planet3_right.png,3,Community 2,NA,TRUE,j,j,NA,NA,NA,3,7,"11,15,14,13,2,7,3,8,9,4,6,10,1,12,5"
14702,commdev-image-keyboard-response,66,283209,learnblock1,656.1999998092651,img/planet7_right.png,7,Community 2,NA,TRUE,j,j,NA,NA,NA,3,7,"11,15,14,13,2,7,3,8,9,4,6,10,1,12,5"
14702,commdev-image-keyboard-response,67,284461,learnblock1,663.8999996185303,img/planet3_left.png,3,Community 2,NA,TRUE,f,f,NA,NA,NA,3,7,"11,15,14,13,2,7,3,8,9,4,6,10,1,12,5"
14702,commdev-image-keyboard-response,68,285713,learnblock1,552.5999999046326,img/planet9_right.png,9,Community 2,NA,TRUE,j,j,NA,NA,NA,3,7,"11,15,14,13,2,7,3,8,9,4,6,10,1,12,5"
14702,commdev-image-keyboard-response,69,286965,learnblock1,516.1000003814697,img/planet4_right.png,4,Community 2,NA,TRUE,j,j,NA,NA,NA,3,7,"11,15,14,13,2,7,3,8,9,4,6,10,1,12,5"
14702,commdev-image-keyboard-response,70,288216,learnblock1,673.9000000953674,img/planet3_left.png,3,Community 2,NA,TRUE,f,f,NA,NA,NA,3,7,"11,15,14,13,2,7,3,8,9,4,6,10,1,12,5"
14702,commdev-image-keyboard-response,71,289468,learnblock1,397.40000009536743,img/planet4_right.png,4,Community 2,NA,TRUE,j,j,NA,NA,NA,3,7,"11,15,14,13,2,7,3,8,9,4,6,10,1,12,5"
14702,commdev-image-keyboard-response,72,290720,learnblock1,390.2999997138977,img/planet9_left.png,9,Community 2,NA,TRUE,f,f,NA,NA,NA,3,7,"11,15,14,13,2,7,3,8,9,4,6,10,1,12,5"
14702,commdev-image-keyboard-response,73,291972,learnblock1,248.59999990463257,img/planet7_right.png,7,Community 2,NA,TRUE,j,j,NA,NA,NA,3,7,"11,15,14,13,2,7,3,8,9,4,6,10,1,12,5"
14702,commdev-image-keyboard-response,74,293223,learnblock1,677.0999999046326,img/planet3_right.png,3,Community 2,NA,TRUE,j,j,NA,NA,NA,3,7,"11,15,14,13,2,7,3,8,9,4,6,10,1,12,5"
14702,commdev-image-keyboard-response,75,294474,learnblock1,565.4000000953674,img/planet9_right.png,9,Community 2,NA,TRUE,j,j,NA,NA,NA,3,7,"11,15,14,13,2,7,3,8,9,4,6,10,1,12,5"
14702,commdev-image-keyboard-response,76,295726,learnblock1,439.5,img/planet4_right.png,4,Community 2,NA,TRUE,j,j,NA,NA,NA,3,7,"11,15,14,13,2,7,3,8,9,4,6,10,1,12,5"
14702,commdev-image-keyboard-response,77,296978,learnblock1,448,img/planet8_right.png,8,Community 2,NA,TRUE,j,j,NA,NA,NA,3,7,"11,15,14,13,2,7,3,8,9,4,6,10,1,12,5"
14702,commdev-image-keyboard-response,78,298229,learnblock1,500.19999980926514,img/planet3_right.png,3,Community 2,NA,TRUE,j,j,NA,NA,NA,3,7,"11,15,14,13,2,7,3,8,9,4,6,10,1,12,5"
14702,commdev-image-keyboard-response,79,299481,learnblock1,494.19999980926514,img/planet4_left.png,4,Community 2,NA,TRUE,f,f,NA,NA,NA,3,7,"11,15,14,13,2,7,3,8,9,4,6,10,1,12,5"
14702,commdev-image-keyboard-response,80,300733,learnblock1,247.7000002861023,img/planet9_right.png,9,Community 2,NA,TRUE,j,j,NA,NA,NA,3,7,"11,15,14,13,2,7,3,8,9,4,6,10,1,12,5"
14702,commdev-image-keyboard-response,81,301985,learnblock1,511.40000009536743,img/planet7_right.png,7,Community 2,NA,TRUE,j,j,NA,NA,NA,3,7,"11,15,14,13,2,7,3,8,9,4,6,10,1,12,5"
14702,commdev-image-keyboard-response,82,303237,learnblock1,489.09999990463257,img/planet13_right.png,13,Community 1,NA,TRUE,j,j,NA,NA,NA,3,7,"11,15,14,13,2,7,3,8,9,4,6,10,1,12,5"
14702,commdev-image-keyboard-response,83,304489,learnblock1,436.59999990463257,img/planet11_right.png,11,Community 1,NA,TRUE,j,j,NA,NA,NA,3,7,"11,15,14,13,2,7,3,8,9,4,6,10,1,12,5"
14702,commdev-image-keyboard-response,84,305740,learnblock1,339.7999997138977,img/planet14_right.png,14,Community 1,NA,TRUE,j,j,NA,NA,NA,3,7,"11,15,14,13,2,7,3,8,9,4,6,10,1,12,5"
14702,commdev-image-keyboard-response,85,306991,learnblock1,333.5,img/planet15_left.png,15,Community 1,NA,FALSE,j,f,NA,NA,NA,3,7,"11,15,14,13,2,7,3,8,9,4,6,10,1,12,5"
14702,commdev-image-keyboard-response,86,308242,learnblock1,357.7999997138977,img/planet13_right.png,13,Community 1,NA,TRUE,j,j,NA,NA,NA,3,7,"11,15,14,13,2,7,3,8,9,4,6,10,1,12,5"
14702,commdev-image-keyboard-response,87,309493,learnblock1,486.7999997138977,img/planet11_left.png,11,Community 1,NA,FALSE,j,f,NA,NA,NA,3,7,"11,15,14,13,2,7,3,8,9,4,6,10,1,12,5"
14702,commdev-image-keyboard-response,88,310745,learnblock1,450.7999997138977,img/planet14_left.png,14,Community 1,NA,FALSE,j,f,NA,NA,NA,3,7,"11,15,14,13,2,7,3,8,9,4,6,10,1,12,5"
14702,commdev-image-keyboard-response,89,311997,learnblock1,83.30000019073486,img/planet2_left.png,2,Community 1,NA,TRUE,f,f,NA,NA,NA,3,7,"11,15,14,13,2,7,3,8,9,4,6,10,1,12,5"
14702,commdev-image-keyboard-response,90,313249,learnblock1,271.59999990463257,img/planet11_right.png,11,Community 1,NA,FALSE,f,j,NA,NA,NA,3,7,"11,15,14,13,2,7,3,8,9,4,6,10,1,12,5"
14702,commdev-image-keyboard-response,91,314501,learnblock1,1135,img/planet15_right.png,15,Community 1,NA,TRUE,j,j,NA,NA,NA,3,7,"11,15,14,13,2,7,3,8,9,4,6,10,1,12,5"
14702,commdev-image-keyboard-response,92,315754,learnblock1,1037.5999999046326,img/planet2_right.png,2,Community 1,NA,TRUE,j,j,NA,NA,NA,3,7,"11,15,14,13,2,7,3,8,9,4,6,10,1,12,5"
14702,commdev-image-keyboard-response,93,317005,learnblock1,700.3000001907349,img/planet6_left.png,6,Community 3,NA,TRUE,f,f,NA,NA,NA,3,7,"11,15,14,13,2,7,3,8,9,4,6,10,1,12,5"
14702,commdev-image-keyboard-response,94,318257,learnblock1,514.5999999046326,img/planet5_right.png,5,Community 3,NA,TRUE,j,j,NA,NA,NA,3,7,"11,15,14,13,2,7,3,8,9,4,6,10,1,12,5"
14702,commdev-image-keyboard-response,95,319509,learnblock1,611.9000000953674,img/planet12_left.png,12,Community 3,NA,TRUE,f,f,NA,NA,NA,3,7,"11,15,14,13,2,7,3,8,9,4,6,10,1,12,5"
14702,commdev-image-keyboard-response,96,320761,learnblock1,469.40000009536743,img/planet6_left.png,6,Community 3,NA,FALSE,j,f,NA,NA,NA,3,7,"11,15,14,13,2,7,3,8,9,4,6,10,1,12,5"
14702,commdev-image-keyboard-response,97,322013,learnblock1,868.5999999046326,img/planet12_right.png,12,Community 3,NA,TRUE,j,j,NA,NA,NA,3,7,"11,15,14,13,2,7,3,8,9,4,6,10,1,12,5"
14702,commdev-image-keyboard-response,98,323265,learnblock1,771.4000000953674,img/planet6_right.png,6,Community 3,NA,FALSE,f,j,NA,NA,NA,3,7,"11,15,14,13,2,7,3,8,9,4,6,10,1,12,5"
14702,commdev-image-keyboard-response,99,324516,learnblock1,749.2999997138977,img/planet1_right.png,1,Community 3,NA,TRUE,j,j,NA,NA,NA,3,7,"11,15,14,13,2,7,3,8,9,4,6,10,1,12,5"
14702,commdev-image-keyboard-response,100,325766,learnblock1,774.0999999046326,img/planet6_right.png,6,Community 3,NA,TRUE,j,j,NA,NA,NA,3,7,"11,15,14,13,2,7,3,8,9,4,6,10,1,12,5"
14702,commdev-image-keyboard-response,101,327019,learnblock1,828,img/planet12_right.png,12,Community 3,NA,TRUE,j,j,NA,NA,NA,3,7,"11,15,14,13,2,7,3,8,9,4,6,10,1,12,5"
14702,commdev-image-keyboard-response,102,328270,learnblock1,776,img/planet10_right.png,10,Community 3,NA,TRUE,j,j,NA,NA,NA,3,7,"11,15,14,13,2,7,3,8,9,4,6,10,1,12,5"
14702,commdev-image-keyboard-response,103,329522,learnblock1,664.3999996185303,img/planet1_right.png,1,Community 3,NA,TRUE,j,j,NA,NA,NA,3,7,"11,15,14,13,2,7,3,8,9,4,6,10,1,12,5"
14702,commdev-image-keyboard-response,104,330774,learnblock1,627.1999998092651,img/planet5_left.png,5,Community 3,NA,TRUE,f,f,NA,NA,NA,3,7,"11,15,14,13,2,7,3,8,9,4,6,10,1,12,5"
14702,commdev-image-keyboard-response,105,332025,learnblock1,590.8000001907349,img/planet1_right.png,1,Community 3,NA,TRUE,j,j,NA,NA,NA,3,7,"11,15,14,13,2,7,3,8,9,4,6,10,1,12,5"
14702,commdev-image-keyboard-response,106,333277,learnblock1,689.2000002861023,img/planet12_right.png,12,Community 3,NA,TRUE,j,j,NA,NA,NA,3,7,"11,15,14,13,2,7,3,8,9,4,6,10,1,12,5"
14702,commdev-image-keyboard-response,107,334528,learnblock1,802.4000000953674,img/planet10_right.png,10,Community 3,NA,TRUE,j,j,NA,NA,NA,3,7,"11,15,14,13,2,7,3,8,9,4,6,10,1,12,5"
14702,commdev-image-keyboard-response,108,335779,learnblock1,676.6000003814697,img/planet5_left.png,5,Community 3,NA,TRUE,f,f,NA,NA,NA,3,7,"11,15,14,13,2,7,3,8,9,4,6,10,1,12,5"
14702,commdev-image-keyboard-response,109,337030,learnblock1,505.40000009536743,img/planet10_left.png,10,Community 3,NA,FALSE,j,f,NA,NA,NA,3,7,"11,15,14,13,2,7,3,8,9,4,6,10,1,12,5"
14702,commdev-image-keyboard-response,110,338282,learnblock1,663.5,img/planet5_left.png,5,Community 3,NA,TRUE,f,f,NA,NA,NA,3,7,"11,15,14,13,2,7,3,8,9,4,6,10,1,12,5"
14702,commdev-image-keyboard-response,111,339535,learnblock1,657.6999998092651,img/planet6_right.png,6,Community 3,NA,TRUE,j,j,NA,NA,NA,3,7,"11,15,14,13,2,7,3,8,9,4,6,10,1,12,5"
14702,commdev-image-keyboard-response,112,340786,learnblock1,770.2000002861023,img/planet2_right.png,2,Community 1,NA,TRUE,j,j,NA,NA,NA,3,7,"11,15,14,13,2,7,3,8,9,4,6,10,1,12,5"
14702,commdev-image-keyboard-response,113,342038,learnblock1,508,img/planet15_left.png,15,Community 1,NA,TRUE,f,f,NA,NA,NA,3,7,"11,15,14,13,2,7,3,8,9,4,6,10,1,12,5"
14702,commdev-image-keyboard-response,114,343289,learnblock1,337,img/planet13_left.png,13,Community 1,NA,FALSE,j,f,NA,NA,NA,3,7,"11,15,14,13,2,7,3,8,9,4,6,10,1,12,5"
14702,commdev-image-keyboard-response,115,344540,learnblock1,705.5,img/planet11_left.png,11,Community 1,NA,TRUE,f,f,NA,NA,NA,3,7,"11,15,14,13,2,7,3,8,9,4,6,10,1,12,5"
14702,commdev-image-keyboard-response,116,345792,learnblock1,729.8000001907349,img/planet14_left.png,14,Community 1,NA,TRUE,f,f,NA,NA,NA,3,7,"11,15,14,13,2,7,3,8,9,4,6,10,1,12,5"
14702,commdev-image-keyboard-response,117,347044,learnblock1,708,img/planet15_left.png,15,Community 1,NA,TRUE,f,f,NA,NA,NA,3,7,"11,15,14,13,2,7,3,8,9,4,6,10,1,12,5"
14702,commdev-image-keyboard-response,118,348296,learnblock1,491.2000002861023,img/planet11_right.png,11,Community 1,NA,TRUE,j,j,NA,NA,NA,3,7,"11,15,14,13,2,7,3,8,9,4,6,10,1,12,5"
14702,commdev-image-keyboard-response,119,349547,learnblock1,634.5,img/planet13_right.png,13,Community 1,NA,FALSE,f,j,NA,NA,NA,3,7,"11,15,14,13,2,7,3,8,9,4,6,10,1,12,5"
14702,commdev-image-keyboard-response,120,350799,learnblock1,1137.7999997138977,img/planet15_right.png,15,Community 1,NA,FALSE,f,j,NA,NA,NA,3,7,"11,15,14,13,2,7,3,8,9,4,6,10,1,12,5"
14702,commdev-image-keyboard-response,121,352051,learnblock1,665.8000001907349,img/planet2_left.png,2,Community 1,NA,TRUE,f,f,NA,NA,NA,3,7,"11,15,14,13,2,7,3,8,9,4,6,10,1,12,5"
14702,commdev-image-keyboard-response,122,353302,learnblock1,659.3000001907349,img/planet14_right.png,14,Community 1,NA,TRUE,j,j,NA,NA,NA,3,7,"11,15,14,13,2,7,3,8,9,4,6,10,1,12,5"
14702,commdev-image-keyboard-response,123,354554,learnblock1,668.1999998092651,img/planet13_right.png,13,Community 1,NA,TRUE,j,j,NA,NA,NA,3,7,"11,15,14,13,2,7,3,8,9,4,6,10,1,12,5"
14702,commdev-image-keyboard-response,124,355806,learnblock1,571,img/planet15_left.png,15,Community 1,NA,TRUE,f,f,NA,NA,NA,3,7,"11,15,14,13,2,7,3,8,9,4,6,10,1,12,5"
14702,commdev-image-keyboard-response,125,357058,learnblock1,549.5,img/planet14_left.png,14,Community 1,NA,FALSE,j,f,NA,NA,NA,3,7,"11,15,14,13,2,7,3,8,9,4,6,10,1,12,5"
14702,commdev-image-keyboard-response,126,358309,learnblock1,646.9000000953674,img/planet2_left.png,2,Community 1,NA,FALSE,j,f,NA,NA,NA,3,7,"11,15,14,13,2,7,3,8,9,4,6,10,1,12,5"
14702,commdev-image-keyboard-response,127,359560,learnblock1,926.4000000953674,img/planet11_left.png,11,Community 1,NA,TRUE,f,f,NA,NA,NA,3,7,"11,15,14,13,2,7,3,8,9,4,6,10,1,12,5"
14702,commdev-image-keyboard-response,128,360812,learnblock1,1130.0999999046326,img/planet14_right.png,14,Community 1,NA,TRUE,j,j,NA,NA,NA,3,7,"11,15,14,13,2,7,3,8,9,4,6,10,1,12,5"
14702,commdev-image-keyboard-response,129,362064,learnblock1,882.5999999046326,img/planet15_right.png,15,Community 1,NA,TRUE,j,j,NA,NA,NA,3,7,"11,15,14,13,2,7,3,8,9,4,6,10,1,12,5"
14702,commdev-image-keyboard-response,130,363316,learnblock1,830.1999998092651,img/planet13_left.png,13,Community 1,NA,TRUE,f,f,NA,NA,NA,3,7,"11,15,14,13,2,7,3,8,9,4,6,10,1,12,5"
14702,commdev-image-keyboard-response,131,364567,learnblock1,584.5,img/planet15_right.png,15,Community 1,NA,TRUE,j,j,NA,NA,NA,3,7,"11,15,14,13,2,7,3,8,9,4,6,10,1,12,5"
14702,commdev-image-keyboard-response,132,365817,learnblock1,549.3000001907349,img/planet13_left.png,13,Community 1,NA,TRUE,f,f,NA,NA,NA,3,7,"11,15,14,13,2,7,3,8,9,4,6,10,1,12,5"
14702,commdev-image-keyboard-response,133,367069,learnblock1,498.59999990463257,img/planet14_right.png,14,Community 1,NA,TRUE,j,j,NA,NA,NA,3,7,"11,15,14,13,2,7,3,8,9,4,6,10,1,12,5"
14702,commdev-image-keyboard-response,134,368319,learnblock1,506.59999990463257,img/planet15_right.png,15,Community 1,NA,FALSE,f,j,NA,NA,NA,3,7,"11,15,14,13,2,7,3,8,9,4,6,10,1,12,5"
14702,commdev-image-keyboard-response,135,369570,learnblock1,726,img/planet13_left.png,13,Community 1,NA,TRUE,f,f,NA,NA,NA,3,7,"11,15,14,13,2,7,3,8,9,4,6,10,1,12,5"
14702,commdev-image-keyboard-response,136,370821,learnblock1,690.6999998092651,img/planet14_left.png,14,Community 1,NA,FALSE,j,f,NA,NA,NA,3,7,"11,15,14,13,2,7,3,8,9,4,6,10,1,12,5"
14702,commdev-image-keyboard-response,137,372072,learnblock1,909.4000000953674,img/planet11_left.png,11,Community 1,NA,TRUE,f,f,NA,NA,NA,3,7,"11,15,14,13,2,7,3,8,9,4,6,10,1,12,5"
14702,commdev-image-keyboard-response,138,373323,learnblock1,573,img/planet15_right.png,15,Community 1,NA,TRUE,j,j,NA,NA,NA,3,7,"11,15,14,13,2,7,3,8,9,4,6,10,1,12,5"
14702,commdev-image-keyboard-response,139,374575,learnblock1,612.1999998092651,img/planet2_left.png,2,Community 1,NA,FALSE,j,f,NA,NA,NA,3,7,"11,15,14,13,2,7,3,8,9,4,6,10,1,12,5"
14702,commdev-image-keyboard-response,140,375827,learnblock1,710.3999996185303,img/planet11_right.png,11,Community 1,NA,TRUE,j,j,NA,NA,NA,3,7,"11,15,14,13,2,7,3,8,9,4,6,10,1,12,5"
14702,commdev-image-keyboard-response,141,377079,learnblock1,898.0999999046326,img/planet15_right.png,15,Community 1,NA,TRUE,j,j,NA,NA,NA,3,7,"11,15,14,13,2,7,3,8,9,4,6,10,1,12,5"
14702,commdev-image-keyboard-response,142,378330,learnblock1,726.0999999046326,img/planet2_right.png,2,Community 1,NA,TRUE,j,j,NA,NA,NA,3,7,"11,15,14,13,2,7,3,8,9,4,6,10,1,12,5"
14702,commdev-image-keyboard-response,143,379581,learnblock1,585.4000000953674,img/planet11_left.png,11,Community 1,NA,TRUE,f,f,NA,NA,NA,3,7,"11,15,14,13,2,7,3,8,9,4,6,10,1,12,5"
14702,commdev-image-keyboard-response,144,380833,learnblock1,594.5999999046326,img/planet15_right.png,15,Community 1,NA,TRUE,j,j,NA,NA,NA,3,7,"11,15,14,13,2,7,3,8,9,4,6,10,1,12,5"
14702,commdev-image-keyboard-response,145,382085,learnblock1,827.7999997138977,img/planet14_right.png,14,Community 1,NA,TRUE,j,j,NA,NA,NA,3,7,"11,15,14,13,2,7,3,8,9,4,6,10,1,12,5"
14702,commdev-image-keyboard-response,146,383337,learnblock1,640.5,img/planet15_left.png,15,Community 1,NA,TRUE,f,f,NA,NA,NA,3,7,"11,15,14,13,2,7,3,8,9,4,6,10,1,12,5"
14702,commdev-image-keyboard-response,147,384589,learnblock1,664,img/planet2_left.png,2,Community 1,NA,TRUE,f,f,NA,NA,NA,3,7,"11,15,14,13,2,7,3,8,9,4,6,10,1,12,5"
14702,commdev-image-keyboard-response,148,385840,learnblock1,491.5,img/planet15_left.png,15,Community 1,NA,TRUE,f,f,NA,NA,NA,3,7,"11,15,14,13,2,7,3,8,9,4,6,10,1,12,5"
14702,commdev-image-keyboard-response,149,387092,learnblock1,561.2000002861023,img/planet13_left.png,13,Community 1,NA,TRUE,f,f,NA,NA,NA,3,7,"11,15,14,13,2,7,3,8,9,4,6,10,1,12,5"
14702,commdev-image-keyboard-response,150,388344,learnblock1,448.8999996185303,img/planet11_right.png,11,Community 1,NA,TRUE,j,j,NA,NA,NA,3,7,"11,15,14,13,2,7,3,8,9,4,6,10,1,12,5"
14702,commdev-image-keyboard-response,151,389595,learnblock1,577,img/planet14_left.png,14,Community 1,NA,TRUE,f,f,NA,NA,NA,3,7,"11,15,14,13,2,7,3,8,9,4,6,10,1,12,5"
14702,commdev-image-keyboard-response,152,390847,learnblock1,556,img/planet11_left.png,11,Community 1,NA,TRUE,f,f,NA,NA,NA,3,7,"11,15,14,13,2,7,3,8,9,4,6,10,1,12,5"
14702,commdev-image-keyboard-response,153,392100,learnblock1,473.40000009536743,img/planet2_left.png,2,Community 1,NA,TRUE,f,f,NA,NA,NA,3,7,"11,15,14,13,2,7,3,8,9,4,6,10,1,12,5"
14702,commdev-image-keyboard-response,154,393350,learnblock1,376.7000002861023,img/planet11_left.png,11,Community 1,NA,TRUE,f,f,NA,NA,NA,3,7,"11,15,14,13,2,7,3,8,9,4,6,10,1,12,5"
14702,commdev-image-keyboard-response,155,394602,learnblock1,565.2999997138977,img/planet2_right.png,2,Community 1,NA,FALSE,f,j,NA,NA,NA,3,7,"11,15,14,13,2,7,3,8,9,4,6,10,1,12,5"
14702,commdev-image-keyboard-response,156,395853,learnblock1,768.8000001907349,img/planet15_right.png,15,Community 1,NA,FALSE,f,j,NA,NA,NA,3,7,"11,15,14,13,2,7,3,8,9,4,6,10,1,12,5"
14702,commdev-image-keyboard-response,157,397105,learnblock1,1167.9000000953674,img/planet14_left.png,14,Community 1,NA,FALSE,j,f,NA,NA,NA,3,7,"11,15,14,13,2,7,3,8,9,4,6,10,1,12,5"
14702,commdev-image-keyboard-response,158,398358,learnblock1,980.5,img/planet2_left.png,2,Community 1,NA,TRUE,f,f,NA,NA,NA,3,7,"11,15,14,13,2,7,3,8,9,4,6,10,1,12,5"
14702,commdev-image-keyboard-response,159,399610,learnblock1,928.4000000953674,img/planet14_right.png,14,Community 1,NA,TRUE,j,j,NA,NA,NA,3,7,"11,15,14,13,2,7,3,8,9,4,6,10,1,12,5"
14702,commdev-image-keyboard-response,160,400862,learnblock1,726,img/planet15_right.png,15,Community 1,NA,TRUE,j,j,NA,NA,NA,3,7,"11,15,14,13,2,7,3,8,9,4,6,10,1,12,5"
14702,commdev-image-keyboard-response,161,402113,learnblock1,629,img/planet13_right.png,13,Community 1,NA,TRUE,j,j,NA,NA,NA,3,7,"11,15,14,13,2,7,3,8,9,4,6,10,1,12,5"
14702,commdev-image-keyboard-response,162,403364,learnblock1,997.7000002861023,img/planet11_right.png,11,Community 1,NA,TRUE,j,j,NA,NA,NA,3,7,"11,15,14,13,2,7,3,8,9,4,6,10,1,12,5"
14702,commdev-image-keyboard-response,163,404615,learnblock1,812.2000002861023,img/planet14_left.png,14,Community 1,NA,TRUE,f,f,NA,NA,NA,3,7,"11,15,14,13,2,7,3,8,9,4,6,10,1,12,5"
14702,commdev-image-keyboard-response,164,405866,learnblock1,776.1999998092651,img/planet11_right.png,11,Community 1,NA,TRUE,j,j,NA,NA,NA,3,7,"11,15,14,13,2,7,3,8,9,4,6,10,1,12,5"
14702,commdev-image-keyboard-response,165,407118,learnblock1,544.5999999046326,img/planet13_left.png,13,Community 1,NA,TRUE,f,f,NA,NA,NA,3,7,"11,15,14,13,2,7,3,8,9,4,6,10,1,12,5"
14702,commdev-image-keyboard-response,166,408371,learnblock1,537.6999998092651,img/planet14_right.png,14,Community 1,NA,TRUE,j,j,NA,NA,NA,3,7,"11,15,14,13,2,7,3,8,9,4,6,10,1,12,5"
14702,commdev-image-keyboard-response,167,409622,learnblock1,605.8000001907349,img/planet2_right.png,2,Community 1,NA,TRUE,j,j,NA,NA,NA,3,7,"11,15,14,13,2,7,3,8,9,4,6,10,1,12,5"
14702,commdev-image-keyboard-response,168,410874,learnblock1,658.8000001907349,img/planet15_right.png,15,Community 1,NA,TRUE,j,j,NA,NA,NA,3,7,"11,15,14,13,2,7,3,8,9,4,6,10,1,12,5"
14702,commdev-image-keyboard-response,169,412126,learnblock1,892.8000001907349,img/planet13_right.png,13,Community 1,NA,TRUE,j,j,NA,NA,NA,3,7,"11,15,14,13,2,7,3,8,9,4,6,10,1,12,5"
14702,commdev-image-keyboard-response,170,413378,learnblock1,750.2000002861023,img/planet15_right.png,15,Community 1,NA,TRUE,j,j,NA,NA,NA,3,7,"11,15,14,13,2,7,3,8,9,4,6,10,1,12,5"
14702,commdev-image-keyboard-response,171,414629,learnblock1,458.6000003814697,img/planet2_left.png,2,Community 1,NA,TRUE,f,f,NA,NA,NA,3,7,"11,15,14,13,2,7,3,8,9,4,6,10,1,12,5"
14702,commdev-image-keyboard-response,172,415881,learnblock1,482.40000009536743,img/planet15_left.png,15,Community 1,NA,FALSE,j,f,NA,NA,NA,3,7,"11,15,14,13,2,7,3,8,9,4,6,10,1,12,5"
14702,commdev-image-keyboard-response,173,417132,learnblock1,610.4000000953674,img/planet2_left.png,2,Community 1,NA,TRUE,f,f,NA,NA,NA,3,7,"11,15,14,13,2,7,3,8,9,4,6,10,1,12,5"
14702,commdev-image-keyboard-response,174,418384,learnblock1,648.5,img/planet15_right.png,15,Community 1,NA,TRUE,j,j,NA,NA,NA,3,7,"11,15,14,13,2,7,3,8,9,4,6,10,1,12,5"
14702,commdev-image-keyboard-response,175,419636,learnblock1,942,img/planet14_right.png,14,Community 1,NA,TRUE,j,j,NA,NA,NA,3,7,"11,15,14,13,2,7,3,8,9,4,6,10,1,12,5"
14702,commdev-image-keyboard-response,176,420888,learnblock1,785.8000001907349,img/planet11_left.png,11,Community 1,NA,TRUE,f,f,NA,NA,NA,3,7,"11,15,14,13,2,7,3,8,9,4,6,10,1,12,5"
14702,commdev-image-keyboard-response,177,422140,learnblock1,463.2000002861023,img/planet2_right.png,2,Community 1,NA,TRUE,j,j,NA,NA,NA,3,7,"11,15,14,13,2,7,3,8,9,4,6,10,1,12,5"
14702,commdev-image-keyboard-response,178,423391,learnblock1,621.2000002861023,img/planet11_left.png,11,Community 1,NA,TRUE,f,f,NA,NA,NA,3,7,"11,15,14,13,2,7,3,8,9,4,6,10,1,12,5"
14702,commdev-image-keyboard-response,179,424642,learnblock1,315.40000009536743,img/planet14_right.png,14,Community 1,NA,TRUE,j,j,NA,NA,NA,3,7,"11,15,14,13,2,7,3,8,9,4,6,10,1,12,5"
14702,commdev-image-keyboard-response,180,425894,learnblock1,684.3000001907349,img/planet11_right.png,11,Community 1,NA,TRUE,j,j,NA,NA,NA,3,7,"11,15,14,13,2,7,3,8,9,4,6,10,1,12,5"
14702,commdev-image-keyboard-response,181,427145,learnblock1,707.5,img/planet13_right.png,13,Community 1,NA,TRUE,j,j,NA,NA,NA,3,7,"11,15,14,13,2,7,3,8,9,4,6,10,1,12,5"
14702,commdev-image-keyboard-response,182,428396,learnblock1,956.4000000953674,img/planet14_right.png,14,Community 1,NA,TRUE,j,j,NA,NA,NA,3,7,"11,15,14,13,2,7,3,8,9,4,6,10,1,12,5"
14702,commdev-image-keyboard-response,183,429647,learnblock1,695.2999997138977,img/planet2_right.png,2,Community 1,NA,TRUE,j,j,NA,NA,NA,3,7,"11,15,14,13,2,7,3,8,9,4,6,10,1,12,5"
14702,commdev-image-keyboard-response,184,430900,learnblock1,599.2999997138977,img/planet6_left.png,6,Community 3,NA,TRUE,f,f,NA,NA,NA,3,7,"11,15,14,13,2,7,3,8,9,4,6,10,1,12,5"
14702,commdev-image-keyboard-response,185,432151,learnblock1,922.3000001907349,img/planet12_right.png,12,Community 3,NA,TRUE,j,j,NA,NA,NA,3,7,"11,15,14,13,2,7,3,8,9,4,6,10,1,12,5"
14702,commdev-image-keyboard-response,186,433403,learnblock1,735,img/planet5_right.png,5,Community 3,NA,TRUE,j,j,NA,NA,NA,3,7,"11,15,14,13,2,7,3,8,9,4,6,10,1,12,5"
14702,commdev-image-keyboard-response,187,434655,learnblock1,863.8000001907349,img/planet1_right.png,1,Community 3,NA,TRUE,j,j,NA,NA,NA,3,7,"11,15,14,13,2,7,3,8,9,4,6,10,1,12,5"
14702,commdev-image-keyboard-response,188,435907,learnblock1,600.7999997138977,img/planet6_right.png,6,Community 3,NA,TRUE,j,j,NA,NA,NA,3,7,"11,15,14,13,2,7,3,8,9,4,6,10,1,12,5"
14702,commdev-image-keyboard-response,189,437159,learnblock1,445,img/planet5_left.png,5,Community 3,NA,FALSE,j,f,NA,NA,NA,3,7,"11,15,14,13,2,7,3,8,9,4,6,10,1,12,5"
14702,commdev-image-keyboard-response,190,438411,learnblock1,452.19999980926514,img/planet6_right.png,6,Community 3,NA,TRUE,j,j,NA,NA,NA,3,7,"11,15,14,13,2,7,3,8,9,4,6,10,1,12,5"
14702,commdev-image-keyboard-response,191,439663,learnblock1,475.5,img/planet5_left.png,5,Community 3,NA,FALSE,j,f,NA,NA,NA,3,7,"11,15,14,13,2,7,3,8,9,4,6,10,1,12,5"
14702,commdev-image-keyboard-response,192,440915,learnblock1,588.9000000953674,img/planet10_left.png,10,Community 3,NA,TRUE,f,f,NA,NA,NA,3,7,"11,15,14,13,2,7,3,8,9,4,6,10,1,12,5"
14702,commdev-image-keyboard-response,193,442167,learnblock1,581.4000000953674,img/planet12_left.png,12,Community 3,NA,TRUE,f,f,NA,NA,NA,3,7,"11,15,14,13,2,7,3,8,9,4,6,10,1,12,5"
14702,commdev-image-keyboard-response,194,443419,learnblock1,439.7999997138977,img/planet10_left.png,10,Community 3,NA,TRUE,f,f,NA,NA,NA,3,7,"11,15,14,13,2,7,3,8,9,4,6,10,1,12,5"
14702,commdev-image-keyboard-response,195,444670,learnblock1,553.5,img/planet8_left.png,8,Community 2,NA,TRUE,f,f,NA,NA,NA,3,7,"11,15,14,13,2,7,3,8,9,4,6,10,1,12,5"
14702,commdev-image-keyboard-response,196,445921,learnblock1,546.8000001907349,img/planet9_right.png,9,Community 2,NA,TRUE,j,j,NA,NA,NA,3,7,"11,15,14,13,2,7,3,8,9,4,6,10,1,12,5"
14702,commdev-image-keyboard-response,197,447172,learnblock1,690.6999998092651,img/planet7_left.png,7,Community 2,NA,TRUE,f,f,NA,NA,NA,3,7,"11,15,14,13,2,7,3,8,9,4,6,10,1,12,5"
14702,commdev-image-keyboard-response,198,448424,learnblock1,384.5,img/planet13_right.png,13,Community 1,NA,TRUE,j,j,NA,NA,NA,3,7,"11,15,14,13,2,7,3,8,9,4,6,10,1,12,5"
14702,commdev-image-keyboard-response,199,449676,learnblock1,363,img/planet15_right.png,15,Community 1,NA,FALSE,f,j,NA,NA,NA,3,7,"11,15,14,13,2,7,3,8,9,4,6,10,1,12,5"
14702,commdev-image-keyboard-response,200,450927,learnblock1,250.69999980926514,img/planet13_right.png,13,Community 1,NA,TRUE,j,j,NA,NA,NA,3,7,"11,15,14,13,2,7,3,8,9,4,6,10,1,12,5"
14702,commdev-image-keyboard-response,201,452179,learnblock1,634.8999996185303,img/planet15_left.png,15,Community 1,NA,TRUE,f,f,NA,NA,NA,3,7,"11,15,14,13,2,7,3,8,9,4,6,10,1,12,5"
14702,commdev-image-keyboard-response,202,453429,learnblock1,523.5999999046326,img/planet11_right.png,11,Community 1,NA,TRUE,j,j,NA,NA,NA,3,7,"11,15,14,13,2,7,3,8,9,4,6,10,1,12,5"
14702,commdev-image-keyboard-response,203,454681,learnblock1,623.0999999046326,img/planet15_right.png,15,Community 1,NA,FALSE,f,j,NA,NA,NA,3,7,"11,15,14,13,2,7,3,8,9,4,6,10,1,12,5"
14702,commdev-image-keyboard-response,204,455933,learnblock1,960.9000000953674,img/planet11_right.png,11,Community 1,NA,TRUE,j,j,NA,NA,NA,3,7,"11,15,14,13,2,7,3,8,9,4,6,10,1,12,5"
14702,commdev-image-keyboard-response,205,457185,learnblock1,789.8000001907349,img/planet13_right.png,13,Community 1,NA,TRUE,j,j,NA,NA,NA,3,7,"11,15,14,13,2,7,3,8,9,4,6,10,1,12,5"
14702,commdev-image-keyboard-response,206,458437,learnblock1,737.1000003814697,img/planet15_right.png,15,Community 1,NA,TRUE,j,j,NA,NA,NA,3,7,"11,15,14,13,2,7,3,8,9,4,6,10,1,12,5"
14702,commdev-image-keyboard-response,207,459689,learnblock1,760.0999999046326,img/planet11_left.png,11,Community 1,NA,TRUE,f,f,NA,NA,NA,3,7,"11,15,14,13,2,7,3,8,9,4,6,10,1,12,5"
14702,commdev-image-keyboard-response,208,460941,learnblock1,812.9000000953674,img/planet14_right.png,14,Community 1,NA,TRUE,j,j,NA,NA,NA,3,7,"11,15,14,13,2,7,3,8,9,4,6,10,1,12,5"
14702,commdev-image-keyboard-response,209,462193,learnblock1,776.5999999046326,img/planet2_left.png,2,Community 1,NA,TRUE,f,f,NA,NA,NA,3,7,"11,15,14,13,2,7,3,8,9,4,6,10,1,12,5"
14702,commdev-image-keyboard-response,210,463445,learnblock1,633.8000001907349,img/planet11_right.png,11,Community 1,NA,TRUE,j,j,NA,NA,NA,3,7,"11,15,14,13,2,7,3,8,9,4,6,10,1,12,5"
14702,commdev-image-keyboard-response,211,464697,learnblock1,null,img/planet14_right.png,14,Community 1,NA,FALSE,null,j,NA,NA,NA,3,7,"11,15,14,13,2,7,3,8,9,4,6,10,1,12,5"
14702,commdev-image-keyboard-response,212,465949,learnblock1,844.9000000953674,img/planet13_right.png,13,Community 1,NA,TRUE,j,j,NA,NA,NA,3,7,"11,15,14,13,2,7,3,8,9,4,6,10,1,12,5"
14702,commdev-image-keyboard-response,213,467201,learnblock1,998,img/planet11_right.png,11,Community 1,NA,TRUE,j,j,NA,NA,NA,3,7,"11,15,14,13,2,7,3,8,9,4,6,10,1,12,5"
14702,commdev-image-keyboard-response,214,468453,learnblock1,906.4000000953674,img/planet13_left.png,13,Community 1,NA,TRUE,f,f,NA,NA,NA,3,7,"11,15,14,13,2,7,3,8,9,4,6,10,1,12,5"
14702,commdev-image-keyboard-response,215,469706,learnblock1,524.5999999046326,img/planet15_right.png,15,Community 1,NA,TRUE,j,j,NA,NA,NA,3,7,"11,15,14,13,2,7,3,8,9,4,6,10,1,12,5"
14702,commdev-image-keyboard-response,216,470958,learnblock1,621.6999998092651,img/planet13_right.png,13,Community 1,NA,TRUE,j,j,NA,NA,NA,3,7,"11,15,14,13,2,7,3,8,9,4,6,10,1,12,5"
14702,commdev-image-keyboard-response,217,472209,learnblock1,510.19999980926514,img/planet14_right.png,14,Community 1,NA,FALSE,f,j,NA,NA,NA,3,7,"11,15,14,13,2,7,3,8,9,4,6,10,1,12,5"
14702,commdev-image-keyboard-response,218,473461,learnblock1,83.39999961853027,img/planet15_left.png,15,Community 1,NA,FALSE,j,f,NA,NA,NA,3,7,"11,15,14,13,2,7,3,8,9,4,6,10,1,12,5"
14702,commdev-image-keyboard-response,219,474713,learnblock1,511.5,img/planet11_right.png,11,Community 1,NA,TRUE,j,j,NA,NA,NA,3,7,"11,15,14,13,2,7,3,8,9,4,6,10,1,12,5"
14702,commdev-image-keyboard-response,220,475964,learnblock1,669.5,img/planet13_right.png,13,Community 1,NA,TRUE,j,j,NA,NA,NA,3,7,"11,15,14,13,2,7,3,8,9,4,6,10,1,12,5"
14702,commdev-image-keyboard-response,221,477216,learnblock1,543.5999999046326,img/planet15_right.png,15,Community 1,NA,TRUE,j,j,NA,NA,NA,3,7,"11,15,14,13,2,7,3,8,9,4,6,10,1,12,5"
14702,commdev-image-keyboard-response,222,478468,learnblock1,567.4000000953674,img/planet13_left.png,13,Community 1,NA,TRUE,f,f,NA,NA,NA,3,7,"11,15,14,13,2,7,3,8,9,4,6,10,1,12,5"
14702,commdev-image-keyboard-response,223,479719,learnblock1,365.30000019073486,img/planet14_left.png,14,Community 1,NA,FALSE,j,f,NA,NA,NA,3,7,"11,15,14,13,2,7,3,8,9,4,6,10,1,12,5"
14702,commdev-image-keyboard-response,224,480970,learnblock1,689,img/planet11_left.png,11,Community 1,NA,TRUE,f,f,NA,NA,NA,3,7,"11,15,14,13,2,7,3,8,9,4,6,10,1,12,5"
14702,commdev-image-keyboard-response,225,482221,learnblock1,518.4000000953674,img/planet2_right.png,2,Community 1,NA,TRUE,j,j,NA,NA,NA,3,7,"11,15,14,13,2,7,3,8,9,4,6,10,1,12,5"
14702,commdev-image-keyboard-response,226,483473,learnblock1,557.7000002861023,img/planet6_right.png,6,Community 3,NA,FALSE,f,j,NA,NA,NA,3,7,"11,15,14,13,2,7,3,8,9,4,6,10,1,12,5"
14702,commdev-image-keyboard-response,227,484724,learnblock1,295.40000009536743,img/planet1_right.png,1,Community 3,NA,TRUE,j,j,NA,NA,NA,3,7,"11,15,14,13,2,7,3,8,9,4,6,10,1,12,5"
14702,commdev-image-keyboard-response,228,485975,learnblock1,514.5999999046326,img/planet10_left.png,10,Community 3,NA,FALSE,j,f,NA,NA,NA,3,7,"11,15,14,13,2,7,3,8,9,4,6,10,1,12,5"
14702,commdev-image-keyboard-response,229,487227,learnblock1,597.5,img/planet12_right.png,12,Community 3,NA,TRUE,j,j,NA,NA,NA,3,7,"11,15,14,13,2,7,3,8,9,4,6,10,1,12,5"
14702,commdev-image-keyboard-response,230,488480,learnblock1,756.8000001907349,img/planet1_right.png,1,Community 3,NA,TRUE,j,j,NA,NA,NA,3,7,"11,15,14,13,2,7,3,8,9,4,6,10,1,12,5"
14702,commdev-image-keyboard-response,231,489731,learnblock1,568.7000002861023,img/planet5_right.png,5,Community 3,NA,TRUE,j,j,NA,NA,NA,3,7,"11,15,14,13,2,7,3,8,9,4,6,10,1,12,5"
14702,commdev-image-keyboard-response,232,490983,learnblock1,577.8000001907349,img/planet1_left.png,1,Community 3,NA,TRUE,f,f,NA,NA,NA,3,7,"11,15,14,13,2,7,3,8,9,4,6,10,1,12,5"
14702,commdev-image-keyboard-response,233,492234,learnblock1,570.8000001907349,img/planet5_left.png,5,Community 3,NA,FALSE,j,f,NA,NA,NA,3,7,"11,15,14,13,2,7,3,8,9,4,6,10,1,12,5"
14702,commdev-image-keyboard-response,234,493487,learnblock1,563.5999999046326,img/planet12_right.png,12,Community 3,NA,TRUE,j,j,NA,NA,NA,3,7,"11,15,14,13,2,7,3,8,9,4,6,10,1,12,5"
14702,commdev-image-keyboard-response,235,494739,learnblock1,826.9000000953674,img/planet1_left.png,1,Community 3,NA,TRUE,f,f,NA,NA,NA,3,7,"11,15,14,13,2,7,3,8,9,4,6,10,1,12,5"
14702,commdev-image-keyboard-response,236,495991,learnblock1,624.3999996185303,img/planet10_left.png,10,Community 3,NA,TRUE,f,f,NA,NA,NA,3,7,"11,15,14,13,2,7,3,8,9,4,6,10,1,12,5"
14702,commdev-image-keyboard-response,237,497243,learnblock1,542.5,img/planet1_right.png,1,Community 3,NA,TRUE,j,j,NA,NA,NA,3,7,"11,15,14,13,2,7,3,8,9,4,6,10,1,12,5"
14702,commdev-image-keyboard-response,238,498494,learnblock1,520.8000001907349,img/planet10_right.png,10,Community 3,NA,TRUE,j,j,NA,NA,NA,3,7,"11,15,14,13,2,7,3,8,9,4,6,10,1,12,5"
14702,commdev-image-keyboard-response,239,499746,learnblock1,574.5999999046326,img/planet1_right.png,1,Community 3,NA,TRUE,j,j,NA,NA,NA,3,7,"11,15,14,13,2,7,3,8,9,4,6,10,1,12,5"
14702,commdev-image-keyboard-response,240,500999,learnblock1,581.9000000953674,img/planet12_right.png,12,Community 3,NA,TRUE,j,j,NA,NA,NA,3,7,"11,15,14,13,2,7,3,8,9,4,6,10,1,12,5"
14702,commdev-image-keyboard-response,241,502250,learnblock1,605.0999999046326,img/planet10_right.png,10,Community 3,NA,TRUE,j,j,NA,NA,NA,3,7,"11,15,14,13,2,7,3,8,9,4,6,10,1,12,5"
14702,commdev-image-keyboard-response,242,503501,learnblock1,628.5,img/planet1_right.png,1,Community 3,NA,TRUE,j,j,NA,NA,NA,3,7,"11,15,14,13,2,7,3,8,9,4,6,10,1,12,5"
14702,commdev-image-keyboard-response,243,504752,learnblock1,517.3000001907349,img/planet5_right.png,5,Community 3,NA,TRUE,j,j,NA,NA,NA,3,7,"11,15,14,13,2,7,3,8,9,4,6,10,1,12,5"
14702,commdev-image-keyboard-response,244,506003,learnblock1,691.4000000953674,img/planet1_left.png,1,Community 3,NA,TRUE,f,f,NA,NA,NA,3,7,"11,15,14,13,2,7,3,8,9,4,6,10,1,12,5"
14702,commdev-image-keyboard-response,245,507256,learnblock1,460.2999997138977,img/planet5_right.png,5,Community 3,NA,TRUE,j,j,NA,NA,NA,3,7,"11,15,14,13,2,7,3,8,9,4,6,10,1,12,5"
14702,commdev-image-keyboard-response,246,508508,learnblock1,303.1000003814697,img/planet1_right.png,1,Community 3,NA,TRUE,j,j,NA,NA,NA,3,7,"11,15,14,13,2,7,3,8,9,4,6,10,1,12,5"
14702,commdev-image-keyboard-response,247,509760,learnblock1,295.80000019073486,img/planet10_right.png,10,Community 3,NA,TRUE,j,j,NA,NA,NA,3,7,"11,15,14,13,2,7,3,8,9,4,6,10,1,12,5"
14702,commdev-image-keyboard-response,248,511012,learnblock1,274.2999997138977,img/planet1_left.png,1,Community 3,NA,FALSE,j,f,NA,NA,NA,3,7,"11,15,14,13,2,7,3,8,9,4,6,10,1,12,5"
14702,commdev-image-keyboard-response,249,512264,learnblock1,611.9000000953674,img/planet5_right.png,5,Community 3,NA,TRUE,j,j,NA,NA,NA,3,7,"11,15,14,13,2,7,3,8,9,4,6,10,1,12,5"
14702,commdev-image-keyboard-response,250,513514,learnblock1,425.40000009536743,img/planet12_right.png,12,Community 3,NA,TRUE,j,j,NA,NA,NA,3,7,"11,15,14,13,2,7,3,8,9,4,6,10,1,12,5"
14702,commdev-image-keyboard-response,251,514767,learnblock1,404.7999997138977,img/planet5_right.png,5,Community 3,NA,TRUE,j,j,NA,NA,NA,3,7,"11,15,14,13,2,7,3,8,9,4,6,10,1,12,5"
14702,commdev-image-keyboard-response,252,516018,learnblock1,442.09999990463257,img/planet6_right.png,6,Community 3,NA,FALSE,f,j,NA,NA,NA,3,7,"11,15,14,13,2,7,3,8,9,4,6,10,1,12,5"
14702,commdev-image-keyboard-response,253,517270,learnblock1,465.5,img/planet2_left.png,2,Community 1,NA,TRUE,f,f,NA,NA,NA,3,7,"11,15,14,13,2,7,3,8,9,4,6,10,1,12,5"
14702,commdev-image-keyboard-response,254,518521,learnblock1,729,img/planet14_right.png,14,Community 1,NA,TRUE,j,j,NA,NA,NA,3,7,"11,15,14,13,2,7,3,8,9,4,6,10,1,12,5"
14702,commdev-image-keyboard-response,255,519773,learnblock1,737.8000001907349,img/planet15_right.png,15,Community 1,NA,TRUE,j,j,NA,NA,NA,3,7,"11,15,14,13,2,7,3,8,9,4,6,10,1,12,5"
14702,commdev-image-keyboard-response,256,521025,learnblock1,776.5,img/planet11_right.png,11,Community 1,NA,TRUE,j,j,NA,NA,NA,3,7,"11,15,14,13,2,7,3,8,9,4,6,10,1,12,5"
14702,commdev-image-keyboard-response,257,522276,learnblock1,709.5999999046326,img/planet14_right.png,14,Community 1,NA,TRUE,j,j,NA,NA,NA,3,7,"11,15,14,13,2,7,3,8,9,4,6,10,1,12,5"
14702,commdev-image-keyboard-response,258,523528,learnblock1,552.7000002861023,img/planet13_right.png,13,Community 1,NA,TRUE,j,j,NA,NA,NA,3,7,"11,15,14,13,2,7,3,8,9,4,6,10,1,12,5"
14702,commdev-image-keyboard-response,259,524780,learnblock1,471.09999990463257,img/planet15_left.png,15,Community 1,NA,FALSE,j,f,NA,NA,NA,3,7,"11,15,14,13,2,7,3,8,9,4,6,10,1,12,5"
14702,commdev-image-keyboard-response,260,526031,learnblock1,749.5,img/planet14_left.png,14,Community 1,NA,TRUE,f,f,NA,NA,NA,3,7,"11,15,14,13,2,7,3,8,9,4,6,10,1,12,5"
14702,commdev-image-keyboard-response,261,527283,learnblock1,638.2000002861023,img/planet2_right.png,2,Community 1,NA,TRUE,j,j,NA,NA,NA,3,7,"11,15,14,13,2,7,3,8,9,4,6,10,1,12,5"
14702,commdev-image-keyboard-response,262,528536,learnblock1,1156,img/planet15_right.png,15,Community 1,NA,TRUE,j,j,NA,NA,NA,3,7,"11,15,14,13,2,7,3,8,9,4,6,10,1,12,5"
14702,commdev-image-keyboard-response,263,529787,learnblock1,698.7000002861023,img/planet14_right.png,14,Community 1,NA,TRUE,j,j,NA,NA,NA,3,7,"11,15,14,13,2,7,3,8,9,4,6,10,1,12,5"
14702,commdev-image-keyboard-response,264,531038,learnblock1,617.5,img/planet2_left.png,2,Community 1,NA,TRUE,f,f,NA,NA,NA,3,7,"11,15,14,13,2,7,3,8,9,4,6,10,1,12,5"
14702,commdev-image-keyboard-response,265,532289,learnblock1,505.7999997138977,img/planet14_right.png,14,Community 1,NA,TRUE,j,j,NA,NA,NA,3,7,"11,15,14,13,2,7,3,8,9,4,6,10,1,12,5"
14702,commdev-image-keyboard-response,266,533541,learnblock1,545,img/planet15_right.png,15,Community 1,NA,FALSE,f,j,NA,NA,NA,3,7,"11,15,14,13,2,7,3,8,9,4,6,10,1,12,5"
14702,commdev-image-keyboard-response,267,534792,learnblock1,508.90000009536743,img/planet11_left.png,11,Community 1,NA,TRUE,f,f,NA,NA,NA,3,7,"11,15,14,13,2,7,3,8,9,4,6,10,1,12,5"
14702,commdev-image-keyboard-response,268,536043,learnblock1,562.5,img/planet14_right.png,14,Community 1,NA,TRUE,j,j,NA,NA,NA,3,7,"11,15,14,13,2,7,3,8,9,4,6,10,1,12,5"
14702,commdev-image-keyboard-response,269,537295,learnblock1,736.8000001907349,img/planet11_right.png,11,Community 1,NA,TRUE,j,j,NA,NA,NA,3,7,"11,15,14,13,2,7,3,8,9,4,6,10,1,12,5"
14702,commdev-image-keyboard-response,270,538547,learnblock1,669.4000000953674,img/planet13_right.png,13,Community 1,NA,TRUE,j,j,NA,NA,NA,3,7,"11,15,14,13,2,7,3,8,9,4,6,10,1,12,5"
14702,commdev-image-keyboard-response,271,539799,learnblock1,602.0999999046326,img/planet11_right.png,11,Community 1,NA,TRUE,j,j,NA,NA,NA,3,7,"11,15,14,13,2,7,3,8,9,4,6,10,1,12,5"
14702,commdev-image-keyboard-response,272,541052,learnblock1,580.1000003814697,img/planet13_right.png,13,Community 1,NA,TRUE,j,j,NA,NA,NA,3,7,"11,15,14,13,2,7,3,8,9,4,6,10,1,12,5"
14702,commdev-image-keyboard-response,273,542304,learnblock1,422.09999990463257,img/planet11_left.png,11,Community 1,NA,FALSE,j,f,NA,NA,NA,3,7,"11,15,14,13,2,7,3,8,9,4,6,10,1,12,5"
14702,commdev-image-keyboard-response,274,543556,learnblock1,551.2000002861023,img/planet13_left.png,13,Community 1,NA,TRUE,f,f,NA,NA,NA,3,7,"11,15,14,13,2,7,3,8,9,4,6,10,1,12,5"
14702,commdev-image-keyboard-response,275,544808,learnblock1,528.0999999046326,img/planet14_right.png,14,Community 1,NA,TRUE,j,j,NA,NA,NA,3,7,"11,15,14,13,2,7,3,8,9,4,6,10,1,12,5"
14702,commdev-image-keyboard-response,276,546059,learnblock1,596.7999997138977,img/planet11_right.png,11,Community 1,NA,TRUE,j,j,NA,NA,NA,3,7,"11,15,14,13,2,7,3,8,9,4,6,10,1,12,5"
14702,commdev-image-keyboard-response,277,547311,learnblock1,484.7999997138977,img/planet2_left.png,2,Community 1,NA,TRUE,f,f,NA,NA,NA,3,7,"11,15,14,13,2,7,3,8,9,4,6,10,1,12,5"
14702,commdev-image-keyboard-response,278,548562,learnblock1,463.5,img/planet14_right.png,14,Community 1,NA,TRUE,j,j,NA,NA,NA,3,7,"11,15,14,13,2,7,3,8,9,4,6,10,1,12,5"
14702,commdev-image-keyboard-response,279,549815,learnblock1,562.1999998092651,img/planet2_right.png,2,Community 1,NA,TRUE,j,j,NA,NA,NA,3,7,"11,15,14,13,2,7,3,8,9,4,6,10,1,12,5"
14702,commdev-image-keyboard-response,280,551067,learnblock1,569.5999999046326,img/planet6_left.png,6,Community 3,NA,TRUE,f,f,NA,NA,NA,3,7,"11,15,14,13,2,7,3,8,9,4,6,10,1,12,5"
14702,commdev-image-keyboard-response,281,552319,learnblock1,443.19999980926514,img/planet12_right.png,12,Community 3,NA,TRUE,j,j,NA,NA,NA,3,7,"11,15,14,13,2,7,3,8,9,4,6,10,1,12,5"
14702,commdev-image-keyboard-response,282,553571,learnblock1,510.69999980926514,img/planet1_left.png,1,Community 3,NA,TRUE,f,f,NA,NA,NA,3,7,"11,15,14,13,2,7,3,8,9,4,6,10,1,12,5"
14702,commdev-image-keyboard-response,283,554822,learnblock1,504.3999996185303,img/planet10_left.png,10,Community 3,NA,TRUE,f,f,NA,NA,NA,3,7,"11,15,14,13,2,7,3,8,9,4,6,10,1,12,5"
14702,commdev-image-keyboard-response,284,556073,learnblock1,438.09999990463257,img/planet5_right.png,5,Community 3,NA,TRUE,j,j,NA,NA,NA,3,7,"11,15,14,13,2,7,3,8,9,4,6,10,1,12,5"
14702,commdev-image-keyboard-response,285,557324,learnblock1,551.9000000953674,img/planet1_left.png,1,Community 3,NA,TRUE,f,f,NA,NA,NA,3,7,"11,15,14,13,2,7,3,8,9,4,6,10,1,12,5"
14702,commdev-image-keyboard-response,286,558575,learnblock1,530.9000000953674,img/planet10_left.png,10,Community 3,NA,TRUE,f,f,NA,NA,NA,3,7,"11,15,14,13,2,7,3,8,9,4,6,10,1,12,5"
14702,commdev-image-keyboard-response,287,559826,learnblock1,464.59999990463257,img/planet12_right.png,12,Community 3,NA,TRUE,j,j,NA,NA,NA,3,7,"11,15,14,13,2,7,3,8,9,4,6,10,1,12,5"
14702,commdev-image-keyboard-response,288,561077,learnblock1,519,img/planet10_left.png,10,Community 3,NA,TRUE,f,f,NA,NA,NA,3,7,"11,15,14,13,2,7,3,8,9,4,6,10,1,12,5"
14702,commdev-image-keyboard-response,289,562328,learnblock1,752.4000000953674,img/planet8_left.png,8,Community 2,NA,TRUE,f,f,NA,NA,NA,3,7,"11,15,14,13,2,7,3,8,9,4,6,10,1,12,5"
14702,commdev-image-keyboard-response,290,563580,learnblock1,611.5999999046326,img/planet3_right.png,3,Community 2,NA,TRUE,j,j,NA,NA,NA,3,7,"11,15,14,13,2,7,3,8,9,4,6,10,1,12,5"
14702,commdev-image-keyboard-response,291,564831,learnblock1,514.6999998092651,img/planet8_left.png,8,Community 2,NA,TRUE,f,f,NA,NA,NA,3,7,"11,15,14,13,2,7,3,8,9,4,6,10,1,12,5"
14702,commdev-image-keyboard-response,292,566083,learnblock1,523.4000000953674,img/planet4_left.png,4,Community 2,NA,TRUE,f,f,NA,NA,NA,3,7,"11,15,14,13,2,7,3,8,9,4,6,10,1,12,5"
14702,commdev-image-keyboard-response,293,567335,learnblock1,546.5999999046326,img/planet3_right.png,3,Community 2,NA,FALSE,f,j,NA,NA,NA,3,7,"11,15,14,13,2,7,3,8,9,4,6,10,1,12,5"
14702,commdev-image-keyboard-response,294,568586,learnblock1,749.1999998092651,img/planet8_right.png,8,Community 2,NA,FALSE,f,j,NA,NA,NA,3,7,"11,15,14,13,2,7,3,8,9,4,6,10,1,12,5"
14702,commdev-image-keyboard-response,295,569838,learnblock1,608.8000001907349,img/planet3_left.png,3,Community 2,NA,FALSE,j,f,NA,NA,NA,3,7,"11,15,14,13,2,7,3,8,9,4,6,10,1,12,5"
14702,commdev-image-keyboard-response,296,571090,learnblock1,null,img/planet4_left.png,4,Community 2,NA,FALSE,null,f,NA,NA,NA,3,7,"11,15,14,13,2,7,3,8,9,4,6,10,1,12,5"
14702,commdev-image-keyboard-response,297,572341,learnblock1,70.09999990463257,img/planet9_right.png,9,Community 2,NA,FALSE,f,j,NA,NA,NA,3,7,"11,15,14,13,2,7,3,8,9,4,6,10,1,12,5"
14702,commdev-image-keyboard-response,298,573593,learnblock1,723.6999998092651,img/planet7_left.png,7,Community 2,NA,FALSE,j,f,NA,NA,NA,3,7,"11,15,14,13,2,7,3,8,9,4,6,10,1,12,5"
14702,commdev-image-keyboard-response,299,574846,learnblock1,537,img/planet13_right.png,13,Community 1,NA,TRUE,j,j,NA,NA,NA,3,7,"11,15,14,13,2,7,3,8,9,4,6,10,1,12,5"
14702,commdev-image-keyboard-response,300,576098,learnblock1,634.5999999046326,img/planet7_left.png,7,Community 2,NA,FALSE,j,f,NA,NA,NA,3,7,"11,15,14,13,2,7,3,8,9,4,6,10,1,12,5"
14702,commdev-image-keyboard-response,301,577350,learnblock1,1092,img/planet9_left.png,9,Community 2,NA,TRUE,f,f,NA,NA,NA,3,7,"11,15,14,13,2,7,3,8,9,4,6,10,1,12,5"
14702,commdev-image-keyboard-response,302,578602,learnblock1,740,img/planet3_left.png,3,Community 2,NA,FALSE,j,f,NA,NA,NA,3,7,"11,15,14,13,2,7,3,8,9,4,6,10,1,12,5"
14702,commdev-image-keyboard-response,303,579853,learnblock1,688.5,img/planet8_right.png,8,Community 2,NA,TRUE,j,j,NA,NA,NA,3,7,"11,15,14,13,2,7,3,8,9,4,6,10,1,12,5"
14702,commdev-image-keyboard-response,304,581106,learnblock1,576.5,img/planet3_left.png,3,Community 2,NA,TRUE,f,f,NA,NA,NA,3,7,"11,15,14,13,2,7,3,8,9,4,6,10,1,12,5"
14702,commdev-image-keyboard-response,305,582358,learnblock1,644.4000000953674,img/planet4_left.png,4,Community 2,NA,TRUE,f,f,NA,NA,NA,3,7,"11,15,14,13,2,7,3,8,9,4,6,10,1,12,5"
14702,commdev-image-keyboard-response,306,583610,learnblock1,771.8000001907349,img/planet7_left.png,7,Community 2,NA,TRUE,f,f,NA,NA,NA,3,7,"11,15,14,13,2,7,3,8,9,4,6,10,1,12,5"
14702,commdev-image-keyboard-response,307,584862,learnblock1,690.7000002861023,img/planet3_left.png,3,Community 2,NA,TRUE,f,f,NA,NA,NA,3,7,"11,15,14,13,2,7,3,8,9,4,6,10,1,12,5"
14702,commdev-image-keyboard-response,308,586113,learnblock1,774.5999999046326,img/planet8_left.png,8,Community 2,NA,TRUE,f,f,NA,NA,NA,3,7,"11,15,14,13,2,7,3,8,9,4,6,10,1,12,5"
14702,commdev-image-keyboard-response,309,587364,learnblock1,884.5,img/planet9_left.png,9,Community 2,NA,TRUE,f,f,NA,NA,NA,3,7,"11,15,14,13,2,7,3,8,9,4,6,10,1,12,5"
14702,commdev-image-keyboard-response,310,588617,learnblock1,565.8000001907349,img/planet4_right.png,4,Community 2,NA,TRUE,j,j,NA,NA,NA,3,7,"11,15,14,13,2,7,3,8,9,4,6,10,1,12,5"
14702,commdev-image-keyboard-response,311,589869,learnblock1,648.5999999046326,img/planet9_right.png,9,Community 2,NA,TRUE,j,j,NA,NA,NA,3,7,"11,15,14,13,2,7,3,8,9,4,6,10,1,12,5"
14702,commdev-image-keyboard-response,312,591121,learnblock1,611.6999998092651,img/planet7_right.png,7,Community 2,NA,TRUE,j,j,NA,NA,NA,3,7,"11,15,14,13,2,7,3,8,9,4,6,10,1,12,5"
14702,commdev-image-keyboard-response,313,592372,learnblock1,499.6000003814697,img/planet9_right.png,9,Community 2,NA,TRUE,j,j,NA,NA,NA,3,7,"11,15,14,13,2,7,3,8,9,4,6,10,1,12,5"
14702,commdev-image-keyboard-response,314,593623,learnblock1,463.69999980926514,img/planet8_left.png,8,Community 2,NA,FALSE,j,f,NA,NA,NA,3,7,"11,15,14,13,2,7,3,8,9,4,6,10,1,12,5"
14702,commdev-image-keyboard-response,315,594875,learnblock1,232.5,img/planet4_right.png,4,Community 2,NA,TRUE,j,j,NA,NA,NA,3,7,"11,15,14,13,2,7,3,8,9,4,6,10,1,12,5"
14702,commdev-image-keyboard-response,316,596127,learnblock1,361.2000002861023,img/planet8_right.png,8,Community 2,NA,TRUE,j,j,NA,NA,NA,3,7,"11,15,14,13,2,7,3,8,9,4,6,10,1,12,5"
14702,commdev-image-keyboard-response,317,597378,learnblock1,534.2000002861023,img/planet10_right.png,10,Community 3,NA,TRUE,j,j,NA,NA,NA,3,7,"11,15,14,13,2,7,3,8,9,4,6,10,1,12,5"
14702,commdev-image-keyboard-response,318,598630,learnblock1,617.7000002861023,img/planet12_right.png,12,Community 3,NA,TRUE,j,j,NA,NA,NA,3,7,"11,15,14,13,2,7,3,8,9,4,6,10,1,12,5"
14702,commdev-image-keyboard-response,319,599881,learnblock1,580.8999996185303,img/planet5_right.png,5,Community 3,NA,TRUE,j,j,NA,NA,NA,3,7,"11,15,14,13,2,7,3,8,9,4,6,10,1,12,5"
14702,commdev-image-keyboard-response,320,601132,learnblock1,484.7000002861023,img/planet1_left.png,1,Community 3,NA,TRUE,f,f,NA,NA,NA,3,7,"11,15,14,13,2,7,3,8,9,4,6,10,1,12,5"
14702,commdev-image-keyboard-response,321,602385,learnblock1,538.0999999046326,img/planet10_left.png,10,Community 3,NA,TRUE,f,f,NA,NA,NA,3,7,"11,15,14,13,2,7,3,8,9,4,6,10,1,12,5"
14702,commdev-image-keyboard-response,322,603636,learnblock1,636.0999999046326,img/planet8_right.png,8,Community 2,NA,TRUE,j,j,NA,NA,NA,3,7,"11,15,14,13,2,7,3,8,9,4,6,10,1,12,5"
14702,commdev-image-keyboard-response,323,604889,learnblock1,569.7000002861023,img/planet4_left.png,4,Community 2,NA,TRUE,f,f,NA,NA,NA,3,7,"11,15,14,13,2,7,3,8,9,4,6,10,1,12,5"
14702,commdev-image-keyboard-response,324,606141,learnblock1,696.9000000953674,img/planet9_left.png,9,Community 2,NA,TRUE,f,f,NA,NA,NA,3,7,"11,15,14,13,2,7,3,8,9,4,6,10,1,12,5"
14702,commdev-image-keyboard-response,325,607392,learnblock1,900,img/planet8_left.png,8,Community 2,NA,FALSE,j,f,NA,NA,NA,3,7,"11,15,14,13,2,7,3,8,9,4,6,10,1,12,5"
14702,commdev-image-keyboard-response,326,608644,learnblock1,698.5,img/planet10_right.png,10,Community 3,NA,TRUE,j,j,NA,NA,NA,3,7,"11,15,14,13,2,7,3,8,9,4,6,10,1,12,5"
14702,commdev-image-keyboard-response,327,609897,learnblock1,841.4000000953674,img/planet1_right.png,1,Community 3,NA,TRUE,j,j,NA,NA,NA,3,7,"11,15,14,13,2,7,3,8,9,4,6,10,1,12,5"
14702,commdev-image-keyboard-response,328,611149,learnblock1,609.3000001907349,img/planet6_left.png,6,Community 3,NA,TRUE,f,f,NA,NA,NA,3,7,"11,15,14,13,2,7,3,8,9,4,6,10,1,12,5"
14702,commdev-image-keyboard-response,329,612401,learnblock1,586.9000000953674,img/planet1_left.png,1,Community 3,NA,TRUE,f,f,NA,NA,NA,3,7,"11,15,14,13,2,7,3,8,9,4,6,10,1,12,5"
14702,commdev-image-keyboard-response,330,613653,learnblock1,790.1999998092651,img/planet12_left.png,12,Community 3,NA,TRUE,f,f,NA,NA,NA,3,7,"11,15,14,13,2,7,3,8,9,4,6,10,1,12,5"
14702,commdev-image-keyboard-response,331,614904,learnblock1,602.9000000953674,img/planet1_right.png,1,Community 3,NA,TRUE,j,j,NA,NA,NA,3,7,"11,15,14,13,2,7,3,8,9,4,6,10,1,12,5"
14702,commdev-image-keyboard-response,332,616157,learnblock1,627.1000003814697,img/planet12_right.png,12,Community 3,NA,TRUE,j,j,NA,NA,NA,3,7,"11,15,14,13,2,7,3,8,9,4,6,10,1,12,5"
14702,commdev-image-keyboard-response,333,617409,learnblock1,469.5,img/planet10_left.png,10,Community 3,NA,TRUE,f,f,NA,NA,NA,3,7,"11,15,14,13,2,7,3,8,9,4,6,10,1,12,5"
14702,commdev-image-keyboard-response,334,618660,learnblock1,536.8000001907349,img/planet12_right.png,12,Community 3,NA,FALSE,f,j,NA,NA,NA,3,7,"11,15,14,13,2,7,3,8,9,4,6,10,1,12,5"
14702,commdev-image-keyboard-response,335,619912,learnblock1,636.3999996185303,img/planet1_right.png,1,Community 3,NA,TRUE,j,j,NA,NA,NA,3,7,"11,15,14,13,2,7,3,8,9,4,6,10,1,12,5"
14702,commdev-image-keyboard-response,336,621163,learnblock1,749.2000002861023,img/planet10_right.png,10,Community 3,NA,TRUE,j,j,NA,NA,NA,3,7,"11,15,14,13,2,7,3,8,9,4,6,10,1,12,5"
14702,commdev-image-keyboard-response,337,622415,learnblock1,563,img/planet12_right.png,12,Community 3,NA,TRUE,j,j,NA,NA,NA,3,7,"11,15,14,13,2,7,3,8,9,4,6,10,1,12,5"
14702,commdev-image-keyboard-response,338,623667,learnblock1,496.09999990463257,img/planet6_left.png,6,Community 3,NA,TRUE,f,f,NA,NA,NA,3,7,"11,15,14,13,2,7,3,8,9,4,6,10,1,12,5"
14702,commdev-image-keyboard-response,339,624919,learnblock1,654.2999997138977,img/planet1_left.png,1,Community 3,NA,TRUE,f,f,NA,NA,NA,3,7,"11,15,14,13,2,7,3,8,9,4,6,10,1,12,5"
14702,commdev-image-keyboard-response,340,626171,learnblock1,542.4000000953674,img/planet12_left.png,12,Community 3,NA,TRUE,f,f,NA,NA,NA,3,7,"11,15,14,13,2,7,3,8,9,4,6,10,1,12,5"
14702,commdev-image-keyboard-response,341,627422,learnblock1,550.0999999046326,img/planet6_left.png,6,Community 3,NA,TRUE,f,f,NA,NA,NA,3,7,"11,15,14,13,2,7,3,8,9,4,6,10,1,12,5"
14702,commdev-image-keyboard-response,342,628674,learnblock1,544.0999999046326,img/planet1_right.png,1,Community 3,NA,TRUE,j,j,NA,NA,NA,3,7,"11,15,14,13,2,7,3,8,9,4,6,10,1,12,5"
14702,commdev-image-keyboard-response,343,629925,learnblock1,537.9000000953674,img/planet5_right.png,5,Community 3,NA,TRUE,j,j,NA,NA,NA,3,7,"11,15,14,13,2,7,3,8,9,4,6,10,1,12,5"
14702,commdev-image-keyboard-response,344,631177,learnblock1,561.1999998092651,img/planet6_left.png,6,Community 3,NA,FALSE,j,f,NA,NA,NA,3,7,"11,15,14,13,2,7,3,8,9,4,6,10,1,12,5"
14702,commdev-image-keyboard-response,345,632428,learnblock1,689.8999996185303,img/planet2_left.png,2,Community 1,NA,TRUE,f,f,NA,NA,NA,3,7,"11,15,14,13,2,7,3,8,9,4,6,10,1,12,5"
14702,commdev-image-keyboard-response,346,633679,learnblock1,787.7999997138977,img/planet14_left.png,14,Community 1,NA,TRUE,f,f,NA,NA,NA,3,7,"11,15,14,13,2,7,3,8,9,4,6,10,1,12,5"
14702,commdev-image-keyboard-response,347,634930,learnblock1,692.1999998092651,img/planet13_right.png,13,Community 1,NA,TRUE,j,j,NA,NA,NA,3,7,"11,15,14,13,2,7,3,8,9,4,6,10,1,12,5"
14702,commdev-image-keyboard-response,351,663689,learnblock2,778.8999996185303,img/planet14_left.png,14,Community 1,NA,TRUE,f,f,NA,NA,NA,3,7,"11,15,14,13,2,7,3,8,9,4,6,10,1,12,5"
14702,commdev-image-keyboard-response,352,664941,learnblock2,547.4000000953674,img/planet13_left.png,13,Community 1,NA,TRUE,f,f,NA,NA,NA,3,7,"11,15,14,13,2,7,3,8,9,4,6,10,1,12,5"
14702,commdev-image-keyboard-response,353,666193,learnblock2,510.8999996185303,img/planet14_right.png,14,Community 1,NA,FALSE,f,j,NA,NA,NA,3,7,"11,15,14,13,2,7,3,8,9,4,6,10,1,12,5"
14702,commdev-image-keyboard-response,354,667445,learnblock2,774.1000003814697,img/planet15_left.png,15,Community 1,NA,TRUE,f,f,NA,NA,NA,3,7,"11,15,14,13,2,7,3,8,9,4,6,10,1,12,5"
14702,commdev-image-keyboard-response,355,668697,learnblock2,841.9000000953674,img/planet14_right.png,14,Community 1,NA,TRUE,j,j,NA,NA,NA,3,7,"11,15,14,13,2,7,3,8,9,4,6,10,1,12,5"
14702,commdev-image-keyboard-response,356,669949,learnblock2,669.8000001907349,img/planet11_left.png,11,Community 1,NA,TRUE,f,f,NA,NA,NA,3,7,"11,15,14,13,2,7,3,8,9,4,6,10,1,12,5"
14702,commdev-image-keyboard-response,357,671201,learnblock2,737.5999999046326,img/planet14_left.png,14,Community 1,NA,TRUE,f,f,NA,NA,NA,3,7,"11,15,14,13,2,7,3,8,9,4,6,10,1,12,5"
14702,commdev-image-keyboard-response,358,672453,learnblock2,641.0999999046326,img/planet15_right.png,15,Community 1,NA,TRUE,j,j,NA,NA,NA,3,7,"11,15,14,13,2,7,3,8,9,4,6,10,1,12,5"
14702,commdev-image-keyboard-response,359,673705,learnblock2,738.6999998092651,img/planet13_left.png,13,Community 1,NA,FALSE,j,f,NA,NA,NA,3,7,"11,15,14,13,2,7,3,8,9,4,6,10,1,12,5"
14702,commdev-image-keyboard-response,360,674958,learnblock2,641.3000001907349,img/planet15_right.png,15,Community 1,NA,TRUE,j,j,NA,NA,NA,3,7,"11,15,14,13,2,7,3,8,9,4,6,10,1,12,5"
14702,commdev-image-keyboard-response,361,676210,learnblock2,889.5,img/planet14_right.png,14,Community 1,NA,FALSE,f,j,NA,NA,NA,3,7,"11,15,14,13,2,7,3,8,9,4,6,10,1,12,5"
14702,commdev-image-keyboard-response,362,677461,learnblock2,881.9000000953674,img/planet15_left.png,15,Community 1,NA,TRUE,f,f,NA,NA,NA,3,7,"11,15,14,13,2,7,3,8,9,4,6,10,1,12,5"
14702,commdev-image-keyboard-response,363,678712,learnblock2,891.2000002861023,img/planet11_left.png,11,Community 1,NA,TRUE,f,f,NA,NA,NA,3,7,"11,15,14,13,2,7,3,8,9,4,6,10,1,12,5"
14702,commdev-image-keyboard-response,364,679964,learnblock2,840.4000000953674,img/planet14_left.png,14,Community 1,NA,TRUE,f,f,NA,NA,NA,3,7,"11,15,14,13,2,7,3,8,9,4,6,10,1,12,5"
14702,commdev-image-keyboard-response,365,681215,learnblock2,653.2999997138977,img/planet2_right.png,2,Community 1,NA,TRUE,j,j,NA,NA,NA,3,7,"11,15,14,13,2,7,3,8,9,4,6,10,1,12,5"
14702,commdev-image-keyboard-response,366,682467,learnblock2,872.6000003814697,img/planet11_right.png,11,Community 1,NA,FALSE,f,j,NA,NA,NA,3,7,"11,15,14,13,2,7,3,8,9,4,6,10,1,12,5"
14702,commdev-image-keyboard-response,367,683719,learnblock2,595.1999998092651,img/planet2_left.png,2,Community 1,NA,TRUE,f,f,NA,NA,NA,3,7,"11,15,14,13,2,7,3,8,9,4,6,10,1,12,5"
14702,commdev-image-keyboard-response,368,684970,learnblock2,678.2999997138977,img/planet11_right.png,11,Community 1,NA,TRUE,j,j,NA,NA,NA,3,7,"11,15,14,13,2,7,3,8,9,4,6,10,1,12,5"
14702,commdev-image-keyboard-response,369,686221,learnblock2,867.3000001907349,img/planet2_right.png,2,Community 1,NA,TRUE,j,j,NA,NA,NA,3,7,"11,15,14,13,2,7,3,8,9,4,6,10,1,12,5"
14702,commdev-image-keyboard-response,370,687472,learnblock2,636.0999999046326,img/planet15_left.png,15,Community 1,NA,TRUE,f,f,NA,NA,NA,3,7,"11,15,14,13,2,7,3,8,9,4,6,10,1,12,5"
14702,commdev-image-keyboard-response,371,688724,learnblock2,495.40000009536743,img/planet11_right.png,11,Community 1,NA,TRUE,j,j,NA,NA,NA,3,7,"11,15,14,13,2,7,3,8,9,4,6,10,1,12,5"
14702,commdev-image-keyboard-response,372,689976,learnblock2,563.5999999046326,img/planet15_right.png,15,Community 1,NA,FALSE,f,j,NA,NA,NA,3,7,"11,15,14,13,2,7,3,8,9,4,6,10,1,12,5"
14702,commdev-image-keyboard-response,373,691227,learnblock2,706.6999998092651,img/planet2_right.png,2,Community 1,NA,TRUE,j,j,NA,NA,NA,3,7,"11,15,14,13,2,7,3,8,9,4,6,10,1,12,5"
14702,commdev-image-keyboard-response,374,692479,learnblock2,610.5,img/planet6_left.png,6,Community 3,NA,TRUE,f,f,NA,NA,NA,3,7,"11,15,14,13,2,7,3,8,9,4,6,10,1,12,5"
14702,commdev-image-keyboard-response,375,693729,learnblock2,574.3000001907349,img/planet1_right.png,1,Community 3,NA,TRUE,j,j,NA,NA,NA,3,7,"11,15,14,13,2,7,3,8,9,4,6,10,1,12,5"
14702,commdev-image-keyboard-response,376,694981,learnblock2,797.4000000953674,img/planet12_right.png,12,Community 3,NA,TRUE,j,j,NA,NA,NA,3,7,"11,15,14,13,2,7,3,8,9,4,6,10,1,12,5"
14702,commdev-image-keyboard-response,377,696233,learnblock2,576.5,img/planet1_right.png,1,Community 3,NA,TRUE,j,j,NA,NA,NA,3,7,"11,15,14,13,2,7,3,8,9,4,6,10,1,12,5"
14702,commdev-image-keyboard-response,378,697485,learnblock2,659.5999999046326,img/planet10_right.png,10,Community 3,NA,TRUE,j,j,NA,NA,NA,3,7,"11,15,14,13,2,7,3,8,9,4,6,10,1,12,5"
14702,commdev-image-keyboard-response,379,698737,learnblock2,532,img/planet1_left.png,1,Community 3,NA,TRUE,f,f,NA,NA,NA,3,7,"11,15,14,13,2,7,3,8,9,4,6,10,1,12,5"
14702,commdev-image-keyboard-response,380,699990,learnblock2,555.5,img/planet6_right.png,6,Community 3,NA,TRUE,j,j,NA,NA,NA,3,7,"11,15,14,13,2,7,3,8,9,4,6,10,1,12,5"
14702,commdev-image-keyboard-response,381,701241,learnblock2,653.6000003814697,img/planet2_left.png,2,Community 1,NA,TRUE,f,f,NA,NA,NA,3,7,"11,15,14,13,2,7,3,8,9,4,6,10,1,12,5"
14702,commdev-image-keyboard-response,382,702493,learnblock2,616.6999998092651,img/planet15_left.png,15,Community 1,NA,TRUE,f,f,NA,NA,NA,3,7,"11,15,14,13,2,7,3,8,9,4,6,10,1,12,5"
14702,commdev-image-keyboard-response,383,703746,learnblock2,549.2999997138977,img/planet14_right.png,14,Community 1,NA,TRUE,j,j,NA,NA,NA,3,7,"11,15,14,13,2,7,3,8,9,4,6,10,1,12,5"
14702,commdev-image-keyboard-response,384,704998,learnblock2,542,img/planet15_left.png,15,Community 1,NA,TRUE,f,f,NA,NA,NA,3,7,"11,15,14,13,2,7,3,8,9,4,6,10,1,12,5"
14702,commdev-image-keyboard-response,385,706248,learnblock2,490,img/planet14_right.png,14,Community 1,NA,TRUE,j,j,NA,NA,NA,3,7,"11,15,14,13,2,7,3,8,9,4,6,10,1,12,5"
14702,commdev-image-keyboard-response,386,707499,learnblock2,574.5,img/planet11_left.png,11,Community 1,NA,TRUE,f,f,NA,NA,NA,3,7,"11,15,14,13,2,7,3,8,9,4,6,10,1,12,5"
14702,commdev-image-keyboard-response,387,708751,learnblock2,748.6999998092651,img/planet14_left.png,14,Community 1,NA,TRUE,f,f,NA,NA,NA,3,7,"11,15,14,13,2,7,3,8,9,4,6,10,1,12,5"
14702,commdev-image-keyboard-response,388,710002,learnblock2,487.19999980926514,img/planet2_right.png,2,Community 1,NA,TRUE,j,j,NA,NA,NA,3,7,"11,15,14,13,2,7,3,8,9,4,6,10,1,12,5"
14702,commdev-image-keyboard-response,389,711253,learnblock2,511.2999997138977,img/planet14_left.png,14,Community 1,NA,TRUE,f,f,NA,NA,NA,3,7,"11,15,14,13,2,7,3,8,9,4,6,10,1,12,5"
14702,commdev-image-keyboard-response,390,712506,learnblock2,579.5999999046326,img/planet11_left.png,11,Community 1,NA,TRUE,f,f,NA,NA,NA,3,7,"11,15,14,13,2,7,3,8,9,4,6,10,1,12,5"
14702,commdev-image-keyboard-response,391,713757,learnblock2,632.3999996185303,img/planet14_left.png,14,Community 1,NA,TRUE,f,f,NA,NA,NA,3,7,"11,15,14,13,2,7,3,8,9,4,6,10,1,12,5"
14702,commdev-image-keyboard-response,392,715010,learnblock2,640.7999997138977,img/planet2_left.png,2,Community 1,NA,TRUE,f,f,NA,NA,NA,3,7,"11,15,14,13,2,7,3,8,9,4,6,10,1,12,5"
14702,commdev-image-keyboard-response,393,716262,learnblock2,633.6000003814697,img/planet14_left.png,14,Community 1,NA,TRUE,f,f,NA,NA,NA,3,7,"11,15,14,13,2,7,3,8,9,4,6,10,1,12,5"
14702,commdev-image-keyboard-response,394,717513,learnblock2,670.8000001907349,img/planet15_right.png,15,Community 1,NA,TRUE,j,j,NA,NA,NA,3,7,"11,15,14,13,2,7,3,8,9,4,6,10,1,12,5"
14702,commdev-image-keyboard-response,395,718765,learnblock2,665,img/planet11_left.png,11,Community 1,NA,TRUE,f,f,NA,NA,NA,3,7,"11,15,14,13,2,7,3,8,9,4,6,10,1,12,5"
14702,commdev-image-keyboard-response,396,720017,learnblock2,522.2999997138977,img/planet15_right.png,15,Community 1,NA,TRUE,j,j,NA,NA,NA,3,7,"11,15,14,13,2,7,3,8,9,4,6,10,1,12,5"
14702,commdev-image-keyboard-response,397,721269,learnblock2,500.5,img/planet13_left.png,13,Community 1,NA,TRUE,f,f,NA,NA,NA,3,7,"11,15,14,13,2,7,3,8,9,4,6,10,1,12,5"
14702,commdev-image-keyboard-response,398,722520,learnblock2,584,img/planet7_left.png,7,Community 2,NA,TRUE,f,f,NA,NA,NA,3,7,"11,15,14,13,2,7,3,8,9,4,6,10,1,12,5"
14702,commdev-image-keyboard-response,399,723771,learnblock2,608.1999998092651,img/planet4_right.png,4,Community 2,NA,TRUE,j,j,NA,NA,NA,3,7,"11,15,14,13,2,7,3,8,9,4,6,10,1,12,5"
14702,commdev-image-keyboard-response,400,725022,learnblock2,842.5,img/planet3_right.png,3,Community 2,NA,TRUE,j,j,NA,NA,NA,3,7,"11,15,14,13,2,7,3,8,9,4,6,10,1,12,5"
14702,commdev-image-keyboard-response,401,726273,learnblock2,521.0999999046326,img/planet8_left.png,8,Community 2,NA,TRUE,f,f,NA,NA,NA,3,7,"11,15,14,13,2,7,3,8,9,4,6,10,1,12,5"
14702,commdev-image-keyboard-response,402,727525,learnblock2,560.1999998092651,img/planet10_left.png,10,Community 3,NA,TRUE,f,f,NA,NA,NA,3,7,"11,15,14,13,2,7,3,8,9,4,6,10,1,12,5"
14702,commdev-image-keyboard-response,403,728776,learnblock2,478,img/planet12_right.png,12,Community 3,NA,TRUE,j,j,NA,NA,NA,3,7,"11,15,14,13,2,7,3,8,9,4,6,10,1,12,5"
14702,commdev-image-keyboard-response,404,730028,learnblock2,667.1999998092651,img/planet10_left.png,10,Community 3,NA,TRUE,f,f,NA,NA,NA,3,7,"11,15,14,13,2,7,3,8,9,4,6,10,1,12,5"
14702,commdev-image-keyboard-response,405,731280,learnblock2,615.5,img/planet5_left.png,5,Community 3,NA,TRUE,f,f,NA,NA,NA,3,7,"11,15,14,13,2,7,3,8,9,4,6,10,1,12,5"
14702,commdev-image-keyboard-response,406,732531,learnblock2,548.5,img/planet6_right.png,6,Community 3,NA,TRUE,j,j,NA,NA,NA,3,7,"11,15,14,13,2,7,3,8,9,4,6,10,1,12,5"
14702,commdev-image-keyboard-response,407,733783,learnblock2,722.5,img/planet5_right.png,5,Community 3,NA,TRUE,j,j,NA,NA,NA,3,7,"11,15,14,13,2,7,3,8,9,4,6,10,1,12,5"
14702,commdev-image-keyboard-response,408,735035,learnblock2,565.6999998092651,img/planet10_right.png,10,Community 3,NA,TRUE,j,j,NA,NA,NA,3,7,"11,15,14,13,2,7,3,8,9,4,6,10,1,12,5"
14702,commdev-image-keyboard-response,409,736285,learnblock2,544,img/planet12_right.png,12,Community 3,NA,TRUE,j,j,NA,NA,NA,3,7,"11,15,14,13,2,7,3,8,9,4,6,10,1,12,5"
14702,commdev-image-keyboard-response,410,737538,learnblock2,493.19999980926514,img/planet10_left.png,10,Community 3,NA,TRUE,f,f,NA,NA,NA,3,7,"11,15,14,13,2,7,3,8,9,4,6,10,1,12,5"
14702,commdev-image-keyboard-response,411,738789,learnblock2,680.3000001907349,img/planet8_left.png,8,Community 2,NA,TRUE,f,f,NA,NA,NA,3,7,"11,15,14,13,2,7,3,8,9,4,6,10,1,12,5"
14702,commdev-image-keyboard-response,412,740041,learnblock2,554.0999999046326,img/planet4_left.png,4,Community 2,NA,TRUE,f,f,NA,NA,NA,3,7,"11,15,14,13,2,7,3,8,9,4,6,10,1,12,5"
14702,commdev-image-keyboard-response,413,741293,learnblock2,682.4000000953674,img/planet9_left.png,9,Community 2,NA,TRUE,f,f,NA,NA,NA,3,7,"11,15,14,13,2,7,3,8,9,4,6,10,1,12,5"
14702,commdev-image-keyboard-response,414,742544,learnblock2,585.1000003814697,img/planet4_right.png,4,Community 2,NA,TRUE,j,j,NA,NA,NA,3,7,"11,15,14,13,2,7,3,8,9,4,6,10,1,12,5"
14702,commdev-image-keyboard-response,415,743796,learnblock2,564.4000000953674,img/planet7_left.png,7,Community 2,NA,TRUE,f,f,NA,NA,NA,3,7,"11,15,14,13,2,7,3,8,9,4,6,10,1,12,5"
14702,commdev-image-keyboard-response,416,745048,learnblock2,647.9000000953674,img/planet3_left.png,3,Community 2,NA,TRUE,f,f,NA,NA,NA,3,7,"11,15,14,13,2,7,3,8,9,4,6,10,1,12,5"
14702,commdev-image-keyboard-response,417,746300,learnblock2,655.4000000953674,img/planet7_right.png,7,Community 2,NA,TRUE,j,j,NA,NA,NA,3,7,"11,15,14,13,2,7,3,8,9,4,6,10,1,12,5"
14702,commdev-image-keyboard-response,418,747553,learnblock2,678.5999999046326,img/planet9_right.png,9,Community 2,NA,TRUE,j,j,NA,NA,NA,3,7,"11,15,14,13,2,7,3,8,9,4,6,10,1,12,5"
14702,commdev-image-keyboard-response,419,748805,learnblock2,535.5999999046326,img/planet4_left.png,4,Community 2,NA,TRUE,f,f,NA,NA,NA,3,7,"11,15,14,13,2,7,3,8,9,4,6,10,1,12,5"
14702,commdev-image-keyboard-response,420,750058,learnblock2,513.5999999046326,img/planet3_left.png,3,Community 2,NA,TRUE,f,f,NA,NA,NA,3,7,"11,15,14,13,2,7,3,8,9,4,6,10,1,12,5"
14702,commdev-image-keyboard-response,421,751309,learnblock2,506.30000019073486,img/planet9_left.png,9,Community 2,NA,TRUE,f,f,NA,NA,NA,3,7,"11,15,14,13,2,7,3,8,9,4,6,10,1,12,5"
14702,commdev-image-keyboard-response,422,752561,learnblock2,499.90000009536743,img/planet3_left.png,3,Community 2,NA,TRUE,f,f,NA,NA,NA,3,7,"11,15,14,13,2,7,3,8,9,4,6,10,1,12,5"
14702,commdev-image-keyboard-response,423,753813,learnblock2,522.9000000953674,img/planet4_left.png,4,Community 2,NA,TRUE,f,f,NA,NA,NA,3,7,"11,15,14,13,2,7,3,8,9,4,6,10,1,12,5"
14702,commdev-image-keyboard-response,424,755065,learnblock2,530.8000001907349,img/planet8_right.png,8,Community 2,NA,FALSE,f,j,NA,NA,NA,3,7,"11,15,14,13,2,7,3,8,9,4,6,10,1,12,5"
14702,commdev-image-keyboard-response,425,756317,learnblock2,764.3999996185303,img/planet9_right.png,9,Community 2,NA,FALSE,f,j,NA,NA,NA,3,7,"11,15,14,13,2,7,3,8,9,4,6,10,1,12,5"
14702,commdev-image-keyboard-response,426,757569,learnblock2,726.5,img/planet4_left.png,4,Community 2,NA,TRUE,f,f,NA,NA,NA,3,7,"11,15,14,13,2,7,3,8,9,4,6,10,1,12,5"
14702,commdev-image-keyboard-response,427,758820,learnblock2,749.7999997138977,img/planet9_left.png,9,Community 2,NA,TRUE,f,f,NA,NA,NA,3,7,"11,15,14,13,2,7,3,8,9,4,6,10,1,12,5"
14702,commdev-image-keyboard-response,428,760071,learnblock2,683.5,img/planet3_left.png,3,Community 2,NA,TRUE,f,f,NA,NA,NA,3,7,"11,15,14,13,2,7,3,8,9,4,6,10,1,12,5"
14702,commdev-image-keyboard-response,429,761323,learnblock2,543.1999998092651,img/planet9_left.png,9,Community 2,NA,TRUE,f,f,NA,NA,NA,3,7,"11,15,14,13,2,7,3,8,9,4,6,10,1,12,5"
14702,commdev-image-keyboard-response,430,762573,learnblock2,null,img/planet8_left.png,8,Community 2,NA,FALSE,null,f,NA,NA,NA,3,7,"11,15,14,13,2,7,3,8,9,4,6,10,1,12,5"
14702,commdev-image-keyboard-response,431,763825,learnblock2,635.6999998092651,img/planet3_left.png,3,Community 2,NA,TRUE,f,f,NA,NA,NA,3,7,"11,15,14,13,2,7,3,8,9,4,6,10,1,12,5"
14702,commdev-image-keyboard-response,432,765077,learnblock2,838.8000001907349,img/planet7_left.png,7,Community 2,NA,TRUE,f,f,NA,NA,NA,3,7,"11,15,14,13,2,7,3,8,9,4,6,10,1,12,5"
14702,commdev-image-keyboard-response,433,766329,learnblock2,787.5,img/planet9_left.png,9,Community 2,NA,TRUE,f,f,NA,NA,NA,3,7,"11,15,14,13,2,7,3,8,9,4,6,10,1,12,5"
14702,commdev-image-keyboard-response,434,767581,learnblock2,555.2000002861023,img/planet4_left.png,4,Community 2,NA,TRUE,f,f,NA,NA,NA,3,7,"11,15,14,13,2,7,3,8,9,4,6,10,1,12,5"
14702,commdev-image-keyboard-response,435,768833,learnblock2,518,img/planet9_right.png,9,Community 2,NA,TRUE,j,j,NA,NA,NA,3,7,"11,15,14,13,2,7,3,8,9,4,6,10,1,12,5"
14702,commdev-image-keyboard-response,436,770085,learnblock2,660.6999998092651,img/planet7_left.png,7,Community 2,NA,TRUE,f,f,NA,NA,NA,3,7,"11,15,14,13,2,7,3,8,9,4,6,10,1,12,5"
14702,commdev-image-keyboard-response,437,771337,learnblock2,654.4000000953674,img/planet4_left.png,4,Community 2,NA,TRUE,f,f,NA,NA,NA,3,7,"11,15,14,13,2,7,3,8,9,4,6,10,1,12,5"
14702,commdev-image-keyboard-response,438,772589,learnblock2,662.4000000953674,img/planet3_left.png,3,Community 2,NA,TRUE,f,f,NA,NA,NA,3,7,"11,15,14,13,2,7,3,8,9,4,6,10,1,12,5"
14702,commdev-image-keyboard-response,439,773841,learnblock2,714.7999997138977,img/planet9_left.png,9,Community 2,NA,TRUE,f,f,NA,NA,NA,3,7,"11,15,14,13,2,7,3,8,9,4,6,10,1,12,5"
14702,commdev-image-keyboard-response,440,775093,learnblock2,707.8000001907349,img/planet7_right.png,7,Community 2,NA,TRUE,j,j,NA,NA,NA,3,7,"11,15,14,13,2,7,3,8,9,4,6,10,1,12,5"
14702,commdev-image-keyboard-response,441,776346,learnblock2,685.9000000953674,img/planet13_left.png,13,Community 1,NA,TRUE,f,f,NA,NA,NA,3,7,"11,15,14,13,2,7,3,8,9,4,6,10,1,12,5"
14702,commdev-image-keyboard-response,442,777598,learnblock2,708.3000001907349,img/planet14_left.png,14,Community 1,NA,TRUE,f,f,NA,NA,NA,3,7,"11,15,14,13,2,7,3,8,9,4,6,10,1,12,5"
14702,commdev-image-keyboard-response,443,778850,learnblock2,580.5,img/planet15_left.png,15,Community 1,NA,TRUE,f,f,NA,NA,NA,3,7,"11,15,14,13,2,7,3,8,9,4,6,10,1,12,5"
14702,commdev-image-keyboard-response,444,780102,learnblock2,619,img/planet13_left.png,13,Community 1,NA,TRUE,f,f,NA,NA,NA,3,7,"11,15,14,13,2,7,3,8,9,4,6,10,1,12,5"
14702,commdev-image-keyboard-response,445,781353,learnblock2,492.30000019073486,img/planet7_right.png,7,Community 2,NA,FALSE,f,j,NA,NA,NA,3,7,"11,15,14,13,2,7,3,8,9,4,6,10,1,12,5"
14702,commdev-image-keyboard-response,446,782604,learnblock2,591.5,img/planet9_right.png,9,Community 2,NA,TRUE,j,j,NA,NA,NA,3,7,"11,15,14,13,2,7,3,8,9,4,6,10,1,12,5"
14702,commdev-image-keyboard-response,447,783855,learnblock2,525.3000001907349,img/planet3_left.png,3,Community 2,NA,TRUE,f,f,NA,NA,NA,3,7,"11,15,14,13,2,7,3,8,9,4,6,10,1,12,5"
14702,commdev-image-keyboard-response,448,785108,learnblock2,489.5,img/planet9_right.png,9,Community 2,NA,TRUE,j,j,NA,NA,NA,3,7,"11,15,14,13,2,7,3,8,9,4,6,10,1,12,5"
14702,commdev-image-keyboard-response,449,786360,learnblock2,556.6000003814697,img/planet3_right.png,3,Community 2,NA,FALSE,f,j,NA,NA,NA,3,7,"11,15,14,13,2,7,3,8,9,4,6,10,1,12,5"
14702,commdev-image-keyboard-response,450,787611,learnblock2,565.1000003814697,img/planet9_right.png,9,Community 2,NA,TRUE,j,j,NA,NA,NA,3,7,"11,15,14,13,2,7,3,8,9,4,6,10,1,12,5"
14702,commdev-image-keyboard-response,451,788862,learnblock2,843.6999998092651,img/planet8_right.png,8,Community 2,NA,TRUE,j,j,NA,NA,NA,3,7,"11,15,14,13,2,7,3,8,9,4,6,10,1,12,5"
14702,commdev-image-keyboard-response,452,790114,learnblock2,627,img/planet4_right.png,4,Community 2,NA,TRUE,j,j,NA,NA,NA,3,7,"11,15,14,13,2,7,3,8,9,4,6,10,1,12,5"
14702,commdev-image-keyboard-response,453,791365,learnblock2,770.5,img/planet7_left.png,7,Community 2,NA,TRUE,f,f,NA,NA,NA,3,7,"11,15,14,13,2,7,3,8,9,4,6,10,1,12,5"
14702,commdev-image-keyboard-response,454,792618,learnblock2,719.5,img/planet9_left.png,9,Community 2,NA,TRUE,f,f,NA,NA,NA,3,7,"11,15,14,13,2,7,3,8,9,4,6,10,1,12,5"
14702,commdev-image-keyboard-response,455,793870,learnblock2,862.3000001907349,img/planet8_right.png,8,Community 2,NA,TRUE,j,j,NA,NA,NA,3,7,"11,15,14,13,2,7,3,8,9,4,6,10,1,12,5"
14702,commdev-image-keyboard-response,456,795122,learnblock2,1034.5999999046326,img/planet10_left.png,10,Community 3,NA,TRUE,f,f,NA,NA,NA,3,7,"11,15,14,13,2,7,3,8,9,4,6,10,1,12,5"
14702,commdev-image-keyboard-response,457,796373,learnblock2,702.2999997138977,img/planet12_right.png,12,Community 3,NA,TRUE,j,j,NA,NA,NA,3,7,"11,15,14,13,2,7,3,8,9,4,6,10,1,12,5"
14702,commdev-image-keyboard-response,458,797625,learnblock2,736.8000001907349,img/planet10_right.png,10,Community 3,NA,TRUE,j,j,NA,NA,NA,3,7,"11,15,14,13,2,7,3,8,9,4,6,10,1,12,5"
14702,commdev-image-keyboard-response,459,798877,learnblock2,579.9000000953674,img/planet12_left.png,12,Community 3,NA,TRUE,f,f,NA,NA,NA,3,7,"11,15,14,13,2,7,3,8,9,4,6,10,1,12,5"
14702,commdev-image-keyboard-response,460,800129,learnblock2,588,img/planet1_right.png,1,Community 3,NA,TRUE,j,j,NA,NA,NA,3,7,"11,15,14,13,2,7,3,8,9,4,6,10,1,12,5"
14702,commdev-image-keyboard-response,461,801381,learnblock2,505.3999996185303,img/planet10_left.png,10,Community 3,NA,TRUE,f,f,NA,NA,NA,3,7,"11,15,14,13,2,7,3,8,9,4,6,10,1,12,5"
14702,commdev-image-keyboard-response,462,802633,learnblock2,468.2999997138977,img/planet1_left.png,1,Community 3,NA,TRUE,f,f,NA,NA,NA,3,7,"11,15,14,13,2,7,3,8,9,4,6,10,1,12,5"
14702,commdev-image-keyboard-response,463,803885,learnblock2,492.19999980926514,img/planet10_right.png,10,Community 3,NA,TRUE,j,j,NA,NA,NA,3,7,"11,15,14,13,2,7,3,8,9,4,6,10,1,12,5"
14702,commdev-image-keyboard-response,464,805137,learnblock2,410.09999990463257,img/planet1_left.png,1,Community 3,NA,TRUE,f,f,NA,NA,NA,3,7,"11,15,14,13,2,7,3,8,9,4,6,10,1,12,5"
14702,commdev-image-keyboard-response,465,806387,learnblock2,493.2000002861023,img/planet12_left.png,12,Community 3,NA,TRUE,f,f,NA,NA,NA,3,7,"11,15,14,13,2,7,3,8,9,4,6,10,1,12,5"
14702,commdev-image-keyboard-response,466,807639,learnblock2,517.5999999046326,img/planet5_right.png,5,Community 3,NA,TRUE,j,j,NA,NA,NA,3,7,"11,15,14,13,2,7,3,8,9,4,6,10,1,12,5"
14702,commdev-image-keyboard-response,467,808891,learnblock2,526,img/planet1_right.png,1,Community 3,NA,TRUE,j,j,NA,NA,NA,3,7,"11,15,14,13,2,7,3,8,9,4,6,10,1,12,5"
14702,commdev-image-keyboard-response,468,810142,learnblock2,654.7000002861023,img/planet12_right.png,12,Community 3,NA,TRUE,j,j,NA,NA,NA,3,7,"11,15,14,13,2,7,3,8,9,4,6,10,1,12,5"
14702,commdev-image-keyboard-response,469,811394,learnblock2,587.4000000953674,img/planet10_left.png,10,Community 3,NA,TRUE,f,f,NA,NA,NA,3,7,"11,15,14,13,2,7,3,8,9,4,6,10,1,12,5"
14702,commdev-image-keyboard-response,470,812645,learnblock2,535.8000001907349,img/planet1_right.png,1,Community 3,NA,TRUE,j,j,NA,NA,NA,3,7,"11,15,14,13,2,7,3,8,9,4,6,10,1,12,5"
14702,commdev-image-keyboard-response,471,813897,learnblock2,784.9000000953674,img/planet12_right.png,12,Community 3,NA,FALSE,f,j,NA,NA,NA,3,7,"11,15,14,13,2,7,3,8,9,4,6,10,1,12,5"
14702,commdev-image-keyboard-response,472,815149,learnblock2,747.6999998092651,img/planet6_left.png,6,Community 3,NA,TRUE,f,f,NA,NA,NA,3,7,"11,15,14,13,2,7,3,8,9,4,6,10,1,12,5"
14702,commdev-image-keyboard-response,473,816401,learnblock2,697.2000002861023,img/planet1_left.png,1,Community 3,NA,FALSE,j,f,NA,NA,NA,3,7,"11,15,14,13,2,7,3,8,9,4,6,10,1,12,5"
14702,commdev-image-keyboard-response,474,817653,learnblock2,599.1999998092651,img/planet6_left.png,6,Community 3,NA,FALSE,j,f,NA,NA,NA,3,7,"11,15,14,13,2,7,3,8,9,4,6,10,1,12,5"
14702,commdev-image-keyboard-response,475,818905,learnblock2,472.40000009536743,img/planet12_left.png,12,Community 3,NA,TRUE,f,f,NA,NA,NA,3,7,"11,15,14,13,2,7,3,8,9,4,6,10,1,12,5"
14702,commdev-image-keyboard-response,476,820157,learnblock2,555.1000003814697,img/planet5_right.png,5,Community 3,NA,TRUE,j,j,NA,NA,NA,3,7,"11,15,14,13,2,7,3,8,9,4,6,10,1,12,5"
14702,commdev-image-keyboard-response,477,821409,learnblock2,1028.2000002861023,img/planet10_right.png,10,Community 3,NA,TRUE,j,j,NA,NA,NA,3,7,"11,15,14,13,2,7,3,8,9,4,6,10,1,12,5"
14702,commdev-image-keyboard-response,478,822661,learnblock2,930.5999999046326,img/planet5_left.png,5,Community 3,NA,TRUE,f,f,NA,NA,NA,3,7,"11,15,14,13,2,7,3,8,9,4,6,10,1,12,5"
14702,commdev-image-keyboard-response,479,823913,learnblock2,609.1000003814697,img/planet10_right.png,10,Community 3,NA,TRUE,j,j,NA,NA,NA,3,7,"11,15,14,13,2,7,3,8,9,4,6,10,1,12,5"
14702,commdev-image-keyboard-response,480,825166,learnblock2,706.8000001907349,img/planet5_right.png,5,Community 3,NA,TRUE,j,j,NA,NA,NA,3,7,"11,15,14,13,2,7,3,8,9,4,6,10,1,12,5"
14702,commdev-image-keyboard-response,481,826417,learnblock2,610.0999999046326,img/planet6_right.png,6,Community 3,NA,TRUE,j,j,NA,NA,NA,3,7,"11,15,14,13,2,7,3,8,9,4,6,10,1,12,5"
14702,commdev-image-keyboard-response,482,827669,learnblock2,572.5999999046326,img/planet2_right.png,2,Community 1,NA,TRUE,j,j,NA,NA,NA,3,7,"11,15,14,13,2,7,3,8,9,4,6,10,1,12,5"
14702,commdev-image-keyboard-response,483,828920,learnblock2,596.7999997138977,img/planet11_right.png,11,Community 1,NA,TRUE,j,j,NA,NA,NA,3,7,"11,15,14,13,2,7,3,8,9,4,6,10,1,12,5"
14702,commdev-image-keyboard-response,484,830172,learnblock2,680.1999998092651,img/planet2_right.png,2,Community 1,NA,TRUE,j,j,NA,NA,NA,3,7,"11,15,14,13,2,7,3,8,9,4,6,10,1,12,5"
14702,commdev-image-keyboard-response,485,831424,learnblock2,688.1999998092651,img/planet15_right.png,15,Community 1,NA,TRUE,j,j,NA,NA,NA,3,7,"11,15,14,13,2,7,3,8,9,4,6,10,1,12,5"
14702,commdev-image-keyboard-response,486,832675,learnblock2,727.0999999046326,img/planet11_left.png,11,Community 1,NA,TRUE,f,f,NA,NA,NA,3,7,"11,15,14,13,2,7,3,8,9,4,6,10,1,12,5"
14702,commdev-image-keyboard-response,487,833927,learnblock2,570.3999996185303,img/planet2_right.png,2,Community 1,NA,TRUE,j,j,NA,NA,NA,3,7,"11,15,14,13,2,7,3,8,9,4,6,10,1,12,5"
14702,commdev-image-keyboard-response,488,835180,learnblock2,547.8000001907349,img/planet11_left.png,11,Community 1,NA,TRUE,f,f,NA,NA,NA,3,7,"11,15,14,13,2,7,3,8,9,4,6,10,1,12,5"
14702,commdev-image-keyboard-response,489,836431,learnblock2,630.8999996185303,img/planet13_right.png,13,Community 1,NA,TRUE,j,j,NA,NA,NA,3,7,"11,15,14,13,2,7,3,8,9,4,6,10,1,12,5"
14702,commdev-image-keyboard-response,490,837682,learnblock2,565,img/planet14_left.png,14,Community 1,NA,TRUE,f,f,NA,NA,NA,3,7,"11,15,14,13,2,7,3,8,9,4,6,10,1,12,5"
14702,commdev-image-keyboard-response,491,838933,learnblock2,573.5,img/planet13_right.png,13,Community 1,NA,TRUE,j,j,NA,NA,NA,3,7,"11,15,14,13,2,7,3,8,9,4,6,10,1,12,5"
14702,commdev-image-keyboard-response,492,840185,learnblock2,567.3000001907349,img/planet7_right.png,7,Community 2,NA,TRUE,j,j,NA,NA,NA,3,7,"11,15,14,13,2,7,3,8,9,4,6,10,1,12,5"
14702,commdev-image-keyboard-response,493,841438,learnblock2,650.1999998092651,img/planet9_left.png,9,Community 2,NA,TRUE,f,f,NA,NA,NA,3,7,"11,15,14,13,2,7,3,8,9,4,6,10,1,12,5"
14702,commdev-image-keyboard-response,494,842689,learnblock2,748.3000001907349,img/planet3_right.png,3,Community 2,NA,TRUE,j,j,NA,NA,NA,3,7,"11,15,14,13,2,7,3,8,9,4,6,10,1,12,5"
14702,commdev-image-keyboard-response,495,843940,learnblock2,486.80000019073486,img/planet9_left.png,9,Community 2,NA,TRUE,f,f,NA,NA,NA,3,7,"11,15,14,13,2,7,3,8,9,4,6,10,1,12,5"
14702,commdev-image-keyboard-response,496,845193,learnblock2,510.7000002861023,img/planet7_right.png,7,Community 2,NA,TRUE,j,j,NA,NA,NA,3,7,"11,15,14,13,2,7,3,8,9,4,6,10,1,12,5"
14702,commdev-image-keyboard-response,497,846445,learnblock2,593.4000000953674,img/planet9_right.png,9,Community 2,NA,TRUE,j,j,NA,NA,NA,3,7,"11,15,14,13,2,7,3,8,9,4,6,10,1,12,5"
14702,commdev-image-keyboard-response,498,847697,learnblock2,511.2999997138977,img/planet4_left.png,4,Community 2,NA,TRUE,f,f,NA,NA,NA,3,7,"11,15,14,13,2,7,3,8,9,4,6,10,1,12,5"
14702,commdev-image-keyboard-response,499,848948,learnblock2,533.7000002861023,img/planet7_left.png,7,Community 2,NA,FALSE,j,f,NA,NA,NA,3,7,"11,15,14,13,2,7,3,8,9,4,6,10,1,12,5"
14702,commdev-image-keyboard-response,500,850200,learnblock2,617.9000000953674,img/planet13_right.png,13,Community 1,NA,TRUE,j,j,NA,NA,NA,3,7,"11,15,14,13,2,7,3,8,9,4,6,10,1,12,5"
14702,commdev-image-keyboard-response,501,851452,learnblock2,610.9000000953674,img/planet15_right.png,15,Community 1,NA,TRUE,j,j,NA,NA,NA,3,7,"11,15,14,13,2,7,3,8,9,4,6,10,1,12,5"
14702,commdev-image-keyboard-response,502,852704,learnblock2,679.6000003814697,img/planet13_right.png,13,Community 1,NA,TRUE,j,j,NA,NA,NA,3,7,"11,15,14,13,2,7,3,8,9,4,6,10,1,12,5"
14702,commdev-image-keyboard-response,503,853956,learnblock2,642.4000000953674,img/planet11_left.png,11,Community 1,NA,TRUE,f,f,NA,NA,NA,3,7,"11,15,14,13,2,7,3,8,9,4,6,10,1,12,5"
14702,commdev-image-keyboard-response,504,855207,learnblock2,560.1999998092651,img/planet2_left.png,2,Community 1,NA,TRUE,f,f,NA,NA,NA,3,7,"11,15,14,13,2,7,3,8,9,4,6,10,1,12,5"
14702,commdev-image-keyboard-response,505,856458,learnblock2,659.4000000953674,img/planet14_left.png,14,Community 1,NA,TRUE,f,f,NA,NA,NA,3,7,"11,15,14,13,2,7,3,8,9,4,6,10,1,12,5"
14702,commdev-image-keyboard-response,506,857709,learnblock2,668.2000002861023,img/planet13_right.png,13,Community 1,NA,TRUE,j,j,NA,NA,NA,3,7,"11,15,14,13,2,7,3,8,9,4,6,10,1,12,5"
14702,commdev-image-keyboard-response,507,858962,learnblock2,572.0999999046326,img/planet7_right.png,7,Community 2,NA,TRUE,j,j,NA,NA,NA,3,7,"11,15,14,13,2,7,3,8,9,4,6,10,1,12,5"
14702,commdev-image-keyboard-response,508,860214,learnblock2,714.7999997138977,img/planet13_left.png,13,Community 1,NA,FALSE,j,f,NA,NA,NA,3,7,"11,15,14,13,2,7,3,8,9,4,6,10,1,12,5"
14702,commdev-image-keyboard-response,509,861465,learnblock2,632.2999997138977,img/planet15_left.png,15,Community 1,NA,TRUE,f,f,NA,NA,NA,3,7,"11,15,14,13,2,7,3,8,9,4,6,10,1,12,5"
14702,commdev-image-keyboard-response,510,862717,learnblock2,535.2999997138977,img/planet14_right.png,14,Community 1,NA,TRUE,j,j,NA,NA,NA,3,7,"11,15,14,13,2,7,3,8,9,4,6,10,1,12,5"
14702,commdev-image-keyboard-response,511,863970,learnblock2,694.4000000953674,img/planet15_left.png,15,Community 1,NA,TRUE,f,f,NA,NA,NA,3,7,"11,15,14,13,2,7,3,8,9,4,6,10,1,12,5"
14702,commdev-image-keyboard-response,512,865221,learnblock2,686.7000002861023,img/planet11_left.png,11,Community 1,NA,TRUE,f,f,NA,NA,NA,3,7,"11,15,14,13,2,7,3,8,9,4,6,10,1,12,5"
14702,commdev-image-keyboard-response,513,866472,learnblock2,800.6000003814697,img/planet14_left.png,14,Community 1,NA,TRUE,f,f,NA,NA,NA,3,7,"11,15,14,13,2,7,3,8,9,4,6,10,1,12,5"
14702,commdev-image-keyboard-response,514,867724,learnblock2,720.6999998092651,img/planet15_right.png,15,Community 1,NA,TRUE,j,j,NA,NA,NA,3,7,"11,15,14,13,2,7,3,8,9,4,6,10,1,12,5"
14702,commdev-image-keyboard-response,515,868976,learnblock2,577.5,img/planet11_left.png,11,Community 1,NA,TRUE,f,f,NA,NA,NA,3,7,"11,15,14,13,2,7,3,8,9,4,6,10,1,12,5"
14702,commdev-image-keyboard-response,516,870228,learnblock2,630.4000000953674,img/planet13_left.png,13,Community 1,NA,TRUE,f,f,NA,NA,NA,3,7,"11,15,14,13,2,7,3,8,9,4,6,10,1,12,5"
14702,commdev-image-keyboard-response,517,871479,learnblock2,592.9000000953674,img/planet14_right.png,14,Community 1,NA,TRUE,j,j,NA,NA,NA,3,7,"11,15,14,13,2,7,3,8,9,4,6,10,1,12,5"
14702,commdev-image-keyboard-response,518,872730,learnblock2,752.1999998092651,img/planet11_right.png,11,Community 1,NA,FALSE,f,j,NA,NA,NA,3,7,"11,15,14,13,2,7,3,8,9,4,6,10,1,12,5"
14702,commdev-image-keyboard-response,519,873981,learnblock2,1061.7000002861023,img/planet13_left.png,13,Community 1,NA,FALSE,j,f,NA,NA,NA,3,7,"11,15,14,13,2,7,3,8,9,4,6,10,1,12,5"
14702,commdev-image-keyboard-response,520,875232,learnblock2,965.5,img/planet14_left.png,14,Community 1,NA,TRUE,f,f,NA,NA,NA,3,7,"11,15,14,13,2,7,3,8,9,4,6,10,1,12,5"
14702,commdev-image-keyboard-response,521,876485,learnblock2,778.5999999046326,img/planet13_left.png,13,Community 1,NA,TRUE,f,f,NA,NA,NA,3,7,"11,15,14,13,2,7,3,8,9,4,6,10,1,12,5"
14702,commdev-image-keyboard-response,522,877736,learnblock2,636.2999997138977,img/planet11_left.png,11,Community 1,NA,TRUE,f,f,NA,NA,NA,3,7,"11,15,14,13,2,7,3,8,9,4,6,10,1,12,5"
14702,commdev-image-keyboard-response,523,878988,learnblock2,570.5999999046326,img/planet15_right.png,15,Community 1,NA,TRUE,j,j,NA,NA,NA,3,7,"11,15,14,13,2,7,3,8,9,4,6,10,1,12,5"
14702,commdev-image-keyboard-response,524,880240,learnblock2,969,img/planet11_right.png,11,Community 1,NA,FALSE,f,j,NA,NA,NA,3,7,"11,15,14,13,2,7,3,8,9,4,6,10,1,12,5"
14702,commdev-image-keyboard-response,525,881492,learnblock2,841.5999999046326,img/planet13_right.png,13,Community 1,NA,TRUE,j,j,NA,NA,NA,3,7,"11,15,14,13,2,7,3,8,9,4,6,10,1,12,5"
14702,commdev-image-keyboard-response,526,882743,learnblock2,775.0999999046326,img/planet15_right.png,15,Community 1,NA,TRUE,j,j,NA,NA,NA,3,7,"11,15,14,13,2,7,3,8,9,4,6,10,1,12,5"
14702,commdev-image-keyboard-response,527,883996,learnblock2,677.8000001907349,img/planet2_left.png,2,Community 1,NA,TRUE,f,f,NA,NA,NA,3,7,"11,15,14,13,2,7,3,8,9,4,6,10,1,12,5"
14702,commdev-image-keyboard-response,528,885247,learnblock2,745.9000000953674,img/planet14_right.png,14,Community 1,NA,TRUE,j,j,NA,NA,NA,3,7,"11,15,14,13,2,7,3,8,9,4,6,10,1,12,5"
14702,commdev-image-keyboard-response,529,886499,learnblock2,649,img/planet13_right.png,13,Community 1,NA,TRUE,j,j,NA,NA,NA,3,7,"11,15,14,13,2,7,3,8,9,4,6,10,1,12,5"
14702,commdev-image-keyboard-response,530,887751,learnblock2,852.5,img/planet14_right.png,14,Community 1,NA,TRUE,j,j,NA,NA,NA,3,7,"11,15,14,13,2,7,3,8,9,4,6,10,1,12,5"
14702,commdev-image-keyboard-response,531,889003,learnblock2,770.6999998092651,img/planet2_right.png,2,Community 1,NA,TRUE,j,j,NA,NA,NA,3,7,"11,15,14,13,2,7,3,8,9,4,6,10,1,12,5"
14702,commdev-image-keyboard-response,532,890255,learnblock2,943.6999998092651,img/planet6_left.png,6,Community 3,NA,TRUE,f,f,NA,NA,NA,3,7,"11,15,14,13,2,7,3,8,9,4,6,10,1,12,5"
14702,commdev-image-keyboard-response,533,891506,learnblock2,606.8000001907349,img/planet1_right.png,1,Community 3,NA,TRUE,j,j,NA,NA,NA,3,7,"11,15,14,13,2,7,3,8,9,4,6,10,1,12,5"
14702,commdev-image-keyboard-response,534,892758,learnblock2,825.7999997138977,img/planet6_right.png,6,Community 3,NA,TRUE,j,j,NA,NA,NA,3,7,"11,15,14,13,2,7,3,8,9,4,6,10,1,12,5"
14702,commdev-image-keyboard-response,535,894010,learnblock2,608.5,img/planet1_left.png,1,Community 3,NA,TRUE,f,f,NA,NA,NA,3,7,"11,15,14,13,2,7,3,8,9,4,6,10,1,12,5"
14702,commdev-image-keyboard-response,536,895261,learnblock2,902.2000002861023,img/planet12_left.png,12,Community 3,NA,TRUE,f,f,NA,NA,NA,3,7,"11,15,14,13,2,7,3,8,9,4,6,10,1,12,5"
14702,commdev-image-keyboard-response,537,896514,learnblock2,730.0999999046326,img/planet6_left.png,6,Community 3,NA,TRUE,f,f,NA,NA,NA,3,7,"11,15,14,13,2,7,3,8,9,4,6,10,1,12,5"
14702,commdev-image-keyboard-response,538,897766,learnblock2,647.8999996185303,img/planet2_left.png,2,Community 1,NA,TRUE,f,f,NA,NA,NA,3,7,"11,15,14,13,2,7,3,8,9,4,6,10,1,12,5"
14702,commdev-image-keyboard-response,539,899018,learnblock2,611.1999998092651,img/planet11_left.png,11,Community 1,NA,TRUE,f,f,NA,NA,NA,3,7,"11,15,14,13,2,7,3,8,9,4,6,10,1,12,5"
14702,commdev-image-keyboard-response,540,900270,learnblock2,529.0999999046326,img/planet15_left.png,15,Community 1,NA,TRUE,f,f,NA,NA,NA,3,7,"11,15,14,13,2,7,3,8,9,4,6,10,1,12,5"
14702,commdev-image-keyboard-response,541,901521,learnblock2,461.59999990463257,img/planet11_right.png,11,Community 1,NA,FALSE,f,j,NA,NA,NA,3,7,"11,15,14,13,2,7,3,8,9,4,6,10,1,12,5"
14702,commdev-image-keyboard-response,542,902772,learnblock2,951.0999999046326,img/planet14_right.png,14,Community 1,NA,TRUE,j,j,NA,NA,NA,3,7,"11,15,14,13,2,7,3,8,9,4,6,10,1,12,5"
14702,commdev-image-keyboard-response,543,904023,learnblock2,735,img/planet2_left.png,2,Community 1,NA,TRUE,f,f,NA,NA,NA,3,7,"11,15,14,13,2,7,3,8,9,4,6,10,1,12,5"
14702,commdev-image-keyboard-response,544,905275,learnblock2,488.5,img/planet11_right.png,11,Community 1,NA,TRUE,j,j,NA,NA,NA,3,7,"11,15,14,13,2,7,3,8,9,4,6,10,1,12,5"
14702,commdev-image-keyboard-response,545,906526,learnblock2,1008.2000002861023,img/planet15_left.png,15,Community 1,NA,FALSE,j,f,NA,NA,NA,3,7,"11,15,14,13,2,7,3,8,9,4,6,10,1,12,5"
14702,commdev-image-keyboard-response,546,907777,learnblock2,71,img/planet14_left.png,14,Community 1,NA,TRUE,f,f,NA,NA,NA,3,7,"11,15,14,13,2,7,3,8,9,4,6,10,1,12,5"
14702,commdev-image-keyboard-response,547,909029,learnblock2,544.4000000953674,img/planet15_right.png,15,Community 1,NA,TRUE,j,j,NA,NA,NA,3,7,"11,15,14,13,2,7,3,8,9,4,6,10,1,12,5"
14702,commdev-image-keyboard-response,548,910280,learnblock2,583.1000003814697,img/planet13_left.png,13,Community 1,NA,TRUE,f,f,NA,NA,NA,3,7,"11,15,14,13,2,7,3,8,9,4,6,10,1,12,5"
14702,commdev-image-keyboard-response,549,911532,learnblock2,726.7000002861023,img/planet7_left.png,7,Community 2,NA,TRUE,f,f,NA,NA,NA,3,7,"11,15,14,13,2,7,3,8,9,4,6,10,1,12,5"
14702,commdev-image-keyboard-response,550,912784,learnblock2,810.7000002861023,img/planet9_left.png,9,Community 2,NA,TRUE,f,f,NA,NA,NA,3,7,"11,15,14,13,2,7,3,8,9,4,6,10,1,12,5"
14702,commdev-image-keyboard-response,551,914035,learnblock2,848.5999999046326,img/planet8_left.png,8,Community 2,NA,TRUE,f,f,NA,NA,NA,3,7,"11,15,14,13,2,7,3,8,9,4,6,10,1,12,5"
14702,commdev-image-keyboard-response,552,915287,learnblock2,527,img/planet10_right.png,10,Community 3,NA,TRUE,j,j,NA,NA,NA,3,7,"11,15,14,13,2,7,3,8,9,4,6,10,1,12,5"
14702,commdev-image-keyboard-response,553,916538,learnblock2,625.4000000953674,img/planet5_left.png,5,Community 3,NA,TRUE,f,f,NA,NA,NA,3,7,"11,15,14,13,2,7,3,8,9,4,6,10,1,12,5"
14702,commdev-image-keyboard-response,554,917790,learnblock2,588.9000000953674,img/planet6_left.png,6,Community 3,NA,TRUE,f,f,NA,NA,NA,3,7,"11,15,14,13,2,7,3,8,9,4,6,10,1,12,5"
14702,commdev-image-keyboard-response,555,919041,learnblock2,552.1999998092651,img/planet5_right.png,5,Community 3,NA,FALSE,f,j,NA,NA,NA,3,7,"11,15,14,13,2,7,3,8,9,4,6,10,1,12,5"
14702,commdev-image-keyboard-response,556,920293,learnblock2,846.1999998092651,img/planet1_right.png,1,Community 3,NA,TRUE,j,j,NA,NA,NA,3,7,"11,15,14,13,2,7,3,8,9,4,6,10,1,12,5"
14702,commdev-image-keyboard-response,557,921545,learnblock2,659.3000001907349,img/planet10_right.png,10,Community 3,NA,TRUE,j,j,NA,NA,NA,3,7,"11,15,14,13,2,7,3,8,9,4,6,10,1,12,5"
14702,commdev-image-keyboard-response,558,922796,learnblock2,682.9000000953674,img/planet5_left.png,5,Community 3,NA,TRUE,f,f,NA,NA,NA,3,7,"11,15,14,13,2,7,3,8,9,4,6,10,1,12,5"
14702,commdev-image-keyboard-response,559,924048,learnblock2,645.7999997138977,img/planet6_left.png,6,Community 3,NA,TRUE,f,f,NA,NA,NA,3,7,"11,15,14,13,2,7,3,8,9,4,6,10,1,12,5"
14702,commdev-image-keyboard-response,560,925300,learnblock2,579.2999997138977,img/planet1_left.png,1,Community 3,NA,TRUE,f,f,NA,NA,NA,3,7,"11,15,14,13,2,7,3,8,9,4,6,10,1,12,5"
14702,commdev-image-keyboard-response,561,926551,learnblock2,647.1999998092651,img/planet5_left.png,5,Community 3,NA,TRUE,f,f,NA,NA,NA,3,7,"11,15,14,13,2,7,3,8,9,4,6,10,1,12,5"
14702,commdev-image-keyboard-response,562,927803,learnblock2,431.5,img/planet1_left.png,1,Community 3,NA,TRUE,f,f,NA,NA,NA,3,7,"11,15,14,13,2,7,3,8,9,4,6,10,1,12,5"
14702,commdev-image-keyboard-response,563,929054,learnblock2,740.1000003814697,img/planet6_right.png,6,Community 3,NA,TRUE,j,j,NA,NA,NA,3,7,"11,15,14,13,2,7,3,8,9,4,6,10,1,12,5"
14702,commdev-image-keyboard-response,564,930305,learnblock2,868.5,img/planet1_right.png,1,Community 3,NA,TRUE,j,j,NA,NA,NA,3,7,"11,15,14,13,2,7,3,8,9,4,6,10,1,12,5"
14702,commdev-image-keyboard-response,565,931557,learnblock2,667.0999999046326,img/planet5_right.png,5,Community 3,NA,TRUE,j,j,NA,NA,NA,3,7,"11,15,14,13,2,7,3,8,9,4,6,10,1,12,5"
14702,commdev-image-keyboard-response,566,932809,learnblock2,630.5,img/planet6_right.png,6,Community 3,NA,TRUE,j,j,NA,NA,NA,3,7,"11,15,14,13,2,7,3,8,9,4,6,10,1,12,5"
14702,commdev-image-keyboard-response,567,934061,learnblock2,654.2000002861023,img/planet12_left.png,12,Community 3,NA,TRUE,f,f,NA,NA,NA,3,7,"11,15,14,13,2,7,3,8,9,4,6,10,1,12,5"
14702,commdev-image-keyboard-response,568,935313,learnblock2,661.1000003814697,img/planet1_left.png,1,Community 3,NA,TRUE,f,f,NA,NA,NA,3,7,"11,15,14,13,2,7,3,8,9,4,6,10,1,12,5"
14702,commdev-image-keyboard-response,569,936564,learnblock2,565,img/planet6_left.png,6,Community 3,NA,TRUE,f,f,NA,NA,NA,3,7,"11,15,14,13,2,7,3,8,9,4,6,10,1,12,5"
14702,commdev-image-keyboard-response,570,937816,learnblock2,618.5999999046326,img/planet12_right.png,12,Community 3,NA,TRUE,j,j,NA,NA,NA,3,7,"11,15,14,13,2,7,3,8,9,4,6,10,1,12,5"
14702,commdev-image-keyboard-response,571,939068,learnblock2,551.6000003814697,img/planet10_right.png,10,Community 3,NA,TRUE,j,j,NA,NA,NA,3,7,"11,15,14,13,2,7,3,8,9,4,6,10,1,12,5"
14702,commdev-image-keyboard-response,572,940320,learnblock2,500.2999997138977,img/planet12_right.png,12,Community 3,NA,TRUE,j,j,NA,NA,NA,3,7,"11,15,14,13,2,7,3,8,9,4,6,10,1,12,5"
14702,commdev-image-keyboard-response,573,941572,learnblock2,687.1999998092651,img/planet5_left.png,5,Community 3,NA,TRUE,f,f,NA,NA,NA,3,7,"11,15,14,13,2,7,3,8,9,4,6,10,1,12,5"
14702,commdev-image-keyboard-response,574,942823,learnblock2,620.4000000953674,img/planet1_right.png,1,Community 3,NA,TRUE,j,j,NA,NA,NA,3,7,"11,15,14,13,2,7,3,8,9,4,6,10,1,12,5"
14702,commdev-image-keyboard-response,575,944073,learnblock2,735.9000000953674,img/planet12_right.png,12,Community 3,NA,TRUE,j,j,NA,NA,NA,3,7,"11,15,14,13,2,7,3,8,9,4,6,10,1,12,5"
14702,commdev-image-keyboard-response,576,945325,learnblock2,504.19999980926514,img/planet5_right.png,5,Community 3,NA,TRUE,j,j,NA,NA,NA,3,7,"11,15,14,13,2,7,3,8,9,4,6,10,1,12,5"
14702,commdev-image-keyboard-response,577,946576,learnblock2,557.4000000953674,img/planet10_left.png,10,Community 3,NA,TRUE,f,f,NA,NA,NA,3,7,"11,15,14,13,2,7,3,8,9,4,6,10,1,12,5"
14702,commdev-image-keyboard-response,578,947828,learnblock2,566.1999998092651,img/planet1_left.png,1,Community 3,NA,TRUE,f,f,NA,NA,NA,3,7,"11,15,14,13,2,7,3,8,9,4,6,10,1,12,5"
14702,commdev-image-keyboard-response,579,949080,learnblock2,604.4000000953674,img/planet6_left.png,6,Community 3,NA,TRUE,f,f,NA,NA,NA,3,7,"11,15,14,13,2,7,3,8,9,4,6,10,1,12,5"
14702,commdev-image-keyboard-response,580,950330,learnblock2,643.3000001907349,img/planet1_right.png,1,Community 3,NA,TRUE,j,j,NA,NA,NA,3,7,"11,15,14,13,2,7,3,8,9,4,6,10,1,12,5"
14702,commdev-image-keyboard-response,581,951582,learnblock2,562.4000000953674,img/planet5_left.png,5,Community 3,NA,TRUE,f,f,NA,NA,NA,3,7,"11,15,14,13,2,7,3,8,9,4,6,10,1,12,5"
14702,commdev-image-keyboard-response,582,952833,learnblock2,496,img/planet10_right.png,10,Community 3,NA,TRUE,j,j,NA,NA,NA,3,7,"11,15,14,13,2,7,3,8,9,4,6,10,1,12,5"
14702,commdev-image-keyboard-response,583,954085,learnblock2,729.8000001907349,img/planet8_left.png,8,Community 2,NA,TRUE,f,f,NA,NA,NA,3,7,"11,15,14,13,2,7,3,8,9,4,6,10,1,12,5"
14702,commdev-image-keyboard-response,584,955336,learnblock2,483.30000019073486,img/planet10_right.png,10,Community 3,NA,TRUE,j,j,NA,NA,NA,3,7,"11,15,14,13,2,7,3,8,9,4,6,10,1,12,5"
14702,commdev-image-keyboard-response,585,956587,learnblock2,746.6000003814697,img/planet1_right.png,1,Community 3,NA,TRUE,j,j,NA,NA,NA,3,7,"11,15,14,13,2,7,3,8,9,4,6,10,1,12,5"
