subject_id,trial_type,trial_index,time_elapsed,block,rt,stimulus,planet,community,response,correct,key_press,learning_correct_response,parse,init_locations,final_locations,browser_interactions,num_comp,planet_map
14929,commdev-instructions,7,36615,NA,3251.699999809265,"<p>In this game, you will be shown a 3x3 grid of patterns.</p> <p>The last one in the bottom right-hand corner, <strong>will be missing:</strong></p> <div style='width: 700px;'><div style='float: top;'><img style='width: 200px;' src='practice/p1_M1.png'></img><p class='small'>You need to select<strong> which of the four possible patterns </strong>along the bottom<strong> fits into the gap:</strong></p></div><div style='float: top;'><img style='width: 300px;' src='practice/p1_T1.png'></img></div><br>",NA,NA,NA,NA,NA,NA,NA,NA,NA,1,6,"5,13,11,6,14,4,3,15,8,1,10,2,9,7,12"
14929,commdev-instructions,8,55016,NA,512.3000001907349,"<p>Try to be as fast and as accurate as you can be.</p> <p>If you cannot solve the puzzle then you should guess - you will not be penalised for an incorrect answer.</p> <p>The task contains a shuffled mix of easy, medium and hard puzzles.</p> <p>You will have <strong>30 seconds</strong> to complete each puzzle.</p><br>",NA,NA,NA,NA,NA,NA,NA,NA,NA,1,6,"5,13,11,6,14,4,3,15,8,1,10,2,9,7,12"
14929,commdev-instructions,15,74997,NA,622.4000000953674,<p><strong>Success!</strong></p> <p>You seem to be getting the hang of this...</p> <p>Let's move on to the real trials.</p><br>,NA,NA,NA,NA,NA,NA,NA,NA,NA,1,6,"5,13,11,6,14,4,3,15,8,1,10,2,9,7,12"
14929,commdev-instructions,167,568772,NA,1364.5999999046326,"<p>In this game, you are a scientist on board a space shuttle. </p><p> On each mission, you will visit planets all across the universe.</p><img src=""img/controlroom.jpg"" width=300vw>",NA,NA,NA,NA,NA,NA,NA,NA,NA,1,6,"5,13,11,6,14,4,3,15,8,1,10,2,9,7,12"
14929,commdev-instructions,168,572189,NA,1342,"<p>Here are a few planets you might see:</p><img src=""img/practice1.png"" width=200vw><img src=""img/practice2.png"" width=200vw><img src=""img/practice3.png"" width=200vw>",NA,NA,NA,NA,NA,NA,NA,NA,NA,1,6,"5,13,11,6,14,4,3,15,8,1,10,2,9,7,12"
14929,commdev-instructions,169,581336,NA,1738.7000000476837,"<p>Your job as a scientist is to record which direction the winds are moving on each planet.</p><p>There are two types of wind directions:</p><img src=""img/practice1_left.png"" width=200vw><img src=""img/practice1_right.png"" width=200vw>",NA,NA,NA,NA,NA,NA,NA,NA,NA,1,6,"5,13,11,6,14,4,3,15,8,1,10,2,9,7,12"
14929,commdev-instructions,170,588628,NA,2400.0999999046326,"<p>If the winds are moving this way, press the letter <strong>F</strong> on the keyboard as fast as you can.</p><img src=""img/leftwind.png"" width=250vw>",NA,NA,NA,NA,NA,NA,NA,NA,NA,1,6,"5,13,11,6,14,4,3,15,8,1,10,2,9,7,12"
14929,commdev-instructions,171,594357,NA,1239.0999999046326,"<p>If the winds are moving this way, press the letter <strong>J</strong> on the keyboard as fast as you can.</p><img src=""img/rightwind.png"" width=350vw>",NA,NA,NA,NA,NA,NA,NA,NA,NA,1,6,"5,13,11,6,14,4,3,15,8,1,10,2,9,7,12"
14929,commdev-instructions,172,600373,NA,1594.5,<p>You will have 1 second to respond. Try to respond before the time runs out!,NA,NA,NA,NA,NA,NA,NA,NA,NA,1,6,"5,13,11,6,14,4,3,15,8,1,10,2,9,7,12"
14929,commdev-instructions,173,607364,NA,1556,<p>The planets you will visit will look different from each other.</p><p>You should respond <strong>only</strong> based on wind direction.,NA,NA,NA,NA,NA,NA,NA,NA,NA,1,6,"5,13,11,6,14,4,3,15,8,1,10,2,9,7,12"
14929,commdev-instructions,174,613279,NA,740.2000000476837,"<p> Ready to start the practice round? </p><p> Remember, press <strong>F</strong> or <strong>J</strong> depending on the wind direction.<br><img src=""img/categorize_planet_example.png""",NA,NA,NA,NA,NA,NA,NA,NA,NA,1,6,"5,13,11,6,14,4,3,15,8,1,10,2,9,7,12"
14929,commdev-instructions,186,663158,NA,869.5999999046326,"<p>Great, now try a short practice mission. </p><p> This time, you will have 1 second to respond and you won't know whether you pressed the right or wrong key for each planet.</p>",NA,NA,NA,NA,NA,NA,NA,NA,NA,1,6,"5,13,11,6,14,4,3,15,8,1,10,2,9,7,12"
14929,commdev-image-keyboard-response,187,664530,practice,620.2000000476837,img/practice4_left.png,NA,Number not found in mappings,NA,TRUE,f,f,NA,NA,NA,1,6,"5,13,11,6,14,4,3,15,8,1,10,2,9,7,12"
14929,commdev-image-keyboard-response,188,665788,practice,658.1000001430511,img/practice1_right.png,NA,Number not found in mappings,NA,TRUE,j,j,NA,NA,NA,1,6,"5,13,11,6,14,4,3,15,8,1,10,2,9,7,12"
14929,commdev-image-keyboard-response,189,667054,practice,457.10000014305115,img/practice4_left.png,NA,Number not found in mappings,NA,TRUE,f,f,NA,NA,NA,1,6,"5,13,11,6,14,4,3,15,8,1,10,2,9,7,12"
14929,commdev-image-keyboard-response,190,668310,practice,474.2000000476837,img/practice3_right.png,NA,Number not found in mappings,NA,FALSE,f,j,NA,NA,NA,1,6,"5,13,11,6,14,4,3,15,8,1,10,2,9,7,12"
14929,commdev-image-keyboard-response,191,669570,practice,517.5,img/practice4_left.png,NA,Number not found in mappings,NA,TRUE,f,f,NA,NA,NA,1,6,"5,13,11,6,14,4,3,15,8,1,10,2,9,7,12"
14929,commdev-image-keyboard-response,192,670834,practice,523.7000000476837,img/practice3_left.png,NA,Number not found in mappings,NA,TRUE,f,f,NA,NA,NA,1,6,"5,13,11,6,14,4,3,15,8,1,10,2,9,7,12"
14929,commdev-image-keyboard-response,193,672094,practice,492.59999990463257,img/practice1_left.png,NA,Number not found in mappings,NA,TRUE,f,f,NA,NA,NA,1,6,"5,13,11,6,14,4,3,15,8,1,10,2,9,7,12"
14929,commdev-image-keyboard-response,194,673359,practice,380.5,img/practice4_left.png,NA,Number not found in mappings,NA,TRUE,f,f,NA,NA,NA,1,6,"5,13,11,6,14,4,3,15,8,1,10,2,9,7,12"
14929,commdev-instructions,195,696526,NA,13618.200000047684,"<p>Great job with the practice round.</p><p>During real missions, you won't know whether you pressed the right or wrong key for each planet.</p><p>But between missions, we will tell you how you did overall.</p>",NA,NA,NA,NA,NA,NA,NA,NA,NA,1,6,"5,13,11,6,14,4,3,15,8,1,10,2,9,7,12"
14929,commdev-instructions,196,712198,NA,7428.5,<p>Try your best! You will be paid a bonus based on how many correct responses you make!</p><p>Responses that are too slow will not count toward your bonus.</p>,NA,NA,NA,NA,NA,NA,NA,NA,NA,1,6,"5,13,11,6,14,4,3,15,8,1,10,2,9,7,12"
14929,commdev-instructions,197,719168,NA,768.7999999523163,"<p>You are almost ready to start the real game.</p><p> First, we are going to ask you some questions about how the game works.</p>",NA,NA,NA,NA,NA,NA,NA,NA,NA,1,6,"5,13,11,6,14,4,3,15,8,1,10,2,9,7,12"
14929,commdev-instructions,206,818096,NA,4733.099999904633,"<p> Nice work! It is now time to start the real game.<p></p>You will go on two missions to record wind directions of different planets.<p></p>Each one will take about 5 minutes. You will get to take a break between missions.<p><p> Remember, press <strong>F</strong> or <strong>J</strong> depending on the wind direction. Good luck!<br><img src=""img/categorize_planet_example.png""",NA,NA,NA,NA,NA,NA,NA,NA,NA,1,6,"5,13,11,6,14,4,3,15,8,1,10,2,9,7,12"
14929,commdev-image-keyboard-response,208,824534,learnblock1,768.7999999523163,img/planet5_left.png,5,Community 1,NA,TRUE,f,f,NA,NA,NA,1,6,"5,13,11,6,14,4,3,15,8,1,10,2,9,7,12"
14929,commdev-image-keyboard-response,209,825798,learnblock1,639.1000001430511,img/planet13_right.png,13,Community 1,NA,TRUE,j,j,NA,NA,NA,1,6,"5,13,11,6,14,4,3,15,8,1,10,2,9,7,12"
14929,commdev-image-keyboard-response,210,827055,learnblock1,574.5999999046326,img/planet6_right.png,6,Community 1,NA,TRUE,j,j,NA,NA,NA,1,6,"5,13,11,6,14,4,3,15,8,1,10,2,9,7,12"
14929,commdev-image-keyboard-response,211,828318,learnblock1,602.0999999046326,img/planet5_left.png,5,Community 1,NA,TRUE,f,f,NA,NA,NA,1,6,"5,13,11,6,14,4,3,15,8,1,10,2,9,7,12"
14929,commdev-image-keyboard-response,212,829580,learnblock1,486.7000000476837,img/planet14_right.png,14,Community 1,NA,TRUE,j,j,NA,NA,NA,1,6,"5,13,11,6,14,4,3,15,8,1,10,2,9,7,12"
14929,commdev-image-keyboard-response,213,830842,learnblock1,473.5,img/planet5_left.png,5,Community 1,NA,TRUE,f,f,NA,NA,NA,1,6,"5,13,11,6,14,4,3,15,8,1,10,2,9,7,12"
14929,commdev-image-keyboard-response,214,832102,learnblock1,487.39999985694885,img/planet11_right.png,11,Community 1,NA,TRUE,j,j,NA,NA,NA,1,6,"5,13,11,6,14,4,3,15,8,1,10,2,9,7,12"
14929,commdev-image-keyboard-response,215,833362,learnblock1,492.09999990463257,img/planet5_right.png,5,Community 1,NA,TRUE,j,j,NA,NA,NA,1,6,"5,13,11,6,14,4,3,15,8,1,10,2,9,7,12"
14929,commdev-image-keyboard-response,216,834625,learnblock1,499.7000000476837,img/planet14_right.png,14,Community 1,NA,TRUE,j,j,NA,NA,NA,1,6,"5,13,11,6,14,4,3,15,8,1,10,2,9,7,12"
14929,commdev-image-keyboard-response,217,835887,learnblock1,510.10000014305115,img/planet5_right.png,5,Community 1,NA,TRUE,j,j,NA,NA,NA,1,6,"5,13,11,6,14,4,3,15,8,1,10,2,9,7,12"
14929,commdev-image-keyboard-response,218,837152,learnblock1,539,img/planet6_left.png,6,Community 1,NA,FALSE,j,f,NA,NA,NA,1,6,"5,13,11,6,14,4,3,15,8,1,10,2,9,7,12"
14929,commdev-image-keyboard-response,219,838414,learnblock1,589.9000000953674,img/planet11_right.png,11,Community 1,NA,TRUE,j,j,NA,NA,NA,1,6,"5,13,11,6,14,4,3,15,8,1,10,2,9,7,12"
14929,commdev-image-keyboard-response,220,839673,learnblock1,829.2999999523163,img/planet6_right.png,6,Community 1,NA,TRUE,j,j,NA,NA,NA,1,6,"5,13,11,6,14,4,3,15,8,1,10,2,9,7,12"
14929,commdev-image-keyboard-response,221,840938,learnblock1,728.5999999046326,img/planet13_right.png,13,Community 1,NA,TRUE,j,j,NA,NA,NA,1,6,"5,13,11,6,14,4,3,15,8,1,10,2,9,7,12"
14929,commdev-image-keyboard-response,222,842202,learnblock1,469.7999999523163,img/planet6_right.png,6,Community 1,NA,TRUE,j,j,NA,NA,NA,1,6,"5,13,11,6,14,4,3,15,8,1,10,2,9,7,12"
14929,commdev-image-keyboard-response,223,843453,learnblock1,734.1000001430511,img/planet4_right.png,4,Community 2,NA,TRUE,j,j,NA,NA,NA,1,6,"5,13,11,6,14,4,3,15,8,1,10,2,9,7,12"
14929,commdev-image-keyboard-response,224,844705,learnblock1,605.3999998569489,img/planet6_left.png,6,Community 1,NA,TRUE,f,f,NA,NA,NA,1,6,"5,13,11,6,14,4,3,15,8,1,10,2,9,7,12"
14929,commdev-image-keyboard-response,225,845958,learnblock1,602.5,img/planet4_right.png,4,Community 2,NA,TRUE,j,j,NA,NA,NA,1,6,"5,13,11,6,14,4,3,15,8,1,10,2,9,7,12"
14929,commdev-image-keyboard-response,226,847210,learnblock1,691.7000000476837,img/planet3_left.png,3,Community 2,NA,TRUE,f,f,NA,NA,NA,1,6,"5,13,11,6,14,4,3,15,8,1,10,2,9,7,12"
14929,commdev-image-keyboard-response,227,848461,learnblock1,571.4000000953674,img/planet1_right.png,1,Community 2,NA,TRUE,j,j,NA,NA,NA,1,6,"5,13,11,6,14,4,3,15,8,1,10,2,9,7,12"
14929,commdev-image-keyboard-response,228,849713,learnblock1,544.2999999523163,img/planet15_right.png,15,Community 2,NA,TRUE,j,j,NA,NA,NA,1,6,"5,13,11,6,14,4,3,15,8,1,10,2,9,7,12"
14929,commdev-image-keyboard-response,229,850965,learnblock1,557.9000000953674,img/planet2_right.png,2,Community 3,NA,TRUE,j,j,NA,NA,NA,1,6,"5,13,11,6,14,4,3,15,8,1,10,2,9,7,12"
14929,commdev-image-keyboard-response,230,852217,learnblock1,529.7000000476837,img/planet15_right.png,15,Community 2,NA,TRUE,j,j,NA,NA,NA,1,6,"5,13,11,6,14,4,3,15,8,1,10,2,9,7,12"
14929,commdev-image-keyboard-response,231,853470,learnblock1,550.4000000953674,img/planet8_right.png,8,Community 2,NA,TRUE,j,j,NA,NA,NA,1,6,"5,13,11,6,14,4,3,15,8,1,10,2,9,7,12"
14929,commdev-image-keyboard-response,232,854722,learnblock1,548.4000000953674,img/planet3_left.png,3,Community 2,NA,TRUE,f,f,NA,NA,NA,1,6,"5,13,11,6,14,4,3,15,8,1,10,2,9,7,12"
14929,commdev-image-keyboard-response,233,855973,learnblock1,506.10000014305115,img/planet15_right.png,15,Community 2,NA,TRUE,j,j,NA,NA,NA,1,6,"5,13,11,6,14,4,3,15,8,1,10,2,9,7,12"
14929,commdev-image-keyboard-response,234,857234,learnblock1,619.5,img/planet1_right.png,1,Community 2,NA,TRUE,j,j,NA,NA,NA,1,6,"5,13,11,6,14,4,3,15,8,1,10,2,9,7,12"
14929,commdev-image-keyboard-response,235,858487,learnblock1,640.2999999523163,img/planet15_right.png,15,Community 2,NA,TRUE,j,j,NA,NA,NA,1,6,"5,13,11,6,14,4,3,15,8,1,10,2,9,7,12"
14929,commdev-image-keyboard-response,236,859739,learnblock1,738.7999999523163,img/planet8_right.png,8,Community 2,NA,TRUE,j,j,NA,NA,NA,1,6,"5,13,11,6,14,4,3,15,8,1,10,2,9,7,12"
14929,commdev-image-keyboard-response,237,860991,learnblock1,627.2000000476837,img/planet3_right.png,3,Community 2,NA,TRUE,j,j,NA,NA,NA,1,6,"5,13,11,6,14,4,3,15,8,1,10,2,9,7,12"
14929,commdev-image-keyboard-response,238,862242,learnblock1,598.5999999046326,img/planet15_right.png,15,Community 2,NA,TRUE,j,j,NA,NA,NA,1,6,"5,13,11,6,14,4,3,15,8,1,10,2,9,7,12"
14929,commdev-image-keyboard-response,239,863494,learnblock1,537.9000000953674,img/planet2_left.png,2,Community 3,NA,TRUE,f,f,NA,NA,NA,1,6,"5,13,11,6,14,4,3,15,8,1,10,2,9,7,12"
14929,commdev-image-keyboard-response,240,864745,learnblock1,570.0999999046326,img/planet12_right.png,12,Community 3,NA,TRUE,j,j,NA,NA,NA,1,6,"5,13,11,6,14,4,3,15,8,1,10,2,9,7,12"
14929,commdev-image-keyboard-response,241,865996,learnblock1,508.89999985694885,img/planet10_left.png,10,Community 3,NA,TRUE,f,f,NA,NA,NA,1,6,"5,13,11,6,14,4,3,15,8,1,10,2,9,7,12"
14929,commdev-image-keyboard-response,242,867248,learnblock1,522.7999999523163,img/planet12_left.png,12,Community 3,NA,TRUE,f,f,NA,NA,NA,1,6,"5,13,11,6,14,4,3,15,8,1,10,2,9,7,12"
14929,commdev-image-keyboard-response,243,868501,learnblock1,460.60000014305115,img/planet9_right.png,9,Community 3,NA,TRUE,j,j,NA,NA,NA,1,6,"5,13,11,6,14,4,3,15,8,1,10,2,9,7,12"
14929,commdev-image-keyboard-response,244,869754,learnblock1,483.90000009536743,img/planet2_left.png,2,Community 3,NA,TRUE,f,f,NA,NA,NA,1,6,"5,13,11,6,14,4,3,15,8,1,10,2,9,7,12"
14929,commdev-image-keyboard-response,245,871005,learnblock1,490.40000009536743,img/planet15_right.png,15,Community 2,NA,TRUE,j,j,NA,NA,NA,1,6,"5,13,11,6,14,4,3,15,8,1,10,2,9,7,12"
14929,commdev-image-keyboard-response,246,872257,learnblock1,428.7000000476837,img/planet2_left.png,2,Community 3,NA,TRUE,f,f,NA,NA,NA,1,6,"5,13,11,6,14,4,3,15,8,1,10,2,9,7,12"
14929,commdev-image-keyboard-response,247,873508,learnblock1,401.7999999523163,img/planet15_right.png,15,Community 2,NA,TRUE,j,j,NA,NA,NA,1,6,"5,13,11,6,14,4,3,15,8,1,10,2,9,7,12"
14929,commdev-image-keyboard-response,248,874760,learnblock1,342.5,img/planet2_left.png,2,Community 3,NA,TRUE,f,f,NA,NA,NA,1,6,"5,13,11,6,14,4,3,15,8,1,10,2,9,7,12"
14929,commdev-image-keyboard-response,249,876011,learnblock1,464.60000014305115,img/planet7_right.png,7,Community 3,NA,TRUE,j,j,NA,NA,NA,1,6,"5,13,11,6,14,4,3,15,8,1,10,2,9,7,12"
14929,commdev-image-keyboard-response,250,877263,learnblock1,354,img/planet9_left.png,9,Community 3,NA,TRUE,f,f,NA,NA,NA,1,6,"5,13,11,6,14,4,3,15,8,1,10,2,9,7,12"
14929,commdev-image-keyboard-response,251,878515,learnblock1,729.5,img/planet12_left.png,12,Community 3,NA,TRUE,f,f,NA,NA,NA,1,6,"5,13,11,6,14,4,3,15,8,1,10,2,9,7,12"
14929,commdev-image-keyboard-response,252,879766,learnblock1,651.5,img/planet2_right.png,2,Community 3,NA,TRUE,j,j,NA,NA,NA,1,6,"5,13,11,6,14,4,3,15,8,1,10,2,9,7,12"
14929,commdev-image-keyboard-response,253,881018,learnblock1,465.39999985694885,img/planet12_left.png,12,Community 3,NA,TRUE,f,f,NA,NA,NA,1,6,"5,13,11,6,14,4,3,15,8,1,10,2,9,7,12"
14929,commdev-image-keyboard-response,254,882270,learnblock1,916.9000000953674,img/planet7_left.png,7,Community 3,NA,TRUE,f,f,NA,NA,NA,1,6,"5,13,11,6,14,4,3,15,8,1,10,2,9,7,12"
14929,commdev-image-keyboard-response,255,883522,learnblock1,848.5,img/planet2_left.png,2,Community 3,NA,TRUE,f,f,NA,NA,NA,1,6,"5,13,11,6,14,4,3,15,8,1,10,2,9,7,12"
14929,commdev-image-keyboard-response,256,884774,learnblock1,469.2999999523163,img/planet15_right.png,15,Community 2,NA,TRUE,j,j,NA,NA,NA,1,6,"5,13,11,6,14,4,3,15,8,1,10,2,9,7,12"
14929,commdev-image-keyboard-response,257,886025,learnblock1,482.7999999523163,img/planet1_left.png,1,Community 2,NA,TRUE,f,f,NA,NA,NA,1,6,"5,13,11,6,14,4,3,15,8,1,10,2,9,7,12"
14929,commdev-image-keyboard-response,258,887277,learnblock1,473,img/planet3_left.png,3,Community 2,NA,TRUE,f,f,NA,NA,NA,1,6,"5,13,11,6,14,4,3,15,8,1,10,2,9,7,12"
14929,commdev-image-keyboard-response,259,888529,learnblock1,430,img/planet4_right.png,4,Community 2,NA,TRUE,j,j,NA,NA,NA,1,6,"5,13,11,6,14,4,3,15,8,1,10,2,9,7,12"
14929,commdev-image-keyboard-response,260,889781,learnblock1,460.09999990463257,img/planet3_left.png,3,Community 2,NA,TRUE,f,f,NA,NA,NA,1,6,"5,13,11,6,14,4,3,15,8,1,10,2,9,7,12"
14929,commdev-image-keyboard-response,261,891033,learnblock1,433,img/planet4_right.png,4,Community 2,NA,TRUE,j,j,NA,NA,NA,1,6,"5,13,11,6,14,4,3,15,8,1,10,2,9,7,12"
14929,commdev-image-keyboard-response,262,892285,learnblock1,581.2999999523163,img/planet6_right.png,6,Community 1,NA,TRUE,j,j,NA,NA,NA,1,6,"5,13,11,6,14,4,3,15,8,1,10,2,9,7,12"
14929,commdev-image-keyboard-response,263,893537,learnblock1,503.7000000476837,img/planet11_left.png,11,Community 1,NA,TRUE,f,f,NA,NA,NA,1,6,"5,13,11,6,14,4,3,15,8,1,10,2,9,7,12"
14929,commdev-image-keyboard-response,264,894788,learnblock1,426.5,img/planet5_right.png,5,Community 1,NA,TRUE,j,j,NA,NA,NA,1,6,"5,13,11,6,14,4,3,15,8,1,10,2,9,7,12"
14929,commdev-image-keyboard-response,265,896040,learnblock1,349.2000000476837,img/planet14_left.png,14,Community 1,NA,TRUE,f,f,NA,NA,NA,1,6,"5,13,11,6,14,4,3,15,8,1,10,2,9,7,12"
14929,commdev-image-keyboard-response,266,897293,learnblock1,555.7000000476837,img/planet13_left.png,13,Community 1,NA,TRUE,f,f,NA,NA,NA,1,6,"5,13,11,6,14,4,3,15,8,1,10,2,9,7,12"
14929,commdev-image-keyboard-response,267,898545,learnblock1,444.90000009536743,img/planet6_left.png,6,Community 1,NA,FALSE,j,f,NA,NA,NA,1,6,"5,13,11,6,14,4,3,15,8,1,10,2,9,7,12"
14929,commdev-image-keyboard-response,268,899810,learnblock1,626.3999998569489,img/planet13_left.png,13,Community 1,NA,TRUE,f,f,NA,NA,NA,1,6,"5,13,11,6,14,4,3,15,8,1,10,2,9,7,12"
14929,commdev-image-keyboard-response,269,901068,learnblock1,552.5999999046326,img/planet6_right.png,6,Community 1,NA,TRUE,j,j,NA,NA,NA,1,6,"5,13,11,6,14,4,3,15,8,1,10,2,9,7,12"
14929,commdev-image-keyboard-response,270,902321,learnblock1,526.5,img/planet11_left.png,11,Community 1,NA,TRUE,f,f,NA,NA,NA,1,6,"5,13,11,6,14,4,3,15,8,1,10,2,9,7,12"
14929,commdev-image-keyboard-response,271,903572,learnblock1,456.90000009536743,img/planet13_right.png,13,Community 1,NA,TRUE,j,j,NA,NA,NA,1,6,"5,13,11,6,14,4,3,15,8,1,10,2,9,7,12"
14929,commdev-image-keyboard-response,272,904824,learnblock1,438.10000014305115,img/planet6_left.png,6,Community 1,NA,TRUE,f,f,NA,NA,NA,1,6,"5,13,11,6,14,4,3,15,8,1,10,2,9,7,12"
14929,commdev-image-keyboard-response,273,906076,learnblock1,477.10000014305115,img/planet4_right.png,4,Community 2,NA,TRUE,j,j,NA,NA,NA,1,6,"5,13,11,6,14,4,3,15,8,1,10,2,9,7,12"
14929,commdev-image-keyboard-response,274,907328,learnblock1,667.5,img/planet8_right.png,8,Community 2,NA,TRUE,j,j,NA,NA,NA,1,6,"5,13,11,6,14,4,3,15,8,1,10,2,9,7,12"
14929,commdev-image-keyboard-response,275,908580,learnblock1,539.4000000953674,img/planet4_right.png,4,Community 2,NA,TRUE,j,j,NA,NA,NA,1,6,"5,13,11,6,14,4,3,15,8,1,10,2,9,7,12"
14929,commdev-image-keyboard-response,276,909832,learnblock1,629.0999999046326,img/planet8_right.png,8,Community 2,NA,TRUE,j,j,NA,NA,NA,1,6,"5,13,11,6,14,4,3,15,8,1,10,2,9,7,12"
14929,commdev-image-keyboard-response,277,911085,learnblock1,625.5,img/planet4_right.png,4,Community 2,NA,TRUE,j,j,NA,NA,NA,1,6,"5,13,11,6,14,4,3,15,8,1,10,2,9,7,12"
14929,commdev-image-keyboard-response,278,912337,learnblock1,514.9000000953674,img/planet3_left.png,3,Community 2,NA,TRUE,f,f,NA,NA,NA,1,6,"5,13,11,6,14,4,3,15,8,1,10,2,9,7,12"
14929,commdev-image-keyboard-response,279,913588,learnblock1,568.9000000953674,img/planet4_right.png,4,Community 2,NA,TRUE,j,j,NA,NA,NA,1,6,"5,13,11,6,14,4,3,15,8,1,10,2,9,7,12"
14929,commdev-image-keyboard-response,280,914840,learnblock1,583.7000000476837,img/planet1_left.png,1,Community 2,NA,TRUE,f,f,NA,NA,NA,1,6,"5,13,11,6,14,4,3,15,8,1,10,2,9,7,12"
14929,commdev-image-keyboard-response,281,916091,learnblock1,774.5999999046326,img/planet4_left.png,4,Community 2,NA,FALSE,j,f,NA,NA,NA,1,6,"5,13,11,6,14,4,3,15,8,1,10,2,9,7,12"
14929,commdev-image-keyboard-response,282,917357,learnblock1,1033.1000001430511,img/planet6_left.png,6,Community 1,NA,TRUE,f,f,NA,NA,NA,1,6,"5,13,11,6,14,4,3,15,8,1,10,2,9,7,12"
14929,commdev-image-keyboard-response,283,918608,learnblock1,1124.9000000953674,img/planet5_right.png,5,Community 1,NA,TRUE,j,j,NA,NA,NA,1,6,"5,13,11,6,14,4,3,15,8,1,10,2,9,7,12"
14929,commdev-image-keyboard-response,284,919860,learnblock1,921.1000001430511,img/planet13_right.png,13,Community 1,NA,TRUE,j,j,NA,NA,NA,1,6,"5,13,11,6,14,4,3,15,8,1,10,2,9,7,12"
14929,commdev-image-keyboard-response,285,921111,learnblock1,1245.5,img/planet11_right.png,11,Community 1,NA,TRUE,j,j,NA,NA,NA,1,6,"5,13,11,6,14,4,3,15,8,1,10,2,9,7,12"
14929,commdev-image-keyboard-response,286,922363,learnblock1,null,img/planet14_left.png,14,Community 1,NA,FALSE,null,f,NA,NA,NA,1,6,"5,13,11,6,14,4,3,15,8,1,10,2,9,7,12"
14929,commdev-image-keyboard-response,287,923615,learnblock1,0.20000004768371582,img/planet13_left.png,13,Community 1,NA,TRUE,f,f,NA,NA,NA,1,6,"5,13,11,6,14,4,3,15,8,1,10,2,9,7,12"
14929,commdev-image-keyboard-response,288,924869,learnblock1,718.2000000476837,img/planet11_left.png,11,Community 1,NA,TRUE,f,f,NA,NA,NA,1,6,"5,13,11,6,14,4,3,15,8,1,10,2,9,7,12"
14929,commdev-image-keyboard-response,289,926121,learnblock1,480,img/planet13_left.png,13,Community 1,NA,TRUE,f,f,NA,NA,NA,1,6,"5,13,11,6,14,4,3,15,8,1,10,2,9,7,12"
14929,commdev-image-keyboard-response,290,927372,learnblock1,393.89999985694885,img/planet6_right.png,6,Community 1,NA,TRUE,j,j,NA,NA,NA,1,6,"5,13,11,6,14,4,3,15,8,1,10,2,9,7,12"
14929,commdev-image-keyboard-response,291,928623,learnblock1,517.5,img/planet5_right.png,5,Community 1,NA,TRUE,j,j,NA,NA,NA,1,6,"5,13,11,6,14,4,3,15,8,1,10,2,9,7,12"
14929,commdev-image-keyboard-response,292,929875,learnblock1,457.2000000476837,img/planet11_left.png,11,Community 1,NA,TRUE,f,f,NA,NA,NA,1,6,"5,13,11,6,14,4,3,15,8,1,10,2,9,7,12"
14929,commdev-image-keyboard-response,293,931127,learnblock1,453.7000000476837,img/planet13_right.png,13,Community 1,NA,TRUE,j,j,NA,NA,NA,1,6,"5,13,11,6,14,4,3,15,8,1,10,2,9,7,12"
14929,commdev-image-keyboard-response,294,932379,learnblock1,299.7000000476837,img/planet5_right.png,5,Community 1,NA,FALSE,f,j,NA,NA,NA,1,6,"5,13,11,6,14,4,3,15,8,1,10,2,9,7,12"
14929,commdev-image-keyboard-response,295,933630,learnblock1,438.2999999523163,img/planet13_left.png,13,Community 1,NA,TRUE,f,f,NA,NA,NA,1,6,"5,13,11,6,14,4,3,15,8,1,10,2,9,7,12"
14929,commdev-image-keyboard-response,296,934881,learnblock1,571,img/planet6_left.png,6,Community 1,NA,TRUE,f,f,NA,NA,NA,1,6,"5,13,11,6,14,4,3,15,8,1,10,2,9,7,12"
14929,commdev-image-keyboard-response,297,936134,learnblock1,526.2999999523163,img/planet4_left.png,4,Community 2,NA,FALSE,j,f,NA,NA,NA,1,6,"5,13,11,6,14,4,3,15,8,1,10,2,9,7,12"
14929,commdev-image-keyboard-response,298,937385,learnblock1,1151.5999999046326,img/planet6_right.png,6,Community 1,NA,TRUE,j,j,NA,NA,NA,1,6,"5,13,11,6,14,4,3,15,8,1,10,2,9,7,12"
14929,commdev-image-keyboard-response,299,938637,learnblock1,773.2999999523163,img/planet5_left.png,5,Community 1,NA,TRUE,f,f,NA,NA,NA,1,6,"5,13,11,6,14,4,3,15,8,1,10,2,9,7,12"
14929,commdev-image-keyboard-response,300,939888,learnblock1,544,img/planet6_left.png,6,Community 1,NA,TRUE,f,f,NA,NA,NA,1,6,"5,13,11,6,14,4,3,15,8,1,10,2,9,7,12"
14929,commdev-image-keyboard-response,301,941140,learnblock1,558.2999999523163,img/planet11_left.png,11,Community 1,NA,TRUE,f,f,NA,NA,NA,1,6,"5,13,11,6,14,4,3,15,8,1,10,2,9,7,12"
14929,commdev-image-keyboard-response,302,942392,learnblock1,422.19999980926514,img/planet6_right.png,6,Community 1,NA,TRUE,j,j,NA,NA,NA,1,6,"5,13,11,6,14,4,3,15,8,1,10,2,9,7,12"
14929,commdev-image-keyboard-response,303,943644,learnblock1,469.5,img/planet11_right.png,11,Community 1,NA,FALSE,f,j,NA,NA,NA,1,6,"5,13,11,6,14,4,3,15,8,1,10,2,9,7,12"
14929,commdev-image-keyboard-response,304,944895,learnblock1,500.09999990463257,img/planet6_left.png,6,Community 1,NA,TRUE,f,f,NA,NA,NA,1,6,"5,13,11,6,14,4,3,15,8,1,10,2,9,7,12"
14929,commdev-image-keyboard-response,305,946147,learnblock1,748.7999999523163,img/planet4_left.png,4,Community 2,NA,TRUE,f,f,NA,NA,NA,1,6,"5,13,11,6,14,4,3,15,8,1,10,2,9,7,12"
14929,commdev-image-keyboard-response,306,947398,learnblock1,596,img/planet3_right.png,3,Community 2,NA,FALSE,f,j,NA,NA,NA,1,6,"5,13,11,6,14,4,3,15,8,1,10,2,9,7,12"
14929,commdev-image-keyboard-response,307,948651,learnblock1,560.5,img/planet8_left.png,8,Community 2,NA,TRUE,f,f,NA,NA,NA,1,6,"5,13,11,6,14,4,3,15,8,1,10,2,9,7,12"
14929,commdev-image-keyboard-response,308,949911,learnblock1,541,img/planet15_right.png,15,Community 2,NA,TRUE,j,j,NA,NA,NA,1,6,"5,13,11,6,14,4,3,15,8,1,10,2,9,7,12"
14929,commdev-image-keyboard-response,309,951162,learnblock1,529.1999998092651,img/planet3_left.png,3,Community 2,NA,TRUE,f,f,NA,NA,NA,1,6,"5,13,11,6,14,4,3,15,8,1,10,2,9,7,12"
14929,commdev-image-keyboard-response,310,952414,learnblock1,569,img/planet1_right.png,1,Community 2,NA,TRUE,j,j,NA,NA,NA,1,6,"5,13,11,6,14,4,3,15,8,1,10,2,9,7,12"
14929,commdev-image-keyboard-response,311,953677,learnblock1,608.1999998092651,img/planet8_right.png,8,Community 2,NA,TRUE,j,j,NA,NA,NA,1,6,"5,13,11,6,14,4,3,15,8,1,10,2,9,7,12"
14929,commdev-image-keyboard-response,312,954929,learnblock1,535.5,img/planet4_right.png,4,Community 2,NA,TRUE,j,j,NA,NA,NA,1,6,"5,13,11,6,14,4,3,15,8,1,10,2,9,7,12"
14929,commdev-image-keyboard-response,313,956180,learnblock1,516.4000000953674,img/planet8_right.png,8,Community 2,NA,TRUE,j,j,NA,NA,NA,1,6,"5,13,11,6,14,4,3,15,8,1,10,2,9,7,12"
14929,commdev-image-keyboard-response,314,957442,learnblock1,572.1000001430511,img/planet1_right.png,1,Community 2,NA,TRUE,j,j,NA,NA,NA,1,6,"5,13,11,6,14,4,3,15,8,1,10,2,9,7,12"
14929,commdev-image-keyboard-response,315,958694,learnblock1,584.7999999523163,img/planet3_right.png,3,Community 2,NA,TRUE,j,j,NA,NA,NA,1,6,"5,13,11,6,14,4,3,15,8,1,10,2,9,7,12"
14929,commdev-image-keyboard-response,316,959947,learnblock1,566.2999999523163,img/planet1_right.png,1,Community 2,NA,TRUE,j,j,NA,NA,NA,1,6,"5,13,11,6,14,4,3,15,8,1,10,2,9,7,12"
14929,commdev-image-keyboard-response,317,961198,learnblock1,511.7999999523163,img/planet15_left.png,15,Community 2,NA,TRUE,f,f,NA,NA,NA,1,6,"5,13,11,6,14,4,3,15,8,1,10,2,9,7,12"
14929,commdev-image-keyboard-response,318,962450,learnblock1,551.2000000476837,img/planet3_right.png,3,Community 2,NA,TRUE,j,j,NA,NA,NA,1,6,"5,13,11,6,14,4,3,15,8,1,10,2,9,7,12"
14929,commdev-image-keyboard-response,319,963702,learnblock1,851.5,img/planet15_right.png,15,Community 2,NA,TRUE,j,j,NA,NA,NA,1,6,"5,13,11,6,14,4,3,15,8,1,10,2,9,7,12"
14929,commdev-image-keyboard-response,320,964953,learnblock1,1127.3999998569489,img/planet2_right.png,2,Community 3,NA,TRUE,j,j,NA,NA,NA,1,6,"5,13,11,6,14,4,3,15,8,1,10,2,9,7,12"
14929,commdev-image-keyboard-response,321,966205,learnblock1,580.2000000476837,img/planet9_left.png,9,Community 3,NA,TRUE,f,f,NA,NA,NA,1,6,"5,13,11,6,14,4,3,15,8,1,10,2,9,7,12"
14929,commdev-image-keyboard-response,322,967457,learnblock1,605,img/planet2_left.png,2,Community 3,NA,TRUE,f,f,NA,NA,NA,1,6,"5,13,11,6,14,4,3,15,8,1,10,2,9,7,12"
14929,commdev-image-keyboard-response,323,968708,learnblock1,468.2000000476837,img/planet12_right.png,12,Community 3,NA,TRUE,j,j,NA,NA,NA,1,6,"5,13,11,6,14,4,3,15,8,1,10,2,9,7,12"
14929,commdev-image-keyboard-response,324,969960,learnblock1,426.40000009536743,img/planet2_left.png,2,Community 3,NA,TRUE,f,f,NA,NA,NA,1,6,"5,13,11,6,14,4,3,15,8,1,10,2,9,7,12"
14929,commdev-image-keyboard-response,325,971212,learnblock1,516.8000001907349,img/planet7_right.png,7,Community 3,NA,TRUE,j,j,NA,NA,NA,1,6,"5,13,11,6,14,4,3,15,8,1,10,2,9,7,12"
14929,commdev-image-keyboard-response,326,972464,learnblock1,447.7999999523163,img/planet9_left.png,9,Community 3,NA,TRUE,f,f,NA,NA,NA,1,6,"5,13,11,6,14,4,3,15,8,1,10,2,9,7,12"
14929,commdev-image-keyboard-response,327,973719,learnblock1,589.7000000476837,img/planet2_left.png,2,Community 3,NA,TRUE,f,f,NA,NA,NA,1,6,"5,13,11,6,14,4,3,15,8,1,10,2,9,7,12"
14929,commdev-image-keyboard-response,328,974970,learnblock1,719.7000000476837,img/planet7_left.png,7,Community 3,NA,TRUE,f,f,NA,NA,NA,1,6,"5,13,11,6,14,4,3,15,8,1,10,2,9,7,12"
14929,commdev-image-keyboard-response,329,976222,learnblock1,526.1000001430511,img/planet10_left.png,10,Community 3,NA,TRUE,f,f,NA,NA,NA,1,6,"5,13,11,6,14,4,3,15,8,1,10,2,9,7,12"
14929,commdev-image-keyboard-response,330,977474,learnblock1,508.19999980926514,img/planet14_right.png,14,Community 1,NA,TRUE,j,j,NA,NA,NA,1,6,"5,13,11,6,14,4,3,15,8,1,10,2,9,7,12"
14929,commdev-image-keyboard-response,331,978725,learnblock1,439.60000014305115,img/planet11_right.png,11,Community 1,NA,TRUE,j,j,NA,NA,NA,1,6,"5,13,11,6,14,4,3,15,8,1,10,2,9,7,12"
14929,commdev-image-keyboard-response,332,979977,learnblock1,455.5,img/planet6_right.png,6,Community 1,NA,TRUE,j,j,NA,NA,NA,1,6,"5,13,11,6,14,4,3,15,8,1,10,2,9,7,12"
14929,commdev-image-keyboard-response,333,981229,learnblock1,539.2000000476837,img/planet11_left.png,11,Community 1,NA,TRUE,f,f,NA,NA,NA,1,6,"5,13,11,6,14,4,3,15,8,1,10,2,9,7,12"
14929,commdev-image-keyboard-response,334,982481,learnblock1,530.2999999523163,img/planet14_left.png,14,Community 1,NA,TRUE,f,f,NA,NA,NA,1,6,"5,13,11,6,14,4,3,15,8,1,10,2,9,7,12"
14929,commdev-image-keyboard-response,335,983732,learnblock1,503.10000014305115,img/planet5_left.png,5,Community 1,NA,TRUE,f,f,NA,NA,NA,1,6,"5,13,11,6,14,4,3,15,8,1,10,2,9,7,12"
14929,commdev-image-keyboard-response,336,984984,learnblock1,528.2000000476837,img/planet14_left.png,14,Community 1,NA,TRUE,f,f,NA,NA,NA,1,6,"5,13,11,6,14,4,3,15,8,1,10,2,9,7,12"
14929,commdev-image-keyboard-response,337,986236,learnblock1,459.60000014305115,img/planet13_left.png,13,Community 1,NA,FALSE,j,f,NA,NA,NA,1,6,"5,13,11,6,14,4,3,15,8,1,10,2,9,7,12"
14929,commdev-image-keyboard-response,338,987488,learnblock1,643.0999999046326,img/planet11_right.png,11,Community 1,NA,TRUE,j,j,NA,NA,NA,1,6,"5,13,11,6,14,4,3,15,8,1,10,2,9,7,12"
14929,commdev-image-keyboard-response,339,988744,learnblock1,576.2000000476837,img/planet13_right.png,13,Community 1,NA,TRUE,j,j,NA,NA,NA,1,6,"5,13,11,6,14,4,3,15,8,1,10,2,9,7,12"
14929,commdev-image-keyboard-response,340,989995,learnblock1,513,img/planet11_right.png,11,Community 1,NA,TRUE,j,j,NA,NA,NA,1,6,"5,13,11,6,14,4,3,15,8,1,10,2,9,7,12"
14929,commdev-image-keyboard-response,341,991246,learnblock1,714.2000000476837,img/planet13_right.png,13,Community 1,NA,TRUE,j,j,NA,NA,NA,1,6,"5,13,11,6,14,4,3,15,8,1,10,2,9,7,12"
14929,commdev-image-keyboard-response,342,992498,learnblock1,595.2000000476837,img/planet11_left.png,11,Community 1,NA,FALSE,j,f,NA,NA,NA,1,6,"5,13,11,6,14,4,3,15,8,1,10,2,9,7,12"
14929,commdev-image-keyboard-response,343,993750,learnblock1,426.10000014305115,img/planet5_right.png,5,Community 1,NA,TRUE,j,j,NA,NA,NA,1,6,"5,13,11,6,14,4,3,15,8,1,10,2,9,7,12"
14929,commdev-image-keyboard-response,344,995001,learnblock1,625.7999999523163,img/planet6_right.png,6,Community 1,NA,TRUE,j,j,NA,NA,NA,1,6,"5,13,11,6,14,4,3,15,8,1,10,2,9,7,12"
14929,commdev-image-keyboard-response,345,996253,learnblock1,541.7000000476837,img/planet4_left.png,4,Community 2,NA,TRUE,f,f,NA,NA,NA,1,6,"5,13,11,6,14,4,3,15,8,1,10,2,9,7,12"
14929,commdev-image-keyboard-response,346,997505,learnblock1,581.2999999523163,img/planet6_left.png,6,Community 1,NA,TRUE,f,f,NA,NA,NA,1,6,"5,13,11,6,14,4,3,15,8,1,10,2,9,7,12"
14929,commdev-image-keyboard-response,347,998757,learnblock1,713.6000001430511,img/planet13_right.png,13,Community 1,NA,TRUE,j,j,NA,NA,NA,1,6,"5,13,11,6,14,4,3,15,8,1,10,2,9,7,12"
14929,commdev-image-keyboard-response,348,1000009,learnblock1,569.7000000476837,img/planet11_right.png,11,Community 1,NA,TRUE,j,j,NA,NA,NA,1,6,"5,13,11,6,14,4,3,15,8,1,10,2,9,7,12"
14929,commdev-image-keyboard-response,349,1001261,learnblock1,509.7000000476837,img/planet5_right.png,5,Community 1,NA,TRUE,j,j,NA,NA,NA,1,6,"5,13,11,6,14,4,3,15,8,1,10,2,9,7,12"
14929,commdev-image-keyboard-response,350,1002513,learnblock1,449.40000009536743,img/planet13_right.png,13,Community 1,NA,TRUE,j,j,NA,NA,NA,1,6,"5,13,11,6,14,4,3,15,8,1,10,2,9,7,12"
14929,commdev-image-keyboard-response,351,1003765,learnblock1,622.0999999046326,img/planet6_right.png,6,Community 1,NA,TRUE,j,j,NA,NA,NA,1,6,"5,13,11,6,14,4,3,15,8,1,10,2,9,7,12"
14929,commdev-image-keyboard-response,352,1005016,learnblock1,505,img/planet4_left.png,4,Community 2,NA,TRUE,f,f,NA,NA,NA,1,6,"5,13,11,6,14,4,3,15,8,1,10,2,9,7,12"
14929,commdev-image-keyboard-response,353,1006269,learnblock1,661.4000000953674,img/planet8_left.png,8,Community 2,NA,TRUE,f,f,NA,NA,NA,1,6,"5,13,11,6,14,4,3,15,8,1,10,2,9,7,12"
14929,commdev-image-keyboard-response,354,1007521,learnblock1,557.8999998569489,img/planet1_left.png,1,Community 2,NA,TRUE,f,f,NA,NA,NA,1,6,"5,13,11,6,14,4,3,15,8,1,10,2,9,7,12"
14929,commdev-image-keyboard-response,355,1008773,learnblock1,588.4000000953674,img/planet3_left.png,3,Community 2,NA,TRUE,f,f,NA,NA,NA,1,6,"5,13,11,6,14,4,3,15,8,1,10,2,9,7,12"
14929,commdev-image-keyboard-response,356,1010026,learnblock1,494.7999999523163,img/planet15_left.png,15,Community 2,NA,TRUE,f,f,NA,NA,NA,1,6,"5,13,11,6,14,4,3,15,8,1,10,2,9,7,12"
14929,commdev-image-keyboard-response,357,1011277,learnblock1,475.7000000476837,img/planet2_right.png,2,Community 3,NA,TRUE,j,j,NA,NA,NA,1,6,"5,13,11,6,14,4,3,15,8,1,10,2,9,7,12"
14929,commdev-image-keyboard-response,358,1012529,learnblock1,506.7999999523163,img/planet7_right.png,7,Community 3,NA,TRUE,j,j,NA,NA,NA,1,6,"5,13,11,6,14,4,3,15,8,1,10,2,9,7,12"
14929,commdev-image-keyboard-response,359,1013781,learnblock1,429.39999985694885,img/planet9_right.png,9,Community 3,NA,TRUE,j,j,NA,NA,NA,1,6,"5,13,11,6,14,4,3,15,8,1,10,2,9,7,12"
14929,commdev-image-keyboard-response,360,1015033,learnblock1,478.09999990463257,img/planet12_left.png,12,Community 3,NA,TRUE,f,f,NA,NA,NA,1,6,"5,13,11,6,14,4,3,15,8,1,10,2,9,7,12"
14929,commdev-image-keyboard-response,361,1016284,learnblock1,628.2999999523163,img/planet7_left.png,7,Community 3,NA,TRUE,f,f,NA,NA,NA,1,6,"5,13,11,6,14,4,3,15,8,1,10,2,9,7,12"
14929,commdev-image-keyboard-response,362,1017537,learnblock1,535.3000001907349,img/planet9_right.png,9,Community 3,NA,FALSE,f,j,NA,NA,NA,1,6,"5,13,11,6,14,4,3,15,8,1,10,2,9,7,12"
14929,commdev-image-keyboard-response,363,1018788,learnblock1,649.8999998569489,img/planet10_right.png,10,Community 3,NA,FALSE,f,j,NA,NA,NA,1,6,"5,13,11,6,14,4,3,15,8,1,10,2,9,7,12"
14929,commdev-image-keyboard-response,364,1020040,learnblock1,865.9000000953674,img/planet12_right.png,12,Community 3,NA,TRUE,j,j,NA,NA,NA,1,6,"5,13,11,6,14,4,3,15,8,1,10,2,9,7,12"
14929,commdev-image-keyboard-response,365,1021293,learnblock1,720,img/planet7_left.png,7,Community 3,NA,TRUE,f,f,NA,NA,NA,1,6,"5,13,11,6,14,4,3,15,8,1,10,2,9,7,12"
14929,commdev-image-keyboard-response,366,1022544,learnblock1,624.0999999046326,img/planet10_right.png,10,Community 3,NA,TRUE,j,j,NA,NA,NA,1,6,"5,13,11,6,14,4,3,15,8,1,10,2,9,7,12"
14929,commdev-image-keyboard-response,367,1023796,learnblock1,656.2999999523163,img/planet12_right.png,12,Community 3,NA,TRUE,j,j,NA,NA,NA,1,6,"5,13,11,6,14,4,3,15,8,1,10,2,9,7,12"
14929,commdev-image-keyboard-response,368,1025047,learnblock1,604.2999999523163,img/planet10_right.png,10,Community 3,NA,TRUE,j,j,NA,NA,NA,1,6,"5,13,11,6,14,4,3,15,8,1,10,2,9,7,12"
14929,commdev-image-keyboard-response,369,1026311,learnblock1,585.0999999046326,img/planet12_left.png,12,Community 3,NA,TRUE,f,f,NA,NA,NA,1,6,"5,13,11,6,14,4,3,15,8,1,10,2,9,7,12"
14929,commdev-image-keyboard-response,370,1027563,learnblock1,529.3999998569489,img/planet9_right.png,9,Community 3,NA,TRUE,j,j,NA,NA,NA,1,6,"5,13,11,6,14,4,3,15,8,1,10,2,9,7,12"
14929,commdev-image-keyboard-response,371,1028819,learnblock1,619.9000000953674,img/planet12_right.png,12,Community 3,NA,TRUE,j,j,NA,NA,NA,1,6,"5,13,11,6,14,4,3,15,8,1,10,2,9,7,12"
14929,commdev-image-keyboard-response,372,1030080,learnblock1,655.2000000476837,img/planet10_right.png,10,Community 3,NA,TRUE,j,j,NA,NA,NA,1,6,"5,13,11,6,14,4,3,15,8,1,10,2,9,7,12"
14929,commdev-image-keyboard-response,373,1031332,learnblock1,543.4000000953674,img/planet9_left.png,9,Community 3,NA,TRUE,f,f,NA,NA,NA,1,6,"5,13,11,6,14,4,3,15,8,1,10,2,9,7,12"
14929,commdev-image-keyboard-response,374,1032584,learnblock1,474.5,img/planet12_left.png,12,Community 3,NA,TRUE,f,f,NA,NA,NA,1,6,"5,13,11,6,14,4,3,15,8,1,10,2,9,7,12"
14929,commdev-image-keyboard-response,375,1033836,learnblock1,472.40000009536743,img/planet7_left.png,7,Community 3,NA,FALSE,j,f,NA,NA,NA,1,6,"5,13,11,6,14,4,3,15,8,1,10,2,9,7,12"
14929,commdev-image-keyboard-response,376,1035088,learnblock1,729.1000001430511,img/planet2_left.png,2,Community 3,NA,TRUE,f,f,NA,NA,NA,1,6,"5,13,11,6,14,4,3,15,8,1,10,2,9,7,12"
14929,commdev-image-keyboard-response,377,1036339,learnblock1,1122.3000001907349,img/planet12_left.png,12,Community 3,NA,TRUE,f,f,NA,NA,NA,1,6,"5,13,11,6,14,4,3,15,8,1,10,2,9,7,12"
14929,commdev-image-keyboard-response,378,1037592,learnblock1,717.5,img/planet9_left.png,9,Community 3,NA,TRUE,f,f,NA,NA,NA,1,6,"5,13,11,6,14,4,3,15,8,1,10,2,9,7,12"
14929,commdev-image-keyboard-response,379,1038843,learnblock1,489,img/planet2_left.png,2,Community 3,NA,TRUE,f,f,NA,NA,NA,1,6,"5,13,11,6,14,4,3,15,8,1,10,2,9,7,12"
14929,commdev-image-keyboard-response,380,1040095,learnblock1,595.2000000476837,img/planet9_right.png,9,Community 3,NA,TRUE,j,j,NA,NA,NA,1,6,"5,13,11,6,14,4,3,15,8,1,10,2,9,7,12"
14929,commdev-image-keyboard-response,381,1041347,learnblock1,628,img/planet10_left.png,10,Community 3,NA,TRUE,f,f,NA,NA,NA,1,6,"5,13,11,6,14,4,3,15,8,1,10,2,9,7,12"
14929,commdev-image-keyboard-response,382,1042599,learnblock1,836,img/planet7_left.png,7,Community 3,NA,TRUE,f,f,NA,NA,NA,1,6,"5,13,11,6,14,4,3,15,8,1,10,2,9,7,12"
14929,commdev-image-keyboard-response,383,1043851,learnblock1,508.09999990463257,img/planet12_right.png,12,Community 3,NA,TRUE,j,j,NA,NA,NA,1,6,"5,13,11,6,14,4,3,15,8,1,10,2,9,7,12"
14929,commdev-image-keyboard-response,384,1045102,learnblock1,480.5,img/planet9_right.png,9,Community 3,NA,FALSE,f,j,NA,NA,NA,1,6,"5,13,11,6,14,4,3,15,8,1,10,2,9,7,12"
14929,commdev-image-keyboard-response,385,1046360,learnblock1,520.8999998569489,img/planet12_left.png,12,Community 3,NA,TRUE,f,f,NA,NA,NA,1,6,"5,13,11,6,14,4,3,15,8,1,10,2,9,7,12"
14929,commdev-image-keyboard-response,386,1047611,learnblock1,521.3000001907349,img/planet2_left.png,2,Community 3,NA,TRUE,f,f,NA,NA,NA,1,6,"5,13,11,6,14,4,3,15,8,1,10,2,9,7,12"
14929,commdev-image-keyboard-response,387,1048864,learnblock1,417.89999985694885,img/planet7_left.png,7,Community 3,NA,FALSE,j,f,NA,NA,NA,1,6,"5,13,11,6,14,4,3,15,8,1,10,2,9,7,12"
14929,commdev-image-keyboard-response,388,1050115,learnblock1,383.09999990463257,img/planet10_right.png,10,Community 3,NA,TRUE,j,j,NA,NA,NA,1,6,"5,13,11,6,14,4,3,15,8,1,10,2,9,7,12"
14929,commdev-image-keyboard-response,389,1051367,learnblock1,532.0999999046326,img/planet14_left.png,14,Community 1,NA,TRUE,f,f,NA,NA,NA,1,6,"5,13,11,6,14,4,3,15,8,1,10,2,9,7,12"
14929,commdev-image-keyboard-response,390,1052619,learnblock1,504.89999985694885,img/planet5_left.png,5,Community 1,NA,TRUE,f,f,NA,NA,NA,1,6,"5,13,11,6,14,4,3,15,8,1,10,2,9,7,12"
14929,commdev-image-keyboard-response,391,1053871,learnblock1,528.1999998092651,img/planet13_left.png,13,Community 1,NA,TRUE,f,f,NA,NA,NA,1,6,"5,13,11,6,14,4,3,15,8,1,10,2,9,7,12"
14929,commdev-image-keyboard-response,392,1055126,learnblock1,501.90000009536743,img/planet5_right.png,5,Community 1,NA,TRUE,j,j,NA,NA,NA,1,6,"5,13,11,6,14,4,3,15,8,1,10,2,9,7,12"
14929,commdev-image-keyboard-response,393,1056377,learnblock1,639.5999999046326,img/planet11_right.png,11,Community 1,NA,TRUE,j,j,NA,NA,NA,1,6,"5,13,11,6,14,4,3,15,8,1,10,2,9,7,12"
14929,commdev-image-keyboard-response,394,1057630,learnblock1,747.5999999046326,img/planet14_left.png,14,Community 1,NA,TRUE,f,f,NA,NA,NA,1,6,"5,13,11,6,14,4,3,15,8,1,10,2,9,7,12"
14929,commdev-image-keyboard-response,395,1058881,learnblock1,509.90000009536743,img/planet10_right.png,10,Community 3,NA,TRUE,j,j,NA,NA,NA,1,6,"5,13,11,6,14,4,3,15,8,1,10,2,9,7,12"
14929,commdev-image-keyboard-response,396,1060134,learnblock1,918.8999998569489,img/planet7_right.png,7,Community 3,NA,TRUE,j,j,NA,NA,NA,1,6,"5,13,11,6,14,4,3,15,8,1,10,2,9,7,12"
14929,commdev-image-keyboard-response,397,1061397,learnblock1,479.7999999523163,img/planet2_left.png,2,Community 3,NA,TRUE,f,f,NA,NA,NA,1,6,"5,13,11,6,14,4,3,15,8,1,10,2,9,7,12"
14929,commdev-image-keyboard-response,398,1062649,learnblock1,417.10000014305115,img/planet9_right.png,9,Community 3,NA,TRUE,j,j,NA,NA,NA,1,6,"5,13,11,6,14,4,3,15,8,1,10,2,9,7,12"
14929,commdev-image-keyboard-response,399,1063900,learnblock1,506.5,img/planet12_right.png,12,Community 3,NA,FALSE,f,j,NA,NA,NA,1,6,"5,13,11,6,14,4,3,15,8,1,10,2,9,7,12"
14929,commdev-image-keyboard-response,400,1065152,learnblock1,538.7000000476837,img/planet2_right.png,2,Community 3,NA,FALSE,f,j,NA,NA,NA,1,6,"5,13,11,6,14,4,3,15,8,1,10,2,9,7,12"
14929,commdev-image-keyboard-response,401,1066403,learnblock1,779.3999998569489,img/planet7_left.png,7,Community 3,NA,TRUE,f,f,NA,NA,NA,1,6,"5,13,11,6,14,4,3,15,8,1,10,2,9,7,12"
14929,commdev-image-keyboard-response,402,1067655,learnblock1,619.2000000476837,img/planet12_left.png,12,Community 3,NA,TRUE,f,f,NA,NA,NA,1,6,"5,13,11,6,14,4,3,15,8,1,10,2,9,7,12"
14929,commdev-image-keyboard-response,403,1068906,learnblock1,508.40000009536743,img/planet9_right.png,9,Community 3,NA,TRUE,j,j,NA,NA,NA,1,6,"5,13,11,6,14,4,3,15,8,1,10,2,9,7,12"
14929,commdev-image-keyboard-response,404,1070157,learnblock1,649.0999999046326,img/planet12_right.png,12,Community 3,NA,TRUE,j,j,NA,NA,NA,1,6,"5,13,11,6,14,4,3,15,8,1,10,2,9,7,12"
14929,commdev-image-keyboard-response,405,1071409,learnblock1,740.5999999046326,img/planet2_right.png,2,Community 3,NA,TRUE,j,j,NA,NA,NA,1,6,"5,13,11,6,14,4,3,15,8,1,10,2,9,7,12"
14929,commdev-image-keyboard-response,406,1072661,learnblock1,604.5,img/planet15_left.png,15,Community 2,NA,TRUE,f,f,NA,NA,NA,1,6,"5,13,11,6,14,4,3,15,8,1,10,2,9,7,12"
14929,commdev-image-keyboard-response,407,1073913,learnblock1,644.5999999046326,img/planet8_left.png,8,Community 2,NA,TRUE,f,f,NA,NA,NA,1,6,"5,13,11,6,14,4,3,15,8,1,10,2,9,7,12"
14929,commdev-image-keyboard-response,408,1075165,learnblock1,660.2999999523163,img/planet15_right.png,15,Community 2,NA,TRUE,j,j,NA,NA,NA,1,6,"5,13,11,6,14,4,3,15,8,1,10,2,9,7,12"
14929,commdev-image-keyboard-response,409,1076416,learnblock1,816.5999999046326,img/planet1_left.png,1,Community 2,NA,TRUE,f,f,NA,NA,NA,1,6,"5,13,11,6,14,4,3,15,8,1,10,2,9,7,12"
14929,commdev-image-keyboard-response,410,1077669,learnblock1,882.8999998569489,img/planet3_right.png,3,Community 2,NA,TRUE,j,j,NA,NA,NA,1,6,"5,13,11,6,14,4,3,15,8,1,10,2,9,7,12"
14929,commdev-image-keyboard-response,411,1078920,learnblock1,628.5999999046326,img/planet4_left.png,4,Community 2,NA,TRUE,f,f,NA,NA,NA,1,6,"5,13,11,6,14,4,3,15,8,1,10,2,9,7,12"
14929,commdev-image-keyboard-response,412,1080172,learnblock1,610,img/planet3_left.png,3,Community 2,NA,TRUE,f,f,NA,NA,NA,1,6,"5,13,11,6,14,4,3,15,8,1,10,2,9,7,12"
14929,commdev-image-keyboard-response,413,1081424,learnblock1,692.0999999046326,img/planet1_left.png,1,Community 2,NA,FALSE,j,f,NA,NA,NA,1,6,"5,13,11,6,14,4,3,15,8,1,10,2,9,7,12"
14929,commdev-image-keyboard-response,414,1082676,learnblock1,573.2999999523163,img/planet15_right.png,15,Community 2,NA,TRUE,j,j,NA,NA,NA,1,6,"5,13,11,6,14,4,3,15,8,1,10,2,9,7,12"
14929,commdev-image-keyboard-response,415,1083928,learnblock1,737.5999999046326,img/planet8_right.png,8,Community 2,NA,FALSE,f,j,NA,NA,NA,1,6,"5,13,11,6,14,4,3,15,8,1,10,2,9,7,12"
14929,commdev-image-keyboard-response,416,1085180,learnblock1,661.7999999523163,img/planet4_left.png,4,Community 2,NA,TRUE,f,f,NA,NA,NA,1,6,"5,13,11,6,14,4,3,15,8,1,10,2,9,7,12"
14929,commdev-image-keyboard-response,417,1086432,learnblock1,768.7999999523163,img/planet6_left.png,6,Community 1,NA,TRUE,f,f,NA,NA,NA,1,6,"5,13,11,6,14,4,3,15,8,1,10,2,9,7,12"
14929,commdev-image-keyboard-response,418,1087683,learnblock1,683.0999999046326,img/planet11_right.png,11,Community 1,NA,TRUE,j,j,NA,NA,NA,1,6,"5,13,11,6,14,4,3,15,8,1,10,2,9,7,12"
14929,commdev-image-keyboard-response,419,1088936,learnblock1,689.7999999523163,img/planet6_left.png,6,Community 1,NA,TRUE,f,f,NA,NA,NA,1,6,"5,13,11,6,14,4,3,15,8,1,10,2,9,7,12"
14929,commdev-image-keyboard-response,420,1090187,learnblock1,519.6999998092651,img/planet11_right.png,11,Community 1,NA,TRUE,j,j,NA,NA,NA,1,6,"5,13,11,6,14,4,3,15,8,1,10,2,9,7,12"
14929,commdev-image-keyboard-response,421,1091439,learnblock1,753.7999999523163,img/planet6_right.png,6,Community 1,NA,TRUE,j,j,NA,NA,NA,1,6,"5,13,11,6,14,4,3,15,8,1,10,2,9,7,12"
14929,commdev-image-keyboard-response,422,1092691,learnblock1,625.2000000476837,img/planet5_right.png,5,Community 1,NA,TRUE,j,j,NA,NA,NA,1,6,"5,13,11,6,14,4,3,15,8,1,10,2,9,7,12"
14929,commdev-image-keyboard-response,423,1093942,learnblock1,690.7999999523163,img/planet11_right.png,11,Community 1,NA,TRUE,j,j,NA,NA,NA,1,6,"5,13,11,6,14,4,3,15,8,1,10,2,9,7,12"
14929,commdev-image-keyboard-response,424,1095194,learnblock1,588.7000000476837,img/planet14_left.png,14,Community 1,NA,TRUE,f,f,NA,NA,NA,1,6,"5,13,11,6,14,4,3,15,8,1,10,2,9,7,12"
14929,commdev-image-keyboard-response,425,1096446,learnblock1,510.90000009536743,img/planet5_left.png,5,Community 1,NA,TRUE,f,f,NA,NA,NA,1,6,"5,13,11,6,14,4,3,15,8,1,10,2,9,7,12"
14929,commdev-image-keyboard-response,426,1097697,learnblock1,601.3999998569489,img/planet14_left.png,14,Community 1,NA,TRUE,f,f,NA,NA,NA,1,6,"5,13,11,6,14,4,3,15,8,1,10,2,9,7,12"
14929,commdev-image-keyboard-response,427,1098949,learnblock1,541.3999998569489,img/planet11_left.png,11,Community 1,NA,TRUE,f,f,NA,NA,NA,1,6,"5,13,11,6,14,4,3,15,8,1,10,2,9,7,12"
14929,commdev-image-keyboard-response,428,1100202,learnblock1,464.5,img/planet6_right.png,6,Community 1,NA,FALSE,f,j,NA,NA,NA,1,6,"5,13,11,6,14,4,3,15,8,1,10,2,9,7,12"
14929,commdev-image-keyboard-response,429,1101453,learnblock1,493.2000000476837,img/planet11_left.png,11,Community 1,NA,TRUE,f,f,NA,NA,NA,1,6,"5,13,11,6,14,4,3,15,8,1,10,2,9,7,12"
14929,commdev-image-keyboard-response,430,1102704,learnblock1,534.4000000953674,img/planet6_left.png,6,Community 1,NA,TRUE,f,f,NA,NA,NA,1,6,"5,13,11,6,14,4,3,15,8,1,10,2,9,7,12"
14929,commdev-image-keyboard-response,431,1103956,learnblock1,457.39999985694885,img/planet4_right.png,4,Community 2,NA,TRUE,j,j,NA,NA,NA,1,6,"5,13,11,6,14,4,3,15,8,1,10,2,9,7,12"
14929,commdev-image-keyboard-response,432,1105207,learnblock1,480.59999990463257,img/planet3_left.png,3,Community 2,NA,TRUE,f,f,NA,NA,NA,1,6,"5,13,11,6,14,4,3,15,8,1,10,2,9,7,12"
14929,commdev-image-keyboard-response,433,1106459,learnblock1,648.3999998569489,img/planet4_right.png,4,Community 2,NA,TRUE,j,j,NA,NA,NA,1,6,"5,13,11,6,14,4,3,15,8,1,10,2,9,7,12"
14929,commdev-image-keyboard-response,434,1107711,learnblock1,778.5,img/planet1_left.png,1,Community 2,NA,TRUE,f,f,NA,NA,NA,1,6,"5,13,11,6,14,4,3,15,8,1,10,2,9,7,12"
14929,commdev-image-keyboard-response,435,1108963,learnblock1,524.0999999046326,img/planet4_right.png,4,Community 2,NA,TRUE,j,j,NA,NA,NA,1,6,"5,13,11,6,14,4,3,15,8,1,10,2,9,7,12"
14929,commdev-image-keyboard-response,436,1110230,learnblock1,437.7000000476837,img/planet1_left.png,1,Community 2,NA,TRUE,f,f,NA,NA,NA,1,6,"5,13,11,6,14,4,3,15,8,1,10,2,9,7,12"
14929,commdev-image-keyboard-response,437,1111481,learnblock1,447,img/planet8_right.png,8,Community 2,NA,TRUE,j,j,NA,NA,NA,1,6,"5,13,11,6,14,4,3,15,8,1,10,2,9,7,12"
14929,commdev-image-keyboard-response,438,1112733,learnblock1,629.2999999523163,img/planet1_right.png,1,Community 2,NA,TRUE,j,j,NA,NA,NA,1,6,"5,13,11,6,14,4,3,15,8,1,10,2,9,7,12"
14929,commdev-image-keyboard-response,439,1113985,learnblock1,585.5,img/planet8_right.png,8,Community 2,NA,TRUE,j,j,NA,NA,NA,1,6,"5,13,11,6,14,4,3,15,8,1,10,2,9,7,12"
14929,commdev-image-keyboard-response,440,1115236,learnblock1,473.7000000476837,img/planet15_left.png,15,Community 2,NA,TRUE,f,f,NA,NA,NA,1,6,"5,13,11,6,14,4,3,15,8,1,10,2,9,7,12"
14929,commdev-image-keyboard-response,441,1116488,learnblock1,588.6999998092651,img/planet1_left.png,1,Community 2,NA,TRUE,f,f,NA,NA,NA,1,6,"5,13,11,6,14,4,3,15,8,1,10,2,9,7,12"
14929,commdev-image-keyboard-response,442,1117739,learnblock1,528.2999999523163,img/planet15_right.png,15,Community 2,NA,TRUE,j,j,NA,NA,NA,1,6,"5,13,11,6,14,4,3,15,8,1,10,2,9,7,12"
14929,commdev-image-keyboard-response,443,1118991,learnblock1,568,img/planet8_right.png,8,Community 2,NA,TRUE,j,j,NA,NA,NA,1,6,"5,13,11,6,14,4,3,15,8,1,10,2,9,7,12"
14929,commdev-image-keyboard-response,444,1120243,learnblock1,490.5,img/planet15_right.png,15,Community 2,NA,FALSE,f,j,NA,NA,NA,1,6,"5,13,11,6,14,4,3,15,8,1,10,2,9,7,12"
14929,commdev-image-keyboard-response,445,1121495,learnblock1,622.2000000476837,img/planet8_right.png,8,Community 2,NA,TRUE,j,j,NA,NA,NA,1,6,"5,13,11,6,14,4,3,15,8,1,10,2,9,7,12"
14929,commdev-image-keyboard-response,446,1122749,learnblock1,492.7999999523163,img/planet4_left.png,4,Community 2,NA,TRUE,f,f,NA,NA,NA,1,6,"5,13,11,6,14,4,3,15,8,1,10,2,9,7,12"
14929,commdev-image-keyboard-response,447,1124009,learnblock1,614,img/planet6_left.png,6,Community 1,NA,TRUE,f,f,NA,NA,NA,1,6,"5,13,11,6,14,4,3,15,8,1,10,2,9,7,12"
14929,commdev-image-keyboard-response,448,1125261,learnblock1,502.90000009536743,img/planet13_right.png,13,Community 1,NA,TRUE,j,j,NA,NA,NA,1,6,"5,13,11,6,14,4,3,15,8,1,10,2,9,7,12"
14929,commdev-image-keyboard-response,449,1126512,learnblock1,659.5,img/planet6_right.png,6,Community 1,NA,FALSE,f,j,NA,NA,NA,1,6,"5,13,11,6,14,4,3,15,8,1,10,2,9,7,12"
14929,commdev-image-keyboard-response,450,1127764,learnblock1,481.90000009536743,img/planet4_left.png,4,Community 2,NA,TRUE,f,f,NA,NA,NA,1,6,"5,13,11,6,14,4,3,15,8,1,10,2,9,7,12"
14929,commdev-image-keyboard-response,451,1129016,learnblock1,731.5,img/planet8_left.png,8,Community 2,NA,TRUE,f,f,NA,NA,NA,1,6,"5,13,11,6,14,4,3,15,8,1,10,2,9,7,12"
14929,commdev-image-keyboard-response,452,1130268,learnblock1,879.5999999046326,img/planet1_left.png,1,Community 2,NA,TRUE,f,f,NA,NA,NA,1,6,"5,13,11,6,14,4,3,15,8,1,10,2,9,7,12"
14929,commdev-image-keyboard-response,453,1131519,learnblock1,492.5,img/planet8_right.png,8,Community 2,NA,TRUE,j,j,NA,NA,NA,1,6,"5,13,11,6,14,4,3,15,8,1,10,2,9,7,12"
14929,commdev-image-keyboard-response,454,1132771,learnblock1,540.7999999523163,img/planet1_left.png,1,Community 2,NA,TRUE,f,f,NA,NA,NA,1,6,"5,13,11,6,14,4,3,15,8,1,10,2,9,7,12"
14929,commdev-image-keyboard-response,455,1134022,learnblock1,597.9000000953674,img/planet15_right.png,15,Community 2,NA,TRUE,j,j,NA,NA,NA,1,6,"5,13,11,6,14,4,3,15,8,1,10,2,9,7,12"
14929,commdev-image-keyboard-response,456,1135274,learnblock1,604.9000000953674,img/planet1_left.png,1,Community 2,NA,TRUE,f,f,NA,NA,NA,1,6,"5,13,11,6,14,4,3,15,8,1,10,2,9,7,12"
14929,commdev-image-keyboard-response,457,1136526,learnblock1,493.5,img/planet15_right.png,15,Community 2,NA,TRUE,j,j,NA,NA,NA,1,6,"5,13,11,6,14,4,3,15,8,1,10,2,9,7,12"
14929,commdev-image-keyboard-response,458,1137778,learnblock1,567,img/planet3_left.png,3,Community 2,NA,TRUE,f,f,NA,NA,NA,1,6,"5,13,11,6,14,4,3,15,8,1,10,2,9,7,12"
14929,commdev-image-keyboard-response,459,1139029,learnblock1,623.1000001430511,img/planet1_right.png,1,Community 2,NA,FALSE,f,j,NA,NA,NA,1,6,"5,13,11,6,14,4,3,15,8,1,10,2,9,7,12"
14929,commdev-image-keyboard-response,460,1140281,learnblock1,622.0999999046326,img/planet15_right.png,15,Community 2,NA,TRUE,j,j,NA,NA,NA,1,6,"5,13,11,6,14,4,3,15,8,1,10,2,9,7,12"
14929,commdev-image-keyboard-response,461,1141533,learnblock1,543.7999999523163,img/planet3_left.png,3,Community 2,NA,TRUE,f,f,NA,NA,NA,1,6,"5,13,11,6,14,4,3,15,8,1,10,2,9,7,12"
14929,commdev-image-keyboard-response,462,1142785,learnblock1,591.5,img/planet15_right.png,15,Community 2,NA,TRUE,j,j,NA,NA,NA,1,6,"5,13,11,6,14,4,3,15,8,1,10,2,9,7,12"
14929,commdev-image-keyboard-response,463,1144041,learnblock1,497.7000000476837,img/planet3_left.png,3,Community 2,NA,TRUE,f,f,NA,NA,NA,1,6,"5,13,11,6,14,4,3,15,8,1,10,2,9,7,12"
14929,commdev-image-keyboard-response,464,1145294,learnblock1,559.1000001430511,img/planet8_right.png,8,Community 2,NA,TRUE,j,j,NA,NA,NA,1,6,"5,13,11,6,14,4,3,15,8,1,10,2,9,7,12"
14929,commdev-image-keyboard-response,465,1146547,learnblock1,538.2999999523163,img/planet3_left.png,3,Community 2,NA,TRUE,f,f,NA,NA,NA,1,6,"5,13,11,6,14,4,3,15,8,1,10,2,9,7,12"
14929,commdev-image-keyboard-response,466,1147798,learnblock1,569.9000000953674,img/planet1_right.png,1,Community 2,NA,TRUE,j,j,NA,NA,NA,1,6,"5,13,11,6,14,4,3,15,8,1,10,2,9,7,12"
14929,commdev-image-keyboard-response,467,1149050,learnblock1,651.4000000953674,img/planet15_left.png,15,Community 2,NA,TRUE,f,f,NA,NA,NA,1,6,"5,13,11,6,14,4,3,15,8,1,10,2,9,7,12"
14929,commdev-image-keyboard-response,468,1150305,learnblock1,651.5,img/planet8_right.png,8,Community 2,NA,TRUE,j,j,NA,NA,NA,1,6,"5,13,11,6,14,4,3,15,8,1,10,2,9,7,12"
14929,commdev-image-keyboard-response,469,1151557,learnblock1,695.7999999523163,img/planet1_right.png,1,Community 2,NA,TRUE,j,j,NA,NA,NA,1,6,"5,13,11,6,14,4,3,15,8,1,10,2,9,7,12"
14929,commdev-image-keyboard-response,470,1152809,learnblock1,600.8999998569489,img/planet3_right.png,3,Community 2,NA,TRUE,j,j,NA,NA,NA,1,6,"5,13,11,6,14,4,3,15,8,1,10,2,9,7,12"
14929,commdev-image-keyboard-response,471,1154061,learnblock1,506.59999990463257,img/planet15_left.png,15,Community 2,NA,TRUE,f,f,NA,NA,NA,1,6,"5,13,11,6,14,4,3,15,8,1,10,2,9,7,12"
14929,commdev-image-keyboard-response,472,1155313,learnblock1,503.7999999523163,img/planet1_right.png,1,Community 2,NA,TRUE,j,j,NA,NA,NA,1,6,"5,13,11,6,14,4,3,15,8,1,10,2,9,7,12"
14929,commdev-image-keyboard-response,473,1156565,learnblock1,518.7999999523163,img/planet3_left.png,3,Community 2,NA,TRUE,f,f,NA,NA,NA,1,6,"5,13,11,6,14,4,3,15,8,1,10,2,9,7,12"
14929,commdev-image-keyboard-response,474,1157817,learnblock1,801.7000000476837,img/planet4_left.png,4,Community 2,NA,TRUE,f,f,NA,NA,NA,1,6,"5,13,11,6,14,4,3,15,8,1,10,2,9,7,12"
14929,commdev-image-keyboard-response,475,1159069,learnblock1,514.2000000476837,img/planet8_left.png,8,Community 2,NA,FALSE,j,f,NA,NA,NA,1,6,"5,13,11,6,14,4,3,15,8,1,10,2,9,7,12"
14929,commdev-image-keyboard-response,476,1160321,learnblock1,520.2999999523163,img/planet3_left.png,3,Community 2,NA,TRUE,f,f,NA,NA,NA,1,6,"5,13,11,6,14,4,3,15,8,1,10,2,9,7,12"
14929,commdev-image-keyboard-response,477,1161572,learnblock1,509.5,img/planet15_right.png,15,Community 2,NA,TRUE,j,j,NA,NA,NA,1,6,"5,13,11,6,14,4,3,15,8,1,10,2,9,7,12"
14929,commdev-image-keyboard-response,478,1162825,learnblock1,441.7000000476837,img/planet3_right.png,3,Community 2,NA,FALSE,f,j,NA,NA,NA,1,6,"5,13,11,6,14,4,3,15,8,1,10,2,9,7,12"
14929,commdev-image-keyboard-response,479,1164077,learnblock1,581.1000001430511,img/planet15_left.png,15,Community 2,NA,TRUE,f,f,NA,NA,NA,1,6,"5,13,11,6,14,4,3,15,8,1,10,2,9,7,12"
14929,commdev-image-keyboard-response,480,1165332,learnblock1,756.9000000953674,img/planet2_left.png,2,Community 3,NA,FALSE,j,f,NA,NA,NA,1,6,"5,13,11,6,14,4,3,15,8,1,10,2,9,7,12"
14929,commdev-image-keyboard-response,481,1166584,learnblock1,458.40000009536743,img/planet9_left.png,9,Community 3,NA,TRUE,f,f,NA,NA,NA,1,6,"5,13,11,6,14,4,3,15,8,1,10,2,9,7,12"
14929,commdev-image-keyboard-response,482,1167836,learnblock1,498.60000014305115,img/planet10_left.png,10,Community 3,NA,TRUE,f,f,NA,NA,NA,1,6,"5,13,11,6,14,4,3,15,8,1,10,2,9,7,12"
14929,commdev-image-keyboard-response,483,1169088,learnblock1,780.7999999523163,img/planet9_right.png,9,Community 3,NA,TRUE,j,j,NA,NA,NA,1,6,"5,13,11,6,14,4,3,15,8,1,10,2,9,7,12"
14929,commdev-image-keyboard-response,484,1170339,learnblock1,611.4000000953674,img/planet10_left.png,10,Community 3,NA,TRUE,f,f,NA,NA,NA,1,6,"5,13,11,6,14,4,3,15,8,1,10,2,9,7,12"
14929,commdev-image-keyboard-response,485,1171591,learnblock1,652.2000000476837,img/planet12_right.png,12,Community 3,NA,FALSE,f,j,NA,NA,NA,1,6,"5,13,11,6,14,4,3,15,8,1,10,2,9,7,12"
14929,commdev-image-keyboard-response,486,1172843,learnblock1,734,img/planet9_left.png,9,Community 3,NA,TRUE,f,f,NA,NA,NA,1,6,"5,13,11,6,14,4,3,15,8,1,10,2,9,7,12"
14929,commdev-image-keyboard-response,487,1174095,learnblock1,673.5,img/planet2_left.png,2,Community 3,NA,TRUE,f,f,NA,NA,NA,1,6,"5,13,11,6,14,4,3,15,8,1,10,2,9,7,12"
14929,commdev-image-keyboard-response,488,1175346,learnblock1,715,img/planet9_left.png,9,Community 3,NA,TRUE,f,f,NA,NA,NA,1,6,"5,13,11,6,14,4,3,15,8,1,10,2,9,7,12"
14929,commdev-image-keyboard-response,489,1176598,learnblock1,687.2999999523163,img/planet12_left.png,12,Community 3,NA,TRUE,f,f,NA,NA,NA,1,6,"5,13,11,6,14,4,3,15,8,1,10,2,9,7,12"
14929,commdev-image-keyboard-response,490,1177850,learnblock1,567.7000000476837,img/planet10_right.png,10,Community 3,NA,TRUE,j,j,NA,NA,NA,1,6,"5,13,11,6,14,4,3,15,8,1,10,2,9,7,12"
14929,commdev-image-keyboard-response,491,1179102,learnblock1,708.9000000953674,img/planet9_right.png,9,Community 3,NA,TRUE,j,j,NA,NA,NA,1,6,"5,13,11,6,14,4,3,15,8,1,10,2,9,7,12"
14929,commdev-image-keyboard-response,492,1180355,learnblock1,581.5999999046326,img/planet10_left.png,10,Community 3,NA,TRUE,f,f,NA,NA,NA,1,6,"5,13,11,6,14,4,3,15,8,1,10,2,9,7,12"
14929,commdev-image-keyboard-response,493,1181607,learnblock1,789.7999999523163,img/planet14_right.png,14,Community 1,NA,TRUE,j,j,NA,NA,NA,1,6,"5,13,11,6,14,4,3,15,8,1,10,2,9,7,12"
14929,commdev-image-keyboard-response,494,1182858,learnblock1,1097.9000000953674,img/planet5_right.png,5,Community 1,NA,TRUE,j,j,NA,NA,NA,1,6,"5,13,11,6,14,4,3,15,8,1,10,2,9,7,12"
14929,commdev-image-keyboard-response,495,1184110,learnblock1,709.6999998092651,img/planet14_right.png,14,Community 1,NA,TRUE,j,j,NA,NA,NA,1,6,"5,13,11,6,14,4,3,15,8,1,10,2,9,7,12"
14929,commdev-image-keyboard-response,496,1185363,learnblock1,852.0999999046326,img/planet11_left.png,11,Community 1,NA,TRUE,f,f,NA,NA,NA,1,6,"5,13,11,6,14,4,3,15,8,1,10,2,9,7,12"
14929,commdev-image-keyboard-response,497,1186615,learnblock1,874.9000000953674,img/planet6_right.png,6,Community 1,NA,TRUE,j,j,NA,NA,NA,1,6,"5,13,11,6,14,4,3,15,8,1,10,2,9,7,12"
14929,commdev-image-keyboard-response,498,1187874,learnblock1,966,img/planet13_left.png,13,Community 1,NA,TRUE,f,f,NA,NA,NA,1,6,"5,13,11,6,14,4,3,15,8,1,10,2,9,7,12"
14929,commdev-image-keyboard-response,499,1189125,learnblock1,681.1000001430511,img/planet5_right.png,5,Community 1,NA,TRUE,j,j,NA,NA,NA,1,6,"5,13,11,6,14,4,3,15,8,1,10,2,9,7,12"
14929,commdev-image-keyboard-response,500,1190378,learnblock1,629.9000000953674,img/planet6_left.png,6,Community 1,NA,TRUE,f,f,NA,NA,NA,1,6,"5,13,11,6,14,4,3,15,8,1,10,2,9,7,12"
14929,commdev-image-keyboard-response,501,1191629,learnblock1,559.9000000953674,img/planet11_left.png,11,Community 1,NA,TRUE,f,f,NA,NA,NA,1,6,"5,13,11,6,14,4,3,15,8,1,10,2,9,7,12"
14929,commdev-image-keyboard-response,502,1192880,learnblock1,668.7000000476837,img/planet13_right.png,13,Community 1,NA,TRUE,j,j,NA,NA,NA,1,6,"5,13,11,6,14,4,3,15,8,1,10,2,9,7,12"
14929,commdev-image-keyboard-response,503,1194132,learnblock1,669.2000000476837,img/planet14_left.png,14,Community 1,NA,TRUE,f,f,NA,NA,NA,1,6,"5,13,11,6,14,4,3,15,8,1,10,2,9,7,12"
14929,commdev-image-keyboard-response,504,1195384,learnblock1,600.5,img/planet13_left.png,13,Community 1,NA,TRUE,f,f,NA,NA,NA,1,6,"5,13,11,6,14,4,3,15,8,1,10,2,9,7,12"
14929,commdev-image-keyboard-response,505,1196640,learnblock1,598.9000000953674,img/planet11_left.png,11,Community 1,NA,TRUE,f,f,NA,NA,NA,1,6,"5,13,11,6,14,4,3,15,8,1,10,2,9,7,12"
14929,commdev-image-keyboard-response,506,1197892,learnblock1,667.2999999523163,img/planet14_left.png,14,Community 1,NA,TRUE,f,f,NA,NA,NA,1,6,"5,13,11,6,14,4,3,15,8,1,10,2,9,7,12"
14929,commdev-image-keyboard-response,507,1199144,learnblock1,624.7000000476837,img/planet11_left.png,11,Community 1,NA,TRUE,f,f,NA,NA,NA,1,6,"5,13,11,6,14,4,3,15,8,1,10,2,9,7,12"
14929,commdev-image-keyboard-response,511,1230669,learnblock2,586.2999999523163,img/planet9_left.png,9,Community 3,NA,TRUE,f,f,NA,NA,NA,1,6,"5,13,11,6,14,4,3,15,8,1,10,2,9,7,12"
14929,commdev-image-keyboard-response,512,1231920,learnblock2,551.2000000476837,img/planet2_left.png,2,Community 3,NA,TRUE,f,f,NA,NA,NA,1,6,"5,13,11,6,14,4,3,15,8,1,10,2,9,7,12"
14929,commdev-image-keyboard-response,513,1233172,learnblock2,623.9000000953674,img/planet12_left.png,12,Community 3,NA,TRUE,f,f,NA,NA,NA,1,6,"5,13,11,6,14,4,3,15,8,1,10,2,9,7,12"
14929,commdev-image-keyboard-response,514,1234423,learnblock2,497.5,img/planet10_left.png,10,Community 3,NA,TRUE,f,f,NA,NA,NA,1,6,"5,13,11,6,14,4,3,15,8,1,10,2,9,7,12"
14929,commdev-image-keyboard-response,515,1235675,learnblock2,562.7999999523163,img/planet7_left.png,7,Community 3,NA,TRUE,f,f,NA,NA,NA,1,6,"5,13,11,6,14,4,3,15,8,1,10,2,9,7,12"
14929,commdev-image-keyboard-response,516,1236926,learnblock2,552.5,img/planet2_right.png,2,Community 3,NA,TRUE,j,j,NA,NA,NA,1,6,"5,13,11,6,14,4,3,15,8,1,10,2,9,7,12"
14929,commdev-image-keyboard-response,517,1238178,learnblock2,642.9000000953674,img/planet15_left.png,15,Community 2,NA,FALSE,j,f,NA,NA,NA,1,6,"5,13,11,6,14,4,3,15,8,1,10,2,9,7,12"
14929,commdev-image-keyboard-response,518,1239430,learnblock2,742.1000001430511,img/planet2_left.png,2,Community 3,NA,TRUE,f,f,NA,NA,NA,1,6,"5,13,11,6,14,4,3,15,8,1,10,2,9,7,12"
14929,commdev-image-keyboard-response,519,1240682,learnblock2,587.7000000476837,img/planet12_right.png,12,Community 3,NA,TRUE,j,j,NA,NA,NA,1,6,"5,13,11,6,14,4,3,15,8,1,10,2,9,7,12"
14929,commdev-image-keyboard-response,520,1241934,learnblock2,509.7000000476837,img/planet7_left.png,7,Community 3,NA,TRUE,f,f,NA,NA,NA,1,6,"5,13,11,6,14,4,3,15,8,1,10,2,9,7,12"
14929,commdev-image-keyboard-response,521,1243187,learnblock2,523.9000000953674,img/planet2_right.png,2,Community 3,NA,FALSE,f,j,NA,NA,NA,1,6,"5,13,11,6,14,4,3,15,8,1,10,2,9,7,12"
14929,commdev-image-keyboard-response,522,1244440,learnblock2,520.3999998569489,img/planet9_left.png,9,Community 3,NA,TRUE,f,f,NA,NA,NA,1,6,"5,13,11,6,14,4,3,15,8,1,10,2,9,7,12"
14929,commdev-image-keyboard-response,523,1245691,learnblock2,568,img/planet12_left.png,12,Community 3,NA,TRUE,f,f,NA,NA,NA,1,6,"5,13,11,6,14,4,3,15,8,1,10,2,9,7,12"
14929,commdev-image-keyboard-response,524,1246943,learnblock2,541.7999999523163,img/planet9_left.png,9,Community 3,NA,TRUE,f,f,NA,NA,NA,1,6,"5,13,11,6,14,4,3,15,8,1,10,2,9,7,12"
14929,commdev-image-keyboard-response,525,1248204,learnblock2,589.7000000476837,img/planet2_left.png,2,Community 3,NA,TRUE,f,f,NA,NA,NA,1,6,"5,13,11,6,14,4,3,15,8,1,10,2,9,7,12"
14929,commdev-image-keyboard-response,526,1249456,learnblock2,419.2000000476837,img/planet15_right.png,15,Community 2,NA,TRUE,j,j,NA,NA,NA,1,6,"5,13,11,6,14,4,3,15,8,1,10,2,9,7,12"
14929,commdev-image-keyboard-response,527,1250707,learnblock2,493.59999990463257,img/planet1_right.png,1,Community 2,NA,TRUE,j,j,NA,NA,NA,1,6,"5,13,11,6,14,4,3,15,8,1,10,2,9,7,12"
14929,commdev-image-keyboard-response,528,1251959,learnblock2,541.3000001907349,img/planet3_right.png,3,Community 2,NA,TRUE,j,j,NA,NA,NA,1,6,"5,13,11,6,14,4,3,15,8,1,10,2,9,7,12"
14929,commdev-image-keyboard-response,529,1253220,learnblock2,564.1000001430511,img/planet8_right.png,8,Community 2,NA,TRUE,j,j,NA,NA,NA,1,6,"5,13,11,6,14,4,3,15,8,1,10,2,9,7,12"
14929,commdev-image-keyboard-response,530,1254471,learnblock2,402.10000014305115,img/planet1_right.png,1,Community 2,NA,FALSE,f,j,NA,NA,NA,1,6,"5,13,11,6,14,4,3,15,8,1,10,2,9,7,12"
14929,commdev-image-keyboard-response,531,1255723,learnblock2,550.7000000476837,img/planet4_right.png,4,Community 2,NA,TRUE,j,j,NA,NA,NA,1,6,"5,13,11,6,14,4,3,15,8,1,10,2,9,7,12"
14929,commdev-image-keyboard-response,532,1256975,learnblock2,506.2999999523163,img/planet8_left.png,8,Community 2,NA,FALSE,j,f,NA,NA,NA,1,6,"5,13,11,6,14,4,3,15,8,1,10,2,9,7,12"
14929,commdev-image-keyboard-response,533,1258227,learnblock2,454.09999990463257,img/planet1_right.png,1,Community 2,NA,TRUE,j,j,NA,NA,NA,1,6,"5,13,11,6,14,4,3,15,8,1,10,2,9,7,12"
14929,commdev-image-keyboard-response,534,1259479,learnblock2,451.09999990463257,img/planet4_right.png,4,Community 2,NA,TRUE,j,j,NA,NA,NA,1,6,"5,13,11,6,14,4,3,15,8,1,10,2,9,7,12"
14929,commdev-image-keyboard-response,535,1260732,learnblock2,549.6999998092651,img/planet3_right.png,3,Community 2,NA,TRUE,j,j,NA,NA,NA,1,6,"5,13,11,6,14,4,3,15,8,1,10,2,9,7,12"
14929,commdev-image-keyboard-response,536,1261985,learnblock2,645.8999998569489,img/planet15_right.png,15,Community 2,NA,TRUE,j,j,NA,NA,NA,1,6,"5,13,11,6,14,4,3,15,8,1,10,2,9,7,12"
14929,commdev-image-keyboard-response,537,1263236,learnblock2,526.3000001907349,img/planet2_left.png,2,Community 3,NA,TRUE,f,f,NA,NA,NA,1,6,"5,13,11,6,14,4,3,15,8,1,10,2,9,7,12"
14929,commdev-image-keyboard-response,538,1264488,learnblock2,549,img/planet12_right.png,12,Community 3,NA,TRUE,j,j,NA,NA,NA,1,6,"5,13,11,6,14,4,3,15,8,1,10,2,9,7,12"
14929,commdev-image-keyboard-response,539,1265740,learnblock2,436.7000000476837,img/planet7_right.png,7,Community 3,NA,TRUE,j,j,NA,NA,NA,1,6,"5,13,11,6,14,4,3,15,8,1,10,2,9,7,12"
14929,commdev-image-keyboard-response,540,1266991,learnblock2,478.19999980926514,img/planet2_left.png,2,Community 3,NA,TRUE,f,f,NA,NA,NA,1,6,"5,13,11,6,14,4,3,15,8,1,10,2,9,7,12"
14929,commdev-image-keyboard-response,541,1268243,learnblock2,591.7999999523163,img/planet12_left.png,12,Community 3,NA,TRUE,f,f,NA,NA,NA,1,6,"5,13,11,6,14,4,3,15,8,1,10,2,9,7,12"
14929,commdev-image-keyboard-response,542,1269495,learnblock2,514,img/planet7_left.png,7,Community 3,NA,TRUE,f,f,NA,NA,NA,1,6,"5,13,11,6,14,4,3,15,8,1,10,2,9,7,12"
14929,commdev-image-keyboard-response,543,1270747,learnblock2,462.40000009536743,img/planet2_right.png,2,Community 3,NA,TRUE,j,j,NA,NA,NA,1,6,"5,13,11,6,14,4,3,15,8,1,10,2,9,7,12"
14929,commdev-image-keyboard-response,544,1271998,learnblock2,434.39999985694885,img/planet7_left.png,7,Community 3,NA,TRUE,f,f,NA,NA,NA,1,6,"5,13,11,6,14,4,3,15,8,1,10,2,9,7,12"
14929,commdev-image-keyboard-response,545,1273249,learnblock2,382.2000000476837,img/planet10_left.png,10,Community 3,NA,TRUE,f,f,NA,NA,NA,1,6,"5,13,11,6,14,4,3,15,8,1,10,2,9,7,12"
14929,commdev-image-keyboard-response,546,1274502,learnblock2,455.69999980926514,img/planet12_left.png,12,Community 3,NA,TRUE,f,f,NA,NA,NA,1,6,"5,13,11,6,14,4,3,15,8,1,10,2,9,7,12"
14929,commdev-image-keyboard-response,547,1275754,learnblock2,318.89999985694885,img/planet10_left.png,10,Community 3,NA,TRUE,f,f,NA,NA,NA,1,6,"5,13,11,6,14,4,3,15,8,1,10,2,9,7,12"
14929,commdev-image-keyboard-response,548,1277005,learnblock2,532.3999998569489,img/planet7_left.png,7,Community 3,NA,TRUE,f,f,NA,NA,NA,1,6,"5,13,11,6,14,4,3,15,8,1,10,2,9,7,12"
14929,commdev-image-keyboard-response,549,1278257,learnblock2,455.60000014305115,img/planet9_left.png,9,Community 3,NA,TRUE,f,f,NA,NA,NA,1,6,"5,13,11,6,14,4,3,15,8,1,10,2,9,7,12"
14929,commdev-image-keyboard-response,550,1279511,learnblock2,402.7000000476837,img/planet12_right.png,12,Community 3,NA,FALSE,f,j,NA,NA,NA,1,6,"5,13,11,6,14,4,3,15,8,1,10,2,9,7,12"
14929,commdev-image-keyboard-response,551,1280762,learnblock2,725,img/planet10_left.png,10,Community 3,NA,TRUE,f,f,NA,NA,NA,1,6,"5,13,11,6,14,4,3,15,8,1,10,2,9,7,12"
14929,commdev-image-keyboard-response,552,1282013,learnblock2,674,img/planet9_right.png,9,Community 3,NA,TRUE,j,j,NA,NA,NA,1,6,"5,13,11,6,14,4,3,15,8,1,10,2,9,7,12"
14929,commdev-image-keyboard-response,553,1283265,learnblock2,535.7999999523163,img/planet2_left.png,2,Community 3,NA,TRUE,f,f,NA,NA,NA,1,6,"5,13,11,6,14,4,3,15,8,1,10,2,9,7,12"
14929,commdev-image-keyboard-response,554,1284517,learnblock2,508.2000000476837,img/planet15_left.png,15,Community 2,NA,TRUE,f,f,NA,NA,NA,1,6,"5,13,11,6,14,4,3,15,8,1,10,2,9,7,12"
14929,commdev-image-keyboard-response,555,1285769,learnblock2,555.7999999523163,img/planet8_right.png,8,Community 2,NA,TRUE,j,j,NA,NA,NA,1,6,"5,13,11,6,14,4,3,15,8,1,10,2,9,7,12"
14929,commdev-image-keyboard-response,556,1287022,learnblock2,426.5,img/planet3_left.png,3,Community 2,NA,TRUE,f,f,NA,NA,NA,1,6,"5,13,11,6,14,4,3,15,8,1,10,2,9,7,12"
14929,commdev-image-keyboard-response,557,1288276,learnblock2,540.5999999046326,img/planet8_right.png,8,Community 2,NA,TRUE,j,j,NA,NA,NA,1,6,"5,13,11,6,14,4,3,15,8,1,10,2,9,7,12"
14929,commdev-image-keyboard-response,558,1289536,learnblock2,null,img/planet15_right.png,15,Community 2,NA,FALSE,null,j,NA,NA,NA,1,6,"5,13,11,6,14,4,3,15,8,1,10,2,9,7,12"
14929,commdev-image-keyboard-response,559,1290787,learnblock2,659.7999999523163,img/planet2_left.png,2,Community 3,NA,TRUE,f,f,NA,NA,NA,1,6,"5,13,11,6,14,4,3,15,8,1,10,2,9,7,12"
14929,commdev-image-keyboard-response,560,1292039,learnblock2,1051.0999999046326,img/planet15_left.png,15,Community 2,NA,TRUE,f,f,NA,NA,NA,1,6,"5,13,11,6,14,4,3,15,8,1,10,2,9,7,12"
14929,commdev-image-keyboard-response,561,1293292,learnblock2,519.5,img/planet3_left.png,3,Community 2,NA,TRUE,f,f,NA,NA,NA,1,6,"5,13,11,6,14,4,3,15,8,1,10,2,9,7,12"
14929,commdev-image-keyboard-response,562,1294543,learnblock2,516.4000000953674,img/planet4_right.png,4,Community 2,NA,TRUE,j,j,NA,NA,NA,1,6,"5,13,11,6,14,4,3,15,8,1,10,2,9,7,12"
14929,commdev-image-keyboard-response,563,1295796,learnblock2,547.3999998569489,img/planet6_right.png,6,Community 1,NA,TRUE,j,j,NA,NA,NA,1,6,"5,13,11,6,14,4,3,15,8,1,10,2,9,7,12"
14929,commdev-image-keyboard-response,564,1297048,learnblock2,512.2000000476837,img/planet13_right.png,13,Community 1,NA,FALSE,f,j,NA,NA,NA,1,6,"5,13,11,6,14,4,3,15,8,1,10,2,9,7,12"
14929,commdev-image-keyboard-response,565,1298301,learnblock2,542.5,img/planet14_left.png,14,Community 1,NA,TRUE,f,f,NA,NA,NA,1,6,"5,13,11,6,14,4,3,15,8,1,10,2,9,7,12"
14929,commdev-image-keyboard-response,566,1299552,learnblock2,454.5,img/planet13_right.png,13,Community 1,NA,TRUE,j,j,NA,NA,NA,1,6,"5,13,11,6,14,4,3,15,8,1,10,2,9,7,12"
14929,commdev-image-keyboard-response,567,1300804,learnblock2,527.8999998569489,img/planet11_right.png,11,Community 1,NA,FALSE,f,j,NA,NA,NA,1,6,"5,13,11,6,14,4,3,15,8,1,10,2,9,7,12"
14929,commdev-image-keyboard-response,568,1302055,learnblock2,541.8999998569489,img/planet5_left.png,5,Community 1,NA,TRUE,f,f,NA,NA,NA,1,6,"5,13,11,6,14,4,3,15,8,1,10,2,9,7,12"
14929,commdev-image-keyboard-response,569,1303307,learnblock2,457,img/planet6_right.png,6,Community 1,NA,TRUE,j,j,NA,NA,NA,1,6,"5,13,11,6,14,4,3,15,8,1,10,2,9,7,12"
14929,commdev-image-keyboard-response,570,1304560,learnblock2,520.9000000953674,img/planet11_left.png,11,Community 1,NA,TRUE,f,f,NA,NA,NA,1,6,"5,13,11,6,14,4,3,15,8,1,10,2,9,7,12"
14929,commdev-image-keyboard-response,571,1305812,learnblock2,668.5,img/planet14_left.png,14,Community 1,NA,TRUE,f,f,NA,NA,NA,1,6,"5,13,11,6,14,4,3,15,8,1,10,2,9,7,12"
14929,commdev-image-keyboard-response,572,1307064,learnblock2,454.7999999523163,img/planet5_right.png,5,Community 1,NA,TRUE,j,j,NA,NA,NA,1,6,"5,13,11,6,14,4,3,15,8,1,10,2,9,7,12"
14929,commdev-image-keyboard-response,573,1308316,learnblock2,536.1000001430511,img/planet11_left.png,11,Community 1,NA,TRUE,f,f,NA,NA,NA,1,6,"5,13,11,6,14,4,3,15,8,1,10,2,9,7,12"
14929,commdev-image-keyboard-response,574,1309568,learnblock2,599.5,img/planet6_right.png,6,Community 1,NA,TRUE,j,j,NA,NA,NA,1,6,"5,13,11,6,14,4,3,15,8,1,10,2,9,7,12"
14929,commdev-image-keyboard-response,575,1310821,learnblock2,630.6000001430511,img/planet4_right.png,4,Community 2,NA,TRUE,j,j,NA,NA,NA,1,6,"5,13,11,6,14,4,3,15,8,1,10,2,9,7,12"
14929,commdev-image-keyboard-response,576,1312083,learnblock2,492.90000009536743,img/planet6_right.png,6,Community 1,NA,TRUE,j,j,NA,NA,NA,1,6,"5,13,11,6,14,4,3,15,8,1,10,2,9,7,12"
14929,commdev-image-keyboard-response,577,1313335,learnblock2,454.89999985694885,img/planet5_left.png,5,Community 1,NA,TRUE,f,f,NA,NA,NA,1,6,"5,13,11,6,14,4,3,15,8,1,10,2,9,7,12"
14929,commdev-image-keyboard-response,578,1314587,learnblock2,452.2000000476837,img/planet11_left.png,11,Community 1,NA,TRUE,f,f,NA,NA,NA,1,6,"5,13,11,6,14,4,3,15,8,1,10,2,9,7,12"
14929,commdev-image-keyboard-response,579,1315839,learnblock2,448.30000019073486,img/planet5_right.png,5,Community 1,NA,FALSE,f,j,NA,NA,NA,1,6,"5,13,11,6,14,4,3,15,8,1,10,2,9,7,12"
14929,commdev-image-keyboard-response,580,1317091,learnblock2,545.8999998569489,img/planet11_right.png,11,Community 1,NA,FALSE,f,j,NA,NA,NA,1,6,"5,13,11,6,14,4,3,15,8,1,10,2,9,7,12"
14929,commdev-image-keyboard-response,581,1318343,learnblock2,669.7000000476837,img/planet6_right.png,6,Community 1,NA,TRUE,j,j,NA,NA,NA,1,6,"5,13,11,6,14,4,3,15,8,1,10,2,9,7,12"
14929,commdev-image-keyboard-response,582,1319595,learnblock2,556.9000000953674,img/planet13_right.png,13,Community 1,NA,TRUE,j,j,NA,NA,NA,1,6,"5,13,11,6,14,4,3,15,8,1,10,2,9,7,12"
14929,commdev-image-keyboard-response,583,1320857,learnblock2,597.2999999523163,img/planet11_right.png,11,Community 1,NA,TRUE,j,j,NA,NA,NA,1,6,"5,13,11,6,14,4,3,15,8,1,10,2,9,7,12"
14929,commdev-image-keyboard-response,584,1322108,learnblock2,534.6000001430511,img/planet14_right.png,14,Community 1,NA,TRUE,j,j,NA,NA,NA,1,6,"5,13,11,6,14,4,3,15,8,1,10,2,9,7,12"
14929,commdev-image-keyboard-response,585,1323361,learnblock2,909.7999999523163,img/planet11_left.png,11,Community 1,NA,FALSE,j,f,NA,NA,NA,1,6,"5,13,11,6,14,4,3,15,8,1,10,2,9,7,12"
14929,commdev-image-keyboard-response,586,1324625,learnblock2,870.7999999523163,img/planet14_right.png,14,Community 1,NA,TRUE,j,j,NA,NA,NA,1,6,"5,13,11,6,14,4,3,15,8,1,10,2,9,7,12"
14929,commdev-image-keyboard-response,587,1325876,learnblock2,890.7999999523163,img/planet10_left.png,10,Community 3,NA,TRUE,f,f,NA,NA,NA,1,6,"5,13,11,6,14,4,3,15,8,1,10,2,9,7,12"
14929,commdev-image-keyboard-response,588,1327128,learnblock2,736.9000000953674,img/planet9_left.png,9,Community 3,NA,TRUE,f,f,NA,NA,NA,1,6,"5,13,11,6,14,4,3,15,8,1,10,2,9,7,12"
14929,commdev-image-keyboard-response,589,1328386,learnblock2,634,img/planet7_right.png,7,Community 3,NA,TRUE,j,j,NA,NA,NA,1,6,"5,13,11,6,14,4,3,15,8,1,10,2,9,7,12"
14929,commdev-image-keyboard-response,590,1329637,learnblock2,524.5999999046326,img/planet9_left.png,9,Community 3,NA,TRUE,f,f,NA,NA,NA,1,6,"5,13,11,6,14,4,3,15,8,1,10,2,9,7,12"
14929,commdev-image-keyboard-response,591,1330889,learnblock2,479.7999999523163,img/planet12_left.png,12,Community 3,NA,TRUE,f,f,NA,NA,NA,1,6,"5,13,11,6,14,4,3,15,8,1,10,2,9,7,12"
14929,commdev-image-keyboard-response,592,1332141,learnblock2,444.2999999523163,img/planet10_right.png,10,Community 3,NA,TRUE,j,j,NA,NA,NA,1,6,"5,13,11,6,14,4,3,15,8,1,10,2,9,7,12"
14929,commdev-image-keyboard-response,593,1333394,learnblock2,642.2000000476837,img/planet14_left.png,14,Community 1,NA,TRUE,f,f,NA,NA,NA,1,6,"5,13,11,6,14,4,3,15,8,1,10,2,9,7,12"
14929,commdev-image-keyboard-response,594,1334645,learnblock2,572.9000000953674,img/planet13_left.png,13,Community 1,NA,TRUE,f,f,NA,NA,NA,1,6,"5,13,11,6,14,4,3,15,8,1,10,2,9,7,12"
14929,commdev-image-keyboard-response,595,1335897,learnblock2,393.7999999523163,img/planet6_right.png,6,Community 1,NA,FALSE,f,j,NA,NA,NA,1,6,"5,13,11,6,14,4,3,15,8,1,10,2,9,7,12"
14929,commdev-image-keyboard-response,596,1337149,learnblock2,759.8999998569489,img/planet4_left.png,4,Community 2,NA,TRUE,f,f,NA,NA,NA,1,6,"5,13,11,6,14,4,3,15,8,1,10,2,9,7,12"
14929,commdev-image-keyboard-response,597,1338401,learnblock2,555.5999999046326,img/planet1_left.png,1,Community 2,NA,TRUE,f,f,NA,NA,NA,1,6,"5,13,11,6,14,4,3,15,8,1,10,2,9,7,12"
14929,commdev-image-keyboard-response,598,1339653,learnblock2,646.4000000953674,img/planet4_left.png,4,Community 2,NA,TRUE,f,f,NA,NA,NA,1,6,"5,13,11,6,14,4,3,15,8,1,10,2,9,7,12"
14929,commdev-image-keyboard-response,599,1340905,learnblock2,645.7999999523163,img/planet1_left.png,1,Community 2,NA,TRUE,f,f,NA,NA,NA,1,6,"5,13,11,6,14,4,3,15,8,1,10,2,9,7,12"
14929,commdev-image-keyboard-response,600,1342157,learnblock2,694.5,img/planet4_right.png,4,Community 2,NA,TRUE,j,j,NA,NA,NA,1,6,"5,13,11,6,14,4,3,15,8,1,10,2,9,7,12"
14929,commdev-image-keyboard-response,601,1343409,learnblock2,701.1999998092651,img/planet8_right.png,8,Community 2,NA,TRUE,j,j,NA,NA,NA,1,6,"5,13,11,6,14,4,3,15,8,1,10,2,9,7,12"
14929,commdev-image-keyboard-response,602,1344660,learnblock2,850.2000000476837,img/planet1_right.png,1,Community 2,NA,TRUE,j,j,NA,NA,NA,1,6,"5,13,11,6,14,4,3,15,8,1,10,2,9,7,12"
14929,commdev-image-keyboard-response,603,1345912,learnblock2,1167.9000000953674,img/planet8_right.png,8,Community 2,NA,TRUE,j,j,NA,NA,NA,1,6,"5,13,11,6,14,4,3,15,8,1,10,2,9,7,12"
14929,commdev-image-keyboard-response,604,1347164,learnblock2,452.7999999523163,img/planet1_left.png,1,Community 2,NA,TRUE,f,f,NA,NA,NA,1,6,"5,13,11,6,14,4,3,15,8,1,10,2,9,7,12"
14929,commdev-image-keyboard-response,605,1348416,learnblock2,485.2999999523163,img/planet15_right.png,15,Community 2,NA,TRUE,j,j,NA,NA,NA,1,6,"5,13,11,6,14,4,3,15,8,1,10,2,9,7,12"
14929,commdev-image-keyboard-response,606,1349668,learnblock2,415.19999980926514,img/planet2_left.png,2,Community 3,NA,TRUE,f,f,NA,NA,NA,1,6,"5,13,11,6,14,4,3,15,8,1,10,2,9,7,12"
14929,commdev-image-keyboard-response,607,1350921,learnblock2,665.7000000476837,img/planet9_left.png,9,Community 3,NA,TRUE,f,f,NA,NA,NA,1,6,"5,13,11,6,14,4,3,15,8,1,10,2,9,7,12"
14929,commdev-image-keyboard-response,608,1352172,learnblock2,654.2999999523163,img/planet12_left.png,12,Community 3,NA,TRUE,f,f,NA,NA,NA,1,6,"5,13,11,6,14,4,3,15,8,1,10,2,9,7,12"
14929,commdev-image-keyboard-response,609,1353438,learnblock2,679.7000000476837,img/planet10_left.png,10,Community 3,NA,TRUE,f,f,NA,NA,NA,1,6,"5,13,11,6,14,4,3,15,8,1,10,2,9,7,12"
14929,commdev-image-keyboard-response,610,1354690,learnblock2,614,img/planet12_right.png,12,Community 3,NA,TRUE,j,j,NA,NA,NA,1,6,"5,13,11,6,14,4,3,15,8,1,10,2,9,7,12"
14929,commdev-image-keyboard-response,611,1355941,learnblock2,495,img/planet10_left.png,10,Community 3,NA,FALSE,j,f,NA,NA,NA,1,6,"5,13,11,6,14,4,3,15,8,1,10,2,9,7,12"
14929,commdev-image-keyboard-response,612,1357193,learnblock2,628.2999999523163,img/planet14_right.png,14,Community 1,NA,TRUE,j,j,NA,NA,NA,1,6,"5,13,11,6,14,4,3,15,8,1,10,2,9,7,12"
14929,commdev-image-keyboard-response,613,1358458,learnblock2,618.6000001430511,img/planet13_right.png,13,Community 1,NA,TRUE,j,j,NA,NA,NA,1,6,"5,13,11,6,14,4,3,15,8,1,10,2,9,7,12"
14929,commdev-image-keyboard-response,614,1359711,learnblock2,519,img/planet5_right.png,5,Community 1,NA,TRUE,j,j,NA,NA,NA,1,6,"5,13,11,6,14,4,3,15,8,1,10,2,9,7,12"
14929,commdev-image-keyboard-response,615,1360963,learnblock2,641.5999999046326,img/planet11_left.png,11,Community 1,NA,TRUE,f,f,NA,NA,NA,1,6,"5,13,11,6,14,4,3,15,8,1,10,2,9,7,12"
14929,commdev-image-keyboard-response,616,1362215,learnblock2,504.7000000476837,img/planet13_right.png,13,Community 1,NA,TRUE,j,j,NA,NA,NA,1,6,"5,13,11,6,14,4,3,15,8,1,10,2,9,7,12"
14929,commdev-image-keyboard-response,617,1363467,learnblock2,433.7999999523163,img/planet11_right.png,11,Community 1,NA,TRUE,j,j,NA,NA,NA,1,6,"5,13,11,6,14,4,3,15,8,1,10,2,9,7,12"
14929,commdev-image-keyboard-response,618,1364719,learnblock2,488.7000000476837,img/planet5_right.png,5,Community 1,NA,TRUE,j,j,NA,NA,NA,1,6,"5,13,11,6,14,4,3,15,8,1,10,2,9,7,12"
14929,commdev-image-keyboard-response,619,1365971,learnblock2,460.90000009536743,img/planet13_left.png,13,Community 1,NA,TRUE,f,f,NA,NA,NA,1,6,"5,13,11,6,14,4,3,15,8,1,10,2,9,7,12"
14929,commdev-image-keyboard-response,620,1367222,learnblock2,441.40000009536743,img/planet6_left.png,6,Community 1,NA,FALSE,j,f,NA,NA,NA,1,6,"5,13,11,6,14,4,3,15,8,1,10,2,9,7,12"
14929,commdev-image-keyboard-response,621,1368475,learnblock2,482.2000000476837,img/planet13_right.png,13,Community 1,NA,TRUE,j,j,NA,NA,NA,1,6,"5,13,11,6,14,4,3,15,8,1,10,2,9,7,12"
14929,commdev-image-keyboard-response,622,1369726,learnblock2,586.2999999523163,img/planet11_left.png,11,Community 1,NA,TRUE,f,f,NA,NA,NA,1,6,"5,13,11,6,14,4,3,15,8,1,10,2,9,7,12"
14929,commdev-image-keyboard-response,623,1370978,learnblock2,500.2000000476837,img/planet6_right.png,6,Community 1,NA,TRUE,j,j,NA,NA,NA,1,6,"5,13,11,6,14,4,3,15,8,1,10,2,9,7,12"
14929,commdev-image-keyboard-response,624,1372230,learnblock2,456.80000019073486,img/planet4_right.png,4,Community 2,NA,FALSE,f,j,NA,NA,NA,1,6,"5,13,11,6,14,4,3,15,8,1,10,2,9,7,12"
14929,commdev-image-keyboard-response,625,1373483,learnblock2,604.5999999046326,img/planet8_left.png,8,Community 2,NA,TRUE,f,f,NA,NA,NA,1,6,"5,13,11,6,14,4,3,15,8,1,10,2,9,7,12"
14929,commdev-image-keyboard-response,626,1374735,learnblock2,449.2999999523163,img/planet4_right.png,4,Community 2,NA,TRUE,j,j,NA,NA,NA,1,6,"5,13,11,6,14,4,3,15,8,1,10,2,9,7,12"
14929,commdev-image-keyboard-response,627,1375986,learnblock2,538.3999998569489,img/planet6_left.png,6,Community 1,NA,TRUE,f,f,NA,NA,NA,1,6,"5,13,11,6,14,4,3,15,8,1,10,2,9,7,12"
14929,commdev-image-keyboard-response,628,1377238,learnblock2,453.39999985694885,img/planet5_right.png,5,Community 1,NA,TRUE,j,j,NA,NA,NA,1,6,"5,13,11,6,14,4,3,15,8,1,10,2,9,7,12"
14929,commdev-image-keyboard-response,629,1378491,learnblock2,532.2000000476837,img/planet14_left.png,14,Community 1,NA,TRUE,f,f,NA,NA,NA,1,6,"5,13,11,6,14,4,3,15,8,1,10,2,9,7,12"
14929,commdev-image-keyboard-response,630,1379743,learnblock2,454.60000014305115,img/planet10_right.png,10,Community 3,NA,TRUE,j,j,NA,NA,NA,1,6,"5,13,11,6,14,4,3,15,8,1,10,2,9,7,12"
14929,commdev-image-keyboard-response,631,1380995,learnblock2,418,img/planet12_left.png,12,Community 3,NA,TRUE,f,f,NA,NA,NA,1,6,"5,13,11,6,14,4,3,15,8,1,10,2,9,7,12"
14929,commdev-image-keyboard-response,632,1382246,learnblock2,456.59999990463257,img/planet2_left.png,2,Community 3,NA,TRUE,f,f,NA,NA,NA,1,6,"5,13,11,6,14,4,3,15,8,1,10,2,9,7,12"
14929,commdev-image-keyboard-response,633,1383498,learnblock2,613.1000001430511,img/planet9_left.png,9,Community 3,NA,TRUE,f,f,NA,NA,NA,1,6,"5,13,11,6,14,4,3,15,8,1,10,2,9,7,12"
14929,commdev-image-keyboard-response,634,1384750,learnblock2,516.6000001430511,img/planet7_left.png,7,Community 3,NA,TRUE,f,f,NA,NA,NA,1,6,"5,13,11,6,14,4,3,15,8,1,10,2,9,7,12"
14929,commdev-image-keyboard-response,635,1386002,learnblock2,496.90000009536743,img/planet9_right.png,9,Community 3,NA,TRUE,j,j,NA,NA,NA,1,6,"5,13,11,6,14,4,3,15,8,1,10,2,9,7,12"
14929,commdev-image-keyboard-response,636,1387254,learnblock2,512.2000000476837,img/planet7_right.png,7,Community 3,NA,FALSE,f,j,NA,NA,NA,1,6,"5,13,11,6,14,4,3,15,8,1,10,2,9,7,12"
14929,commdev-image-keyboard-response,637,1388506,learnblock2,449.40000009536743,img/planet12_left.png,12,Community 3,NA,TRUE,f,f,NA,NA,NA,1,6,"5,13,11,6,14,4,3,15,8,1,10,2,9,7,12"
14929,commdev-image-keyboard-response,638,1389758,learnblock2,565.2000000476837,img/planet10_left.png,10,Community 3,NA,TRUE,f,f,NA,NA,NA,1,6,"5,13,11,6,14,4,3,15,8,1,10,2,9,7,12"
14929,commdev-image-keyboard-response,639,1391010,learnblock2,604,img/planet7_left.png,7,Community 3,NA,TRUE,f,f,NA,NA,NA,1,6,"5,13,11,6,14,4,3,15,8,1,10,2,9,7,12"
14929,commdev-image-keyboard-response,640,1392263,learnblock2,466.89999985694885,img/planet9_right.png,9,Community 3,NA,TRUE,j,j,NA,NA,NA,1,6,"5,13,11,6,14,4,3,15,8,1,10,2,9,7,12"
14929,commdev-image-keyboard-response,641,1393516,learnblock2,421.90000009536743,img/planet2_left.png,2,Community 3,NA,TRUE,f,f,NA,NA,NA,1,6,"5,13,11,6,14,4,3,15,8,1,10,2,9,7,12"
14929,commdev-image-keyboard-response,642,1394769,learnblock2,577.8999998569489,img/planet7_right.png,7,Community 3,NA,TRUE,j,j,NA,NA,NA,1,6,"5,13,11,6,14,4,3,15,8,1,10,2,9,7,12"
14929,commdev-image-keyboard-response,643,1396020,learnblock2,449.2999999523163,img/planet2_left.png,2,Community 3,NA,TRUE,f,f,NA,NA,NA,1,6,"5,13,11,6,14,4,3,15,8,1,10,2,9,7,12"
14929,commdev-image-keyboard-response,644,1397271,learnblock2,456.7999999523163,img/planet12_right.png,12,Community 3,NA,TRUE,j,j,NA,NA,NA,1,6,"5,13,11,6,14,4,3,15,8,1,10,2,9,7,12"
14929,commdev-image-keyboard-response,645,1398523,learnblock2,438.09999990463257,img/planet10_left.png,10,Community 3,NA,TRUE,f,f,NA,NA,NA,1,6,"5,13,11,6,14,4,3,15,8,1,10,2,9,7,12"
14929,commdev-image-keyboard-response,646,1399775,learnblock2,611.2999999523163,img/planet12_left.png,12,Community 3,NA,TRUE,f,f,NA,NA,NA,1,6,"5,13,11,6,14,4,3,15,8,1,10,2,9,7,12"
14929,commdev-image-keyboard-response,647,1401027,learnblock2,447.7000000476837,img/planet10_right.png,10,Community 3,NA,TRUE,j,j,NA,NA,NA,1,6,"5,13,11,6,14,4,3,15,8,1,10,2,9,7,12"
14929,commdev-image-keyboard-response,648,1402278,learnblock2,630.5999999046326,img/planet14_left.png,14,Community 1,NA,TRUE,f,f,NA,NA,NA,1,6,"5,13,11,6,14,4,3,15,8,1,10,2,9,7,12"
14929,commdev-image-keyboard-response,649,1403530,learnblock2,493.90000009536743,img/planet11_right.png,11,Community 1,NA,TRUE,j,j,NA,NA,NA,1,6,"5,13,11,6,14,4,3,15,8,1,10,2,9,7,12"
14929,commdev-image-keyboard-response,650,1404782,learnblock2,449.40000009536743,img/planet5_left.png,5,Community 1,NA,TRUE,f,f,NA,NA,NA,1,6,"5,13,11,6,14,4,3,15,8,1,10,2,9,7,12"
14929,commdev-image-keyboard-response,651,1406035,learnblock2,471.90000009536743,img/planet6_right.png,6,Community 1,NA,TRUE,j,j,NA,NA,NA,1,6,"5,13,11,6,14,4,3,15,8,1,10,2,9,7,12"
14929,commdev-image-keyboard-response,652,1407286,learnblock2,377.10000014305115,img/planet4_left.png,4,Community 2,NA,TRUE,f,f,NA,NA,NA,1,6,"5,13,11,6,14,4,3,15,8,1,10,2,9,7,12"
14929,commdev-image-keyboard-response,653,1408551,learnblock2,465.89999985694885,img/planet3_left.png,3,Community 2,NA,TRUE,f,f,NA,NA,NA,1,6,"5,13,11,6,14,4,3,15,8,1,10,2,9,7,12"
14929,commdev-image-keyboard-response,654,1409803,learnblock2,482.2000000476837,img/planet15_right.png,15,Community 2,NA,TRUE,j,j,NA,NA,NA,1,6,"5,13,11,6,14,4,3,15,8,1,10,2,9,7,12"
14929,commdev-image-keyboard-response,655,1411055,learnblock2,581.2000000476837,img/planet3_right.png,3,Community 2,NA,TRUE,j,j,NA,NA,NA,1,6,"5,13,11,6,14,4,3,15,8,1,10,2,9,7,12"
14929,commdev-image-keyboard-response,656,1412307,learnblock2,445.39999985694885,img/planet4_right.png,4,Community 2,NA,FALSE,f,j,NA,NA,NA,1,6,"5,13,11,6,14,4,3,15,8,1,10,2,9,7,12"
14929,commdev-image-keyboard-response,657,1413560,learnblock2,516.7000000476837,img/planet8_left.png,8,Community 2,NA,TRUE,f,f,NA,NA,NA,1,6,"5,13,11,6,14,4,3,15,8,1,10,2,9,7,12"
14929,commdev-image-keyboard-response,658,1414812,learnblock2,731.9000000953674,img/planet4_left.png,4,Community 2,NA,TRUE,f,f,NA,NA,NA,1,6,"5,13,11,6,14,4,3,15,8,1,10,2,9,7,12"
14929,commdev-image-keyboard-response,659,1416063,learnblock2,711.2999999523163,img/planet1_left.png,1,Community 2,NA,TRUE,f,f,NA,NA,NA,1,6,"5,13,11,6,14,4,3,15,8,1,10,2,9,7,12"
14929,commdev-image-keyboard-response,660,1417314,learnblock2,576.6000001430511,img/planet15_right.png,15,Community 2,NA,TRUE,j,j,NA,NA,NA,1,6,"5,13,11,6,14,4,3,15,8,1,10,2,9,7,12"
14929,commdev-image-keyboard-response,661,1418565,learnblock2,515.2999999523163,img/planet8_right.png,8,Community 2,NA,TRUE,j,j,NA,NA,NA,1,6,"5,13,11,6,14,4,3,15,8,1,10,2,9,7,12"
14929,commdev-image-keyboard-response,662,1419818,learnblock2,437.7000000476837,img/planet1_left.png,1,Community 2,NA,TRUE,f,f,NA,NA,NA,1,6,"5,13,11,6,14,4,3,15,8,1,10,2,9,7,12"
14929,commdev-image-keyboard-response,663,1421070,learnblock2,619,img/planet15_left.png,15,Community 2,NA,TRUE,f,f,NA,NA,NA,1,6,"5,13,11,6,14,4,3,15,8,1,10,2,9,7,12"
14929,commdev-image-keyboard-response,664,1422322,learnblock2,532.9000000953674,img/planet1_right.png,1,Community 2,NA,TRUE,j,j,NA,NA,NA,1,6,"5,13,11,6,14,4,3,15,8,1,10,2,9,7,12"
14929,commdev-image-keyboard-response,665,1423581,learnblock2,590.1000001430511,img/planet3_left.png,3,Community 2,NA,TRUE,f,f,NA,NA,NA,1,6,"5,13,11,6,14,4,3,15,8,1,10,2,9,7,12"
14929,commdev-image-keyboard-response,666,1424833,learnblock2,571.7000000476837,img/planet8_right.png,8,Community 2,NA,TRUE,j,j,NA,NA,NA,1,6,"5,13,11,6,14,4,3,15,8,1,10,2,9,7,12"
14929,commdev-image-keyboard-response,667,1426084,learnblock2,561.5,img/planet1_right.png,1,Community 2,NA,FALSE,f,j,NA,NA,NA,1,6,"5,13,11,6,14,4,3,15,8,1,10,2,9,7,12"
14929,commdev-image-keyboard-response,668,1427336,learnblock2,718.2000000476837,img/planet15_right.png,15,Community 2,NA,TRUE,j,j,NA,NA,NA,1,6,"5,13,11,6,14,4,3,15,8,1,10,2,9,7,12"
14929,commdev-image-keyboard-response,669,1428588,learnblock2,673.8999998569489,img/planet1_left.png,1,Community 2,NA,TRUE,f,f,NA,NA,NA,1,6,"5,13,11,6,14,4,3,15,8,1,10,2,9,7,12"
14929,commdev-image-keyboard-response,670,1429840,learnblock2,570,img/planet3_left.png,3,Community 2,NA,TRUE,f,f,NA,NA,NA,1,6,"5,13,11,6,14,4,3,15,8,1,10,2,9,7,12"
14929,commdev-image-keyboard-response,671,1431091,learnblock2,517.5999999046326,img/planet1_left.png,1,Community 2,NA,TRUE,f,f,NA,NA,NA,1,6,"5,13,11,6,14,4,3,15,8,1,10,2,9,7,12"
14929,commdev-image-keyboard-response,672,1432342,learnblock2,465.7999999523163,img/planet8_right.png,8,Community 2,NA,TRUE,j,j,NA,NA,NA,1,6,"5,13,11,6,14,4,3,15,8,1,10,2,9,7,12"
14929,commdev-image-keyboard-response,673,1433595,learnblock2,572,img/planet1_right.png,1,Community 2,NA,TRUE,j,j,NA,NA,NA,1,6,"5,13,11,6,14,4,3,15,8,1,10,2,9,7,12"
14929,commdev-image-keyboard-response,674,1434854,learnblock2,737.5999999046326,img/planet15_right.png,15,Community 2,NA,TRUE,j,j,NA,NA,NA,1,6,"5,13,11,6,14,4,3,15,8,1,10,2,9,7,12"
14929,commdev-image-keyboard-response,675,1436115,learnblock2,526.1999998092651,img/planet8_right.png,8,Community 2,NA,TRUE,j,j,NA,NA,NA,1,6,"5,13,11,6,14,4,3,15,8,1,10,2,9,7,12"
14929,commdev-image-keyboard-response,676,1437366,learnblock2,507.2000000476837,img/planet1_right.png,1,Community 2,NA,FALSE,f,j,NA,NA,NA,1,6,"5,13,11,6,14,4,3,15,8,1,10,2,9,7,12"
14929,commdev-image-keyboard-response,677,1438618,learnblock2,530.0999999046326,img/planet3_left.png,3,Community 2,NA,TRUE,f,f,NA,NA,NA,1,6,"5,13,11,6,14,4,3,15,8,1,10,2,9,7,12"
14929,commdev-image-keyboard-response,678,1439869,learnblock2,487.80000019073486,img/planet8_right.png,8,Community 2,NA,TRUE,j,j,NA,NA,NA,1,6,"5,13,11,6,14,4,3,15,8,1,10,2,9,7,12"
14929,commdev-image-keyboard-response,679,1441121,learnblock2,694.6999998092651,img/planet1_right.png,1,Community 2,NA,TRUE,j,j,NA,NA,NA,1,6,"5,13,11,6,14,4,3,15,8,1,10,2,9,7,12"
14929,commdev-image-keyboard-response,680,1442372,learnblock2,1146.5,img/planet4_right.png,4,Community 2,NA,TRUE,j,j,NA,NA,NA,1,6,"5,13,11,6,14,4,3,15,8,1,10,2,9,7,12"
14929,commdev-image-keyboard-response,681,1443624,learnblock2,606.8000001907349,img/planet8_left.png,8,Community 2,NA,TRUE,f,f,NA,NA,NA,1,6,"5,13,11,6,14,4,3,15,8,1,10,2,9,7,12"
14929,commdev-image-keyboard-response,682,1444876,learnblock2,553.7999999523163,img/planet3_left.png,3,Community 2,NA,TRUE,f,f,NA,NA,NA,1,6,"5,13,11,6,14,4,3,15,8,1,10,2,9,7,12"
14929,commdev-image-keyboard-response,683,1446128,learnblock2,484.2999999523163,img/planet1_right.png,1,Community 2,NA,TRUE,j,j,NA,NA,NA,1,6,"5,13,11,6,14,4,3,15,8,1,10,2,9,7,12"
14929,commdev-image-keyboard-response,684,1447381,learnblock2,458.5,img/planet8_right.png,8,Community 2,NA,TRUE,j,j,NA,NA,NA,1,6,"5,13,11,6,14,4,3,15,8,1,10,2,9,7,12"
14929,commdev-image-keyboard-response,685,1448634,learnblock2,412.89999985694885,img/planet3_right.png,3,Community 2,NA,TRUE,j,j,NA,NA,NA,1,6,"5,13,11,6,14,4,3,15,8,1,10,2,9,7,12"
14929,commdev-image-keyboard-response,686,1449885,learnblock2,452.90000009536743,img/planet4_left.png,4,Community 2,NA,TRUE,f,f,NA,NA,NA,1,6,"5,13,11,6,14,4,3,15,8,1,10,2,9,7,12"
14929,commdev-image-keyboard-response,687,1451137,learnblock2,502.5,img/planet6_left.png,6,Community 1,NA,TRUE,f,f,NA,NA,NA,1,6,"5,13,11,6,14,4,3,15,8,1,10,2,9,7,12"
14929,commdev-image-keyboard-response,688,1452389,learnblock2,641.2999999523163,img/planet5_right.png,5,Community 1,NA,TRUE,j,j,NA,NA,NA,1,6,"5,13,11,6,14,4,3,15,8,1,10,2,9,7,12"
14929,commdev-image-keyboard-response,689,1453640,learnblock2,505.59999990463257,img/planet14_right.png,14,Community 1,NA,FALSE,f,j,NA,NA,NA,1,6,"5,13,11,6,14,4,3,15,8,1,10,2,9,7,12"
14929,commdev-image-keyboard-response,690,1454892,learnblock2,730.8000001907349,img/planet5_right.png,5,Community 1,NA,TRUE,j,j,NA,NA,NA,1,6,"5,13,11,6,14,4,3,15,8,1,10,2,9,7,12"
14929,commdev-image-keyboard-response,691,1456145,learnblock2,508.7000000476837,img/planet13_left.png,13,Community 1,NA,TRUE,f,f,NA,NA,NA,1,6,"5,13,11,6,14,4,3,15,8,1,10,2,9,7,12"
14929,commdev-image-keyboard-response,692,1457396,learnblock2,446.39999985694885,img/planet6_right.png,6,Community 1,NA,FALSE,f,j,NA,NA,NA,1,6,"5,13,11,6,14,4,3,15,8,1,10,2,9,7,12"
14929,commdev-image-keyboard-response,693,1458648,learnblock2,678.1999998092651,img/planet11_left.png,11,Community 1,NA,TRUE,f,f,NA,NA,NA,1,6,"5,13,11,6,14,4,3,15,8,1,10,2,9,7,12"
14929,commdev-image-keyboard-response,694,1459901,learnblock2,534.7000000476837,img/planet6_left.png,6,Community 1,NA,TRUE,f,f,NA,NA,NA,1,6,"5,13,11,6,14,4,3,15,8,1,10,2,9,7,12"
14929,commdev-image-keyboard-response,695,1461152,learnblock2,557.3000001907349,img/planet13_right.png,13,Community 1,NA,TRUE,j,j,NA,NA,NA,1,6,"5,13,11,6,14,4,3,15,8,1,10,2,9,7,12"
14929,commdev-image-keyboard-response,696,1462405,learnblock2,562,img/planet5_left.png,5,Community 1,NA,TRUE,f,f,NA,NA,NA,1,6,"5,13,11,6,14,4,3,15,8,1,10,2,9,7,12"
14929,commdev-image-keyboard-response,697,1463656,learnblock2,593.0999999046326,img/planet11_left.png,11,Community 1,NA,TRUE,f,f,NA,NA,NA,1,6,"5,13,11,6,14,4,3,15,8,1,10,2,9,7,12"
14929,commdev-image-keyboard-response,698,1464908,learnblock2,757,img/planet5_left.png,5,Community 1,NA,TRUE,f,f,NA,NA,NA,1,6,"5,13,11,6,14,4,3,15,8,1,10,2,9,7,12"
14929,commdev-image-keyboard-response,699,1466160,learnblock2,654.5,img/planet6_left.png,6,Community 1,NA,TRUE,f,f,NA,NA,NA,1,6,"5,13,11,6,14,4,3,15,8,1,10,2,9,7,12"
14929,commdev-image-keyboard-response,700,1467412,learnblock2,466.7999999523163,img/planet4_left.png,4,Community 2,NA,FALSE,j,f,NA,NA,NA,1,6,"5,13,11,6,14,4,3,15,8,1,10,2,9,7,12"
14929,commdev-image-keyboard-response,701,1468665,learnblock2,531.7999999523163,img/planet3_right.png,3,Community 2,NA,TRUE,j,j,NA,NA,NA,1,6,"5,13,11,6,14,4,3,15,8,1,10,2,9,7,12"
14929,commdev-image-keyboard-response,702,1469916,learnblock2,704.5999999046326,img/planet15_right.png,15,Community 2,NA,TRUE,j,j,NA,NA,NA,1,6,"5,13,11,6,14,4,3,15,8,1,10,2,9,7,12"
14929,commdev-image-keyboard-response,703,1471169,learnblock2,677,img/planet2_right.png,2,Community 3,NA,TRUE,j,j,NA,NA,NA,1,6,"5,13,11,6,14,4,3,15,8,1,10,2,9,7,12"
14929,commdev-image-keyboard-response,704,1472421,learnblock2,657.4000000953674,img/planet7_right.png,7,Community 3,NA,TRUE,j,j,NA,NA,NA,1,6,"5,13,11,6,14,4,3,15,8,1,10,2,9,7,12"
14929,commdev-image-keyboard-response,705,1473673,learnblock2,579.8999998569489,img/planet10_left.png,10,Community 3,NA,TRUE,f,f,NA,NA,NA,1,6,"5,13,11,6,14,4,3,15,8,1,10,2,9,7,12"
14929,commdev-image-keyboard-response,706,1474924,learnblock2,587.4000000953674,img/planet7_left.png,7,Community 3,NA,TRUE,f,f,NA,NA,NA,1,6,"5,13,11,6,14,4,3,15,8,1,10,2,9,7,12"
14929,commdev-image-keyboard-response,707,1476177,learnblock2,532.7999999523163,img/planet2_left.png,2,Community 3,NA,TRUE,f,f,NA,NA,NA,1,6,"5,13,11,6,14,4,3,15,8,1,10,2,9,7,12"
14929,commdev-image-keyboard-response,708,1477428,learnblock2,456.2000000476837,img/planet9_right.png,9,Community 3,NA,TRUE,j,j,NA,NA,NA,1,6,"5,13,11,6,14,4,3,15,8,1,10,2,9,7,12"
14929,commdev-image-keyboard-response,709,1478679,learnblock2,620.9000000953674,img/planet12_right.png,12,Community 3,NA,TRUE,j,j,NA,NA,NA,1,6,"5,13,11,6,14,4,3,15,8,1,10,2,9,7,12"
14929,commdev-image-keyboard-response,710,1479931,learnblock2,526.6000001430511,img/planet2_right.png,2,Community 3,NA,TRUE,j,j,NA,NA,NA,1,6,"5,13,11,6,14,4,3,15,8,1,10,2,9,7,12"
14929,commdev-image-keyboard-response,711,1481183,learnblock2,624.2000000476837,img/planet15_right.png,15,Community 2,NA,TRUE,j,j,NA,NA,NA,1,6,"5,13,11,6,14,4,3,15,8,1,10,2,9,7,12"
14929,commdev-image-keyboard-response,712,1482436,learnblock2,681.7000000476837,img/planet1_left.png,1,Community 2,NA,TRUE,f,f,NA,NA,NA,1,6,"5,13,11,6,14,4,3,15,8,1,10,2,9,7,12"
14929,commdev-image-keyboard-response,713,1483687,learnblock2,551.7000000476837,img/planet8_left.png,8,Community 2,NA,FALSE,j,f,NA,NA,NA,1,6,"5,13,11,6,14,4,3,15,8,1,10,2,9,7,12"
14929,commdev-image-keyboard-response,714,1484938,learnblock2,550.2000000476837,img/planet15_right.png,15,Community 2,NA,TRUE,j,j,NA,NA,NA,1,6,"5,13,11,6,14,4,3,15,8,1,10,2,9,7,12"
14929,commdev-image-keyboard-response,715,1486190,learnblock2,607.2999999523163,img/planet8_left.png,8,Community 2,NA,FALSE,j,f,NA,NA,NA,1,6,"5,13,11,6,14,4,3,15,8,1,10,2,9,7,12"
14929,commdev-image-keyboard-response,716,1487444,learnblock2,721.6000001430511,img/planet4_left.png,4,Community 2,NA,FALSE,j,f,NA,NA,NA,1,6,"5,13,11,6,14,4,3,15,8,1,10,2,9,7,12"
14929,commdev-image-keyboard-response,717,1488705,learnblock2,984.8999998569489,img/planet3_left.png,3,Community 2,NA,FALSE,j,f,NA,NA,NA,1,6,"5,13,11,6,14,4,3,15,8,1,10,2,9,7,12"
14929,commdev-image-keyboard-response,718,1489967,learnblock2,939.2999999523163,img/planet8_left.png,8,Community 2,NA,TRUE,f,f,NA,NA,NA,1,6,"5,13,11,6,14,4,3,15,8,1,10,2,9,7,12"
14929,commdev-image-keyboard-response,719,1491219,learnblock2,825.5,img/planet15_left.png,15,Community 2,NA,TRUE,f,f,NA,NA,NA,1,6,"5,13,11,6,14,4,3,15,8,1,10,2,9,7,12"
14929,commdev-image-keyboard-response,720,1492471,learnblock2,563.2000000476837,img/planet8_right.png,8,Community 2,NA,TRUE,j,j,NA,NA,NA,1,6,"5,13,11,6,14,4,3,15,8,1,10,2,9,7,12"
14929,commdev-image-keyboard-response,721,1493723,learnblock2,595.5,img/planet4_left.png,4,Community 2,NA,TRUE,f,f,NA,NA,NA,1,6,"5,13,11,6,14,4,3,15,8,1,10,2,9,7,12"
14929,commdev-image-keyboard-response,722,1494976,learnblock2,549.5999999046326,img/planet6_right.png,6,Community 1,NA,TRUE,j,j,NA,NA,NA,1,6,"5,13,11,6,14,4,3,15,8,1,10,2,9,7,12"
14929,commdev-image-keyboard-response,723,1496227,learnblock2,680.1000001430511,img/planet4_right.png,4,Community 2,NA,FALSE,f,j,NA,NA,NA,1,6,"5,13,11,6,14,4,3,15,8,1,10,2,9,7,12"
14929,commdev-image-keyboard-response,724,1497479,learnblock2,null,img/planet1_left.png,1,Community 2,NA,FALSE,null,f,NA,NA,NA,1,6,"5,13,11,6,14,4,3,15,8,1,10,2,9,7,12"
14929,commdev-image-keyboard-response,725,1498731,learnblock2,87.5,img/planet8_right.png,8,Community 2,NA,FALSE,f,j,NA,NA,NA,1,6,"5,13,11,6,14,4,3,15,8,1,10,2,9,7,12"
14929,commdev-image-keyboard-response,726,1499983,learnblock2,84.09999990463257,img/planet3_right.png,3,Community 2,NA,TRUE,j,j,NA,NA,NA,1,6,"5,13,11,6,14,4,3,15,8,1,10,2,9,7,12"
14929,commdev-image-keyboard-response,727,1501247,learnblock2,491,img/planet15_right.png,15,Community 2,NA,TRUE,j,j,NA,NA,NA,1,6,"5,13,11,6,14,4,3,15,8,1,10,2,9,7,12"
14929,commdev-image-keyboard-response,728,1502499,learnblock2,753.6000001430511,img/planet1_left.png,1,Community 2,NA,TRUE,f,f,NA,NA,NA,1,6,"5,13,11,6,14,4,3,15,8,1,10,2,9,7,12"
14929,commdev-image-keyboard-response,729,1503751,learnblock2,902.1000001430511,img/planet15_left.png,15,Community 2,NA,TRUE,f,f,NA,NA,NA,1,6,"5,13,11,6,14,4,3,15,8,1,10,2,9,7,12"
14929,commdev-image-keyboard-response,730,1505003,learnblock2,547.0999999046326,img/planet2_left.png,2,Community 3,NA,TRUE,f,f,NA,NA,NA,1,6,"5,13,11,6,14,4,3,15,8,1,10,2,9,7,12"
14929,commdev-image-keyboard-response,731,1506256,learnblock2,494.39999985694885,img/planet15_left.png,15,Community 2,NA,TRUE,f,f,NA,NA,NA,1,6,"5,13,11,6,14,4,3,15,8,1,10,2,9,7,12"
14929,commdev-image-keyboard-response,732,1507508,learnblock2,448.39999985694885,img/planet1_right.png,1,Community 2,NA,TRUE,j,j,NA,NA,NA,1,6,"5,13,11,6,14,4,3,15,8,1,10,2,9,7,12"
14929,commdev-image-keyboard-response,733,1508760,learnblock2,648.7000000476837,img/planet4_right.png,4,Community 2,NA,FALSE,f,j,NA,NA,NA,1,6,"5,13,11,6,14,4,3,15,8,1,10,2,9,7,12"
14929,commdev-image-keyboard-response,734,1510012,learnblock2,703.9000000953674,img/planet3_right.png,3,Community 2,NA,TRUE,j,j,NA,NA,NA,1,6,"5,13,11,6,14,4,3,15,8,1,10,2,9,7,12"
14929,commdev-image-keyboard-response,735,1511265,learnblock2,727.0999999046326,img/planet8_left.png,8,Community 2,NA,TRUE,f,f,NA,NA,NA,1,6,"5,13,11,6,14,4,3,15,8,1,10,2,9,7,12"
