subject_id,trial_type,trial_index,time_elapsed,block,rt,stimulus,planet,community,response,correct,key_press,learning_correct_response,parse,init_locations,final_locations,browser_interactions,num_comp,planet_map
14094,commdev-instructions,7,20923,NA,1181.0999999046326,"<p>In this game, you are a scientist on board a space shuttle. </p><p> On each mission, you will visit planets all across the universe.</p><img src=""img/controlroom.jpg"" width=300vw>",NA,NA,NA,NA,NA,NA,NA,NA,NA,NA,6,"12,2,7,14,15,4,8,6,9,10,11,13,1,5,3"
14094,commdev-instructions,8,23659,NA,662.9000000953674,"<p>Here are a few planets you might see:</p><img src=""img/practice1.png"" width=200vw><img src=""img/practice2.png"" width=200vw><img src=""img/practice3.png"" width=200vw>",NA,NA,NA,NA,NA,NA,NA,NA,NA,NA,6,"12,2,7,14,15,4,8,6,9,10,11,13,1,5,3"
14094,commdev-instructions,9,31490,NA,434.80000019073486,"<p>Your job as a scientist is to record which direction the winds are moving on each planet.</p><p>There are two types of wind directions:</p><img src=""img/practice1_left.png"" width=200vw><img src=""img/practice1_right.png"" width=200vw>",NA,NA,NA,NA,NA,NA,NA,NA,NA,NA,6,"12,2,7,14,15,4,8,6,9,10,11,13,1,5,3"
14094,commdev-instructions,10,38361,NA,1988.4000000953674,"<p>If the winds are moving this way, press the letter <strong>F</strong> on the keyboard as fast as you can.</p><img src=""img/leftwind.png"" width=250vw>",NA,NA,NA,NA,NA,NA,NA,NA,NA,NA,6,"12,2,7,14,15,4,8,6,9,10,11,13,1,5,3"
14094,commdev-instructions,11,43449,NA,591.5999999046326,"<p>If the winds are moving this way, press the letter <strong>J</strong> on the keyboard as fast as you can.</p><img src=""img/rightwind.png"" width=350vw>",NA,NA,NA,NA,NA,NA,NA,NA,NA,NA,6,"12,2,7,14,15,4,8,6,9,10,11,13,1,5,3"
14094,commdev-instructions,12,49177,NA,1306,<p>You will have 1 second to respond. Try to respond before the time runs out!,NA,NA,NA,NA,NA,NA,NA,NA,NA,NA,6,"12,2,7,14,15,4,8,6,9,10,11,13,1,5,3"
14094,commdev-instructions,13,55330,NA,721.5,<p>The planets you will visit will look different from each other.</p><p>You should respond <strong>only</strong> based on wind direction.,NA,NA,NA,NA,NA,NA,NA,NA,NA,NA,6,"12,2,7,14,15,4,8,6,9,10,11,13,1,5,3"
14094,commdev-instructions,14,61871,NA,1369.5999999046326,"<p> Ready to start the practice round? </p><p> Remember, press <strong>F</strong> or <strong>J</strong> depending on the wind direction.<br><img src=""img/categorize_planet_example.png""",NA,NA,NA,NA,NA,NA,NA,NA,NA,NA,6,"12,2,7,14,15,4,8,6,9,10,11,13,1,5,3"
14094,commdev-instructions,26,114343,NA,1308.0999999046326,"<p>Great, now try a short practice mission. </p><p> This time, you will have 1 second to respond and you won't know whether you pressed the right or wrong key for each planet.</p>",NA,NA,NA,NA,NA,NA,NA,NA,NA,NA,6,"12,2,7,14,15,4,8,6,9,10,11,13,1,5,3"
14094,commdev-image-keyboard-response,27,115701,practice,1041.9000000953674,img/practice2_right.png,NA,Number not found in mappings,NA,TRUE,j,j,NA,NA,NA,NA,6,"12,2,7,14,15,4,8,6,9,10,11,13,1,5,3"
14094,commdev-image-keyboard-response,28,116955,practice,768.2999997138977,img/practice4_left.png,NA,Number not found in mappings,NA,TRUE,f,f,NA,NA,NA,NA,6,"12,2,7,14,15,4,8,6,9,10,11,13,1,5,3"
14094,commdev-image-keyboard-response,29,118207,practice,668.5,img/practice1_right.png,NA,Number not found in mappings,NA,TRUE,j,j,NA,NA,NA,NA,6,"12,2,7,14,15,4,8,6,9,10,11,13,1,5,3"
14094,commdev-image-keyboard-response,30,119459,practice,863.4000000953674,img/practice2_right.png,NA,Number not found in mappings,NA,TRUE,j,j,NA,NA,NA,NA,6,"12,2,7,14,15,4,8,6,9,10,11,13,1,5,3"
14094,commdev-image-keyboard-response,31,120713,practice,621.0999999046326,img/practice1_left.png,NA,Number not found in mappings,NA,TRUE,f,f,NA,NA,NA,NA,6,"12,2,7,14,15,4,8,6,9,10,11,13,1,5,3"
14094,commdev-image-keyboard-response,32,121966,practice,783.2000002861023,img/practice3_right.png,NA,Number not found in mappings,NA,TRUE,j,j,NA,NA,NA,NA,6,"12,2,7,14,15,4,8,6,9,10,11,13,1,5,3"
14094,commdev-image-keyboard-response,33,123220,practice,600.4000000953674,img/practice1_right.png,NA,Number not found in mappings,NA,FALSE,f,j,NA,NA,NA,NA,6,"12,2,7,14,15,4,8,6,9,10,11,13,1,5,3"
14094,commdev-image-keyboard-response,34,124474,practice,null,img/practice2_right.png,NA,Number not found in mappings,NA,FALSE,null,j,NA,NA,NA,NA,6,"12,2,7,14,15,4,8,6,9,10,11,13,1,5,3"
14094,commdev-instructions,35,136865,NA,2838.699999809265,"<p>Great job with the practice round.</p><p>During real missions, you won't know whether you pressed the right or wrong key for each planet.</p><p>But between missions, we will tell you how you did overall.</p>",NA,NA,NA,NA,NA,NA,NA,NA,NA,NA,6,"12,2,7,14,15,4,8,6,9,10,11,13,1,5,3"
14094,commdev-instructions,36,146981,NA,1873.0999999046326,<p>Try your best! You will be paid a bonus based on how many correct responses you make!</p><p>Responses that are too slow will not count toward your bonus.</p>,NA,NA,NA,NA,NA,NA,NA,NA,NA,NA,6,"12,2,7,14,15,4,8,6,9,10,11,13,1,5,3"
14094,commdev-instructions,37,154089,NA,910.6999998092651,"<p>You are almost ready to start the real game.</p><p> First, we are going to ask you some questions about how the game works.</p>",NA,NA,NA,NA,NA,NA,NA,NA,NA,NA,6,"12,2,7,14,15,4,8,6,9,10,11,13,1,5,3"
14094,commdev-instructions,46,231754,NA,725,"<p> Nice work! It is now time to start the real game.<p></p>You will go on two missions to record wind directions of different planets.<p></p>Each one will take about 5 minutes. You will get to take a break between missions.<p><p> Remember, press <strong>F</strong> or <strong>J</strong> depending on the wind direction. Good luck!<br><img src=""img/categorize_planet_example.png""",NA,NA,NA,NA,NA,NA,NA,NA,NA,NA,6,"12,2,7,14,15,4,8,6,9,10,11,13,1,5,3"
14094,commdev-image-keyboard-response,48,235362,learnblock1,null,img/planet11_right.png,11,Community 3,NA,FALSE,null,j,NA,NA,NA,NA,6,"12,2,7,14,15,4,8,6,9,10,11,13,1,5,3"
14094,commdev-image-keyboard-response,49,236615,learnblock1,351.8999996185303,img/planet1_right.png,1,Community 3,NA,TRUE,j,j,NA,NA,NA,NA,6,"12,2,7,14,15,4,8,6,9,10,11,13,1,5,3"
14094,commdev-image-keyboard-response,50,237867,learnblock1,864.0999999046326,img/planet5_left.png,5,Community 3,NA,TRUE,f,f,NA,NA,NA,NA,6,"12,2,7,14,15,4,8,6,9,10,11,13,1,5,3"
14094,commdev-image-keyboard-response,51,239120,learnblock1,1070,img/planet11_left.png,11,Community 3,NA,TRUE,f,f,NA,NA,NA,NA,6,"12,2,7,14,15,4,8,6,9,10,11,13,1,5,3"
14094,commdev-image-keyboard-response,52,240373,learnblock1,984,img/planet1_left.png,1,Community 3,NA,TRUE,f,f,NA,NA,NA,NA,6,"12,2,7,14,15,4,8,6,9,10,11,13,1,5,3"
14094,commdev-image-keyboard-response,53,241625,learnblock1,741.9000000953674,img/planet3_right.png,3,Community 3,NA,TRUE,j,j,NA,NA,NA,NA,6,"12,2,7,14,15,4,8,6,9,10,11,13,1,5,3"
14094,commdev-image-keyboard-response,54,242878,learnblock1,719,img/planet5_right.png,5,Community 3,NA,TRUE,j,j,NA,NA,NA,NA,6,"12,2,7,14,15,4,8,6,9,10,11,13,1,5,3"
14094,commdev-image-keyboard-response,55,244131,learnblock1,671.6999998092651,img/planet3_right.png,3,Community 3,NA,TRUE,j,j,NA,NA,NA,NA,6,"12,2,7,14,15,4,8,6,9,10,11,13,1,5,3"
14094,commdev-image-keyboard-response,56,245384,learnblock1,932.6999998092651,img/planet11_right.png,11,Community 3,NA,TRUE,j,j,NA,NA,NA,NA,6,"12,2,7,14,15,4,8,6,9,10,11,13,1,5,3"
14094,commdev-image-keyboard-response,57,246637,learnblock1,1079.4000000953674,img/planet15_right.png,15,Community 1,NA,TRUE,j,j,NA,NA,NA,NA,6,"12,2,7,14,15,4,8,6,9,10,11,13,1,5,3"
14094,commdev-image-keyboard-response,58,247889,learnblock1,1069.5,img/planet7_left.png,7,Community 1,NA,TRUE,f,f,NA,NA,NA,NA,6,"12,2,7,14,15,4,8,6,9,10,11,13,1,5,3"
14094,commdev-image-keyboard-response,59,249142,learnblock1,772.9000000953674,img/planet15_right.png,15,Community 1,NA,TRUE,j,j,NA,NA,NA,NA,6,"12,2,7,14,15,4,8,6,9,10,11,13,1,5,3"
14094,commdev-image-keyboard-response,60,250395,learnblock1,949.4000000953674,img/planet12_right.png,12,Community 1,NA,TRUE,j,j,NA,NA,NA,NA,6,"12,2,7,14,15,4,8,6,9,10,11,13,1,5,3"
14094,commdev-image-keyboard-response,61,251647,learnblock1,838.3000001907349,img/planet15_left.png,15,Community 1,NA,TRUE,f,f,NA,NA,NA,NA,6,"12,2,7,14,15,4,8,6,9,10,11,13,1,5,3"
14094,commdev-image-keyboard-response,62,252900,learnblock1,859.6999998092651,img/planet2_right.png,2,Community 1,NA,TRUE,j,j,NA,NA,NA,NA,6,"12,2,7,14,15,4,8,6,9,10,11,13,1,5,3"
14094,commdev-image-keyboard-response,63,254152,learnblock1,1046.6999998092651,img/planet14_left.png,14,Community 1,NA,TRUE,f,f,NA,NA,NA,NA,6,"12,2,7,14,15,4,8,6,9,10,11,13,1,5,3"
14094,commdev-image-keyboard-response,64,255405,learnblock1,870.9000000953674,img/planet2_left.png,2,Community 1,NA,TRUE,f,f,NA,NA,NA,NA,6,"12,2,7,14,15,4,8,6,9,10,11,13,1,5,3"
14094,commdev-image-keyboard-response,65,256658,learnblock1,951.2999997138977,img/planet12_right.png,12,Community 1,NA,TRUE,j,j,NA,NA,NA,NA,6,"12,2,7,14,15,4,8,6,9,10,11,13,1,5,3"
14094,commdev-image-keyboard-response,66,257911,learnblock1,758.3000001907349,img/planet14_left.png,14,Community 1,NA,TRUE,f,f,NA,NA,NA,NA,6,"12,2,7,14,15,4,8,6,9,10,11,13,1,5,3"
14094,commdev-image-keyboard-response,67,259164,learnblock1,752.5999999046326,img/planet12_left.png,12,Community 1,NA,TRUE,f,f,NA,NA,NA,NA,6,"12,2,7,14,15,4,8,6,9,10,11,13,1,5,3"
14094,commdev-image-keyboard-response,68,260417,learnblock1,770.5,img/planet2_left.png,2,Community 1,NA,TRUE,f,f,NA,NA,NA,NA,6,"12,2,7,14,15,4,8,6,9,10,11,13,1,5,3"
14094,commdev-image-keyboard-response,69,261670,learnblock1,751.8999996185303,img/planet12_left.png,12,Community 1,NA,TRUE,f,f,NA,NA,NA,NA,6,"12,2,7,14,15,4,8,6,9,10,11,13,1,5,3"
14094,commdev-image-keyboard-response,70,262924,learnblock1,1105.3999996185303,img/planet7_right.png,7,Community 1,NA,TRUE,j,j,NA,NA,NA,NA,6,"12,2,7,14,15,4,8,6,9,10,11,13,1,5,3"
14094,commdev-image-keyboard-response,71,264176,learnblock1,982.0999999046326,img/planet12_left.png,12,Community 1,NA,TRUE,f,f,NA,NA,NA,NA,6,"12,2,7,14,15,4,8,6,9,10,11,13,1,5,3"
14094,commdev-image-keyboard-response,72,265430,learnblock1,1051,img/planet7_right.png,7,Community 1,NA,TRUE,j,j,NA,NA,NA,NA,6,"12,2,7,14,15,4,8,6,9,10,11,13,1,5,3"
14094,commdev-image-keyboard-response,73,266682,learnblock1,null,img/planet14_right.png,14,Community 1,NA,FALSE,null,j,NA,NA,NA,NA,6,"12,2,7,14,15,4,8,6,9,10,11,13,1,5,3"
14094,commdev-image-keyboard-response,74,267936,learnblock1,159.40000009536743,img/planet12_right.png,12,Community 1,NA,TRUE,j,j,NA,NA,NA,NA,6,"12,2,7,14,15,4,8,6,9,10,11,13,1,5,3"
14094,commdev-image-keyboard-response,75,269188,learnblock1,617.7000002861023,img/planet2_right.png,2,Community 1,NA,TRUE,j,j,NA,NA,NA,NA,6,"12,2,7,14,15,4,8,6,9,10,11,13,1,5,3"
14094,commdev-image-keyboard-response,76,270442,learnblock1,654,img/planet12_left.png,12,Community 1,NA,TRUE,f,f,NA,NA,NA,NA,6,"12,2,7,14,15,4,8,6,9,10,11,13,1,5,3"
14094,commdev-image-keyboard-response,77,271694,learnblock1,745.7000002861023,img/planet7_right.png,7,Community 1,NA,TRUE,j,j,NA,NA,NA,NA,6,"12,2,7,14,15,4,8,6,9,10,11,13,1,5,3"
14094,commdev-image-keyboard-response,78,272948,learnblock1,529.5999999046326,img/planet2_right.png,2,Community 1,NA,TRUE,j,j,NA,NA,NA,NA,6,"12,2,7,14,15,4,8,6,9,10,11,13,1,5,3"
14094,commdev-image-keyboard-response,79,274200,learnblock1,556.9000000953674,img/planet12_right.png,12,Community 1,NA,TRUE,j,j,NA,NA,NA,NA,6,"12,2,7,14,15,4,8,6,9,10,11,13,1,5,3"
14094,commdev-image-keyboard-response,80,275453,learnblock1,522.9000000953674,img/planet15_right.png,15,Community 1,NA,TRUE,j,j,NA,NA,NA,NA,6,"12,2,7,14,15,4,8,6,9,10,11,13,1,5,3"
14094,commdev-image-keyboard-response,81,276706,learnblock1,518.3000001907349,img/planet2_right.png,2,Community 1,NA,TRUE,j,j,NA,NA,NA,NA,6,"12,2,7,14,15,4,8,6,9,10,11,13,1,5,3"
14094,commdev-image-keyboard-response,82,277959,learnblock1,609.8000001907349,img/planet15_left.png,15,Community 1,NA,TRUE,f,f,NA,NA,NA,NA,6,"12,2,7,14,15,4,8,6,9,10,11,13,1,5,3"
14094,commdev-image-keyboard-response,83,279212,learnblock1,759.0999999046326,img/planet2_left.png,2,Community 1,NA,TRUE,f,f,NA,NA,NA,NA,6,"12,2,7,14,15,4,8,6,9,10,11,13,1,5,3"
14094,commdev-image-keyboard-response,84,280465,learnblock1,568,img/planet15_left.png,15,Community 1,NA,TRUE,f,f,NA,NA,NA,NA,6,"12,2,7,14,15,4,8,6,9,10,11,13,1,5,3"
14094,commdev-image-keyboard-response,85,281718,learnblock1,534.1000003814697,img/planet12_left.png,12,Community 1,NA,TRUE,f,f,NA,NA,NA,NA,6,"12,2,7,14,15,4,8,6,9,10,11,13,1,5,3"
14094,commdev-image-keyboard-response,86,282971,learnblock1,517.1999998092651,img/planet14_left.png,14,Community 1,NA,TRUE,f,f,NA,NA,NA,NA,6,"12,2,7,14,15,4,8,6,9,10,11,13,1,5,3"
14094,commdev-image-keyboard-response,87,284225,learnblock1,644.2000002861023,img/planet7_right.png,7,Community 1,NA,TRUE,j,j,NA,NA,NA,NA,6,"12,2,7,14,15,4,8,6,9,10,11,13,1,5,3"
14094,commdev-image-keyboard-response,88,285477,learnblock1,586.9000000953674,img/planet2_right.png,2,Community 1,NA,TRUE,j,j,NA,NA,NA,NA,6,"12,2,7,14,15,4,8,6,9,10,11,13,1,5,3"
14094,commdev-image-keyboard-response,89,286730,learnblock1,459.5,img/planet12_right.png,12,Community 1,NA,TRUE,j,j,NA,NA,NA,NA,6,"12,2,7,14,15,4,8,6,9,10,11,13,1,5,3"
14094,commdev-image-keyboard-response,90,287983,learnblock1,607.5,img/planet15_left.png,15,Community 1,NA,TRUE,f,f,NA,NA,NA,NA,6,"12,2,7,14,15,4,8,6,9,10,11,13,1,5,3"
14094,commdev-image-keyboard-response,91,289237,learnblock1,595.6999998092651,img/planet12_right.png,12,Community 1,NA,TRUE,j,j,NA,NA,NA,NA,6,"12,2,7,14,15,4,8,6,9,10,11,13,1,5,3"
14094,commdev-image-keyboard-response,92,290489,learnblock1,737.0999999046326,img/planet15_left.png,15,Community 1,NA,TRUE,f,f,NA,NA,NA,NA,6,"12,2,7,14,15,4,8,6,9,10,11,13,1,5,3"
14094,commdev-image-keyboard-response,93,291743,learnblock1,548.1000003814697,img/planet11_right.png,11,Community 3,NA,TRUE,j,j,NA,NA,NA,NA,6,"12,2,7,14,15,4,8,6,9,10,11,13,1,5,3"
14094,commdev-image-keyboard-response,94,292995,learnblock1,473.2999997138977,img/planet5_right.png,5,Community 3,NA,TRUE,j,j,NA,NA,NA,NA,6,"12,2,7,14,15,4,8,6,9,10,11,13,1,5,3"
14094,commdev-image-keyboard-response,95,294248,learnblock1,575.6999998092651,img/planet13_left.png,13,Community 3,NA,TRUE,f,f,NA,NA,NA,NA,6,"12,2,7,14,15,4,8,6,9,10,11,13,1,5,3"
14094,commdev-image-keyboard-response,96,295500,learnblock1,null,img/planet6_left.png,6,Community 2,NA,FALSE,null,f,NA,NA,NA,NA,6,"12,2,7,14,15,4,8,6,9,10,11,13,1,5,3"
14094,commdev-image-keyboard-response,97,296753,learnblock1,757.7999997138977,img/planet9_right.png,9,Community 2,NA,TRUE,j,j,NA,NA,NA,NA,6,"12,2,7,14,15,4,8,6,9,10,11,13,1,5,3"
14094,commdev-image-keyboard-response,98,298005,learnblock1,906.9000000953674,img/planet6_right.png,6,Community 2,NA,TRUE,j,j,NA,NA,NA,NA,6,"12,2,7,14,15,4,8,6,9,10,11,13,1,5,3"
14094,commdev-image-keyboard-response,99,299258,learnblock1,761.5,img/planet8_right.png,8,Community 2,NA,TRUE,j,j,NA,NA,NA,NA,6,"12,2,7,14,15,4,8,6,9,10,11,13,1,5,3"
14094,commdev-image-keyboard-response,100,300511,learnblock1,474.59999990463257,img/planet9_right.png,9,Community 2,NA,TRUE,j,j,NA,NA,NA,NA,6,"12,2,7,14,15,4,8,6,9,10,11,13,1,5,3"
14094,commdev-image-keyboard-response,101,301763,learnblock1,636,img/planet4_left.png,4,Community 2,NA,TRUE,f,f,NA,NA,NA,NA,6,"12,2,7,14,15,4,8,6,9,10,11,13,1,5,3"
14094,commdev-image-keyboard-response,102,303016,learnblock1,885.1999998092651,img/planet14_right.png,14,Community 1,NA,TRUE,j,j,NA,NA,NA,NA,6,"12,2,7,14,15,4,8,6,9,10,11,13,1,5,3"
14094,commdev-image-keyboard-response,103,304269,learnblock1,531.5,img/planet2_right.png,2,Community 1,NA,TRUE,j,j,NA,NA,NA,NA,6,"12,2,7,14,15,4,8,6,9,10,11,13,1,5,3"
14094,commdev-image-keyboard-response,104,305523,learnblock1,608,img/planet14_left.png,14,Community 1,NA,TRUE,f,f,NA,NA,NA,NA,6,"12,2,7,14,15,4,8,6,9,10,11,13,1,5,3"
14094,commdev-image-keyboard-response,105,306776,learnblock1,516.0999999046326,img/planet7_right.png,7,Community 1,NA,TRUE,j,j,NA,NA,NA,NA,6,"12,2,7,14,15,4,8,6,9,10,11,13,1,5,3"
14094,commdev-image-keyboard-response,106,308029,learnblock1,496.40000009536743,img/planet12_right.png,12,Community 1,NA,TRUE,j,j,NA,NA,NA,NA,6,"12,2,7,14,15,4,8,6,9,10,11,13,1,5,3"
14094,commdev-image-keyboard-response,107,309281,learnblock1,574.5999999046326,img/planet2_right.png,2,Community 1,NA,TRUE,j,j,NA,NA,NA,NA,6,"12,2,7,14,15,4,8,6,9,10,11,13,1,5,3"
14094,commdev-image-keyboard-response,108,310533,learnblock1,584,img/planet12_left.png,12,Community 1,NA,TRUE,f,f,NA,NA,NA,NA,6,"12,2,7,14,15,4,8,6,9,10,11,13,1,5,3"
14094,commdev-image-keyboard-response,109,311787,learnblock1,644.0999999046326,img/planet14_right.png,14,Community 1,NA,TRUE,j,j,NA,NA,NA,NA,6,"12,2,7,14,15,4,8,6,9,10,11,13,1,5,3"
14094,commdev-image-keyboard-response,110,313040,learnblock1,607.5,img/planet12_left.png,12,Community 1,NA,TRUE,f,f,NA,NA,NA,NA,6,"12,2,7,14,15,4,8,6,9,10,11,13,1,5,3"
14094,commdev-image-keyboard-response,111,314293,learnblock1,447.8999996185303,img/planet2_right.png,2,Community 1,NA,TRUE,j,j,NA,NA,NA,NA,6,"12,2,7,14,15,4,8,6,9,10,11,13,1,5,3"
14094,commdev-image-keyboard-response,112,315546,learnblock1,549.2999997138977,img/planet12_right.png,12,Community 1,NA,TRUE,j,j,NA,NA,NA,NA,6,"12,2,7,14,15,4,8,6,9,10,11,13,1,5,3"
14094,commdev-image-keyboard-response,113,316799,learnblock1,550.7999997138977,img/planet14_right.png,14,Community 1,NA,TRUE,j,j,NA,NA,NA,NA,6,"12,2,7,14,15,4,8,6,9,10,11,13,1,5,3"
14094,commdev-image-keyboard-response,114,318051,learnblock1,670.4000000953674,img/planet7_right.png,7,Community 1,NA,TRUE,j,j,NA,NA,NA,NA,6,"12,2,7,14,15,4,8,6,9,10,11,13,1,5,3"
14094,commdev-image-keyboard-response,115,319304,learnblock1,562.1999998092651,img/planet12_right.png,12,Community 1,NA,TRUE,j,j,NA,NA,NA,NA,6,"12,2,7,14,15,4,8,6,9,10,11,13,1,5,3"
14094,commdev-image-keyboard-response,116,320557,learnblock1,522,img/planet14_right.png,14,Community 1,NA,TRUE,j,j,NA,NA,NA,NA,6,"12,2,7,14,15,4,8,6,9,10,11,13,1,5,3"
14094,commdev-image-keyboard-response,117,321810,learnblock1,403.19999980926514,img/planet4_right.png,4,Community 2,NA,TRUE,j,j,NA,NA,NA,NA,6,"12,2,7,14,15,4,8,6,9,10,11,13,1,5,3"
14094,commdev-image-keyboard-response,118,323063,learnblock1,473.40000009536743,img/planet9_right.png,9,Community 2,NA,TRUE,j,j,NA,NA,NA,NA,6,"12,2,7,14,15,4,8,6,9,10,11,13,1,5,3"
14094,commdev-image-keyboard-response,119,324314,learnblock1,492.80000019073486,img/planet10_right.png,10,Community 2,NA,TRUE,j,j,NA,NA,NA,NA,6,"12,2,7,14,15,4,8,6,9,10,11,13,1,5,3"
14094,commdev-image-keyboard-response,120,325567,learnblock1,608.4000000953674,img/planet6_right.png,6,Community 2,NA,TRUE,j,j,NA,NA,NA,NA,6,"12,2,7,14,15,4,8,6,9,10,11,13,1,5,3"
14094,commdev-image-keyboard-response,121,326820,learnblock1,581.3999996185303,img/planet8_right.png,8,Community 2,NA,TRUE,j,j,NA,NA,NA,NA,6,"12,2,7,14,15,4,8,6,9,10,11,13,1,5,3"
14094,commdev-image-keyboard-response,122,328074,learnblock1,426.5,img/planet9_right.png,9,Community 2,NA,TRUE,j,j,NA,NA,NA,NA,6,"12,2,7,14,15,4,8,6,9,10,11,13,1,5,3"
14094,commdev-image-keyboard-response,123,329327,learnblock1,636.2999997138977,img/planet4_right.png,4,Community 2,NA,TRUE,j,j,NA,NA,NA,NA,6,"12,2,7,14,15,4,8,6,9,10,11,13,1,5,3"
14094,commdev-image-keyboard-response,124,330580,learnblock1,536.1999998092651,img/planet14_left.png,14,Community 1,NA,FALSE,j,f,NA,NA,NA,NA,6,"12,2,7,14,15,4,8,6,9,10,11,13,1,5,3"
14094,commdev-image-keyboard-response,125,331833,learnblock1,536.4000000953674,img/planet4_right.png,4,Community 2,NA,TRUE,j,j,NA,NA,NA,NA,6,"12,2,7,14,15,4,8,6,9,10,11,13,1,5,3"
14094,commdev-image-keyboard-response,126,333085,learnblock1,526.6999998092651,img/planet14_left.png,14,Community 1,NA,TRUE,f,f,NA,NA,NA,NA,6,"12,2,7,14,15,4,8,6,9,10,11,13,1,5,3"
14094,commdev-image-keyboard-response,127,334338,learnblock1,771.9000000953674,img/planet7_left.png,7,Community 1,NA,TRUE,f,f,NA,NA,NA,NA,6,"12,2,7,14,15,4,8,6,9,10,11,13,1,5,3"
14094,commdev-image-keyboard-response,128,335592,learnblock1,883,img/planet14_left.png,14,Community 1,NA,FALSE,j,f,NA,NA,NA,NA,6,"12,2,7,14,15,4,8,6,9,10,11,13,1,5,3"
14094,commdev-image-keyboard-response,129,336845,learnblock1,614.4000000953674,img/planet4_right.png,4,Community 2,NA,TRUE,j,j,NA,NA,NA,NA,6,"12,2,7,14,15,4,8,6,9,10,11,13,1,5,3"
14094,commdev-image-keyboard-response,130,338098,learnblock1,851.7999997138977,img/planet14_left.png,14,Community 1,NA,TRUE,f,f,NA,NA,NA,NA,6,"12,2,7,14,15,4,8,6,9,10,11,13,1,5,3"
14094,commdev-image-keyboard-response,131,339351,learnblock1,644.2999997138977,img/planet2_left.png,2,Community 1,NA,TRUE,f,f,NA,NA,NA,NA,6,"12,2,7,14,15,4,8,6,9,10,11,13,1,5,3"
14094,commdev-image-keyboard-response,132,340605,learnblock1,640.3000001907349,img/planet12_left.png,12,Community 1,NA,TRUE,f,f,NA,NA,NA,NA,6,"12,2,7,14,15,4,8,6,9,10,11,13,1,5,3"
14094,commdev-image-keyboard-response,133,341857,learnblock1,576.5999999046326,img/planet15_left.png,15,Community 1,NA,TRUE,f,f,NA,NA,NA,NA,6,"12,2,7,14,15,4,8,6,9,10,11,13,1,5,3"
14094,commdev-image-keyboard-response,134,343110,learnblock1,591.0999999046326,img/planet12_left.png,12,Community 1,NA,TRUE,f,f,NA,NA,NA,NA,6,"12,2,7,14,15,4,8,6,9,10,11,13,1,5,3"
14094,commdev-image-keyboard-response,135,344363,learnblock1,636.5,img/planet7_right.png,7,Community 1,NA,TRUE,j,j,NA,NA,NA,NA,6,"12,2,7,14,15,4,8,6,9,10,11,13,1,5,3"
14094,commdev-image-keyboard-response,136,345616,learnblock1,628.6000003814697,img/planet15_right.png,15,Community 1,NA,TRUE,j,j,NA,NA,NA,NA,6,"12,2,7,14,15,4,8,6,9,10,11,13,1,5,3"
14094,commdev-image-keyboard-response,137,346870,learnblock1,731,img/planet12_right.png,12,Community 1,NA,TRUE,j,j,NA,NA,NA,NA,6,"12,2,7,14,15,4,8,6,9,10,11,13,1,5,3"
14094,commdev-image-keyboard-response,138,348123,learnblock1,574.4000000953674,img/planet2_right.png,2,Community 1,NA,TRUE,j,j,NA,NA,NA,NA,6,"12,2,7,14,15,4,8,6,9,10,11,13,1,5,3"
14094,commdev-image-keyboard-response,139,349377,learnblock1,632.5,img/planet12_left.png,12,Community 1,NA,TRUE,f,f,NA,NA,NA,NA,6,"12,2,7,14,15,4,8,6,9,10,11,13,1,5,3"
14094,commdev-image-keyboard-response,140,350630,learnblock1,685.5999999046326,img/planet2_left.png,2,Community 1,NA,TRUE,f,f,NA,NA,NA,NA,6,"12,2,7,14,15,4,8,6,9,10,11,13,1,5,3"
14094,commdev-image-keyboard-response,141,351884,learnblock1,834.2000002861023,img/planet7_left.png,7,Community 1,NA,TRUE,f,f,NA,NA,NA,NA,6,"12,2,7,14,15,4,8,6,9,10,11,13,1,5,3"
14094,commdev-image-keyboard-response,142,353138,learnblock1,647.5999999046326,img/planet15_right.png,15,Community 1,NA,TRUE,j,j,NA,NA,NA,NA,6,"12,2,7,14,15,4,8,6,9,10,11,13,1,5,3"
14094,commdev-image-keyboard-response,143,354391,learnblock1,608.5999999046326,img/planet11_right.png,11,Community 3,NA,TRUE,j,j,NA,NA,NA,NA,6,"12,2,7,14,15,4,8,6,9,10,11,13,1,5,3"
14094,commdev-image-keyboard-response,144,355644,learnblock1,659.2999997138977,img/planet5_left.png,5,Community 3,NA,TRUE,f,f,NA,NA,NA,NA,6,"12,2,7,14,15,4,8,6,9,10,11,13,1,5,3"
14094,commdev-image-keyboard-response,145,356897,learnblock1,646.9000000953674,img/planet11_right.png,11,Community 3,NA,TRUE,j,j,NA,NA,NA,NA,6,"12,2,7,14,15,4,8,6,9,10,11,13,1,5,3"
14094,commdev-image-keyboard-response,146,358150,learnblock1,551,img/planet5_left.png,5,Community 3,NA,TRUE,f,f,NA,NA,NA,NA,6,"12,2,7,14,15,4,8,6,9,10,11,13,1,5,3"
14094,commdev-image-keyboard-response,147,359403,learnblock1,597.5999999046326,img/planet13_right.png,13,Community 3,NA,TRUE,j,j,NA,NA,NA,NA,6,"12,2,7,14,15,4,8,6,9,10,11,13,1,5,3"
14094,commdev-image-keyboard-response,148,360655,learnblock1,473.19999980926514,img/planet5_right.png,5,Community 3,NA,TRUE,j,j,NA,NA,NA,NA,6,"12,2,7,14,15,4,8,6,9,10,11,13,1,5,3"
14094,commdev-image-keyboard-response,149,361907,learnblock1,753.0999999046326,img/planet3_left.png,3,Community 3,NA,TRUE,f,f,NA,NA,NA,NA,6,"12,2,7,14,15,4,8,6,9,10,11,13,1,5,3"
14094,commdev-image-keyboard-response,150,363160,learnblock1,566.5,img/planet11_right.png,11,Community 3,NA,TRUE,j,j,NA,NA,NA,NA,6,"12,2,7,14,15,4,8,6,9,10,11,13,1,5,3"
14094,commdev-image-keyboard-response,151,364413,learnblock1,655.7999997138977,img/planet15_right.png,15,Community 1,NA,FALSE,f,j,NA,NA,NA,NA,6,"12,2,7,14,15,4,8,6,9,10,11,13,1,5,3"
14094,commdev-image-keyboard-response,152,365667,learnblock1,708.6000003814697,img/planet11_right.png,11,Community 3,NA,TRUE,j,j,NA,NA,NA,NA,6,"12,2,7,14,15,4,8,6,9,10,11,13,1,5,3"
14094,commdev-image-keyboard-response,153,366921,learnblock1,710.5,img/planet3_left.png,3,Community 3,NA,TRUE,f,f,NA,NA,NA,NA,6,"12,2,7,14,15,4,8,6,9,10,11,13,1,5,3"
14094,commdev-image-keyboard-response,154,368174,learnblock1,619.9000000953674,img/planet13_right.png,13,Community 3,NA,TRUE,j,j,NA,NA,NA,NA,6,"12,2,7,14,15,4,8,6,9,10,11,13,1,5,3"
14094,commdev-image-keyboard-response,155,369427,learnblock1,834.1999998092651,img/planet6_left.png,6,Community 2,NA,TRUE,f,f,NA,NA,NA,NA,6,"12,2,7,14,15,4,8,6,9,10,11,13,1,5,3"
14094,commdev-image-keyboard-response,156,370680,learnblock1,591.6999998092651,img/planet8_right.png,8,Community 2,NA,TRUE,j,j,NA,NA,NA,NA,6,"12,2,7,14,15,4,8,6,9,10,11,13,1,5,3"
14094,commdev-image-keyboard-response,157,371932,learnblock1,575,img/planet4_left.png,4,Community 2,NA,FALSE,j,f,NA,NA,NA,NA,6,"12,2,7,14,15,4,8,6,9,10,11,13,1,5,3"
14094,commdev-image-keyboard-response,158,373184,learnblock1,858.7000002861023,img/planet8_left.png,8,Community 2,NA,TRUE,f,f,NA,NA,NA,NA,6,"12,2,7,14,15,4,8,6,9,10,11,13,1,5,3"
14094,commdev-image-keyboard-response,159,374439,learnblock1,619.5999999046326,img/planet6_right.png,6,Community 2,NA,TRUE,j,j,NA,NA,NA,NA,6,"12,2,7,14,15,4,8,6,9,10,11,13,1,5,3"
14094,commdev-image-keyboard-response,160,375692,learnblock1,618.0999999046326,img/planet9_left.png,9,Community 2,NA,TRUE,f,f,NA,NA,NA,NA,6,"12,2,7,14,15,4,8,6,9,10,11,13,1,5,3"
14094,commdev-image-keyboard-response,161,376945,learnblock1,720.1000003814697,img/planet4_left.png,4,Community 2,NA,TRUE,f,f,NA,NA,NA,NA,6,"12,2,7,14,15,4,8,6,9,10,11,13,1,5,3"
14094,commdev-image-keyboard-response,162,378198,learnblock1,606.9000000953674,img/planet14_left.png,14,Community 1,NA,TRUE,f,f,NA,NA,NA,NA,6,"12,2,7,14,15,4,8,6,9,10,11,13,1,5,3"
14094,commdev-image-keyboard-response,163,379451,learnblock1,517.8000001907349,img/planet2_left.png,2,Community 1,NA,TRUE,f,f,NA,NA,NA,NA,6,"12,2,7,14,15,4,8,6,9,10,11,13,1,5,3"
14094,commdev-image-keyboard-response,164,380704,learnblock1,585.9000000953674,img/planet14_left.png,14,Community 1,NA,TRUE,f,f,NA,NA,NA,NA,6,"12,2,7,14,15,4,8,6,9,10,11,13,1,5,3"
14094,commdev-image-keyboard-response,165,381957,learnblock1,633.1999998092651,img/planet7_right.png,7,Community 1,NA,TRUE,j,j,NA,NA,NA,NA,6,"12,2,7,14,15,4,8,6,9,10,11,13,1,5,3"
14094,commdev-image-keyboard-response,166,383210,learnblock1,594.1999998092651,img/planet12_right.png,12,Community 1,NA,TRUE,j,j,NA,NA,NA,NA,6,"12,2,7,14,15,4,8,6,9,10,11,13,1,5,3"
14094,commdev-image-keyboard-response,167,384463,learnblock1,674.5,img/planet14_left.png,14,Community 1,NA,TRUE,f,f,NA,NA,NA,NA,6,"12,2,7,14,15,4,8,6,9,10,11,13,1,5,3"
14094,commdev-image-keyboard-response,168,385716,learnblock1,558.5,img/planet7_right.png,7,Community 1,NA,TRUE,j,j,NA,NA,NA,NA,6,"12,2,7,14,15,4,8,6,9,10,11,13,1,5,3"
14094,commdev-image-keyboard-response,169,386969,learnblock1,709.4000000953674,img/planet15_left.png,15,Community 1,NA,TRUE,f,f,NA,NA,NA,NA,6,"12,2,7,14,15,4,8,6,9,10,11,13,1,5,3"
14094,commdev-image-keyboard-response,170,388222,learnblock1,783,img/planet12_left.png,12,Community 1,NA,TRUE,f,f,NA,NA,NA,NA,6,"12,2,7,14,15,4,8,6,9,10,11,13,1,5,3"
14094,commdev-image-keyboard-response,171,389475,learnblock1,606.1999998092651,img/planet14_right.png,14,Community 1,NA,TRUE,j,j,NA,NA,NA,NA,6,"12,2,7,14,15,4,8,6,9,10,11,13,1,5,3"
14094,commdev-image-keyboard-response,172,390727,learnblock1,598.2999997138977,img/planet2_right.png,2,Community 1,NA,TRUE,j,j,NA,NA,NA,NA,6,"12,2,7,14,15,4,8,6,9,10,11,13,1,5,3"
14094,commdev-image-keyboard-response,173,391980,learnblock1,597.5,img/planet14_right.png,14,Community 1,NA,TRUE,j,j,NA,NA,NA,NA,6,"12,2,7,14,15,4,8,6,9,10,11,13,1,5,3"
14094,commdev-image-keyboard-response,174,393233,learnblock1,548.3000001907349,img/planet4_left.png,4,Community 2,NA,TRUE,f,f,NA,NA,NA,NA,6,"12,2,7,14,15,4,8,6,9,10,11,13,1,5,3"
14094,commdev-image-keyboard-response,175,394485,learnblock1,709.8000001907349,img/planet8_left.png,8,Community 2,NA,TRUE,f,f,NA,NA,NA,NA,6,"12,2,7,14,15,4,8,6,9,10,11,13,1,5,3"
14094,commdev-image-keyboard-response,176,395739,learnblock1,581.5,img/planet6_right.png,6,Community 2,NA,TRUE,j,j,NA,NA,NA,NA,6,"12,2,7,14,15,4,8,6,9,10,11,13,1,5,3"
14094,commdev-image-keyboard-response,177,396992,learnblock1,653.5999999046326,img/planet10_left.png,10,Community 2,NA,TRUE,f,f,NA,NA,NA,NA,6,"12,2,7,14,15,4,8,6,9,10,11,13,1,5,3"
14094,commdev-image-keyboard-response,178,398244,learnblock1,764.4000000953674,img/planet4_left.png,4,Community 2,NA,TRUE,f,f,NA,NA,NA,NA,6,"12,2,7,14,15,4,8,6,9,10,11,13,1,5,3"
14094,commdev-image-keyboard-response,179,399497,learnblock1,699.4000000953674,img/planet9_left.png,9,Community 2,NA,TRUE,f,f,NA,NA,NA,NA,6,"12,2,7,14,15,4,8,6,9,10,11,13,1,5,3"
14094,commdev-image-keyboard-response,180,400750,learnblock1,692,img/planet6_left.png,6,Community 2,NA,TRUE,f,f,NA,NA,NA,NA,6,"12,2,7,14,15,4,8,6,9,10,11,13,1,5,3"
14094,commdev-image-keyboard-response,181,402003,learnblock1,567.8000001907349,img/planet8_left.png,8,Community 2,NA,TRUE,f,f,NA,NA,NA,NA,6,"12,2,7,14,15,4,8,6,9,10,11,13,1,5,3"
14094,commdev-image-keyboard-response,182,403254,learnblock1,528,img/planet10_left.png,10,Community 2,NA,TRUE,f,f,NA,NA,NA,NA,6,"12,2,7,14,15,4,8,6,9,10,11,13,1,5,3"
14094,commdev-image-keyboard-response,183,404506,learnblock1,438.19999980926514,img/planet9_right.png,9,Community 2,NA,TRUE,j,j,NA,NA,NA,NA,6,"12,2,7,14,15,4,8,6,9,10,11,13,1,5,3"
14094,commdev-image-keyboard-response,184,405760,learnblock1,701.5,img/planet8_left.png,8,Community 2,NA,TRUE,f,f,NA,NA,NA,NA,6,"12,2,7,14,15,4,8,6,9,10,11,13,1,5,3"
14094,commdev-image-keyboard-response,185,407013,learnblock1,604.6000003814697,img/planet9_left.png,9,Community 2,NA,TRUE,f,f,NA,NA,NA,NA,6,"12,2,7,14,15,4,8,6,9,10,11,13,1,5,3"
14094,commdev-image-keyboard-response,186,408266,learnblock1,614.5,img/planet6_right.png,6,Community 2,NA,TRUE,j,j,NA,NA,NA,NA,6,"12,2,7,14,15,4,8,6,9,10,11,13,1,5,3"
14094,commdev-image-keyboard-response,187,409519,learnblock1,676,img/planet8_left.png,8,Community 2,NA,TRUE,f,f,NA,NA,NA,NA,6,"12,2,7,14,15,4,8,6,9,10,11,13,1,5,3"
14094,commdev-image-keyboard-response,188,410772,learnblock1,618.4000000953674,img/planet10_left.png,10,Community 2,NA,TRUE,f,f,NA,NA,NA,NA,6,"12,2,7,14,15,4,8,6,9,10,11,13,1,5,3"
14094,commdev-image-keyboard-response,189,412025,learnblock1,533.3000001907349,img/planet4_left.png,4,Community 2,NA,TRUE,f,f,NA,NA,NA,NA,6,"12,2,7,14,15,4,8,6,9,10,11,13,1,5,3"
14094,commdev-image-keyboard-response,190,413278,learnblock1,623.9000000953674,img/planet14_right.png,14,Community 1,NA,TRUE,j,j,NA,NA,NA,NA,6,"12,2,7,14,15,4,8,6,9,10,11,13,1,5,3"
14094,commdev-image-keyboard-response,191,414531,learnblock1,776.6999998092651,img/planet12_left.png,12,Community 1,NA,TRUE,f,f,NA,NA,NA,NA,6,"12,2,7,14,15,4,8,6,9,10,11,13,1,5,3"
14094,commdev-image-keyboard-response,192,415784,learnblock1,553.3999996185303,img/planet14_left.png,14,Community 1,NA,TRUE,f,f,NA,NA,NA,NA,6,"12,2,7,14,15,4,8,6,9,10,11,13,1,5,3"
14094,commdev-image-keyboard-response,193,417037,learnblock1,620.5,img/planet4_right.png,4,Community 2,NA,TRUE,j,j,NA,NA,NA,NA,6,"12,2,7,14,15,4,8,6,9,10,11,13,1,5,3"
14094,commdev-image-keyboard-response,194,418290,learnblock1,717.9000000953674,img/planet10_right.png,10,Community 2,NA,TRUE,j,j,NA,NA,NA,NA,6,"12,2,7,14,15,4,8,6,9,10,11,13,1,5,3"
14094,commdev-image-keyboard-response,195,419543,learnblock1,647.1999998092651,img/planet8_left.png,8,Community 2,NA,TRUE,f,f,NA,NA,NA,NA,6,"12,2,7,14,15,4,8,6,9,10,11,13,1,5,3"
14094,commdev-image-keyboard-response,196,420796,learnblock1,690.4000000953674,img/planet6_left.png,6,Community 2,NA,TRUE,f,f,NA,NA,NA,NA,6,"12,2,7,14,15,4,8,6,9,10,11,13,1,5,3"
14094,commdev-image-keyboard-response,197,422049,learnblock1,575.4000000953674,img/planet10_right.png,10,Community 2,NA,TRUE,j,j,NA,NA,NA,NA,6,"12,2,7,14,15,4,8,6,9,10,11,13,1,5,3"
14094,commdev-image-keyboard-response,198,423302,learnblock1,637.1999998092651,img/planet9_right.png,9,Community 2,NA,TRUE,j,j,NA,NA,NA,NA,6,"12,2,7,14,15,4,8,6,9,10,11,13,1,5,3"
14094,commdev-image-keyboard-response,199,424556,learnblock1,589.4000000953674,img/planet10_left.png,10,Community 2,NA,TRUE,f,f,NA,NA,NA,NA,6,"12,2,7,14,15,4,8,6,9,10,11,13,1,5,3"
14094,commdev-image-keyboard-response,200,425809,learnblock1,572.7999997138977,img/planet8_right.png,8,Community 2,NA,TRUE,j,j,NA,NA,NA,NA,6,"12,2,7,14,15,4,8,6,9,10,11,13,1,5,3"
14094,commdev-image-keyboard-response,201,427062,learnblock1,724.3999996185303,img/planet4_right.png,4,Community 2,NA,TRUE,j,j,NA,NA,NA,NA,6,"12,2,7,14,15,4,8,6,9,10,11,13,1,5,3"
14094,commdev-image-keyboard-response,202,428315,learnblock1,618.4000000953674,img/planet14_left.png,14,Community 1,NA,TRUE,f,f,NA,NA,NA,NA,6,"12,2,7,14,15,4,8,6,9,10,11,13,1,5,3"
14094,commdev-image-keyboard-response,203,429568,learnblock1,542.0999999046326,img/planet7_right.png,7,Community 1,NA,TRUE,j,j,NA,NA,NA,NA,6,"12,2,7,14,15,4,8,6,9,10,11,13,1,5,3"
14094,commdev-image-keyboard-response,204,430820,learnblock1,550,img/planet2_left.png,2,Community 1,NA,TRUE,f,f,NA,NA,NA,NA,6,"12,2,7,14,15,4,8,6,9,10,11,13,1,5,3"
14094,commdev-image-keyboard-response,205,432073,learnblock1,826.6999998092651,img/planet15_left.png,15,Community 1,NA,FALSE,j,f,NA,NA,NA,NA,6,"12,2,7,14,15,4,8,6,9,10,11,13,1,5,3"
14094,commdev-image-keyboard-response,206,433325,learnblock1,597.1999998092651,img/planet2_right.png,2,Community 1,NA,TRUE,j,j,NA,NA,NA,NA,6,"12,2,7,14,15,4,8,6,9,10,11,13,1,5,3"
14094,commdev-image-keyboard-response,207,434578,learnblock1,699.7999997138977,img/planet12_left.png,12,Community 1,NA,TRUE,f,f,NA,NA,NA,NA,6,"12,2,7,14,15,4,8,6,9,10,11,13,1,5,3"
14094,commdev-image-keyboard-response,208,435832,learnblock1,628.0999999046326,img/planet2_left.png,2,Community 1,NA,TRUE,f,f,NA,NA,NA,NA,6,"12,2,7,14,15,4,8,6,9,10,11,13,1,5,3"
14094,commdev-image-keyboard-response,209,437085,learnblock1,600.2000002861023,img/planet12_left.png,12,Community 1,NA,TRUE,f,f,NA,NA,NA,NA,6,"12,2,7,14,15,4,8,6,9,10,11,13,1,5,3"
14094,commdev-image-keyboard-response,210,438338,learnblock1,536.0999999046326,img/planet15_left.png,15,Community 1,NA,TRUE,f,f,NA,NA,NA,NA,6,"12,2,7,14,15,4,8,6,9,10,11,13,1,5,3"
14094,commdev-image-keyboard-response,211,439591,learnblock1,499.5,img/planet2_left.png,2,Community 1,NA,TRUE,f,f,NA,NA,NA,NA,6,"12,2,7,14,15,4,8,6,9,10,11,13,1,5,3"
14094,commdev-image-keyboard-response,212,440843,learnblock1,577.2999997138977,img/planet12_left.png,12,Community 1,NA,TRUE,f,f,NA,NA,NA,NA,6,"12,2,7,14,15,4,8,6,9,10,11,13,1,5,3"
14094,commdev-image-keyboard-response,213,442097,learnblock1,623,img/planet2_right.png,2,Community 1,NA,TRUE,j,j,NA,NA,NA,NA,6,"12,2,7,14,15,4,8,6,9,10,11,13,1,5,3"
14094,commdev-image-keyboard-response,214,443350,learnblock1,588.9000000953674,img/planet15_left.png,15,Community 1,NA,TRUE,f,f,NA,NA,NA,NA,6,"12,2,7,14,15,4,8,6,9,10,11,13,1,5,3"
14094,commdev-image-keyboard-response,215,444602,learnblock1,700.9000000953674,img/planet11_left.png,11,Community 3,NA,TRUE,f,f,NA,NA,NA,NA,6,"12,2,7,14,15,4,8,6,9,10,11,13,1,5,3"
14094,commdev-image-keyboard-response,216,445855,learnblock1,526,img/planet5_left.png,5,Community 3,NA,TRUE,f,f,NA,NA,NA,NA,6,"12,2,7,14,15,4,8,6,9,10,11,13,1,5,3"
14094,commdev-image-keyboard-response,217,447108,learnblock1,647.0999999046326,img/planet11_right.png,11,Community 3,NA,TRUE,j,j,NA,NA,NA,NA,6,"12,2,7,14,15,4,8,6,9,10,11,13,1,5,3"
14094,commdev-image-keyboard-response,218,448361,learnblock1,729.8000001907349,img/planet3_left.png,3,Community 3,NA,TRUE,f,f,NA,NA,NA,NA,6,"12,2,7,14,15,4,8,6,9,10,11,13,1,5,3"
14094,commdev-image-keyboard-response,219,449613,learnblock1,561.5,img/planet13_right.png,13,Community 3,NA,TRUE,j,j,NA,NA,NA,NA,6,"12,2,7,14,15,4,8,6,9,10,11,13,1,5,3"
14094,commdev-image-keyboard-response,220,450867,learnblock1,617.2999997138977,img/planet6_left.png,6,Community 2,NA,TRUE,f,f,NA,NA,NA,NA,6,"12,2,7,14,15,4,8,6,9,10,11,13,1,5,3"
14094,commdev-image-keyboard-response,221,452120,learnblock1,505.69999980926514,img/planet10_right.png,10,Community 2,NA,TRUE,j,j,NA,NA,NA,NA,6,"12,2,7,14,15,4,8,6,9,10,11,13,1,5,3"
14094,commdev-image-keyboard-response,222,453373,learnblock1,562.0999999046326,img/planet6_left.png,6,Community 2,NA,TRUE,f,f,NA,NA,NA,NA,6,"12,2,7,14,15,4,8,6,9,10,11,13,1,5,3"
14094,commdev-image-keyboard-response,223,454626,learnblock1,520.5,img/planet13_right.png,13,Community 3,NA,TRUE,j,j,NA,NA,NA,NA,6,"12,2,7,14,15,4,8,6,9,10,11,13,1,5,3"
14094,commdev-image-keyboard-response,224,455878,learnblock1,640,img/planet5_right.png,5,Community 3,NA,TRUE,j,j,NA,NA,NA,NA,6,"12,2,7,14,15,4,8,6,9,10,11,13,1,5,3"
14094,commdev-image-keyboard-response,225,457131,learnblock1,563.1000003814697,img/planet13_right.png,13,Community 3,NA,TRUE,j,j,NA,NA,NA,NA,6,"12,2,7,14,15,4,8,6,9,10,11,13,1,5,3"
14094,commdev-image-keyboard-response,226,458384,learnblock1,573.8999996185303,img/planet5_right.png,5,Community 3,NA,TRUE,j,j,NA,NA,NA,NA,6,"12,2,7,14,15,4,8,6,9,10,11,13,1,5,3"
14094,commdev-image-keyboard-response,227,459638,learnblock1,540.8999996185303,img/planet11_right.png,11,Community 3,NA,TRUE,j,j,NA,NA,NA,NA,6,"12,2,7,14,15,4,8,6,9,10,11,13,1,5,3"
14094,commdev-image-keyboard-response,228,460890,learnblock1,596.5999999046326,img/planet5_left.png,5,Community 3,NA,FALSE,j,f,NA,NA,NA,NA,6,"12,2,7,14,15,4,8,6,9,10,11,13,1,5,3"
14094,commdev-image-keyboard-response,229,462143,learnblock1,588,img/planet11_right.png,11,Community 3,NA,TRUE,j,j,NA,NA,NA,NA,6,"12,2,7,14,15,4,8,6,9,10,11,13,1,5,3"
14094,commdev-image-keyboard-response,230,463396,learnblock1,647.2000002861023,img/planet15_left.png,15,Community 1,NA,TRUE,f,f,NA,NA,NA,NA,6,"12,2,7,14,15,4,8,6,9,10,11,13,1,5,3"
14094,commdev-image-keyboard-response,231,464649,learnblock1,672.5999999046326,img/planet7_left.png,7,Community 1,NA,TRUE,f,f,NA,NA,NA,NA,6,"12,2,7,14,15,4,8,6,9,10,11,13,1,5,3"
14094,commdev-image-keyboard-response,232,465902,learnblock1,602.9000000953674,img/planet2_left.png,2,Community 1,NA,TRUE,f,f,NA,NA,NA,NA,6,"12,2,7,14,15,4,8,6,9,10,11,13,1,5,3"
14094,commdev-image-keyboard-response,233,467154,learnblock1,702.1999998092651,img/planet12_left.png,12,Community 1,NA,TRUE,f,f,NA,NA,NA,NA,6,"12,2,7,14,15,4,8,6,9,10,11,13,1,5,3"
14094,commdev-image-keyboard-response,234,468407,learnblock1,541.9000000953674,img/planet2_right.png,2,Community 1,NA,TRUE,j,j,NA,NA,NA,NA,6,"12,2,7,14,15,4,8,6,9,10,11,13,1,5,3"
14094,commdev-image-keyboard-response,235,469661,learnblock1,575.5,img/planet14_left.png,14,Community 1,NA,TRUE,f,f,NA,NA,NA,NA,6,"12,2,7,14,15,4,8,6,9,10,11,13,1,5,3"
14094,commdev-image-keyboard-response,236,470914,learnblock1,559,img/planet7_right.png,7,Community 1,NA,TRUE,j,j,NA,NA,NA,NA,6,"12,2,7,14,15,4,8,6,9,10,11,13,1,5,3"
14094,commdev-image-keyboard-response,237,472167,learnblock1,600,img/planet15_right.png,15,Community 1,NA,TRUE,j,j,NA,NA,NA,NA,6,"12,2,7,14,15,4,8,6,9,10,11,13,1,5,3"
14094,commdev-image-keyboard-response,238,473421,learnblock1,513.3000001907349,img/planet2_right.png,2,Community 1,NA,TRUE,j,j,NA,NA,NA,NA,6,"12,2,7,14,15,4,8,6,9,10,11,13,1,5,3"
14094,commdev-image-keyboard-response,239,474675,learnblock1,594.9000000953674,img/planet15_right.png,15,Community 1,NA,TRUE,j,j,NA,NA,NA,NA,6,"12,2,7,14,15,4,8,6,9,10,11,13,1,5,3"
14094,commdev-image-keyboard-response,240,475928,learnblock1,620,img/planet12_left.png,12,Community 1,NA,TRUE,f,f,NA,NA,NA,NA,6,"12,2,7,14,15,4,8,6,9,10,11,13,1,5,3"
14094,commdev-image-keyboard-response,241,477180,learnblock1,541.9000000953674,img/planet2_right.png,2,Community 1,NA,TRUE,j,j,NA,NA,NA,NA,6,"12,2,7,14,15,4,8,6,9,10,11,13,1,5,3"
14094,commdev-image-keyboard-response,242,478433,learnblock1,718.0999999046326,img/planet14_right.png,14,Community 1,NA,TRUE,j,j,NA,NA,NA,NA,6,"12,2,7,14,15,4,8,6,9,10,11,13,1,5,3"
14094,commdev-image-keyboard-response,243,479686,learnblock1,544.5,img/planet12_left.png,12,Community 1,NA,TRUE,f,f,NA,NA,NA,NA,6,"12,2,7,14,15,4,8,6,9,10,11,13,1,5,3"
14094,commdev-image-keyboard-response,244,480939,learnblock1,688.3000001907349,img/planet14_right.png,14,Community 1,NA,TRUE,j,j,NA,NA,NA,NA,6,"12,2,7,14,15,4,8,6,9,10,11,13,1,5,3"
14094,commdev-image-keyboard-response,245,482191,learnblock1,689.6999998092651,img/planet4_left.png,4,Community 2,NA,TRUE,f,f,NA,NA,NA,NA,6,"12,2,7,14,15,4,8,6,9,10,11,13,1,5,3"
14094,commdev-image-keyboard-response,246,483444,learnblock1,529.9000000953674,img/planet8_right.png,8,Community 2,NA,TRUE,j,j,NA,NA,NA,NA,6,"12,2,7,14,15,4,8,6,9,10,11,13,1,5,3"
14094,commdev-image-keyboard-response,247,484697,learnblock1,583.8000001907349,img/planet10_right.png,10,Community 2,NA,TRUE,j,j,NA,NA,NA,NA,6,"12,2,7,14,15,4,8,6,9,10,11,13,1,5,3"
14094,commdev-image-keyboard-response,248,485949,learnblock1,1207.1999998092651,img/planet4_right.png,4,Community 2,NA,TRUE,j,j,NA,NA,NA,NA,6,"12,2,7,14,15,4,8,6,9,10,11,13,1,5,3"
14094,commdev-image-keyboard-response,249,487201,learnblock1,780.7999997138977,img/planet10_right.png,10,Community 2,NA,TRUE,j,j,NA,NA,NA,NA,6,"12,2,7,14,15,4,8,6,9,10,11,13,1,5,3"
14094,commdev-image-keyboard-response,250,488454,learnblock1,716.0999999046326,img/planet4_right.png,4,Community 2,NA,TRUE,j,j,NA,NA,NA,NA,6,"12,2,7,14,15,4,8,6,9,10,11,13,1,5,3"
14094,commdev-image-keyboard-response,251,489707,learnblock1,594.5999999046326,img/planet10_left.png,10,Community 2,NA,TRUE,f,f,NA,NA,NA,NA,6,"12,2,7,14,15,4,8,6,9,10,11,13,1,5,3"
14094,commdev-image-keyboard-response,252,490960,learnblock1,820.8000001907349,img/planet6_left.png,6,Community 2,NA,FALSE,j,f,NA,NA,NA,NA,6,"12,2,7,14,15,4,8,6,9,10,11,13,1,5,3"
14094,commdev-image-keyboard-response,253,492214,learnblock1,672.2000002861023,img/planet10_left.png,10,Community 2,NA,TRUE,f,f,NA,NA,NA,NA,6,"12,2,7,14,15,4,8,6,9,10,11,13,1,5,3"
14094,commdev-image-keyboard-response,254,493466,learnblock1,806.9000000953674,img/planet6_left.png,6,Community 2,NA,TRUE,f,f,NA,NA,NA,NA,6,"12,2,7,14,15,4,8,6,9,10,11,13,1,5,3"
14094,commdev-image-keyboard-response,255,494720,learnblock1,557.3999996185303,img/planet10_left.png,10,Community 2,NA,TRUE,f,f,NA,NA,NA,NA,6,"12,2,7,14,15,4,8,6,9,10,11,13,1,5,3"
14094,commdev-image-keyboard-response,256,495974,learnblock1,634.6999998092651,img/planet8_left.png,8,Community 2,NA,TRUE,f,f,NA,NA,NA,NA,6,"12,2,7,14,15,4,8,6,9,10,11,13,1,5,3"
14094,commdev-image-keyboard-response,257,497226,learnblock1,705,img/planet6_right.png,6,Community 2,NA,TRUE,j,j,NA,NA,NA,NA,6,"12,2,7,14,15,4,8,6,9,10,11,13,1,5,3"
14094,commdev-image-keyboard-response,258,498480,learnblock1,586.8000001907349,img/planet10_left.png,10,Community 2,NA,TRUE,f,f,NA,NA,NA,NA,6,"12,2,7,14,15,4,8,6,9,10,11,13,1,5,3"
14094,commdev-image-keyboard-response,259,499733,learnblock1,880.7000002861023,img/planet9_left.png,9,Community 2,NA,TRUE,f,f,NA,NA,NA,NA,6,"12,2,7,14,15,4,8,6,9,10,11,13,1,5,3"
14094,commdev-image-keyboard-response,260,500986,learnblock1,737.7999997138977,img/planet6_left.png,6,Community 2,NA,TRUE,f,f,NA,NA,NA,NA,6,"12,2,7,14,15,4,8,6,9,10,11,13,1,5,3"
14094,commdev-image-keyboard-response,261,502239,learnblock1,700.7000002861023,img/planet13_left.png,13,Community 3,NA,TRUE,f,f,NA,NA,NA,NA,6,"12,2,7,14,15,4,8,6,9,10,11,13,1,5,3"
14094,commdev-image-keyboard-response,262,503493,learnblock1,null,img/planet3_left.png,3,Community 3,NA,FALSE,null,f,NA,NA,NA,NA,6,"12,2,7,14,15,4,8,6,9,10,11,13,1,5,3"
14094,commdev-image-keyboard-response,263,504745,learnblock1,1.1999998092651367,img/planet1_left.png,1,Community 3,NA,TRUE,f,f,NA,NA,NA,NA,6,"12,2,7,14,15,4,8,6,9,10,11,13,1,5,3"
14094,commdev-image-keyboard-response,264,505999,learnblock1,622.4000000953674,img/planet11_right.png,11,Community 3,NA,TRUE,j,j,NA,NA,NA,NA,6,"12,2,7,14,15,4,8,6,9,10,11,13,1,5,3"
14094,commdev-image-keyboard-response,265,507252,learnblock1,586.2000002861023,img/planet5_right.png,5,Community 3,NA,TRUE,j,j,NA,NA,NA,NA,6,"12,2,7,14,15,4,8,6,9,10,11,13,1,5,3"
14094,commdev-image-keyboard-response,266,508505,learnblock1,586,img/planet13_left.png,13,Community 3,NA,TRUE,f,f,NA,NA,NA,NA,6,"12,2,7,14,15,4,8,6,9,10,11,13,1,5,3"
14094,commdev-image-keyboard-response,267,509758,learnblock1,691.6999998092651,img/planet5_left.png,5,Community 3,NA,TRUE,f,f,NA,NA,NA,NA,6,"12,2,7,14,15,4,8,6,9,10,11,13,1,5,3"
14094,commdev-image-keyboard-response,268,511011,learnblock1,521.7999997138977,img/planet13_right.png,13,Community 3,NA,TRUE,j,j,NA,NA,NA,NA,6,"12,2,7,14,15,4,8,6,9,10,11,13,1,5,3"
14094,commdev-image-keyboard-response,269,512264,learnblock1,702.7999997138977,img/planet1_left.png,1,Community 3,NA,TRUE,f,f,NA,NA,NA,NA,6,"12,2,7,14,15,4,8,6,9,10,11,13,1,5,3"
14094,commdev-image-keyboard-response,270,513517,learnblock1,484.2999997138977,img/planet13_right.png,13,Community 3,NA,TRUE,j,j,NA,NA,NA,NA,6,"12,2,7,14,15,4,8,6,9,10,11,13,1,5,3"
14094,commdev-image-keyboard-response,271,514770,learnblock1,573.1999998092651,img/planet1_right.png,1,Community 3,NA,TRUE,j,j,NA,NA,NA,NA,6,"12,2,7,14,15,4,8,6,9,10,11,13,1,5,3"
14094,commdev-image-keyboard-response,272,516023,learnblock1,595.4000000953674,img/planet5_right.png,5,Community 3,NA,TRUE,j,j,NA,NA,NA,NA,6,"12,2,7,14,15,4,8,6,9,10,11,13,1,5,3"
14094,commdev-image-keyboard-response,273,517275,learnblock1,711,img/planet11_right.png,11,Community 3,NA,TRUE,j,j,NA,NA,NA,NA,6,"12,2,7,14,15,4,8,6,9,10,11,13,1,5,3"
14094,commdev-image-keyboard-response,274,518528,learnblock1,623.2000002861023,img/planet1_left.png,1,Community 3,NA,TRUE,f,f,NA,NA,NA,NA,6,"12,2,7,14,15,4,8,6,9,10,11,13,1,5,3"
14094,commdev-image-keyboard-response,275,519780,learnblock1,653.4000000953674,img/planet5_right.png,5,Community 3,NA,TRUE,j,j,NA,NA,NA,NA,6,"12,2,7,14,15,4,8,6,9,10,11,13,1,5,3"
14094,commdev-image-keyboard-response,276,521033,learnblock1,592.0999999046326,img/planet3_right.png,3,Community 3,NA,TRUE,j,j,NA,NA,NA,NA,6,"12,2,7,14,15,4,8,6,9,10,11,13,1,5,3"
14094,commdev-image-keyboard-response,277,522286,learnblock1,495.09999990463257,img/planet5_right.png,5,Community 3,NA,TRUE,j,j,NA,NA,NA,NA,6,"12,2,7,14,15,4,8,6,9,10,11,13,1,5,3"
14094,commdev-image-keyboard-response,278,523539,learnblock1,621.5,img/planet13_right.png,13,Community 3,NA,TRUE,j,j,NA,NA,NA,NA,6,"12,2,7,14,15,4,8,6,9,10,11,13,1,5,3"
14094,commdev-image-keyboard-response,279,524792,learnblock1,624.1000003814697,img/planet3_right.png,3,Community 3,NA,TRUE,j,j,NA,NA,NA,NA,6,"12,2,7,14,15,4,8,6,9,10,11,13,1,5,3"
14094,commdev-image-keyboard-response,280,526046,learnblock1,521.0999999046326,img/planet1_right.png,1,Community 3,NA,TRUE,j,j,NA,NA,NA,NA,6,"12,2,7,14,15,4,8,6,9,10,11,13,1,5,3"
14094,commdev-image-keyboard-response,281,527298,learnblock1,489.30000019073486,img/planet3_left.png,3,Community 3,NA,FALSE,j,f,NA,NA,NA,NA,6,"12,2,7,14,15,4,8,6,9,10,11,13,1,5,3"
14094,commdev-image-keyboard-response,282,528550,learnblock1,536.9000000953674,img/planet5_right.png,5,Community 3,NA,TRUE,j,j,NA,NA,NA,NA,6,"12,2,7,14,15,4,8,6,9,10,11,13,1,5,3"
14094,commdev-image-keyboard-response,283,529803,learnblock1,573.5999999046326,img/planet13_right.png,13,Community 3,NA,TRUE,j,j,NA,NA,NA,NA,6,"12,2,7,14,15,4,8,6,9,10,11,13,1,5,3"
14094,commdev-image-keyboard-response,284,531055,learnblock1,609.1999998092651,img/planet3_right.png,3,Community 3,NA,TRUE,j,j,NA,NA,NA,NA,6,"12,2,7,14,15,4,8,6,9,10,11,13,1,5,3"
14094,commdev-image-keyboard-response,285,532308,learnblock1,481.19999980926514,img/planet1_right.png,1,Community 3,NA,TRUE,j,j,NA,NA,NA,NA,6,"12,2,7,14,15,4,8,6,9,10,11,13,1,5,3"
14094,commdev-image-keyboard-response,286,533562,learnblock1,645.9000000953674,img/planet11_left.png,11,Community 3,NA,TRUE,f,f,NA,NA,NA,NA,6,"12,2,7,14,15,4,8,6,9,10,11,13,1,5,3"
14094,commdev-image-keyboard-response,287,534814,learnblock1,554.5,img/planet15_left.png,15,Community 1,NA,TRUE,f,f,NA,NA,NA,NA,6,"12,2,7,14,15,4,8,6,9,10,11,13,1,5,3"
14094,commdev-image-keyboard-response,288,536068,learnblock1,665.4000000953674,img/planet12_right.png,12,Community 1,NA,TRUE,j,j,NA,NA,NA,NA,6,"12,2,7,14,15,4,8,6,9,10,11,13,1,5,3"
14094,commdev-image-keyboard-response,289,537321,learnblock1,574.4000000953674,img/planet2_right.png,2,Community 1,NA,TRUE,j,j,NA,NA,NA,NA,6,"12,2,7,14,15,4,8,6,9,10,11,13,1,5,3"
14094,commdev-image-keyboard-response,290,538574,learnblock1,697.6999998092651,img/planet15_right.png,15,Community 1,NA,TRUE,j,j,NA,NA,NA,NA,6,"12,2,7,14,15,4,8,6,9,10,11,13,1,5,3"
14094,commdev-image-keyboard-response,291,539827,learnblock1,605.5999999046326,img/planet2_right.png,2,Community 1,NA,TRUE,j,j,NA,NA,NA,NA,6,"12,2,7,14,15,4,8,6,9,10,11,13,1,5,3"
14094,commdev-image-keyboard-response,292,541080,learnblock1,576.7000002861023,img/planet15_left.png,15,Community 1,NA,TRUE,f,f,NA,NA,NA,NA,6,"12,2,7,14,15,4,8,6,9,10,11,13,1,5,3"
14094,commdev-image-keyboard-response,293,542333,learnblock1,535.5,img/planet11_right.png,11,Community 3,NA,TRUE,j,j,NA,NA,NA,NA,6,"12,2,7,14,15,4,8,6,9,10,11,13,1,5,3"
14094,commdev-image-keyboard-response,294,543586,learnblock1,562.5999999046326,img/planet3_right.png,3,Community 3,NA,TRUE,j,j,NA,NA,NA,NA,6,"12,2,7,14,15,4,8,6,9,10,11,13,1,5,3"
14094,commdev-image-keyboard-response,295,544839,learnblock1,654.6000003814697,img/planet11_right.png,11,Community 3,NA,TRUE,j,j,NA,NA,NA,NA,6,"12,2,7,14,15,4,8,6,9,10,11,13,1,5,3"
14094,commdev-image-keyboard-response,296,546092,learnblock1,462.19999980926514,img/planet15_left.png,15,Community 1,NA,TRUE,f,f,NA,NA,NA,NA,6,"12,2,7,14,15,4,8,6,9,10,11,13,1,5,3"
14094,commdev-image-keyboard-response,297,547345,learnblock1,465.09999990463257,img/planet11_right.png,11,Community 3,NA,TRUE,j,j,NA,NA,NA,NA,6,"12,2,7,14,15,4,8,6,9,10,11,13,1,5,3"
14094,commdev-image-keyboard-response,298,548598,learnblock1,636.2999997138977,img/planet5_left.png,5,Community 3,NA,TRUE,f,f,NA,NA,NA,NA,6,"12,2,7,14,15,4,8,6,9,10,11,13,1,5,3"
14094,commdev-image-keyboard-response,299,549852,learnblock1,657.9000000953674,img/planet11_left.png,11,Community 3,NA,TRUE,f,f,NA,NA,NA,NA,6,"12,2,7,14,15,4,8,6,9,10,11,13,1,5,3"
14094,commdev-image-keyboard-response,300,551105,learnblock1,617.0999999046326,img/planet5_right.png,5,Community 3,NA,TRUE,j,j,NA,NA,NA,NA,6,"12,2,7,14,15,4,8,6,9,10,11,13,1,5,3"
14094,commdev-image-keyboard-response,301,552358,learnblock1,689.8000001907349,img/planet11_right.png,11,Community 3,NA,TRUE,j,j,NA,NA,NA,NA,6,"12,2,7,14,15,4,8,6,9,10,11,13,1,5,3"
14094,commdev-image-keyboard-response,302,553610,learnblock1,601.3999996185303,img/planet5_right.png,5,Community 3,NA,TRUE,j,j,NA,NA,NA,NA,6,"12,2,7,14,15,4,8,6,9,10,11,13,1,5,3"
14094,commdev-image-keyboard-response,303,554864,learnblock1,679.1000003814697,img/planet1_right.png,1,Community 3,NA,TRUE,j,j,NA,NA,NA,NA,6,"12,2,7,14,15,4,8,6,9,10,11,13,1,5,3"
14094,commdev-image-keyboard-response,304,556117,learnblock1,725.8000001907349,img/planet11_left.png,11,Community 3,NA,TRUE,f,f,NA,NA,NA,NA,6,"12,2,7,14,15,4,8,6,9,10,11,13,1,5,3"
14094,commdev-image-keyboard-response,305,557369,learnblock1,1008.5,img/planet3_left.png,3,Community 3,NA,TRUE,f,f,NA,NA,NA,NA,6,"12,2,7,14,15,4,8,6,9,10,11,13,1,5,3"
14094,commdev-image-keyboard-response,306,558622,learnblock1,632.4000000953674,img/planet11_left.png,11,Community 3,NA,TRUE,f,f,NA,NA,NA,NA,6,"12,2,7,14,15,4,8,6,9,10,11,13,1,5,3"
14094,commdev-image-keyboard-response,307,559875,learnblock1,629,img/planet3_left.png,3,Community 3,NA,TRUE,f,f,NA,NA,NA,NA,6,"12,2,7,14,15,4,8,6,9,10,11,13,1,5,3"
14094,commdev-image-keyboard-response,308,561128,learnblock1,575.8999996185303,img/planet11_right.png,11,Community 3,NA,TRUE,j,j,NA,NA,NA,NA,6,"12,2,7,14,15,4,8,6,9,10,11,13,1,5,3"
14094,commdev-image-keyboard-response,309,562380,learnblock1,727.4000000953674,img/planet3_left.png,3,Community 3,NA,TRUE,f,f,NA,NA,NA,NA,6,"12,2,7,14,15,4,8,6,9,10,11,13,1,5,3"
14094,commdev-image-keyboard-response,310,563633,learnblock1,609.0999999046326,img/planet1_left.png,1,Community 3,NA,TRUE,f,f,NA,NA,NA,NA,6,"12,2,7,14,15,4,8,6,9,10,11,13,1,5,3"
14094,commdev-image-keyboard-response,311,564886,learnblock1,685.5,img/planet13_right.png,13,Community 3,NA,TRUE,j,j,NA,NA,NA,NA,6,"12,2,7,14,15,4,8,6,9,10,11,13,1,5,3"
14094,commdev-image-keyboard-response,312,566139,learnblock1,757.1999998092651,img/planet5_left.png,5,Community 3,NA,TRUE,f,f,NA,NA,NA,NA,6,"12,2,7,14,15,4,8,6,9,10,11,13,1,5,3"
14094,commdev-image-keyboard-response,313,567392,learnblock1,618.8000001907349,img/planet1_left.png,1,Community 3,NA,TRUE,f,f,NA,NA,NA,NA,6,"12,2,7,14,15,4,8,6,9,10,11,13,1,5,3"
14094,commdev-image-keyboard-response,314,568645,learnblock1,568.5,img/planet3_right.png,3,Community 3,NA,TRUE,j,j,NA,NA,NA,NA,6,"12,2,7,14,15,4,8,6,9,10,11,13,1,5,3"
14094,commdev-image-keyboard-response,315,569899,learnblock1,718.9000000953674,img/planet13_right.png,13,Community 3,NA,TRUE,j,j,NA,NA,NA,NA,6,"12,2,7,14,15,4,8,6,9,10,11,13,1,5,3"
14094,commdev-image-keyboard-response,316,571152,learnblock1,704.1999998092651,img/planet3_left.png,3,Community 3,NA,TRUE,f,f,NA,NA,NA,NA,6,"12,2,7,14,15,4,8,6,9,10,11,13,1,5,3"
14094,commdev-image-keyboard-response,317,572404,learnblock1,586.0999999046326,img/planet13_right.png,13,Community 3,NA,TRUE,j,j,NA,NA,NA,NA,6,"12,2,7,14,15,4,8,6,9,10,11,13,1,5,3"
14094,commdev-image-keyboard-response,318,573657,learnblock1,616.1000003814697,img/planet6_left.png,6,Community 2,NA,TRUE,f,f,NA,NA,NA,NA,6,"12,2,7,14,15,4,8,6,9,10,11,13,1,5,3"
14094,commdev-image-keyboard-response,319,574911,learnblock1,567.5,img/planet10_left.png,10,Community 2,NA,TRUE,f,f,NA,NA,NA,NA,6,"12,2,7,14,15,4,8,6,9,10,11,13,1,5,3"
14094,commdev-image-keyboard-response,320,576164,learnblock1,753.1999998092651,img/planet9_left.png,9,Community 2,NA,TRUE,f,f,NA,NA,NA,NA,6,"12,2,7,14,15,4,8,6,9,10,11,13,1,5,3"
14094,commdev-image-keyboard-response,321,577418,learnblock1,638.3000001907349,img/planet8_left.png,8,Community 2,NA,TRUE,f,f,NA,NA,NA,NA,6,"12,2,7,14,15,4,8,6,9,10,11,13,1,5,3"
14094,commdev-image-keyboard-response,322,578671,learnblock1,892.5,img/planet6_right.png,6,Community 2,NA,TRUE,j,j,NA,NA,NA,NA,6,"12,2,7,14,15,4,8,6,9,10,11,13,1,5,3"
14094,commdev-image-keyboard-response,323,579924,learnblock1,857,img/planet9_right.png,9,Community 2,NA,TRUE,j,j,NA,NA,NA,NA,6,"12,2,7,14,15,4,8,6,9,10,11,13,1,5,3"
14094,commdev-image-keyboard-response,324,581177,learnblock1,567.7000002861023,img/planet10_right.png,10,Community 2,NA,TRUE,j,j,NA,NA,NA,NA,6,"12,2,7,14,15,4,8,6,9,10,11,13,1,5,3"
14094,commdev-image-keyboard-response,325,582430,learnblock1,738.5,img/planet4_left.png,4,Community 2,NA,TRUE,f,f,NA,NA,NA,NA,6,"12,2,7,14,15,4,8,6,9,10,11,13,1,5,3"
14094,commdev-image-keyboard-response,326,583683,learnblock1,599.6999998092651,img/planet9_right.png,9,Community 2,NA,TRUE,j,j,NA,NA,NA,NA,6,"12,2,7,14,15,4,8,6,9,10,11,13,1,5,3"
14094,commdev-image-keyboard-response,327,584936,learnblock1,638.2999997138977,img/planet10_right.png,10,Community 2,NA,TRUE,j,j,NA,NA,NA,NA,6,"12,2,7,14,15,4,8,6,9,10,11,13,1,5,3"
14094,commdev-image-keyboard-response,328,586189,learnblock1,669.3000001907349,img/planet9_right.png,9,Community 2,NA,TRUE,j,j,NA,NA,NA,NA,6,"12,2,7,14,15,4,8,6,9,10,11,13,1,5,3"
14094,commdev-image-keyboard-response,329,587441,learnblock1,747.5,img/planet4_left.png,4,Community 2,NA,TRUE,f,f,NA,NA,NA,NA,6,"12,2,7,14,15,4,8,6,9,10,11,13,1,5,3"
14094,commdev-image-keyboard-response,330,588694,learnblock1,646.4000000953674,img/planet8_left.png,8,Community 2,NA,TRUE,f,f,NA,NA,NA,NA,6,"12,2,7,14,15,4,8,6,9,10,11,13,1,5,3"
14094,commdev-image-keyboard-response,331,589947,learnblock1,607.8000001907349,img/planet6_right.png,6,Community 2,NA,TRUE,j,j,NA,NA,NA,NA,6,"12,2,7,14,15,4,8,6,9,10,11,13,1,5,3"
14094,commdev-image-keyboard-response,332,591199,learnblock1,626.3000001907349,img/planet9_right.png,9,Community 2,NA,TRUE,j,j,NA,NA,NA,NA,6,"12,2,7,14,15,4,8,6,9,10,11,13,1,5,3"
14094,commdev-image-keyboard-response,333,592452,learnblock1,633.5,img/planet6_right.png,6,Community 2,NA,TRUE,j,j,NA,NA,NA,NA,6,"12,2,7,14,15,4,8,6,9,10,11,13,1,5,3"
14094,commdev-image-keyboard-response,334,593704,learnblock1,522.4000000953674,img/planet9_right.png,9,Community 2,NA,TRUE,j,j,NA,NA,NA,NA,6,"12,2,7,14,15,4,8,6,9,10,11,13,1,5,3"
14094,commdev-image-keyboard-response,335,594957,learnblock1,493.69999980926514,img/planet10_right.png,10,Community 2,NA,TRUE,j,j,NA,NA,NA,NA,6,"12,2,7,14,15,4,8,6,9,10,11,13,1,5,3"
14094,commdev-image-keyboard-response,336,596210,learnblock1,499.8999996185303,img/planet4_right.png,4,Community 2,NA,TRUE,j,j,NA,NA,NA,NA,6,"12,2,7,14,15,4,8,6,9,10,11,13,1,5,3"
14094,commdev-image-keyboard-response,337,597462,learnblock1,758.4000000953674,img/planet8_right.png,8,Community 2,NA,TRUE,j,j,NA,NA,NA,NA,6,"12,2,7,14,15,4,8,6,9,10,11,13,1,5,3"
14094,commdev-image-keyboard-response,338,598717,learnblock1,609,img/planet4_left.png,4,Community 2,NA,TRUE,f,f,NA,NA,NA,NA,6,"12,2,7,14,15,4,8,6,9,10,11,13,1,5,3"
14094,commdev-image-keyboard-response,339,599971,learnblock1,634.6999998092651,img/planet14_right.png,14,Community 1,NA,TRUE,j,j,NA,NA,NA,NA,6,"12,2,7,14,15,4,8,6,9,10,11,13,1,5,3"
14094,commdev-image-keyboard-response,340,601225,learnblock1,660.5,img/planet12_right.png,12,Community 1,NA,TRUE,j,j,NA,NA,NA,NA,6,"12,2,7,14,15,4,8,6,9,10,11,13,1,5,3"
14094,commdev-image-keyboard-response,341,602478,learnblock1,672.1000003814697,img/planet14_right.png,14,Community 1,NA,TRUE,j,j,NA,NA,NA,NA,6,"12,2,7,14,15,4,8,6,9,10,11,13,1,5,3"
14094,commdev-image-keyboard-response,342,603732,learnblock1,642.6000003814697,img/planet12_right.png,12,Community 1,NA,TRUE,j,j,NA,NA,NA,NA,6,"12,2,7,14,15,4,8,6,9,10,11,13,1,5,3"
14094,commdev-image-keyboard-response,343,604985,learnblock1,689.2999997138977,img/planet14_right.png,14,Community 1,NA,TRUE,j,j,NA,NA,NA,NA,6,"12,2,7,14,15,4,8,6,9,10,11,13,1,5,3"
14094,commdev-image-keyboard-response,344,606238,learnblock1,520.8000001907349,img/planet2_right.png,2,Community 1,NA,TRUE,j,j,NA,NA,NA,NA,6,"12,2,7,14,15,4,8,6,9,10,11,13,1,5,3"
14094,commdev-image-keyboard-response,345,607490,learnblock1,563.3000001907349,img/planet14_right.png,14,Community 1,NA,TRUE,j,j,NA,NA,NA,NA,6,"12,2,7,14,15,4,8,6,9,10,11,13,1,5,3"
14094,commdev-image-keyboard-response,346,608743,learnblock1,617.6999998092651,img/planet12_left.png,12,Community 1,NA,TRUE,f,f,NA,NA,NA,NA,6,"12,2,7,14,15,4,8,6,9,10,11,13,1,5,3"
14094,commdev-image-keyboard-response,347,609997,learnblock1,740.0999999046326,img/planet15_left.png,15,Community 1,NA,TRUE,f,f,NA,NA,NA,NA,6,"12,2,7,14,15,4,8,6,9,10,11,13,1,5,3"
14094,commdev-image-keyboard-response,351,817464,learnblock2,986.5,img/planet10_right.png,10,Community 2,NA,TRUE,j,j,NA,NA,NA,NA,6,"12,2,7,14,15,4,8,6,9,10,11,13,1,5,3"
14094,commdev-image-keyboard-response,352,818717,learnblock2,917.5,img/planet6_left.png,6,Community 2,NA,TRUE,f,f,NA,NA,NA,NA,6,"12,2,7,14,15,4,8,6,9,10,11,13,1,5,3"
14094,commdev-image-keyboard-response,353,819970,learnblock2,835.7999997138977,img/planet9_left.png,9,Community 2,NA,TRUE,f,f,NA,NA,NA,NA,6,"12,2,7,14,15,4,8,6,9,10,11,13,1,5,3"
14094,commdev-image-keyboard-response,354,821223,learnblock2,650.2999997138977,img/planet6_left.png,6,Community 2,NA,TRUE,f,f,NA,NA,NA,NA,6,"12,2,7,14,15,4,8,6,9,10,11,13,1,5,3"
14094,commdev-image-keyboard-response,355,822479,learnblock2,550.4000000953674,img/planet9_right.png,9,Community 2,NA,TRUE,j,j,NA,NA,NA,NA,6,"12,2,7,14,15,4,8,6,9,10,11,13,1,5,3"
14094,commdev-image-keyboard-response,356,823733,learnblock2,681.8000001907349,img/planet10_left.png,10,Community 2,NA,TRUE,f,f,NA,NA,NA,NA,6,"12,2,7,14,15,4,8,6,9,10,11,13,1,5,3"
14094,commdev-image-keyboard-response,357,824985,learnblock2,645.6999998092651,img/planet6_left.png,6,Community 2,NA,TRUE,f,f,NA,NA,NA,NA,6,"12,2,7,14,15,4,8,6,9,10,11,13,1,5,3"
14094,commdev-image-keyboard-response,358,826238,learnblock2,537.5999999046326,img/planet10_right.png,10,Community 2,NA,TRUE,j,j,NA,NA,NA,NA,6,"12,2,7,14,15,4,8,6,9,10,11,13,1,5,3"
14094,commdev-image-keyboard-response,359,827492,learnblock2,668.9000000953674,img/planet9_left.png,9,Community 2,NA,TRUE,f,f,NA,NA,NA,NA,6,"12,2,7,14,15,4,8,6,9,10,11,13,1,5,3"
14094,commdev-image-keyboard-response,360,828744,learnblock2,702.4000000953674,img/planet8_left.png,8,Community 2,NA,TRUE,f,f,NA,NA,NA,NA,6,"12,2,7,14,15,4,8,6,9,10,11,13,1,5,3"
14094,commdev-image-keyboard-response,361,829998,learnblock2,533.4000000953674,img/planet10_right.png,10,Community 2,NA,TRUE,j,j,NA,NA,NA,NA,6,"12,2,7,14,15,4,8,6,9,10,11,13,1,5,3"
14094,commdev-image-keyboard-response,362,831250,learnblock2,637.5,img/planet4_right.png,4,Community 2,NA,TRUE,j,j,NA,NA,NA,NA,6,"12,2,7,14,15,4,8,6,9,10,11,13,1,5,3"
14094,commdev-image-keyboard-response,363,832504,learnblock2,728.5999999046326,img/planet10_left.png,10,Community 2,NA,TRUE,f,f,NA,NA,NA,NA,6,"12,2,7,14,15,4,8,6,9,10,11,13,1,5,3"
14094,commdev-image-keyboard-response,364,833757,learnblock2,675.3999996185303,img/planet4_left.png,4,Community 2,NA,TRUE,f,f,NA,NA,NA,NA,6,"12,2,7,14,15,4,8,6,9,10,11,13,1,5,3"
14094,commdev-image-keyboard-response,365,835010,learnblock2,508.59999990463257,img/planet10_left.png,10,Community 2,NA,TRUE,f,f,NA,NA,NA,NA,6,"12,2,7,14,15,4,8,6,9,10,11,13,1,5,3"
14094,commdev-image-keyboard-response,366,836263,learnblock2,471,img/planet4_left.png,4,Community 2,NA,TRUE,f,f,NA,NA,NA,NA,6,"12,2,7,14,15,4,8,6,9,10,11,13,1,5,3"
14094,commdev-image-keyboard-response,367,837516,learnblock2,561,img/planet14_left.png,14,Community 1,NA,TRUE,f,f,NA,NA,NA,NA,6,"12,2,7,14,15,4,8,6,9,10,11,13,1,5,3"
14094,commdev-image-keyboard-response,368,838770,learnblock2,508.80000019073486,img/planet4_right.png,4,Community 2,NA,FALSE,f,j,NA,NA,NA,NA,6,"12,2,7,14,15,4,8,6,9,10,11,13,1,5,3"
14094,commdev-image-keyboard-response,369,840023,learnblock2,665.2000002861023,img/planet10_left.png,10,Community 2,NA,TRUE,f,f,NA,NA,NA,NA,6,"12,2,7,14,15,4,8,6,9,10,11,13,1,5,3"
14094,commdev-image-keyboard-response,370,841277,learnblock2,674.7999997138977,img/planet6_left.png,6,Community 2,NA,TRUE,f,f,NA,NA,NA,NA,6,"12,2,7,14,15,4,8,6,9,10,11,13,1,5,3"
14094,commdev-image-keyboard-response,371,842529,learnblock2,641.3000001907349,img/planet8_right.png,8,Community 2,NA,TRUE,j,j,NA,NA,NA,NA,6,"12,2,7,14,15,4,8,6,9,10,11,13,1,5,3"
14094,commdev-image-keyboard-response,372,843781,learnblock2,723.9000000953674,img/planet6_right.png,6,Community 2,NA,TRUE,j,j,NA,NA,NA,NA,6,"12,2,7,14,15,4,8,6,9,10,11,13,1,5,3"
14094,commdev-image-keyboard-response,373,845034,learnblock2,667.1999998092651,img/planet8_right.png,8,Community 2,NA,TRUE,j,j,NA,NA,NA,NA,6,"12,2,7,14,15,4,8,6,9,10,11,13,1,5,3"
14094,commdev-image-keyboard-response,374,846288,learnblock2,626.1999998092651,img/planet4_left.png,4,Community 2,NA,TRUE,f,f,NA,NA,NA,NA,6,"12,2,7,14,15,4,8,6,9,10,11,13,1,5,3"
14094,commdev-image-keyboard-response,375,847541,learnblock2,556.3999996185303,img/planet9_right.png,9,Community 2,NA,TRUE,j,j,NA,NA,NA,NA,6,"12,2,7,14,15,4,8,6,9,10,11,13,1,5,3"
14094,commdev-image-keyboard-response,376,848794,learnblock2,644,img/planet6_left.png,6,Community 2,NA,TRUE,f,f,NA,NA,NA,NA,6,"12,2,7,14,15,4,8,6,9,10,11,13,1,5,3"
14094,commdev-image-keyboard-response,377,850047,learnblock2,503.30000019073486,img/planet10_right.png,10,Community 2,NA,TRUE,j,j,NA,NA,NA,NA,6,"12,2,7,14,15,4,8,6,9,10,11,13,1,5,3"
14094,commdev-image-keyboard-response,378,851300,learnblock2,617.6999998092651,img/planet6_left.png,6,Community 2,NA,TRUE,f,f,NA,NA,NA,NA,6,"12,2,7,14,15,4,8,6,9,10,11,13,1,5,3"
14094,commdev-image-keyboard-response,379,852553,learnblock2,657.6999998092651,img/planet10_left.png,10,Community 2,NA,TRUE,f,f,NA,NA,NA,NA,6,"12,2,7,14,15,4,8,6,9,10,11,13,1,5,3"
14094,commdev-image-keyboard-response,380,853807,learnblock2,631.5999999046326,img/planet8_left.png,8,Community 2,NA,TRUE,f,f,NA,NA,NA,NA,6,"12,2,7,14,15,4,8,6,9,10,11,13,1,5,3"
14094,commdev-image-keyboard-response,381,855059,learnblock2,550.5,img/planet10_left.png,10,Community 2,NA,TRUE,f,f,NA,NA,NA,NA,6,"12,2,7,14,15,4,8,6,9,10,11,13,1,5,3"
14094,commdev-image-keyboard-response,382,856313,learnblock2,591.0999999046326,img/planet8_right.png,8,Community 2,NA,TRUE,j,j,NA,NA,NA,NA,6,"12,2,7,14,15,4,8,6,9,10,11,13,1,5,3"
14094,commdev-image-keyboard-response,383,857565,learnblock2,577.7000002861023,img/planet9_left.png,9,Community 2,NA,TRUE,f,f,NA,NA,NA,NA,6,"12,2,7,14,15,4,8,6,9,10,11,13,1,5,3"
14094,commdev-image-keyboard-response,384,858819,learnblock2,550.9000000953674,img/planet10_right.png,10,Community 2,NA,TRUE,j,j,NA,NA,NA,NA,6,"12,2,7,14,15,4,8,6,9,10,11,13,1,5,3"
14094,commdev-image-keyboard-response,385,860072,learnblock2,562.4000000953674,img/planet9_right.png,9,Community 2,NA,TRUE,j,j,NA,NA,NA,NA,6,"12,2,7,14,15,4,8,6,9,10,11,13,1,5,3"
14094,commdev-image-keyboard-response,386,861325,learnblock2,551,img/planet8_left.png,8,Community 2,NA,TRUE,f,f,NA,NA,NA,NA,6,"12,2,7,14,15,4,8,6,9,10,11,13,1,5,3"
14094,commdev-image-keyboard-response,387,862578,learnblock2,614.1999998092651,img/planet6_left.png,6,Community 2,NA,TRUE,f,f,NA,NA,NA,NA,6,"12,2,7,14,15,4,8,6,9,10,11,13,1,5,3"
14094,commdev-image-keyboard-response,388,863832,learnblock2,564.4000000953674,img/planet9_right.png,9,Community 2,NA,TRUE,j,j,NA,NA,NA,NA,6,"12,2,7,14,15,4,8,6,9,10,11,13,1,5,3"
14094,commdev-image-keyboard-response,389,865086,learnblock2,784.6999998092651,img/planet8_left.png,8,Community 2,NA,TRUE,f,f,NA,NA,NA,NA,6,"12,2,7,14,15,4,8,6,9,10,11,13,1,5,3"
14094,commdev-image-keyboard-response,390,866339,learnblock2,600.5,img/planet4_left.png,4,Community 2,NA,TRUE,f,f,NA,NA,NA,NA,6,"12,2,7,14,15,4,8,6,9,10,11,13,1,5,3"
14094,commdev-image-keyboard-response,391,867591,learnblock2,566.0999999046326,img/planet14_right.png,14,Community 1,NA,TRUE,j,j,NA,NA,NA,NA,6,"12,2,7,14,15,4,8,6,9,10,11,13,1,5,3"
14094,commdev-image-keyboard-response,392,868843,learnblock2,664.2000002861023,img/planet2_left.png,2,Community 1,NA,FALSE,j,f,NA,NA,NA,NA,6,"12,2,7,14,15,4,8,6,9,10,11,13,1,5,3"
14094,commdev-image-keyboard-response,393,870096,learnblock2,733.2000002861023,img/planet15_right.png,15,Community 1,NA,TRUE,j,j,NA,NA,NA,NA,6,"12,2,7,14,15,4,8,6,9,10,11,13,1,5,3"
14094,commdev-image-keyboard-response,394,871349,learnblock2,763,img/planet11_right.png,11,Community 3,NA,TRUE,j,j,NA,NA,NA,NA,6,"12,2,7,14,15,4,8,6,9,10,11,13,1,5,3"
14094,commdev-image-keyboard-response,395,872602,learnblock2,703.6999998092651,img/planet15_right.png,15,Community 1,NA,TRUE,j,j,NA,NA,NA,NA,6,"12,2,7,14,15,4,8,6,9,10,11,13,1,5,3"
14094,commdev-image-keyboard-response,396,873855,learnblock2,663.0999999046326,img/planet7_right.png,7,Community 1,NA,TRUE,j,j,NA,NA,NA,NA,6,"12,2,7,14,15,4,8,6,9,10,11,13,1,5,3"
14094,commdev-image-keyboard-response,397,875107,learnblock2,682.8000001907349,img/planet12_left.png,12,Community 1,NA,TRUE,f,f,NA,NA,NA,NA,6,"12,2,7,14,15,4,8,6,9,10,11,13,1,5,3"
14094,commdev-image-keyboard-response,398,876360,learnblock2,877.5999999046326,img/planet7_left.png,7,Community 1,NA,TRUE,f,f,NA,NA,NA,NA,6,"12,2,7,14,15,4,8,6,9,10,11,13,1,5,3"
14094,commdev-image-keyboard-response,399,877614,learnblock2,573.4000000953674,img/planet12_left.png,12,Community 1,NA,TRUE,f,f,NA,NA,NA,NA,6,"12,2,7,14,15,4,8,6,9,10,11,13,1,5,3"
14094,commdev-image-keyboard-response,400,878867,learnblock2,560.6999998092651,img/planet14_left.png,14,Community 1,NA,TRUE,f,f,NA,NA,NA,NA,6,"12,2,7,14,15,4,8,6,9,10,11,13,1,5,3"
14094,commdev-image-keyboard-response,401,880120,learnblock2,584.5999999046326,img/planet2_right.png,2,Community 1,NA,TRUE,j,j,NA,NA,NA,NA,6,"12,2,7,14,15,4,8,6,9,10,11,13,1,5,3"
14094,commdev-image-keyboard-response,402,881374,learnblock2,595.7000002861023,img/planet15_left.png,15,Community 1,NA,TRUE,f,f,NA,NA,NA,NA,6,"12,2,7,14,15,4,8,6,9,10,11,13,1,5,3"
14094,commdev-image-keyboard-response,403,882627,learnblock2,573.1999998092651,img/planet2_left.png,2,Community 1,NA,TRUE,f,f,NA,NA,NA,NA,6,"12,2,7,14,15,4,8,6,9,10,11,13,1,5,3"
14094,commdev-image-keyboard-response,404,883880,learnblock2,524.2999997138977,img/planet7_left.png,7,Community 1,NA,TRUE,f,f,NA,NA,NA,NA,6,"12,2,7,14,15,4,8,6,9,10,11,13,1,5,3"
14094,commdev-image-keyboard-response,405,885133,learnblock2,558.5,img/planet14_right.png,14,Community 1,NA,TRUE,j,j,NA,NA,NA,NA,6,"12,2,7,14,15,4,8,6,9,10,11,13,1,5,3"
14094,commdev-image-keyboard-response,406,886387,learnblock2,666.8000001907349,img/planet12_left.png,12,Community 1,NA,TRUE,f,f,NA,NA,NA,NA,6,"12,2,7,14,15,4,8,6,9,10,11,13,1,5,3"
14094,commdev-image-keyboard-response,407,887640,learnblock2,539.2999997138977,img/planet14_left.png,14,Community 1,NA,TRUE,f,f,NA,NA,NA,NA,6,"12,2,7,14,15,4,8,6,9,10,11,13,1,5,3"
14094,commdev-image-keyboard-response,408,888892,learnblock2,558.3000001907349,img/planet7_right.png,7,Community 1,NA,TRUE,j,j,NA,NA,NA,NA,6,"12,2,7,14,15,4,8,6,9,10,11,13,1,5,3"
14094,commdev-image-keyboard-response,409,890145,learnblock2,608.6000003814697,img/planet14_right.png,14,Community 1,NA,FALSE,f,j,NA,NA,NA,NA,6,"12,2,7,14,15,4,8,6,9,10,11,13,1,5,3"
14094,commdev-image-keyboard-response,410,891398,learnblock2,675.2000002861023,img/planet12_right.png,12,Community 1,NA,TRUE,j,j,NA,NA,NA,NA,6,"12,2,7,14,15,4,8,6,9,10,11,13,1,5,3"
14094,commdev-image-keyboard-response,411,892650,learnblock2,523.8999996185303,img/planet14_right.png,14,Community 1,NA,TRUE,j,j,NA,NA,NA,NA,6,"12,2,7,14,15,4,8,6,9,10,11,13,1,5,3"
14094,commdev-image-keyboard-response,412,893904,learnblock2,636.2999997138977,img/planet7_left.png,7,Community 1,NA,TRUE,f,f,NA,NA,NA,NA,6,"12,2,7,14,15,4,8,6,9,10,11,13,1,5,3"
14094,commdev-image-keyboard-response,413,895157,learnblock2,660,img/planet12_right.png,12,Community 1,NA,TRUE,j,j,NA,NA,NA,NA,6,"12,2,7,14,15,4,8,6,9,10,11,13,1,5,3"
14094,commdev-image-keyboard-response,414,896411,learnblock2,904.0999999046326,img/planet15_right.png,15,Community 1,NA,TRUE,j,j,NA,NA,NA,NA,6,"12,2,7,14,15,4,8,6,9,10,11,13,1,5,3"
14094,commdev-image-keyboard-response,415,897664,learnblock2,687.5,img/planet2_left.png,2,Community 1,NA,TRUE,f,f,NA,NA,NA,NA,6,"12,2,7,14,15,4,8,6,9,10,11,13,1,5,3"
14094,commdev-image-keyboard-response,416,898916,learnblock2,732.4000000953674,img/planet14_left.png,14,Community 1,NA,TRUE,f,f,NA,NA,NA,NA,6,"12,2,7,14,15,4,8,6,9,10,11,13,1,5,3"
14094,commdev-image-keyboard-response,417,900169,learnblock2,699.4000000953674,img/planet2_left.png,2,Community 1,NA,TRUE,f,f,NA,NA,NA,NA,6,"12,2,7,14,15,4,8,6,9,10,11,13,1,5,3"
14094,commdev-image-keyboard-response,418,901422,learnblock2,578.8000001907349,img/planet7_right.png,7,Community 1,NA,TRUE,j,j,NA,NA,NA,NA,6,"12,2,7,14,15,4,8,6,9,10,11,13,1,5,3"
14094,commdev-image-keyboard-response,419,902675,learnblock2,655.5,img/planet15_left.png,15,Community 1,NA,TRUE,f,f,NA,NA,NA,NA,6,"12,2,7,14,15,4,8,6,9,10,11,13,1,5,3"
14094,commdev-image-keyboard-response,420,903928,learnblock2,561.2000002861023,img/planet12_left.png,12,Community 1,NA,TRUE,f,f,NA,NA,NA,NA,6,"12,2,7,14,15,4,8,6,9,10,11,13,1,5,3"
14094,commdev-image-keyboard-response,421,905181,learnblock2,542.1000003814697,img/planet15_left.png,15,Community 1,NA,TRUE,f,f,NA,NA,NA,NA,6,"12,2,7,14,15,4,8,6,9,10,11,13,1,5,3"
14094,commdev-image-keyboard-response,422,906433,learnblock2,583.1999998092651,img/planet11_left.png,11,Community 3,NA,TRUE,f,f,NA,NA,NA,NA,6,"12,2,7,14,15,4,8,6,9,10,11,13,1,5,3"
14094,commdev-image-keyboard-response,423,907686,learnblock2,573.4000000953674,img/planet3_left.png,3,Community 3,NA,TRUE,f,f,NA,NA,NA,NA,6,"12,2,7,14,15,4,8,6,9,10,11,13,1,5,3"
14094,commdev-image-keyboard-response,424,908938,learnblock2,643.9000000953674,img/planet13_left.png,13,Community 3,NA,TRUE,f,f,NA,NA,NA,NA,6,"12,2,7,14,15,4,8,6,9,10,11,13,1,5,3"
14094,commdev-image-keyboard-response,425,910191,learnblock2,614.4000000953674,img/planet1_left.png,1,Community 3,NA,TRUE,f,f,NA,NA,NA,NA,6,"12,2,7,14,15,4,8,6,9,10,11,13,1,5,3"
14094,commdev-image-keyboard-response,426,911444,learnblock2,568,img/planet13_left.png,13,Community 3,NA,TRUE,f,f,NA,NA,NA,NA,6,"12,2,7,14,15,4,8,6,9,10,11,13,1,5,3"
14094,commdev-image-keyboard-response,427,912697,learnblock2,559.3000001907349,img/planet1_left.png,1,Community 3,NA,TRUE,f,f,NA,NA,NA,NA,6,"12,2,7,14,15,4,8,6,9,10,11,13,1,5,3"
14094,commdev-image-keyboard-response,428,913950,learnblock2,497.30000019073486,img/planet11_left.png,11,Community 3,NA,TRUE,f,f,NA,NA,NA,NA,6,"12,2,7,14,15,4,8,6,9,10,11,13,1,5,3"
14094,commdev-image-keyboard-response,429,915203,learnblock2,945,img/planet3_left.png,3,Community 3,NA,TRUE,f,f,NA,NA,NA,NA,6,"12,2,7,14,15,4,8,6,9,10,11,13,1,5,3"
14094,commdev-image-keyboard-response,430,916456,learnblock2,682.5999999046326,img/planet11_left.png,11,Community 3,NA,TRUE,f,f,NA,NA,NA,NA,6,"12,2,7,14,15,4,8,6,9,10,11,13,1,5,3"
14094,commdev-image-keyboard-response,431,917708,learnblock2,588.5999999046326,img/planet1_right.png,1,Community 3,NA,TRUE,j,j,NA,NA,NA,NA,6,"12,2,7,14,15,4,8,6,9,10,11,13,1,5,3"
14094,commdev-image-keyboard-response,432,918961,learnblock2,674.2000002861023,img/planet5_left.png,5,Community 3,NA,TRUE,f,f,NA,NA,NA,NA,6,"12,2,7,14,15,4,8,6,9,10,11,13,1,5,3"
14094,commdev-image-keyboard-response,433,920214,learnblock2,546.1000003814697,img/planet11_right.png,11,Community 3,NA,TRUE,j,j,NA,NA,NA,NA,6,"12,2,7,14,15,4,8,6,9,10,11,13,1,5,3"
14094,commdev-image-keyboard-response,434,921467,learnblock2,549.6999998092651,img/planet5_right.png,5,Community 3,NA,TRUE,j,j,NA,NA,NA,NA,6,"12,2,7,14,15,4,8,6,9,10,11,13,1,5,3"
14094,commdev-image-keyboard-response,435,922721,learnblock2,584.3000001907349,img/planet11_right.png,11,Community 3,NA,TRUE,j,j,NA,NA,NA,NA,6,"12,2,7,14,15,4,8,6,9,10,11,13,1,5,3"
14094,commdev-image-keyboard-response,436,923974,learnblock2,595.0999999046326,img/planet15_left.png,15,Community 1,NA,TRUE,f,f,NA,NA,NA,NA,6,"12,2,7,14,15,4,8,6,9,10,11,13,1,5,3"
14094,commdev-image-keyboard-response,437,925228,learnblock2,632,img/planet2_right.png,2,Community 1,NA,TRUE,j,j,NA,NA,NA,NA,6,"12,2,7,14,15,4,8,6,9,10,11,13,1,5,3"
14094,commdev-image-keyboard-response,438,926482,learnblock2,603.0999999046326,img/planet15_left.png,15,Community 1,NA,TRUE,f,f,NA,NA,NA,NA,6,"12,2,7,14,15,4,8,6,9,10,11,13,1,5,3"
14094,commdev-image-keyboard-response,439,927735,learnblock2,509.69999980926514,img/planet2_right.png,2,Community 1,NA,TRUE,j,j,NA,NA,NA,NA,6,"12,2,7,14,15,4,8,6,9,10,11,13,1,5,3"
14094,commdev-image-keyboard-response,440,928988,learnblock2,581.5,img/planet12_right.png,12,Community 1,NA,TRUE,j,j,NA,NA,NA,NA,6,"12,2,7,14,15,4,8,6,9,10,11,13,1,5,3"
14094,commdev-image-keyboard-response,441,930242,learnblock2,551.8999996185303,img/planet7_right.png,7,Community 1,NA,TRUE,j,j,NA,NA,NA,NA,6,"12,2,7,14,15,4,8,6,9,10,11,13,1,5,3"
14094,commdev-image-keyboard-response,442,931495,learnblock2,558.5,img/planet14_right.png,14,Community 1,NA,TRUE,j,j,NA,NA,NA,NA,6,"12,2,7,14,15,4,8,6,9,10,11,13,1,5,3"
14094,commdev-image-keyboard-response,443,932749,learnblock2,509.5,img/planet12_right.png,12,Community 1,NA,TRUE,j,j,NA,NA,NA,NA,6,"12,2,7,14,15,4,8,6,9,10,11,13,1,5,3"
14094,commdev-image-keyboard-response,444,934002,learnblock2,689.3000001907349,img/planet7_right.png,7,Community 1,NA,TRUE,j,j,NA,NA,NA,NA,6,"12,2,7,14,15,4,8,6,9,10,11,13,1,5,3"
14094,commdev-image-keyboard-response,445,935255,learnblock2,504.90000009536743,img/planet2_right.png,2,Community 1,NA,TRUE,j,j,NA,NA,NA,NA,6,"12,2,7,14,15,4,8,6,9,10,11,13,1,5,3"
14094,commdev-image-keyboard-response,446,936508,learnblock2,552,img/planet12_left.png,12,Community 1,NA,TRUE,f,f,NA,NA,NA,NA,6,"12,2,7,14,15,4,8,6,9,10,11,13,1,5,3"
14094,commdev-image-keyboard-response,447,937762,learnblock2,539.8999996185303,img/planet2_left.png,2,Community 1,NA,TRUE,f,f,NA,NA,NA,NA,6,"12,2,7,14,15,4,8,6,9,10,11,13,1,5,3"
14094,commdev-image-keyboard-response,448,939015,learnblock2,460.40000009536743,img/planet7_right.png,7,Community 1,NA,FALSE,f,j,NA,NA,NA,NA,6,"12,2,7,14,15,4,8,6,9,10,11,13,1,5,3"
14094,commdev-image-keyboard-response,449,940269,learnblock2,698.9000000953674,img/planet2_left.png,2,Community 1,NA,TRUE,f,f,NA,NA,NA,NA,6,"12,2,7,14,15,4,8,6,9,10,11,13,1,5,3"
14094,commdev-image-keyboard-response,450,941522,learnblock2,597.5,img/planet15_left.png,15,Community 1,NA,TRUE,f,f,NA,NA,NA,NA,6,"12,2,7,14,15,4,8,6,9,10,11,13,1,5,3"
14094,commdev-image-keyboard-response,451,942775,learnblock2,528.6999998092651,img/planet2_left.png,2,Community 1,NA,TRUE,f,f,NA,NA,NA,NA,6,"12,2,7,14,15,4,8,6,9,10,11,13,1,5,3"
14094,commdev-image-keyboard-response,452,944028,learnblock2,547.5999999046326,img/planet14_right.png,14,Community 1,NA,TRUE,j,j,NA,NA,NA,NA,6,"12,2,7,14,15,4,8,6,9,10,11,13,1,5,3"
14094,commdev-image-keyboard-response,453,945281,learnblock2,658,img/planet4_left.png,4,Community 2,NA,TRUE,f,f,NA,NA,NA,NA,6,"12,2,7,14,15,4,8,6,9,10,11,13,1,5,3"
14094,commdev-image-keyboard-response,454,946534,learnblock2,608,img/planet14_right.png,14,Community 1,NA,TRUE,j,j,NA,NA,NA,NA,6,"12,2,7,14,15,4,8,6,9,10,11,13,1,5,3"
14094,commdev-image-keyboard-response,455,947787,learnblock2,654.7999997138977,img/planet2_left.png,2,Community 1,NA,TRUE,f,f,NA,NA,NA,NA,6,"12,2,7,14,15,4,8,6,9,10,11,13,1,5,3"
14094,commdev-image-keyboard-response,456,949041,learnblock2,596.3999996185303,img/planet7_left.png,7,Community 1,NA,TRUE,f,f,NA,NA,NA,NA,6,"12,2,7,14,15,4,8,6,9,10,11,13,1,5,3"
14094,commdev-image-keyboard-response,457,950294,learnblock2,556,img/planet15_right.png,15,Community 1,NA,TRUE,j,j,NA,NA,NA,NA,6,"12,2,7,14,15,4,8,6,9,10,11,13,1,5,3"
14094,commdev-image-keyboard-response,458,951548,learnblock2,729.1999998092651,img/planet12_right.png,12,Community 1,NA,TRUE,j,j,NA,NA,NA,NA,6,"12,2,7,14,15,4,8,6,9,10,11,13,1,5,3"
14094,commdev-image-keyboard-response,459,952800,learnblock2,743.6999998092651,img/planet7_left.png,7,Community 1,NA,TRUE,f,f,NA,NA,NA,NA,6,"12,2,7,14,15,4,8,6,9,10,11,13,1,5,3"
14094,commdev-image-keyboard-response,460,954053,learnblock2,582.6999998092651,img/planet12_right.png,12,Community 1,NA,TRUE,j,j,NA,NA,NA,NA,6,"12,2,7,14,15,4,8,6,9,10,11,13,1,5,3"
14094,commdev-image-keyboard-response,461,955306,learnblock2,558.0999999046326,img/planet2_right.png,2,Community 1,NA,TRUE,j,j,NA,NA,NA,NA,6,"12,2,7,14,15,4,8,6,9,10,11,13,1,5,3"
14094,commdev-image-keyboard-response,462,956559,learnblock2,610.0999999046326,img/planet12_right.png,12,Community 1,NA,TRUE,j,j,NA,NA,NA,NA,6,"12,2,7,14,15,4,8,6,9,10,11,13,1,5,3"
14094,commdev-image-keyboard-response,463,957813,learnblock2,595.5999999046326,img/planet14_left.png,14,Community 1,NA,TRUE,f,f,NA,NA,NA,NA,6,"12,2,7,14,15,4,8,6,9,10,11,13,1,5,3"
14094,commdev-image-keyboard-response,464,959066,learnblock2,533.5999999046326,img/planet4_right.png,4,Community 2,NA,TRUE,j,j,NA,NA,NA,NA,6,"12,2,7,14,15,4,8,6,9,10,11,13,1,5,3"
14094,commdev-image-keyboard-response,465,960320,learnblock2,558.9000000953674,img/planet10_left.png,10,Community 2,NA,TRUE,f,f,NA,NA,NA,NA,6,"12,2,7,14,15,4,8,6,9,10,11,13,1,5,3"
14094,commdev-image-keyboard-response,466,961574,learnblock2,633.8000001907349,img/planet6_left.png,6,Community 2,NA,TRUE,f,f,NA,NA,NA,NA,6,"12,2,7,14,15,4,8,6,9,10,11,13,1,5,3"
14094,commdev-image-keyboard-response,467,962827,learnblock2,636.6999998092651,img/planet9_left.png,9,Community 2,NA,TRUE,f,f,NA,NA,NA,NA,6,"12,2,7,14,15,4,8,6,9,10,11,13,1,5,3"
14094,commdev-image-keyboard-response,468,964080,learnblock2,538.7999997138977,img/planet10_left.png,10,Community 2,NA,TRUE,f,f,NA,NA,NA,NA,6,"12,2,7,14,15,4,8,6,9,10,11,13,1,5,3"
14094,commdev-image-keyboard-response,469,965333,learnblock2,598.8000001907349,img/planet9_right.png,9,Community 2,NA,TRUE,j,j,NA,NA,NA,NA,6,"12,2,7,14,15,4,8,6,9,10,11,13,1,5,3"
14094,commdev-image-keyboard-response,470,966586,learnblock2,551.2999997138977,img/planet4_left.png,4,Community 2,NA,TRUE,f,f,NA,NA,NA,NA,6,"12,2,7,14,15,4,8,6,9,10,11,13,1,5,3"
14094,commdev-image-keyboard-response,471,967839,learnblock2,555.9000000953674,img/planet10_left.png,10,Community 2,NA,TRUE,f,f,NA,NA,NA,NA,6,"12,2,7,14,15,4,8,6,9,10,11,13,1,5,3"
14094,commdev-image-keyboard-response,472,969091,learnblock2,580.6999998092651,img/planet9_right.png,9,Community 2,NA,TRUE,j,j,NA,NA,NA,NA,6,"12,2,7,14,15,4,8,6,9,10,11,13,1,5,3"
14094,commdev-image-keyboard-response,473,970344,learnblock2,745.6999998092651,img/planet8_right.png,8,Community 2,NA,TRUE,j,j,NA,NA,NA,NA,6,"12,2,7,14,15,4,8,6,9,10,11,13,1,5,3"
14094,commdev-image-keyboard-response,474,971597,learnblock2,585.9000000953674,img/planet4_left.png,4,Community 2,NA,TRUE,f,f,NA,NA,NA,NA,6,"12,2,7,14,15,4,8,6,9,10,11,13,1,5,3"
14094,commdev-image-keyboard-response,475,972850,learnblock2,552.9000000953674,img/planet10_right.png,10,Community 2,NA,TRUE,j,j,NA,NA,NA,NA,6,"12,2,7,14,15,4,8,6,9,10,11,13,1,5,3"
14094,commdev-image-keyboard-response,476,974104,learnblock2,807.7000002861023,img/planet6_right.png,6,Community 2,NA,FALSE,f,j,NA,NA,NA,NA,6,"12,2,7,14,15,4,8,6,9,10,11,13,1,5,3"
14094,commdev-image-keyboard-response,477,975358,learnblock2,671.8000001907349,img/planet9_left.png,9,Community 2,NA,TRUE,f,f,NA,NA,NA,NA,6,"12,2,7,14,15,4,8,6,9,10,11,13,1,5,3"
14094,commdev-image-keyboard-response,478,976611,learnblock2,591.5,img/planet8_right.png,8,Community 2,NA,TRUE,j,j,NA,NA,NA,NA,6,"12,2,7,14,15,4,8,6,9,10,11,13,1,5,3"
14094,commdev-image-keyboard-response,479,977864,learnblock2,537.5,img/planet10_right.png,10,Community 2,NA,TRUE,j,j,NA,NA,NA,NA,6,"12,2,7,14,15,4,8,6,9,10,11,13,1,5,3"
14094,commdev-image-keyboard-response,480,979117,learnblock2,650.4000000953674,img/planet4_right.png,4,Community 2,NA,TRUE,j,j,NA,NA,NA,NA,6,"12,2,7,14,15,4,8,6,9,10,11,13,1,5,3"
14094,commdev-image-keyboard-response,481,980369,learnblock2,514.0999999046326,img/planet14_right.png,14,Community 1,NA,TRUE,j,j,NA,NA,NA,NA,6,"12,2,7,14,15,4,8,6,9,10,11,13,1,5,3"
14094,commdev-image-keyboard-response,482,981623,learnblock2,564.0999999046326,img/planet7_right.png,7,Community 1,NA,TRUE,j,j,NA,NA,NA,NA,6,"12,2,7,14,15,4,8,6,9,10,11,13,1,5,3"
14094,commdev-image-keyboard-response,483,982877,learnblock2,615.5,img/planet12_left.png,12,Community 1,NA,TRUE,f,f,NA,NA,NA,NA,6,"12,2,7,14,15,4,8,6,9,10,11,13,1,5,3"
14094,commdev-image-keyboard-response,484,984129,learnblock2,556,img/planet2_right.png,2,Community 1,NA,TRUE,j,j,NA,NA,NA,NA,6,"12,2,7,14,15,4,8,6,9,10,11,13,1,5,3"
14094,commdev-image-keyboard-response,485,985382,learnblock2,536,img/planet12_left.png,12,Community 1,NA,TRUE,f,f,NA,NA,NA,NA,6,"12,2,7,14,15,4,8,6,9,10,11,13,1,5,3"
14094,commdev-image-keyboard-response,486,986636,learnblock2,518,img/planet2_right.png,2,Community 1,NA,TRUE,j,j,NA,NA,NA,NA,6,"12,2,7,14,15,4,8,6,9,10,11,13,1,5,3"
14094,commdev-image-keyboard-response,487,987890,learnblock2,671.5999999046326,img/planet14_left.png,14,Community 1,NA,TRUE,f,f,NA,NA,NA,NA,6,"12,2,7,14,15,4,8,6,9,10,11,13,1,5,3"
14094,commdev-image-keyboard-response,488,989142,learnblock2,678.5,img/planet2_left.png,2,Community 1,NA,TRUE,f,f,NA,NA,NA,NA,6,"12,2,7,14,15,4,8,6,9,10,11,13,1,5,3"
14094,commdev-image-keyboard-response,489,990396,learnblock2,566.4000000953674,img/planet7_right.png,7,Community 1,NA,TRUE,j,j,NA,NA,NA,NA,6,"12,2,7,14,15,4,8,6,9,10,11,13,1,5,3"
14094,commdev-image-keyboard-response,490,991650,learnblock2,646.7000002861023,img/planet14_left.png,14,Community 1,NA,TRUE,f,f,NA,NA,NA,NA,6,"12,2,7,14,15,4,8,6,9,10,11,13,1,5,3"
14094,commdev-image-keyboard-response,491,992903,learnblock2,477.90000009536743,img/planet2_right.png,2,Community 1,NA,TRUE,j,j,NA,NA,NA,NA,6,"12,2,7,14,15,4,8,6,9,10,11,13,1,5,3"
14094,commdev-image-keyboard-response,492,994156,learnblock2,574.9000000953674,img/planet15_left.png,15,Community 1,NA,TRUE,f,f,NA,NA,NA,NA,6,"12,2,7,14,15,4,8,6,9,10,11,13,1,5,3"
14094,commdev-image-keyboard-response,493,995409,learnblock2,701.2000002861023,img/planet11_left.png,11,Community 3,NA,TRUE,f,f,NA,NA,NA,NA,6,"12,2,7,14,15,4,8,6,9,10,11,13,1,5,3"
14094,commdev-image-keyboard-response,494,996662,learnblock2,632.7999997138977,img/planet15_right.png,15,Community 1,NA,TRUE,j,j,NA,NA,NA,NA,6,"12,2,7,14,15,4,8,6,9,10,11,13,1,5,3"
14094,commdev-image-keyboard-response,495,997916,learnblock2,573.7999997138977,img/planet12_right.png,12,Community 1,NA,TRUE,j,j,NA,NA,NA,NA,6,"12,2,7,14,15,4,8,6,9,10,11,13,1,5,3"
14094,commdev-image-keyboard-response,496,999170,learnblock2,572.5999999046326,img/planet7_left.png,7,Community 1,NA,TRUE,f,f,NA,NA,NA,NA,6,"12,2,7,14,15,4,8,6,9,10,11,13,1,5,3"
14094,commdev-image-keyboard-response,497,1000423,learnblock2,702.3000001907349,img/planet15_right.png,15,Community 1,NA,TRUE,j,j,NA,NA,NA,NA,6,"12,2,7,14,15,4,8,6,9,10,11,13,1,5,3"
14094,commdev-image-keyboard-response,498,1001676,learnblock2,599,img/planet12_left.png,12,Community 1,NA,TRUE,f,f,NA,NA,NA,NA,6,"12,2,7,14,15,4,8,6,9,10,11,13,1,5,3"
14094,commdev-image-keyboard-response,499,1002928,learnblock2,718.0999999046326,img/planet14_right.png,14,Community 1,NA,TRUE,j,j,NA,NA,NA,NA,6,"12,2,7,14,15,4,8,6,9,10,11,13,1,5,3"
14094,commdev-image-keyboard-response,500,1004182,learnblock2,642.2000002861023,img/planet4_right.png,4,Community 2,NA,TRUE,j,j,NA,NA,NA,NA,6,"12,2,7,14,15,4,8,6,9,10,11,13,1,5,3"
14094,commdev-image-keyboard-response,501,1005435,learnblock2,620.7000002861023,img/planet8_right.png,8,Community 2,NA,TRUE,j,j,NA,NA,NA,NA,6,"12,2,7,14,15,4,8,6,9,10,11,13,1,5,3"
14094,commdev-image-keyboard-response,502,1006689,learnblock2,715.5,img/planet9_left.png,9,Community 2,NA,TRUE,f,f,NA,NA,NA,NA,6,"12,2,7,14,15,4,8,6,9,10,11,13,1,5,3"
14094,commdev-image-keyboard-response,503,1007942,learnblock2,673.9000000953674,img/planet4_left.png,4,Community 2,NA,TRUE,f,f,NA,NA,NA,NA,6,"12,2,7,14,15,4,8,6,9,10,11,13,1,5,3"
14094,commdev-image-keyboard-response,504,1009196,learnblock2,565.9000000953674,img/planet14_right.png,14,Community 1,NA,TRUE,j,j,NA,NA,NA,NA,6,"12,2,7,14,15,4,8,6,9,10,11,13,1,5,3"
14094,commdev-image-keyboard-response,505,1010450,learnblock2,590.5,img/planet2_left.png,2,Community 1,NA,TRUE,f,f,NA,NA,NA,NA,6,"12,2,7,14,15,4,8,6,9,10,11,13,1,5,3"
14094,commdev-image-keyboard-response,506,1011702,learnblock2,612.0999999046326,img/planet15_left.png,15,Community 1,NA,TRUE,f,f,NA,NA,NA,NA,6,"12,2,7,14,15,4,8,6,9,10,11,13,1,5,3"
14094,commdev-image-keyboard-response,507,1012955,learnblock2,631.4000000953674,img/planet11_left.png,11,Community 3,NA,TRUE,f,f,NA,NA,NA,NA,6,"12,2,7,14,15,4,8,6,9,10,11,13,1,5,3"
14094,commdev-image-keyboard-response,508,1014206,learnblock2,479.7999997138977,img/planet15_right.png,15,Community 1,NA,FALSE,f,j,NA,NA,NA,NA,6,"12,2,7,14,15,4,8,6,9,10,11,13,1,5,3"
14094,commdev-image-keyboard-response,509,1015459,learnblock2,610.9000000953674,img/planet7_right.png,7,Community 1,NA,TRUE,j,j,NA,NA,NA,NA,6,"12,2,7,14,15,4,8,6,9,10,11,13,1,5,3"
14094,commdev-image-keyboard-response,510,1016713,learnblock2,588.0999999046326,img/planet15_right.png,15,Community 1,NA,TRUE,j,j,NA,NA,NA,NA,6,"12,2,7,14,15,4,8,6,9,10,11,13,1,5,3"
14094,commdev-image-keyboard-response,511,1017967,learnblock2,592.8000001907349,img/planet11_left.png,11,Community 3,NA,TRUE,f,f,NA,NA,NA,NA,6,"12,2,7,14,15,4,8,6,9,10,11,13,1,5,3"
14094,commdev-image-keyboard-response,512,1019220,learnblock2,601.5,img/planet15_left.png,15,Community 1,NA,TRUE,f,f,NA,NA,NA,NA,6,"12,2,7,14,15,4,8,6,9,10,11,13,1,5,3"
14094,commdev-image-keyboard-response,513,1020472,learnblock2,487.40000009536743,img/planet12_right.png,12,Community 1,NA,TRUE,j,j,NA,NA,NA,NA,6,"12,2,7,14,15,4,8,6,9,10,11,13,1,5,3"
14094,commdev-image-keyboard-response,514,1021726,learnblock2,503.59999990463257,img/planet14_left.png,14,Community 1,NA,TRUE,f,f,NA,NA,NA,NA,6,"12,2,7,14,15,4,8,6,9,10,11,13,1,5,3"
14094,commdev-image-keyboard-response,515,1022978,learnblock2,553.4000000953674,img/planet2_left.png,2,Community 1,NA,TRUE,f,f,NA,NA,NA,NA,6,"12,2,7,14,15,4,8,6,9,10,11,13,1,5,3"
14094,commdev-image-keyboard-response,516,1024232,learnblock2,692.6999998092651,img/planet14_left.png,14,Community 1,NA,TRUE,f,f,NA,NA,NA,NA,6,"12,2,7,14,15,4,8,6,9,10,11,13,1,5,3"
14094,commdev-image-keyboard-response,517,1025485,learnblock2,652.5,img/planet7_left.png,7,Community 1,NA,TRUE,f,f,NA,NA,NA,NA,6,"12,2,7,14,15,4,8,6,9,10,11,13,1,5,3"
14094,commdev-image-keyboard-response,518,1026738,learnblock2,618.2999997138977,img/planet15_left.png,15,Community 1,NA,TRUE,f,f,NA,NA,NA,NA,6,"12,2,7,14,15,4,8,6,9,10,11,13,1,5,3"
14094,commdev-image-keyboard-response,519,1027992,learnblock2,513.5,img/planet7_right.png,7,Community 1,NA,TRUE,j,j,NA,NA,NA,NA,6,"12,2,7,14,15,4,8,6,9,10,11,13,1,5,3"
14094,commdev-image-keyboard-response,520,1029245,learnblock2,513.4000000953674,img/planet2_right.png,2,Community 1,NA,TRUE,j,j,NA,NA,NA,NA,6,"12,2,7,14,15,4,8,6,9,10,11,13,1,5,3"
14094,commdev-image-keyboard-response,521,1030498,learnblock2,591.7000002861023,img/planet14_left.png,14,Community 1,NA,TRUE,f,f,NA,NA,NA,NA,6,"12,2,7,14,15,4,8,6,9,10,11,13,1,5,3"
14094,commdev-image-keyboard-response,522,1031751,learnblock2,556.8000001907349,img/planet12_right.png,12,Community 1,NA,TRUE,j,j,NA,NA,NA,NA,6,"12,2,7,14,15,4,8,6,9,10,11,13,1,5,3"
14094,commdev-image-keyboard-response,523,1033003,learnblock2,697.5,img/planet7_left.png,7,Community 1,NA,TRUE,f,f,NA,NA,NA,NA,6,"12,2,7,14,15,4,8,6,9,10,11,13,1,5,3"
14094,commdev-image-keyboard-response,524,1034256,learnblock2,582.2000002861023,img/planet15_right.png,15,Community 1,NA,TRUE,j,j,NA,NA,NA,NA,6,"12,2,7,14,15,4,8,6,9,10,11,13,1,5,3"
14094,commdev-image-keyboard-response,525,1035509,learnblock2,534.5,img/planet2_left.png,2,Community 1,NA,TRUE,f,f,NA,NA,NA,NA,6,"12,2,7,14,15,4,8,6,9,10,11,13,1,5,3"
14094,commdev-image-keyboard-response,526,1036762,learnblock2,613.5,img/planet14_left.png,14,Community 1,NA,TRUE,f,f,NA,NA,NA,NA,6,"12,2,7,14,15,4,8,6,9,10,11,13,1,5,3"
14094,commdev-image-keyboard-response,527,1038015,learnblock2,546.6999998092651,img/planet2_right.png,2,Community 1,NA,TRUE,j,j,NA,NA,NA,NA,6,"12,2,7,14,15,4,8,6,9,10,11,13,1,5,3"
14094,commdev-image-keyboard-response,528,1039268,learnblock2,620.7999997138977,img/planet12_left.png,12,Community 1,NA,TRUE,f,f,NA,NA,NA,NA,6,"12,2,7,14,15,4,8,6,9,10,11,13,1,5,3"
14094,commdev-image-keyboard-response,529,1040520,learnblock2,583.6999998092651,img/planet2_right.png,2,Community 1,NA,TRUE,j,j,NA,NA,NA,NA,6,"12,2,7,14,15,4,8,6,9,10,11,13,1,5,3"
14094,commdev-image-keyboard-response,530,1041774,learnblock2,541.7999997138977,img/planet15_left.png,15,Community 1,NA,TRUE,f,f,NA,NA,NA,NA,6,"12,2,7,14,15,4,8,6,9,10,11,13,1,5,3"
14094,commdev-image-keyboard-response,531,1043027,learnblock2,578.7000002861023,img/planet2_left.png,2,Community 1,NA,TRUE,f,f,NA,NA,NA,NA,6,"12,2,7,14,15,4,8,6,9,10,11,13,1,5,3"
14094,commdev-image-keyboard-response,532,1044279,learnblock2,583.3999996185303,img/planet14_left.png,14,Community 1,NA,TRUE,f,f,NA,NA,NA,NA,6,"12,2,7,14,15,4,8,6,9,10,11,13,1,5,3"
14094,commdev-image-keyboard-response,533,1045531,learnblock2,560,img/planet2_left.png,2,Community 1,NA,TRUE,f,f,NA,NA,NA,NA,6,"12,2,7,14,15,4,8,6,9,10,11,13,1,5,3"
14094,commdev-image-keyboard-response,534,1046784,learnblock2,537.7999997138977,img/planet15_right.png,15,Community 1,NA,TRUE,j,j,NA,NA,NA,NA,6,"12,2,7,14,15,4,8,6,9,10,11,13,1,5,3"
14094,commdev-image-keyboard-response,535,1048037,learnblock2,573.9000000953674,img/planet11_right.png,11,Community 3,NA,TRUE,j,j,NA,NA,NA,NA,6,"12,2,7,14,15,4,8,6,9,10,11,13,1,5,3"
14094,commdev-image-keyboard-response,536,1049290,learnblock2,566.5,img/planet1_left.png,1,Community 3,NA,TRUE,f,f,NA,NA,NA,NA,6,"12,2,7,14,15,4,8,6,9,10,11,13,1,5,3"
14094,commdev-image-keyboard-response,537,1050542,learnblock2,677,img/planet3_left.png,3,Community 3,NA,TRUE,f,f,NA,NA,NA,NA,6,"12,2,7,14,15,4,8,6,9,10,11,13,1,5,3"
14094,commdev-image-keyboard-response,538,1051796,learnblock2,501.90000009536743,img/planet5_right.png,5,Community 3,NA,TRUE,j,j,NA,NA,NA,NA,6,"12,2,7,14,15,4,8,6,9,10,11,13,1,5,3"
14094,commdev-image-keyboard-response,539,1053048,learnblock2,633.2000002861023,img/planet3_right.png,3,Community 3,NA,FALSE,f,j,NA,NA,NA,NA,6,"12,2,7,14,15,4,8,6,9,10,11,13,1,5,3"
14094,commdev-image-keyboard-response,540,1054301,learnblock2,570.1000003814697,img/planet1_left.png,1,Community 3,NA,TRUE,f,f,NA,NA,NA,NA,6,"12,2,7,14,15,4,8,6,9,10,11,13,1,5,3"
14094,commdev-image-keyboard-response,541,1055555,learnblock2,556,img/planet3_right.png,3,Community 3,NA,FALSE,f,j,NA,NA,NA,NA,6,"12,2,7,14,15,4,8,6,9,10,11,13,1,5,3"
14094,commdev-image-keyboard-response,542,1056809,learnblock2,595.5,img/planet1_left.png,1,Community 3,NA,TRUE,f,f,NA,NA,NA,NA,6,"12,2,7,14,15,4,8,6,9,10,11,13,1,5,3"
14094,commdev-image-keyboard-response,543,1058062,learnblock2,507.90000009536743,img/planet13_right.png,13,Community 3,NA,TRUE,j,j,NA,NA,NA,NA,6,"12,2,7,14,15,4,8,6,9,10,11,13,1,5,3"
14094,commdev-image-keyboard-response,544,1059315,learnblock2,824.0999999046326,img/planet6_left.png,6,Community 2,NA,TRUE,f,f,NA,NA,NA,NA,6,"12,2,7,14,15,4,8,6,9,10,11,13,1,5,3"
14094,commdev-image-keyboard-response,545,1060567,learnblock2,667.1999998092651,img/planet13_left.png,13,Community 3,NA,TRUE,f,f,NA,NA,NA,NA,6,"12,2,7,14,15,4,8,6,9,10,11,13,1,5,3"
14094,commdev-image-keyboard-response,546,1061821,learnblock2,552.2000002861023,img/planet5_right.png,5,Community 3,NA,TRUE,j,j,NA,NA,NA,NA,6,"12,2,7,14,15,4,8,6,9,10,11,13,1,5,3"
14094,commdev-image-keyboard-response,547,1063075,learnblock2,584.8000001907349,img/planet11_left.png,11,Community 3,NA,TRUE,f,f,NA,NA,NA,NA,6,"12,2,7,14,15,4,8,6,9,10,11,13,1,5,3"
14094,commdev-image-keyboard-response,548,1064329,learnblock2,515.9000000953674,img/planet5_right.png,5,Community 3,NA,TRUE,j,j,NA,NA,NA,NA,6,"12,2,7,14,15,4,8,6,9,10,11,13,1,5,3"
14094,commdev-image-keyboard-response,549,1065582,learnblock2,613.7999997138977,img/planet3_right.png,3,Community 3,NA,TRUE,j,j,NA,NA,NA,NA,6,"12,2,7,14,15,4,8,6,9,10,11,13,1,5,3"
14094,commdev-image-keyboard-response,550,1066836,learnblock2,646.6999998092651,img/planet11_left.png,11,Community 3,NA,TRUE,f,f,NA,NA,NA,NA,6,"12,2,7,14,15,4,8,6,9,10,11,13,1,5,3"
14094,commdev-image-keyboard-response,551,1068088,learnblock2,837.9000000953674,img/planet3_left.png,3,Community 3,NA,TRUE,f,f,NA,NA,NA,NA,6,"12,2,7,14,15,4,8,6,9,10,11,13,1,5,3"
14094,commdev-image-keyboard-response,552,1069341,learnblock2,603.0999999046326,img/planet1_right.png,1,Community 3,NA,TRUE,j,j,NA,NA,NA,NA,6,"12,2,7,14,15,4,8,6,9,10,11,13,1,5,3"
14094,commdev-image-keyboard-response,553,1070595,learnblock2,701.9000000953674,img/planet11_right.png,11,Community 3,NA,TRUE,j,j,NA,NA,NA,NA,6,"12,2,7,14,15,4,8,6,9,10,11,13,1,5,3"
14094,commdev-image-keyboard-response,554,1071847,learnblock2,610.4000000953674,img/planet1_right.png,1,Community 3,NA,TRUE,j,j,NA,NA,NA,NA,6,"12,2,7,14,15,4,8,6,9,10,11,13,1,5,3"
14094,commdev-image-keyboard-response,555,1073101,learnblock2,726.0999999046326,img/planet3_left.png,3,Community 3,NA,TRUE,f,f,NA,NA,NA,NA,6,"12,2,7,14,15,4,8,6,9,10,11,13,1,5,3"
14094,commdev-image-keyboard-response,556,1074354,learnblock2,519.5,img/planet11_right.png,11,Community 3,NA,TRUE,j,j,NA,NA,NA,NA,6,"12,2,7,14,15,4,8,6,9,10,11,13,1,5,3"
14094,commdev-image-keyboard-response,557,1075607,learnblock2,721.8999996185303,img/planet1_left.png,1,Community 3,NA,TRUE,f,f,NA,NA,NA,NA,6,"12,2,7,14,15,4,8,6,9,10,11,13,1,5,3"
14094,commdev-image-keyboard-response,558,1076859,learnblock2,759.7000002861023,img/planet3_left.png,3,Community 3,NA,TRUE,f,f,NA,NA,NA,NA,6,"12,2,7,14,15,4,8,6,9,10,11,13,1,5,3"
14094,commdev-image-keyboard-response,559,1078112,learnblock2,600.0999999046326,img/planet5_left.png,5,Community 3,NA,TRUE,f,f,NA,NA,NA,NA,6,"12,2,7,14,15,4,8,6,9,10,11,13,1,5,3"
14094,commdev-image-keyboard-response,560,1079365,learnblock2,543.5,img/planet11_right.png,11,Community 3,NA,TRUE,j,j,NA,NA,NA,NA,6,"12,2,7,14,15,4,8,6,9,10,11,13,1,5,3"
14094,commdev-image-keyboard-response,561,1080619,learnblock2,535.6999998092651,img/planet1_right.png,1,Community 3,NA,TRUE,j,j,NA,NA,NA,NA,6,"12,2,7,14,15,4,8,6,9,10,11,13,1,5,3"
14094,commdev-image-keyboard-response,562,1081871,learnblock2,585.5,img/planet3_left.png,3,Community 3,NA,FALSE,j,f,NA,NA,NA,NA,6,"12,2,7,14,15,4,8,6,9,10,11,13,1,5,3"
14094,commdev-image-keyboard-response,563,1083124,learnblock2,592.7999997138977,img/planet5_left.png,5,Community 3,NA,TRUE,f,f,NA,NA,NA,NA,6,"12,2,7,14,15,4,8,6,9,10,11,13,1,5,3"
14094,commdev-image-keyboard-response,564,1084376,learnblock2,553.5,img/planet1_right.png,1,Community 3,NA,TRUE,j,j,NA,NA,NA,NA,6,"12,2,7,14,15,4,8,6,9,10,11,13,1,5,3"
14094,commdev-image-keyboard-response,565,1085630,learnblock2,553,img/planet5_left.png,5,Community 3,NA,TRUE,f,f,NA,NA,NA,NA,6,"12,2,7,14,15,4,8,6,9,10,11,13,1,5,3"
14094,commdev-image-keyboard-response,566,1086883,learnblock2,561.4000000953674,img/planet1_left.png,1,Community 3,NA,TRUE,f,f,NA,NA,NA,NA,6,"12,2,7,14,15,4,8,6,9,10,11,13,1,5,3"
14094,commdev-image-keyboard-response,567,1088137,learnblock2,560,img/planet5_left.png,5,Community 3,NA,TRUE,f,f,NA,NA,NA,NA,6,"12,2,7,14,15,4,8,6,9,10,11,13,1,5,3"
14094,commdev-image-keyboard-response,568,1089389,learnblock2,523.8000001907349,img/planet1_right.png,1,Community 3,NA,TRUE,j,j,NA,NA,NA,NA,6,"12,2,7,14,15,4,8,6,9,10,11,13,1,5,3"
14094,commdev-image-keyboard-response,569,1090643,learnblock2,597.2000002861023,img/planet11_right.png,11,Community 3,NA,TRUE,j,j,NA,NA,NA,NA,6,"12,2,7,14,15,4,8,6,9,10,11,13,1,5,3"
14094,commdev-image-keyboard-response,570,1091896,learnblock2,684.8999996185303,img/planet3_right.png,3,Community 3,NA,TRUE,j,j,NA,NA,NA,NA,6,"12,2,7,14,15,4,8,6,9,10,11,13,1,5,3"
14094,commdev-image-keyboard-response,571,1093150,learnblock2,535.1000003814697,img/planet11_right.png,11,Community 3,NA,TRUE,j,j,NA,NA,NA,NA,6,"12,2,7,14,15,4,8,6,9,10,11,13,1,5,3"
14094,commdev-image-keyboard-response,572,1094402,learnblock2,619.4000000953674,img/planet5_left.png,5,Community 3,NA,TRUE,f,f,NA,NA,NA,NA,6,"12,2,7,14,15,4,8,6,9,10,11,13,1,5,3"
14094,commdev-image-keyboard-response,573,1095655,learnblock2,508.80000019073486,img/planet13_right.png,13,Community 3,NA,TRUE,j,j,NA,NA,NA,NA,6,"12,2,7,14,15,4,8,6,9,10,11,13,1,5,3"
14094,commdev-image-keyboard-response,574,1096908,learnblock2,573.2000002861023,img/planet1_right.png,1,Community 3,NA,TRUE,j,j,NA,NA,NA,NA,6,"12,2,7,14,15,4,8,6,9,10,11,13,1,5,3"
14094,commdev-image-keyboard-response,575,1098161,learnblock2,533,img/planet11_left.png,11,Community 3,NA,TRUE,f,f,NA,NA,NA,NA,6,"12,2,7,14,15,4,8,6,9,10,11,13,1,5,3"
14094,commdev-image-keyboard-response,576,1099414,learnblock2,540.6999998092651,img/planet1_left.png,1,Community 3,NA,TRUE,f,f,NA,NA,NA,NA,6,"12,2,7,14,15,4,8,6,9,10,11,13,1,5,3"
14094,commdev-image-keyboard-response,577,1100666,learnblock2,593,img/planet5_left.png,5,Community 3,NA,TRUE,f,f,NA,NA,NA,NA,6,"12,2,7,14,15,4,8,6,9,10,11,13,1,5,3"
14094,commdev-image-keyboard-response,578,1101920,learnblock2,711.3000001907349,img/planet1_left.png,1,Community 3,NA,TRUE,f,f,NA,NA,NA,NA,6,"12,2,7,14,15,4,8,6,9,10,11,13,1,5,3"
14094,commdev-image-keyboard-response,579,1103173,learnblock2,650.4000000953674,img/planet5_left.png,5,Community 3,NA,TRUE,f,f,NA,NA,NA,NA,6,"12,2,7,14,15,4,8,6,9,10,11,13,1,5,3"
14094,commdev-image-keyboard-response,580,1104426,learnblock2,537.6999998092651,img/planet13_right.png,13,Community 3,NA,TRUE,j,j,NA,NA,NA,NA,6,"12,2,7,14,15,4,8,6,9,10,11,13,1,5,3"
14094,commdev-image-keyboard-response,581,1105680,learnblock2,602.7999997138977,img/planet5_right.png,5,Community 3,NA,TRUE,j,j,NA,NA,NA,NA,6,"12,2,7,14,15,4,8,6,9,10,11,13,1,5,3"
14094,commdev-image-keyboard-response,582,1106933,learnblock2,565.7999997138977,img/planet11_left.png,11,Community 3,NA,TRUE,f,f,NA,NA,NA,NA,6,"12,2,7,14,15,4,8,6,9,10,11,13,1,5,3"
14094,commdev-image-keyboard-response,583,1108187,learnblock2,525.1999998092651,img/planet1_right.png,1,Community 3,NA,TRUE,j,j,NA,NA,NA,NA,6,"12,2,7,14,15,4,8,6,9,10,11,13,1,5,3"
