subject_id,trial_type,trial_index,time_elapsed,block,rt,stimulus,planet,community,response,correct,key_press,learning_correct_response,parse,init_locations,final_locations,browser_interactions,num_comp,planet_map
15536,commdev-instructions,7,110610,NA,1869.9000000357628,"<p>In this game, you will be shown a 3x3 grid of patterns.</p> <p>The last one in the bottom right-hand corner, <strong>will be missing:</strong></p> <div style='width: 700px;'><div style='float: top;'><img style='width: 200px;' src='practice/p1_M1.png'></img><p class='small'>You need to select<strong> which of the four possible patterns </strong>along the bottom<strong> fits into the gap:</strong></p></div><div style='float: top;'><img style='width: 300px;' src='practice/p1_T1.png'></img></div><br>",NA,NA,NA,NA,NA,NA,NA,NA,NA,25,6,"7,11,13,12,3,4,9,1,15,14,5,10,6,2,8"
15536,commdev-instructions,8,129689,NA,880.6000000238419,"<p>Try to be as fast and as accurate as you can be.</p> <p>If you cannot solve the puzzle then you should guess - you will not be penalised for an incorrect answer.</p> <p>The task contains a shuffled mix of easy, medium and hard puzzles.</p> <p>You will have <strong>30 seconds</strong> to complete each puzzle.</p><br>",NA,NA,NA,NA,NA,NA,NA,NA,NA,25,6,"7,11,13,12,3,4,9,1,15,14,5,10,6,2,8"
15536,commdev-instructions,19,180489,NA,1965.300000011921,<p><strong>Success!</strong></p> <p>You seem to be getting the hang of this...</p> <p>Let's move on to the real trials.</p><br>,NA,NA,NA,NA,NA,NA,NA,NA,NA,25,6,"7,11,13,12,3,4,9,1,15,14,5,10,6,2,8"
15536,commdev-instructions,81,805956,NA,133263,"<p>In this game, you are a scientist on board a space shuttle. </p><p> On each mission, you will visit planets all across the universe.</p><img src=""img/controlroom.jpg"" width=300vw>",NA,NA,NA,NA,NA,NA,NA,NA,NA,25,6,"7,11,13,12,3,4,9,1,15,14,5,10,6,2,8"
15536,commdev-instructions,82,821569,NA,13227.300000011921,"<p>Here are a few planets you might see:</p><img src=""img/practice1.png"" width=200vw><img src=""img/practice2.png"" width=200vw><img src=""img/practice3.png"" width=200vw>",NA,NA,NA,NA,NA,NA,NA,NA,NA,25,6,"7,11,13,12,3,4,9,1,15,14,5,10,6,2,8"
15536,commdev-instructions,83,854321,NA,25348.899999976158,"<p>Your job as a scientist is to record which direction the winds are moving on each planet.</p><p>There are two types of wind directions:</p><img src=""img/practice1_left.png"" width=200vw><img src=""img/practice1_right.png"" width=200vw>",NA,NA,NA,NA,NA,NA,NA,NA,NA,25,6,"7,11,13,12,3,4,9,1,15,14,5,10,6,2,8"
15536,commdev-instructions,84,860233,NA,1022.0999999642372,"<p>If the winds are moving this way, press the letter <strong>F</strong> on the keyboard as fast as you can.</p><img src=""img/leftwind.png"" width=250vw>",NA,NA,NA,NA,NA,NA,NA,NA,NA,25,6,"7,11,13,12,3,4,9,1,15,14,5,10,6,2,8"
15536,commdev-instructions,85,865385,NA,643.8000000119209,"<p>If the winds are moving this way, press the letter <strong>J</strong> on the keyboard as fast as you can.</p><img src=""img/rightwind.png"" width=350vw>",NA,NA,NA,NA,NA,NA,NA,NA,NA,25,6,"7,11,13,12,3,4,9,1,15,14,5,10,6,2,8"
15536,commdev-instructions,86,871585,NA,1783.9000000357628,<p>You will have 1 second to respond. Try to respond before the time runs out!,NA,NA,NA,NA,NA,NA,NA,NA,NA,25,6,"7,11,13,12,3,4,9,1,15,14,5,10,6,2,8"
15536,commdev-instructions,87,878666,NA,1643.699999988079,<p>The planets you will visit will look different from each other.</p><p>You should respond <strong>only</strong> based on wind direction.,NA,NA,NA,NA,NA,NA,NA,NA,NA,25,6,"7,11,13,12,3,4,9,1,15,14,5,10,6,2,8"
15536,commdev-instructions,88,884547,NA,714.8999999761581,"<p> Ready to start the practice round? </p><p> Remember, press <strong>F</strong> or <strong>J</strong> depending on the wind direction.<br><img src=""img/categorize_planet_example.png""",NA,NA,NA,NA,NA,NA,NA,NA,NA,25,6,"7,11,13,12,3,4,9,1,15,14,5,10,6,2,8"
15536,commdev-instructions,100,946881,NA,2098.800000011921,"<p>Great, now try a short practice mission. </p><p> This time, you will have 1 second to respond and you won't know whether you pressed the right or wrong key for each planet.</p>",NA,NA,NA,NA,NA,NA,NA,NA,NA,25,6,"7,11,13,12,3,4,9,1,15,14,5,10,6,2,8"
15536,commdev-image-keyboard-response,101,948249,practice,null,img/practice3_right.png,NA,Number not found in mappings,NA,FALSE,null,j,NA,NA,NA,25,6,"7,11,13,12,3,4,9,1,15,14,5,10,6,2,8"
15536,commdev-image-keyboard-response,102,949513,practice,998.1000000238419,img/practice2_left.png,NA,Number not found in mappings,NA,TRUE,f,f,NA,NA,NA,25,6,"7,11,13,12,3,4,9,1,15,14,5,10,6,2,8"
15536,commdev-image-keyboard-response,103,950776,practice,893.6999999880791,img/practice1_left.png,NA,Number not found in mappings,NA,FALSE,j,f,NA,NA,NA,25,6,"7,11,13,12,3,4,9,1,15,14,5,10,6,2,8"
15536,commdev-image-keyboard-response,104,952030,practice,811.8000000119209,img/practice4_right.png,NA,Number not found in mappings,NA,TRUE,j,j,NA,NA,NA,25,6,"7,11,13,12,3,4,9,1,15,14,5,10,6,2,8"
15536,commdev-image-keyboard-response,105,953286,practice,1255.5,img/practice2_left.png,NA,Number not found in mappings,NA,TRUE,f,f,NA,NA,NA,25,6,"7,11,13,12,3,4,9,1,15,14,5,10,6,2,8"
15536,commdev-image-keyboard-response,106,954543,practice,952.3999999761581,img/practice1_left.png,NA,Number not found in mappings,NA,FALSE,j,f,NA,NA,NA,25,6,"7,11,13,12,3,4,9,1,15,14,5,10,6,2,8"
15536,commdev-image-keyboard-response,107,955806,practice,849.8000000119209,img/practice2_left.png,NA,Number not found in mappings,NA,FALSE,j,f,NA,NA,NA,25,6,"7,11,13,12,3,4,9,1,15,14,5,10,6,2,8"
15536,commdev-image-keyboard-response,108,957070,practice,800.5999999642372,img/practice3_left.png,NA,Number not found in mappings,NA,FALSE,j,f,NA,NA,NA,25,6,"7,11,13,12,3,4,9,1,15,14,5,10,6,2,8"
15536,commdev-instructions,109,1042649,NA,76027.69999998808,"<p>Great job with the practice round.</p><p>During real missions, you won't know whether you pressed the right or wrong key for each planet.</p><p>But between missions, we will tell you how you did overall.</p>",NA,NA,NA,NA,NA,NA,NA,NA,NA,25,6,"7,11,13,12,3,4,9,1,15,14,5,10,6,2,8"
15536,commdev-instructions,110,1053025,NA,1819.5,<p>Try your best! You will be paid a bonus based on how many correct responses you make!</p><p>Responses that are too slow will not count toward your bonus.</p>,NA,NA,NA,NA,NA,NA,NA,NA,NA,25,6,"7,11,13,12,3,4,9,1,15,14,5,10,6,2,8"
15536,commdev-instructions,111,1060185,NA,960.1999999880791,"<p>You are almost ready to start the real game.</p><p> First, we are going to ask you some questions about how the game works.</p>",NA,NA,NA,NA,NA,NA,NA,NA,NA,25,6,"7,11,13,12,3,4,9,1,15,14,5,10,6,2,8"
15536,commdev-instructions,120,1148857,NA,3960.899999976158,"<p> Nice work! It is now time to start the real game.<p></p>You will go on two missions to record wind directions of different planets.<p></p>Each one will take about 5 minutes. You will get to take a break between missions.<p><p> Remember, press <strong>F</strong> or <strong>J</strong> depending on the wind direction. Good luck!<br><img src=""img/categorize_planet_example.png""",NA,NA,NA,NA,NA,NA,NA,NA,NA,25,6,"7,11,13,12,3,4,9,1,15,14,5,10,6,2,8"
15536,commdev-image-keyboard-response,122,1152771,learnblock1,null,img/planet15_right.png,15,Community 2,NA,FALSE,null,j,NA,NA,NA,25,6,"7,11,13,12,3,4,9,1,15,14,5,10,6,2,8"
15536,commdev-image-keyboard-response,123,1154031,learnblock1,980.3999999761581,img/planet14_right.png,14,Community 2,NA,TRUE,j,j,NA,NA,NA,25,6,"7,11,13,12,3,4,9,1,15,14,5,10,6,2,8"
15536,commdev-image-keyboard-response,124,1155283,learnblock1,606.9000000357628,img/planet1_right.png,1,Community 2,NA,TRUE,j,j,NA,NA,NA,25,6,"7,11,13,12,3,4,9,1,15,14,5,10,6,2,8"
15536,commdev-image-keyboard-response,125,1156543,learnblock1,521.6000000238419,img/planet15_left.png,15,Community 2,NA,FALSE,j,f,NA,NA,NA,25,6,"7,11,13,12,3,4,9,1,15,14,5,10,6,2,8"
15536,commdev-image-keyboard-response,126,1157806,learnblock1,728.4000000357628,img/planet14_right.png,14,Community 2,NA,TRUE,j,j,NA,NA,NA,25,6,"7,11,13,12,3,4,9,1,15,14,5,10,6,2,8"
15536,commdev-image-keyboard-response,127,1159070,learnblock1,616.7000000476837,img/planet4_right.png,4,Community 2,NA,TRUE,j,j,NA,NA,NA,25,6,"7,11,13,12,3,4,9,1,15,14,5,10,6,2,8"
15536,commdev-image-keyboard-response,128,1160330,learnblock1,576.1999999880791,img/planet14_left.png,14,Community 2,NA,TRUE,f,f,NA,NA,NA,25,6,"7,11,13,12,3,4,9,1,15,14,5,10,6,2,8"
15536,commdev-image-keyboard-response,129,1161594,learnblock1,514.8999999761581,img/planet1_right.png,1,Community 2,NA,TRUE,j,j,NA,NA,NA,25,6,"7,11,13,12,3,4,9,1,15,14,5,10,6,2,8"
15536,commdev-image-keyboard-response,130,1162860,learnblock1,661.8999999761581,img/planet15_left.png,15,Community 2,NA,TRUE,f,f,NA,NA,NA,25,6,"7,11,13,12,3,4,9,1,15,14,5,10,6,2,8"
15536,commdev-image-keyboard-response,131,1164112,learnblock1,513.6000000238419,img/planet1_right.png,1,Community 2,NA,TRUE,j,j,NA,NA,NA,25,6,"7,11,13,12,3,4,9,1,15,14,5,10,6,2,8"
15536,commdev-image-keyboard-response,132,1165373,learnblock1,678.8000000119209,img/planet14_left.png,14,Community 2,NA,TRUE,f,f,NA,NA,NA,25,6,"7,11,13,12,3,4,9,1,15,14,5,10,6,2,8"
15536,commdev-image-keyboard-response,133,1166634,learnblock1,899.5,img/planet4_left.png,4,Community 2,NA,FALSE,j,f,NA,NA,NA,25,6,"7,11,13,12,3,4,9,1,15,14,5,10,6,2,8"
15536,commdev-image-keyboard-response,134,1167898,learnblock1,1187.6000000238419,img/planet9_right.png,9,Community 2,NA,FALSE,f,j,NA,NA,NA,25,6,"7,11,13,12,3,4,9,1,15,14,5,10,6,2,8"
15536,commdev-image-keyboard-response,135,1169164,learnblock1,null,img/planet14_right.png,14,Community 2,NA,FALSE,null,j,NA,NA,NA,25,6,"7,11,13,12,3,4,9,1,15,14,5,10,6,2,8"
15536,commdev-image-keyboard-response,136,1170425,learnblock1,45.69999998807907,img/planet4_right.png,4,Community 2,NA,TRUE,j,j,NA,NA,NA,25,6,"7,11,13,12,3,4,9,1,15,14,5,10,6,2,8"
15536,commdev-image-keyboard-response,137,1171687,learnblock1,871.1999999880791,img/planet14_left.png,14,Community 2,NA,TRUE,f,f,NA,NA,NA,25,6,"7,11,13,12,3,4,9,1,15,14,5,10,6,2,8"
15536,commdev-image-keyboard-response,138,1172953,learnblock1,660.4000000357628,img/planet9_right.png,9,Community 2,NA,TRUE,j,j,NA,NA,NA,25,6,"7,11,13,12,3,4,9,1,15,14,5,10,6,2,8"
15536,commdev-image-keyboard-response,139,1174213,learnblock1,679.5,img/planet15_left.png,15,Community 2,NA,TRUE,f,f,NA,NA,NA,25,6,"7,11,13,12,3,4,9,1,15,14,5,10,6,2,8"
15536,commdev-image-keyboard-response,140,1175464,learnblock1,null,img/planet4_left.png,4,Community 2,NA,FALSE,null,f,NA,NA,NA,25,6,"7,11,13,12,3,4,9,1,15,14,5,10,6,2,8"
15536,commdev-image-keyboard-response,141,1176717,learnblock1,17,img/planet9_left.png,9,Community 2,NA,FALSE,j,f,NA,NA,NA,25,6,"7,11,13,12,3,4,9,1,15,14,5,10,6,2,8"
15536,commdev-image-keyboard-response,142,1177968,learnblock1,1089,img/planet4_right.png,4,Community 2,NA,TRUE,j,j,NA,NA,NA,25,6,"7,11,13,12,3,4,9,1,15,14,5,10,6,2,8"
15536,commdev-image-keyboard-response,143,1179220,learnblock1,852.9000000357628,img/planet15_left.png,15,Community 2,NA,TRUE,f,f,NA,NA,NA,25,6,"7,11,13,12,3,4,9,1,15,14,5,10,6,2,8"
15536,commdev-image-keyboard-response,144,1180471,learnblock1,837.5999999642372,img/planet4_left.png,4,Community 2,NA,TRUE,f,f,NA,NA,NA,25,6,"7,11,13,12,3,4,9,1,15,14,5,10,6,2,8"
15536,commdev-image-keyboard-response,145,1181723,learnblock1,810.5,img/planet14_left.png,14,Community 2,NA,TRUE,f,f,NA,NA,NA,25,6,"7,11,13,12,3,4,9,1,15,14,5,10,6,2,8"
15536,commdev-image-keyboard-response,146,1182975,learnblock1,962.3999999761581,img/planet9_right.png,9,Community 2,NA,TRUE,j,j,NA,NA,NA,25,6,"7,11,13,12,3,4,9,1,15,14,5,10,6,2,8"
15536,commdev-image-keyboard-response,147,1184227,learnblock1,1101,img/planet4_right.png,4,Community 2,NA,FALSE,f,j,NA,NA,NA,25,6,"7,11,13,12,3,4,9,1,15,14,5,10,6,2,8"
15536,commdev-image-keyboard-response,148,1185479,learnblock1,1149.800000011921,img/planet12_right.png,12,Community 1,NA,FALSE,f,j,NA,NA,NA,25,6,"7,11,13,12,3,4,9,1,15,14,5,10,6,2,8"
15536,commdev-image-keyboard-response,149,1186730,learnblock1,158.69999998807907,img/planet11_right.png,11,Community 1,NA,TRUE,j,j,NA,NA,NA,25,6,"7,11,13,12,3,4,9,1,15,14,5,10,6,2,8"
15536,commdev-image-keyboard-response,150,1187981,learnblock1,1086.5999999642372,img/planet13_right.png,13,Community 1,NA,TRUE,j,j,NA,NA,NA,25,6,"7,11,13,12,3,4,9,1,15,14,5,10,6,2,8"
15536,commdev-image-keyboard-response,151,1189233,learnblock1,608.5,img/planet7_right.png,7,Community 1,NA,TRUE,j,j,NA,NA,NA,25,6,"7,11,13,12,3,4,9,1,15,14,5,10,6,2,8"
15536,commdev-image-keyboard-response,152,1190485,learnblock1,687.3000000119209,img/planet12_left.png,12,Community 1,NA,TRUE,f,f,NA,NA,NA,25,6,"7,11,13,12,3,4,9,1,15,14,5,10,6,2,8"
15536,commdev-image-keyboard-response,153,1191738,learnblock1,598.3000000119209,img/planet4_left.png,4,Community 2,NA,FALSE,j,f,NA,NA,NA,25,6,"7,11,13,12,3,4,9,1,15,14,5,10,6,2,8"
15536,commdev-image-keyboard-response,154,1193000,learnblock1,717.9000000357628,img/planet9_left.png,9,Community 2,NA,FALSE,j,f,NA,NA,NA,25,6,"7,11,13,12,3,4,9,1,15,14,5,10,6,2,8"
15536,commdev-image-keyboard-response,155,1194252,learnblock1,null,img/planet1_right.png,1,Community 2,NA,FALSE,null,j,NA,NA,NA,25,6,"7,11,13,12,3,4,9,1,15,14,5,10,6,2,8"
15536,commdev-image-keyboard-response,156,1195503,learnblock1,106.40000003576279,img/planet10_left.png,10,Community 3,NA,FALSE,j,f,NA,NA,NA,25,6,"7,11,13,12,3,4,9,1,15,14,5,10,6,2,8"
15536,commdev-image-keyboard-response,157,1196755,learnblock1,1124,img/planet6_right.png,6,Community 3,NA,TRUE,j,j,NA,NA,NA,25,6,"7,11,13,12,3,4,9,1,15,14,5,10,6,2,8"
15536,commdev-image-keyboard-response,158,1198007,learnblock1,818,img/planet5_left.png,5,Community 3,NA,TRUE,f,f,NA,NA,NA,25,6,"7,11,13,12,3,4,9,1,15,14,5,10,6,2,8"
15536,commdev-image-keyboard-response,159,1199259,learnblock1,525.1000000238419,img/planet8_right.png,8,Community 3,NA,TRUE,j,j,NA,NA,NA,25,6,"7,11,13,12,3,4,9,1,15,14,5,10,6,2,8"
15536,commdev-image-keyboard-response,160,1200511,learnblock1,888.5999999642372,img/planet6_left.png,6,Community 3,NA,FALSE,j,f,NA,NA,NA,25,6,"7,11,13,12,3,4,9,1,15,14,5,10,6,2,8"
15536,commdev-image-keyboard-response,161,1201762,learnblock1,1073.2000000476837,img/planet5_right.png,5,Community 3,NA,FALSE,f,j,NA,NA,NA,25,6,"7,11,13,12,3,4,9,1,15,14,5,10,6,2,8"
15536,commdev-image-keyboard-response,162,1203015,learnblock1,null,img/planet2_left.png,2,Community 3,NA,FALSE,null,f,NA,NA,NA,25,6,"7,11,13,12,3,4,9,1,15,14,5,10,6,2,8"
15536,commdev-image-keyboard-response,163,1204266,learnblock1,null,img/planet10_left.png,10,Community 3,NA,FALSE,null,f,NA,NA,NA,25,6,"7,11,13,12,3,4,9,1,15,14,5,10,6,2,8"
15536,commdev-image-keyboard-response,164,1205518,learnblock1,651.1999999880791,img/planet1_right.png,1,Community 2,NA,TRUE,j,j,NA,NA,NA,25,6,"7,11,13,12,3,4,9,1,15,14,5,10,6,2,8"
15536,commdev-image-keyboard-response,165,1206769,learnblock1,1245.1000000238419,img/planet14_right.png,14,Community 2,NA,TRUE,j,j,NA,NA,NA,25,6,"7,11,13,12,3,4,9,1,15,14,5,10,6,2,8"
15536,commdev-image-keyboard-response,166,1208021,learnblock1,1027.1000000238419,img/planet9_right.png,9,Community 2,NA,TRUE,j,j,NA,NA,NA,25,6,"7,11,13,12,3,4,9,1,15,14,5,10,6,2,8"
15536,commdev-image-keyboard-response,167,1209278,learnblock1,806,img/planet1_left.png,1,Community 2,NA,TRUE,f,f,NA,NA,NA,25,6,"7,11,13,12,3,4,9,1,15,14,5,10,6,2,8"
15536,commdev-image-keyboard-response,168,1210529,learnblock1,864.1000000238419,img/planet10_right.png,10,Community 3,NA,TRUE,j,j,NA,NA,NA,25,6,"7,11,13,12,3,4,9,1,15,14,5,10,6,2,8"
15536,commdev-image-keyboard-response,169,1211781,learnblock1,1025.8999999761581,img/planet6_right.png,6,Community 3,NA,TRUE,j,j,NA,NA,NA,25,6,"7,11,13,12,3,4,9,1,15,14,5,10,6,2,8"
15536,commdev-image-keyboard-response,170,1213033,learnblock1,828.9000000357628,img/planet2_left.png,2,Community 3,NA,TRUE,f,f,NA,NA,NA,25,6,"7,11,13,12,3,4,9,1,15,14,5,10,6,2,8"
15536,commdev-image-keyboard-response,171,1214285,learnblock1,777.6000000238419,img/planet5_right.png,5,Community 3,NA,TRUE,j,j,NA,NA,NA,25,6,"7,11,13,12,3,4,9,1,15,14,5,10,6,2,8"
15536,commdev-image-keyboard-response,172,1215536,learnblock1,1006,img/planet8_left.png,8,Community 3,NA,FALSE,j,f,NA,NA,NA,25,6,"7,11,13,12,3,4,9,1,15,14,5,10,6,2,8"
15536,commdev-image-keyboard-response,173,1216787,learnblock1,1053.3999999761581,img/planet2_right.png,2,Community 3,NA,TRUE,j,j,NA,NA,NA,25,6,"7,11,13,12,3,4,9,1,15,14,5,10,6,2,8"
15536,commdev-image-keyboard-response,174,1218040,learnblock1,724.8000000119209,img/planet6_left.png,6,Community 3,NA,TRUE,f,f,NA,NA,NA,25,6,"7,11,13,12,3,4,9,1,15,14,5,10,6,2,8"
15536,commdev-image-keyboard-response,175,1219292,learnblock1,640,img/planet10_right.png,10,Community 3,NA,TRUE,j,j,NA,NA,NA,25,6,"7,11,13,12,3,4,9,1,15,14,5,10,6,2,8"
15536,commdev-image-keyboard-response,176,1220544,learnblock1,833.4000000357628,img/planet1_right.png,1,Community 2,NA,TRUE,j,j,NA,NA,NA,25,6,"7,11,13,12,3,4,9,1,15,14,5,10,6,2,8"
15536,commdev-image-keyboard-response,177,1221796,learnblock1,861.1999999880791,img/planet14_right.png,14,Community 2,NA,TRUE,j,j,NA,NA,NA,25,6,"7,11,13,12,3,4,9,1,15,14,5,10,6,2,8"
15536,commdev-image-keyboard-response,178,1223048,learnblock1,787.6999999880791,img/planet15_left.png,15,Community 2,NA,TRUE,f,f,NA,NA,NA,25,6,"7,11,13,12,3,4,9,1,15,14,5,10,6,2,8"
15536,commdev-image-keyboard-response,179,1224300,learnblock1,755.6000000238419,img/planet14_right.png,14,Community 2,NA,TRUE,j,j,NA,NA,NA,25,6,"7,11,13,12,3,4,9,1,15,14,5,10,6,2,8"
15536,commdev-image-keyboard-response,180,1225551,learnblock1,652.6000000238419,img/planet9_left.png,9,Community 2,NA,FALSE,j,f,NA,NA,NA,25,6,"7,11,13,12,3,4,9,1,15,14,5,10,6,2,8"
15536,commdev-image-keyboard-response,181,1226803,learnblock1,null,img/planet14_left.png,14,Community 2,NA,FALSE,null,f,NA,NA,NA,25,6,"7,11,13,12,3,4,9,1,15,14,5,10,6,2,8"
15536,commdev-image-keyboard-response,182,1228054,learnblock1,892.6999999880791,img/planet9_left.png,9,Community 2,NA,TRUE,f,f,NA,NA,NA,25,6,"7,11,13,12,3,4,9,1,15,14,5,10,6,2,8"
15536,commdev-image-keyboard-response,183,1229305,learnblock1,793.1000000238419,img/planet1_right.png,1,Community 2,NA,TRUE,j,j,NA,NA,NA,25,6,"7,11,13,12,3,4,9,1,15,14,5,10,6,2,8"
15536,commdev-image-keyboard-response,184,1230557,learnblock1,782.5,img/planet14_right.png,14,Community 2,NA,FALSE,f,j,NA,NA,NA,25,6,"7,11,13,12,3,4,9,1,15,14,5,10,6,2,8"
15536,commdev-image-keyboard-response,185,1231809,learnblock1,651,img/planet4_left.png,4,Community 2,NA,FALSE,j,f,NA,NA,NA,25,6,"7,11,13,12,3,4,9,1,15,14,5,10,6,2,8"
15536,commdev-image-keyboard-response,186,1233061,learnblock1,null,img/planet14_left.png,14,Community 2,NA,FALSE,null,f,NA,NA,NA,25,6,"7,11,13,12,3,4,9,1,15,14,5,10,6,2,8"
15536,commdev-image-keyboard-response,187,1234313,learnblock1,null,img/planet4_right.png,4,Community 2,NA,FALSE,null,j,NA,NA,NA,25,6,"7,11,13,12,3,4,9,1,15,14,5,10,6,2,8"
15536,commdev-image-keyboard-response,188,1235565,learnblock1,47.5,img/planet14_right.png,14,Community 2,NA,TRUE,j,j,NA,NA,NA,25,6,"7,11,13,12,3,4,9,1,15,14,5,10,6,2,8"
15536,commdev-image-keyboard-response,189,1236816,learnblock1,861.2000000476837,img/planet4_left.png,4,Community 2,NA,TRUE,f,f,NA,NA,NA,25,6,"7,11,13,12,3,4,9,1,15,14,5,10,6,2,8"
15536,commdev-image-keyboard-response,190,1238073,learnblock1,966.5999999642372,img/planet12_right.png,12,Community 1,NA,TRUE,j,j,NA,NA,NA,25,6,"7,11,13,12,3,4,9,1,15,14,5,10,6,2,8"
15536,commdev-image-keyboard-response,191,1239335,learnblock1,794.6000000238419,img/planet4_left.png,4,Community 2,NA,TRUE,f,f,NA,NA,NA,25,6,"7,11,13,12,3,4,9,1,15,14,5,10,6,2,8"
15536,commdev-image-keyboard-response,192,1240587,learnblock1,694.6000000238419,img/planet14_right.png,14,Community 2,NA,TRUE,j,j,NA,NA,NA,25,6,"7,11,13,12,3,4,9,1,15,14,5,10,6,2,8"
15536,commdev-image-keyboard-response,193,1241839,learnblock1,736.7000000476837,img/planet1_left.png,1,Community 2,NA,TRUE,f,f,NA,NA,NA,25,6,"7,11,13,12,3,4,9,1,15,14,5,10,6,2,8"
15536,commdev-image-keyboard-response,194,1243091,learnblock1,465.2000000476837,img/planet10_left.png,10,Community 3,NA,FALSE,j,f,NA,NA,NA,25,6,"7,11,13,12,3,4,9,1,15,14,5,10,6,2,8"
15536,commdev-image-keyboard-response,195,1244342,learnblock1,867,img/planet1_right.png,1,Community 2,NA,FALSE,f,j,NA,NA,NA,25,6,"7,11,13,12,3,4,9,1,15,14,5,10,6,2,8"
15536,commdev-image-keyboard-response,196,1245594,learnblock1,487.5,img/planet15_right.png,15,Community 2,NA,TRUE,j,j,NA,NA,NA,25,6,"7,11,13,12,3,4,9,1,15,14,5,10,6,2,8"
15536,commdev-image-keyboard-response,197,1246846,learnblock1,null,img/planet4_right.png,4,Community 2,NA,FALSE,null,j,NA,NA,NA,25,6,"7,11,13,12,3,4,9,1,15,14,5,10,6,2,8"
15536,commdev-image-keyboard-response,198,1248097,learnblock1,null,img/planet12_left.png,12,Community 1,NA,FALSE,null,f,NA,NA,NA,25,6,"7,11,13,12,3,4,9,1,15,14,5,10,6,2,8"
15536,commdev-image-keyboard-response,199,1249349,learnblock1,116.89999997615814,img/planet4_right.png,4,Community 2,NA,FALSE,f,j,NA,NA,NA,25,6,"7,11,13,12,3,4,9,1,15,14,5,10,6,2,8"
15536,commdev-image-keyboard-response,200,1250600,learnblock1,1216.199999988079,img/planet12_left.png,12,Community 1,NA,TRUE,f,f,NA,NA,NA,25,6,"7,11,13,12,3,4,9,1,15,14,5,10,6,2,8"
15536,commdev-image-keyboard-response,201,1251852,learnblock1,729.1000000238419,img/planet4_right.png,4,Community 2,NA,TRUE,j,j,NA,NA,NA,25,6,"7,11,13,12,3,4,9,1,15,14,5,10,6,2,8"
15536,commdev-image-keyboard-response,202,1253104,learnblock1,511.80000001192093,img/planet12_right.png,12,Community 1,NA,FALSE,f,j,NA,NA,NA,25,6,"7,11,13,12,3,4,9,1,15,14,5,10,6,2,8"
15536,commdev-image-keyboard-response,203,1254356,learnblock1,null,img/planet11_right.png,11,Community 1,NA,FALSE,null,j,NA,NA,NA,25,6,"7,11,13,12,3,4,9,1,15,14,5,10,6,2,8"
15536,commdev-image-keyboard-response,204,1255607,learnblock1,118.69999998807907,img/planet3_right.png,3,Community 1,NA,TRUE,j,j,NA,NA,NA,25,6,"7,11,13,12,3,4,9,1,15,14,5,10,6,2,8"
15536,commdev-image-keyboard-response,205,1256858,learnblock1,null,img/planet5_left.png,5,Community 3,NA,FALSE,null,f,NA,NA,NA,25,6,"7,11,13,12,3,4,9,1,15,14,5,10,6,2,8"
15536,commdev-image-keyboard-response,206,1258109,learnblock1,803.1999999880791,img/planet6_left.png,6,Community 3,NA,FALSE,j,f,NA,NA,NA,25,6,"7,11,13,12,3,4,9,1,15,14,5,10,6,2,8"
15536,commdev-image-keyboard-response,207,1259361,learnblock1,934.5,img/planet8_left.png,8,Community 3,NA,TRUE,f,f,NA,NA,NA,25,6,"7,11,13,12,3,4,9,1,15,14,5,10,6,2,8"
15536,commdev-image-keyboard-response,208,1260613,learnblock1,1173.3999999761581,img/planet6_left.png,6,Community 3,NA,FALSE,j,f,NA,NA,NA,25,6,"7,11,13,12,3,4,9,1,15,14,5,10,6,2,8"
15536,commdev-image-keyboard-response,209,1261864,learnblock1,1107.800000011921,img/planet2_left.png,2,Community 3,NA,TRUE,f,f,NA,NA,NA,25,6,"7,11,13,12,3,4,9,1,15,14,5,10,6,2,8"
15536,commdev-image-keyboard-response,210,1263115,learnblock1,885.5,img/planet8_left.png,8,Community 3,NA,TRUE,f,f,NA,NA,NA,25,6,"7,11,13,12,3,4,9,1,15,14,5,10,6,2,8"
15536,commdev-image-keyboard-response,211,1264366,learnblock1,676.3999999761581,img/planet10_left.png,10,Community 3,NA,TRUE,f,f,NA,NA,NA,25,6,"7,11,13,12,3,4,9,1,15,14,5,10,6,2,8"
15536,commdev-image-keyboard-response,212,1265617,learnblock1,1086.300000011921,img/planet8_right.png,8,Community 3,NA,TRUE,j,j,NA,NA,NA,25,6,"7,11,13,12,3,4,9,1,15,14,5,10,6,2,8"
15536,commdev-image-keyboard-response,213,1266869,learnblock1,777.1999999880791,img/planet10_left.png,10,Community 3,NA,TRUE,f,f,NA,NA,NA,25,6,"7,11,13,12,3,4,9,1,15,14,5,10,6,2,8"
15536,commdev-image-keyboard-response,214,1268121,learnblock1,351.60000002384186,img/planet2_right.png,2,Community 3,NA,TRUE,j,j,NA,NA,NA,25,6,"7,11,13,12,3,4,9,1,15,14,5,10,6,2,8"
15536,commdev-image-keyboard-response,215,1269373,learnblock1,482.60000002384186,img/planet8_right.png,8,Community 3,NA,FALSE,f,j,NA,NA,NA,25,6,"7,11,13,12,3,4,9,1,15,14,5,10,6,2,8"
15536,commdev-image-keyboard-response,216,1270624,learnblock1,1033.5999999642372,img/planet6_right.png,6,Community 3,NA,TRUE,j,j,NA,NA,NA,25,6,"7,11,13,12,3,4,9,1,15,14,5,10,6,2,8"
15536,commdev-image-keyboard-response,217,1271877,learnblock1,1238.2999999523163,img/planet5_right.png,5,Community 3,NA,TRUE,j,j,NA,NA,NA,25,6,"7,11,13,12,3,4,9,1,15,14,5,10,6,2,8"
15536,commdev-image-keyboard-response,218,1273128,learnblock1,888.3000000119209,img/planet6_left.png,6,Community 3,NA,TRUE,f,f,NA,NA,NA,25,6,"7,11,13,12,3,4,9,1,15,14,5,10,6,2,8"
15536,commdev-image-keyboard-response,219,1274381,learnblock1,541.7000000476837,img/planet5_left.png,5,Community 3,NA,FALSE,j,f,NA,NA,NA,25,6,"7,11,13,12,3,4,9,1,15,14,5,10,6,2,8"
15536,commdev-image-keyboard-response,220,1275632,learnblock1,943.8000000119209,img/planet6_right.png,6,Community 3,NA,TRUE,j,j,NA,NA,NA,25,6,"7,11,13,12,3,4,9,1,15,14,5,10,6,2,8"
15536,commdev-image-keyboard-response,221,1276884,learnblock1,973.3999999761581,img/planet8_right.png,8,Community 3,NA,FALSE,f,j,NA,NA,NA,25,6,"7,11,13,12,3,4,9,1,15,14,5,10,6,2,8"
15536,commdev-image-keyboard-response,222,1278135,learnblock1,821,img/planet5_left.png,5,Community 3,NA,TRUE,f,f,NA,NA,NA,25,6,"7,11,13,12,3,4,9,1,15,14,5,10,6,2,8"
15536,commdev-image-keyboard-response,223,1279386,learnblock1,1224.300000011921,img/planet8_left.png,8,Community 3,NA,FALSE,j,f,NA,NA,NA,25,6,"7,11,13,12,3,4,9,1,15,14,5,10,6,2,8"
15536,commdev-image-keyboard-response,224,1280648,learnblock1,1121,img/planet6_left.png,6,Community 3,NA,TRUE,f,f,NA,NA,NA,25,6,"7,11,13,12,3,4,9,1,15,14,5,10,6,2,8"
15536,commdev-image-keyboard-response,225,1281899,learnblock1,991.8000000119209,img/planet10_right.png,10,Community 3,NA,TRUE,j,j,NA,NA,NA,25,6,"7,11,13,12,3,4,9,1,15,14,5,10,6,2,8"
15536,commdev-image-keyboard-response,226,1283151,learnblock1,757.9000000357628,img/planet1_left.png,1,Community 2,NA,TRUE,f,f,NA,NA,NA,25,6,"7,11,13,12,3,4,9,1,15,14,5,10,6,2,8"
15536,commdev-image-keyboard-response,227,1284402,learnblock1,911,img/planet10_right.png,10,Community 3,NA,TRUE,j,j,NA,NA,NA,25,6,"7,11,13,12,3,4,9,1,15,14,5,10,6,2,8"
15536,commdev-image-keyboard-response,228,1285657,learnblock1,1173.800000011921,img/planet2_left.png,2,Community 3,NA,TRUE,f,f,NA,NA,NA,25,6,"7,11,13,12,3,4,9,1,15,14,5,10,6,2,8"
15536,commdev-image-keyboard-response,229,1286909,learnblock1,1070.1000000238419,img/planet6_right.png,6,Community 3,NA,TRUE,j,j,NA,NA,NA,25,6,"7,11,13,12,3,4,9,1,15,14,5,10,6,2,8"
15536,commdev-image-keyboard-response,230,1288161,learnblock1,null,img/planet8_left.png,8,Community 3,NA,FALSE,null,f,NA,NA,NA,25,6,"7,11,13,12,3,4,9,1,15,14,5,10,6,2,8"
15536,commdev-image-keyboard-response,231,1289412,learnblock1,351.89999997615814,img/planet2_right.png,2,Community 3,NA,FALSE,f,j,NA,NA,NA,25,6,"7,11,13,12,3,4,9,1,15,14,5,10,6,2,8"
15536,commdev-image-keyboard-response,232,1290663,learnblock1,106.5,img/planet10_left.png,10,Community 3,NA,FALSE,j,f,NA,NA,NA,25,6,"7,11,13,12,3,4,9,1,15,14,5,10,6,2,8"
15536,commdev-image-keyboard-response,233,1291915,learnblock1,678.8999999761581,img/planet2_right.png,2,Community 3,NA,TRUE,j,j,NA,NA,NA,25,6,"7,11,13,12,3,4,9,1,15,14,5,10,6,2,8"
15536,commdev-image-keyboard-response,234,1293167,learnblock1,622.8000000119209,img/planet8_left.png,8,Community 3,NA,TRUE,f,f,NA,NA,NA,25,6,"7,11,13,12,3,4,9,1,15,14,5,10,6,2,8"
15536,commdev-image-keyboard-response,235,1294419,learnblock1,354.69999998807907,img/planet10_right.png,10,Community 3,NA,TRUE,j,j,NA,NA,NA,25,6,"7,11,13,12,3,4,9,1,15,14,5,10,6,2,8"
15536,commdev-image-keyboard-response,236,1295671,learnblock1,335.0999999642372,img/planet2_left.png,2,Community 3,NA,TRUE,f,f,NA,NA,NA,25,6,"7,11,13,12,3,4,9,1,15,14,5,10,6,2,8"
15536,commdev-image-keyboard-response,237,1296937,learnblock1,770.6000000238419,img/planet5_left.png,5,Community 3,NA,TRUE,f,f,NA,NA,NA,25,6,"7,11,13,12,3,4,9,1,15,14,5,10,6,2,8"
15536,commdev-image-keyboard-response,238,1298189,learnblock1,800,img/planet6_left.png,6,Community 3,NA,TRUE,f,f,NA,NA,NA,25,6,"7,11,13,12,3,4,9,1,15,14,5,10,6,2,8"
15536,commdev-image-keyboard-response,239,1299441,learnblock1,805.5,img/planet8_right.png,8,Community 3,NA,TRUE,j,j,NA,NA,NA,25,6,"7,11,13,12,3,4,9,1,15,14,5,10,6,2,8"
15536,commdev-image-keyboard-response,240,1300693,learnblock1,816.1999999880791,img/planet6_right.png,6,Community 3,NA,FALSE,f,j,NA,NA,NA,25,6,"7,11,13,12,3,4,9,1,15,14,5,10,6,2,8"
15536,commdev-image-keyboard-response,241,1301957,learnblock1,758,img/planet10_right.png,10,Community 3,NA,TRUE,j,j,NA,NA,NA,25,6,"7,11,13,12,3,4,9,1,15,14,5,10,6,2,8"
15536,commdev-image-keyboard-response,242,1303209,learnblock1,1140.8999999761581,img/planet2_right.png,2,Community 3,NA,TRUE,j,j,NA,NA,NA,25,6,"7,11,13,12,3,4,9,1,15,14,5,10,6,2,8"
15536,commdev-image-keyboard-response,243,1304463,learnblock1,1021.6000000238419,img/planet5_right.png,5,Community 3,NA,TRUE,j,j,NA,NA,NA,25,6,"7,11,13,12,3,4,9,1,15,14,5,10,6,2,8"
15536,commdev-image-keyboard-response,244,1305715,learnblock1,534.3999999761581,img/planet8_left.png,8,Community 3,NA,TRUE,f,f,NA,NA,NA,25,6,"7,11,13,12,3,4,9,1,15,14,5,10,6,2,8"
15536,commdev-image-keyboard-response,245,1306967,learnblock1,882.4000000357628,img/planet6_left.png,6,Community 3,NA,FALSE,j,f,NA,NA,NA,25,6,"7,11,13,12,3,4,9,1,15,14,5,10,6,2,8"
15536,commdev-image-keyboard-response,246,1308219,learnblock1,1153.300000011921,img/planet2_left.png,2,Community 3,NA,TRUE,f,f,NA,NA,NA,25,6,"7,11,13,12,3,4,9,1,15,14,5,10,6,2,8"
15536,commdev-image-keyboard-response,247,1309471,learnblock1,860,img/planet6_right.png,6,Community 3,NA,TRUE,j,j,NA,NA,NA,25,6,"7,11,13,12,3,4,9,1,15,14,5,10,6,2,8"
15536,commdev-image-keyboard-response,248,1310723,learnblock1,647.0999999642372,img/planet2_left.png,2,Community 3,NA,TRUE,f,f,NA,NA,NA,25,6,"7,11,13,12,3,4,9,1,15,14,5,10,6,2,8"
15536,commdev-image-keyboard-response,249,1311974,learnblock1,905.6999999880791,img/planet8_right.png,8,Community 3,NA,TRUE,j,j,NA,NA,NA,25,6,"7,11,13,12,3,4,9,1,15,14,5,10,6,2,8"
15536,commdev-image-keyboard-response,250,1313226,learnblock1,734.1999999880791,img/planet6_right.png,6,Community 3,NA,FALSE,f,j,NA,NA,NA,25,6,"7,11,13,12,3,4,9,1,15,14,5,10,6,2,8"
15536,commdev-image-keyboard-response,251,1314478,learnblock1,null,img/planet2_left.png,2,Community 3,NA,FALSE,null,f,NA,NA,NA,25,6,"7,11,13,12,3,4,9,1,15,14,5,10,6,2,8"
15536,commdev-image-keyboard-response,252,1315730,learnblock1,1011.6999999880791,img/planet6_right.png,6,Community 3,NA,TRUE,j,j,NA,NA,NA,25,6,"7,11,13,12,3,4,9,1,15,14,5,10,6,2,8"
15536,commdev-image-keyboard-response,253,1316982,learnblock1,941,img/planet5_right.png,5,Community 3,NA,TRUE,j,j,NA,NA,NA,25,6,"7,11,13,12,3,4,9,1,15,14,5,10,6,2,8"
15536,commdev-image-keyboard-response,254,1318233,learnblock1,612.8000000119209,img/planet8_right.png,8,Community 3,NA,TRUE,j,j,NA,NA,NA,25,6,"7,11,13,12,3,4,9,1,15,14,5,10,6,2,8"
15536,commdev-image-keyboard-response,255,1319484,learnblock1,772.3000000119209,img/planet6_right.png,6,Community 3,NA,TRUE,j,j,NA,NA,NA,25,6,"7,11,13,12,3,4,9,1,15,14,5,10,6,2,8"
15536,commdev-image-keyboard-response,256,1320737,learnblock1,593.1000000238419,img/planet10_left.png,10,Community 3,NA,FALSE,j,f,NA,NA,NA,25,6,"7,11,13,12,3,4,9,1,15,14,5,10,6,2,8"
15536,commdev-image-keyboard-response,257,1321988,learnblock1,null,img/planet8_left.png,8,Community 3,NA,FALSE,null,f,NA,NA,NA,25,6,"7,11,13,12,3,4,9,1,15,14,5,10,6,2,8"
15536,commdev-image-keyboard-response,258,1323241,learnblock1,22.200000047683716,img/planet6_right.png,6,Community 3,NA,TRUE,j,j,NA,NA,NA,25,6,"7,11,13,12,3,4,9,1,15,14,5,10,6,2,8"
15536,commdev-image-keyboard-response,259,1324493,learnblock1,759.5,img/planet2_left.png,2,Community 3,NA,FALSE,j,f,NA,NA,NA,25,6,"7,11,13,12,3,4,9,1,15,14,5,10,6,2,8"
15536,commdev-image-keyboard-response,260,1325745,learnblock1,null,img/planet5_right.png,5,Community 3,NA,FALSE,null,j,NA,NA,NA,25,6,"7,11,13,12,3,4,9,1,15,14,5,10,6,2,8"
15536,commdev-image-keyboard-response,261,1326996,learnblock1,159,img/planet2_right.png,2,Community 3,NA,FALSE,f,j,NA,NA,NA,25,6,"7,11,13,12,3,4,9,1,15,14,5,10,6,2,8"
15536,commdev-image-keyboard-response,262,1328248,learnblock1,805.2999999523163,img/planet8_left.png,8,Community 3,NA,TRUE,f,f,NA,NA,NA,25,6,"7,11,13,12,3,4,9,1,15,14,5,10,6,2,8"
15536,commdev-image-keyboard-response,263,1329500,learnblock1,736.5999999642372,img/planet5_right.png,5,Community 3,NA,TRUE,j,j,NA,NA,NA,25,6,"7,11,13,12,3,4,9,1,15,14,5,10,6,2,8"
15536,commdev-image-keyboard-response,264,1330751,learnblock1,1105.8999999761581,img/planet2_left.png,2,Community 3,NA,FALSE,j,f,NA,NA,NA,25,6,"7,11,13,12,3,4,9,1,15,14,5,10,6,2,8"
15536,commdev-image-keyboard-response,265,1332003,learnblock1,null,img/planet10_right.png,10,Community 3,NA,FALSE,null,j,NA,NA,NA,25,6,"7,11,13,12,3,4,9,1,15,14,5,10,6,2,8"
15536,commdev-image-keyboard-response,266,1333255,learnblock1,931.4000000357628,img/planet8_right.png,8,Community 3,NA,TRUE,j,j,NA,NA,NA,25,6,"7,11,13,12,3,4,9,1,15,14,5,10,6,2,8"
15536,commdev-image-keyboard-response,267,1334507,learnblock1,794.2000000476837,img/planet10_right.png,10,Community 3,NA,TRUE,j,j,NA,NA,NA,25,6,"7,11,13,12,3,4,9,1,15,14,5,10,6,2,8"
15536,commdev-image-keyboard-response,268,1335758,learnblock1,null,img/planet1_right.png,1,Community 2,NA,FALSE,null,j,NA,NA,NA,25,6,"7,11,13,12,3,4,9,1,15,14,5,10,6,2,8"
15536,commdev-image-keyboard-response,269,1337010,learnblock1,934,img/planet10_right.png,10,Community 3,NA,TRUE,j,j,NA,NA,NA,25,6,"7,11,13,12,3,4,9,1,15,14,5,10,6,2,8"
15536,commdev-image-keyboard-response,270,1338262,learnblock1,752.9000000357628,img/planet8_right.png,8,Community 3,NA,TRUE,j,j,NA,NA,NA,25,6,"7,11,13,12,3,4,9,1,15,14,5,10,6,2,8"
15536,commdev-image-keyboard-response,271,1339514,learnblock1,651.3000000119209,img/planet5_right.png,5,Community 3,NA,TRUE,j,j,NA,NA,NA,25,6,"7,11,13,12,3,4,9,1,15,14,5,10,6,2,8"
15536,commdev-image-keyboard-response,272,1340766,learnblock1,923.1000000238419,img/planet8_right.png,8,Community 3,NA,TRUE,j,j,NA,NA,NA,25,6,"7,11,13,12,3,4,9,1,15,14,5,10,6,2,8"
15536,commdev-image-keyboard-response,273,1342017,learnblock1,1227.3999999761581,img/planet2_right.png,2,Community 3,NA,FALSE,f,j,NA,NA,NA,25,6,"7,11,13,12,3,4,9,1,15,14,5,10,6,2,8"
15536,commdev-image-keyboard-response,274,1343269,learnblock1,943,img/planet8_left.png,8,Community 3,NA,FALSE,j,f,NA,NA,NA,25,6,"7,11,13,12,3,4,9,1,15,14,5,10,6,2,8"
15536,commdev-image-keyboard-response,275,1344521,learnblock1,1168.699999988079,img/planet2_left.png,2,Community 3,NA,TRUE,f,f,NA,NA,NA,25,6,"7,11,13,12,3,4,9,1,15,14,5,10,6,2,8"
15536,commdev-image-keyboard-response,276,1345773,learnblock1,1160,img/planet5_right.png,5,Community 3,NA,TRUE,j,j,NA,NA,NA,25,6,"7,11,13,12,3,4,9,1,15,14,5,10,6,2,8"
15536,commdev-image-keyboard-response,277,1347025,learnblock1,730.6999999880791,img/planet2_right.png,2,Community 3,NA,FALSE,f,j,NA,NA,NA,25,6,"7,11,13,12,3,4,9,1,15,14,5,10,6,2,8"
15536,commdev-image-keyboard-response,278,1348277,learnblock1,1116.699999988079,img/planet6_left.png,6,Community 3,NA,TRUE,f,f,NA,NA,NA,25,6,"7,11,13,12,3,4,9,1,15,14,5,10,6,2,8"
15536,commdev-image-keyboard-response,279,1349529,learnblock1,748.6999999880791,img/planet10_right.png,10,Community 3,NA,TRUE,j,j,NA,NA,NA,25,6,"7,11,13,12,3,4,9,1,15,14,5,10,6,2,8"
15536,commdev-image-keyboard-response,280,1350781,learnblock1,944.6999999880791,img/planet6_left.png,6,Community 3,NA,TRUE,f,f,NA,NA,NA,25,6,"7,11,13,12,3,4,9,1,15,14,5,10,6,2,8"
15536,commdev-image-keyboard-response,281,1352033,learnblock1,967.3000000119209,img/planet8_left.png,8,Community 3,NA,TRUE,f,f,NA,NA,NA,25,6,"7,11,13,12,3,4,9,1,15,14,5,10,6,2,8"
15536,commdev-image-keyboard-response,282,1353293,learnblock1,916.3000000119209,img/planet5_left.png,5,Community 3,NA,TRUE,f,f,NA,NA,NA,25,6,"7,11,13,12,3,4,9,1,15,14,5,10,6,2,8"
15536,commdev-image-keyboard-response,283,1354545,learnblock1,null,img/planet3_left.png,3,Community 1,NA,FALSE,null,f,NA,NA,NA,25,6,"7,11,13,12,3,4,9,1,15,14,5,10,6,2,8"
15536,commdev-image-keyboard-response,284,1355797,learnblock1,32.30000001192093,img/planet5_right.png,5,Community 3,NA,FALSE,f,j,NA,NA,NA,25,6,"7,11,13,12,3,4,9,1,15,14,5,10,6,2,8"
15536,commdev-image-keyboard-response,285,1357048,learnblock1,1135,img/planet2_left.png,2,Community 3,NA,TRUE,f,f,NA,NA,NA,25,6,"7,11,13,12,3,4,9,1,15,14,5,10,6,2,8"
15536,commdev-image-keyboard-response,286,1358300,learnblock1,1146.8999999761581,img/planet8_right.png,8,Community 3,NA,TRUE,j,j,NA,NA,NA,25,6,"7,11,13,12,3,4,9,1,15,14,5,10,6,2,8"
15536,commdev-image-keyboard-response,287,1359552,learnblock1,null,img/planet5_left.png,5,Community 3,NA,FALSE,null,f,NA,NA,NA,25,6,"7,11,13,12,3,4,9,1,15,14,5,10,6,2,8"
15536,commdev-image-keyboard-response,288,1360804,learnblock1,121.19999998807907,img/planet3_left.png,3,Community 1,NA,FALSE,j,f,NA,NA,NA,25,6,"7,11,13,12,3,4,9,1,15,14,5,10,6,2,8"
15536,commdev-image-keyboard-response,289,1362055,learnblock1,1218.3999999761581,img/planet13_right.png,13,Community 1,NA,TRUE,j,j,NA,NA,NA,25,6,"7,11,13,12,3,4,9,1,15,14,5,10,6,2,8"
15536,commdev-image-keyboard-response,290,1363306,learnblock1,1213.199999988079,img/planet7_left.png,7,Community 1,NA,FALSE,j,f,NA,NA,NA,25,6,"7,11,13,12,3,4,9,1,15,14,5,10,6,2,8"
15536,commdev-image-keyboard-response,291,1364557,learnblock1,null,img/planet12_left.png,12,Community 1,NA,FALSE,null,f,NA,NA,NA,25,6,"7,11,13,12,3,4,9,1,15,14,5,10,6,2,8"
15536,commdev-image-keyboard-response,292,1365817,learnblock1,null,img/planet13_left.png,13,Community 1,NA,FALSE,null,f,NA,NA,NA,25,6,"7,11,13,12,3,4,9,1,15,14,5,10,6,2,8"
15536,commdev-image-keyboard-response,293,1367069,learnblock1,332.19999998807907,img/planet3_left.png,3,Community 1,NA,TRUE,f,f,NA,NA,NA,25,6,"7,11,13,12,3,4,9,1,15,14,5,10,6,2,8"
15536,commdev-image-keyboard-response,294,1368321,learnblock1,160.60000002384186,img/planet13_right.png,13,Community 1,NA,TRUE,j,j,NA,NA,NA,25,6,"7,11,13,12,3,4,9,1,15,14,5,10,6,2,8"
15536,commdev-image-keyboard-response,295,1369572,learnblock1,149.19999998807907,img/planet12_right.png,12,Community 1,NA,TRUE,j,j,NA,NA,NA,25,6,"7,11,13,12,3,4,9,1,15,14,5,10,6,2,8"
15536,commdev-image-keyboard-response,296,1370824,learnblock1,null,img/planet4_left.png,4,Community 2,NA,FALSE,null,f,NA,NA,NA,25,6,"7,11,13,12,3,4,9,1,15,14,5,10,6,2,8"
15536,commdev-image-keyboard-response,297,1372087,learnblock1,967.6999999880791,img/planet12_right.png,12,Community 1,NA,TRUE,j,j,NA,NA,NA,25,6,"7,11,13,12,3,4,9,1,15,14,5,10,6,2,8"
15536,commdev-image-keyboard-response,298,1373340,learnblock1,1206.199999988079,img/planet7_left.png,7,Community 1,NA,TRUE,f,f,NA,NA,NA,25,6,"7,11,13,12,3,4,9,1,15,14,5,10,6,2,8"
15536,commdev-image-keyboard-response,299,1374591,learnblock1,1170.199999988079,img/planet13_left.png,13,Community 1,NA,TRUE,f,f,NA,NA,NA,25,6,"7,11,13,12,3,4,9,1,15,14,5,10,6,2,8"
15536,commdev-image-keyboard-response,300,1375843,learnblock1,null,img/planet12_left.png,12,Community 1,NA,FALSE,null,f,NA,NA,NA,25,6,"7,11,13,12,3,4,9,1,15,14,5,10,6,2,8"
15536,commdev-image-keyboard-response,301,1377094,learnblock1,67.10000002384186,img/planet4_left.png,4,Community 2,NA,TRUE,f,f,NA,NA,NA,25,6,"7,11,13,12,3,4,9,1,15,14,5,10,6,2,8"
15536,commdev-image-keyboard-response,302,1378345,learnblock1,null,img/planet14_right.png,14,Community 2,NA,FALSE,null,j,NA,NA,NA,25,6,"7,11,13,12,3,4,9,1,15,14,5,10,6,2,8"
15536,commdev-image-keyboard-response,303,1379597,learnblock1,267.0999999642372,img/planet1_left.png,1,Community 2,NA,TRUE,f,f,NA,NA,NA,25,6,"7,11,13,12,3,4,9,1,15,14,5,10,6,2,8"
15536,commdev-image-keyboard-response,304,1380849,learnblock1,310.80000001192093,img/planet15_left.png,15,Community 2,NA,TRUE,f,f,NA,NA,NA,25,6,"7,11,13,12,3,4,9,1,15,14,5,10,6,2,8"
15536,commdev-image-keyboard-response,305,1382100,learnblock1,433.69999998807907,img/planet1_left.png,1,Community 2,NA,TRUE,f,f,NA,NA,NA,25,6,"7,11,13,12,3,4,9,1,15,14,5,10,6,2,8"
15536,commdev-image-keyboard-response,306,1383353,learnblock1,726.5,img/planet14_right.png,14,Community 2,NA,TRUE,j,j,NA,NA,NA,25,6,"7,11,13,12,3,4,9,1,15,14,5,10,6,2,8"
15536,commdev-image-keyboard-response,307,1384604,learnblock1,632.9000000357628,img/planet9_left.png,9,Community 2,NA,TRUE,f,f,NA,NA,NA,25,6,"7,11,13,12,3,4,9,1,15,14,5,10,6,2,8"
15536,commdev-image-keyboard-response,308,1385856,learnblock1,636.5999999642372,img/planet4_right.png,4,Community 2,NA,FALSE,f,j,NA,NA,NA,25,6,"7,11,13,12,3,4,9,1,15,14,5,10,6,2,8"
15536,commdev-image-keyboard-response,309,1387107,learnblock1,756.6999999880791,img/planet15_right.png,15,Community 2,NA,TRUE,j,j,NA,NA,NA,25,6,"7,11,13,12,3,4,9,1,15,14,5,10,6,2,8"
15536,commdev-image-keyboard-response,310,1388359,learnblock1,770.0999999642372,img/planet9_left.png,9,Community 2,NA,FALSE,j,f,NA,NA,NA,25,6,"7,11,13,12,3,4,9,1,15,14,5,10,6,2,8"
15536,commdev-image-keyboard-response,311,1389611,learnblock1,1079.0999999642372,img/planet4_left.png,4,Community 2,NA,FALSE,j,f,NA,NA,NA,25,6,"7,11,13,12,3,4,9,1,15,14,5,10,6,2,8"
15536,commdev-image-keyboard-response,312,1390863,learnblock1,null,img/planet15_right.png,15,Community 2,NA,FALSE,null,j,NA,NA,NA,25,6,"7,11,13,12,3,4,9,1,15,14,5,10,6,2,8"
15536,commdev-image-keyboard-response,313,1392115,learnblock1,105.19999998807907,img/planet9_left.png,9,Community 2,NA,FALSE,j,f,NA,NA,NA,25,6,"7,11,13,12,3,4,9,1,15,14,5,10,6,2,8"
15536,commdev-image-keyboard-response,314,1393366,learnblock1,668,img/planet15_left.png,15,Community 2,NA,TRUE,f,f,NA,NA,NA,25,6,"7,11,13,12,3,4,9,1,15,14,5,10,6,2,8"
15536,commdev-image-keyboard-response,315,1394618,learnblock1,176.9000000357628,img/planet14_left.png,14,Community 2,NA,FALSE,j,f,NA,NA,NA,25,6,"7,11,13,12,3,4,9,1,15,14,5,10,6,2,8"
15536,commdev-image-keyboard-response,316,1395870,learnblock1,71.30000001192093,img/planet1_right.png,1,Community 2,NA,TRUE,j,j,NA,NA,NA,25,6,"7,11,13,12,3,4,9,1,15,14,5,10,6,2,8"
15536,commdev-image-keyboard-response,317,1397122,learnblock1,77.19999998807907,img/planet15_left.png,15,Community 2,NA,TRUE,f,f,NA,NA,NA,25,6,"7,11,13,12,3,4,9,1,15,14,5,10,6,2,8"
15536,commdev-image-keyboard-response,318,1398374,learnblock1,30.30000001192093,img/planet14_right.png,14,Community 2,NA,FALSE,f,j,NA,NA,NA,25,6,"7,11,13,12,3,4,9,1,15,14,5,10,6,2,8"
15536,commdev-image-keyboard-response,319,1399626,learnblock1,20.299999952316284,img/planet1_left.png,1,Community 2,NA,TRUE,f,f,NA,NA,NA,25,6,"7,11,13,12,3,4,9,1,15,14,5,10,6,2,8"
15536,commdev-image-keyboard-response,320,1400877,learnblock1,232.89999997615814,img/planet10_right.png,10,Community 3,NA,FALSE,f,j,NA,NA,NA,25,6,"7,11,13,12,3,4,9,1,15,14,5,10,6,2,8"
15536,commdev-image-keyboard-response,321,1402128,learnblock1,1061.300000011921,img/planet8_right.png,8,Community 3,NA,TRUE,j,j,NA,NA,NA,25,6,"7,11,13,12,3,4,9,1,15,14,5,10,6,2,8"
15536,commdev-image-keyboard-response,322,1403380,learnblock1,638.2000000476837,img/planet5_right.png,5,Community 3,NA,FALSE,f,j,NA,NA,NA,25,6,"7,11,13,12,3,4,9,1,15,14,5,10,6,2,8"
15536,commdev-image-keyboard-response,323,1404632,learnblock1,132.5,img/planet8_left.png,8,Community 3,NA,FALSE,j,f,NA,NA,NA,25,6,"7,11,13,12,3,4,9,1,15,14,5,10,6,2,8"
15536,commdev-image-keyboard-response,324,1405892,learnblock1,259.30000001192093,img/planet5_left.png,5,Community 3,NA,FALSE,j,f,NA,NA,NA,25,6,"7,11,13,12,3,4,9,1,15,14,5,10,6,2,8"
15536,commdev-image-keyboard-response,325,1407143,learnblock1,187,img/planet8_left.png,8,Community 3,NA,FALSE,j,f,NA,NA,NA,25,6,"7,11,13,12,3,4,9,1,15,14,5,10,6,2,8"
15536,commdev-image-keyboard-response,326,1408394,learnblock1,46.69999998807907,img/planet5_left.png,5,Community 3,NA,FALSE,j,f,NA,NA,NA,25,6,"7,11,13,12,3,4,9,1,15,14,5,10,6,2,8"
15536,commdev-image-keyboard-response,327,1409646,learnblock1,784,img/planet2_left.png,2,Community 3,NA,FALSE,j,f,NA,NA,NA,25,6,"7,11,13,12,3,4,9,1,15,14,5,10,6,2,8"
15536,commdev-image-keyboard-response,328,1410898,learnblock1,274.5,img/planet5_right.png,5,Community 3,NA,TRUE,j,j,NA,NA,NA,25,6,"7,11,13,12,3,4,9,1,15,14,5,10,6,2,8"
15536,commdev-image-keyboard-response,329,1412150,learnblock1,300.69999998807907,img/planet3_left.png,3,Community 1,NA,FALSE,j,f,NA,NA,NA,25,6,"7,11,13,12,3,4,9,1,15,14,5,10,6,2,8"
15536,commdev-image-keyboard-response,330,1413401,learnblock1,949.8000000119209,img/planet5_left.png,5,Community 3,NA,TRUE,f,f,NA,NA,NA,25,6,"7,11,13,12,3,4,9,1,15,14,5,10,6,2,8"
15536,commdev-image-keyboard-response,331,1414658,learnblock1,619.2999999523163,img/planet6_right.png,6,Community 3,NA,FALSE,f,j,NA,NA,NA,25,6,"7,11,13,12,3,4,9,1,15,14,5,10,6,2,8"
15536,commdev-image-keyboard-response,332,1415911,learnblock1,473.19999998807907,img/planet5_right.png,5,Community 3,NA,FALSE,f,j,NA,NA,NA,25,6,"7,11,13,12,3,4,9,1,15,14,5,10,6,2,8"
15536,commdev-image-keyboard-response,333,1417162,learnblock1,961.7000000476837,img/planet8_right.png,8,Community 3,NA,TRUE,j,j,NA,NA,NA,25,6,"7,11,13,12,3,4,9,1,15,14,5,10,6,2,8"
15536,commdev-image-keyboard-response,334,1418414,learnblock1,306.19999998807907,img/planet6_left.png,6,Community 3,NA,TRUE,f,f,NA,NA,NA,25,6,"7,11,13,12,3,4,9,1,15,14,5,10,6,2,8"
15536,commdev-image-keyboard-response,335,1419666,learnblock1,452.5,img/planet5_left.png,5,Community 3,NA,FALSE,j,f,NA,NA,NA,25,6,"7,11,13,12,3,4,9,1,15,14,5,10,6,2,8"
15536,commdev-image-keyboard-response,336,1420918,learnblock1,897.5,img/planet3_right.png,3,Community 1,NA,TRUE,j,j,NA,NA,NA,25,6,"7,11,13,12,3,4,9,1,15,14,5,10,6,2,8"
15536,commdev-image-keyboard-response,337,1422170,learnblock1,866.8000000119209,img/planet5_left.png,5,Community 3,NA,TRUE,f,f,NA,NA,NA,25,6,"7,11,13,12,3,4,9,1,15,14,5,10,6,2,8"
15536,commdev-image-keyboard-response,338,1423423,learnblock1,858.5,img/planet3_left.png,3,Community 1,NA,TRUE,f,f,NA,NA,NA,25,6,"7,11,13,12,3,4,9,1,15,14,5,10,6,2,8"
15536,commdev-image-keyboard-response,339,1424675,learnblock1,678,img/planet13_left.png,13,Community 1,NA,TRUE,f,f,NA,NA,NA,25,6,"7,11,13,12,3,4,9,1,15,14,5,10,6,2,8"
15536,commdev-image-keyboard-response,340,1425927,learnblock1,942.6999999880791,img/planet3_left.png,3,Community 1,NA,TRUE,f,f,NA,NA,NA,25,6,"7,11,13,12,3,4,9,1,15,14,5,10,6,2,8"
15536,commdev-image-keyboard-response,341,1427179,learnblock1,881.6999999880791,img/planet13_left.png,13,Community 1,NA,TRUE,f,f,NA,NA,NA,25,6,"7,11,13,12,3,4,9,1,15,14,5,10,6,2,8"
15536,commdev-image-keyboard-response,342,1428431,learnblock1,867.7999999523163,img/planet3_left.png,3,Community 1,NA,FALSE,j,f,NA,NA,NA,25,6,"7,11,13,12,3,4,9,1,15,14,5,10,6,2,8"
15536,commdev-image-keyboard-response,343,1429683,learnblock1,596.8000000119209,img/planet13_right.png,13,Community 1,NA,FALSE,f,j,NA,NA,NA,25,6,"7,11,13,12,3,4,9,1,15,14,5,10,6,2,8"
15536,commdev-image-keyboard-response,344,1430934,learnblock1,1229.8999999761581,img/planet7_left.png,7,Community 1,NA,FALSE,j,f,NA,NA,NA,25,6,"7,11,13,12,3,4,9,1,15,14,5,10,6,2,8"
15536,commdev-image-keyboard-response,345,1432185,learnblock1,620.1000000238419,img/planet3_left.png,3,Community 1,NA,FALSE,j,f,NA,NA,NA,25,6,"7,11,13,12,3,4,9,1,15,14,5,10,6,2,8"
15536,commdev-image-keyboard-response,346,1433436,learnblock1,81.80000001192093,img/planet7_left.png,7,Community 1,NA,TRUE,f,f,NA,NA,NA,25,6,"7,11,13,12,3,4,9,1,15,14,5,10,6,2,8"
15536,commdev-image-keyboard-response,347,1434688,learnblock1,50,img/planet3_left.png,3,Community 1,NA,TRUE,f,f,NA,NA,NA,25,6,"7,11,13,12,3,4,9,1,15,14,5,10,6,2,8"
15536,commdev-image-keyboard-response,348,1435939,learnblock1,160.60000002384186,img/planet7_left.png,7,Community 1,NA,TRUE,f,f,NA,NA,NA,25,6,"7,11,13,12,3,4,9,1,15,14,5,10,6,2,8"
15536,commdev-image-keyboard-response,349,1437191,learnblock1,202.80000001192093,img/planet11_right.png,11,Community 1,NA,FALSE,f,j,NA,NA,NA,25,6,"7,11,13,12,3,4,9,1,15,14,5,10,6,2,8"
15536,commdev-image-keyboard-response,350,1438444,learnblock1,601.5,img/planet7_left.png,7,Community 1,NA,TRUE,f,f,NA,NA,NA,25,6,"7,11,13,12,3,4,9,1,15,14,5,10,6,2,8"
15536,commdev-image-keyboard-response,351,1439695,learnblock1,993.5,img/planet12_left.png,12,Community 1,NA,TRUE,f,f,NA,NA,NA,25,6,"7,11,13,12,3,4,9,1,15,14,5,10,6,2,8"
15536,commdev-image-keyboard-response,352,1440947,learnblock1,932.3999999761581,img/planet13_right.png,13,Community 1,NA,FALSE,f,j,NA,NA,NA,25,6,"7,11,13,12,3,4,9,1,15,14,5,10,6,2,8"
15536,commdev-image-keyboard-response,353,1442199,learnblock1,1003.8000000119209,img/planet3_left.png,3,Community 1,NA,TRUE,f,f,NA,NA,NA,25,6,"7,11,13,12,3,4,9,1,15,14,5,10,6,2,8"
15536,commdev-image-keyboard-response,354,1443450,learnblock1,884.9000000357628,img/planet11_right.png,11,Community 1,NA,TRUE,j,j,NA,NA,NA,25,6,"7,11,13,12,3,4,9,1,15,14,5,10,6,2,8"
15536,commdev-image-keyboard-response,355,1444703,learnblock1,null,img/planet7_left.png,7,Community 1,NA,FALSE,null,f,NA,NA,NA,25,6,"7,11,13,12,3,4,9,1,15,14,5,10,6,2,8"
15536,commdev-image-keyboard-response,356,1445954,learnblock1,537.1999999880791,img/planet12_right.png,12,Community 1,NA,TRUE,j,j,NA,NA,NA,25,6,"7,11,13,12,3,4,9,1,15,14,5,10,6,2,8"
15536,commdev-image-keyboard-response,357,1447206,learnblock1,304.19999998807907,img/planet4_right.png,4,Community 2,NA,FALSE,f,j,NA,NA,NA,25,6,"7,11,13,12,3,4,9,1,15,14,5,10,6,2,8"
15536,commdev-image-keyboard-response,358,1448470,learnblock1,207.10000002384186,img/planet12_left.png,12,Community 1,NA,FALSE,j,f,NA,NA,NA,25,6,"7,11,13,12,3,4,9,1,15,14,5,10,6,2,8"
15536,commdev-image-keyboard-response,359,1449721,learnblock1,904.6000000238419,img/planet11_left.png,11,Community 1,NA,TRUE,f,f,NA,NA,NA,25,6,"7,11,13,12,3,4,9,1,15,14,5,10,6,2,8"
15536,commdev-image-keyboard-response,360,1450972,learnblock1,1005.2000000476837,img/planet3_left.png,3,Community 1,NA,TRUE,f,f,NA,NA,NA,25,6,"7,11,13,12,3,4,9,1,15,14,5,10,6,2,8"
15536,commdev-image-keyboard-response,361,1452224,learnblock1,694.5999999642372,img/planet11_left.png,11,Community 1,NA,FALSE,j,f,NA,NA,NA,25,6,"7,11,13,12,3,4,9,1,15,14,5,10,6,2,8"
15536,commdev-image-keyboard-response,362,1453476,learnblock1,744.8000000119209,img/planet7_right.png,7,Community 1,NA,FALSE,f,j,NA,NA,NA,25,6,"7,11,13,12,3,4,9,1,15,14,5,10,6,2,8"
15536,commdev-image-keyboard-response,363,1454728,learnblock1,526.4000000357628,img/planet11_right.png,11,Community 1,NA,TRUE,j,j,NA,NA,NA,25,6,"7,11,13,12,3,4,9,1,15,14,5,10,6,2,8"
15536,commdev-image-keyboard-response,364,1455980,learnblock1,402.30000001192093,img/planet12_right.png,12,Community 1,NA,FALSE,f,j,NA,NA,NA,25,6,"7,11,13,12,3,4,9,1,15,14,5,10,6,2,8"
15536,commdev-image-keyboard-response,365,1457231,learnblock1,911.5,img/planet11_right.png,11,Community 1,NA,TRUE,j,j,NA,NA,NA,25,6,"7,11,13,12,3,4,9,1,15,14,5,10,6,2,8"
15536,commdev-image-keyboard-response,366,1458483,learnblock1,null,img/planet3_left.png,3,Community 1,NA,FALSE,null,f,NA,NA,NA,25,6,"7,11,13,12,3,4,9,1,15,14,5,10,6,2,8"
15536,commdev-image-keyboard-response,367,1459735,learnblock1,75.90000003576279,img/planet7_left.png,7,Community 1,NA,TRUE,f,f,NA,NA,NA,25,6,"7,11,13,12,3,4,9,1,15,14,5,10,6,2,8"
15536,commdev-image-keyboard-response,368,1460986,learnblock1,1120,img/planet3_left.png,3,Community 1,NA,TRUE,f,f,NA,NA,NA,25,6,"7,11,13,12,3,4,9,1,15,14,5,10,6,2,8"
15536,commdev-image-keyboard-response,369,1462237,learnblock1,1137.4000000357628,img/planet13_left.png,13,Community 1,NA,FALSE,j,f,NA,NA,NA,25,6,"7,11,13,12,3,4,9,1,15,14,5,10,6,2,8"
15536,commdev-image-keyboard-response,370,1463489,learnblock1,822.6999999880791,img/planet3_left.png,3,Community 1,NA,TRUE,f,f,NA,NA,NA,25,6,"7,11,13,12,3,4,9,1,15,14,5,10,6,2,8"
15536,commdev-image-keyboard-response,371,1464741,learnblock1,577.8000000119209,img/planet13_right.png,13,Community 1,NA,FALSE,f,j,NA,NA,NA,25,6,"7,11,13,12,3,4,9,1,15,14,5,10,6,2,8"
15536,commdev-image-keyboard-response,372,1465992,learnblock1,974,img/planet7_left.png,7,Community 1,NA,FALSE,j,f,NA,NA,NA,25,6,"7,11,13,12,3,4,9,1,15,14,5,10,6,2,8"
15536,commdev-image-keyboard-response,373,1467244,learnblock1,null,img/planet11_right.png,11,Community 1,NA,FALSE,null,j,NA,NA,NA,25,6,"7,11,13,12,3,4,9,1,15,14,5,10,6,2,8"
15536,commdev-image-keyboard-response,374,1468496,learnblock1,30.19999998807907,img/planet13_right.png,13,Community 1,NA,FALSE,f,j,NA,NA,NA,25,6,"7,11,13,12,3,4,9,1,15,14,5,10,6,2,8"
15536,commdev-image-keyboard-response,375,1469747,learnblock1,724.8000000119209,img/planet3_right.png,3,Community 1,NA,TRUE,j,j,NA,NA,NA,25,6,"7,11,13,12,3,4,9,1,15,14,5,10,6,2,8"
15536,commdev-image-keyboard-response,376,1470999,learnblock1,null,img/planet7_right.png,7,Community 1,NA,FALSE,null,j,NA,NA,NA,25,6,"7,11,13,12,3,4,9,1,15,14,5,10,6,2,8"
15536,commdev-image-keyboard-response,377,1472251,learnblock1,124,img/planet3_right.png,3,Community 1,NA,TRUE,j,j,NA,NA,NA,25,6,"7,11,13,12,3,4,9,1,15,14,5,10,6,2,8"
15536,commdev-image-keyboard-response,378,1473504,learnblock1,154.19999998807907,img/planet5_left.png,5,Community 3,NA,FALSE,j,f,NA,NA,NA,25,6,"7,11,13,12,3,4,9,1,15,14,5,10,6,2,8"
15536,commdev-image-keyboard-response,379,1474756,learnblock1,1174.300000011921,img/planet2_right.png,2,Community 3,NA,TRUE,j,j,NA,NA,NA,25,6,"7,11,13,12,3,4,9,1,15,14,5,10,6,2,8"
15536,commdev-image-keyboard-response,380,1476023,learnblock1,1093.300000011921,img/planet10_left.png,10,Community 3,NA,TRUE,f,f,NA,NA,NA,25,6,"7,11,13,12,3,4,9,1,15,14,5,10,6,2,8"
15536,commdev-image-keyboard-response,381,1477275,learnblock1,738.5,img/planet1_right.png,1,Community 2,NA,TRUE,j,j,NA,NA,NA,25,6,"7,11,13,12,3,4,9,1,15,14,5,10,6,2,8"
15536,commdev-image-keyboard-response,382,1478527,learnblock1,644.8000000119209,img/planet10_right.png,10,Community 3,NA,FALSE,f,j,NA,NA,NA,25,6,"7,11,13,12,3,4,9,1,15,14,5,10,6,2,8"
15536,commdev-image-keyboard-response,383,1479779,learnblock1,1141.300000011921,img/planet2_right.png,2,Community 3,NA,TRUE,j,j,NA,NA,NA,25,6,"7,11,13,12,3,4,9,1,15,14,5,10,6,2,8"
15536,commdev-image-keyboard-response,384,1481030,learnblock1,1073.8999999761581,img/planet6_right.png,6,Community 3,NA,TRUE,j,j,NA,NA,NA,25,6,"7,11,13,12,3,4,9,1,15,14,5,10,6,2,8"
15536,commdev-image-keyboard-response,385,1482282,learnblock1,782,img/planet2_left.png,2,Community 3,NA,TRUE,f,f,NA,NA,NA,25,6,"7,11,13,12,3,4,9,1,15,14,5,10,6,2,8"
15536,commdev-image-keyboard-response,386,1483534,learnblock1,927.6999999880791,img/planet5_right.png,5,Community 3,NA,TRUE,j,j,NA,NA,NA,25,6,"7,11,13,12,3,4,9,1,15,14,5,10,6,2,8"
15536,commdev-image-keyboard-response,387,1484785,learnblock1,1047.699999988079,img/planet3_left.png,3,Community 1,NA,TRUE,f,f,NA,NA,NA,25,6,"7,11,13,12,3,4,9,1,15,14,5,10,6,2,8"
15536,commdev-image-keyboard-response,388,1486037,learnblock1,591.2999999523163,img/planet5_left.png,5,Community 3,NA,FALSE,j,f,NA,NA,NA,25,6,"7,11,13,12,3,4,9,1,15,14,5,10,6,2,8"
15536,commdev-image-keyboard-response,389,1487290,learnblock1,null,img/planet2_left.png,2,Community 3,NA,FALSE,null,f,NA,NA,NA,25,6,"7,11,13,12,3,4,9,1,15,14,5,10,6,2,8"
15536,commdev-image-keyboard-response,390,1488543,learnblock1,57.60000002384186,img/planet6_right.png,6,Community 3,NA,FALSE,f,j,NA,NA,NA,25,6,"7,11,13,12,3,4,9,1,15,14,5,10,6,2,8"
15536,commdev-image-keyboard-response,391,1489794,learnblock1,1102.9000000357628,img/planet10_left.png,10,Community 3,NA,FALSE,j,f,NA,NA,NA,25,6,"7,11,13,12,3,4,9,1,15,14,5,10,6,2,8"
15536,commdev-image-keyboard-response,392,1491046,learnblock1,null,img/planet6_left.png,6,Community 3,NA,FALSE,null,f,NA,NA,NA,25,6,"7,11,13,12,3,4,9,1,15,14,5,10,6,2,8"
15536,commdev-image-keyboard-response,393,1492298,learnblock1,669.3000000119209,img/planet5_right.png,5,Community 3,NA,FALSE,f,j,NA,NA,NA,25,6,"7,11,13,12,3,4,9,1,15,14,5,10,6,2,8"
15536,commdev-image-keyboard-response,394,1493551,learnblock1,35.10000002384186,img/planet8_left.png,8,Community 3,NA,FALSE,j,f,NA,NA,NA,25,6,"7,11,13,12,3,4,9,1,15,14,5,10,6,2,8"
15536,commdev-image-keyboard-response,395,1494803,learnblock1,79.89999997615814,img/planet6_right.png,6,Community 3,NA,FALSE,f,j,NA,NA,NA,25,6,"7,11,13,12,3,4,9,1,15,14,5,10,6,2,8"
15536,commdev-image-keyboard-response,396,1496054,learnblock1,196,img/planet5_right.png,5,Community 3,NA,FALSE,f,j,NA,NA,NA,25,6,"7,11,13,12,3,4,9,1,15,14,5,10,6,2,8"
15536,commdev-image-keyboard-response,397,1497306,learnblock1,110.5,img/planet2_left.png,2,Community 3,NA,FALSE,j,f,NA,NA,NA,25,6,"7,11,13,12,3,4,9,1,15,14,5,10,6,2,8"
15536,commdev-image-keyboard-response,398,1498558,learnblock1,300,img/planet5_right.png,5,Community 3,NA,TRUE,j,j,NA,NA,NA,25,6,"7,11,13,12,3,4,9,1,15,14,5,10,6,2,8"
15536,commdev-image-keyboard-response,399,1499810,learnblock1,1060.1000000238419,img/planet6_right.png,6,Community 3,NA,FALSE,f,j,NA,NA,NA,25,6,"7,11,13,12,3,4,9,1,15,14,5,10,6,2,8"
15536,commdev-image-keyboard-response,400,1501061,learnblock1,null,img/planet5_left.png,5,Community 3,NA,FALSE,null,f,NA,NA,NA,25,6,"7,11,13,12,3,4,9,1,15,14,5,10,6,2,8"
15536,commdev-image-keyboard-response,401,1502313,learnblock1,502.4000000357628,img/planet8_left.png,8,Community 3,NA,FALSE,j,f,NA,NA,NA,25,6,"7,11,13,12,3,4,9,1,15,14,5,10,6,2,8"
15536,commdev-image-keyboard-response,402,1503565,learnblock1,295.5999999642372,img/planet2_left.png,2,Community 3,NA,TRUE,f,f,NA,NA,NA,25,6,"7,11,13,12,3,4,9,1,15,14,5,10,6,2,8"
15536,commdev-image-keyboard-response,403,1504816,learnblock1,443,img/planet10_left.png,10,Community 3,NA,TRUE,f,f,NA,NA,NA,25,6,"7,11,13,12,3,4,9,1,15,14,5,10,6,2,8"
15536,commdev-image-keyboard-response,404,1506068,learnblock1,590.6999999880791,img/planet6_right.png,6,Community 3,NA,FALSE,f,j,NA,NA,NA,25,6,"7,11,13,12,3,4,9,1,15,14,5,10,6,2,8"
15536,commdev-image-keyboard-response,405,1507319,learnblock1,150.30000001192093,img/planet5_left.png,5,Community 3,NA,TRUE,f,f,NA,NA,NA,25,6,"7,11,13,12,3,4,9,1,15,14,5,10,6,2,8"
15536,commdev-image-keyboard-response,406,1508831,learnblock1,null,img/planet6_right.png,6,Community 3,NA,FALSE,null,j,NA,NA,NA,25,6,"7,11,13,12,3,4,9,1,15,14,5,10,6,2,8"
15536,commdev-image-keyboard-response,407,1510082,learnblock1,null,img/planet8_right.png,8,Community 3,NA,FALSE,null,j,NA,NA,NA,25,6,"7,11,13,12,3,4,9,1,15,14,5,10,6,2,8"
15536,commdev-image-keyboard-response,408,1511334,learnblock1,null,img/planet5_left.png,5,Community 3,NA,FALSE,null,f,NA,NA,NA,25,6,"7,11,13,12,3,4,9,1,15,14,5,10,6,2,8"
15536,commdev-image-keyboard-response,409,1512586,learnblock1,859.0999999642372,img/planet6_left.png,6,Community 3,NA,TRUE,f,f,NA,NA,NA,25,6,"7,11,13,12,3,4,9,1,15,14,5,10,6,2,8"
15536,commdev-image-keyboard-response,410,1513838,learnblock1,null,img/planet8_right.png,8,Community 3,NA,FALSE,null,j,NA,NA,NA,25,6,"7,11,13,12,3,4,9,1,15,14,5,10,6,2,8"
15536,commdev-image-keyboard-response,411,1515090,learnblock1,4,img/planet10_left.png,10,Community 3,NA,TRUE,f,f,NA,NA,NA,25,6,"7,11,13,12,3,4,9,1,15,14,5,10,6,2,8"
15536,commdev-image-keyboard-response,412,1516340,learnblock1,268.80000001192093,img/planet2_left.png,2,Community 3,NA,FALSE,j,f,NA,NA,NA,25,6,"7,11,13,12,3,4,9,1,15,14,5,10,6,2,8"
15536,commdev-image-keyboard-response,413,1517603,learnblock1,115.30000001192093,img/planet8_right.png,8,Community 3,NA,FALSE,f,j,NA,NA,NA,25,6,"7,11,13,12,3,4,9,1,15,14,5,10,6,2,8"
15536,commdev-image-keyboard-response,414,1518855,learnblock1,650.7999999523163,img/planet6_left.png,6,Community 3,NA,TRUE,f,f,NA,NA,NA,25,6,"7,11,13,12,3,4,9,1,15,14,5,10,6,2,8"
15536,commdev-image-keyboard-response,415,1520107,learnblock1,669.8000000119209,img/planet5_right.png,5,Community 3,NA,TRUE,j,j,NA,NA,NA,25,6,"7,11,13,12,3,4,9,1,15,14,5,10,6,2,8"
15536,commdev-image-keyboard-response,416,1521359,learnblock1,934.1999999880791,img/planet3_left.png,3,Community 1,NA,TRUE,f,f,NA,NA,NA,25,6,"7,11,13,12,3,4,9,1,15,14,5,10,6,2,8"
15536,commdev-image-keyboard-response,417,1522964,learnblock1,null,img/planet13_right.png,13,Community 1,NA,FALSE,null,j,NA,NA,NA,25,6,"7,11,13,12,3,4,9,1,15,14,5,10,6,2,8"
15536,commdev-image-keyboard-response,418,1524215,learnblock1,528.6999999880791,img/planet7_right.png,7,Community 1,NA,FALSE,f,j,NA,NA,NA,25,6,"7,11,13,12,3,4,9,1,15,14,5,10,6,2,8"
15536,commdev-image-keyboard-response,419,1525467,learnblock1,1247.0999999642372,img/planet3_left.png,3,Community 1,NA,FALSE,j,f,NA,NA,NA,25,6,"7,11,13,12,3,4,9,1,15,14,5,10,6,2,8"
15536,commdev-image-keyboard-response,420,1526720,learnblock1,820.7999999523163,img/planet11_left.png,11,Community 1,NA,TRUE,f,f,NA,NA,NA,25,6,"7,11,13,12,3,4,9,1,15,14,5,10,6,2,8"
15536,commdev-image-keyboard-response,421,1527971,learnblock1,845.0999999642372,img/planet3_right.png,3,Community 1,NA,FALSE,f,j,NA,NA,NA,25,6,"7,11,13,12,3,4,9,1,15,14,5,10,6,2,8"
15536,commdev-image-keyboard-response,425,7350626,learnblock2,null,img/planet2_left.png,2,Community 3,NA,FALSE,null,f,NA,NA,NA,25,6,"7,11,13,12,3,4,9,1,15,14,5,10,6,2,8"
15536,commdev-image-keyboard-response,426,7351877,learnblock2,null,img/planet10_right.png,10,Community 3,NA,FALSE,null,j,NA,NA,NA,25,6,"7,11,13,12,3,4,9,1,15,14,5,10,6,2,8"
15536,commdev-image-keyboard-response,427,7353129,learnblock2,null,img/planet1_right.png,1,Community 2,NA,FALSE,null,j,NA,NA,NA,25,6,"7,11,13,12,3,4,9,1,15,14,5,10,6,2,8"
15536,commdev-image-keyboard-response,428,7354380,learnblock2,401.19999998807907,img/planet14_right.png,14,Community 2,NA,TRUE,j,j,NA,NA,NA,25,6,"7,11,13,12,3,4,9,1,15,14,5,10,6,2,8"
15536,commdev-image-keyboard-response,429,7355632,learnblock2,524.5,img/planet4_right.png,4,Community 2,NA,TRUE,j,j,NA,NA,NA,25,6,"7,11,13,12,3,4,9,1,15,14,5,10,6,2,8"
15536,commdev-image-keyboard-response,430,7356883,learnblock2,675.6000000238419,img/planet9_right.png,9,Community 2,NA,TRUE,j,j,NA,NA,NA,25,6,"7,11,13,12,3,4,9,1,15,14,5,10,6,2,8"
15536,commdev-image-keyboard-response,431,7358136,learnblock2,570.1999999880791,img/planet1_right.png,1,Community 2,NA,TRUE,j,j,NA,NA,NA,25,6,"7,11,13,12,3,4,9,1,15,14,5,10,6,2,8"
15536,commdev-image-keyboard-response,432,7359389,learnblock2,591.5999999642372,img/planet10_right.png,10,Community 3,NA,TRUE,j,j,NA,NA,NA,25,6,"7,11,13,12,3,4,9,1,15,14,5,10,6,2,8"
15536,commdev-image-keyboard-response,433,7360641,learnblock2,658.5,img/planet1_left.png,1,Community 2,NA,TRUE,f,f,NA,NA,NA,25,6,"7,11,13,12,3,4,9,1,15,14,5,10,6,2,8"
15536,commdev-image-keyboard-response,434,7361892,learnblock2,731.1000000238419,img/planet15_right.png,15,Community 2,NA,TRUE,j,j,NA,NA,NA,25,6,"7,11,13,12,3,4,9,1,15,14,5,10,6,2,8"
15536,commdev-image-keyboard-response,435,7363144,learnblock2,729.2000000476837,img/planet14_right.png,14,Community 2,NA,TRUE,j,j,NA,NA,NA,25,6,"7,11,13,12,3,4,9,1,15,14,5,10,6,2,8"
15536,commdev-image-keyboard-response,436,7364397,learnblock2,687,img/planet1_right.png,1,Community 2,NA,TRUE,j,j,NA,NA,NA,25,6,"7,11,13,12,3,4,9,1,15,14,5,10,6,2,8"
15536,commdev-image-keyboard-response,437,7365650,learnblock2,786.5,img/planet14_right.png,14,Community 2,NA,TRUE,j,j,NA,NA,NA,25,6,"7,11,13,12,3,4,9,1,15,14,5,10,6,2,8"
15536,commdev-image-keyboard-response,438,7366902,learnblock2,699.1000000238419,img/planet4_right.png,4,Community 2,NA,TRUE,j,j,NA,NA,NA,25,6,"7,11,13,12,3,4,9,1,15,14,5,10,6,2,8"
15536,commdev-image-keyboard-response,439,7368154,learnblock2,529.8000000119209,img/planet14_right.png,14,Community 2,NA,TRUE,j,j,NA,NA,NA,25,6,"7,11,13,12,3,4,9,1,15,14,5,10,6,2,8"
15536,commdev-image-keyboard-response,440,7369405,learnblock2,623.0999999642372,img/planet15_left.png,15,Community 2,NA,FALSE,j,f,NA,NA,NA,25,6,"7,11,13,12,3,4,9,1,15,14,5,10,6,2,8"
15536,commdev-image-keyboard-response,441,7370657,learnblock2,693,img/planet1_left.png,1,Community 2,NA,TRUE,f,f,NA,NA,NA,25,6,"7,11,13,12,3,4,9,1,15,14,5,10,6,2,8"
15536,commdev-image-keyboard-response,442,7371909,learnblock2,590.3000000119209,img/planet10_right.png,10,Community 3,NA,TRUE,j,j,NA,NA,NA,25,6,"7,11,13,12,3,4,9,1,15,14,5,10,6,2,8"
15536,commdev-image-keyboard-response,443,7373160,learnblock2,890.1999999880791,img/planet6_left.png,6,Community 3,NA,TRUE,f,f,NA,NA,NA,25,6,"7,11,13,12,3,4,9,1,15,14,5,10,6,2,8"
15536,commdev-image-keyboard-response,444,7374413,learnblock2,1120.9000000357628,img/planet5_left.png,5,Community 3,NA,TRUE,f,f,NA,NA,NA,25,6,"7,11,13,12,3,4,9,1,15,14,5,10,6,2,8"
15536,commdev-image-keyboard-response,445,7375665,learnblock2,823.6999999880791,img/planet3_left.png,3,Community 1,NA,TRUE,f,f,NA,NA,NA,25,6,"7,11,13,12,3,4,9,1,15,14,5,10,6,2,8"
15536,commdev-image-keyboard-response,446,7376917,learnblock2,799.3999999761581,img/planet7_left.png,7,Community 1,NA,TRUE,f,f,NA,NA,NA,25,6,"7,11,13,12,3,4,9,1,15,14,5,10,6,2,8"
15536,commdev-image-keyboard-response,447,7378169,learnblock2,863.1999999880791,img/planet13_left.png,13,Community 1,NA,TRUE,f,f,NA,NA,NA,25,6,"7,11,13,12,3,4,9,1,15,14,5,10,6,2,8"
15536,commdev-image-keyboard-response,448,7379431,learnblock2,759.1999999880791,img/planet12_right.png,12,Community 1,NA,TRUE,j,j,NA,NA,NA,25,6,"7,11,13,12,3,4,9,1,15,14,5,10,6,2,8"
15536,commdev-image-keyboard-response,449,7380684,learnblock2,736.2000000476837,img/planet4_right.png,4,Community 2,NA,TRUE,j,j,NA,NA,NA,25,6,"7,11,13,12,3,4,9,1,15,14,5,10,6,2,8"
15536,commdev-image-keyboard-response,450,7381937,learnblock2,947.2000000476837,img/planet9_right.png,9,Community 2,NA,TRUE,j,j,NA,NA,NA,25,6,"7,11,13,12,3,4,9,1,15,14,5,10,6,2,8"
15536,commdev-image-keyboard-response,451,7383200,learnblock2,1001.8999999761581,img/planet15_right.png,15,Community 2,NA,TRUE,j,j,NA,NA,NA,25,6,"7,11,13,12,3,4,9,1,15,14,5,10,6,2,8"
15536,commdev-image-keyboard-response,452,7384451,learnblock2,885.6000000238419,img/planet9_left.png,9,Community 2,NA,TRUE,f,f,NA,NA,NA,25,6,"7,11,13,12,3,4,9,1,15,14,5,10,6,2,8"
15536,commdev-image-keyboard-response,453,7385703,learnblock2,746.3000000119209,img/planet15_right.png,15,Community 2,NA,TRUE,j,j,NA,NA,NA,25,6,"7,11,13,12,3,4,9,1,15,14,5,10,6,2,8"
15536,commdev-image-keyboard-response,454,7386954,learnblock2,1005.9000000357628,img/planet9_left.png,9,Community 2,NA,TRUE,f,f,NA,NA,NA,25,6,"7,11,13,12,3,4,9,1,15,14,5,10,6,2,8"
15536,commdev-image-keyboard-response,455,7388207,learnblock2,882.1999999880791,img/planet4_left.png,4,Community 2,NA,TRUE,f,f,NA,NA,NA,25,6,"7,11,13,12,3,4,9,1,15,14,5,10,6,2,8"
15536,commdev-image-keyboard-response,456,7389458,learnblock2,968.6999999880791,img/planet15_left.png,15,Community 2,NA,TRUE,f,f,NA,NA,NA,25,6,"7,11,13,12,3,4,9,1,15,14,5,10,6,2,8"
15536,commdev-image-keyboard-response,457,7390710,learnblock2,774.6999999880791,img/planet1_right.png,1,Community 2,NA,TRUE,j,j,NA,NA,NA,25,6,"7,11,13,12,3,4,9,1,15,14,5,10,6,2,8"
15536,commdev-image-keyboard-response,458,7391962,learnblock2,816.1000000238419,img/planet14_right.png,14,Community 2,NA,TRUE,j,j,NA,NA,NA,25,6,"7,11,13,12,3,4,9,1,15,14,5,10,6,2,8"
15536,commdev-image-keyboard-response,459,7393213,learnblock2,1167.9000000357628,img/planet15_left.png,15,Community 2,NA,TRUE,f,f,NA,NA,NA,25,6,"7,11,13,12,3,4,9,1,15,14,5,10,6,2,8"
15536,commdev-image-keyboard-response,460,7394465,learnblock2,927.1000000238419,img/planet9_left.png,9,Community 2,NA,TRUE,f,f,NA,NA,NA,25,6,"7,11,13,12,3,4,9,1,15,14,5,10,6,2,8"
15536,commdev-image-keyboard-response,461,7395717,learnblock2,828.8000000119209,img/planet14_left.png,14,Community 2,NA,TRUE,f,f,NA,NA,NA,25,6,"7,11,13,12,3,4,9,1,15,14,5,10,6,2,8"
15536,commdev-image-keyboard-response,462,7396969,learnblock2,1010.5,img/planet9_left.png,9,Community 2,NA,TRUE,f,f,NA,NA,NA,25,6,"7,11,13,12,3,4,9,1,15,14,5,10,6,2,8"
15536,commdev-image-keyboard-response,463,7398221,learnblock2,883.3000000119209,img/planet4_right.png,4,Community 2,NA,TRUE,j,j,NA,NA,NA,25,6,"7,11,13,12,3,4,9,1,15,14,5,10,6,2,8"
15536,commdev-image-keyboard-response,464,7399473,learnblock2,890.3999999761581,img/planet9_left.png,9,Community 2,NA,TRUE,f,f,NA,NA,NA,25,6,"7,11,13,12,3,4,9,1,15,14,5,10,6,2,8"
15536,commdev-image-keyboard-response,465,7400724,learnblock2,819.0999999642372,img/planet15_right.png,15,Community 2,NA,TRUE,j,j,NA,NA,NA,25,6,"7,11,13,12,3,4,9,1,15,14,5,10,6,2,8"
15536,commdev-image-keyboard-response,466,7401976,learnblock2,932.1000000238419,img/planet14_left.png,14,Community 2,NA,TRUE,f,f,NA,NA,NA,25,6,"7,11,13,12,3,4,9,1,15,14,5,10,6,2,8"
15536,commdev-image-keyboard-response,467,7403228,learnblock2,1045.5,img/planet1_right.png,1,Community 2,NA,TRUE,j,j,NA,NA,NA,25,6,"7,11,13,12,3,4,9,1,15,14,5,10,6,2,8"
15536,commdev-image-keyboard-response,468,7404480,learnblock2,1047.800000011921,img/planet9_right.png,9,Community 2,NA,TRUE,j,j,NA,NA,NA,25,6,"7,11,13,12,3,4,9,1,15,14,5,10,6,2,8"
15536,commdev-image-keyboard-response,469,7405731,learnblock2,936.3000000119209,img/planet1_right.png,1,Community 2,NA,TRUE,j,j,NA,NA,NA,25,6,"7,11,13,12,3,4,9,1,15,14,5,10,6,2,8"
15536,commdev-image-keyboard-response,470,7406982,learnblock2,895.8000000119209,img/planet14_left.png,14,Community 2,NA,TRUE,f,f,NA,NA,NA,25,6,"7,11,13,12,3,4,9,1,15,14,5,10,6,2,8"
15536,commdev-image-keyboard-response,471,7408234,learnblock2,872,img/planet9_left.png,9,Community 2,NA,TRUE,f,f,NA,NA,NA,25,6,"7,11,13,12,3,4,9,1,15,14,5,10,6,2,8"
15536,commdev-image-keyboard-response,472,7409486,learnblock2,1104.8999999761581,img/planet4_right.png,4,Community 2,NA,TRUE,j,j,NA,NA,NA,25,6,"7,11,13,12,3,4,9,1,15,14,5,10,6,2,8"
15536,commdev-image-keyboard-response,473,7410737,learnblock2,null,img/planet12_right.png,12,Community 1,NA,FALSE,null,j,NA,NA,NA,25,6,"7,11,13,12,3,4,9,1,15,14,5,10,6,2,8"
15536,commdev-image-keyboard-response,474,7412001,learnblock2,163.30000001192093,img/planet13_right.png,13,Community 1,NA,TRUE,j,j,NA,NA,NA,25,6,"7,11,13,12,3,4,9,1,15,14,5,10,6,2,8"
15536,commdev-image-keyboard-response,475,7413253,learnblock2,807.8000000119209,img/planet12_left.png,12,Community 1,NA,TRUE,f,f,NA,NA,NA,25,6,"7,11,13,12,3,4,9,1,15,14,5,10,6,2,8"
15536,commdev-image-keyboard-response,476,7414506,learnblock2,937.0999999642372,img/planet13_left.png,13,Community 1,NA,TRUE,f,f,NA,NA,NA,25,6,"7,11,13,12,3,4,9,1,15,14,5,10,6,2,8"
15536,commdev-image-keyboard-response,477,7415758,learnblock2,842.3000000119209,img/planet7_right.png,7,Community 1,NA,TRUE,j,j,NA,NA,NA,25,6,"7,11,13,12,3,4,9,1,15,14,5,10,6,2,8"
15536,commdev-image-keyboard-response,478,7417014,learnblock2,678.3000000119209,img/planet13_left.png,13,Community 1,NA,TRUE,f,f,NA,NA,NA,25,6,"7,11,13,12,3,4,9,1,15,14,5,10,6,2,8"
15536,commdev-image-keyboard-response,479,7418267,learnblock2,776.4000000357628,img/planet11_left.png,11,Community 1,NA,TRUE,f,f,NA,NA,NA,25,6,"7,11,13,12,3,4,9,1,15,14,5,10,6,2,8"
15536,commdev-image-keyboard-response,480,7419518,learnblock2,695.6999999880791,img/planet12_right.png,12,Community 1,NA,TRUE,j,j,NA,NA,NA,25,6,"7,11,13,12,3,4,9,1,15,14,5,10,6,2,8"
15536,commdev-image-keyboard-response,481,7420770,learnblock2,771.7999999523163,img/planet13_left.png,13,Community 1,NA,TRUE,f,f,NA,NA,NA,25,6,"7,11,13,12,3,4,9,1,15,14,5,10,6,2,8"
15536,commdev-image-keyboard-response,482,7422023,learnblock2,528,img/planet11_left.png,11,Community 1,NA,FALSE,j,f,NA,NA,NA,25,6,"7,11,13,12,3,4,9,1,15,14,5,10,6,2,8"
15536,commdev-image-keyboard-response,483,7423274,learnblock2,814,img/planet12_right.png,12,Community 1,NA,TRUE,j,j,NA,NA,NA,25,6,"7,11,13,12,3,4,9,1,15,14,5,10,6,2,8"
15536,commdev-image-keyboard-response,484,7424526,learnblock2,955.3999999761581,img/planet11_right.png,11,Community 1,NA,TRUE,j,j,NA,NA,NA,25,6,"7,11,13,12,3,4,9,1,15,14,5,10,6,2,8"
15536,commdev-image-keyboard-response,485,7425779,learnblock2,710.6999999880791,img/planet12_left.png,12,Community 1,NA,TRUE,f,f,NA,NA,NA,25,6,"7,11,13,12,3,4,9,1,15,14,5,10,6,2,8"
15536,commdev-image-keyboard-response,486,7427030,learnblock2,1143.300000011921,img/planet4_left.png,4,Community 2,NA,TRUE,f,f,NA,NA,NA,25,6,"7,11,13,12,3,4,9,1,15,14,5,10,6,2,8"
15536,commdev-image-keyboard-response,487,7428282,learnblock2,1087.6000000238419,img/planet14_left.png,14,Community 2,NA,TRUE,f,f,NA,NA,NA,25,6,"7,11,13,12,3,4,9,1,15,14,5,10,6,2,8"
15536,commdev-image-keyboard-response,488,7429533,learnblock2,1124.199999988079,img/planet9_left.png,9,Community 2,NA,TRUE,f,f,NA,NA,NA,25,6,"7,11,13,12,3,4,9,1,15,14,5,10,6,2,8"
15536,commdev-image-keyboard-response,489,7430785,learnblock2,null,img/planet15_left.png,15,Community 2,NA,FALSE,null,f,NA,NA,NA,25,6,"7,11,13,12,3,4,9,1,15,14,5,10,6,2,8"
15536,commdev-image-keyboard-response,490,7432038,learnblock2,17.5,img/planet9_left.png,9,Community 2,NA,TRUE,f,f,NA,NA,NA,25,6,"7,11,13,12,3,4,9,1,15,14,5,10,6,2,8"
15536,commdev-image-keyboard-response,491,7433290,learnblock2,1200.6000000238419,img/planet14_left.png,14,Community 2,NA,TRUE,f,f,NA,NA,NA,25,6,"7,11,13,12,3,4,9,1,15,14,5,10,6,2,8"
15536,commdev-image-keyboard-response,492,7434542,learnblock2,886.3000000119209,img/planet15_right.png,15,Community 2,NA,TRUE,j,j,NA,NA,NA,25,6,"7,11,13,12,3,4,9,1,15,14,5,10,6,2,8"
15536,commdev-image-keyboard-response,493,7435793,learnblock2,1170.300000011921,img/planet14_right.png,14,Community 2,NA,TRUE,j,j,NA,NA,NA,25,6,"7,11,13,12,3,4,9,1,15,14,5,10,6,2,8"
15536,commdev-image-keyboard-response,494,7437045,learnblock2,1048.199999988079,img/planet4_right.png,4,Community 2,NA,TRUE,j,j,NA,NA,NA,25,6,"7,11,13,12,3,4,9,1,15,14,5,10,6,2,8"
15536,commdev-image-keyboard-response,495,7438296,learnblock2,951.4000000357628,img/planet9_left.png,9,Community 2,NA,TRUE,f,f,NA,NA,NA,25,6,"7,11,13,12,3,4,9,1,15,14,5,10,6,2,8"
15536,commdev-image-keyboard-response,496,7439548,learnblock2,null,img/planet14_right.png,14,Community 2,NA,FALSE,null,j,NA,NA,NA,25,6,"7,11,13,12,3,4,9,1,15,14,5,10,6,2,8"
15536,commdev-image-keyboard-response,497,7440800,learnblock2,561.8999999761581,img/planet1_right.png,1,Community 2,NA,TRUE,j,j,NA,NA,NA,25,6,"7,11,13,12,3,4,9,1,15,14,5,10,6,2,8"
15536,commdev-image-keyboard-response,498,7442052,learnblock2,550.7999999523163,img/planet14_right.png,14,Community 2,NA,TRUE,j,j,NA,NA,NA,25,6,"7,11,13,12,3,4,9,1,15,14,5,10,6,2,8"
15536,commdev-image-keyboard-response,499,7443304,learnblock2,760.2999999523163,img/planet9_left.png,9,Community 2,NA,TRUE,f,f,NA,NA,NA,25,6,"7,11,13,12,3,4,9,1,15,14,5,10,6,2,8"
15536,commdev-image-keyboard-response,500,7444555,learnblock2,747.3000000119209,img/planet1_left.png,1,Community 2,NA,TRUE,f,f,NA,NA,NA,25,6,"7,11,13,12,3,4,9,1,15,14,5,10,6,2,8"
15536,commdev-image-keyboard-response,501,7445807,learnblock2,465.80000001192093,img/planet10_right.png,10,Community 3,NA,TRUE,j,j,NA,NA,NA,25,6,"7,11,13,12,3,4,9,1,15,14,5,10,6,2,8"
15536,commdev-image-keyboard-response,502,7447063,learnblock2,728.7999999523163,img/planet6_left.png,6,Community 3,NA,TRUE,f,f,NA,NA,NA,25,6,"7,11,13,12,3,4,9,1,15,14,5,10,6,2,8"
15536,commdev-image-keyboard-response,503,7448315,learnblock2,1118.8999999761581,img/planet10_left.png,10,Community 3,NA,TRUE,f,f,NA,NA,NA,25,6,"7,11,13,12,3,4,9,1,15,14,5,10,6,2,8"
15536,commdev-image-keyboard-response,504,7449567,learnblock2,1065.699999988079,img/planet8_right.png,8,Community 3,NA,TRUE,j,j,NA,NA,NA,25,6,"7,11,13,12,3,4,9,1,15,14,5,10,6,2,8"
15536,commdev-image-keyboard-response,505,7450818,learnblock2,902.8999999761581,img/planet2_left.png,2,Community 3,NA,TRUE,f,f,NA,NA,NA,25,6,"7,11,13,12,3,4,9,1,15,14,5,10,6,2,8"
15536,commdev-image-keyboard-response,506,7452070,learnblock2,831.3000000119209,img/planet5_left.png,5,Community 3,NA,TRUE,f,f,NA,NA,NA,25,6,"7,11,13,12,3,4,9,1,15,14,5,10,6,2,8"
15536,commdev-image-keyboard-response,507,7453322,learnblock2,1120.1000000238419,img/planet3_left.png,3,Community 1,NA,TRUE,f,f,NA,NA,NA,25,6,"7,11,13,12,3,4,9,1,15,14,5,10,6,2,8"
15536,commdev-image-keyboard-response,508,7454574,learnblock2,971.2000000476837,img/planet11_left.png,11,Community 1,NA,TRUE,f,f,NA,NA,NA,25,6,"7,11,13,12,3,4,9,1,15,14,5,10,6,2,8"
15536,commdev-image-keyboard-response,509,7455826,learnblock2,1046,img/planet12_left.png,12,Community 1,NA,TRUE,f,f,NA,NA,NA,25,6,"7,11,13,12,3,4,9,1,15,14,5,10,6,2,8"
15536,commdev-image-keyboard-response,510,7457077,learnblock2,920.1999999880791,img/planet4_left.png,4,Community 2,NA,TRUE,f,f,NA,NA,NA,25,6,"7,11,13,12,3,4,9,1,15,14,5,10,6,2,8"
15536,commdev-image-keyboard-response,511,7458328,learnblock2,873.6000000238419,img/planet9_left.png,9,Community 2,NA,TRUE,f,f,NA,NA,NA,25,6,"7,11,13,12,3,4,9,1,15,14,5,10,6,2,8"
15536,commdev-image-keyboard-response,512,7459580,learnblock2,932.8000000119209,img/planet4_right.png,4,Community 2,NA,TRUE,j,j,NA,NA,NA,25,6,"7,11,13,12,3,4,9,1,15,14,5,10,6,2,8"
15536,commdev-image-keyboard-response,513,7460832,learnblock2,1114.6000000238419,img/planet9_right.png,9,Community 2,NA,TRUE,j,j,NA,NA,NA,25,6,"7,11,13,12,3,4,9,1,15,14,5,10,6,2,8"
15536,commdev-image-keyboard-response,514,7462084,learnblock2,null,img/planet14_left.png,14,Community 2,NA,FALSE,null,f,NA,NA,NA,25,6,"7,11,13,12,3,4,9,1,15,14,5,10,6,2,8"
15536,commdev-image-keyboard-response,515,7463335,learnblock2,650.5,img/planet4_left.png,4,Community 2,NA,TRUE,f,f,NA,NA,NA,25,6,"7,11,13,12,3,4,9,1,15,14,5,10,6,2,8"
15536,commdev-image-keyboard-response,516,7464586,learnblock2,688.1999999880791,img/planet9_left.png,9,Community 2,NA,TRUE,f,f,NA,NA,NA,25,6,"7,11,13,12,3,4,9,1,15,14,5,10,6,2,8"
15536,commdev-image-keyboard-response,517,7465838,learnblock2,700.7999999523163,img/planet4_left.png,4,Community 2,NA,TRUE,f,f,NA,NA,NA,25,6,"7,11,13,12,3,4,9,1,15,14,5,10,6,2,8"
15536,commdev-image-keyboard-response,518,7467091,learnblock2,828.8999999761581,img/planet12_right.png,12,Community 1,NA,TRUE,j,j,NA,NA,NA,25,6,"7,11,13,12,3,4,9,1,15,14,5,10,6,2,8"
15536,commdev-image-keyboard-response,519,7468343,learnblock2,929.1000000238419,img/planet11_left.png,11,Community 1,NA,TRUE,f,f,NA,NA,NA,25,6,"7,11,13,12,3,4,9,1,15,14,5,10,6,2,8"
15536,commdev-image-keyboard-response,520,7469595,learnblock2,1021.5999999642372,img/planet7_left.png,7,Community 1,NA,TRUE,f,f,NA,NA,NA,25,6,"7,11,13,12,3,4,9,1,15,14,5,10,6,2,8"
15536,commdev-image-keyboard-response,521,7470847,learnblock2,878.0999999642372,img/planet13_left.png,13,Community 1,NA,TRUE,f,f,NA,NA,NA,25,6,"7,11,13,12,3,4,9,1,15,14,5,10,6,2,8"
15536,commdev-image-keyboard-response,522,7472099,learnblock2,696.0999999642372,img/planet7_right.png,7,Community 1,NA,TRUE,j,j,NA,NA,NA,25,6,"7,11,13,12,3,4,9,1,15,14,5,10,6,2,8"
15536,commdev-image-keyboard-response,523,7473350,learnblock2,null,img/planet3_left.png,3,Community 1,NA,FALSE,null,f,NA,NA,NA,25,6,"7,11,13,12,3,4,9,1,15,14,5,10,6,2,8"
15536,commdev-image-keyboard-response,524,7474602,learnblock2,80.20000004768372,img/planet5_left.png,5,Community 3,NA,TRUE,f,f,NA,NA,NA,25,6,"7,11,13,12,3,4,9,1,15,14,5,10,6,2,8"
15536,commdev-image-keyboard-response,525,7475854,learnblock2,568.8000000119209,img/planet2_left.png,2,Community 3,NA,TRUE,f,f,NA,NA,NA,25,6,"7,11,13,12,3,4,9,1,15,14,5,10,6,2,8"
15536,commdev-image-keyboard-response,526,7477106,learnblock2,765.9000000357628,img/planet5_right.png,5,Community 3,NA,TRUE,j,j,NA,NA,NA,25,6,"7,11,13,12,3,4,9,1,15,14,5,10,6,2,8"
15536,commdev-image-keyboard-response,527,7478357,learnblock2,1179.699999988079,img/planet2_left.png,2,Community 3,NA,FALSE,j,f,NA,NA,NA,25,6,"7,11,13,12,3,4,9,1,15,14,5,10,6,2,8"
15536,commdev-image-keyboard-response,528,7479608,learnblock2,null,img/planet10_right.png,10,Community 3,NA,FALSE,null,j,NA,NA,NA,25,6,"7,11,13,12,3,4,9,1,15,14,5,10,6,2,8"
15536,commdev-image-keyboard-response,529,7480861,learnblock2,26.80000001192093,img/planet6_left.png,6,Community 3,NA,FALSE,j,f,NA,NA,NA,25,6,"7,11,13,12,3,4,9,1,15,14,5,10,6,2,8"
15536,commdev-image-keyboard-response,530,7482112,learnblock2,851.7999999523163,img/planet5_left.png,5,Community 3,NA,TRUE,f,f,NA,NA,NA,25,6,"7,11,13,12,3,4,9,1,15,14,5,10,6,2,8"
15536,commdev-image-keyboard-response,531,7483364,learnblock2,913.2000000476837,img/planet8_right.png,8,Community 3,NA,TRUE,j,j,NA,NA,NA,25,6,"7,11,13,12,3,4,9,1,15,14,5,10,6,2,8"
15536,commdev-image-keyboard-response,532,7484615,learnblock2,707.1999999880791,img/planet2_left.png,2,Community 3,NA,TRUE,f,f,NA,NA,NA,25,6,"7,11,13,12,3,4,9,1,15,14,5,10,6,2,8"
15536,commdev-image-keyboard-response,533,7485866,learnblock2,884.5999999642372,img/planet8_left.png,8,Community 3,NA,TRUE,f,f,NA,NA,NA,25,6,"7,11,13,12,3,4,9,1,15,14,5,10,6,2,8"
15536,commdev-image-keyboard-response,534,7487117,learnblock2,898.6999999880791,img/planet2_right.png,2,Community 3,NA,TRUE,j,j,NA,NA,NA,25,6,"7,11,13,12,3,4,9,1,15,14,5,10,6,2,8"
15536,commdev-image-keyboard-response,535,7488368,learnblock2,796.1999999880791,img/planet6_left.png,6,Community 3,NA,TRUE,f,f,NA,NA,NA,25,6,"7,11,13,12,3,4,9,1,15,14,5,10,6,2,8"
15536,commdev-image-keyboard-response,536,7489621,learnblock2,769.0999999642372,img/planet8_right.png,8,Community 3,NA,TRUE,j,j,NA,NA,NA,25,6,"7,11,13,12,3,4,9,1,15,14,5,10,6,2,8"
15536,commdev-image-keyboard-response,537,7490873,learnblock2,825,img/planet2_left.png,2,Community 3,NA,TRUE,f,f,NA,NA,NA,25,6,"7,11,13,12,3,4,9,1,15,14,5,10,6,2,8"
15536,commdev-image-keyboard-response,538,7492124,learnblock2,813.6000000238419,img/planet6_right.png,6,Community 3,NA,TRUE,j,j,NA,NA,NA,25,6,"7,11,13,12,3,4,9,1,15,14,5,10,6,2,8"
15536,commdev-image-keyboard-response,539,7493376,learnblock2,662.1999999880791,img/planet8_left.png,8,Community 3,NA,TRUE,f,f,NA,NA,NA,25,6,"7,11,13,12,3,4,9,1,15,14,5,10,6,2,8"
15536,commdev-image-keyboard-response,540,7494628,learnblock2,744.3999999761581,img/planet6_left.png,6,Community 3,NA,TRUE,f,f,NA,NA,NA,25,6,"7,11,13,12,3,4,9,1,15,14,5,10,6,2,8"
15536,commdev-image-keyboard-response,541,7495880,learnblock2,760.5,img/planet2_right.png,2,Community 3,NA,TRUE,j,j,NA,NA,NA,25,6,"7,11,13,12,3,4,9,1,15,14,5,10,6,2,8"
15536,commdev-image-keyboard-response,542,7497132,learnblock2,600.6999999880791,img/planet10_left.png,10,Community 3,NA,TRUE,f,f,NA,NA,NA,25,6,"7,11,13,12,3,4,9,1,15,14,5,10,6,2,8"
15536,commdev-image-keyboard-response,543,7498384,learnblock2,831.0999999642372,img/planet1_left.png,1,Community 2,NA,TRUE,f,f,NA,NA,NA,25,6,"7,11,13,12,3,4,9,1,15,14,5,10,6,2,8"
15536,commdev-image-keyboard-response,544,7499635,learnblock2,874.5,img/planet10_right.png,10,Community 3,NA,TRUE,j,j,NA,NA,NA,25,6,"7,11,13,12,3,4,9,1,15,14,5,10,6,2,8"
15536,commdev-image-keyboard-response,545,7500887,learnblock2,1138.6000000238419,img/planet2_left.png,2,Community 3,NA,TRUE,f,f,NA,NA,NA,25,6,"7,11,13,12,3,4,9,1,15,14,5,10,6,2,8"
15536,commdev-image-keyboard-response,546,7502147,learnblock2,904.5,img/planet10_left.png,10,Community 3,NA,TRUE,f,f,NA,NA,NA,25,6,"7,11,13,12,3,4,9,1,15,14,5,10,6,2,8"
15536,commdev-image-keyboard-response,547,7503399,learnblock2,1001.5,img/planet6_left.png,6,Community 3,NA,TRUE,f,f,NA,NA,NA,25,6,"7,11,13,12,3,4,9,1,15,14,5,10,6,2,8"
15536,commdev-image-keyboard-response,548,7504651,learnblock2,877.5999999642372,img/planet5_right.png,5,Community 3,NA,TRUE,j,j,NA,NA,NA,25,6,"7,11,13,12,3,4,9,1,15,14,5,10,6,2,8"
15536,commdev-image-keyboard-response,549,7505903,learnblock2,1064.300000011921,img/planet2_right.png,2,Community 3,NA,TRUE,j,j,NA,NA,NA,25,6,"7,11,13,12,3,4,9,1,15,14,5,10,6,2,8"
15536,commdev-image-keyboard-response,550,7507156,learnblock2,841.6000000238419,img/planet8_right.png,8,Community 3,NA,TRUE,j,j,NA,NA,NA,25,6,"7,11,13,12,3,4,9,1,15,14,5,10,6,2,8"
15536,commdev-image-keyboard-response,551,7508408,learnblock2,1007.8000000119209,img/planet2_left.png,2,Community 3,NA,FALSE,j,f,NA,NA,NA,25,6,"7,11,13,12,3,4,9,1,15,14,5,10,6,2,8"
15536,commdev-image-keyboard-response,552,7509660,learnblock2,1088.5999999642372,img/planet5_left.png,5,Community 3,NA,TRUE,f,f,NA,NA,NA,25,6,"7,11,13,12,3,4,9,1,15,14,5,10,6,2,8"
15536,commdev-image-keyboard-response,553,7510911,learnblock2,1185.699999988079,img/planet3_right.png,3,Community 1,NA,TRUE,j,j,NA,NA,NA,25,6,"7,11,13,12,3,4,9,1,15,14,5,10,6,2,8"
15536,commdev-image-keyboard-response,554,7512162,learnblock2,1096,img/planet13_right.png,13,Community 1,NA,TRUE,j,j,NA,NA,NA,25,6,"7,11,13,12,3,4,9,1,15,14,5,10,6,2,8"
15536,commdev-image-keyboard-response,555,7513422,learnblock2,null,img/planet7_left.png,7,Community 1,NA,FALSE,null,f,NA,NA,NA,25,6,"7,11,13,12,3,4,9,1,15,14,5,10,6,2,8"
15536,commdev-image-keyboard-response,556,7514673,learnblock2,1079.5999999642372,img/planet13_left.png,13,Community 1,NA,TRUE,f,f,NA,NA,NA,25,6,"7,11,13,12,3,4,9,1,15,14,5,10,6,2,8"
15536,commdev-image-keyboard-response,557,7515926,learnblock2,880.3999999761581,img/planet3_left.png,3,Community 1,NA,TRUE,f,f,NA,NA,NA,25,6,"7,11,13,12,3,4,9,1,15,14,5,10,6,2,8"
15536,commdev-image-keyboard-response,558,7517178,learnblock2,1051,img/planet5_right.png,5,Community 3,NA,TRUE,j,j,NA,NA,NA,25,6,"7,11,13,12,3,4,9,1,15,14,5,10,6,2,8"
15536,commdev-image-keyboard-response,559,7518429,learnblock2,982.6999999880791,img/planet2_left.png,2,Community 3,NA,TRUE,f,f,NA,NA,NA,25,6,"7,11,13,12,3,4,9,1,15,14,5,10,6,2,8"
15536,commdev-image-keyboard-response,560,7519681,learnblock2,1031.5,img/planet6_left.png,6,Community 3,NA,TRUE,f,f,NA,NA,NA,25,6,"7,11,13,12,3,4,9,1,15,14,5,10,6,2,8"
15536,commdev-image-keyboard-response,561,7520944,learnblock2,862.7000000476837,img/planet5_left.png,5,Community 3,NA,TRUE,f,f,NA,NA,NA,25,6,"7,11,13,12,3,4,9,1,15,14,5,10,6,2,8"
15536,commdev-image-keyboard-response,562,7522195,learnblock2,931.8999999761581,img/planet8_left.png,8,Community 3,NA,TRUE,f,f,NA,NA,NA,25,6,"7,11,13,12,3,4,9,1,15,14,5,10,6,2,8"
15536,commdev-image-keyboard-response,563,7523455,learnblock2,1030.5,img/planet6_left.png,6,Community 3,NA,TRUE,f,f,NA,NA,NA,25,6,"7,11,13,12,3,4,9,1,15,14,5,10,6,2,8"
15536,commdev-image-keyboard-response,564,7524707,learnblock2,849.9000000357628,img/planet8_left.png,8,Community 3,NA,TRUE,f,f,NA,NA,NA,25,6,"7,11,13,12,3,4,9,1,15,14,5,10,6,2,8"
15536,commdev-image-keyboard-response,565,7525959,learnblock2,1046,img/planet6_right.png,6,Community 3,NA,TRUE,j,j,NA,NA,NA,25,6,"7,11,13,12,3,4,9,1,15,14,5,10,6,2,8"
15536,commdev-image-keyboard-response,566,7527211,learnblock2,null,img/planet10_left.png,10,Community 3,NA,FALSE,null,f,NA,NA,NA,25,6,"7,11,13,12,3,4,9,1,15,14,5,10,6,2,8"
15536,commdev-image-keyboard-response,567,7528463,learnblock2,37.700000047683716,img/planet8_right.png,8,Community 3,NA,FALSE,f,j,NA,NA,NA,25,6,"7,11,13,12,3,4,9,1,15,14,5,10,6,2,8"
15536,commdev-image-keyboard-response,568,7529715,learnblock2,978.6999999880791,img/planet2_right.png,2,Community 3,NA,TRUE,j,j,NA,NA,NA,25,6,"7,11,13,12,3,4,9,1,15,14,5,10,6,2,8"
15536,commdev-image-keyboard-response,569,7530967,learnblock2,737.8000000119209,img/planet8_right.png,8,Community 3,NA,TRUE,j,j,NA,NA,NA,25,6,"7,11,13,12,3,4,9,1,15,14,5,10,6,2,8"
15536,commdev-image-keyboard-response,570,7532223,learnblock2,781.7000000476837,img/planet6_right.png,6,Community 3,NA,TRUE,j,j,NA,NA,NA,25,6,"7,11,13,12,3,4,9,1,15,14,5,10,6,2,8"
15536,commdev-image-keyboard-response,571,7533475,learnblock2,990.7999999523163,img/planet8_right.png,8,Community 3,NA,TRUE,j,j,NA,NA,NA,25,6,"7,11,13,12,3,4,9,1,15,14,5,10,6,2,8"
15536,commdev-image-keyboard-response,572,7534728,learnblock2,874.5999999642372,img/planet6_left.png,6,Community 3,NA,TRUE,f,f,NA,NA,NA,25,6,"7,11,13,12,3,4,9,1,15,14,5,10,6,2,8"
15536,commdev-image-keyboard-response,573,7535979,learnblock2,1116.199999988079,img/planet2_left.png,2,Community 3,NA,TRUE,f,f,NA,NA,NA,25,6,"7,11,13,12,3,4,9,1,15,14,5,10,6,2,8"
15536,commdev-image-keyboard-response,574,7537231,learnblock2,765.6999999880791,img/planet5_left.png,5,Community 3,NA,TRUE,f,f,NA,NA,NA,25,6,"7,11,13,12,3,4,9,1,15,14,5,10,6,2,8"
15536,commdev-image-keyboard-response,575,7538482,learnblock2,761.6999999880791,img/planet8_right.png,8,Community 3,NA,TRUE,j,j,NA,NA,NA,25,6,"7,11,13,12,3,4,9,1,15,14,5,10,6,2,8"
15536,commdev-image-keyboard-response,576,7539734,learnblock2,737.2999999523163,img/planet2_right.png,2,Community 3,NA,TRUE,j,j,NA,NA,NA,25,6,"7,11,13,12,3,4,9,1,15,14,5,10,6,2,8"
15536,commdev-image-keyboard-response,577,7540986,learnblock2,1056.0999999642372,img/planet6_right.png,6,Community 3,NA,TRUE,j,j,NA,NA,NA,25,6,"7,11,13,12,3,4,9,1,15,14,5,10,6,2,8"
15536,commdev-image-keyboard-response,578,7542239,learnblock2,1003.3000000119209,img/planet5_left.png,5,Community 3,NA,TRUE,f,f,NA,NA,NA,25,6,"7,11,13,12,3,4,9,1,15,14,5,10,6,2,8"
15536,commdev-image-keyboard-response,579,7543491,learnblock2,686.8999999761581,img/planet2_left.png,2,Community 3,NA,FALSE,j,f,NA,NA,NA,25,6,"7,11,13,12,3,4,9,1,15,14,5,10,6,2,8"
15536,commdev-image-keyboard-response,580,7544743,learnblock2,632.1000000238419,img/planet10_left.png,10,Community 3,NA,TRUE,f,f,NA,NA,NA,25,6,"7,11,13,12,3,4,9,1,15,14,5,10,6,2,8"
15536,commdev-image-keyboard-response,581,7545995,learnblock2,731.3000000119209,img/planet1_right.png,1,Community 2,NA,TRUE,j,j,NA,NA,NA,25,6,"7,11,13,12,3,4,9,1,15,14,5,10,6,2,8"
15536,commdev-image-keyboard-response,582,7547247,learnblock2,844,img/planet14_left.png,14,Community 2,NA,TRUE,f,f,NA,NA,NA,25,6,"7,11,13,12,3,4,9,1,15,14,5,10,6,2,8"
15536,commdev-image-keyboard-response,583,7548510,learnblock2,841.3000000119209,img/planet9_left.png,9,Community 2,NA,TRUE,f,f,NA,NA,NA,25,6,"7,11,13,12,3,4,9,1,15,14,5,10,6,2,8"
15536,commdev-image-keyboard-response,584,7549762,learnblock2,814.9000000357628,img/planet15_left.png,15,Community 2,NA,TRUE,f,f,NA,NA,NA,25,6,"7,11,13,12,3,4,9,1,15,14,5,10,6,2,8"
15536,commdev-image-keyboard-response,585,7551014,learnblock2,704.3999999761581,img/planet9_left.png,9,Community 2,NA,TRUE,f,f,NA,NA,NA,25,6,"7,11,13,12,3,4,9,1,15,14,5,10,6,2,8"
15536,commdev-image-keyboard-response,586,7552266,learnblock2,834.3999999761581,img/planet1_left.png,1,Community 2,NA,TRUE,f,f,NA,NA,NA,25,6,"7,11,13,12,3,4,9,1,15,14,5,10,6,2,8"
15536,commdev-image-keyboard-response,587,7553519,learnblock2,738.4000000357628,img/planet15_left.png,15,Community 2,NA,TRUE,f,f,NA,NA,NA,25,6,"7,11,13,12,3,4,9,1,15,14,5,10,6,2,8"
15536,commdev-image-keyboard-response,588,7554771,learnblock2,625.0999999642372,img/planet1_left.png,1,Community 2,NA,TRUE,f,f,NA,NA,NA,25,6,"7,11,13,12,3,4,9,1,15,14,5,10,6,2,8"
15536,commdev-image-keyboard-response,589,7556024,learnblock2,599.9000000357628,img/planet9_left.png,9,Community 2,NA,TRUE,f,f,NA,NA,NA,25,6,"7,11,13,12,3,4,9,1,15,14,5,10,6,2,8"
15536,commdev-image-keyboard-response,590,7557275,learnblock2,690.7000000476837,img/planet1_right.png,1,Community 2,NA,TRUE,j,j,NA,NA,NA,25,6,"7,11,13,12,3,4,9,1,15,14,5,10,6,2,8"
15536,commdev-image-keyboard-response,591,7558527,learnblock2,846,img/planet15_right.png,15,Community 2,NA,TRUE,j,j,NA,NA,NA,25,6,"7,11,13,12,3,4,9,1,15,14,5,10,6,2,8"
15536,commdev-image-keyboard-response,592,7559780,learnblock2,null,img/planet14_left.png,14,Community 2,NA,FALSE,null,f,NA,NA,NA,25,6,"7,11,13,12,3,4,9,1,15,14,5,10,6,2,8"
15536,commdev-image-keyboard-response,593,7561037,learnblock2,890.5,img/planet1_left.png,1,Community 2,NA,TRUE,f,f,NA,NA,NA,25,6,"7,11,13,12,3,4,9,1,15,14,5,10,6,2,8"
15536,commdev-image-keyboard-response,594,7562290,learnblock2,816.8000000119209,img/planet10_left.png,10,Community 3,NA,TRUE,f,f,NA,NA,NA,25,6,"7,11,13,12,3,4,9,1,15,14,5,10,6,2,8"
15536,commdev-image-keyboard-response,595,7563542,learnblock2,620.6999999880791,img/planet8_left.png,8,Community 3,NA,TRUE,f,f,NA,NA,NA,25,6,"7,11,13,12,3,4,9,1,15,14,5,10,6,2,8"
15536,commdev-image-keyboard-response,596,7564800,learnblock2,683.3000000119209,img/planet6_right.png,6,Community 3,NA,TRUE,j,j,NA,NA,NA,25,6,"7,11,13,12,3,4,9,1,15,14,5,10,6,2,8"
15536,commdev-image-keyboard-response,597,7566052,learnblock2,1116.5,img/planet8_right.png,8,Community 3,NA,FALSE,f,j,NA,NA,NA,25,6,"7,11,13,12,3,4,9,1,15,14,5,10,6,2,8"
15536,commdev-image-keyboard-response,598,7567304,learnblock2,1104,img/planet5_right.png,5,Community 3,NA,FALSE,f,j,NA,NA,NA,25,6,"7,11,13,12,3,4,9,1,15,14,5,10,6,2,8"
15536,commdev-image-keyboard-response,599,7568555,learnblock2,511,img/planet2_right.png,2,Community 3,NA,TRUE,j,j,NA,NA,NA,25,6,"7,11,13,12,3,4,9,1,15,14,5,10,6,2,8"
15536,commdev-image-keyboard-response,600,7569806,learnblock2,717.9000000357628,img/planet5_left.png,5,Community 3,NA,TRUE,f,f,NA,NA,NA,25,6,"7,11,13,12,3,4,9,1,15,14,5,10,6,2,8"
15536,commdev-image-keyboard-response,601,7571058,learnblock2,881,img/planet2_right.png,2,Community 3,NA,TRUE,j,j,NA,NA,NA,25,6,"7,11,13,12,3,4,9,1,15,14,5,10,6,2,8"
15536,commdev-image-keyboard-response,602,7572309,learnblock2,832.0999999642372,img/planet8_left.png,8,Community 3,NA,TRUE,f,f,NA,NA,NA,25,6,"7,11,13,12,3,4,9,1,15,14,5,10,6,2,8"
15536,commdev-image-keyboard-response,603,7573560,learnblock2,733.8999999761581,img/planet2_right.png,2,Community 3,NA,TRUE,j,j,NA,NA,NA,25,6,"7,11,13,12,3,4,9,1,15,14,5,10,6,2,8"
15536,commdev-image-keyboard-response,604,7574812,learnblock2,1129.800000011921,img/planet10_right.png,10,Community 3,NA,TRUE,j,j,NA,NA,NA,25,6,"7,11,13,12,3,4,9,1,15,14,5,10,6,2,8"
15536,commdev-image-keyboard-response,605,7576064,learnblock2,988.5999999642372,img/planet6_left.png,6,Community 3,NA,TRUE,f,f,NA,NA,NA,25,6,"7,11,13,12,3,4,9,1,15,14,5,10,6,2,8"
15536,commdev-image-keyboard-response,606,7577315,learnblock2,1068.5,img/planet2_right.png,2,Community 3,NA,TRUE,j,j,NA,NA,NA,25,6,"7,11,13,12,3,4,9,1,15,14,5,10,6,2,8"
15536,commdev-image-keyboard-response,607,7578567,learnblock2,1057.1000000238419,img/planet5_left.png,5,Community 3,NA,FALSE,j,f,NA,NA,NA,25,6,"7,11,13,12,3,4,9,1,15,14,5,10,6,2,8"
15536,commdev-image-keyboard-response,608,7579819,learnblock2,1139.699999988079,img/planet6_right.png,6,Community 3,NA,FALSE,f,j,NA,NA,NA,25,6,"7,11,13,12,3,4,9,1,15,14,5,10,6,2,8"
15536,commdev-image-keyboard-response,609,7581070,learnblock2,null,img/planet2_right.png,2,Community 3,NA,FALSE,null,j,NA,NA,NA,25,6,"7,11,13,12,3,4,9,1,15,14,5,10,6,2,8"
15536,commdev-image-keyboard-response,610,7582322,learnblock2,60.30000001192093,img/planet6_right.png,6,Community 3,NA,TRUE,j,j,NA,NA,NA,25,6,"7,11,13,12,3,4,9,1,15,14,5,10,6,2,8"
15536,commdev-image-keyboard-response,611,7583574,learnblock2,710.1000000238419,img/planet5_left.png,5,Community 3,NA,TRUE,f,f,NA,NA,NA,25,6,"7,11,13,12,3,4,9,1,15,14,5,10,6,2,8"
15536,commdev-image-keyboard-response,612,7584825,learnblock2,763.4000000357628,img/planet8_left.png,8,Community 3,NA,FALSE,j,f,NA,NA,NA,25,6,"7,11,13,12,3,4,9,1,15,14,5,10,6,2,8"
15536,commdev-image-keyboard-response,613,7586077,learnblock2,529.0999999642372,img/planet10_left.png,10,Community 3,NA,TRUE,f,f,NA,NA,NA,25,6,"7,11,13,12,3,4,9,1,15,14,5,10,6,2,8"
15536,commdev-image-keyboard-response,614,7587330,learnblock2,1008.0999999642372,img/planet8_left.png,8,Community 3,NA,TRUE,f,f,NA,NA,NA,25,6,"7,11,13,12,3,4,9,1,15,14,5,10,6,2,8"
15536,commdev-image-keyboard-response,615,7588583,learnblock2,866.3000000119209,img/planet10_right.png,10,Community 3,NA,TRUE,j,j,NA,NA,NA,25,6,"7,11,13,12,3,4,9,1,15,14,5,10,6,2,8"
15536,commdev-image-keyboard-response,616,7589835,learnblock2,981.6000000238419,img/planet2_right.png,2,Community 3,NA,FALSE,f,j,NA,NA,NA,25,6,"7,11,13,12,3,4,9,1,15,14,5,10,6,2,8"
15536,commdev-image-keyboard-response,617,7591100,learnblock2,null,img/planet10_left.png,10,Community 3,NA,FALSE,null,f,NA,NA,NA,25,6,"7,11,13,12,3,4,9,1,15,14,5,10,6,2,8"
15536,commdev-image-keyboard-response,618,7592352,learnblock2,208.4000000357628,img/planet2_right.png,2,Community 3,NA,TRUE,j,j,NA,NA,NA,25,6,"7,11,13,12,3,4,9,1,15,14,5,10,6,2,8"
15536,commdev-image-keyboard-response,619,7593603,learnblock2,476.10000002384186,img/planet6_right.png,6,Community 3,NA,TRUE,j,j,NA,NA,NA,25,6,"7,11,13,12,3,4,9,1,15,14,5,10,6,2,8"
15536,commdev-image-keyboard-response,620,7594855,learnblock2,75.79999995231628,img/planet5_left.png,5,Community 3,NA,FALSE,j,f,NA,NA,NA,25,6,"7,11,13,12,3,4,9,1,15,14,5,10,6,2,8"
15536,commdev-image-keyboard-response,621,7596106,learnblock2,178.39999997615814,img/planet2_left.png,2,Community 3,NA,FALSE,j,f,NA,NA,NA,25,6,"7,11,13,12,3,4,9,1,15,14,5,10,6,2,8"
15536,commdev-image-keyboard-response,622,7597357,learnblock2,584.3000000119209,img/planet5_right.png,5,Community 3,NA,TRUE,j,j,NA,NA,NA,25,6,"7,11,13,12,3,4,9,1,15,14,5,10,6,2,8"
15536,commdev-image-keyboard-response,623,7598609,learnblock2,699,img/planet3_right.png,3,Community 1,NA,TRUE,j,j,NA,NA,NA,25,6,"7,11,13,12,3,4,9,1,15,14,5,10,6,2,8"
15536,commdev-image-keyboard-response,624,7599861,learnblock2,737.8999999761581,img/planet5_left.png,5,Community 3,NA,TRUE,f,f,NA,NA,NA,25,6,"7,11,13,12,3,4,9,1,15,14,5,10,6,2,8"
15536,commdev-image-keyboard-response,625,7601118,learnblock2,791.6000000238419,img/planet2_left.png,2,Community 3,NA,TRUE,f,f,NA,NA,NA,25,6,"7,11,13,12,3,4,9,1,15,14,5,10,6,2,8"
15536,commdev-image-keyboard-response,626,7602378,learnblock2,666.1999999880791,img/planet6_right.png,6,Community 3,NA,TRUE,j,j,NA,NA,NA,25,6,"7,11,13,12,3,4,9,1,15,14,5,10,6,2,8"
15536,commdev-image-keyboard-response,627,7603631,learnblock2,811.1999999880791,img/planet2_right.png,2,Community 3,NA,TRUE,j,j,NA,NA,NA,25,6,"7,11,13,12,3,4,9,1,15,14,5,10,6,2,8"
15536,commdev-image-keyboard-response,628,7604883,learnblock2,787.2999999523163,img/planet6_left.png,6,Community 3,NA,TRUE,f,f,NA,NA,NA,25,6,"7,11,13,12,3,4,9,1,15,14,5,10,6,2,8"
15536,commdev-image-keyboard-response,629,7606135,learnblock2,773.1999999880791,img/planet8_left.png,8,Community 3,NA,TRUE,f,f,NA,NA,NA,25,6,"7,11,13,12,3,4,9,1,15,14,5,10,6,2,8"
15536,commdev-image-keyboard-response,630,7607386,learnblock2,444,img/planet6_left.png,6,Community 3,NA,FALSE,j,f,NA,NA,NA,25,6,"7,11,13,12,3,4,9,1,15,14,5,10,6,2,8"
15536,commdev-image-keyboard-response,631,7608638,learnblock2,496.89999997615814,img/planet2_left.png,2,Community 3,NA,TRUE,f,f,NA,NA,NA,25,6,"7,11,13,12,3,4,9,1,15,14,5,10,6,2,8"
15536,commdev-image-keyboard-response,632,7609902,learnblock2,781.8000000119209,img/planet6_right.png,6,Community 3,NA,TRUE,j,j,NA,NA,NA,25,6,"7,11,13,12,3,4,9,1,15,14,5,10,6,2,8"
15536,commdev-image-keyboard-response,633,7611154,learnblock2,805.3999999761581,img/planet5_left.png,5,Community 3,NA,TRUE,f,f,NA,NA,NA,25,6,"7,11,13,12,3,4,9,1,15,14,5,10,6,2,8"
15536,commdev-image-keyboard-response,634,7612406,learnblock2,972.6000000238419,img/planet2_left.png,2,Community 3,NA,FALSE,j,f,NA,NA,NA,25,6,"7,11,13,12,3,4,9,1,15,14,5,10,6,2,8"
15536,commdev-image-keyboard-response,635,7613658,learnblock2,868.1000000238419,img/planet10_right.png,10,Community 3,NA,FALSE,f,j,NA,NA,NA,25,6,"7,11,13,12,3,4,9,1,15,14,5,10,6,2,8"
15536,commdev-image-keyboard-response,636,7614909,learnblock2,1167,img/planet6_left.png,6,Community 3,NA,TRUE,f,f,NA,NA,NA,25,6,"7,11,13,12,3,4,9,1,15,14,5,10,6,2,8"
15536,commdev-image-keyboard-response,637,7616161,learnblock2,957.7000000476837,img/planet10_left.png,10,Community 3,NA,TRUE,f,f,NA,NA,NA,25,6,"7,11,13,12,3,4,9,1,15,14,5,10,6,2,8"
15536,commdev-image-keyboard-response,638,7617413,learnblock2,602.1000000238419,img/planet8_right.png,8,Community 3,NA,TRUE,j,j,NA,NA,NA,25,6,"7,11,13,12,3,4,9,1,15,14,5,10,6,2,8"
15536,commdev-image-keyboard-response,639,7618665,learnblock2,646.1000000238419,img/planet10_right.png,10,Community 3,NA,TRUE,j,j,NA,NA,NA,25,6,"7,11,13,12,3,4,9,1,15,14,5,10,6,2,8"
15536,commdev-image-keyboard-response,640,7619916,learnblock2,649,img/planet1_right.png,1,Community 2,NA,TRUE,j,j,NA,NA,NA,25,6,"7,11,13,12,3,4,9,1,15,14,5,10,6,2,8"
15536,commdev-image-keyboard-response,641,7621168,learnblock2,583.8000000119209,img/planet10_right.png,10,Community 3,NA,TRUE,j,j,NA,NA,NA,25,6,"7,11,13,12,3,4,9,1,15,14,5,10,6,2,8"
15536,commdev-image-keyboard-response,642,7622420,learnblock2,710.7000000476837,img/planet8_right.png,8,Community 3,NA,TRUE,j,j,NA,NA,NA,25,6,"7,11,13,12,3,4,9,1,15,14,5,10,6,2,8"
15536,commdev-image-keyboard-response,643,7623672,learnblock2,611.0999999642372,img/planet5_left.png,5,Community 3,NA,TRUE,f,f,NA,NA,NA,25,6,"7,11,13,12,3,4,9,1,15,14,5,10,6,2,8"
15536,commdev-image-keyboard-response,644,7624924,learnblock2,786.9000000357628,img/planet3_left.png,3,Community 1,NA,TRUE,f,f,NA,NA,NA,25,6,"7,11,13,12,3,4,9,1,15,14,5,10,6,2,8"
15536,commdev-image-keyboard-response,645,7626185,learnblock2,700.0999999642372,img/planet11_right.png,11,Community 1,NA,TRUE,j,j,NA,NA,NA,25,6,"7,11,13,12,3,4,9,1,15,14,5,10,6,2,8"
15536,commdev-image-keyboard-response,646,7627437,learnblock2,600.1000000238419,img/planet13_left.png,13,Community 1,NA,TRUE,f,f,NA,NA,NA,25,6,"7,11,13,12,3,4,9,1,15,14,5,10,6,2,8"
15536,commdev-image-keyboard-response,647,7628689,learnblock2,618.6999999880791,img/planet3_left.png,3,Community 1,NA,TRUE,f,f,NA,NA,NA,25,6,"7,11,13,12,3,4,9,1,15,14,5,10,6,2,8"
