subject_id,trial_type,trial_index,time_elapsed,block,rt,stimulus,planet,community,response,correct,key_press,learning_correct_response,parse,init_locations,final_locations,browser_interactions,num_comp,planet_map
14829,commdev-instructions,7,45177,NA,7667.4000000059605,"<p>In this game, you will be shown a 3x3 grid of patterns.</p> <p>The last one in the bottom right-hand corner, <strong>will be missing:</strong></p> <div style='width: 700px;'><div style='float: top;'><img style='width: 200px;' src='practice/p1_M1.png'></img><p class='small'>You need to select<strong> which of the four possible patterns </strong>along the bottom<strong> fits into the gap:</strong></p></div><div style='float: top;'><img style='width: 300px;' src='practice/p1_T1.png'></img></div><br>",NA,NA,NA,NA,NA,NA,NA,NA,NA,1,6,"5,11,13,1,14,15,6,7,4,9,3,10,12,2,8"
14829,commdev-instructions,8,66047,NA,800.5,"<p>Try to be as fast and as accurate as you can be.</p> <p>If you cannot solve the puzzle then you should guess - you will not be penalised for an incorrect answer.</p> <p>The task contains a shuffled mix of easy, medium and hard puzzles.</p> <p>You will have <strong>30 seconds</strong> to complete each puzzle.</p><br>",NA,NA,NA,NA,NA,NA,NA,NA,NA,1,6,"5,11,13,1,14,15,6,7,4,9,3,10,12,2,8"
14829,commdev-instructions,15,98357,NA,1527,<p><strong>Success!</strong></p> <p>You seem to be getting the hang of this...</p> <p>Let's move on to the real trials.</p><br>,NA,NA,NA,NA,NA,NA,NA,NA,NA,1,6,"5,11,13,1,14,15,6,7,4,9,3,10,12,2,8"
14829,commdev-instructions,178,361795,NA,904.8000000044703,"<p>In this game, you are a scientist on board a space shuttle. </p><p> On each mission, you will visit planets all across the universe.</p><img src=""img/controlroom.jpg"" width=300vw>",NA,NA,NA,NA,NA,NA,NA,NA,NA,1,6,"5,11,13,1,14,15,6,7,4,9,3,10,12,2,8"
14829,commdev-instructions,179,364906,NA,1042.6000000014901,"<p>Here are a few planets you might see:</p><img src=""img/practice1.png"" width=200vw><img src=""img/practice2.png"" width=200vw><img src=""img/practice3.png"" width=200vw>",NA,NA,NA,NA,NA,NA,NA,NA,NA,1,6,"5,11,13,1,14,15,6,7,4,9,3,10,12,2,8"
14829,commdev-instructions,180,373724,NA,1422.7000000029802,"<p>Your job as a scientist is to record which direction the winds are moving on each planet.</p><p>There are two types of wind directions:</p><img src=""img/practice1_left.png"" width=200vw><img src=""img/practice1_right.png"" width=200vw>",NA,NA,NA,NA,NA,NA,NA,NA,NA,1,6,"5,11,13,1,14,15,6,7,4,9,3,10,12,2,8"
14829,commdev-instructions,181,380946,NA,2335.7999999970198,"<p>If the winds are moving this way, press the letter <strong>F</strong> on the keyboard as fast as you can.</p><img src=""img/leftwind.png"" width=250vw>",NA,NA,NA,NA,NA,NA,NA,NA,NA,1,6,"5,11,13,1,14,15,6,7,4,9,3,10,12,2,8"
14829,commdev-instructions,182,387650,NA,2208.2000000029802,"<p>If the winds are moving this way, press the letter <strong>J</strong> on the keyboard as fast as you can.</p><img src=""img/rightwind.png"" width=350vw>",NA,NA,NA,NA,NA,NA,NA,NA,NA,1,6,"5,11,13,1,14,15,6,7,4,9,3,10,12,2,8"
14829,commdev-instructions,183,393962,NA,1890.2999999970198,<p>You will have 1 second to respond. Try to respond before the time runs out!,NA,NA,NA,NA,NA,NA,NA,NA,NA,1,6,"5,11,13,1,14,15,6,7,4,9,3,10,12,2,8"
14829,commdev-instructions,184,402901,NA,3507.2000000029802,<p>The planets you will visit will look different from each other.</p><p>You should respond <strong>only</strong> based on wind direction.,NA,NA,NA,NA,NA,NA,NA,NA,NA,1,6,"5,11,13,1,14,15,6,7,4,9,3,10,12,2,8"
14829,commdev-instructions,185,410843,NA,2771.7999999970198,"<p> Ready to start the practice round? </p><p> Remember, press <strong>F</strong> or <strong>J</strong> depending on the wind direction.<br><img src=""img/categorize_planet_example.png""",NA,NA,NA,NA,NA,NA,NA,NA,NA,1,6,"5,11,13,1,14,15,6,7,4,9,3,10,12,2,8"
14829,commdev-instructions,197,466873,NA,2032.3000000044703,"<p>Great, now try a short practice mission. </p><p> This time, you will have 1 second to respond and you won't know whether you pressed the right or wrong key for each planet.</p>",NA,NA,NA,NA,NA,NA,NA,NA,NA,1,6,"5,11,13,1,14,15,6,7,4,9,3,10,12,2,8"
14829,commdev-image-keyboard-response,198,468229,practice,null,img/practice3_right.png,NA,Number not found in mappings,NA,FALSE,null,j,NA,NA,NA,1,6,"5,11,13,1,14,15,6,7,4,9,3,10,12,2,8"
14829,commdev-image-keyboard-response,199,469482,practice,1231.5,img/practice1_left.png,NA,Number not found in mappings,NA,TRUE,f,f,NA,NA,NA,1,6,"5,11,13,1,14,15,6,7,4,9,3,10,12,2,8"
14829,commdev-image-keyboard-response,200,470734,practice,1035.8999999985099,img/practice3_left.png,NA,Number not found in mappings,NA,TRUE,f,f,NA,NA,NA,1,6,"5,11,13,1,14,15,6,7,4,9,3,10,12,2,8"
14829,commdev-image-keyboard-response,201,471987,practice,856.3999999985099,img/practice1_left.png,NA,Number not found in mappings,NA,TRUE,f,f,NA,NA,NA,1,6,"5,11,13,1,14,15,6,7,4,9,3,10,12,2,8"
14829,commdev-image-keyboard-response,202,473239,practice,1146.2000000029802,img/practice2_left.png,NA,Number not found in mappings,NA,TRUE,f,f,NA,NA,NA,1,6,"5,11,13,1,14,15,6,7,4,9,3,10,12,2,8"
14829,commdev-image-keyboard-response,203,474492,practice,579.8000000044703,img/practice4_right.png,NA,Number not found in mappings,NA,TRUE,j,j,NA,NA,NA,1,6,"5,11,13,1,14,15,6,7,4,9,3,10,12,2,8"
14829,commdev-image-keyboard-response,204,475745,practice,1060.6000000014901,img/practice3_left.png,NA,Number not found in mappings,NA,TRUE,f,f,NA,NA,NA,1,6,"5,11,13,1,14,15,6,7,4,9,3,10,12,2,8"
14829,commdev-image-keyboard-response,205,476997,practice,1237.3999999985099,img/practice2_right.png,NA,Number not found in mappings,NA,TRUE,j,j,NA,NA,NA,1,6,"5,11,13,1,14,15,6,7,4,9,3,10,12,2,8"
14829,commdev-instructions,206,487526,NA,979.1000000014901,"<p>Great job with the practice round.</p><p>During real missions, you won't know whether you pressed the right or wrong key for each planet.</p><p>But between missions, we will tell you how you did overall.</p>",NA,NA,NA,NA,NA,NA,NA,NA,NA,1,6,"5,11,13,1,14,15,6,7,4,9,3,10,12,2,8"
14829,commdev-instructions,207,496431,NA,662.4000000059605,<p>Try your best! You will be paid a bonus based on how many correct responses you make!</p><p>Responses that are too slow will not count toward your bonus.</p>,NA,NA,NA,NA,NA,NA,NA,NA,NA,1,6,"5,11,13,1,14,15,6,7,4,9,3,10,12,2,8"
14829,commdev-instructions,208,507166,NA,4539.79999999702,"<p>You are almost ready to start the real game.</p><p> First, we are going to ask you some questions about how the game works.</p>",NA,NA,NA,NA,NA,NA,NA,NA,NA,1,6,"5,11,13,1,14,15,6,7,4,9,3,10,12,2,8"
14829,commdev-instructions,217,578475,NA,NA,NA,NA,NA,NA,NA,NA,NA,NA,NA,NA,1,6,"5,11,13,1,14,15,6,7,4,9,3,10,12,2,8"
14829,commdev-image-keyboard-response,219,592276,learnblock1,1083.5,img/planet9_left.png,9,Community 2,NA,TRUE,f,f,NA,NA,NA,1,6,"5,11,13,1,14,15,6,7,4,9,3,10,12,2,8"
14829,commdev-image-keyboard-response,220,593529,learnblock1,1159.5,img/planet7_left.png,7,Community 2,NA,TRUE,f,f,NA,NA,NA,1,6,"5,11,13,1,14,15,6,7,4,9,3,10,12,2,8"
14829,commdev-image-keyboard-response,221,594782,learnblock1,null,img/planet4_right.png,4,Community 2,NA,FALSE,null,j,NA,NA,NA,1,6,"5,11,13,1,14,15,6,7,4,9,3,10,12,2,8"
14829,commdev-image-keyboard-response,222,596034,learnblock1,null,img/planet7_left.png,7,Community 2,NA,FALSE,null,f,NA,NA,NA,1,6,"5,11,13,1,14,15,6,7,4,9,3,10,12,2,8"
14829,commdev-image-keyboard-response,223,597287,learnblock1,171.59999999403954,img/planet9_right.png,9,Community 2,NA,FALSE,f,j,NA,NA,NA,1,6,"5,11,13,1,14,15,6,7,4,9,3,10,12,2,8"
14829,commdev-image-keyboard-response,224,598538,learnblock1,767,img/planet7_left.png,7,Community 2,NA,TRUE,f,f,NA,NA,NA,1,6,"5,11,13,1,14,15,6,7,4,9,3,10,12,2,8"
14829,commdev-image-keyboard-response,225,599791,learnblock1,379.6000000014901,img/planet10_left.png,10,Community 3,NA,TRUE,f,f,NA,NA,NA,1,6,"5,11,13,1,14,15,6,7,4,9,3,10,12,2,8"
14829,commdev-image-keyboard-response,226,601043,learnblock1,null,img/planet8_right.png,8,Community 3,NA,FALSE,null,j,NA,NA,NA,1,6,"5,11,13,1,14,15,6,7,4,9,3,10,12,2,8"
14829,commdev-image-keyboard-response,227,602296,learnblock1,735.9000000059605,img/planet2_left.png,2,Community 3,NA,TRUE,f,f,NA,NA,NA,1,6,"5,11,13,1,14,15,6,7,4,9,3,10,12,2,8"
14829,commdev-image-keyboard-response,228,603548,learnblock1,818.1999999955297,img/planet10_left.png,10,Community 3,NA,TRUE,f,f,NA,NA,NA,1,6,"5,11,13,1,14,15,6,7,4,9,3,10,12,2,8"
14829,commdev-image-keyboard-response,229,604801,learnblock1,1158.1000000014901,img/planet8_left.png,8,Community 3,NA,TRUE,f,f,NA,NA,NA,1,6,"5,11,13,1,14,15,6,7,4,9,3,10,12,2,8"
14829,commdev-image-keyboard-response,230,606053,learnblock1,null,img/planet12_right.png,12,Community 3,NA,FALSE,null,j,NA,NA,NA,1,6,"5,11,13,1,14,15,6,7,4,9,3,10,12,2,8"
14829,commdev-image-keyboard-response,231,607305,learnblock1,855.6999999955297,img/planet3_left.png,3,Community 3,NA,TRUE,f,f,NA,NA,NA,1,6,"5,11,13,1,14,15,6,7,4,9,3,10,12,2,8"
14829,commdev-image-keyboard-response,232,608558,learnblock1,1143.6000000014901,img/planet8_left.png,8,Community 3,NA,TRUE,f,f,NA,NA,NA,1,6,"5,11,13,1,14,15,6,7,4,9,3,10,12,2,8"
14829,commdev-image-keyboard-response,233,609810,learnblock1,null,img/planet10_right.png,10,Community 3,NA,FALSE,null,j,NA,NA,NA,1,6,"5,11,13,1,14,15,6,7,4,9,3,10,12,2,8"
14829,commdev-image-keyboard-response,234,611063,learnblock1,null,img/planet7_right.png,7,Community 2,NA,FALSE,null,j,NA,NA,NA,1,6,"5,11,13,1,14,15,6,7,4,9,3,10,12,2,8"
14829,commdev-image-keyboard-response,235,612315,learnblock1,704.7000000029802,img/planet4_left.png,4,Community 2,NA,TRUE,f,f,NA,NA,NA,1,6,"5,11,13,1,14,15,6,7,4,9,3,10,12,2,8"
14829,commdev-image-keyboard-response,236,613568,learnblock1,null,img/planet7_left.png,7,Community 2,NA,FALSE,null,f,NA,NA,NA,1,6,"5,11,13,1,14,15,6,7,4,9,3,10,12,2,8"
14829,commdev-image-keyboard-response,237,614820,learnblock1,null,img/planet9_right.png,9,Community 2,NA,FALSE,null,j,NA,NA,NA,1,6,"5,11,13,1,14,15,6,7,4,9,3,10,12,2,8"
14829,commdev-image-keyboard-response,238,616072,learnblock1,861.5,img/planet15_left.png,15,Community 2,NA,TRUE,f,f,NA,NA,NA,1,6,"5,11,13,1,14,15,6,7,4,9,3,10,12,2,8"
14829,commdev-image-keyboard-response,239,617325,learnblock1,null,img/planet9_right.png,9,Community 2,NA,FALSE,null,j,NA,NA,NA,1,6,"5,11,13,1,14,15,6,7,4,9,3,10,12,2,8"
14829,commdev-image-keyboard-response,240,618578,learnblock1,null,img/planet15_right.png,15,Community 2,NA,FALSE,null,j,NA,NA,NA,1,6,"5,11,13,1,14,15,6,7,4,9,3,10,12,2,8"
14829,commdev-image-keyboard-response,241,619830,learnblock1,null,img/planet6_right.png,6,Community 2,NA,FALSE,null,j,NA,NA,NA,1,6,"5,11,13,1,14,15,6,7,4,9,3,10,12,2,8"
14829,commdev-image-keyboard-response,242,621083,learnblock1,null,img/planet15_right.png,15,Community 2,NA,FALSE,null,j,NA,NA,NA,1,6,"5,11,13,1,14,15,6,7,4,9,3,10,12,2,8"
14829,commdev-image-keyboard-response,243,622335,learnblock1,748.4000000059605,img/planet4_left.png,4,Community 2,NA,TRUE,f,f,NA,NA,NA,1,6,"5,11,13,1,14,15,6,7,4,9,3,10,12,2,8"
14829,commdev-image-keyboard-response,244,623588,learnblock1,null,img/planet9_right.png,9,Community 2,NA,FALSE,null,j,NA,NA,NA,1,6,"5,11,13,1,14,15,6,7,4,9,3,10,12,2,8"
14829,commdev-image-keyboard-response,245,624840,learnblock1,678.3000000044703,img/planet6_left.png,6,Community 2,NA,TRUE,f,f,NA,NA,NA,1,6,"5,11,13,1,14,15,6,7,4,9,3,10,12,2,8"
14829,commdev-image-keyboard-response,246,626093,learnblock1,null,img/planet9_left.png,9,Community 2,NA,FALSE,null,f,NA,NA,NA,1,6,"5,11,13,1,14,15,6,7,4,9,3,10,12,2,8"
14829,commdev-image-keyboard-response,247,627346,learnblock1,1025.8999999985099,img/planet4_left.png,4,Community 2,NA,TRUE,f,f,NA,NA,NA,1,6,"5,11,13,1,14,15,6,7,4,9,3,10,12,2,8"
14829,commdev-image-keyboard-response,248,628599,learnblock1,null,img/planet9_right.png,9,Community 2,NA,FALSE,null,j,NA,NA,NA,1,6,"5,11,13,1,14,15,6,7,4,9,3,10,12,2,8"
14829,commdev-image-keyboard-response,249,629853,learnblock1,509.30000000447035,img/planet4_left.png,4,Community 2,NA,TRUE,f,f,NA,NA,NA,1,6,"5,11,13,1,14,15,6,7,4,9,3,10,12,2,8"
14829,commdev-image-keyboard-response,250,631105,learnblock1,534.5,img/planet6_left.png,6,Community 2,NA,TRUE,f,f,NA,NA,NA,1,6,"5,11,13,1,14,15,6,7,4,9,3,10,12,2,8"
14829,commdev-image-keyboard-response,251,632357,learnblock1,null,img/planet15_right.png,15,Community 2,NA,FALSE,null,j,NA,NA,NA,1,6,"5,11,13,1,14,15,6,7,4,9,3,10,12,2,8"
14829,commdev-image-keyboard-response,252,633608,learnblock1,null,img/planet1_right.png,1,Community 1,NA,FALSE,null,j,NA,NA,NA,1,6,"5,11,13,1,14,15,6,7,4,9,3,10,12,2,8"
14829,commdev-image-keyboard-response,253,634860,learnblock1,null,img/planet15_right.png,15,Community 2,NA,FALSE,null,j,NA,NA,NA,1,6,"5,11,13,1,14,15,6,7,4,9,3,10,12,2,8"
14829,commdev-image-keyboard-response,254,636113,learnblock1,null,img/planet1_right.png,1,Community 1,NA,FALSE,null,j,NA,NA,NA,1,6,"5,11,13,1,14,15,6,7,4,9,3,10,12,2,8"
14829,commdev-image-keyboard-response,255,637366,learnblock1,null,img/planet5_right.png,5,Community 1,NA,FALSE,null,j,NA,NA,NA,1,6,"5,11,13,1,14,15,6,7,4,9,3,10,12,2,8"
14829,commdev-image-keyboard-response,256,638619,learnblock1,764.3999999985099,img/planet14_left.png,14,Community 1,NA,TRUE,f,f,NA,NA,NA,1,6,"5,11,13,1,14,15,6,7,4,9,3,10,12,2,8"
14829,commdev-image-keyboard-response,257,639871,learnblock1,600.2999999970198,img/planet5_left.png,5,Community 1,NA,TRUE,f,f,NA,NA,NA,1,6,"5,11,13,1,14,15,6,7,4,9,3,10,12,2,8"
14829,commdev-image-keyboard-response,258,641124,learnblock1,525.5,img/planet13_left.png,13,Community 1,NA,TRUE,f,f,NA,NA,NA,1,6,"5,11,13,1,14,15,6,7,4,9,3,10,12,2,8"
14829,commdev-image-keyboard-response,259,642377,learnblock1,520.1999999955297,img/planet1_left.png,1,Community 1,NA,TRUE,f,f,NA,NA,NA,1,6,"5,11,13,1,14,15,6,7,4,9,3,10,12,2,8"
14829,commdev-image-keyboard-response,260,643630,learnblock1,423.59999999403954,img/planet13_left.png,13,Community 1,NA,TRUE,f,f,NA,NA,NA,1,6,"5,11,13,1,14,15,6,7,4,9,3,10,12,2,8"
14829,commdev-image-keyboard-response,261,644882,learnblock1,null,img/planet1_right.png,1,Community 1,NA,FALSE,null,j,NA,NA,NA,1,6,"5,11,13,1,14,15,6,7,4,9,3,10,12,2,8"
14829,commdev-image-keyboard-response,262,646134,learnblock1,553.6000000014901,img/planet5_left.png,5,Community 1,NA,TRUE,f,f,NA,NA,NA,1,6,"5,11,13,1,14,15,6,7,4,9,3,10,12,2,8"
14829,commdev-image-keyboard-response,263,647386,learnblock1,null,img/planet1_right.png,1,Community 1,NA,FALSE,null,j,NA,NA,NA,1,6,"5,11,13,1,14,15,6,7,4,9,3,10,12,2,8"
14829,commdev-image-keyboard-response,264,648638,learnblock1,960.8999999985099,img/planet13_left.png,13,Community 1,NA,TRUE,f,f,NA,NA,NA,1,6,"5,11,13,1,14,15,6,7,4,9,3,10,12,2,8"
14829,commdev-image-keyboard-response,265,649890,learnblock1,null,img/planet1_right.png,1,Community 1,NA,FALSE,null,j,NA,NA,NA,1,6,"5,11,13,1,14,15,6,7,4,9,3,10,12,2,8"
14829,commdev-image-keyboard-response,266,651143,learnblock1,null,img/planet11_right.png,11,Community 1,NA,FALSE,null,j,NA,NA,NA,1,6,"5,11,13,1,14,15,6,7,4,9,3,10,12,2,8"
14829,commdev-image-keyboard-response,267,652395,learnblock1,null,img/planet14_right.png,14,Community 1,NA,FALSE,null,j,NA,NA,NA,1,6,"5,11,13,1,14,15,6,7,4,9,3,10,12,2,8"
14829,commdev-image-keyboard-response,268,653647,learnblock1,738.1000000014901,img/planet11_left.png,11,Community 1,NA,TRUE,f,f,NA,NA,NA,1,6,"5,11,13,1,14,15,6,7,4,9,3,10,12,2,8"
14829,commdev-image-keyboard-response,269,654900,learnblock1,null,img/planet5_right.png,5,Community 1,NA,FALSE,null,j,NA,NA,NA,1,6,"5,11,13,1,14,15,6,7,4,9,3,10,12,2,8"
14829,commdev-image-keyboard-response,270,656153,learnblock1,1073.8000000044703,img/planet1_right.png,1,Community 1,NA,FALSE,f,j,NA,NA,NA,1,6,"5,11,13,1,14,15,6,7,4,9,3,10,12,2,8"
14829,commdev-image-keyboard-response,271,657406,learnblock1,null,img/planet11_left.png,11,Community 1,NA,FALSE,null,f,NA,NA,NA,1,6,"5,11,13,1,14,15,6,7,4,9,3,10,12,2,8"
14829,commdev-image-keyboard-response,272,658659,learnblock1,null,img/planet1_right.png,1,Community 1,NA,FALSE,null,j,NA,NA,NA,1,6,"5,11,13,1,14,15,6,7,4,9,3,10,12,2,8"
14829,commdev-image-keyboard-response,273,659912,learnblock1,null,img/planet13_right.png,13,Community 1,NA,FALSE,null,j,NA,NA,NA,1,6,"5,11,13,1,14,15,6,7,4,9,3,10,12,2,8"
14829,commdev-image-keyboard-response,274,661164,learnblock1,597.8999999985099,img/planet11_left.png,11,Community 1,NA,TRUE,f,f,NA,NA,NA,1,6,"5,11,13,1,14,15,6,7,4,9,3,10,12,2,8"
14829,commdev-image-keyboard-response,275,662417,learnblock1,623.5,img/planet1_left.png,1,Community 1,NA,TRUE,f,f,NA,NA,NA,1,6,"5,11,13,1,14,15,6,7,4,9,3,10,12,2,8"
14829,commdev-image-keyboard-response,276,663670,learnblock1,585.2999999970198,img/planet11_left.png,11,Community 1,NA,TRUE,f,f,NA,NA,NA,1,6,"5,11,13,1,14,15,6,7,4,9,3,10,12,2,8"
14829,commdev-image-keyboard-response,277,664921,learnblock1,null,img/planet13_right.png,13,Community 1,NA,FALSE,null,j,NA,NA,NA,1,6,"5,11,13,1,14,15,6,7,4,9,3,10,12,2,8"
14829,commdev-image-keyboard-response,278,666174,learnblock1,1058.5,img/planet14_left.png,14,Community 1,NA,TRUE,f,f,NA,NA,NA,1,6,"5,11,13,1,14,15,6,7,4,9,3,10,12,2,8"
14829,commdev-image-keyboard-response,279,667427,learnblock1,580.5,img/planet5_left.png,5,Community 1,NA,TRUE,f,f,NA,NA,NA,1,6,"5,11,13,1,14,15,6,7,4,9,3,10,12,2,8"
14829,commdev-image-keyboard-response,280,668680,learnblock1,755.3999999985099,img/planet14_left.png,14,Community 1,NA,TRUE,f,f,NA,NA,NA,1,6,"5,11,13,1,14,15,6,7,4,9,3,10,12,2,8"
14829,commdev-image-keyboard-response,281,669932,learnblock1,512.7999999970198,img/planet11_left.png,11,Community 1,NA,TRUE,f,f,NA,NA,NA,1,6,"5,11,13,1,14,15,6,7,4,9,3,10,12,2,8"
14829,commdev-image-keyboard-response,282,671186,learnblock1,null,img/planet5_right.png,5,Community 1,NA,FALSE,null,j,NA,NA,NA,1,6,"5,11,13,1,14,15,6,7,4,9,3,10,12,2,8"
14829,commdev-image-keyboard-response,283,672438,learnblock1,898.7999999970198,img/planet14_left.png,14,Community 1,NA,TRUE,f,f,NA,NA,NA,1,6,"5,11,13,1,14,15,6,7,4,9,3,10,12,2,8"
14829,commdev-image-keyboard-response,284,673692,learnblock1,null,img/planet13_right.png,13,Community 1,NA,FALSE,null,j,NA,NA,NA,1,6,"5,11,13,1,14,15,6,7,4,9,3,10,12,2,8"
14829,commdev-image-keyboard-response,285,674944,learnblock1,567.7999999970198,img/planet1_left.png,1,Community 1,NA,TRUE,f,f,NA,NA,NA,1,6,"5,11,13,1,14,15,6,7,4,9,3,10,12,2,8"
14829,commdev-image-keyboard-response,286,676196,learnblock1,649.3000000044703,img/planet15_left.png,15,Community 2,NA,TRUE,f,f,NA,NA,NA,1,6,"5,11,13,1,14,15,6,7,4,9,3,10,12,2,8"
14829,commdev-image-keyboard-response,287,677448,learnblock1,null,img/planet9_right.png,9,Community 2,NA,FALSE,null,j,NA,NA,NA,1,6,"5,11,13,1,14,15,6,7,4,9,3,10,12,2,8"
14829,commdev-image-keyboard-response,288,678701,learnblock1,null,img/planet4_left.png,4,Community 2,NA,FALSE,null,f,NA,NA,NA,1,6,"5,11,13,1,14,15,6,7,4,9,3,10,12,2,8"
14829,commdev-image-keyboard-response,289,679953,learnblock1,902.6999999955297,img/planet15_left.png,15,Community 2,NA,TRUE,f,f,NA,NA,NA,1,6,"5,11,13,1,14,15,6,7,4,9,3,10,12,2,8"
14829,commdev-image-keyboard-response,290,681205,learnblock1,null,img/planet4_right.png,4,Community 2,NA,FALSE,null,j,NA,NA,NA,1,6,"5,11,13,1,14,15,6,7,4,9,3,10,12,2,8"
14829,commdev-image-keyboard-response,291,682457,learnblock1,1026.2000000029802,img/planet7_left.png,7,Community 2,NA,TRUE,f,f,NA,NA,NA,1,6,"5,11,13,1,14,15,6,7,4,9,3,10,12,2,8"
14829,commdev-image-keyboard-response,292,683709,learnblock1,766.4000000059605,img/planet6_left.png,6,Community 2,NA,TRUE,f,f,NA,NA,NA,1,6,"5,11,13,1,14,15,6,7,4,9,3,10,12,2,8"
14829,commdev-image-keyboard-response,293,684962,learnblock1,null,img/planet9_right.png,9,Community 2,NA,FALSE,null,j,NA,NA,NA,1,6,"5,11,13,1,14,15,6,7,4,9,3,10,12,2,8"
14829,commdev-image-keyboard-response,294,686213,learnblock1,null,img/planet6_left.png,6,Community 2,NA,FALSE,null,f,NA,NA,NA,1,6,"5,11,13,1,14,15,6,7,4,9,3,10,12,2,8"
14829,commdev-image-keyboard-response,295,687466,learnblock1,743.7000000029802,img/planet7_right.png,7,Community 2,NA,FALSE,f,j,NA,NA,NA,1,6,"5,11,13,1,14,15,6,7,4,9,3,10,12,2,8"
14829,commdev-image-keyboard-response,296,688722,learnblock1,1100.8999999985099,img/planet6_left.png,6,Community 2,NA,TRUE,f,f,NA,NA,NA,1,6,"5,11,13,1,14,15,6,7,4,9,3,10,12,2,8"
14829,commdev-image-keyboard-response,297,689974,learnblock1,null,img/planet15_right.png,15,Community 2,NA,FALSE,null,j,NA,NA,NA,1,6,"5,11,13,1,14,15,6,7,4,9,3,10,12,2,8"
14829,commdev-image-keyboard-response,298,691227,learnblock1,null,img/planet9_right.png,9,Community 2,NA,FALSE,null,j,NA,NA,NA,1,6,"5,11,13,1,14,15,6,7,4,9,3,10,12,2,8"
14829,commdev-image-keyboard-response,299,692479,learnblock1,null,img/planet6_right.png,6,Community 2,NA,FALSE,null,j,NA,NA,NA,1,6,"5,11,13,1,14,15,6,7,4,9,3,10,12,2,8"
14829,commdev-image-keyboard-response,300,693747,learnblock1,null,img/planet7_right.png,7,Community 2,NA,FALSE,null,j,NA,NA,NA,1,6,"5,11,13,1,14,15,6,7,4,9,3,10,12,2,8"
14829,commdev-image-keyboard-response,301,695039,learnblock1,637.6000000014901,img/planet10_left.png,10,Community 3,NA,TRUE,f,f,NA,NA,NA,1,6,"5,11,13,1,14,15,6,7,4,9,3,10,12,2,8"
14829,commdev-image-keyboard-response,302,696292,learnblock1,null,img/planet7_left.png,7,Community 2,NA,FALSE,null,f,NA,NA,NA,1,6,"5,11,13,1,14,15,6,7,4,9,3,10,12,2,8"
14829,commdev-image-keyboard-response,303,697544,learnblock1,156,img/planet10_right.png,10,Community 3,NA,FALSE,f,j,NA,NA,NA,1,6,"5,11,13,1,14,15,6,7,4,9,3,10,12,2,8"
14829,commdev-image-keyboard-response,304,698797,learnblock1,null,img/planet2_right.png,2,Community 3,NA,FALSE,null,j,NA,NA,NA,1,6,"5,11,13,1,14,15,6,7,4,9,3,10,12,2,8"
14829,commdev-image-keyboard-response,305,700053,learnblock1,null,img/planet10_right.png,10,Community 3,NA,FALSE,null,j,NA,NA,NA,1,6,"5,11,13,1,14,15,6,7,4,9,3,10,12,2,8"
14829,commdev-image-keyboard-response,306,701309,learnblock1,null,img/planet8_right.png,8,Community 3,NA,FALSE,null,j,NA,NA,NA,1,6,"5,11,13,1,14,15,6,7,4,9,3,10,12,2,8"
14829,commdev-image-keyboard-response,307,702562,learnblock1,687.4000000059605,img/planet12_left.png,12,Community 3,NA,TRUE,f,f,NA,NA,NA,1,6,"5,11,13,1,14,15,6,7,4,9,3,10,12,2,8"
14829,commdev-image-keyboard-response,308,703814,learnblock1,540.5,img/planet8_right.png,8,Community 3,NA,FALSE,f,j,NA,NA,NA,1,6,"5,11,13,1,14,15,6,7,4,9,3,10,12,2,8"
14829,commdev-image-keyboard-response,309,705066,learnblock1,null,img/planet3_right.png,3,Community 3,NA,FALSE,null,j,NA,NA,NA,1,6,"5,11,13,1,14,15,6,7,4,9,3,10,12,2,8"
14829,commdev-image-keyboard-response,310,706318,learnblock1,null,img/planet14_right.png,14,Community 1,NA,FALSE,null,j,NA,NA,NA,1,6,"5,11,13,1,14,15,6,7,4,9,3,10,12,2,8"
14829,commdev-image-keyboard-response,311,707571,learnblock1,580.2999999970198,img/planet11_left.png,11,Community 1,NA,TRUE,f,f,NA,NA,NA,1,6,"5,11,13,1,14,15,6,7,4,9,3,10,12,2,8"
14829,commdev-image-keyboard-response,312,708824,learnblock1,null,img/planet14_right.png,14,Community 1,NA,FALSE,null,j,NA,NA,NA,1,6,"5,11,13,1,14,15,6,7,4,9,3,10,12,2,8"
14829,commdev-image-keyboard-response,313,710077,learnblock1,null,img/planet13_right.png,13,Community 1,NA,FALSE,null,j,NA,NA,NA,1,6,"5,11,13,1,14,15,6,7,4,9,3,10,12,2,8"
14829,commdev-image-keyboard-response,314,711330,learnblock1,null,img/planet11_right.png,11,Community 1,NA,FALSE,null,j,NA,NA,NA,1,6,"5,11,13,1,14,15,6,7,4,9,3,10,12,2,8"
14829,commdev-image-keyboard-response,315,712583,learnblock1,null,img/planet1_right.png,1,Community 1,NA,FALSE,null,j,NA,NA,NA,1,6,"5,11,13,1,14,15,6,7,4,9,3,10,12,2,8"
14829,commdev-image-keyboard-response,316,713836,learnblock1,808.3000000044703,img/planet5_left.png,5,Community 1,NA,TRUE,f,f,NA,NA,NA,1,6,"5,11,13,1,14,15,6,7,4,9,3,10,12,2,8"
14829,commdev-image-keyboard-response,317,715088,learnblock1,783.8000000044703,img/planet13_left.png,13,Community 1,NA,TRUE,f,f,NA,NA,NA,1,6,"5,11,13,1,14,15,6,7,4,9,3,10,12,2,8"
14829,commdev-image-keyboard-response,318,716340,learnblock1,null,img/planet14_right.png,14,Community 1,NA,FALSE,null,j,NA,NA,NA,1,6,"5,11,13,1,14,15,6,7,4,9,3,10,12,2,8"
14829,commdev-image-keyboard-response,319,717593,learnblock1,null,img/planet11_right.png,11,Community 1,NA,FALSE,null,j,NA,NA,NA,1,6,"5,11,13,1,14,15,6,7,4,9,3,10,12,2,8"
14829,commdev-image-keyboard-response,320,718845,learnblock1,786.1000000014901,img/planet13_left.png,13,Community 1,NA,TRUE,f,f,NA,NA,NA,1,6,"5,11,13,1,14,15,6,7,4,9,3,10,12,2,8"
14829,commdev-image-keyboard-response,321,720098,learnblock1,null,img/planet5_left.png,5,Community 1,NA,FALSE,null,f,NA,NA,NA,1,6,"5,11,13,1,14,15,6,7,4,9,3,10,12,2,8"
14829,commdev-image-keyboard-response,322,721351,learnblock1,170.60000000149012,img/planet14_left.png,14,Community 1,NA,TRUE,f,f,NA,NA,NA,1,6,"5,11,13,1,14,15,6,7,4,9,3,10,12,2,8"
14829,commdev-image-keyboard-response,323,722603,learnblock1,710.6000000014901,img/planet13_left.png,13,Community 1,NA,TRUE,f,f,NA,NA,NA,1,6,"5,11,13,1,14,15,6,7,4,9,3,10,12,2,8"
14829,commdev-image-keyboard-response,324,723854,learnblock1,null,img/planet11_right.png,11,Community 1,NA,FALSE,null,j,NA,NA,NA,1,6,"5,11,13,1,14,15,6,7,4,9,3,10,12,2,8"
14829,commdev-image-keyboard-response,325,725106,learnblock1,616.8999999985099,img/planet13_left.png,13,Community 1,NA,TRUE,f,f,NA,NA,NA,1,6,"5,11,13,1,14,15,6,7,4,9,3,10,12,2,8"
14829,commdev-image-keyboard-response,326,726360,learnblock1,724.1999999955297,img/planet11_left.png,11,Community 1,NA,TRUE,f,f,NA,NA,NA,1,6,"5,11,13,1,14,15,6,7,4,9,3,10,12,2,8"
14829,commdev-image-keyboard-response,327,727612,learnblock1,null,img/planet5_right.png,5,Community 1,NA,FALSE,null,j,NA,NA,NA,1,6,"5,11,13,1,14,15,6,7,4,9,3,10,12,2,8"
14829,commdev-image-keyboard-response,328,728864,learnblock1,767.2000000029802,img/planet1_left.png,1,Community 1,NA,TRUE,f,f,NA,NA,NA,1,6,"5,11,13,1,14,15,6,7,4,9,3,10,12,2,8"
14829,commdev-image-keyboard-response,329,730116,learnblock1,783.2999999970198,img/planet13_left.png,13,Community 1,NA,TRUE,f,f,NA,NA,NA,1,6,"5,11,13,1,14,15,6,7,4,9,3,10,12,2,8"
14829,commdev-image-keyboard-response,330,731369,learnblock1,null,img/planet1_right.png,1,Community 1,NA,FALSE,null,j,NA,NA,NA,1,6,"5,11,13,1,14,15,6,7,4,9,3,10,12,2,8"
14829,commdev-image-keyboard-response,331,732622,learnblock1,null,img/planet13_left.png,13,Community 1,NA,FALSE,null,f,NA,NA,NA,1,6,"5,11,13,1,14,15,6,7,4,9,3,10,12,2,8"
14829,commdev-image-keyboard-response,332,733875,learnblock1,835.7999999970198,img/planet5_left.png,5,Community 1,NA,TRUE,f,f,NA,NA,NA,1,6,"5,11,13,1,14,15,6,7,4,9,3,10,12,2,8"
14829,commdev-image-keyboard-response,333,735127,learnblock1,707.7000000029802,img/planet14_left.png,14,Community 1,NA,TRUE,f,f,NA,NA,NA,1,6,"5,11,13,1,14,15,6,7,4,9,3,10,12,2,8"
14829,commdev-image-keyboard-response,334,736379,learnblock1,528.2999999970198,img/planet11_left.png,11,Community 1,NA,TRUE,f,f,NA,NA,NA,1,6,"5,11,13,1,14,15,6,7,4,9,3,10,12,2,8"
14829,commdev-image-keyboard-response,335,737631,learnblock1,null,img/planet1_right.png,1,Community 1,NA,FALSE,null,j,NA,NA,NA,1,6,"5,11,13,1,14,15,6,7,4,9,3,10,12,2,8"
14829,commdev-image-keyboard-response,336,738884,learnblock1,null,img/planet15_right.png,15,Community 2,NA,FALSE,null,j,NA,NA,NA,1,6,"5,11,13,1,14,15,6,7,4,9,3,10,12,2,8"
14829,commdev-image-keyboard-response,337,740137,learnblock1,null,img/planet6_left.png,6,Community 2,NA,FALSE,null,f,NA,NA,NA,1,6,"5,11,13,1,14,15,6,7,4,9,3,10,12,2,8"
14829,commdev-image-keyboard-response,338,741389,learnblock1,null,img/planet7_left.png,7,Community 2,NA,FALSE,null,f,NA,NA,NA,1,6,"5,11,13,1,14,15,6,7,4,9,3,10,12,2,8"
14829,commdev-image-keyboard-response,339,742642,learnblock1,881.7000000029802,img/planet6_right.png,6,Community 2,NA,FALSE,f,j,NA,NA,NA,1,6,"5,11,13,1,14,15,6,7,4,9,3,10,12,2,8"
14829,commdev-image-keyboard-response,340,743894,learnblock1,null,img/planet4_right.png,4,Community 2,NA,FALSE,null,j,NA,NA,NA,1,6,"5,11,13,1,14,15,6,7,4,9,3,10,12,2,8"
14829,commdev-image-keyboard-response,341,745147,learnblock1,null,img/planet7_right.png,7,Community 2,NA,FALSE,null,j,NA,NA,NA,1,6,"5,11,13,1,14,15,6,7,4,9,3,10,12,2,8"
14829,commdev-image-keyboard-response,342,746399,learnblock1,699.6999999955297,img/planet10_left.png,10,Community 3,NA,TRUE,f,f,NA,NA,NA,1,6,"5,11,13,1,14,15,6,7,4,9,3,10,12,2,8"
14829,commdev-image-keyboard-response,343,747652,learnblock1,661.7999999970198,img/planet2_left.png,2,Community 3,NA,TRUE,f,f,NA,NA,NA,1,6,"5,11,13,1,14,15,6,7,4,9,3,10,12,2,8"
14829,commdev-image-keyboard-response,344,748905,learnblock1,850.1999999955297,img/planet10_right.png,10,Community 3,NA,FALSE,f,j,NA,NA,NA,1,6,"5,11,13,1,14,15,6,7,4,9,3,10,12,2,8"
14829,commdev-image-keyboard-response,345,750157,learnblock1,null,img/planet7_right.png,7,Community 2,NA,FALSE,null,j,NA,NA,NA,1,6,"5,11,13,1,14,15,6,7,4,9,3,10,12,2,8"
14829,commdev-image-keyboard-response,346,751409,learnblock1,null,img/planet6_right.png,6,Community 2,NA,FALSE,null,j,NA,NA,NA,1,6,"5,11,13,1,14,15,6,7,4,9,3,10,12,2,8"
14829,commdev-image-keyboard-response,347,752661,learnblock1,954.3999999985099,img/planet4_left.png,4,Community 2,NA,TRUE,f,f,NA,NA,NA,1,6,"5,11,13,1,14,15,6,7,4,9,3,10,12,2,8"
14829,commdev-image-keyboard-response,348,753913,learnblock1,null,img/planet6_left.png,6,Community 2,NA,FALSE,null,f,NA,NA,NA,1,6,"5,11,13,1,14,15,6,7,4,9,3,10,12,2,8"
14829,commdev-image-keyboard-response,349,755166,learnblock1,916.2000000029802,img/planet7_left.png,7,Community 2,NA,TRUE,f,f,NA,NA,NA,1,6,"5,11,13,1,14,15,6,7,4,9,3,10,12,2,8"
14829,commdev-image-keyboard-response,350,756419,learnblock1,null,img/planet9_right.png,9,Community 2,NA,FALSE,null,j,NA,NA,NA,1,6,"5,11,13,1,14,15,6,7,4,9,3,10,12,2,8"
14829,commdev-image-keyboard-response,351,757671,learnblock1,518.2000000029802,img/planet4_left.png,4,Community 2,NA,TRUE,f,f,NA,NA,NA,1,6,"5,11,13,1,14,15,6,7,4,9,3,10,12,2,8"
14829,commdev-image-keyboard-response,352,758924,learnblock1,661.3999999985099,img/planet9_left.png,9,Community 2,NA,TRUE,f,f,NA,NA,NA,1,6,"5,11,13,1,14,15,6,7,4,9,3,10,12,2,8"
14829,commdev-image-keyboard-response,353,760177,learnblock1,null,img/planet7_right.png,7,Community 2,NA,FALSE,null,j,NA,NA,NA,1,6,"5,11,13,1,14,15,6,7,4,9,3,10,12,2,8"
14829,commdev-image-keyboard-response,354,761430,learnblock1,849.7999999970198,img/planet4_left.png,4,Community 2,NA,TRUE,f,f,NA,NA,NA,1,6,"5,11,13,1,14,15,6,7,4,9,3,10,12,2,8"
14829,commdev-image-keyboard-response,355,762682,learnblock1,621.7000000029802,img/planet9_left.png,9,Community 2,NA,TRUE,f,f,NA,NA,NA,1,6,"5,11,13,1,14,15,6,7,4,9,3,10,12,2,8"
14829,commdev-image-keyboard-response,356,763933,learnblock1,989.3000000044703,img/planet6_left.png,6,Community 2,NA,TRUE,f,f,NA,NA,NA,1,6,"5,11,13,1,14,15,6,7,4,9,3,10,12,2,8"
14829,commdev-image-keyboard-response,357,765186,learnblock1,1200.2999999970198,img/planet9_left.png,9,Community 2,NA,TRUE,f,f,NA,NA,NA,1,6,"5,11,13,1,14,15,6,7,4,9,3,10,12,2,8"
14829,commdev-image-keyboard-response,358,766438,learnblock1,864.7999999970198,img/planet4_left.png,4,Community 2,NA,TRUE,f,f,NA,NA,NA,1,6,"5,11,13,1,14,15,6,7,4,9,3,10,12,2,8"
14829,commdev-image-keyboard-response,359,767690,learnblock1,532.3000000044703,img/planet9_left.png,9,Community 2,NA,TRUE,f,f,NA,NA,NA,1,6,"5,11,13,1,14,15,6,7,4,9,3,10,12,2,8"
14829,commdev-image-keyboard-response,360,768943,learnblock1,867.2999999970198,img/planet6_left.png,6,Community 2,NA,TRUE,f,f,NA,NA,NA,1,6,"5,11,13,1,14,15,6,7,4,9,3,10,12,2,8"
14829,commdev-image-keyboard-response,361,770195,learnblock1,null,img/planet15_right.png,15,Community 2,NA,FALSE,null,j,NA,NA,NA,1,6,"5,11,13,1,14,15,6,7,4,9,3,10,12,2,8"
14829,commdev-image-keyboard-response,362,771448,learnblock1,null,img/planet9_right.png,9,Community 2,NA,FALSE,null,j,NA,NA,NA,1,6,"5,11,13,1,14,15,6,7,4,9,3,10,12,2,8"
14829,commdev-image-keyboard-response,363,772700,learnblock1,null,img/planet6_right.png,6,Community 2,NA,FALSE,null,j,NA,NA,NA,1,6,"5,11,13,1,14,15,6,7,4,9,3,10,12,2,8"
14829,commdev-image-keyboard-response,364,773954,learnblock1,761.5,img/planet4_right.png,4,Community 2,NA,FALSE,f,j,NA,NA,NA,1,6,"5,11,13,1,14,15,6,7,4,9,3,10,12,2,8"
14829,commdev-image-keyboard-response,365,775207,learnblock1,null,img/planet7_right.png,7,Community 2,NA,FALSE,null,j,NA,NA,NA,1,6,"5,11,13,1,14,15,6,7,4,9,3,10,12,2,8"
14829,commdev-image-keyboard-response,366,776458,learnblock1,1133.7999999970198,img/planet4_right.png,4,Community 2,NA,FALSE,f,j,NA,NA,NA,1,6,"5,11,13,1,14,15,6,7,4,9,3,10,12,2,8"
14829,commdev-image-keyboard-response,367,777710,learnblock1,1173.6000000014901,img/planet6_left.png,6,Community 2,NA,TRUE,f,f,NA,NA,NA,1,6,"5,11,13,1,14,15,6,7,4,9,3,10,12,2,8"
14829,commdev-image-keyboard-response,368,778963,learnblock1,null,img/planet15_left.png,15,Community 2,NA,FALSE,null,f,NA,NA,NA,1,6,"5,11,13,1,14,15,6,7,4,9,3,10,12,2,8"
14829,commdev-image-keyboard-response,369,780215,learnblock1,217.89999999850988,img/planet6_right.png,6,Community 2,NA,FALSE,f,j,NA,NA,NA,1,6,"5,11,13,1,14,15,6,7,4,9,3,10,12,2,8"
14829,commdev-image-keyboard-response,370,781468,learnblock1,null,img/planet9_left.png,9,Community 2,NA,FALSE,null,f,NA,NA,NA,1,6,"5,11,13,1,14,15,6,7,4,9,3,10,12,2,8"
14829,commdev-image-keyboard-response,371,782721,learnblock1,123.5,img/planet6_left.png,6,Community 2,NA,TRUE,f,f,NA,NA,NA,1,6,"5,11,13,1,14,15,6,7,4,9,3,10,12,2,8"
14829,commdev-image-keyboard-response,372,783974,learnblock1,752.5,img/planet15_left.png,15,Community 2,NA,TRUE,f,f,NA,NA,NA,1,6,"5,11,13,1,14,15,6,7,4,9,3,10,12,2,8"
14829,commdev-image-keyboard-response,373,785226,learnblock1,null,img/planet9_right.png,9,Community 2,NA,FALSE,null,j,NA,NA,NA,1,6,"5,11,13,1,14,15,6,7,4,9,3,10,12,2,8"
14829,commdev-image-keyboard-response,374,786479,learnblock1,555.3999999985099,img/planet15_left.png,15,Community 2,NA,TRUE,f,f,NA,NA,NA,1,6,"5,11,13,1,14,15,6,7,4,9,3,10,12,2,8"
14829,commdev-image-keyboard-response,375,787732,learnblock1,591.6000000014901,img/planet9_left.png,9,Community 2,NA,TRUE,f,f,NA,NA,NA,1,6,"5,11,13,1,14,15,6,7,4,9,3,10,12,2,8"
14829,commdev-image-keyboard-response,376,788985,learnblock1,null,img/planet7_right.png,7,Community 2,NA,FALSE,null,j,NA,NA,NA,1,6,"5,11,13,1,14,15,6,7,4,9,3,10,12,2,8"
14829,commdev-image-keyboard-response,377,790237,learnblock1,null,img/planet4_right.png,4,Community 2,NA,FALSE,null,j,NA,NA,NA,1,6,"5,11,13,1,14,15,6,7,4,9,3,10,12,2,8"
14829,commdev-image-keyboard-response,378,791489,learnblock1,795.6000000014901,img/planet9_right.png,9,Community 2,NA,FALSE,f,j,NA,NA,NA,1,6,"5,11,13,1,14,15,6,7,4,9,3,10,12,2,8"
14829,commdev-image-keyboard-response,379,792741,learnblock1,null,img/planet4_right.png,4,Community 2,NA,FALSE,null,j,NA,NA,NA,1,6,"5,11,13,1,14,15,6,7,4,9,3,10,12,2,8"
14829,commdev-image-keyboard-response,380,793994,learnblock1,null,img/planet9_right.png,9,Community 2,NA,FALSE,null,j,NA,NA,NA,1,6,"5,11,13,1,14,15,6,7,4,9,3,10,12,2,8"
14829,commdev-image-keyboard-response,381,795246,learnblock1,null,img/planet4_left.png,4,Community 2,NA,FALSE,null,f,NA,NA,NA,1,6,"5,11,13,1,14,15,6,7,4,9,3,10,12,2,8"
14829,commdev-image-keyboard-response,382,796498,learnblock1,null,img/planet15_right.png,15,Community 2,NA,FALSE,null,j,NA,NA,NA,1,6,"5,11,13,1,14,15,6,7,4,9,3,10,12,2,8"
14829,commdev-image-keyboard-response,383,797750,learnblock1,563,img/planet4_left.png,4,Community 2,NA,TRUE,f,f,NA,NA,NA,1,6,"5,11,13,1,14,15,6,7,4,9,3,10,12,2,8"
14829,commdev-image-keyboard-response,384,799001,learnblock1,687.8999999985099,img/planet9_right.png,9,Community 2,NA,FALSE,f,j,NA,NA,NA,1,6,"5,11,13,1,14,15,6,7,4,9,3,10,12,2,8"
14829,commdev-image-keyboard-response,385,800254,learnblock1,null,img/planet4_right.png,4,Community 2,NA,FALSE,null,j,NA,NA,NA,1,6,"5,11,13,1,14,15,6,7,4,9,3,10,12,2,8"
14829,commdev-image-keyboard-response,386,801506,learnblock1,null,img/planet15_left.png,15,Community 2,NA,FALSE,null,f,NA,NA,NA,1,6,"5,11,13,1,14,15,6,7,4,9,3,10,12,2,8"
14829,commdev-image-keyboard-response,387,802759,learnblock1,null,img/planet1_right.png,1,Community 1,NA,FALSE,null,j,NA,NA,NA,1,6,"5,11,13,1,14,15,6,7,4,9,3,10,12,2,8"
14829,commdev-image-keyboard-response,388,804012,learnblock1,1116.7999999970198,img/planet11_left.png,11,Community 1,NA,TRUE,f,f,NA,NA,NA,1,6,"5,11,13,1,14,15,6,7,4,9,3,10,12,2,8"
14829,commdev-image-keyboard-response,389,805265,learnblock1,783.7999999970198,img/planet14_left.png,14,Community 1,NA,TRUE,f,f,NA,NA,NA,1,6,"5,11,13,1,14,15,6,7,4,9,3,10,12,2,8"
14829,commdev-image-keyboard-response,390,806517,learnblock1,704.3000000044703,img/planet11_left.png,11,Community 1,NA,TRUE,f,f,NA,NA,NA,1,6,"5,11,13,1,14,15,6,7,4,9,3,10,12,2,8"
14829,commdev-image-keyboard-response,391,807770,learnblock1,null,img/planet14_right.png,14,Community 1,NA,FALSE,null,j,NA,NA,NA,1,6,"5,11,13,1,14,15,6,7,4,9,3,10,12,2,8"
14829,commdev-image-keyboard-response,392,809023,learnblock1,923.7999999970198,img/planet5_left.png,5,Community 1,NA,TRUE,f,f,NA,NA,NA,1,6,"5,11,13,1,14,15,6,7,4,9,3,10,12,2,8"
14829,commdev-image-keyboard-response,393,810274,learnblock1,607.7999999970198,img/planet13_left.png,13,Community 1,NA,TRUE,f,f,NA,NA,NA,1,6,"5,11,13,1,14,15,6,7,4,9,3,10,12,2,8"
14829,commdev-image-keyboard-response,394,811527,learnblock1,null,img/planet1_right.png,1,Community 1,NA,FALSE,null,j,NA,NA,NA,1,6,"5,11,13,1,14,15,6,7,4,9,3,10,12,2,8"
14829,commdev-image-keyboard-response,395,812780,learnblock1,null,img/planet13_right.png,13,Community 1,NA,FALSE,null,j,NA,NA,NA,1,6,"5,11,13,1,14,15,6,7,4,9,3,10,12,2,8"
14829,commdev-image-keyboard-response,396,814033,learnblock1,null,img/planet1_right.png,1,Community 1,NA,FALSE,null,j,NA,NA,NA,1,6,"5,11,13,1,14,15,6,7,4,9,3,10,12,2,8"
14829,commdev-image-keyboard-response,397,815284,learnblock1,null,img/planet15_right.png,15,Community 2,NA,FALSE,null,j,NA,NA,NA,1,6,"5,11,13,1,14,15,6,7,4,9,3,10,12,2,8"
14829,commdev-image-keyboard-response,398,816537,learnblock1,858.1000000014901,img/planet6_left.png,6,Community 2,NA,TRUE,f,f,NA,NA,NA,1,6,"5,11,13,1,14,15,6,7,4,9,3,10,12,2,8"
14829,commdev-image-keyboard-response,399,817789,learnblock1,888.8999999985099,img/planet9_left.png,9,Community 2,NA,TRUE,f,f,NA,NA,NA,1,6,"5,11,13,1,14,15,6,7,4,9,3,10,12,2,8"
14829,commdev-image-keyboard-response,400,819042,learnblock1,1184.5,img/planet15_left.png,15,Community 2,NA,TRUE,f,f,NA,NA,NA,1,6,"5,11,13,1,14,15,6,7,4,9,3,10,12,2,8"
14829,commdev-image-keyboard-response,401,820295,learnblock1,931.1999999955297,img/planet1_left.png,1,Community 1,NA,TRUE,f,f,NA,NA,NA,1,6,"5,11,13,1,14,15,6,7,4,9,3,10,12,2,8"
14829,commdev-image-keyboard-response,402,821548,learnblock1,754.2000000029802,img/planet11_left.png,11,Community 1,NA,TRUE,f,f,NA,NA,NA,1,6,"5,11,13,1,14,15,6,7,4,9,3,10,12,2,8"
14829,commdev-image-keyboard-response,403,822800,learnblock1,579.6000000014901,img/planet1_left.png,1,Community 1,NA,TRUE,f,f,NA,NA,NA,1,6,"5,11,13,1,14,15,6,7,4,9,3,10,12,2,8"
14829,commdev-image-keyboard-response,404,824053,learnblock1,606.6000000014901,img/planet5_left.png,5,Community 1,NA,TRUE,f,f,NA,NA,NA,1,6,"5,11,13,1,14,15,6,7,4,9,3,10,12,2,8"
14829,commdev-image-keyboard-response,405,825305,learnblock1,null,img/planet1_right.png,1,Community 1,NA,FALSE,null,j,NA,NA,NA,1,6,"5,11,13,1,14,15,6,7,4,9,3,10,12,2,8"
14829,commdev-image-keyboard-response,406,826559,learnblock1,470,img/planet15_right.png,15,Community 2,NA,FALSE,f,j,NA,NA,NA,1,6,"5,11,13,1,14,15,6,7,4,9,3,10,12,2,8"
14829,commdev-image-keyboard-response,407,827812,learnblock1,null,img/planet1_right.png,1,Community 1,NA,FALSE,null,j,NA,NA,NA,1,6,"5,11,13,1,14,15,6,7,4,9,3,10,12,2,8"
14829,commdev-image-keyboard-response,408,829064,learnblock1,736.2999999970198,img/planet11_left.png,11,Community 1,NA,TRUE,f,f,NA,NA,NA,1,6,"5,11,13,1,14,15,6,7,4,9,3,10,12,2,8"
14829,commdev-image-keyboard-response,409,830317,learnblock1,1146.5,img/planet14_right.png,14,Community 1,NA,FALSE,f,j,NA,NA,NA,1,6,"5,11,13,1,14,15,6,7,4,9,3,10,12,2,8"
14829,commdev-image-keyboard-response,410,831570,learnblock1,null,img/planet13_left.png,13,Community 1,NA,FALSE,null,f,NA,NA,NA,1,6,"5,11,13,1,14,15,6,7,4,9,3,10,12,2,8"
14829,commdev-image-keyboard-response,411,832823,learnblock1,805.5999999940395,img/planet11_left.png,11,Community 1,NA,TRUE,f,f,NA,NA,NA,1,6,"5,11,13,1,14,15,6,7,4,9,3,10,12,2,8"
14829,commdev-image-keyboard-response,412,834076,learnblock1,617,img/planet14_left.png,14,Community 1,NA,TRUE,f,f,NA,NA,NA,1,6,"5,11,13,1,14,15,6,7,4,9,3,10,12,2,8"
14829,commdev-image-keyboard-response,413,835329,learnblock1,657.6000000014901,img/planet3_left.png,3,Community 3,NA,TRUE,f,f,NA,NA,NA,1,6,"5,11,13,1,14,15,6,7,4,9,3,10,12,2,8"
14829,commdev-image-keyboard-response,414,836581,learnblock1,null,img/planet14_right.png,14,Community 1,NA,FALSE,null,j,NA,NA,NA,1,6,"5,11,13,1,14,15,6,7,4,9,3,10,12,2,8"
14829,commdev-image-keyboard-response,415,837833,learnblock1,null,img/planet5_right.png,5,Community 1,NA,FALSE,null,j,NA,NA,NA,1,6,"5,11,13,1,14,15,6,7,4,9,3,10,12,2,8"
14829,commdev-image-keyboard-response,416,839086,learnblock1,1207.6000000014901,img/planet14_left.png,14,Community 1,NA,TRUE,f,f,NA,NA,NA,1,6,"5,11,13,1,14,15,6,7,4,9,3,10,12,2,8"
14829,commdev-image-keyboard-response,417,840339,learnblock1,null,img/planet13_right.png,13,Community 1,NA,FALSE,null,j,NA,NA,NA,1,6,"5,11,13,1,14,15,6,7,4,9,3,10,12,2,8"
14829,commdev-image-keyboard-response,418,841591,learnblock1,null,img/planet11_left.png,11,Community 1,NA,FALSE,null,f,NA,NA,NA,1,6,"5,11,13,1,14,15,6,7,4,9,3,10,12,2,8"
14829,commdev-image-keyboard-response,419,842844,learnblock1,734.2999999970198,img/planet1_left.png,1,Community 1,NA,TRUE,f,f,NA,NA,NA,1,6,"5,11,13,1,14,15,6,7,4,9,3,10,12,2,8"
14829,commdev-image-keyboard-response,420,844096,learnblock1,407.3999999985099,img/planet11_right.png,11,Community 1,NA,FALSE,f,j,NA,NA,NA,1,6,"5,11,13,1,14,15,6,7,4,9,3,10,12,2,8"
14829,commdev-image-keyboard-response,421,845349,learnblock1,null,img/planet13_left.png,13,Community 1,NA,FALSE,null,f,NA,NA,NA,1,6,"5,11,13,1,14,15,6,7,4,9,3,10,12,2,8"
14829,commdev-image-keyboard-response,422,846602,learnblock1,null,img/planet5_left.png,5,Community 1,NA,FALSE,null,f,NA,NA,NA,1,6,"5,11,13,1,14,15,6,7,4,9,3,10,12,2,8"
14829,commdev-image-keyboard-response,423,847854,learnblock1,599.3999999985099,img/planet11_left.png,11,Community 1,NA,TRUE,f,f,NA,NA,NA,1,6,"5,11,13,1,14,15,6,7,4,9,3,10,12,2,8"
14829,commdev-image-keyboard-response,424,849107,learnblock1,161.5,img/planet14_left.png,14,Community 1,NA,TRUE,f,f,NA,NA,NA,1,6,"5,11,13,1,14,15,6,7,4,9,3,10,12,2,8"
14829,commdev-image-keyboard-response,425,850360,learnblock1,null,img/planet3_right.png,3,Community 3,NA,FALSE,null,j,NA,NA,NA,1,6,"5,11,13,1,14,15,6,7,4,9,3,10,12,2,8"
14829,commdev-image-keyboard-response,426,851613,learnblock1,593,img/planet12_left.png,12,Community 3,NA,TRUE,f,f,NA,NA,NA,1,6,"5,11,13,1,14,15,6,7,4,9,3,10,12,2,8"
14829,commdev-image-keyboard-response,427,852866,learnblock1,487.5,img/planet10_right.png,10,Community 3,NA,FALSE,f,j,NA,NA,NA,1,6,"5,11,13,1,14,15,6,7,4,9,3,10,12,2,8"
14829,commdev-image-keyboard-response,428,854119,learnblock1,816.7999999970198,img/planet7_left.png,7,Community 2,NA,TRUE,f,f,NA,NA,NA,1,6,"5,11,13,1,14,15,6,7,4,9,3,10,12,2,8"
14829,commdev-image-keyboard-response,429,855372,learnblock1,978.6000000014901,img/planet4_left.png,4,Community 2,NA,TRUE,f,f,NA,NA,NA,1,6,"5,11,13,1,14,15,6,7,4,9,3,10,12,2,8"
14829,commdev-image-keyboard-response,430,856625,learnblock1,694.5,img/planet15_left.png,15,Community 2,NA,TRUE,f,f,NA,NA,NA,1,6,"5,11,13,1,14,15,6,7,4,9,3,10,12,2,8"
14829,commdev-image-keyboard-response,431,857877,learnblock1,905.1000000014901,img/planet9_left.png,9,Community 2,NA,TRUE,f,f,NA,NA,NA,1,6,"5,11,13,1,14,15,6,7,4,9,3,10,12,2,8"
14829,commdev-image-keyboard-response,432,859129,learnblock1,null,img/planet7_right.png,7,Community 2,NA,FALSE,null,j,NA,NA,NA,1,6,"5,11,13,1,14,15,6,7,4,9,3,10,12,2,8"
14829,commdev-image-keyboard-response,433,860381,learnblock1,null,img/planet4_right.png,4,Community 2,NA,FALSE,null,j,NA,NA,NA,1,6,"5,11,13,1,14,15,6,7,4,9,3,10,12,2,8"
14829,commdev-image-keyboard-response,434,861634,learnblock1,null,img/planet9_right.png,9,Community 2,NA,FALSE,null,j,NA,NA,NA,1,6,"5,11,13,1,14,15,6,7,4,9,3,10,12,2,8"
14829,commdev-image-keyboard-response,435,862886,learnblock1,null,img/planet4_right.png,4,Community 2,NA,FALSE,null,j,NA,NA,NA,1,6,"5,11,13,1,14,15,6,7,4,9,3,10,12,2,8"
14829,commdev-image-keyboard-response,436,864138,learnblock1,null,img/planet6_right.png,6,Community 2,NA,FALSE,null,j,NA,NA,NA,1,6,"5,11,13,1,14,15,6,7,4,9,3,10,12,2,8"
14829,commdev-image-keyboard-response,437,865390,learnblock1,null,img/planet4_left.png,4,Community 2,NA,FALSE,null,f,NA,NA,NA,1,6,"5,11,13,1,14,15,6,7,4,9,3,10,12,2,8"
14829,commdev-image-keyboard-response,438,866643,learnblock1,147.30000000447035,img/planet7_right.png,7,Community 2,NA,FALSE,f,j,NA,NA,NA,1,6,"5,11,13,1,14,15,6,7,4,9,3,10,12,2,8"
14829,commdev-image-keyboard-response,439,867896,learnblock1,null,img/planet4_right.png,4,Community 2,NA,FALSE,null,j,NA,NA,NA,1,6,"5,11,13,1,14,15,6,7,4,9,3,10,12,2,8"
14829,commdev-image-keyboard-response,440,869148,learnblock1,56,img/planet15_left.png,15,Community 2,NA,TRUE,f,f,NA,NA,NA,1,6,"5,11,13,1,14,15,6,7,4,9,3,10,12,2,8"
14829,commdev-image-keyboard-response,441,870401,learnblock1,null,img/planet1_right.png,1,Community 1,NA,FALSE,null,j,NA,NA,NA,1,6,"5,11,13,1,14,15,6,7,4,9,3,10,12,2,8"
14829,commdev-image-keyboard-response,442,871653,learnblock1,null,img/planet5_right.png,5,Community 1,NA,FALSE,null,j,NA,NA,NA,1,6,"5,11,13,1,14,15,6,7,4,9,3,10,12,2,8"
14829,commdev-image-keyboard-response,443,872906,learnblock1,738.1999999955297,img/planet13_left.png,13,Community 1,NA,TRUE,f,f,NA,NA,NA,1,6,"5,11,13,1,14,15,6,7,4,9,3,10,12,2,8"
14829,commdev-image-keyboard-response,444,874159,learnblock1,null,img/planet1_right.png,1,Community 1,NA,FALSE,null,j,NA,NA,NA,1,6,"5,11,13,1,14,15,6,7,4,9,3,10,12,2,8"
14829,commdev-image-keyboard-response,445,875412,learnblock1,null,img/planet13_right.png,13,Community 1,NA,FALSE,null,j,NA,NA,NA,1,6,"5,11,13,1,14,15,6,7,4,9,3,10,12,2,8"
14829,commdev-image-keyboard-response,446,876663,learnblock1,null,img/planet5_right.png,5,Community 1,NA,FALSE,null,j,NA,NA,NA,1,6,"5,11,13,1,14,15,6,7,4,9,3,10,12,2,8"
14829,commdev-image-keyboard-response,447,877916,learnblock1,null,img/planet1_right.png,1,Community 1,NA,FALSE,null,j,NA,NA,NA,1,6,"5,11,13,1,14,15,6,7,4,9,3,10,12,2,8"
14829,commdev-image-keyboard-response,448,879168,learnblock1,1209.1000000014901,img/planet5_left.png,5,Community 1,NA,TRUE,f,f,NA,NA,NA,1,6,"5,11,13,1,14,15,6,7,4,9,3,10,12,2,8"
14829,commdev-image-keyboard-response,449,880420,learnblock1,null,img/planet11_right.png,11,Community 1,NA,FALSE,null,j,NA,NA,NA,1,6,"5,11,13,1,14,15,6,7,4,9,3,10,12,2,8"
14829,commdev-image-keyboard-response,450,881673,learnblock1,null,img/planet1_right.png,1,Community 1,NA,FALSE,null,j,NA,NA,NA,1,6,"5,11,13,1,14,15,6,7,4,9,3,10,12,2,8"
14829,commdev-image-keyboard-response,451,882926,learnblock1,862.2999999970198,img/planet5_left.png,5,Community 1,NA,TRUE,f,f,NA,NA,NA,1,6,"5,11,13,1,14,15,6,7,4,9,3,10,12,2,8"
14829,commdev-image-keyboard-response,452,884179,learnblock1,null,img/planet14_right.png,14,Community 1,NA,FALSE,null,j,NA,NA,NA,1,6,"5,11,13,1,14,15,6,7,4,9,3,10,12,2,8"
14829,commdev-image-keyboard-response,453,885432,learnblock1,null,img/planet11_right.png,11,Community 1,NA,FALSE,null,j,NA,NA,NA,1,6,"5,11,13,1,14,15,6,7,4,9,3,10,12,2,8"
14829,commdev-image-keyboard-response,454,886685,learnblock1,null,img/planet13_right.png,13,Community 1,NA,FALSE,null,j,NA,NA,NA,1,6,"5,11,13,1,14,15,6,7,4,9,3,10,12,2,8"
14829,commdev-image-keyboard-response,455,887938,learnblock1,743,img/planet5_left.png,5,Community 1,NA,TRUE,f,f,NA,NA,NA,1,6,"5,11,13,1,14,15,6,7,4,9,3,10,12,2,8"
14829,commdev-image-keyboard-response,456,889190,learnblock1,null,img/planet11_right.png,11,Community 1,NA,FALSE,null,j,NA,NA,NA,1,6,"5,11,13,1,14,15,6,7,4,9,3,10,12,2,8"
14829,commdev-image-keyboard-response,457,890442,learnblock1,623.5,img/planet5_left.png,5,Community 1,NA,TRUE,f,f,NA,NA,NA,1,6,"5,11,13,1,14,15,6,7,4,9,3,10,12,2,8"
14829,commdev-image-keyboard-response,458,891694,learnblock1,431.8999999985099,img/planet14_left.png,14,Community 1,NA,TRUE,f,f,NA,NA,NA,1,6,"5,11,13,1,14,15,6,7,4,9,3,10,12,2,8"
14829,commdev-image-keyboard-response,459,892947,learnblock1,126.30000000447035,img/planet3_right.png,3,Community 3,NA,FALSE,f,j,NA,NA,NA,1,6,"5,11,13,1,14,15,6,7,4,9,3,10,12,2,8"
14829,commdev-image-keyboard-response,460,894200,learnblock1,null,img/planet12_left.png,12,Community 3,NA,FALSE,null,f,NA,NA,NA,1,6,"5,11,13,1,14,15,6,7,4,9,3,10,12,2,8"
14829,commdev-image-keyboard-response,461,895452,learnblock1,null,img/planet8_left.png,8,Community 3,NA,FALSE,null,f,NA,NA,NA,1,6,"5,11,13,1,14,15,6,7,4,9,3,10,12,2,8"
14829,commdev-image-keyboard-response,462,896704,learnblock1,252.5,img/planet3_right.png,3,Community 3,NA,FALSE,f,j,NA,NA,NA,1,6,"5,11,13,1,14,15,6,7,4,9,3,10,12,2,8"
14829,commdev-image-keyboard-response,463,897957,learnblock1,null,img/planet2_right.png,2,Community 3,NA,FALSE,null,j,NA,NA,NA,1,6,"5,11,13,1,14,15,6,7,4,9,3,10,12,2,8"
14829,commdev-image-keyboard-response,464,899209,learnblock1,1202,img/planet12_left.png,12,Community 3,NA,TRUE,f,f,NA,NA,NA,1,6,"5,11,13,1,14,15,6,7,4,9,3,10,12,2,8"
14829,commdev-image-keyboard-response,465,900462,learnblock1,1207,img/planet10_left.png,10,Community 3,NA,TRUE,f,f,NA,NA,NA,1,6,"5,11,13,1,14,15,6,7,4,9,3,10,12,2,8"
14829,commdev-image-keyboard-response,466,901714,learnblock1,1180.8999999985099,img/planet7_left.png,7,Community 2,NA,TRUE,f,f,NA,NA,NA,1,6,"5,11,13,1,14,15,6,7,4,9,3,10,12,2,8"
14829,commdev-image-keyboard-response,467,902967,learnblock1,null,img/planet10_right.png,10,Community 3,NA,FALSE,null,j,NA,NA,NA,1,6,"5,11,13,1,14,15,6,7,4,9,3,10,12,2,8"
14829,commdev-image-keyboard-response,468,904220,learnblock1,null,img/planet2_right.png,2,Community 3,NA,FALSE,null,j,NA,NA,NA,1,6,"5,11,13,1,14,15,6,7,4,9,3,10,12,2,8"
14829,commdev-image-keyboard-response,469,905473,learnblock1,null,img/planet3_right.png,3,Community 3,NA,FALSE,null,j,NA,NA,NA,1,6,"5,11,13,1,14,15,6,7,4,9,3,10,12,2,8"
14829,commdev-image-keyboard-response,470,906726,learnblock1,null,img/planet8_right.png,8,Community 3,NA,FALSE,null,j,NA,NA,NA,1,6,"5,11,13,1,14,15,6,7,4,9,3,10,12,2,8"
14829,commdev-image-keyboard-response,471,907978,learnblock1,null,img/planet10_right.png,10,Community 3,NA,FALSE,null,j,NA,NA,NA,1,6,"5,11,13,1,14,15,6,7,4,9,3,10,12,2,8"
14829,commdev-image-keyboard-response,472,909231,learnblock1,null,img/planet7_right.png,7,Community 2,NA,FALSE,null,j,NA,NA,NA,1,6,"5,11,13,1,14,15,6,7,4,9,3,10,12,2,8"
14829,commdev-image-keyboard-response,473,910483,learnblock1,null,img/planet6_right.png,6,Community 2,NA,FALSE,null,j,NA,NA,NA,1,6,"5,11,13,1,14,15,6,7,4,9,3,10,12,2,8"
14829,commdev-image-keyboard-response,474,911736,learnblock1,733.6999999955297,img/planet4_left.png,4,Community 2,NA,TRUE,f,f,NA,NA,NA,1,6,"5,11,13,1,14,15,6,7,4,9,3,10,12,2,8"
14829,commdev-image-keyboard-response,475,912989,learnblock1,null,img/planet9_right.png,9,Community 2,NA,FALSE,null,j,NA,NA,NA,1,6,"5,11,13,1,14,15,6,7,4,9,3,10,12,2,8"
14829,commdev-image-keyboard-response,476,914242,learnblock1,null,img/planet4_left.png,4,Community 2,NA,FALSE,null,f,NA,NA,NA,1,6,"5,11,13,1,14,15,6,7,4,9,3,10,12,2,8"
14829,commdev-image-keyboard-response,477,915494,learnblock1,782.6000000014901,img/planet7_left.png,7,Community 2,NA,TRUE,f,f,NA,NA,NA,1,6,"5,11,13,1,14,15,6,7,4,9,3,10,12,2,8"
14829,commdev-image-keyboard-response,478,916747,learnblock1,814.1000000014901,img/planet9_left.png,9,Community 2,NA,TRUE,f,f,NA,NA,NA,1,6,"5,11,13,1,14,15,6,7,4,9,3,10,12,2,8"
14829,commdev-image-keyboard-response,479,918000,learnblock1,null,img/planet6_right.png,6,Community 2,NA,FALSE,null,j,NA,NA,NA,1,6,"5,11,13,1,14,15,6,7,4,9,3,10,12,2,8"
14829,commdev-image-keyboard-response,480,919253,learnblock1,649.6000000014901,img/planet9_left.png,9,Community 2,NA,TRUE,f,f,NA,NA,NA,1,6,"5,11,13,1,14,15,6,7,4,9,3,10,12,2,8"
14829,commdev-image-keyboard-response,481,920505,learnblock1,null,img/planet15_right.png,15,Community 2,NA,FALSE,null,j,NA,NA,NA,1,6,"5,11,13,1,14,15,6,7,4,9,3,10,12,2,8"
14829,commdev-image-keyboard-response,482,921757,learnblock1,792.8999999985099,img/planet9_right.png,9,Community 2,NA,FALSE,f,j,NA,NA,NA,1,6,"5,11,13,1,14,15,6,7,4,9,3,10,12,2,8"
14829,commdev-image-keyboard-response,483,923009,learnblock1,null,img/planet15_left.png,15,Community 2,NA,FALSE,null,f,NA,NA,NA,1,6,"5,11,13,1,14,15,6,7,4,9,3,10,12,2,8"
14829,commdev-image-keyboard-response,484,924262,learnblock1,null,img/planet6_right.png,6,Community 2,NA,FALSE,null,j,NA,NA,NA,1,6,"5,11,13,1,14,15,6,7,4,9,3,10,12,2,8"
14829,commdev-image-keyboard-response,485,925514,learnblock1,753.5,img/planet7_left.png,7,Community 2,NA,TRUE,f,f,NA,NA,NA,1,6,"5,11,13,1,14,15,6,7,4,9,3,10,12,2,8"
14829,commdev-image-keyboard-response,486,926766,learnblock1,null,img/planet6_left.png,6,Community 2,NA,FALSE,null,f,NA,NA,NA,1,6,"5,11,13,1,14,15,6,7,4,9,3,10,12,2,8"
14829,commdev-image-keyboard-response,487,928017,learnblock1,121.90000000596046,img/planet4_right.png,4,Community 2,NA,FALSE,f,j,NA,NA,NA,1,6,"5,11,13,1,14,15,6,7,4,9,3,10,12,2,8"
14829,commdev-image-keyboard-response,488,929270,learnblock1,860.3000000044703,img/planet6_right.png,6,Community 2,NA,FALSE,f,j,NA,NA,NA,1,6,"5,11,13,1,14,15,6,7,4,9,3,10,12,2,8"
14829,commdev-image-keyboard-response,489,930523,learnblock1,null,img/planet7_right.png,7,Community 2,NA,FALSE,null,j,NA,NA,NA,1,6,"5,11,13,1,14,15,6,7,4,9,3,10,12,2,8"
14829,commdev-image-keyboard-response,490,931775,learnblock1,1092.8999999985099,img/planet4_left.png,4,Community 2,NA,TRUE,f,f,NA,NA,NA,1,6,"5,11,13,1,14,15,6,7,4,9,3,10,12,2,8"
14829,commdev-image-keyboard-response,491,933029,learnblock1,null,img/planet9_right.png,9,Community 2,NA,FALSE,null,j,NA,NA,NA,1,6,"5,11,13,1,14,15,6,7,4,9,3,10,12,2,8"
14829,commdev-image-keyboard-response,492,934282,learnblock1,null,img/planet4_left.png,4,Community 2,NA,FALSE,null,f,NA,NA,NA,1,6,"5,11,13,1,14,15,6,7,4,9,3,10,12,2,8"
14829,commdev-image-keyboard-response,493,935534,learnblock1,803.8999999985099,img/planet7_left.png,7,Community 2,NA,TRUE,f,f,NA,NA,NA,1,6,"5,11,13,1,14,15,6,7,4,9,3,10,12,2,8"
14829,commdev-image-keyboard-response,494,936787,learnblock1,null,img/planet6_right.png,6,Community 2,NA,FALSE,null,j,NA,NA,NA,1,6,"5,11,13,1,14,15,6,7,4,9,3,10,12,2,8"
14829,commdev-image-keyboard-response,495,938039,learnblock1,613.5999999940395,img/planet7_left.png,7,Community 2,NA,TRUE,f,f,NA,NA,NA,1,6,"5,11,13,1,14,15,6,7,4,9,3,10,12,2,8"
14829,commdev-image-keyboard-response,496,939290,learnblock1,null,img/planet4_right.png,4,Community 2,NA,FALSE,null,j,NA,NA,NA,1,6,"5,11,13,1,14,15,6,7,4,9,3,10,12,2,8"
14829,commdev-image-keyboard-response,497,940542,learnblock1,null,img/planet9_right.png,9,Community 2,NA,FALSE,null,j,NA,NA,NA,1,6,"5,11,13,1,14,15,6,7,4,9,3,10,12,2,8"
14829,commdev-image-keyboard-response,498,941795,learnblock1,471,img/planet6_left.png,6,Community 2,NA,TRUE,f,f,NA,NA,NA,1,6,"5,11,13,1,14,15,6,7,4,9,3,10,12,2,8"
14829,commdev-image-keyboard-response,499,943048,learnblock1,727.8000000044703,img/planet7_left.png,7,Community 2,NA,TRUE,f,f,NA,NA,NA,1,6,"5,11,13,1,14,15,6,7,4,9,3,10,12,2,8"
14829,commdev-image-keyboard-response,500,944300,learnblock1,667.9000000059605,img/planet6_left.png,6,Community 2,NA,TRUE,f,f,NA,NA,NA,1,6,"5,11,13,1,14,15,6,7,4,9,3,10,12,2,8"
14829,commdev-image-keyboard-response,501,945553,learnblock1,null,img/planet15_right.png,15,Community 2,NA,FALSE,null,j,NA,NA,NA,1,6,"5,11,13,1,14,15,6,7,4,9,3,10,12,2,8"
14829,commdev-image-keyboard-response,502,946806,learnblock1,638.0999999940395,img/planet4_right.png,4,Community 2,NA,FALSE,f,j,NA,NA,NA,1,6,"5,11,13,1,14,15,6,7,4,9,3,10,12,2,8"
14829,commdev-image-keyboard-response,503,948058,learnblock1,null,img/planet6_right.png,6,Community 2,NA,FALSE,null,j,NA,NA,NA,1,6,"5,11,13,1,14,15,6,7,4,9,3,10,12,2,8"
14829,commdev-image-keyboard-response,504,949312,learnblock1,737.8000000044703,img/planet15_left.png,15,Community 2,NA,TRUE,f,f,NA,NA,NA,1,6,"5,11,13,1,14,15,6,7,4,9,3,10,12,2,8"
14829,commdev-image-keyboard-response,505,950564,learnblock1,null,img/planet1_right.png,1,Community 1,NA,FALSE,null,j,NA,NA,NA,1,6,"5,11,13,1,14,15,6,7,4,9,3,10,12,2,8"
14829,commdev-image-keyboard-response,506,951816,learnblock1,null,img/planet5_right.png,5,Community 1,NA,FALSE,null,j,NA,NA,NA,1,6,"5,11,13,1,14,15,6,7,4,9,3,10,12,2,8"
14829,commdev-image-keyboard-response,507,953068,learnblock1,null,img/planet11_right.png,11,Community 1,NA,FALSE,null,j,NA,NA,NA,1,6,"5,11,13,1,14,15,6,7,4,9,3,10,12,2,8"
14829,commdev-image-keyboard-response,508,954320,learnblock1,null,img/planet5_left.png,5,Community 1,NA,FALSE,null,f,NA,NA,NA,1,6,"5,11,13,1,14,15,6,7,4,9,3,10,12,2,8"
14829,commdev-image-keyboard-response,509,955573,learnblock1,885,img/planet13_left.png,13,Community 1,NA,TRUE,f,f,NA,NA,NA,1,6,"5,11,13,1,14,15,6,7,4,9,3,10,12,2,8"
14829,commdev-image-keyboard-response,510,956826,learnblock1,null,img/planet14_right.png,14,Community 1,NA,FALSE,null,j,NA,NA,NA,1,6,"5,11,13,1,14,15,6,7,4,9,3,10,12,2,8"
14829,commdev-image-keyboard-response,511,958078,learnblock1,1069.8999999985099,img/planet3_left.png,3,Community 3,NA,TRUE,f,f,NA,NA,NA,1,6,"5,11,13,1,14,15,6,7,4,9,3,10,12,2,8"
14829,commdev-image-keyboard-response,512,959331,learnblock1,825.4000000059605,img/planet14_left.png,14,Community 1,NA,TRUE,f,f,NA,NA,NA,1,6,"5,11,13,1,14,15,6,7,4,9,3,10,12,2,8"
14829,commdev-image-keyboard-response,513,960583,learnblock1,704.1999999955297,img/planet13_left.png,13,Community 1,NA,TRUE,f,f,NA,NA,NA,1,6,"5,11,13,1,14,15,6,7,4,9,3,10,12,2,8"
14829,commdev-image-keyboard-response,514,961836,learnblock1,586.3999999985099,img/planet1_left.png,1,Community 1,NA,TRUE,f,f,NA,NA,NA,1,6,"5,11,13,1,14,15,6,7,4,9,3,10,12,2,8"
14829,commdev-image-keyboard-response,515,963089,learnblock1,230.39999999850988,img/planet5_left.png,5,Community 1,NA,TRUE,f,f,NA,NA,NA,1,6,"5,11,13,1,14,15,6,7,4,9,3,10,12,2,8"
14829,commdev-image-keyboard-response,516,964341,learnblock1,646.3999999985099,img/planet11_left.png,11,Community 1,NA,TRUE,f,f,NA,NA,NA,1,6,"5,11,13,1,14,15,6,7,4,9,3,10,12,2,8"
14829,commdev-image-keyboard-response,517,965594,learnblock1,466.19999999552965,img/planet13_left.png,13,Community 1,NA,TRUE,f,f,NA,NA,NA,1,6,"5,11,13,1,14,15,6,7,4,9,3,10,12,2,8"
14829,commdev-image-keyboard-response,518,966847,learnblock1,1013,img/planet14_right.png,14,Community 1,NA,FALSE,f,j,NA,NA,NA,1,6,"5,11,13,1,14,15,6,7,4,9,3,10,12,2,8"
14829,commdev-image-keyboard-response,522,987116,learnblock2,null,img/planet12_left.png,12,Community 3,NA,FALSE,null,f,NA,NA,NA,1,6,"5,11,13,1,14,15,6,7,4,9,3,10,12,2,8"
14829,commdev-image-keyboard-response,523,988368,learnblock2,102.89999999850988,img/planet3_right.png,3,Community 3,NA,FALSE,f,j,NA,NA,NA,1,6,"5,11,13,1,14,15,6,7,4,9,3,10,12,2,8"
14829,commdev-image-keyboard-response,524,989621,learnblock2,null,img/planet2_left.png,2,Community 3,NA,FALSE,null,f,NA,NA,NA,1,6,"5,11,13,1,14,15,6,7,4,9,3,10,12,2,8"
14829,commdev-image-keyboard-response,525,990873,learnblock2,645.6000000014901,img/planet10_left.png,10,Community 3,NA,TRUE,f,f,NA,NA,NA,1,6,"5,11,13,1,14,15,6,7,4,9,3,10,12,2,8"
14829,commdev-image-keyboard-response,526,992126,learnblock2,null,img/planet12_right.png,12,Community 3,NA,FALSE,null,j,NA,NA,NA,1,6,"5,11,13,1,14,15,6,7,4,9,3,10,12,2,8"
14829,commdev-image-keyboard-response,527,993379,learnblock2,null,img/planet2_right.png,2,Community 3,NA,FALSE,null,j,NA,NA,NA,1,6,"5,11,13,1,14,15,6,7,4,9,3,10,12,2,8"
14829,commdev-image-keyboard-response,528,994631,learnblock2,null,img/planet10_right.png,10,Community 3,NA,FALSE,null,j,NA,NA,NA,1,6,"5,11,13,1,14,15,6,7,4,9,3,10,12,2,8"
14829,commdev-image-keyboard-response,529,995884,learnblock2,671,img/planet2_left.png,2,Community 3,NA,TRUE,f,f,NA,NA,NA,1,6,"5,11,13,1,14,15,6,7,4,9,3,10,12,2,8"
14829,commdev-image-keyboard-response,530,997137,learnblock2,780.8000000044703,img/planet12_left.png,12,Community 3,NA,TRUE,f,f,NA,NA,NA,1,6,"5,11,13,1,14,15,6,7,4,9,3,10,12,2,8"
14829,commdev-image-keyboard-response,531,998389,learnblock2,532.1999999955297,img/planet2_left.png,2,Community 3,NA,TRUE,f,f,NA,NA,NA,1,6,"5,11,13,1,14,15,6,7,4,9,3,10,12,2,8"
14829,commdev-image-keyboard-response,532,999642,learnblock2,543.8000000044703,img/planet12_left.png,12,Community 3,NA,TRUE,f,f,NA,NA,NA,1,6,"5,11,13,1,14,15,6,7,4,9,3,10,12,2,8"
14829,commdev-image-keyboard-response,533,1000895,learnblock2,null,img/planet10_right.png,10,Community 3,NA,FALSE,null,j,NA,NA,NA,1,6,"5,11,13,1,14,15,6,7,4,9,3,10,12,2,8"
14829,commdev-image-keyboard-response,534,1002149,learnblock2,511.5,img/planet8_left.png,8,Community 3,NA,TRUE,f,f,NA,NA,NA,1,6,"5,11,13,1,14,15,6,7,4,9,3,10,12,2,8"
14829,commdev-image-keyboard-response,535,1003402,learnblock2,null,img/planet3_right.png,3,Community 3,NA,FALSE,null,j,NA,NA,NA,1,6,"5,11,13,1,14,15,6,7,4,9,3,10,12,2,8"
14829,commdev-image-keyboard-response,536,1004654,learnblock2,618.4000000059605,img/planet14_left.png,14,Community 1,NA,TRUE,f,f,NA,NA,NA,1,6,"5,11,13,1,14,15,6,7,4,9,3,10,12,2,8"
14829,commdev-image-keyboard-response,537,1005907,learnblock2,762.4000000059605,img/planet11_left.png,11,Community 1,NA,TRUE,f,f,NA,NA,NA,1,6,"5,11,13,1,14,15,6,7,4,9,3,10,12,2,8"
14829,commdev-image-keyboard-response,538,1007159,learnblock2,551.6000000014901,img/planet1_left.png,1,Community 1,NA,TRUE,f,f,NA,NA,NA,1,6,"5,11,13,1,14,15,6,7,4,9,3,10,12,2,8"
14829,commdev-image-keyboard-response,539,1008412,learnblock2,null,img/planet13_right.png,13,Community 1,NA,FALSE,null,j,NA,NA,NA,1,6,"5,11,13,1,14,15,6,7,4,9,3,10,12,2,8"
14829,commdev-image-keyboard-response,540,1009664,learnblock2,676.3999999985099,img/planet1_left.png,1,Community 1,NA,TRUE,f,f,NA,NA,NA,1,6,"5,11,13,1,14,15,6,7,4,9,3,10,12,2,8"
14829,commdev-image-keyboard-response,541,1010917,learnblock2,697.5,img/planet5_left.png,5,Community 1,NA,TRUE,f,f,NA,NA,NA,1,6,"5,11,13,1,14,15,6,7,4,9,3,10,12,2,8"
14829,commdev-image-keyboard-response,542,1012169,learnblock2,655.6000000014901,img/planet13_left.png,13,Community 1,NA,TRUE,f,f,NA,NA,NA,1,6,"5,11,13,1,14,15,6,7,4,9,3,10,12,2,8"
14829,commdev-image-keyboard-response,543,1013422,learnblock2,738.6000000014901,img/planet5_left.png,5,Community 1,NA,TRUE,f,f,NA,NA,NA,1,6,"5,11,13,1,14,15,6,7,4,9,3,10,12,2,8"
14829,commdev-image-keyboard-response,544,1014675,learnblock2,528.4000000059605,img/planet13_right.png,13,Community 1,NA,FALSE,f,j,NA,NA,NA,1,6,"5,11,13,1,14,15,6,7,4,9,3,10,12,2,8"
14829,commdev-image-keyboard-response,545,1015926,learnblock2,622.5,img/planet11_left.png,11,Community 1,NA,TRUE,f,f,NA,NA,NA,1,6,"5,11,13,1,14,15,6,7,4,9,3,10,12,2,8"
14829,commdev-image-keyboard-response,546,1017178,learnblock2,null,img/planet14_right.png,14,Community 1,NA,FALSE,null,j,NA,NA,NA,1,6,"5,11,13,1,14,15,6,7,4,9,3,10,12,2,8"
14829,commdev-image-keyboard-response,547,1018430,learnblock2,506.3999999985099,img/planet11_left.png,11,Community 1,NA,TRUE,f,f,NA,NA,NA,1,6,"5,11,13,1,14,15,6,7,4,9,3,10,12,2,8"
14829,commdev-image-keyboard-response,548,1019682,learnblock2,719.3000000044703,img/planet5_left.png,5,Community 1,NA,TRUE,f,f,NA,NA,NA,1,6,"5,11,13,1,14,15,6,7,4,9,3,10,12,2,8"
14829,commdev-image-keyboard-response,549,1020934,learnblock2,847.5,img/planet14_left.png,14,Community 1,NA,TRUE,f,f,NA,NA,NA,1,6,"5,11,13,1,14,15,6,7,4,9,3,10,12,2,8"
14829,commdev-image-keyboard-response,550,1022186,learnblock2,525.8000000044703,img/planet5_right.png,5,Community 1,NA,FALSE,f,j,NA,NA,NA,1,6,"5,11,13,1,14,15,6,7,4,9,3,10,12,2,8"
14829,commdev-image-keyboard-response,551,1023438,learnblock2,null,img/planet13_right.png,13,Community 1,NA,FALSE,null,j,NA,NA,NA,1,6,"5,11,13,1,14,15,6,7,4,9,3,10,12,2,8"
14829,commdev-image-keyboard-response,552,1024691,learnblock2,769.0999999940395,img/planet11_left.png,11,Community 1,NA,TRUE,f,f,NA,NA,NA,1,6,"5,11,13,1,14,15,6,7,4,9,3,10,12,2,8"
14829,commdev-image-keyboard-response,553,1025944,learnblock2,1031.7999999970198,img/planet14_left.png,14,Community 1,NA,TRUE,f,f,NA,NA,NA,1,6,"5,11,13,1,14,15,6,7,4,9,3,10,12,2,8"
14829,commdev-image-keyboard-response,554,1027196,learnblock2,null,img/planet3_right.png,3,Community 3,NA,FALSE,null,j,NA,NA,NA,1,6,"5,11,13,1,14,15,6,7,4,9,3,10,12,2,8"
14829,commdev-image-keyboard-response,555,1028450,learnblock2,1214.6999999955297,img/planet14_left.png,14,Community 1,NA,TRUE,f,f,NA,NA,NA,1,6,"5,11,13,1,14,15,6,7,4,9,3,10,12,2,8"
14829,commdev-image-keyboard-response,556,1029702,learnblock2,833.2999999970198,img/planet11_left.png,11,Community 1,NA,TRUE,f,f,NA,NA,NA,1,6,"5,11,13,1,14,15,6,7,4,9,3,10,12,2,8"
14829,commdev-image-keyboard-response,557,1030954,learnblock2,null,img/planet13_right.png,13,Community 1,NA,FALSE,null,j,NA,NA,NA,1,6,"5,11,13,1,14,15,6,7,4,9,3,10,12,2,8"
14829,commdev-image-keyboard-response,558,1032207,learnblock2,854.4000000059605,img/planet1_left.png,1,Community 1,NA,TRUE,f,f,NA,NA,NA,1,6,"5,11,13,1,14,15,6,7,4,9,3,10,12,2,8"
14829,commdev-image-keyboard-response,559,1033460,learnblock2,984.1000000014901,img/planet13_left.png,13,Community 1,NA,TRUE,f,f,NA,NA,NA,1,6,"5,11,13,1,14,15,6,7,4,9,3,10,12,2,8"
14829,commdev-image-keyboard-response,560,1034712,learnblock2,846.8999999985099,img/planet14_left.png,14,Community 1,NA,TRUE,f,f,NA,NA,NA,1,6,"5,11,13,1,14,15,6,7,4,9,3,10,12,2,8"
14829,commdev-image-keyboard-response,561,1035966,learnblock2,null,img/planet3_right.png,3,Community 3,NA,FALSE,null,j,NA,NA,NA,1,6,"5,11,13,1,14,15,6,7,4,9,3,10,12,2,8"
14829,commdev-image-keyboard-response,562,1037219,learnblock2,null,img/planet2_left.png,2,Community 3,NA,FALSE,null,f,NA,NA,NA,1,6,"5,11,13,1,14,15,6,7,4,9,3,10,12,2,8"
14829,commdev-image-keyboard-response,563,1038471,learnblock2,920.2000000029802,img/planet10_left.png,10,Community 3,NA,TRUE,f,f,NA,NA,NA,1,6,"5,11,13,1,14,15,6,7,4,9,3,10,12,2,8"
14829,commdev-image-keyboard-response,564,1039723,learnblock2,null,img/planet8_right.png,8,Community 3,NA,FALSE,null,j,NA,NA,NA,1,6,"5,11,13,1,14,15,6,7,4,9,3,10,12,2,8"
14829,commdev-image-keyboard-response,565,1040976,learnblock2,856,img/planet10_left.png,10,Community 3,NA,TRUE,f,f,NA,NA,NA,1,6,"5,11,13,1,14,15,6,7,4,9,3,10,12,2,8"
14829,commdev-image-keyboard-response,566,1042228,learnblock2,852.5,img/planet7_left.png,7,Community 2,NA,TRUE,f,f,NA,NA,NA,1,6,"5,11,13,1,14,15,6,7,4,9,3,10,12,2,8"
14829,commdev-image-keyboard-response,567,1043481,learnblock2,751.9000000059605,img/planet9_left.png,9,Community 2,NA,TRUE,f,f,NA,NA,NA,1,6,"5,11,13,1,14,15,6,7,4,9,3,10,12,2,8"
14829,commdev-image-keyboard-response,568,1044734,learnblock2,658.7000000029802,img/planet15_right.png,15,Community 2,NA,FALSE,f,j,NA,NA,NA,1,6,"5,11,13,1,14,15,6,7,4,9,3,10,12,2,8"
14829,commdev-image-keyboard-response,569,1045987,learnblock2,837.8999999985099,img/planet1_left.png,1,Community 1,NA,TRUE,f,f,NA,NA,NA,1,6,"5,11,13,1,14,15,6,7,4,9,3,10,12,2,8"
14829,commdev-image-keyboard-response,570,1047238,learnblock2,664.1000000014901,img/planet13_left.png,13,Community 1,NA,TRUE,f,f,NA,NA,NA,1,6,"5,11,13,1,14,15,6,7,4,9,3,10,12,2,8"
14829,commdev-image-keyboard-response,571,1048490,learnblock2,null,img/planet14_right.png,14,Community 1,NA,FALSE,null,j,NA,NA,NA,1,6,"5,11,13,1,14,15,6,7,4,9,3,10,12,2,8"
14829,commdev-image-keyboard-response,572,1049743,learnblock2,null,img/planet11_right.png,11,Community 1,NA,FALSE,null,j,NA,NA,NA,1,6,"5,11,13,1,14,15,6,7,4,9,3,10,12,2,8"
14829,commdev-image-keyboard-response,573,1050995,learnblock2,null,img/planet14_right.png,14,Community 1,NA,FALSE,null,j,NA,NA,NA,1,6,"5,11,13,1,14,15,6,7,4,9,3,10,12,2,8"
14829,commdev-image-keyboard-response,574,1052248,learnblock2,null,img/planet5_right.png,5,Community 1,NA,FALSE,null,j,NA,NA,NA,1,6,"5,11,13,1,14,15,6,7,4,9,3,10,12,2,8"
14829,commdev-image-keyboard-response,575,1053500,learnblock2,824.1000000014901,img/planet11_left.png,11,Community 1,NA,TRUE,f,f,NA,NA,NA,1,6,"5,11,13,1,14,15,6,7,4,9,3,10,12,2,8"
14829,commdev-image-keyboard-response,576,1054752,learnblock2,null,img/planet5_right.png,5,Community 1,NA,FALSE,null,j,NA,NA,NA,1,6,"5,11,13,1,14,15,6,7,4,9,3,10,12,2,8"
14829,commdev-image-keyboard-response,577,1056004,learnblock2,null,img/planet11_right.png,11,Community 1,NA,FALSE,null,j,NA,NA,NA,1,6,"5,11,13,1,14,15,6,7,4,9,3,10,12,2,8"
14829,commdev-image-keyboard-response,578,1057257,learnblock2,null,img/planet1_right.png,1,Community 1,NA,FALSE,null,j,NA,NA,NA,1,6,"5,11,13,1,14,15,6,7,4,9,3,10,12,2,8"
14829,commdev-image-keyboard-response,579,1058510,learnblock2,581.1000000014901,img/planet13_left.png,13,Community 1,NA,TRUE,f,f,NA,NA,NA,1,6,"5,11,13,1,14,15,6,7,4,9,3,10,12,2,8"
14829,commdev-image-keyboard-response,580,1059763,learnblock2,null,img/planet5_left.png,5,Community 1,NA,FALSE,null,f,NA,NA,NA,1,6,"5,11,13,1,14,15,6,7,4,9,3,10,12,2,8"
14829,commdev-image-keyboard-response,581,1061015,learnblock2,null,img/planet14_right.png,14,Community 1,NA,FALSE,null,j,NA,NA,NA,1,6,"5,11,13,1,14,15,6,7,4,9,3,10,12,2,8"
14829,commdev-image-keyboard-response,582,1062268,learnblock2,null,img/planet5_right.png,5,Community 1,NA,FALSE,null,j,NA,NA,NA,1,6,"5,11,13,1,14,15,6,7,4,9,3,10,12,2,8"
14829,commdev-image-keyboard-response,583,1063520,learnblock2,768.2999999970198,img/planet1_left.png,1,Community 1,NA,TRUE,f,f,NA,NA,NA,1,6,"5,11,13,1,14,15,6,7,4,9,3,10,12,2,8"
14829,commdev-image-keyboard-response,584,1064772,learnblock2,583.2999999970198,img/planet13_left.png,13,Community 1,NA,TRUE,f,f,NA,NA,NA,1,6,"5,11,13,1,14,15,6,7,4,9,3,10,12,2,8"
14829,commdev-image-keyboard-response,585,1066024,learnblock2,421,img/planet1_left.png,1,Community 1,NA,TRUE,f,f,NA,NA,NA,1,6,"5,11,13,1,14,15,6,7,4,9,3,10,12,2,8"
14829,commdev-image-keyboard-response,586,1067277,learnblock2,440.19999999552965,img/planet15_left.png,15,Community 2,NA,TRUE,f,f,NA,NA,NA,1,6,"5,11,13,1,14,15,6,7,4,9,3,10,12,2,8"
14829,commdev-image-keyboard-response,587,1068530,learnblock2,443.3999999985099,img/planet4_left.png,4,Community 2,NA,TRUE,f,f,NA,NA,NA,1,6,"5,11,13,1,14,15,6,7,4,9,3,10,12,2,8"
14829,commdev-image-keyboard-response,588,1069783,learnblock2,null,img/planet7_right.png,7,Community 2,NA,FALSE,null,j,NA,NA,NA,1,6,"5,11,13,1,14,15,6,7,4,9,3,10,12,2,8"
14829,commdev-image-keyboard-response,589,1071037,learnblock2,null,img/planet10_right.png,10,Community 3,NA,FALSE,null,j,NA,NA,NA,1,6,"5,11,13,1,14,15,6,7,4,9,3,10,12,2,8"
14829,commdev-image-keyboard-response,590,1072290,learnblock2,796.6000000014901,img/planet12_left.png,12,Community 3,NA,TRUE,f,f,NA,NA,NA,1,6,"5,11,13,1,14,15,6,7,4,9,3,10,12,2,8"
14829,commdev-image-keyboard-response,591,1073543,learnblock2,null,img/planet10_right.png,10,Community 3,NA,FALSE,null,j,NA,NA,NA,1,6,"5,11,13,1,14,15,6,7,4,9,3,10,12,2,8"
14829,commdev-image-keyboard-response,592,1074795,learnblock2,720.9000000059605,img/planet8_left.png,8,Community 3,NA,TRUE,f,f,NA,NA,NA,1,6,"5,11,13,1,14,15,6,7,4,9,3,10,12,2,8"
14829,commdev-image-keyboard-response,593,1076047,learnblock2,1036.3999999985099,img/planet12_left.png,12,Community 3,NA,TRUE,f,f,NA,NA,NA,1,6,"5,11,13,1,14,15,6,7,4,9,3,10,12,2,8"
14829,commdev-image-keyboard-response,594,1077300,learnblock2,642,img/planet2_left.png,2,Community 3,NA,TRUE,f,f,NA,NA,NA,1,6,"5,11,13,1,14,15,6,7,4,9,3,10,12,2,8"
14829,commdev-image-keyboard-response,595,1078552,learnblock2,880.2999999970198,img/planet8_left.png,8,Community 3,NA,TRUE,f,f,NA,NA,NA,1,6,"5,11,13,1,14,15,6,7,4,9,3,10,12,2,8"
14829,commdev-image-keyboard-response,596,1079805,learnblock2,767.3999999985099,img/planet12_left.png,12,Community 3,NA,TRUE,f,f,NA,NA,NA,1,6,"5,11,13,1,14,15,6,7,4,9,3,10,12,2,8"
14829,commdev-image-keyboard-response,597,1081057,learnblock2,null,img/planet8_right.png,8,Community 3,NA,FALSE,null,j,NA,NA,NA,1,6,"5,11,13,1,14,15,6,7,4,9,3,10,12,2,8"
14829,commdev-image-keyboard-response,598,1082309,learnblock2,null,img/planet2_right.png,2,Community 3,NA,FALSE,null,j,NA,NA,NA,1,6,"5,11,13,1,14,15,6,7,4,9,3,10,12,2,8"
14829,commdev-image-keyboard-response,599,1083562,learnblock2,867.8000000044703,img/planet8_left.png,8,Community 3,NA,TRUE,f,f,NA,NA,NA,1,6,"5,11,13,1,14,15,6,7,4,9,3,10,12,2,8"
14829,commdev-image-keyboard-response,600,1084815,learnblock2,null,img/planet2_left.png,2,Community 3,NA,FALSE,null,f,NA,NA,NA,1,6,"5,11,13,1,14,15,6,7,4,9,3,10,12,2,8"
14829,commdev-image-keyboard-response,601,1086068,learnblock2,899.2000000029802,img/planet12_left.png,12,Community 3,NA,TRUE,f,f,NA,NA,NA,1,6,"5,11,13,1,14,15,6,7,4,9,3,10,12,2,8"
14829,commdev-image-keyboard-response,602,1087321,learnblock2,null,img/planet10_right.png,10,Community 3,NA,FALSE,null,j,NA,NA,NA,1,6,"5,11,13,1,14,15,6,7,4,9,3,10,12,2,8"
14829,commdev-image-keyboard-response,603,1088574,learnblock2,null,img/planet2_right.png,2,Community 3,NA,FALSE,null,j,NA,NA,NA,1,6,"5,11,13,1,14,15,6,7,4,9,3,10,12,2,8"
14829,commdev-image-keyboard-response,604,1089826,learnblock2,1012.5,img/planet10_left.png,10,Community 3,NA,TRUE,f,f,NA,NA,NA,1,6,"5,11,13,1,14,15,6,7,4,9,3,10,12,2,8"
14829,commdev-image-keyboard-response,605,1091078,learnblock2,565.2999999970198,img/planet2_right.png,2,Community 3,NA,FALSE,f,j,NA,NA,NA,1,6,"5,11,13,1,14,15,6,7,4,9,3,10,12,2,8"
14829,commdev-image-keyboard-response,606,1092330,learnblock2,768,img/planet12_left.png,12,Community 3,NA,TRUE,f,f,NA,NA,NA,1,6,"5,11,13,1,14,15,6,7,4,9,3,10,12,2,8"
14829,commdev-image-keyboard-response,607,1093583,learnblock2,480,img/planet8_left.png,8,Community 3,NA,TRUE,f,f,NA,NA,NA,1,6,"5,11,13,1,14,15,6,7,4,9,3,10,12,2,8"
14829,commdev-image-keyboard-response,608,1094836,learnblock2,null,img/planet10_left.png,10,Community 3,NA,FALSE,null,f,NA,NA,NA,1,6,"5,11,13,1,14,15,6,7,4,9,3,10,12,2,8"
14829,commdev-image-keyboard-response,609,1096087,learnblock2,885.0999999940395,img/planet7_left.png,7,Community 2,NA,TRUE,f,f,NA,NA,NA,1,6,"5,11,13,1,14,15,6,7,4,9,3,10,12,2,8"
14829,commdev-image-keyboard-response,610,1097341,learnblock2,null,img/planet6_left.png,6,Community 2,NA,FALSE,null,f,NA,NA,NA,1,6,"5,11,13,1,14,15,6,7,4,9,3,10,12,2,8"
14829,commdev-image-keyboard-response,611,1098593,learnblock2,25.200000002980232,img/planet4_right.png,4,Community 2,NA,FALSE,f,j,NA,NA,NA,1,6,"5,11,13,1,14,15,6,7,4,9,3,10,12,2,8"
14829,commdev-image-keyboard-response,612,1099847,learnblock2,null,img/planet7_right.png,7,Community 2,NA,FALSE,null,j,NA,NA,NA,1,6,"5,11,13,1,14,15,6,7,4,9,3,10,12,2,8"
14829,commdev-image-keyboard-response,613,1101098,learnblock2,null,img/planet4_right.png,4,Community 2,NA,FALSE,null,j,NA,NA,NA,1,6,"5,11,13,1,14,15,6,7,4,9,3,10,12,2,8"
14829,commdev-image-keyboard-response,614,1102351,learnblock2,null,img/planet15_left.png,15,Community 2,NA,FALSE,null,f,NA,NA,NA,1,6,"5,11,13,1,14,15,6,7,4,9,3,10,12,2,8"
14829,commdev-image-keyboard-response,615,1103604,learnblock2,null,img/planet9_right.png,9,Community 2,NA,FALSE,null,j,NA,NA,NA,1,6,"5,11,13,1,14,15,6,7,4,9,3,10,12,2,8"
14829,commdev-image-keyboard-response,616,1104857,learnblock2,null,img/planet4_right.png,4,Community 2,NA,FALSE,null,j,NA,NA,NA,1,6,"5,11,13,1,14,15,6,7,4,9,3,10,12,2,8"
14829,commdev-image-keyboard-response,617,1106110,learnblock2,802.6000000014901,img/planet7_left.png,7,Community 2,NA,TRUE,f,f,NA,NA,NA,1,6,"5,11,13,1,14,15,6,7,4,9,3,10,12,2,8"
14829,commdev-image-keyboard-response,618,1107362,learnblock2,null,img/planet10_left.png,10,Community 3,NA,FALSE,null,f,NA,NA,NA,1,6,"5,11,13,1,14,15,6,7,4,9,3,10,12,2,8"
14829,commdev-image-keyboard-response,619,1108616,learnblock2,null,img/planet12_right.png,12,Community 3,NA,FALSE,null,j,NA,NA,NA,1,6,"5,11,13,1,14,15,6,7,4,9,3,10,12,2,8"
14829,commdev-image-keyboard-response,620,1109869,learnblock2,null,img/planet2_left.png,2,Community 3,NA,FALSE,null,f,NA,NA,NA,1,6,"5,11,13,1,14,15,6,7,4,9,3,10,12,2,8"
14829,commdev-image-keyboard-response,621,1111122,learnblock2,803,img/planet3_left.png,3,Community 3,NA,TRUE,f,f,NA,NA,NA,1,6,"5,11,13,1,14,15,6,7,4,9,3,10,12,2,8"
14829,commdev-image-keyboard-response,622,1112374,learnblock2,796.1000000014901,img/planet8_left.png,8,Community 3,NA,TRUE,f,f,NA,NA,NA,1,6,"5,11,13,1,14,15,6,7,4,9,3,10,12,2,8"
14829,commdev-image-keyboard-response,623,1113626,learnblock2,661.6000000014901,img/planet3_right.png,3,Community 3,NA,FALSE,f,j,NA,NA,NA,1,6,"5,11,13,1,14,15,6,7,4,9,3,10,12,2,8"
14829,commdev-image-keyboard-response,624,1114878,learnblock2,null,img/planet2_right.png,2,Community 3,NA,FALSE,null,j,NA,NA,NA,1,6,"5,11,13,1,14,15,6,7,4,9,3,10,12,2,8"
14829,commdev-image-keyboard-response,625,1116131,learnblock2,null,img/planet10_right.png,10,Community 3,NA,FALSE,null,j,NA,NA,NA,1,6,"5,11,13,1,14,15,6,7,4,9,3,10,12,2,8"
14829,commdev-image-keyboard-response,626,1117384,learnblock2,null,img/planet7_right.png,7,Community 2,NA,FALSE,null,j,NA,NA,NA,1,6,"5,11,13,1,14,15,6,7,4,9,3,10,12,2,8"
14829,commdev-image-keyboard-response,627,1118636,learnblock2,797.5,img/planet4_left.png,4,Community 2,NA,TRUE,f,f,NA,NA,NA,1,6,"5,11,13,1,14,15,6,7,4,9,3,10,12,2,8"
14829,commdev-image-keyboard-response,628,1119888,learnblock2,null,img/planet9_right.png,9,Community 2,NA,FALSE,null,j,NA,NA,NA,1,6,"5,11,13,1,14,15,6,7,4,9,3,10,12,2,8"
14829,commdev-image-keyboard-response,629,1121141,learnblock2,null,img/planet15_left.png,15,Community 2,NA,FALSE,null,f,NA,NA,NA,1,6,"5,11,13,1,14,15,6,7,4,9,3,10,12,2,8"
14829,commdev-image-keyboard-response,630,1122393,learnblock2,null,img/planet6_left.png,6,Community 2,NA,FALSE,null,f,NA,NA,NA,1,6,"5,11,13,1,14,15,6,7,4,9,3,10,12,2,8"
14829,commdev-image-keyboard-response,631,1123646,learnblock2,51.79999999701977,img/planet15_right.png,15,Community 2,NA,FALSE,f,j,NA,NA,NA,1,6,"5,11,13,1,14,15,6,7,4,9,3,10,12,2,8"
14829,commdev-image-keyboard-response,632,1124899,learnblock2,403.1000000014901,img/planet4_right.png,4,Community 2,NA,FALSE,f,j,NA,NA,NA,1,6,"5,11,13,1,14,15,6,7,4,9,3,10,12,2,8"
14829,commdev-image-keyboard-response,633,1126151,learnblock2,null,img/planet15_right.png,15,Community 2,NA,FALSE,null,j,NA,NA,NA,1,6,"5,11,13,1,14,15,6,7,4,9,3,10,12,2,8"
14829,commdev-image-keyboard-response,634,1127403,learnblock2,null,img/planet1_right.png,1,Community 1,NA,FALSE,null,j,NA,NA,NA,1,6,"5,11,13,1,14,15,6,7,4,9,3,10,12,2,8"
14829,commdev-image-keyboard-response,635,1128655,learnblock2,null,img/planet5_right.png,5,Community 1,NA,FALSE,null,j,NA,NA,NA,1,6,"5,11,13,1,14,15,6,7,4,9,3,10,12,2,8"
14829,commdev-image-keyboard-response,636,1129907,learnblock2,null,img/planet13_right.png,13,Community 1,NA,FALSE,null,j,NA,NA,NA,1,6,"5,11,13,1,14,15,6,7,4,9,3,10,12,2,8"
14829,commdev-image-keyboard-response,637,1131160,learnblock2,null,img/planet1_right.png,1,Community 1,NA,FALSE,null,j,NA,NA,NA,1,6,"5,11,13,1,14,15,6,7,4,9,3,10,12,2,8"
14829,commdev-image-keyboard-response,638,1132413,learnblock2,807,img/planet11_left.png,11,Community 1,NA,TRUE,f,f,NA,NA,NA,1,6,"5,11,13,1,14,15,6,7,4,9,3,10,12,2,8"
14829,commdev-image-keyboard-response,639,1133666,learnblock2,null,img/planet14_right.png,14,Community 1,NA,FALSE,null,j,NA,NA,NA,1,6,"5,11,13,1,14,15,6,7,4,9,3,10,12,2,8"
14829,commdev-image-keyboard-response,640,1134917,learnblock2,null,img/planet13_right.png,13,Community 1,NA,FALSE,null,j,NA,NA,NA,1,6,"5,11,13,1,14,15,6,7,4,9,3,10,12,2,8"
14829,commdev-image-keyboard-response,641,1136170,learnblock2,898.2999999970198,img/planet1_left.png,1,Community 1,NA,TRUE,f,f,NA,NA,NA,1,6,"5,11,13,1,14,15,6,7,4,9,3,10,12,2,8"
14829,commdev-image-keyboard-response,642,1137423,learnblock2,804.7999999970198,img/planet5_left.png,5,Community 1,NA,TRUE,f,f,NA,NA,NA,1,6,"5,11,13,1,14,15,6,7,4,9,3,10,12,2,8"
14829,commdev-image-keyboard-response,643,1138676,learnblock2,647.8999999985099,img/planet11_left.png,11,Community 1,NA,TRUE,f,f,NA,NA,NA,1,6,"5,11,13,1,14,15,6,7,4,9,3,10,12,2,8"
14829,commdev-image-keyboard-response,644,1139929,learnblock2,686.1000000014901,img/planet14_left.png,14,Community 1,NA,TRUE,f,f,NA,NA,NA,1,6,"5,11,13,1,14,15,6,7,4,9,3,10,12,2,8"
14829,commdev-image-keyboard-response,645,1141182,learnblock2,622.8999999985099,img/planet13_left.png,13,Community 1,NA,TRUE,f,f,NA,NA,NA,1,6,"5,11,13,1,14,15,6,7,4,9,3,10,12,2,8"
14829,commdev-image-keyboard-response,646,1142435,learnblock2,746.3999999985099,img/planet1_left.png,1,Community 1,NA,TRUE,f,f,NA,NA,NA,1,6,"5,11,13,1,14,15,6,7,4,9,3,10,12,2,8"
14829,commdev-image-keyboard-response,647,1143687,learnblock2,590.7000000029802,img/planet13_left.png,13,Community 1,NA,TRUE,f,f,NA,NA,NA,1,6,"5,11,13,1,14,15,6,7,4,9,3,10,12,2,8"
14829,commdev-image-keyboard-response,648,1144940,learnblock2,null,img/planet5_right.png,5,Community 1,NA,FALSE,null,j,NA,NA,NA,1,6,"5,11,13,1,14,15,6,7,4,9,3,10,12,2,8"
14829,commdev-image-keyboard-response,649,1146192,learnblock2,null,img/planet14_right.png,14,Community 1,NA,FALSE,null,j,NA,NA,NA,1,6,"5,11,13,1,14,15,6,7,4,9,3,10,12,2,8"
14829,commdev-image-keyboard-response,650,1147444,learnblock2,807.1000000014901,img/planet5_left.png,5,Community 1,NA,TRUE,f,f,NA,NA,NA,1,6,"5,11,13,1,14,15,6,7,4,9,3,10,12,2,8"
14829,commdev-image-keyboard-response,651,1148696,learnblock2,710.3000000044703,img/planet13_left.png,13,Community 1,NA,TRUE,f,f,NA,NA,NA,1,6,"5,11,13,1,14,15,6,7,4,9,3,10,12,2,8"
14829,commdev-image-keyboard-response,652,1149948,learnblock2,null,img/planet1_right.png,1,Community 1,NA,FALSE,null,j,NA,NA,NA,1,6,"5,11,13,1,14,15,6,7,4,9,3,10,12,2,8"
14829,commdev-image-keyboard-response,653,1151200,learnblock2,null,img/planet15_right.png,15,Community 2,NA,FALSE,null,j,NA,NA,NA,1,6,"5,11,13,1,14,15,6,7,4,9,3,10,12,2,8"
14829,commdev-image-keyboard-response,654,1152453,learnblock2,1166.5999999940395,img/planet4_left.png,4,Community 2,NA,TRUE,f,f,NA,NA,NA,1,6,"5,11,13,1,14,15,6,7,4,9,3,10,12,2,8"
14829,commdev-image-keyboard-response,655,1153705,learnblock2,null,img/planet7_right.png,7,Community 2,NA,FALSE,null,j,NA,NA,NA,1,6,"5,11,13,1,14,15,6,7,4,9,3,10,12,2,8"
14829,commdev-image-keyboard-response,656,1154957,learnblock2,null,img/planet9_right.png,9,Community 2,NA,FALSE,null,j,NA,NA,NA,1,6,"5,11,13,1,14,15,6,7,4,9,3,10,12,2,8"
14829,commdev-image-keyboard-response,657,1156210,learnblock2,null,img/planet4_right.png,4,Community 2,NA,FALSE,null,j,NA,NA,NA,1,6,"5,11,13,1,14,15,6,7,4,9,3,10,12,2,8"
14829,commdev-image-keyboard-response,658,1157462,learnblock2,null,img/planet7_right.png,7,Community 2,NA,FALSE,null,j,NA,NA,NA,1,6,"5,11,13,1,14,15,6,7,4,9,3,10,12,2,8"
14829,commdev-image-keyboard-response,659,1158714,learnblock2,null,img/planet4_right.png,4,Community 2,NA,FALSE,null,j,NA,NA,NA,1,6,"5,11,13,1,14,15,6,7,4,9,3,10,12,2,8"
14829,commdev-image-keyboard-response,660,1159967,learnblock2,null,img/planet15_right.png,15,Community 2,NA,FALSE,null,j,NA,NA,NA,1,6,"5,11,13,1,14,15,6,7,4,9,3,10,12,2,8"
14829,commdev-image-keyboard-response,661,1161219,learnblock2,780.3999999985099,img/planet4_left.png,4,Community 2,NA,TRUE,f,f,NA,NA,NA,1,6,"5,11,13,1,14,15,6,7,4,9,3,10,12,2,8"
14829,commdev-image-keyboard-response,662,1162472,learnblock2,null,img/planet9_right.png,9,Community 2,NA,FALSE,null,j,NA,NA,NA,1,6,"5,11,13,1,14,15,6,7,4,9,3,10,12,2,8"
14829,commdev-image-keyboard-response,663,1163724,learnblock2,null,img/planet15_right.png,15,Community 2,NA,FALSE,null,j,NA,NA,NA,1,6,"5,11,13,1,14,15,6,7,4,9,3,10,12,2,8"
14829,commdev-image-keyboard-response,664,1164976,learnblock2,null,img/planet6_right.png,6,Community 2,NA,FALSE,null,j,NA,NA,NA,1,6,"5,11,13,1,14,15,6,7,4,9,3,10,12,2,8"
14829,commdev-image-keyboard-response,665,1166228,learnblock2,847.8999999985099,img/planet15_left.png,15,Community 2,NA,TRUE,f,f,NA,NA,NA,1,6,"5,11,13,1,14,15,6,7,4,9,3,10,12,2,8"
14829,commdev-image-keyboard-response,666,1167481,learnblock2,724.6000000014901,img/planet4_left.png,4,Community 2,NA,TRUE,f,f,NA,NA,NA,1,6,"5,11,13,1,14,15,6,7,4,9,3,10,12,2,8"
14829,commdev-image-keyboard-response,667,1168733,learnblock2,null,img/planet6_right.png,6,Community 2,NA,FALSE,null,j,NA,NA,NA,1,6,"5,11,13,1,14,15,6,7,4,9,3,10,12,2,8"
14829,commdev-image-keyboard-response,668,1169986,learnblock2,1214.3999999985099,img/planet15_left.png,15,Community 2,NA,TRUE,f,f,NA,NA,NA,1,6,"5,11,13,1,14,15,6,7,4,9,3,10,12,2,8"
14829,commdev-image-keyboard-response,669,1171237,learnblock2,null,img/planet4_right.png,4,Community 2,NA,FALSE,null,j,NA,NA,NA,1,6,"5,11,13,1,14,15,6,7,4,9,3,10,12,2,8"
14829,commdev-image-keyboard-response,670,1172490,learnblock2,864.7999999970198,img/planet6_left.png,6,Community 2,NA,TRUE,f,f,NA,NA,NA,1,6,"5,11,13,1,14,15,6,7,4,9,3,10,12,2,8"
14829,commdev-image-keyboard-response,671,1173743,learnblock2,null,img/planet9_right.png,9,Community 2,NA,FALSE,null,j,NA,NA,NA,1,6,"5,11,13,1,14,15,6,7,4,9,3,10,12,2,8"
14829,commdev-image-keyboard-response,672,1174996,learnblock2,984.7000000029802,img/planet7_left.png,7,Community 2,NA,TRUE,f,f,NA,NA,NA,1,6,"5,11,13,1,14,15,6,7,4,9,3,10,12,2,8"
14829,commdev-image-keyboard-response,673,1176248,learnblock2,null,img/planet6_right.png,6,Community 2,NA,FALSE,null,j,NA,NA,NA,1,6,"5,11,13,1,14,15,6,7,4,9,3,10,12,2,8"
14829,commdev-image-keyboard-response,674,1177501,learnblock2,745.7000000029802,img/planet7_right.png,7,Community 2,NA,FALSE,f,j,NA,NA,NA,1,6,"5,11,13,1,14,15,6,7,4,9,3,10,12,2,8"
14829,commdev-image-keyboard-response,675,1178753,learnblock2,null,img/planet4_right.png,4,Community 2,NA,FALSE,null,j,NA,NA,NA,1,6,"5,11,13,1,14,15,6,7,4,9,3,10,12,2,8"
14829,commdev-image-keyboard-response,676,1180005,learnblock2,null,img/planet15_right.png,15,Community 2,NA,FALSE,null,j,NA,NA,NA,1,6,"5,11,13,1,14,15,6,7,4,9,3,10,12,2,8"
14829,commdev-image-keyboard-response,677,1181269,learnblock2,688.1000000014901,img/planet4_left.png,4,Community 2,NA,TRUE,f,f,NA,NA,NA,1,6,"5,11,13,1,14,15,6,7,4,9,3,10,12,2,8"
14829,commdev-image-keyboard-response,678,1182551,learnblock2,null,img/planet7_right.png,7,Community 2,NA,FALSE,null,j,NA,NA,NA,1,6,"5,11,13,1,14,15,6,7,4,9,3,10,12,2,8"
14829,commdev-image-keyboard-response,679,1183802,learnblock2,null,img/planet9_right.png,9,Community 2,NA,FALSE,null,j,NA,NA,NA,1,6,"5,11,13,1,14,15,6,7,4,9,3,10,12,2,8"
14829,commdev-image-keyboard-response,680,1185056,learnblock2,1211.5,img/planet7_left.png,7,Community 2,NA,TRUE,f,f,NA,NA,NA,1,6,"5,11,13,1,14,15,6,7,4,9,3,10,12,2,8"
14829,commdev-image-keyboard-response,681,1186309,learnblock2,716.2999999970198,img/planet6_left.png,6,Community 2,NA,TRUE,f,f,NA,NA,NA,1,6,"5,11,13,1,14,15,6,7,4,9,3,10,12,2,8"
14829,commdev-image-keyboard-response,682,1187561,learnblock2,null,img/planet9_right.png,9,Community 2,NA,FALSE,null,j,NA,NA,NA,1,6,"5,11,13,1,14,15,6,7,4,9,3,10,12,2,8"
14829,commdev-image-keyboard-response,683,1188814,learnblock2,627.5999999940395,img/planet15_right.png,15,Community 2,NA,FALSE,f,j,NA,NA,NA,1,6,"5,11,13,1,14,15,6,7,4,9,3,10,12,2,8"
14829,commdev-image-keyboard-response,684,1190066,learnblock2,null,img/planet4_left.png,4,Community 2,NA,FALSE,null,f,NA,NA,NA,1,6,"5,11,13,1,14,15,6,7,4,9,3,10,12,2,8"
14829,commdev-image-keyboard-response,685,1191318,learnblock2,null,img/planet9_right.png,9,Community 2,NA,FALSE,null,j,NA,NA,NA,1,6,"5,11,13,1,14,15,6,7,4,9,3,10,12,2,8"
14829,commdev-image-keyboard-response,686,1192570,learnblock2,686.3999999985099,img/planet6_right.png,6,Community 2,NA,FALSE,f,j,NA,NA,NA,1,6,"5,11,13,1,14,15,6,7,4,9,3,10,12,2,8"
14829,commdev-image-keyboard-response,687,1193823,learnblock2,null,img/planet4_right.png,4,Community 2,NA,FALSE,null,j,NA,NA,NA,1,6,"5,11,13,1,14,15,6,7,4,9,3,10,12,2,8"
14829,commdev-image-keyboard-response,688,1195076,learnblock2,704.2999999970198,img/planet9_left.png,9,Community 2,NA,TRUE,f,f,NA,NA,NA,1,6,"5,11,13,1,14,15,6,7,4,9,3,10,12,2,8"
14829,commdev-image-keyboard-response,689,1196329,learnblock2,968.6000000014901,img/planet7_left.png,7,Community 2,NA,TRUE,f,f,NA,NA,NA,1,6,"5,11,13,1,14,15,6,7,4,9,3,10,12,2,8"
14829,commdev-image-keyboard-response,690,1197581,learnblock2,610.1000000014901,img/planet10_left.png,10,Community 3,NA,TRUE,f,f,NA,NA,NA,1,6,"5,11,13,1,14,15,6,7,4,9,3,10,12,2,8"
14829,commdev-image-keyboard-response,691,1198834,learnblock2,null,img/planet12_right.png,12,Community 3,NA,FALSE,null,j,NA,NA,NA,1,6,"5,11,13,1,14,15,6,7,4,9,3,10,12,2,8"
14829,commdev-image-keyboard-response,692,1200087,learnblock2,null,img/planet3_right.png,3,Community 3,NA,FALSE,null,j,NA,NA,NA,1,6,"5,11,13,1,14,15,6,7,4,9,3,10,12,2,8"
14829,commdev-image-keyboard-response,693,1201339,learnblock2,null,img/planet14_right.png,14,Community 1,NA,FALSE,null,j,NA,NA,NA,1,6,"5,11,13,1,14,15,6,7,4,9,3,10,12,2,8"
14829,commdev-image-keyboard-response,694,1202591,learnblock2,null,img/planet11_right.png,11,Community 1,NA,FALSE,null,j,NA,NA,NA,1,6,"5,11,13,1,14,15,6,7,4,9,3,10,12,2,8"
14829,commdev-image-keyboard-response,695,1203844,learnblock2,null,img/planet13_left.png,13,Community 1,NA,FALSE,null,f,NA,NA,NA,1,6,"5,11,13,1,14,15,6,7,4,9,3,10,12,2,8"
14829,commdev-image-keyboard-response,696,1205096,learnblock2,717.8999999985099,img/planet11_right.png,11,Community 1,NA,FALSE,f,j,NA,NA,NA,1,6,"5,11,13,1,14,15,6,7,4,9,3,10,12,2,8"
14829,commdev-image-keyboard-response,697,1206348,learnblock2,963.8999999985099,img/planet13_left.png,13,Community 1,NA,TRUE,f,f,NA,NA,NA,1,6,"5,11,13,1,14,15,6,7,4,9,3,10,12,2,8"
14829,commdev-image-keyboard-response,698,1207602,learnblock2,null,img/planet5_right.png,5,Community 1,NA,FALSE,null,j,NA,NA,NA,1,6,"5,11,13,1,14,15,6,7,4,9,3,10,12,2,8"
14829,commdev-image-keyboard-response,699,1208853,learnblock2,null,img/planet14_left.png,14,Community 1,NA,FALSE,null,f,NA,NA,NA,1,6,"5,11,13,1,14,15,6,7,4,9,3,10,12,2,8"
14829,commdev-image-keyboard-response,700,1210105,learnblock2,1060,img/planet11_right.png,11,Community 1,NA,FALSE,f,j,NA,NA,NA,1,6,"5,11,13,1,14,15,6,7,4,9,3,10,12,2,8"
14829,commdev-image-keyboard-response,701,1211358,learnblock2,null,img/planet5_right.png,5,Community 1,NA,FALSE,null,j,NA,NA,NA,1,6,"5,11,13,1,14,15,6,7,4,9,3,10,12,2,8"
14829,commdev-image-keyboard-response,702,1212611,learnblock2,null,img/planet1_right.png,1,Community 1,NA,FALSE,null,j,NA,NA,NA,1,6,"5,11,13,1,14,15,6,7,4,9,3,10,12,2,8"
14829,commdev-image-keyboard-response,703,1213864,learnblock2,null,img/planet13_left.png,13,Community 1,NA,FALSE,null,f,NA,NA,NA,1,6,"5,11,13,1,14,15,6,7,4,9,3,10,12,2,8"
14829,commdev-image-keyboard-response,704,1215116,learnblock2,1179.8999999985099,img/planet1_left.png,1,Community 1,NA,TRUE,f,f,NA,NA,NA,1,6,"5,11,13,1,14,15,6,7,4,9,3,10,12,2,8"
14829,commdev-image-keyboard-response,705,1216368,learnblock2,613.1999999955297,img/planet13_left.png,13,Community 1,NA,TRUE,f,f,NA,NA,NA,1,6,"5,11,13,1,14,15,6,7,4,9,3,10,12,2,8"
14829,commdev-image-keyboard-response,706,1217620,learnblock2,null,img/planet5_left.png,5,Community 1,NA,FALSE,null,f,NA,NA,NA,1,6,"5,11,13,1,14,15,6,7,4,9,3,10,12,2,8"
14829,commdev-image-keyboard-response,707,1218874,learnblock2,null,img/planet13_right.png,13,Community 1,NA,FALSE,null,j,NA,NA,NA,1,6,"5,11,13,1,14,15,6,7,4,9,3,10,12,2,8"
14829,commdev-image-keyboard-response,708,1220126,learnblock2,null,img/planet5_left.png,5,Community 1,NA,FALSE,null,f,NA,NA,NA,1,6,"5,11,13,1,14,15,6,7,4,9,3,10,12,2,8"
14829,commdev-image-keyboard-response,709,1221379,learnblock2,null,img/planet14_left.png,14,Community 1,NA,FALSE,null,f,NA,NA,NA,1,6,"5,11,13,1,14,15,6,7,4,9,3,10,12,2,8"
14829,commdev-image-keyboard-response,710,1222630,learnblock2,null,img/planet13_right.png,13,Community 1,NA,FALSE,null,j,NA,NA,NA,1,6,"5,11,13,1,14,15,6,7,4,9,3,10,12,2,8"
14829,commdev-image-keyboard-response,711,1223883,learnblock2,null,img/planet11_right.png,11,Community 1,NA,FALSE,null,j,NA,NA,NA,1,6,"5,11,13,1,14,15,6,7,4,9,3,10,12,2,8"
14829,commdev-image-keyboard-response,712,1225136,learnblock2,null,img/planet5_right.png,5,Community 1,NA,FALSE,null,j,NA,NA,NA,1,6,"5,11,13,1,14,15,6,7,4,9,3,10,12,2,8"
14829,commdev-image-keyboard-response,713,1226389,learnblock2,null,img/planet14_right.png,14,Community 1,NA,FALSE,null,j,NA,NA,NA,1,6,"5,11,13,1,14,15,6,7,4,9,3,10,12,2,8"
14829,commdev-image-keyboard-response,714,1227641,learnblock2,null,img/planet11_left.png,11,Community 1,NA,FALSE,null,f,NA,NA,NA,1,6,"5,11,13,1,14,15,6,7,4,9,3,10,12,2,8"
14829,commdev-image-keyboard-response,715,1228894,learnblock2,128.70000000298023,img/planet13_right.png,13,Community 1,NA,FALSE,f,j,NA,NA,NA,1,6,"5,11,13,1,14,15,6,7,4,9,3,10,12,2,8"
14829,commdev-image-keyboard-response,716,1230146,learnblock2,1037,img/planet11_right.png,11,Community 1,NA,FALSE,f,j,NA,NA,NA,1,6,"5,11,13,1,14,15,6,7,4,9,3,10,12,2,8"
14829,commdev-image-keyboard-response,717,1231399,learnblock2,982.6000000014901,img/planet5_left.png,5,Community 1,NA,TRUE,f,f,NA,NA,NA,1,6,"5,11,13,1,14,15,6,7,4,9,3,10,12,2,8"
14829,commdev-image-keyboard-response,718,1232652,learnblock2,null,img/planet1_right.png,1,Community 1,NA,FALSE,null,j,NA,NA,NA,1,6,"5,11,13,1,14,15,6,7,4,9,3,10,12,2,8"
14829,commdev-image-keyboard-response,719,1233904,learnblock2,null,img/planet15_right.png,15,Community 2,NA,FALSE,null,j,NA,NA,NA,1,6,"5,11,13,1,14,15,6,7,4,9,3,10,12,2,8"
14829,commdev-image-keyboard-response,720,1235156,learnblock2,null,img/planet6_right.png,6,Community 2,NA,FALSE,null,j,NA,NA,NA,1,6,"5,11,13,1,14,15,6,7,4,9,3,10,12,2,8"
14829,commdev-image-keyboard-response,721,1236409,learnblock2,890.1000000014901,img/planet7_left.png,7,Community 2,NA,TRUE,f,f,NA,NA,NA,1,6,"5,11,13,1,14,15,6,7,4,9,3,10,12,2,8"
14829,commdev-image-keyboard-response,722,1237662,learnblock2,1037,img/planet9_left.png,9,Community 2,NA,TRUE,f,f,NA,NA,NA,1,6,"5,11,13,1,14,15,6,7,4,9,3,10,12,2,8"
14829,commdev-image-keyboard-response,723,1238913,learnblock2,718.3999999985099,img/planet15_left.png,15,Community 2,NA,TRUE,f,f,NA,NA,NA,1,6,"5,11,13,1,14,15,6,7,4,9,3,10,12,2,8"
14829,commdev-image-keyboard-response,724,1240166,learnblock2,null,img/planet9_right.png,9,Community 2,NA,FALSE,null,j,NA,NA,NA,1,6,"5,11,13,1,14,15,6,7,4,9,3,10,12,2,8"
14829,commdev-image-keyboard-response,725,1241419,learnblock2,null,img/planet7_right.png,7,Community 2,NA,FALSE,null,j,NA,NA,NA,1,6,"5,11,13,1,14,15,6,7,4,9,3,10,12,2,8"
14829,commdev-image-keyboard-response,726,1242671,learnblock2,854.3999999985099,img/planet6_left.png,6,Community 2,NA,TRUE,f,f,NA,NA,NA,1,6,"5,11,13,1,14,15,6,7,4,9,3,10,12,2,8"
14829,commdev-image-keyboard-response,727,1243925,learnblock2,null,img/planet15_left.png,15,Community 2,NA,FALSE,null,f,NA,NA,NA,1,6,"5,11,13,1,14,15,6,7,4,9,3,10,12,2,8"
14829,commdev-image-keyboard-response,728,1245180,learnblock2,716.8000000044703,img/planet4_left.png,4,Community 2,NA,TRUE,f,f,NA,NA,NA,1,6,"5,11,13,1,14,15,6,7,4,9,3,10,12,2,8"
14829,commdev-image-keyboard-response,729,1246433,learnblock2,null,img/planet15_right.png,15,Community 2,NA,FALSE,null,j,NA,NA,NA,1,6,"5,11,13,1,14,15,6,7,4,9,3,10,12,2,8"
14829,commdev-image-keyboard-response,730,1247685,learnblock2,null,img/planet6_left.png,6,Community 2,NA,FALSE,null,f,NA,NA,NA,1,6,"5,11,13,1,14,15,6,7,4,9,3,10,12,2,8"
14829,commdev-image-keyboard-response,731,1248937,learnblock2,null,img/planet15_left.png,15,Community 2,NA,FALSE,null,f,NA,NA,NA,1,6,"5,11,13,1,14,15,6,7,4,9,3,10,12,2,8"
14829,commdev-image-keyboard-response,732,1250189,learnblock2,144.40000000596046,img/planet4_right.png,4,Community 2,NA,FALSE,f,j,NA,NA,NA,1,6,"5,11,13,1,14,15,6,7,4,9,3,10,12,2,8"
14829,commdev-image-keyboard-response,733,1251442,learnblock2,null,img/planet6_left.png,6,Community 2,NA,FALSE,null,f,NA,NA,NA,1,6,"5,11,13,1,14,15,6,7,4,9,3,10,12,2,8"
14829,commdev-image-keyboard-response,734,1252694,learnblock2,null,img/planet7_right.png,7,Community 2,NA,FALSE,null,j,NA,NA,NA,1,6,"5,11,13,1,14,15,6,7,4,9,3,10,12,2,8"
14829,commdev-image-keyboard-response,735,1253946,learnblock2,null,img/planet4_left.png,4,Community 2,NA,FALSE,null,f,NA,NA,NA,1,6,"5,11,13,1,14,15,6,7,4,9,3,10,12,2,8"
14829,commdev-image-keyboard-response,736,1255198,learnblock2,803.0999999940395,img/planet6_right.png,6,Community 2,NA,FALSE,f,j,NA,NA,NA,1,6,"5,11,13,1,14,15,6,7,4,9,3,10,12,2,8"
14829,commdev-image-keyboard-response,737,1256451,learnblock2,null,img/planet15_left.png,15,Community 2,NA,FALSE,null,f,NA,NA,NA,1,6,"5,11,13,1,14,15,6,7,4,9,3,10,12,2,8"
14829,commdev-image-keyboard-response,738,1257704,learnblock2,null,img/planet9_right.png,9,Community 2,NA,FALSE,null,j,NA,NA,NA,1,6,"5,11,13,1,14,15,6,7,4,9,3,10,12,2,8"
14829,commdev-image-keyboard-response,739,1258956,learnblock2,null,img/planet7_right.png,7,Community 2,NA,FALSE,null,j,NA,NA,NA,1,6,"5,11,13,1,14,15,6,7,4,9,3,10,12,2,8"
14829,commdev-image-keyboard-response,740,1260208,learnblock2,900.2999999970198,img/planet6_left.png,6,Community 2,NA,TRUE,f,f,NA,NA,NA,1,6,"5,11,13,1,14,15,6,7,4,9,3,10,12,2,8"
14829,commdev-image-keyboard-response,741,1261460,learnblock2,728.5,img/planet7_left.png,7,Community 2,NA,TRUE,f,f,NA,NA,NA,1,6,"5,11,13,1,14,15,6,7,4,9,3,10,12,2,8"
14829,commdev-image-keyboard-response,742,1262713,learnblock2,null,img/planet4_right.png,4,Community 2,NA,FALSE,null,j,NA,NA,NA,1,6,"5,11,13,1,14,15,6,7,4,9,3,10,12,2,8"
14829,commdev-image-keyboard-response,743,1263966,learnblock2,null,img/planet15_right.png,15,Community 2,NA,FALSE,null,j,NA,NA,NA,1,6,"5,11,13,1,14,15,6,7,4,9,3,10,12,2,8"
14829,commdev-image-keyboard-response,744,1265218,learnblock2,null,img/planet4_right.png,4,Community 2,NA,FALSE,null,j,NA,NA,NA,1,6,"5,11,13,1,14,15,6,7,4,9,3,10,12,2,8"
14829,commdev-image-keyboard-response,745,1266469,learnblock2,null,img/planet7_right.png,7,Community 2,NA,FALSE,null,j,NA,NA,NA,1,6,"5,11,13,1,14,15,6,7,4,9,3,10,12,2,8"
14829,commdev-image-keyboard-response,746,1267722,learnblock2,null,img/planet4_left.png,4,Community 2,NA,FALSE,null,f,NA,NA,NA,1,6,"5,11,13,1,14,15,6,7,4,9,3,10,12,2,8"
14829,commdev-image-keyboard-response,747,1268975,learnblock2,415.19999999552965,img/planet7_right.png,7,Community 2,NA,FALSE,f,j,NA,NA,NA,1,6,"5,11,13,1,14,15,6,7,4,9,3,10,12,2,8"
14829,commdev-image-keyboard-response,748,1270227,learnblock2,1225.2000000029802,img/planet6_left.png,6,Community 2,NA,TRUE,f,f,NA,NA,NA,1,6,"5,11,13,1,14,15,6,7,4,9,3,10,12,2,8"
14829,commdev-image-keyboard-response,749,1271478,learnblock2,null,img/planet7_left.png,7,Community 2,NA,FALSE,null,f,NA,NA,NA,1,6,"5,11,13,1,14,15,6,7,4,9,3,10,12,2,8"
14829,commdev-image-keyboard-response,750,1272731,learnblock2,883.6999999955297,img/planet6_left.png,6,Community 2,NA,TRUE,f,f,NA,NA,NA,1,6,"5,11,13,1,14,15,6,7,4,9,3,10,12,2,8"
14829,commdev-image-keyboard-response,751,1273983,learnblock2,573.6999999955297,img/planet9_left.png,9,Community 2,NA,TRUE,f,f,NA,NA,NA,1,6,"5,11,13,1,14,15,6,7,4,9,3,10,12,2,8"
14829,commdev-image-keyboard-response,752,1275236,learnblock2,null,img/planet15_right.png,15,Community 2,NA,FALSE,null,j,NA,NA,NA,1,6,"5,11,13,1,14,15,6,7,4,9,3,10,12,2,8"
14829,commdev-image-keyboard-response,753,1276489,learnblock2,733.2000000029802,img/planet6_left.png,6,Community 2,NA,TRUE,f,f,NA,NA,NA,1,6,"5,11,13,1,14,15,6,7,4,9,3,10,12,2,8"
14829,commdev-image-keyboard-response,754,1277742,learnblock2,683.8999999985099,img/planet4_left.png,4,Community 2,NA,TRUE,f,f,NA,NA,NA,1,6,"5,11,13,1,14,15,6,7,4,9,3,10,12,2,8"
14829,commdev-image-keyboard-response,755,1278995,learnblock2,null,img/planet15_right.png,15,Community 2,NA,FALSE,null,j,NA,NA,NA,1,6,"5,11,13,1,14,15,6,7,4,9,3,10,12,2,8"
14829,commdev-image-keyboard-response,756,1280247,learnblock2,null,img/planet4_right.png,4,Community 2,NA,FALSE,null,j,NA,NA,NA,1,6,"5,11,13,1,14,15,6,7,4,9,3,10,12,2,8"
14829,commdev-image-keyboard-response,757,1281500,learnblock2,949.6000000014901,img/planet6_left.png,6,Community 2,NA,TRUE,f,f,NA,NA,NA,1,6,"5,11,13,1,14,15,6,7,4,9,3,10,12,2,8"
14829,commdev-image-keyboard-response,758,1282752,learnblock2,892.7999999970198,img/planet4_left.png,4,Community 2,NA,TRUE,f,f,NA,NA,NA,1,6,"5,11,13,1,14,15,6,7,4,9,3,10,12,2,8"
14829,commdev-image-keyboard-response,759,1284005,learnblock2,null,img/planet7_right.png,7,Community 2,NA,FALSE,null,j,NA,NA,NA,1,6,"5,11,13,1,14,15,6,7,4,9,3,10,12,2,8"
14829,commdev-image-keyboard-response,760,1285257,learnblock2,650.1999999955297,img/planet10_left.png,10,Community 3,NA,TRUE,f,f,NA,NA,NA,1,6,"5,11,13,1,14,15,6,7,4,9,3,10,12,2,8"
