subject_id,trial_type,trial_index,time_elapsed,block,rt,stimulus,planet,community,response,correct,key_press,learning_correct_response,parse,init_locations,final_locations,browser_interactions,num_comp,planet_map
14222,commdev-instructions,7,44069,NA,3059,"<p>In this game, you are a scientist on board a space shuttle. </p><p> On each mission, you will visit planets all across the universe.</p><img src=""img/controlroom.jpg"" width=300vw>",NA,NA,NA,NA,NA,NA,NA,NA,NA,NA,6,"3,7,5,14,6,2,8,12,9,13,1,4,11,15,10"
14222,commdev-instructions,8,48013,NA,1863.2999999523163,"<p>Here are a few planets you might see:</p><img src=""img/practice1.png"" width=200vw><img src=""img/practice2.png"" width=200vw><img src=""img/practice3.png"" width=200vw>",NA,NA,NA,NA,NA,NA,NA,NA,NA,NA,6,"3,7,5,14,6,2,8,12,9,13,1,4,11,15,10"
14222,commdev-instructions,9,56332,NA,912.1000001430511,"<p>Your job as a scientist is to record which direction the winds are moving on each planet.</p><p>There are two types of wind directions:</p><img src=""img/practice1_left.png"" width=200vw><img src=""img/practice1_right.png"" width=200vw>",NA,NA,NA,NA,NA,NA,NA,NA,NA,NA,6,"3,7,5,14,6,2,8,12,9,13,1,4,11,15,10"
14222,commdev-instructions,10,64932,NA,3713.399999856949,"<p>If the winds are moving this way, press the letter <strong>F</strong> on the keyboard as fast as you can.</p><img src=""img/leftwind.png"" width=250vw>",NA,NA,NA,NA,NA,NA,NA,NA,NA,NA,6,"3,7,5,14,6,2,8,12,9,13,1,4,11,15,10"
14222,commdev-instructions,11,70700,NA,1261,"<p>If the winds are moving this way, press the letter <strong>J</strong> on the keyboard as fast as you can.</p><img src=""img/rightwind.png"" width=350vw>",NA,NA,NA,NA,NA,NA,NA,NA,NA,NA,6,"3,7,5,14,6,2,8,12,9,13,1,4,11,15,10"
14222,commdev-instructions,12,76212,NA,1083.6999998092651,<p>You will have 1 second to respond. Try to respond before the time runs out!,NA,NA,NA,NA,NA,NA,NA,NA,NA,NA,6,"3,7,5,14,6,2,8,12,9,13,1,4,11,15,10"
14222,commdev-instructions,13,82716,NA,1067.5,<p>The planets you will visit will look different from each other.</p><p>You should respond <strong>only</strong> based on wind direction.,NA,NA,NA,NA,NA,NA,NA,NA,NA,NA,6,"3,7,5,14,6,2,8,12,9,13,1,4,11,15,10"
14222,commdev-instructions,14,89740,NA,1841.2999999523163,"<p> Ready to start the practice round? </p><p> Remember, press <strong>F</strong> or <strong>J</strong> depending on the wind direction.<br><img src=""img/categorize_planet_example.png""",NA,NA,NA,NA,NA,NA,NA,NA,NA,NA,6,"3,7,5,14,6,2,8,12,9,13,1,4,11,15,10"
14222,commdev-instructions,26,159460,NA,1310.7999999523163,"<p>Great, now try a short practice mission. </p><p> This time, you will have 1 second to respond and you won't know whether you pressed the right or wrong key for each planet.</p>",NA,NA,NA,NA,NA,NA,NA,NA,NA,NA,6,"3,7,5,14,6,2,8,12,9,13,1,4,11,15,10"
14222,commdev-image-keyboard-response,27,160828,practice,1142.3999998569489,img/practice3_left.png,NA,Number not found in mappings,NA,TRUE,f,f,NA,NA,NA,NA,6,"3,7,5,14,6,2,8,12,9,13,1,4,11,15,10"
14222,commdev-image-keyboard-response,28,162088,practice,null,img/practice1_left.png,NA,Number not found in mappings,NA,FALSE,null,f,NA,NA,NA,NA,6,"3,7,5,14,6,2,8,12,9,13,1,4,11,15,10"
14222,commdev-image-keyboard-response,29,163343,practice,null,img/practice2_right.png,NA,Number not found in mappings,NA,FALSE,null,j,NA,NA,NA,NA,6,"3,7,5,14,6,2,8,12,9,13,1,4,11,15,10"
14222,commdev-image-keyboard-response,30,164608,practice,90.29999995231628,img/practice3_left.png,NA,Number not found in mappings,NA,FALSE,j,f,NA,NA,NA,NA,6,"3,7,5,14,6,2,8,12,9,13,1,4,11,15,10"
14222,commdev-image-keyboard-response,31,165868,practice,null,img/practice1_left.png,NA,Number not found in mappings,NA,FALSE,null,f,NA,NA,NA,NA,6,"3,7,5,14,6,2,8,12,9,13,1,4,11,15,10"
14222,commdev-image-keyboard-response,32,167133,practice,940.6999998092651,img/practice4_left.png,NA,Number not found in mappings,NA,TRUE,f,f,NA,NA,NA,NA,6,"3,7,5,14,6,2,8,12,9,13,1,4,11,15,10"
14222,commdev-image-keyboard-response,33,168388,practice,980.2999999523163,img/practice1_left.png,NA,Number not found in mappings,NA,TRUE,f,f,NA,NA,NA,NA,6,"3,7,5,14,6,2,8,12,9,13,1,4,11,15,10"
14222,commdev-image-keyboard-response,34,169652,practice,1109.5,img/practice4_right.png,NA,Number not found in mappings,NA,TRUE,j,j,NA,NA,NA,NA,6,"3,7,5,14,6,2,8,12,9,13,1,4,11,15,10"
14222,commdev-instructions,35,180395,NA,1196.2000000476837,"<p>Great job with the practice round.</p><p>During real missions, you won't know whether you pressed the right or wrong key for each planet.</p><p>But between missions, we will tell you how you did overall.</p>",NA,NA,NA,NA,NA,NA,NA,NA,NA,NA,6,"3,7,5,14,6,2,8,12,9,13,1,4,11,15,10"
14222,commdev-instructions,36,190291,NA,1652.5,<p>Try your best! You will be paid a bonus based on how many correct responses you make!</p><p>Responses that are too slow will not count toward your bonus.</p>,NA,NA,NA,NA,NA,NA,NA,NA,NA,NA,6,"3,7,5,14,6,2,8,12,9,13,1,4,11,15,10"
14222,commdev-instructions,37,197316,NA,806.2999999523163,"<p>You are almost ready to start the real game.</p><p> First, we are going to ask you some questions about how the game works.</p>",NA,NA,NA,NA,NA,NA,NA,NA,NA,NA,6,"3,7,5,14,6,2,8,12,9,13,1,4,11,15,10"
14222,commdev-instructions,46,281540,NA,840.4000000953674,"<p> Nice work! It is now time to start the real game.<p></p>You will go on two missions to record wind directions of different planets.<p></p>Each one will take about 5 minutes. You will get to take a break between missions.<p><p> Remember, press <strong>F</strong> or <strong>J</strong> depending on the wind direction. Good luck!<br><img src=""img/categorize_planet_example.png""",NA,NA,NA,NA,NA,NA,NA,NA,NA,NA,6,"3,7,5,14,6,2,8,12,9,13,1,4,11,15,10"
14222,commdev-image-keyboard-response,48,289888,learnblock1,null,img/planet13_left.png,13,Community 2,NA,FALSE,null,f,NA,NA,NA,NA,6,"3,7,5,14,6,2,8,12,9,13,1,4,11,15,10"
14222,commdev-image-keyboard-response,49,291142,learnblock1,48.39999985694885,img/planet2_right.png,2,Community 2,NA,FALSE,f,j,NA,NA,NA,NA,6,"3,7,5,14,6,2,8,12,9,13,1,4,11,15,10"
14222,commdev-image-keyboard-response,50,292396,learnblock1,994.9000000953674,img/planet9_left.png,9,Community 2,NA,TRUE,f,f,NA,NA,NA,NA,6,"3,7,5,14,6,2,8,12,9,13,1,4,11,15,10"
14222,commdev-image-keyboard-response,51,293659,learnblock1,null,img/planet8_right.png,8,Community 2,NA,FALSE,null,j,NA,NA,NA,NA,6,"3,7,5,14,6,2,8,12,9,13,1,4,11,15,10"
14222,commdev-image-keyboard-response,52,294918,learnblock1,13.400000095367432,img/planet13_left.png,13,Community 2,NA,FALSE,j,f,NA,NA,NA,NA,6,"3,7,5,14,6,2,8,12,9,13,1,4,11,15,10"
14222,commdev-image-keyboard-response,53,296187,learnblock1,139.5,img/planet12_right.png,12,Community 2,NA,FALSE,f,j,NA,NA,NA,NA,6,"3,7,5,14,6,2,8,12,9,13,1,4,11,15,10"
14222,commdev-image-keyboard-response,54,297447,learnblock1,517.3000001907349,img/planet13_left.png,13,Community 2,NA,TRUE,f,f,NA,NA,NA,NA,6,"3,7,5,14,6,2,8,12,9,13,1,4,11,15,10"
14222,commdev-image-keyboard-response,55,298712,learnblock1,null,img/planet12_right.png,12,Community 2,NA,FALSE,null,j,NA,NA,NA,NA,6,"3,7,5,14,6,2,8,12,9,13,1,4,11,15,10"
14222,commdev-image-keyboard-response,56,299966,learnblock1,1056.7999999523163,img/planet8_right.png,8,Community 2,NA,FALSE,f,j,NA,NA,NA,NA,6,"3,7,5,14,6,2,8,12,9,13,1,4,11,15,10"
14222,commdev-image-keyboard-response,57,301227,learnblock1,738.3000001907349,img/planet12_left.png,12,Community 2,NA,FALSE,j,f,NA,NA,NA,NA,6,"3,7,5,14,6,2,8,12,9,13,1,4,11,15,10"
14222,commdev-image-keyboard-response,58,302488,learnblock1,381.30000019073486,img/planet8_left.png,8,Community 2,NA,TRUE,f,f,NA,NA,NA,NA,6,"3,7,5,14,6,2,8,12,9,13,1,4,11,15,10"
14222,commdev-image-keyboard-response,59,303752,learnblock1,null,img/planet12_right.png,12,Community 2,NA,FALSE,null,j,NA,NA,NA,NA,6,"3,7,5,14,6,2,8,12,9,13,1,4,11,15,10"
14222,commdev-image-keyboard-response,60,305007,learnblock1,1048.5999999046326,img/planet8_right.png,8,Community 2,NA,TRUE,j,j,NA,NA,NA,NA,6,"3,7,5,14,6,2,8,12,9,13,1,4,11,15,10"
14222,commdev-image-keyboard-response,61,306277,learnblock1,null,img/planet2_right.png,2,Community 2,NA,FALSE,null,j,NA,NA,NA,NA,6,"3,7,5,14,6,2,8,12,9,13,1,4,11,15,10"
14222,commdev-image-keyboard-response,62,307547,learnblock1,12.299999952316284,img/planet9_right.png,9,Community 2,NA,FALSE,f,j,NA,NA,NA,NA,6,"3,7,5,14,6,2,8,12,9,13,1,4,11,15,10"
14222,commdev-image-keyboard-response,63,308802,learnblock1,null,img/planet2_right.png,2,Community 2,NA,FALSE,null,j,NA,NA,NA,NA,6,"3,7,5,14,6,2,8,12,9,13,1,4,11,15,10"
14222,commdev-image-keyboard-response,64,310068,learnblock1,null,img/planet9_left.png,9,Community 2,NA,FALSE,null,f,NA,NA,NA,NA,6,"3,7,5,14,6,2,8,12,9,13,1,4,11,15,10"
14222,commdev-image-keyboard-response,65,311321,learnblock1,1140.7000000476837,img/planet2_left.png,2,Community 2,NA,FALSE,j,f,NA,NA,NA,NA,6,"3,7,5,14,6,2,8,12,9,13,1,4,11,15,10"
14222,commdev-image-keyboard-response,66,312574,learnblock1,null,img/planet13_right.png,13,Community 2,NA,FALSE,null,j,NA,NA,NA,NA,6,"3,7,5,14,6,2,8,12,9,13,1,4,11,15,10"
14222,commdev-image-keyboard-response,67,313827,learnblock1,null,img/planet8_left.png,8,Community 2,NA,FALSE,null,f,NA,NA,NA,NA,6,"3,7,5,14,6,2,8,12,9,13,1,4,11,15,10"
14222,commdev-image-keyboard-response,68,315078,learnblock1,null,img/planet9_right.png,9,Community 2,NA,FALSE,null,j,NA,NA,NA,NA,6,"3,7,5,14,6,2,8,12,9,13,1,4,11,15,10"
14222,commdev-image-keyboard-response,69,316331,learnblock1,null,img/planet12_right.png,12,Community 2,NA,FALSE,null,j,NA,NA,NA,NA,6,"3,7,5,14,6,2,8,12,9,13,1,4,11,15,10"
14222,commdev-image-keyboard-response,70,317583,learnblock1,797.5999999046326,img/planet13_left.png,13,Community 2,NA,TRUE,f,f,NA,NA,NA,NA,6,"3,7,5,14,6,2,8,12,9,13,1,4,11,15,10"
14222,commdev-image-keyboard-response,71,318837,learnblock1,745.7999999523163,img/planet8_left.png,8,Community 2,NA,FALSE,j,f,NA,NA,NA,NA,6,"3,7,5,14,6,2,8,12,9,13,1,4,11,15,10"
14222,commdev-image-keyboard-response,72,320089,learnblock1,null,img/planet12_left.png,12,Community 2,NA,FALSE,null,f,NA,NA,NA,NA,6,"3,7,5,14,6,2,8,12,9,13,1,4,11,15,10"
14222,commdev-image-keyboard-response,73,321342,learnblock1,1048.2999999523163,img/planet8_right.png,8,Community 2,NA,FALSE,f,j,NA,NA,NA,NA,6,"3,7,5,14,6,2,8,12,9,13,1,4,11,15,10"
14222,commdev-image-keyboard-response,74,322596,learnblock1,null,img/planet12_left.png,12,Community 2,NA,FALSE,null,f,NA,NA,NA,NA,6,"3,7,5,14,6,2,8,12,9,13,1,4,11,15,10"
14222,commdev-image-keyboard-response,75,323849,learnblock1,null,img/planet8_left.png,8,Community 2,NA,FALSE,null,f,NA,NA,NA,NA,6,"3,7,5,14,6,2,8,12,9,13,1,4,11,15,10"
14222,commdev-image-keyboard-response,76,325101,learnblock1,null,img/planet2_right.png,2,Community 2,NA,FALSE,null,j,NA,NA,NA,NA,6,"3,7,5,14,6,2,8,12,9,13,1,4,11,15,10"
14222,commdev-image-keyboard-response,77,326354,learnblock1,91.90000009536743,img/planet9_right.png,9,Community 2,NA,FALSE,f,j,NA,NA,NA,NA,6,"3,7,5,14,6,2,8,12,9,13,1,4,11,15,10"
14222,commdev-image-keyboard-response,78,327607,learnblock1,646.2999999523163,img/planet12_right.png,12,Community 2,NA,TRUE,j,j,NA,NA,NA,NA,6,"3,7,5,14,6,2,8,12,9,13,1,4,11,15,10"
14222,commdev-image-keyboard-response,79,328859,learnblock1,1113.7999999523163,img/planet13_left.png,13,Community 2,NA,TRUE,f,f,NA,NA,NA,NA,6,"3,7,5,14,6,2,8,12,9,13,1,4,11,15,10"
14222,commdev-image-keyboard-response,80,330112,learnblock1,949.3999998569489,img/planet8_left.png,8,Community 2,NA,FALSE,j,f,NA,NA,NA,NA,6,"3,7,5,14,6,2,8,12,9,13,1,4,11,15,10"
14222,commdev-image-keyboard-response,81,331376,learnblock1,null,img/planet12_right.png,12,Community 2,NA,FALSE,null,j,NA,NA,NA,NA,6,"3,7,5,14,6,2,8,12,9,13,1,4,11,15,10"
14222,commdev-image-keyboard-response,82,332632,learnblock1,null,img/planet8_right.png,8,Community 2,NA,FALSE,null,j,NA,NA,NA,NA,6,"3,7,5,14,6,2,8,12,9,13,1,4,11,15,10"
14222,commdev-image-keyboard-response,83,333894,learnblock1,24.899999856948853,img/planet12_left.png,12,Community 2,NA,TRUE,f,f,NA,NA,NA,NA,6,"3,7,5,14,6,2,8,12,9,13,1,4,11,15,10"
14222,commdev-image-keyboard-response,84,335146,learnblock1,1074.2000000476837,img/planet13_right.png,13,Community 2,NA,TRUE,j,j,NA,NA,NA,NA,6,"3,7,5,14,6,2,8,12,9,13,1,4,11,15,10"
14222,commdev-image-keyboard-response,85,336400,learnblock1,1030.4000000953674,img/planet12_right.png,12,Community 2,NA,TRUE,j,j,NA,NA,NA,NA,6,"3,7,5,14,6,2,8,12,9,13,1,4,11,15,10"
14222,commdev-image-keyboard-response,86,337652,learnblock1,1249.0999999046326,img/planet4_right.png,4,Community 3,NA,TRUE,j,j,NA,NA,NA,NA,6,"3,7,5,14,6,2,8,12,9,13,1,4,11,15,10"
14222,commdev-image-keyboard-response,87,338904,learnblock1,1029,img/planet15_right.png,15,Community 3,NA,TRUE,j,j,NA,NA,NA,NA,6,"3,7,5,14,6,2,8,12,9,13,1,4,11,15,10"
14222,commdev-image-keyboard-response,88,340169,learnblock1,953.2999999523163,img/planet10_right.png,10,Community 3,NA,TRUE,j,j,NA,NA,NA,NA,6,"3,7,5,14,6,2,8,12,9,13,1,4,11,15,10"
14222,commdev-image-keyboard-response,89,341420,learnblock1,1200.0999999046326,img/planet15_right.png,15,Community 3,NA,TRUE,j,j,NA,NA,NA,NA,6,"3,7,5,14,6,2,8,12,9,13,1,4,11,15,10"
14222,commdev-image-keyboard-response,90,342673,learnblock1,null,img/planet10_right.png,10,Community 3,NA,FALSE,null,j,NA,NA,NA,NA,6,"3,7,5,14,6,2,8,12,9,13,1,4,11,15,10"
14222,commdev-image-keyboard-response,91,343925,learnblock1,1199,img/planet11_left.png,11,Community 3,NA,TRUE,f,f,NA,NA,NA,NA,6,"3,7,5,14,6,2,8,12,9,13,1,4,11,15,10"
14222,commdev-image-keyboard-response,92,345177,learnblock1,931.2000000476837,img/planet10_left.png,10,Community 3,NA,TRUE,f,f,NA,NA,NA,NA,6,"3,7,5,14,6,2,8,12,9,13,1,4,11,15,10"
14222,commdev-image-keyboard-response,93,346430,learnblock1,927.2999999523163,img/planet1_right.png,1,Community 3,NA,TRUE,j,j,NA,NA,NA,NA,6,"3,7,5,14,6,2,8,12,9,13,1,4,11,15,10"
14222,commdev-image-keyboard-response,94,347684,learnblock1,null,img/planet6_right.png,6,Community 1,NA,FALSE,null,j,NA,NA,NA,NA,6,"3,7,5,14,6,2,8,12,9,13,1,4,11,15,10"
14222,commdev-image-keyboard-response,95,348938,learnblock1,null,img/planet7_left.png,7,Community 1,NA,FALSE,null,f,NA,NA,NA,NA,6,"3,7,5,14,6,2,8,12,9,13,1,4,11,15,10"
14222,commdev-image-keyboard-response,96,350192,learnblock1,null,img/planet3_right.png,3,Community 1,NA,FALSE,null,j,NA,NA,NA,NA,6,"3,7,5,14,6,2,8,12,9,13,1,4,11,15,10"
14222,commdev-image-keyboard-response,97,351446,learnblock1,152.5,img/planet7_right.png,7,Community 1,NA,TRUE,j,j,NA,NA,NA,NA,6,"3,7,5,14,6,2,8,12,9,13,1,4,11,15,10"
14222,commdev-image-keyboard-response,98,352698,learnblock1,null,img/planet3_right.png,3,Community 1,NA,FALSE,null,j,NA,NA,NA,NA,6,"3,7,5,14,6,2,8,12,9,13,1,4,11,15,10"
14222,commdev-image-keyboard-response,99,353950,learnblock1,134,img/planet7_left.png,7,Community 1,NA,FALSE,j,f,NA,NA,NA,NA,6,"3,7,5,14,6,2,8,12,9,13,1,4,11,15,10"
14222,commdev-image-keyboard-response,100,355202,learnblock1,null,img/planet14_right.png,14,Community 1,NA,FALSE,null,j,NA,NA,NA,NA,6,"3,7,5,14,6,2,8,12,9,13,1,4,11,15,10"
14222,commdev-image-keyboard-response,101,356454,learnblock1,1046,img/planet2_left.png,2,Community 2,NA,TRUE,f,f,NA,NA,NA,NA,6,"3,7,5,14,6,2,8,12,9,13,1,4,11,15,10"
14222,commdev-image-keyboard-response,102,357707,learnblock1,null,img/planet14_right.png,14,Community 1,NA,FALSE,null,j,NA,NA,NA,NA,6,"3,7,5,14,6,2,8,12,9,13,1,4,11,15,10"
14222,commdev-image-keyboard-response,103,358960,learnblock1,null,img/planet5_left.png,5,Community 1,NA,FALSE,null,f,NA,NA,NA,NA,6,"3,7,5,14,6,2,8,12,9,13,1,4,11,15,10"
14222,commdev-image-keyboard-response,104,360213,learnblock1,null,img/planet6_left.png,6,Community 1,NA,FALSE,null,f,NA,NA,NA,NA,6,"3,7,5,14,6,2,8,12,9,13,1,4,11,15,10"
14222,commdev-image-keyboard-response,105,361465,learnblock1,null,img/planet5_right.png,5,Community 1,NA,FALSE,null,j,NA,NA,NA,NA,6,"3,7,5,14,6,2,8,12,9,13,1,4,11,15,10"
14222,commdev-image-keyboard-response,106,362718,learnblock1,null,img/planet14_left.png,14,Community 1,NA,FALSE,null,f,NA,NA,NA,NA,6,"3,7,5,14,6,2,8,12,9,13,1,4,11,15,10"
14222,commdev-image-keyboard-response,107,363970,learnblock1,885.5,img/planet7_left.png,7,Community 1,NA,TRUE,f,f,NA,NA,NA,NA,6,"3,7,5,14,6,2,8,12,9,13,1,4,11,15,10"
14222,commdev-image-keyboard-response,108,365231,learnblock1,669.7999999523163,img/planet3_left.png,3,Community 1,NA,FALSE,j,f,NA,NA,NA,NA,6,"3,7,5,14,6,2,8,12,9,13,1,4,11,15,10"
14222,commdev-image-keyboard-response,109,366496,learnblock1,null,img/planet14_right.png,14,Community 1,NA,FALSE,null,j,NA,NA,NA,NA,6,"3,7,5,14,6,2,8,12,9,13,1,4,11,15,10"
14222,commdev-image-keyboard-response,110,367750,learnblock1,1095.9000000953674,img/planet5_right.png,5,Community 1,NA,FALSE,f,j,NA,NA,NA,NA,6,"3,7,5,14,6,2,8,12,9,13,1,4,11,15,10"
14222,commdev-image-keyboard-response,111,369002,learnblock1,674.0999999046326,img/planet7_left.png,7,Community 1,NA,FALSE,j,f,NA,NA,NA,NA,6,"3,7,5,14,6,2,8,12,9,13,1,4,11,15,10"
14222,commdev-image-keyboard-response,112,370255,learnblock1,null,img/planet6_right.png,6,Community 1,NA,FALSE,null,j,NA,NA,NA,NA,6,"3,7,5,14,6,2,8,12,9,13,1,4,11,15,10"
14222,commdev-image-keyboard-response,113,371507,learnblock1,null,img/planet3_right.png,3,Community 1,NA,FALSE,null,j,NA,NA,NA,NA,6,"3,7,5,14,6,2,8,12,9,13,1,4,11,15,10"
14222,commdev-image-keyboard-response,114,372763,learnblock1,181.5,img/planet14_left.png,14,Community 1,NA,FALSE,j,f,NA,NA,NA,NA,6,"3,7,5,14,6,2,8,12,9,13,1,4,11,15,10"
14222,commdev-image-keyboard-response,115,374015,learnblock1,853.2999999523163,img/planet7_left.png,7,Community 1,NA,FALSE,j,f,NA,NA,NA,NA,6,"3,7,5,14,6,2,8,12,9,13,1,4,11,15,10"
14222,commdev-image-keyboard-response,116,375267,learnblock1,null,img/planet6_left.png,6,Community 1,NA,FALSE,null,f,NA,NA,NA,NA,6,"3,7,5,14,6,2,8,12,9,13,1,4,11,15,10"
14222,commdev-image-keyboard-response,117,376528,learnblock1,828.5999999046326,img/planet1_left.png,1,Community 3,NA,TRUE,f,f,NA,NA,NA,NA,6,"3,7,5,14,6,2,8,12,9,13,1,4,11,15,10"
14222,commdev-image-keyboard-response,118,377781,learnblock1,727.7000000476837,img/planet10_right.png,10,Community 3,NA,TRUE,j,j,NA,NA,NA,NA,6,"3,7,5,14,6,2,8,12,9,13,1,4,11,15,10"
14222,commdev-image-keyboard-response,119,379033,learnblock1,498.7999999523163,img/planet11_left.png,11,Community 3,NA,TRUE,f,f,NA,NA,NA,NA,6,"3,7,5,14,6,2,8,12,9,13,1,4,11,15,10"
14222,commdev-image-keyboard-response,120,380287,learnblock1,350.5,img/planet1_left.png,1,Community 3,NA,FALSE,j,f,NA,NA,NA,NA,6,"3,7,5,14,6,2,8,12,9,13,1,4,11,15,10"
14222,commdev-image-keyboard-response,121,381540,learnblock1,889.4000000953674,img/planet10_right.png,10,Community 3,NA,FALSE,f,j,NA,NA,NA,NA,6,"3,7,5,14,6,2,8,12,9,13,1,4,11,15,10"
14222,commdev-image-keyboard-response,122,382794,learnblock1,843.9000000953674,img/planet4_left.png,4,Community 3,NA,TRUE,f,f,NA,NA,NA,NA,6,"3,7,5,14,6,2,8,12,9,13,1,4,11,15,10"
14222,commdev-image-keyboard-response,123,384048,learnblock1,758.2999999523163,img/planet10_right.png,10,Community 3,NA,FALSE,f,j,NA,NA,NA,NA,6,"3,7,5,14,6,2,8,12,9,13,1,4,11,15,10"
14222,commdev-image-keyboard-response,124,385302,learnblock1,1095.6000001430511,img/planet1_right.png,1,Community 3,NA,TRUE,j,j,NA,NA,NA,NA,6,"3,7,5,14,6,2,8,12,9,13,1,4,11,15,10"
14222,commdev-image-keyboard-response,125,386554,learnblock1,906.1000001430511,img/planet15_right.png,15,Community 3,NA,TRUE,j,j,NA,NA,NA,NA,6,"3,7,5,14,6,2,8,12,9,13,1,4,11,15,10"
14222,commdev-image-keyboard-response,126,387808,learnblock1,749.1000001430511,img/planet4_right.png,4,Community 3,NA,TRUE,j,j,NA,NA,NA,NA,6,"3,7,5,14,6,2,8,12,9,13,1,4,11,15,10"
14222,commdev-image-keyboard-response,127,389069,learnblock1,719.7000000476837,img/planet15_right.png,15,Community 3,NA,TRUE,j,j,NA,NA,NA,NA,6,"3,7,5,14,6,2,8,12,9,13,1,4,11,15,10"
14222,commdev-image-keyboard-response,128,390322,learnblock1,794.7999999523163,img/planet11_right.png,11,Community 3,NA,TRUE,j,j,NA,NA,NA,NA,6,"3,7,5,14,6,2,8,12,9,13,1,4,11,15,10"
14222,commdev-image-keyboard-response,129,391575,learnblock1,1197.9000000953674,img/planet4_left.png,4,Community 3,NA,TRUE,f,f,NA,NA,NA,NA,6,"3,7,5,14,6,2,8,12,9,13,1,4,11,15,10"
14222,commdev-image-keyboard-response,130,392828,learnblock1,784.7000000476837,img/planet10_left.png,10,Community 3,NA,FALSE,j,f,NA,NA,NA,NA,6,"3,7,5,14,6,2,8,12,9,13,1,4,11,15,10"
14222,commdev-image-keyboard-response,131,394081,learnblock1,99,img/planet1_right.png,1,Community 3,NA,FALSE,f,j,NA,NA,NA,NA,6,"3,7,5,14,6,2,8,12,9,13,1,4,11,15,10"
14222,commdev-image-keyboard-response,132,395333,learnblock1,1127.2000000476837,img/planet11_right.png,11,Community 3,NA,FALSE,f,j,NA,NA,NA,NA,6,"3,7,5,14,6,2,8,12,9,13,1,4,11,15,10"
14222,commdev-image-keyboard-response,133,396586,learnblock1,1098.5999999046326,img/planet10_left.png,10,Community 3,NA,TRUE,f,f,NA,NA,NA,NA,6,"3,7,5,14,6,2,8,12,9,13,1,4,11,15,10"
14222,commdev-image-keyboard-response,134,397838,learnblock1,1214.2000000476837,img/planet15_left.png,15,Community 3,NA,FALSE,j,f,NA,NA,NA,NA,6,"3,7,5,14,6,2,8,12,9,13,1,4,11,15,10"
14222,commdev-image-keyboard-response,135,399091,learnblock1,null,img/planet4_right.png,4,Community 3,NA,FALSE,null,j,NA,NA,NA,NA,6,"3,7,5,14,6,2,8,12,9,13,1,4,11,15,10"
14222,commdev-image-keyboard-response,136,400343,learnblock1,213.09999990463257,img/planet15_right.png,15,Community 3,NA,FALSE,f,j,NA,NA,NA,NA,6,"3,7,5,14,6,2,8,12,9,13,1,4,11,15,10"
14222,commdev-image-keyboard-response,137,401597,learnblock1,423.7000000476837,img/planet1_left.png,1,Community 3,NA,FALSE,j,f,NA,NA,NA,NA,6,"3,7,5,14,6,2,8,12,9,13,1,4,11,15,10"
14222,commdev-image-keyboard-response,138,402848,learnblock1,1043.9000000953674,img/planet11_right.png,11,Community 3,NA,FALSE,f,j,NA,NA,NA,NA,6,"3,7,5,14,6,2,8,12,9,13,1,4,11,15,10"
14222,commdev-image-keyboard-response,139,404105,learnblock1,null,img/planet1_left.png,1,Community 3,NA,FALSE,null,f,NA,NA,NA,NA,6,"3,7,5,14,6,2,8,12,9,13,1,4,11,15,10"
14222,commdev-image-keyboard-response,140,405362,learnblock1,334.59999990463257,img/planet11_left.png,11,Community 3,NA,TRUE,f,f,NA,NA,NA,NA,6,"3,7,5,14,6,2,8,12,9,13,1,4,11,15,10"
14222,commdev-image-keyboard-response,141,406615,learnblock1,null,img/planet15_right.png,15,Community 3,NA,FALSE,null,j,NA,NA,NA,NA,6,"3,7,5,14,6,2,8,12,9,13,1,4,11,15,10"
14222,commdev-image-keyboard-response,142,407868,learnblock1,260.5,img/planet11_left.png,11,Community 3,NA,FALSE,j,f,NA,NA,NA,NA,6,"3,7,5,14,6,2,8,12,9,13,1,4,11,15,10"
14222,commdev-image-keyboard-response,143,409120,learnblock1,948.0999999046326,img/planet1_right.png,1,Community 3,NA,FALSE,f,j,NA,NA,NA,NA,6,"3,7,5,14,6,2,8,12,9,13,1,4,11,15,10"
14222,commdev-image-keyboard-response,144,410379,learnblock1,null,img/planet6_left.png,6,Community 1,NA,FALSE,null,f,NA,NA,NA,NA,6,"3,7,5,14,6,2,8,12,9,13,1,4,11,15,10"
14222,commdev-image-keyboard-response,145,411631,learnblock1,61.30000019073486,img/planet5_left.png,5,Community 1,NA,FALSE,j,f,NA,NA,NA,NA,6,"3,7,5,14,6,2,8,12,9,13,1,4,11,15,10"
14222,commdev-image-keyboard-response,146,412885,learnblock1,null,img/planet3_right.png,3,Community 1,NA,FALSE,null,j,NA,NA,NA,NA,6,"3,7,5,14,6,2,8,12,9,13,1,4,11,15,10"
14222,commdev-image-keyboard-response,147,414137,learnblock1,147.10000014305115,img/planet7_right.png,7,Community 1,NA,TRUE,j,j,NA,NA,NA,NA,6,"3,7,5,14,6,2,8,12,9,13,1,4,11,15,10"
14222,commdev-image-keyboard-response,148,415388,learnblock1,1111.5,img/planet3_right.png,3,Community 1,NA,TRUE,j,j,NA,NA,NA,NA,6,"3,7,5,14,6,2,8,12,9,13,1,4,11,15,10"
14222,commdev-image-keyboard-response,149,416641,learnblock1,1051.6000001430511,img/planet7_left.png,7,Community 1,NA,FALSE,j,f,NA,NA,NA,NA,6,"3,7,5,14,6,2,8,12,9,13,1,4,11,15,10"
14222,commdev-image-keyboard-response,150,417894,learnblock1,null,img/planet14_left.png,14,Community 1,NA,FALSE,null,f,NA,NA,NA,NA,6,"3,7,5,14,6,2,8,12,9,13,1,4,11,15,10"
14222,commdev-image-keyboard-response,151,419147,learnblock1,null,img/planet3_left.png,3,Community 1,NA,FALSE,null,f,NA,NA,NA,NA,6,"3,7,5,14,6,2,8,12,9,13,1,4,11,15,10"
14222,commdev-image-keyboard-response,152,420399,learnblock1,null,img/planet14_right.png,14,Community 1,NA,FALSE,null,j,NA,NA,NA,NA,6,"3,7,5,14,6,2,8,12,9,13,1,4,11,15,10"
14222,commdev-image-keyboard-response,153,421651,learnblock1,null,img/planet5_left.png,5,Community 1,NA,FALSE,null,f,NA,NA,NA,NA,6,"3,7,5,14,6,2,8,12,9,13,1,4,11,15,10"
14222,commdev-image-keyboard-response,154,422904,learnblock1,null,img/planet7_right.png,7,Community 1,NA,FALSE,null,j,NA,NA,NA,NA,6,"3,7,5,14,6,2,8,12,9,13,1,4,11,15,10"
14222,commdev-image-keyboard-response,155,424156,learnblock1,null,img/planet5_left.png,5,Community 1,NA,FALSE,null,f,NA,NA,NA,NA,6,"3,7,5,14,6,2,8,12,9,13,1,4,11,15,10"
14222,commdev-image-keyboard-response,156,425409,learnblock1,260.2000000476837,img/planet14_left.png,14,Community 1,NA,TRUE,f,f,NA,NA,NA,NA,6,"3,7,5,14,6,2,8,12,9,13,1,4,11,15,10"
14222,commdev-image-keyboard-response,157,426662,learnblock1,null,img/planet3_right.png,3,Community 1,NA,FALSE,null,j,NA,NA,NA,NA,6,"3,7,5,14,6,2,8,12,9,13,1,4,11,15,10"
14222,commdev-image-keyboard-response,158,427916,learnblock1,249.60000014305115,img/planet14_left.png,14,Community 1,NA,FALSE,j,f,NA,NA,NA,NA,6,"3,7,5,14,6,2,8,12,9,13,1,4,11,15,10"
14222,commdev-image-keyboard-response,159,429170,learnblock1,null,img/planet3_right.png,3,Community 1,NA,FALSE,null,j,NA,NA,NA,NA,6,"3,7,5,14,6,2,8,12,9,13,1,4,11,15,10"
14222,commdev-image-keyboard-response,160,430423,learnblock1,422,img/planet14_right.png,14,Community 1,NA,FALSE,f,j,NA,NA,NA,NA,6,"3,7,5,14,6,2,8,12,9,13,1,4,11,15,10"
14222,commdev-image-keyboard-response,161,431676,learnblock1,369.2000000476837,img/planet5_right.png,5,Community 1,NA,TRUE,j,j,NA,NA,NA,NA,6,"3,7,5,14,6,2,8,12,9,13,1,4,11,15,10"
14222,commdev-image-keyboard-response,162,432929,learnblock1,null,img/planet7_right.png,7,Community 1,NA,FALSE,null,j,NA,NA,NA,NA,6,"3,7,5,14,6,2,8,12,9,13,1,4,11,15,10"
14222,commdev-image-keyboard-response,163,434181,learnblock1,null,img/planet3_left.png,3,Community 1,NA,FALSE,null,f,NA,NA,NA,NA,6,"3,7,5,14,6,2,8,12,9,13,1,4,11,15,10"
14222,commdev-image-keyboard-response,164,435433,learnblock1,null,img/planet14_right.png,14,Community 1,NA,FALSE,null,j,NA,NA,NA,NA,6,"3,7,5,14,6,2,8,12,9,13,1,4,11,15,10"
14222,commdev-image-keyboard-response,165,436687,learnblock1,null,img/planet3_right.png,3,Community 1,NA,FALSE,null,j,NA,NA,NA,NA,6,"3,7,5,14,6,2,8,12,9,13,1,4,11,15,10"
14222,commdev-image-keyboard-response,166,437939,learnblock1,null,img/planet14_left.png,14,Community 1,NA,FALSE,null,f,NA,NA,NA,NA,6,"3,7,5,14,6,2,8,12,9,13,1,4,11,15,10"
14222,commdev-image-keyboard-response,167,439193,learnblock1,null,img/planet2_right.png,2,Community 2,NA,FALSE,null,j,NA,NA,NA,NA,6,"3,7,5,14,6,2,8,12,9,13,1,4,11,15,10"
14222,commdev-image-keyboard-response,168,440446,learnblock1,1071,img/planet9_right.png,9,Community 2,NA,TRUE,j,j,NA,NA,NA,NA,6,"3,7,5,14,6,2,8,12,9,13,1,4,11,15,10"
14222,commdev-image-keyboard-response,169,441700,learnblock1,null,img/planet12_right.png,12,Community 2,NA,FALSE,null,j,NA,NA,NA,NA,6,"3,7,5,14,6,2,8,12,9,13,1,4,11,15,10"
14222,commdev-image-keyboard-response,170,442952,learnblock1,253.09999990463257,img/planet4_right.png,4,Community 3,NA,TRUE,j,j,NA,NA,NA,NA,6,"3,7,5,14,6,2,8,12,9,13,1,4,11,15,10"
14222,commdev-image-keyboard-response,171,444205,learnblock1,1104,img/planet15_left.png,15,Community 3,NA,TRUE,f,f,NA,NA,NA,NA,6,"3,7,5,14,6,2,8,12,9,13,1,4,11,15,10"
14222,commdev-image-keyboard-response,172,445457,learnblock1,963.4000000953674,img/planet1_right.png,1,Community 3,NA,FALSE,f,j,NA,NA,NA,NA,6,"3,7,5,14,6,2,8,12,9,13,1,4,11,15,10"
14222,commdev-image-keyboard-response,173,446709,learnblock1,null,img/planet10_right.png,10,Community 3,NA,FALSE,null,j,NA,NA,NA,NA,6,"3,7,5,14,6,2,8,12,9,13,1,4,11,15,10"
14222,commdev-image-keyboard-response,174,447962,learnblock1,578.7000000476837,img/planet11_left.png,11,Community 3,NA,FALSE,j,f,NA,NA,NA,NA,6,"3,7,5,14,6,2,8,12,9,13,1,4,11,15,10"
14222,commdev-image-keyboard-response,175,449214,learnblock1,854.0999999046326,img/planet10_left.png,10,Community 3,NA,TRUE,f,f,NA,NA,NA,NA,6,"3,7,5,14,6,2,8,12,9,13,1,4,11,15,10"
14222,commdev-image-keyboard-response,176,450467,learnblock1,690.4000000953674,img/planet11_right.png,11,Community 3,NA,TRUE,j,j,NA,NA,NA,NA,6,"3,7,5,14,6,2,8,12,9,13,1,4,11,15,10"
14222,commdev-image-keyboard-response,177,451720,learnblock1,461.7999999523163,img/planet4_right.png,4,Community 3,NA,FALSE,f,j,NA,NA,NA,NA,6,"3,7,5,14,6,2,8,12,9,13,1,4,11,15,10"
14222,commdev-image-keyboard-response,178,452972,learnblock1,899.2000000476837,img/planet11_left.png,11,Community 3,NA,TRUE,f,f,NA,NA,NA,NA,6,"3,7,5,14,6,2,8,12,9,13,1,4,11,15,10"
14222,commdev-image-keyboard-response,179,454225,learnblock1,1012.2999999523163,img/planet15_right.png,15,Community 3,NA,TRUE,j,j,NA,NA,NA,NA,6,"3,7,5,14,6,2,8,12,9,13,1,4,11,15,10"
14222,commdev-image-keyboard-response,180,455479,learnblock1,1000.0999999046326,img/planet10_left.png,10,Community 3,NA,FALSE,j,f,NA,NA,NA,NA,6,"3,7,5,14,6,2,8,12,9,13,1,4,11,15,10"
14222,commdev-image-keyboard-response,181,456732,learnblock1,null,img/planet15_left.png,15,Community 3,NA,FALSE,null,f,NA,NA,NA,NA,6,"3,7,5,14,6,2,8,12,9,13,1,4,11,15,10"
14222,commdev-image-keyboard-response,182,457984,learnblock1,1028.1999998092651,img/planet4_right.png,4,Community 3,NA,TRUE,j,j,NA,NA,NA,NA,6,"3,7,5,14,6,2,8,12,9,13,1,4,11,15,10"
14222,commdev-image-keyboard-response,183,459238,learnblock1,null,img/planet12_right.png,12,Community 2,NA,FALSE,null,j,NA,NA,NA,NA,6,"3,7,5,14,6,2,8,12,9,13,1,4,11,15,10"
14222,commdev-image-keyboard-response,184,460491,learnblock1,338.30000019073486,img/planet8_right.png,8,Community 2,NA,TRUE,j,j,NA,NA,NA,NA,6,"3,7,5,14,6,2,8,12,9,13,1,4,11,15,10"
14222,commdev-image-keyboard-response,185,461744,learnblock1,84.89999985694885,img/planet13_left.png,13,Community 2,NA,FALSE,j,f,NA,NA,NA,NA,6,"3,7,5,14,6,2,8,12,9,13,1,4,11,15,10"
14222,commdev-image-keyboard-response,186,462997,learnblock1,1208,img/planet2_left.png,2,Community 2,NA,TRUE,f,f,NA,NA,NA,NA,6,"3,7,5,14,6,2,8,12,9,13,1,4,11,15,10"
14222,commdev-image-keyboard-response,187,464250,learnblock1,null,img/planet8_right.png,8,Community 2,NA,FALSE,null,j,NA,NA,NA,NA,6,"3,7,5,14,6,2,8,12,9,13,1,4,11,15,10"
14222,commdev-image-keyboard-response,188,465502,learnblock1,16,img/planet12_left.png,12,Community 2,NA,FALSE,j,f,NA,NA,NA,NA,6,"3,7,5,14,6,2,8,12,9,13,1,4,11,15,10"
14222,commdev-image-keyboard-response,189,466756,learnblock1,null,img/planet13_left.png,13,Community 2,NA,FALSE,null,f,NA,NA,NA,NA,6,"3,7,5,14,6,2,8,12,9,13,1,4,11,15,10"
14222,commdev-image-keyboard-response,190,468019,learnblock1,null,img/planet2_left.png,2,Community 2,NA,FALSE,null,f,NA,NA,NA,NA,6,"3,7,5,14,6,2,8,12,9,13,1,4,11,15,10"
14222,commdev-image-keyboard-response,191,469283,learnblock1,734.0999999046326,img/planet8_left.png,8,Community 2,NA,TRUE,f,f,NA,NA,NA,NA,6,"3,7,5,14,6,2,8,12,9,13,1,4,11,15,10"
14222,commdev-image-keyboard-response,192,470536,learnblock1,1053.2000000476837,img/planet13_left.png,13,Community 2,NA,TRUE,f,f,NA,NA,NA,NA,6,"3,7,5,14,6,2,8,12,9,13,1,4,11,15,10"
14222,commdev-image-keyboard-response,193,471787,learnblock1,null,img/planet9_left.png,9,Community 2,NA,FALSE,null,f,NA,NA,NA,NA,6,"3,7,5,14,6,2,8,12,9,13,1,4,11,15,10"
14222,commdev-image-keyboard-response,194,473040,learnblock1,125.09999990463257,img/planet8_right.png,8,Community 2,NA,FALSE,f,j,NA,NA,NA,NA,6,"3,7,5,14,6,2,8,12,9,13,1,4,11,15,10"
14222,commdev-image-keyboard-response,195,474293,learnblock1,null,img/planet13_right.png,13,Community 2,NA,FALSE,null,j,NA,NA,NA,NA,6,"3,7,5,14,6,2,8,12,9,13,1,4,11,15,10"
14222,commdev-image-keyboard-response,196,475558,learnblock1,122.79999995231628,img/planet9_right.png,9,Community 2,NA,TRUE,j,j,NA,NA,NA,NA,6,"3,7,5,14,6,2,8,12,9,13,1,4,11,15,10"
14222,commdev-image-keyboard-response,197,476811,learnblock1,130.30000019073486,img/planet8_right.png,8,Community 2,NA,TRUE,j,j,NA,NA,NA,NA,6,"3,7,5,14,6,2,8,12,9,13,1,4,11,15,10"
14222,commdev-image-keyboard-response,198,478064,learnblock1,773.1000001430511,img/planet9_left.png,9,Community 2,NA,TRUE,f,f,NA,NA,NA,NA,6,"3,7,5,14,6,2,8,12,9,13,1,4,11,15,10"
14222,commdev-image-keyboard-response,199,479317,learnblock1,1152.5,img/planet12_right.png,12,Community 2,NA,TRUE,j,j,NA,NA,NA,NA,6,"3,7,5,14,6,2,8,12,9,13,1,4,11,15,10"
14222,commdev-image-keyboard-response,200,480569,learnblock1,null,img/planet4_left.png,4,Community 3,NA,FALSE,null,f,NA,NA,NA,NA,6,"3,7,5,14,6,2,8,12,9,13,1,4,11,15,10"
14222,commdev-image-keyboard-response,201,481821,learnblock1,215.10000014305115,img/planet11_left.png,11,Community 3,NA,TRUE,f,f,NA,NA,NA,NA,6,"3,7,5,14,6,2,8,12,9,13,1,4,11,15,10"
14222,commdev-image-keyboard-response,202,483073,learnblock1,299.10000014305115,img/planet10_right.png,10,Community 3,NA,FALSE,f,j,NA,NA,NA,NA,6,"3,7,5,14,6,2,8,12,9,13,1,4,11,15,10"
14222,commdev-image-keyboard-response,203,484331,learnblock1,86.40000009536743,img/planet1_left.png,1,Community 3,NA,FALSE,j,f,NA,NA,NA,NA,6,"3,7,5,14,6,2,8,12,9,13,1,4,11,15,10"
14222,commdev-image-keyboard-response,204,485584,learnblock1,996.6000001430511,img/planet10_right.png,10,Community 3,NA,TRUE,j,j,NA,NA,NA,NA,6,"3,7,5,14,6,2,8,12,9,13,1,4,11,15,10"
14222,commdev-image-keyboard-response,205,486836,learnblock1,968.2999999523163,img/planet15_right.png,15,Community 3,NA,FALSE,f,j,NA,NA,NA,NA,6,"3,7,5,14,6,2,8,12,9,13,1,4,11,15,10"
14222,commdev-image-keyboard-response,206,488089,learnblock1,964,img/planet10_left.png,10,Community 3,NA,TRUE,f,f,NA,NA,NA,NA,6,"3,7,5,14,6,2,8,12,9,13,1,4,11,15,10"
14222,commdev-image-keyboard-response,207,489341,learnblock1,432.89999985694885,img/planet11_right.png,11,Community 3,NA,TRUE,j,j,NA,NA,NA,NA,6,"3,7,5,14,6,2,8,12,9,13,1,4,11,15,10"
14222,commdev-image-keyboard-response,208,490593,learnblock1,355.2000000476837,img/planet4_right.png,4,Community 3,NA,FALSE,f,j,NA,NA,NA,NA,6,"3,7,5,14,6,2,8,12,9,13,1,4,11,15,10"
14222,commdev-image-keyboard-response,209,491846,learnblock1,null,img/planet15_right.png,15,Community 3,NA,FALSE,null,j,NA,NA,NA,NA,6,"3,7,5,14,6,2,8,12,9,13,1,4,11,15,10"
14222,commdev-image-keyboard-response,210,493098,learnblock1,249.70000004768372,img/planet4_right.png,4,Community 3,NA,TRUE,j,j,NA,NA,NA,NA,6,"3,7,5,14,6,2,8,12,9,13,1,4,11,15,10"
14222,commdev-image-keyboard-response,211,494351,learnblock1,1197.8999998569489,img/planet12_right.png,12,Community 2,NA,TRUE,j,j,NA,NA,NA,NA,6,"3,7,5,14,6,2,8,12,9,13,1,4,11,15,10"
14222,commdev-image-keyboard-response,212,495603,learnblock1,1024.8999998569489,img/planet13_right.png,13,Community 2,NA,TRUE,j,j,NA,NA,NA,NA,6,"3,7,5,14,6,2,8,12,9,13,1,4,11,15,10"
14222,commdev-image-keyboard-response,213,496857,learnblock1,1059,img/planet12_right.png,12,Community 2,NA,TRUE,j,j,NA,NA,NA,NA,6,"3,7,5,14,6,2,8,12,9,13,1,4,11,15,10"
14222,commdev-image-keyboard-response,214,498120,learnblock1,990.7000000476837,img/planet9_right.png,9,Community 2,NA,TRUE,j,j,NA,NA,NA,NA,6,"3,7,5,14,6,2,8,12,9,13,1,4,11,15,10"
14222,commdev-image-keyboard-response,215,499373,learnblock1,896.5,img/planet8_right.png,8,Community 2,NA,TRUE,j,j,NA,NA,NA,NA,6,"3,7,5,14,6,2,8,12,9,13,1,4,11,15,10"
14222,commdev-image-keyboard-response,216,500626,learnblock1,1227.5,img/planet13_right.png,13,Community 2,NA,TRUE,j,j,NA,NA,NA,NA,6,"3,7,5,14,6,2,8,12,9,13,1,4,11,15,10"
14222,commdev-image-keyboard-response,217,501878,learnblock1,990,img/planet2_right.png,2,Community 2,NA,TRUE,j,j,NA,NA,NA,NA,6,"3,7,5,14,6,2,8,12,9,13,1,4,11,15,10"
14222,commdev-image-keyboard-response,218,503131,learnblock1,1089.4000000953674,img/planet9_right.png,9,Community 2,NA,TRUE,j,j,NA,NA,NA,NA,6,"3,7,5,14,6,2,8,12,9,13,1,4,11,15,10"
14222,commdev-image-keyboard-response,219,504383,learnblock1,null,img/planet8_right.png,8,Community 2,NA,FALSE,null,j,NA,NA,NA,NA,6,"3,7,5,14,6,2,8,12,9,13,1,4,11,15,10"
14222,commdev-image-keyboard-response,220,505637,learnblock1,208.60000014305115,img/planet2_right.png,2,Community 2,NA,TRUE,j,j,NA,NA,NA,NA,6,"3,7,5,14,6,2,8,12,9,13,1,4,11,15,10"
14222,commdev-image-keyboard-response,221,506889,learnblock1,403.40000009536743,img/planet13_left.png,13,Community 2,NA,FALSE,j,f,NA,NA,NA,NA,6,"3,7,5,14,6,2,8,12,9,13,1,4,11,15,10"
14222,commdev-image-keyboard-response,222,508142,learnblock1,null,img/planet9_right.png,9,Community 2,NA,FALSE,null,j,NA,NA,NA,NA,6,"3,7,5,14,6,2,8,12,9,13,1,4,11,15,10"
14222,commdev-image-keyboard-response,223,509394,learnblock1,null,img/planet2_right.png,2,Community 2,NA,FALSE,null,j,NA,NA,NA,NA,6,"3,7,5,14,6,2,8,12,9,13,1,4,11,15,10"
14222,commdev-image-keyboard-response,224,510647,learnblock1,957.5,img/planet9_left.png,9,Community 2,NA,TRUE,f,f,NA,NA,NA,NA,6,"3,7,5,14,6,2,8,12,9,13,1,4,11,15,10"
14222,commdev-image-keyboard-response,225,511900,learnblock1,512.7999999523163,img/planet8_left.png,8,Community 2,NA,FALSE,j,f,NA,NA,NA,NA,6,"3,7,5,14,6,2,8,12,9,13,1,4,11,15,10"
14222,commdev-image-keyboard-response,226,513152,learnblock1,979.9000000953674,img/planet12_left.png,12,Community 2,NA,TRUE,f,f,NA,NA,NA,NA,6,"3,7,5,14,6,2,8,12,9,13,1,4,11,15,10"
14222,commdev-image-keyboard-response,227,514405,learnblock1,927.2000000476837,img/planet4_left.png,4,Community 3,NA,FALSE,j,f,NA,NA,NA,NA,6,"3,7,5,14,6,2,8,12,9,13,1,4,11,15,10"
14222,commdev-image-keyboard-response,228,515658,learnblock1,67.29999995231628,img/planet15_right.png,15,Community 3,NA,FALSE,f,j,NA,NA,NA,NA,6,"3,7,5,14,6,2,8,12,9,13,1,4,11,15,10"
14222,commdev-image-keyboard-response,229,516911,learnblock1,486,img/planet10_right.png,10,Community 3,NA,FALSE,f,j,NA,NA,NA,NA,6,"3,7,5,14,6,2,8,12,9,13,1,4,11,15,10"
14222,commdev-image-keyboard-response,230,518164,learnblock1,56.700000047683716,img/planet11_left.png,11,Community 3,NA,FALSE,j,f,NA,NA,NA,NA,6,"3,7,5,14,6,2,8,12,9,13,1,4,11,15,10"
14222,commdev-image-keyboard-response,231,519417,learnblock1,null,img/planet15_left.png,15,Community 3,NA,FALSE,null,f,NA,NA,NA,NA,6,"3,7,5,14,6,2,8,12,9,13,1,4,11,15,10"
14222,commdev-image-keyboard-response,232,520669,learnblock1,95.10000014305115,img/planet4_left.png,4,Community 3,NA,TRUE,f,f,NA,NA,NA,NA,6,"3,7,5,14,6,2,8,12,9,13,1,4,11,15,10"
14222,commdev-image-keyboard-response,233,521921,learnblock1,1243.0999999046326,img/planet12_right.png,12,Community 2,NA,TRUE,j,j,NA,NA,NA,NA,6,"3,7,5,14,6,2,8,12,9,13,1,4,11,15,10"
14222,commdev-image-keyboard-response,234,523175,learnblock1,null,img/planet8_left.png,8,Community 2,NA,FALSE,null,f,NA,NA,NA,NA,6,"3,7,5,14,6,2,8,12,9,13,1,4,11,15,10"
14222,commdev-image-keyboard-response,235,524429,learnblock1,17.299999952316284,img/planet9_right.png,9,Community 2,NA,FALSE,f,j,NA,NA,NA,NA,6,"3,7,5,14,6,2,8,12,9,13,1,4,11,15,10"
14222,commdev-image-keyboard-response,236,525681,learnblock1,171.40000009536743,img/planet8_right.png,8,Community 2,NA,TRUE,j,j,NA,NA,NA,NA,6,"3,7,5,14,6,2,8,12,9,13,1,4,11,15,10"
14222,commdev-image-keyboard-response,237,526933,learnblock1,1007.2000000476837,img/planet13_right.png,13,Community 2,NA,TRUE,j,j,NA,NA,NA,NA,6,"3,7,5,14,6,2,8,12,9,13,1,4,11,15,10"
14222,commdev-image-keyboard-response,238,528185,learnblock1,null,img/planet9_right.png,9,Community 2,NA,FALSE,null,j,NA,NA,NA,NA,6,"3,7,5,14,6,2,8,12,9,13,1,4,11,15,10"
14222,commdev-image-keyboard-response,239,529439,learnblock1,86.29999995231628,img/planet2_left.png,2,Community 2,NA,FALSE,j,f,NA,NA,NA,NA,6,"3,7,5,14,6,2,8,12,9,13,1,4,11,15,10"
14222,commdev-image-keyboard-response,240,530692,learnblock1,null,img/planet13_right.png,13,Community 2,NA,FALSE,null,j,NA,NA,NA,NA,6,"3,7,5,14,6,2,8,12,9,13,1,4,11,15,10"
14222,commdev-image-keyboard-response,241,531946,learnblock1,299.7000000476837,img/planet9_right.png,9,Community 2,NA,FALSE,f,j,NA,NA,NA,NA,6,"3,7,5,14,6,2,8,12,9,13,1,4,11,15,10"
14222,commdev-image-keyboard-response,242,533204,learnblock1,1158.7999999523163,img/planet13_left.png,13,Community 2,NA,TRUE,f,f,NA,NA,NA,NA,6,"3,7,5,14,6,2,8,12,9,13,1,4,11,15,10"
14222,commdev-image-keyboard-response,243,534456,learnblock1,1142.3999998569489,img/planet2_left.png,2,Community 2,NA,TRUE,f,f,NA,NA,NA,NA,6,"3,7,5,14,6,2,8,12,9,13,1,4,11,15,10"
14222,commdev-image-keyboard-response,244,535709,learnblock1,1016.1000001430511,img/planet9_right.png,9,Community 2,NA,FALSE,f,j,NA,NA,NA,NA,6,"3,7,5,14,6,2,8,12,9,13,1,4,11,15,10"
14222,commdev-image-keyboard-response,245,536962,learnblock1,null,img/planet13_right.png,13,Community 2,NA,FALSE,null,j,NA,NA,NA,NA,6,"3,7,5,14,6,2,8,12,9,13,1,4,11,15,10"
14222,commdev-image-keyboard-response,246,538214,learnblock1,550,img/planet2_right.png,2,Community 2,NA,FALSE,f,j,NA,NA,NA,NA,6,"3,7,5,14,6,2,8,12,9,13,1,4,11,15,10"
14222,commdev-image-keyboard-response,247,539468,learnblock1,97.5,img/planet13_right.png,13,Community 2,NA,FALSE,f,j,NA,NA,NA,NA,6,"3,7,5,14,6,2,8,12,9,13,1,4,11,15,10"
14222,commdev-image-keyboard-response,248,540721,learnblock1,null,img/planet12_left.png,12,Community 2,NA,FALSE,null,f,NA,NA,NA,NA,6,"3,7,5,14,6,2,8,12,9,13,1,4,11,15,10"
14222,commdev-image-keyboard-response,249,541974,learnblock1,78.79999995231628,img/planet13_left.png,13,Community 2,NA,TRUE,f,f,NA,NA,NA,NA,6,"3,7,5,14,6,2,8,12,9,13,1,4,11,15,10"
14222,commdev-image-keyboard-response,250,543226,learnblock1,753.4000000953674,img/planet9_right.png,9,Community 2,NA,FALSE,f,j,NA,NA,NA,NA,6,"3,7,5,14,6,2,8,12,9,13,1,4,11,15,10"
14222,commdev-image-keyboard-response,251,544479,learnblock1,null,img/planet2_left.png,2,Community 2,NA,FALSE,null,f,NA,NA,NA,NA,6,"3,7,5,14,6,2,8,12,9,13,1,4,11,15,10"
14222,commdev-image-keyboard-response,252,545731,learnblock1,105.20000004768372,img/planet13_left.png,13,Community 2,NA,TRUE,f,f,NA,NA,NA,NA,6,"3,7,5,14,6,2,8,12,9,13,1,4,11,15,10"
14222,commdev-image-keyboard-response,253,546984,learnblock1,1020.6000001430511,img/planet9_left.png,9,Community 2,NA,TRUE,f,f,NA,NA,NA,NA,6,"3,7,5,14,6,2,8,12,9,13,1,4,11,15,10"
14222,commdev-image-keyboard-response,254,548237,learnblock1,1104,img/planet8_right.png,8,Community 2,NA,FALSE,f,j,NA,NA,NA,NA,6,"3,7,5,14,6,2,8,12,9,13,1,4,11,15,10"
14222,commdev-image-keyboard-response,255,549490,learnblock1,379.2000000476837,img/planet9_right.png,9,Community 2,NA,TRUE,j,j,NA,NA,NA,NA,6,"3,7,5,14,6,2,8,12,9,13,1,4,11,15,10"
14222,commdev-image-keyboard-response,256,550742,learnblock1,190.5,img/planet2_right.png,2,Community 2,NA,TRUE,j,j,NA,NA,NA,NA,6,"3,7,5,14,6,2,8,12,9,13,1,4,11,15,10"
14222,commdev-image-keyboard-response,257,551995,learnblock1,90,img/planet13_right.png,13,Community 2,NA,TRUE,j,j,NA,NA,NA,NA,6,"3,7,5,14,6,2,8,12,9,13,1,4,11,15,10"
14222,commdev-image-keyboard-response,258,553248,learnblock1,45.59999990463257,img/planet8_right.png,8,Community 2,NA,TRUE,j,j,NA,NA,NA,NA,6,"3,7,5,14,6,2,8,12,9,13,1,4,11,15,10"
14222,commdev-image-keyboard-response,259,554502,learnblock1,767.7000000476837,img/planet13_left.png,13,Community 2,NA,TRUE,f,f,NA,NA,NA,NA,6,"3,7,5,14,6,2,8,12,9,13,1,4,11,15,10"
14222,commdev-image-keyboard-response,260,555755,learnblock1,457.90000009536743,img/planet8_right.png,8,Community 2,NA,TRUE,j,j,NA,NA,NA,NA,6,"3,7,5,14,6,2,8,12,9,13,1,4,11,15,10"
14222,commdev-image-keyboard-response,261,557008,learnblock1,484.5,img/planet13_right.png,13,Community 2,NA,TRUE,j,j,NA,NA,NA,NA,6,"3,7,5,14,6,2,8,12,9,13,1,4,11,15,10"
14222,commdev-image-keyboard-response,262,558260,learnblock1,608.4000000953674,img/planet8_left.png,8,Community 2,NA,FALSE,j,f,NA,NA,NA,NA,6,"3,7,5,14,6,2,8,12,9,13,1,4,11,15,10"
14222,commdev-image-keyboard-response,263,559514,learnblock1,null,img/planet9_left.png,9,Community 2,NA,FALSE,null,f,NA,NA,NA,NA,6,"3,7,5,14,6,2,8,12,9,13,1,4,11,15,10"
14222,commdev-image-keyboard-response,264,560766,learnblock1,255.40000009536743,img/planet13_right.png,13,Community 2,NA,FALSE,f,j,NA,NA,NA,NA,6,"3,7,5,14,6,2,8,12,9,13,1,4,11,15,10"
14222,commdev-image-keyboard-response,265,562018,learnblock1,218.10000014305115,img/planet8_right.png,8,Community 2,NA,TRUE,j,j,NA,NA,NA,NA,6,"3,7,5,14,6,2,8,12,9,13,1,4,11,15,10"
14222,commdev-image-keyboard-response,266,563272,learnblock1,1213.7999999523163,img/planet13_right.png,13,Community 2,NA,TRUE,j,j,NA,NA,NA,NA,6,"3,7,5,14,6,2,8,12,9,13,1,4,11,15,10"
14222,commdev-image-keyboard-response,267,564525,learnblock1,984.2999999523163,img/planet2_right.png,2,Community 2,NA,TRUE,j,j,NA,NA,NA,NA,6,"3,7,5,14,6,2,8,12,9,13,1,4,11,15,10"
14222,commdev-image-keyboard-response,268,565777,learnblock1,null,img/planet14_right.png,14,Community 1,NA,FALSE,null,j,NA,NA,NA,NA,6,"3,7,5,14,6,2,8,12,9,13,1,4,11,15,10"
14222,commdev-image-keyboard-response,269,567031,learnblock1,110.40000009536743,img/planet3_left.png,3,Community 1,NA,FALSE,j,f,NA,NA,NA,NA,6,"3,7,5,14,6,2,8,12,9,13,1,4,11,15,10"
14222,commdev-image-keyboard-response,270,568284,learnblock1,193.30000019073486,img/planet5_right.png,5,Community 1,NA,FALSE,f,j,NA,NA,NA,NA,6,"3,7,5,14,6,2,8,12,9,13,1,4,11,15,10"
14222,commdev-image-keyboard-response,271,569537,learnblock1,null,img/planet6_right.png,6,Community 1,NA,FALSE,null,j,NA,NA,NA,NA,6,"3,7,5,14,6,2,8,12,9,13,1,4,11,15,10"
14222,commdev-image-keyboard-response,272,570790,learnblock1,null,img/planet1_right.png,1,Community 3,NA,FALSE,null,j,NA,NA,NA,NA,6,"3,7,5,14,6,2,8,12,9,13,1,4,11,15,10"
14222,commdev-image-keyboard-response,273,572043,learnblock1,50.299999952316284,img/planet6_right.png,6,Community 1,NA,TRUE,j,j,NA,NA,NA,NA,6,"3,7,5,14,6,2,8,12,9,13,1,4,11,15,10"
14222,commdev-image-keyboard-response,274,573295,learnblock1,null,img/planet1_right.png,1,Community 3,NA,FALSE,null,j,NA,NA,NA,NA,6,"3,7,5,14,6,2,8,12,9,13,1,4,11,15,10"
14222,commdev-image-keyboard-response,275,574549,learnblock1,25.300000190734863,img/planet11_right.png,11,Community 3,NA,TRUE,j,j,NA,NA,NA,NA,6,"3,7,5,14,6,2,8,12,9,13,1,4,11,15,10"
14222,commdev-image-keyboard-response,276,575801,learnblock1,179.29999995231628,img/planet4_left.png,4,Community 3,NA,FALSE,j,f,NA,NA,NA,NA,6,"3,7,5,14,6,2,8,12,9,13,1,4,11,15,10"
14222,commdev-image-keyboard-response,277,577054,learnblock1,6.799999952316284,img/planet11_left.png,11,Community 3,NA,TRUE,f,f,NA,NA,NA,NA,6,"3,7,5,14,6,2,8,12,9,13,1,4,11,15,10"
14222,commdev-image-keyboard-response,278,578309,learnblock1,1169.7000000476837,img/planet4_left.png,4,Community 3,NA,FALSE,j,f,NA,NA,NA,NA,6,"3,7,5,14,6,2,8,12,9,13,1,4,11,15,10"
14222,commdev-image-keyboard-response,279,579562,learnblock1,971.5,img/planet15_right.png,15,Community 3,NA,TRUE,j,j,NA,NA,NA,NA,6,"3,7,5,14,6,2,8,12,9,13,1,4,11,15,10"
14222,commdev-image-keyboard-response,280,580815,learnblock1,null,img/planet10_right.png,10,Community 3,NA,FALSE,null,j,NA,NA,NA,NA,6,"3,7,5,14,6,2,8,12,9,13,1,4,11,15,10"
14222,commdev-image-keyboard-response,281,582068,learnblock1,233.10000014305115,img/planet1_right.png,1,Community 3,NA,TRUE,j,j,NA,NA,NA,NA,6,"3,7,5,14,6,2,8,12,9,13,1,4,11,15,10"
14222,commdev-image-keyboard-response,282,583322,learnblock1,19.200000047683716,img/planet15_left.png,15,Community 3,NA,FALSE,j,f,NA,NA,NA,NA,6,"3,7,5,14,6,2,8,12,9,13,1,4,11,15,10"
14222,commdev-image-keyboard-response,283,584574,learnblock1,853.7000000476837,img/planet1_left.png,1,Community 3,NA,FALSE,j,f,NA,NA,NA,NA,6,"3,7,5,14,6,2,8,12,9,13,1,4,11,15,10"
14222,commdev-image-keyboard-response,284,585828,learnblock1,1056.7000000476837,img/planet6_right.png,6,Community 1,NA,TRUE,j,j,NA,NA,NA,NA,6,"3,7,5,14,6,2,8,12,9,13,1,4,11,15,10"
14222,commdev-image-keyboard-response,285,587081,learnblock1,916.2000000476837,img/planet1_right.png,1,Community 3,NA,TRUE,j,j,NA,NA,NA,NA,6,"3,7,5,14,6,2,8,12,9,13,1,4,11,15,10"
14222,commdev-image-keyboard-response,286,588334,learnblock1,958.9000000953674,img/planet15_right.png,15,Community 3,NA,TRUE,j,j,NA,NA,NA,NA,6,"3,7,5,14,6,2,8,12,9,13,1,4,11,15,10"
14222,commdev-image-keyboard-response,287,589587,learnblock1,1043.2000000476837,img/planet1_right.png,1,Community 3,NA,TRUE,j,j,NA,NA,NA,NA,6,"3,7,5,14,6,2,8,12,9,13,1,4,11,15,10"
14222,commdev-image-keyboard-response,288,590839,learnblock1,1189.2999999523163,img/planet11_left.png,11,Community 3,NA,TRUE,f,f,NA,NA,NA,NA,6,"3,7,5,14,6,2,8,12,9,13,1,4,11,15,10"
14222,commdev-image-keyboard-response,289,592092,learnblock1,null,img/planet1_right.png,1,Community 3,NA,FALSE,null,j,NA,NA,NA,NA,6,"3,7,5,14,6,2,8,12,9,13,1,4,11,15,10"
14222,commdev-image-keyboard-response,290,593345,learnblock1,252.30000019073486,img/planet15_left.png,15,Community 3,NA,FALSE,j,f,NA,NA,NA,NA,6,"3,7,5,14,6,2,8,12,9,13,1,4,11,15,10"
14222,commdev-image-keyboard-response,291,594605,learnblock1,16.299999952316284,img/planet1_left.png,1,Community 3,NA,TRUE,f,f,NA,NA,NA,NA,6,"3,7,5,14,6,2,8,12,9,13,1,4,11,15,10"
14222,commdev-image-keyboard-response,292,595858,learnblock1,null,img/planet6_left.png,6,Community 1,NA,FALSE,null,f,NA,NA,NA,NA,6,"3,7,5,14,6,2,8,12,9,13,1,4,11,15,10"
14222,commdev-image-keyboard-response,293,597110,learnblock1,53.89999985694885,img/planet7_right.png,7,Community 1,NA,FALSE,f,j,NA,NA,NA,NA,6,"3,7,5,14,6,2,8,12,9,13,1,4,11,15,10"
14222,commdev-image-keyboard-response,294,598363,learnblock1,393.30000019073486,img/planet3_right.png,3,Community 1,NA,FALSE,f,j,NA,NA,NA,NA,6,"3,7,5,14,6,2,8,12,9,13,1,4,11,15,10"
14222,commdev-image-keyboard-response,295,599615,learnblock1,null,img/planet5_left.png,5,Community 1,NA,FALSE,null,f,NA,NA,NA,NA,6,"3,7,5,14,6,2,8,12,9,13,1,4,11,15,10"
14222,commdev-image-keyboard-response,296,600869,learnblock1,272.39999985694885,img/planet6_right.png,6,Community 1,NA,FALSE,f,j,NA,NA,NA,NA,6,"3,7,5,14,6,2,8,12,9,13,1,4,11,15,10"
14222,commdev-image-keyboard-response,297,602121,learnblock1,58.90000009536743,img/planet1_left.png,1,Community 3,NA,FALSE,j,f,NA,NA,NA,NA,6,"3,7,5,14,6,2,8,12,9,13,1,4,11,15,10"
14222,commdev-image-keyboard-response,298,603373,learnblock1,247,img/planet6_left.png,6,Community 1,NA,TRUE,f,f,NA,NA,NA,NA,6,"3,7,5,14,6,2,8,12,9,13,1,4,11,15,10"
14222,commdev-image-keyboard-response,299,604625,learnblock1,402.40000009536743,img/planet5_left.png,5,Community 1,NA,FALSE,j,f,NA,NA,NA,NA,6,"3,7,5,14,6,2,8,12,9,13,1,4,11,15,10"
14222,commdev-image-keyboard-response,300,605878,learnblock1,null,img/planet3_left.png,3,Community 1,NA,FALSE,null,f,NA,NA,NA,NA,6,"3,7,5,14,6,2,8,12,9,13,1,4,11,15,10"
14222,commdev-image-keyboard-response,301,607130,learnblock1,90,img/planet5_left.png,5,Community 1,NA,TRUE,f,f,NA,NA,NA,NA,6,"3,7,5,14,6,2,8,12,9,13,1,4,11,15,10"
14222,commdev-image-keyboard-response,302,608383,learnblock1,null,img/planet14_left.png,14,Community 1,NA,FALSE,null,f,NA,NA,NA,NA,6,"3,7,5,14,6,2,8,12,9,13,1,4,11,15,10"
14222,commdev-image-keyboard-response,303,609634,learnblock1,233,img/planet2_right.png,2,Community 2,NA,TRUE,j,j,NA,NA,NA,NA,6,"3,7,5,14,6,2,8,12,9,13,1,4,11,15,10"
14222,commdev-image-keyboard-response,304,610887,learnblock1,717.0999999046326,img/planet13_left.png,13,Community 2,NA,FALSE,j,f,NA,NA,NA,NA,6,"3,7,5,14,6,2,8,12,9,13,1,4,11,15,10"
14222,commdev-image-keyboard-response,305,612140,learnblock1,1208.4000000953674,img/planet8_left.png,8,Community 2,NA,TRUE,f,f,NA,NA,NA,NA,6,"3,7,5,14,6,2,8,12,9,13,1,4,11,15,10"
14222,commdev-image-keyboard-response,306,613393,learnblock1,1148.7999999523163,img/planet9_right.png,9,Community 2,NA,TRUE,j,j,NA,NA,NA,NA,6,"3,7,5,14,6,2,8,12,9,13,1,4,11,15,10"
14222,commdev-image-keyboard-response,307,614650,learnblock1,902.5999999046326,img/planet2_right.png,2,Community 2,NA,FALSE,f,j,NA,NA,NA,NA,6,"3,7,5,14,6,2,8,12,9,13,1,4,11,15,10"
14222,commdev-image-keyboard-response,308,615903,learnblock1,269.7000000476837,img/planet8_right.png,8,Community 2,NA,TRUE,j,j,NA,NA,NA,NA,6,"3,7,5,14,6,2,8,12,9,13,1,4,11,15,10"
14222,commdev-image-keyboard-response,309,617156,learnblock1,null,img/planet12_right.png,12,Community 2,NA,FALSE,null,j,NA,NA,NA,NA,6,"3,7,5,14,6,2,8,12,9,13,1,4,11,15,10"
14222,commdev-image-keyboard-response,310,618409,learnblock1,6.700000047683716,img/planet4_left.png,4,Community 3,NA,FALSE,j,f,NA,NA,NA,NA,6,"3,7,5,14,6,2,8,12,9,13,1,4,11,15,10"
14222,commdev-image-keyboard-response,311,619662,learnblock1,6.5,img/planet11_right.png,11,Community 3,NA,FALSE,f,j,NA,NA,NA,NA,6,"3,7,5,14,6,2,8,12,9,13,1,4,11,15,10"
14222,commdev-image-keyboard-response,312,620915,learnblock1,345.59999990463257,img/planet1_right.png,1,Community 3,NA,FALSE,f,j,NA,NA,NA,NA,6,"3,7,5,14,6,2,8,12,9,13,1,4,11,15,10"
14222,commdev-image-keyboard-response,313,622167,learnblock1,165,img/planet15_left.png,15,Community 3,NA,FALSE,j,f,NA,NA,NA,NA,6,"3,7,5,14,6,2,8,12,9,13,1,4,11,15,10"
14222,commdev-image-keyboard-response,314,623419,learnblock1,null,img/planet1_right.png,1,Community 3,NA,FALSE,null,j,NA,NA,NA,NA,6,"3,7,5,14,6,2,8,12,9,13,1,4,11,15,10"
14222,commdev-image-keyboard-response,315,624672,learnblock1,null,img/planet15_left.png,15,Community 3,NA,FALSE,null,f,NA,NA,NA,NA,6,"3,7,5,14,6,2,8,12,9,13,1,4,11,15,10"
14222,commdev-image-keyboard-response,316,625924,learnblock1,1128.3000001907349,img/planet1_left.png,1,Community 3,NA,TRUE,f,f,NA,NA,NA,NA,6,"3,7,5,14,6,2,8,12,9,13,1,4,11,15,10"
14222,commdev-image-keyboard-response,317,627176,learnblock1,883.5,img/planet10_right.png,10,Community 3,NA,TRUE,j,j,NA,NA,NA,NA,6,"3,7,5,14,6,2,8,12,9,13,1,4,11,15,10"
14222,commdev-image-keyboard-response,318,628430,learnblock1,1111.7999999523163,img/planet1_right.png,1,Community 3,NA,TRUE,j,j,NA,NA,NA,NA,6,"3,7,5,14,6,2,8,12,9,13,1,4,11,15,10"
14222,commdev-image-keyboard-response,319,629682,learnblock1,786.0999999046326,img/planet15_left.png,15,Community 3,NA,FALSE,j,f,NA,NA,NA,NA,6,"3,7,5,14,6,2,8,12,9,13,1,4,11,15,10"
14222,commdev-image-keyboard-response,320,630935,learnblock1,1165.5,img/planet1_left.png,1,Community 3,NA,TRUE,f,f,NA,NA,NA,NA,6,"3,7,5,14,6,2,8,12,9,13,1,4,11,15,10"
14222,commdev-image-keyboard-response,321,632201,learnblock1,889,img/planet10_left.png,10,Community 3,NA,TRUE,f,f,NA,NA,NA,NA,6,"3,7,5,14,6,2,8,12,9,13,1,4,11,15,10"
14222,commdev-image-keyboard-response,322,633454,learnblock1,766.8999998569489,img/planet1_right.png,1,Community 3,NA,FALSE,f,j,NA,NA,NA,NA,6,"3,7,5,14,6,2,8,12,9,13,1,4,11,15,10"
14222,commdev-image-keyboard-response,323,634706,learnblock1,1146.5,img/planet15_left.png,15,Community 3,NA,TRUE,f,f,NA,NA,NA,NA,6,"3,7,5,14,6,2,8,12,9,13,1,4,11,15,10"
14222,commdev-image-keyboard-response,324,635959,learnblock1,877.2999999523163,img/planet4_left.png,4,Community 3,NA,TRUE,f,f,NA,NA,NA,NA,6,"3,7,5,14,6,2,8,12,9,13,1,4,11,15,10"
14222,commdev-image-keyboard-response,325,637211,learnblock1,896.9000000953674,img/planet10_left.png,10,Community 3,NA,TRUE,f,f,NA,NA,NA,NA,6,"3,7,5,14,6,2,8,12,9,13,1,4,11,15,10"
14222,commdev-image-keyboard-response,326,638465,learnblock1,979.9000000953674,img/planet4_right.png,4,Community 3,NA,FALSE,f,j,NA,NA,NA,NA,6,"3,7,5,14,6,2,8,12,9,13,1,4,11,15,10"
14222,commdev-image-keyboard-response,327,639717,learnblock1,null,img/planet12_left.png,12,Community 2,NA,FALSE,null,f,NA,NA,NA,NA,6,"3,7,5,14,6,2,8,12,9,13,1,4,11,15,10"
14222,commdev-image-keyboard-response,328,640969,learnblock1,43,img/planet4_right.png,4,Community 3,NA,FALSE,f,j,NA,NA,NA,NA,6,"3,7,5,14,6,2,8,12,9,13,1,4,11,15,10"
14222,commdev-image-keyboard-response,329,642221,learnblock1,1054.1000001430511,img/planet11_right.png,11,Community 3,NA,TRUE,j,j,NA,NA,NA,NA,6,"3,7,5,14,6,2,8,12,9,13,1,4,11,15,10"
14222,commdev-image-keyboard-response,330,643474,learnblock1,1202.7999999523163,img/planet4_left.png,4,Community 3,NA,FALSE,j,f,NA,NA,NA,NA,6,"3,7,5,14,6,2,8,12,9,13,1,4,11,15,10"
14222,commdev-image-keyboard-response,331,644734,learnblock1,238.79999995231628,img/planet12_left.png,12,Community 2,NA,TRUE,f,f,NA,NA,NA,NA,6,"3,7,5,14,6,2,8,12,9,13,1,4,11,15,10"
14222,commdev-image-keyboard-response,332,645986,learnblock1,690.0999999046326,img/planet8_right.png,8,Community 2,NA,FALSE,f,j,NA,NA,NA,NA,6,"3,7,5,14,6,2,8,12,9,13,1,4,11,15,10"
14222,commdev-image-keyboard-response,333,647239,learnblock1,118.10000014305115,img/planet12_right.png,12,Community 2,NA,TRUE,j,j,NA,NA,NA,NA,6,"3,7,5,14,6,2,8,12,9,13,1,4,11,15,10"
14222,commdev-image-keyboard-response,334,648492,learnblock1,1208.6000001430511,img/planet4_right.png,4,Community 3,NA,TRUE,j,j,NA,NA,NA,NA,6,"3,7,5,14,6,2,8,12,9,13,1,4,11,15,10"
14222,commdev-image-keyboard-response,335,649745,learnblock1,null,img/planet12_left.png,12,Community 2,NA,FALSE,null,f,NA,NA,NA,NA,6,"3,7,5,14,6,2,8,12,9,13,1,4,11,15,10"
14222,commdev-image-keyboard-response,336,650998,learnblock1,470.10000014305115,img/planet9_left.png,9,Community 2,NA,TRUE,f,f,NA,NA,NA,NA,6,"3,7,5,14,6,2,8,12,9,13,1,4,11,15,10"
14222,commdev-image-keyboard-response,337,652250,learnblock1,null,img/planet8_right.png,8,Community 2,NA,FALSE,null,j,NA,NA,NA,NA,6,"3,7,5,14,6,2,8,12,9,13,1,4,11,15,10"
14222,commdev-image-keyboard-response,338,653503,learnblock1,117.20000004768372,img/planet9_left.png,9,Community 2,NA,FALSE,j,f,NA,NA,NA,NA,6,"3,7,5,14,6,2,8,12,9,13,1,4,11,15,10"
14222,commdev-image-keyboard-response,339,654756,learnblock1,72.20000004768372,img/planet13_left.png,13,Community 2,NA,TRUE,f,f,NA,NA,NA,NA,6,"3,7,5,14,6,2,8,12,9,13,1,4,11,15,10"
14222,commdev-image-keyboard-response,340,656008,learnblock1,1051.8999998569489,img/planet8_right.png,8,Community 2,NA,TRUE,j,j,NA,NA,NA,NA,6,"3,7,5,14,6,2,8,12,9,13,1,4,11,15,10"
14222,commdev-image-keyboard-response,341,657261,learnblock1,825.1000001430511,img/planet9_left.png,9,Community 2,NA,TRUE,f,f,NA,NA,NA,NA,6,"3,7,5,14,6,2,8,12,9,13,1,4,11,15,10"
14222,commdev-image-keyboard-response,342,658514,learnblock1,715.4000000953674,img/planet2_right.png,2,Community 2,NA,TRUE,j,j,NA,NA,NA,NA,6,"3,7,5,14,6,2,8,12,9,13,1,4,11,15,10"
14222,commdev-image-keyboard-response,343,659766,learnblock1,997.7999999523163,img/planet9_right.png,9,Community 2,NA,TRUE,j,j,NA,NA,NA,NA,6,"3,7,5,14,6,2,8,12,9,13,1,4,11,15,10"
14222,commdev-image-keyboard-response,344,661018,learnblock1,1002,img/planet13_right.png,13,Community 2,NA,TRUE,j,j,NA,NA,NA,NA,6,"3,7,5,14,6,2,8,12,9,13,1,4,11,15,10"
14222,commdev-image-keyboard-response,345,662276,learnblock1,877.8000001907349,img/planet12_left.png,12,Community 2,NA,FALSE,j,f,NA,NA,NA,NA,6,"3,7,5,14,6,2,8,12,9,13,1,4,11,15,10"
14222,commdev-image-keyboard-response,346,663529,learnblock1,884,img/planet4_left.png,4,Community 3,NA,TRUE,f,f,NA,NA,NA,NA,6,"3,7,5,14,6,2,8,12,9,13,1,4,11,15,10"
14222,commdev-image-keyboard-response,347,664782,learnblock1,1095.8000001907349,img/planet12_left.png,12,Community 2,NA,TRUE,f,f,NA,NA,NA,NA,6,"3,7,5,14,6,2,8,12,9,13,1,4,11,15,10"
14222,commdev-image-keyboard-response,351,842288,learnblock2,1133.2999999523163,img/planet5_left.png,5,Community 1,NA,TRUE,f,f,NA,NA,NA,NA,6,"3,7,5,14,6,2,8,12,9,13,1,4,11,15,10"
14222,commdev-image-keyboard-response,352,843540,learnblock2,704.0999999046326,img/planet14_left.png,14,Community 1,NA,TRUE,f,f,NA,NA,NA,NA,6,"3,7,5,14,6,2,8,12,9,13,1,4,11,15,10"
14222,commdev-image-keyboard-response,353,844793,learnblock2,779,img/planet3_right.png,3,Community 1,NA,TRUE,j,j,NA,NA,NA,NA,6,"3,7,5,14,6,2,8,12,9,13,1,4,11,15,10"
14222,commdev-image-keyboard-response,354,846045,learnblock2,710.3000001907349,img/planet5_right.png,5,Community 1,NA,TRUE,j,j,NA,NA,NA,NA,6,"3,7,5,14,6,2,8,12,9,13,1,4,11,15,10"
14222,commdev-image-keyboard-response,355,847298,learnblock2,650.5,img/planet6_right.png,6,Community 1,NA,FALSE,f,j,NA,NA,NA,NA,6,"3,7,5,14,6,2,8,12,9,13,1,4,11,15,10"
14222,commdev-image-keyboard-response,356,848558,learnblock2,1093.5,img/planet3_right.png,3,Community 1,NA,TRUE,j,j,NA,NA,NA,NA,6,"3,7,5,14,6,2,8,12,9,13,1,4,11,15,10"
14222,commdev-image-keyboard-response,357,849819,learnblock2,728.5999999046326,img/planet14_left.png,14,Community 1,NA,TRUE,f,f,NA,NA,NA,NA,6,"3,7,5,14,6,2,8,12,9,13,1,4,11,15,10"
14222,commdev-image-keyboard-response,358,851071,learnblock2,516.0999999046326,img/planet3_right.png,3,Community 1,NA,TRUE,j,j,NA,NA,NA,NA,6,"3,7,5,14,6,2,8,12,9,13,1,4,11,15,10"
14222,commdev-image-keyboard-response,359,852324,learnblock2,720.5,img/planet5_right.png,5,Community 1,NA,TRUE,j,j,NA,NA,NA,NA,6,"3,7,5,14,6,2,8,12,9,13,1,4,11,15,10"
14222,commdev-image-keyboard-response,360,853576,learnblock2,891.5,img/planet6_left.png,6,Community 1,NA,TRUE,f,f,NA,NA,NA,NA,6,"3,7,5,14,6,2,8,12,9,13,1,4,11,15,10"
14222,commdev-image-keyboard-response,361,854828,learnblock2,1023.2999999523163,img/planet3_left.png,3,Community 1,NA,TRUE,f,f,NA,NA,NA,NA,6,"3,7,5,14,6,2,8,12,9,13,1,4,11,15,10"
14222,commdev-image-keyboard-response,362,856081,learnblock2,714.9000000953674,img/planet7_right.png,7,Community 1,NA,TRUE,j,j,NA,NA,NA,NA,6,"3,7,5,14,6,2,8,12,9,13,1,4,11,15,10"
14222,commdev-image-keyboard-response,363,857335,learnblock2,1016.2000000476837,img/planet6_right.png,6,Community 1,NA,TRUE,j,j,NA,NA,NA,NA,6,"3,7,5,14,6,2,8,12,9,13,1,4,11,15,10"
14222,commdev-image-keyboard-response,364,858588,learnblock2,888.7999999523163,img/planet7_left.png,7,Community 1,NA,TRUE,f,f,NA,NA,NA,NA,6,"3,7,5,14,6,2,8,12,9,13,1,4,11,15,10"
14222,commdev-image-keyboard-response,365,859841,learnblock2,747.7000000476837,img/planet14_right.png,14,Community 1,NA,TRUE,j,j,NA,NA,NA,NA,6,"3,7,5,14,6,2,8,12,9,13,1,4,11,15,10"
14222,commdev-image-keyboard-response,366,861094,learnblock2,797.7000000476837,img/planet3_right.png,3,Community 1,NA,TRUE,j,j,NA,NA,NA,NA,6,"3,7,5,14,6,2,8,12,9,13,1,4,11,15,10"
14222,commdev-image-keyboard-response,367,862348,learnblock2,761.5,img/planet6_left.png,6,Community 1,NA,TRUE,f,f,NA,NA,NA,NA,6,"3,7,5,14,6,2,8,12,9,13,1,4,11,15,10"
14222,commdev-image-keyboard-response,368,863601,learnblock2,619.4000000953674,img/planet1_right.png,1,Community 3,NA,TRUE,j,j,NA,NA,NA,NA,6,"3,7,5,14,6,2,8,12,9,13,1,4,11,15,10"
14222,commdev-image-keyboard-response,369,864855,learnblock2,1014.0999999046326,img/planet15_left.png,15,Community 3,NA,TRUE,f,f,NA,NA,NA,NA,6,"3,7,5,14,6,2,8,12,9,13,1,4,11,15,10"
14222,commdev-image-keyboard-response,370,866108,learnblock2,632.5999999046326,img/planet11_left.png,11,Community 3,NA,FALSE,j,f,NA,NA,NA,NA,6,"3,7,5,14,6,2,8,12,9,13,1,4,11,15,10"
14222,commdev-image-keyboard-response,371,867360,learnblock2,1132,img/planet1_left.png,1,Community 3,NA,TRUE,f,f,NA,NA,NA,NA,6,"3,7,5,14,6,2,8,12,9,13,1,4,11,15,10"
14222,commdev-image-keyboard-response,372,868612,learnblock2,1031.8000001907349,img/planet11_left.png,11,Community 3,NA,TRUE,f,f,NA,NA,NA,NA,6,"3,7,5,14,6,2,8,12,9,13,1,4,11,15,10"
14222,commdev-image-keyboard-response,373,869864,learnblock2,699.7999999523163,img/planet10_left.png,10,Community 3,NA,TRUE,f,f,NA,NA,NA,NA,6,"3,7,5,14,6,2,8,12,9,13,1,4,11,15,10"
14222,commdev-image-keyboard-response,374,871117,learnblock2,887.7999999523163,img/planet4_right.png,4,Community 3,NA,TRUE,j,j,NA,NA,NA,NA,6,"3,7,5,14,6,2,8,12,9,13,1,4,11,15,10"
14222,commdev-image-keyboard-response,375,872370,learnblock2,714.5,img/planet11_left.png,11,Community 3,NA,TRUE,f,f,NA,NA,NA,NA,6,"3,7,5,14,6,2,8,12,9,13,1,4,11,15,10"
14222,commdev-image-keyboard-response,376,873622,learnblock2,645.7999999523163,img/planet15_right.png,15,Community 3,NA,TRUE,j,j,NA,NA,NA,NA,6,"3,7,5,14,6,2,8,12,9,13,1,4,11,15,10"
14222,commdev-image-keyboard-response,377,874876,learnblock2,1064.4000000953674,img/planet4_left.png,4,Community 3,NA,FALSE,j,f,NA,NA,NA,NA,6,"3,7,5,14,6,2,8,12,9,13,1,4,11,15,10"
14222,commdev-image-keyboard-response,378,876129,learnblock2,852.2999999523163,img/planet11_right.png,11,Community 3,NA,TRUE,j,j,NA,NA,NA,NA,6,"3,7,5,14,6,2,8,12,9,13,1,4,11,15,10"
14222,commdev-image-keyboard-response,379,877382,learnblock2,862.6999998092651,img/planet10_left.png,10,Community 3,NA,TRUE,f,f,NA,NA,NA,NA,6,"3,7,5,14,6,2,8,12,9,13,1,4,11,15,10"
14222,commdev-image-keyboard-response,380,878634,learnblock2,785.6000001430511,img/planet11_right.png,11,Community 3,NA,TRUE,j,j,NA,NA,NA,NA,6,"3,7,5,14,6,2,8,12,9,13,1,4,11,15,10"
14222,commdev-image-keyboard-response,381,879898,learnblock2,653.4000000953674,img/planet4_left.png,4,Community 3,NA,TRUE,f,f,NA,NA,NA,NA,6,"3,7,5,14,6,2,8,12,9,13,1,4,11,15,10"
14222,commdev-image-keyboard-response,382,881152,learnblock2,509.19999980926514,img/planet11_left.png,11,Community 3,NA,FALSE,j,f,NA,NA,NA,NA,6,"3,7,5,14,6,2,8,12,9,13,1,4,11,15,10"
14222,commdev-image-keyboard-response,383,882404,learnblock2,1015.7999999523163,img/planet1_left.png,1,Community 3,NA,TRUE,f,f,NA,NA,NA,NA,6,"3,7,5,14,6,2,8,12,9,13,1,4,11,15,10"
14222,commdev-image-keyboard-response,384,883656,learnblock2,836.2000000476837,img/planet6_left.png,6,Community 1,NA,TRUE,f,f,NA,NA,NA,NA,6,"3,7,5,14,6,2,8,12,9,13,1,4,11,15,10"
14222,commdev-image-keyboard-response,385,884908,learnblock2,855.2999999523163,img/planet5_left.png,5,Community 1,NA,TRUE,f,f,NA,NA,NA,NA,6,"3,7,5,14,6,2,8,12,9,13,1,4,11,15,10"
14222,commdev-image-keyboard-response,386,886161,learnblock2,891.0999999046326,img/planet3_right.png,3,Community 1,NA,TRUE,j,j,NA,NA,NA,NA,6,"3,7,5,14,6,2,8,12,9,13,1,4,11,15,10"
14222,commdev-image-keyboard-response,387,887414,learnblock2,798,img/planet6_right.png,6,Community 1,NA,TRUE,j,j,NA,NA,NA,NA,6,"3,7,5,14,6,2,8,12,9,13,1,4,11,15,10"
14222,commdev-image-keyboard-response,388,888667,learnblock2,681.5,img/planet5_right.png,5,Community 1,NA,TRUE,j,j,NA,NA,NA,NA,6,"3,7,5,14,6,2,8,12,9,13,1,4,11,15,10"
14222,commdev-image-keyboard-response,389,889919,learnblock2,740.5,img/planet14_left.png,14,Community 1,NA,TRUE,f,f,NA,NA,NA,NA,6,"3,7,5,14,6,2,8,12,9,13,1,4,11,15,10"
14222,commdev-image-keyboard-response,390,891173,learnblock2,728.2999999523163,img/planet7_right.png,7,Community 1,NA,FALSE,f,j,NA,NA,NA,NA,6,"3,7,5,14,6,2,8,12,9,13,1,4,11,15,10"
14222,commdev-image-keyboard-response,391,892426,learnblock2,1106.7000000476837,img/planet6_left.png,6,Community 1,NA,TRUE,f,f,NA,NA,NA,NA,6,"3,7,5,14,6,2,8,12,9,13,1,4,11,15,10"
14222,commdev-image-keyboard-response,392,893679,learnblock2,918,img/planet1_left.png,1,Community 3,NA,TRUE,f,f,NA,NA,NA,NA,6,"3,7,5,14,6,2,8,12,9,13,1,4,11,15,10"
14222,commdev-image-keyboard-response,393,894931,learnblock2,704.5,img/planet10_left.png,10,Community 3,NA,TRUE,f,f,NA,NA,NA,NA,6,"3,7,5,14,6,2,8,12,9,13,1,4,11,15,10"
14222,commdev-image-keyboard-response,394,896183,learnblock2,724.2999999523163,img/planet15_left.png,15,Community 3,NA,TRUE,f,f,NA,NA,NA,NA,6,"3,7,5,14,6,2,8,12,9,13,1,4,11,15,10"
14222,commdev-image-keyboard-response,395,897436,learnblock2,688.4000000953674,img/planet4_left.png,4,Community 3,NA,TRUE,f,f,NA,NA,NA,NA,6,"3,7,5,14,6,2,8,12,9,13,1,4,11,15,10"
14222,commdev-image-keyboard-response,396,898688,learnblock2,675.5999999046326,img/planet15_left.png,15,Community 3,NA,TRUE,f,f,NA,NA,NA,NA,6,"3,7,5,14,6,2,8,12,9,13,1,4,11,15,10"
14222,commdev-image-keyboard-response,397,899941,learnblock2,735,img/planet4_right.png,4,Community 3,NA,TRUE,j,j,NA,NA,NA,NA,6,"3,7,5,14,6,2,8,12,9,13,1,4,11,15,10"
14222,commdev-image-keyboard-response,398,901194,learnblock2,754.2999999523163,img/planet11_right.png,11,Community 3,NA,TRUE,j,j,NA,NA,NA,NA,6,"3,7,5,14,6,2,8,12,9,13,1,4,11,15,10"
14222,commdev-image-keyboard-response,399,902446,learnblock2,853.5,img/planet10_left.png,10,Community 3,NA,TRUE,f,f,NA,NA,NA,NA,6,"3,7,5,14,6,2,8,12,9,13,1,4,11,15,10"
14222,commdev-image-keyboard-response,400,903699,learnblock2,801.1000001430511,img/planet11_left.png,11,Community 3,NA,TRUE,f,f,NA,NA,NA,NA,6,"3,7,5,14,6,2,8,12,9,13,1,4,11,15,10"
14222,commdev-image-keyboard-response,401,904952,learnblock2,781.2000000476837,img/planet4_left.png,4,Community 3,NA,TRUE,f,f,NA,NA,NA,NA,6,"3,7,5,14,6,2,8,12,9,13,1,4,11,15,10"
14222,commdev-image-keyboard-response,402,906204,learnblock2,807.5,img/planet12_right.png,12,Community 2,NA,TRUE,j,j,NA,NA,NA,NA,6,"3,7,5,14,6,2,8,12,9,13,1,4,11,15,10"
14222,commdev-image-keyboard-response,403,907457,learnblock2,811,img/planet9_left.png,9,Community 2,NA,TRUE,f,f,NA,NA,NA,NA,6,"3,7,5,14,6,2,8,12,9,13,1,4,11,15,10"
14222,commdev-image-keyboard-response,404,908710,learnblock2,766.8000001907349,img/planet2_left.png,2,Community 2,NA,TRUE,f,f,NA,NA,NA,NA,6,"3,7,5,14,6,2,8,12,9,13,1,4,11,15,10"
14222,commdev-image-keyboard-response,405,909963,learnblock2,993.7000000476837,img/planet8_right.png,8,Community 2,NA,TRUE,j,j,NA,NA,NA,NA,6,"3,7,5,14,6,2,8,12,9,13,1,4,11,15,10"
14222,commdev-image-keyboard-response,406,911216,learnblock2,796.6000001430511,img/planet2_left.png,2,Community 2,NA,FALSE,j,f,NA,NA,NA,NA,6,"3,7,5,14,6,2,8,12,9,13,1,4,11,15,10"
14222,commdev-image-keyboard-response,407,912468,learnblock2,743.7999999523163,img/planet9_left.png,9,Community 2,NA,FALSE,j,f,NA,NA,NA,NA,6,"3,7,5,14,6,2,8,12,9,13,1,4,11,15,10"
14222,commdev-image-keyboard-response,408,913721,learnblock2,867,img/planet8_right.png,8,Community 2,NA,TRUE,j,j,NA,NA,NA,NA,6,"3,7,5,14,6,2,8,12,9,13,1,4,11,15,10"
14222,commdev-image-keyboard-response,409,914974,learnblock2,766,img/planet12_left.png,12,Community 2,NA,TRUE,f,f,NA,NA,NA,NA,6,"3,7,5,14,6,2,8,12,9,13,1,4,11,15,10"
14222,commdev-image-keyboard-response,410,916227,learnblock2,826.1999998092651,img/planet9_left.png,9,Community 2,NA,TRUE,f,f,NA,NA,NA,NA,6,"3,7,5,14,6,2,8,12,9,13,1,4,11,15,10"
14222,commdev-image-keyboard-response,411,917480,learnblock2,708.5999999046326,img/planet2_left.png,2,Community 2,NA,TRUE,f,f,NA,NA,NA,NA,6,"3,7,5,14,6,2,8,12,9,13,1,4,11,15,10"
14222,commdev-image-keyboard-response,412,918733,learnblock2,695.5999999046326,img/planet13_right.png,13,Community 2,NA,TRUE,j,j,NA,NA,NA,NA,6,"3,7,5,14,6,2,8,12,9,13,1,4,11,15,10"
14222,commdev-image-keyboard-response,413,919986,learnblock2,793.5,img/planet2_left.png,2,Community 2,NA,TRUE,f,f,NA,NA,NA,NA,6,"3,7,5,14,6,2,8,12,9,13,1,4,11,15,10"
14222,commdev-image-keyboard-response,414,921238,learnblock2,805.3999998569489,img/planet9_left.png,9,Community 2,NA,TRUE,f,f,NA,NA,NA,NA,6,"3,7,5,14,6,2,8,12,9,13,1,4,11,15,10"
14222,commdev-image-keyboard-response,415,922490,learnblock2,857.5999999046326,img/planet12_right.png,12,Community 2,NA,TRUE,j,j,NA,NA,NA,NA,6,"3,7,5,14,6,2,8,12,9,13,1,4,11,15,10"
14222,commdev-image-keyboard-response,416,923742,learnblock2,1021,img/planet8_left.png,8,Community 2,NA,FALSE,j,f,NA,NA,NA,NA,6,"3,7,5,14,6,2,8,12,9,13,1,4,11,15,10"
14222,commdev-image-keyboard-response,417,924995,learnblock2,992.8999998569489,img/planet9_right.png,9,Community 2,NA,TRUE,j,j,NA,NA,NA,NA,6,"3,7,5,14,6,2,8,12,9,13,1,4,11,15,10"
14222,commdev-image-keyboard-response,418,926248,learnblock2,147.59999990463257,img/planet13_right.png,13,Community 2,NA,FALSE,f,j,NA,NA,NA,NA,6,"3,7,5,14,6,2,8,12,9,13,1,4,11,15,10"
14222,commdev-image-keyboard-response,419,927501,learnblock2,160,img/planet2_left.png,2,Community 2,NA,FALSE,j,f,NA,NA,NA,NA,6,"3,7,5,14,6,2,8,12,9,13,1,4,11,15,10"
14222,commdev-image-keyboard-response,420,928753,learnblock2,866,img/planet8_left.png,8,Community 2,NA,TRUE,f,f,NA,NA,NA,NA,6,"3,7,5,14,6,2,8,12,9,13,1,4,11,15,10"
14222,commdev-image-keyboard-response,421,930007,learnblock2,709.5,img/planet13_left.png,13,Community 2,NA,TRUE,f,f,NA,NA,NA,NA,6,"3,7,5,14,6,2,8,12,9,13,1,4,11,15,10"
14222,commdev-image-keyboard-response,422,931260,learnblock2,703.5,img/planet2_right.png,2,Community 2,NA,TRUE,j,j,NA,NA,NA,NA,6,"3,7,5,14,6,2,8,12,9,13,1,4,11,15,10"
14222,commdev-image-keyboard-response,423,932513,learnblock2,811.2000000476837,img/planet9_left.png,9,Community 2,NA,TRUE,f,f,NA,NA,NA,NA,6,"3,7,5,14,6,2,8,12,9,13,1,4,11,15,10"
14222,commdev-image-keyboard-response,424,933765,learnblock2,1174.2999999523163,img/planet8_left.png,8,Community 2,NA,TRUE,f,f,NA,NA,NA,NA,6,"3,7,5,14,6,2,8,12,9,13,1,4,11,15,10"
14222,commdev-image-keyboard-response,425,935018,learnblock2,794.2999999523163,img/planet2_right.png,2,Community 2,NA,TRUE,j,j,NA,NA,NA,NA,6,"3,7,5,14,6,2,8,12,9,13,1,4,11,15,10"
14222,commdev-image-keyboard-response,426,936270,learnblock2,1180.9000000953674,img/planet14_right.png,14,Community 1,NA,TRUE,j,j,NA,NA,NA,NA,6,"3,7,5,14,6,2,8,12,9,13,1,4,11,15,10"
14222,commdev-image-keyboard-response,427,937523,learnblock2,833,img/planet2_left.png,2,Community 2,NA,TRUE,f,f,NA,NA,NA,NA,6,"3,7,5,14,6,2,8,12,9,13,1,4,11,15,10"
14222,commdev-image-keyboard-response,428,938776,learnblock2,796,img/planet14_right.png,14,Community 1,NA,TRUE,j,j,NA,NA,NA,NA,6,"3,7,5,14,6,2,8,12,9,13,1,4,11,15,10"
14222,commdev-image-keyboard-response,429,940028,learnblock2,1119,img/planet2_left.png,2,Community 2,NA,TRUE,f,f,NA,NA,NA,NA,6,"3,7,5,14,6,2,8,12,9,13,1,4,11,15,10"
14222,commdev-image-keyboard-response,430,941285,learnblock2,826.8000001907349,img/planet13_left.png,13,Community 2,NA,TRUE,f,f,NA,NA,NA,NA,6,"3,7,5,14,6,2,8,12,9,13,1,4,11,15,10"
14222,commdev-image-keyboard-response,431,942538,learnblock2,657.7999999523163,img/planet9_left.png,9,Community 2,NA,TRUE,f,f,NA,NA,NA,NA,6,"3,7,5,14,6,2,8,12,9,13,1,4,11,15,10"
14222,commdev-image-keyboard-response,432,943790,learnblock2,684.9000000953674,img/planet2_right.png,2,Community 2,NA,TRUE,j,j,NA,NA,NA,NA,6,"3,7,5,14,6,2,8,12,9,13,1,4,11,15,10"
14222,commdev-image-keyboard-response,433,945043,learnblock2,1144.8000001907349,img/planet13_left.png,13,Community 2,NA,FALSE,j,f,NA,NA,NA,NA,6,"3,7,5,14,6,2,8,12,9,13,1,4,11,15,10"
14222,commdev-image-keyboard-response,434,946295,learnblock2,228.79999995231628,img/planet8_right.png,8,Community 2,NA,FALSE,f,j,NA,NA,NA,NA,6,"3,7,5,14,6,2,8,12,9,13,1,4,11,15,10"
14222,commdev-image-keyboard-response,435,947552,learnblock2,null,img/planet9_right.png,9,Community 2,NA,FALSE,null,j,NA,NA,NA,NA,6,"3,7,5,14,6,2,8,12,9,13,1,4,11,15,10"
14222,commdev-image-keyboard-response,436,948805,learnblock2,15.900000095367432,img/planet12_right.png,12,Community 2,NA,TRUE,j,j,NA,NA,NA,NA,6,"3,7,5,14,6,2,8,12,9,13,1,4,11,15,10"
14222,commdev-image-keyboard-response,437,950058,learnblock2,961.9000000953674,img/planet13_left.png,13,Community 2,NA,TRUE,f,f,NA,NA,NA,NA,6,"3,7,5,14,6,2,8,12,9,13,1,4,11,15,10"
14222,commdev-image-keyboard-response,438,951311,learnblock2,756.5,img/planet8_left.png,8,Community 2,NA,FALSE,j,f,NA,NA,NA,NA,6,"3,7,5,14,6,2,8,12,9,13,1,4,11,15,10"
14222,commdev-image-keyboard-response,439,952564,learnblock2,976.3999998569489,img/planet9_left.png,9,Community 2,NA,TRUE,f,f,NA,NA,NA,NA,6,"3,7,5,14,6,2,8,12,9,13,1,4,11,15,10"
14222,commdev-image-keyboard-response,440,953816,learnblock2,755.2999999523163,img/planet2_right.png,2,Community 2,NA,TRUE,j,j,NA,NA,NA,NA,6,"3,7,5,14,6,2,8,12,9,13,1,4,11,15,10"
14222,commdev-image-keyboard-response,441,955070,learnblock2,686.2999999523163,img/planet9_right.png,9,Community 2,NA,TRUE,j,j,NA,NA,NA,NA,6,"3,7,5,14,6,2,8,12,9,13,1,4,11,15,10"
14222,commdev-image-keyboard-response,442,956328,learnblock2,641.2000000476837,img/planet8_right.png,8,Community 2,NA,TRUE,j,j,NA,NA,NA,NA,6,"3,7,5,14,6,2,8,12,9,13,1,4,11,15,10"
14222,commdev-image-keyboard-response,443,957580,learnblock2,863.0999999046326,img/planet9_left.png,9,Community 2,NA,TRUE,f,f,NA,NA,NA,NA,6,"3,7,5,14,6,2,8,12,9,13,1,4,11,15,10"
14222,commdev-image-keyboard-response,444,958832,learnblock2,1027.5,img/planet8_left.png,8,Community 2,NA,TRUE,f,f,NA,NA,NA,NA,6,"3,7,5,14,6,2,8,12,9,13,1,4,11,15,10"
14222,commdev-image-keyboard-response,445,960085,learnblock2,750.4000000953674,img/planet13_left.png,13,Community 2,NA,TRUE,f,f,NA,NA,NA,NA,6,"3,7,5,14,6,2,8,12,9,13,1,4,11,15,10"
14222,commdev-image-keyboard-response,446,961338,learnblock2,617.7000000476837,img/planet9_left.png,9,Community 2,NA,TRUE,f,f,NA,NA,NA,NA,6,"3,7,5,14,6,2,8,12,9,13,1,4,11,15,10"
14222,commdev-image-keyboard-response,447,962590,learnblock2,772.7000000476837,img/planet2_left.png,2,Community 2,NA,TRUE,f,f,NA,NA,NA,NA,6,"3,7,5,14,6,2,8,12,9,13,1,4,11,15,10"
14222,commdev-image-keyboard-response,448,963844,learnblock2,887.2000000476837,img/planet9_right.png,9,Community 2,NA,TRUE,j,j,NA,NA,NA,NA,6,"3,7,5,14,6,2,8,12,9,13,1,4,11,15,10"
14222,commdev-image-keyboard-response,449,965096,learnblock2,null,img/planet12_left.png,12,Community 2,NA,FALSE,null,f,NA,NA,NA,NA,6,"3,7,5,14,6,2,8,12,9,13,1,4,11,15,10"
14222,commdev-image-keyboard-response,450,966350,learnblock2,390.5,img/planet4_right.png,4,Community 3,NA,FALSE,f,j,NA,NA,NA,NA,6,"3,7,5,14,6,2,8,12,9,13,1,4,11,15,10"
14222,commdev-image-keyboard-response,451,967603,learnblock2,1088.2999999523163,img/planet11_left.png,11,Community 3,NA,FALSE,j,f,NA,NA,NA,NA,6,"3,7,5,14,6,2,8,12,9,13,1,4,11,15,10"
14222,commdev-image-keyboard-response,452,968855,learnblock2,null,img/planet15_right.png,15,Community 3,NA,FALSE,null,j,NA,NA,NA,NA,6,"3,7,5,14,6,2,8,12,9,13,1,4,11,15,10"
14222,commdev-image-keyboard-response,453,970108,learnblock2,88.09999990463257,img/planet10_left.png,10,Community 3,NA,TRUE,f,f,NA,NA,NA,NA,6,"3,7,5,14,6,2,8,12,9,13,1,4,11,15,10"
14222,commdev-image-keyboard-response,454,971361,learnblock2,778.5999999046326,img/planet1_left.png,1,Community 3,NA,FALSE,j,f,NA,NA,NA,NA,6,"3,7,5,14,6,2,8,12,9,13,1,4,11,15,10"
14222,commdev-image-keyboard-response,455,972614,learnblock2,917.3000001907349,img/planet11_right.png,11,Community 3,NA,FALSE,f,j,NA,NA,NA,NA,6,"3,7,5,14,6,2,8,12,9,13,1,4,11,15,10"
14222,commdev-image-keyboard-response,456,973867,learnblock2,1009.5,img/planet15_left.png,15,Community 3,NA,FALSE,j,f,NA,NA,NA,NA,6,"3,7,5,14,6,2,8,12,9,13,1,4,11,15,10"
14222,commdev-image-keyboard-response,457,975120,learnblock2,916.2000000476837,img/planet10_right.png,10,Community 3,NA,TRUE,j,j,NA,NA,NA,NA,6,"3,7,5,14,6,2,8,12,9,13,1,4,11,15,10"
14222,commdev-image-keyboard-response,458,976380,learnblock2,814.7000000476837,img/planet4_right.png,4,Community 3,NA,TRUE,j,j,NA,NA,NA,NA,6,"3,7,5,14,6,2,8,12,9,13,1,4,11,15,10"
14222,commdev-image-keyboard-response,459,977632,learnblock2,1002.7000000476837,img/planet12_right.png,12,Community 2,NA,TRUE,j,j,NA,NA,NA,NA,6,"3,7,5,14,6,2,8,12,9,13,1,4,11,15,10"
14222,commdev-image-keyboard-response,460,978885,learnblock2,1230.2999999523163,img/planet9_left.png,9,Community 2,NA,TRUE,f,f,NA,NA,NA,NA,6,"3,7,5,14,6,2,8,12,9,13,1,4,11,15,10"
14222,commdev-image-keyboard-response,461,980138,learnblock2,970.3999998569489,img/planet12_right.png,12,Community 2,NA,TRUE,j,j,NA,NA,NA,NA,6,"3,7,5,14,6,2,8,12,9,13,1,4,11,15,10"
14222,commdev-image-keyboard-response,462,981391,learnblock2,757.6000001430511,img/planet8_right.png,8,Community 2,NA,TRUE,j,j,NA,NA,NA,NA,6,"3,7,5,14,6,2,8,12,9,13,1,4,11,15,10"
14222,commdev-image-keyboard-response,463,982642,learnblock2,944.9000000953674,img/planet2_left.png,2,Community 2,NA,TRUE,f,f,NA,NA,NA,NA,6,"3,7,5,14,6,2,8,12,9,13,1,4,11,15,10"
14222,commdev-image-keyboard-response,464,983895,learnblock2,1100.5,img/planet8_right.png,8,Community 2,NA,FALSE,f,j,NA,NA,NA,NA,6,"3,7,5,14,6,2,8,12,9,13,1,4,11,15,10"
14222,commdev-image-keyboard-response,465,985149,learnblock2,776,img/planet9_left.png,9,Community 2,NA,TRUE,f,f,NA,NA,NA,NA,6,"3,7,5,14,6,2,8,12,9,13,1,4,11,15,10"
14222,commdev-image-keyboard-response,466,986402,learnblock2,314.30000019073486,img/planet13_right.png,13,Community 2,NA,TRUE,j,j,NA,NA,NA,NA,6,"3,7,5,14,6,2,8,12,9,13,1,4,11,15,10"
14222,commdev-image-keyboard-response,467,987655,learnblock2,788.4000000953674,img/planet12_left.png,12,Community 2,NA,TRUE,f,f,NA,NA,NA,NA,6,"3,7,5,14,6,2,8,12,9,13,1,4,11,15,10"
14222,commdev-image-keyboard-response,468,988909,learnblock2,959.2000000476837,img/planet9_right.png,9,Community 2,NA,TRUE,j,j,NA,NA,NA,NA,6,"3,7,5,14,6,2,8,12,9,13,1,4,11,15,10"
14222,commdev-image-keyboard-response,469,990162,learnblock2,945.7999999523163,img/planet2_right.png,2,Community 2,NA,TRUE,j,j,NA,NA,NA,NA,6,"3,7,5,14,6,2,8,12,9,13,1,4,11,15,10"
14222,commdev-image-keyboard-response,470,991414,learnblock2,877.5,img/planet9_left.png,9,Community 2,NA,TRUE,f,f,NA,NA,NA,NA,6,"3,7,5,14,6,2,8,12,9,13,1,4,11,15,10"
14222,commdev-image-keyboard-response,471,992668,learnblock2,null,img/planet2_right.png,2,Community 2,NA,FALSE,null,j,NA,NA,NA,NA,6,"3,7,5,14,6,2,8,12,9,13,1,4,11,15,10"
14222,commdev-image-keyboard-response,472,993922,learnblock2,211.10000014305115,img/planet14_right.png,14,Community 1,NA,TRUE,j,j,NA,NA,NA,NA,6,"3,7,5,14,6,2,8,12,9,13,1,4,11,15,10"
14222,commdev-image-keyboard-response,473,995175,learnblock2,965.7000000476837,img/planet7_left.png,7,Community 1,NA,TRUE,f,f,NA,NA,NA,NA,6,"3,7,5,14,6,2,8,12,9,13,1,4,11,15,10"
14222,commdev-image-keyboard-response,474,996429,learnblock2,919.7000000476837,img/planet5_right.png,5,Community 1,NA,TRUE,j,j,NA,NA,NA,NA,6,"3,7,5,14,6,2,8,12,9,13,1,4,11,15,10"
14222,commdev-image-keyboard-response,475,997682,learnblock2,1058.2000000476837,img/planet14_right.png,14,Community 1,NA,TRUE,j,j,NA,NA,NA,NA,6,"3,7,5,14,6,2,8,12,9,13,1,4,11,15,10"
14222,commdev-image-keyboard-response,476,998934,learnblock2,909.2999999523163,img/planet5_right.png,5,Community 1,NA,TRUE,j,j,NA,NA,NA,NA,6,"3,7,5,14,6,2,8,12,9,13,1,4,11,15,10"
14222,commdev-image-keyboard-response,477,1000187,learnblock2,961,img/planet3_left.png,3,Community 1,NA,TRUE,f,f,NA,NA,NA,NA,6,"3,7,5,14,6,2,8,12,9,13,1,4,11,15,10"
14222,commdev-image-keyboard-response,478,1001439,learnblock2,724,img/planet6_right.png,6,Community 1,NA,TRUE,j,j,NA,NA,NA,NA,6,"3,7,5,14,6,2,8,12,9,13,1,4,11,15,10"
14222,commdev-image-keyboard-response,479,1002693,learnblock2,791.9000000953674,img/planet1_right.png,1,Community 3,NA,TRUE,j,j,NA,NA,NA,NA,6,"3,7,5,14,6,2,8,12,9,13,1,4,11,15,10"
14222,commdev-image-keyboard-response,480,1003945,learnblock2,818.2000000476837,img/planet11_right.png,11,Community 3,NA,TRUE,j,j,NA,NA,NA,NA,6,"3,7,5,14,6,2,8,12,9,13,1,4,11,15,10"
14222,commdev-image-keyboard-response,481,1005206,learnblock2,685.8000001907349,img/planet10_right.png,10,Community 3,NA,TRUE,j,j,NA,NA,NA,NA,6,"3,7,5,14,6,2,8,12,9,13,1,4,11,15,10"
14222,commdev-image-keyboard-response,482,1006459,learnblock2,929,img/planet4_right.png,4,Community 3,NA,TRUE,j,j,NA,NA,NA,NA,6,"3,7,5,14,6,2,8,12,9,13,1,4,11,15,10"
14222,commdev-image-keyboard-response,483,1007711,learnblock2,1012.2000000476837,img/planet15_left.png,15,Community 3,NA,TRUE,f,f,NA,NA,NA,NA,6,"3,7,5,14,6,2,8,12,9,13,1,4,11,15,10"
14222,commdev-image-keyboard-response,484,1008964,learnblock2,679.7000000476837,img/planet1_left.png,1,Community 3,NA,TRUE,f,f,NA,NA,NA,NA,6,"3,7,5,14,6,2,8,12,9,13,1,4,11,15,10"
14222,commdev-image-keyboard-response,485,1010217,learnblock2,546.7999999523163,img/planet11_right.png,11,Community 3,NA,FALSE,f,j,NA,NA,NA,NA,6,"3,7,5,14,6,2,8,12,9,13,1,4,11,15,10"
14222,commdev-image-keyboard-response,486,1011470,learnblock2,null,img/planet1_right.png,1,Community 3,NA,FALSE,null,j,NA,NA,NA,NA,6,"3,7,5,14,6,2,8,12,9,13,1,4,11,15,10"
14222,commdev-image-keyboard-response,487,1012723,learnblock2,353.39999985694885,img/planet6_left.png,6,Community 1,NA,FALSE,j,f,NA,NA,NA,NA,6,"3,7,5,14,6,2,8,12,9,13,1,4,11,15,10"
14222,commdev-image-keyboard-response,488,1013975,learnblock2,972.7999999523163,img/planet5_right.png,5,Community 1,NA,TRUE,j,j,NA,NA,NA,NA,6,"3,7,5,14,6,2,8,12,9,13,1,4,11,15,10"
14222,commdev-image-keyboard-response,489,1015228,learnblock2,872,img/planet6_right.png,6,Community 1,NA,TRUE,j,j,NA,NA,NA,NA,6,"3,7,5,14,6,2,8,12,9,13,1,4,11,15,10"
14222,commdev-image-keyboard-response,490,1016481,learnblock2,890.7999999523163,img/planet5_left.png,5,Community 1,NA,TRUE,f,f,NA,NA,NA,NA,6,"3,7,5,14,6,2,8,12,9,13,1,4,11,15,10"
14222,commdev-image-keyboard-response,491,1017735,learnblock2,1190,img/planet6_right.png,6,Community 1,NA,TRUE,j,j,NA,NA,NA,NA,6,"3,7,5,14,6,2,8,12,9,13,1,4,11,15,10"
14222,commdev-image-keyboard-response,492,1018987,learnblock2,751.6000001430511,img/planet3_right.png,3,Community 1,NA,TRUE,j,j,NA,NA,NA,NA,6,"3,7,5,14,6,2,8,12,9,13,1,4,11,15,10"
14222,commdev-image-keyboard-response,493,1020240,learnblock2,627.7999999523163,img/planet14_left.png,14,Community 1,NA,FALSE,j,f,NA,NA,NA,NA,6,"3,7,5,14,6,2,8,12,9,13,1,4,11,15,10"
14222,commdev-image-keyboard-response,494,1021492,learnblock2,743.2999999523163,img/planet2_right.png,2,Community 2,NA,TRUE,j,j,NA,NA,NA,NA,6,"3,7,5,14,6,2,8,12,9,13,1,4,11,15,10"
14222,commdev-image-keyboard-response,495,1022745,learnblock2,619,img/planet9_right.png,9,Community 2,NA,TRUE,j,j,NA,NA,NA,NA,6,"3,7,5,14,6,2,8,12,9,13,1,4,11,15,10"
14222,commdev-image-keyboard-response,496,1024007,learnblock2,943,img/planet13_right.png,13,Community 2,NA,TRUE,j,j,NA,NA,NA,NA,6,"3,7,5,14,6,2,8,12,9,13,1,4,11,15,10"
14222,commdev-image-keyboard-response,497,1025260,learnblock2,752.2999999523163,img/planet8_right.png,8,Community 2,NA,TRUE,j,j,NA,NA,NA,NA,6,"3,7,5,14,6,2,8,12,9,13,1,4,11,15,10"
14222,commdev-image-keyboard-response,498,1026513,learnblock2,731.5999999046326,img/planet9_right.png,9,Community 2,NA,TRUE,j,j,NA,NA,NA,NA,6,"3,7,5,14,6,2,8,12,9,13,1,4,11,15,10"
14222,commdev-image-keyboard-response,499,1027766,learnblock2,694,img/planet8_left.png,8,Community 2,NA,TRUE,f,f,NA,NA,NA,NA,6,"3,7,5,14,6,2,8,12,9,13,1,4,11,15,10"
14222,commdev-image-keyboard-response,500,1029019,learnblock2,761,img/planet13_right.png,13,Community 2,NA,TRUE,j,j,NA,NA,NA,NA,6,"3,7,5,14,6,2,8,12,9,13,1,4,11,15,10"
14222,commdev-image-keyboard-response,501,1030272,learnblock2,907.7000000476837,img/planet12_right.png,12,Community 2,NA,TRUE,j,j,NA,NA,NA,NA,6,"3,7,5,14,6,2,8,12,9,13,1,4,11,15,10"
14222,commdev-image-keyboard-response,502,1031524,learnblock2,1014.9000000953674,img/planet4_left.png,4,Community 3,NA,TRUE,f,f,NA,NA,NA,NA,6,"3,7,5,14,6,2,8,12,9,13,1,4,11,15,10"
14222,commdev-image-keyboard-response,503,1032778,learnblock2,754.4000000953674,img/planet10_right.png,10,Community 3,NA,FALSE,f,j,NA,NA,NA,NA,6,"3,7,5,14,6,2,8,12,9,13,1,4,11,15,10"
14222,commdev-image-keyboard-response,504,1034031,learnblock2,958,img/planet1_right.png,1,Community 3,NA,FALSE,f,j,NA,NA,NA,NA,6,"3,7,5,14,6,2,8,12,9,13,1,4,11,15,10"
14222,commdev-image-keyboard-response,505,1035284,learnblock2,1080.3999998569489,img/planet11_right.png,11,Community 3,NA,TRUE,j,j,NA,NA,NA,NA,6,"3,7,5,14,6,2,8,12,9,13,1,4,11,15,10"
14222,commdev-image-keyboard-response,506,1036537,learnblock2,602.7999999523163,img/planet15_right.png,15,Community 3,NA,TRUE,j,j,NA,NA,NA,NA,6,"3,7,5,14,6,2,8,12,9,13,1,4,11,15,10"
14222,commdev-image-keyboard-response,507,1037790,learnblock2,813.7999999523163,img/planet1_right.png,1,Community 3,NA,TRUE,j,j,NA,NA,NA,NA,6,"3,7,5,14,6,2,8,12,9,13,1,4,11,15,10"
14222,commdev-image-keyboard-response,508,1039045,learnblock2,697,img/planet11_left.png,11,Community 3,NA,TRUE,f,f,NA,NA,NA,NA,6,"3,7,5,14,6,2,8,12,9,13,1,4,11,15,10"
14222,commdev-image-keyboard-response,509,1040298,learnblock2,586.4000000953674,img/planet4_left.png,4,Community 3,NA,FALSE,j,f,NA,NA,NA,NA,6,"3,7,5,14,6,2,8,12,9,13,1,4,11,15,10"
14222,commdev-image-keyboard-response,510,1041550,learnblock2,741.2999999523163,img/planet11_left.png,11,Community 3,NA,FALSE,j,f,NA,NA,NA,NA,6,"3,7,5,14,6,2,8,12,9,13,1,4,11,15,10"
14222,commdev-image-keyboard-response,511,1042803,learnblock2,880.7999999523163,img/planet1_right.png,1,Community 3,NA,FALSE,f,j,NA,NA,NA,NA,6,"3,7,5,14,6,2,8,12,9,13,1,4,11,15,10"
14222,commdev-image-keyboard-response,512,1044055,learnblock2,788,img/planet10_left.png,10,Community 3,NA,TRUE,f,f,NA,NA,NA,NA,6,"3,7,5,14,6,2,8,12,9,13,1,4,11,15,10"
14222,commdev-image-keyboard-response,513,1045307,learnblock2,391.89999985694885,img/planet1_right.png,1,Community 3,NA,TRUE,j,j,NA,NA,NA,NA,6,"3,7,5,14,6,2,8,12,9,13,1,4,11,15,10"
14222,commdev-image-keyboard-response,514,1046560,learnblock2,667,img/planet11_left.png,11,Community 3,NA,TRUE,f,f,NA,NA,NA,NA,6,"3,7,5,14,6,2,8,12,9,13,1,4,11,15,10"
14222,commdev-image-keyboard-response,515,1047812,learnblock2,527.1000001430511,img/planet15_left.png,15,Community 3,NA,FALSE,j,f,NA,NA,NA,NA,6,"3,7,5,14,6,2,8,12,9,13,1,4,11,15,10"
14222,commdev-image-keyboard-response,516,1049064,learnblock2,966.1000001430511,img/planet4_left.png,4,Community 3,NA,TRUE,f,f,NA,NA,NA,NA,6,"3,7,5,14,6,2,8,12,9,13,1,4,11,15,10"
14222,commdev-image-keyboard-response,517,1050318,learnblock2,846.3999998569489,img/planet10_left.png,10,Community 3,NA,TRUE,f,f,NA,NA,NA,NA,6,"3,7,5,14,6,2,8,12,9,13,1,4,11,15,10"
14222,commdev-image-keyboard-response,518,1051570,learnblock2,785.2000000476837,img/planet11_left.png,11,Community 3,NA,TRUE,f,f,NA,NA,NA,NA,6,"3,7,5,14,6,2,8,12,9,13,1,4,11,15,10"
14222,commdev-image-keyboard-response,519,1052826,learnblock2,637.2999999523163,img/planet15_right.png,15,Community 3,NA,TRUE,j,j,NA,NA,NA,NA,6,"3,7,5,14,6,2,8,12,9,13,1,4,11,15,10"
14222,commdev-image-keyboard-response,520,1054078,learnblock2,965.2000000476837,img/planet1_left.png,1,Community 3,NA,FALSE,j,f,NA,NA,NA,NA,6,"3,7,5,14,6,2,8,12,9,13,1,4,11,15,10"
14222,commdev-image-keyboard-response,521,1055332,learnblock2,16.40000009536743,img/planet15_right.png,15,Community 3,NA,FALSE,f,j,NA,NA,NA,NA,6,"3,7,5,14,6,2,8,12,9,13,1,4,11,15,10"
14222,commdev-image-keyboard-response,522,1056585,learnblock2,698.2000000476837,img/planet10_left.png,10,Community 3,NA,TRUE,f,f,NA,NA,NA,NA,6,"3,7,5,14,6,2,8,12,9,13,1,4,11,15,10"
14222,commdev-image-keyboard-response,523,1057837,learnblock2,758.2999999523163,img/planet11_left.png,11,Community 3,NA,FALSE,j,f,NA,NA,NA,NA,6,"3,7,5,14,6,2,8,12,9,13,1,4,11,15,10"
14222,commdev-image-keyboard-response,524,1059091,learnblock2,9.100000143051147,img/planet10_right.png,10,Community 3,NA,FALSE,f,j,NA,NA,NA,NA,6,"3,7,5,14,6,2,8,12,9,13,1,4,11,15,10"
14222,commdev-image-keyboard-response,525,1060344,learnblock2,708,img/planet4_left.png,4,Community 3,NA,FALSE,j,f,NA,NA,NA,NA,6,"3,7,5,14,6,2,8,12,9,13,1,4,11,15,10"
14222,commdev-image-keyboard-response,526,1061596,learnblock2,1022.8999998569489,img/planet10_left.png,10,Community 3,NA,TRUE,f,f,NA,NA,NA,NA,6,"3,7,5,14,6,2,8,12,9,13,1,4,11,15,10"
14222,commdev-image-keyboard-response,527,1062849,learnblock2,1034.2000000476837,img/planet4_right.png,4,Community 3,NA,TRUE,j,j,NA,NA,NA,NA,6,"3,7,5,14,6,2,8,12,9,13,1,4,11,15,10"
14222,commdev-image-keyboard-response,528,1064106,learnblock2,1180.9000000953674,img/planet15_left.png,15,Community 3,NA,FALSE,j,f,NA,NA,NA,NA,6,"3,7,5,14,6,2,8,12,9,13,1,4,11,15,10"
14222,commdev-image-keyboard-response,529,1065360,learnblock2,1084.7999999523163,img/planet11_left.png,11,Community 3,NA,TRUE,f,f,NA,NA,NA,NA,6,"3,7,5,14,6,2,8,12,9,13,1,4,11,15,10"
14222,commdev-image-keyboard-response,530,1066614,learnblock2,782.7999999523163,img/planet1_left.png,1,Community 3,NA,TRUE,f,f,NA,NA,NA,NA,6,"3,7,5,14,6,2,8,12,9,13,1,4,11,15,10"
14222,commdev-image-keyboard-response,531,1067868,learnblock2,863.5,img/planet10_right.png,10,Community 3,NA,TRUE,j,j,NA,NA,NA,NA,6,"3,7,5,14,6,2,8,12,9,13,1,4,11,15,10"
14222,commdev-image-keyboard-response,532,1069121,learnblock2,826.6000001430511,img/planet15_left.png,15,Community 3,NA,TRUE,f,f,NA,NA,NA,NA,6,"3,7,5,14,6,2,8,12,9,13,1,4,11,15,10"
14222,commdev-image-keyboard-response,533,1070374,learnblock2,874.8000001907349,img/planet10_right.png,10,Community 3,NA,TRUE,j,j,NA,NA,NA,NA,6,"3,7,5,14,6,2,8,12,9,13,1,4,11,15,10"
14222,commdev-image-keyboard-response,534,1071627,learnblock2,848.2999999523163,img/planet11_right.png,11,Community 3,NA,TRUE,j,j,NA,NA,NA,NA,6,"3,7,5,14,6,2,8,12,9,13,1,4,11,15,10"
14222,commdev-image-keyboard-response,535,1072881,learnblock2,915.7999999523163,img/planet15_left.png,15,Community 3,NA,FALSE,j,f,NA,NA,NA,NA,6,"3,7,5,14,6,2,8,12,9,13,1,4,11,15,10"
14222,commdev-image-keyboard-response,536,1074133,learnblock2,893.5999999046326,img/planet10_right.png,10,Community 3,NA,FALSE,f,j,NA,NA,NA,NA,6,"3,7,5,14,6,2,8,12,9,13,1,4,11,15,10"
14222,commdev-image-keyboard-response,537,1075386,learnblock2,961.3999998569489,img/planet11_left.png,11,Community 3,NA,TRUE,f,f,NA,NA,NA,NA,6,"3,7,5,14,6,2,8,12,9,13,1,4,11,15,10"
14222,commdev-image-keyboard-response,538,1076637,learnblock2,54.80000019073486,img/planet4_left.png,4,Community 3,NA,TRUE,f,f,NA,NA,NA,NA,6,"3,7,5,14,6,2,8,12,9,13,1,4,11,15,10"
14222,commdev-image-keyboard-response,539,1077891,learnblock2,1089.0999999046326,img/planet12_right.png,12,Community 2,NA,TRUE,j,j,NA,NA,NA,NA,6,"3,7,5,14,6,2,8,12,9,13,1,4,11,15,10"
14222,commdev-image-keyboard-response,540,1079144,learnblock2,1219.6000001430511,img/planet8_left.png,8,Community 2,NA,FALSE,j,f,NA,NA,NA,NA,6,"3,7,5,14,6,2,8,12,9,13,1,4,11,15,10"
14222,commdev-image-keyboard-response,541,1080397,learnblock2,966.2000000476837,img/planet13_left.png,13,Community 2,NA,FALSE,j,f,NA,NA,NA,NA,6,"3,7,5,14,6,2,8,12,9,13,1,4,11,15,10"
14222,commdev-image-keyboard-response,542,1081662,learnblock2,953.7000000476837,img/planet8_right.png,8,Community 2,NA,TRUE,j,j,NA,NA,NA,NA,6,"3,7,5,14,6,2,8,12,9,13,1,4,11,15,10"
14222,commdev-image-keyboard-response,543,1082915,learnblock2,865.5,img/planet12_left.png,12,Community 2,NA,TRUE,f,f,NA,NA,NA,NA,6,"3,7,5,14,6,2,8,12,9,13,1,4,11,15,10"
14222,commdev-image-keyboard-response,544,1084168,learnblock2,875.1000001430511,img/planet8_left.png,8,Community 2,NA,TRUE,f,f,NA,NA,NA,NA,6,"3,7,5,14,6,2,8,12,9,13,1,4,11,15,10"
14222,commdev-image-keyboard-response,545,1085423,learnblock2,794.7000000476837,img/planet9_left.png,9,Community 2,NA,TRUE,f,f,NA,NA,NA,NA,6,"3,7,5,14,6,2,8,12,9,13,1,4,11,15,10"
14222,commdev-image-keyboard-response,546,1086675,learnblock2,936.4000000953674,img/planet12_left.png,12,Community 2,NA,TRUE,f,f,NA,NA,NA,NA,6,"3,7,5,14,6,2,8,12,9,13,1,4,11,15,10"
14222,commdev-image-keyboard-response,547,1087929,learnblock2,827.1000001430511,img/planet13_left.png,13,Community 2,NA,TRUE,f,f,NA,NA,NA,NA,6,"3,7,5,14,6,2,8,12,9,13,1,4,11,15,10"
14222,commdev-image-keyboard-response,548,1089181,learnblock2,717.2000000476837,img/planet12_right.png,12,Community 2,NA,FALSE,f,j,NA,NA,NA,NA,6,"3,7,5,14,6,2,8,12,9,13,1,4,11,15,10"
14222,commdev-image-keyboard-response,549,1090434,learnblock2,857.0999999046326,img/planet4_right.png,4,Community 3,NA,TRUE,j,j,NA,NA,NA,NA,6,"3,7,5,14,6,2,8,12,9,13,1,4,11,15,10"
14222,commdev-image-keyboard-response,550,1091688,learnblock2,707.7000000476837,img/planet15_right.png,15,Community 3,NA,TRUE,j,j,NA,NA,NA,NA,6,"3,7,5,14,6,2,8,12,9,13,1,4,11,15,10"
14222,commdev-image-keyboard-response,551,1092941,learnblock2,750.5,img/planet4_right.png,4,Community 3,NA,TRUE,j,j,NA,NA,NA,NA,6,"3,7,5,14,6,2,8,12,9,13,1,4,11,15,10"
14222,commdev-image-keyboard-response,552,1094193,learnblock2,906.7000000476837,img/planet15_right.png,15,Community 3,NA,TRUE,j,j,NA,NA,NA,NA,6,"3,7,5,14,6,2,8,12,9,13,1,4,11,15,10"
14222,commdev-image-keyboard-response,553,1095446,learnblock2,709.2999999523163,img/planet10_left.png,10,Community 3,NA,TRUE,f,f,NA,NA,NA,NA,6,"3,7,5,14,6,2,8,12,9,13,1,4,11,15,10"
14222,commdev-image-keyboard-response,554,1096699,learnblock2,848.6000001430511,img/planet15_left.png,15,Community 3,NA,TRUE,f,f,NA,NA,NA,NA,6,"3,7,5,14,6,2,8,12,9,13,1,4,11,15,10"
14222,commdev-image-keyboard-response,555,1097952,learnblock2,740.2999999523163,img/planet1_right.png,1,Community 3,NA,TRUE,j,j,NA,NA,NA,NA,6,"3,7,5,14,6,2,8,12,9,13,1,4,11,15,10"
14222,commdev-image-keyboard-response,556,1099204,learnblock2,799.2000000476837,img/planet10_left.png,10,Community 3,NA,TRUE,f,f,NA,NA,NA,NA,6,"3,7,5,14,6,2,8,12,9,13,1,4,11,15,10"
14222,commdev-image-keyboard-response,557,1100457,learnblock2,666.1999998092651,img/planet4_left.png,4,Community 3,NA,FALSE,j,f,NA,NA,NA,NA,6,"3,7,5,14,6,2,8,12,9,13,1,4,11,15,10"
14222,commdev-image-keyboard-response,558,1101709,learnblock2,438.19999980926514,img/planet10_left.png,10,Community 3,NA,TRUE,f,f,NA,NA,NA,NA,6,"3,7,5,14,6,2,8,12,9,13,1,4,11,15,10"
14222,commdev-image-keyboard-response,559,1102961,learnblock2,785.7000000476837,img/planet11_right.png,11,Community 3,NA,TRUE,j,j,NA,NA,NA,NA,6,"3,7,5,14,6,2,8,12,9,13,1,4,11,15,10"
14222,commdev-image-keyboard-response,560,1104215,learnblock2,null,img/planet10_right.png,10,Community 3,NA,FALSE,null,j,NA,NA,NA,NA,6,"3,7,5,14,6,2,8,12,9,13,1,4,11,15,10"
14222,commdev-image-keyboard-response,561,1105467,learnblock2,23.700000047683716,img/planet11_left.png,11,Community 3,NA,FALSE,j,f,NA,NA,NA,NA,6,"3,7,5,14,6,2,8,12,9,13,1,4,11,15,10"
14222,commdev-image-keyboard-response,562,1106720,learnblock2,null,img/planet4_right.png,4,Community 3,NA,FALSE,null,j,NA,NA,NA,NA,6,"3,7,5,14,6,2,8,12,9,13,1,4,11,15,10"
14222,commdev-image-keyboard-response,563,1107973,learnblock2,166.70000004768372,img/planet15_left.png,15,Community 3,NA,FALSE,j,f,NA,NA,NA,NA,6,"3,7,5,14,6,2,8,12,9,13,1,4,11,15,10"
14222,commdev-image-keyboard-response,564,1109225,learnblock2,498.09999990463257,img/planet1_left.png,1,Community 3,NA,FALSE,j,f,NA,NA,NA,NA,6,"3,7,5,14,6,2,8,12,9,13,1,4,11,15,10"
14222,commdev-image-keyboard-response,565,1110478,learnblock2,829.6000001430511,img/planet10_left.png,10,Community 3,NA,TRUE,f,f,NA,NA,NA,NA,6,"3,7,5,14,6,2,8,12,9,13,1,4,11,15,10"
14222,commdev-image-keyboard-response,566,1111730,learnblock2,1000.7000000476837,img/planet11_left.png,11,Community 3,NA,TRUE,f,f,NA,NA,NA,NA,6,"3,7,5,14,6,2,8,12,9,13,1,4,11,15,10"
14222,commdev-image-keyboard-response,567,1112983,learnblock2,676.2000000476837,img/planet10_left.png,10,Community 3,NA,TRUE,f,f,NA,NA,NA,NA,6,"3,7,5,14,6,2,8,12,9,13,1,4,11,15,10"
14222,commdev-image-keyboard-response,568,1114236,learnblock2,967.2999999523163,img/planet15_right.png,15,Community 3,NA,TRUE,j,j,NA,NA,NA,NA,6,"3,7,5,14,6,2,8,12,9,13,1,4,11,15,10"
14222,commdev-image-keyboard-response,569,1115490,learnblock2,690.1999998092651,img/planet10_right.png,10,Community 3,NA,TRUE,j,j,NA,NA,NA,NA,6,"3,7,5,14,6,2,8,12,9,13,1,4,11,15,10"
14222,commdev-image-keyboard-response,570,1116743,learnblock2,420.60000014305115,img/planet4_right.png,4,Community 3,NA,TRUE,j,j,NA,NA,NA,NA,6,"3,7,5,14,6,2,8,12,9,13,1,4,11,15,10"
14222,commdev-image-keyboard-response,571,1117995,learnblock2,463.59999990463257,img/planet15_left.png,15,Community 3,NA,FALSE,j,f,NA,NA,NA,NA,6,"3,7,5,14,6,2,8,12,9,13,1,4,11,15,10"
14222,commdev-image-keyboard-response,572,1119262,learnblock2,19.200000047683716,img/planet11_right.png,11,Community 3,NA,FALSE,f,j,NA,NA,NA,NA,6,"3,7,5,14,6,2,8,12,9,13,1,4,11,15,10"
14222,commdev-image-keyboard-response,573,1120514,learnblock2,1089,img/planet10_left.png,10,Community 3,NA,TRUE,f,f,NA,NA,NA,NA,6,"3,7,5,14,6,2,8,12,9,13,1,4,11,15,10"
14222,commdev-image-keyboard-response,574,1121767,learnblock2,980.2999999523163,img/planet11_left.png,11,Community 3,NA,TRUE,f,f,NA,NA,NA,NA,6,"3,7,5,14,6,2,8,12,9,13,1,4,11,15,10"
14222,commdev-image-keyboard-response,575,1123021,learnblock2,711,img/planet10_left.png,10,Community 3,NA,TRUE,f,f,NA,NA,NA,NA,6,"3,7,5,14,6,2,8,12,9,13,1,4,11,15,10"
14222,commdev-image-keyboard-response,576,1124274,learnblock2,945.2000000476837,img/planet11_right.png,11,Community 3,NA,TRUE,j,j,NA,NA,NA,NA,6,"3,7,5,14,6,2,8,12,9,13,1,4,11,15,10"
14222,commdev-image-keyboard-response,577,1125528,learnblock2,null,img/planet4_right.png,4,Community 3,NA,FALSE,null,j,NA,NA,NA,NA,6,"3,7,5,14,6,2,8,12,9,13,1,4,11,15,10"
14222,commdev-image-keyboard-response,578,1126781,learnblock2,663,img/planet15_left.png,15,Community 3,NA,FALSE,j,f,NA,NA,NA,NA,6,"3,7,5,14,6,2,8,12,9,13,1,4,11,15,10"
14222,commdev-image-keyboard-response,579,1128033,learnblock2,873.8000001907349,img/planet4_left.png,4,Community 3,NA,TRUE,f,f,NA,NA,NA,NA,6,"3,7,5,14,6,2,8,12,9,13,1,4,11,15,10"
14222,commdev-image-keyboard-response,580,1129285,learnblock2,942.1999998092651,img/planet12_left.png,12,Community 2,NA,TRUE,f,f,NA,NA,NA,NA,6,"3,7,5,14,6,2,8,12,9,13,1,4,11,15,10"
14222,commdev-image-keyboard-response,581,1130538,learnblock2,889.5,img/planet4_left.png,4,Community 3,NA,TRUE,f,f,NA,NA,NA,NA,6,"3,7,5,14,6,2,8,12,9,13,1,4,11,15,10"
14222,commdev-image-keyboard-response,582,1131791,learnblock2,524.5999999046326,img/planet12_right.png,12,Community 2,NA,TRUE,j,j,NA,NA,NA,NA,6,"3,7,5,14,6,2,8,12,9,13,1,4,11,15,10"
14222,commdev-image-keyboard-response,583,1133047,learnblock2,663.5999999046326,img/planet4_left.png,4,Community 3,NA,FALSE,j,f,NA,NA,NA,NA,6,"3,7,5,14,6,2,8,12,9,13,1,4,11,15,10"
14222,commdev-image-keyboard-response,584,1134308,learnblock2,null,img/planet11_left.png,11,Community 3,NA,FALSE,null,f,NA,NA,NA,NA,6,"3,7,5,14,6,2,8,12,9,13,1,4,11,15,10"
14222,commdev-image-keyboard-response,585,1135561,learnblock2,1226.7999999523163,img/planet15_left.png,15,Community 3,NA,TRUE,f,f,NA,NA,NA,NA,6,"3,7,5,14,6,2,8,12,9,13,1,4,11,15,10"
