subject_id,trial_type,trial_index,time_elapsed,block,rt,stimulus,planet,community,response,correct,key_press,learning_correct_response,parse,init_locations,final_locations,browser_interactions,num_comp,planet_map
14214,commdev-instructions,7,46382,NA,1484.8000000715256,"<p>In this game, you will be shown a 3x3 grid of patterns.</p> <p>The last one in the bottom right-hand corner, <strong>will be missing:</strong></p> <div style='width: 700px;'><div style='float: top;'><img style='width: 200px;' src='practice/p1_M1.png'></img><p class='small'>You need to select<strong> which of the four possible patterns </strong>along the bottom<strong> fits into the gap:</strong></p></div><div style='float: top;'><img style='width: 300px;' src='practice/p1_T1.png'></img></div><br>",NA,NA,NA,NA,NA,NA,NA,NA,NA,1,6,"14,3,15,8,7,13,12,1,2,9,6,5,10,11,4"
14214,commdev-instructions,8,67258,NA,2370,"<p>Try to be as fast and as accurate as you can be.</p> <p>If you cannot solve the puzzle then you should guess - you will not be penalised for an incorrect answer.</p> <p>The task contains a shuffled mix of easy, medium and hard puzzles.</p> <p>You will have <strong>30 seconds</strong> to complete each puzzle.</p><br>",NA,NA,NA,NA,NA,NA,NA,NA,NA,1,6,"14,3,15,8,7,13,12,1,2,9,6,5,10,11,4"
14214,commdev-instructions,15,99094,NA,1085.5,<p><strong>Success!</strong></p> <p>You seem to be getting the hang of this...</p> <p>Let's move on to the real trials.</p><br>,NA,NA,NA,NA,NA,NA,NA,NA,NA,1,6,"14,3,15,8,7,13,12,1,2,9,6,5,10,11,4"
14214,commdev-instructions,87,592520,NA,1475.3000000715256,"<p>In this game, you are a scientist on board a space shuttle. </p><p> On each mission, you will visit planets all across the universe.</p><img src=""img/controlroom.jpg"" width=300vw>",NA,NA,NA,NA,NA,NA,NA,NA,NA,1,6,"14,3,15,8,7,13,12,1,2,9,6,5,10,11,4"
14214,commdev-instructions,88,596657,NA,2061.399999976158,"<p>Here are a few planets you might see:</p><img src=""img/practice1.png"" width=200vw><img src=""img/practice2.png"" width=200vw><img src=""img/practice3.png"" width=200vw>",NA,NA,NA,NA,NA,NA,NA,NA,NA,1,6,"14,3,15,8,7,13,12,1,2,9,6,5,10,11,4"
14214,commdev-instructions,89,606326,NA,2260.7999999523163,"<p>Your job as a scientist is to record which direction the winds are moving on each planet.</p><p>There are two types of wind directions:</p><img src=""img/practice1_left.png"" width=200vw><img src=""img/practice1_right.png"" width=200vw>",NA,NA,NA,NA,NA,NA,NA,NA,NA,1,6,"14,3,15,8,7,13,12,1,2,9,6,5,10,11,4"
14214,commdev-instructions,90,615063,NA,3858.399999976158,"<p>If the winds are moving this way, press the letter <strong>F</strong> on the keyboard as fast as you can.</p><img src=""img/leftwind.png"" width=250vw>",NA,NA,NA,NA,NA,NA,NA,NA,NA,1,6,"14,3,15,8,7,13,12,1,2,9,6,5,10,11,4"
14214,commdev-instructions,91,622497,NA,2932.2000000476837,"<p>If the winds are moving this way, press the letter <strong>J</strong> on the keyboard as fast as you can.</p><img src=""img/rightwind.png"" width=350vw>",NA,NA,NA,NA,NA,NA,NA,NA,NA,1,6,"14,3,15,8,7,13,12,1,2,9,6,5,10,11,4"
14214,commdev-instructions,92,628993,NA,2078.600000023842,<p>You will have 1 second to respond. Try to respond before the time runs out!,NA,NA,NA,NA,NA,NA,NA,NA,NA,1,6,"14,3,15,8,7,13,12,1,2,9,6,5,10,11,4"
14214,commdev-instructions,93,637818,NA,3393.100000023842,<p>The planets you will visit will look different from each other.</p><p>You should respond <strong>only</strong> based on wind direction.,NA,NA,NA,NA,NA,NA,NA,NA,NA,1,6,"14,3,15,8,7,13,12,1,2,9,6,5,10,11,4"
14214,commdev-instructions,94,653636,NA,10631.200000047684,"<p> Ready to start the practice round? </p><p> Remember, press <strong>F</strong> or <strong>J</strong> depending on the wind direction.<br><img src=""img/categorize_planet_example.png""",NA,NA,NA,NA,NA,NA,NA,NA,NA,1,6,"14,3,15,8,7,13,12,1,2,9,6,5,10,11,4"
14214,commdev-instructions,106,708273,NA,2407.100000023842,"<p>Great, now try a short practice mission. </p><p> This time, you will have 1 second to respond and you won't know whether you pressed the right or wrong key for each planet.</p>",NA,NA,NA,NA,NA,NA,NA,NA,NA,1,6,"14,3,15,8,7,13,12,1,2,9,6,5,10,11,4"
14214,commdev-image-keyboard-response,107,709631,practice,null,img/practice4_right.png,NA,Number not found in mappings,NA,FALSE,null,j,NA,NA,NA,1,6,"14,3,15,8,7,13,12,1,2,9,6,5,10,11,4"
14214,commdev-image-keyboard-response,108,710888,practice,144.69999992847443,img/practice1_right.png,NA,Number not found in mappings,NA,TRUE,j,j,NA,NA,NA,1,6,"14,3,15,8,7,13,12,1,2,9,6,5,10,11,4"
14214,commdev-image-keyboard-response,109,712153,practice,1122.4000000953674,img/practice4_left.png,NA,Number not found in mappings,NA,TRUE,f,f,NA,NA,NA,1,6,"14,3,15,8,7,13,12,1,2,9,6,5,10,11,4"
14214,commdev-image-keyboard-response,110,713412,practice,1189.1000000238419,img/practice2_left.png,NA,Number not found in mappings,NA,TRUE,f,f,NA,NA,NA,1,6,"14,3,15,8,7,13,12,1,2,9,6,5,10,11,4"
14214,commdev-image-keyboard-response,111,714669,practice,null,img/practice4_right.png,NA,Number not found in mappings,NA,FALSE,null,j,NA,NA,NA,1,6,"14,3,15,8,7,13,12,1,2,9,6,5,10,11,4"
14214,commdev-image-keyboard-response,112,715930,practice,66.40000009536743,img/practice3_left.png,NA,Number not found in mappings,NA,FALSE,j,f,NA,NA,NA,1,6,"14,3,15,8,7,13,12,1,2,9,6,5,10,11,4"
14214,commdev-image-keyboard-response,113,717194,practice,853.1000000238419,img/practice4_right.png,NA,Number not found in mappings,NA,TRUE,j,j,NA,NA,NA,1,6,"14,3,15,8,7,13,12,1,2,9,6,5,10,11,4"
14214,commdev-image-keyboard-response,114,718449,practice,756,img/practice1_right.png,NA,Number not found in mappings,NA,TRUE,j,j,NA,NA,NA,1,6,"14,3,15,8,7,13,12,1,2,9,6,5,10,11,4"
14214,commdev-instructions,115,730557,NA,2552.2999999523163,"<p>Great job with the practice round.</p><p>During real missions, you won't know whether you pressed the right or wrong key for each planet.</p><p>But between missions, we will tell you how you did overall.</p>",NA,NA,NA,NA,NA,NA,NA,NA,NA,1,6,"14,3,15,8,7,13,12,1,2,9,6,5,10,11,4"
14214,commdev-instructions,116,740944,NA,2139.2000000476837,<p>Try your best! You will be paid a bonus based on how many correct responses you make!</p><p>Responses that are too slow will not count toward your bonus.</p>,NA,NA,NA,NA,NA,NA,NA,NA,NA,1,6,"14,3,15,8,7,13,12,1,2,9,6,5,10,11,4"
14214,commdev-instructions,117,748592,NA,1437.1000000238419,"<p>You are almost ready to start the real game.</p><p> First, we are going to ask you some questions about how the game works.</p>",NA,NA,NA,NA,NA,NA,NA,NA,NA,1,6,"14,3,15,8,7,13,12,1,2,9,6,5,10,11,4"
14214,commdev-instructions,126,846551,NA,2944.899999976158,"<p> Nice work! It is now time to start the real game.<p></p>You will go on two missions to record wind directions of different planets.<p></p>Each one will take about 5 minutes. You will get to take a break between missions.<p><p> Remember, press <strong>F</strong> or <strong>J</strong> depending on the wind direction. Good luck!<br><img src=""img/categorize_planet_example.png""",NA,NA,NA,NA,NA,NA,NA,NA,NA,1,6,"14,3,15,8,7,13,12,1,2,9,6,5,10,11,4"
14214,commdev-image-keyboard-response,128,856877,learnblock1,null,img/planet1_right.png,1,Community 2,NA,FALSE,null,j,NA,NA,NA,1,6,"14,3,15,8,7,13,12,1,2,9,6,5,10,11,4"
14214,commdev-image-keyboard-response,129,858135,learnblock1,159.60000002384186,img/planet9_right.png,9,Community 2,NA,TRUE,j,j,NA,NA,NA,1,6,"14,3,15,8,7,13,12,1,2,9,6,5,10,11,4"
14214,commdev-image-keyboard-response,130,859388,learnblock1,848.8999999761581,img/planet2_right.png,2,Community 2,NA,TRUE,j,j,NA,NA,NA,1,6,"14,3,15,8,7,13,12,1,2,9,6,5,10,11,4"
14214,commdev-image-keyboard-response,131,860650,learnblock1,803.2999999523163,img/planet13_right.png,13,Community 2,NA,TRUE,j,j,NA,NA,NA,1,6,"14,3,15,8,7,13,12,1,2,9,6,5,10,11,4"
14214,commdev-image-keyboard-response,132,861907,learnblock1,704.8999999761581,img/planet9_right.png,9,Community 2,NA,TRUE,j,j,NA,NA,NA,1,6,"14,3,15,8,7,13,12,1,2,9,6,5,10,11,4"
14214,commdev-image-keyboard-response,133,863170,learnblock1,575.2000000476837,img/planet2_left.png,2,Community 2,NA,TRUE,f,f,NA,NA,NA,1,6,"14,3,15,8,7,13,12,1,2,9,6,5,10,11,4"
14214,commdev-image-keyboard-response,134,864436,learnblock1,1213.2000000476837,img/planet12_right.png,12,Community 2,NA,TRUE,j,j,NA,NA,NA,1,6,"14,3,15,8,7,13,12,1,2,9,6,5,10,11,4"
14214,commdev-image-keyboard-response,135,865689,learnblock1,899.2000000476837,img/planet13_right.png,13,Community 2,NA,TRUE,j,j,NA,NA,NA,1,6,"14,3,15,8,7,13,12,1,2,9,6,5,10,11,4"
14214,commdev-image-keyboard-response,136,866945,learnblock1,1078.6999999284744,img/planet12_right.png,12,Community 2,NA,TRUE,j,j,NA,NA,NA,1,6,"14,3,15,8,7,13,12,1,2,9,6,5,10,11,4"
14214,commdev-image-keyboard-response,137,868211,learnblock1,844.9000000953674,img/planet2_left.png,2,Community 2,NA,TRUE,f,f,NA,NA,NA,1,6,"14,3,15,8,7,13,12,1,2,9,6,5,10,11,4"
14214,commdev-image-keyboard-response,138,869473,learnblock1,924.5,img/planet9_left.png,9,Community 2,NA,TRUE,f,f,NA,NA,NA,1,6,"14,3,15,8,7,13,12,1,2,9,6,5,10,11,4"
14214,commdev-image-keyboard-response,139,870727,learnblock1,822.2999999523163,img/planet12_left.png,12,Community 2,NA,TRUE,f,f,NA,NA,NA,1,6,"14,3,15,8,7,13,12,1,2,9,6,5,10,11,4"
14214,commdev-image-keyboard-response,140,871987,learnblock1,683,img/planet13_left.png,13,Community 2,NA,TRUE,f,f,NA,NA,NA,1,6,"14,3,15,8,7,13,12,1,2,9,6,5,10,11,4"
14214,commdev-image-keyboard-response,141,873244,learnblock1,785.6000000238419,img/planet9_left.png,9,Community 2,NA,FALSE,j,f,NA,NA,NA,1,6,"14,3,15,8,7,13,12,1,2,9,6,5,10,11,4"
14214,commdev-image-keyboard-response,142,874496,learnblock1,null,img/planet12_right.png,12,Community 2,NA,FALSE,null,j,NA,NA,NA,1,6,"14,3,15,8,7,13,12,1,2,9,6,5,10,11,4"
14214,commdev-image-keyboard-response,143,875748,learnblock1,69.20000004768372,img/planet9_left.png,9,Community 2,NA,FALSE,j,f,NA,NA,NA,1,6,"14,3,15,8,7,13,12,1,2,9,6,5,10,11,4"
14214,commdev-image-keyboard-response,144,877000,learnblock1,273.5,img/planet2_left.png,2,Community 2,NA,TRUE,f,f,NA,NA,NA,1,6,"14,3,15,8,7,13,12,1,2,9,6,5,10,11,4"
14214,commdev-image-keyboard-response,145,878252,learnblock1,136.5,img/planet1_left.png,1,Community 2,NA,TRUE,f,f,NA,NA,NA,1,6,"14,3,15,8,7,13,12,1,2,9,6,5,10,11,4"
14214,commdev-image-keyboard-response,146,879504,learnblock1,820.1999999284744,img/planet5_left.png,5,Community 3,NA,FALSE,j,f,NA,NA,NA,1,6,"14,3,15,8,7,13,12,1,2,9,6,5,10,11,4"
14214,commdev-image-keyboard-response,147,880756,learnblock1,555,img/planet4_right.png,4,Community 3,NA,FALSE,f,j,NA,NA,NA,1,6,"14,3,15,8,7,13,12,1,2,9,6,5,10,11,4"
14214,commdev-image-keyboard-response,148,882008,learnblock1,794.5,img/planet10_right.png,10,Community 3,NA,TRUE,j,j,NA,NA,NA,1,6,"14,3,15,8,7,13,12,1,2,9,6,5,10,11,4"
14214,commdev-image-keyboard-response,149,883259,learnblock1,599.1000000238419,img/planet6_left.png,6,Community 3,NA,FALSE,j,f,NA,NA,NA,1,6,"14,3,15,8,7,13,12,1,2,9,6,5,10,11,4"
14214,commdev-image-keyboard-response,150,884511,learnblock1,960,img/planet7_right.png,7,Community 1,NA,TRUE,j,j,NA,NA,NA,1,6,"14,3,15,8,7,13,12,1,2,9,6,5,10,11,4"
14214,commdev-image-keyboard-response,151,885764,learnblock1,889.8999999761581,img/planet15_right.png,15,Community 1,NA,TRUE,j,j,NA,NA,NA,1,6,"14,3,15,8,7,13,12,1,2,9,6,5,10,11,4"
14214,commdev-image-keyboard-response,152,887016,learnblock1,846.1000000238419,img/planet8_left.png,8,Community 1,NA,FALSE,j,f,NA,NA,NA,1,6,"14,3,15,8,7,13,12,1,2,9,6,5,10,11,4"
14214,commdev-image-keyboard-response,153,888268,learnblock1,756.6000000238419,img/planet14_right.png,14,Community 1,NA,TRUE,j,j,NA,NA,NA,1,6,"14,3,15,8,7,13,12,1,2,9,6,5,10,11,4"
14214,commdev-image-keyboard-response,154,889519,learnblock1,1013.3999999761581,img/planet7_left.png,7,Community 1,NA,TRUE,f,f,NA,NA,NA,1,6,"14,3,15,8,7,13,12,1,2,9,6,5,10,11,4"
14214,commdev-image-keyboard-response,155,890772,learnblock1,701.2000000476837,img/planet3_right.png,3,Community 1,NA,TRUE,j,j,NA,NA,NA,1,6,"14,3,15,8,7,13,12,1,2,9,6,5,10,11,4"
14214,commdev-image-keyboard-response,156,892024,learnblock1,632.1000000238419,img/planet15_right.png,15,Community 1,NA,TRUE,j,j,NA,NA,NA,1,6,"14,3,15,8,7,13,12,1,2,9,6,5,10,11,4"
14214,commdev-image-keyboard-response,157,893277,learnblock1,594.8999999761581,img/planet3_right.png,3,Community 1,NA,TRUE,j,j,NA,NA,NA,1,6,"14,3,15,8,7,13,12,1,2,9,6,5,10,11,4"
14214,commdev-image-keyboard-response,158,894529,learnblock1,null,img/planet14_right.png,14,Community 1,NA,FALSE,null,j,NA,NA,NA,1,6,"14,3,15,8,7,13,12,1,2,9,6,5,10,11,4"
14214,commdev-image-keyboard-response,159,895781,learnblock1,37.5,img/planet8_left.png,8,Community 1,NA,TRUE,f,f,NA,NA,NA,1,6,"14,3,15,8,7,13,12,1,2,9,6,5,10,11,4"
14214,commdev-image-keyboard-response,160,897033,learnblock1,179.20000004768372,img/planet13_right.png,13,Community 2,NA,TRUE,j,j,NA,NA,NA,1,6,"14,3,15,8,7,13,12,1,2,9,6,5,10,11,4"
14214,commdev-image-keyboard-response,161,898285,learnblock1,822,img/planet8_right.png,8,Community 1,NA,TRUE,j,j,NA,NA,NA,1,6,"14,3,15,8,7,13,12,1,2,9,6,5,10,11,4"
14214,commdev-image-keyboard-response,162,899537,learnblock1,900.7000000476837,img/planet3_right.png,3,Community 1,NA,TRUE,j,j,NA,NA,NA,1,6,"14,3,15,8,7,13,12,1,2,9,6,5,10,11,4"
14214,commdev-image-keyboard-response,163,900788,learnblock1,658.0999999046326,img/planet15_right.png,15,Community 1,NA,FALSE,f,j,NA,NA,NA,1,6,"14,3,15,8,7,13,12,1,2,9,6,5,10,11,4"
14214,commdev-image-keyboard-response,164,902040,learnblock1,626.7999999523163,img/planet7_right.png,7,Community 1,NA,TRUE,j,j,NA,NA,NA,1,6,"14,3,15,8,7,13,12,1,2,9,6,5,10,11,4"
14214,commdev-image-keyboard-response,165,903291,learnblock1,911,img/planet15_right.png,15,Community 1,NA,TRUE,j,j,NA,NA,NA,1,6,"14,3,15,8,7,13,12,1,2,9,6,5,10,11,4"
14214,commdev-image-keyboard-response,166,904543,learnblock1,715.6000000238419,img/planet14_right.png,14,Community 1,NA,FALSE,f,j,NA,NA,NA,1,6,"14,3,15,8,7,13,12,1,2,9,6,5,10,11,4"
14214,commdev-image-keyboard-response,167,905795,learnblock1,720.8999999761581,img/planet7_left.png,7,Community 1,NA,FALSE,j,f,NA,NA,NA,1,6,"14,3,15,8,7,13,12,1,2,9,6,5,10,11,4"
14214,commdev-image-keyboard-response,168,907046,learnblock1,978,img/planet3_left.png,3,Community 1,NA,TRUE,f,f,NA,NA,NA,1,6,"14,3,15,8,7,13,12,1,2,9,6,5,10,11,4"
14214,commdev-image-keyboard-response,169,908298,learnblock1,605.2000000476837,img/planet15_left.png,15,Community 1,NA,TRUE,f,f,NA,NA,NA,1,6,"14,3,15,8,7,13,12,1,2,9,6,5,10,11,4"
14214,commdev-image-keyboard-response,170,909550,learnblock1,570.6999999284744,img/planet7_left.png,7,Community 1,NA,TRUE,f,f,NA,NA,NA,1,6,"14,3,15,8,7,13,12,1,2,9,6,5,10,11,4"
14214,commdev-image-keyboard-response,171,910801,learnblock1,371.7000000476837,img/planet3_right.png,3,Community 1,NA,FALSE,f,j,NA,NA,NA,1,6,"14,3,15,8,7,13,12,1,2,9,6,5,10,11,4"
14214,commdev-image-keyboard-response,172,912054,learnblock1,754.1000000238419,img/planet14_left.png,14,Community 1,NA,FALSE,j,f,NA,NA,NA,1,6,"14,3,15,8,7,13,12,1,2,9,6,5,10,11,4"
14214,commdev-image-keyboard-response,173,913306,learnblock1,647,img/planet8_left.png,8,Community 1,NA,FALSE,j,f,NA,NA,NA,1,6,"14,3,15,8,7,13,12,1,2,9,6,5,10,11,4"
14214,commdev-image-keyboard-response,174,914560,learnblock1,839.2999999523163,img/planet15_right.png,15,Community 1,NA,TRUE,j,j,NA,NA,NA,1,6,"14,3,15,8,7,13,12,1,2,9,6,5,10,11,4"
14214,commdev-image-keyboard-response,175,915812,learnblock1,1057.8000000715256,img/planet8_right.png,8,Community 1,NA,TRUE,j,j,NA,NA,NA,1,6,"14,3,15,8,7,13,12,1,2,9,6,5,10,11,4"
14214,commdev-image-keyboard-response,176,917064,learnblock1,1122.2000000476837,img/planet14_right.png,14,Community 1,NA,TRUE,j,j,NA,NA,NA,1,6,"14,3,15,8,7,13,12,1,2,9,6,5,10,11,4"
14214,commdev-image-keyboard-response,177,918316,learnblock1,808.1000000238419,img/planet3_right.png,3,Community 1,NA,TRUE,j,j,NA,NA,NA,1,6,"14,3,15,8,7,13,12,1,2,9,6,5,10,11,4"
14214,commdev-image-keyboard-response,178,919568,learnblock1,1216,img/planet8_left.png,8,Community 1,NA,TRUE,f,f,NA,NA,NA,1,6,"14,3,15,8,7,13,12,1,2,9,6,5,10,11,4"
14214,commdev-image-keyboard-response,179,920819,learnblock1,873.7999999523163,img/planet3_left.png,3,Community 1,NA,FALSE,j,f,NA,NA,NA,1,6,"14,3,15,8,7,13,12,1,2,9,6,5,10,11,4"
14214,commdev-image-keyboard-response,180,922071,learnblock1,648.3999999761581,img/planet7_left.png,7,Community 1,NA,FALSE,j,f,NA,NA,NA,1,6,"14,3,15,8,7,13,12,1,2,9,6,5,10,11,4"
14214,commdev-image-keyboard-response,181,923323,learnblock1,775,img/planet15_right.png,15,Community 1,NA,TRUE,j,j,NA,NA,NA,1,6,"14,3,15,8,7,13,12,1,2,9,6,5,10,11,4"
14214,commdev-image-keyboard-response,182,924575,learnblock1,741.2000000476837,img/planet14_right.png,14,Community 1,NA,FALSE,f,j,NA,NA,NA,1,6,"14,3,15,8,7,13,12,1,2,9,6,5,10,11,4"
14214,commdev-image-keyboard-response,183,925827,learnblock1,655.7999999523163,img/planet8_left.png,8,Community 1,NA,FALSE,j,f,NA,NA,NA,1,6,"14,3,15,8,7,13,12,1,2,9,6,5,10,11,4"
14214,commdev-image-keyboard-response,184,927078,learnblock1,331.5,img/planet3_right.png,3,Community 1,NA,TRUE,j,j,NA,NA,NA,1,6,"14,3,15,8,7,13,12,1,2,9,6,5,10,11,4"
14214,commdev-image-keyboard-response,185,928331,learnblock1,314.89999997615814,img/planet7_right.png,7,Community 1,NA,TRUE,j,j,NA,NA,NA,1,6,"14,3,15,8,7,13,12,1,2,9,6,5,10,11,4"
14214,commdev-image-keyboard-response,186,929582,learnblock1,343.89999997615814,img/planet15_right.png,15,Community 1,NA,TRUE,j,j,NA,NA,NA,1,6,"14,3,15,8,7,13,12,1,2,9,6,5,10,11,4"
14214,commdev-image-keyboard-response,187,930834,learnblock1,448.5,img/planet3_right.png,3,Community 1,NA,TRUE,j,j,NA,NA,NA,1,6,"14,3,15,8,7,13,12,1,2,9,6,5,10,11,4"
14214,commdev-image-keyboard-response,188,932085,learnblock1,528.7999999523163,img/planet15_right.png,15,Community 1,NA,TRUE,j,j,NA,NA,NA,1,6,"14,3,15,8,7,13,12,1,2,9,6,5,10,11,4"
14214,commdev-image-keyboard-response,189,933337,learnblock1,735.3999999761581,img/planet3_left.png,3,Community 1,NA,FALSE,j,f,NA,NA,NA,1,6,"14,3,15,8,7,13,12,1,2,9,6,5,10,11,4"
14214,commdev-image-keyboard-response,190,934589,learnblock1,1025,img/planet8_right.png,8,Community 1,NA,FALSE,f,j,NA,NA,NA,1,6,"14,3,15,8,7,13,12,1,2,9,6,5,10,11,4"
14214,commdev-image-keyboard-response,191,935842,learnblock1,1021.7999999523163,img/planet15_right.png,15,Community 1,NA,TRUE,j,j,NA,NA,NA,1,6,"14,3,15,8,7,13,12,1,2,9,6,5,10,11,4"
14214,commdev-image-keyboard-response,192,937093,learnblock1,725.7999999523163,img/planet3_right.png,3,Community 1,NA,TRUE,j,j,NA,NA,NA,1,6,"14,3,15,8,7,13,12,1,2,9,6,5,10,11,4"
14214,commdev-image-keyboard-response,193,938344,learnblock1,769.3999999761581,img/planet15_right.png,15,Community 1,NA,TRUE,j,j,NA,NA,NA,1,6,"14,3,15,8,7,13,12,1,2,9,6,5,10,11,4"
14214,commdev-image-keyboard-response,194,939597,learnblock1,863,img/planet7_right.png,7,Community 1,NA,TRUE,j,j,NA,NA,NA,1,6,"14,3,15,8,7,13,12,1,2,9,6,5,10,11,4"
14214,commdev-image-keyboard-response,195,940848,learnblock1,706.2999999523163,img/planet3_right.png,3,Community 1,NA,TRUE,j,j,NA,NA,NA,1,6,"14,3,15,8,7,13,12,1,2,9,6,5,10,11,4"
14214,commdev-image-keyboard-response,196,942100,learnblock1,804.2000000476837,img/planet14_right.png,14,Community 1,NA,TRUE,j,j,NA,NA,NA,1,6,"14,3,15,8,7,13,12,1,2,9,6,5,10,11,4"
14214,commdev-image-keyboard-response,197,943351,learnblock1,686.5,img/planet8_right.png,8,Community 1,NA,TRUE,j,j,NA,NA,NA,1,6,"14,3,15,8,7,13,12,1,2,9,6,5,10,11,4"
14214,commdev-image-keyboard-response,198,944603,learnblock1,904.1999999284744,img/planet13_right.png,13,Community 2,NA,TRUE,j,j,NA,NA,NA,1,6,"14,3,15,8,7,13,12,1,2,9,6,5,10,11,4"
14214,commdev-image-keyboard-response,199,945855,learnblock1,896,img/planet9_right.png,9,Community 2,NA,TRUE,j,j,NA,NA,NA,1,6,"14,3,15,8,7,13,12,1,2,9,6,5,10,11,4"
14214,commdev-image-keyboard-response,200,947107,learnblock1,1175,img/planet12_left.png,12,Community 2,NA,TRUE,f,f,NA,NA,NA,1,6,"14,3,15,8,7,13,12,1,2,9,6,5,10,11,4"
14214,commdev-image-keyboard-response,201,948358,learnblock1,894.7999999523163,img/planet9_right.png,9,Community 2,NA,FALSE,f,j,NA,NA,NA,1,6,"14,3,15,8,7,13,12,1,2,9,6,5,10,11,4"
14214,commdev-image-keyboard-response,202,949610,learnblock1,838.1000000238419,img/planet12_left.png,12,Community 2,NA,FALSE,j,f,NA,NA,NA,1,6,"14,3,15,8,7,13,12,1,2,9,6,5,10,11,4"
14214,commdev-image-keyboard-response,203,950873,learnblock1,863.1000000238419,img/planet13_right.png,13,Community 2,NA,TRUE,j,j,NA,NA,NA,1,6,"14,3,15,8,7,13,12,1,2,9,6,5,10,11,4"
14214,commdev-image-keyboard-response,204,952124,learnblock1,697.6999999284744,img/planet2_left.png,2,Community 2,NA,TRUE,f,f,NA,NA,NA,1,6,"14,3,15,8,7,13,12,1,2,9,6,5,10,11,4"
14214,commdev-image-keyboard-response,205,953377,learnblock1,780.1000000238419,img/planet12_left.png,12,Community 2,NA,TRUE,f,f,NA,NA,NA,1,6,"14,3,15,8,7,13,12,1,2,9,6,5,10,11,4"
14214,commdev-image-keyboard-response,206,954628,learnblock1,827.3999999761581,img/planet9_right.png,9,Community 2,NA,TRUE,j,j,NA,NA,NA,1,6,"14,3,15,8,7,13,12,1,2,9,6,5,10,11,4"
14214,commdev-image-keyboard-response,207,955880,learnblock1,707.3999999761581,img/planet2_left.png,2,Community 2,NA,TRUE,f,f,NA,NA,NA,1,6,"14,3,15,8,7,13,12,1,2,9,6,5,10,11,4"
14214,commdev-image-keyboard-response,208,957132,learnblock1,585.7999999523163,img/planet9_right.png,9,Community 2,NA,TRUE,j,j,NA,NA,NA,1,6,"14,3,15,8,7,13,12,1,2,9,6,5,10,11,4"
14214,commdev-image-keyboard-response,209,958384,learnblock1,596,img/planet12_left.png,12,Community 2,NA,TRUE,f,f,NA,NA,NA,1,6,"14,3,15,8,7,13,12,1,2,9,6,5,10,11,4"
14214,commdev-image-keyboard-response,210,959636,learnblock1,535.9000000953674,img/planet13_right.png,13,Community 2,NA,TRUE,j,j,NA,NA,NA,1,6,"14,3,15,8,7,13,12,1,2,9,6,5,10,11,4"
14214,commdev-image-keyboard-response,211,960888,learnblock1,566.5,img/planet2_left.png,2,Community 2,NA,TRUE,f,f,NA,NA,NA,1,6,"14,3,15,8,7,13,12,1,2,9,6,5,10,11,4"
14214,commdev-image-keyboard-response,212,962139,learnblock1,659.5,img/planet12_right.png,12,Community 2,NA,TRUE,j,j,NA,NA,NA,1,6,"14,3,15,8,7,13,12,1,2,9,6,5,10,11,4"
14214,commdev-image-keyboard-response,213,963390,learnblock1,906.6000000238419,img/planet13_right.png,13,Community 2,NA,TRUE,j,j,NA,NA,NA,1,6,"14,3,15,8,7,13,12,1,2,9,6,5,10,11,4"
14214,commdev-image-keyboard-response,214,964642,learnblock1,771.2000000476837,img/planet9_right.png,9,Community 2,NA,TRUE,j,j,NA,NA,NA,1,6,"14,3,15,8,7,13,12,1,2,9,6,5,10,11,4"
14214,commdev-image-keyboard-response,215,965894,learnblock1,886.5,img/planet2_right.png,2,Community 2,NA,FALSE,f,j,NA,NA,NA,1,6,"14,3,15,8,7,13,12,1,2,9,6,5,10,11,4"
14214,commdev-image-keyboard-response,216,967146,learnblock1,992,img/planet9_left.png,9,Community 2,NA,TRUE,f,f,NA,NA,NA,1,6,"14,3,15,8,7,13,12,1,2,9,6,5,10,11,4"
14214,commdev-image-keyboard-response,217,968397,learnblock1,798.2000000476837,img/planet1_right.png,1,Community 2,NA,TRUE,j,j,NA,NA,NA,1,6,"14,3,15,8,7,13,12,1,2,9,6,5,10,11,4"
14214,commdev-image-keyboard-response,218,969649,learnblock1,562,img/planet12_right.png,12,Community 2,NA,TRUE,j,j,NA,NA,NA,1,6,"14,3,15,8,7,13,12,1,2,9,6,5,10,11,4"
14214,commdev-image-keyboard-response,219,970901,learnblock1,301,img/planet2_left.png,2,Community 2,NA,FALSE,j,f,NA,NA,NA,1,6,"14,3,15,8,7,13,12,1,2,9,6,5,10,11,4"
14214,commdev-image-keyboard-response,220,972153,learnblock1,373.10000002384186,img/planet13_left.png,13,Community 2,NA,FALSE,j,f,NA,NA,NA,1,6,"14,3,15,8,7,13,12,1,2,9,6,5,10,11,4"
14214,commdev-image-keyboard-response,221,973404,learnblock1,535.6999999284744,img/planet2_right.png,2,Community 2,NA,TRUE,j,j,NA,NA,NA,1,6,"14,3,15,8,7,13,12,1,2,9,6,5,10,11,4"
14214,commdev-image-keyboard-response,222,974657,learnblock1,669.1999999284744,img/planet13_right.png,13,Community 2,NA,TRUE,j,j,NA,NA,NA,1,6,"14,3,15,8,7,13,12,1,2,9,6,5,10,11,4"
14214,commdev-image-keyboard-response,223,975909,learnblock1,586.2000000476837,img/planet2_left.png,2,Community 2,NA,FALSE,j,f,NA,NA,NA,1,6,"14,3,15,8,7,13,12,1,2,9,6,5,10,11,4"
14214,commdev-image-keyboard-response,224,977160,learnblock1,744.8000000715256,img/planet1_left.png,1,Community 2,NA,FALSE,j,f,NA,NA,NA,1,6,"14,3,15,8,7,13,12,1,2,9,6,5,10,11,4"
14214,commdev-image-keyboard-response,225,978412,learnblock1,847.2000000476837,img/planet5_right.png,5,Community 3,NA,FALSE,f,j,NA,NA,NA,1,6,"14,3,15,8,7,13,12,1,2,9,6,5,10,11,4"
14214,commdev-image-keyboard-response,226,979664,learnblock1,903,img/planet10_right.png,10,Community 3,NA,TRUE,j,j,NA,NA,NA,1,6,"14,3,15,8,7,13,12,1,2,9,6,5,10,11,4"
14214,commdev-image-keyboard-response,227,980916,learnblock1,796.1000000238419,img/planet4_left.png,4,Community 3,NA,FALSE,j,f,NA,NA,NA,1,6,"14,3,15,8,7,13,12,1,2,9,6,5,10,11,4"
14214,commdev-image-keyboard-response,228,982168,learnblock1,634.1000000238419,img/planet6_left.png,6,Community 3,NA,FALSE,j,f,NA,NA,NA,1,6,"14,3,15,8,7,13,12,1,2,9,6,5,10,11,4"
14214,commdev-image-keyboard-response,229,983419,learnblock1,620.5,img/planet7_right.png,7,Community 1,NA,TRUE,j,j,NA,NA,NA,1,6,"14,3,15,8,7,13,12,1,2,9,6,5,10,11,4"
14214,commdev-image-keyboard-response,230,984671,learnblock1,626.8999999761581,img/planet6_right.png,6,Community 3,NA,FALSE,f,j,NA,NA,NA,1,6,"14,3,15,8,7,13,12,1,2,9,6,5,10,11,4"
14214,commdev-image-keyboard-response,231,985922,learnblock1,338.2000000476837,img/planet10_right.png,10,Community 3,NA,TRUE,j,j,NA,NA,NA,1,6,"14,3,15,8,7,13,12,1,2,9,6,5,10,11,4"
14214,commdev-image-keyboard-response,232,987175,learnblock1,333.2999999523163,img/planet4_right.png,4,Community 3,NA,FALSE,f,j,NA,NA,NA,1,6,"14,3,15,8,7,13,12,1,2,9,6,5,10,11,4"
14214,commdev-image-keyboard-response,233,988428,learnblock1,129.39999997615814,img/planet6_right.png,6,Community 3,NA,TRUE,j,j,NA,NA,NA,1,6,"14,3,15,8,7,13,12,1,2,9,6,5,10,11,4"
14214,commdev-image-keyboard-response,234,989679,learnblock1,42.700000047683716,img/planet7_left.png,7,Community 1,NA,FALSE,j,f,NA,NA,NA,1,6,"14,3,15,8,7,13,12,1,2,9,6,5,10,11,4"
14214,commdev-image-keyboard-response,235,990931,learnblock1,765.1999999284744,img/planet14_left.png,14,Community 1,NA,FALSE,j,f,NA,NA,NA,1,6,"14,3,15,8,7,13,12,1,2,9,6,5,10,11,4"
14214,commdev-image-keyboard-response,236,992183,learnblock1,904,img/planet15_right.png,15,Community 1,NA,FALSE,f,j,NA,NA,NA,1,6,"14,3,15,8,7,13,12,1,2,9,6,5,10,11,4"
14214,commdev-image-keyboard-response,237,993435,learnblock1,779.8999999761581,img/planet7_left.png,7,Community 1,NA,FALSE,j,f,NA,NA,NA,1,6,"14,3,15,8,7,13,12,1,2,9,6,5,10,11,4"
14214,commdev-image-keyboard-response,238,994687,learnblock1,703,img/planet14_left.png,14,Community 1,NA,FALSE,j,f,NA,NA,NA,1,6,"14,3,15,8,7,13,12,1,2,9,6,5,10,11,4"
14214,commdev-image-keyboard-response,239,995939,learnblock1,869,img/planet3_left.png,3,Community 1,NA,FALSE,j,f,NA,NA,NA,1,6,"14,3,15,8,7,13,12,1,2,9,6,5,10,11,4"
14214,commdev-image-keyboard-response,240,997191,learnblock1,849.3999999761581,img/planet8_left.png,8,Community 1,NA,FALSE,j,f,NA,NA,NA,1,6,"14,3,15,8,7,13,12,1,2,9,6,5,10,11,4"
14214,commdev-image-keyboard-response,241,998444,learnblock1,697.2000000476837,img/planet3_left.png,3,Community 1,NA,TRUE,f,f,NA,NA,NA,1,6,"14,3,15,8,7,13,12,1,2,9,6,5,10,11,4"
14214,commdev-image-keyboard-response,242,999697,learnblock1,579.5,img/planet8_left.png,8,Community 1,NA,TRUE,f,f,NA,NA,NA,1,6,"14,3,15,8,7,13,12,1,2,9,6,5,10,11,4"
14214,commdev-image-keyboard-response,243,1000949,learnblock1,227.09999990463257,img/planet15_left.png,15,Community 1,NA,TRUE,f,f,NA,NA,NA,1,6,"14,3,15,8,7,13,12,1,2,9,6,5,10,11,4"
14214,commdev-image-keyboard-response,244,1002201,learnblock1,980.1999999284744,img/planet3_right.png,3,Community 1,NA,FALSE,f,j,NA,NA,NA,1,6,"14,3,15,8,7,13,12,1,2,9,6,5,10,11,4"
14214,commdev-image-keyboard-response,245,1003453,learnblock1,45,img/planet15_right.png,15,Community 1,NA,TRUE,j,j,NA,NA,NA,1,6,"14,3,15,8,7,13,12,1,2,9,6,5,10,11,4"
14214,commdev-image-keyboard-response,246,1004705,learnblock1,44.09999990463257,img/planet14_left.png,14,Community 1,NA,TRUE,f,f,NA,NA,NA,1,6,"14,3,15,8,7,13,12,1,2,9,6,5,10,11,4"
14214,commdev-image-keyboard-response,247,1005958,learnblock1,786.1999999284744,img/planet7_right.png,7,Community 1,NA,TRUE,j,j,NA,NA,NA,1,6,"14,3,15,8,7,13,12,1,2,9,6,5,10,11,4"
14214,commdev-image-keyboard-response,248,1007217,learnblock1,781.5,img/planet6_left.png,6,Community 3,NA,FALSE,j,f,NA,NA,NA,1,6,"14,3,15,8,7,13,12,1,2,9,6,5,10,11,4"
14214,commdev-image-keyboard-response,249,1008469,learnblock1,933.5999999046326,img/planet7_right.png,7,Community 1,NA,TRUE,j,j,NA,NA,NA,1,6,"14,3,15,8,7,13,12,1,2,9,6,5,10,11,4"
14214,commdev-image-keyboard-response,250,1009720,learnblock1,764.1000000238419,img/planet15_right.png,15,Community 1,NA,TRUE,j,j,NA,NA,NA,1,6,"14,3,15,8,7,13,12,1,2,9,6,5,10,11,4"
14214,commdev-image-keyboard-response,251,1010973,learnblock1,794.7999999523163,img/planet14_right.png,14,Community 1,NA,TRUE,j,j,NA,NA,NA,1,6,"14,3,15,8,7,13,12,1,2,9,6,5,10,11,4"
14214,commdev-image-keyboard-response,252,1012225,learnblock1,603.5999999046326,img/planet15_right.png,15,Community 1,NA,TRUE,j,j,NA,NA,NA,1,6,"14,3,15,8,7,13,12,1,2,9,6,5,10,11,4"
14214,commdev-image-keyboard-response,253,1013476,learnblock1,419.7999999523163,img/planet7_left.png,7,Community 1,NA,FALSE,j,f,NA,NA,NA,1,6,"14,3,15,8,7,13,12,1,2,9,6,5,10,11,4"
14214,commdev-image-keyboard-response,254,1014728,learnblock1,408.1999999284744,img/planet15_right.png,15,Community 1,NA,TRUE,j,j,NA,NA,NA,1,6,"14,3,15,8,7,13,12,1,2,9,6,5,10,11,4"
14214,commdev-image-keyboard-response,255,1015980,learnblock1,479.7000000476837,img/planet7_right.png,7,Community 1,NA,FALSE,f,j,NA,NA,NA,1,6,"14,3,15,8,7,13,12,1,2,9,6,5,10,11,4"
14214,commdev-image-keyboard-response,256,1017231,learnblock1,696.6000000238419,img/planet14_left.png,14,Community 1,NA,FALSE,j,f,NA,NA,NA,1,6,"14,3,15,8,7,13,12,1,2,9,6,5,10,11,4"
14214,commdev-image-keyboard-response,257,1018483,learnblock1,919.8999999761581,img/planet7_left.png,7,Community 1,NA,TRUE,f,f,NA,NA,NA,1,6,"14,3,15,8,7,13,12,1,2,9,6,5,10,11,4"
14214,commdev-image-keyboard-response,258,1019734,learnblock1,854,img/planet6_left.png,6,Community 3,NA,TRUE,f,f,NA,NA,NA,1,6,"14,3,15,8,7,13,12,1,2,9,6,5,10,11,4"
14214,commdev-image-keyboard-response,259,1020985,learnblock1,839.1000000238419,img/planet7_right.png,7,Community 1,NA,FALSE,f,j,NA,NA,NA,1,6,"14,3,15,8,7,13,12,1,2,9,6,5,10,11,4"
14214,commdev-image-keyboard-response,260,1022237,learnblock1,1097.8999999761581,img/planet6_left.png,6,Community 3,NA,TRUE,f,f,NA,NA,NA,1,6,"14,3,15,8,7,13,12,1,2,9,6,5,10,11,4"
14214,commdev-image-keyboard-response,261,1023488,learnblock1,1179.3999999761581,img/planet7_left.png,7,Community 1,NA,TRUE,f,f,NA,NA,NA,1,6,"14,3,15,8,7,13,12,1,2,9,6,5,10,11,4"
14214,commdev-image-keyboard-response,262,1024740,learnblock1,894.1999999284744,img/planet15_right.png,15,Community 1,NA,TRUE,j,j,NA,NA,NA,1,6,"14,3,15,8,7,13,12,1,2,9,6,5,10,11,4"
14214,commdev-image-keyboard-response,263,1025993,learnblock1,905.1999999284744,img/planet7_right.png,7,Community 1,NA,TRUE,j,j,NA,NA,NA,1,6,"14,3,15,8,7,13,12,1,2,9,6,5,10,11,4"
14214,commdev-image-keyboard-response,264,1027245,learnblock1,901.5,img/planet6_left.png,6,Community 3,NA,TRUE,f,f,NA,NA,NA,1,6,"14,3,15,8,7,13,12,1,2,9,6,5,10,11,4"
14214,commdev-image-keyboard-response,265,1028497,learnblock1,1026.6999999284744,img/planet11_left.png,11,Community 3,NA,TRUE,f,f,NA,NA,NA,1,6,"14,3,15,8,7,13,12,1,2,9,6,5,10,11,4"
14214,commdev-image-keyboard-response,266,1029748,learnblock1,939.5,img/planet6_left.png,6,Community 3,NA,TRUE,f,f,NA,NA,NA,1,6,"14,3,15,8,7,13,12,1,2,9,6,5,10,11,4"
14214,commdev-image-keyboard-response,267,1031000,learnblock1,833.0999999046326,img/planet10_right.png,10,Community 3,NA,TRUE,j,j,NA,NA,NA,1,6,"14,3,15,8,7,13,12,1,2,9,6,5,10,11,4"
14214,commdev-image-keyboard-response,268,1032252,learnblock1,950,img/planet6_left.png,6,Community 3,NA,TRUE,f,f,NA,NA,NA,1,6,"14,3,15,8,7,13,12,1,2,9,6,5,10,11,4"
14214,commdev-image-keyboard-response,269,1033503,learnblock1,996.6000000238419,img/planet11_left.png,11,Community 3,NA,TRUE,f,f,NA,NA,NA,1,6,"14,3,15,8,7,13,12,1,2,9,6,5,10,11,4"
14214,commdev-image-keyboard-response,270,1034755,learnblock1,1052.1999999284744,img/planet5_left.png,5,Community 3,NA,FALSE,j,f,NA,NA,NA,1,6,"14,3,15,8,7,13,12,1,2,9,6,5,10,11,4"
14214,commdev-image-keyboard-response,271,1036013,learnblock1,986.0999999046326,img/planet1_right.png,1,Community 2,NA,TRUE,j,j,NA,NA,NA,1,6,"14,3,15,8,7,13,12,1,2,9,6,5,10,11,4"
14214,commdev-image-keyboard-response,272,1037265,learnblock1,997.8999999761581,img/planet12_right.png,12,Community 2,NA,TRUE,j,j,NA,NA,NA,1,6,"14,3,15,8,7,13,12,1,2,9,6,5,10,11,4"
14214,commdev-image-keyboard-response,273,1038516,learnblock1,992.5999999046326,img/planet1_left.png,1,Community 2,NA,FALSE,j,f,NA,NA,NA,1,6,"14,3,15,8,7,13,12,1,2,9,6,5,10,11,4"
14214,commdev-image-keyboard-response,274,1039768,learnblock1,1088.5999999046326,img/planet5_left.png,5,Community 3,NA,TRUE,f,f,NA,NA,NA,1,6,"14,3,15,8,7,13,12,1,2,9,6,5,10,11,4"
14214,commdev-image-keyboard-response,275,1041020,learnblock1,1175.1000000238419,img/planet1_right.png,1,Community 2,NA,FALSE,f,j,NA,NA,NA,1,6,"14,3,15,8,7,13,12,1,2,9,6,5,10,11,4"
14214,commdev-image-keyboard-response,276,1042272,learnblock1,null,img/planet5_right.png,5,Community 3,NA,FALSE,null,j,NA,NA,NA,1,6,"14,3,15,8,7,13,12,1,2,9,6,5,10,11,4"
14214,commdev-image-keyboard-response,277,1043524,learnblock1,55.299999952316284,img/planet10_left.png,10,Community 3,NA,FALSE,j,f,NA,NA,NA,1,6,"14,3,15,8,7,13,12,1,2,9,6,5,10,11,4"
14214,commdev-image-keyboard-response,278,1044776,learnblock1,1103.5,img/planet5_right.png,5,Community 3,NA,TRUE,j,j,NA,NA,NA,1,6,"14,3,15,8,7,13,12,1,2,9,6,5,10,11,4"
14214,commdev-image-keyboard-response,279,1046037,learnblock1,910,img/planet10_right.png,10,Community 3,NA,TRUE,j,j,NA,NA,NA,1,6,"14,3,15,8,7,13,12,1,2,9,6,5,10,11,4"
14214,commdev-image-keyboard-response,280,1047289,learnblock1,1034.1000000238419,img/planet4_left.png,4,Community 3,NA,TRUE,f,f,NA,NA,NA,1,6,"14,3,15,8,7,13,12,1,2,9,6,5,10,11,4"
14214,commdev-image-keyboard-response,281,1048540,learnblock1,952.5999999046326,img/planet11_left.png,11,Community 3,NA,FALSE,j,f,NA,NA,NA,1,6,"14,3,15,8,7,13,12,1,2,9,6,5,10,11,4"
14214,commdev-image-keyboard-response,282,1049791,learnblock1,1052.6000000238419,img/planet6_left.png,6,Community 3,NA,TRUE,f,f,NA,NA,NA,1,6,"14,3,15,8,7,13,12,1,2,9,6,5,10,11,4"
14214,commdev-image-keyboard-response,283,1051042,learnblock1,818.5,img/planet10_right.png,10,Community 3,NA,TRUE,j,j,NA,NA,NA,1,6,"14,3,15,8,7,13,12,1,2,9,6,5,10,11,4"
14214,commdev-image-keyboard-response,284,1052294,learnblock1,1041.7999999523163,img/planet6_right.png,6,Community 3,NA,TRUE,j,j,NA,NA,NA,1,6,"14,3,15,8,7,13,12,1,2,9,6,5,10,11,4"
14214,commdev-image-keyboard-response,285,1053545,learnblock1,831.1999999284744,img/planet7_left.png,7,Community 1,NA,TRUE,f,f,NA,NA,NA,1,6,"14,3,15,8,7,13,12,1,2,9,6,5,10,11,4"
14214,commdev-image-keyboard-response,286,1054797,learnblock1,902.1000000238419,img/planet15_right.png,15,Community 1,NA,TRUE,j,j,NA,NA,NA,1,6,"14,3,15,8,7,13,12,1,2,9,6,5,10,11,4"
14214,commdev-image-keyboard-response,287,1056049,learnblock1,1158.1999999284744,img/planet3_left.png,3,Community 1,NA,FALSE,j,f,NA,NA,NA,1,6,"14,3,15,8,7,13,12,1,2,9,6,5,10,11,4"
14214,commdev-image-keyboard-response,288,1057301,learnblock1,986.1999999284744,img/planet7_left.png,7,Community 1,NA,TRUE,f,f,NA,NA,NA,1,6,"14,3,15,8,7,13,12,1,2,9,6,5,10,11,4"
14214,commdev-image-keyboard-response,289,1058552,learnblock1,919.7999999523163,img/planet6_right.png,6,Community 3,NA,TRUE,j,j,NA,NA,NA,1,6,"14,3,15,8,7,13,12,1,2,9,6,5,10,11,4"
14214,commdev-image-keyboard-response,290,1059803,learnblock1,910.6000000238419,img/planet11_left.png,11,Community 3,NA,TRUE,f,f,NA,NA,NA,1,6,"14,3,15,8,7,13,12,1,2,9,6,5,10,11,4"
14214,commdev-image-keyboard-response,291,1061055,learnblock1,903,img/planet4_right.png,4,Community 3,NA,TRUE,j,j,NA,NA,NA,1,6,"14,3,15,8,7,13,12,1,2,9,6,5,10,11,4"
14214,commdev-image-keyboard-response,292,1062307,learnblock1,1128,img/planet11_right.png,11,Community 3,NA,TRUE,j,j,NA,NA,NA,1,6,"14,3,15,8,7,13,12,1,2,9,6,5,10,11,4"
14214,commdev-image-keyboard-response,293,1063560,learnblock1,1096.7999999523163,img/planet4_right.png,4,Community 3,NA,TRUE,j,j,NA,NA,NA,1,6,"14,3,15,8,7,13,12,1,2,9,6,5,10,11,4"
14214,commdev-image-keyboard-response,294,1064811,learnblock1,839.7999999523163,img/planet6_left.png,6,Community 3,NA,TRUE,f,f,NA,NA,NA,1,6,"14,3,15,8,7,13,12,1,2,9,6,5,10,11,4"
14214,commdev-image-keyboard-response,295,1066063,learnblock1,872.7999999523163,img/planet7_right.png,7,Community 1,NA,TRUE,j,j,NA,NA,NA,1,6,"14,3,15,8,7,13,12,1,2,9,6,5,10,11,4"
14214,commdev-image-keyboard-response,296,1067315,learnblock1,1154.1000000238419,img/planet14_left.png,14,Community 1,NA,TRUE,f,f,NA,NA,NA,1,6,"14,3,15,8,7,13,12,1,2,9,6,5,10,11,4"
14214,commdev-image-keyboard-response,297,1068567,learnblock1,1076.0999999046326,img/planet7_right.png,7,Community 1,NA,TRUE,j,j,NA,NA,NA,1,6,"14,3,15,8,7,13,12,1,2,9,6,5,10,11,4"
14214,commdev-image-keyboard-response,298,1069818,learnblock1,974.3999999761581,img/planet14_left.png,14,Community 1,NA,TRUE,f,f,NA,NA,NA,1,6,"14,3,15,8,7,13,12,1,2,9,6,5,10,11,4"
14214,commdev-image-keyboard-response,299,1071070,learnblock1,857.1999999284744,img/planet3_right.png,3,Community 1,NA,TRUE,j,j,NA,NA,NA,1,6,"14,3,15,8,7,13,12,1,2,9,6,5,10,11,4"
14214,commdev-image-keyboard-response,300,1072322,learnblock1,845.5,img/planet14_right.png,14,Community 1,NA,FALSE,f,j,NA,NA,NA,1,6,"14,3,15,8,7,13,12,1,2,9,6,5,10,11,4"
14214,commdev-image-keyboard-response,301,1073574,learnblock1,762.0999999046326,img/planet15_left.png,15,Community 1,NA,FALSE,j,f,NA,NA,NA,1,6,"14,3,15,8,7,13,12,1,2,9,6,5,10,11,4"
14214,commdev-image-keyboard-response,302,1074827,learnblock1,992.1000000238419,img/planet8_right.png,8,Community 1,NA,TRUE,j,j,NA,NA,NA,1,6,"14,3,15,8,7,13,12,1,2,9,6,5,10,11,4"
14214,commdev-image-keyboard-response,303,1076079,learnblock1,867.1999999284744,img/planet15_right.png,15,Community 1,NA,TRUE,j,j,NA,NA,NA,1,6,"14,3,15,8,7,13,12,1,2,9,6,5,10,11,4"
14214,commdev-image-keyboard-response,304,1077331,learnblock1,767.6999999284744,img/planet3_right.png,3,Community 1,NA,TRUE,j,j,NA,NA,NA,1,6,"14,3,15,8,7,13,12,1,2,9,6,5,10,11,4"
14214,commdev-image-keyboard-response,305,1078582,learnblock1,933.5,img/planet15_left.png,15,Community 1,NA,TRUE,f,f,NA,NA,NA,1,6,"14,3,15,8,7,13,12,1,2,9,6,5,10,11,4"
14214,commdev-image-keyboard-response,306,1079834,learnblock1,777.1999999284744,img/planet14_left.png,14,Community 1,NA,FALSE,j,f,NA,NA,NA,1,6,"14,3,15,8,7,13,12,1,2,9,6,5,10,11,4"
14214,commdev-image-keyboard-response,307,1081086,learnblock1,991.2000000476837,img/planet8_left.png,8,Community 1,NA,FALSE,j,f,NA,NA,NA,1,6,"14,3,15,8,7,13,12,1,2,9,6,5,10,11,4"
14214,commdev-image-keyboard-response,308,1082338,learnblock1,1019.3999999761581,img/planet15_right.png,15,Community 1,NA,TRUE,j,j,NA,NA,NA,1,6,"14,3,15,8,7,13,12,1,2,9,6,5,10,11,4"
14214,commdev-image-keyboard-response,309,1083589,learnblock1,879.5,img/planet3_right.png,3,Community 1,NA,FALSE,f,j,NA,NA,NA,1,6,"14,3,15,8,7,13,12,1,2,9,6,5,10,11,4"
14214,commdev-image-keyboard-response,310,1084845,learnblock1,870.7999999523163,img/planet14_left.png,14,Community 1,NA,FALSE,j,f,NA,NA,NA,1,6,"14,3,15,8,7,13,12,1,2,9,6,5,10,11,4"
14214,commdev-image-keyboard-response,311,1086097,learnblock1,null,img/planet3_right.png,3,Community 1,NA,FALSE,null,j,NA,NA,NA,1,6,"14,3,15,8,7,13,12,1,2,9,6,5,10,11,4"
14214,commdev-image-keyboard-response,312,1087349,learnblock1,203.10000002384186,img/planet14_left.png,14,Community 1,NA,FALSE,j,f,NA,NA,NA,1,6,"14,3,15,8,7,13,12,1,2,9,6,5,10,11,4"
14214,commdev-image-keyboard-response,313,1088601,learnblock1,812.0999999046326,img/planet8_left.png,8,Community 1,NA,TRUE,f,f,NA,NA,NA,1,6,"14,3,15,8,7,13,12,1,2,9,6,5,10,11,4"
14214,commdev-image-keyboard-response,314,1089852,learnblock1,831.2999999523163,img/planet3_right.png,3,Community 1,NA,TRUE,j,j,NA,NA,NA,1,6,"14,3,15,8,7,13,12,1,2,9,6,5,10,11,4"
14214,commdev-image-keyboard-response,315,1091104,learnblock1,876.1999999284744,img/planet14_left.png,14,Community 1,NA,TRUE,f,f,NA,NA,NA,1,6,"14,3,15,8,7,13,12,1,2,9,6,5,10,11,4"
14214,commdev-image-keyboard-response,316,1092356,learnblock1,1016.3999999761581,img/planet3_left.png,3,Community 1,NA,TRUE,f,f,NA,NA,NA,1,6,"14,3,15,8,7,13,12,1,2,9,6,5,10,11,4"
14214,commdev-image-keyboard-response,317,1093607,learnblock1,903.0999999046326,img/planet8_left.png,8,Community 1,NA,TRUE,f,f,NA,NA,NA,1,6,"14,3,15,8,7,13,12,1,2,9,6,5,10,11,4"
14214,commdev-image-keyboard-response,318,1094858,learnblock1,744.8999999761581,img/planet3_right.png,3,Community 1,NA,TRUE,j,j,NA,NA,NA,1,6,"14,3,15,8,7,13,12,1,2,9,6,5,10,11,4"
14214,commdev-image-keyboard-response,319,1096110,learnblock1,759.7999999523163,img/planet15_left.png,15,Community 1,NA,TRUE,f,f,NA,NA,NA,1,6,"14,3,15,8,7,13,12,1,2,9,6,5,10,11,4"
14214,commdev-image-keyboard-response,320,1097362,learnblock1,629.3999999761581,img/planet8_right.png,8,Community 1,NA,TRUE,j,j,NA,NA,NA,1,6,"14,3,15,8,7,13,12,1,2,9,6,5,10,11,4"
14214,commdev-image-keyboard-response,321,1098614,learnblock1,487,img/planet14_left.png,14,Community 1,NA,TRUE,f,f,NA,NA,NA,1,6,"14,3,15,8,7,13,12,1,2,9,6,5,10,11,4"
14214,commdev-image-keyboard-response,322,1099865,learnblock1,719.2999999523163,img/planet7_left.png,7,Community 1,NA,FALSE,j,f,NA,NA,NA,1,6,"14,3,15,8,7,13,12,1,2,9,6,5,10,11,4"
14214,commdev-image-keyboard-response,323,1101117,learnblock1,687,img/planet3_left.png,3,Community 1,NA,TRUE,f,f,NA,NA,NA,1,6,"14,3,15,8,7,13,12,1,2,9,6,5,10,11,4"
14214,commdev-image-keyboard-response,324,1102369,learnblock1,604.8999999761581,img/planet7_right.png,7,Community 1,NA,FALSE,f,j,NA,NA,NA,1,6,"14,3,15,8,7,13,12,1,2,9,6,5,10,11,4"
14214,commdev-image-keyboard-response,325,1103621,learnblock1,551.9000000953674,img/planet14_right.png,14,Community 1,NA,FALSE,f,j,NA,NA,NA,1,6,"14,3,15,8,7,13,12,1,2,9,6,5,10,11,4"
14214,commdev-image-keyboard-response,326,1104873,learnblock1,682.3999999761581,img/planet15_left.png,15,Community 1,NA,FALSE,j,f,NA,NA,NA,1,6,"14,3,15,8,7,13,12,1,2,9,6,5,10,11,4"
14214,commdev-image-keyboard-response,327,1106124,learnblock1,858.5999999046326,img/planet7_left.png,7,Community 1,NA,TRUE,f,f,NA,NA,NA,1,6,"14,3,15,8,7,13,12,1,2,9,6,5,10,11,4"
14214,commdev-image-keyboard-response,328,1107376,learnblock1,837,img/planet14_right.png,14,Community 1,NA,FALSE,f,j,NA,NA,NA,1,6,"14,3,15,8,7,13,12,1,2,9,6,5,10,11,4"
14214,commdev-image-keyboard-response,329,1108628,learnblock1,945.0999999046326,img/planet15_left.png,15,Community 1,NA,TRUE,f,f,NA,NA,NA,1,6,"14,3,15,8,7,13,12,1,2,9,6,5,10,11,4"
14214,commdev-image-keyboard-response,330,1109879,learnblock1,954.5999999046326,img/planet3_right.png,3,Community 1,NA,FALSE,f,j,NA,NA,NA,1,6,"14,3,15,8,7,13,12,1,2,9,6,5,10,11,4"
14214,commdev-image-keyboard-response,331,1111131,learnblock1,1142.7999999523163,img/planet14_left.png,14,Community 1,NA,FALSE,j,f,NA,NA,NA,1,6,"14,3,15,8,7,13,12,1,2,9,6,5,10,11,4"
14214,commdev-image-keyboard-response,332,1112383,learnblock1,1092.2999999523163,img/planet3_right.png,3,Community 1,NA,FALSE,f,j,NA,NA,NA,1,6,"14,3,15,8,7,13,12,1,2,9,6,5,10,11,4"
14214,commdev-image-keyboard-response,333,1113635,learnblock1,null,img/planet8_left.png,8,Community 1,NA,FALSE,null,f,NA,NA,NA,1,6,"14,3,15,8,7,13,12,1,2,9,6,5,10,11,4"
14214,commdev-image-keyboard-response,334,1114887,learnblock1,854.5,img/planet3_left.png,3,Community 1,NA,FALSE,j,f,NA,NA,NA,1,6,"14,3,15,8,7,13,12,1,2,9,6,5,10,11,4"
14214,commdev-image-keyboard-response,335,1116140,learnblock1,588.1999999284744,img/planet15_right.png,15,Community 1,NA,FALSE,f,j,NA,NA,NA,1,6,"14,3,15,8,7,13,12,1,2,9,6,5,10,11,4"
14214,commdev-image-keyboard-response,336,1117392,learnblock1,41,img/planet3_right.png,3,Community 1,NA,TRUE,j,j,NA,NA,NA,1,6,"14,3,15,8,7,13,12,1,2,9,6,5,10,11,4"
14214,commdev-image-keyboard-response,337,1118644,learnblock1,512.2999999523163,img/planet15_right.png,15,Community 1,NA,TRUE,j,j,NA,NA,NA,1,6,"14,3,15,8,7,13,12,1,2,9,6,5,10,11,4"
14214,commdev-image-keyboard-response,338,1119896,learnblock1,333.2000000476837,img/planet8_right.png,8,Community 1,NA,TRUE,j,j,NA,NA,NA,1,6,"14,3,15,8,7,13,12,1,2,9,6,5,10,11,4"
14214,commdev-image-keyboard-response,339,1121148,learnblock1,36.299999952316284,img/planet14_left.png,14,Community 1,NA,FALSE,j,f,NA,NA,NA,1,6,"14,3,15,8,7,13,12,1,2,9,6,5,10,11,4"
14214,commdev-image-keyboard-response,340,1122399,learnblock1,790.8999999761581,img/planet7_right.png,7,Community 1,NA,TRUE,j,j,NA,NA,NA,1,6,"14,3,15,8,7,13,12,1,2,9,6,5,10,11,4"
14214,commdev-image-keyboard-response,341,1123650,learnblock1,794,img/planet6_right.png,6,Community 3,NA,TRUE,j,j,NA,NA,NA,1,6,"14,3,15,8,7,13,12,1,2,9,6,5,10,11,4"
14214,commdev-image-keyboard-response,342,1124902,learnblock1,884,img/planet7_left.png,7,Community 1,NA,TRUE,f,f,NA,NA,NA,1,6,"14,3,15,8,7,13,12,1,2,9,6,5,10,11,4"
14214,commdev-image-keyboard-response,343,1126154,learnblock1,684.7999999523163,img/planet3_left.png,3,Community 1,NA,FALSE,j,f,NA,NA,NA,1,6,"14,3,15,8,7,13,12,1,2,9,6,5,10,11,4"
14214,commdev-image-keyboard-response,344,1127406,learnblock1,958.1000000238419,img/planet15_left.png,15,Community 1,NA,FALSE,j,f,NA,NA,NA,1,6,"14,3,15,8,7,13,12,1,2,9,6,5,10,11,4"
14214,commdev-image-keyboard-response,345,1128658,learnblock1,1006.0999999046326,img/planet14_left.png,14,Community 1,NA,TRUE,f,f,NA,NA,NA,1,6,"14,3,15,8,7,13,12,1,2,9,6,5,10,11,4"
14214,commdev-image-keyboard-response,346,1129909,learnblock1,892.2999999523163,img/planet7_right.png,7,Community 1,NA,TRUE,j,j,NA,NA,NA,1,6,"14,3,15,8,7,13,12,1,2,9,6,5,10,11,4"
14214,commdev-image-keyboard-response,347,1131161,learnblock1,1025.8999999761581,img/planet6_left.png,6,Community 3,NA,TRUE,f,f,NA,NA,NA,1,6,"14,3,15,8,7,13,12,1,2,9,6,5,10,11,4"
14214,commdev-image-keyboard-response,348,1132413,learnblock1,886.1000000238419,img/planet4_right.png,4,Community 3,NA,TRUE,j,j,NA,NA,NA,1,6,"14,3,15,8,7,13,12,1,2,9,6,5,10,11,4"
14214,commdev-image-keyboard-response,349,1133665,learnblock1,870,img/planet11_right.png,11,Community 3,NA,FALSE,f,j,NA,NA,NA,1,6,"14,3,15,8,7,13,12,1,2,9,6,5,10,11,4"
14214,commdev-image-keyboard-response,350,1134918,learnblock1,810,img/planet10_right.png,10,Community 3,NA,TRUE,j,j,NA,NA,NA,1,6,"14,3,15,8,7,13,12,1,2,9,6,5,10,11,4"
14214,commdev-image-keyboard-response,351,1136170,learnblock1,794.8999999761581,img/planet5_right.png,5,Community 3,NA,TRUE,j,j,NA,NA,NA,1,6,"14,3,15,8,7,13,12,1,2,9,6,5,10,11,4"
14214,commdev-image-keyboard-response,352,1137422,learnblock1,873.1999999284744,img/planet11_right.png,11,Community 3,NA,TRUE,j,j,NA,NA,NA,1,6,"14,3,15,8,7,13,12,1,2,9,6,5,10,11,4"
14214,commdev-image-keyboard-response,353,1138674,learnblock1,936,img/planet5_right.png,5,Community 3,NA,TRUE,j,j,NA,NA,NA,1,6,"14,3,15,8,7,13,12,1,2,9,6,5,10,11,4"
14214,commdev-image-keyboard-response,354,1139925,learnblock1,870.0999999046326,img/planet10_left.png,10,Community 3,NA,TRUE,f,f,NA,NA,NA,1,6,"14,3,15,8,7,13,12,1,2,9,6,5,10,11,4"
14214,commdev-image-keyboard-response,355,1141177,learnblock1,967.6000000238419,img/planet6_left.png,6,Community 3,NA,TRUE,f,f,NA,NA,NA,1,6,"14,3,15,8,7,13,12,1,2,9,6,5,10,11,4"
14214,commdev-image-keyboard-response,356,1142429,learnblock1,968.1999999284744,img/planet11_left.png,11,Community 3,NA,TRUE,f,f,NA,NA,NA,1,6,"14,3,15,8,7,13,12,1,2,9,6,5,10,11,4"
14214,commdev-image-keyboard-response,357,1143681,learnblock1,1008.1999999284744,img/planet6_left.png,6,Community 3,NA,TRUE,f,f,NA,NA,NA,1,6,"14,3,15,8,7,13,12,1,2,9,6,5,10,11,4"
14214,commdev-image-keyboard-response,358,1144933,learnblock1,864.1999999284744,img/planet10_left.png,10,Community 3,NA,TRUE,f,f,NA,NA,NA,1,6,"14,3,15,8,7,13,12,1,2,9,6,5,10,11,4"
14214,commdev-image-keyboard-response,359,1146185,learnblock1,829.3999999761581,img/planet6_right.png,6,Community 3,NA,TRUE,j,j,NA,NA,NA,1,6,"14,3,15,8,7,13,12,1,2,9,6,5,10,11,4"
14214,commdev-image-keyboard-response,360,1147437,learnblock1,817.1999999284744,img/planet10_left.png,10,Community 3,NA,FALSE,j,f,NA,NA,NA,1,6,"14,3,15,8,7,13,12,1,2,9,6,5,10,11,4"
14214,commdev-image-keyboard-response,361,1148689,learnblock1,1130.3000000715256,img/planet4_left.png,4,Community 3,NA,TRUE,f,f,NA,NA,NA,1,6,"14,3,15,8,7,13,12,1,2,9,6,5,10,11,4"
14214,commdev-image-keyboard-response,362,1149941,learnblock1,933.6999999284744,img/planet5_left.png,5,Community 3,NA,FALSE,j,f,NA,NA,NA,1,6,"14,3,15,8,7,13,12,1,2,9,6,5,10,11,4"
14214,commdev-image-keyboard-response,363,1151194,learnblock1,892,img/planet1_right.png,1,Community 2,NA,TRUE,j,j,NA,NA,NA,1,6,"14,3,15,8,7,13,12,1,2,9,6,5,10,11,4"
14214,commdev-image-keyboard-response,364,1152445,learnblock1,864.2999999523163,img/planet9_right.png,9,Community 2,NA,TRUE,j,j,NA,NA,NA,1,6,"14,3,15,8,7,13,12,1,2,9,6,5,10,11,4"
14214,commdev-image-keyboard-response,365,1153697,learnblock1,1016.9000000953674,img/planet2_left.png,2,Community 2,NA,TRUE,f,f,NA,NA,NA,1,6,"14,3,15,8,7,13,12,1,2,9,6,5,10,11,4"
14214,commdev-image-keyboard-response,366,1154949,learnblock1,797.9000000953674,img/planet1_right.png,1,Community 2,NA,TRUE,j,j,NA,NA,NA,1,6,"14,3,15,8,7,13,12,1,2,9,6,5,10,11,4"
14214,commdev-image-keyboard-response,367,1156201,learnblock1,697.1000000238419,img/planet12_left.png,12,Community 2,NA,TRUE,f,f,NA,NA,NA,1,6,"14,3,15,8,7,13,12,1,2,9,6,5,10,11,4"
14214,commdev-image-keyboard-response,368,1157452,learnblock1,563.7000000476837,img/planet9_right.png,9,Community 2,NA,TRUE,j,j,NA,NA,NA,1,6,"14,3,15,8,7,13,12,1,2,9,6,5,10,11,4"
14214,commdev-image-keyboard-response,369,1158703,learnblock1,433.39999997615814,img/planet1_right.png,1,Community 2,NA,FALSE,f,j,NA,NA,NA,1,6,"14,3,15,8,7,13,12,1,2,9,6,5,10,11,4"
14214,commdev-image-keyboard-response,370,1159955,learnblock1,311.89999997615814,img/planet9_left.png,9,Community 2,NA,FALSE,j,f,NA,NA,NA,1,6,"14,3,15,8,7,13,12,1,2,9,6,5,10,11,4"
14214,commdev-image-keyboard-response,371,1161208,learnblock1,361,img/planet13_left.png,13,Community 2,NA,FALSE,j,f,NA,NA,NA,1,6,"14,3,15,8,7,13,12,1,2,9,6,5,10,11,4"
14214,commdev-image-keyboard-response,372,1162459,learnblock1,332.6999999284744,img/planet12_left.png,12,Community 2,NA,FALSE,j,f,NA,NA,NA,1,6,"14,3,15,8,7,13,12,1,2,9,6,5,10,11,4"
14214,commdev-image-keyboard-response,373,1163711,learnblock1,542,img/planet1_left.png,1,Community 2,NA,FALSE,j,f,NA,NA,NA,1,6,"14,3,15,8,7,13,12,1,2,9,6,5,10,11,4"
14214,commdev-image-keyboard-response,374,1164964,learnblock1,390.7000000476837,img/planet5_left.png,5,Community 3,NA,TRUE,f,f,NA,NA,NA,1,6,"14,3,15,8,7,13,12,1,2,9,6,5,10,11,4"
14214,commdev-image-keyboard-response,375,1166216,learnblock1,385.7999999523163,img/planet4_left.png,4,Community 3,NA,TRUE,f,f,NA,NA,NA,1,6,"14,3,15,8,7,13,12,1,2,9,6,5,10,11,4"
14214,commdev-image-keyboard-response,376,1167468,learnblock1,517.6000000238419,img/planet11_right.png,11,Community 3,NA,TRUE,j,j,NA,NA,NA,1,6,"14,3,15,8,7,13,12,1,2,9,6,5,10,11,4"
14214,commdev-image-keyboard-response,377,1168720,learnblock1,545.7000000476837,img/planet4_right.png,4,Community 3,NA,TRUE,j,j,NA,NA,NA,1,6,"14,3,15,8,7,13,12,1,2,9,6,5,10,11,4"
14214,commdev-image-keyboard-response,378,1169971,learnblock1,475.3000000715256,img/planet10_right.png,10,Community 3,NA,TRUE,j,j,NA,NA,NA,1,6,"14,3,15,8,7,13,12,1,2,9,6,5,10,11,4"
14214,commdev-image-keyboard-response,379,1171224,learnblock1,274.09999990463257,img/planet11_right.png,11,Community 3,NA,TRUE,j,j,NA,NA,NA,1,6,"14,3,15,8,7,13,12,1,2,9,6,5,10,11,4"
14214,commdev-image-keyboard-response,380,1172475,learnblock1,69.30000007152557,img/planet6_left.png,6,Community 3,NA,FALSE,j,f,NA,NA,NA,1,6,"14,3,15,8,7,13,12,1,2,9,6,5,10,11,4"
14214,commdev-image-keyboard-response,381,1173728,learnblock1,810.1000000238419,img/planet7_left.png,7,Community 1,NA,FALSE,j,f,NA,NA,NA,1,6,"14,3,15,8,7,13,12,1,2,9,6,5,10,11,4"
14214,commdev-image-keyboard-response,382,1174979,learnblock1,624.6000000238419,img/planet14_right.png,14,Community 1,NA,FALSE,f,j,NA,NA,NA,1,6,"14,3,15,8,7,13,12,1,2,9,6,5,10,11,4"
14214,commdev-image-keyboard-response,383,1176231,learnblock1,670.8999999761581,img/planet8_right.png,8,Community 1,NA,TRUE,j,j,NA,NA,NA,1,6,"14,3,15,8,7,13,12,1,2,9,6,5,10,11,4"
14214,commdev-image-keyboard-response,384,1177483,learnblock1,582.0999999046326,img/planet3_right.png,3,Community 1,NA,FALSE,f,j,NA,NA,NA,1,6,"14,3,15,8,7,13,12,1,2,9,6,5,10,11,4"
14214,commdev-image-keyboard-response,385,1178734,learnblock1,680.8000000715256,img/planet8_left.png,8,Community 1,NA,FALSE,j,f,NA,NA,NA,1,6,"14,3,15,8,7,13,12,1,2,9,6,5,10,11,4"
14214,commdev-image-keyboard-response,386,1179987,learnblock1,877.2000000476837,img/planet14_left.png,14,Community 1,NA,TRUE,f,f,NA,NA,NA,1,6,"14,3,15,8,7,13,12,1,2,9,6,5,10,11,4"
14214,commdev-image-keyboard-response,387,1181239,learnblock1,724.9000000953674,img/planet7_left.png,7,Community 1,NA,TRUE,f,f,NA,NA,NA,1,6,"14,3,15,8,7,13,12,1,2,9,6,5,10,11,4"
14214,commdev-image-keyboard-response,388,1182490,learnblock1,740.5,img/planet3_left.png,3,Community 1,NA,TRUE,f,f,NA,NA,NA,1,6,"14,3,15,8,7,13,12,1,2,9,6,5,10,11,4"
14214,commdev-image-keyboard-response,389,1183742,learnblock1,625.1999999284744,img/planet14_left.png,14,Community 1,NA,TRUE,f,f,NA,NA,NA,1,6,"14,3,15,8,7,13,12,1,2,9,6,5,10,11,4"
14214,commdev-image-keyboard-response,390,1184993,learnblock1,669.3000000715256,img/planet7_right.png,7,Community 1,NA,FALSE,f,j,NA,NA,NA,1,6,"14,3,15,8,7,13,12,1,2,9,6,5,10,11,4"
14214,commdev-image-keyboard-response,391,1186245,learnblock1,835.0999999046326,img/planet15_left.png,15,Community 1,NA,TRUE,f,f,NA,NA,NA,1,6,"14,3,15,8,7,13,12,1,2,9,6,5,10,11,4"
14214,commdev-image-keyboard-response,392,1187497,learnblock1,1028.3999999761581,img/planet7_right.png,7,Community 1,NA,TRUE,j,j,NA,NA,NA,1,6,"14,3,15,8,7,13,12,1,2,9,6,5,10,11,4"
14214,commdev-image-keyboard-response,393,1188749,learnblock1,993.3999999761581,img/planet3_left.png,3,Community 1,NA,TRUE,f,f,NA,NA,NA,1,6,"14,3,15,8,7,13,12,1,2,9,6,5,10,11,4"
14214,commdev-image-keyboard-response,394,1190001,learnblock1,859.1000000238419,img/planet14_right.png,14,Community 1,NA,TRUE,j,j,NA,NA,NA,1,6,"14,3,15,8,7,13,12,1,2,9,6,5,10,11,4"
14214,commdev-image-keyboard-response,395,1191253,learnblock1,735,img/planet7_right.png,7,Community 1,NA,FALSE,f,j,NA,NA,NA,1,6,"14,3,15,8,7,13,12,1,2,9,6,5,10,11,4"
14214,commdev-image-keyboard-response,396,1192506,learnblock1,689.5,img/planet3_right.png,3,Community 1,NA,TRUE,j,j,NA,NA,NA,1,6,"14,3,15,8,7,13,12,1,2,9,6,5,10,11,4"
14214,commdev-image-keyboard-response,397,1193757,learnblock1,655.5,img/planet14_right.png,14,Community 1,NA,TRUE,j,j,NA,NA,NA,1,6,"14,3,15,8,7,13,12,1,2,9,6,5,10,11,4"
14214,commdev-image-keyboard-response,398,1195009,learnblock1,640.0999999046326,img/planet8_right.png,8,Community 1,NA,TRUE,j,j,NA,NA,NA,1,6,"14,3,15,8,7,13,12,1,2,9,6,5,10,11,4"
14214,commdev-image-keyboard-response,399,1196261,learnblock1,686.6999999284744,img/planet15_left.png,15,Community 1,NA,FALSE,j,f,NA,NA,NA,1,6,"14,3,15,8,7,13,12,1,2,9,6,5,10,11,4"
14214,commdev-image-keyboard-response,400,1197512,learnblock1,1062.5,img/planet14_left.png,14,Community 1,NA,TRUE,f,f,NA,NA,NA,1,6,"14,3,15,8,7,13,12,1,2,9,6,5,10,11,4"
14214,commdev-image-keyboard-response,401,1198764,learnblock1,902.1000000238419,img/planet7_left.png,7,Community 1,NA,TRUE,f,f,NA,NA,NA,1,6,"14,3,15,8,7,13,12,1,2,9,6,5,10,11,4"
14214,commdev-image-keyboard-response,402,1200015,learnblock1,793.1000000238419,img/planet6_right.png,6,Community 3,NA,TRUE,j,j,NA,NA,NA,1,6,"14,3,15,8,7,13,12,1,2,9,6,5,10,11,4"
14214,commdev-image-keyboard-response,403,1201268,learnblock1,791.9000000953674,img/planet10_right.png,10,Community 3,NA,TRUE,j,j,NA,NA,NA,1,6,"14,3,15,8,7,13,12,1,2,9,6,5,10,11,4"
14214,commdev-image-keyboard-response,404,1202520,learnblock1,558.4000000953674,img/planet11_right.png,11,Community 3,NA,TRUE,j,j,NA,NA,NA,1,6,"14,3,15,8,7,13,12,1,2,9,6,5,10,11,4"
14214,commdev-image-keyboard-response,405,1203772,learnblock1,479.39999997615814,img/planet6_right.png,6,Community 3,NA,TRUE,j,j,NA,NA,NA,1,6,"14,3,15,8,7,13,12,1,2,9,6,5,10,11,4"
14214,commdev-image-keyboard-response,406,1205023,learnblock1,336.40000009536743,img/planet7_left.png,7,Community 1,NA,FALSE,j,f,NA,NA,NA,1,6,"14,3,15,8,7,13,12,1,2,9,6,5,10,11,4"
14214,commdev-image-keyboard-response,407,1206274,learnblock1,808.6000000238419,img/planet3_right.png,3,Community 1,NA,FALSE,f,j,NA,NA,NA,1,6,"14,3,15,8,7,13,12,1,2,9,6,5,10,11,4"
14214,commdev-image-keyboard-response,408,1207526,learnblock1,706.1999999284744,img/planet15_left.png,15,Community 1,NA,FALSE,j,f,NA,NA,NA,1,6,"14,3,15,8,7,13,12,1,2,9,6,5,10,11,4"
14214,commdev-image-keyboard-response,409,1208785,learnblock1,959.7000000476837,img/planet3_right.png,3,Community 1,NA,TRUE,j,j,NA,NA,NA,1,6,"14,3,15,8,7,13,12,1,2,9,6,5,10,11,4"
14214,commdev-image-keyboard-response,410,1210036,learnblock1,812.1000000238419,img/planet8_left.png,8,Community 1,NA,TRUE,f,f,NA,NA,NA,1,6,"14,3,15,8,7,13,12,1,2,9,6,5,10,11,4"
14214,commdev-image-keyboard-response,411,1211288,learnblock1,835.9000000953674,img/planet13_left.png,13,Community 2,NA,FALSE,j,f,NA,NA,NA,1,6,"14,3,15,8,7,13,12,1,2,9,6,5,10,11,4"
14214,commdev-image-keyboard-response,412,1212540,learnblock1,1012.1000000238419,img/planet9_right.png,9,Community 2,NA,TRUE,j,j,NA,NA,NA,1,6,"14,3,15,8,7,13,12,1,2,9,6,5,10,11,4"
14214,commdev-image-keyboard-response,413,1213792,learnblock1,1015.1999999284744,img/planet2_right.png,2,Community 2,NA,TRUE,j,j,NA,NA,NA,1,6,"14,3,15,8,7,13,12,1,2,9,6,5,10,11,4"
14214,commdev-image-keyboard-response,414,1215044,learnblock1,1155.1999999284744,img/planet1_left.png,1,Community 2,NA,FALSE,j,f,NA,NA,NA,1,6,"14,3,15,8,7,13,12,1,2,9,6,5,10,11,4"
14214,commdev-image-keyboard-response,415,1216296,learnblock1,null,img/planet12_right.png,12,Community 2,NA,FALSE,null,j,NA,NA,NA,1,6,"14,3,15,8,7,13,12,1,2,9,6,5,10,11,4"
14214,commdev-image-keyboard-response,416,1217547,learnblock1,874.2999999523163,img/planet1_left.png,1,Community 2,NA,FALSE,j,f,NA,NA,NA,1,6,"14,3,15,8,7,13,12,1,2,9,6,5,10,11,4"
14214,commdev-image-keyboard-response,417,1218799,learnblock1,620.2999999523163,img/planet2_left.png,2,Community 2,NA,TRUE,f,f,NA,NA,NA,1,6,"14,3,15,8,7,13,12,1,2,9,6,5,10,11,4"
14214,commdev-image-keyboard-response,418,1220051,learnblock1,620.5,img/planet12_left.png,12,Community 2,NA,FALSE,j,f,NA,NA,NA,1,6,"14,3,15,8,7,13,12,1,2,9,6,5,10,11,4"
14214,commdev-image-keyboard-response,419,1221302,learnblock1,313.10000002384186,img/planet1_right.png,1,Community 2,NA,FALSE,f,j,NA,NA,NA,1,6,"14,3,15,8,7,13,12,1,2,9,6,5,10,11,4"
14214,commdev-image-keyboard-response,420,1222554,learnblock1,77.40000009536743,img/planet5_right.png,5,Community 3,NA,TRUE,j,j,NA,NA,NA,1,6,"14,3,15,8,7,13,12,1,2,9,6,5,10,11,4"
14214,commdev-image-keyboard-response,421,1223805,learnblock1,671.1999999284744,img/planet10_right.png,10,Community 3,NA,TRUE,j,j,NA,NA,NA,1,6,"14,3,15,8,7,13,12,1,2,9,6,5,10,11,4"
14214,commdev-image-keyboard-response,422,1225058,learnblock1,377.2000000476837,img/planet11_left.png,11,Community 3,NA,FALSE,j,f,NA,NA,NA,1,6,"14,3,15,8,7,13,12,1,2,9,6,5,10,11,4"
14214,commdev-image-keyboard-response,423,1226310,learnblock1,22.100000023841858,img/planet5_left.png,5,Community 3,NA,FALSE,j,f,NA,NA,NA,1,6,"14,3,15,8,7,13,12,1,2,9,6,5,10,11,4"
14214,commdev-image-keyboard-response,424,1227562,learnblock1,783.1999999284744,img/planet1_right.png,1,Community 2,NA,TRUE,j,j,NA,NA,NA,1,6,"14,3,15,8,7,13,12,1,2,9,6,5,10,11,4"
14214,commdev-image-keyboard-response,425,1228813,learnblock1,391.10000002384186,img/planet2_right.png,2,Community 2,NA,FALSE,f,j,NA,NA,NA,1,6,"14,3,15,8,7,13,12,1,2,9,6,5,10,11,4"
14214,commdev-image-keyboard-response,426,1230064,learnblock1,72.10000002384186,img/planet13_right.png,13,Community 2,NA,TRUE,j,j,NA,NA,NA,1,6,"14,3,15,8,7,13,12,1,2,9,6,5,10,11,4"
14214,commdev-image-keyboard-response,427,1231317,learnblock1,626.6000000238419,img/planet8_left.png,8,Community 1,NA,FALSE,j,f,NA,NA,NA,1,6,"14,3,15,8,7,13,12,1,2,9,6,5,10,11,4"
14214,commdev-image-keyboard-response,431,1262227,learnblock2,null,img/planet12_left.png,12,Community 2,NA,FALSE,null,f,NA,NA,NA,1,6,"14,3,15,8,7,13,12,1,2,9,6,5,10,11,4"
14214,commdev-image-keyboard-response,432,1263478,learnblock2,null,img/planet9_right.png,9,Community 2,NA,FALSE,null,j,NA,NA,NA,1,6,"14,3,15,8,7,13,12,1,2,9,6,5,10,11,4"
14214,commdev-image-keyboard-response,433,1264730,learnblock2,653.1000000238419,img/planet1_left.png,1,Community 2,NA,FALSE,j,f,NA,NA,NA,1,6,"14,3,15,8,7,13,12,1,2,9,6,5,10,11,4"
14214,commdev-image-keyboard-response,434,1265982,learnblock2,355.8000000715256,img/planet12_left.png,12,Community 2,NA,TRUE,f,f,NA,NA,NA,1,6,"14,3,15,8,7,13,12,1,2,9,6,5,10,11,4"
14214,commdev-image-keyboard-response,435,1267233,learnblock2,745,img/planet9_left.png,9,Community 2,NA,TRUE,f,f,NA,NA,NA,1,6,"14,3,15,8,7,13,12,1,2,9,6,5,10,11,4"
14214,commdev-image-keyboard-response,436,1268485,learnblock2,828.9000000953674,img/planet2_left.png,2,Community 2,NA,TRUE,f,f,NA,NA,NA,1,6,"14,3,15,8,7,13,12,1,2,9,6,5,10,11,4"
14214,commdev-image-keyboard-response,437,1269737,learnblock2,628.9000000953674,img/planet1_right.png,1,Community 2,NA,TRUE,j,j,NA,NA,NA,1,6,"14,3,15,8,7,13,12,1,2,9,6,5,10,11,4"
14214,commdev-image-keyboard-response,438,1270989,learnblock2,663,img/planet2_right.png,2,Community 2,NA,TRUE,j,j,NA,NA,NA,1,6,"14,3,15,8,7,13,12,1,2,9,6,5,10,11,4"
14214,commdev-image-keyboard-response,439,1272241,learnblock2,728.2999999523163,img/planet12_right.png,12,Community 2,NA,TRUE,j,j,NA,NA,NA,1,6,"14,3,15,8,7,13,12,1,2,9,6,5,10,11,4"
14214,commdev-image-keyboard-response,440,1273492,learnblock2,758.1000000238419,img/planet1_left.png,1,Community 2,NA,FALSE,j,f,NA,NA,NA,1,6,"14,3,15,8,7,13,12,1,2,9,6,5,10,11,4"
14214,commdev-image-keyboard-response,441,1274744,learnblock2,808.3000000715256,img/planet12_left.png,12,Community 2,NA,TRUE,f,f,NA,NA,NA,1,6,"14,3,15,8,7,13,12,1,2,9,6,5,10,11,4"
14214,commdev-image-keyboard-response,442,1275996,learnblock2,701.8999999761581,img/planet13_left.png,13,Community 2,NA,TRUE,f,f,NA,NA,NA,1,6,"14,3,15,8,7,13,12,1,2,9,6,5,10,11,4"
14214,commdev-image-keyboard-response,443,1277247,learnblock2,694.8999999761581,img/planet2_left.png,2,Community 2,NA,TRUE,f,f,NA,NA,NA,1,6,"14,3,15,8,7,13,12,1,2,9,6,5,10,11,4"
14214,commdev-image-keyboard-response,444,1278499,learnblock2,634.9000000953674,img/planet13_right.png,13,Community 2,NA,FALSE,f,j,NA,NA,NA,1,6,"14,3,15,8,7,13,12,1,2,9,6,5,10,11,4"
14214,commdev-image-keyboard-response,445,1279751,learnblock2,741.8000000715256,img/planet2_left.png,2,Community 2,NA,TRUE,f,f,NA,NA,NA,1,6,"14,3,15,8,7,13,12,1,2,9,6,5,10,11,4"
14214,commdev-image-keyboard-response,446,1281002,learnblock2,907.7000000476837,img/planet12_left.png,12,Community 2,NA,TRUE,f,f,NA,NA,NA,1,6,"14,3,15,8,7,13,12,1,2,9,6,5,10,11,4"
14214,commdev-image-keyboard-response,447,1282254,learnblock2,783,img/planet9_left.png,9,Community 2,NA,TRUE,f,f,NA,NA,NA,1,6,"14,3,15,8,7,13,12,1,2,9,6,5,10,11,4"
14214,commdev-image-keyboard-response,448,1283506,learnblock2,680.1000000238419,img/planet2_left.png,2,Community 2,NA,TRUE,f,f,NA,NA,NA,1,6,"14,3,15,8,7,13,12,1,2,9,6,5,10,11,4"
14214,commdev-image-keyboard-response,449,1284758,learnblock2,787.8000000715256,img/planet9_left.png,9,Community 2,NA,TRUE,f,f,NA,NA,NA,1,6,"14,3,15,8,7,13,12,1,2,9,6,5,10,11,4"
14214,commdev-image-keyboard-response,450,1286010,learnblock2,653,img/planet2_left.png,2,Community 2,NA,TRUE,f,f,NA,NA,NA,1,6,"14,3,15,8,7,13,12,1,2,9,6,5,10,11,4"
14214,commdev-image-keyboard-response,451,1287261,learnblock2,951.7000000476837,img/planet9_left.png,9,Community 2,NA,TRUE,f,f,NA,NA,NA,1,6,"14,3,15,8,7,13,12,1,2,9,6,5,10,11,4"
14214,commdev-image-keyboard-response,452,1288513,learnblock2,900.3999999761581,img/planet12_left.png,12,Community 2,NA,TRUE,f,f,NA,NA,NA,1,6,"14,3,15,8,7,13,12,1,2,9,6,5,10,11,4"
14214,commdev-image-keyboard-response,453,1289764,learnblock2,668.5,img/planet9_right.png,9,Community 2,NA,TRUE,j,j,NA,NA,NA,1,6,"14,3,15,8,7,13,12,1,2,9,6,5,10,11,4"
14214,commdev-image-keyboard-response,454,1291017,learnblock2,732.8000000715256,img/planet2_left.png,2,Community 2,NA,TRUE,f,f,NA,NA,NA,1,6,"14,3,15,8,7,13,12,1,2,9,6,5,10,11,4"
14214,commdev-image-keyboard-response,455,1292270,learnblock2,810,img/planet9_right.png,9,Community 2,NA,TRUE,j,j,NA,NA,NA,1,6,"14,3,15,8,7,13,12,1,2,9,6,5,10,11,4"
14214,commdev-image-keyboard-response,456,1293522,learnblock2,849.6000000238419,img/planet2_left.png,2,Community 2,NA,TRUE,f,f,NA,NA,NA,1,6,"14,3,15,8,7,13,12,1,2,9,6,5,10,11,4"
14214,commdev-image-keyboard-response,457,1294773,learnblock2,779.8999999761581,img/planet13_right.png,13,Community 2,NA,TRUE,j,j,NA,NA,NA,1,6,"14,3,15,8,7,13,12,1,2,9,6,5,10,11,4"
14214,commdev-image-keyboard-response,458,1296025,learnblock2,704.7000000476837,img/planet12_left.png,12,Community 2,NA,TRUE,f,f,NA,NA,NA,1,6,"14,3,15,8,7,13,12,1,2,9,6,5,10,11,4"
14214,commdev-image-keyboard-response,459,1297277,learnblock2,570.8000000715256,img/planet9_right.png,9,Community 2,NA,TRUE,j,j,NA,NA,NA,1,6,"14,3,15,8,7,13,12,1,2,9,6,5,10,11,4"
14214,commdev-image-keyboard-response,460,1298529,learnblock2,695.5,img/planet12_left.png,12,Community 2,NA,TRUE,f,f,NA,NA,NA,1,6,"14,3,15,8,7,13,12,1,2,9,6,5,10,11,4"
14214,commdev-image-keyboard-response,461,1299780,learnblock2,690.5,img/planet1_right.png,1,Community 2,NA,TRUE,j,j,NA,NA,NA,1,6,"14,3,15,8,7,13,12,1,2,9,6,5,10,11,4"
14214,commdev-image-keyboard-response,462,1301032,learnblock2,671.8000000715256,img/planet2_left.png,2,Community 2,NA,TRUE,f,f,NA,NA,NA,1,6,"14,3,15,8,7,13,12,1,2,9,6,5,10,11,4"
14214,commdev-image-keyboard-response,463,1302284,learnblock2,895.6000000238419,img/planet9_left.png,9,Community 2,NA,TRUE,f,f,NA,NA,NA,1,6,"14,3,15,8,7,13,12,1,2,9,6,5,10,11,4"
14214,commdev-image-keyboard-response,464,1303535,learnblock2,865.3000000715256,img/planet13_right.png,13,Community 2,NA,TRUE,j,j,NA,NA,NA,1,6,"14,3,15,8,7,13,12,1,2,9,6,5,10,11,4"
14214,commdev-image-keyboard-response,465,1304788,learnblock2,652.9000000953674,img/planet9_right.png,9,Community 2,NA,TRUE,j,j,NA,NA,NA,1,6,"14,3,15,8,7,13,12,1,2,9,6,5,10,11,4"
14214,commdev-image-keyboard-response,466,1306039,learnblock2,908.3000000715256,img/planet12_right.png,12,Community 2,NA,TRUE,j,j,NA,NA,NA,1,6,"14,3,15,8,7,13,12,1,2,9,6,5,10,11,4"
14214,commdev-image-keyboard-response,467,1307291,learnblock2,860.1000000238419,img/planet2_right.png,2,Community 2,NA,TRUE,j,j,NA,NA,NA,1,6,"14,3,15,8,7,13,12,1,2,9,6,5,10,11,4"
14214,commdev-image-keyboard-response,468,1308543,learnblock2,913.8999999761581,img/planet1_left.png,1,Community 2,NA,FALSE,j,f,NA,NA,NA,1,6,"14,3,15,8,7,13,12,1,2,9,6,5,10,11,4"
14214,commdev-image-keyboard-response,469,1309795,learnblock2,841.3999999761581,img/planet9_right.png,9,Community 2,NA,FALSE,f,j,NA,NA,NA,1,6,"14,3,15,8,7,13,12,1,2,9,6,5,10,11,4"
14214,commdev-image-keyboard-response,470,1311048,learnblock2,859.4000000953674,img/planet12_left.png,12,Community 2,NA,FALSE,j,f,NA,NA,NA,1,6,"14,3,15,8,7,13,12,1,2,9,6,5,10,11,4"
14214,commdev-image-keyboard-response,471,1312300,learnblock2,1022.3000000715256,img/planet13_left.png,13,Community 2,NA,TRUE,f,f,NA,NA,NA,1,6,"14,3,15,8,7,13,12,1,2,9,6,5,10,11,4"
14214,commdev-image-keyboard-response,472,1313553,learnblock2,849.1000000238419,img/planet8_right.png,8,Community 1,NA,TRUE,j,j,NA,NA,NA,1,6,"14,3,15,8,7,13,12,1,2,9,6,5,10,11,4"
14214,commdev-image-keyboard-response,473,1314805,learnblock2,729,img/planet13_right.png,13,Community 2,NA,FALSE,f,j,NA,NA,NA,1,6,"14,3,15,8,7,13,12,1,2,9,6,5,10,11,4"
14214,commdev-image-keyboard-response,474,1316057,learnblock2,706.8999999761581,img/planet8_left.png,8,Community 1,NA,FALSE,j,f,NA,NA,NA,1,6,"14,3,15,8,7,13,12,1,2,9,6,5,10,11,4"
14214,commdev-image-keyboard-response,475,1317309,learnblock2,465.60000002384186,img/planet3_right.png,3,Community 1,NA,FALSE,f,j,NA,NA,NA,1,6,"14,3,15,8,7,13,12,1,2,9,6,5,10,11,4"
14214,commdev-image-keyboard-response,476,1318561,learnblock2,605.7000000476837,img/planet8_right.png,8,Community 1,NA,TRUE,j,j,NA,NA,NA,1,6,"14,3,15,8,7,13,12,1,2,9,6,5,10,11,4"
14214,commdev-image-keyboard-response,477,1319813,learnblock2,418,img/planet13_left.png,13,Community 2,NA,FALSE,j,f,NA,NA,NA,1,6,"14,3,15,8,7,13,12,1,2,9,6,5,10,11,4"
14214,commdev-image-keyboard-response,478,1321065,learnblock2,239.20000004768372,img/planet2_right.png,2,Community 2,NA,TRUE,j,j,NA,NA,NA,1,6,"14,3,15,8,7,13,12,1,2,9,6,5,10,11,4"
14214,commdev-image-keyboard-response,479,1322318,learnblock2,96.80000007152557,img/planet9_right.png,9,Community 2,NA,TRUE,j,j,NA,NA,NA,1,6,"14,3,15,8,7,13,12,1,2,9,6,5,10,11,4"
14214,commdev-image-keyboard-response,480,1323569,learnblock2,44.300000071525574,img/planet1_right.png,1,Community 2,NA,TRUE,j,j,NA,NA,NA,1,6,"14,3,15,8,7,13,12,1,2,9,6,5,10,11,4"
14214,commdev-image-keyboard-response,481,1324821,learnblock2,992.9000000953674,img/planet12_left.png,12,Community 2,NA,FALSE,j,f,NA,NA,NA,1,6,"14,3,15,8,7,13,12,1,2,9,6,5,10,11,4"
14214,commdev-image-keyboard-response,482,1326072,learnblock2,1077.4000000953674,img/planet9_left.png,9,Community 2,NA,TRUE,f,f,NA,NA,NA,1,6,"14,3,15,8,7,13,12,1,2,9,6,5,10,11,4"
14214,commdev-image-keyboard-response,483,1327324,learnblock2,901.2000000476837,img/planet12_right.png,12,Community 2,NA,TRUE,j,j,NA,NA,NA,1,6,"14,3,15,8,7,13,12,1,2,9,6,5,10,11,4"
14214,commdev-image-keyboard-response,484,1328575,learnblock2,865.3000000715256,img/planet1_right.png,1,Community 2,NA,FALSE,f,j,NA,NA,NA,1,6,"14,3,15,8,7,13,12,1,2,9,6,5,10,11,4"
14214,commdev-image-keyboard-response,485,1329827,learnblock2,644.8999999761581,img/planet2_right.png,2,Community 2,NA,TRUE,j,j,NA,NA,NA,1,6,"14,3,15,8,7,13,12,1,2,9,6,5,10,11,4"
14214,commdev-image-keyboard-response,486,1331079,learnblock2,556.1000000238419,img/planet1_left.png,1,Community 2,NA,FALSE,j,f,NA,NA,NA,1,6,"14,3,15,8,7,13,12,1,2,9,6,5,10,11,4"
14214,commdev-image-keyboard-response,487,1332331,learnblock2,355.7000000476837,img/planet9_right.png,9,Community 2,NA,TRUE,j,j,NA,NA,NA,1,6,"14,3,15,8,7,13,12,1,2,9,6,5,10,11,4"
14214,commdev-image-keyboard-response,488,1333582,learnblock2,246,img/planet12_left.png,12,Community 2,NA,FALSE,j,f,NA,NA,NA,1,6,"14,3,15,8,7,13,12,1,2,9,6,5,10,11,4"
14214,commdev-image-keyboard-response,489,1334834,learnblock2,1023.8000000715256,img/planet9_left.png,9,Community 2,NA,FALSE,j,f,NA,NA,NA,1,6,"14,3,15,8,7,13,12,1,2,9,6,5,10,11,4"
14214,commdev-image-keyboard-response,490,1336086,learnblock2,906.4000000953674,img/planet12_right.png,12,Community 2,NA,TRUE,j,j,NA,NA,NA,1,6,"14,3,15,8,7,13,12,1,2,9,6,5,10,11,4"
14214,commdev-image-keyboard-response,491,1337338,learnblock2,728,img/planet9_right.png,9,Community 2,NA,TRUE,j,j,NA,NA,NA,1,6,"14,3,15,8,7,13,12,1,2,9,6,5,10,11,4"
14214,commdev-image-keyboard-response,492,1338589,learnblock2,716.8999999761581,img/planet12_right.png,12,Community 2,NA,TRUE,j,j,NA,NA,NA,1,6,"14,3,15,8,7,13,12,1,2,9,6,5,10,11,4"
14214,commdev-image-keyboard-response,493,1339841,learnblock2,678.5,img/planet13_right.png,13,Community 2,NA,FALSE,f,j,NA,NA,NA,1,6,"14,3,15,8,7,13,12,1,2,9,6,5,10,11,4"
14214,commdev-image-keyboard-response,494,1341093,learnblock2,351.39999997615814,img/planet9_right.png,9,Community 2,NA,TRUE,j,j,NA,NA,NA,1,6,"14,3,15,8,7,13,12,1,2,9,6,5,10,11,4"
14214,commdev-image-keyboard-response,495,1342345,learnblock2,282.10000002384186,img/planet1_left.png,1,Community 2,NA,FALSE,j,f,NA,NA,NA,1,6,"14,3,15,8,7,13,12,1,2,9,6,5,10,11,4"
14214,commdev-image-keyboard-response,496,1343596,learnblock2,150.29999995231628,img/planet9_left.png,9,Community 2,NA,FALSE,j,f,NA,NA,NA,1,6,"14,3,15,8,7,13,12,1,2,9,6,5,10,11,4"
14214,commdev-image-keyboard-response,497,1344848,learnblock2,274.60000002384186,img/planet2_left.png,2,Community 2,NA,TRUE,f,f,NA,NA,NA,1,6,"14,3,15,8,7,13,12,1,2,9,6,5,10,11,4"
14214,commdev-image-keyboard-response,498,1346100,learnblock2,94.39999997615814,img/planet1_right.png,1,Community 2,NA,FALSE,f,j,NA,NA,NA,1,6,"14,3,15,8,7,13,12,1,2,9,6,5,10,11,4"
14214,commdev-image-keyboard-response,499,1347352,learnblock2,871.7999999523163,img/planet12_left.png,12,Community 2,NA,TRUE,f,f,NA,NA,NA,1,6,"14,3,15,8,7,13,12,1,2,9,6,5,10,11,4"
14214,commdev-image-keyboard-response,500,1348604,learnblock2,593.8999999761581,img/planet2_left.png,2,Community 2,NA,TRUE,f,f,NA,NA,NA,1,6,"14,3,15,8,7,13,12,1,2,9,6,5,10,11,4"
14214,commdev-image-keyboard-response,501,1349856,learnblock2,352,img/planet1_right.png,1,Community 2,NA,FALSE,f,j,NA,NA,NA,1,6,"14,3,15,8,7,13,12,1,2,9,6,5,10,11,4"
14214,commdev-image-keyboard-response,502,1351107,learnblock2,255.30000007152557,img/planet2_right.png,2,Community 2,NA,TRUE,j,j,NA,NA,NA,1,6,"14,3,15,8,7,13,12,1,2,9,6,5,10,11,4"
14214,commdev-image-keyboard-response,503,1352359,learnblock2,396,img/planet13_right.png,13,Community 2,NA,TRUE,j,j,NA,NA,NA,1,6,"14,3,15,8,7,13,12,1,2,9,6,5,10,11,4"
14214,commdev-image-keyboard-response,504,1353610,learnblock2,588,img/planet2_right.png,2,Community 2,NA,TRUE,j,j,NA,NA,NA,1,6,"14,3,15,8,7,13,12,1,2,9,6,5,10,11,4"
14214,commdev-image-keyboard-response,505,1354862,learnblock2,91.60000002384186,img/planet9_left.png,9,Community 2,NA,FALSE,j,f,NA,NA,NA,1,6,"14,3,15,8,7,13,12,1,2,9,6,5,10,11,4"
14214,commdev-image-keyboard-response,506,1356114,learnblock2,629.8999999761581,img/planet12_right.png,12,Community 2,NA,TRUE,j,j,NA,NA,NA,1,6,"14,3,15,8,7,13,12,1,2,9,6,5,10,11,4"
14214,commdev-image-keyboard-response,507,1357366,learnblock2,357.89999997615814,img/planet1_left.png,1,Community 2,NA,FALSE,j,f,NA,NA,NA,1,6,"14,3,15,8,7,13,12,1,2,9,6,5,10,11,4"
14214,commdev-image-keyboard-response,508,1358618,learnblock2,87.79999995231628,img/planet2_left.png,2,Community 2,NA,TRUE,f,f,NA,NA,NA,1,6,"14,3,15,8,7,13,12,1,2,9,6,5,10,11,4"
14214,commdev-image-keyboard-response,509,1359870,learnblock2,847.7000000476837,img/planet1_left.png,1,Community 2,NA,TRUE,f,f,NA,NA,NA,1,6,"14,3,15,8,7,13,12,1,2,9,6,5,10,11,4"
14214,commdev-image-keyboard-response,510,1361122,learnblock2,731.8999999761581,img/planet5_left.png,5,Community 3,NA,TRUE,f,f,NA,NA,NA,1,6,"14,3,15,8,7,13,12,1,2,9,6,5,10,11,4"
14214,commdev-image-keyboard-response,511,1362374,learnblock2,659.8999999761581,img/planet4_right.png,4,Community 3,NA,FALSE,f,j,NA,NA,NA,1,6,"14,3,15,8,7,13,12,1,2,9,6,5,10,11,4"
14214,commdev-image-keyboard-response,512,1363625,learnblock2,724,img/planet6_left.png,6,Community 3,NA,TRUE,f,f,NA,NA,NA,1,6,"14,3,15,8,7,13,12,1,2,9,6,5,10,11,4"
14214,commdev-image-keyboard-response,513,1364877,learnblock2,639.8000000715256,img/planet11_right.png,11,Community 3,NA,TRUE,j,j,NA,NA,NA,1,6,"14,3,15,8,7,13,12,1,2,9,6,5,10,11,4"
14214,commdev-image-keyboard-response,514,1366129,learnblock2,432.60000002384186,img/planet6_right.png,6,Community 3,NA,FALSE,f,j,NA,NA,NA,1,6,"14,3,15,8,7,13,12,1,2,9,6,5,10,11,4"
14214,commdev-image-keyboard-response,515,1367381,learnblock2,140.60000002384186,img/planet11_left.png,11,Community 3,NA,FALSE,j,f,NA,NA,NA,1,6,"14,3,15,8,7,13,12,1,2,9,6,5,10,11,4"
14214,commdev-image-keyboard-response,516,1368633,learnblock2,942.1000000238419,img/planet4_left.png,4,Community 3,NA,FALSE,j,f,NA,NA,NA,1,6,"14,3,15,8,7,13,12,1,2,9,6,5,10,11,4"
14214,commdev-image-keyboard-response,517,1369884,learnblock2,695,img/planet6_left.png,6,Community 3,NA,FALSE,j,f,NA,NA,NA,1,6,"14,3,15,8,7,13,12,1,2,9,6,5,10,11,4"
14214,commdev-image-keyboard-response,518,1371137,learnblock2,722.6000000238419,img/planet7_left.png,7,Community 1,NA,TRUE,f,f,NA,NA,NA,1,6,"14,3,15,8,7,13,12,1,2,9,6,5,10,11,4"
14214,commdev-image-keyboard-response,519,1372389,learnblock2,325.7999999523163,img/planet3_left.png,3,Community 1,NA,TRUE,f,f,NA,NA,NA,1,6,"14,3,15,8,7,13,12,1,2,9,6,5,10,11,4"
14214,commdev-image-keyboard-response,520,1373641,learnblock2,147.10000002384186,img/planet7_left.png,7,Community 1,NA,TRUE,f,f,NA,NA,NA,1,6,"14,3,15,8,7,13,12,1,2,9,6,5,10,11,4"
14214,commdev-image-keyboard-response,521,1374893,learnblock2,684.1000000238419,img/planet14_left.png,14,Community 1,NA,TRUE,f,f,NA,NA,NA,1,6,"14,3,15,8,7,13,12,1,2,9,6,5,10,11,4"
14214,commdev-image-keyboard-response,522,1376145,learnblock2,488.3000000715256,img/planet7_right.png,7,Community 1,NA,FALSE,f,j,NA,NA,NA,1,6,"14,3,15,8,7,13,12,1,2,9,6,5,10,11,4"
14214,commdev-image-keyboard-response,523,1377398,learnblock2,487.5,img/planet6_right.png,6,Community 3,NA,TRUE,j,j,NA,NA,NA,1,6,"14,3,15,8,7,13,12,1,2,9,6,5,10,11,4"
14214,commdev-image-keyboard-response,524,1378649,learnblock2,234,img/planet10_left.png,10,Community 3,NA,FALSE,j,f,NA,NA,NA,1,6,"14,3,15,8,7,13,12,1,2,9,6,5,10,11,4"
14214,commdev-image-keyboard-response,525,1379901,learnblock2,910.8999999761581,img/planet11_right.png,11,Community 3,NA,TRUE,j,j,NA,NA,NA,1,6,"14,3,15,8,7,13,12,1,2,9,6,5,10,11,4"
14214,commdev-image-keyboard-response,526,1381153,learnblock2,691.8999999761581,img/planet6_left.png,6,Community 3,NA,FALSE,j,f,NA,NA,NA,1,6,"14,3,15,8,7,13,12,1,2,9,6,5,10,11,4"
14214,commdev-image-keyboard-response,527,1382404,learnblock2,626.1000000238419,img/planet11_left.png,11,Community 3,NA,FALSE,j,f,NA,NA,NA,1,6,"14,3,15,8,7,13,12,1,2,9,6,5,10,11,4"
14214,commdev-image-keyboard-response,528,1383657,learnblock2,583.2999999523163,img/planet5_right.png,5,Community 3,NA,FALSE,f,j,NA,NA,NA,1,6,"14,3,15,8,7,13,12,1,2,9,6,5,10,11,4"
14214,commdev-image-keyboard-response,529,1384909,learnblock2,433.7999999523163,img/planet4_left.png,4,Community 3,NA,FALSE,j,f,NA,NA,NA,1,6,"14,3,15,8,7,13,12,1,2,9,6,5,10,11,4"
14214,commdev-image-keyboard-response,530,1386161,learnblock2,950.1000000238419,img/planet10_right.png,10,Community 3,NA,TRUE,j,j,NA,NA,NA,1,6,"14,3,15,8,7,13,12,1,2,9,6,5,10,11,4"
14214,commdev-image-keyboard-response,531,1387414,learnblock2,596.1000000238419,img/planet5_left.png,5,Community 3,NA,TRUE,f,f,NA,NA,NA,1,6,"14,3,15,8,7,13,12,1,2,9,6,5,10,11,4"
14214,commdev-image-keyboard-response,532,1388667,learnblock2,943.1000000238419,img/planet1_left.png,1,Community 2,NA,FALSE,j,f,NA,NA,NA,1,6,"14,3,15,8,7,13,12,1,2,9,6,5,10,11,4"
14214,commdev-image-keyboard-response,533,1389919,learnblock2,817,img/planet5_left.png,5,Community 3,NA,TRUE,f,f,NA,NA,NA,1,6,"14,3,15,8,7,13,12,1,2,9,6,5,10,11,4"
14214,commdev-image-keyboard-response,534,1391171,learnblock2,914,img/planet1_right.png,1,Community 2,NA,TRUE,j,j,NA,NA,NA,1,6,"14,3,15,8,7,13,12,1,2,9,6,5,10,11,4"
14214,commdev-image-keyboard-response,535,1392423,learnblock2,577.7000000476837,img/planet5_right.png,5,Community 3,NA,FALSE,f,j,NA,NA,NA,1,6,"14,3,15,8,7,13,12,1,2,9,6,5,10,11,4"
14214,commdev-image-keyboard-response,536,1393675,learnblock2,581.1999999284744,img/planet10_right.png,10,Community 3,NA,TRUE,j,j,NA,NA,NA,1,6,"14,3,15,8,7,13,12,1,2,9,6,5,10,11,4"
14214,commdev-image-keyboard-response,537,1394926,learnblock2,342,img/planet11_left.png,11,Community 3,NA,FALSE,j,f,NA,NA,NA,1,6,"14,3,15,8,7,13,12,1,2,9,6,5,10,11,4"
14214,commdev-image-keyboard-response,538,1396178,learnblock2,937.8000000715256,img/planet5_left.png,5,Community 3,NA,TRUE,f,f,NA,NA,NA,1,6,"14,3,15,8,7,13,12,1,2,9,6,5,10,11,4"
14214,commdev-image-keyboard-response,539,1397430,learnblock2,680.8999999761581,img/planet10_right.png,10,Community 3,NA,FALSE,f,j,NA,NA,NA,1,6,"14,3,15,8,7,13,12,1,2,9,6,5,10,11,4"
14214,commdev-image-keyboard-response,540,1398682,learnblock2,693.7000000476837,img/planet4_right.png,4,Community 3,NA,TRUE,j,j,NA,NA,NA,1,6,"14,3,15,8,7,13,12,1,2,9,6,5,10,11,4"
14214,commdev-image-keyboard-response,541,1399934,learnblock2,796.7000000476837,img/planet11_left.png,11,Community 3,NA,TRUE,f,f,NA,NA,NA,1,6,"14,3,15,8,7,13,12,1,2,9,6,5,10,11,4"
14214,commdev-image-keyboard-response,542,1401185,learnblock2,602.1000000238419,img/planet4_right.png,4,Community 3,NA,TRUE,j,j,NA,NA,NA,1,6,"14,3,15,8,7,13,12,1,2,9,6,5,10,11,4"
14214,commdev-image-keyboard-response,543,1402438,learnblock2,578.5,img/planet10_right.png,10,Community 3,NA,TRUE,j,j,NA,NA,NA,1,6,"14,3,15,8,7,13,12,1,2,9,6,5,10,11,4"
14214,commdev-image-keyboard-response,544,1403689,learnblock2,552.1000000238419,img/planet6_right.png,6,Community 3,NA,TRUE,j,j,NA,NA,NA,1,6,"14,3,15,8,7,13,12,1,2,9,6,5,10,11,4"
14214,commdev-image-keyboard-response,545,1404941,learnblock2,769.5999999046326,img/planet7_left.png,7,Community 1,NA,FALSE,j,f,NA,NA,NA,1,6,"14,3,15,8,7,13,12,1,2,9,6,5,10,11,4"
14214,commdev-image-keyboard-response,546,1406193,learnblock2,820.7999999523163,img/planet3_right.png,3,Community 1,NA,TRUE,j,j,NA,NA,NA,1,6,"14,3,15,8,7,13,12,1,2,9,6,5,10,11,4"
14214,commdev-image-keyboard-response,547,1407444,learnblock2,882.2000000476837,img/planet14_left.png,14,Community 1,NA,TRUE,f,f,NA,NA,NA,1,6,"14,3,15,8,7,13,12,1,2,9,6,5,10,11,4"
14214,commdev-image-keyboard-response,548,1408696,learnblock2,783.7000000476837,img/planet7_right.png,7,Community 1,NA,TRUE,j,j,NA,NA,NA,1,6,"14,3,15,8,7,13,12,1,2,9,6,5,10,11,4"
14214,commdev-image-keyboard-response,549,1409954,learnblock2,848.9000000953674,img/planet15_right.png,15,Community 1,NA,FALSE,f,j,NA,NA,NA,1,6,"14,3,15,8,7,13,12,1,2,9,6,5,10,11,4"
14214,commdev-image-keyboard-response,550,1411205,learnblock2,724.3000000715256,img/planet8_right.png,8,Community 1,NA,TRUE,j,j,NA,NA,NA,1,6,"14,3,15,8,7,13,12,1,2,9,6,5,10,11,4"
14214,commdev-image-keyboard-response,551,1412457,learnblock2,615.5,img/planet3_left.png,3,Community 1,NA,FALSE,j,f,NA,NA,NA,1,6,"14,3,15,8,7,13,12,1,2,9,6,5,10,11,4"
14214,commdev-image-keyboard-response,552,1413709,learnblock2,743.5,img/planet8_right.png,8,Community 1,NA,TRUE,j,j,NA,NA,NA,1,6,"14,3,15,8,7,13,12,1,2,9,6,5,10,11,4"
14214,commdev-image-keyboard-response,553,1414961,learnblock2,837.3999999761581,img/planet13_right.png,13,Community 2,NA,TRUE,j,j,NA,NA,NA,1,6,"14,3,15,8,7,13,12,1,2,9,6,5,10,11,4"
14214,commdev-image-keyboard-response,554,1416213,learnblock2,null,img/planet12_left.png,12,Community 2,NA,FALSE,null,f,NA,NA,NA,1,6,"14,3,15,8,7,13,12,1,2,9,6,5,10,11,4"
14214,commdev-image-keyboard-response,555,1417465,learnblock2,1054,img/planet2_left.png,2,Community 2,NA,TRUE,f,f,NA,NA,NA,1,6,"14,3,15,8,7,13,12,1,2,9,6,5,10,11,4"
14214,commdev-image-keyboard-response,556,1418716,learnblock2,840,img/planet13_right.png,13,Community 2,NA,TRUE,j,j,NA,NA,NA,1,6,"14,3,15,8,7,13,12,1,2,9,6,5,10,11,4"
14214,commdev-image-keyboard-response,557,1419968,learnblock2,824.7000000476837,img/planet2_left.png,2,Community 2,NA,TRUE,f,f,NA,NA,NA,1,6,"14,3,15,8,7,13,12,1,2,9,6,5,10,11,4"
14214,commdev-image-keyboard-response,558,1421220,learnblock2,945.7000000476837,img/planet12_left.png,12,Community 2,NA,FALSE,j,f,NA,NA,NA,1,6,"14,3,15,8,7,13,12,1,2,9,6,5,10,11,4"
14214,commdev-image-keyboard-response,559,1422471,learnblock2,823.7000000476837,img/planet13_right.png,13,Community 2,NA,TRUE,j,j,NA,NA,NA,1,6,"14,3,15,8,7,13,12,1,2,9,6,5,10,11,4"
14214,commdev-image-keyboard-response,560,1423723,learnblock2,1094,img/planet2_right.png,2,Community 2,NA,FALSE,f,j,NA,NA,NA,1,6,"14,3,15,8,7,13,12,1,2,9,6,5,10,11,4"
14214,commdev-image-keyboard-response,561,1424975,learnblock2,1002.3999999761581,img/planet12_left.png,12,Community 2,NA,FALSE,j,f,NA,NA,NA,1,6,"14,3,15,8,7,13,12,1,2,9,6,5,10,11,4"
14214,commdev-image-keyboard-response,562,1426227,learnblock2,1014.1000000238419,img/planet2_left.png,2,Community 2,NA,TRUE,f,f,NA,NA,NA,1,6,"14,3,15,8,7,13,12,1,2,9,6,5,10,11,4"
14214,commdev-image-keyboard-response,563,1427478,learnblock2,858,img/planet9_left.png,9,Community 2,NA,TRUE,f,f,NA,NA,NA,1,6,"14,3,15,8,7,13,12,1,2,9,6,5,10,11,4"
14214,commdev-image-keyboard-response,564,1428730,learnblock2,740.1000000238419,img/planet12_left.png,12,Community 2,NA,TRUE,f,f,NA,NA,NA,1,6,"14,3,15,8,7,13,12,1,2,9,6,5,10,11,4"
14214,commdev-image-keyboard-response,565,1429982,learnblock2,798.8999999761581,img/planet2_left.png,2,Community 2,NA,TRUE,f,f,NA,NA,NA,1,6,"14,3,15,8,7,13,12,1,2,9,6,5,10,11,4"
14214,commdev-image-keyboard-response,566,1431234,learnblock2,821.1000000238419,img/planet12_left.png,12,Community 2,NA,TRUE,f,f,NA,NA,NA,1,6,"14,3,15,8,7,13,12,1,2,9,6,5,10,11,4"
14214,commdev-image-keyboard-response,567,1432486,learnblock2,602.3999999761581,img/planet9_right.png,9,Community 2,NA,TRUE,j,j,NA,NA,NA,1,6,"14,3,15,8,7,13,12,1,2,9,6,5,10,11,4"
14214,commdev-image-keyboard-response,568,1433737,learnblock2,316.89999997615814,img/planet13_left.png,13,Community 2,NA,FALSE,j,f,NA,NA,NA,1,6,"14,3,15,8,7,13,12,1,2,9,6,5,10,11,4"
14214,commdev-image-keyboard-response,569,1434989,learnblock2,355.7000000476837,img/planet12_right.png,12,Community 2,NA,FALSE,f,j,NA,NA,NA,1,6,"14,3,15,8,7,13,12,1,2,9,6,5,10,11,4"
14214,commdev-image-keyboard-response,570,1436240,learnblock2,360.39999997615814,img/planet13_right.png,13,Community 2,NA,FALSE,f,j,NA,NA,NA,1,6,"14,3,15,8,7,13,12,1,2,9,6,5,10,11,4"
14214,commdev-image-keyboard-response,571,1437492,learnblock2,98.39999997615814,img/planet9_left.png,9,Community 2,NA,FALSE,j,f,NA,NA,NA,1,6,"14,3,15,8,7,13,12,1,2,9,6,5,10,11,4"
14214,commdev-image-keyboard-response,572,1438743,learnblock2,785.2000000476837,img/planet13_left.png,13,Community 2,NA,TRUE,f,f,NA,NA,NA,1,6,"14,3,15,8,7,13,12,1,2,9,6,5,10,11,4"
14214,commdev-image-keyboard-response,573,1439995,learnblock2,721.7000000476837,img/planet12_right.png,12,Community 2,NA,TRUE,j,j,NA,NA,NA,1,6,"14,3,15,8,7,13,12,1,2,9,6,5,10,11,4"
14214,commdev-image-keyboard-response,574,1441247,learnblock2,460.7000000476837,img/planet13_left.png,13,Community 2,NA,TRUE,f,f,NA,NA,NA,1,6,"14,3,15,8,7,13,12,1,2,9,6,5,10,11,4"
14214,commdev-image-keyboard-response,575,1442500,learnblock2,458.89999997615814,img/planet2_right.png,2,Community 2,NA,FALSE,f,j,NA,NA,NA,1,6,"14,3,15,8,7,13,12,1,2,9,6,5,10,11,4"
14214,commdev-image-keyboard-response,576,1443752,learnblock2,390.89999997615814,img/planet13_right.png,13,Community 2,NA,TRUE,j,j,NA,NA,NA,1,6,"14,3,15,8,7,13,12,1,2,9,6,5,10,11,4"
14214,commdev-image-keyboard-response,577,1445004,learnblock2,528.8000000715256,img/planet2_right.png,2,Community 2,NA,TRUE,j,j,NA,NA,NA,1,6,"14,3,15,8,7,13,12,1,2,9,6,5,10,11,4"
14214,commdev-image-keyboard-response,578,1446255,learnblock2,388,img/planet12_right.png,12,Community 2,NA,TRUE,j,j,NA,NA,NA,1,6,"14,3,15,8,7,13,12,1,2,9,6,5,10,11,4"
14214,commdev-image-keyboard-response,579,1447507,learnblock2,188.39999997615814,img/planet2_right.png,2,Community 2,NA,FALSE,f,j,NA,NA,NA,1,6,"14,3,15,8,7,13,12,1,2,9,6,5,10,11,4"
14214,commdev-image-keyboard-response,580,1448758,learnblock2,84.69999992847443,img/planet13_left.png,13,Community 2,NA,FALSE,j,f,NA,NA,NA,1,6,"14,3,15,8,7,13,12,1,2,9,6,5,10,11,4"
14214,commdev-image-keyboard-response,581,1450010,learnblock2,802,img/planet12_left.png,12,Community 2,NA,FALSE,j,f,NA,NA,NA,1,6,"14,3,15,8,7,13,12,1,2,9,6,5,10,11,4"
14214,commdev-image-keyboard-response,582,1451262,learnblock2,337.7999999523163,img/planet9_left.png,9,Community 2,NA,TRUE,f,f,NA,NA,NA,1,6,"14,3,15,8,7,13,12,1,2,9,6,5,10,11,4"
14214,commdev-image-keyboard-response,583,1452514,learnblock2,312,img/planet12_right.png,12,Community 2,NA,FALSE,f,j,NA,NA,NA,1,6,"14,3,15,8,7,13,12,1,2,9,6,5,10,11,4"
14214,commdev-image-keyboard-response,584,1453767,learnblock2,124.69999992847443,img/planet13_right.png,13,Community 2,NA,TRUE,j,j,NA,NA,NA,1,6,"14,3,15,8,7,13,12,1,2,9,6,5,10,11,4"
14214,commdev-image-keyboard-response,585,1455019,learnblock2,794.1000000238419,img/planet2_left.png,2,Community 2,NA,TRUE,f,f,NA,NA,NA,1,6,"14,3,15,8,7,13,12,1,2,9,6,5,10,11,4"
14214,commdev-image-keyboard-response,586,1456271,learnblock2,758.7999999523163,img/planet13_left.png,13,Community 2,NA,TRUE,f,f,NA,NA,NA,1,6,"14,3,15,8,7,13,12,1,2,9,6,5,10,11,4"
14214,commdev-image-keyboard-response,587,1457523,learnblock2,635.3999999761581,img/planet8_left.png,8,Community 1,NA,TRUE,f,f,NA,NA,NA,1,6,"14,3,15,8,7,13,12,1,2,9,6,5,10,11,4"
14214,commdev-image-keyboard-response,588,1458775,learnblock2,339.3000000715256,img/planet15_right.png,15,Community 1,NA,TRUE,j,j,NA,NA,NA,1,6,"14,3,15,8,7,13,12,1,2,9,6,5,10,11,4"
14214,commdev-image-keyboard-response,589,1460026,learnblock2,1144.1000000238419,img/planet7_left.png,7,Community 1,NA,TRUE,f,f,NA,NA,NA,1,6,"14,3,15,8,7,13,12,1,2,9,6,5,10,11,4"
14214,commdev-image-keyboard-response,590,1461279,learnblock2,946.1999999284744,img/planet3_right.png,3,Community 1,NA,FALSE,f,j,NA,NA,NA,1,6,"14,3,15,8,7,13,12,1,2,9,6,5,10,11,4"
14214,commdev-image-keyboard-response,591,1462530,learnblock2,948.2000000476837,img/planet15_left.png,15,Community 1,NA,TRUE,f,f,NA,NA,NA,1,6,"14,3,15,8,7,13,12,1,2,9,6,5,10,11,4"
14214,commdev-image-keyboard-response,592,1463792,learnblock2,762.3999999761581,img/planet8_right.png,8,Community 1,NA,TRUE,j,j,NA,NA,NA,1,6,"14,3,15,8,7,13,12,1,2,9,6,5,10,11,4"
14214,commdev-image-keyboard-response,593,1465044,learnblock2,609.8999999761581,img/planet13_right.png,13,Community 2,NA,FALSE,f,j,NA,NA,NA,1,6,"14,3,15,8,7,13,12,1,2,9,6,5,10,11,4"
14214,commdev-image-keyboard-response,594,1466296,learnblock2,577.7000000476837,img/planet9_right.png,9,Community 2,NA,TRUE,j,j,NA,NA,NA,1,6,"14,3,15,8,7,13,12,1,2,9,6,5,10,11,4"
14214,commdev-image-keyboard-response,595,1467548,learnblock2,375,img/planet12_left.png,12,Community 2,NA,FALSE,j,f,NA,NA,NA,1,6,"14,3,15,8,7,13,12,1,2,9,6,5,10,11,4"
14214,commdev-image-keyboard-response,596,1468800,learnblock2,208.79999995231628,img/planet9_right.png,9,Community 2,NA,TRUE,j,j,NA,NA,NA,1,6,"14,3,15,8,7,13,12,1,2,9,6,5,10,11,4"
14214,commdev-image-keyboard-response,597,1470052,learnblock2,272.89999997615814,img/planet2_right.png,2,Community 2,NA,TRUE,j,j,NA,NA,NA,1,6,"14,3,15,8,7,13,12,1,2,9,6,5,10,11,4"
14214,commdev-image-keyboard-response,598,1471313,learnblock2,362.5,img/planet12_right.png,12,Community 2,NA,TRUE,j,j,NA,NA,NA,1,6,"14,3,15,8,7,13,12,1,2,9,6,5,10,11,4"
14214,commdev-image-keyboard-response,599,1472565,learnblock2,286.10000002384186,img/planet9_right.png,9,Community 2,NA,FALSE,f,j,NA,NA,NA,1,6,"14,3,15,8,7,13,12,1,2,9,6,5,10,11,4"
14214,commdev-image-keyboard-response,600,1473816,learnblock2,318.39999997615814,img/planet13_left.png,13,Community 2,NA,FALSE,j,f,NA,NA,NA,1,6,"14,3,15,8,7,13,12,1,2,9,6,5,10,11,4"
14214,commdev-image-keyboard-response,601,1475068,learnblock2,661.2999999523163,img/planet12_left.png,12,Community 2,NA,FALSE,j,f,NA,NA,NA,1,6,"14,3,15,8,7,13,12,1,2,9,6,5,10,11,4"
14214,commdev-image-keyboard-response,602,1476320,learnblock2,463.89999997615814,img/planet1_left.png,1,Community 2,NA,FALSE,j,f,NA,NA,NA,1,6,"14,3,15,8,7,13,12,1,2,9,6,5,10,11,4"
14214,commdev-image-keyboard-response,603,1477572,learnblock2,421.2999999523163,img/planet2_left.png,2,Community 2,NA,FALSE,j,f,NA,NA,NA,1,6,"14,3,15,8,7,13,12,1,2,9,6,5,10,11,4"
14214,commdev-image-keyboard-response,604,1478824,learnblock2,424.89999997615814,img/planet1_right.png,1,Community 2,NA,FALSE,f,j,NA,NA,NA,1,6,"14,3,15,8,7,13,12,1,2,9,6,5,10,11,4"
14214,commdev-image-keyboard-response,605,1480076,learnblock2,407.7000000476837,img/planet2_right.png,2,Community 2,NA,FALSE,f,j,NA,NA,NA,1,6,"14,3,15,8,7,13,12,1,2,9,6,5,10,11,4"
14214,commdev-image-keyboard-response,606,1481328,learnblock2,266.89999997615814,img/planet1_right.png,1,Community 2,NA,FALSE,f,j,NA,NA,NA,1,6,"14,3,15,8,7,13,12,1,2,9,6,5,10,11,4"
14214,commdev-image-keyboard-response,607,1482580,learnblock2,211.60000002384186,img/planet5_left.png,5,Community 3,NA,FALSE,j,f,NA,NA,NA,1,6,"14,3,15,8,7,13,12,1,2,9,6,5,10,11,4"
14214,commdev-image-keyboard-response,608,1483832,learnblock2,34.700000047683716,img/planet11_left.png,11,Community 3,NA,TRUE,f,f,NA,NA,NA,1,6,"14,3,15,8,7,13,12,1,2,9,6,5,10,11,4"
14214,commdev-image-keyboard-response,609,1485084,learnblock2,1003,img/planet6_right.png,6,Community 3,NA,TRUE,j,j,NA,NA,NA,1,6,"14,3,15,8,7,13,12,1,2,9,6,5,10,11,4"
14214,commdev-image-keyboard-response,610,1486336,learnblock2,840.8999999761581,img/planet7_left.png,7,Community 1,NA,TRUE,f,f,NA,NA,NA,1,6,"14,3,15,8,7,13,12,1,2,9,6,5,10,11,4"
14214,commdev-image-keyboard-response,611,1487588,learnblock2,682.2999999523163,img/planet6_right.png,6,Community 3,NA,TRUE,j,j,NA,NA,NA,1,6,"14,3,15,8,7,13,12,1,2,9,6,5,10,11,4"
14214,commdev-image-keyboard-response,612,1488840,learnblock2,699.8999999761581,img/planet10_right.png,10,Community 3,NA,TRUE,j,j,NA,NA,NA,1,6,"14,3,15,8,7,13,12,1,2,9,6,5,10,11,4"
14214,commdev-image-keyboard-response,613,1490092,learnblock2,567.3000000715256,img/planet6_left.png,6,Community 3,NA,FALSE,j,f,NA,NA,NA,1,6,"14,3,15,8,7,13,12,1,2,9,6,5,10,11,4"
14214,commdev-image-keyboard-response,614,1491343,learnblock2,549.5,img/planet4_right.png,4,Community 3,NA,TRUE,j,j,NA,NA,NA,1,6,"14,3,15,8,7,13,12,1,2,9,6,5,10,11,4"
14214,commdev-image-keyboard-response,615,1492595,learnblock2,539.6000000238419,img/planet6_left.png,6,Community 3,NA,TRUE,f,f,NA,NA,NA,1,6,"14,3,15,8,7,13,12,1,2,9,6,5,10,11,4"
14214,commdev-image-keyboard-response,616,1493847,learnblock2,374.7999999523163,img/planet10_right.png,10,Community 3,NA,TRUE,j,j,NA,NA,NA,1,6,"14,3,15,8,7,13,12,1,2,9,6,5,10,11,4"
14214,commdev-image-keyboard-response,617,1495099,learnblock2,301.60000002384186,img/planet11_right.png,11,Community 3,NA,TRUE,j,j,NA,NA,NA,1,6,"14,3,15,8,7,13,12,1,2,9,6,5,10,11,4"
14214,commdev-image-keyboard-response,618,1496350,learnblock2,286.7999999523163,img/planet6_right.png,6,Community 3,NA,TRUE,j,j,NA,NA,NA,1,6,"14,3,15,8,7,13,12,1,2,9,6,5,10,11,4"
14214,commdev-image-keyboard-response,619,1497602,learnblock2,65.30000007152557,img/planet10_right.png,10,Community 3,NA,FALSE,f,j,NA,NA,NA,1,6,"14,3,15,8,7,13,12,1,2,9,6,5,10,11,4"
14214,commdev-image-keyboard-response,620,1498854,learnblock2,1146.6000000238419,img/planet4_right.png,4,Community 3,NA,FALSE,f,j,NA,NA,NA,1,6,"14,3,15,8,7,13,12,1,2,9,6,5,10,11,4"
14214,commdev-image-keyboard-response,621,1500107,learnblock2,892,img/planet11_left.png,11,Community 3,NA,FALSE,j,f,NA,NA,NA,1,6,"14,3,15,8,7,13,12,1,2,9,6,5,10,11,4"
14214,commdev-image-keyboard-response,622,1501359,learnblock2,746.2000000476837,img/planet6_right.png,6,Community 3,NA,TRUE,j,j,NA,NA,NA,1,6,"14,3,15,8,7,13,12,1,2,9,6,5,10,11,4"
14214,commdev-image-keyboard-response,623,1502611,learnblock2,701.8999999761581,img/planet4_left.png,4,Community 3,NA,TRUE,f,f,NA,NA,NA,1,6,"14,3,15,8,7,13,12,1,2,9,6,5,10,11,4"
14214,commdev-image-keyboard-response,624,1503863,learnblock2,681.1999999284744,img/planet10_right.png,10,Community 3,NA,TRUE,j,j,NA,NA,NA,1,6,"14,3,15,8,7,13,12,1,2,9,6,5,10,11,4"
14214,commdev-image-keyboard-response,625,1505115,learnblock2,634.1000000238419,img/planet11_left.png,11,Community 3,NA,FALSE,j,f,NA,NA,NA,1,6,"14,3,15,8,7,13,12,1,2,9,6,5,10,11,4"
14214,commdev-image-keyboard-response,626,1506366,learnblock2,770.2000000476837,img/planet5_right.png,5,Community 3,NA,TRUE,j,j,NA,NA,NA,1,6,"14,3,15,8,7,13,12,1,2,9,6,5,10,11,4"
14214,commdev-image-keyboard-response,627,1507618,learnblock2,596,img/planet4_left.png,4,Community 3,NA,FALSE,j,f,NA,NA,NA,1,6,"14,3,15,8,7,13,12,1,2,9,6,5,10,11,4"
14214,commdev-image-keyboard-response,628,1508870,learnblock2,312.89999997615814,img/planet11_left.png,11,Community 3,NA,FALSE,j,f,NA,NA,NA,1,6,"14,3,15,8,7,13,12,1,2,9,6,5,10,11,4"
14214,commdev-image-keyboard-response,629,1510122,learnblock2,166.79999995231628,img/planet10_right.png,10,Community 3,NA,FALSE,f,j,NA,NA,NA,1,6,"14,3,15,8,7,13,12,1,2,9,6,5,10,11,4"
14214,commdev-image-keyboard-response,630,1511373,learnblock2,704,img/planet6_left.png,6,Community 3,NA,TRUE,f,f,NA,NA,NA,1,6,"14,3,15,8,7,13,12,1,2,9,6,5,10,11,4"
14214,commdev-image-keyboard-response,631,1512625,learnblock2,791.2999999523163,img/planet11_right.png,11,Community 3,NA,TRUE,j,j,NA,NA,NA,1,6,"14,3,15,8,7,13,12,1,2,9,6,5,10,11,4"
14214,commdev-image-keyboard-response,632,1513878,learnblock2,683,img/planet10_left.png,10,Community 3,NA,FALSE,j,f,NA,NA,NA,1,6,"14,3,15,8,7,13,12,1,2,9,6,5,10,11,4"
14214,commdev-image-keyboard-response,633,1515130,learnblock2,702,img/planet6_right.png,6,Community 3,NA,TRUE,j,j,NA,NA,NA,1,6,"14,3,15,8,7,13,12,1,2,9,6,5,10,11,4"
14214,commdev-image-keyboard-response,634,1516383,learnblock2,724.6999999284744,img/planet7_left.png,7,Community 1,NA,TRUE,f,f,NA,NA,NA,1,6,"14,3,15,8,7,13,12,1,2,9,6,5,10,11,4"
14214,commdev-image-keyboard-response,635,1517635,learnblock2,661.6000000238419,img/planet14_left.png,14,Community 1,NA,TRUE,f,f,NA,NA,NA,1,6,"14,3,15,8,7,13,12,1,2,9,6,5,10,11,4"
14214,commdev-image-keyboard-response,636,1518887,learnblock2,403.7999999523163,img/planet3_right.png,3,Community 1,NA,FALSE,f,j,NA,NA,NA,1,6,"14,3,15,8,7,13,12,1,2,9,6,5,10,11,4"
14214,commdev-image-keyboard-response,637,1520139,learnblock2,393.10000002384186,img/planet14_right.png,14,Community 1,NA,TRUE,j,j,NA,NA,NA,1,6,"14,3,15,8,7,13,12,1,2,9,6,5,10,11,4"
14214,commdev-image-keyboard-response,638,1521391,learnblock2,316.39999997615814,img/planet3_right.png,3,Community 1,NA,FALSE,f,j,NA,NA,NA,1,6,"14,3,15,8,7,13,12,1,2,9,6,5,10,11,4"
14214,commdev-image-keyboard-response,639,1522643,learnblock2,1021,img/planet14_right.png,14,Community 1,NA,TRUE,j,j,NA,NA,NA,1,6,"14,3,15,8,7,13,12,1,2,9,6,5,10,11,4"
14214,commdev-image-keyboard-response,640,1523894,learnblock2,742.1000000238419,img/planet8_right.png,8,Community 1,NA,TRUE,j,j,NA,NA,NA,1,6,"14,3,15,8,7,13,12,1,2,9,6,5,10,11,4"
14214,commdev-image-keyboard-response,641,1525145,learnblock2,346.6999999284744,img/planet13_left.png,13,Community 2,NA,FALSE,j,f,NA,NA,NA,1,6,"14,3,15,8,7,13,12,1,2,9,6,5,10,11,4"
14214,commdev-image-keyboard-response,642,1526397,learnblock2,752.3999999761581,img/planet9_left.png,9,Community 2,NA,TRUE,f,f,NA,NA,NA,1,6,"14,3,15,8,7,13,12,1,2,9,6,5,10,11,4"
14214,commdev-image-keyboard-response,643,1527649,learnblock2,774.5,img/planet12_left.png,12,Community 2,NA,TRUE,f,f,NA,NA,NA,1,6,"14,3,15,8,7,13,12,1,2,9,6,5,10,11,4"
14214,commdev-image-keyboard-response,644,1528900,learnblock2,411.39999997615814,img/planet9_left.png,9,Community 2,NA,FALSE,j,f,NA,NA,NA,1,6,"14,3,15,8,7,13,12,1,2,9,6,5,10,11,4"
14214,commdev-image-keyboard-response,645,1530153,learnblock2,113.19999992847443,img/planet13_left.png,13,Community 2,NA,TRUE,f,f,NA,NA,NA,1,6,"14,3,15,8,7,13,12,1,2,9,6,5,10,11,4"
14214,commdev-image-keyboard-response,646,1531405,learnblock2,822.7999999523163,img/planet9_right.png,9,Community 2,NA,TRUE,j,j,NA,NA,NA,1,6,"14,3,15,8,7,13,12,1,2,9,6,5,10,11,4"
14214,commdev-image-keyboard-response,647,1532658,learnblock2,563,img/planet13_left.png,13,Community 2,NA,TRUE,f,f,NA,NA,NA,1,6,"14,3,15,8,7,13,12,1,2,9,6,5,10,11,4"
14214,commdev-image-keyboard-response,648,1533910,learnblock2,400,img/planet2_right.png,2,Community 2,NA,FALSE,f,j,NA,NA,NA,1,6,"14,3,15,8,7,13,12,1,2,9,6,5,10,11,4"
14214,commdev-image-keyboard-response,649,1535162,learnblock2,147,img/planet13_right.png,13,Community 2,NA,TRUE,j,j,NA,NA,NA,1,6,"14,3,15,8,7,13,12,1,2,9,6,5,10,11,4"
14214,commdev-image-keyboard-response,650,1536414,learnblock2,950.1000000238419,img/planet12_left.png,12,Community 2,NA,TRUE,f,f,NA,NA,NA,1,6,"14,3,15,8,7,13,12,1,2,9,6,5,10,11,4"
14214,commdev-image-keyboard-response,651,1537667,learnblock2,712.7999999523163,img/planet9_left.png,9,Community 2,NA,FALSE,j,f,NA,NA,NA,1,6,"14,3,15,8,7,13,12,1,2,9,6,5,10,11,4"
14214,commdev-image-keyboard-response,652,1538918,learnblock2,560.0999999046326,img/planet1_right.png,1,Community 2,NA,TRUE,j,j,NA,NA,NA,1,6,"14,3,15,8,7,13,12,1,2,9,6,5,10,11,4"
14214,commdev-image-keyboard-response,653,1540170,learnblock2,166.29999995231628,img/planet5_left.png,5,Community 3,NA,FALSE,j,f,NA,NA,NA,1,6,"14,3,15,8,7,13,12,1,2,9,6,5,10,11,4"
14214,commdev-image-keyboard-response,654,1541422,learnblock2,756,img/planet1_left.png,1,Community 2,NA,FALSE,j,f,NA,NA,NA,1,6,"14,3,15,8,7,13,12,1,2,9,6,5,10,11,4"
14214,commdev-image-keyboard-response,655,1542673,learnblock2,417,img/planet9_left.png,9,Community 2,NA,FALSE,j,f,NA,NA,NA,1,6,"14,3,15,8,7,13,12,1,2,9,6,5,10,11,4"
14214,commdev-image-keyboard-response,656,1543925,learnblock2,213.19999992847443,img/planet2_right.png,2,Community 2,NA,TRUE,j,j,NA,NA,NA,1,6,"14,3,15,8,7,13,12,1,2,9,6,5,10,11,4"
