subject_id,trial_type,trial_index,time_elapsed,block,rt,stimulus,planet,community,response,correct,key_press,learning_correct_response,parse,init_locations,final_locations,browser_interactions,num_comp,planet_map
14417,commdev-instructions,7,197798,NA,33324,"<p>In this game, you are a scientist on board a space shuttle. </p><p> On each mission, you will visit planets all across the universe.</p><img src=""img/controlroom.jpg"" width=300vw>",NA,NA,NA,NA,NA,NA,NA,NA,NA,8,7,"7,10,9,4,1,5,2,8,12,6,13,15,11,14,3"
14417,commdev-instructions,8,203173,NA,3298.999999999971,"<p>Here are a few planets you might see:</p><img src=""img/practice1.png"" width=200vw><img src=""img/practice2.png"" width=200vw><img src=""img/practice3.png"" width=200vw>",NA,NA,NA,NA,NA,NA,NA,NA,NA,8,7,"7,10,9,4,1,5,2,8,12,6,13,15,11,14,3"
14417,commdev-instructions,9,271836,NA,61264,"<p>Your job as a scientist is to record which direction the winds are moving on each planet.</p><p>There are two types of wind directions:</p><img src=""img/practice1_left.png"" width=200vw><img src=""img/practice1_right.png"" width=200vw>",NA,NA,NA,NA,NA,NA,NA,NA,NA,8,7,"7,10,9,4,1,5,2,8,12,6,13,15,11,14,3"
14417,commdev-instructions,10,278153,NA,1438,"<p>If the winds are moving this way, press the letter <strong>F</strong> on the keyboard as fast as you can.</p><img src=""img/leftwind.png"" width=250vw>",NA,NA,NA,NA,NA,NA,NA,NA,NA,8,7,"7,10,9,4,1,5,2,8,12,6,13,15,11,14,3"
14417,commdev-instructions,11,284058,NA,1409,"<p>If the winds are moving this way, press the letter <strong>J</strong> on the keyboard as fast as you can.</p><img src=""img/rightwind.png"" width=350vw>",NA,NA,NA,NA,NA,NA,NA,NA,NA,8,7,"7,10,9,4,1,5,2,8,12,6,13,15,11,14,3"
14417,commdev-instructions,12,290187,NA,1708,<p>You will have 1 second to respond. Try to respond before the time runs out!,NA,NA,NA,NA,NA,NA,NA,NA,NA,8,7,"7,10,9,4,1,5,2,8,12,6,13,15,11,14,3"
14417,commdev-instructions,13,297465,NA,1851,<p>The planets you will visit will look different from each other.</p><p>You should respond <strong>only</strong> based on wind direction.,NA,NA,NA,NA,NA,NA,NA,NA,NA,8,7,"7,10,9,4,1,5,2,8,12,6,13,15,11,14,3"
14417,commdev-instructions,14,303623,NA,992,"<p> Ready to start the practice round? </p><p> Remember, press <strong>F</strong> or <strong>J</strong> depending on the wind direction.<br><img src=""img/categorize_planet_example.png""",NA,NA,NA,NA,NA,NA,NA,NA,NA,8,7,"7,10,9,4,1,5,2,8,12,6,13,15,11,14,3"
14417,commdev-instructions,26,355159,NA,1989,"<p>Great, now try a short practice mission. </p><p> This time, you will have 1 second to respond and you won't know whether you pressed the right or wrong key for each planet.</p>",NA,NA,NA,NA,NA,NA,NA,NA,NA,8,7,"7,10,9,4,1,5,2,8,12,6,13,15,11,14,3"
14417,commdev-image-keyboard-response,27,356513,practice,646.9999999999418,img/practice3_right.png,NA,Number not found in mappings,NA,TRUE,j,j,NA,NA,NA,8,7,"7,10,9,4,1,5,2,8,12,6,13,15,11,14,3"
14417,commdev-image-keyboard-response,28,357766,practice,203,img/practice4_left.png,NA,Number not found in mappings,NA,FALSE,j,f,NA,NA,NA,8,7,"7,10,9,4,1,5,2,8,12,6,13,15,11,14,3"
14417,commdev-image-keyboard-response,29,359020,practice,847,img/practice1_left.png,NA,Number not found in mappings,NA,TRUE,f,f,NA,NA,NA,8,7,"7,10,9,4,1,5,2,8,12,6,13,15,11,14,3"
14417,commdev-image-keyboard-response,30,360273,practice,718,img/practice3_left.png,NA,Number not found in mappings,NA,FALSE,j,f,NA,NA,NA,8,7,"7,10,9,4,1,5,2,8,12,6,13,15,11,14,3"
14417,commdev-image-keyboard-response,31,361526,practice,730.0000000000582,img/practice2_right.png,NA,Number not found in mappings,NA,TRUE,j,j,NA,NA,NA,8,7,"7,10,9,4,1,5,2,8,12,6,13,15,11,14,3"
14417,commdev-image-keyboard-response,32,362779,practice,697.9999999999418,img/practice1_right.png,NA,Number not found in mappings,NA,TRUE,j,j,NA,NA,NA,8,7,"7,10,9,4,1,5,2,8,12,6,13,15,11,14,3"
14417,commdev-image-keyboard-response,33,364032,practice,812,img/practice3_right.png,NA,Number not found in mappings,NA,FALSE,f,j,NA,NA,NA,8,7,"7,10,9,4,1,5,2,8,12,6,13,15,11,14,3"
14417,commdev-image-keyboard-response,34,365285,practice,1004,img/practice1_left.png,NA,Number not found in mappings,NA,TRUE,f,f,NA,NA,NA,8,7,"7,10,9,4,1,5,2,8,12,6,13,15,11,14,3"
14417,commdev-instructions,35,376992,NA,2157,"<p>Great job with the practice round.</p><p>During real missions, you won't know whether you pressed the right or wrong key for each planet.</p><p>But between missions, we will tell you how you did overall.</p>",NA,NA,NA,NA,NA,NA,NA,NA,NA,8,7,"7,10,9,4,1,5,2,8,12,6,13,15,11,14,3"
14417,commdev-instructions,36,386367,NA,1138,<p>Try your best! You will be paid a bonus based on how many correct responses you make!</p><p>Responses that are too slow will not count toward your bonus.</p>,NA,NA,NA,NA,NA,NA,NA,NA,NA,8,7,"7,10,9,4,1,5,2,8,12,6,13,15,11,14,3"
14417,commdev-instructions,37,393966,NA,1402,"<p>You are almost ready to start the real game.</p><p> First, we are going to ask you some questions about how the game works.</p>",NA,NA,NA,NA,NA,NA,NA,NA,NA,8,7,"7,10,9,4,1,5,2,8,12,6,13,15,11,14,3"
14417,commdev-instructions,48,515453,NA,6868.000000000058,"<p> Nice work! It is now time to start the real game.<p></p>You will go on two missions to record wind directions of different planets.<p></p>Each one will take about 5 minutes. You will get to take a break between missions.<p><p> Remember, press <strong>F</strong> or <strong>J</strong> depending on the wind direction. Good luck!<br><img src=""img/categorize_planet_example.png""",NA,NA,NA,NA,NA,NA,NA,NA,NA,8,7,"7,10,9,4,1,5,2,8,12,6,13,15,11,14,3"
14417,commdev-image-keyboard-response,50,519710,learnblock1,1093,img/planet5_right.png,5,Community 2,NA,TRUE,j,j,NA,NA,NA,8,7,"7,10,9,4,1,5,2,8,12,6,13,15,11,14,3"
14417,commdev-image-keyboard-response,51,520963,learnblock1,728.0000000000582,img/planet4_left.png,4,Community 1,NA,TRUE,f,f,NA,NA,NA,8,7,"7,10,9,4,1,5,2,8,12,6,13,15,11,14,3"
14417,commdev-image-keyboard-response,52,522216,learnblock1,735.9999999999418,img/planet9_left.png,9,Community 1,NA,TRUE,f,f,NA,NA,NA,8,7,"7,10,9,4,1,5,2,8,12,6,13,15,11,14,3"
14417,commdev-image-keyboard-response,53,523470,learnblock1,837,img/planet7_left.png,7,Community 1,NA,TRUE,f,f,NA,NA,NA,8,7,"7,10,9,4,1,5,2,8,12,6,13,15,11,14,3"
14417,commdev-image-keyboard-response,54,524723,learnblock1,610,img/planet10_left.png,10,Community 1,NA,TRUE,f,f,NA,NA,NA,8,7,"7,10,9,4,1,5,2,8,12,6,13,15,11,14,3"
14417,commdev-image-keyboard-response,55,525976,learnblock1,731,img/planet7_right.png,7,Community 1,NA,TRUE,j,j,NA,NA,NA,8,7,"7,10,9,4,1,5,2,8,12,6,13,15,11,14,3"
14417,commdev-image-keyboard-response,56,527230,learnblock1,1129,img/planet1_left.png,1,Community 1,NA,TRUE,f,f,NA,NA,NA,8,7,"7,10,9,4,1,5,2,8,12,6,13,15,11,14,3"
14417,commdev-image-keyboard-response,57,528482,learnblock1,1071,img/planet9_right.png,9,Community 1,NA,TRUE,j,j,NA,NA,NA,8,7,"7,10,9,4,1,5,2,8,12,6,13,15,11,14,3"
14417,commdev-image-keyboard-response,58,529735,learnblock1,950,img/planet10_right.png,10,Community 1,NA,TRUE,j,j,NA,NA,NA,8,7,"7,10,9,4,1,5,2,8,12,6,13,15,11,14,3"
14417,commdev-image-keyboard-response,59,530989,learnblock1,706,img/planet9_right.png,9,Community 1,NA,TRUE,j,j,NA,NA,NA,8,7,"7,10,9,4,1,5,2,8,12,6,13,15,11,14,3"
14417,commdev-image-keyboard-response,60,532242,learnblock1,909,img/planet7_left.png,7,Community 1,NA,TRUE,f,f,NA,NA,NA,8,7,"7,10,9,4,1,5,2,8,12,6,13,15,11,14,3"
14417,commdev-image-keyboard-response,61,533495,learnblock1,826,img/planet9_right.png,9,Community 1,NA,TRUE,j,j,NA,NA,NA,8,7,"7,10,9,4,1,5,2,8,12,6,13,15,11,14,3"
14417,commdev-image-keyboard-response,62,534747,learnblock1,712,img/planet10_right.png,10,Community 1,NA,TRUE,j,j,NA,NA,NA,8,7,"7,10,9,4,1,5,2,8,12,6,13,15,11,14,3"
14417,commdev-image-keyboard-response,63,536000,learnblock1,1019,img/planet9_right.png,9,Community 1,NA,TRUE,j,j,NA,NA,NA,8,7,"7,10,9,4,1,5,2,8,12,6,13,15,11,14,3"
14417,commdev-image-keyboard-response,64,537252,learnblock1,1003,img/planet1_right.png,1,Community 1,NA,TRUE,j,j,NA,NA,NA,8,7,"7,10,9,4,1,5,2,8,12,6,13,15,11,14,3"
14417,commdev-image-keyboard-response,65,538506,learnblock1,951,img/planet7_right.png,7,Community 1,NA,TRUE,j,j,NA,NA,NA,8,7,"7,10,9,4,1,5,2,8,12,6,13,15,11,14,3"
14417,commdev-image-keyboard-response,66,539759,learnblock1,938.0000000001164,img/planet9_right.png,9,Community 1,NA,TRUE,j,j,NA,NA,NA,8,7,"7,10,9,4,1,5,2,8,12,6,13,15,11,14,3"
14417,commdev-image-keyboard-response,67,541013,learnblock1,703,img/planet7_right.png,7,Community 1,NA,TRUE,j,j,NA,NA,NA,8,7,"7,10,9,4,1,5,2,8,12,6,13,15,11,14,3"
14417,commdev-image-keyboard-response,68,542268,learnblock1,742,img/planet9_right.png,9,Community 1,NA,TRUE,j,j,NA,NA,NA,8,7,"7,10,9,4,1,5,2,8,12,6,13,15,11,14,3"
14417,commdev-image-keyboard-response,69,543521,learnblock1,693,img/planet10_left.png,10,Community 1,NA,TRUE,f,f,NA,NA,NA,8,7,"7,10,9,4,1,5,2,8,12,6,13,15,11,14,3"
14417,commdev-image-keyboard-response,70,544775,learnblock1,811.9999999998836,img/planet4_left.png,4,Community 1,NA,TRUE,f,f,NA,NA,NA,8,7,"7,10,9,4,1,5,2,8,12,6,13,15,11,14,3"
14417,commdev-image-keyboard-response,71,546027,learnblock1,632,img/planet7_left.png,7,Community 1,NA,TRUE,f,f,NA,NA,NA,8,7,"7,10,9,4,1,5,2,8,12,6,13,15,11,14,3"
14417,commdev-image-keyboard-response,72,547281,learnblock1,650,img/planet1_right.png,1,Community 1,NA,TRUE,j,j,NA,NA,NA,8,7,"7,10,9,4,1,5,2,8,12,6,13,15,11,14,3"
14417,commdev-image-keyboard-response,73,548534,learnblock1,651,img/planet13_left.png,13,Community 3,NA,TRUE,f,f,NA,NA,NA,8,7,"7,10,9,4,1,5,2,8,12,6,13,15,11,14,3"
14417,commdev-image-keyboard-response,74,549787,learnblock1,786,img/planet3_left.png,3,Community 3,NA,TRUE,f,f,NA,NA,NA,8,7,"7,10,9,4,1,5,2,8,12,6,13,15,11,14,3"
14417,commdev-image-keyboard-response,75,551039,learnblock1,715,img/planet14_right.png,14,Community 3,NA,TRUE,j,j,NA,NA,NA,8,7,"7,10,9,4,1,5,2,8,12,6,13,15,11,14,3"
14417,commdev-image-keyboard-response,76,552292,learnblock1,673,img/planet11_left.png,11,Community 3,NA,TRUE,f,f,NA,NA,NA,8,7,"7,10,9,4,1,5,2,8,12,6,13,15,11,14,3"
14417,commdev-image-keyboard-response,77,553546,learnblock1,655,img/planet14_left.png,14,Community 3,NA,TRUE,f,f,NA,NA,NA,8,7,"7,10,9,4,1,5,2,8,12,6,13,15,11,14,3"
14417,commdev-image-keyboard-response,78,554799,learnblock1,791,img/planet11_left.png,11,Community 3,NA,TRUE,f,f,NA,NA,NA,8,7,"7,10,9,4,1,5,2,8,12,6,13,15,11,14,3"
14417,commdev-image-keyboard-response,79,556052,learnblock1,842.0000000001164,img/planet15_left.png,15,Community 3,NA,TRUE,f,f,NA,NA,NA,8,7,"7,10,9,4,1,5,2,8,12,6,13,15,11,14,3"
14417,commdev-image-keyboard-response,80,557305,learnblock1,802,img/planet8_left.png,8,Community 2,NA,TRUE,f,f,NA,NA,NA,8,7,"7,10,9,4,1,5,2,8,12,6,13,15,11,14,3"
14417,commdev-image-keyboard-response,81,558558,learnblock1,686.0000000001164,img/planet15_right.png,15,Community 3,NA,TRUE,j,j,NA,NA,NA,8,7,"7,10,9,4,1,5,2,8,12,6,13,15,11,14,3"
14417,commdev-image-keyboard-response,82,559812,learnblock1,931,img/planet3_right.png,3,Community 3,NA,TRUE,j,j,NA,NA,NA,8,7,"7,10,9,4,1,5,2,8,12,6,13,15,11,14,3"
14417,commdev-image-keyboard-response,83,561065,learnblock1,703,img/planet14_right.png,14,Community 3,NA,TRUE,j,j,NA,NA,NA,8,7,"7,10,9,4,1,5,2,8,12,6,13,15,11,14,3"
14417,commdev-image-keyboard-response,84,562318,learnblock1,673,img/planet11_left.png,11,Community 3,NA,TRUE,f,f,NA,NA,NA,8,7,"7,10,9,4,1,5,2,8,12,6,13,15,11,14,3"
14417,commdev-image-keyboard-response,85,563571,learnblock1,646.9999999998836,img/planet14_left.png,14,Community 3,NA,TRUE,f,f,NA,NA,NA,8,7,"7,10,9,4,1,5,2,8,12,6,13,15,11,14,3"
14417,commdev-image-keyboard-response,86,564825,learnblock1,545,img/planet11_right.png,11,Community 3,NA,TRUE,j,j,NA,NA,NA,8,7,"7,10,9,4,1,5,2,8,12,6,13,15,11,14,3"
14417,commdev-image-keyboard-response,87,566077,learnblock1,648,img/planet13_right.png,13,Community 3,NA,TRUE,j,j,NA,NA,NA,8,7,"7,10,9,4,1,5,2,8,12,6,13,15,11,14,3"
14417,commdev-image-keyboard-response,88,567331,learnblock1,739,img/planet3_right.png,3,Community 3,NA,TRUE,j,j,NA,NA,NA,8,7,"7,10,9,4,1,5,2,8,12,6,13,15,11,14,3"
14417,commdev-image-keyboard-response,89,568584,learnblock1,662,img/planet11_left.png,11,Community 3,NA,TRUE,f,f,NA,NA,NA,8,7,"7,10,9,4,1,5,2,8,12,6,13,15,11,14,3"
14417,commdev-image-keyboard-response,90,569837,learnblock1,605,img/planet13_left.png,13,Community 3,NA,TRUE,f,f,NA,NA,NA,8,7,"7,10,9,4,1,5,2,8,12,6,13,15,11,14,3"
14417,commdev-image-keyboard-response,91,571090,learnblock1,583.9999999998836,img/planet11_left.png,11,Community 3,NA,TRUE,f,f,NA,NA,NA,8,7,"7,10,9,4,1,5,2,8,12,6,13,15,11,14,3"
14417,commdev-image-keyboard-response,92,572343,learnblock1,528,img/planet13_right.png,13,Community 3,NA,FALSE,f,j,NA,NA,NA,8,7,"7,10,9,4,1,5,2,8,12,6,13,15,11,14,3"
14417,commdev-image-keyboard-response,93,573596,learnblock1,32,img/planet1_left.png,1,Community 1,NA,FALSE,j,f,NA,NA,NA,8,7,"7,10,9,4,1,5,2,8,12,6,13,15,11,14,3"
14417,commdev-image-keyboard-response,94,574849,learnblock1,739,img/planet10_right.png,10,Community 1,NA,TRUE,j,j,NA,NA,NA,8,7,"7,10,9,4,1,5,2,8,12,6,13,15,11,14,3"
14417,commdev-image-keyboard-response,95,576103,learnblock1,642,img/planet7_left.png,7,Community 1,NA,TRUE,f,f,NA,NA,NA,8,7,"7,10,9,4,1,5,2,8,12,6,13,15,11,14,3"
14417,commdev-image-keyboard-response,96,577356,learnblock1,1085,img/planet4_left.png,4,Community 1,NA,FALSE,j,f,NA,NA,NA,8,7,"7,10,9,4,1,5,2,8,12,6,13,15,11,14,3"
14417,commdev-image-keyboard-response,97,578609,learnblock1,848,img/planet7_left.png,7,Community 1,NA,TRUE,f,f,NA,NA,NA,8,7,"7,10,9,4,1,5,2,8,12,6,13,15,11,14,3"
14417,commdev-image-keyboard-response,98,579862,learnblock1,534,img/planet10_left.png,10,Community 1,NA,TRUE,f,f,NA,NA,NA,8,7,"7,10,9,4,1,5,2,8,12,6,13,15,11,14,3"
14417,commdev-image-keyboard-response,99,581115,learnblock1,600,img/planet1_left.png,1,Community 1,NA,TRUE,f,f,NA,NA,NA,8,7,"7,10,9,4,1,5,2,8,12,6,13,15,11,14,3"
14417,commdev-image-keyboard-response,100,582369,learnblock1,1045,img/planet7_left.png,7,Community 1,NA,TRUE,f,f,NA,NA,NA,8,7,"7,10,9,4,1,5,2,8,12,6,13,15,11,14,3"
14417,commdev-image-keyboard-response,101,583622,learnblock1,587,img/planet10_right.png,10,Community 1,NA,TRUE,j,j,NA,NA,NA,8,7,"7,10,9,4,1,5,2,8,12,6,13,15,11,14,3"
14417,commdev-image-keyboard-response,102,584876,learnblock1,727,img/planet7_left.png,7,Community 1,NA,TRUE,f,f,NA,NA,NA,8,7,"7,10,9,4,1,5,2,8,12,6,13,15,11,14,3"
14417,commdev-image-keyboard-response,103,586130,learnblock1,571,img/planet4_left.png,4,Community 1,NA,TRUE,f,f,NA,NA,NA,8,7,"7,10,9,4,1,5,2,8,12,6,13,15,11,14,3"
14417,commdev-image-keyboard-response,104,587383,learnblock1,575,img/planet5_left.png,5,Community 2,NA,TRUE,f,f,NA,NA,NA,8,7,"7,10,9,4,1,5,2,8,12,6,13,15,11,14,3"
14417,commdev-image-keyboard-response,105,588636,learnblock1,607.0000000001164,img/planet2_left.png,2,Community 2,NA,TRUE,f,f,NA,NA,NA,8,7,"7,10,9,4,1,5,2,8,12,6,13,15,11,14,3"
14417,commdev-image-keyboard-response,106,589889,learnblock1,525,img/planet5_left.png,5,Community 2,NA,TRUE,f,f,NA,NA,NA,8,7,"7,10,9,4,1,5,2,8,12,6,13,15,11,14,3"
14417,commdev-image-keyboard-response,107,591142,learnblock1,591,img/planet4_right.png,4,Community 1,NA,TRUE,j,j,NA,NA,NA,8,7,"7,10,9,4,1,5,2,8,12,6,13,15,11,14,3"
14417,commdev-image-keyboard-response,108,592396,learnblock1,537.9999999998836,img/planet9_right.png,9,Community 1,NA,TRUE,j,j,NA,NA,NA,8,7,"7,10,9,4,1,5,2,8,12,6,13,15,11,14,3"
14417,commdev-image-keyboard-response,109,593649,learnblock1,836,img/planet10_right.png,10,Community 1,NA,TRUE,j,j,NA,NA,NA,8,7,"7,10,9,4,1,5,2,8,12,6,13,15,11,14,3"
14417,commdev-image-keyboard-response,110,594902,learnblock1,970,img/planet4_right.png,4,Community 1,NA,TRUE,j,j,NA,NA,NA,8,7,"7,10,9,4,1,5,2,8,12,6,13,15,11,14,3"
14417,commdev-image-keyboard-response,111,596155,learnblock1,724,img/planet5_left.png,5,Community 2,NA,TRUE,f,f,NA,NA,NA,8,7,"7,10,9,4,1,5,2,8,12,6,13,15,11,14,3"
14417,commdev-image-keyboard-response,112,597409,learnblock1,580,img/planet4_left.png,4,Community 1,NA,TRUE,f,f,NA,NA,NA,8,7,"7,10,9,4,1,5,2,8,12,6,13,15,11,14,3"
14417,commdev-image-keyboard-response,113,598662,learnblock1,682,img/planet10_right.png,10,Community 1,NA,TRUE,j,j,NA,NA,NA,8,7,"7,10,9,4,1,5,2,8,12,6,13,15,11,14,3"
14417,commdev-image-keyboard-response,114,599915,learnblock1,737.9999999998836,img/planet1_right.png,1,Community 1,NA,TRUE,j,j,NA,NA,NA,8,7,"7,10,9,4,1,5,2,8,12,6,13,15,11,14,3"
14417,commdev-image-keyboard-response,115,601168,learnblock1,756,img/planet13_right.png,13,Community 3,NA,TRUE,j,j,NA,NA,NA,8,7,"7,10,9,4,1,5,2,8,12,6,13,15,11,14,3"
14417,commdev-image-keyboard-response,116,602421,learnblock1,701,img/planet11_left.png,11,Community 3,NA,TRUE,f,f,NA,NA,NA,8,7,"7,10,9,4,1,5,2,8,12,6,13,15,11,14,3"
14417,commdev-image-keyboard-response,117,603674,learnblock1,658,img/planet13_right.png,13,Community 3,NA,TRUE,j,j,NA,NA,NA,8,7,"7,10,9,4,1,5,2,8,12,6,13,15,11,14,3"
14417,commdev-image-keyboard-response,118,604927,learnblock1,725,img/planet11_left.png,11,Community 3,NA,TRUE,f,f,NA,NA,NA,8,7,"7,10,9,4,1,5,2,8,12,6,13,15,11,14,3"
14417,commdev-image-keyboard-response,119,606180,learnblock1,607,img/planet13_left.png,13,Community 3,NA,TRUE,f,f,NA,NA,NA,8,7,"7,10,9,4,1,5,2,8,12,6,13,15,11,14,3"
14417,commdev-image-keyboard-response,120,607432,learnblock1,563,img/planet11_right.png,11,Community 3,NA,FALSE,f,j,NA,NA,NA,8,7,"7,10,9,4,1,5,2,8,12,6,13,15,11,14,3"
14417,commdev-image-keyboard-response,121,608685,learnblock1,886,img/planet15_left.png,15,Community 3,NA,TRUE,f,f,NA,NA,NA,8,7,"7,10,9,4,1,5,2,8,12,6,13,15,11,14,3"
14417,commdev-image-keyboard-response,122,609938,learnblock1,779,img/planet3_left.png,3,Community 3,NA,TRUE,f,f,NA,NA,NA,8,7,"7,10,9,4,1,5,2,8,12,6,13,15,11,14,3"
14417,commdev-image-keyboard-response,123,611192,learnblock1,674,img/planet11_left.png,11,Community 3,NA,TRUE,f,f,NA,NA,NA,8,7,"7,10,9,4,1,5,2,8,12,6,13,15,11,14,3"
14417,commdev-image-keyboard-response,124,612445,learnblock1,765,img/planet13_right.png,13,Community 3,NA,TRUE,j,j,NA,NA,NA,8,7,"7,10,9,4,1,5,2,8,12,6,13,15,11,14,3"
14417,commdev-image-keyboard-response,125,613698,learnblock1,791,img/planet14_right.png,14,Community 3,NA,TRUE,j,j,NA,NA,NA,8,7,"7,10,9,4,1,5,2,8,12,6,13,15,11,14,3"
14417,commdev-image-keyboard-response,126,614951,learnblock1,666,img/planet13_left.png,13,Community 3,NA,TRUE,f,f,NA,NA,NA,8,7,"7,10,9,4,1,5,2,8,12,6,13,15,11,14,3"
14417,commdev-image-keyboard-response,127,616204,learnblock1,723,img/planet14_left.png,14,Community 3,NA,TRUE,f,f,NA,NA,NA,8,7,"7,10,9,4,1,5,2,8,12,6,13,15,11,14,3"
14417,commdev-image-keyboard-response,128,617458,learnblock1,682.0000000001164,img/planet13_right.png,13,Community 3,NA,TRUE,j,j,NA,NA,NA,8,7,"7,10,9,4,1,5,2,8,12,6,13,15,11,14,3"
14417,commdev-image-keyboard-response,129,618711,learnblock1,1180,img/planet14_left.png,14,Community 3,NA,TRUE,f,f,NA,NA,NA,8,7,"7,10,9,4,1,5,2,8,12,6,13,15,11,14,3"
14417,commdev-image-keyboard-response,130,619963,learnblock1,903,img/planet13_left.png,13,Community 3,NA,FALSE,j,f,NA,NA,NA,8,7,"7,10,9,4,1,5,2,8,12,6,13,15,11,14,3"
14417,commdev-image-keyboard-response,131,621217,learnblock1,559.9999999998836,img/planet3_right.png,3,Community 3,NA,FALSE,f,j,NA,NA,NA,8,7,"7,10,9,4,1,5,2,8,12,6,13,15,11,14,3"
14417,commdev-image-keyboard-response,132,622469,learnblock1,701,img/planet15_left.png,15,Community 3,NA,TRUE,f,f,NA,NA,NA,8,7,"7,10,9,4,1,5,2,8,12,6,13,15,11,14,3"
14417,commdev-image-keyboard-response,133,623721,learnblock1,694,img/planet11_left.png,11,Community 3,NA,TRUE,f,f,NA,NA,NA,8,7,"7,10,9,4,1,5,2,8,12,6,13,15,11,14,3"
14417,commdev-image-keyboard-response,134,624975,learnblock1,713.0000000001164,img/planet14_right.png,14,Community 3,NA,TRUE,j,j,NA,NA,NA,8,7,"7,10,9,4,1,5,2,8,12,6,13,15,11,14,3"
14417,commdev-image-keyboard-response,135,626228,learnblock1,888.0000000001164,img/planet15_right.png,15,Community 3,NA,TRUE,j,j,NA,NA,NA,8,7,"7,10,9,4,1,5,2,8,12,6,13,15,11,14,3"
14417,commdev-image-keyboard-response,136,627481,learnblock1,677,img/planet14_right.png,14,Community 3,NA,TRUE,j,j,NA,NA,NA,8,7,"7,10,9,4,1,5,2,8,12,6,13,15,11,14,3"
14417,commdev-image-keyboard-response,137,628734,learnblock1,583.0000000001164,img/planet13_left.png,13,Community 3,NA,TRUE,f,f,NA,NA,NA,8,7,"7,10,9,4,1,5,2,8,12,6,13,15,11,14,3"
14417,commdev-image-keyboard-response,138,629987,learnblock1,799,img/planet3_left.png,3,Community 3,NA,TRUE,f,f,NA,NA,NA,8,7,"7,10,9,4,1,5,2,8,12,6,13,15,11,14,3"
14417,commdev-image-keyboard-response,139,631241,learnblock1,647,img/planet11_right.png,11,Community 3,NA,TRUE,j,j,NA,NA,NA,8,7,"7,10,9,4,1,5,2,8,12,6,13,15,11,14,3"
14417,commdev-image-keyboard-response,140,632494,learnblock1,560,img/planet14_left.png,14,Community 3,NA,TRUE,f,f,NA,NA,NA,8,7,"7,10,9,4,1,5,2,8,12,6,13,15,11,14,3"
14417,commdev-image-keyboard-response,141,633747,learnblock1,698,img/planet13_right.png,13,Community 3,NA,TRUE,j,j,NA,NA,NA,8,7,"7,10,9,4,1,5,2,8,12,6,13,15,11,14,3"
14417,commdev-image-keyboard-response,142,635001,learnblock1,720,img/planet1_left.png,1,Community 1,NA,TRUE,f,f,NA,NA,NA,8,7,"7,10,9,4,1,5,2,8,12,6,13,15,11,14,3"
14417,commdev-image-keyboard-response,143,636254,learnblock1,604,img/planet10_right.png,10,Community 1,NA,TRUE,j,j,NA,NA,NA,8,7,"7,10,9,4,1,5,2,8,12,6,13,15,11,14,3"
14417,commdev-image-keyboard-response,144,637507,learnblock1,501,img/planet7_left.png,7,Community 1,NA,TRUE,f,f,NA,NA,NA,8,7,"7,10,9,4,1,5,2,8,12,6,13,15,11,14,3"
14417,commdev-image-keyboard-response,145,638760,learnblock1,687,img/planet9_left.png,9,Community 1,NA,TRUE,f,f,NA,NA,NA,8,7,"7,10,9,4,1,5,2,8,12,6,13,15,11,14,3"
14417,commdev-image-keyboard-response,146,640013,learnblock1,601.9999999998836,img/planet7_left.png,7,Community 1,NA,TRUE,f,f,NA,NA,NA,8,7,"7,10,9,4,1,5,2,8,12,6,13,15,11,14,3"
14417,commdev-image-keyboard-response,147,641266,learnblock1,610,img/planet9_right.png,9,Community 1,NA,TRUE,j,j,NA,NA,NA,8,7,"7,10,9,4,1,5,2,8,12,6,13,15,11,14,3"
14417,commdev-image-keyboard-response,148,642518,learnblock1,1031,img/planet1_right.png,1,Community 1,NA,TRUE,j,j,NA,NA,NA,8,7,"7,10,9,4,1,5,2,8,12,6,13,15,11,14,3"
14417,commdev-image-keyboard-response,149,643770,learnblock1,681,img/planet13_left.png,13,Community 3,NA,TRUE,f,f,NA,NA,NA,8,7,"7,10,9,4,1,5,2,8,12,6,13,15,11,14,3"
14417,commdev-image-keyboard-response,150,645023,learnblock1,650,img/planet11_right.png,11,Community 3,NA,TRUE,j,j,NA,NA,NA,8,7,"7,10,9,4,1,5,2,8,12,6,13,15,11,14,3"
14417,commdev-image-keyboard-response,151,646277,learnblock1,722,img/planet3_right.png,3,Community 3,NA,TRUE,j,j,NA,NA,NA,8,7,"7,10,9,4,1,5,2,8,12,6,13,15,11,14,3"
14417,commdev-image-keyboard-response,152,647530,learnblock1,772,img/planet13_right.png,13,Community 3,NA,TRUE,j,j,NA,NA,NA,8,7,"7,10,9,4,1,5,2,8,12,6,13,15,11,14,3"
14417,commdev-image-keyboard-response,153,648783,learnblock1,644,img/planet14_left.png,14,Community 3,NA,TRUE,f,f,NA,NA,NA,8,7,"7,10,9,4,1,5,2,8,12,6,13,15,11,14,3"
14417,commdev-image-keyboard-response,154,650037,learnblock1,581,img/planet3_right.png,3,Community 3,NA,TRUE,j,j,NA,NA,NA,8,7,"7,10,9,4,1,5,2,8,12,6,13,15,11,14,3"
14417,commdev-image-keyboard-response,155,651290,learnblock1,1035,img/planet15_right.png,15,Community 3,NA,FALSE,f,j,NA,NA,NA,8,7,"7,10,9,4,1,5,2,8,12,6,13,15,11,14,3"
14417,commdev-image-keyboard-response,156,652543,learnblock1,1034,img/planet14_right.png,14,Community 3,NA,TRUE,j,j,NA,NA,NA,8,7,"7,10,9,4,1,5,2,8,12,6,13,15,11,14,3"
14417,commdev-image-keyboard-response,157,653796,learnblock1,783,img/planet15_left.png,15,Community 3,NA,TRUE,f,f,NA,NA,NA,8,7,"7,10,9,4,1,5,2,8,12,6,13,15,11,14,3"
14417,commdev-image-keyboard-response,158,655049,learnblock1,760,img/planet3_left.png,3,Community 3,NA,TRUE,f,f,NA,NA,NA,8,7,"7,10,9,4,1,5,2,8,12,6,13,15,11,14,3"
14417,commdev-image-keyboard-response,159,656303,learnblock1,613,img/planet11_left.png,11,Community 3,NA,TRUE,f,f,NA,NA,NA,8,7,"7,10,9,4,1,5,2,8,12,6,13,15,11,14,3"
14417,commdev-image-keyboard-response,160,657556,learnblock1,721.9999999998836,img/planet3_left.png,3,Community 3,NA,TRUE,f,f,NA,NA,NA,8,7,"7,10,9,4,1,5,2,8,12,6,13,15,11,14,3"
14417,commdev-image-keyboard-response,161,658809,learnblock1,940,img/planet14_right.png,14,Community 3,NA,TRUE,j,j,NA,NA,NA,8,7,"7,10,9,4,1,5,2,8,12,6,13,15,11,14,3"
14417,commdev-image-keyboard-response,162,660062,learnblock1,934,img/planet11_left.png,11,Community 3,NA,TRUE,f,f,NA,NA,NA,8,7,"7,10,9,4,1,5,2,8,12,6,13,15,11,14,3"
14417,commdev-image-keyboard-response,163,661315,learnblock1,1054.9999999998836,img/planet13_right.png,13,Community 3,NA,TRUE,j,j,NA,NA,NA,8,7,"7,10,9,4,1,5,2,8,12,6,13,15,11,14,3"
14417,commdev-image-keyboard-response,164,662569,learnblock1,1147,img/planet1_right.png,1,Community 1,NA,TRUE,j,j,NA,NA,NA,8,7,"7,10,9,4,1,5,2,8,12,6,13,15,11,14,3"
14417,commdev-image-keyboard-response,165,663822,learnblock1,744,img/planet10_left.png,10,Community 1,NA,TRUE,f,f,NA,NA,NA,8,7,"7,10,9,4,1,5,2,8,12,6,13,15,11,14,3"
14417,commdev-image-keyboard-response,166,665075,learnblock1,833,img/planet4_left.png,4,Community 1,NA,TRUE,f,f,NA,NA,NA,8,7,"7,10,9,4,1,5,2,8,12,6,13,15,11,14,3"
14417,commdev-image-keyboard-response,167,666329,learnblock1,763,img/planet7_right.png,7,Community 1,NA,TRUE,j,j,NA,NA,NA,8,7,"7,10,9,4,1,5,2,8,12,6,13,15,11,14,3"
14417,commdev-image-keyboard-response,168,667582,learnblock1,797,img/planet4_right.png,4,Community 1,NA,TRUE,j,j,NA,NA,NA,8,7,"7,10,9,4,1,5,2,8,12,6,13,15,11,14,3"
14417,commdev-image-keyboard-response,169,668835,learnblock1,603,img/planet9_right.png,9,Community 1,NA,TRUE,j,j,NA,NA,NA,8,7,"7,10,9,4,1,5,2,8,12,6,13,15,11,14,3"
14417,commdev-image-keyboard-response,170,670088,learnblock1,632,img/planet1_right.png,1,Community 1,NA,TRUE,j,j,NA,NA,NA,8,7,"7,10,9,4,1,5,2,8,12,6,13,15,11,14,3"
14417,commdev-image-keyboard-response,171,671341,learnblock1,617,img/planet7_right.png,7,Community 1,NA,TRUE,j,j,NA,NA,NA,8,7,"7,10,9,4,1,5,2,8,12,6,13,15,11,14,3"
14417,commdev-image-keyboard-response,172,672595,learnblock1,903,img/planet4_right.png,4,Community 1,NA,TRUE,j,j,NA,NA,NA,8,7,"7,10,9,4,1,5,2,8,12,6,13,15,11,14,3"
14417,commdev-image-keyboard-response,173,673848,learnblock1,1084,img/planet10_right.png,10,Community 1,NA,TRUE,j,j,NA,NA,NA,8,7,"7,10,9,4,1,5,2,8,12,6,13,15,11,14,3"
14417,commdev-image-keyboard-response,174,675101,learnblock1,1052,img/planet4_left.png,4,Community 1,NA,TRUE,f,f,NA,NA,NA,8,7,"7,10,9,4,1,5,2,8,12,6,13,15,11,14,3"
14417,commdev-image-keyboard-response,175,676354,learnblock1,842,img/planet9_right.png,9,Community 1,NA,TRUE,j,j,NA,NA,NA,8,7,"7,10,9,4,1,5,2,8,12,6,13,15,11,14,3"
14417,commdev-image-keyboard-response,176,677607,learnblock1,1241.9999999998836,img/planet4_right.png,4,Community 1,NA,TRUE,j,j,NA,NA,NA,8,7,"7,10,9,4,1,5,2,8,12,6,13,15,11,14,3"
14417,commdev-image-keyboard-response,177,678859,learnblock1,827,img/planet5_left.png,5,Community 2,NA,TRUE,f,f,NA,NA,NA,8,7,"7,10,9,4,1,5,2,8,12,6,13,15,11,14,3"
14417,commdev-image-keyboard-response,178,680113,learnblock1,650.9999999998836,img/planet12_left.png,12,Community 2,NA,TRUE,f,f,NA,NA,NA,8,7,"7,10,9,4,1,5,2,8,12,6,13,15,11,14,3"
14417,commdev-image-keyboard-response,179,681365,learnblock1,759,img/planet2_left.png,2,Community 2,NA,TRUE,f,f,NA,NA,NA,8,7,"7,10,9,4,1,5,2,8,12,6,13,15,11,14,3"
14417,commdev-image-keyboard-response,180,682618,learnblock1,737,img/planet8_right.png,8,Community 2,NA,TRUE,j,j,NA,NA,NA,8,7,"7,10,9,4,1,5,2,8,12,6,13,15,11,14,3"
14417,commdev-image-keyboard-response,181,683871,learnblock1,821,img/planet15_left.png,15,Community 3,NA,TRUE,f,f,NA,NA,NA,8,7,"7,10,9,4,1,5,2,8,12,6,13,15,11,14,3"
14417,commdev-image-keyboard-response,182,685124,learnblock1,748,img/planet3_right.png,3,Community 3,NA,TRUE,j,j,NA,NA,NA,8,7,"7,10,9,4,1,5,2,8,12,6,13,15,11,14,3"
14417,commdev-image-keyboard-response,183,686378,learnblock1,548,img/planet15_left.png,15,Community 3,NA,TRUE,f,f,NA,NA,NA,8,7,"7,10,9,4,1,5,2,8,12,6,13,15,11,14,3"
14417,commdev-image-keyboard-response,184,687631,learnblock1,1049,img/planet14_left.png,14,Community 3,NA,TRUE,f,f,NA,NA,NA,8,7,"7,10,9,4,1,5,2,8,12,6,13,15,11,14,3"
14417,commdev-image-keyboard-response,185,688883,learnblock1,712,img/planet3_left.png,3,Community 3,NA,FALSE,j,f,NA,NA,NA,8,7,"7,10,9,4,1,5,2,8,12,6,13,15,11,14,3"
14417,commdev-image-keyboard-response,186,690137,learnblock1,474,img/planet15_left.png,15,Community 3,NA,TRUE,f,f,NA,NA,NA,8,7,"7,10,9,4,1,5,2,8,12,6,13,15,11,14,3"
14417,commdev-image-keyboard-response,187,691390,learnblock1,542,img/planet11_right.png,11,Community 3,NA,TRUE,j,j,NA,NA,NA,8,7,"7,10,9,4,1,5,2,8,12,6,13,15,11,14,3"
14417,commdev-image-keyboard-response,188,692643,learnblock1,646.0000000001164,img/planet14_right.png,14,Community 3,NA,TRUE,j,j,NA,NA,NA,8,7,"7,10,9,4,1,5,2,8,12,6,13,15,11,14,3"
14417,commdev-image-keyboard-response,189,693897,learnblock1,559,img/planet11_right.png,11,Community 3,NA,TRUE,j,j,NA,NA,NA,8,7,"7,10,9,4,1,5,2,8,12,6,13,15,11,14,3"
14417,commdev-image-keyboard-response,190,695149,learnblock1,535,img/planet14_left.png,14,Community 3,NA,FALSE,j,f,NA,NA,NA,8,7,"7,10,9,4,1,5,2,8,12,6,13,15,11,14,3"
14417,commdev-image-keyboard-response,191,696402,learnblock1,905,img/planet15_left.png,15,Community 3,NA,TRUE,f,f,NA,NA,NA,8,7,"7,10,9,4,1,5,2,8,12,6,13,15,11,14,3"
14417,commdev-image-keyboard-response,192,697656,learnblock1,757,img/planet14_left.png,14,Community 3,NA,TRUE,f,f,NA,NA,NA,8,7,"7,10,9,4,1,5,2,8,12,6,13,15,11,14,3"
14417,commdev-image-keyboard-response,193,698909,learnblock1,622.9999999998836,img/planet15_right.png,15,Community 3,NA,TRUE,j,j,NA,NA,NA,8,7,"7,10,9,4,1,5,2,8,12,6,13,15,11,14,3"
14417,commdev-image-keyboard-response,194,700162,learnblock1,731,img/planet14_right.png,14,Community 3,NA,TRUE,j,j,NA,NA,NA,8,7,"7,10,9,4,1,5,2,8,12,6,13,15,11,14,3"
14417,commdev-image-keyboard-response,195,701416,learnblock1,873.0000000001164,img/planet15_right.png,15,Community 3,NA,TRUE,j,j,NA,NA,NA,8,7,"7,10,9,4,1,5,2,8,12,6,13,15,11,14,3"
14417,commdev-image-keyboard-response,196,702669,learnblock1,717,img/planet14_left.png,14,Community 3,NA,TRUE,f,f,NA,NA,NA,8,7,"7,10,9,4,1,5,2,8,12,6,13,15,11,14,3"
14417,commdev-image-keyboard-response,197,703922,learnblock1,691,img/planet13_left.png,13,Community 3,NA,TRUE,f,f,NA,NA,NA,8,7,"7,10,9,4,1,5,2,8,12,6,13,15,11,14,3"
14417,commdev-image-keyboard-response,198,705175,learnblock1,664,img/planet14_left.png,14,Community 3,NA,TRUE,f,f,NA,NA,NA,8,7,"7,10,9,4,1,5,2,8,12,6,13,15,11,14,3"
14417,commdev-image-keyboard-response,199,706428,learnblock1,544,img/planet11_right.png,11,Community 3,NA,TRUE,j,j,NA,NA,NA,8,7,"7,10,9,4,1,5,2,8,12,6,13,15,11,14,3"
14417,commdev-image-keyboard-response,200,707681,learnblock1,595,img/planet15_left.png,15,Community 3,NA,TRUE,f,f,NA,NA,NA,8,7,"7,10,9,4,1,5,2,8,12,6,13,15,11,14,3"
14417,commdev-image-keyboard-response,201,708936,learnblock1,719,img/planet11_right.png,11,Community 3,NA,TRUE,j,j,NA,NA,NA,8,7,"7,10,9,4,1,5,2,8,12,6,13,15,11,14,3"
14417,commdev-image-keyboard-response,202,710189,learnblock1,461,img/planet14_left.png,14,Community 3,NA,TRUE,f,f,NA,NA,NA,8,7,"7,10,9,4,1,5,2,8,12,6,13,15,11,14,3"
14417,commdev-image-keyboard-response,203,711442,learnblock1,540,img/planet15_left.png,15,Community 3,NA,TRUE,f,f,NA,NA,NA,8,7,"7,10,9,4,1,5,2,8,12,6,13,15,11,14,3"
14417,commdev-image-keyboard-response,204,712696,learnblock1,323,img/planet8_right.png,8,Community 2,NA,FALSE,f,j,NA,NA,NA,8,7,"7,10,9,4,1,5,2,8,12,6,13,15,11,14,3"
14417,commdev-image-keyboard-response,205,713951,learnblock1,942,img/planet2_right.png,2,Community 2,NA,TRUE,j,j,NA,NA,NA,8,7,"7,10,9,4,1,5,2,8,12,6,13,15,11,14,3"
14417,commdev-image-keyboard-response,206,715204,learnblock1,789,img/planet6_right.png,6,Community 2,NA,TRUE,j,j,NA,NA,NA,8,7,"7,10,9,4,1,5,2,8,12,6,13,15,11,14,3"
14417,commdev-image-keyboard-response,207,716457,learnblock1,708,img/planet5_right.png,5,Community 2,NA,TRUE,j,j,NA,NA,NA,8,7,"7,10,9,4,1,5,2,8,12,6,13,15,11,14,3"
14417,commdev-image-keyboard-response,208,717711,learnblock1,811,img/planet6_left.png,6,Community 2,NA,TRUE,f,f,NA,NA,NA,8,7,"7,10,9,4,1,5,2,8,12,6,13,15,11,14,3"
14417,commdev-image-keyboard-response,209,718964,learnblock1,891.0000000001164,img/planet2_right.png,2,Community 2,NA,TRUE,j,j,NA,NA,NA,8,7,"7,10,9,4,1,5,2,8,12,6,13,15,11,14,3"
14417,commdev-image-keyboard-response,210,720217,learnblock1,800,img/planet5_left.png,5,Community 2,NA,TRUE,f,f,NA,NA,NA,8,7,"7,10,9,4,1,5,2,8,12,6,13,15,11,14,3"
14417,commdev-image-keyboard-response,211,721470,learnblock1,592.0000000001164,img/planet2_left.png,2,Community 2,NA,TRUE,f,f,NA,NA,NA,8,7,"7,10,9,4,1,5,2,8,12,6,13,15,11,14,3"
14417,commdev-image-keyboard-response,212,722724,learnblock1,639,img/planet5_right.png,5,Community 2,NA,TRUE,j,j,NA,NA,NA,8,7,"7,10,9,4,1,5,2,8,12,6,13,15,11,14,3"
14417,commdev-image-keyboard-response,213,723977,learnblock1,561.0000000001164,img/planet6_left.png,6,Community 2,NA,FALSE,j,f,NA,NA,NA,8,7,"7,10,9,4,1,5,2,8,12,6,13,15,11,14,3"
14417,commdev-image-keyboard-response,214,725230,learnblock1,734.9999999998836,img/planet8_right.png,8,Community 2,NA,FALSE,f,j,NA,NA,NA,8,7,"7,10,9,4,1,5,2,8,12,6,13,15,11,14,3"
14417,commdev-image-keyboard-response,215,726483,learnblock1,631,img/planet2_left.png,2,Community 2,NA,FALSE,j,f,NA,NA,NA,8,7,"7,10,9,4,1,5,2,8,12,6,13,15,11,14,3"
14417,commdev-image-keyboard-response,216,727736,learnblock1,778,img/planet6_left.png,6,Community 2,NA,TRUE,f,f,NA,NA,NA,8,7,"7,10,9,4,1,5,2,8,12,6,13,15,11,14,3"
14417,commdev-image-keyboard-response,217,728990,learnblock1,632,img/planet8_right.png,8,Community 2,NA,TRUE,j,j,NA,NA,NA,8,7,"7,10,9,4,1,5,2,8,12,6,13,15,11,14,3"
14417,commdev-image-keyboard-response,218,730243,learnblock1,522,img/planet6_left.png,6,Community 2,NA,TRUE,f,f,NA,NA,NA,8,7,"7,10,9,4,1,5,2,8,12,6,13,15,11,14,3"
14417,commdev-image-keyboard-response,219,731496,learnblock1,680.0000000001164,img/planet8_left.png,8,Community 2,NA,TRUE,f,f,NA,NA,NA,8,7,"7,10,9,4,1,5,2,8,12,6,13,15,11,14,3"
14417,commdev-image-keyboard-response,220,732750,learnblock1,609.0000000001164,img/planet12_left.png,12,Community 2,NA,TRUE,f,f,NA,NA,NA,8,7,"7,10,9,4,1,5,2,8,12,6,13,15,11,14,3"
14417,commdev-image-keyboard-response,221,734003,learnblock1,680,img/planet8_left.png,8,Community 2,NA,TRUE,f,f,NA,NA,NA,8,7,"7,10,9,4,1,5,2,8,12,6,13,15,11,14,3"
14417,commdev-image-keyboard-response,222,735256,learnblock1,788,img/planet12_left.png,12,Community 2,NA,TRUE,f,f,NA,NA,NA,8,7,"7,10,9,4,1,5,2,8,12,6,13,15,11,14,3"
14417,commdev-image-keyboard-response,223,736510,learnblock1,645,img/planet8_left.png,8,Community 2,NA,TRUE,f,f,NA,NA,NA,8,7,"7,10,9,4,1,5,2,8,12,6,13,15,11,14,3"
14417,commdev-image-keyboard-response,224,737762,learnblock1,509.9999999998836,img/planet12_right.png,12,Community 2,NA,FALSE,f,j,NA,NA,NA,8,7,"7,10,9,4,1,5,2,8,12,6,13,15,11,14,3"
14417,commdev-image-keyboard-response,225,739016,learnblock1,571,img/planet2_left.png,2,Community 2,NA,FALSE,j,f,NA,NA,NA,8,7,"7,10,9,4,1,5,2,8,12,6,13,15,11,14,3"
14417,commdev-image-keyboard-response,226,740269,learnblock1,674,img/planet6_left.png,6,Community 2,NA,TRUE,f,f,NA,NA,NA,8,7,"7,10,9,4,1,5,2,8,12,6,13,15,11,14,3"
14417,commdev-image-keyboard-response,227,741524,learnblock1,624,img/planet8_left.png,8,Community 2,NA,TRUE,f,f,NA,NA,NA,8,7,"7,10,9,4,1,5,2,8,12,6,13,15,11,14,3"
14417,commdev-image-keyboard-response,228,742778,learnblock1,548,img/planet15_left.png,15,Community 3,NA,TRUE,f,f,NA,NA,NA,8,7,"7,10,9,4,1,5,2,8,12,6,13,15,11,14,3"
14417,commdev-image-keyboard-response,229,744032,learnblock1,523.0000000001164,img/planet14_right.png,14,Community 3,NA,FALSE,f,j,NA,NA,NA,8,7,"7,10,9,4,1,5,2,8,12,6,13,15,11,14,3"
14417,commdev-image-keyboard-response,230,745285,learnblock1,975,img/planet3_right.png,3,Community 3,NA,TRUE,j,j,NA,NA,NA,8,7,"7,10,9,4,1,5,2,8,12,6,13,15,11,14,3"
14417,commdev-image-keyboard-response,231,746538,learnblock1,736,img/planet15_right.png,15,Community 3,NA,FALSE,f,j,NA,NA,NA,8,7,"7,10,9,4,1,5,2,8,12,6,13,15,11,14,3"
14417,commdev-image-keyboard-response,232,747791,learnblock1,766,img/planet11_right.png,11,Community 3,NA,TRUE,j,j,NA,NA,NA,8,7,"7,10,9,4,1,5,2,8,12,6,13,15,11,14,3"
14417,commdev-image-keyboard-response,233,749045,learnblock1,618,img/planet13_right.png,13,Community 3,NA,TRUE,j,j,NA,NA,NA,8,7,"7,10,9,4,1,5,2,8,12,6,13,15,11,14,3"
14417,commdev-image-keyboard-response,234,750298,learnblock1,663,img/planet14_right.png,14,Community 3,NA,TRUE,j,j,NA,NA,NA,8,7,"7,10,9,4,1,5,2,8,12,6,13,15,11,14,3"
14417,commdev-image-keyboard-response,235,751551,learnblock1,null,img/planet3_right.png,3,Community 3,NA,FALSE,null,j,NA,NA,NA,8,7,"7,10,9,4,1,5,2,8,12,6,13,15,11,14,3"
14417,commdev-image-keyboard-response,236,752804,learnblock1,35,img/planet13_left.png,13,Community 3,NA,FALSE,j,f,NA,NA,NA,8,7,"7,10,9,4,1,5,2,8,12,6,13,15,11,14,3"
14417,commdev-image-keyboard-response,237,754058,learnblock1,666,img/planet14_left.png,14,Community 3,NA,TRUE,f,f,NA,NA,NA,8,7,"7,10,9,4,1,5,2,8,12,6,13,15,11,14,3"
14417,commdev-image-keyboard-response,238,755311,learnblock1,581,img/planet13_left.png,13,Community 3,NA,TRUE,f,f,NA,NA,NA,8,7,"7,10,9,4,1,5,2,8,12,6,13,15,11,14,3"
14417,commdev-image-keyboard-response,239,756564,learnblock1,561,img/planet1_right.png,1,Community 1,NA,TRUE,j,j,NA,NA,NA,8,7,"7,10,9,4,1,5,2,8,12,6,13,15,11,14,3"
14417,commdev-image-keyboard-response,240,757817,learnblock1,845,img/planet7_right.png,7,Community 1,NA,FALSE,f,j,NA,NA,NA,8,7,"7,10,9,4,1,5,2,8,12,6,13,15,11,14,3"
14417,commdev-image-keyboard-response,241,759070,learnblock1,967,img/planet4_right.png,4,Community 1,NA,TRUE,j,j,NA,NA,NA,8,7,"7,10,9,4,1,5,2,8,12,6,13,15,11,14,3"
14417,commdev-image-keyboard-response,242,760324,learnblock1,835.9999999998836,img/planet5_left.png,5,Community 2,NA,TRUE,f,f,NA,NA,NA,8,7,"7,10,9,4,1,5,2,8,12,6,13,15,11,14,3"
14417,commdev-image-keyboard-response,243,761577,learnblock1,711,img/planet2_right.png,2,Community 2,NA,TRUE,j,j,NA,NA,NA,8,7,"7,10,9,4,1,5,2,8,12,6,13,15,11,14,3"
14417,commdev-image-keyboard-response,244,762830,learnblock1,820.0000000001164,img/planet8_left.png,8,Community 2,NA,TRUE,f,f,NA,NA,NA,8,7,"7,10,9,4,1,5,2,8,12,6,13,15,11,14,3"
14417,commdev-image-keyboard-response,245,764084,learnblock1,672.0000000001164,img/planet15_left.png,15,Community 3,NA,TRUE,f,f,NA,NA,NA,8,7,"7,10,9,4,1,5,2,8,12,6,13,15,11,14,3"
14417,commdev-image-keyboard-response,246,765337,learnblock1,1059,img/planet14_left.png,14,Community 3,NA,TRUE,f,f,NA,NA,NA,8,7,"7,10,9,4,1,5,2,8,12,6,13,15,11,14,3"
14417,commdev-image-keyboard-response,247,766590,learnblock1,910,img/planet11_right.png,11,Community 3,NA,TRUE,j,j,NA,NA,NA,8,7,"7,10,9,4,1,5,2,8,12,6,13,15,11,14,3"
14417,commdev-image-keyboard-response,248,767843,learnblock1,1116,img/planet14_left.png,14,Community 3,NA,TRUE,f,f,NA,NA,NA,8,7,"7,10,9,4,1,5,2,8,12,6,13,15,11,14,3"
14417,commdev-image-keyboard-response,249,769096,learnblock1,770,img/planet15_right.png,15,Community 3,NA,TRUE,j,j,NA,NA,NA,8,7,"7,10,9,4,1,5,2,8,12,6,13,15,11,14,3"
14417,commdev-image-keyboard-response,250,770350,learnblock1,638,img/planet14_left.png,14,Community 3,NA,TRUE,f,f,NA,NA,NA,8,7,"7,10,9,4,1,5,2,8,12,6,13,15,11,14,3"
14417,commdev-image-keyboard-response,251,771603,learnblock1,845.0000000001164,img/planet13_left.png,13,Community 3,NA,TRUE,f,f,NA,NA,NA,8,7,"7,10,9,4,1,5,2,8,12,6,13,15,11,14,3"
14417,commdev-image-keyboard-response,252,772856,learnblock1,716.9999999998836,img/planet1_right.png,1,Community 1,NA,TRUE,j,j,NA,NA,NA,8,7,"7,10,9,4,1,5,2,8,12,6,13,15,11,14,3"
14417,commdev-image-keyboard-response,253,774110,learnblock1,620,img/planet9_right.png,9,Community 1,NA,FALSE,f,j,NA,NA,NA,8,7,"7,10,9,4,1,5,2,8,12,6,13,15,11,14,3"
14417,commdev-image-keyboard-response,254,775363,learnblock1,746,img/planet10_right.png,10,Community 1,NA,TRUE,j,j,NA,NA,NA,8,7,"7,10,9,4,1,5,2,8,12,6,13,15,11,14,3"
14417,commdev-image-keyboard-response,255,776616,learnblock1,871,img/planet7_right.png,7,Community 1,NA,TRUE,j,j,NA,NA,NA,8,7,"7,10,9,4,1,5,2,8,12,6,13,15,11,14,3"
14417,commdev-image-keyboard-response,256,777869,learnblock1,732.0000000001164,img/planet4_left.png,4,Community 1,NA,TRUE,f,f,NA,NA,NA,8,7,"7,10,9,4,1,5,2,8,12,6,13,15,11,14,3"
14417,commdev-image-keyboard-response,257,779123,learnblock1,null,img/planet7_right.png,7,Community 1,NA,FALSE,null,j,NA,NA,NA,8,7,"7,10,9,4,1,5,2,8,12,6,13,15,11,14,3"
14417,commdev-image-keyboard-response,258,780376,learnblock1,1156.9999999998836,img/planet1_left.png,1,Community 1,NA,TRUE,f,f,NA,NA,NA,8,7,"7,10,9,4,1,5,2,8,12,6,13,15,11,14,3"
14417,commdev-image-keyboard-response,259,781629,learnblock1,866,img/planet13_left.png,13,Community 3,NA,TRUE,f,f,NA,NA,NA,8,7,"7,10,9,4,1,5,2,8,12,6,13,15,11,14,3"
14417,commdev-image-keyboard-response,260,782882,learnblock1,634,img/planet11_left.png,11,Community 3,NA,TRUE,f,f,NA,NA,NA,8,7,"7,10,9,4,1,5,2,8,12,6,13,15,11,14,3"
14417,commdev-image-keyboard-response,261,784135,learnblock1,802.9999999998836,img/planet3_right.png,3,Community 3,NA,TRUE,j,j,NA,NA,NA,8,7,"7,10,9,4,1,5,2,8,12,6,13,15,11,14,3"
14417,commdev-image-keyboard-response,262,785388,learnblock1,555,img/planet13_left.png,13,Community 3,NA,TRUE,f,f,NA,NA,NA,8,7,"7,10,9,4,1,5,2,8,12,6,13,15,11,14,3"
14417,commdev-image-keyboard-response,263,786642,learnblock1,578,img/planet1_right.png,1,Community 1,NA,TRUE,j,j,NA,NA,NA,8,7,"7,10,9,4,1,5,2,8,12,6,13,15,11,14,3"
14417,commdev-image-keyboard-response,264,787895,learnblock1,618,img/planet7_left.png,7,Community 1,NA,TRUE,f,f,NA,NA,NA,8,7,"7,10,9,4,1,5,2,8,12,6,13,15,11,14,3"
14417,commdev-image-keyboard-response,265,789148,learnblock1,704,img/planet9_left.png,9,Community 1,NA,TRUE,f,f,NA,NA,NA,8,7,"7,10,9,4,1,5,2,8,12,6,13,15,11,14,3"
14417,commdev-image-keyboard-response,266,790401,learnblock1,703,img/planet10_right.png,10,Community 1,NA,TRUE,j,j,NA,NA,NA,8,7,"7,10,9,4,1,5,2,8,12,6,13,15,11,14,3"
14417,commdev-image-keyboard-response,267,791655,learnblock1,844,img/planet1_left.png,1,Community 1,NA,TRUE,f,f,NA,NA,NA,8,7,"7,10,9,4,1,5,2,8,12,6,13,15,11,14,3"
14417,commdev-image-keyboard-response,268,792908,learnblock1,639,img/planet9_right.png,9,Community 1,NA,TRUE,j,j,NA,NA,NA,8,7,"7,10,9,4,1,5,2,8,12,6,13,15,11,14,3"
14417,commdev-image-keyboard-response,269,794161,learnblock1,671.0000000001164,img/planet4_left.png,4,Community 1,NA,TRUE,f,f,NA,NA,NA,8,7,"7,10,9,4,1,5,2,8,12,6,13,15,11,14,3"
14417,commdev-image-keyboard-response,270,795414,learnblock1,1043,img/planet10_left.png,10,Community 1,NA,TRUE,f,f,NA,NA,NA,8,7,"7,10,9,4,1,5,2,8,12,6,13,15,11,14,3"
14417,commdev-image-keyboard-response,271,796668,learnblock1,602,img/planet1_left.png,1,Community 1,NA,TRUE,f,f,NA,NA,NA,8,7,"7,10,9,4,1,5,2,8,12,6,13,15,11,14,3"
14417,commdev-image-keyboard-response,272,797922,learnblock1,644.9999999998836,img/planet7_right.png,7,Community 1,NA,TRUE,j,j,NA,NA,NA,8,7,"7,10,9,4,1,5,2,8,12,6,13,15,11,14,3"
14417,commdev-image-keyboard-response,273,799174,learnblock1,602,img/planet10_left.png,10,Community 1,NA,TRUE,f,f,NA,NA,NA,8,7,"7,10,9,4,1,5,2,8,12,6,13,15,11,14,3"
14417,commdev-image-keyboard-response,274,800427,learnblock1,684.9999999998836,img/planet9_right.png,9,Community 1,NA,TRUE,j,j,NA,NA,NA,8,7,"7,10,9,4,1,5,2,8,12,6,13,15,11,14,3"
14417,commdev-image-keyboard-response,275,801682,learnblock1,722.9999999998836,img/planet4_right.png,4,Community 1,NA,TRUE,j,j,NA,NA,NA,8,7,"7,10,9,4,1,5,2,8,12,6,13,15,11,14,3"
14417,commdev-image-keyboard-response,276,802936,learnblock1,617,img/planet10_right.png,10,Community 1,NA,TRUE,j,j,NA,NA,NA,8,7,"7,10,9,4,1,5,2,8,12,6,13,15,11,14,3"
14417,commdev-image-keyboard-response,277,804190,learnblock1,623,img/planet1_right.png,1,Community 1,NA,TRUE,j,j,NA,NA,NA,8,7,"7,10,9,4,1,5,2,8,12,6,13,15,11,14,3"
14417,commdev-image-keyboard-response,278,805443,learnblock1,546,img/planet9_right.png,9,Community 1,NA,TRUE,j,j,NA,NA,NA,8,7,"7,10,9,4,1,5,2,8,12,6,13,15,11,14,3"
14417,commdev-image-keyboard-response,279,806695,learnblock1,449.9999999998836,img/planet10_left.png,10,Community 1,NA,TRUE,f,f,NA,NA,NA,8,7,"7,10,9,4,1,5,2,8,12,6,13,15,11,14,3"
14417,commdev-image-keyboard-response,280,807949,learnblock1,648,img/planet9_right.png,9,Community 1,NA,TRUE,j,j,NA,NA,NA,8,7,"7,10,9,4,1,5,2,8,12,6,13,15,11,14,3"
14417,commdev-image-keyboard-response,281,809202,learnblock1,465,img/planet10_left.png,10,Community 1,NA,TRUE,f,f,NA,NA,NA,8,7,"7,10,9,4,1,5,2,8,12,6,13,15,11,14,3"
14417,commdev-image-keyboard-response,282,810455,learnblock1,580.9999999998836,img/planet1_left.png,1,Community 1,NA,TRUE,f,f,NA,NA,NA,8,7,"7,10,9,4,1,5,2,8,12,6,13,15,11,14,3"
14417,commdev-image-keyboard-response,283,811708,learnblock1,481,img/planet9_right.png,9,Community 1,NA,TRUE,j,j,NA,NA,NA,8,7,"7,10,9,4,1,5,2,8,12,6,13,15,11,14,3"
14417,commdev-image-keyboard-response,284,812962,learnblock1,695,img/planet7_right.png,7,Community 1,NA,TRUE,j,j,NA,NA,NA,8,7,"7,10,9,4,1,5,2,8,12,6,13,15,11,14,3"
14417,commdev-image-keyboard-response,285,814215,learnblock1,601,img/planet4_left.png,4,Community 1,NA,TRUE,f,f,NA,NA,NA,8,7,"7,10,9,4,1,5,2,8,12,6,13,15,11,14,3"
14417,commdev-image-keyboard-response,286,815467,learnblock1,854,img/planet7_left.png,7,Community 1,NA,TRUE,f,f,NA,NA,NA,8,7,"7,10,9,4,1,5,2,8,12,6,13,15,11,14,3"
14417,commdev-image-keyboard-response,287,816719,learnblock1,687.0000000001164,img/planet1_left.png,1,Community 1,NA,TRUE,f,f,NA,NA,NA,8,7,"7,10,9,4,1,5,2,8,12,6,13,15,11,14,3"
14417,commdev-image-keyboard-response,288,817972,learnblock1,667,img/planet9_left.png,9,Community 1,NA,TRUE,f,f,NA,NA,NA,8,7,"7,10,9,4,1,5,2,8,12,6,13,15,11,14,3"
14417,commdev-image-keyboard-response,289,819225,learnblock1,592,img/planet7_left.png,7,Community 1,NA,TRUE,f,f,NA,NA,NA,8,7,"7,10,9,4,1,5,2,8,12,6,13,15,11,14,3"
14417,commdev-image-keyboard-response,290,820478,learnblock1,681.9999999998836,img/planet1_left.png,1,Community 1,NA,TRUE,f,f,NA,NA,NA,8,7,"7,10,9,4,1,5,2,8,12,6,13,15,11,14,3"
14417,commdev-image-keyboard-response,291,821731,learnblock1,767,img/planet13_right.png,13,Community 3,NA,TRUE,j,j,NA,NA,NA,8,7,"7,10,9,4,1,5,2,8,12,6,13,15,11,14,3"
14417,commdev-image-keyboard-response,292,822983,learnblock1,952,img/planet11_right.png,11,Community 3,NA,TRUE,j,j,NA,NA,NA,8,7,"7,10,9,4,1,5,2,8,12,6,13,15,11,14,3"
14417,commdev-image-keyboard-response,293,824236,learnblock1,874,img/planet13_right.png,13,Community 3,NA,TRUE,j,j,NA,NA,NA,8,7,"7,10,9,4,1,5,2,8,12,6,13,15,11,14,3"
14417,commdev-image-keyboard-response,294,825489,learnblock1,823,img/planet14_left.png,14,Community 3,NA,TRUE,f,f,NA,NA,NA,8,7,"7,10,9,4,1,5,2,8,12,6,13,15,11,14,3"
14417,commdev-image-keyboard-response,295,826821,learnblock1,931.9999999998836,img/planet3_left.png,3,Community 3,NA,TRUE,f,f,NA,NA,NA,8,7,"7,10,9,4,1,5,2,8,12,6,13,15,11,14,3"
14417,commdev-image-keyboard-response,296,828076,learnblock1,766.9999999998836,img/planet15_left.png,15,Community 3,NA,TRUE,f,f,NA,NA,NA,8,7,"7,10,9,4,1,5,2,8,12,6,13,15,11,14,3"
14417,commdev-image-keyboard-response,297,829329,learnblock1,1061,img/planet3_left.png,3,Community 3,NA,TRUE,f,f,NA,NA,NA,8,7,"7,10,9,4,1,5,2,8,12,6,13,15,11,14,3"
14417,commdev-image-keyboard-response,298,830583,learnblock1,920,img/planet13_right.png,13,Community 3,NA,TRUE,j,j,NA,NA,NA,8,7,"7,10,9,4,1,5,2,8,12,6,13,15,11,14,3"
14417,commdev-image-keyboard-response,299,831836,learnblock1,1042.0000000001164,img/planet3_left.png,3,Community 3,NA,TRUE,f,f,NA,NA,NA,8,7,"7,10,9,4,1,5,2,8,12,6,13,15,11,14,3"
14417,commdev-image-keyboard-response,300,833090,learnblock1,866.0000000001164,img/planet14_left.png,14,Community 3,NA,TRUE,f,f,NA,NA,NA,8,7,"7,10,9,4,1,5,2,8,12,6,13,15,11,14,3"
14417,commdev-image-keyboard-response,301,834343,learnblock1,735,img/planet11_right.png,11,Community 3,NA,TRUE,j,j,NA,NA,NA,8,7,"7,10,9,4,1,5,2,8,12,6,13,15,11,14,3"
14417,commdev-image-keyboard-response,302,835597,learnblock1,1110,img/planet15_left.png,15,Community 3,NA,TRUE,f,f,NA,NA,NA,8,7,"7,10,9,4,1,5,2,8,12,6,13,15,11,14,3"
14417,commdev-image-keyboard-response,303,836849,learnblock1,null,img/planet14_right.png,14,Community 3,NA,FALSE,null,j,NA,NA,NA,8,7,"7,10,9,4,1,5,2,8,12,6,13,15,11,14,3"
14417,commdev-image-keyboard-response,304,838102,learnblock1,162,img/planet3_left.png,3,Community 3,NA,FALSE,j,f,NA,NA,NA,8,7,"7,10,9,4,1,5,2,8,12,6,13,15,11,14,3"
14417,commdev-image-keyboard-response,305,839355,learnblock1,883,img/planet13_left.png,13,Community 3,NA,TRUE,f,f,NA,NA,NA,8,7,"7,10,9,4,1,5,2,8,12,6,13,15,11,14,3"
14417,commdev-image-keyboard-response,306,840609,learnblock1,1106.9999999998836,img/planet1_right.png,1,Community 1,NA,FALSE,f,j,NA,NA,NA,8,7,"7,10,9,4,1,5,2,8,12,6,13,15,11,14,3"
14417,commdev-image-keyboard-response,307,841863,learnblock1,805,img/planet10_left.png,10,Community 1,NA,TRUE,f,f,NA,NA,NA,8,7,"7,10,9,4,1,5,2,8,12,6,13,15,11,14,3"
14417,commdev-image-keyboard-response,308,843116,learnblock1,594.0000000001164,img/planet9_right.png,9,Community 1,NA,FALSE,f,j,NA,NA,NA,8,7,"7,10,9,4,1,5,2,8,12,6,13,15,11,14,3"
14417,commdev-image-keyboard-response,309,844369,learnblock1,949,img/planet4_right.png,4,Community 1,NA,TRUE,j,j,NA,NA,NA,8,7,"7,10,9,4,1,5,2,8,12,6,13,15,11,14,3"
14417,commdev-image-keyboard-response,310,845623,learnblock1,594.9999999998836,img/planet10_left.png,10,Community 1,NA,TRUE,f,f,NA,NA,NA,8,7,"7,10,9,4,1,5,2,8,12,6,13,15,11,14,3"
14417,commdev-image-keyboard-response,311,846876,learnblock1,730,img/planet9_left.png,9,Community 1,NA,TRUE,f,f,NA,NA,NA,8,7,"7,10,9,4,1,5,2,8,12,6,13,15,11,14,3"
14417,commdev-image-keyboard-response,312,848129,learnblock1,751,img/planet1_right.png,1,Community 1,NA,TRUE,j,j,NA,NA,NA,8,7,"7,10,9,4,1,5,2,8,12,6,13,15,11,14,3"
14417,commdev-image-keyboard-response,313,849382,learnblock1,569,img/planet10_left.png,10,Community 1,NA,TRUE,f,f,NA,NA,NA,8,7,"7,10,9,4,1,5,2,8,12,6,13,15,11,14,3"
14417,commdev-image-keyboard-response,314,850635,learnblock1,726,img/planet4_left.png,4,Community 1,NA,TRUE,f,f,NA,NA,NA,8,7,"7,10,9,4,1,5,2,8,12,6,13,15,11,14,3"
14417,commdev-image-keyboard-response,315,851889,learnblock1,512,img/planet10_right.png,10,Community 1,NA,TRUE,j,j,NA,NA,NA,8,7,"7,10,9,4,1,5,2,8,12,6,13,15,11,14,3"
14417,commdev-image-keyboard-response,316,853142,learnblock1,530,img/planet7_left.png,7,Community 1,NA,FALSE,j,f,NA,NA,NA,8,7,"7,10,9,4,1,5,2,8,12,6,13,15,11,14,3"
14417,commdev-image-keyboard-response,317,854395,learnblock1,787,img/planet4_left.png,4,Community 1,NA,TRUE,f,f,NA,NA,NA,8,7,"7,10,9,4,1,5,2,8,12,6,13,15,11,14,3"
14417,commdev-image-keyboard-response,318,855648,learnblock1,591,img/planet5_left.png,5,Community 2,NA,TRUE,f,f,NA,NA,NA,8,7,"7,10,9,4,1,5,2,8,12,6,13,15,11,14,3"
14417,commdev-image-keyboard-response,319,856902,learnblock1,777,img/planet2_left.png,2,Community 2,NA,TRUE,f,f,NA,NA,NA,8,7,"7,10,9,4,1,5,2,8,12,6,13,15,11,14,3"
14417,commdev-image-keyboard-response,320,858155,learnblock1,788,img/planet12_right.png,12,Community 2,NA,TRUE,j,j,NA,NA,NA,8,7,"7,10,9,4,1,5,2,8,12,6,13,15,11,14,3"
14417,commdev-image-keyboard-response,321,859409,learnblock1,818,img/planet8_left.png,8,Community 2,NA,TRUE,f,f,NA,NA,NA,8,7,"7,10,9,4,1,5,2,8,12,6,13,15,11,14,3"
14417,commdev-image-keyboard-response,322,860662,learnblock1,727,img/planet2_right.png,2,Community 2,NA,FALSE,f,j,NA,NA,NA,8,7,"7,10,9,4,1,5,2,8,12,6,13,15,11,14,3"
14417,commdev-image-keyboard-response,323,861915,learnblock1,804.0000000001164,img/planet6_right.png,6,Community 2,NA,TRUE,j,j,NA,NA,NA,8,7,"7,10,9,4,1,5,2,8,12,6,13,15,11,14,3"
14417,commdev-image-keyboard-response,324,863168,learnblock1,836,img/planet5_left.png,5,Community 2,NA,FALSE,j,f,NA,NA,NA,8,7,"7,10,9,4,1,5,2,8,12,6,13,15,11,14,3"
14417,commdev-image-keyboard-response,325,864421,learnblock1,722,img/planet6_right.png,6,Community 2,NA,FALSE,f,j,NA,NA,NA,8,7,"7,10,9,4,1,5,2,8,12,6,13,15,11,14,3"
14417,commdev-image-keyboard-response,326,865675,learnblock1,696,img/planet5_right.png,5,Community 2,NA,TRUE,j,j,NA,NA,NA,8,7,"7,10,9,4,1,5,2,8,12,6,13,15,11,14,3"
14417,commdev-image-keyboard-response,327,866927,learnblock1,770,img/planet12_left.png,12,Community 2,NA,TRUE,f,f,NA,NA,NA,8,7,"7,10,9,4,1,5,2,8,12,6,13,15,11,14,3"
14417,commdev-image-keyboard-response,328,868180,learnblock1,651.9999999998836,img/planet2_right.png,2,Community 2,NA,TRUE,j,j,NA,NA,NA,8,7,"7,10,9,4,1,5,2,8,12,6,13,15,11,14,3"
14417,commdev-image-keyboard-response,329,869434,learnblock1,543,img/planet5_left.png,5,Community 2,NA,TRUE,f,f,NA,NA,NA,8,7,"7,10,9,4,1,5,2,8,12,6,13,15,11,14,3"
14417,commdev-image-keyboard-response,330,870687,learnblock1,617,img/planet2_right.png,2,Community 2,NA,TRUE,j,j,NA,NA,NA,8,7,"7,10,9,4,1,5,2,8,12,6,13,15,11,14,3"
14417,commdev-image-keyboard-response,331,871941,learnblock1,812,img/planet12_right.png,12,Community 2,NA,TRUE,j,j,NA,NA,NA,8,7,"7,10,9,4,1,5,2,8,12,6,13,15,11,14,3"
14417,commdev-image-keyboard-response,332,873194,learnblock1,710.9999999998836,img/planet2_right.png,2,Community 2,NA,TRUE,j,j,NA,NA,NA,8,7,"7,10,9,4,1,5,2,8,12,6,13,15,11,14,3"
14417,commdev-image-keyboard-response,333,874447,learnblock1,712,img/planet5_right.png,5,Community 2,NA,TRUE,j,j,NA,NA,NA,8,7,"7,10,9,4,1,5,2,8,12,6,13,15,11,14,3"
14417,commdev-image-keyboard-response,334,875701,learnblock1,550,img/planet2_right.png,2,Community 2,NA,TRUE,j,j,NA,NA,NA,8,7,"7,10,9,4,1,5,2,8,12,6,13,15,11,14,3"
14417,commdev-image-keyboard-response,335,876954,learnblock1,514,img/planet6_left.png,6,Community 2,NA,TRUE,f,f,NA,NA,NA,8,7,"7,10,9,4,1,5,2,8,12,6,13,15,11,14,3"
14417,commdev-image-keyboard-response,336,878207,learnblock1,641,img/planet12_right.png,12,Community 2,NA,TRUE,j,j,NA,NA,NA,8,7,"7,10,9,4,1,5,2,8,12,6,13,15,11,14,3"
14417,commdev-image-keyboard-response,337,879460,learnblock1,564,img/planet5_left.png,5,Community 2,NA,TRUE,f,f,NA,NA,NA,8,7,"7,10,9,4,1,5,2,8,12,6,13,15,11,14,3"
14417,commdev-image-keyboard-response,338,880713,learnblock1,680,img/planet12_right.png,12,Community 2,NA,TRUE,j,j,NA,NA,NA,8,7,"7,10,9,4,1,5,2,8,12,6,13,15,11,14,3"
14417,commdev-image-keyboard-response,339,881967,learnblock1,892,img/planet6_left.png,6,Community 2,NA,TRUE,f,f,NA,NA,NA,8,7,"7,10,9,4,1,5,2,8,12,6,13,15,11,14,3"
14417,commdev-image-keyboard-response,340,883220,learnblock1,818,img/planet8_left.png,8,Community 2,NA,TRUE,f,f,NA,NA,NA,8,7,"7,10,9,4,1,5,2,8,12,6,13,15,11,14,3"
14417,commdev-image-keyboard-response,341,884473,learnblock1,615,img/planet6_left.png,6,Community 2,NA,TRUE,f,f,NA,NA,NA,8,7,"7,10,9,4,1,5,2,8,12,6,13,15,11,14,3"
14417,commdev-image-keyboard-response,342,885728,learnblock1,760,img/planet12_left.png,12,Community 2,NA,TRUE,f,f,NA,NA,NA,8,7,"7,10,9,4,1,5,2,8,12,6,13,15,11,14,3"
14417,commdev-image-keyboard-response,343,886982,learnblock1,505,img/planet2_right.png,2,Community 2,NA,TRUE,j,j,NA,NA,NA,8,7,"7,10,9,4,1,5,2,8,12,6,13,15,11,14,3"
14417,commdev-image-keyboard-response,344,888235,learnblock1,637,img/planet5_right.png,5,Community 2,NA,TRUE,j,j,NA,NA,NA,8,7,"7,10,9,4,1,5,2,8,12,6,13,15,11,14,3"
14417,commdev-image-keyboard-response,345,889489,learnblock1,797,img/planet2_right.png,2,Community 2,NA,TRUE,j,j,NA,NA,NA,8,7,"7,10,9,4,1,5,2,8,12,6,13,15,11,14,3"
14417,commdev-image-keyboard-response,346,890742,learnblock1,565,img/planet6_left.png,6,Community 2,NA,TRUE,f,f,NA,NA,NA,8,7,"7,10,9,4,1,5,2,8,12,6,13,15,11,14,3"
14417,commdev-image-keyboard-response,347,891996,learnblock1,601,img/planet8_right.png,8,Community 2,NA,TRUE,j,j,NA,NA,NA,8,7,"7,10,9,4,1,5,2,8,12,6,13,15,11,14,3"
14417,commdev-image-keyboard-response,348,893249,learnblock1,673,img/planet6_left.png,6,Community 2,NA,TRUE,f,f,NA,NA,NA,8,7,"7,10,9,4,1,5,2,8,12,6,13,15,11,14,3"
14417,commdev-image-keyboard-response,349,894502,learnblock1,813,img/planet12_left.png,12,Community 2,NA,TRUE,f,f,NA,NA,NA,8,7,"7,10,9,4,1,5,2,8,12,6,13,15,11,14,3"
14417,commdev-image-keyboard-response,353,1191909,learnblock2,795.9999999997672,img/planet14_right.png,14,Community 3,NA,TRUE,j,j,NA,NA,NA,8,7,"7,10,9,4,1,5,2,8,12,6,13,15,11,14,3"
14417,commdev-image-keyboard-response,354,1193162,learnblock2,752,img/planet15_left.png,15,Community 3,NA,TRUE,f,f,NA,NA,NA,8,7,"7,10,9,4,1,5,2,8,12,6,13,15,11,14,3"
14417,commdev-image-keyboard-response,355,1194415,learnblock2,766,img/planet3_left.png,3,Community 3,NA,TRUE,f,f,NA,NA,NA,8,7,"7,10,9,4,1,5,2,8,12,6,13,15,11,14,3"
14417,commdev-image-keyboard-response,356,1195667,learnblock2,607.0000000002328,img/planet14_right.png,14,Community 3,NA,TRUE,j,j,NA,NA,NA,8,7,"7,10,9,4,1,5,2,8,12,6,13,15,11,14,3"
14417,commdev-image-keyboard-response,357,1196921,learnblock2,721,img/planet3_left.png,3,Community 3,NA,TRUE,f,f,NA,NA,NA,8,7,"7,10,9,4,1,5,2,8,12,6,13,15,11,14,3"
14417,commdev-image-keyboard-response,358,1198174,learnblock2,568,img/planet15_right.png,15,Community 3,NA,TRUE,j,j,NA,NA,NA,8,7,"7,10,9,4,1,5,2,8,12,6,13,15,11,14,3"
14417,commdev-image-keyboard-response,359,1199426,learnblock2,718,img/planet11_left.png,11,Community 3,NA,TRUE,f,f,NA,NA,NA,8,7,"7,10,9,4,1,5,2,8,12,6,13,15,11,14,3"
14417,commdev-image-keyboard-response,360,1200679,learnblock2,554,img/planet14_right.png,14,Community 3,NA,TRUE,j,j,NA,NA,NA,8,7,"7,10,9,4,1,5,2,8,12,6,13,15,11,14,3"
14417,commdev-image-keyboard-response,361,1201933,learnblock2,777,img/planet15_left.png,15,Community 3,NA,TRUE,f,f,NA,NA,NA,8,7,"7,10,9,4,1,5,2,8,12,6,13,15,11,14,3"
14417,commdev-image-keyboard-response,362,1203187,learnblock2,798,img/planet3_left.png,3,Community 3,NA,TRUE,f,f,NA,NA,NA,8,7,"7,10,9,4,1,5,2,8,12,6,13,15,11,14,3"
14417,commdev-image-keyboard-response,363,1204441,learnblock2,520,img/planet13_left.png,13,Community 3,NA,TRUE,f,f,NA,NA,NA,8,7,"7,10,9,4,1,5,2,8,12,6,13,15,11,14,3"
14417,commdev-image-keyboard-response,364,1205694,learnblock2,682,img/planet11_left.png,11,Community 3,NA,TRUE,f,f,NA,NA,NA,8,7,"7,10,9,4,1,5,2,8,12,6,13,15,11,14,3"
14417,commdev-image-keyboard-response,365,1206947,learnblock2,745.9999999997672,img/planet14_left.png,14,Community 3,NA,TRUE,f,f,NA,NA,NA,8,7,"7,10,9,4,1,5,2,8,12,6,13,15,11,14,3"
14417,commdev-image-keyboard-response,366,1208200,learnblock2,666,img/planet15_left.png,15,Community 3,NA,TRUE,f,f,NA,NA,NA,8,7,"7,10,9,4,1,5,2,8,12,6,13,15,11,14,3"
14417,commdev-image-keyboard-response,367,1209454,learnblock2,464,img/planet14_right.png,14,Community 3,NA,TRUE,j,j,NA,NA,NA,8,7,"7,10,9,4,1,5,2,8,12,6,13,15,11,14,3"
14417,commdev-image-keyboard-response,368,1210707,learnblock2,703,img/planet3_right.png,3,Community 3,NA,FALSE,f,j,NA,NA,NA,8,7,"7,10,9,4,1,5,2,8,12,6,13,15,11,14,3"
14417,commdev-image-keyboard-response,369,1211960,learnblock2,779,img/planet14_left.png,14,Community 3,NA,FALSE,j,f,NA,NA,NA,8,7,"7,10,9,4,1,5,2,8,12,6,13,15,11,14,3"
14417,commdev-image-keyboard-response,370,1213214,learnblock2,725,img/planet15_right.png,15,Community 3,NA,TRUE,j,j,NA,NA,NA,8,7,"7,10,9,4,1,5,2,8,12,6,13,15,11,14,3"
14417,commdev-image-keyboard-response,371,1214467,learnblock2,917,img/planet11_right.png,11,Community 3,NA,FALSE,f,j,NA,NA,NA,8,7,"7,10,9,4,1,5,2,8,12,6,13,15,11,14,3"
14417,commdev-image-keyboard-response,372,1215720,learnblock2,1098,img/planet15_right.png,15,Community 3,NA,TRUE,j,j,NA,NA,NA,8,7,"7,10,9,4,1,5,2,8,12,6,13,15,11,14,3"
14417,commdev-image-keyboard-response,373,1216974,learnblock2,731,img/planet3_left.png,3,Community 3,NA,TRUE,f,f,NA,NA,NA,8,7,"7,10,9,4,1,5,2,8,12,6,13,15,11,14,3"
14417,commdev-image-keyboard-response,374,1218227,learnblock2,712,img/planet13_right.png,13,Community 3,NA,TRUE,j,j,NA,NA,NA,8,7,"7,10,9,4,1,5,2,8,12,6,13,15,11,14,3"
14417,commdev-image-keyboard-response,375,1219480,learnblock2,486,img/planet11_left.png,11,Community 3,NA,TRUE,f,f,NA,NA,NA,8,7,"7,10,9,4,1,5,2,8,12,6,13,15,11,14,3"
14417,commdev-image-keyboard-response,376,1220733,learnblock2,635,img/planet13_right.png,13,Community 3,NA,TRUE,j,j,NA,NA,NA,8,7,"7,10,9,4,1,5,2,8,12,6,13,15,11,14,3"
14417,commdev-image-keyboard-response,377,1221987,learnblock2,582,img/planet1_right.png,1,Community 1,NA,TRUE,j,j,NA,NA,NA,8,7,"7,10,9,4,1,5,2,8,12,6,13,15,11,14,3"
14417,commdev-image-keyboard-response,378,1223240,learnblock2,633,img/planet10_left.png,10,Community 1,NA,TRUE,f,f,NA,NA,NA,8,7,"7,10,9,4,1,5,2,8,12,6,13,15,11,14,3"
14417,commdev-image-keyboard-response,379,1224493,learnblock2,705,img/planet9_right.png,9,Community 1,NA,TRUE,j,j,NA,NA,NA,8,7,"7,10,9,4,1,5,2,8,12,6,13,15,11,14,3"
14417,commdev-image-keyboard-response,380,1225746,learnblock2,631,img/planet10_right.png,10,Community 1,NA,TRUE,j,j,NA,NA,NA,8,7,"7,10,9,4,1,5,2,8,12,6,13,15,11,14,3"
14417,commdev-image-keyboard-response,381,1226999,learnblock2,834,img/planet7_right.png,7,Community 1,NA,TRUE,j,j,NA,NA,NA,8,7,"7,10,9,4,1,5,2,8,12,6,13,15,11,14,3"
14417,commdev-image-keyboard-response,382,1228252,learnblock2,653,img/planet10_right.png,10,Community 1,NA,TRUE,j,j,NA,NA,NA,8,7,"7,10,9,4,1,5,2,8,12,6,13,15,11,14,3"
14417,commdev-image-keyboard-response,383,1229506,learnblock2,544,img/planet1_right.png,1,Community 1,NA,TRUE,j,j,NA,NA,NA,8,7,"7,10,9,4,1,5,2,8,12,6,13,15,11,14,3"
14417,commdev-image-keyboard-response,384,1230760,learnblock2,545,img/planet9_right.png,9,Community 1,NA,TRUE,j,j,NA,NA,NA,8,7,"7,10,9,4,1,5,2,8,12,6,13,15,11,14,3"
14417,commdev-image-keyboard-response,385,1232013,learnblock2,579.9999999997672,img/planet10_left.png,10,Community 1,NA,TRUE,f,f,NA,NA,NA,8,7,"7,10,9,4,1,5,2,8,12,6,13,15,11,14,3"
14417,commdev-image-keyboard-response,386,1233266,learnblock2,539,img/planet9_left.png,9,Community 1,NA,TRUE,f,f,NA,NA,NA,8,7,"7,10,9,4,1,5,2,8,12,6,13,15,11,14,3"
14417,commdev-image-keyboard-response,387,1234519,learnblock2,522,img/planet1_left.png,1,Community 1,NA,TRUE,f,f,NA,NA,NA,8,7,"7,10,9,4,1,5,2,8,12,6,13,15,11,14,3"
14417,commdev-image-keyboard-response,388,1235773,learnblock2,424.00000000023283,img/planet9_left.png,9,Community 1,NA,TRUE,f,f,NA,NA,NA,8,7,"7,10,9,4,1,5,2,8,12,6,13,15,11,14,3"
14417,commdev-image-keyboard-response,389,1237026,learnblock2,524,img/planet10_right.png,10,Community 1,NA,TRUE,j,j,NA,NA,NA,8,7,"7,10,9,4,1,5,2,8,12,6,13,15,11,14,3"
14417,commdev-image-keyboard-response,390,1238281,learnblock2,690,img/planet4_left.png,4,Community 1,NA,TRUE,f,f,NA,NA,NA,8,7,"7,10,9,4,1,5,2,8,12,6,13,15,11,14,3"
14417,commdev-image-keyboard-response,391,1239534,learnblock2,511,img/planet9_left.png,9,Community 1,NA,TRUE,f,f,NA,NA,NA,8,7,"7,10,9,4,1,5,2,8,12,6,13,15,11,14,3"
14417,commdev-image-keyboard-response,392,1240788,learnblock2,559,img/planet4_right.png,4,Community 1,NA,TRUE,j,j,NA,NA,NA,8,7,"7,10,9,4,1,5,2,8,12,6,13,15,11,14,3"
14417,commdev-image-keyboard-response,393,1242042,learnblock2,731.9999999997672,img/planet5_left.png,5,Community 2,NA,TRUE,f,f,NA,NA,NA,8,7,"7,10,9,4,1,5,2,8,12,6,13,15,11,14,3"
14417,commdev-image-keyboard-response,394,1243295,learnblock2,806,img/planet12_right.png,12,Community 2,NA,TRUE,j,j,NA,NA,NA,8,7,"7,10,9,4,1,5,2,8,12,6,13,15,11,14,3"
14417,commdev-image-keyboard-response,395,1244548,learnblock2,682,img/planet6_left.png,6,Community 2,NA,TRUE,f,f,NA,NA,NA,8,7,"7,10,9,4,1,5,2,8,12,6,13,15,11,14,3"
14417,commdev-image-keyboard-response,396,1245800,learnblock2,609.9999999997672,img/planet8_left.png,8,Community 2,NA,TRUE,f,f,NA,NA,NA,8,7,"7,10,9,4,1,5,2,8,12,6,13,15,11,14,3"
14417,commdev-image-keyboard-response,397,1247053,learnblock2,661.0000000002328,img/planet12_right.png,12,Community 2,NA,TRUE,j,j,NA,NA,NA,8,7,"7,10,9,4,1,5,2,8,12,6,13,15,11,14,3"
14417,commdev-image-keyboard-response,398,1248307,learnblock2,661,img/planet2_right.png,2,Community 2,NA,TRUE,j,j,NA,NA,NA,8,7,"7,10,9,4,1,5,2,8,12,6,13,15,11,14,3"
14417,commdev-image-keyboard-response,399,1249560,learnblock2,871.9999999997672,img/planet8_right.png,8,Community 2,NA,TRUE,j,j,NA,NA,NA,8,7,"7,10,9,4,1,5,2,8,12,6,13,15,11,14,3"
14417,commdev-image-keyboard-response,400,1250814,learnblock2,677,img/planet2_right.png,2,Community 2,NA,TRUE,j,j,NA,NA,NA,8,7,"7,10,9,4,1,5,2,8,12,6,13,15,11,14,3"
14417,commdev-image-keyboard-response,401,1252068,learnblock2,659,img/planet5_right.png,5,Community 2,NA,TRUE,j,j,NA,NA,NA,8,7,"7,10,9,4,1,5,2,8,12,6,13,15,11,14,3"
14417,commdev-image-keyboard-response,402,1253320,learnblock2,558.9999999997672,img/planet4_right.png,4,Community 1,NA,TRUE,j,j,NA,NA,NA,8,7,"7,10,9,4,1,5,2,8,12,6,13,15,11,14,3"
14417,commdev-image-keyboard-response,403,1254573,learnblock2,499,img/planet10_left.png,10,Community 1,NA,TRUE,f,f,NA,NA,NA,8,7,"7,10,9,4,1,5,2,8,12,6,13,15,11,14,3"
14417,commdev-image-keyboard-response,404,1255825,learnblock2,480,img/planet7_left.png,7,Community 1,NA,TRUE,f,f,NA,NA,NA,8,7,"7,10,9,4,1,5,2,8,12,6,13,15,11,14,3"
14417,commdev-image-keyboard-response,405,1257079,learnblock2,306,img/planet1_right.png,1,Community 1,NA,FALSE,f,j,NA,NA,NA,8,7,"7,10,9,4,1,5,2,8,12,6,13,15,11,14,3"
14417,commdev-image-keyboard-response,406,1258332,learnblock2,498,img/planet7_left.png,7,Community 1,NA,TRUE,f,f,NA,NA,NA,8,7,"7,10,9,4,1,5,2,8,12,6,13,15,11,14,3"
14417,commdev-image-keyboard-response,407,1259585,learnblock2,628,img/planet9_right.png,9,Community 1,NA,TRUE,j,j,NA,NA,NA,8,7,"7,10,9,4,1,5,2,8,12,6,13,15,11,14,3"
14417,commdev-image-keyboard-response,408,1260838,learnblock2,711,img/planet4_right.png,4,Community 1,NA,TRUE,j,j,NA,NA,NA,8,7,"7,10,9,4,1,5,2,8,12,6,13,15,11,14,3"
14417,commdev-image-keyboard-response,409,1262091,learnblock2,517.0000000002328,img/planet5_right.png,5,Community 2,NA,TRUE,j,j,NA,NA,NA,8,7,"7,10,9,4,1,5,2,8,12,6,13,15,11,14,3"
14417,commdev-image-keyboard-response,410,1263346,learnblock2,464.00000000023283,img/planet6_left.png,6,Community 2,NA,FALSE,j,f,NA,NA,NA,8,7,"7,10,9,4,1,5,2,8,12,6,13,15,11,14,3"
14417,commdev-image-keyboard-response,411,1264600,learnblock2,536,img/planet12_right.png,12,Community 2,NA,TRUE,j,j,NA,NA,NA,8,7,"7,10,9,4,1,5,2,8,12,6,13,15,11,14,3"
14417,commdev-image-keyboard-response,412,1265854,learnblock2,514.0000000002328,img/planet8_left.png,8,Community 2,NA,TRUE,f,f,NA,NA,NA,8,7,"7,10,9,4,1,5,2,8,12,6,13,15,11,14,3"
14417,commdev-image-keyboard-response,413,1267106,learnblock2,447,img/planet15_right.png,15,Community 3,NA,FALSE,f,j,NA,NA,NA,8,7,"7,10,9,4,1,5,2,8,12,6,13,15,11,14,3"
14417,commdev-image-keyboard-response,414,1268359,learnblock2,801,img/planet11_left.png,11,Community 3,NA,TRUE,f,f,NA,NA,NA,8,7,"7,10,9,4,1,5,2,8,12,6,13,15,11,14,3"
14417,commdev-image-keyboard-response,415,1269612,learnblock2,669.0000000002328,img/planet14_left.png,14,Community 3,NA,TRUE,f,f,NA,NA,NA,8,7,"7,10,9,4,1,5,2,8,12,6,13,15,11,14,3"
14417,commdev-image-keyboard-response,416,1270865,learnblock2,495,img/planet11_right.png,11,Community 3,NA,TRUE,j,j,NA,NA,NA,8,7,"7,10,9,4,1,5,2,8,12,6,13,15,11,14,3"
14417,commdev-image-keyboard-response,417,1272119,learnblock2,680,img/planet13_left.png,13,Community 3,NA,TRUE,f,f,NA,NA,NA,8,7,"7,10,9,4,1,5,2,8,12,6,13,15,11,14,3"
14417,commdev-image-keyboard-response,418,1273372,learnblock2,573,img/planet3_left.png,3,Community 3,NA,TRUE,f,f,NA,NA,NA,8,7,"7,10,9,4,1,5,2,8,12,6,13,15,11,14,3"
14417,commdev-image-keyboard-response,419,1274625,learnblock2,524,img/planet11_right.png,11,Community 3,NA,TRUE,j,j,NA,NA,NA,8,7,"7,10,9,4,1,5,2,8,12,6,13,15,11,14,3"
14417,commdev-image-keyboard-response,420,1275879,learnblock2,657,img/planet14_right.png,14,Community 3,NA,TRUE,j,j,NA,NA,NA,8,7,"7,10,9,4,1,5,2,8,12,6,13,15,11,14,3"
14417,commdev-image-keyboard-response,421,1277132,learnblock2,623,img/planet13_right.png,13,Community 3,NA,FALSE,f,j,NA,NA,NA,8,7,"7,10,9,4,1,5,2,8,12,6,13,15,11,14,3"
14417,commdev-image-keyboard-response,422,1278385,learnblock2,1106,img/planet14_right.png,14,Community 3,NA,TRUE,j,j,NA,NA,NA,8,7,"7,10,9,4,1,5,2,8,12,6,13,15,11,14,3"
14417,commdev-image-keyboard-response,423,1279638,learnblock2,741,img/planet3_right.png,3,Community 3,NA,TRUE,j,j,NA,NA,NA,8,7,"7,10,9,4,1,5,2,8,12,6,13,15,11,14,3"
14417,commdev-image-keyboard-response,424,1280892,learnblock2,559,img/planet11_left.png,11,Community 3,NA,TRUE,f,f,NA,NA,NA,8,7,"7,10,9,4,1,5,2,8,12,6,13,15,11,14,3"
14417,commdev-image-keyboard-response,425,1282145,learnblock2,590,img/planet3_left.png,3,Community 3,NA,TRUE,f,f,NA,NA,NA,8,7,"7,10,9,4,1,5,2,8,12,6,13,15,11,14,3"
14417,commdev-image-keyboard-response,426,1283398,learnblock2,600,img/planet13_right.png,13,Community 3,NA,TRUE,j,j,NA,NA,NA,8,7,"7,10,9,4,1,5,2,8,12,6,13,15,11,14,3"
14417,commdev-image-keyboard-response,427,1284651,learnblock2,733,img/planet1_left.png,1,Community 1,NA,TRUE,f,f,NA,NA,NA,8,7,"7,10,9,4,1,5,2,8,12,6,13,15,11,14,3"
14417,commdev-image-keyboard-response,428,1285904,learnblock2,609,img/planet7_right.png,7,Community 1,NA,TRUE,j,j,NA,NA,NA,8,7,"7,10,9,4,1,5,2,8,12,6,13,15,11,14,3"
14417,commdev-image-keyboard-response,429,1287159,learnblock2,508,img/planet1_left.png,1,Community 1,NA,TRUE,f,f,NA,NA,NA,8,7,"7,10,9,4,1,5,2,8,12,6,13,15,11,14,3"
14417,commdev-image-keyboard-response,430,1288412,learnblock2,479,img/planet9_right.png,9,Community 1,NA,TRUE,j,j,NA,NA,NA,8,7,"7,10,9,4,1,5,2,8,12,6,13,15,11,14,3"
14417,commdev-image-keyboard-response,431,1289665,learnblock2,380,img/planet1_right.png,1,Community 1,NA,FALSE,f,j,NA,NA,NA,8,7,"7,10,9,4,1,5,2,8,12,6,13,15,11,14,3"
14417,commdev-image-keyboard-response,432,1290919,learnblock2,782,img/planet13_right.png,13,Community 3,NA,TRUE,j,j,NA,NA,NA,8,7,"7,10,9,4,1,5,2,8,12,6,13,15,11,14,3"
14417,commdev-image-keyboard-response,433,1292172,learnblock2,581,img/planet3_left.png,3,Community 3,NA,TRUE,f,f,NA,NA,NA,8,7,"7,10,9,4,1,5,2,8,12,6,13,15,11,14,3"
14417,commdev-image-keyboard-response,434,1293427,learnblock2,501,img/planet13_left.png,13,Community 3,NA,TRUE,f,f,NA,NA,NA,8,7,"7,10,9,4,1,5,2,8,12,6,13,15,11,14,3"
14417,commdev-image-keyboard-response,435,1294680,learnblock2,508,img/planet1_right.png,1,Community 1,NA,TRUE,j,j,NA,NA,NA,8,7,"7,10,9,4,1,5,2,8,12,6,13,15,11,14,3"
14417,commdev-image-keyboard-response,436,1295933,learnblock2,601.9999999997672,img/planet13_left.png,13,Community 3,NA,TRUE,f,f,NA,NA,NA,8,7,"7,10,9,4,1,5,2,8,12,6,13,15,11,14,3"
14417,commdev-image-keyboard-response,437,1297186,learnblock2,725,img/planet3_right.png,3,Community 3,NA,TRUE,j,j,NA,NA,NA,8,7,"7,10,9,4,1,5,2,8,12,6,13,15,11,14,3"
14417,commdev-image-keyboard-response,438,1298440,learnblock2,701,img/planet14_left.png,14,Community 3,NA,TRUE,f,f,NA,NA,NA,8,7,"7,10,9,4,1,5,2,8,12,6,13,15,11,14,3"
14417,commdev-image-keyboard-response,439,1299693,learnblock2,501.99999999976717,img/planet13_right.png,13,Community 3,NA,TRUE,j,j,NA,NA,NA,8,7,"7,10,9,4,1,5,2,8,12,6,13,15,11,14,3"
14417,commdev-image-keyboard-response,440,1300947,learnblock2,511,img/planet11_right.png,11,Community 3,NA,TRUE,j,j,NA,NA,NA,8,7,"7,10,9,4,1,5,2,8,12,6,13,15,11,14,3"
14417,commdev-image-keyboard-response,441,1302200,learnblock2,489,img/planet14_left.png,14,Community 3,NA,TRUE,f,f,NA,NA,NA,8,7,"7,10,9,4,1,5,2,8,12,6,13,15,11,14,3"
14417,commdev-image-keyboard-response,442,1303453,learnblock2,447,img/planet11_right.png,11,Community 3,NA,TRUE,j,j,NA,NA,NA,8,7,"7,10,9,4,1,5,2,8,12,6,13,15,11,14,3"
14417,commdev-image-keyboard-response,443,1304707,learnblock2,625,img/planet13_right.png,13,Community 3,NA,FALSE,f,j,NA,NA,NA,8,7,"7,10,9,4,1,5,2,8,12,6,13,15,11,14,3"
14417,commdev-image-keyboard-response,444,1305960,learnblock2,777,img/planet3_right.png,3,Community 3,NA,TRUE,j,j,NA,NA,NA,8,7,"7,10,9,4,1,5,2,8,12,6,13,15,11,14,3"
14417,commdev-image-keyboard-response,445,1307213,learnblock2,616,img/planet13_left.png,13,Community 3,NA,TRUE,f,f,NA,NA,NA,8,7,"7,10,9,4,1,5,2,8,12,6,13,15,11,14,3"
14417,commdev-image-keyboard-response,446,1308467,learnblock2,545,img/planet14_right.png,14,Community 3,NA,TRUE,j,j,NA,NA,NA,8,7,"7,10,9,4,1,5,2,8,12,6,13,15,11,14,3"
14417,commdev-image-keyboard-response,447,1309720,learnblock2,623,img/planet15_right.png,15,Community 3,NA,FALSE,f,j,NA,NA,NA,8,7,"7,10,9,4,1,5,2,8,12,6,13,15,11,14,3"
14417,commdev-image-keyboard-response,448,1310973,learnblock2,530,img/planet3_left.png,3,Community 3,NA,FALSE,j,f,NA,NA,NA,8,7,"7,10,9,4,1,5,2,8,12,6,13,15,11,14,3"
14417,commdev-image-keyboard-response,449,1312227,learnblock2,618,img/planet15_right.png,15,Community 3,NA,TRUE,j,j,NA,NA,NA,8,7,"7,10,9,4,1,5,2,8,12,6,13,15,11,14,3"
14417,commdev-image-keyboard-response,450,1313480,learnblock2,668,img/planet11_right.png,11,Community 3,NA,TRUE,j,j,NA,NA,NA,8,7,"7,10,9,4,1,5,2,8,12,6,13,15,11,14,3"
14417,commdev-image-keyboard-response,451,1314733,learnblock2,651,img/planet14_right.png,14,Community 3,NA,TRUE,j,j,NA,NA,NA,8,7,"7,10,9,4,1,5,2,8,12,6,13,15,11,14,3"
14417,commdev-image-keyboard-response,452,1315987,learnblock2,751,img/planet13_right.png,13,Community 3,NA,TRUE,j,j,NA,NA,NA,8,7,"7,10,9,4,1,5,2,8,12,6,13,15,11,14,3"
14417,commdev-image-keyboard-response,453,1317242,learnblock2,683,img/planet3_right.png,3,Community 3,NA,TRUE,j,j,NA,NA,NA,8,7,"7,10,9,4,1,5,2,8,12,6,13,15,11,14,3"
14417,commdev-image-keyboard-response,454,1318495,learnblock2,699,img/planet13_left.png,13,Community 3,NA,TRUE,f,f,NA,NA,NA,8,7,"7,10,9,4,1,5,2,8,12,6,13,15,11,14,3"
14417,commdev-image-keyboard-response,455,1319748,learnblock2,535,img/planet1_left.png,1,Community 1,NA,TRUE,f,f,NA,NA,NA,8,7,"7,10,9,4,1,5,2,8,12,6,13,15,11,14,3"
14417,commdev-image-keyboard-response,456,1321002,learnblock2,499.00000000023283,img/planet13_left.png,13,Community 3,NA,TRUE,f,f,NA,NA,NA,8,7,"7,10,9,4,1,5,2,8,12,6,13,15,11,14,3"
14417,commdev-image-keyboard-response,457,1322255,learnblock2,626,img/planet1_right.png,1,Community 1,NA,TRUE,j,j,NA,NA,NA,8,7,"7,10,9,4,1,5,2,8,12,6,13,15,11,14,3"
14417,commdev-image-keyboard-response,458,1323509,learnblock2,651,img/planet13_left.png,13,Community 3,NA,TRUE,f,f,NA,NA,NA,8,7,"7,10,9,4,1,5,2,8,12,6,13,15,11,14,3"
14417,commdev-image-keyboard-response,459,1324762,learnblock2,618,img/planet11_right.png,11,Community 3,NA,TRUE,j,j,NA,NA,NA,8,7,"7,10,9,4,1,5,2,8,12,6,13,15,11,14,3"
14417,commdev-image-keyboard-response,460,1326015,learnblock2,1068,img/planet15_left.png,15,Community 3,NA,TRUE,f,f,NA,NA,NA,8,7,"7,10,9,4,1,5,2,8,12,6,13,15,11,14,3"
14417,commdev-image-keyboard-response,461,1327268,learnblock2,539.0000000002328,img/planet11_left.png,11,Community 3,NA,TRUE,f,f,NA,NA,NA,8,7,"7,10,9,4,1,5,2,8,12,6,13,15,11,14,3"
14417,commdev-image-keyboard-response,462,1328520,learnblock2,528,img/planet3_left.png,3,Community 3,NA,TRUE,f,f,NA,NA,NA,8,7,"7,10,9,4,1,5,2,8,12,6,13,15,11,14,3"
14417,commdev-image-keyboard-response,463,1329774,learnblock2,518,img/planet11_right.png,11,Community 3,NA,TRUE,j,j,NA,NA,NA,8,7,"7,10,9,4,1,5,2,8,12,6,13,15,11,14,3"
14417,commdev-image-keyboard-response,464,1331027,learnblock2,739,img/planet13_right.png,13,Community 3,NA,TRUE,j,j,NA,NA,NA,8,7,"7,10,9,4,1,5,2,8,12,6,13,15,11,14,3"
14417,commdev-image-keyboard-response,465,1332280,learnblock2,827,img/planet1_right.png,1,Community 1,NA,TRUE,j,j,NA,NA,NA,8,7,"7,10,9,4,1,5,2,8,12,6,13,15,11,14,3"
14417,commdev-image-keyboard-response,466,1333533,learnblock2,611.0000000002328,img/planet13_right.png,13,Community 3,NA,TRUE,j,j,NA,NA,NA,8,7,"7,10,9,4,1,5,2,8,12,6,13,15,11,14,3"
14417,commdev-image-keyboard-response,467,1334785,learnblock2,601,img/planet11_left.png,11,Community 3,NA,TRUE,f,f,NA,NA,NA,8,7,"7,10,9,4,1,5,2,8,12,6,13,15,11,14,3"
14417,commdev-image-keyboard-response,468,1336038,learnblock2,550.9999999997672,img/planet14_left.png,14,Community 3,NA,TRUE,f,f,NA,NA,NA,8,7,"7,10,9,4,1,5,2,8,12,6,13,15,11,14,3"
14417,commdev-image-keyboard-response,469,1337291,learnblock2,434,img/planet3_right.png,3,Community 3,NA,TRUE,j,j,NA,NA,NA,8,7,"7,10,9,4,1,5,2,8,12,6,13,15,11,14,3"
14417,commdev-image-keyboard-response,470,1338544,learnblock2,552.0000000002328,img/planet15_right.png,15,Community 3,NA,TRUE,j,j,NA,NA,NA,8,7,"7,10,9,4,1,5,2,8,12,6,13,15,11,14,3"
14417,commdev-image-keyboard-response,471,1339798,learnblock2,503.99999999976717,img/planet11_left.png,11,Community 3,NA,FALSE,j,f,NA,NA,NA,8,7,"7,10,9,4,1,5,2,8,12,6,13,15,11,14,3"
14417,commdev-image-keyboard-response,472,1341051,learnblock2,620,img/planet15_left.png,15,Community 3,NA,TRUE,f,f,NA,NA,NA,8,7,"7,10,9,4,1,5,2,8,12,6,13,15,11,14,3"
14417,commdev-image-keyboard-response,473,1342305,learnblock2,586,img/planet11_right.png,11,Community 3,NA,TRUE,j,j,NA,NA,NA,8,7,"7,10,9,4,1,5,2,8,12,6,13,15,11,14,3"
14417,commdev-image-keyboard-response,474,1343557,learnblock2,503,img/planet15_right.png,15,Community 3,NA,FALSE,f,j,NA,NA,NA,8,7,"7,10,9,4,1,5,2,8,12,6,13,15,11,14,3"
14417,commdev-image-keyboard-response,475,1344810,learnblock2,702,img/planet14_right.png,14,Community 3,NA,FALSE,f,j,NA,NA,NA,8,7,"7,10,9,4,1,5,2,8,12,6,13,15,11,14,3"
14417,commdev-image-keyboard-response,476,1346064,learnblock2,680,img/planet13_right.png,13,Community 3,NA,TRUE,j,j,NA,NA,NA,8,7,"7,10,9,4,1,5,2,8,12,6,13,15,11,14,3"
14417,commdev-image-keyboard-response,477,1347318,learnblock2,510,img/planet1_left.png,1,Community 1,NA,TRUE,f,f,NA,NA,NA,8,7,"7,10,9,4,1,5,2,8,12,6,13,15,11,14,3"
14417,commdev-image-keyboard-response,478,1348571,learnblock2,713,img/planet7_right.png,7,Community 1,NA,TRUE,j,j,NA,NA,NA,8,7,"7,10,9,4,1,5,2,8,12,6,13,15,11,14,3"
14417,commdev-image-keyboard-response,479,1349825,learnblock2,781,img/planet4_left.png,4,Community 1,NA,TRUE,f,f,NA,NA,NA,8,7,"7,10,9,4,1,5,2,8,12,6,13,15,11,14,3"
14417,commdev-image-keyboard-response,480,1351078,learnblock2,600,img/planet5_left.png,5,Community 2,NA,TRUE,f,f,NA,NA,NA,8,7,"7,10,9,4,1,5,2,8,12,6,13,15,11,14,3"
14417,commdev-image-keyboard-response,481,1352332,learnblock2,773,img/planet2_left.png,2,Community 2,NA,TRUE,f,f,NA,NA,NA,8,7,"7,10,9,4,1,5,2,8,12,6,13,15,11,14,3"
14417,commdev-image-keyboard-response,482,1353586,learnblock2,673,img/planet5_right.png,5,Community 2,NA,TRUE,j,j,NA,NA,NA,8,7,"7,10,9,4,1,5,2,8,12,6,13,15,11,14,3"
14417,commdev-image-keyboard-response,483,1354839,learnblock2,700,img/planet12_right.png,12,Community 2,NA,TRUE,j,j,NA,NA,NA,8,7,"7,10,9,4,1,5,2,8,12,6,13,15,11,14,3"
14417,commdev-image-keyboard-response,484,1356093,learnblock2,815,img/planet8_left.png,8,Community 2,NA,TRUE,f,f,NA,NA,NA,8,7,"7,10,9,4,1,5,2,8,12,6,13,15,11,14,3"
14417,commdev-image-keyboard-response,485,1357346,learnblock2,651,img/planet15_left.png,15,Community 3,NA,TRUE,f,f,NA,NA,NA,8,7,"7,10,9,4,1,5,2,8,12,6,13,15,11,14,3"
14417,commdev-image-keyboard-response,486,1358599,learnblock2,522,img/planet14_left.png,14,Community 3,NA,TRUE,f,f,NA,NA,NA,8,7,"7,10,9,4,1,5,2,8,12,6,13,15,11,14,3"
14417,commdev-image-keyboard-response,487,1359852,learnblock2,563,img/planet3_right.png,3,Community 3,NA,TRUE,j,j,NA,NA,NA,8,7,"7,10,9,4,1,5,2,8,12,6,13,15,11,14,3"
14417,commdev-image-keyboard-response,488,1361106,learnblock2,402.00000000023283,img/planet13_right.png,13,Community 3,NA,FALSE,f,j,NA,NA,NA,8,7,"7,10,9,4,1,5,2,8,12,6,13,15,11,14,3"
14417,commdev-image-keyboard-response,489,1362359,learnblock2,259,img/planet14_right.png,14,Community 3,NA,TRUE,j,j,NA,NA,NA,8,7,"7,10,9,4,1,5,2,8,12,6,13,15,11,14,3"
14417,commdev-image-keyboard-response,490,1363612,learnblock2,715,img/planet3_right.png,3,Community 3,NA,TRUE,j,j,NA,NA,NA,8,7,"7,10,9,4,1,5,2,8,12,6,13,15,11,14,3"
14417,commdev-image-keyboard-response,491,1364866,learnblock2,634,img/planet11_right.png,11,Community 3,NA,TRUE,j,j,NA,NA,NA,8,7,"7,10,9,4,1,5,2,8,12,6,13,15,11,14,3"
14417,commdev-image-keyboard-response,492,1366119,learnblock2,574,img/planet13_left.png,13,Community 3,NA,TRUE,f,f,NA,NA,NA,8,7,"7,10,9,4,1,5,2,8,12,6,13,15,11,14,3"
14417,commdev-image-keyboard-response,493,1367373,learnblock2,518.9999999997672,img/planet14_left.png,14,Community 3,NA,TRUE,f,f,NA,NA,NA,8,7,"7,10,9,4,1,5,2,8,12,6,13,15,11,14,3"
14417,commdev-image-keyboard-response,494,1368626,learnblock2,514,img/planet3_right.png,3,Community 3,NA,TRUE,j,j,NA,NA,NA,8,7,"7,10,9,4,1,5,2,8,12,6,13,15,11,14,3"
14417,commdev-image-keyboard-response,495,1369879,learnblock2,615,img/planet14_left.png,14,Community 3,NA,FALSE,j,f,NA,NA,NA,8,7,"7,10,9,4,1,5,2,8,12,6,13,15,11,14,3"
14417,commdev-image-keyboard-response,496,1371132,learnblock2,651.9999999997672,img/planet11_left.png,11,Community 3,NA,TRUE,f,f,NA,NA,NA,8,7,"7,10,9,4,1,5,2,8,12,6,13,15,11,14,3"
14417,commdev-image-keyboard-response,497,1372386,learnblock2,642,img/planet3_right.png,3,Community 3,NA,TRUE,j,j,NA,NA,NA,8,7,"7,10,9,4,1,5,2,8,12,6,13,15,11,14,3"
14417,commdev-image-keyboard-response,498,1373639,learnblock2,546,img/planet13_left.png,13,Community 3,NA,TRUE,f,f,NA,NA,NA,8,7,"7,10,9,4,1,5,2,8,12,6,13,15,11,14,3"
14417,commdev-image-keyboard-response,499,1374892,learnblock2,670.9999999997672,img/planet14_left.png,14,Community 3,NA,TRUE,f,f,NA,NA,NA,8,7,"7,10,9,4,1,5,2,8,12,6,13,15,11,14,3"
14417,commdev-image-keyboard-response,500,1376146,learnblock2,654,img/planet3_left.png,3,Community 3,NA,TRUE,f,f,NA,NA,NA,8,7,"7,10,9,4,1,5,2,8,12,6,13,15,11,14,3"
14417,commdev-image-keyboard-response,501,1377401,learnblock2,623,img/planet11_right.png,11,Community 3,NA,TRUE,j,j,NA,NA,NA,8,7,"7,10,9,4,1,5,2,8,12,6,13,15,11,14,3"
14417,commdev-image-keyboard-response,502,1378655,learnblock2,723,img/planet3_right.png,3,Community 3,NA,TRUE,j,j,NA,NA,NA,8,7,"7,10,9,4,1,5,2,8,12,6,13,15,11,14,3"
14417,commdev-image-keyboard-response,503,1379908,learnblock2,721,img/planet13_right.png,13,Community 3,NA,TRUE,j,j,NA,NA,NA,8,7,"7,10,9,4,1,5,2,8,12,6,13,15,11,14,3"
14417,commdev-image-keyboard-response,504,1381161,learnblock2,717.9999999997672,img/planet11_left.png,11,Community 3,NA,TRUE,f,f,NA,NA,NA,8,7,"7,10,9,4,1,5,2,8,12,6,13,15,11,14,3"
14417,commdev-image-keyboard-response,505,1382415,learnblock2,617,img/planet14_right.png,14,Community 3,NA,TRUE,j,j,NA,NA,NA,8,7,"7,10,9,4,1,5,2,8,12,6,13,15,11,14,3"
14417,commdev-image-keyboard-response,506,1383668,learnblock2,815,img/planet3_right.png,3,Community 3,NA,TRUE,j,j,NA,NA,NA,8,7,"7,10,9,4,1,5,2,8,12,6,13,15,11,14,3"
14417,commdev-image-keyboard-response,507,1384921,learnblock2,583,img/planet13_right.png,13,Community 3,NA,TRUE,j,j,NA,NA,NA,8,7,"7,10,9,4,1,5,2,8,12,6,13,15,11,14,3"
14417,commdev-image-keyboard-response,508,1386174,learnblock2,569,img/planet11_left.png,11,Community 3,NA,TRUE,f,f,NA,NA,NA,8,7,"7,10,9,4,1,5,2,8,12,6,13,15,11,14,3"
14417,commdev-image-keyboard-response,509,1387428,learnblock2,513,img/planet13_right.png,13,Community 3,NA,TRUE,j,j,NA,NA,NA,8,7,"7,10,9,4,1,5,2,8,12,6,13,15,11,14,3"
14417,commdev-image-keyboard-response,510,1388681,learnblock2,806,img/planet1_left.png,1,Community 1,NA,TRUE,f,f,NA,NA,NA,8,7,"7,10,9,4,1,5,2,8,12,6,13,15,11,14,3"
14417,commdev-image-keyboard-response,511,1389934,learnblock2,566,img/planet7_right.png,7,Community 1,NA,TRUE,j,j,NA,NA,NA,8,7,"7,10,9,4,1,5,2,8,12,6,13,15,11,14,3"
14417,commdev-image-keyboard-response,512,1391187,learnblock2,650,img/planet4_right.png,4,Community 1,NA,TRUE,j,j,NA,NA,NA,8,7,"7,10,9,4,1,5,2,8,12,6,13,15,11,14,3"
14417,commdev-image-keyboard-response,513,1392441,learnblock2,612,img/planet5_left.png,5,Community 2,NA,TRUE,f,f,NA,NA,NA,8,7,"7,10,9,4,1,5,2,8,12,6,13,15,11,14,3"
14417,commdev-image-keyboard-response,514,1393694,learnblock2,826,img/planet4_left.png,4,Community 1,NA,FALSE,j,f,NA,NA,NA,8,7,"7,10,9,4,1,5,2,8,12,6,13,15,11,14,3"
14417,commdev-image-keyboard-response,515,1394947,learnblock2,938,img/planet7_left.png,7,Community 1,NA,TRUE,f,f,NA,NA,NA,8,7,"7,10,9,4,1,5,2,8,12,6,13,15,11,14,3"
14417,commdev-image-keyboard-response,516,1396200,learnblock2,607,img/planet1_right.png,1,Community 1,NA,TRUE,j,j,NA,NA,NA,8,7,"7,10,9,4,1,5,2,8,12,6,13,15,11,14,3"
14417,commdev-image-keyboard-response,517,1397454,learnblock2,457,img/planet9_left.png,9,Community 1,NA,TRUE,f,f,NA,NA,NA,8,7,"7,10,9,4,1,5,2,8,12,6,13,15,11,14,3"
14417,commdev-image-keyboard-response,518,1398707,learnblock2,352,img/planet7_left.png,7,Community 1,NA,TRUE,f,f,NA,NA,NA,8,7,"7,10,9,4,1,5,2,8,12,6,13,15,11,14,3"
14417,commdev-image-keyboard-response,519,1399960,learnblock2,591,img/planet4_right.png,4,Community 1,NA,TRUE,j,j,NA,NA,NA,8,7,"7,10,9,4,1,5,2,8,12,6,13,15,11,14,3"
14417,commdev-image-keyboard-response,520,1401213,learnblock2,720,img/planet5_left.png,5,Community 2,NA,TRUE,f,f,NA,NA,NA,8,7,"7,10,9,4,1,5,2,8,12,6,13,15,11,14,3"
14417,commdev-image-keyboard-response,521,1402468,learnblock2,559.9999999997672,img/planet2_right.png,2,Community 2,NA,TRUE,j,j,NA,NA,NA,8,7,"7,10,9,4,1,5,2,8,12,6,13,15,11,14,3"
14417,commdev-image-keyboard-response,522,1403722,learnblock2,680,img/planet6_right.png,6,Community 2,NA,TRUE,j,j,NA,NA,NA,8,7,"7,10,9,4,1,5,2,8,12,6,13,15,11,14,3"
14417,commdev-image-keyboard-response,523,1404975,learnblock2,542,img/planet5_right.png,5,Community 2,NA,TRUE,j,j,NA,NA,NA,8,7,"7,10,9,4,1,5,2,8,12,6,13,15,11,14,3"
14417,commdev-image-keyboard-response,524,1406229,learnblock2,579,img/planet6_right.png,6,Community 2,NA,TRUE,j,j,NA,NA,NA,8,7,"7,10,9,4,1,5,2,8,12,6,13,15,11,14,3"
14417,commdev-image-keyboard-response,525,1407483,learnblock2,559,img/planet8_right.png,8,Community 2,NA,TRUE,j,j,NA,NA,NA,8,7,"7,10,9,4,1,5,2,8,12,6,13,15,11,14,3"
14417,commdev-image-keyboard-response,526,1408736,learnblock2,522,img/planet2_left.png,2,Community 2,NA,TRUE,f,f,NA,NA,NA,8,7,"7,10,9,4,1,5,2,8,12,6,13,15,11,14,3"
14417,commdev-image-keyboard-response,527,1409989,learnblock2,706,img/planet6_right.png,6,Community 2,NA,TRUE,j,j,NA,NA,NA,8,7,"7,10,9,4,1,5,2,8,12,6,13,15,11,14,3"
14417,commdev-image-keyboard-response,528,1411242,learnblock2,674,img/planet8_right.png,8,Community 2,NA,TRUE,j,j,NA,NA,NA,8,7,"7,10,9,4,1,5,2,8,12,6,13,15,11,14,3"
14417,commdev-image-keyboard-response,529,1412495,learnblock2,702,img/planet2_right.png,2,Community 2,NA,TRUE,j,j,NA,NA,NA,8,7,"7,10,9,4,1,5,2,8,12,6,13,15,11,14,3"
14417,commdev-image-keyboard-response,530,1413749,learnblock2,643,img/planet5_left.png,5,Community 2,NA,TRUE,f,f,NA,NA,NA,8,7,"7,10,9,4,1,5,2,8,12,6,13,15,11,14,3"
14417,commdev-image-keyboard-response,531,1415002,learnblock2,385,img/planet12_left.png,12,Community 2,NA,TRUE,f,f,NA,NA,NA,8,7,"7,10,9,4,1,5,2,8,12,6,13,15,11,14,3"
14417,commdev-image-keyboard-response,532,1416255,learnblock2,514.9999999997672,img/planet6_left.png,6,Community 2,NA,TRUE,f,f,NA,NA,NA,8,7,"7,10,9,4,1,5,2,8,12,6,13,15,11,14,3"
14417,commdev-image-keyboard-response,533,1417509,learnblock2,580,img/planet2_left.png,2,Community 2,NA,TRUE,f,f,NA,NA,NA,8,7,"7,10,9,4,1,5,2,8,12,6,13,15,11,14,3"
14417,commdev-image-keyboard-response,534,1418762,learnblock2,569,img/planet5_right.png,5,Community 2,NA,FALSE,f,j,NA,NA,NA,8,7,"7,10,9,4,1,5,2,8,12,6,13,15,11,14,3"
14417,commdev-image-keyboard-response,535,1420015,learnblock2,756,img/planet2_right.png,2,Community 2,NA,TRUE,j,j,NA,NA,NA,8,7,"7,10,9,4,1,5,2,8,12,6,13,15,11,14,3"
14417,commdev-image-keyboard-response,536,1421268,learnblock2,521,img/planet8_right.png,8,Community 2,NA,TRUE,j,j,NA,NA,NA,8,7,"7,10,9,4,1,5,2,8,12,6,13,15,11,14,3"
14417,commdev-image-keyboard-response,537,1422522,learnblock2,444,img/planet2_right.png,2,Community 2,NA,TRUE,j,j,NA,NA,NA,8,7,"7,10,9,4,1,5,2,8,12,6,13,15,11,14,3"
14417,commdev-image-keyboard-response,538,1423775,learnblock2,430.99999999976717,img/planet5_right.png,5,Community 2,NA,TRUE,j,j,NA,NA,NA,8,7,"7,10,9,4,1,5,2,8,12,6,13,15,11,14,3"
14417,commdev-image-keyboard-response,539,1425028,learnblock2,378,img/planet12_right.png,12,Community 2,NA,TRUE,j,j,NA,NA,NA,8,7,"7,10,9,4,1,5,2,8,12,6,13,15,11,14,3"
14417,commdev-image-keyboard-response,540,1426281,learnblock2,576,img/planet6_left.png,6,Community 2,NA,FALSE,j,f,NA,NA,NA,8,7,"7,10,9,4,1,5,2,8,12,6,13,15,11,14,3"
14417,commdev-image-keyboard-response,541,1427534,learnblock2,849.9999999997672,img/planet2_right.png,2,Community 2,NA,TRUE,j,j,NA,NA,NA,8,7,"7,10,9,4,1,5,2,8,12,6,13,15,11,14,3"
14417,commdev-image-keyboard-response,542,1428790,learnblock2,611,img/planet5_right.png,5,Community 2,NA,TRUE,j,j,NA,NA,NA,8,7,"7,10,9,4,1,5,2,8,12,6,13,15,11,14,3"
14417,commdev-image-keyboard-response,543,1430043,learnblock2,502,img/planet6_left.png,6,Community 2,NA,FALSE,j,f,NA,NA,NA,8,7,"7,10,9,4,1,5,2,8,12,6,13,15,11,14,3"
14417,commdev-image-keyboard-response,544,1431297,learnblock2,601,img/planet2_left.png,2,Community 2,NA,TRUE,f,f,NA,NA,NA,8,7,"7,10,9,4,1,5,2,8,12,6,13,15,11,14,3"
14417,commdev-image-keyboard-response,545,1432550,learnblock2,613,img/planet12_right.png,12,Community 2,NA,TRUE,j,j,NA,NA,NA,8,7,"7,10,9,4,1,5,2,8,12,6,13,15,11,14,3"
14417,commdev-image-keyboard-response,546,1433804,learnblock2,736.9999999997672,img/planet6_left.png,6,Community 2,NA,TRUE,f,f,NA,NA,NA,8,7,"7,10,9,4,1,5,2,8,12,6,13,15,11,14,3"
14417,commdev-image-keyboard-response,547,1435057,learnblock2,708.0000000002328,img/planet2_right.png,2,Community 2,NA,TRUE,j,j,NA,NA,NA,8,7,"7,10,9,4,1,5,2,8,12,6,13,15,11,14,3"
14417,commdev-image-keyboard-response,548,1436310,learnblock2,601,img/planet5_left.png,5,Community 2,NA,TRUE,f,f,NA,NA,NA,8,7,"7,10,9,4,1,5,2,8,12,6,13,15,11,14,3"
14417,commdev-image-keyboard-response,549,1437563,learnblock2,535.9999999997672,img/planet12_right.png,12,Community 2,NA,TRUE,j,j,NA,NA,NA,8,7,"7,10,9,4,1,5,2,8,12,6,13,15,11,14,3"
14417,commdev-image-keyboard-response,550,1438817,learnblock2,766,img/planet8_right.png,8,Community 2,NA,TRUE,j,j,NA,NA,NA,8,7,"7,10,9,4,1,5,2,8,12,6,13,15,11,14,3"
14417,commdev-image-keyboard-response,551,1440070,learnblock2,927,img/planet6_right.png,6,Community 2,NA,TRUE,j,j,NA,NA,NA,8,7,"7,10,9,4,1,5,2,8,12,6,13,15,11,14,3"
14417,commdev-image-keyboard-response,552,1441323,learnblock2,602,img/planet5_left.png,5,Community 2,NA,TRUE,f,f,NA,NA,NA,8,7,"7,10,9,4,1,5,2,8,12,6,13,15,11,14,3"
14417,commdev-image-keyboard-response,553,1442576,learnblock2,632,img/planet2_right.png,2,Community 2,NA,FALSE,f,j,NA,NA,NA,8,7,"7,10,9,4,1,5,2,8,12,6,13,15,11,14,3"
14417,commdev-image-keyboard-response,554,1443829,learnblock2,749,img/planet8_right.png,8,Community 2,NA,TRUE,j,j,NA,NA,NA,8,7,"7,10,9,4,1,5,2,8,12,6,13,15,11,14,3"
14417,commdev-image-keyboard-response,555,1445083,learnblock2,684,img/planet15_left.png,15,Community 3,NA,TRUE,f,f,NA,NA,NA,8,7,"7,10,9,4,1,5,2,8,12,6,13,15,11,14,3"
14417,commdev-image-keyboard-response,556,1446336,learnblock2,1080,img/planet11_left.png,11,Community 3,NA,TRUE,f,f,NA,NA,NA,8,7,"7,10,9,4,1,5,2,8,12,6,13,15,11,14,3"
14417,commdev-image-keyboard-response,557,1447589,learnblock2,618,img/planet14_left.png,14,Community 3,NA,TRUE,f,f,NA,NA,NA,8,7,"7,10,9,4,1,5,2,8,12,6,13,15,11,14,3"
14417,commdev-image-keyboard-response,558,1448843,learnblock2,664,img/planet3_left.png,3,Community 3,NA,FALSE,j,f,NA,NA,NA,8,7,"7,10,9,4,1,5,2,8,12,6,13,15,11,14,3"
14417,commdev-image-keyboard-response,559,1450096,learnblock2,315,img/planet15_left.png,15,Community 3,NA,TRUE,f,f,NA,NA,NA,8,7,"7,10,9,4,1,5,2,8,12,6,13,15,11,14,3"
14417,commdev-image-keyboard-response,560,1451349,learnblock2,717,img/planet8_left.png,8,Community 2,NA,TRUE,f,f,NA,NA,NA,8,7,"7,10,9,4,1,5,2,8,12,6,13,15,11,14,3"
14417,commdev-image-keyboard-response,561,1452602,learnblock2,550,img/planet12_left.png,12,Community 2,NA,TRUE,f,f,NA,NA,NA,8,7,"7,10,9,4,1,5,2,8,12,6,13,15,11,14,3"
14417,commdev-image-keyboard-response,562,1453856,learnblock2,614,img/planet5_right.png,5,Community 2,NA,TRUE,j,j,NA,NA,NA,8,7,"7,10,9,4,1,5,2,8,12,6,13,15,11,14,3"
14417,commdev-image-keyboard-response,563,1455109,learnblock2,711,img/planet6_right.png,6,Community 2,NA,TRUE,j,j,NA,NA,NA,8,7,"7,10,9,4,1,5,2,8,12,6,13,15,11,14,3"
14417,commdev-image-keyboard-response,564,1456362,learnblock2,780,img/planet2_left.png,2,Community 2,NA,TRUE,f,f,NA,NA,NA,8,7,"7,10,9,4,1,5,2,8,12,6,13,15,11,14,3"
14417,commdev-image-keyboard-response,565,1457614,learnblock2,902,img/planet12_left.png,12,Community 2,NA,TRUE,f,f,NA,NA,NA,8,7,"7,10,9,4,1,5,2,8,12,6,13,15,11,14,3"
14417,commdev-image-keyboard-response,566,1458867,learnblock2,687,img/planet8_left.png,8,Community 2,NA,TRUE,f,f,NA,NA,NA,8,7,"7,10,9,4,1,5,2,8,12,6,13,15,11,14,3"
14417,commdev-image-keyboard-response,567,1460121,learnblock2,677,img/planet6_right.png,6,Community 2,NA,FALSE,f,j,NA,NA,NA,8,7,"7,10,9,4,1,5,2,8,12,6,13,15,11,14,3"
14417,commdev-image-keyboard-response,568,1461374,learnblock2,1075,img/planet8_left.png,8,Community 2,NA,TRUE,f,f,NA,NA,NA,8,7,"7,10,9,4,1,5,2,8,12,6,13,15,11,14,3"
14417,commdev-image-keyboard-response,569,1462629,learnblock2,923,img/planet2_left.png,2,Community 2,NA,TRUE,f,f,NA,NA,NA,8,7,"7,10,9,4,1,5,2,8,12,6,13,15,11,14,3"
14417,commdev-image-keyboard-response,570,1463882,learnblock2,901.0000000002328,img/planet5_left.png,5,Community 2,NA,TRUE,f,f,NA,NA,NA,8,7,"7,10,9,4,1,5,2,8,12,6,13,15,11,14,3"
14417,commdev-image-keyboard-response,571,1465135,learnblock2,615,img/planet4_left.png,4,Community 1,NA,TRUE,f,f,NA,NA,NA,8,7,"7,10,9,4,1,5,2,8,12,6,13,15,11,14,3"
14417,commdev-image-keyboard-response,572,1466388,learnblock2,480,img/planet10_left.png,10,Community 1,NA,TRUE,f,f,NA,NA,NA,8,7,"7,10,9,4,1,5,2,8,12,6,13,15,11,14,3"
14417,commdev-image-keyboard-response,573,1467641,learnblock2,375,img/planet4_right.png,4,Community 1,NA,FALSE,f,j,NA,NA,NA,8,7,"7,10,9,4,1,5,2,8,12,6,13,15,11,14,3"
14417,commdev-image-keyboard-response,574,1468895,learnblock2,439,img/planet7_left.png,7,Community 1,NA,TRUE,f,f,NA,NA,NA,8,7,"7,10,9,4,1,5,2,8,12,6,13,15,11,14,3"
14417,commdev-image-keyboard-response,575,1470148,learnblock2,326.00000000023283,img/planet10_right.png,10,Community 1,NA,FALSE,f,j,NA,NA,NA,8,7,"7,10,9,4,1,5,2,8,12,6,13,15,11,14,3"
14417,commdev-image-keyboard-response,576,1471401,learnblock2,285.00000000023283,img/planet1_right.png,1,Community 1,NA,FALSE,f,j,NA,NA,NA,8,7,"7,10,9,4,1,5,2,8,12,6,13,15,11,14,3"
14417,commdev-image-keyboard-response,577,1472654,learnblock2,244,img/planet10_left.png,10,Community 1,NA,FALSE,j,f,NA,NA,NA,8,7,"7,10,9,4,1,5,2,8,12,6,13,15,11,14,3"
14417,commdev-image-keyboard-response,578,1473907,learnblock2,575.9999999997672,img/planet4_left.png,4,Community 1,NA,TRUE,f,f,NA,NA,NA,8,7,"7,10,9,4,1,5,2,8,12,6,13,15,11,14,3"
14417,commdev-image-keyboard-response,579,1475160,learnblock2,414,img/planet10_right.png,10,Community 1,NA,TRUE,j,j,NA,NA,NA,8,7,"7,10,9,4,1,5,2,8,12,6,13,15,11,14,3"
14417,commdev-image-keyboard-response,580,1476413,learnblock2,344,img/planet1_right.png,1,Community 1,NA,FALSE,f,j,NA,NA,NA,8,7,"7,10,9,4,1,5,2,8,12,6,13,15,11,14,3"
14417,commdev-image-keyboard-response,581,1477667,learnblock2,881.9999999997672,img/planet13_left.png,13,Community 3,NA,TRUE,f,f,NA,NA,NA,8,7,"7,10,9,4,1,5,2,8,12,6,13,15,11,14,3"
14417,commdev-image-keyboard-response,582,1478920,learnblock2,560,img/planet11_right.png,11,Community 3,NA,TRUE,j,j,NA,NA,NA,8,7,"7,10,9,4,1,5,2,8,12,6,13,15,11,14,3"
14417,commdev-image-keyboard-response,583,1480174,learnblock2,635,img/planet3_left.png,3,Community 3,NA,TRUE,f,f,NA,NA,NA,8,7,"7,10,9,4,1,5,2,8,12,6,13,15,11,14,3"
14417,commdev-image-keyboard-response,584,1481427,learnblock2,613.0000000002328,img/planet15_right.png,15,Community 3,NA,TRUE,j,j,NA,NA,NA,8,7,"7,10,9,4,1,5,2,8,12,6,13,15,11,14,3"
14417,commdev-image-keyboard-response,585,1482681,learnblock2,495.00000000023283,img/planet14_left.png,14,Community 3,NA,TRUE,f,f,NA,NA,NA,8,7,"7,10,9,4,1,5,2,8,12,6,13,15,11,14,3"
14417,commdev-image-keyboard-response,586,1483934,learnblock2,449,img/planet15_right.png,15,Community 3,NA,TRUE,j,j,NA,NA,NA,8,7,"7,10,9,4,1,5,2,8,12,6,13,15,11,14,3"
14417,commdev-image-keyboard-response,587,1485187,learnblock2,252,img/planet14_left.png,14,Community 3,NA,TRUE,f,f,NA,NA,NA,8,7,"7,10,9,4,1,5,2,8,12,6,13,15,11,14,3"
14417,commdev-image-keyboard-response,588,1486439,learnblock2,221,img/planet15_right.png,15,Community 3,NA,TRUE,j,j,NA,NA,NA,8,7,"7,10,9,4,1,5,2,8,12,6,13,15,11,14,3"
14417,commdev-image-keyboard-response,589,1487695,learnblock2,0.9999999997671694,img/planet14_right.png,14,Community 3,NA,FALSE,f,j,NA,NA,NA,8,7,"7,10,9,4,1,5,2,8,12,6,13,15,11,14,3"
14417,commdev-image-keyboard-response,590,1488949,learnblock2,172,img/planet15_left.png,15,Community 3,NA,FALSE,j,f,NA,NA,NA,8,7,"7,10,9,4,1,5,2,8,12,6,13,15,11,14,3"
14417,commdev-image-keyboard-response,591,1490203,learnblock2,245,img/planet8_right.png,8,Community 2,NA,FALSE,f,j,NA,NA,NA,8,7,"7,10,9,4,1,5,2,8,12,6,13,15,11,14,3"
14417,commdev-image-keyboard-response,592,1491456,learnblock2,673,img/planet15_right.png,15,Community 3,NA,TRUE,j,j,NA,NA,NA,8,7,"7,10,9,4,1,5,2,8,12,6,13,15,11,14,3"
14417,commdev-image-keyboard-response,593,1492709,learnblock2,585,img/planet8_left.png,8,Community 2,NA,TRUE,f,f,NA,NA,NA,8,7,"7,10,9,4,1,5,2,8,12,6,13,15,11,14,3"
14417,commdev-image-keyboard-response,594,1493963,learnblock2,677,img/planet15_left.png,15,Community 3,NA,TRUE,f,f,NA,NA,NA,8,7,"7,10,9,4,1,5,2,8,12,6,13,15,11,14,3"
14417,commdev-image-keyboard-response,595,1495215,learnblock2,490,img/planet14_left.png,14,Community 3,NA,TRUE,f,f,NA,NA,NA,8,7,"7,10,9,4,1,5,2,8,12,6,13,15,11,14,3"
14417,commdev-image-keyboard-response,596,1496468,learnblock2,472,img/planet15_left.png,15,Community 3,NA,TRUE,f,f,NA,NA,NA,8,7,"7,10,9,4,1,5,2,8,12,6,13,15,11,14,3"
14417,commdev-image-keyboard-response,597,1497721,learnblock2,456,img/planet8_right.png,8,Community 2,NA,TRUE,j,j,NA,NA,NA,8,7,"7,10,9,4,1,5,2,8,12,6,13,15,11,14,3"
14417,commdev-image-keyboard-response,598,1498975,learnblock2,378,img/planet15_right.png,15,Community 3,NA,FALSE,f,j,NA,NA,NA,8,7,"7,10,9,4,1,5,2,8,12,6,13,15,11,14,3"
14417,commdev-image-keyboard-response,599,1500228,learnblock2,563.0000000002328,img/planet14_left.png,14,Community 3,NA,TRUE,f,f,NA,NA,NA,8,7,"7,10,9,4,1,5,2,8,12,6,13,15,11,14,3"
14417,commdev-image-keyboard-response,600,1501482,learnblock2,null,img/planet13_right.png,13,Community 3,NA,FALSE,null,j,NA,NA,NA,8,7,"7,10,9,4,1,5,2,8,12,6,13,15,11,14,3"
14417,commdev-image-keyboard-response,601,1502735,learnblock2,509,img/planet3_left.png,3,Community 3,NA,FALSE,j,f,NA,NA,NA,8,7,"7,10,9,4,1,5,2,8,12,6,13,15,11,14,3"
14417,commdev-image-keyboard-response,602,1503987,learnblock2,543.0000000002328,img/planet11_left.png,11,Community 3,NA,FALSE,j,f,NA,NA,NA,8,7,"7,10,9,4,1,5,2,8,12,6,13,15,11,14,3"
14417,commdev-image-keyboard-response,603,1505241,learnblock2,495,img/planet14_left.png,14,Community 3,NA,TRUE,f,f,NA,NA,NA,8,7,"7,10,9,4,1,5,2,8,12,6,13,15,11,14,3"
14417,commdev-image-keyboard-response,604,1506494,learnblock2,437,img/planet3_right.png,3,Community 3,NA,TRUE,j,j,NA,NA,NA,8,7,"7,10,9,4,1,5,2,8,12,6,13,15,11,14,3"
14417,commdev-image-keyboard-response,605,1507748,learnblock2,402,img/planet13_left.png,13,Community 3,NA,TRUE,f,f,NA,NA,NA,8,7,"7,10,9,4,1,5,2,8,12,6,13,15,11,14,3"
14417,commdev-image-keyboard-response,606,1509001,learnblock2,450,img/planet11_left.png,11,Community 3,NA,TRUE,f,f,NA,NA,NA,8,7,"7,10,9,4,1,5,2,8,12,6,13,15,11,14,3"
14417,commdev-image-keyboard-response,607,1510254,learnblock2,499,img/planet13_left.png,13,Community 3,NA,TRUE,f,f,NA,NA,NA,8,7,"7,10,9,4,1,5,2,8,12,6,13,15,11,14,3"
14417,commdev-image-keyboard-response,608,1511507,learnblock2,362,img/planet14_left.png,14,Community 3,NA,TRUE,f,f,NA,NA,NA,8,7,"7,10,9,4,1,5,2,8,12,6,13,15,11,14,3"
14417,commdev-image-keyboard-response,609,1512761,learnblock2,363.99999999976717,img/planet11_right.png,11,Community 3,NA,FALSE,f,j,NA,NA,NA,8,7,"7,10,9,4,1,5,2,8,12,6,13,15,11,14,3"
14417,commdev-image-keyboard-response,610,1514015,learnblock2,423,img/planet14_left.png,14,Community 3,NA,TRUE,f,f,NA,NA,NA,8,7,"7,10,9,4,1,5,2,8,12,6,13,15,11,14,3"
14417,commdev-image-keyboard-response,611,1515268,learnblock2,556,img/planet11_left.png,11,Community 3,NA,TRUE,f,f,NA,NA,NA,8,7,"7,10,9,4,1,5,2,8,12,6,13,15,11,14,3"
14417,commdev-image-keyboard-response,612,1516520,learnblock2,428.99999999976717,img/planet14_left.png,14,Community 3,NA,TRUE,f,f,NA,NA,NA,8,7,"7,10,9,4,1,5,2,8,12,6,13,15,11,14,3"
14417,commdev-image-keyboard-response,613,1517773,learnblock2,311,img/planet15_left.png,15,Community 3,NA,TRUE,f,f,NA,NA,NA,8,7,"7,10,9,4,1,5,2,8,12,6,13,15,11,14,3"
14417,commdev-image-keyboard-response,614,1519027,learnblock2,318,img/planet3_right.png,3,Community 3,NA,FALSE,f,j,NA,NA,NA,8,7,"7,10,9,4,1,5,2,8,12,6,13,15,11,14,3"
14417,commdev-image-keyboard-response,615,1520281,learnblock2,284,img/planet15_left.png,15,Community 3,NA,TRUE,f,f,NA,NA,NA,8,7,"7,10,9,4,1,5,2,8,12,6,13,15,11,14,3"
