subject_id,trial_type,trial_index,time_elapsed,block,rt,stimulus,planet,community,response,correct,key_press,learning_correct_response,parse,init_locations,final_locations,browser_interactions,num_comp,planet_map
14084,commdev-instructions,7,38742,NA,2350.5,"<p>In this game, you will be shown a 3x3 grid of patterns.</p> <p>The last one in the bottom right-hand corner, <strong>will be missing:</strong></p> <div style='width: 700px;'><div style='float: top;'><img style='width: 200px;' src='practice/p1_M1.png'></img><p class='small'>You need to select<strong> which of the four possible patterns </strong>along the bottom<strong> fits into the gap:</strong></p></div><div style='float: top;'><img style='width: 300px;' src='practice/p1_T1.png'></img></div><br>",NA,NA,NA,NA,NA,NA,NA,NA,NA,NA,6,"7,12,2,1,11,6,5,4,10,14,9,8,3,13,15"
14084,commdev-instructions,8,58347,NA,2318.2999999523163,"<p>Try to be as fast and as accurate as you can be.</p> <p>If you cannot solve the puzzle then you should guess - you will not be penalised for an incorrect answer.</p> <p>The task contains a shuffled mix of easy, medium and hard puzzles.</p> <p>You will have <strong>30 seconds</strong> to complete each puzzle.</p><br>",NA,NA,NA,NA,NA,NA,NA,NA,NA,NA,6,"7,12,2,1,11,6,5,4,10,14,9,8,3,13,15"
14084,commdev-instructions,15,85578,NA,2152.5,<p><strong>Success!</strong></p> <p>You seem to be getting the hang of this...</p> <p>Let's move on to the real trials.</p><br>,NA,NA,NA,NA,NA,NA,NA,NA,NA,NA,6,"7,12,2,1,11,6,5,4,10,14,9,8,3,13,15"
14084,commdev-instructions,178,340883,NA,6006.699999928474,"<p>In this game, you are a scientist on board a space shuttle. </p><p> On each mission, you will visit planets all across the universe.</p><img src=""img/controlroom.jpg"" width=300vw>",NA,NA,NA,NA,NA,NA,NA,NA,NA,NA,6,"7,12,2,1,11,6,5,4,10,14,9,8,3,13,15"
14084,commdev-instructions,179,345779,NA,2817.9000000953674,"<p>Here are a few planets you might see:</p><img src=""img/practice1.png"" width=200vw><img src=""img/practice2.png"" width=200vw><img src=""img/practice3.png"" width=200vw>",NA,NA,NA,NA,NA,NA,NA,NA,NA,NA,6,"7,12,2,1,11,6,5,4,10,14,9,8,3,13,15"
14084,commdev-instructions,180,355304,NA,2113.1999999284744,"<p>Your job as a scientist is to record which direction the winds are moving on each planet.</p><p>There are two types of wind directions:</p><img src=""img/practice1_left.png"" width=200vw><img src=""img/practice1_right.png"" width=200vw>",NA,NA,NA,NA,NA,NA,NA,NA,NA,NA,6,"7,12,2,1,11,6,5,4,10,14,9,8,3,13,15"
14084,commdev-instructions,181,362251,NA,2062.7000000476837,"<p>If the winds are moving this way, press the letter <strong>F</strong> on the keyboard as fast as you can.</p><img src=""img/leftwind.png"" width=250vw>",NA,NA,NA,NA,NA,NA,NA,NA,NA,NA,6,"7,12,2,1,11,6,5,4,10,14,9,8,3,13,15"
14084,commdev-instructions,182,367955,NA,1206.8000000715256,"<p>If the winds are moving this way, press the letter <strong>J</strong> on the keyboard as fast as you can.</p><img src=""img/rightwind.png"" width=350vw>",NA,NA,NA,NA,NA,NA,NA,NA,NA,NA,6,"7,12,2,1,11,6,5,4,10,14,9,8,3,13,15"
14084,commdev-instructions,183,374342,NA,1958.3999999761581,<p>You will have 1 second to respond. Try to respond before the time runs out!,NA,NA,NA,NA,NA,NA,NA,NA,NA,NA,6,"7,12,2,1,11,6,5,4,10,14,9,8,3,13,15"
14084,commdev-instructions,184,381679,NA,1902.7999999523163,<p>The planets you will visit will look different from each other.</p><p>You should respond <strong>only</strong> based on wind direction.,NA,NA,NA,NA,NA,NA,NA,NA,NA,NA,6,"7,12,2,1,11,6,5,4,10,14,9,8,3,13,15"
14084,commdev-instructions,185,388491,NA,1632,"<p> Ready to start the practice round? </p><p> Remember, press <strong>F</strong> or <strong>J</strong> depending on the wind direction.<br><img src=""img/categorize_planet_example.png""",NA,NA,NA,NA,NA,NA,NA,NA,NA,NA,6,"7,12,2,1,11,6,5,4,10,14,9,8,3,13,15"
14084,commdev-instructions,197,447655,NA,2060.5,"<p>Great, now try a short practice mission. </p><p> This time, you will have 1 second to respond and you won't know whether you pressed the right or wrong key for each planet.</p>",NA,NA,NA,NA,NA,NA,NA,NA,NA,NA,6,"7,12,2,1,11,6,5,4,10,14,9,8,3,13,15"
14084,commdev-image-keyboard-response,198,449024,practice,952.2999999523163,img/practice1_left.png,NA,Number not found in mappings,NA,TRUE,f,f,NA,NA,NA,NA,6,"7,12,2,1,11,6,5,4,10,14,9,8,3,13,15"
14084,commdev-image-keyboard-response,199,450278,practice,943,img/practice2_left.png,NA,Number not found in mappings,NA,TRUE,f,f,NA,NA,NA,NA,6,"7,12,2,1,11,6,5,4,10,14,9,8,3,13,15"
14084,commdev-image-keyboard-response,200,451541,practice,708.1000000238419,img/practice3_left.png,NA,Number not found in mappings,NA,TRUE,f,f,NA,NA,NA,NA,6,"7,12,2,1,11,6,5,4,10,14,9,8,3,13,15"
14084,commdev-image-keyboard-response,201,452794,practice,536.6000000238419,img/practice4_left.png,NA,Number not found in mappings,NA,TRUE,f,f,NA,NA,NA,NA,6,"7,12,2,1,11,6,5,4,10,14,9,8,3,13,15"
14084,commdev-image-keyboard-response,202,454063,practice,593.3000000715256,img/practice2_right.png,NA,Number not found in mappings,NA,TRUE,j,j,NA,NA,NA,NA,6,"7,12,2,1,11,6,5,4,10,14,9,8,3,13,15"
14084,commdev-image-keyboard-response,203,455328,practice,664.1000000238419,img/practice3_left.png,NA,Number not found in mappings,NA,TRUE,f,f,NA,NA,NA,NA,6,"7,12,2,1,11,6,5,4,10,14,9,8,3,13,15"
14084,commdev-image-keyboard-response,204,456591,practice,782.1000000238419,img/practice2_left.png,NA,Number not found in mappings,NA,TRUE,f,f,NA,NA,NA,NA,6,"7,12,2,1,11,6,5,4,10,14,9,8,3,13,15"
14084,commdev-image-keyboard-response,205,457850,practice,670.5,img/practice4_right.png,NA,Number not found in mappings,NA,TRUE,j,j,NA,NA,NA,NA,6,"7,12,2,1,11,6,5,4,10,14,9,8,3,13,15"
14084,commdev-instructions,206,469404,NA,1995.7999999523163,"<p>Great job with the practice round.</p><p>During real missions, you won't know whether you pressed the right or wrong key for each planet.</p><p>But between missions, we will tell you how you did overall.</p>",NA,NA,NA,NA,NA,NA,NA,NA,NA,NA,6,"7,12,2,1,11,6,5,4,10,14,9,8,3,13,15"
14084,commdev-instructions,207,479444,NA,1795.8999999761581,<p>Try your best! You will be paid a bonus based on how many correct responses you make!</p><p>Responses that are too slow will not count toward your bonus.</p>,NA,NA,NA,NA,NA,NA,NA,NA,NA,NA,6,"7,12,2,1,11,6,5,4,10,14,9,8,3,13,15"
14084,commdev-instructions,208,487066,NA,1407.7999999523163,"<p>You are almost ready to start the real game.</p><p> First, we are going to ask you some questions about how the game works.</p>",NA,NA,NA,NA,NA,NA,NA,NA,NA,NA,6,"7,12,2,1,11,6,5,4,10,14,9,8,3,13,15"
14084,commdev-instructions,217,565688,NA,NA,NA,NA,NA,NA,NA,NA,NA,NA,NA,NA,NA,6,"7,12,2,1,11,6,5,4,10,14,9,8,3,13,15"
14084,commdev-image-keyboard-response,219,570686,learnblock1,null,img/planet7_left.png,7,Community 1,NA,FALSE,null,f,NA,NA,NA,NA,6,"7,12,2,1,11,6,5,4,10,14,9,8,3,13,15"
14084,commdev-image-keyboard-response,220,571942,learnblock1,187.10000002384186,img/planet2_left.png,2,Community 1,NA,TRUE,f,f,NA,NA,NA,NA,6,"7,12,2,1,11,6,5,4,10,14,9,8,3,13,15"
14084,commdev-image-keyboard-response,221,573202,learnblock1,874.7000000476837,img/planet12_left.png,12,Community 1,NA,TRUE,f,f,NA,NA,NA,NA,6,"7,12,2,1,11,6,5,4,10,14,9,8,3,13,15"
14084,commdev-image-keyboard-response,222,574467,learnblock1,null,img/planet1_right.png,1,Community 1,NA,FALSE,null,j,NA,NA,NA,NA,6,"7,12,2,1,11,6,5,4,10,14,9,8,3,13,15"
14084,commdev-image-keyboard-response,223,575732,learnblock1,null,img/planet2_right.png,2,Community 1,NA,FALSE,null,j,NA,NA,NA,NA,6,"7,12,2,1,11,6,5,4,10,14,9,8,3,13,15"
14084,commdev-image-keyboard-response,224,576983,learnblock1,null,img/planet1_right.png,1,Community 1,NA,FALSE,null,j,NA,NA,NA,NA,6,"7,12,2,1,11,6,5,4,10,14,9,8,3,13,15"
14084,commdev-image-keyboard-response,225,578235,learnblock1,null,img/planet12_right.png,12,Community 1,NA,FALSE,null,j,NA,NA,NA,NA,6,"7,12,2,1,11,6,5,4,10,14,9,8,3,13,15"
14084,commdev-image-keyboard-response,226,579495,learnblock1,null,img/planet2_right.png,2,Community 1,NA,FALSE,null,j,NA,NA,NA,NA,6,"7,12,2,1,11,6,5,4,10,14,9,8,3,13,15"
14084,commdev-image-keyboard-response,227,580752,learnblock1,null,img/planet1_right.png,1,Community 1,NA,FALSE,null,j,NA,NA,NA,NA,6,"7,12,2,1,11,6,5,4,10,14,9,8,3,13,15"
14084,commdev-image-keyboard-response,228,582013,learnblock1,null,img/planet6_right.png,6,Community 2,NA,FALSE,null,j,NA,NA,NA,NA,6,"7,12,2,1,11,6,5,4,10,14,9,8,3,13,15"
14084,commdev-image-keyboard-response,229,583265,learnblock1,717.3999999761581,img/planet14_left.png,14,Community 2,NA,TRUE,f,f,NA,NA,NA,NA,6,"7,12,2,1,11,6,5,4,10,14,9,8,3,13,15"
14084,commdev-image-keyboard-response,230,584530,learnblock1,828.8000000715256,img/planet6_left.png,6,Community 2,NA,TRUE,f,f,NA,NA,NA,NA,6,"7,12,2,1,11,6,5,4,10,14,9,8,3,13,15"
14084,commdev-image-keyboard-response,231,585795,learnblock1,674.7999999523163,img/planet14_left.png,14,Community 2,NA,TRUE,f,f,NA,NA,NA,NA,6,"7,12,2,1,11,6,5,4,10,14,9,8,3,13,15"
14084,commdev-image-keyboard-response,232,587054,learnblock1,null,img/planet4_right.png,4,Community 2,NA,FALSE,null,j,NA,NA,NA,NA,6,"7,12,2,1,11,6,5,4,10,14,9,8,3,13,15"
14084,commdev-image-keyboard-response,233,588317,learnblock1,743,img/planet8_left.png,8,Community 3,NA,TRUE,f,f,NA,NA,NA,NA,6,"7,12,2,1,11,6,5,4,10,14,9,8,3,13,15"
14084,commdev-image-keyboard-response,234,589582,learnblock1,null,img/planet13_left.png,13,Community 3,NA,FALSE,null,f,NA,NA,NA,NA,6,"7,12,2,1,11,6,5,4,10,14,9,8,3,13,15"
14084,commdev-image-keyboard-response,235,590834,learnblock1,736.5,img/planet9_left.png,9,Community 3,NA,TRUE,f,f,NA,NA,NA,NA,6,"7,12,2,1,11,6,5,4,10,14,9,8,3,13,15"
14084,commdev-image-keyboard-response,236,592089,learnblock1,805.2000000476837,img/planet13_left.png,13,Community 3,NA,TRUE,f,f,NA,NA,NA,NA,6,"7,12,2,1,11,6,5,4,10,14,9,8,3,13,15"
14084,commdev-image-keyboard-response,237,593352,learnblock1,726.5,img/planet8_left.png,8,Community 3,NA,TRUE,f,f,NA,NA,NA,NA,6,"7,12,2,1,11,6,5,4,10,14,9,8,3,13,15"
14084,commdev-image-keyboard-response,238,594606,learnblock1,null,img/planet3_right.png,3,Community 3,NA,FALSE,null,j,NA,NA,NA,NA,6,"7,12,2,1,11,6,5,4,10,14,9,8,3,13,15"
14084,commdev-image-keyboard-response,239,595859,learnblock1,null,img/planet8_right.png,8,Community 3,NA,FALSE,null,j,NA,NA,NA,NA,6,"7,12,2,1,11,6,5,4,10,14,9,8,3,13,15"
14084,commdev-image-keyboard-response,240,597113,learnblock1,null,img/planet3_right.png,3,Community 3,NA,FALSE,null,j,NA,NA,NA,NA,6,"7,12,2,1,11,6,5,4,10,14,9,8,3,13,15"
14084,commdev-image-keyboard-response,241,598367,learnblock1,749,img/planet13_left.png,13,Community 3,NA,TRUE,f,f,NA,NA,NA,NA,6,"7,12,2,1,11,6,5,4,10,14,9,8,3,13,15"
14084,commdev-image-keyboard-response,242,599628,learnblock1,null,img/planet9_right.png,9,Community 3,NA,FALSE,null,j,NA,NA,NA,NA,6,"7,12,2,1,11,6,5,4,10,14,9,8,3,13,15"
14084,commdev-image-keyboard-response,243,600881,learnblock1,650.3999999761581,img/planet11_left.png,11,Community 1,NA,TRUE,f,f,NA,NA,NA,NA,6,"7,12,2,1,11,6,5,4,10,14,9,8,3,13,15"
14084,commdev-image-keyboard-response,244,602141,learnblock1,737.8000000715256,img/planet12_right.png,12,Community 1,NA,FALSE,f,j,NA,NA,NA,NA,6,"7,12,2,1,11,6,5,4,10,14,9,8,3,13,15"
14084,commdev-image-keyboard-response,245,603394,learnblock1,null,img/planet2_right.png,2,Community 1,NA,FALSE,null,j,NA,NA,NA,NA,6,"7,12,2,1,11,6,5,4,10,14,9,8,3,13,15"
14084,commdev-image-keyboard-response,246,604659,learnblock1,null,img/planet1_right.png,1,Community 1,NA,FALSE,null,j,NA,NA,NA,NA,6,"7,12,2,1,11,6,5,4,10,14,9,8,3,13,15"
14084,commdev-image-keyboard-response,247,605912,learnblock1,null,img/planet6_right.png,6,Community 2,NA,FALSE,null,j,NA,NA,NA,NA,6,"7,12,2,1,11,6,5,4,10,14,9,8,3,13,15"
14084,commdev-image-keyboard-response,248,607172,learnblock1,null,img/planet5_right.png,5,Community 2,NA,FALSE,null,j,NA,NA,NA,NA,6,"7,12,2,1,11,6,5,4,10,14,9,8,3,13,15"
14084,commdev-image-keyboard-response,249,608433,learnblock1,null,img/planet4_right.png,4,Community 2,NA,FALSE,null,j,NA,NA,NA,NA,6,"7,12,2,1,11,6,5,4,10,14,9,8,3,13,15"
14084,commdev-image-keyboard-response,250,609693,learnblock1,null,img/planet5_right.png,5,Community 2,NA,FALSE,null,j,NA,NA,NA,NA,6,"7,12,2,1,11,6,5,4,10,14,9,8,3,13,15"
14084,commdev-image-keyboard-response,251,610958,learnblock1,null,img/planet10_right.png,10,Community 2,NA,FALSE,null,j,NA,NA,NA,NA,6,"7,12,2,1,11,6,5,4,10,14,9,8,3,13,15"
14084,commdev-image-keyboard-response,252,612215,learnblock1,null,img/planet14_right.png,14,Community 2,NA,FALSE,null,j,NA,NA,NA,NA,6,"7,12,2,1,11,6,5,4,10,14,9,8,3,13,15"
14084,commdev-image-keyboard-response,253,613475,learnblock1,null,img/planet10_left.png,10,Community 2,NA,FALSE,null,f,NA,NA,NA,NA,6,"7,12,2,1,11,6,5,4,10,14,9,8,3,13,15"
14084,commdev-image-keyboard-response,254,614732,learnblock1,null,img/planet14_right.png,14,Community 2,NA,FALSE,null,j,NA,NA,NA,NA,6,"7,12,2,1,11,6,5,4,10,14,9,8,3,13,15"
14084,commdev-image-keyboard-response,255,615998,learnblock1,723.8999999761581,img/planet4_left.png,4,Community 2,NA,TRUE,f,f,NA,NA,NA,NA,6,"7,12,2,1,11,6,5,4,10,14,9,8,3,13,15"
14084,commdev-image-keyboard-response,256,617255,learnblock1,673.8999999761581,img/planet14_left.png,14,Community 2,NA,TRUE,f,f,NA,NA,NA,NA,6,"7,12,2,1,11,6,5,4,10,14,9,8,3,13,15"
14084,commdev-image-keyboard-response,257,618518,learnblock1,null,img/planet6_right.png,6,Community 2,NA,FALSE,null,j,NA,NA,NA,NA,6,"7,12,2,1,11,6,5,4,10,14,9,8,3,13,15"
14084,commdev-image-keyboard-response,258,619779,learnblock1,null,img/planet14_left.png,14,Community 2,NA,FALSE,null,f,NA,NA,NA,NA,6,"7,12,2,1,11,6,5,4,10,14,9,8,3,13,15"
14084,commdev-image-keyboard-response,259,621041,learnblock1,null,img/planet10_right.png,10,Community 2,NA,FALSE,null,j,NA,NA,NA,NA,6,"7,12,2,1,11,6,5,4,10,14,9,8,3,13,15"
14084,commdev-image-keyboard-response,260,622294,learnblock1,570.6000000238419,img/planet5_left.png,5,Community 2,NA,TRUE,f,f,NA,NA,NA,NA,6,"7,12,2,1,11,6,5,4,10,14,9,8,3,13,15"
14084,commdev-image-keyboard-response,261,623548,learnblock1,null,img/planet10_right.png,10,Community 2,NA,FALSE,null,j,NA,NA,NA,NA,6,"7,12,2,1,11,6,5,4,10,14,9,8,3,13,15"
14084,commdev-image-keyboard-response,262,624808,learnblock1,null,img/planet4_right.png,4,Community 2,NA,FALSE,null,j,NA,NA,NA,NA,6,"7,12,2,1,11,6,5,4,10,14,9,8,3,13,15"
14084,commdev-image-keyboard-response,263,626076,learnblock1,null,img/planet10_right.png,10,Community 2,NA,FALSE,null,j,NA,NA,NA,NA,6,"7,12,2,1,11,6,5,4,10,14,9,8,3,13,15"
14084,commdev-image-keyboard-response,264,627342,learnblock1,648,img/planet6_left.png,6,Community 2,NA,TRUE,f,f,NA,NA,NA,NA,6,"7,12,2,1,11,6,5,4,10,14,9,8,3,13,15"
14084,commdev-image-keyboard-response,265,628602,learnblock1,null,img/planet10_right.png,10,Community 2,NA,FALSE,null,j,NA,NA,NA,NA,6,"7,12,2,1,11,6,5,4,10,14,9,8,3,13,15"
14084,commdev-image-keyboard-response,266,629854,learnblock1,null,img/planet14_right.png,14,Community 2,NA,FALSE,null,j,NA,NA,NA,NA,6,"7,12,2,1,11,6,5,4,10,14,9,8,3,13,15"
14084,commdev-image-keyboard-response,267,631109,learnblock1,null,img/planet6_right.png,6,Community 2,NA,FALSE,null,j,NA,NA,NA,NA,6,"7,12,2,1,11,6,5,4,10,14,9,8,3,13,15"
14084,commdev-image-keyboard-response,268,632368,learnblock1,null,img/planet10_right.png,10,Community 2,NA,FALSE,null,j,NA,NA,NA,NA,6,"7,12,2,1,11,6,5,4,10,14,9,8,3,13,15"
14084,commdev-image-keyboard-response,269,633623,learnblock1,null,img/planet5_right.png,5,Community 2,NA,FALSE,null,j,NA,NA,NA,NA,6,"7,12,2,1,11,6,5,4,10,14,9,8,3,13,15"
14084,commdev-image-keyboard-response,270,634892,learnblock1,607.3999999761581,img/planet10_left.png,10,Community 2,NA,TRUE,f,f,NA,NA,NA,NA,6,"7,12,2,1,11,6,5,4,10,14,9,8,3,13,15"
14084,commdev-image-keyboard-response,271,636155,learnblock1,557.8999999761581,img/planet6_right.png,6,Community 2,NA,FALSE,f,j,NA,NA,NA,NA,6,"7,12,2,1,11,6,5,4,10,14,9,8,3,13,15"
14084,commdev-image-keyboard-response,272,637411,learnblock1,null,img/planet5_left.png,5,Community 2,NA,FALSE,null,f,NA,NA,NA,NA,6,"7,12,2,1,11,6,5,4,10,14,9,8,3,13,15"
14084,commdev-image-keyboard-response,273,638671,learnblock1,654.6999999284744,img/planet6_left.png,6,Community 2,NA,TRUE,f,f,NA,NA,NA,NA,6,"7,12,2,1,11,6,5,4,10,14,9,8,3,13,15"
14084,commdev-image-keyboard-response,274,639937,learnblock1,null,img/planet1_right.png,1,Community 1,NA,FALSE,null,j,NA,NA,NA,NA,6,"7,12,2,1,11,6,5,4,10,14,9,8,3,13,15"
14084,commdev-image-keyboard-response,275,641204,learnblock1,610.7999999523163,img/planet12_left.png,12,Community 1,NA,TRUE,f,f,NA,NA,NA,NA,6,"7,12,2,1,11,6,5,4,10,14,9,8,3,13,15"
14084,commdev-image-keyboard-response,276,642458,learnblock1,654.5,img/planet2_left.png,2,Community 1,NA,TRUE,f,f,NA,NA,NA,NA,6,"7,12,2,1,11,6,5,4,10,14,9,8,3,13,15"
14084,commdev-image-keyboard-response,277,643718,learnblock1,565.2999999523163,img/planet12_left.png,12,Community 1,NA,TRUE,f,f,NA,NA,NA,NA,6,"7,12,2,1,11,6,5,4,10,14,9,8,3,13,15"
14084,commdev-image-keyboard-response,278,644972,learnblock1,null,img/planet11_left.png,11,Community 1,NA,FALSE,null,f,NA,NA,NA,NA,6,"7,12,2,1,11,6,5,4,10,14,9,8,3,13,15"
14084,commdev-image-keyboard-response,279,646227,learnblock1,508.7000000476837,img/planet7_left.png,7,Community 1,NA,TRUE,f,f,NA,NA,NA,NA,6,"7,12,2,1,11,6,5,4,10,14,9,8,3,13,15"
14084,commdev-image-keyboard-response,280,647479,learnblock1,598.7999999523163,img/planet12_left.png,12,Community 1,NA,TRUE,f,f,NA,NA,NA,NA,6,"7,12,2,1,11,6,5,4,10,14,9,8,3,13,15"
14084,commdev-image-keyboard-response,281,648740,learnblock1,677.5,img/planet7_right.png,7,Community 1,NA,FALSE,f,j,NA,NA,NA,NA,6,"7,12,2,1,11,6,5,4,10,14,9,8,3,13,15"
14084,commdev-image-keyboard-response,282,650000,learnblock1,813.4000000953674,img/planet2_left.png,2,Community 1,NA,TRUE,f,f,NA,NA,NA,NA,6,"7,12,2,1,11,6,5,4,10,14,9,8,3,13,15"
14084,commdev-image-keyboard-response,283,651259,learnblock1,733.6000000238419,img/planet12_left.png,12,Community 1,NA,TRUE,f,f,NA,NA,NA,NA,6,"7,12,2,1,11,6,5,4,10,14,9,8,3,13,15"
14084,commdev-image-keyboard-response,284,652514,learnblock1,655.5,img/planet7_left.png,7,Community 1,NA,TRUE,f,f,NA,NA,NA,NA,6,"7,12,2,1,11,6,5,4,10,14,9,8,3,13,15"
14084,commdev-image-keyboard-response,285,653774,learnblock1,null,img/planet11_right.png,11,Community 1,NA,FALSE,null,j,NA,NA,NA,NA,6,"7,12,2,1,11,6,5,4,10,14,9,8,3,13,15"
14084,commdev-image-keyboard-response,286,655028,learnblock1,716.1999999284744,img/planet2_left.png,2,Community 1,NA,TRUE,f,f,NA,NA,NA,NA,6,"7,12,2,1,11,6,5,4,10,14,9,8,3,13,15"
14084,commdev-image-keyboard-response,287,656283,learnblock1,null,img/planet7_right.png,7,Community 1,NA,FALSE,null,j,NA,NA,NA,NA,6,"7,12,2,1,11,6,5,4,10,14,9,8,3,13,15"
14084,commdev-image-keyboard-response,288,657542,learnblock1,733.0999999046326,img/planet11_right.png,11,Community 1,NA,FALSE,f,j,NA,NA,NA,NA,6,"7,12,2,1,11,6,5,4,10,14,9,8,3,13,15"
14084,commdev-image-keyboard-response,289,658795,learnblock1,669.7000000476837,img/planet7_left.png,7,Community 1,NA,TRUE,f,f,NA,NA,NA,NA,6,"7,12,2,1,11,6,5,4,10,14,9,8,3,13,15"
14084,commdev-image-keyboard-response,290,660058,learnblock1,null,img/planet2_right.png,2,Community 1,NA,FALSE,null,j,NA,NA,NA,NA,6,"7,12,2,1,11,6,5,4,10,14,9,8,3,13,15"
14084,commdev-image-keyboard-response,291,661312,learnblock1,null,img/planet7_right.png,7,Community 1,NA,FALSE,null,j,NA,NA,NA,NA,6,"7,12,2,1,11,6,5,4,10,14,9,8,3,13,15"
14084,commdev-image-keyboard-response,292,662575,learnblock1,649.6999999284744,img/planet1_left.png,1,Community 1,NA,TRUE,f,f,NA,NA,NA,NA,6,"7,12,2,1,11,6,5,4,10,14,9,8,3,13,15"
14084,commdev-image-keyboard-response,293,663833,learnblock1,695.5,img/planet12_left.png,12,Community 1,NA,TRUE,f,f,NA,NA,NA,NA,6,"7,12,2,1,11,6,5,4,10,14,9,8,3,13,15"
14084,commdev-image-keyboard-response,294,665086,learnblock1,null,img/planet11_right.png,11,Community 1,NA,FALSE,null,j,NA,NA,NA,NA,6,"7,12,2,1,11,6,5,4,10,14,9,8,3,13,15"
14084,commdev-image-keyboard-response,295,666342,learnblock1,586.2999999523163,img/planet2_left.png,2,Community 1,NA,TRUE,f,f,NA,NA,NA,NA,6,"7,12,2,1,11,6,5,4,10,14,9,8,3,13,15"
14084,commdev-image-keyboard-response,296,667600,learnblock1,630.9000000953674,img/planet12_left.png,12,Community 1,NA,TRUE,f,f,NA,NA,NA,NA,6,"7,12,2,1,11,6,5,4,10,14,9,8,3,13,15"
14084,commdev-image-keyboard-response,297,668856,learnblock1,603.5,img/planet7_left.png,7,Community 1,NA,TRUE,f,f,NA,NA,NA,NA,6,"7,12,2,1,11,6,5,4,10,14,9,8,3,13,15"
14084,commdev-image-keyboard-response,298,670122,learnblock1,null,img/planet1_right.png,1,Community 1,NA,FALSE,null,j,NA,NA,NA,NA,6,"7,12,2,1,11,6,5,4,10,14,9,8,3,13,15"
14084,commdev-image-keyboard-response,299,671376,learnblock1,null,img/planet6_right.png,6,Community 2,NA,FALSE,null,j,NA,NA,NA,NA,6,"7,12,2,1,11,6,5,4,10,14,9,8,3,13,15"
14084,commdev-image-keyboard-response,300,672629,learnblock1,548.8000000715256,img/planet1_left.png,1,Community 1,NA,TRUE,f,f,NA,NA,NA,NA,6,"7,12,2,1,11,6,5,4,10,14,9,8,3,13,15"
14084,commdev-image-keyboard-response,301,673883,learnblock1,null,img/planet2_right.png,2,Community 1,NA,FALSE,null,j,NA,NA,NA,NA,6,"7,12,2,1,11,6,5,4,10,14,9,8,3,13,15"
14084,commdev-image-keyboard-response,302,675137,learnblock1,null,img/planet1_right.png,1,Community 1,NA,FALSE,null,j,NA,NA,NA,NA,6,"7,12,2,1,11,6,5,4,10,14,9,8,3,13,15"
14084,commdev-image-keyboard-response,303,676405,learnblock1,null,img/planet12_right.png,12,Community 1,NA,FALSE,null,j,NA,NA,NA,NA,6,"7,12,2,1,11,6,5,4,10,14,9,8,3,13,15"
14084,commdev-image-keyboard-response,304,677658,learnblock1,null,img/planet11_right.png,11,Community 1,NA,FALSE,null,j,NA,NA,NA,NA,6,"7,12,2,1,11,6,5,4,10,14,9,8,3,13,15"
14084,commdev-image-keyboard-response,305,678924,learnblock1,570.9000000953674,img/planet9_left.png,9,Community 3,NA,TRUE,f,f,NA,NA,NA,NA,6,"7,12,2,1,11,6,5,4,10,14,9,8,3,13,15"
14084,commdev-image-keyboard-response,306,680181,learnblock1,705.5,img/planet3_left.png,3,Community 3,NA,TRUE,f,f,NA,NA,NA,NA,6,"7,12,2,1,11,6,5,4,10,14,9,8,3,13,15"
14084,commdev-image-keyboard-response,307,681441,learnblock1,659.7000000476837,img/planet15_left.png,15,Community 3,NA,TRUE,f,f,NA,NA,NA,NA,6,"7,12,2,1,11,6,5,4,10,14,9,8,3,13,15"
14084,commdev-image-keyboard-response,308,682701,learnblock1,611.2000000476837,img/planet13_left.png,13,Community 3,NA,TRUE,f,f,NA,NA,NA,NA,6,"7,12,2,1,11,6,5,4,10,14,9,8,3,13,15"
14084,commdev-image-keyboard-response,309,683960,learnblock1,null,img/planet3_right.png,3,Community 3,NA,FALSE,null,j,NA,NA,NA,NA,6,"7,12,2,1,11,6,5,4,10,14,9,8,3,13,15"
14084,commdev-image-keyboard-response,310,685213,learnblock1,null,img/planet9_right.png,9,Community 3,NA,FALSE,null,j,NA,NA,NA,NA,6,"7,12,2,1,11,6,5,4,10,14,9,8,3,13,15"
14084,commdev-image-keyboard-response,311,686481,learnblock1,611.1000000238419,img/planet15_left.png,15,Community 3,NA,TRUE,f,f,NA,NA,NA,NA,6,"7,12,2,1,11,6,5,4,10,14,9,8,3,13,15"
14084,commdev-image-keyboard-response,312,687736,learnblock1,null,img/planet8_right.png,8,Community 3,NA,FALSE,null,j,NA,NA,NA,NA,6,"7,12,2,1,11,6,5,4,10,14,9,8,3,13,15"
14084,commdev-image-keyboard-response,313,688995,learnblock1,914.3999999761581,img/planet3_left.png,3,Community 3,NA,TRUE,f,f,NA,NA,NA,NA,6,"7,12,2,1,11,6,5,4,10,14,9,8,3,13,15"
14084,commdev-image-keyboard-response,314,690249,learnblock1,703.6000000238419,img/planet8_left.png,8,Community 3,NA,TRUE,f,f,NA,NA,NA,NA,6,"7,12,2,1,11,6,5,4,10,14,9,8,3,13,15"
14084,commdev-image-keyboard-response,315,691505,learnblock1,487.39999997615814,img/planet4_left.png,4,Community 2,NA,TRUE,f,f,NA,NA,NA,NA,6,"7,12,2,1,11,6,5,4,10,14,9,8,3,13,15"
14084,commdev-image-keyboard-response,316,692759,learnblock1,null,img/planet5_right.png,5,Community 2,NA,FALSE,null,j,NA,NA,NA,NA,6,"7,12,2,1,11,6,5,4,10,14,9,8,3,13,15"
14084,commdev-image-keyboard-response,317,694019,learnblock1,719,img/planet6_left.png,6,Community 2,NA,TRUE,f,f,NA,NA,NA,NA,6,"7,12,2,1,11,6,5,4,10,14,9,8,3,13,15"
14084,commdev-image-keyboard-response,318,695278,learnblock1,634.7000000476837,img/planet1_left.png,1,Community 1,NA,TRUE,f,f,NA,NA,NA,NA,6,"7,12,2,1,11,6,5,4,10,14,9,8,3,13,15"
14084,commdev-image-keyboard-response,319,696538,learnblock1,null,img/planet12_right.png,12,Community 1,NA,FALSE,null,j,NA,NA,NA,NA,6,"7,12,2,1,11,6,5,4,10,14,9,8,3,13,15"
14084,commdev-image-keyboard-response,320,697799,learnblock1,697.5,img/planet1_left.png,1,Community 1,NA,TRUE,f,f,NA,NA,NA,NA,6,"7,12,2,1,11,6,5,4,10,14,9,8,3,13,15"
14084,commdev-image-keyboard-response,321,699051,learnblock1,null,img/planet6_right.png,6,Community 2,NA,FALSE,null,j,NA,NA,NA,NA,6,"7,12,2,1,11,6,5,4,10,14,9,8,3,13,15"
14084,commdev-image-keyboard-response,322,700309,learnblock1,null,img/planet1_right.png,1,Community 1,NA,FALSE,null,j,NA,NA,NA,NA,6,"7,12,2,1,11,6,5,4,10,14,9,8,3,13,15"
14084,commdev-image-keyboard-response,323,701563,learnblock1,null,img/planet7_right.png,7,Community 1,NA,FALSE,null,j,NA,NA,NA,NA,6,"7,12,2,1,11,6,5,4,10,14,9,8,3,13,15"
14084,commdev-image-keyboard-response,324,702822,learnblock1,564.2999999523163,img/planet2_left.png,2,Community 1,NA,TRUE,f,f,NA,NA,NA,NA,6,"7,12,2,1,11,6,5,4,10,14,9,8,3,13,15"
14084,commdev-image-keyboard-response,325,704083,learnblock1,812.5,img/planet7_left.png,7,Community 1,NA,TRUE,f,f,NA,NA,NA,NA,6,"7,12,2,1,11,6,5,4,10,14,9,8,3,13,15"
14084,commdev-image-keyboard-response,326,705342,learnblock1,null,img/planet11_right.png,11,Community 1,NA,FALSE,null,j,NA,NA,NA,NA,6,"7,12,2,1,11,6,5,4,10,14,9,8,3,13,15"
14084,commdev-image-keyboard-response,327,706597,learnblock1,null,img/planet2_right.png,2,Community 1,NA,FALSE,null,j,NA,NA,NA,NA,6,"7,12,2,1,11,6,5,4,10,14,9,8,3,13,15"
14084,commdev-image-keyboard-response,328,707855,learnblock1,null,img/planet1_right.png,1,Community 1,NA,FALSE,null,j,NA,NA,NA,NA,6,"7,12,2,1,11,6,5,4,10,14,9,8,3,13,15"
14084,commdev-image-keyboard-response,329,709115,learnblock1,null,img/planet12_right.png,12,Community 1,NA,FALSE,null,j,NA,NA,NA,NA,6,"7,12,2,1,11,6,5,4,10,14,9,8,3,13,15"
14084,commdev-image-keyboard-response,330,710374,learnblock1,null,img/planet1_right.png,1,Community 1,NA,FALSE,null,j,NA,NA,NA,NA,6,"7,12,2,1,11,6,5,4,10,14,9,8,3,13,15"
14084,commdev-image-keyboard-response,331,711635,learnblock1,492.7999999523163,img/planet7_left.png,7,Community 1,NA,TRUE,f,f,NA,NA,NA,NA,6,"7,12,2,1,11,6,5,4,10,14,9,8,3,13,15"
14084,commdev-image-keyboard-response,332,712889,learnblock1,null,img/planet11_right.png,11,Community 1,NA,FALSE,null,j,NA,NA,NA,NA,6,"7,12,2,1,11,6,5,4,10,14,9,8,3,13,15"
14084,commdev-image-keyboard-response,333,714156,learnblock1,null,img/planet12_right.png,12,Community 1,NA,FALSE,null,j,NA,NA,NA,NA,6,"7,12,2,1,11,6,5,4,10,14,9,8,3,13,15"
14084,commdev-image-keyboard-response,334,715410,learnblock1,null,img/planet2_right.png,2,Community 1,NA,FALSE,null,j,NA,NA,NA,NA,6,"7,12,2,1,11,6,5,4,10,14,9,8,3,13,15"
14084,commdev-image-keyboard-response,335,716668,learnblock1,null,img/planet12_right.png,12,Community 1,NA,FALSE,null,j,NA,NA,NA,NA,6,"7,12,2,1,11,6,5,4,10,14,9,8,3,13,15"
14084,commdev-image-keyboard-response,336,717926,learnblock1,392.8000000715256,img/planet11_left.png,11,Community 1,NA,TRUE,f,f,NA,NA,NA,NA,6,"7,12,2,1,11,6,5,4,10,14,9,8,3,13,15"
14084,commdev-image-keyboard-response,337,719184,learnblock1,621.8999999761581,img/planet9_left.png,9,Community 3,NA,TRUE,f,f,NA,NA,NA,NA,6,"7,12,2,1,11,6,5,4,10,14,9,8,3,13,15"
14084,commdev-image-keyboard-response,338,720443,learnblock1,null,img/planet13_right.png,13,Community 3,NA,FALSE,null,j,NA,NA,NA,NA,6,"7,12,2,1,11,6,5,4,10,14,9,8,3,13,15"
14084,commdev-image-keyboard-response,339,721706,learnblock1,null,img/planet9_right.png,9,Community 3,NA,FALSE,null,j,NA,NA,NA,NA,6,"7,12,2,1,11,6,5,4,10,14,9,8,3,13,15"
14084,commdev-image-keyboard-response,340,722972,learnblock1,null,img/planet15_left.png,15,Community 3,NA,FALSE,null,f,NA,NA,NA,NA,6,"7,12,2,1,11,6,5,4,10,14,9,8,3,13,15"
14084,commdev-image-keyboard-response,341,724231,learnblock1,null,img/planet13_right.png,13,Community 3,NA,FALSE,null,j,NA,NA,NA,NA,6,"7,12,2,1,11,6,5,4,10,14,9,8,3,13,15"
14084,commdev-image-keyboard-response,342,725487,learnblock1,980.1000000238419,img/planet3_right.png,3,Community 3,NA,FALSE,f,j,NA,NA,NA,NA,6,"7,12,2,1,11,6,5,4,10,14,9,8,3,13,15"
14084,commdev-image-keyboard-response,343,726745,learnblock1,null,img/planet13_right.png,13,Community 3,NA,FALSE,null,j,NA,NA,NA,NA,6,"7,12,2,1,11,6,5,4,10,14,9,8,3,13,15"
14084,commdev-image-keyboard-response,344,727998,learnblock1,null,img/planet15_right.png,15,Community 3,NA,FALSE,null,j,NA,NA,NA,NA,6,"7,12,2,1,11,6,5,4,10,14,9,8,3,13,15"
14084,commdev-image-keyboard-response,345,729258,learnblock1,null,img/planet9_right.png,9,Community 3,NA,FALSE,null,j,NA,NA,NA,NA,6,"7,12,2,1,11,6,5,4,10,14,9,8,3,13,15"
14084,commdev-image-keyboard-response,346,730512,learnblock1,null,img/planet15_left.png,15,Community 3,NA,FALSE,null,f,NA,NA,NA,NA,6,"7,12,2,1,11,6,5,4,10,14,9,8,3,13,15"
14084,commdev-image-keyboard-response,347,731772,learnblock1,null,img/planet13_left.png,13,Community 3,NA,FALSE,null,f,NA,NA,NA,NA,6,"7,12,2,1,11,6,5,4,10,14,9,8,3,13,15"
14084,commdev-image-keyboard-response,348,733024,learnblock1,null,img/planet8_right.png,8,Community 3,NA,FALSE,null,j,NA,NA,NA,NA,6,"7,12,2,1,11,6,5,4,10,14,9,8,3,13,15"
14084,commdev-image-keyboard-response,349,734275,learnblock1,null,img/planet15_right.png,15,Community 3,NA,FALSE,null,j,NA,NA,NA,NA,6,"7,12,2,1,11,6,5,4,10,14,9,8,3,13,15"
14084,commdev-image-keyboard-response,350,735535,learnblock1,495.5,img/planet13_left.png,13,Community 3,NA,TRUE,f,f,NA,NA,NA,NA,6,"7,12,2,1,11,6,5,4,10,14,9,8,3,13,15"
14084,commdev-image-keyboard-response,351,736794,learnblock1,493.10000002384186,img/planet9_left.png,9,Community 3,NA,TRUE,f,f,NA,NA,NA,NA,6,"7,12,2,1,11,6,5,4,10,14,9,8,3,13,15"
14084,commdev-image-keyboard-response,352,738055,learnblock1,null,img/planet3_right.png,3,Community 3,NA,FALSE,null,j,NA,NA,NA,NA,6,"7,12,2,1,11,6,5,4,10,14,9,8,3,13,15"
14084,commdev-image-keyboard-response,353,739313,learnblock1,868.6999999284744,img/planet9_left.png,9,Community 3,NA,TRUE,f,f,NA,NA,NA,NA,6,"7,12,2,1,11,6,5,4,10,14,9,8,3,13,15"
14084,commdev-image-keyboard-response,354,740566,learnblock1,null,img/planet3_right.png,3,Community 3,NA,FALSE,null,j,NA,NA,NA,NA,6,"7,12,2,1,11,6,5,4,10,14,9,8,3,13,15"
14084,commdev-image-keyboard-response,355,741818,learnblock1,767.8999999761581,img/planet13_left.png,13,Community 3,NA,TRUE,f,f,NA,NA,NA,NA,6,"7,12,2,1,11,6,5,4,10,14,9,8,3,13,15"
14084,commdev-image-keyboard-response,356,743077,learnblock1,596.8000000715256,img/planet15_left.png,15,Community 3,NA,TRUE,f,f,NA,NA,NA,NA,6,"7,12,2,1,11,6,5,4,10,14,9,8,3,13,15"
14084,commdev-image-keyboard-response,357,744330,learnblock1,819.2999999523163,img/planet8_left.png,8,Community 3,NA,TRUE,f,f,NA,NA,NA,NA,6,"7,12,2,1,11,6,5,4,10,14,9,8,3,13,15"
14084,commdev-image-keyboard-response,358,745586,learnblock1,570.7000000476837,img/planet13_left.png,13,Community 3,NA,TRUE,f,f,NA,NA,NA,NA,6,"7,12,2,1,11,6,5,4,10,14,9,8,3,13,15"
14084,commdev-image-keyboard-response,359,746839,learnblock1,null,img/planet9_right.png,9,Community 3,NA,FALSE,null,j,NA,NA,NA,NA,6,"7,12,2,1,11,6,5,4,10,14,9,8,3,13,15"
14084,commdev-image-keyboard-response,360,748097,learnblock1,645.1999999284744,img/planet11_left.png,11,Community 1,NA,TRUE,f,f,NA,NA,NA,NA,6,"7,12,2,1,11,6,5,4,10,14,9,8,3,13,15"
14084,commdev-image-keyboard-response,361,749356,learnblock1,918,img/planet9_right.png,9,Community 3,NA,FALSE,f,j,NA,NA,NA,NA,6,"7,12,2,1,11,6,5,4,10,14,9,8,3,13,15"
14084,commdev-image-keyboard-response,362,750614,learnblock1,null,img/planet11_right.png,11,Community 1,NA,FALSE,null,j,NA,NA,NA,NA,6,"7,12,2,1,11,6,5,4,10,14,9,8,3,13,15"
14084,commdev-image-keyboard-response,363,751866,learnblock1,587.2999999523163,img/planet2_left.png,2,Community 1,NA,TRUE,f,f,NA,NA,NA,NA,6,"7,12,2,1,11,6,5,4,10,14,9,8,3,13,15"
14084,commdev-image-keyboard-response,364,753120,learnblock1,null,img/planet11_right.png,11,Community 1,NA,FALSE,null,j,NA,NA,NA,NA,6,"7,12,2,1,11,6,5,4,10,14,9,8,3,13,15"
14084,commdev-image-keyboard-response,365,754373,learnblock1,null,img/planet12_left.png,12,Community 1,NA,FALSE,null,f,NA,NA,NA,NA,6,"7,12,2,1,11,6,5,4,10,14,9,8,3,13,15"
14084,commdev-image-keyboard-response,366,755628,learnblock1,null,img/planet7_right.png,7,Community 1,NA,FALSE,null,j,NA,NA,NA,NA,6,"7,12,2,1,11,6,5,4,10,14,9,8,3,13,15"
14084,commdev-image-keyboard-response,367,756889,learnblock1,null,img/planet12_right.png,12,Community 1,NA,FALSE,null,j,NA,NA,NA,NA,6,"7,12,2,1,11,6,5,4,10,14,9,8,3,13,15"
14084,commdev-image-keyboard-response,368,758150,learnblock1,425,img/planet11_left.png,11,Community 1,NA,TRUE,f,f,NA,NA,NA,NA,6,"7,12,2,1,11,6,5,4,10,14,9,8,3,13,15"
14084,commdev-image-keyboard-response,369,759402,learnblock1,null,img/planet7_right.png,7,Community 1,NA,FALSE,null,j,NA,NA,NA,NA,6,"7,12,2,1,11,6,5,4,10,14,9,8,3,13,15"
14084,commdev-image-keyboard-response,370,760655,learnblock1,532.4000000953674,img/planet1_left.png,1,Community 1,NA,TRUE,f,f,NA,NA,NA,NA,6,"7,12,2,1,11,6,5,4,10,14,9,8,3,13,15"
14084,commdev-image-keyboard-response,371,761914,learnblock1,null,img/planet6_right.png,6,Community 2,NA,FALSE,null,j,NA,NA,NA,NA,6,"7,12,2,1,11,6,5,4,10,14,9,8,3,13,15"
14084,commdev-image-keyboard-response,372,763171,learnblock1,null,img/planet5_right.png,5,Community 2,NA,FALSE,null,j,NA,NA,NA,NA,6,"7,12,2,1,11,6,5,4,10,14,9,8,3,13,15"
14084,commdev-image-keyboard-response,373,764431,learnblock1,540.2999999523163,img/planet14_left.png,14,Community 2,NA,TRUE,f,f,NA,NA,NA,NA,6,"7,12,2,1,11,6,5,4,10,14,9,8,3,13,15"
14084,commdev-image-keyboard-response,374,765687,learnblock1,null,img/planet4_right.png,4,Community 2,NA,FALSE,null,j,NA,NA,NA,NA,6,"7,12,2,1,11,6,5,4,10,14,9,8,3,13,15"
14084,commdev-image-keyboard-response,375,766941,learnblock1,null,img/planet8_right.png,8,Community 3,NA,FALSE,null,j,NA,NA,NA,NA,6,"7,12,2,1,11,6,5,4,10,14,9,8,3,13,15"
14084,commdev-image-keyboard-response,376,768209,learnblock1,617.6000000238419,img/planet3_left.png,3,Community 3,NA,TRUE,f,f,NA,NA,NA,NA,6,"7,12,2,1,11,6,5,4,10,14,9,8,3,13,15"
14084,commdev-image-keyboard-response,377,769476,learnblock1,null,img/planet9_right.png,9,Community 3,NA,FALSE,null,j,NA,NA,NA,NA,6,"7,12,2,1,11,6,5,4,10,14,9,8,3,13,15"
14084,commdev-image-keyboard-response,378,770735,learnblock1,629.3999999761581,img/planet15_right.png,15,Community 3,NA,FALSE,f,j,NA,NA,NA,NA,6,"7,12,2,1,11,6,5,4,10,14,9,8,3,13,15"
14084,commdev-image-keyboard-response,379,771999,learnblock1,null,img/planet8_right.png,8,Community 3,NA,FALSE,null,j,NA,NA,NA,NA,6,"7,12,2,1,11,6,5,4,10,14,9,8,3,13,15"
14084,commdev-image-keyboard-response,380,773252,learnblock1,588.7999999523163,img/planet4_left.png,4,Community 2,NA,TRUE,f,f,NA,NA,NA,NA,6,"7,12,2,1,11,6,5,4,10,14,9,8,3,13,15"
14084,commdev-image-keyboard-response,381,774508,learnblock1,810.3999999761581,img/planet8_left.png,8,Community 3,NA,TRUE,f,f,NA,NA,NA,NA,6,"7,12,2,1,11,6,5,4,10,14,9,8,3,13,15"
14084,commdev-image-keyboard-response,382,775761,learnblock1,577.1000000238419,img/planet13_left.png,13,Community 3,NA,TRUE,f,f,NA,NA,NA,NA,6,"7,12,2,1,11,6,5,4,10,14,9,8,3,13,15"
14084,commdev-image-keyboard-response,383,777024,learnblock1,618.8000000715256,img/planet3_left.png,3,Community 3,NA,TRUE,f,f,NA,NA,NA,NA,6,"7,12,2,1,11,6,5,4,10,14,9,8,3,13,15"
14084,commdev-image-keyboard-response,384,778279,learnblock1,481.40000009536743,img/planet15_left.png,15,Community 3,NA,TRUE,f,f,NA,NA,NA,NA,6,"7,12,2,1,11,6,5,4,10,14,9,8,3,13,15"
14084,commdev-image-keyboard-response,385,779530,learnblock1,null,img/planet9_right.png,9,Community 3,NA,FALSE,null,j,NA,NA,NA,NA,6,"7,12,2,1,11,6,5,4,10,14,9,8,3,13,15"
14084,commdev-image-keyboard-response,386,780787,learnblock1,631.3999999761581,img/planet15_right.png,15,Community 3,NA,FALSE,f,j,NA,NA,NA,NA,6,"7,12,2,1,11,6,5,4,10,14,9,8,3,13,15"
14084,commdev-image-keyboard-response,387,782045,learnblock1,null,img/planet9_right.png,9,Community 3,NA,FALSE,null,j,NA,NA,NA,NA,6,"7,12,2,1,11,6,5,4,10,14,9,8,3,13,15"
14084,commdev-image-keyboard-response,388,783297,learnblock1,677.3999999761581,img/planet15_left.png,15,Community 3,NA,TRUE,f,f,NA,NA,NA,NA,6,"7,12,2,1,11,6,5,4,10,14,9,8,3,13,15"
14084,commdev-image-keyboard-response,389,784557,learnblock1,692.3000000715256,img/planet13_right.png,13,Community 3,NA,FALSE,f,j,NA,NA,NA,NA,6,"7,12,2,1,11,6,5,4,10,14,9,8,3,13,15"
14084,commdev-image-keyboard-response,390,785812,learnblock1,null,img/planet9_right.png,9,Community 3,NA,FALSE,null,j,NA,NA,NA,NA,6,"7,12,2,1,11,6,5,4,10,14,9,8,3,13,15"
14084,commdev-image-keyboard-response,391,787066,learnblock1,null,img/planet13_right.png,13,Community 3,NA,FALSE,null,j,NA,NA,NA,NA,6,"7,12,2,1,11,6,5,4,10,14,9,8,3,13,15"
14084,commdev-image-keyboard-response,392,788324,learnblock1,null,img/planet9_right.png,9,Community 3,NA,FALSE,null,j,NA,NA,NA,NA,6,"7,12,2,1,11,6,5,4,10,14,9,8,3,13,15"
14084,commdev-image-keyboard-response,393,789579,learnblock1,495.2999999523163,img/planet15_left.png,15,Community 3,NA,TRUE,f,f,NA,NA,NA,NA,6,"7,12,2,1,11,6,5,4,10,14,9,8,3,13,15"
14084,commdev-image-keyboard-response,394,790835,learnblock1,null,img/planet3_right.png,3,Community 3,NA,FALSE,null,j,NA,NA,NA,NA,6,"7,12,2,1,11,6,5,4,10,14,9,8,3,13,15"
14084,commdev-image-keyboard-response,395,792091,learnblock1,null,img/planet13_right.png,13,Community 3,NA,FALSE,null,j,NA,NA,NA,NA,6,"7,12,2,1,11,6,5,4,10,14,9,8,3,13,15"
14084,commdev-image-keyboard-response,396,793348,learnblock1,576.5,img/planet9_left.png,9,Community 3,NA,TRUE,f,f,NA,NA,NA,NA,6,"7,12,2,1,11,6,5,4,10,14,9,8,3,13,15"
14084,commdev-image-keyboard-response,397,794609,learnblock1,575.5,img/planet13_right.png,13,Community 3,NA,FALSE,f,j,NA,NA,NA,NA,6,"7,12,2,1,11,6,5,4,10,14,9,8,3,13,15"
14084,commdev-image-keyboard-response,398,795861,learnblock1,null,img/planet9_left.png,9,Community 3,NA,FALSE,null,f,NA,NA,NA,NA,6,"7,12,2,1,11,6,5,4,10,14,9,8,3,13,15"
14084,commdev-image-keyboard-response,399,797115,learnblock1,624.6000000238419,img/planet15_left.png,15,Community 3,NA,TRUE,f,f,NA,NA,NA,NA,6,"7,12,2,1,11,6,5,4,10,14,9,8,3,13,15"
14084,commdev-image-keyboard-response,400,798367,learnblock1,590.3999999761581,img/planet9_left.png,9,Community 3,NA,TRUE,f,f,NA,NA,NA,NA,6,"7,12,2,1,11,6,5,4,10,14,9,8,3,13,15"
14084,commdev-image-keyboard-response,401,799623,learnblock1,640.2000000476837,img/planet3_left.png,3,Community 3,NA,TRUE,f,f,NA,NA,NA,NA,6,"7,12,2,1,11,6,5,4,10,14,9,8,3,13,15"
14084,commdev-image-keyboard-response,402,800875,learnblock1,null,img/planet13_right.png,13,Community 3,NA,FALSE,null,j,NA,NA,NA,NA,6,"7,12,2,1,11,6,5,4,10,14,9,8,3,13,15"
14084,commdev-image-keyboard-response,403,802131,learnblock1,null,img/planet9_right.png,9,Community 3,NA,FALSE,null,j,NA,NA,NA,NA,6,"7,12,2,1,11,6,5,4,10,14,9,8,3,13,15"
14084,commdev-image-keyboard-response,404,803391,learnblock1,567.6000000238419,img/planet15_left.png,15,Community 3,NA,TRUE,f,f,NA,NA,NA,NA,6,"7,12,2,1,11,6,5,4,10,14,9,8,3,13,15"
14084,commdev-image-keyboard-response,405,804647,learnblock1,null,img/planet9_right.png,9,Community 3,NA,FALSE,null,j,NA,NA,NA,NA,6,"7,12,2,1,11,6,5,4,10,14,9,8,3,13,15"
14084,commdev-image-keyboard-response,406,805899,learnblock1,597.6000000238419,img/planet11_left.png,11,Community 1,NA,TRUE,f,f,NA,NA,NA,NA,6,"7,12,2,1,11,6,5,4,10,14,9,8,3,13,15"
14084,commdev-image-keyboard-response,407,807156,learnblock1,null,img/planet2_left.png,2,Community 1,NA,FALSE,null,f,NA,NA,NA,NA,6,"7,12,2,1,11,6,5,4,10,14,9,8,3,13,15"
14084,commdev-image-keyboard-response,408,808410,learnblock1,null,img/planet7_right.png,7,Community 1,NA,FALSE,null,j,NA,NA,NA,NA,6,"7,12,2,1,11,6,5,4,10,14,9,8,3,13,15"
14084,commdev-image-keyboard-response,409,809662,learnblock1,882.3999999761581,img/planet1_left.png,1,Community 1,NA,TRUE,f,f,NA,NA,NA,NA,6,"7,12,2,1,11,6,5,4,10,14,9,8,3,13,15"
14084,commdev-image-keyboard-response,410,810923,learnblock1,814.6999999284744,img/planet2_left.png,2,Community 1,NA,TRUE,f,f,NA,NA,NA,NA,6,"7,12,2,1,11,6,5,4,10,14,9,8,3,13,15"
14084,commdev-image-keyboard-response,411,812178,learnblock1,null,img/planet12_right.png,12,Community 1,NA,FALSE,null,j,NA,NA,NA,NA,6,"7,12,2,1,11,6,5,4,10,14,9,8,3,13,15"
14084,commdev-image-keyboard-response,412,813439,learnblock1,null,img/planet2_right.png,2,Community 1,NA,FALSE,null,j,NA,NA,NA,NA,6,"7,12,2,1,11,6,5,4,10,14,9,8,3,13,15"
14084,commdev-image-keyboard-response,413,814696,learnblock1,null,img/planet1_right.png,1,Community 1,NA,FALSE,null,j,NA,NA,NA,NA,6,"7,12,2,1,11,6,5,4,10,14,9,8,3,13,15"
14084,commdev-image-keyboard-response,414,815952,learnblock1,655.0999999046326,img/planet12_left.png,12,Community 1,NA,TRUE,f,f,NA,NA,NA,NA,6,"7,12,2,1,11,6,5,4,10,14,9,8,3,13,15"
14084,commdev-image-keyboard-response,415,817205,learnblock1,null,img/planet2_right.png,2,Community 1,NA,FALSE,null,j,NA,NA,NA,NA,6,"7,12,2,1,11,6,5,4,10,14,9,8,3,13,15"
14084,commdev-image-keyboard-response,416,818462,learnblock1,null,img/planet12_right.png,12,Community 1,NA,FALSE,null,j,NA,NA,NA,NA,6,"7,12,2,1,11,6,5,4,10,14,9,8,3,13,15"
14084,commdev-image-keyboard-response,417,819718,learnblock1,540.7999999523163,img/planet11_left.png,11,Community 1,NA,TRUE,f,f,NA,NA,NA,NA,6,"7,12,2,1,11,6,5,4,10,14,9,8,3,13,15"
14084,commdev-image-keyboard-response,418,820971,learnblock1,675.1999999284744,img/planet2_left.png,2,Community 1,NA,TRUE,f,f,NA,NA,NA,NA,6,"7,12,2,1,11,6,5,4,10,14,9,8,3,13,15"
14084,commdev-image-keyboard-response,419,822229,learnblock1,577.7000000476837,img/planet11_left.png,11,Community 1,NA,TRUE,f,f,NA,NA,NA,NA,6,"7,12,2,1,11,6,5,4,10,14,9,8,3,13,15"
14084,commdev-image-keyboard-response,420,823484,learnblock1,null,img/planet2_right.png,2,Community 1,NA,FALSE,null,j,NA,NA,NA,NA,6,"7,12,2,1,11,6,5,4,10,14,9,8,3,13,15"
14084,commdev-image-keyboard-response,421,824739,learnblock1,null,img/planet11_right.png,11,Community 1,NA,FALSE,null,j,NA,NA,NA,NA,6,"7,12,2,1,11,6,5,4,10,14,9,8,3,13,15"
14084,commdev-image-keyboard-response,422,825995,learnblock1,null,img/planet9_right.png,9,Community 3,NA,FALSE,null,j,NA,NA,NA,NA,6,"7,12,2,1,11,6,5,4,10,14,9,8,3,13,15"
14084,commdev-image-keyboard-response,423,827256,learnblock1,null,img/planet11_left.png,11,Community 1,NA,FALSE,null,f,NA,NA,NA,NA,6,"7,12,2,1,11,6,5,4,10,14,9,8,3,13,15"
14084,commdev-image-keyboard-response,424,828508,learnblock1,null,img/planet2_left.png,2,Community 1,NA,FALSE,null,f,NA,NA,NA,NA,6,"7,12,2,1,11,6,5,4,10,14,9,8,3,13,15"
14084,commdev-image-keyboard-response,425,829763,learnblock1,null,img/planet12_right.png,12,Community 1,NA,FALSE,null,j,NA,NA,NA,NA,6,"7,12,2,1,11,6,5,4,10,14,9,8,3,13,15"
14084,commdev-image-keyboard-response,426,831019,learnblock1,475.10000002384186,img/planet1_left.png,1,Community 1,NA,TRUE,f,f,NA,NA,NA,NA,6,"7,12,2,1,11,6,5,4,10,14,9,8,3,13,15"
14084,commdev-image-keyboard-response,427,832277,learnblock1,null,img/planet12_right.png,12,Community 1,NA,FALSE,null,j,NA,NA,NA,NA,6,"7,12,2,1,11,6,5,4,10,14,9,8,3,13,15"
14084,commdev-image-keyboard-response,428,833530,learnblock1,null,img/planet11_right.png,11,Community 1,NA,FALSE,null,j,NA,NA,NA,NA,6,"7,12,2,1,11,6,5,4,10,14,9,8,3,13,15"
14084,commdev-image-keyboard-response,429,834785,learnblock1,null,img/planet7_right.png,7,Community 1,NA,FALSE,null,j,NA,NA,NA,NA,6,"7,12,2,1,11,6,5,4,10,14,9,8,3,13,15"
14084,commdev-image-keyboard-response,430,836037,learnblock1,null,img/planet1_right.png,1,Community 1,NA,FALSE,null,j,NA,NA,NA,NA,6,"7,12,2,1,11,6,5,4,10,14,9,8,3,13,15"
14084,commdev-image-keyboard-response,431,837293,learnblock1,null,img/planet6_right.png,6,Community 2,NA,FALSE,null,j,NA,NA,NA,NA,6,"7,12,2,1,11,6,5,4,10,14,9,8,3,13,15"
14084,commdev-image-keyboard-response,432,838549,learnblock1,624.7999999523163,img/planet1_left.png,1,Community 1,NA,TRUE,f,f,NA,NA,NA,NA,6,"7,12,2,1,11,6,5,4,10,14,9,8,3,13,15"
14084,commdev-image-keyboard-response,433,839807,learnblock1,null,img/planet12_right.png,12,Community 1,NA,FALSE,null,j,NA,NA,NA,NA,6,"7,12,2,1,11,6,5,4,10,14,9,8,3,13,15"
14084,commdev-image-keyboard-response,434,841072,learnblock1,null,img/planet11_right.png,11,Community 1,NA,FALSE,null,j,NA,NA,NA,NA,6,"7,12,2,1,11,6,5,4,10,14,9,8,3,13,15"
14084,commdev-image-keyboard-response,435,842333,learnblock1,null,img/planet9_right.png,9,Community 3,NA,FALSE,null,j,NA,NA,NA,NA,6,"7,12,2,1,11,6,5,4,10,14,9,8,3,13,15"
14084,commdev-image-keyboard-response,436,843591,learnblock1,587.6000000238419,img/planet15_left.png,15,Community 3,NA,TRUE,f,f,NA,NA,NA,NA,6,"7,12,2,1,11,6,5,4,10,14,9,8,3,13,15"
14084,commdev-image-keyboard-response,437,844857,learnblock1,null,img/planet9_right.png,9,Community 3,NA,FALSE,null,j,NA,NA,NA,NA,6,"7,12,2,1,11,6,5,4,10,14,9,8,3,13,15"
14084,commdev-image-keyboard-response,438,846116,learnblock1,null,img/planet3_right.png,3,Community 3,NA,FALSE,null,j,NA,NA,NA,NA,6,"7,12,2,1,11,6,5,4,10,14,9,8,3,13,15"
14084,commdev-image-keyboard-response,439,847374,learnblock1,null,img/planet13_left.png,13,Community 3,NA,FALSE,null,f,NA,NA,NA,NA,6,"7,12,2,1,11,6,5,4,10,14,9,8,3,13,15"
14084,commdev-image-keyboard-response,440,848633,learnblock1,629.2000000476837,img/planet9_left.png,9,Community 3,NA,TRUE,f,f,NA,NA,NA,NA,6,"7,12,2,1,11,6,5,4,10,14,9,8,3,13,15"
14084,commdev-image-keyboard-response,441,849888,learnblock1,526.6999999284744,img/planet13_left.png,13,Community 3,NA,TRUE,f,f,NA,NA,NA,NA,6,"7,12,2,1,11,6,5,4,10,14,9,8,3,13,15"
14084,commdev-image-keyboard-response,442,851148,learnblock1,655.8999999761581,img/planet8_left.png,8,Community 3,NA,TRUE,f,f,NA,NA,NA,NA,6,"7,12,2,1,11,6,5,4,10,14,9,8,3,13,15"
14084,commdev-image-keyboard-response,443,852409,learnblock1,581.5,img/planet4_left.png,4,Community 2,NA,TRUE,f,f,NA,NA,NA,NA,6,"7,12,2,1,11,6,5,4,10,14,9,8,3,13,15"
14084,commdev-image-keyboard-response,444,853664,learnblock1,null,img/planet5_right.png,5,Community 2,NA,FALSE,null,j,NA,NA,NA,NA,6,"7,12,2,1,11,6,5,4,10,14,9,8,3,13,15"
14084,commdev-image-keyboard-response,445,854922,learnblock1,null,img/planet10_right.png,10,Community 2,NA,FALSE,null,j,NA,NA,NA,NA,6,"7,12,2,1,11,6,5,4,10,14,9,8,3,13,15"
14084,commdev-image-keyboard-response,446,856191,learnblock1,645.2999999523163,img/planet4_left.png,4,Community 2,NA,TRUE,f,f,NA,NA,NA,NA,6,"7,12,2,1,11,6,5,4,10,14,9,8,3,13,15"
14084,commdev-image-keyboard-response,447,857445,learnblock1,null,img/planet14_right.png,14,Community 2,NA,FALSE,null,j,NA,NA,NA,NA,6,"7,12,2,1,11,6,5,4,10,14,9,8,3,13,15"
14084,commdev-image-keyboard-response,448,858700,learnblock1,null,img/planet5_right.png,5,Community 2,NA,FALSE,null,j,NA,NA,NA,NA,6,"7,12,2,1,11,6,5,4,10,14,9,8,3,13,15"
14084,commdev-image-keyboard-response,449,859954,learnblock1,780.3999999761581,img/planet14_left.png,14,Community 2,NA,TRUE,f,f,NA,NA,NA,NA,6,"7,12,2,1,11,6,5,4,10,14,9,8,3,13,15"
14084,commdev-image-keyboard-response,450,861210,learnblock1,null,img/planet6_right.png,6,Community 2,NA,FALSE,null,j,NA,NA,NA,NA,6,"7,12,2,1,11,6,5,4,10,14,9,8,3,13,15"
14084,commdev-image-keyboard-response,451,862470,learnblock1,null,img/planet14_right.png,14,Community 2,NA,FALSE,null,j,NA,NA,NA,NA,6,"7,12,2,1,11,6,5,4,10,14,9,8,3,13,15"
14084,commdev-image-keyboard-response,452,863728,learnblock1,502.10000002384186,img/planet10_left.png,10,Community 2,NA,TRUE,f,f,NA,NA,NA,NA,6,"7,12,2,1,11,6,5,4,10,14,9,8,3,13,15"
14084,commdev-image-keyboard-response,453,864986,learnblock1,684.0999999046326,img/planet14_left.png,14,Community 2,NA,TRUE,f,f,NA,NA,NA,NA,6,"7,12,2,1,11,6,5,4,10,14,9,8,3,13,15"
14084,commdev-image-keyboard-response,454,866246,learnblock1,null,img/planet4_right.png,4,Community 2,NA,FALSE,null,j,NA,NA,NA,NA,6,"7,12,2,1,11,6,5,4,10,14,9,8,3,13,15"
14084,commdev-image-keyboard-response,455,867499,learnblock1,null,img/planet8_right.png,8,Community 3,NA,FALSE,null,j,NA,NA,NA,NA,6,"7,12,2,1,11,6,5,4,10,14,9,8,3,13,15"
14084,commdev-image-keyboard-response,456,868758,learnblock1,null,img/planet4_right.png,4,Community 2,NA,FALSE,null,j,NA,NA,NA,NA,6,"7,12,2,1,11,6,5,4,10,14,9,8,3,13,15"
14084,commdev-image-keyboard-response,457,870017,learnblock1,637,img/planet10_left.png,10,Community 2,NA,TRUE,f,f,NA,NA,NA,NA,6,"7,12,2,1,11,6,5,4,10,14,9,8,3,13,15"
14084,commdev-image-keyboard-response,458,871278,learnblock1,null,img/planet5_right.png,5,Community 2,NA,FALSE,null,j,NA,NA,NA,NA,6,"7,12,2,1,11,6,5,4,10,14,9,8,3,13,15"
14084,commdev-image-keyboard-response,459,872539,learnblock1,null,img/planet10_left.png,10,Community 2,NA,FALSE,null,f,NA,NA,NA,NA,6,"7,12,2,1,11,6,5,4,10,14,9,8,3,13,15"
14084,commdev-image-keyboard-response,460,873799,learnblock1,697.8999999761581,img/planet14_left.png,14,Community 2,NA,TRUE,f,f,NA,NA,NA,NA,6,"7,12,2,1,11,6,5,4,10,14,9,8,3,13,15"
14084,commdev-image-keyboard-response,461,875056,learnblock1,803.8999999761581,img/planet6_left.png,6,Community 2,NA,TRUE,f,f,NA,NA,NA,NA,6,"7,12,2,1,11,6,5,4,10,14,9,8,3,13,15"
14084,commdev-image-keyboard-response,462,876316,learnblock1,581.7999999523163,img/planet10_right.png,10,Community 2,NA,FALSE,f,j,NA,NA,NA,NA,6,"7,12,2,1,11,6,5,4,10,14,9,8,3,13,15"
14084,commdev-image-keyboard-response,463,877574,learnblock1,767.7999999523163,img/planet5_left.png,5,Community 2,NA,TRUE,f,f,NA,NA,NA,NA,6,"7,12,2,1,11,6,5,4,10,14,9,8,3,13,15"
14084,commdev-image-keyboard-response,464,878835,learnblock1,550.8000000715256,img/planet10_left.png,10,Community 2,NA,TRUE,f,f,NA,NA,NA,NA,6,"7,12,2,1,11,6,5,4,10,14,9,8,3,13,15"
14084,commdev-image-keyboard-response,465,880091,learnblock1,769.8999999761581,img/planet14_left.png,14,Community 2,NA,TRUE,f,f,NA,NA,NA,NA,6,"7,12,2,1,11,6,5,4,10,14,9,8,3,13,15"
14084,commdev-image-keyboard-response,466,881349,learnblock1,595.6999999284744,img/planet4_left.png,4,Community 2,NA,TRUE,f,f,NA,NA,NA,NA,6,"7,12,2,1,11,6,5,4,10,14,9,8,3,13,15"
14084,commdev-image-keyboard-response,467,882602,learnblock1,709.6000000238419,img/planet8_left.png,8,Community 3,NA,TRUE,f,f,NA,NA,NA,NA,6,"7,12,2,1,11,6,5,4,10,14,9,8,3,13,15"
14084,commdev-image-keyboard-response,468,883862,learnblock1,545.3999999761581,img/planet15_left.png,15,Community 3,NA,TRUE,f,f,NA,NA,NA,NA,6,"7,12,2,1,11,6,5,4,10,14,9,8,3,13,15"
14084,commdev-image-keyboard-response,469,885122,learnblock1,null,img/planet8_right.png,8,Community 3,NA,FALSE,null,j,NA,NA,NA,NA,6,"7,12,2,1,11,6,5,4,10,14,9,8,3,13,15"
14084,commdev-image-keyboard-response,470,886383,learnblock1,761.7999999523163,img/planet15_left.png,15,Community 3,NA,TRUE,f,f,NA,NA,NA,NA,6,"7,12,2,1,11,6,5,4,10,14,9,8,3,13,15"
14084,commdev-image-keyboard-response,471,887642,learnblock1,661.2000000476837,img/planet3_left.png,3,Community 3,NA,TRUE,f,f,NA,NA,NA,NA,6,"7,12,2,1,11,6,5,4,10,14,9,8,3,13,15"
14084,commdev-image-keyboard-response,472,888902,learnblock1,null,img/planet8_right.png,8,Community 3,NA,FALSE,null,j,NA,NA,NA,NA,6,"7,12,2,1,11,6,5,4,10,14,9,8,3,13,15"
14084,commdev-image-keyboard-response,473,890163,learnblock1,845.3999999761581,img/planet3_left.png,3,Community 3,NA,TRUE,f,f,NA,NA,NA,NA,6,"7,12,2,1,11,6,5,4,10,14,9,8,3,13,15"
14084,commdev-image-keyboard-response,474,891419,learnblock1,null,img/planet15_right.png,15,Community 3,NA,FALSE,null,j,NA,NA,NA,NA,6,"7,12,2,1,11,6,5,4,10,14,9,8,3,13,15"
14084,commdev-image-keyboard-response,475,892678,learnblock1,533.5,img/planet13_left.png,13,Community 3,NA,TRUE,f,f,NA,NA,NA,NA,6,"7,12,2,1,11,6,5,4,10,14,9,8,3,13,15"
14084,commdev-image-keyboard-response,476,893930,learnblock1,null,img/planet15_right.png,15,Community 3,NA,FALSE,null,j,NA,NA,NA,NA,6,"7,12,2,1,11,6,5,4,10,14,9,8,3,13,15"
14084,commdev-image-keyboard-response,477,895195,learnblock1,null,img/planet13_right.png,13,Community 3,NA,FALSE,null,j,NA,NA,NA,NA,6,"7,12,2,1,11,6,5,4,10,14,9,8,3,13,15"
14084,commdev-image-keyboard-response,478,896452,learnblock1,714.6000000238419,img/planet8_left.png,8,Community 3,NA,TRUE,f,f,NA,NA,NA,NA,6,"7,12,2,1,11,6,5,4,10,14,9,8,3,13,15"
14084,commdev-image-keyboard-response,479,897706,learnblock1,null,img/planet15_right.png,15,Community 3,NA,FALSE,null,j,NA,NA,NA,NA,6,"7,12,2,1,11,6,5,4,10,14,9,8,3,13,15"
14084,commdev-image-keyboard-response,480,898964,learnblock1,579.8000000715256,img/planet3_left.png,3,Community 3,NA,TRUE,f,f,NA,NA,NA,NA,6,"7,12,2,1,11,6,5,4,10,14,9,8,3,13,15"
14084,commdev-image-keyboard-response,481,900218,learnblock1,null,img/planet8_right.png,8,Community 3,NA,FALSE,null,j,NA,NA,NA,NA,6,"7,12,2,1,11,6,5,4,10,14,9,8,3,13,15"
14084,commdev-image-keyboard-response,482,901478,learnblock1,489.40000009536743,img/planet15_left.png,15,Community 3,NA,TRUE,f,f,NA,NA,NA,NA,6,"7,12,2,1,11,6,5,4,10,14,9,8,3,13,15"
14084,commdev-image-keyboard-response,483,902738,learnblock1,760.2000000476837,img/planet9_left.png,9,Community 3,NA,TRUE,f,f,NA,NA,NA,NA,6,"7,12,2,1,11,6,5,4,10,14,9,8,3,13,15"
14084,commdev-image-keyboard-response,484,903995,learnblock1,510.60000002384186,img/planet15_left.png,15,Community 3,NA,TRUE,f,f,NA,NA,NA,NA,6,"7,12,2,1,11,6,5,4,10,14,9,8,3,13,15"
14084,commdev-image-keyboard-response,485,905253,learnblock1,null,img/planet8_right.png,8,Community 3,NA,FALSE,null,j,NA,NA,NA,NA,6,"7,12,2,1,11,6,5,4,10,14,9,8,3,13,15"
14084,commdev-image-keyboard-response,486,906506,learnblock1,639.1999999284744,img/planet13_right.png,13,Community 3,NA,FALSE,f,j,NA,NA,NA,NA,6,"7,12,2,1,11,6,5,4,10,14,9,8,3,13,15"
14084,commdev-image-keyboard-response,487,907759,learnblock1,790.1000000238419,img/planet8_left.png,8,Community 3,NA,TRUE,f,f,NA,NA,NA,NA,6,"7,12,2,1,11,6,5,4,10,14,9,8,3,13,15"
14084,commdev-image-keyboard-response,488,909017,learnblock1,652.8999999761581,img/planet4_left.png,4,Community 2,NA,TRUE,f,f,NA,NA,NA,NA,6,"7,12,2,1,11,6,5,4,10,14,9,8,3,13,15"
14084,commdev-image-keyboard-response,489,910272,learnblock1,755,img/planet8_left.png,8,Community 3,NA,TRUE,f,f,NA,NA,NA,NA,6,"7,12,2,1,11,6,5,4,10,14,9,8,3,13,15"
14084,commdev-image-keyboard-response,490,911525,learnblock1,null,img/planet13_right.png,13,Community 3,NA,FALSE,null,j,NA,NA,NA,NA,6,"7,12,2,1,11,6,5,4,10,14,9,8,3,13,15"
14084,commdev-image-keyboard-response,491,912786,learnblock1,469,img/planet8_left.png,8,Community 3,NA,TRUE,f,f,NA,NA,NA,NA,6,"7,12,2,1,11,6,5,4,10,14,9,8,3,13,15"
14084,commdev-image-keyboard-response,492,914042,learnblock1,579.6000000238419,img/planet13_right.png,13,Community 3,NA,FALSE,f,j,NA,NA,NA,NA,6,"7,12,2,1,11,6,5,4,10,14,9,8,3,13,15"
14084,commdev-image-keyboard-response,493,915297,learnblock1,661.7000000476837,img/planet8_left.png,8,Community 3,NA,TRUE,f,f,NA,NA,NA,NA,6,"7,12,2,1,11,6,5,4,10,14,9,8,3,13,15"
14084,commdev-image-keyboard-response,494,916554,learnblock1,588.8999999761581,img/planet15_left.png,15,Community 3,NA,TRUE,f,f,NA,NA,NA,NA,6,"7,12,2,1,11,6,5,4,10,14,9,8,3,13,15"
14084,commdev-image-keyboard-response,495,917811,learnblock1,713,img/planet9_left.png,9,Community 3,NA,TRUE,f,f,NA,NA,NA,NA,6,"7,12,2,1,11,6,5,4,10,14,9,8,3,13,15"
14084,commdev-image-keyboard-response,496,919070,learnblock1,621.0999999046326,img/planet11_left.png,11,Community 1,NA,TRUE,f,f,NA,NA,NA,NA,6,"7,12,2,1,11,6,5,4,10,14,9,8,3,13,15"
14084,commdev-image-keyboard-response,497,920322,learnblock1,1063,img/planet7_left.png,7,Community 1,NA,TRUE,f,f,NA,NA,NA,NA,6,"7,12,2,1,11,6,5,4,10,14,9,8,3,13,15"
14084,commdev-image-keyboard-response,498,921588,learnblock1,null,img/planet12_right.png,12,Community 1,NA,FALSE,null,j,NA,NA,NA,NA,6,"7,12,2,1,11,6,5,4,10,14,9,8,3,13,15"
14084,commdev-image-keyboard-response,499,922855,learnblock1,null,img/planet1_right.png,1,Community 1,NA,FALSE,null,j,NA,NA,NA,NA,6,"7,12,2,1,11,6,5,4,10,14,9,8,3,13,15"
14084,commdev-image-keyboard-response,500,924107,learnblock1,null,img/planet6_right.png,6,Community 2,NA,FALSE,null,j,NA,NA,NA,NA,6,"7,12,2,1,11,6,5,4,10,14,9,8,3,13,15"
14084,commdev-image-keyboard-response,501,925369,learnblock1,null,img/planet5_right.png,5,Community 2,NA,FALSE,null,j,NA,NA,NA,NA,6,"7,12,2,1,11,6,5,4,10,14,9,8,3,13,15"
14084,commdev-image-keyboard-response,502,926626,learnblock1,null,img/planet6_left.png,6,Community 2,NA,FALSE,null,f,NA,NA,NA,NA,6,"7,12,2,1,11,6,5,4,10,14,9,8,3,13,15"
14084,commdev-image-keyboard-response,503,927891,learnblock1,510,img/planet10_left.png,10,Community 2,NA,TRUE,f,f,NA,NA,NA,NA,6,"7,12,2,1,11,6,5,4,10,14,9,8,3,13,15"
14084,commdev-image-keyboard-response,504,929156,learnblock1,null,img/planet6_right.png,6,Community 2,NA,FALSE,null,j,NA,NA,NA,NA,6,"7,12,2,1,11,6,5,4,10,14,9,8,3,13,15"
14084,commdev-image-keyboard-response,505,930413,learnblock1,611.6999999284744,img/planet10_right.png,10,Community 2,NA,FALSE,f,j,NA,NA,NA,NA,6,"7,12,2,1,11,6,5,4,10,14,9,8,3,13,15"
14084,commdev-image-keyboard-response,506,931667,learnblock1,null,img/planet5_right.png,5,Community 2,NA,FALSE,null,j,NA,NA,NA,NA,6,"7,12,2,1,11,6,5,4,10,14,9,8,3,13,15"
14084,commdev-image-keyboard-response,507,932921,learnblock1,null,img/planet14_right.png,14,Community 2,NA,FALSE,null,j,NA,NA,NA,NA,6,"7,12,2,1,11,6,5,4,10,14,9,8,3,13,15"
14084,commdev-image-keyboard-response,508,934183,learnblock1,null,img/planet4_left.png,4,Community 2,NA,FALSE,null,f,NA,NA,NA,NA,6,"7,12,2,1,11,6,5,4,10,14,9,8,3,13,15"
14084,commdev-image-keyboard-response,509,935444,learnblock1,null,img/planet8_right.png,8,Community 3,NA,FALSE,null,j,NA,NA,NA,NA,6,"7,12,2,1,11,6,5,4,10,14,9,8,3,13,15"
14084,commdev-image-keyboard-response,510,936697,learnblock1,null,img/planet13_right.png,13,Community 3,NA,FALSE,null,j,NA,NA,NA,NA,6,"7,12,2,1,11,6,5,4,10,14,9,8,3,13,15"
14084,commdev-image-keyboard-response,511,937963,learnblock1,466,img/planet8_left.png,8,Community 3,NA,TRUE,f,f,NA,NA,NA,NA,6,"7,12,2,1,11,6,5,4,10,14,9,8,3,13,15"
14084,commdev-image-keyboard-response,512,939221,learnblock1,555.6000000238419,img/planet13_left.png,13,Community 3,NA,TRUE,f,f,NA,NA,NA,NA,6,"7,12,2,1,11,6,5,4,10,14,9,8,3,13,15"
14084,commdev-image-keyboard-response,513,940479,learnblock1,null,img/planet8_right.png,8,Community 3,NA,FALSE,null,j,NA,NA,NA,NA,6,"7,12,2,1,11,6,5,4,10,14,9,8,3,13,15"
14084,commdev-image-keyboard-response,514,941734,learnblock1,null,img/planet4_right.png,4,Community 2,NA,FALSE,null,j,NA,NA,NA,NA,6,"7,12,2,1,11,6,5,4,10,14,9,8,3,13,15"
14084,commdev-image-keyboard-response,515,942991,learnblock1,666.7000000476837,img/planet8_left.png,8,Community 3,NA,TRUE,f,f,NA,NA,NA,NA,6,"7,12,2,1,11,6,5,4,10,14,9,8,3,13,15"
14084,commdev-image-keyboard-response,516,944245,learnblock1,null,img/planet13_right.png,13,Community 3,NA,FALSE,null,j,NA,NA,NA,NA,6,"7,12,2,1,11,6,5,4,10,14,9,8,3,13,15"
14084,commdev-image-keyboard-response,517,945508,learnblock1,666.2000000476837,img/planet3_left.png,3,Community 3,NA,TRUE,f,f,NA,NA,NA,NA,6,"7,12,2,1,11,6,5,4,10,14,9,8,3,13,15"
14084,commdev-image-keyboard-response,518,946762,learnblock1,null,img/planet13_right.png,13,Community 3,NA,FALSE,null,j,NA,NA,NA,NA,6,"7,12,2,1,11,6,5,4,10,14,9,8,3,13,15"
14084,commdev-image-keyboard-response,522,977448,learnblock2,null,img/planet12_left.png,12,Community 1,NA,FALSE,null,f,NA,NA,NA,NA,6,"7,12,2,1,11,6,5,4,10,14,9,8,3,13,15"
14084,commdev-image-keyboard-response,523,978708,learnblock2,254.79999995231628,img/planet7_right.png,7,Community 1,NA,FALSE,f,j,NA,NA,NA,NA,6,"7,12,2,1,11,6,5,4,10,14,9,8,3,13,15"
14084,commdev-image-keyboard-response,524,979962,learnblock2,null,img/planet1_left.png,1,Community 1,NA,FALSE,null,f,NA,NA,NA,NA,6,"7,12,2,1,11,6,5,4,10,14,9,8,3,13,15"
14084,commdev-image-keyboard-response,525,981222,learnblock2,672.8999999761581,img/planet2_left.png,2,Community 1,NA,TRUE,f,f,NA,NA,NA,NA,6,"7,12,2,1,11,6,5,4,10,14,9,8,3,13,15"
14084,commdev-image-keyboard-response,526,982474,learnblock2,633.5,img/planet7_right.png,7,Community 1,NA,FALSE,f,j,NA,NA,NA,NA,6,"7,12,2,1,11,6,5,4,10,14,9,8,3,13,15"
14084,commdev-image-keyboard-response,527,983728,learnblock2,null,img/planet2_right.png,2,Community 1,NA,FALSE,null,j,NA,NA,NA,NA,6,"7,12,2,1,11,6,5,4,10,14,9,8,3,13,15"
14084,commdev-image-keyboard-response,528,984987,learnblock2,609.6999999284744,img/planet12_right.png,12,Community 1,NA,FALSE,f,j,NA,NA,NA,NA,6,"7,12,2,1,11,6,5,4,10,14,9,8,3,13,15"
14084,commdev-image-keyboard-response,529,986245,learnblock2,null,img/planet7_right.png,7,Community 1,NA,FALSE,null,j,NA,NA,NA,NA,6,"7,12,2,1,11,6,5,4,10,14,9,8,3,13,15"
14084,commdev-image-keyboard-response,530,987506,learnblock2,613.0999999046326,img/planet1_left.png,1,Community 1,NA,TRUE,f,f,NA,NA,NA,NA,6,"7,12,2,1,11,6,5,4,10,14,9,8,3,13,15"
14084,commdev-image-keyboard-response,531,988756,learnblock2,null,img/planet2_left.png,2,Community 1,NA,FALSE,null,f,NA,NA,NA,NA,6,"7,12,2,1,11,6,5,4,10,14,9,8,3,13,15"
14084,commdev-image-keyboard-response,532,990018,learnblock2,null,img/planet7_right.png,7,Community 1,NA,FALSE,null,j,NA,NA,NA,NA,6,"7,12,2,1,11,6,5,4,10,14,9,8,3,13,15"
14084,commdev-image-keyboard-response,533,991276,learnblock2,null,img/planet1_right.png,1,Community 1,NA,FALSE,null,j,NA,NA,NA,NA,6,"7,12,2,1,11,6,5,4,10,14,9,8,3,13,15"
14084,commdev-image-keyboard-response,534,992536,learnblock2,null,img/planet2_right.png,2,Community 1,NA,FALSE,null,j,NA,NA,NA,NA,6,"7,12,2,1,11,6,5,4,10,14,9,8,3,13,15"
14084,commdev-image-keyboard-response,535,993794,learnblock2,603.7000000476837,img/planet12_left.png,12,Community 1,NA,TRUE,f,f,NA,NA,NA,NA,6,"7,12,2,1,11,6,5,4,10,14,9,8,3,13,15"
14084,commdev-image-keyboard-response,536,995048,learnblock2,null,img/planet7_left.png,7,Community 1,NA,FALSE,null,f,NA,NA,NA,NA,6,"7,12,2,1,11,6,5,4,10,14,9,8,3,13,15"
14084,commdev-image-keyboard-response,537,996306,learnblock2,857.1999999284744,img/planet2_left.png,2,Community 1,NA,TRUE,f,f,NA,NA,NA,NA,6,"7,12,2,1,11,6,5,4,10,14,9,8,3,13,15"
14084,commdev-image-keyboard-response,538,997562,learnblock2,710.2000000476837,img/planet11_left.png,11,Community 1,NA,TRUE,f,f,NA,NA,NA,NA,6,"7,12,2,1,11,6,5,4,10,14,9,8,3,13,15"
14084,commdev-image-keyboard-response,539,998819,learnblock2,null,img/planet2_right.png,2,Community 1,NA,FALSE,null,j,NA,NA,NA,NA,6,"7,12,2,1,11,6,5,4,10,14,9,8,3,13,15"
14084,commdev-image-keyboard-response,540,1000073,learnblock2,568,img/planet11_left.png,11,Community 1,NA,TRUE,f,f,NA,NA,NA,NA,6,"7,12,2,1,11,6,5,4,10,14,9,8,3,13,15"
14084,commdev-image-keyboard-response,541,1001326,learnblock2,null,img/planet7_right.png,7,Community 1,NA,FALSE,null,j,NA,NA,NA,NA,6,"7,12,2,1,11,6,5,4,10,14,9,8,3,13,15"
14084,commdev-image-keyboard-response,542,1002593,learnblock2,null,img/planet2_right.png,2,Community 1,NA,FALSE,null,j,NA,NA,NA,NA,6,"7,12,2,1,11,6,5,4,10,14,9,8,3,13,15"
14084,commdev-image-keyboard-response,543,1003852,learnblock2,null,img/planet11_right.png,11,Community 1,NA,FALSE,null,j,NA,NA,NA,NA,6,"7,12,2,1,11,6,5,4,10,14,9,8,3,13,15"
14084,commdev-image-keyboard-response,544,1005110,learnblock2,null,img/planet2_right.png,2,Community 1,NA,FALSE,null,j,NA,NA,NA,NA,6,"7,12,2,1,11,6,5,4,10,14,9,8,3,13,15"
14084,commdev-image-keyboard-response,545,1006367,learnblock2,null,img/planet1_left.png,1,Community 1,NA,FALSE,null,f,NA,NA,NA,NA,6,"7,12,2,1,11,6,5,4,10,14,9,8,3,13,15"
14084,commdev-image-keyboard-response,546,1007628,learnblock2,null,img/planet2_right.png,2,Community 1,NA,FALSE,null,j,NA,NA,NA,NA,6,"7,12,2,1,11,6,5,4,10,14,9,8,3,13,15"
14084,commdev-image-keyboard-response,547,1008889,learnblock2,null,img/planet7_right.png,7,Community 1,NA,FALSE,null,j,NA,NA,NA,NA,6,"7,12,2,1,11,6,5,4,10,14,9,8,3,13,15"
14084,commdev-image-keyboard-response,548,1010145,learnblock2,784.2000000476837,img/planet2_left.png,2,Community 1,NA,TRUE,f,f,NA,NA,NA,NA,6,"7,12,2,1,11,6,5,4,10,14,9,8,3,13,15"
14084,commdev-image-keyboard-response,549,1011400,learnblock2,null,img/planet7_right.png,7,Community 1,NA,FALSE,null,j,NA,NA,NA,NA,6,"7,12,2,1,11,6,5,4,10,14,9,8,3,13,15"
14084,commdev-image-keyboard-response,550,1012652,learnblock2,699.6000000238419,img/planet2_right.png,2,Community 1,NA,FALSE,f,j,NA,NA,NA,NA,6,"7,12,2,1,11,6,5,4,10,14,9,8,3,13,15"
14084,commdev-image-keyboard-response,551,1013913,learnblock2,null,img/planet11_left.png,11,Community 1,NA,FALSE,null,f,NA,NA,NA,NA,6,"7,12,2,1,11,6,5,4,10,14,9,8,3,13,15"
14084,commdev-image-keyboard-response,552,1015176,learnblock2,877.5999999046326,img/planet12_left.png,12,Community 1,NA,TRUE,f,f,NA,NA,NA,NA,6,"7,12,2,1,11,6,5,4,10,14,9,8,3,13,15"
14084,commdev-image-keyboard-response,553,1016428,learnblock2,675.3999999761581,img/planet7_left.png,7,Community 1,NA,TRUE,f,f,NA,NA,NA,NA,6,"7,12,2,1,11,6,5,4,10,14,9,8,3,13,15"
14084,commdev-image-keyboard-response,554,1017689,learnblock2,null,img/planet1_left.png,1,Community 1,NA,FALSE,null,f,NA,NA,NA,NA,6,"7,12,2,1,11,6,5,4,10,14,9,8,3,13,15"
14084,commdev-image-keyboard-response,555,1018949,learnblock2,788.6999999284744,img/planet2_left.png,2,Community 1,NA,TRUE,f,f,NA,NA,NA,NA,6,"7,12,2,1,11,6,5,4,10,14,9,8,3,13,15"
14084,commdev-image-keyboard-response,556,1020208,learnblock2,null,img/planet12_right.png,12,Community 1,NA,FALSE,null,j,NA,NA,NA,NA,6,"7,12,2,1,11,6,5,4,10,14,9,8,3,13,15"
14084,commdev-image-keyboard-response,557,1021464,learnblock2,709.8999999761581,img/planet2_left.png,2,Community 1,NA,TRUE,f,f,NA,NA,NA,NA,6,"7,12,2,1,11,6,5,4,10,14,9,8,3,13,15"
14084,commdev-image-keyboard-response,558,1022725,learnblock2,null,img/planet11_left.png,11,Community 1,NA,FALSE,null,f,NA,NA,NA,NA,6,"7,12,2,1,11,6,5,4,10,14,9,8,3,13,15"
14084,commdev-image-keyboard-response,559,1023985,learnblock2,705,img/planet9_right.png,9,Community 3,NA,FALSE,f,j,NA,NA,NA,NA,6,"7,12,2,1,11,6,5,4,10,14,9,8,3,13,15"
14084,commdev-image-keyboard-response,560,1025246,learnblock2,null,img/planet15_right.png,15,Community 3,NA,FALSE,null,j,NA,NA,NA,NA,6,"7,12,2,1,11,6,5,4,10,14,9,8,3,13,15"
14084,commdev-image-keyboard-response,561,1026509,learnblock2,691.2000000476837,img/planet9_left.png,9,Community 3,NA,TRUE,f,f,NA,NA,NA,NA,6,"7,12,2,1,11,6,5,4,10,14,9,8,3,13,15"
14084,commdev-image-keyboard-response,562,1027766,learnblock2,null,img/planet11_left.png,11,Community 1,NA,FALSE,null,f,NA,NA,NA,NA,6,"7,12,2,1,11,6,5,4,10,14,9,8,3,13,15"
14084,commdev-image-keyboard-response,563,1029021,learnblock2,null,img/planet2_right.png,2,Community 1,NA,FALSE,null,j,NA,NA,NA,NA,6,"7,12,2,1,11,6,5,4,10,14,9,8,3,13,15"
14084,commdev-image-keyboard-response,564,1030279,learnblock2,678.7000000476837,img/planet12_left.png,12,Community 1,NA,TRUE,f,f,NA,NA,NA,NA,6,"7,12,2,1,11,6,5,4,10,14,9,8,3,13,15"
14084,commdev-image-keyboard-response,565,1031534,learnblock2,null,img/planet1_right.png,1,Community 1,NA,FALSE,null,j,NA,NA,NA,NA,6,"7,12,2,1,11,6,5,4,10,14,9,8,3,13,15"
14084,commdev-image-keyboard-response,566,1032794,learnblock2,821,img/planet6_left.png,6,Community 2,NA,TRUE,f,f,NA,NA,NA,NA,6,"7,12,2,1,11,6,5,4,10,14,9,8,3,13,15"
14084,commdev-image-keyboard-response,567,1034060,learnblock2,null,img/planet1_right.png,1,Community 1,NA,FALSE,null,j,NA,NA,NA,NA,6,"7,12,2,1,11,6,5,4,10,14,9,8,3,13,15"
14084,commdev-image-keyboard-response,568,1035317,learnblock2,616.6000000238419,img/planet2_left.png,2,Community 1,NA,TRUE,f,f,NA,NA,NA,NA,6,"7,12,2,1,11,6,5,4,10,14,9,8,3,13,15"
14084,commdev-image-keyboard-response,569,1036574,learnblock2,975.2000000476837,img/planet11_left.png,11,Community 1,NA,TRUE,f,f,NA,NA,NA,NA,6,"7,12,2,1,11,6,5,4,10,14,9,8,3,13,15"
14084,commdev-image-keyboard-response,570,1037842,learnblock2,487.7000000476837,img/planet2_left.png,2,Community 1,NA,TRUE,f,f,NA,NA,NA,NA,6,"7,12,2,1,11,6,5,4,10,14,9,8,3,13,15"
14084,commdev-image-keyboard-response,571,1039099,learnblock2,null,img/planet7_right.png,7,Community 1,NA,FALSE,null,j,NA,NA,NA,NA,6,"7,12,2,1,11,6,5,4,10,14,9,8,3,13,15"
14084,commdev-image-keyboard-response,572,1040352,learnblock2,498.90000009536743,img/planet2_left.png,2,Community 1,NA,TRUE,f,f,NA,NA,NA,NA,6,"7,12,2,1,11,6,5,4,10,14,9,8,3,13,15"
14084,commdev-image-keyboard-response,573,1041612,learnblock2,null,img/planet1_right.png,1,Community 1,NA,FALSE,null,j,NA,NA,NA,NA,6,"7,12,2,1,11,6,5,4,10,14,9,8,3,13,15"
14084,commdev-image-keyboard-response,574,1042869,learnblock2,null,img/planet6_right.png,6,Community 2,NA,FALSE,null,j,NA,NA,NA,NA,6,"7,12,2,1,11,6,5,4,10,14,9,8,3,13,15"
14084,commdev-image-keyboard-response,575,1044128,learnblock2,null,img/planet1_right.png,1,Community 1,NA,FALSE,null,j,NA,NA,NA,NA,6,"7,12,2,1,11,6,5,4,10,14,9,8,3,13,15"
14084,commdev-image-keyboard-response,576,1045385,learnblock2,464,img/planet2_left.png,2,Community 1,NA,TRUE,f,f,NA,NA,NA,NA,6,"7,12,2,1,11,6,5,4,10,14,9,8,3,13,15"
14084,commdev-image-keyboard-response,577,1046642,learnblock2,null,img/planet11_right.png,11,Community 1,NA,FALSE,null,j,NA,NA,NA,NA,6,"7,12,2,1,11,6,5,4,10,14,9,8,3,13,15"
14084,commdev-image-keyboard-response,578,1047897,learnblock2,520.6000000238419,img/planet2_left.png,2,Community 1,NA,TRUE,f,f,NA,NA,NA,NA,6,"7,12,2,1,11,6,5,4,10,14,9,8,3,13,15"
14084,commdev-image-keyboard-response,579,1049164,learnblock2,775.7999999523163,img/planet1_left.png,1,Community 1,NA,TRUE,f,f,NA,NA,NA,NA,6,"7,12,2,1,11,6,5,4,10,14,9,8,3,13,15"
14084,commdev-image-keyboard-response,580,1050420,learnblock2,null,img/planet6_left.png,6,Community 2,NA,FALSE,null,f,NA,NA,NA,NA,6,"7,12,2,1,11,6,5,4,10,14,9,8,3,13,15"
14084,commdev-image-keyboard-response,581,1051683,learnblock2,525.4000000953674,img/planet10_left.png,10,Community 2,NA,TRUE,f,f,NA,NA,NA,NA,6,"7,12,2,1,11,6,5,4,10,14,9,8,3,13,15"
14084,commdev-image-keyboard-response,582,1052943,learnblock2,null,img/planet4_right.png,4,Community 2,NA,FALSE,null,j,NA,NA,NA,NA,6,"7,12,2,1,11,6,5,4,10,14,9,8,3,13,15"
14084,commdev-image-keyboard-response,583,1054198,learnblock2,null,img/planet14_right.png,14,Community 2,NA,FALSE,null,j,NA,NA,NA,NA,6,"7,12,2,1,11,6,5,4,10,14,9,8,3,13,15"
14084,commdev-image-keyboard-response,584,1055452,learnblock2,620,img/planet5_right.png,5,Community 2,NA,FALSE,f,j,NA,NA,NA,NA,6,"7,12,2,1,11,6,5,4,10,14,9,8,3,13,15"
14084,commdev-image-keyboard-response,585,1056709,learnblock2,null,img/planet10_left.png,10,Community 2,NA,FALSE,null,f,NA,NA,NA,NA,6,"7,12,2,1,11,6,5,4,10,14,9,8,3,13,15"
14084,commdev-image-keyboard-response,586,1057964,learnblock2,526.8000000715256,img/planet14_right.png,14,Community 2,NA,FALSE,f,j,NA,NA,NA,NA,6,"7,12,2,1,11,6,5,4,10,14,9,8,3,13,15"
14084,commdev-image-keyboard-response,587,1059225,learnblock2,null,img/planet4_left.png,4,Community 2,NA,FALSE,null,f,NA,NA,NA,NA,6,"7,12,2,1,11,6,5,4,10,14,9,8,3,13,15"
14084,commdev-image-keyboard-response,588,1060484,learnblock2,871.2999999523163,img/planet5_right.png,5,Community 2,NA,FALSE,f,j,NA,NA,NA,NA,6,"7,12,2,1,11,6,5,4,10,14,9,8,3,13,15"
14084,commdev-image-keyboard-response,589,1061743,learnblock2,null,img/planet10_left.png,10,Community 2,NA,FALSE,null,f,NA,NA,NA,NA,6,"7,12,2,1,11,6,5,4,10,14,9,8,3,13,15"
14084,commdev-image-keyboard-response,590,1062996,learnblock2,248.39999997615814,img/planet5_right.png,5,Community 2,NA,FALSE,f,j,NA,NA,NA,NA,6,"7,12,2,1,11,6,5,4,10,14,9,8,3,13,15"
14084,commdev-image-keyboard-response,591,1064253,learnblock2,951.5,img/planet14_right.png,14,Community 2,NA,FALSE,f,j,NA,NA,NA,NA,6,"7,12,2,1,11,6,5,4,10,14,9,8,3,13,15"
14084,commdev-image-keyboard-response,592,1065514,learnblock2,740.7000000476837,img/planet10_left.png,10,Community 2,NA,TRUE,f,f,NA,NA,NA,NA,6,"7,12,2,1,11,6,5,4,10,14,9,8,3,13,15"
14084,commdev-image-keyboard-response,593,1066783,learnblock2,554.1000000238419,img/planet6_left.png,6,Community 2,NA,TRUE,f,f,NA,NA,NA,NA,6,"7,12,2,1,11,6,5,4,10,14,9,8,3,13,15"
14084,commdev-image-keyboard-response,594,1068038,learnblock2,null,img/planet14_right.png,14,Community 2,NA,FALSE,null,j,NA,NA,NA,NA,6,"7,12,2,1,11,6,5,4,10,14,9,8,3,13,15"
14084,commdev-image-keyboard-response,595,1069299,learnblock2,null,img/planet4_right.png,4,Community 2,NA,FALSE,null,j,NA,NA,NA,NA,6,"7,12,2,1,11,6,5,4,10,14,9,8,3,13,15"
14084,commdev-image-keyboard-response,596,1070552,learnblock2,517.6000000238419,img/planet14_left.png,14,Community 2,NA,TRUE,f,f,NA,NA,NA,NA,6,"7,12,2,1,11,6,5,4,10,14,9,8,3,13,15"
14084,commdev-image-keyboard-response,597,1071812,learnblock2,654.7000000476837,img/planet4_left.png,4,Community 2,NA,TRUE,f,f,NA,NA,NA,NA,6,"7,12,2,1,11,6,5,4,10,14,9,8,3,13,15"
14084,commdev-image-keyboard-response,598,1073069,learnblock2,634.3000000715256,img/planet14_left.png,14,Community 2,NA,TRUE,f,f,NA,NA,NA,NA,6,"7,12,2,1,11,6,5,4,10,14,9,8,3,13,15"
14084,commdev-image-keyboard-response,599,1074329,learnblock2,883.7999999523163,img/planet5_left.png,5,Community 2,NA,TRUE,f,f,NA,NA,NA,NA,6,"7,12,2,1,11,6,5,4,10,14,9,8,3,13,15"
14084,commdev-image-keyboard-response,600,1075581,learnblock2,510,img/planet10_right.png,10,Community 2,NA,FALSE,f,j,NA,NA,NA,NA,6,"7,12,2,1,11,6,5,4,10,14,9,8,3,13,15"
14084,commdev-image-keyboard-response,601,1076841,learnblock2,null,img/planet5_right.png,5,Community 2,NA,FALSE,null,j,NA,NA,NA,NA,6,"7,12,2,1,11,6,5,4,10,14,9,8,3,13,15"
14084,commdev-image-keyboard-response,602,1078096,learnblock2,680,img/planet14_left.png,14,Community 2,NA,TRUE,f,f,NA,NA,NA,NA,6,"7,12,2,1,11,6,5,4,10,14,9,8,3,13,15"
14084,commdev-image-keyboard-response,603,1079353,learnblock2,964.7999999523163,img/planet5_right.png,5,Community 2,NA,FALSE,f,j,NA,NA,NA,NA,6,"7,12,2,1,11,6,5,4,10,14,9,8,3,13,15"
14084,commdev-image-keyboard-response,604,1080605,learnblock2,null,img/planet4_right.png,4,Community 2,NA,FALSE,null,j,NA,NA,NA,NA,6,"7,12,2,1,11,6,5,4,10,14,9,8,3,13,15"
14084,commdev-image-keyboard-response,605,1081862,learnblock2,611.8999999761581,img/planet10_left.png,10,Community 2,NA,TRUE,f,f,NA,NA,NA,NA,6,"7,12,2,1,11,6,5,4,10,14,9,8,3,13,15"
14084,commdev-image-keyboard-response,606,1083120,learnblock2,null,img/planet4_right.png,4,Community 2,NA,FALSE,null,j,NA,NA,NA,NA,6,"7,12,2,1,11,6,5,4,10,14,9,8,3,13,15"
14084,commdev-image-keyboard-response,607,1084374,learnblock2,508.60000002384186,img/planet14_left.png,14,Community 2,NA,TRUE,f,f,NA,NA,NA,NA,6,"7,12,2,1,11,6,5,4,10,14,9,8,3,13,15"
14084,commdev-image-keyboard-response,608,1085638,learnblock2,null,img/planet5_right.png,5,Community 2,NA,FALSE,null,j,NA,NA,NA,NA,6,"7,12,2,1,11,6,5,4,10,14,9,8,3,13,15"
14084,commdev-image-keyboard-response,609,1086901,learnblock2,null,img/planet4_right.png,4,Community 2,NA,FALSE,null,j,NA,NA,NA,NA,6,"7,12,2,1,11,6,5,4,10,14,9,8,3,13,15"
14084,commdev-image-keyboard-response,610,1088159,learnblock2,null,img/planet14_right.png,14,Community 2,NA,FALSE,null,j,NA,NA,NA,NA,6,"7,12,2,1,11,6,5,4,10,14,9,8,3,13,15"
14084,commdev-image-keyboard-response,611,1089426,learnblock2,548,img/planet6_left.png,6,Community 2,NA,TRUE,f,f,NA,NA,NA,NA,6,"7,12,2,1,11,6,5,4,10,14,9,8,3,13,15"
14084,commdev-image-keyboard-response,612,1090687,learnblock2,751.2999999523163,img/planet5_left.png,5,Community 2,NA,TRUE,f,f,NA,NA,NA,NA,6,"7,12,2,1,11,6,5,4,10,14,9,8,3,13,15"
14084,commdev-image-keyboard-response,613,1091943,learnblock2,499.89999997615814,img/planet6_left.png,6,Community 2,NA,TRUE,f,f,NA,NA,NA,NA,6,"7,12,2,1,11,6,5,4,10,14,9,8,3,13,15"
14084,commdev-image-keyboard-response,614,1093195,learnblock2,520.5,img/planet14_left.png,14,Community 2,NA,TRUE,f,f,NA,NA,NA,NA,6,"7,12,2,1,11,6,5,4,10,14,9,8,3,13,15"
14084,commdev-image-keyboard-response,615,1094449,learnblock2,432.3000000715256,img/planet6_right.png,6,Community 2,NA,FALSE,f,j,NA,NA,NA,NA,6,"7,12,2,1,11,6,5,4,10,14,9,8,3,13,15"
14084,commdev-image-keyboard-response,616,1095707,learnblock2,639.5,img/planet14_left.png,14,Community 2,NA,TRUE,f,f,NA,NA,NA,NA,6,"7,12,2,1,11,6,5,4,10,14,9,8,3,13,15"
14084,commdev-image-keyboard-response,617,1096961,learnblock2,728.9000000953674,img/planet6_left.png,6,Community 2,NA,TRUE,f,f,NA,NA,NA,NA,6,"7,12,2,1,11,6,5,4,10,14,9,8,3,13,15"
14084,commdev-image-keyboard-response,618,1098220,learnblock2,956.5,img/planet5_left.png,5,Community 2,NA,TRUE,f,f,NA,NA,NA,NA,6,"7,12,2,1,11,6,5,4,10,14,9,8,3,13,15"
14084,commdev-image-keyboard-response,619,1099477,learnblock2,541.3999999761581,img/planet10_left.png,10,Community 2,NA,TRUE,f,f,NA,NA,NA,NA,6,"7,12,2,1,11,6,5,4,10,14,9,8,3,13,15"
14084,commdev-image-keyboard-response,620,1100729,learnblock2,null,img/planet6_right.png,6,Community 2,NA,FALSE,null,j,NA,NA,NA,NA,6,"7,12,2,1,11,6,5,4,10,14,9,8,3,13,15"
14084,commdev-image-keyboard-response,621,1101981,learnblock2,1012.1999999284744,img/planet10_left.png,10,Community 2,NA,TRUE,f,f,NA,NA,NA,NA,6,"7,12,2,1,11,6,5,4,10,14,9,8,3,13,15"
14084,commdev-image-keyboard-response,622,1103241,learnblock2,null,img/planet4_right.png,4,Community 2,NA,FALSE,null,j,NA,NA,NA,NA,6,"7,12,2,1,11,6,5,4,10,14,9,8,3,13,15"
14084,commdev-image-keyboard-response,623,1104506,learnblock2,493.5,img/planet10_right.png,10,Community 2,NA,FALSE,f,j,NA,NA,NA,NA,6,"7,12,2,1,11,6,5,4,10,14,9,8,3,13,15"
14084,commdev-image-keyboard-response,624,1105766,learnblock2,622.7000000476837,img/planet14_right.png,14,Community 2,NA,FALSE,f,j,NA,NA,NA,NA,6,"7,12,2,1,11,6,5,4,10,14,9,8,3,13,15"
14084,commdev-image-keyboard-response,625,1107025,learnblock2,null,img/planet5_left.png,5,Community 2,NA,FALSE,null,f,NA,NA,NA,NA,6,"7,12,2,1,11,6,5,4,10,14,9,8,3,13,15"
14084,commdev-image-keyboard-response,626,1108285,learnblock2,544.7999999523163,img/planet4_left.png,4,Community 2,NA,TRUE,f,f,NA,NA,NA,NA,6,"7,12,2,1,11,6,5,4,10,14,9,8,3,13,15"
14084,commdev-image-keyboard-response,627,1109553,learnblock2,491.39999997615814,img/planet10_left.png,10,Community 2,NA,TRUE,f,f,NA,NA,NA,NA,6,"7,12,2,1,11,6,5,4,10,14,9,8,3,13,15"
14084,commdev-image-keyboard-response,628,1110810,learnblock2,null,img/planet14_right.png,14,Community 2,NA,FALSE,null,j,NA,NA,NA,NA,6,"7,12,2,1,11,6,5,4,10,14,9,8,3,13,15"
14084,commdev-image-keyboard-response,629,1112075,learnblock2,411.89999997615814,img/planet10_left.png,10,Community 2,NA,TRUE,f,f,NA,NA,NA,NA,6,"7,12,2,1,11,6,5,4,10,14,9,8,3,13,15"
14084,commdev-image-keyboard-response,630,1113328,learnblock2,459.5,img/planet14_left.png,14,Community 2,NA,TRUE,f,f,NA,NA,NA,NA,6,"7,12,2,1,11,6,5,4,10,14,9,8,3,13,15"
14084,commdev-image-keyboard-response,631,1114588,learnblock2,null,img/planet6_right.png,6,Community 2,NA,FALSE,null,j,NA,NA,NA,NA,6,"7,12,2,1,11,6,5,4,10,14,9,8,3,13,15"
14084,commdev-image-keyboard-response,632,1115848,learnblock2,541.5,img/planet14_left.png,14,Community 2,NA,TRUE,f,f,NA,NA,NA,NA,6,"7,12,2,1,11,6,5,4,10,14,9,8,3,13,15"
14084,commdev-image-keyboard-response,633,1117103,learnblock2,null,img/planet5_right.png,5,Community 2,NA,FALSE,null,j,NA,NA,NA,NA,6,"7,12,2,1,11,6,5,4,10,14,9,8,3,13,15"
14084,commdev-image-keyboard-response,634,1118359,learnblock2,423.5,img/planet4_left.png,4,Community 2,NA,TRUE,f,f,NA,NA,NA,NA,6,"7,12,2,1,11,6,5,4,10,14,9,8,3,13,15"
14084,commdev-image-keyboard-response,635,1119614,learnblock2,863.3999999761581,img/planet8_left.png,8,Community 3,NA,TRUE,f,f,NA,NA,NA,NA,6,"7,12,2,1,11,6,5,4,10,14,9,8,3,13,15"
14084,commdev-image-keyboard-response,636,1120869,learnblock2,null,img/planet13_right.png,13,Community 3,NA,FALSE,null,j,NA,NA,NA,NA,6,"7,12,2,1,11,6,5,4,10,14,9,8,3,13,15"
14084,commdev-image-keyboard-response,637,1122126,learnblock2,547.7999999523163,img/planet9_right.png,9,Community 3,NA,FALSE,f,j,NA,NA,NA,NA,6,"7,12,2,1,11,6,5,4,10,14,9,8,3,13,15"
14084,commdev-image-keyboard-response,638,1123387,learnblock2,667.6999999284744,img/planet13_left.png,13,Community 3,NA,TRUE,f,f,NA,NA,NA,NA,6,"7,12,2,1,11,6,5,4,10,14,9,8,3,13,15"
14084,commdev-image-keyboard-response,639,1124642,learnblock2,526.9000000953674,img/planet15_left.png,15,Community 3,NA,TRUE,f,f,NA,NA,NA,NA,6,"7,12,2,1,11,6,5,4,10,14,9,8,3,13,15"
14084,commdev-image-keyboard-response,640,1125901,learnblock2,null,img/planet9_right.png,9,Community 3,NA,FALSE,null,j,NA,NA,NA,NA,6,"7,12,2,1,11,6,5,4,10,14,9,8,3,13,15"
14084,commdev-image-keyboard-response,641,1127163,learnblock2,499.40000009536743,img/planet13_left.png,13,Community 3,NA,TRUE,f,f,NA,NA,NA,NA,6,"7,12,2,1,11,6,5,4,10,14,9,8,3,13,15"
14084,commdev-image-keyboard-response,642,1128426,learnblock2,null,img/planet9_right.png,9,Community 3,NA,FALSE,null,j,NA,NA,NA,NA,6,"7,12,2,1,11,6,5,4,10,14,9,8,3,13,15"
14084,commdev-image-keyboard-response,643,1129692,learnblock2,null,img/planet13_left.png,13,Community 3,NA,FALSE,null,f,NA,NA,NA,NA,6,"7,12,2,1,11,6,5,4,10,14,9,8,3,13,15"
14084,commdev-image-keyboard-response,644,1130956,learnblock2,null,img/planet15_right.png,15,Community 3,NA,FALSE,null,j,NA,NA,NA,NA,6,"7,12,2,1,11,6,5,4,10,14,9,8,3,13,15"
14084,commdev-image-keyboard-response,645,1132222,learnblock2,476.7000000476837,img/planet8_right.png,8,Community 3,NA,FALSE,f,j,NA,NA,NA,NA,6,"7,12,2,1,11,6,5,4,10,14,9,8,3,13,15"
14084,commdev-image-keyboard-response,646,1133477,learnblock2,null,img/planet15_left.png,15,Community 3,NA,FALSE,null,f,NA,NA,NA,NA,6,"7,12,2,1,11,6,5,4,10,14,9,8,3,13,15"
14084,commdev-image-keyboard-response,647,1134734,learnblock2,null,img/planet8_right.png,8,Community 3,NA,FALSE,null,j,NA,NA,NA,NA,6,"7,12,2,1,11,6,5,4,10,14,9,8,3,13,15"
14084,commdev-image-keyboard-response,648,1135988,learnblock2,625.3999999761581,img/planet3_left.png,3,Community 3,NA,TRUE,f,f,NA,NA,NA,NA,6,"7,12,2,1,11,6,5,4,10,14,9,8,3,13,15"
14084,commdev-image-keyboard-response,649,1137243,learnblock2,593.2999999523163,img/planet15_left.png,15,Community 3,NA,TRUE,f,f,NA,NA,NA,NA,6,"7,12,2,1,11,6,5,4,10,14,9,8,3,13,15"
14084,commdev-image-keyboard-response,650,1138497,learnblock2,497.7999999523163,img/planet8_left.png,8,Community 3,NA,TRUE,f,f,NA,NA,NA,NA,6,"7,12,2,1,11,6,5,4,10,14,9,8,3,13,15"
14084,commdev-image-keyboard-response,651,1139755,learnblock2,498.1999999284744,img/planet3_left.png,3,Community 3,NA,TRUE,f,f,NA,NA,NA,NA,6,"7,12,2,1,11,6,5,4,10,14,9,8,3,13,15"
14084,commdev-image-keyboard-response,652,1141009,learnblock2,426.89999997615814,img/planet9_left.png,9,Community 3,NA,TRUE,f,f,NA,NA,NA,NA,6,"7,12,2,1,11,6,5,4,10,14,9,8,3,13,15"
14084,commdev-image-keyboard-response,653,1142270,learnblock2,319,img/planet15_right.png,15,Community 3,NA,FALSE,f,j,NA,NA,NA,NA,6,"7,12,2,1,11,6,5,4,10,14,9,8,3,13,15"
14084,commdev-image-keyboard-response,654,1143525,learnblock2,599.5999999046326,img/planet13_right.png,13,Community 3,NA,FALSE,f,j,NA,NA,NA,NA,6,"7,12,2,1,11,6,5,4,10,14,9,8,3,13,15"
14084,commdev-image-keyboard-response,655,1144781,learnblock2,null,img/planet9_right.png,9,Community 3,NA,FALSE,null,j,NA,NA,NA,NA,6,"7,12,2,1,11,6,5,4,10,14,9,8,3,13,15"
14084,commdev-image-keyboard-response,656,1146034,learnblock2,null,img/planet13_right.png,13,Community 3,NA,FALSE,null,j,NA,NA,NA,NA,6,"7,12,2,1,11,6,5,4,10,14,9,8,3,13,15"
14084,commdev-image-keyboard-response,657,1147286,learnblock2,null,img/planet15_right.png,15,Community 3,NA,FALSE,null,j,NA,NA,NA,NA,6,"7,12,2,1,11,6,5,4,10,14,9,8,3,13,15"
14084,commdev-image-keyboard-response,658,1148545,learnblock2,null,img/planet8_right.png,8,Community 3,NA,FALSE,null,j,NA,NA,NA,NA,6,"7,12,2,1,11,6,5,4,10,14,9,8,3,13,15"
14084,commdev-image-keyboard-response,659,1149803,learnblock2,null,img/planet13_right.png,13,Community 3,NA,FALSE,null,j,NA,NA,NA,NA,6,"7,12,2,1,11,6,5,4,10,14,9,8,3,13,15"
14084,commdev-image-keyboard-response,660,1151059,learnblock2,null,img/planet8_left.png,8,Community 3,NA,FALSE,null,f,NA,NA,NA,NA,6,"7,12,2,1,11,6,5,4,10,14,9,8,3,13,15"
14084,commdev-image-keyboard-response,661,1152315,learnblock2,null,img/planet3_right.png,3,Community 3,NA,FALSE,null,j,NA,NA,NA,NA,6,"7,12,2,1,11,6,5,4,10,14,9,8,3,13,15"
14084,commdev-image-keyboard-response,662,1153572,learnblock2,null,img/planet9_right.png,9,Community 3,NA,FALSE,null,j,NA,NA,NA,NA,6,"7,12,2,1,11,6,5,4,10,14,9,8,3,13,15"
14084,commdev-image-keyboard-response,663,1154827,learnblock2,null,img/planet3_right.png,3,Community 3,NA,FALSE,null,j,NA,NA,NA,NA,6,"7,12,2,1,11,6,5,4,10,14,9,8,3,13,15"
14084,commdev-image-keyboard-response,664,1156084,learnblock2,593,img/planet13_left.png,13,Community 3,NA,TRUE,f,f,NA,NA,NA,NA,6,"7,12,2,1,11,6,5,4,10,14,9,8,3,13,15"
14084,commdev-image-keyboard-response,665,1157340,learnblock2,null,img/planet8_left.png,8,Community 3,NA,FALSE,null,f,NA,NA,NA,NA,6,"7,12,2,1,11,6,5,4,10,14,9,8,3,13,15"
14084,commdev-image-keyboard-response,666,1158599,learnblock2,491.10000002384186,img/planet3_left.png,3,Community 3,NA,TRUE,f,f,NA,NA,NA,NA,6,"7,12,2,1,11,6,5,4,10,14,9,8,3,13,15"
14084,commdev-image-keyboard-response,667,1159855,learnblock2,467.5,img/planet9_right.png,9,Community 3,NA,FALSE,f,j,NA,NA,NA,NA,6,"7,12,2,1,11,6,5,4,10,14,9,8,3,13,15"
14084,commdev-image-keyboard-response,668,1161114,learnblock2,667.2000000476837,img/planet11_left.png,11,Community 1,NA,TRUE,f,f,NA,NA,NA,NA,6,"7,12,2,1,11,6,5,4,10,14,9,8,3,13,15"
14084,commdev-image-keyboard-response,669,1162372,learnblock2,null,img/planet2_right.png,2,Community 1,NA,FALSE,null,j,NA,NA,NA,NA,6,"7,12,2,1,11,6,5,4,10,14,9,8,3,13,15"
14084,commdev-image-keyboard-response,670,1163631,learnblock2,567,img/planet1_left.png,1,Community 1,NA,TRUE,f,f,NA,NA,NA,NA,6,"7,12,2,1,11,6,5,4,10,14,9,8,3,13,15"
14084,commdev-image-keyboard-response,671,1164886,learnblock2,null,img/planet7_right.png,7,Community 1,NA,FALSE,null,j,NA,NA,NA,NA,6,"7,12,2,1,11,6,5,4,10,14,9,8,3,13,15"
14084,commdev-image-keyboard-response,672,1166143,learnblock2,null,img/planet1_right.png,1,Community 1,NA,FALSE,null,j,NA,NA,NA,NA,6,"7,12,2,1,11,6,5,4,10,14,9,8,3,13,15"
14084,commdev-image-keyboard-response,673,1167397,learnblock2,null,img/planet7_right.png,7,Community 1,NA,FALSE,null,j,NA,NA,NA,NA,6,"7,12,2,1,11,6,5,4,10,14,9,8,3,13,15"
14084,commdev-image-keyboard-response,674,1168658,learnblock2,null,img/planet12_right.png,12,Community 1,NA,FALSE,null,j,NA,NA,NA,NA,6,"7,12,2,1,11,6,5,4,10,14,9,8,3,13,15"
14084,commdev-image-keyboard-response,675,1169919,learnblock2,null,img/planet2_right.png,2,Community 1,NA,FALSE,null,j,NA,NA,NA,NA,6,"7,12,2,1,11,6,5,4,10,14,9,8,3,13,15"
14084,commdev-image-keyboard-response,676,1171179,learnblock2,669.6999999284744,img/planet11_left.png,11,Community 1,NA,TRUE,f,f,NA,NA,NA,NA,6,"7,12,2,1,11,6,5,4,10,14,9,8,3,13,15"
14084,commdev-image-keyboard-response,677,1172438,learnblock2,null,img/planet2_right.png,2,Community 1,NA,FALSE,null,j,NA,NA,NA,NA,6,"7,12,2,1,11,6,5,4,10,14,9,8,3,13,15"
14084,commdev-image-keyboard-response,678,1173691,learnblock2,null,img/planet1_right.png,1,Community 1,NA,FALSE,null,j,NA,NA,NA,NA,6,"7,12,2,1,11,6,5,4,10,14,9,8,3,13,15"
14084,commdev-image-keyboard-response,679,1174961,learnblock2,null,img/planet7_left.png,7,Community 1,NA,FALSE,null,f,NA,NA,NA,NA,6,"7,12,2,1,11,6,5,4,10,14,9,8,3,13,15"
14084,commdev-image-keyboard-response,680,1176219,learnblock2,null,img/planet2_left.png,2,Community 1,NA,FALSE,null,f,NA,NA,NA,NA,6,"7,12,2,1,11,6,5,4,10,14,9,8,3,13,15"
14084,commdev-image-keyboard-response,681,1177483,learnblock2,586.7999999523163,img/planet11_left.png,11,Community 1,NA,TRUE,f,f,NA,NA,NA,NA,6,"7,12,2,1,11,6,5,4,10,14,9,8,3,13,15"
14084,commdev-image-keyboard-response,682,1178743,learnblock2,664.8999999761581,img/planet12_left.png,12,Community 1,NA,TRUE,f,f,NA,NA,NA,NA,6,"7,12,2,1,11,6,5,4,10,14,9,8,3,13,15"
14084,commdev-image-keyboard-response,683,1180007,learnblock2,624.5,img/planet11_right.png,11,Community 1,NA,FALSE,f,j,NA,NA,NA,NA,6,"7,12,2,1,11,6,5,4,10,14,9,8,3,13,15"
14084,commdev-image-keyboard-response,684,1181267,learnblock2,821.2000000476837,img/planet7_left.png,7,Community 1,NA,TRUE,f,f,NA,NA,NA,NA,6,"7,12,2,1,11,6,5,4,10,14,9,8,3,13,15"
14084,commdev-image-keyboard-response,685,1182520,learnblock2,null,img/planet11_right.png,11,Community 1,NA,FALSE,null,j,NA,NA,NA,NA,6,"7,12,2,1,11,6,5,4,10,14,9,8,3,13,15"
14084,commdev-image-keyboard-response,686,1183780,learnblock2,498.7999999523163,img/planet2_left.png,2,Community 1,NA,TRUE,f,f,NA,NA,NA,NA,6,"7,12,2,1,11,6,5,4,10,14,9,8,3,13,15"
14084,commdev-image-keyboard-response,687,1185035,learnblock2,429.2999999523163,img/planet11_left.png,11,Community 1,NA,TRUE,f,f,NA,NA,NA,NA,6,"7,12,2,1,11,6,5,4,10,14,9,8,3,13,15"
14084,commdev-image-keyboard-response,688,1186292,learnblock2,null,img/planet12_right.png,12,Community 1,NA,FALSE,null,j,NA,NA,NA,NA,6,"7,12,2,1,11,6,5,4,10,14,9,8,3,13,15"
14084,commdev-image-keyboard-response,689,1187558,learnblock2,null,img/planet1_right.png,1,Community 1,NA,FALSE,null,j,NA,NA,NA,NA,6,"7,12,2,1,11,6,5,4,10,14,9,8,3,13,15"
14084,commdev-image-keyboard-response,690,1188821,learnblock2,null,img/planet12_right.png,12,Community 1,NA,FALSE,null,j,NA,NA,NA,NA,6,"7,12,2,1,11,6,5,4,10,14,9,8,3,13,15"
14084,commdev-image-keyboard-response,691,1190079,learnblock2,531.6999999284744,img/planet1_left.png,1,Community 1,NA,TRUE,f,f,NA,NA,NA,NA,6,"7,12,2,1,11,6,5,4,10,14,9,8,3,13,15"
14084,commdev-image-keyboard-response,692,1191334,learnblock2,null,img/planet12_left.png,12,Community 1,NA,FALSE,null,f,NA,NA,NA,NA,6,"7,12,2,1,11,6,5,4,10,14,9,8,3,13,15"
14084,commdev-image-keyboard-response,693,1192591,learnblock2,495.7000000476837,img/planet2_left.png,2,Community 1,NA,TRUE,f,f,NA,NA,NA,NA,6,"7,12,2,1,11,6,5,4,10,14,9,8,3,13,15"
14084,commdev-image-keyboard-response,694,1193843,learnblock2,589.6000000238419,img/planet7_left.png,7,Community 1,NA,TRUE,f,f,NA,NA,NA,NA,6,"7,12,2,1,11,6,5,4,10,14,9,8,3,13,15"
14084,commdev-image-keyboard-response,695,1195102,learnblock2,537.5999999046326,img/planet12_left.png,12,Community 1,NA,TRUE,f,f,NA,NA,NA,NA,6,"7,12,2,1,11,6,5,4,10,14,9,8,3,13,15"
14084,commdev-image-keyboard-response,696,1196358,learnblock2,539.5,img/planet7_left.png,7,Community 1,NA,TRUE,f,f,NA,NA,NA,NA,6,"7,12,2,1,11,6,5,4,10,14,9,8,3,13,15"
14084,commdev-image-keyboard-response,697,1197626,learnblock2,529.0999999046326,img/planet11_left.png,11,Community 1,NA,TRUE,f,f,NA,NA,NA,NA,6,"7,12,2,1,11,6,5,4,10,14,9,8,3,13,15"
14084,commdev-image-keyboard-response,698,1198884,learnblock2,480.8000000715256,img/planet2_left.png,2,Community 1,NA,TRUE,f,f,NA,NA,NA,NA,6,"7,12,2,1,11,6,5,4,10,14,9,8,3,13,15"
14084,commdev-image-keyboard-response,699,1200140,learnblock2,null,img/planet7_right.png,7,Community 1,NA,FALSE,null,j,NA,NA,NA,NA,6,"7,12,2,1,11,6,5,4,10,14,9,8,3,13,15"
14084,commdev-image-keyboard-response,700,1201402,learnblock2,null,img/planet11_right.png,11,Community 1,NA,FALSE,null,j,NA,NA,NA,NA,6,"7,12,2,1,11,6,5,4,10,14,9,8,3,13,15"
14084,commdev-image-keyboard-response,701,1202660,learnblock2,null,img/planet7_right.png,7,Community 1,NA,FALSE,null,j,NA,NA,NA,NA,6,"7,12,2,1,11,6,5,4,10,14,9,8,3,13,15"
14084,commdev-image-keyboard-response,702,1203921,learnblock2,635.6000000238419,img/planet12_left.png,12,Community 1,NA,TRUE,f,f,NA,NA,NA,NA,6,"7,12,2,1,11,6,5,4,10,14,9,8,3,13,15"
14084,commdev-image-keyboard-response,703,1205179,learnblock2,544.7000000476837,img/planet11_left.png,11,Community 1,NA,TRUE,f,f,NA,NA,NA,NA,6,"7,12,2,1,11,6,5,4,10,14,9,8,3,13,15"
14084,commdev-image-keyboard-response,704,1206443,learnblock2,837.1000000238419,img/planet2_left.png,2,Community 1,NA,TRUE,f,f,NA,NA,NA,NA,6,"7,12,2,1,11,6,5,4,10,14,9,8,3,13,15"
14084,commdev-image-keyboard-response,705,1207696,learnblock2,594.2999999523163,img/planet7_left.png,7,Community 1,NA,TRUE,f,f,NA,NA,NA,NA,6,"7,12,2,1,11,6,5,4,10,14,9,8,3,13,15"
14084,commdev-image-keyboard-response,706,1208954,learnblock2,570.5,img/planet11_left.png,11,Community 1,NA,TRUE,f,f,NA,NA,NA,NA,6,"7,12,2,1,11,6,5,4,10,14,9,8,3,13,15"
14084,commdev-image-keyboard-response,707,1210211,learnblock2,434.3000000715256,img/planet2_right.png,2,Community 1,NA,FALSE,f,j,NA,NA,NA,NA,6,"7,12,2,1,11,6,5,4,10,14,9,8,3,13,15"
14084,commdev-image-keyboard-response,708,1211476,learnblock2,617.1999999284744,img/planet11_left.png,11,Community 1,NA,TRUE,f,f,NA,NA,NA,NA,6,"7,12,2,1,11,6,5,4,10,14,9,8,3,13,15"
14084,commdev-image-keyboard-response,709,1212732,learnblock2,484,img/planet2_left.png,2,Community 1,NA,TRUE,f,f,NA,NA,NA,NA,6,"7,12,2,1,11,6,5,4,10,14,9,8,3,13,15"
14084,commdev-image-keyboard-response,710,1213994,learnblock2,468,img/planet11_left.png,11,Community 1,NA,TRUE,f,f,NA,NA,NA,NA,6,"7,12,2,1,11,6,5,4,10,14,9,8,3,13,15"
14084,commdev-image-keyboard-response,711,1215252,learnblock2,752.2000000476837,img/planet9_left.png,9,Community 3,NA,TRUE,f,f,NA,NA,NA,NA,6,"7,12,2,1,11,6,5,4,10,14,9,8,3,13,15"
14084,commdev-image-keyboard-response,712,1216507,learnblock2,538.3999999761581,img/planet3_left.png,3,Community 3,NA,TRUE,f,f,NA,NA,NA,NA,6,"7,12,2,1,11,6,5,4,10,14,9,8,3,13,15"
14084,commdev-image-keyboard-response,713,1217765,learnblock2,439.59999990463257,img/planet9_left.png,9,Community 3,NA,TRUE,f,f,NA,NA,NA,NA,6,"7,12,2,1,11,6,5,4,10,14,9,8,3,13,15"
14084,commdev-image-keyboard-response,714,1219020,learnblock2,462.39999997615814,img/planet15_left.png,15,Community 3,NA,TRUE,f,f,NA,NA,NA,NA,6,"7,12,2,1,11,6,5,4,10,14,9,8,3,13,15"
14084,commdev-image-keyboard-response,715,1220273,learnblock2,null,img/planet3_right.png,3,Community 3,NA,FALSE,null,j,NA,NA,NA,NA,6,"7,12,2,1,11,6,5,4,10,14,9,8,3,13,15"
14084,commdev-image-keyboard-response,716,1221535,learnblock2,712.5,img/planet8_left.png,8,Community 3,NA,TRUE,f,f,NA,NA,NA,NA,6,"7,12,2,1,11,6,5,4,10,14,9,8,3,13,15"
14084,commdev-image-keyboard-response,717,1222790,learnblock2,530.5,img/planet13_left.png,13,Community 3,NA,TRUE,f,f,NA,NA,NA,NA,6,"7,12,2,1,11,6,5,4,10,14,9,8,3,13,15"
14084,commdev-image-keyboard-response,718,1224053,learnblock2,null,img/planet9_right.png,9,Community 3,NA,FALSE,null,j,NA,NA,NA,NA,6,"7,12,2,1,11,6,5,4,10,14,9,8,3,13,15"
14084,commdev-image-keyboard-response,719,1225306,learnblock2,null,img/planet3_right.png,3,Community 3,NA,FALSE,null,j,NA,NA,NA,NA,6,"7,12,2,1,11,6,5,4,10,14,9,8,3,13,15"
14084,commdev-image-keyboard-response,720,1226558,learnblock2,null,img/planet15_right.png,15,Community 3,NA,FALSE,null,j,NA,NA,NA,NA,6,"7,12,2,1,11,6,5,4,10,14,9,8,3,13,15"
14084,commdev-image-keyboard-response,721,1227816,learnblock2,589.5,img/planet8_left.png,8,Community 3,NA,TRUE,f,f,NA,NA,NA,NA,6,"7,12,2,1,11,6,5,4,10,14,9,8,3,13,15"
14084,commdev-image-keyboard-response,722,1229074,learnblock2,497.39999997615814,img/planet13_left.png,13,Community 3,NA,TRUE,f,f,NA,NA,NA,NA,6,"7,12,2,1,11,6,5,4,10,14,9,8,3,13,15"
14084,commdev-image-keyboard-response,723,1230327,learnblock2,null,img/planet3_right.png,3,Community 3,NA,FALSE,null,j,NA,NA,NA,NA,6,"7,12,2,1,11,6,5,4,10,14,9,8,3,13,15"
14084,commdev-image-keyboard-response,724,1231587,learnblock2,511.3000000715256,img/planet8_left.png,8,Community 3,NA,TRUE,f,f,NA,NA,NA,NA,6,"7,12,2,1,11,6,5,4,10,14,9,8,3,13,15"
14084,commdev-image-keyboard-response,725,1232844,learnblock2,472.7999999523163,img/planet13_right.png,13,Community 3,NA,FALSE,f,j,NA,NA,NA,NA,6,"7,12,2,1,11,6,5,4,10,14,9,8,3,13,15"
14084,commdev-image-keyboard-response,726,1234097,learnblock2,null,img/planet3_right.png,3,Community 3,NA,FALSE,null,j,NA,NA,NA,NA,6,"7,12,2,1,11,6,5,4,10,14,9,8,3,13,15"
14084,commdev-image-keyboard-response,727,1235355,learnblock2,449.2999999523163,img/planet15_left.png,15,Community 3,NA,TRUE,f,f,NA,NA,NA,NA,6,"7,12,2,1,11,6,5,4,10,14,9,8,3,13,15"
14084,commdev-image-keyboard-response,728,1236614,learnblock2,null,img/planet8_right.png,8,Community 3,NA,FALSE,null,j,NA,NA,NA,NA,6,"7,12,2,1,11,6,5,4,10,14,9,8,3,13,15"
14084,commdev-image-keyboard-response,729,1237869,learnblock2,null,img/planet15_right.png,15,Community 3,NA,FALSE,null,j,NA,NA,NA,NA,6,"7,12,2,1,11,6,5,4,10,14,9,8,3,13,15"
14084,commdev-image-keyboard-response,730,1239126,learnblock2,553.6999999284744,img/planet3_right.png,3,Community 3,NA,FALSE,f,j,NA,NA,NA,NA,6,"7,12,2,1,11,6,5,4,10,14,9,8,3,13,15"
14084,commdev-image-keyboard-response,731,1240379,learnblock2,null,img/planet8_left.png,8,Community 3,NA,FALSE,null,f,NA,NA,NA,NA,6,"7,12,2,1,11,6,5,4,10,14,9,8,3,13,15"
14084,commdev-image-keyboard-response,732,1241637,learnblock2,490.40000009536743,img/planet13_right.png,13,Community 3,NA,FALSE,f,j,NA,NA,NA,NA,6,"7,12,2,1,11,6,5,4,10,14,9,8,3,13,15"
14084,commdev-image-keyboard-response,733,1242897,learnblock2,738.2999999523163,img/planet9_left.png,9,Community 3,NA,TRUE,f,f,NA,NA,NA,NA,6,"7,12,2,1,11,6,5,4,10,14,9,8,3,13,15"
14084,commdev-image-keyboard-response,734,1244155,learnblock2,null,img/planet13_right.png,13,Community 3,NA,FALSE,null,j,NA,NA,NA,NA,6,"7,12,2,1,11,6,5,4,10,14,9,8,3,13,15"
14084,commdev-image-keyboard-response,735,1245410,learnblock2,536.6999999284744,img/planet8_left.png,8,Community 3,NA,TRUE,f,f,NA,NA,NA,NA,6,"7,12,2,1,11,6,5,4,10,14,9,8,3,13,15"
14084,commdev-image-keyboard-response,736,1246663,learnblock2,913.3999999761581,img/planet3_right.png,3,Community 3,NA,FALSE,f,j,NA,NA,NA,NA,6,"7,12,2,1,11,6,5,4,10,14,9,8,3,13,15"
14084,commdev-image-keyboard-response,737,1247920,learnblock2,null,img/planet15_right.png,15,Community 3,NA,FALSE,null,j,NA,NA,NA,NA,6,"7,12,2,1,11,6,5,4,10,14,9,8,3,13,15"
14084,commdev-image-keyboard-response,738,1249174,learnblock2,682.8999999761581,img/planet3_left.png,3,Community 3,NA,TRUE,f,f,NA,NA,NA,NA,6,"7,12,2,1,11,6,5,4,10,14,9,8,3,13,15"
14084,commdev-image-keyboard-response,739,1250428,learnblock2,556.7000000476837,img/planet15_left.png,15,Community 3,NA,TRUE,f,f,NA,NA,NA,NA,6,"7,12,2,1,11,6,5,4,10,14,9,8,3,13,15"
14084,commdev-image-keyboard-response,740,1251686,learnblock2,727.3999999761581,img/planet8_left.png,8,Community 3,NA,TRUE,f,f,NA,NA,NA,NA,6,"7,12,2,1,11,6,5,4,10,14,9,8,3,13,15"
14084,commdev-image-keyboard-response,741,1252942,learnblock2,null,img/planet4_right.png,4,Community 2,NA,FALSE,null,j,NA,NA,NA,NA,6,"7,12,2,1,11,6,5,4,10,14,9,8,3,13,15"
14084,commdev-image-keyboard-response,742,1254196,learnblock2,null,img/planet10_right.png,10,Community 2,NA,FALSE,null,j,NA,NA,NA,NA,6,"7,12,2,1,11,6,5,4,10,14,9,8,3,13,15"
14084,commdev-image-keyboard-response,743,1255462,learnblock2,null,img/planet4_left.png,4,Community 2,NA,FALSE,null,f,NA,NA,NA,NA,6,"7,12,2,1,11,6,5,4,10,14,9,8,3,13,15"
14084,commdev-image-keyboard-response,744,1256719,learnblock2,786,img/planet14_left.png,14,Community 2,NA,TRUE,f,f,NA,NA,NA,NA,6,"7,12,2,1,11,6,5,4,10,14,9,8,3,13,15"
14084,commdev-image-keyboard-response,745,1257982,learnblock2,null,img/planet10_right.png,10,Community 2,NA,FALSE,null,j,NA,NA,NA,NA,6,"7,12,2,1,11,6,5,4,10,14,9,8,3,13,15"
14084,commdev-image-keyboard-response,746,1259237,learnblock2,671.6000000238419,img/planet6_right.png,6,Community 2,NA,FALSE,f,j,NA,NA,NA,NA,6,"7,12,2,1,11,6,5,4,10,14,9,8,3,13,15"
14084,commdev-image-keyboard-response,747,1260496,learnblock2,707.0999999046326,img/planet14_left.png,14,Community 2,NA,TRUE,f,f,NA,NA,NA,NA,6,"7,12,2,1,11,6,5,4,10,14,9,8,3,13,15"
14084,commdev-image-keyboard-response,748,1261749,learnblock2,482.89999997615814,img/planet6_right.png,6,Community 2,NA,FALSE,f,j,NA,NA,NA,NA,6,"7,12,2,1,11,6,5,4,10,14,9,8,3,13,15"
14084,commdev-image-keyboard-response,749,1263002,learnblock2,null,img/planet5_right.png,5,Community 2,NA,FALSE,null,j,NA,NA,NA,NA,6,"7,12,2,1,11,6,5,4,10,14,9,8,3,13,15"
14084,commdev-image-keyboard-response,750,1264257,learnblock2,null,img/planet14_right.png,14,Community 2,NA,FALSE,null,j,NA,NA,NA,NA,6,"7,12,2,1,11,6,5,4,10,14,9,8,3,13,15"
14084,commdev-image-keyboard-response,751,1265510,learnblock2,714.8000000715256,img/planet5_left.png,5,Community 2,NA,TRUE,f,f,NA,NA,NA,NA,6,"7,12,2,1,11,6,5,4,10,14,9,8,3,13,15"
14084,commdev-image-keyboard-response,752,1266770,learnblock2,null,img/planet10_right.png,10,Community 2,NA,FALSE,null,j,NA,NA,NA,NA,6,"7,12,2,1,11,6,5,4,10,14,9,8,3,13,15"
14084,commdev-image-keyboard-response,753,1268027,learnblock2,null,img/planet4_right.png,4,Community 2,NA,FALSE,null,j,NA,NA,NA,NA,6,"7,12,2,1,11,6,5,4,10,14,9,8,3,13,15"
14084,commdev-image-keyboard-response,754,1269279,learnblock2,null,img/planet14_right.png,14,Community 2,NA,FALSE,null,j,NA,NA,NA,NA,6,"7,12,2,1,11,6,5,4,10,14,9,8,3,13,15"
14084,commdev-image-keyboard-response,755,1270539,learnblock2,null,img/planet4_right.png,4,Community 2,NA,FALSE,null,j,NA,NA,NA,NA,6,"7,12,2,1,11,6,5,4,10,14,9,8,3,13,15"
14084,commdev-image-keyboard-response,756,1271793,learnblock2,null,img/planet14_right.png,14,Community 2,NA,FALSE,null,j,NA,NA,NA,NA,6,"7,12,2,1,11,6,5,4,10,14,9,8,3,13,15"
14084,commdev-image-keyboard-response,757,1273053,learnblock2,null,img/planet6_left.png,6,Community 2,NA,FALSE,null,f,NA,NA,NA,NA,6,"7,12,2,1,11,6,5,4,10,14,9,8,3,13,15"
