subject_id,trial_type,trial_index,time_elapsed,block,rt,stimulus,planet,community,response,correct,key_press,learning_correct_response,parse,init_locations,final_locations,browser_interactions,num_comp,planet_map
14416,commdev-instructions,7,49462,NA,13070,"<p>In this game, you will be shown a 3x3 grid of patterns.</p> <p>The last one in the bottom right-hand corner, <strong>will be missing:</strong></p> <div style='width: 700px;'><div style='float: top;'><img style='width: 200px;' src='practice/p1_M1.png'></img><p class='small'>You need to select<strong> which of the four possible patterns </strong>along the bottom<strong> fits into the gap:</strong></p></div><div style='float: top;'><img style='width: 300px;' src='practice/p1_T1.png'></img></div><br>",NA,NA,NA,NA,NA,NA,NA,NA,NA,1,6,"6,15,7,10,2,1,11,14,5,9,4,8,3,12,13"
14416,commdev-instructions,8,70447,NA,2447,"<p>Try to be as fast and as accurate as you can be.</p> <p>If you cannot solve the puzzle then you should guess - you will not be penalised for an incorrect answer.</p> <p>The task contains a shuffled mix of easy, medium and hard puzzles.</p> <p>You will have <strong>30 seconds</strong> to complete each puzzle.</p><br>",NA,NA,NA,NA,NA,NA,NA,NA,NA,1,6,"6,15,7,10,2,1,11,14,5,9,4,8,3,12,13"
14416,commdev-instructions,15,98251,NA,2293,<p><strong>Success!</strong></p> <p>You seem to be getting the hang of this...</p> <p>Let's move on to the real trials.</p><br>,NA,NA,NA,NA,NA,NA,NA,NA,NA,1,6,"6,15,7,10,2,1,11,14,5,9,4,8,3,12,13"
14416,commdev-instructions,89,592964,NA,3182,"<p>In this game, you are a scientist on board a space shuttle. </p><p> On each mission, you will visit planets all across the universe.</p><img src=""img/controlroom.jpg"" width=300vw>",NA,NA,NA,NA,NA,NA,NA,NA,NA,1,6,"6,15,7,10,2,1,11,14,5,9,4,8,3,12,13"
14416,commdev-instructions,90,596315,NA,1270,"<p>Here are a few planets you might see:</p><img src=""img/practice1.png"" width=200vw><img src=""img/practice2.png"" width=200vw><img src=""img/practice3.png"" width=200vw>",NA,NA,NA,NA,NA,NA,NA,NA,NA,1,6,"6,15,7,10,2,1,11,14,5,9,4,8,3,12,13"
14416,commdev-instructions,91,613783,NA,10062,"<p>Your job as a scientist is to record which direction the winds are moving on each planet.</p><p>There are two types of wind directions:</p><img src=""img/practice1_left.png"" width=200vw><img src=""img/practice1_right.png"" width=200vw>",NA,NA,NA,NA,NA,NA,NA,NA,NA,1,6,"6,15,7,10,2,1,11,14,5,9,4,8,3,12,13"
14416,commdev-instructions,92,621451,NA,2788,"<p>If the winds are moving this way, press the letter <strong>F</strong> on the keyboard as fast as you can.</p><img src=""img/leftwind.png"" width=250vw>",NA,NA,NA,NA,NA,NA,NA,NA,NA,1,6,"6,15,7,10,2,1,11,14,5,9,4,8,3,12,13"
14416,commdev-instructions,93,627268,NA,1319,"<p>If the winds are moving this way, press the letter <strong>J</strong> on the keyboard as fast as you can.</p><img src=""img/rightwind.png"" width=350vw>",NA,NA,NA,NA,NA,NA,NA,NA,NA,1,6,"6,15,7,10,2,1,11,14,5,9,4,8,3,12,13"
14416,commdev-instructions,94,633085,NA,1394,<p>You will have 1 second to respond. Try to respond before the time runs out!,NA,NA,NA,NA,NA,NA,NA,NA,NA,1,6,"6,15,7,10,2,1,11,14,5,9,4,8,3,12,13"
14416,commdev-instructions,95,639503,NA,990,<p>The planets you will visit will look different from each other.</p><p>You should respond <strong>only</strong> based on wind direction.,NA,NA,NA,NA,NA,NA,NA,NA,NA,1,6,"6,15,7,10,2,1,11,14,5,9,4,8,3,12,13"
14416,commdev-instructions,96,645586,NA,916,"<p> Ready to start the practice round? </p><p> Remember, press <strong>F</strong> or <strong>J</strong> depending on the wind direction.<br><img src=""img/categorize_planet_example.png""",NA,NA,NA,NA,NA,NA,NA,NA,NA,1,6,"6,15,7,10,2,1,11,14,5,9,4,8,3,12,13"
14416,commdev-instructions,108,695974,NA,1372.9999999998836,"<p>Great, now try a short practice mission. </p><p> This time, you will have 1 second to respond and you won't know whether you pressed the right or wrong key for each planet.</p>",NA,NA,NA,NA,NA,NA,NA,NA,NA,1,6,"6,15,7,10,2,1,11,14,5,9,4,8,3,12,13"
14416,commdev-image-keyboard-response,109,697330,practice,648.0000000001164,img/practice4_left.png,NA,Number not found in mappings,NA,TRUE,f,f,NA,NA,NA,1,6,"6,15,7,10,2,1,11,14,5,9,4,8,3,12,13"
14416,commdev-image-keyboard-response,110,698583,practice,822.9999999998836,img/practice3_left.png,NA,Number not found in mappings,NA,TRUE,f,f,NA,NA,NA,1,6,"6,15,7,10,2,1,11,14,5,9,4,8,3,12,13"
14416,commdev-image-keyboard-response,111,699837,practice,822,img/practice1_right.png,NA,Number not found in mappings,NA,TRUE,j,j,NA,NA,NA,1,6,"6,15,7,10,2,1,11,14,5,9,4,8,3,12,13"
14416,commdev-image-keyboard-response,112,701091,practice,721,img/practice3_right.png,NA,Number not found in mappings,NA,TRUE,j,j,NA,NA,NA,1,6,"6,15,7,10,2,1,11,14,5,9,4,8,3,12,13"
14416,commdev-image-keyboard-response,113,702345,practice,590.0000000001164,img/practice4_left.png,NA,Number not found in mappings,NA,TRUE,f,f,NA,NA,NA,1,6,"6,15,7,10,2,1,11,14,5,9,4,8,3,12,13"
14416,commdev-image-keyboard-response,114,703598,practice,574,img/practice1_left.png,NA,Number not found in mappings,NA,TRUE,f,f,NA,NA,NA,1,6,"6,15,7,10,2,1,11,14,5,9,4,8,3,12,13"
14416,commdev-image-keyboard-response,115,704852,practice,689.9999999998836,img/practice2_left.png,NA,Number not found in mappings,NA,TRUE,f,f,NA,NA,NA,1,6,"6,15,7,10,2,1,11,14,5,9,4,8,3,12,13"
14416,commdev-image-keyboard-response,116,706106,practice,566,img/practice3_left.png,NA,Number not found in mappings,NA,TRUE,f,f,NA,NA,NA,1,6,"6,15,7,10,2,1,11,14,5,9,4,8,3,12,13"
14416,commdev-instructions,117,718109,NA,2449.9999999998836,"<p>Great job with the practice round.</p><p>During real missions, you won't know whether you pressed the right or wrong key for each planet.</p><p>But between missions, we will tell you how you did overall.</p>",NA,NA,NA,NA,NA,NA,NA,NA,NA,1,6,"6,15,7,10,2,1,11,14,5,9,4,8,3,12,13"
14416,commdev-instructions,118,727593,NA,1244,<p>Try your best! You will be paid a bonus based on how many correct responses you make!</p><p>Responses that are too slow will not count toward your bonus.</p>,NA,NA,NA,NA,NA,NA,NA,NA,NA,1,6,"6,15,7,10,2,1,11,14,5,9,4,8,3,12,13"
14416,commdev-instructions,119,734894,NA,1102,"<p>You are almost ready to start the real game.</p><p> First, we are going to ask you some questions about how the game works.</p>",NA,NA,NA,NA,NA,NA,NA,NA,NA,1,6,"6,15,7,10,2,1,11,14,5,9,4,8,3,12,13"
14416,commdev-instructions,128,829153,NA,1845,"<p> Nice work! It is now time to start the real game.<p></p>You will go on two missions to record wind directions of different planets.<p></p>Each one will take about 5 minutes. You will get to take a break between missions.<p><p> Remember, press <strong>F</strong> or <strong>J</strong> depending on the wind direction. Good luck!<br><img src=""img/categorize_planet_example.png""",NA,NA,NA,NA,NA,NA,NA,NA,NA,1,6,"6,15,7,10,2,1,11,14,5,9,4,8,3,12,13"
14416,commdev-image-keyboard-response,130,831555,learnblock1,947,img/planet11_left.png,11,Community 2,NA,TRUE,f,f,NA,NA,NA,1,6,"6,15,7,10,2,1,11,14,5,9,4,8,3,12,13"
14416,commdev-image-keyboard-response,131,832809,learnblock1,741,img/planet9_left.png,9,Community 2,NA,TRUE,f,f,NA,NA,NA,1,6,"6,15,7,10,2,1,11,14,5,9,4,8,3,12,13"
14416,commdev-image-keyboard-response,132,834063,learnblock1,615.9999999998836,img/planet1_left.png,1,Community 2,NA,TRUE,f,f,NA,NA,NA,1,6,"6,15,7,10,2,1,11,14,5,9,4,8,3,12,13"
14416,commdev-image-keyboard-response,133,835317,learnblock1,591,img/planet10_left.png,10,Community 1,NA,TRUE,f,f,NA,NA,NA,1,6,"6,15,7,10,2,1,11,14,5,9,4,8,3,12,13"
14416,commdev-image-keyboard-response,134,836570,learnblock1,862,img/planet6_right.png,6,Community 1,NA,TRUE,j,j,NA,NA,NA,1,6,"6,15,7,10,2,1,11,14,5,9,4,8,3,12,13"
14416,commdev-image-keyboard-response,135,837822,learnblock1,717,img/planet2_right.png,2,Community 1,NA,TRUE,j,j,NA,NA,NA,1,6,"6,15,7,10,2,1,11,14,5,9,4,8,3,12,13"
14416,commdev-image-keyboard-response,136,839076,learnblock1,909,img/planet7_right.png,7,Community 1,NA,TRUE,j,j,NA,NA,NA,1,6,"6,15,7,10,2,1,11,14,5,9,4,8,3,12,13"
14416,commdev-image-keyboard-response,137,840330,learnblock1,755,img/planet15_left.png,15,Community 1,NA,TRUE,f,f,NA,NA,NA,1,6,"6,15,7,10,2,1,11,14,5,9,4,8,3,12,13"
14416,commdev-image-keyboard-response,138,841584,learnblock1,716,img/planet2_left.png,2,Community 1,NA,TRUE,f,f,NA,NA,NA,1,6,"6,15,7,10,2,1,11,14,5,9,4,8,3,12,13"
14416,commdev-image-keyboard-response,139,842838,learnblock1,921.9999999998836,img/planet7_right.png,7,Community 1,NA,TRUE,j,j,NA,NA,NA,1,6,"6,15,7,10,2,1,11,14,5,9,4,8,3,12,13"
14416,commdev-image-keyboard-response,140,844091,learnblock1,872,img/planet2_right.png,2,Community 1,NA,TRUE,j,j,NA,NA,NA,1,6,"6,15,7,10,2,1,11,14,5,9,4,8,3,12,13"
14416,commdev-image-keyboard-response,141,845345,learnblock1,null,img/planet15_right.png,15,Community 1,NA,FALSE,null,j,NA,NA,NA,1,6,"6,15,7,10,2,1,11,14,5,9,4,8,3,12,13"
14416,commdev-image-keyboard-response,142,846600,learnblock1,56,img/planet6_right.png,6,Community 1,NA,TRUE,j,j,NA,NA,NA,1,6,"6,15,7,10,2,1,11,14,5,9,4,8,3,12,13"
14416,commdev-image-keyboard-response,143,847854,learnblock1,706,img/planet10_right.png,10,Community 1,NA,TRUE,j,j,NA,NA,NA,1,6,"6,15,7,10,2,1,11,14,5,9,4,8,3,12,13"
14416,commdev-image-keyboard-response,144,849107,learnblock1,627,img/planet15_right.png,15,Community 1,NA,TRUE,j,j,NA,NA,NA,1,6,"6,15,7,10,2,1,11,14,5,9,4,8,3,12,13"
14416,commdev-image-keyboard-response,145,850361,learnblock1,608.9999999998836,img/planet7_left.png,7,Community 1,NA,TRUE,f,f,NA,NA,NA,1,6,"6,15,7,10,2,1,11,14,5,9,4,8,3,12,13"
14416,commdev-image-keyboard-response,146,851615,learnblock1,715,img/planet6_left.png,6,Community 1,NA,TRUE,f,f,NA,NA,NA,1,6,"6,15,7,10,2,1,11,14,5,9,4,8,3,12,13"
14416,commdev-image-keyboard-response,147,852869,learnblock1,726,img/planet2_left.png,2,Community 1,NA,TRUE,f,f,NA,NA,NA,1,6,"6,15,7,10,2,1,11,14,5,9,4,8,3,12,13"
14416,commdev-image-keyboard-response,148,854123,learnblock1,633,img/planet6_left.png,6,Community 1,NA,TRUE,f,f,NA,NA,NA,1,6,"6,15,7,10,2,1,11,14,5,9,4,8,3,12,13"
14416,commdev-image-keyboard-response,149,855377,learnblock1,590,img/planet2_left.png,2,Community 1,NA,TRUE,f,f,NA,NA,NA,1,6,"6,15,7,10,2,1,11,14,5,9,4,8,3,12,13"
14416,commdev-image-keyboard-response,150,856631,learnblock1,527.9999999998836,img/planet6_left.png,6,Community 1,NA,TRUE,f,f,NA,NA,NA,1,6,"6,15,7,10,2,1,11,14,5,9,4,8,3,12,13"
14416,commdev-image-keyboard-response,151,857885,learnblock1,611,img/planet7_left.png,7,Community 1,NA,TRUE,f,f,NA,NA,NA,1,6,"6,15,7,10,2,1,11,14,5,9,4,8,3,12,13"
14416,commdev-image-keyboard-response,152,859138,learnblock1,632,img/planet2_left.png,2,Community 1,NA,TRUE,f,f,NA,NA,NA,1,6,"6,15,7,10,2,1,11,14,5,9,4,8,3,12,13"
14416,commdev-image-keyboard-response,153,860392,learnblock1,524,img/planet6_left.png,6,Community 1,NA,TRUE,f,f,NA,NA,NA,1,6,"6,15,7,10,2,1,11,14,5,9,4,8,3,12,13"
14416,commdev-image-keyboard-response,154,861645,learnblock1,537,img/planet2_right.png,2,Community 1,NA,FALSE,f,j,NA,NA,NA,1,6,"6,15,7,10,2,1,11,14,5,9,4,8,3,12,13"
14416,commdev-image-keyboard-response,155,862899,learnblock1,803,img/planet7_right.png,7,Community 1,NA,TRUE,j,j,NA,NA,NA,1,6,"6,15,7,10,2,1,11,14,5,9,4,8,3,12,13"
14416,commdev-image-keyboard-response,156,864152,learnblock1,683,img/planet15_left.png,15,Community 1,NA,TRUE,f,f,NA,NA,NA,1,6,"6,15,7,10,2,1,11,14,5,9,4,8,3,12,13"
14416,commdev-image-keyboard-response,157,865405,learnblock1,751,img/planet6_right.png,6,Community 1,NA,TRUE,j,j,NA,NA,NA,1,6,"6,15,7,10,2,1,11,14,5,9,4,8,3,12,13"
14416,commdev-image-keyboard-response,158,866659,learnblock1,692,img/planet2_left.png,2,Community 1,NA,TRUE,f,f,NA,NA,NA,1,6,"6,15,7,10,2,1,11,14,5,9,4,8,3,12,13"
14416,commdev-image-keyboard-response,159,867912,learnblock1,599.0000000001164,img/planet15_right.png,15,Community 1,NA,FALSE,f,j,NA,NA,NA,1,6,"6,15,7,10,2,1,11,14,5,9,4,8,3,12,13"
14416,commdev-image-keyboard-response,160,869166,learnblock1,672.0000000001164,img/planet6_right.png,6,Community 1,NA,TRUE,j,j,NA,NA,NA,1,6,"6,15,7,10,2,1,11,14,5,9,4,8,3,12,13"
14416,commdev-image-keyboard-response,161,870418,learnblock1,734,img/planet2_right.png,2,Community 1,NA,TRUE,j,j,NA,NA,NA,1,6,"6,15,7,10,2,1,11,14,5,9,4,8,3,12,13"
14416,commdev-image-keyboard-response,162,871671,learnblock1,621,img/planet6_right.png,6,Community 1,NA,TRUE,j,j,NA,NA,NA,1,6,"6,15,7,10,2,1,11,14,5,9,4,8,3,12,13"
14416,commdev-image-keyboard-response,163,872925,learnblock1,653.0000000001164,img/planet7_left.png,7,Community 1,NA,TRUE,f,f,NA,NA,NA,1,6,"6,15,7,10,2,1,11,14,5,9,4,8,3,12,13"
14416,commdev-image-keyboard-response,164,874180,learnblock1,889,img/planet15_right.png,15,Community 1,NA,TRUE,j,j,NA,NA,NA,1,6,"6,15,7,10,2,1,11,14,5,9,4,8,3,12,13"
14416,commdev-image-keyboard-response,165,875434,learnblock1,683.9999999998836,img/planet6_right.png,6,Community 1,NA,TRUE,j,j,NA,NA,NA,1,6,"6,15,7,10,2,1,11,14,5,9,4,8,3,12,13"
14416,commdev-image-keyboard-response,166,876687,learnblock1,682,img/planet7_right.png,7,Community 1,NA,TRUE,j,j,NA,NA,NA,1,6,"6,15,7,10,2,1,11,14,5,9,4,8,3,12,13"
14416,commdev-image-keyboard-response,167,877940,learnblock1,637,img/planet10_left.png,10,Community 1,NA,TRUE,f,f,NA,NA,NA,1,6,"6,15,7,10,2,1,11,14,5,9,4,8,3,12,13"
14416,commdev-image-keyboard-response,168,879194,learnblock1,749,img/planet1_left.png,1,Community 2,NA,FALSE,j,f,NA,NA,NA,1,6,"6,15,7,10,2,1,11,14,5,9,4,8,3,12,13"
14416,commdev-image-keyboard-response,169,880447,learnblock1,642.9999999998836,img/planet9_right.png,9,Community 2,NA,TRUE,j,j,NA,NA,NA,1,6,"6,15,7,10,2,1,11,14,5,9,4,8,3,12,13"
14416,commdev-image-keyboard-response,170,881700,learnblock1,686.0000000001164,img/planet5_left.png,5,Community 2,NA,TRUE,f,f,NA,NA,NA,1,6,"6,15,7,10,2,1,11,14,5,9,4,8,3,12,13"
14416,commdev-image-keyboard-response,171,882953,learnblock1,683.9999999998836,img/planet14_left.png,14,Community 2,NA,TRUE,f,f,NA,NA,NA,1,6,"6,15,7,10,2,1,11,14,5,9,4,8,3,12,13"
14416,commdev-image-keyboard-response,172,884207,learnblock1,754,img/planet11_right.png,11,Community 2,NA,TRUE,j,j,NA,NA,NA,1,6,"6,15,7,10,2,1,11,14,5,9,4,8,3,12,13"
14416,commdev-image-keyboard-response,173,885459,learnblock1,862,img/planet5_left.png,5,Community 2,NA,TRUE,f,f,NA,NA,NA,1,6,"6,15,7,10,2,1,11,14,5,9,4,8,3,12,13"
14416,commdev-image-keyboard-response,174,886713,learnblock1,653.9999999998836,img/planet1_right.png,1,Community 2,NA,TRUE,j,j,NA,NA,NA,1,6,"6,15,7,10,2,1,11,14,5,9,4,8,3,12,13"
14416,commdev-image-keyboard-response,175,887967,learnblock1,680,img/planet5_right.png,5,Community 2,NA,TRUE,j,j,NA,NA,NA,1,6,"6,15,7,10,2,1,11,14,5,9,4,8,3,12,13"
14416,commdev-image-keyboard-response,176,889220,learnblock1,1129,img/planet14_right.png,14,Community 2,NA,TRUE,j,j,NA,NA,NA,1,6,"6,15,7,10,2,1,11,14,5,9,4,8,3,12,13"
14416,commdev-image-keyboard-response,177,890474,learnblock1,650,img/planet9_right.png,9,Community 2,NA,TRUE,j,j,NA,NA,NA,1,6,"6,15,7,10,2,1,11,14,5,9,4,8,3,12,13"
14416,commdev-image-keyboard-response,178,891728,learnblock1,688,img/planet14_right.png,14,Community 2,NA,TRUE,j,j,NA,NA,NA,1,6,"6,15,7,10,2,1,11,14,5,9,4,8,3,12,13"
14416,commdev-image-keyboard-response,179,892981,learnblock1,607.0000000001164,img/planet5_right.png,5,Community 2,NA,TRUE,j,j,NA,NA,NA,1,6,"6,15,7,10,2,1,11,14,5,9,4,8,3,12,13"
14416,commdev-image-keyboard-response,180,894235,learnblock1,587,img/planet1_left.png,1,Community 2,NA,TRUE,f,f,NA,NA,NA,1,6,"6,15,7,10,2,1,11,14,5,9,4,8,3,12,13"
14416,commdev-image-keyboard-response,181,895488,learnblock1,680,img/planet11_left.png,11,Community 2,NA,TRUE,f,f,NA,NA,NA,1,6,"6,15,7,10,2,1,11,14,5,9,4,8,3,12,13"
14416,commdev-image-keyboard-response,182,896742,learnblock1,663,img/planet1_right.png,1,Community 2,NA,TRUE,j,j,NA,NA,NA,1,6,"6,15,7,10,2,1,11,14,5,9,4,8,3,12,13"
14416,commdev-image-keyboard-response,183,897995,learnblock1,706,img/planet11_right.png,11,Community 2,NA,TRUE,j,j,NA,NA,NA,1,6,"6,15,7,10,2,1,11,14,5,9,4,8,3,12,13"
14416,commdev-image-keyboard-response,184,899248,learnblock1,559,img/planet9_left.png,9,Community 2,NA,TRUE,f,f,NA,NA,NA,1,6,"6,15,7,10,2,1,11,14,5,9,4,8,3,12,13"
14416,commdev-image-keyboard-response,185,900502,learnblock1,543,img/planet1_right.png,1,Community 2,NA,TRUE,j,j,NA,NA,NA,1,6,"6,15,7,10,2,1,11,14,5,9,4,8,3,12,13"
14416,commdev-image-keyboard-response,186,901756,learnblock1,504,img/planet5_left.png,5,Community 2,NA,TRUE,f,f,NA,NA,NA,1,6,"6,15,7,10,2,1,11,14,5,9,4,8,3,12,13"
14416,commdev-image-keyboard-response,187,903010,learnblock1,482,img/planet14_right.png,14,Community 2,NA,TRUE,j,j,NA,NA,NA,1,6,"6,15,7,10,2,1,11,14,5,9,4,8,3,12,13"
14416,commdev-image-keyboard-response,188,904263,learnblock1,764,img/planet8_right.png,8,Community 3,NA,TRUE,j,j,NA,NA,NA,1,6,"6,15,7,10,2,1,11,14,5,9,4,8,3,12,13"
14416,commdev-image-keyboard-response,189,905516,learnblock1,691,img/planet3_right.png,3,Community 3,NA,TRUE,j,j,NA,NA,NA,1,6,"6,15,7,10,2,1,11,14,5,9,4,8,3,12,13"
14416,commdev-image-keyboard-response,190,906770,learnblock1,596,img/planet4_right.png,4,Community 3,NA,TRUE,j,j,NA,NA,NA,1,6,"6,15,7,10,2,1,11,14,5,9,4,8,3,12,13"
14416,commdev-image-keyboard-response,191,908024,learnblock1,503,img/planet2_right.png,2,Community 1,NA,TRUE,j,j,NA,NA,NA,1,6,"6,15,7,10,2,1,11,14,5,9,4,8,3,12,13"
14416,commdev-image-keyboard-response,192,909278,learnblock1,634,img/planet4_left.png,4,Community 3,NA,TRUE,f,f,NA,NA,NA,1,6,"6,15,7,10,2,1,11,14,5,9,4,8,3,12,13"
14416,commdev-image-keyboard-response,193,910531,learnblock1,673.9999999998836,img/planet3_left.png,3,Community 3,NA,FALSE,j,f,NA,NA,NA,1,6,"6,15,7,10,2,1,11,14,5,9,4,8,3,12,13"
14416,commdev-image-keyboard-response,194,911784,learnblock1,571,img/planet4_right.png,4,Community 3,NA,TRUE,j,j,NA,NA,NA,1,6,"6,15,7,10,2,1,11,14,5,9,4,8,3,12,13"
14416,commdev-image-keyboard-response,195,913037,learnblock1,637.0000000001164,img/planet3_right.png,3,Community 3,NA,TRUE,j,j,NA,NA,NA,1,6,"6,15,7,10,2,1,11,14,5,9,4,8,3,12,13"
14416,commdev-image-keyboard-response,196,914290,learnblock1,559.9999999998836,img/planet13_left.png,13,Community 3,NA,TRUE,f,f,NA,NA,NA,1,6,"6,15,7,10,2,1,11,14,5,9,4,8,3,12,13"
14416,commdev-image-keyboard-response,197,915545,learnblock1,704,img/planet12_right.png,12,Community 3,NA,TRUE,j,j,NA,NA,NA,1,6,"6,15,7,10,2,1,11,14,5,9,4,8,3,12,13"
14416,commdev-image-keyboard-response,198,916798,learnblock1,543,img/planet13_left.png,13,Community 3,NA,TRUE,f,f,NA,NA,NA,1,6,"6,15,7,10,2,1,11,14,5,9,4,8,3,12,13"
14416,commdev-image-keyboard-response,199,918054,learnblock1,588,img/planet12_left.png,12,Community 3,NA,TRUE,f,f,NA,NA,NA,1,6,"6,15,7,10,2,1,11,14,5,9,4,8,3,12,13"
14416,commdev-image-keyboard-response,200,919308,learnblock1,553,img/planet4_left.png,4,Community 3,NA,TRUE,f,f,NA,NA,NA,1,6,"6,15,7,10,2,1,11,14,5,9,4,8,3,12,13"
14416,commdev-image-keyboard-response,201,920561,learnblock1,730,img/planet3_right.png,3,Community 3,NA,TRUE,j,j,NA,NA,NA,1,6,"6,15,7,10,2,1,11,14,5,9,4,8,3,12,13"
14416,commdev-image-keyboard-response,202,921814,learnblock1,705.9999999998836,img/planet12_right.png,12,Community 3,NA,TRUE,j,j,NA,NA,NA,1,6,"6,15,7,10,2,1,11,14,5,9,4,8,3,12,13"
14416,commdev-image-keyboard-response,203,923068,learnblock1,668,img/planet8_right.png,8,Community 3,NA,TRUE,j,j,NA,NA,NA,1,6,"6,15,7,10,2,1,11,14,5,9,4,8,3,12,13"
14416,commdev-image-keyboard-response,204,924322,learnblock1,644,img/planet3_left.png,3,Community 3,NA,TRUE,f,f,NA,NA,NA,1,6,"6,15,7,10,2,1,11,14,5,9,4,8,3,12,13"
14416,commdev-image-keyboard-response,205,925575,learnblock1,557.0000000001164,img/planet12_right.png,12,Community 3,NA,TRUE,j,j,NA,NA,NA,1,6,"6,15,7,10,2,1,11,14,5,9,4,8,3,12,13"
14416,commdev-image-keyboard-response,206,926828,learnblock1,559.0000000001164,img/planet13_left.png,13,Community 3,NA,TRUE,f,f,NA,NA,NA,1,6,"6,15,7,10,2,1,11,14,5,9,4,8,3,12,13"
14416,commdev-image-keyboard-response,207,928081,learnblock1,568,img/planet4_right.png,4,Community 3,NA,TRUE,j,j,NA,NA,NA,1,6,"6,15,7,10,2,1,11,14,5,9,4,8,3,12,13"
14416,commdev-image-keyboard-response,208,929334,learnblock1,683.9999999998836,img/planet13_right.png,13,Community 3,NA,TRUE,j,j,NA,NA,NA,1,6,"6,15,7,10,2,1,11,14,5,9,4,8,3,12,13"
14416,commdev-image-keyboard-response,209,930588,learnblock1,565,img/planet12_left.png,12,Community 3,NA,TRUE,f,f,NA,NA,NA,1,6,"6,15,7,10,2,1,11,14,5,9,4,8,3,12,13"
14416,commdev-image-keyboard-response,210,931842,learnblock1,586,img/planet3_right.png,3,Community 3,NA,TRUE,j,j,NA,NA,NA,1,6,"6,15,7,10,2,1,11,14,5,9,4,8,3,12,13"
14416,commdev-image-keyboard-response,211,933096,learnblock1,630,img/planet8_right.png,8,Community 3,NA,FALSE,f,j,NA,NA,NA,1,6,"6,15,7,10,2,1,11,14,5,9,4,8,3,12,13"
14416,commdev-image-keyboard-response,212,934350,learnblock1,618,img/planet13_left.png,13,Community 3,NA,TRUE,f,f,NA,NA,NA,1,6,"6,15,7,10,2,1,11,14,5,9,4,8,3,12,13"
14416,commdev-image-keyboard-response,213,935604,learnblock1,761,img/planet3_left.png,3,Community 3,NA,TRUE,f,f,NA,NA,NA,1,6,"6,15,7,10,2,1,11,14,5,9,4,8,3,12,13"
14416,commdev-image-keyboard-response,214,936858,learnblock1,822,img/planet8_left.png,8,Community 3,NA,TRUE,f,f,NA,NA,NA,1,6,"6,15,7,10,2,1,11,14,5,9,4,8,3,12,13"
14416,commdev-image-keyboard-response,215,938112,learnblock1,686,img/planet3_left.png,3,Community 3,NA,TRUE,f,f,NA,NA,NA,1,6,"6,15,7,10,2,1,11,14,5,9,4,8,3,12,13"
14416,commdev-image-keyboard-response,216,939365,learnblock1,674,img/planet12_left.png,12,Community 3,NA,TRUE,f,f,NA,NA,NA,1,6,"6,15,7,10,2,1,11,14,5,9,4,8,3,12,13"
14416,commdev-image-keyboard-response,217,940618,learnblock1,716.0000000001164,img/planet13_right.png,13,Community 3,NA,TRUE,j,j,NA,NA,NA,1,6,"6,15,7,10,2,1,11,14,5,9,4,8,3,12,13"
14416,commdev-image-keyboard-response,218,941872,learnblock1,719.9999999998836,img/planet3_left.png,3,Community 3,NA,TRUE,f,f,NA,NA,NA,1,6,"6,15,7,10,2,1,11,14,5,9,4,8,3,12,13"
14416,commdev-image-keyboard-response,219,943127,learnblock1,669,img/planet12_left.png,12,Community 3,NA,TRUE,f,f,NA,NA,NA,1,6,"6,15,7,10,2,1,11,14,5,9,4,8,3,12,13"
14416,commdev-image-keyboard-response,220,944381,learnblock1,620,img/planet4_left.png,4,Community 3,NA,TRUE,f,f,NA,NA,NA,1,6,"6,15,7,10,2,1,11,14,5,9,4,8,3,12,13"
14416,commdev-image-keyboard-response,221,945635,learnblock1,596,img/planet13_left.png,13,Community 3,NA,TRUE,f,f,NA,NA,NA,1,6,"6,15,7,10,2,1,11,14,5,9,4,8,3,12,13"
14416,commdev-image-keyboard-response,222,946888,learnblock1,600.0000000001164,img/planet12_left.png,12,Community 3,NA,TRUE,f,f,NA,NA,NA,1,6,"6,15,7,10,2,1,11,14,5,9,4,8,3,12,13"
14416,commdev-image-keyboard-response,223,948141,learnblock1,711,img/planet8_right.png,8,Community 3,NA,TRUE,j,j,NA,NA,NA,1,6,"6,15,7,10,2,1,11,14,5,9,4,8,3,12,13"
14416,commdev-image-keyboard-response,224,949394,learnblock1,815.0000000001164,img/planet14_right.png,14,Community 2,NA,TRUE,j,j,NA,NA,NA,1,6,"6,15,7,10,2,1,11,14,5,9,4,8,3,12,13"
14416,commdev-image-keyboard-response,225,950648,learnblock1,767,img/planet9_left.png,9,Community 2,NA,TRUE,f,f,NA,NA,NA,1,6,"6,15,7,10,2,1,11,14,5,9,4,8,3,12,13"
14416,commdev-image-keyboard-response,226,951902,learnblock1,636.9999999998836,img/planet5_right.png,5,Community 2,NA,TRUE,j,j,NA,NA,NA,1,6,"6,15,7,10,2,1,11,14,5,9,4,8,3,12,13"
14416,commdev-image-keyboard-response,227,953156,learnblock1,477.0000000001164,img/planet9_right.png,9,Community 2,NA,TRUE,j,j,NA,NA,NA,1,6,"6,15,7,10,2,1,11,14,5,9,4,8,3,12,13"
14416,commdev-image-keyboard-response,228,954410,learnblock1,588.0000000001164,img/planet5_left.png,5,Community 2,NA,TRUE,f,f,NA,NA,NA,1,6,"6,15,7,10,2,1,11,14,5,9,4,8,3,12,13"
14416,commdev-image-keyboard-response,229,955664,learnblock1,578,img/planet11_left.png,11,Community 2,NA,TRUE,f,f,NA,NA,NA,1,6,"6,15,7,10,2,1,11,14,5,9,4,8,3,12,13"
14416,commdev-image-keyboard-response,230,956917,learnblock1,608.9999999998836,img/planet14_left.png,14,Community 2,NA,TRUE,f,f,NA,NA,NA,1,6,"6,15,7,10,2,1,11,14,5,9,4,8,3,12,13"
14416,commdev-image-keyboard-response,231,958170,learnblock1,671,img/planet5_left.png,5,Community 2,NA,TRUE,f,f,NA,NA,NA,1,6,"6,15,7,10,2,1,11,14,5,9,4,8,3,12,13"
14416,commdev-image-keyboard-response,232,959423,learnblock1,643,img/planet11_right.png,11,Community 2,NA,TRUE,j,j,NA,NA,NA,1,6,"6,15,7,10,2,1,11,14,5,9,4,8,3,12,13"
14416,commdev-image-keyboard-response,233,960676,learnblock1,546.9999999998836,img/planet14_right.png,14,Community 2,NA,TRUE,j,j,NA,NA,NA,1,6,"6,15,7,10,2,1,11,14,5,9,4,8,3,12,13"
14416,commdev-image-keyboard-response,234,961929,learnblock1,599,img/planet8_left.png,8,Community 3,NA,TRUE,f,f,NA,NA,NA,1,6,"6,15,7,10,2,1,11,14,5,9,4,8,3,12,13"
14416,commdev-image-keyboard-response,235,963183,learnblock1,571,img/planet12_left.png,12,Community 3,NA,TRUE,f,f,NA,NA,NA,1,6,"6,15,7,10,2,1,11,14,5,9,4,8,3,12,13"
14416,commdev-image-keyboard-response,236,964436,learnblock1,558,img/planet3_left.png,3,Community 3,NA,TRUE,f,f,NA,NA,NA,1,6,"6,15,7,10,2,1,11,14,5,9,4,8,3,12,13"
14416,commdev-image-keyboard-response,237,965689,learnblock1,621,img/planet4_left.png,4,Community 3,NA,TRUE,f,f,NA,NA,NA,1,6,"6,15,7,10,2,1,11,14,5,9,4,8,3,12,13"
14416,commdev-image-keyboard-response,238,966943,learnblock1,674,img/planet13_right.png,13,Community 3,NA,TRUE,j,j,NA,NA,NA,1,6,"6,15,7,10,2,1,11,14,5,9,4,8,3,12,13"
14416,commdev-image-keyboard-response,239,968196,learnblock1,650,img/planet3_right.png,3,Community 3,NA,FALSE,f,j,NA,NA,NA,1,6,"6,15,7,10,2,1,11,14,5,9,4,8,3,12,13"
14416,commdev-image-keyboard-response,240,969449,learnblock1,559.0000000001164,img/planet8_left.png,8,Community 3,NA,TRUE,f,f,NA,NA,NA,1,6,"6,15,7,10,2,1,11,14,5,9,4,8,3,12,13"
14416,commdev-image-keyboard-response,241,970703,learnblock1,784,img/planet13_left.png,13,Community 3,NA,TRUE,f,f,NA,NA,NA,1,6,"6,15,7,10,2,1,11,14,5,9,4,8,3,12,13"
14416,commdev-image-keyboard-response,242,971956,learnblock1,596,img/planet3_right.png,3,Community 3,NA,TRUE,j,j,NA,NA,NA,1,6,"6,15,7,10,2,1,11,14,5,9,4,8,3,12,13"
14416,commdev-image-keyboard-response,243,973210,learnblock1,523,img/planet12_left.png,12,Community 3,NA,TRUE,f,f,NA,NA,NA,1,6,"6,15,7,10,2,1,11,14,5,9,4,8,3,12,13"
14416,commdev-image-keyboard-response,244,974464,learnblock1,699.0000000001164,img/planet13_right.png,13,Community 3,NA,TRUE,j,j,NA,NA,NA,1,6,"6,15,7,10,2,1,11,14,5,9,4,8,3,12,13"
14416,commdev-image-keyboard-response,245,975717,learnblock1,521,img/planet4_left.png,4,Community 3,NA,TRUE,f,f,NA,NA,NA,1,6,"6,15,7,10,2,1,11,14,5,9,4,8,3,12,13"
14416,commdev-image-keyboard-response,246,976972,learnblock1,683,img/planet3_right.png,3,Community 3,NA,TRUE,j,j,NA,NA,NA,1,6,"6,15,7,10,2,1,11,14,5,9,4,8,3,12,13"
14416,commdev-image-keyboard-response,247,978225,learnblock1,1077,img/planet13_right.png,13,Community 3,NA,TRUE,j,j,NA,NA,NA,1,6,"6,15,7,10,2,1,11,14,5,9,4,8,3,12,13"
14416,commdev-image-keyboard-response,248,979479,learnblock1,725,img/planet8_right.png,8,Community 3,NA,TRUE,j,j,NA,NA,NA,1,6,"6,15,7,10,2,1,11,14,5,9,4,8,3,12,13"
14416,commdev-image-keyboard-response,249,980733,learnblock1,619,img/planet3_left.png,3,Community 3,NA,TRUE,f,f,NA,NA,NA,1,6,"6,15,7,10,2,1,11,14,5,9,4,8,3,12,13"
14416,commdev-image-keyboard-response,250,981986,learnblock1,632,img/planet4_right.png,4,Community 3,NA,TRUE,j,j,NA,NA,NA,1,6,"6,15,7,10,2,1,11,14,5,9,4,8,3,12,13"
14416,commdev-image-keyboard-response,251,983240,learnblock1,1091,img/planet12_left.png,12,Community 3,NA,TRUE,f,f,NA,NA,NA,1,6,"6,15,7,10,2,1,11,14,5,9,4,8,3,12,13"
14416,commdev-image-keyboard-response,252,984494,learnblock1,733,img/planet8_right.png,8,Community 3,NA,TRUE,j,j,NA,NA,NA,1,6,"6,15,7,10,2,1,11,14,5,9,4,8,3,12,13"
14416,commdev-image-keyboard-response,253,985748,learnblock1,1009,img/planet3_right.png,3,Community 3,NA,TRUE,j,j,NA,NA,NA,1,6,"6,15,7,10,2,1,11,14,5,9,4,8,3,12,13"
14416,commdev-image-keyboard-response,254,987002,learnblock1,957,img/planet4_left.png,4,Community 3,NA,TRUE,f,f,NA,NA,NA,1,6,"6,15,7,10,2,1,11,14,5,9,4,8,3,12,13"
14416,commdev-image-keyboard-response,255,988256,learnblock1,701,img/planet3_right.png,3,Community 3,NA,TRUE,j,j,NA,NA,NA,1,6,"6,15,7,10,2,1,11,14,5,9,4,8,3,12,13"
14416,commdev-image-keyboard-response,256,989509,learnblock1,705,img/planet8_right.png,8,Community 3,NA,TRUE,j,j,NA,NA,NA,1,6,"6,15,7,10,2,1,11,14,5,9,4,8,3,12,13"
14416,commdev-image-keyboard-response,257,990763,learnblock1,591.9999999998836,img/planet14_right.png,14,Community 2,NA,TRUE,j,j,NA,NA,NA,1,6,"6,15,7,10,2,1,11,14,5,9,4,8,3,12,13"
14416,commdev-image-keyboard-response,258,992017,learnblock1,522,img/planet11_left.png,11,Community 2,NA,TRUE,f,f,NA,NA,NA,1,6,"6,15,7,10,2,1,11,14,5,9,4,8,3,12,13"
14416,commdev-image-keyboard-response,259,993269,learnblock1,null,img/planet14_left.png,14,Community 2,NA,FALSE,null,f,NA,NA,NA,1,6,"6,15,7,10,2,1,11,14,5,9,4,8,3,12,13"
14416,commdev-image-keyboard-response,260,994523,learnblock1,180,img/planet11_right.png,11,Community 2,NA,FALSE,f,j,NA,NA,NA,1,6,"6,15,7,10,2,1,11,14,5,9,4,8,3,12,13"
14416,commdev-image-keyboard-response,261,995777,learnblock1,1007,img/planet5_right.png,5,Community 2,NA,FALSE,f,j,NA,NA,NA,1,6,"6,15,7,10,2,1,11,14,5,9,4,8,3,12,13"
14416,commdev-image-keyboard-response,262,997031,learnblock1,840,img/planet1_left.png,1,Community 2,NA,TRUE,f,f,NA,NA,NA,1,6,"6,15,7,10,2,1,11,14,5,9,4,8,3,12,13"
14416,commdev-image-keyboard-response,263,998285,learnblock1,730.0000000001164,img/planet11_left.png,11,Community 2,NA,TRUE,f,f,NA,NA,NA,1,6,"6,15,7,10,2,1,11,14,5,9,4,8,3,12,13"
14416,commdev-image-keyboard-response,264,999538,learnblock1,622.9999999998836,img/planet5_right.png,5,Community 2,NA,TRUE,j,j,NA,NA,NA,1,6,"6,15,7,10,2,1,11,14,5,9,4,8,3,12,13"
14416,commdev-image-keyboard-response,265,1000792,learnblock1,638,img/planet11_right.png,11,Community 2,NA,TRUE,j,j,NA,NA,NA,1,6,"6,15,7,10,2,1,11,14,5,9,4,8,3,12,13"
14416,commdev-image-keyboard-response,266,1002047,learnblock1,716,img/planet9_left.png,9,Community 2,NA,TRUE,f,f,NA,NA,NA,1,6,"6,15,7,10,2,1,11,14,5,9,4,8,3,12,13"
14416,commdev-image-keyboard-response,267,1003300,learnblock1,615,img/planet11_left.png,11,Community 2,NA,TRUE,f,f,NA,NA,NA,1,6,"6,15,7,10,2,1,11,14,5,9,4,8,3,12,13"
14416,commdev-image-keyboard-response,268,1004554,learnblock1,647,img/planet1_left.png,1,Community 2,NA,TRUE,f,f,NA,NA,NA,1,6,"6,15,7,10,2,1,11,14,5,9,4,8,3,12,13"
14416,commdev-image-keyboard-response,269,1005808,learnblock1,757,img/planet10_right.png,10,Community 1,NA,TRUE,j,j,NA,NA,NA,1,6,"6,15,7,10,2,1,11,14,5,9,4,8,3,12,13"
14416,commdev-image-keyboard-response,270,1007061,learnblock1,711.9999999998836,img/planet7_right.png,7,Community 1,NA,TRUE,j,j,NA,NA,NA,1,6,"6,15,7,10,2,1,11,14,5,9,4,8,3,12,13"
14416,commdev-image-keyboard-response,271,1008315,learnblock1,627.0000000001164,img/planet15_right.png,15,Community 1,NA,FALSE,f,j,NA,NA,NA,1,6,"6,15,7,10,2,1,11,14,5,9,4,8,3,12,13"
14416,commdev-image-keyboard-response,272,1009569,learnblock1,686.0000000001164,img/planet6_right.png,6,Community 1,NA,TRUE,j,j,NA,NA,NA,1,6,"6,15,7,10,2,1,11,14,5,9,4,8,3,12,13"
14416,commdev-image-keyboard-response,273,1010821,learnblock1,586.0000000001164,img/planet10_left.png,10,Community 1,NA,TRUE,f,f,NA,NA,NA,1,6,"6,15,7,10,2,1,11,14,5,9,4,8,3,12,13"
14416,commdev-image-keyboard-response,274,1012075,learnblock1,715,img/planet7_right.png,7,Community 1,NA,TRUE,j,j,NA,NA,NA,1,6,"6,15,7,10,2,1,11,14,5,9,4,8,3,12,13"
14416,commdev-image-keyboard-response,275,1013329,learnblock1,531.0000000001164,img/planet2_right.png,2,Community 1,NA,TRUE,j,j,NA,NA,NA,1,6,"6,15,7,10,2,1,11,14,5,9,4,8,3,12,13"
14416,commdev-image-keyboard-response,276,1014583,learnblock1,559,img/planet4_right.png,4,Community 3,NA,TRUE,j,j,NA,NA,NA,1,6,"6,15,7,10,2,1,11,14,5,9,4,8,3,12,13"
14416,commdev-image-keyboard-response,277,1015836,learnblock1,585.9999999998836,img/planet3_right.png,3,Community 3,NA,TRUE,j,j,NA,NA,NA,1,6,"6,15,7,10,2,1,11,14,5,9,4,8,3,12,13"
14416,commdev-image-keyboard-response,278,1017089,learnblock1,536,img/planet12_left.png,12,Community 3,NA,TRUE,f,f,NA,NA,NA,1,6,"6,15,7,10,2,1,11,14,5,9,4,8,3,12,13"
14416,commdev-image-keyboard-response,279,1018343,learnblock1,498.0000000001164,img/planet4_left.png,4,Community 3,NA,TRUE,f,f,NA,NA,NA,1,6,"6,15,7,10,2,1,11,14,5,9,4,8,3,12,13"
14416,commdev-image-keyboard-response,280,1019597,learnblock1,562,img/planet13_left.png,13,Community 3,NA,TRUE,f,f,NA,NA,NA,1,6,"6,15,7,10,2,1,11,14,5,9,4,8,3,12,13"
14416,commdev-image-keyboard-response,281,1020850,learnblock1,726.9999999998836,img/planet4_left.png,4,Community 3,NA,TRUE,f,f,NA,NA,NA,1,6,"6,15,7,10,2,1,11,14,5,9,4,8,3,12,13"
14416,commdev-image-keyboard-response,282,1022103,learnblock1,787.0000000001164,img/planet3_left.png,3,Community 3,NA,TRUE,f,f,NA,NA,NA,1,6,"6,15,7,10,2,1,11,14,5,9,4,8,3,12,13"
14416,commdev-image-keyboard-response,283,1023356,learnblock1,692,img/planet4_left.png,4,Community 3,NA,TRUE,f,f,NA,NA,NA,1,6,"6,15,7,10,2,1,11,14,5,9,4,8,3,12,13"
14416,commdev-image-keyboard-response,284,1024608,learnblock1,539,img/planet2_left.png,2,Community 1,NA,TRUE,f,f,NA,NA,NA,1,6,"6,15,7,10,2,1,11,14,5,9,4,8,3,12,13"
14416,commdev-image-keyboard-response,285,1025862,learnblock1,557.0000000001164,img/planet6_left.png,6,Community 1,NA,TRUE,f,f,NA,NA,NA,1,6,"6,15,7,10,2,1,11,14,5,9,4,8,3,12,13"
14416,commdev-image-keyboard-response,286,1027116,learnblock1,498,img/planet2_left.png,2,Community 1,NA,TRUE,f,f,NA,NA,NA,1,6,"6,15,7,10,2,1,11,14,5,9,4,8,3,12,13"
14416,commdev-image-keyboard-response,287,1028370,learnblock1,543.0000000001164,img/planet6_left.png,6,Community 1,NA,TRUE,f,f,NA,NA,NA,1,6,"6,15,7,10,2,1,11,14,5,9,4,8,3,12,13"
14416,commdev-image-keyboard-response,288,1029623,learnblock1,618,img/planet15_left.png,15,Community 1,NA,TRUE,f,f,NA,NA,NA,1,6,"6,15,7,10,2,1,11,14,5,9,4,8,3,12,13"
14416,commdev-image-keyboard-response,289,1030878,learnblock1,536.0000000001164,img/planet2_right.png,2,Community 1,NA,TRUE,j,j,NA,NA,NA,1,6,"6,15,7,10,2,1,11,14,5,9,4,8,3,12,13"
14416,commdev-image-keyboard-response,290,1032132,learnblock1,614.0000000001164,img/planet7_left.png,7,Community 1,NA,FALSE,j,f,NA,NA,NA,1,6,"6,15,7,10,2,1,11,14,5,9,4,8,3,12,13"
14416,commdev-image-keyboard-response,291,1033386,learnblock1,566.0000000001164,img/planet2_right.png,2,Community 1,NA,TRUE,j,j,NA,NA,NA,1,6,"6,15,7,10,2,1,11,14,5,9,4,8,3,12,13"
14416,commdev-image-keyboard-response,292,1034640,learnblock1,680,img/planet6_left.png,6,Community 1,NA,TRUE,f,f,NA,NA,NA,1,6,"6,15,7,10,2,1,11,14,5,9,4,8,3,12,13"
14416,commdev-image-keyboard-response,293,1035894,learnblock1,622.9999999997672,img/planet15_left.png,15,Community 1,NA,TRUE,f,f,NA,NA,NA,1,6,"6,15,7,10,2,1,11,14,5,9,4,8,3,12,13"
14416,commdev-image-keyboard-response,294,1037147,learnblock1,535.0000000001164,img/planet10_left.png,10,Community 1,NA,TRUE,f,f,NA,NA,NA,1,6,"6,15,7,10,2,1,11,14,5,9,4,8,3,12,13"
14416,commdev-image-keyboard-response,295,1038400,learnblock1,621.0000000001164,img/planet7_right.png,7,Community 1,NA,TRUE,j,j,NA,NA,NA,1,6,"6,15,7,10,2,1,11,14,5,9,4,8,3,12,13"
14416,commdev-image-keyboard-response,296,1039654,learnblock1,481.9999999998836,img/planet10_left.png,10,Community 1,NA,TRUE,f,f,NA,NA,NA,1,6,"6,15,7,10,2,1,11,14,5,9,4,8,3,12,13"
14416,commdev-image-keyboard-response,297,1040907,learnblock1,557,img/planet7_left.png,7,Community 1,NA,TRUE,f,f,NA,NA,NA,1,6,"6,15,7,10,2,1,11,14,5,9,4,8,3,12,13"
14416,commdev-image-keyboard-response,298,1042160,learnblock1,543.9999999998836,img/planet15_right.png,15,Community 1,NA,TRUE,j,j,NA,NA,NA,1,6,"6,15,7,10,2,1,11,14,5,9,4,8,3,12,13"
14416,commdev-image-keyboard-response,299,1043414,learnblock1,586,img/planet2_right.png,2,Community 1,NA,TRUE,j,j,NA,NA,NA,1,6,"6,15,7,10,2,1,11,14,5,9,4,8,3,12,13"
14416,commdev-image-keyboard-response,300,1044667,learnblock1,997.0000000001164,img/planet7_right.png,7,Community 1,NA,FALSE,f,j,NA,NA,NA,1,6,"6,15,7,10,2,1,11,14,5,9,4,8,3,12,13"
14416,commdev-image-keyboard-response,301,1045921,learnblock1,580.9999999998836,img/planet15_left.png,15,Community 1,NA,TRUE,f,f,NA,NA,NA,1,6,"6,15,7,10,2,1,11,14,5,9,4,8,3,12,13"
14416,commdev-image-keyboard-response,302,1047173,learnblock1,539,img/planet10_right.png,10,Community 1,NA,TRUE,j,j,NA,NA,NA,1,6,"6,15,7,10,2,1,11,14,5,9,4,8,3,12,13"
14416,commdev-image-keyboard-response,303,1048426,learnblock1,522,img/planet1_left.png,1,Community 2,NA,TRUE,f,f,NA,NA,NA,1,6,"6,15,7,10,2,1,11,14,5,9,4,8,3,12,13"
14416,commdev-image-keyboard-response,304,1049681,learnblock1,577,img/planet9_right.png,9,Community 2,NA,TRUE,j,j,NA,NA,NA,1,6,"6,15,7,10,2,1,11,14,5,9,4,8,3,12,13"
14416,commdev-image-keyboard-response,305,1050935,learnblock1,524,img/planet11_left.png,11,Community 2,NA,TRUE,f,f,NA,NA,NA,1,6,"6,15,7,10,2,1,11,14,5,9,4,8,3,12,13"
14416,commdev-image-keyboard-response,306,1052187,learnblock1,555,img/planet1_right.png,1,Community 2,NA,TRUE,j,j,NA,NA,NA,1,6,"6,15,7,10,2,1,11,14,5,9,4,8,3,12,13"
14416,commdev-image-keyboard-response,307,1053440,learnblock1,717.9999999997672,img/planet9_right.png,9,Community 2,NA,TRUE,j,j,NA,NA,NA,1,6,"6,15,7,10,2,1,11,14,5,9,4,8,3,12,13"
14416,commdev-image-keyboard-response,308,1054692,learnblock1,684,img/planet14_left.png,14,Community 2,NA,TRUE,f,f,NA,NA,NA,1,6,"6,15,7,10,2,1,11,14,5,9,4,8,3,12,13"
14416,commdev-image-keyboard-response,309,1055947,learnblock1,571.0000000002328,img/planet11_left.png,11,Community 2,NA,TRUE,f,f,NA,NA,NA,1,6,"6,15,7,10,2,1,11,14,5,9,4,8,3,12,13"
14416,commdev-image-keyboard-response,310,1057200,learnblock1,744.9999999997672,img/planet1_left.png,1,Community 2,NA,FALSE,j,f,NA,NA,NA,1,6,"6,15,7,10,2,1,11,14,5,9,4,8,3,12,13"
14416,commdev-image-keyboard-response,311,1058454,learnblock1,488,img/planet11_right.png,11,Community 2,NA,TRUE,j,j,NA,NA,NA,1,6,"6,15,7,10,2,1,11,14,5,9,4,8,3,12,13"
14416,commdev-image-keyboard-response,312,1059707,learnblock1,649,img/planet14_right.png,14,Community 2,NA,TRUE,j,j,NA,NA,NA,1,6,"6,15,7,10,2,1,11,14,5,9,4,8,3,12,13"
14416,commdev-image-keyboard-response,313,1060960,learnblock1,732,img/planet9_right.png,9,Community 2,NA,TRUE,j,j,NA,NA,NA,1,6,"6,15,7,10,2,1,11,14,5,9,4,8,3,12,13"
14416,commdev-image-keyboard-response,314,1062214,learnblock1,742,img/planet1_left.png,1,Community 2,NA,TRUE,f,f,NA,NA,NA,1,6,"6,15,7,10,2,1,11,14,5,9,4,8,3,12,13"
14416,commdev-image-keyboard-response,315,1063467,learnblock1,1001,img/planet9_left.png,9,Community 2,NA,TRUE,f,f,NA,NA,NA,1,6,"6,15,7,10,2,1,11,14,5,9,4,8,3,12,13"
14416,commdev-image-keyboard-response,316,1064721,learnblock1,744,img/planet5_right.png,5,Community 2,NA,TRUE,j,j,NA,NA,NA,1,6,"6,15,7,10,2,1,11,14,5,9,4,8,3,12,13"
14416,commdev-image-keyboard-response,317,1065975,learnblock1,727,img/planet1_right.png,1,Community 2,NA,TRUE,j,j,NA,NA,NA,1,6,"6,15,7,10,2,1,11,14,5,9,4,8,3,12,13"
14416,commdev-image-keyboard-response,318,1067228,learnblock1,561,img/planet11_left.png,11,Community 2,NA,TRUE,f,f,NA,NA,NA,1,6,"6,15,7,10,2,1,11,14,5,9,4,8,3,12,13"
14416,commdev-image-keyboard-response,319,1068482,learnblock1,514,img/planet9_left.png,9,Community 2,NA,TRUE,f,f,NA,NA,NA,1,6,"6,15,7,10,2,1,11,14,5,9,4,8,3,12,13"
14416,commdev-image-keyboard-response,320,1069735,learnblock1,665,img/planet1_left.png,1,Community 2,NA,TRUE,f,f,NA,NA,NA,1,6,"6,15,7,10,2,1,11,14,5,9,4,8,3,12,13"
14416,commdev-image-keyboard-response,321,1070989,learnblock1,675.9999999997672,img/planet10_left.png,10,Community 1,NA,TRUE,f,f,NA,NA,NA,1,6,"6,15,7,10,2,1,11,14,5,9,4,8,3,12,13"
14416,commdev-image-keyboard-response,322,1072242,learnblock1,629,img/planet6_left.png,6,Community 1,NA,TRUE,f,f,NA,NA,NA,1,6,"6,15,7,10,2,1,11,14,5,9,4,8,3,12,13"
14416,commdev-image-keyboard-response,323,1073495,learnblock1,661,img/planet7_right.png,7,Community 1,NA,TRUE,j,j,NA,NA,NA,1,6,"6,15,7,10,2,1,11,14,5,9,4,8,3,12,13"
14416,commdev-image-keyboard-response,324,1074747,learnblock1,808,img/planet2_left.png,2,Community 1,NA,TRUE,f,f,NA,NA,NA,1,6,"6,15,7,10,2,1,11,14,5,9,4,8,3,12,13"
14416,commdev-image-keyboard-response,325,1076000,learnblock1,699,img/planet15_left.png,15,Community 1,NA,TRUE,f,f,NA,NA,NA,1,6,"6,15,7,10,2,1,11,14,5,9,4,8,3,12,13"
14416,commdev-image-keyboard-response,326,1077254,learnblock1,641,img/planet6_right.png,6,Community 1,NA,TRUE,j,j,NA,NA,NA,1,6,"6,15,7,10,2,1,11,14,5,9,4,8,3,12,13"
14416,commdev-image-keyboard-response,327,1078508,learnblock1,557,img/planet10_left.png,10,Community 1,NA,TRUE,f,f,NA,NA,NA,1,6,"6,15,7,10,2,1,11,14,5,9,4,8,3,12,13"
14416,commdev-image-keyboard-response,328,1079762,learnblock1,519,img/planet15_left.png,15,Community 1,NA,TRUE,f,f,NA,NA,NA,1,6,"6,15,7,10,2,1,11,14,5,9,4,8,3,12,13"
14416,commdev-image-keyboard-response,329,1081014,learnblock1,488,img/planet6_left.png,6,Community 1,NA,TRUE,f,f,NA,NA,NA,1,6,"6,15,7,10,2,1,11,14,5,9,4,8,3,12,13"
14416,commdev-image-keyboard-response,330,1082268,learnblock1,601,img/planet7_left.png,7,Community 1,NA,TRUE,f,f,NA,NA,NA,1,6,"6,15,7,10,2,1,11,14,5,9,4,8,3,12,13"
14416,commdev-image-keyboard-response,331,1083522,learnblock1,532,img/planet2_left.png,2,Community 1,NA,TRUE,f,f,NA,NA,NA,1,6,"6,15,7,10,2,1,11,14,5,9,4,8,3,12,13"
14416,commdev-image-keyboard-response,332,1084776,learnblock1,653,img/planet6_right.png,6,Community 1,NA,TRUE,j,j,NA,NA,NA,1,6,"6,15,7,10,2,1,11,14,5,9,4,8,3,12,13"
14416,commdev-image-keyboard-response,333,1086030,learnblock1,809,img/planet10_right.png,10,Community 1,NA,TRUE,j,j,NA,NA,NA,1,6,"6,15,7,10,2,1,11,14,5,9,4,8,3,12,13"
14416,commdev-image-keyboard-response,334,1087284,learnblock1,653,img/planet15_right.png,15,Community 1,NA,TRUE,j,j,NA,NA,NA,1,6,"6,15,7,10,2,1,11,14,5,9,4,8,3,12,13"
14416,commdev-image-keyboard-response,335,1088537,learnblock1,503,img/planet7_left.png,7,Community 1,NA,TRUE,f,f,NA,NA,NA,1,6,"6,15,7,10,2,1,11,14,5,9,4,8,3,12,13"
14416,commdev-image-keyboard-response,336,1089790,learnblock1,617,img/planet6_right.png,6,Community 1,NA,TRUE,j,j,NA,NA,NA,1,6,"6,15,7,10,2,1,11,14,5,9,4,8,3,12,13"
14416,commdev-image-keyboard-response,337,1091044,learnblock1,698,img/planet7_left.png,7,Community 1,NA,TRUE,f,f,NA,NA,NA,1,6,"6,15,7,10,2,1,11,14,5,9,4,8,3,12,13"
14416,commdev-image-keyboard-response,338,1092298,learnblock1,840,img/planet2_left.png,2,Community 1,NA,TRUE,f,f,NA,NA,NA,1,6,"6,15,7,10,2,1,11,14,5,9,4,8,3,12,13"
14416,commdev-image-keyboard-response,339,1093552,learnblock1,578,img/planet7_left.png,7,Community 1,NA,TRUE,f,f,NA,NA,NA,1,6,"6,15,7,10,2,1,11,14,5,9,4,8,3,12,13"
14416,commdev-image-keyboard-response,340,1094806,learnblock1,531,img/planet10_left.png,10,Community 1,NA,TRUE,f,f,NA,NA,NA,1,6,"6,15,7,10,2,1,11,14,5,9,4,8,3,12,13"
14416,commdev-image-keyboard-response,341,1096060,learnblock1,653,img/planet6_left.png,6,Community 1,NA,TRUE,f,f,NA,NA,NA,1,6,"6,15,7,10,2,1,11,14,5,9,4,8,3,12,13"
14416,commdev-image-keyboard-response,342,1097313,learnblock1,471,img/planet10_left.png,10,Community 1,NA,TRUE,f,f,NA,NA,NA,1,6,"6,15,7,10,2,1,11,14,5,9,4,8,3,12,13"
14416,commdev-image-keyboard-response,343,1098566,learnblock1,384.00000000023283,img/planet6_left.png,6,Community 1,NA,TRUE,f,f,NA,NA,NA,1,6,"6,15,7,10,2,1,11,14,5,9,4,8,3,12,13"
14416,commdev-image-keyboard-response,344,1099820,learnblock1,608,img/planet2_left.png,2,Community 1,NA,TRUE,f,f,NA,NA,NA,1,6,"6,15,7,10,2,1,11,14,5,9,4,8,3,12,13"
14416,commdev-image-keyboard-response,345,1101074,learnblock1,465,img/planet7_left.png,7,Community 1,NA,TRUE,f,f,NA,NA,NA,1,6,"6,15,7,10,2,1,11,14,5,9,4,8,3,12,13"
14416,commdev-image-keyboard-response,346,1102328,learnblock1,562,img/planet10_left.png,10,Community 1,NA,TRUE,f,f,NA,NA,NA,1,6,"6,15,7,10,2,1,11,14,5,9,4,8,3,12,13"
14416,commdev-image-keyboard-response,347,1103581,learnblock1,577,img/planet15_left.png,15,Community 1,NA,TRUE,f,f,NA,NA,NA,1,6,"6,15,7,10,2,1,11,14,5,9,4,8,3,12,13"
14416,commdev-image-keyboard-response,348,1104835,learnblock1,869,img/planet7_right.png,7,Community 1,NA,TRUE,j,j,NA,NA,NA,1,6,"6,15,7,10,2,1,11,14,5,9,4,8,3,12,13"
14416,commdev-image-keyboard-response,349,1106089,learnblock1,923,img/planet6_right.png,6,Community 1,NA,TRUE,j,j,NA,NA,NA,1,6,"6,15,7,10,2,1,11,14,5,9,4,8,3,12,13"
14416,commdev-image-keyboard-response,350,1107343,learnblock1,951,img/planet15_right.png,15,Community 1,NA,TRUE,j,j,NA,NA,NA,1,6,"6,15,7,10,2,1,11,14,5,9,4,8,3,12,13"
14416,commdev-image-keyboard-response,351,1108597,learnblock1,822,img/planet2_right.png,2,Community 1,NA,TRUE,j,j,NA,NA,NA,1,6,"6,15,7,10,2,1,11,14,5,9,4,8,3,12,13"
14416,commdev-image-keyboard-response,352,1109852,learnblock1,1131,img/planet4_left.png,4,Community 3,NA,TRUE,f,f,NA,NA,NA,1,6,"6,15,7,10,2,1,11,14,5,9,4,8,3,12,13"
14416,commdev-image-keyboard-response,353,1111105,learnblock1,1012.9999999997672,img/planet3_right.png,3,Community 3,NA,TRUE,j,j,NA,NA,NA,1,6,"6,15,7,10,2,1,11,14,5,9,4,8,3,12,13"
14416,commdev-image-keyboard-response,354,1112359,learnblock1,685,img/planet13_left.png,13,Community 3,NA,TRUE,f,f,NA,NA,NA,1,6,"6,15,7,10,2,1,11,14,5,9,4,8,3,12,13"
14416,commdev-image-keyboard-response,355,1113612,learnblock1,836,img/planet4_left.png,4,Community 3,NA,FALSE,j,f,NA,NA,NA,1,6,"6,15,7,10,2,1,11,14,5,9,4,8,3,12,13"
14416,commdev-image-keyboard-response,356,1114866,learnblock1,666,img/planet2_left.png,2,Community 1,NA,TRUE,f,f,NA,NA,NA,1,6,"6,15,7,10,2,1,11,14,5,9,4,8,3,12,13"
14416,commdev-image-keyboard-response,357,1116119,learnblock1,569,img/planet4_right.png,4,Community 3,NA,TRUE,j,j,NA,NA,NA,1,6,"6,15,7,10,2,1,11,14,5,9,4,8,3,12,13"
14416,commdev-image-keyboard-response,358,1117373,learnblock1,940,img/planet12_right.png,12,Community 3,NA,TRUE,j,j,NA,NA,NA,1,6,"6,15,7,10,2,1,11,14,5,9,4,8,3,12,13"
14416,commdev-image-keyboard-response,359,1118627,learnblock1,727,img/planet4_left.png,4,Community 3,NA,TRUE,f,f,NA,NA,NA,1,6,"6,15,7,10,2,1,11,14,5,9,4,8,3,12,13"
14416,commdev-image-keyboard-response,360,1119881,learnblock1,757,img/planet2_right.png,2,Community 1,NA,TRUE,j,j,NA,NA,NA,1,6,"6,15,7,10,2,1,11,14,5,9,4,8,3,12,13"
14416,commdev-image-keyboard-response,361,1121135,learnblock1,738,img/planet15_right.png,15,Community 1,NA,TRUE,j,j,NA,NA,NA,1,6,"6,15,7,10,2,1,11,14,5,9,4,8,3,12,13"
14416,commdev-image-keyboard-response,362,1122388,learnblock1,786,img/planet7_right.png,7,Community 1,NA,TRUE,j,j,NA,NA,NA,1,6,"6,15,7,10,2,1,11,14,5,9,4,8,3,12,13"
14416,commdev-image-keyboard-response,363,1123641,learnblock1,542,img/planet2_right.png,2,Community 1,NA,TRUE,j,j,NA,NA,NA,1,6,"6,15,7,10,2,1,11,14,5,9,4,8,3,12,13"
14416,commdev-image-keyboard-response,364,1124894,learnblock1,662.9999999997672,img/planet7_left.png,7,Community 1,NA,TRUE,f,f,NA,NA,NA,1,6,"6,15,7,10,2,1,11,14,5,9,4,8,3,12,13"
14416,commdev-image-keyboard-response,365,1126148,learnblock1,720,img/planet2_right.png,2,Community 1,NA,TRUE,j,j,NA,NA,NA,1,6,"6,15,7,10,2,1,11,14,5,9,4,8,3,12,13"
14416,commdev-image-keyboard-response,366,1127400,learnblock1,733,img/planet6_right.png,6,Community 1,NA,TRUE,j,j,NA,NA,NA,1,6,"6,15,7,10,2,1,11,14,5,9,4,8,3,12,13"
14416,commdev-image-keyboard-response,367,1128653,learnblock1,596,img/planet10_right.png,10,Community 1,NA,TRUE,j,j,NA,NA,NA,1,6,"6,15,7,10,2,1,11,14,5,9,4,8,3,12,13"
14416,commdev-image-keyboard-response,368,1129907,learnblock1,572,img/planet7_left.png,7,Community 1,NA,TRUE,f,f,NA,NA,NA,1,6,"6,15,7,10,2,1,11,14,5,9,4,8,3,12,13"
14416,commdev-image-keyboard-response,369,1131160,learnblock1,650,img/planet2_right.png,2,Community 1,NA,TRUE,j,j,NA,NA,NA,1,6,"6,15,7,10,2,1,11,14,5,9,4,8,3,12,13"
14416,commdev-image-keyboard-response,370,1132413,learnblock1,688,img/planet15_right.png,15,Community 1,NA,TRUE,j,j,NA,NA,NA,1,6,"6,15,7,10,2,1,11,14,5,9,4,8,3,12,13"
14416,commdev-image-keyboard-response,371,1133666,learnblock1,931.0000000002328,img/planet10_left.png,10,Community 1,NA,TRUE,f,f,NA,NA,NA,1,6,"6,15,7,10,2,1,11,14,5,9,4,8,3,12,13"
14416,commdev-image-keyboard-response,372,1134919,learnblock1,555,img/planet15_right.png,15,Community 1,NA,TRUE,j,j,NA,NA,NA,1,6,"6,15,7,10,2,1,11,14,5,9,4,8,3,12,13"
14416,commdev-image-keyboard-response,373,1136173,learnblock1,596,img/planet6_right.png,6,Community 1,NA,TRUE,j,j,NA,NA,NA,1,6,"6,15,7,10,2,1,11,14,5,9,4,8,3,12,13"
14416,commdev-image-keyboard-response,374,1137426,learnblock1,510,img/planet10_right.png,10,Community 1,NA,TRUE,j,j,NA,NA,NA,1,6,"6,15,7,10,2,1,11,14,5,9,4,8,3,12,13"
14416,commdev-image-keyboard-response,375,1138680,learnblock1,548,img/planet1_left.png,1,Community 2,NA,TRUE,f,f,NA,NA,NA,1,6,"6,15,7,10,2,1,11,14,5,9,4,8,3,12,13"
14416,commdev-image-keyboard-response,376,1139933,learnblock1,687,img/planet10_right.png,10,Community 1,NA,TRUE,j,j,NA,NA,NA,1,6,"6,15,7,10,2,1,11,14,5,9,4,8,3,12,13"
14416,commdev-image-keyboard-response,377,1141187,learnblock1,661,img/planet15_left.png,15,Community 1,NA,TRUE,f,f,NA,NA,NA,1,6,"6,15,7,10,2,1,11,14,5,9,4,8,3,12,13"
14416,commdev-image-keyboard-response,378,1142441,learnblock1,620,img/planet7_left.png,7,Community 1,NA,TRUE,f,f,NA,NA,NA,1,6,"6,15,7,10,2,1,11,14,5,9,4,8,3,12,13"
14416,commdev-image-keyboard-response,379,1143695,learnblock1,498.00000000023283,img/planet10_left.png,10,Community 1,NA,TRUE,f,f,NA,NA,NA,1,6,"6,15,7,10,2,1,11,14,5,9,4,8,3,12,13"
14416,commdev-image-keyboard-response,380,1144949,learnblock1,556,img/planet6_left.png,6,Community 1,NA,TRUE,f,f,NA,NA,NA,1,6,"6,15,7,10,2,1,11,14,5,9,4,8,3,12,13"
14416,commdev-image-keyboard-response,381,1146202,learnblock1,577.9999999997672,img/planet7_right.png,7,Community 1,NA,TRUE,j,j,NA,NA,NA,1,6,"6,15,7,10,2,1,11,14,5,9,4,8,3,12,13"
14416,commdev-image-keyboard-response,382,1147456,learnblock1,727,img/planet6_right.png,6,Community 1,NA,TRUE,j,j,NA,NA,NA,1,6,"6,15,7,10,2,1,11,14,5,9,4,8,3,12,13"
14416,commdev-image-keyboard-response,383,1148709,learnblock1,518,img/planet15_right.png,15,Community 1,NA,TRUE,j,j,NA,NA,NA,1,6,"6,15,7,10,2,1,11,14,5,9,4,8,3,12,13"
14416,commdev-image-keyboard-response,384,1149963,learnblock1,571,img/planet6_left.png,6,Community 1,NA,TRUE,f,f,NA,NA,NA,1,6,"6,15,7,10,2,1,11,14,5,9,4,8,3,12,13"
14416,commdev-image-keyboard-response,385,1151216,learnblock1,545,img/planet2_left.png,2,Community 1,NA,TRUE,f,f,NA,NA,NA,1,6,"6,15,7,10,2,1,11,14,5,9,4,8,3,12,13"
14416,commdev-image-keyboard-response,386,1152470,learnblock1,644,img/planet7_left.png,7,Community 1,NA,TRUE,f,f,NA,NA,NA,1,6,"6,15,7,10,2,1,11,14,5,9,4,8,3,12,13"
14416,commdev-image-keyboard-response,387,1153724,learnblock1,475,img/planet10_right.png,10,Community 1,NA,TRUE,j,j,NA,NA,NA,1,6,"6,15,7,10,2,1,11,14,5,9,4,8,3,12,13"
14416,commdev-image-keyboard-response,388,1154977,learnblock1,461,img/planet6_right.png,6,Community 1,NA,TRUE,j,j,NA,NA,NA,1,6,"6,15,7,10,2,1,11,14,5,9,4,8,3,12,13"
14416,commdev-image-keyboard-response,389,1156233,learnblock1,415,img/planet10_right.png,10,Community 1,NA,TRUE,j,j,NA,NA,NA,1,6,"6,15,7,10,2,1,11,14,5,9,4,8,3,12,13"
14416,commdev-image-keyboard-response,390,1157487,learnblock1,555,img/planet15_left.png,15,Community 1,NA,TRUE,f,f,NA,NA,NA,1,6,"6,15,7,10,2,1,11,14,5,9,4,8,3,12,13"
14416,commdev-image-keyboard-response,391,1158739,learnblock1,451,img/planet10_right.png,10,Community 1,NA,TRUE,j,j,NA,NA,NA,1,6,"6,15,7,10,2,1,11,14,5,9,4,8,3,12,13"
14416,commdev-image-keyboard-response,392,1159993,learnblock1,506,img/planet7_right.png,7,Community 1,NA,TRUE,j,j,NA,NA,NA,1,6,"6,15,7,10,2,1,11,14,5,9,4,8,3,12,13"
14416,commdev-image-keyboard-response,393,1161247,learnblock1,419,img/planet10_right.png,10,Community 1,NA,TRUE,j,j,NA,NA,NA,1,6,"6,15,7,10,2,1,11,14,5,9,4,8,3,12,13"
14416,commdev-image-keyboard-response,394,1162501,learnblock1,607.0000000002328,img/planet7_right.png,7,Community 1,NA,TRUE,j,j,NA,NA,NA,1,6,"6,15,7,10,2,1,11,14,5,9,4,8,3,12,13"
14416,commdev-image-keyboard-response,395,1163754,learnblock1,437,img/planet10_left.png,10,Community 1,NA,FALSE,j,f,NA,NA,NA,1,6,"6,15,7,10,2,1,11,14,5,9,4,8,3,12,13"
14416,commdev-image-keyboard-response,396,1165007,learnblock1,572,img/planet1_left.png,1,Community 2,NA,TRUE,f,f,NA,NA,NA,1,6,"6,15,7,10,2,1,11,14,5,9,4,8,3,12,13"
14416,commdev-image-keyboard-response,397,1166260,learnblock1,491.00000000023283,img/planet9_left.png,9,Community 2,NA,TRUE,f,f,NA,NA,NA,1,6,"6,15,7,10,2,1,11,14,5,9,4,8,3,12,13"
14416,commdev-image-keyboard-response,398,1167514,learnblock1,471,img/planet14_right.png,14,Community 2,NA,TRUE,j,j,NA,NA,NA,1,6,"6,15,7,10,2,1,11,14,5,9,4,8,3,12,13"
14416,commdev-image-keyboard-response,399,1168768,learnblock1,590.0000000002328,img/planet5_left.png,5,Community 2,NA,TRUE,f,f,NA,NA,NA,1,6,"6,15,7,10,2,1,11,14,5,9,4,8,3,12,13"
14416,commdev-image-keyboard-response,400,1170021,learnblock1,863,img/planet11_left.png,11,Community 2,NA,TRUE,f,f,NA,NA,NA,1,6,"6,15,7,10,2,1,11,14,5,9,4,8,3,12,13"
14416,commdev-image-keyboard-response,401,1171275,learnblock1,698,img/planet5_left.png,5,Community 2,NA,TRUE,f,f,NA,NA,NA,1,6,"6,15,7,10,2,1,11,14,5,9,4,8,3,12,13"
14416,commdev-image-keyboard-response,402,1172529,learnblock1,483,img/planet9_right.png,9,Community 2,NA,TRUE,j,j,NA,NA,NA,1,6,"6,15,7,10,2,1,11,14,5,9,4,8,3,12,13"
14416,commdev-image-keyboard-response,403,1173782,learnblock1,542,img/planet14_left.png,14,Community 2,NA,TRUE,f,f,NA,NA,NA,1,6,"6,15,7,10,2,1,11,14,5,9,4,8,3,12,13"
14416,commdev-image-keyboard-response,404,1175036,learnblock1,664,img/planet11_left.png,11,Community 2,NA,TRUE,f,f,NA,NA,NA,1,6,"6,15,7,10,2,1,11,14,5,9,4,8,3,12,13"
14416,commdev-image-keyboard-response,405,1176290,learnblock1,582.9999999997672,img/planet14_right.png,14,Community 2,NA,TRUE,j,j,NA,NA,NA,1,6,"6,15,7,10,2,1,11,14,5,9,4,8,3,12,13"
14416,commdev-image-keyboard-response,406,1177544,learnblock1,638,img/planet8_right.png,8,Community 3,NA,FALSE,f,j,NA,NA,NA,1,6,"6,15,7,10,2,1,11,14,5,9,4,8,3,12,13"
14416,commdev-image-keyboard-response,407,1178798,learnblock1,806,img/planet3_left.png,3,Community 3,NA,TRUE,f,f,NA,NA,NA,1,6,"6,15,7,10,2,1,11,14,5,9,4,8,3,12,13"
14416,commdev-image-keyboard-response,408,1180050,learnblock1,723,img/planet13_right.png,13,Community 3,NA,TRUE,j,j,NA,NA,NA,1,6,"6,15,7,10,2,1,11,14,5,9,4,8,3,12,13"
14416,commdev-image-keyboard-response,409,1181305,learnblock1,884,img/planet3_right.png,3,Community 3,NA,TRUE,j,j,NA,NA,NA,1,6,"6,15,7,10,2,1,11,14,5,9,4,8,3,12,13"
14416,commdev-image-keyboard-response,410,1182559,learnblock1,610,img/planet4_right.png,4,Community 3,NA,TRUE,j,j,NA,NA,NA,1,6,"6,15,7,10,2,1,11,14,5,9,4,8,3,12,13"
14416,commdev-image-keyboard-response,411,1183812,learnblock1,678,img/planet3_right.png,3,Community 3,NA,TRUE,j,j,NA,NA,NA,1,6,"6,15,7,10,2,1,11,14,5,9,4,8,3,12,13"
14416,commdev-image-keyboard-response,412,1185065,learnblock1,570,img/planet12_right.png,12,Community 3,NA,TRUE,j,j,NA,NA,NA,1,6,"6,15,7,10,2,1,11,14,5,9,4,8,3,12,13"
14416,commdev-image-keyboard-response,413,1186318,learnblock1,554,img/planet4_left.png,4,Community 3,NA,TRUE,f,f,NA,NA,NA,1,6,"6,15,7,10,2,1,11,14,5,9,4,8,3,12,13"
14416,commdev-image-keyboard-response,414,1187572,learnblock1,731,img/planet2_right.png,2,Community 1,NA,TRUE,j,j,NA,NA,NA,1,6,"6,15,7,10,2,1,11,14,5,9,4,8,3,12,13"
14416,commdev-image-keyboard-response,415,1188826,learnblock1,654,img/planet7_right.png,7,Community 1,NA,TRUE,j,j,NA,NA,NA,1,6,"6,15,7,10,2,1,11,14,5,9,4,8,3,12,13"
14416,commdev-image-keyboard-response,416,1190080,learnblock1,582,img/planet2_left.png,2,Community 1,NA,TRUE,f,f,NA,NA,NA,1,6,"6,15,7,10,2,1,11,14,5,9,4,8,3,12,13"
14416,commdev-image-keyboard-response,417,1191334,learnblock1,774.0000000002328,img/planet4_left.png,4,Community 3,NA,TRUE,f,f,NA,NA,NA,1,6,"6,15,7,10,2,1,11,14,5,9,4,8,3,12,13"
14416,commdev-image-keyboard-response,418,1192586,learnblock1,633,img/planet3_left.png,3,Community 3,NA,TRUE,f,f,NA,NA,NA,1,6,"6,15,7,10,2,1,11,14,5,9,4,8,3,12,13"
14416,commdev-image-keyboard-response,419,1193840,learnblock1,597,img/planet8_left.png,8,Community 3,NA,TRUE,f,f,NA,NA,NA,1,6,"6,15,7,10,2,1,11,14,5,9,4,8,3,12,13"
14416,commdev-image-keyboard-response,420,1195094,learnblock1,544,img/planet3_right.png,3,Community 3,NA,TRUE,j,j,NA,NA,NA,1,6,"6,15,7,10,2,1,11,14,5,9,4,8,3,12,13"
14416,commdev-image-keyboard-response,421,1196348,learnblock1,702.9999999997672,img/planet13_left.png,13,Community 3,NA,TRUE,f,f,NA,NA,NA,1,6,"6,15,7,10,2,1,11,14,5,9,4,8,3,12,13"
14416,commdev-image-keyboard-response,422,1197602,learnblock1,574.0000000002328,img/planet3_left.png,3,Community 3,NA,TRUE,f,f,NA,NA,NA,1,6,"6,15,7,10,2,1,11,14,5,9,4,8,3,12,13"
14416,commdev-image-keyboard-response,423,1198854,learnblock1,769,img/planet8_left.png,8,Community 3,NA,TRUE,f,f,NA,NA,NA,1,6,"6,15,7,10,2,1,11,14,5,9,4,8,3,12,13"
14416,commdev-image-keyboard-response,424,1200107,learnblock1,742,img/planet12_right.png,12,Community 3,NA,TRUE,j,j,NA,NA,NA,1,6,"6,15,7,10,2,1,11,14,5,9,4,8,3,12,13"
14416,commdev-image-keyboard-response,425,1201361,learnblock1,569,img/planet13_right.png,13,Community 3,NA,TRUE,j,j,NA,NA,NA,1,6,"6,15,7,10,2,1,11,14,5,9,4,8,3,12,13"
14416,commdev-image-keyboard-response,426,1202613,learnblock1,886,img/planet8_right.png,8,Community 3,NA,FALSE,f,j,NA,NA,NA,1,6,"6,15,7,10,2,1,11,14,5,9,4,8,3,12,13"
14416,commdev-image-keyboard-response,427,1203865,learnblock1,540,img/planet14_left.png,14,Community 2,NA,TRUE,f,f,NA,NA,NA,1,6,"6,15,7,10,2,1,11,14,5,9,4,8,3,12,13"
14416,commdev-image-keyboard-response,428,1205120,learnblock1,545.0000000002328,img/planet9_right.png,9,Community 2,NA,TRUE,j,j,NA,NA,NA,1,6,"6,15,7,10,2,1,11,14,5,9,4,8,3,12,13"
14416,commdev-image-keyboard-response,429,1206373,learnblock1,618,img/planet1_left.png,1,Community 2,NA,TRUE,f,f,NA,NA,NA,1,6,"6,15,7,10,2,1,11,14,5,9,4,8,3,12,13"
14416,commdev-image-keyboard-response,433,1319791,learnblock2,683,img/planet5_right.png,5,Community 2,NA,TRUE,j,j,NA,NA,NA,1,6,"6,15,7,10,2,1,11,14,5,9,4,8,3,12,13"
14416,commdev-image-keyboard-response,434,1321045,learnblock2,1158,img/planet11_right.png,11,Community 2,NA,TRUE,j,j,NA,NA,NA,1,6,"6,15,7,10,2,1,11,14,5,9,4,8,3,12,13"
14416,commdev-image-keyboard-response,435,1322298,learnblock2,764,img/planet14_right.png,14,Community 2,NA,TRUE,j,j,NA,NA,NA,1,6,"6,15,7,10,2,1,11,14,5,9,4,8,3,12,13"
14416,commdev-image-keyboard-response,436,1323553,learnblock2,1033,img/planet11_right.png,11,Community 2,NA,TRUE,j,j,NA,NA,NA,1,6,"6,15,7,10,2,1,11,14,5,9,4,8,3,12,13"
14416,commdev-image-keyboard-response,437,1324807,learnblock2,649,img/planet1_right.png,1,Community 2,NA,TRUE,j,j,NA,NA,NA,1,6,"6,15,7,10,2,1,11,14,5,9,4,8,3,12,13"
14416,commdev-image-keyboard-response,438,1326060,learnblock2,557,img/planet10_right.png,10,Community 1,NA,TRUE,j,j,NA,NA,NA,1,6,"6,15,7,10,2,1,11,14,5,9,4,8,3,12,13"
14416,commdev-image-keyboard-response,439,1327314,learnblock2,593,img/planet7_right.png,7,Community 1,NA,TRUE,j,j,NA,NA,NA,1,6,"6,15,7,10,2,1,11,14,5,9,4,8,3,12,13"
14416,commdev-image-keyboard-response,440,1328568,learnblock2,574,img/planet10_right.png,10,Community 1,NA,TRUE,j,j,NA,NA,NA,1,6,"6,15,7,10,2,1,11,14,5,9,4,8,3,12,13"
14416,commdev-image-keyboard-response,441,1329821,learnblock2,667,img/planet7_left.png,7,Community 1,NA,TRUE,f,f,NA,NA,NA,1,6,"6,15,7,10,2,1,11,14,5,9,4,8,3,12,13"
14416,commdev-image-keyboard-response,442,1331075,learnblock2,773,img/planet10_left.png,10,Community 1,NA,TRUE,f,f,NA,NA,NA,1,6,"6,15,7,10,2,1,11,14,5,9,4,8,3,12,13"
14416,commdev-image-keyboard-response,443,1332329,learnblock2,816,img/planet1_left.png,1,Community 2,NA,TRUE,f,f,NA,NA,NA,1,6,"6,15,7,10,2,1,11,14,5,9,4,8,3,12,13"
14416,commdev-image-keyboard-response,444,1333583,learnblock2,743.9999999997672,img/planet9_right.png,9,Community 2,NA,TRUE,j,j,NA,NA,NA,1,6,"6,15,7,10,2,1,11,14,5,9,4,8,3,12,13"
14416,commdev-image-keyboard-response,445,1334835,learnblock2,753,img/planet14_left.png,14,Community 2,NA,TRUE,f,f,NA,NA,NA,1,6,"6,15,7,10,2,1,11,14,5,9,4,8,3,12,13"
14416,commdev-image-keyboard-response,446,1336089,learnblock2,656,img/planet8_right.png,8,Community 3,NA,TRUE,j,j,NA,NA,NA,1,6,"6,15,7,10,2,1,11,14,5,9,4,8,3,12,13"
14416,commdev-image-keyboard-response,447,1337342,learnblock2,558,img/planet12_right.png,12,Community 3,NA,TRUE,j,j,NA,NA,NA,1,6,"6,15,7,10,2,1,11,14,5,9,4,8,3,12,13"
14416,commdev-image-keyboard-response,448,1338596,learnblock2,615,img/planet3_right.png,3,Community 3,NA,TRUE,j,j,NA,NA,NA,1,6,"6,15,7,10,2,1,11,14,5,9,4,8,3,12,13"
14416,commdev-image-keyboard-response,449,1339849,learnblock2,null,img/planet13_right.png,13,Community 3,NA,FALSE,null,j,NA,NA,NA,1,6,"6,15,7,10,2,1,11,14,5,9,4,8,3,12,13"
14416,commdev-image-keyboard-response,450,1341102,learnblock2,60,img/planet12_right.png,12,Community 3,NA,TRUE,j,j,NA,NA,NA,1,6,"6,15,7,10,2,1,11,14,5,9,4,8,3,12,13"
14416,commdev-image-keyboard-response,451,1342356,learnblock2,625,img/planet13_right.png,13,Community 3,NA,TRUE,j,j,NA,NA,NA,1,6,"6,15,7,10,2,1,11,14,5,9,4,8,3,12,13"
14416,commdev-image-keyboard-response,452,1343610,learnblock2,623,img/planet8_left.png,8,Community 3,NA,TRUE,f,f,NA,NA,NA,1,6,"6,15,7,10,2,1,11,14,5,9,4,8,3,12,13"
14416,commdev-image-keyboard-response,453,1344863,learnblock2,588.9999999997672,img/planet12_left.png,12,Community 3,NA,TRUE,f,f,NA,NA,NA,1,6,"6,15,7,10,2,1,11,14,5,9,4,8,3,12,13"
14416,commdev-image-keyboard-response,454,1346116,learnblock2,585,img/planet4_right.png,4,Community 3,NA,TRUE,j,j,NA,NA,NA,1,6,"6,15,7,10,2,1,11,14,5,9,4,8,3,12,13"
14416,commdev-image-keyboard-response,455,1347370,learnblock2,678,img/planet13_left.png,13,Community 3,NA,TRUE,f,f,NA,NA,NA,1,6,"6,15,7,10,2,1,11,14,5,9,4,8,3,12,13"
14416,commdev-image-keyboard-response,456,1348624,learnblock2,739,img/planet12_left.png,12,Community 3,NA,TRUE,f,f,NA,NA,NA,1,6,"6,15,7,10,2,1,11,14,5,9,4,8,3,12,13"
14416,commdev-image-keyboard-response,457,1349877,learnblock2,610.0000000002328,img/planet3_right.png,3,Community 3,NA,TRUE,j,j,NA,NA,NA,1,6,"6,15,7,10,2,1,11,14,5,9,4,8,3,12,13"
14416,commdev-image-keyboard-response,458,1351130,learnblock2,621,img/planet13_left.png,13,Community 3,NA,TRUE,f,f,NA,NA,NA,1,6,"6,15,7,10,2,1,11,14,5,9,4,8,3,12,13"
14416,commdev-image-keyboard-response,459,1352383,learnblock2,624,img/planet12_left.png,12,Community 3,NA,TRUE,f,f,NA,NA,NA,1,6,"6,15,7,10,2,1,11,14,5,9,4,8,3,12,13"
14416,commdev-image-keyboard-response,460,1353637,learnblock2,610,img/planet13_right.png,13,Community 3,NA,TRUE,j,j,NA,NA,NA,1,6,"6,15,7,10,2,1,11,14,5,9,4,8,3,12,13"
14416,commdev-image-keyboard-response,461,1354891,learnblock2,795.9999999997672,img/planet8_right.png,8,Community 3,NA,TRUE,j,j,NA,NA,NA,1,6,"6,15,7,10,2,1,11,14,5,9,4,8,3,12,13"
14416,commdev-image-keyboard-response,462,1356146,learnblock2,831,img/planet12_right.png,12,Community 3,NA,TRUE,j,j,NA,NA,NA,1,6,"6,15,7,10,2,1,11,14,5,9,4,8,3,12,13"
14416,commdev-image-keyboard-response,463,1357400,learnblock2,840,img/planet13_right.png,13,Community 3,NA,TRUE,j,j,NA,NA,NA,1,6,"6,15,7,10,2,1,11,14,5,9,4,8,3,12,13"
14416,commdev-image-keyboard-response,464,1358654,learnblock2,718.0000000002328,img/planet4_left.png,4,Community 3,NA,TRUE,f,f,NA,NA,NA,1,6,"6,15,7,10,2,1,11,14,5,9,4,8,3,12,13"
14416,commdev-image-keyboard-response,465,1359907,learnblock2,797,img/planet3_right.png,3,Community 3,NA,TRUE,j,j,NA,NA,NA,1,6,"6,15,7,10,2,1,11,14,5,9,4,8,3,12,13"
14416,commdev-image-keyboard-response,466,1361161,learnblock2,790.9999999997672,img/planet8_right.png,8,Community 3,NA,TRUE,j,j,NA,NA,NA,1,6,"6,15,7,10,2,1,11,14,5,9,4,8,3,12,13"
14416,commdev-image-keyboard-response,467,1362415,learnblock2,705,img/planet14_right.png,14,Community 2,NA,TRUE,j,j,NA,NA,NA,1,6,"6,15,7,10,2,1,11,14,5,9,4,8,3,12,13"
14416,commdev-image-keyboard-response,468,1363668,learnblock2,812,img/planet9_right.png,9,Community 2,NA,TRUE,j,j,NA,NA,NA,1,6,"6,15,7,10,2,1,11,14,5,9,4,8,3,12,13"
14416,commdev-image-keyboard-response,469,1364921,learnblock2,811,img/planet11_right.png,11,Community 2,NA,TRUE,j,j,NA,NA,NA,1,6,"6,15,7,10,2,1,11,14,5,9,4,8,3,12,13"
14416,commdev-image-keyboard-response,470,1366174,learnblock2,796,img/planet14_right.png,14,Community 2,NA,TRUE,j,j,NA,NA,NA,1,6,"6,15,7,10,2,1,11,14,5,9,4,8,3,12,13"
14416,commdev-image-keyboard-response,471,1367427,learnblock2,568,img/planet9_right.png,9,Community 2,NA,TRUE,j,j,NA,NA,NA,1,6,"6,15,7,10,2,1,11,14,5,9,4,8,3,12,13"
14416,commdev-image-keyboard-response,472,1368681,learnblock2,631,img/planet14_left.png,14,Community 2,NA,TRUE,f,f,NA,NA,NA,1,6,"6,15,7,10,2,1,11,14,5,9,4,8,3,12,13"
14416,commdev-image-keyboard-response,473,1369933,learnblock2,659.0000000002328,img/planet9_right.png,9,Community 2,NA,TRUE,j,j,NA,NA,NA,1,6,"6,15,7,10,2,1,11,14,5,9,4,8,3,12,13"
14416,commdev-image-keyboard-response,474,1371187,learnblock2,788,img/planet1_right.png,1,Community 2,NA,TRUE,j,j,NA,NA,NA,1,6,"6,15,7,10,2,1,11,14,5,9,4,8,3,12,13"
14416,commdev-image-keyboard-response,475,1372439,learnblock2,640,img/planet10_left.png,10,Community 1,NA,TRUE,f,f,NA,NA,NA,1,6,"6,15,7,10,2,1,11,14,5,9,4,8,3,12,13"
14416,commdev-image-keyboard-response,476,1373692,learnblock2,558,img/planet15_left.png,15,Community 1,NA,FALSE,j,f,NA,NA,NA,1,6,"6,15,7,10,2,1,11,14,5,9,4,8,3,12,13"
14416,commdev-image-keyboard-response,477,1374945,learnblock2,683,img/planet6_right.png,6,Community 1,NA,TRUE,j,j,NA,NA,NA,1,6,"6,15,7,10,2,1,11,14,5,9,4,8,3,12,13"
14416,commdev-image-keyboard-response,478,1376198,learnblock2,905.0000000002328,img/planet7_right.png,7,Community 1,NA,TRUE,j,j,NA,NA,NA,1,6,"6,15,7,10,2,1,11,14,5,9,4,8,3,12,13"
14416,commdev-image-keyboard-response,479,1377451,learnblock2,740,img/planet6_left.png,6,Community 1,NA,TRUE,f,f,NA,NA,NA,1,6,"6,15,7,10,2,1,11,14,5,9,4,8,3,12,13"
14416,commdev-image-keyboard-response,480,1378705,learnblock2,831.0000000002328,img/planet2_left.png,2,Community 1,NA,TRUE,f,f,NA,NA,NA,1,6,"6,15,7,10,2,1,11,14,5,9,4,8,3,12,13"
14416,commdev-image-keyboard-response,481,1379959,learnblock2,663,img/planet6_right.png,6,Community 1,NA,TRUE,j,j,NA,NA,NA,1,6,"6,15,7,10,2,1,11,14,5,9,4,8,3,12,13"
14416,commdev-image-keyboard-response,482,1381213,learnblock2,624,img/planet15_left.png,15,Community 1,NA,TRUE,f,f,NA,NA,NA,1,6,"6,15,7,10,2,1,11,14,5,9,4,8,3,12,13"
14416,commdev-image-keyboard-response,483,1382466,learnblock2,620,img/planet10_right.png,10,Community 1,NA,TRUE,j,j,NA,NA,NA,1,6,"6,15,7,10,2,1,11,14,5,9,4,8,3,12,13"
14416,commdev-image-keyboard-response,484,1383719,learnblock2,666,img/planet7_left.png,7,Community 1,NA,TRUE,f,f,NA,NA,NA,1,6,"6,15,7,10,2,1,11,14,5,9,4,8,3,12,13"
14416,commdev-image-keyboard-response,485,1384971,learnblock2,676,img/planet10_left.png,10,Community 1,NA,TRUE,f,f,NA,NA,NA,1,6,"6,15,7,10,2,1,11,14,5,9,4,8,3,12,13"
14416,commdev-image-keyboard-response,486,1386225,learnblock2,711,img/planet7_right.png,7,Community 1,NA,TRUE,j,j,NA,NA,NA,1,6,"6,15,7,10,2,1,11,14,5,9,4,8,3,12,13"
14416,commdev-image-keyboard-response,487,1387478,learnblock2,null,img/planet15_right.png,15,Community 1,NA,FALSE,null,j,NA,NA,NA,1,6,"6,15,7,10,2,1,11,14,5,9,4,8,3,12,13"
14416,commdev-image-keyboard-response,488,1388733,learnblock2,48,img/planet2_right.png,2,Community 1,NA,TRUE,j,j,NA,NA,NA,1,6,"6,15,7,10,2,1,11,14,5,9,4,8,3,12,13"
14416,commdev-image-keyboard-response,489,1389986,learnblock2,831,img/planet4_right.png,4,Community 3,NA,TRUE,j,j,NA,NA,NA,1,6,"6,15,7,10,2,1,11,14,5,9,4,8,3,12,13"
14416,commdev-image-keyboard-response,490,1391241,learnblock2,842,img/planet13_right.png,13,Community 3,NA,TRUE,j,j,NA,NA,NA,1,6,"6,15,7,10,2,1,11,14,5,9,4,8,3,12,13"
14416,commdev-image-keyboard-response,491,1392495,learnblock2,759,img/planet4_left.png,4,Community 3,NA,TRUE,f,f,NA,NA,NA,1,6,"6,15,7,10,2,1,11,14,5,9,4,8,3,12,13"
14416,commdev-image-keyboard-response,492,1393748,learnblock2,1121.9999999997672,img/planet2_left.png,2,Community 1,NA,TRUE,f,f,NA,NA,NA,1,6,"6,15,7,10,2,1,11,14,5,9,4,8,3,12,13"
14416,commdev-image-keyboard-response,493,1395001,learnblock2,898,img/planet15_left.png,15,Community 1,NA,TRUE,f,f,NA,NA,NA,1,6,"6,15,7,10,2,1,11,14,5,9,4,8,3,12,13"
14416,commdev-image-keyboard-response,494,1396255,learnblock2,841,img/planet6_right.png,6,Community 1,NA,TRUE,j,j,NA,NA,NA,1,6,"6,15,7,10,2,1,11,14,5,9,4,8,3,12,13"
14416,commdev-image-keyboard-response,495,1397509,learnblock2,724,img/planet15_right.png,15,Community 1,NA,TRUE,j,j,NA,NA,NA,1,6,"6,15,7,10,2,1,11,14,5,9,4,8,3,12,13"
14416,commdev-image-keyboard-response,496,1398763,learnblock2,823,img/planet2_right.png,2,Community 1,NA,TRUE,j,j,NA,NA,NA,1,6,"6,15,7,10,2,1,11,14,5,9,4,8,3,12,13"
14416,commdev-image-keyboard-response,497,1400017,learnblock2,866.9999999997672,img/planet15_left.png,15,Community 1,NA,TRUE,f,f,NA,NA,NA,1,6,"6,15,7,10,2,1,11,14,5,9,4,8,3,12,13"
14416,commdev-image-keyboard-response,498,1401269,learnblock2,678,img/planet7_right.png,7,Community 1,NA,TRUE,j,j,NA,NA,NA,1,6,"6,15,7,10,2,1,11,14,5,9,4,8,3,12,13"
14416,commdev-image-keyboard-response,499,1402523,learnblock2,680,img/planet15_right.png,15,Community 1,NA,TRUE,j,j,NA,NA,NA,1,6,"6,15,7,10,2,1,11,14,5,9,4,8,3,12,13"
14416,commdev-image-keyboard-response,500,1403777,learnblock2,692,img/planet7_right.png,7,Community 1,NA,TRUE,j,j,NA,NA,NA,1,6,"6,15,7,10,2,1,11,14,5,9,4,8,3,12,13"
14416,commdev-image-keyboard-response,501,1405031,learnblock2,601,img/planet2_right.png,2,Community 1,NA,TRUE,j,j,NA,NA,NA,1,6,"6,15,7,10,2,1,11,14,5,9,4,8,3,12,13"
14416,commdev-image-keyboard-response,502,1406284,learnblock2,544,img/planet4_left.png,4,Community 3,NA,TRUE,f,f,NA,NA,NA,1,6,"6,15,7,10,2,1,11,14,5,9,4,8,3,12,13"
14416,commdev-image-keyboard-response,503,1407538,learnblock2,591,img/planet12_left.png,12,Community 3,NA,TRUE,f,f,NA,NA,NA,1,6,"6,15,7,10,2,1,11,14,5,9,4,8,3,12,13"
14416,commdev-image-keyboard-response,504,1408792,learnblock2,721,img/planet13_left.png,13,Community 3,NA,TRUE,f,f,NA,NA,NA,1,6,"6,15,7,10,2,1,11,14,5,9,4,8,3,12,13"
14416,commdev-image-keyboard-response,505,1410044,learnblock2,572,img/planet8_right.png,8,Community 3,NA,TRUE,j,j,NA,NA,NA,1,6,"6,15,7,10,2,1,11,14,5,9,4,8,3,12,13"
14416,commdev-image-keyboard-response,506,1411298,learnblock2,599,img/planet14_right.png,14,Community 2,NA,TRUE,j,j,NA,NA,NA,1,6,"6,15,7,10,2,1,11,14,5,9,4,8,3,12,13"
14416,commdev-image-keyboard-response,507,1412551,learnblock2,629.0000000002328,img/planet11_left.png,11,Community 2,NA,TRUE,f,f,NA,NA,NA,1,6,"6,15,7,10,2,1,11,14,5,9,4,8,3,12,13"
14416,commdev-image-keyboard-response,508,1413805,learnblock2,837,img/planet9_left.png,9,Community 2,NA,TRUE,f,f,NA,NA,NA,1,6,"6,15,7,10,2,1,11,14,5,9,4,8,3,12,13"
14416,commdev-image-keyboard-response,509,1415059,learnblock2,872.0000000002328,img/planet1_left.png,1,Community 2,NA,TRUE,f,f,NA,NA,NA,1,6,"6,15,7,10,2,1,11,14,5,9,4,8,3,12,13"
14416,commdev-image-keyboard-response,510,1416313,learnblock2,500,img/planet5_left.png,5,Community 2,NA,TRUE,f,f,NA,NA,NA,1,6,"6,15,7,10,2,1,11,14,5,9,4,8,3,12,13"
14416,commdev-image-keyboard-response,511,1417567,learnblock2,469,img/planet9_left.png,9,Community 2,NA,TRUE,f,f,NA,NA,NA,1,6,"6,15,7,10,2,1,11,14,5,9,4,8,3,12,13"
14416,commdev-image-keyboard-response,512,1418821,learnblock2,487,img/planet1_left.png,1,Community 2,NA,TRUE,f,f,NA,NA,NA,1,6,"6,15,7,10,2,1,11,14,5,9,4,8,3,12,13"
14416,commdev-image-keyboard-response,513,1420074,learnblock2,548,img/planet10_right.png,10,Community 1,NA,TRUE,j,j,NA,NA,NA,1,6,"6,15,7,10,2,1,11,14,5,9,4,8,3,12,13"
14416,commdev-image-keyboard-response,514,1421327,learnblock2,639,img/planet7_left.png,7,Community 1,NA,TRUE,f,f,NA,NA,NA,1,6,"6,15,7,10,2,1,11,14,5,9,4,8,3,12,13"
14416,commdev-image-keyboard-response,515,1422580,learnblock2,1029,img/planet10_left.png,10,Community 1,NA,TRUE,f,f,NA,NA,NA,1,6,"6,15,7,10,2,1,11,14,5,9,4,8,3,12,13"
14416,commdev-image-keyboard-response,516,1423834,learnblock2,807,img/planet7_left.png,7,Community 1,NA,TRUE,f,f,NA,NA,NA,1,6,"6,15,7,10,2,1,11,14,5,9,4,8,3,12,13"
14416,commdev-image-keyboard-response,517,1425088,learnblock2,671.0000000002328,img/planet6_right.png,6,Community 1,NA,TRUE,j,j,NA,NA,NA,1,6,"6,15,7,10,2,1,11,14,5,9,4,8,3,12,13"
14416,commdev-image-keyboard-response,518,1426341,learnblock2,528,img/planet7_right.png,7,Community 1,NA,TRUE,j,j,NA,NA,NA,1,6,"6,15,7,10,2,1,11,14,5,9,4,8,3,12,13"
14416,commdev-image-keyboard-response,519,1427594,learnblock2,573.9999999997672,img/planet6_left.png,6,Community 1,NA,TRUE,f,f,NA,NA,NA,1,6,"6,15,7,10,2,1,11,14,5,9,4,8,3,12,13"
14416,commdev-image-keyboard-response,520,1428848,learnblock2,577,img/planet7_left.png,7,Community 1,NA,TRUE,f,f,NA,NA,NA,1,6,"6,15,7,10,2,1,11,14,5,9,4,8,3,12,13"
14416,commdev-image-keyboard-response,521,1430101,learnblock2,512.0000000002328,img/planet15_left.png,15,Community 1,NA,TRUE,f,f,NA,NA,NA,1,6,"6,15,7,10,2,1,11,14,5,9,4,8,3,12,13"
14416,commdev-image-keyboard-response,522,1431354,learnblock2,513.9999999997672,img/planet6_right.png,6,Community 1,NA,TRUE,j,j,NA,NA,NA,1,6,"6,15,7,10,2,1,11,14,5,9,4,8,3,12,13"
14416,commdev-image-keyboard-response,523,1432607,learnblock2,586,img/planet15_left.png,15,Community 1,NA,TRUE,f,f,NA,NA,NA,1,6,"6,15,7,10,2,1,11,14,5,9,4,8,3,12,13"
14416,commdev-image-keyboard-response,524,1433861,learnblock2,577,img/planet2_left.png,2,Community 1,NA,TRUE,f,f,NA,NA,NA,1,6,"6,15,7,10,2,1,11,14,5,9,4,8,3,12,13"
14416,commdev-image-keyboard-response,525,1435114,learnblock2,596.9999999997672,img/planet15_right.png,15,Community 1,NA,TRUE,j,j,NA,NA,NA,1,6,"6,15,7,10,2,1,11,14,5,9,4,8,3,12,13"
14416,commdev-image-keyboard-response,526,1436367,learnblock2,503,img/planet2_right.png,2,Community 1,NA,FALSE,f,j,NA,NA,NA,1,6,"6,15,7,10,2,1,11,14,5,9,4,8,3,12,13"
14416,commdev-image-keyboard-response,527,1437621,learnblock2,499,img/planet4_right.png,4,Community 3,NA,TRUE,j,j,NA,NA,NA,1,6,"6,15,7,10,2,1,11,14,5,9,4,8,3,12,13"
14416,commdev-image-keyboard-response,528,1438875,learnblock2,453,img/planet12_right.png,12,Community 3,NA,TRUE,j,j,NA,NA,NA,1,6,"6,15,7,10,2,1,11,14,5,9,4,8,3,12,13"
14416,commdev-image-keyboard-response,529,1440128,learnblock2,616,img/planet3_left.png,3,Community 3,NA,TRUE,f,f,NA,NA,NA,1,6,"6,15,7,10,2,1,11,14,5,9,4,8,3,12,13"
14416,commdev-image-keyboard-response,530,1441382,learnblock2,528,img/planet4_left.png,4,Community 3,NA,FALSE,j,f,NA,NA,NA,1,6,"6,15,7,10,2,1,11,14,5,9,4,8,3,12,13"
14416,commdev-image-keyboard-response,531,1442634,learnblock2,806,img/planet3_right.png,3,Community 3,NA,TRUE,j,j,NA,NA,NA,1,6,"6,15,7,10,2,1,11,14,5,9,4,8,3,12,13"
14416,commdev-image-keyboard-response,532,1443888,learnblock2,596,img/planet4_left.png,4,Community 3,NA,TRUE,f,f,NA,NA,NA,1,6,"6,15,7,10,2,1,11,14,5,9,4,8,3,12,13"
14416,commdev-image-keyboard-response,533,1445141,learnblock2,597,img/planet13_right.png,13,Community 3,NA,TRUE,j,j,NA,NA,NA,1,6,"6,15,7,10,2,1,11,14,5,9,4,8,3,12,13"
14416,commdev-image-keyboard-response,534,1446394,learnblock2,517.0000000002328,img/planet4_right.png,4,Community 3,NA,TRUE,j,j,NA,NA,NA,1,6,"6,15,7,10,2,1,11,14,5,9,4,8,3,12,13"
14416,commdev-image-keyboard-response,535,1447647,learnblock2,513,img/planet2_right.png,2,Community 1,NA,TRUE,j,j,NA,NA,NA,1,6,"6,15,7,10,2,1,11,14,5,9,4,8,3,12,13"
14416,commdev-image-keyboard-response,536,1448901,learnblock2,571,img/planet6_left.png,6,Community 1,NA,TRUE,f,f,NA,NA,NA,1,6,"6,15,7,10,2,1,11,14,5,9,4,8,3,12,13"
14416,commdev-image-keyboard-response,537,1450154,learnblock2,542,img/planet2_right.png,2,Community 1,NA,TRUE,j,j,NA,NA,NA,1,6,"6,15,7,10,2,1,11,14,5,9,4,8,3,12,13"
14416,commdev-image-keyboard-response,538,1451408,learnblock2,500,img/planet4_right.png,4,Community 3,NA,TRUE,j,j,NA,NA,NA,1,6,"6,15,7,10,2,1,11,14,5,9,4,8,3,12,13"
14416,commdev-image-keyboard-response,539,1452662,learnblock2,449.99999999976717,img/planet12_left.png,12,Community 3,NA,TRUE,f,f,NA,NA,NA,1,6,"6,15,7,10,2,1,11,14,5,9,4,8,3,12,13"
14416,commdev-image-keyboard-response,540,1453916,learnblock2,836,img/planet8_left.png,8,Community 3,NA,TRUE,f,f,NA,NA,NA,1,6,"6,15,7,10,2,1,11,14,5,9,4,8,3,12,13"
14416,commdev-image-keyboard-response,541,1455170,learnblock2,652,img/planet14_left.png,14,Community 2,NA,TRUE,f,f,NA,NA,NA,1,6,"6,15,7,10,2,1,11,14,5,9,4,8,3,12,13"
14416,commdev-image-keyboard-response,542,1456423,learnblock2,638,img/planet8_left.png,8,Community 3,NA,TRUE,f,f,NA,NA,NA,1,6,"6,15,7,10,2,1,11,14,5,9,4,8,3,12,13"
14416,commdev-image-keyboard-response,543,1457677,learnblock2,655,img/planet12_left.png,12,Community 3,NA,TRUE,f,f,NA,NA,NA,1,6,"6,15,7,10,2,1,11,14,5,9,4,8,3,12,13"
14416,commdev-image-keyboard-response,544,1458929,learnblock2,632,img/planet4_right.png,4,Community 3,NA,TRUE,j,j,NA,NA,NA,1,6,"6,15,7,10,2,1,11,14,5,9,4,8,3,12,13"
14416,commdev-image-keyboard-response,545,1460182,learnblock2,555.9999999997672,img/planet12_left.png,12,Community 3,NA,TRUE,f,f,NA,NA,NA,1,6,"6,15,7,10,2,1,11,14,5,9,4,8,3,12,13"
14416,commdev-image-keyboard-response,546,1461436,learnblock2,535,img/planet4_right.png,4,Community 3,NA,TRUE,j,j,NA,NA,NA,1,6,"6,15,7,10,2,1,11,14,5,9,4,8,3,12,13"
14416,commdev-image-keyboard-response,547,1462690,learnblock2,667,img/planet12_right.png,12,Community 3,NA,TRUE,j,j,NA,NA,NA,1,6,"6,15,7,10,2,1,11,14,5,9,4,8,3,12,13"
14416,commdev-image-keyboard-response,548,1463943,learnblock2,698,img/planet8_right.png,8,Community 3,NA,TRUE,j,j,NA,NA,NA,1,6,"6,15,7,10,2,1,11,14,5,9,4,8,3,12,13"
14416,commdev-image-keyboard-response,549,1465196,learnblock2,560,img/planet14_right.png,14,Community 2,NA,TRUE,j,j,NA,NA,NA,1,6,"6,15,7,10,2,1,11,14,5,9,4,8,3,12,13"
14416,commdev-image-keyboard-response,550,1466449,learnblock2,584,img/planet11_right.png,11,Community 2,NA,TRUE,j,j,NA,NA,NA,1,6,"6,15,7,10,2,1,11,14,5,9,4,8,3,12,13"
14416,commdev-image-keyboard-response,551,1467705,learnblock2,568,img/planet14_left.png,14,Community 2,NA,TRUE,f,f,NA,NA,NA,1,6,"6,15,7,10,2,1,11,14,5,9,4,8,3,12,13"
14416,commdev-image-keyboard-response,552,1468957,learnblock2,726,img/planet11_right.png,11,Community 2,NA,TRUE,j,j,NA,NA,NA,1,6,"6,15,7,10,2,1,11,14,5,9,4,8,3,12,13"
14416,commdev-image-keyboard-response,553,1470210,learnblock2,621,img/planet5_left.png,5,Community 2,NA,TRUE,f,f,NA,NA,NA,1,6,"6,15,7,10,2,1,11,14,5,9,4,8,3,12,13"
14416,commdev-image-keyboard-response,554,1471463,learnblock2,880,img/planet11_left.png,11,Community 2,NA,TRUE,f,f,NA,NA,NA,1,6,"6,15,7,10,2,1,11,14,5,9,4,8,3,12,13"
14416,commdev-image-keyboard-response,555,1472716,learnblock2,569,img/planet9_right.png,9,Community 2,NA,TRUE,j,j,NA,NA,NA,1,6,"6,15,7,10,2,1,11,14,5,9,4,8,3,12,13"
14416,commdev-image-keyboard-response,556,1473969,learnblock2,617.0000000002328,img/planet1_right.png,1,Community 2,NA,TRUE,j,j,NA,NA,NA,1,6,"6,15,7,10,2,1,11,14,5,9,4,8,3,12,13"
14416,commdev-image-keyboard-response,557,1475223,learnblock2,561,img/planet9_left.png,9,Community 2,NA,TRUE,f,f,NA,NA,NA,1,6,"6,15,7,10,2,1,11,14,5,9,4,8,3,12,13"
14416,commdev-image-keyboard-response,558,1476476,learnblock2,544,img/planet5_right.png,5,Community 2,NA,TRUE,j,j,NA,NA,NA,1,6,"6,15,7,10,2,1,11,14,5,9,4,8,3,12,13"
14416,commdev-image-keyboard-response,559,1477730,learnblock2,609,img/planet11_left.png,11,Community 2,NA,TRUE,f,f,NA,NA,NA,1,6,"6,15,7,10,2,1,11,14,5,9,4,8,3,12,13"
14416,commdev-image-keyboard-response,560,1478983,learnblock2,590,img/planet14_right.png,14,Community 2,NA,TRUE,j,j,NA,NA,NA,1,6,"6,15,7,10,2,1,11,14,5,9,4,8,3,12,13"
14416,commdev-image-keyboard-response,561,1480237,learnblock2,565,img/planet8_left.png,8,Community 3,NA,TRUE,f,f,NA,NA,NA,1,6,"6,15,7,10,2,1,11,14,5,9,4,8,3,12,13"
14416,commdev-image-keyboard-response,562,1481491,learnblock2,638.9999999997672,img/planet14_left.png,14,Community 2,NA,TRUE,f,f,NA,NA,NA,1,6,"6,15,7,10,2,1,11,14,5,9,4,8,3,12,13"
14416,commdev-image-keyboard-response,563,1482744,learnblock2,630,img/planet9_left.png,9,Community 2,NA,TRUE,f,f,NA,NA,NA,1,6,"6,15,7,10,2,1,11,14,5,9,4,8,3,12,13"
14416,commdev-image-keyboard-response,564,1483998,learnblock2,710,img/planet5_left.png,5,Community 2,NA,TRUE,f,f,NA,NA,NA,1,6,"6,15,7,10,2,1,11,14,5,9,4,8,3,12,13"
14416,commdev-image-keyboard-response,565,1485252,learnblock2,616,img/planet14_left.png,14,Community 2,NA,TRUE,f,f,NA,NA,NA,1,6,"6,15,7,10,2,1,11,14,5,9,4,8,3,12,13"
14416,commdev-image-keyboard-response,566,1486505,learnblock2,580,img/planet9_right.png,9,Community 2,NA,TRUE,j,j,NA,NA,NA,1,6,"6,15,7,10,2,1,11,14,5,9,4,8,3,12,13"
14416,commdev-image-keyboard-response,567,1487759,learnblock2,609,img/planet5_right.png,5,Community 2,NA,TRUE,j,j,NA,NA,NA,1,6,"6,15,7,10,2,1,11,14,5,9,4,8,3,12,13"
14416,commdev-image-keyboard-response,568,1489013,learnblock2,624,img/planet1_right.png,1,Community 2,NA,TRUE,j,j,NA,NA,NA,1,6,"6,15,7,10,2,1,11,14,5,9,4,8,3,12,13"
14416,commdev-image-keyboard-response,569,1490267,learnblock2,651,img/planet11_left.png,11,Community 2,NA,TRUE,f,f,NA,NA,NA,1,6,"6,15,7,10,2,1,11,14,5,9,4,8,3,12,13"
14416,commdev-image-keyboard-response,570,1491520,learnblock2,555,img/planet9_right.png,9,Community 2,NA,TRUE,j,j,NA,NA,NA,1,6,"6,15,7,10,2,1,11,14,5,9,4,8,3,12,13"
14416,commdev-image-keyboard-response,571,1492774,learnblock2,460,img/planet14_left.png,14,Community 2,NA,TRUE,f,f,NA,NA,NA,1,6,"6,15,7,10,2,1,11,14,5,9,4,8,3,12,13"
14416,commdev-image-keyboard-response,572,1494028,learnblock2,589,img/planet9_left.png,9,Community 2,NA,TRUE,f,f,NA,NA,NA,1,6,"6,15,7,10,2,1,11,14,5,9,4,8,3,12,13"
14416,commdev-image-keyboard-response,573,1495282,learnblock2,564.0000000002328,img/planet14_right.png,14,Community 2,NA,TRUE,j,j,NA,NA,NA,1,6,"6,15,7,10,2,1,11,14,5,9,4,8,3,12,13"
14416,commdev-image-keyboard-response,574,1496534,learnblock2,601,img/planet8_right.png,8,Community 3,NA,TRUE,j,j,NA,NA,NA,1,6,"6,15,7,10,2,1,11,14,5,9,4,8,3,12,13"
14416,commdev-image-keyboard-response,575,1497787,learnblock2,617.0000000002328,img/planet3_right.png,3,Community 3,NA,TRUE,j,j,NA,NA,NA,1,6,"6,15,7,10,2,1,11,14,5,9,4,8,3,12,13"
14416,commdev-image-keyboard-response,576,1499041,learnblock2,537,img/planet4_left.png,4,Community 3,NA,TRUE,f,f,NA,NA,NA,1,6,"6,15,7,10,2,1,11,14,5,9,4,8,3,12,13"
14416,commdev-image-keyboard-response,577,1500295,learnblock2,570.0000000002328,img/planet12_left.png,12,Community 3,NA,TRUE,f,f,NA,NA,NA,1,6,"6,15,7,10,2,1,11,14,5,9,4,8,3,12,13"
14416,commdev-image-keyboard-response,578,1501549,learnblock2,542,img/planet13_right.png,13,Community 3,NA,TRUE,j,j,NA,NA,NA,1,6,"6,15,7,10,2,1,11,14,5,9,4,8,3,12,13"
14416,commdev-image-keyboard-response,579,1502803,learnblock2,585,img/planet12_left.png,12,Community 3,NA,TRUE,f,f,NA,NA,NA,1,6,"6,15,7,10,2,1,11,14,5,9,4,8,3,12,13"
14416,commdev-image-keyboard-response,580,1504058,learnblock2,672,img/planet8_left.png,8,Community 3,NA,TRUE,f,f,NA,NA,NA,1,6,"6,15,7,10,2,1,11,14,5,9,4,8,3,12,13"
14416,commdev-image-keyboard-response,581,1505312,learnblock2,806,img/planet14_right.png,14,Community 2,NA,TRUE,j,j,NA,NA,NA,1,6,"6,15,7,10,2,1,11,14,5,9,4,8,3,12,13"
14416,commdev-image-keyboard-response,582,1506566,learnblock2,567,img/planet5_left.png,5,Community 2,NA,TRUE,f,f,NA,NA,NA,1,6,"6,15,7,10,2,1,11,14,5,9,4,8,3,12,13"
14416,commdev-image-keyboard-response,583,1507820,learnblock2,613,img/planet1_right.png,1,Community 2,NA,TRUE,j,j,NA,NA,NA,1,6,"6,15,7,10,2,1,11,14,5,9,4,8,3,12,13"
14416,commdev-image-keyboard-response,584,1509073,learnblock2,588,img/planet5_right.png,5,Community 2,NA,TRUE,j,j,NA,NA,NA,1,6,"6,15,7,10,2,1,11,14,5,9,4,8,3,12,13"
14416,commdev-image-keyboard-response,585,1510327,learnblock2,463.00000000023283,img/planet11_left.png,11,Community 2,NA,TRUE,f,f,NA,NA,NA,1,6,"6,15,7,10,2,1,11,14,5,9,4,8,3,12,13"
14416,commdev-image-keyboard-response,586,1511581,learnblock2,431,img/planet9_right.png,9,Community 2,NA,TRUE,j,j,NA,NA,NA,1,6,"6,15,7,10,2,1,11,14,5,9,4,8,3,12,13"
14416,commdev-image-keyboard-response,587,1512835,learnblock2,491,img/planet11_left.png,11,Community 2,NA,TRUE,f,f,NA,NA,NA,1,6,"6,15,7,10,2,1,11,14,5,9,4,8,3,12,13"
14416,commdev-image-keyboard-response,588,1514088,learnblock2,586.9999999997672,img/planet5_left.png,5,Community 2,NA,FALSE,j,f,NA,NA,NA,1,6,"6,15,7,10,2,1,11,14,5,9,4,8,3,12,13"
14416,commdev-image-keyboard-response,589,1515342,learnblock2,744,img/planet1_left.png,1,Community 2,NA,TRUE,f,f,NA,NA,NA,1,6,"6,15,7,10,2,1,11,14,5,9,4,8,3,12,13"
14416,commdev-image-keyboard-response,590,1516596,learnblock2,762,img/planet11_left.png,11,Community 2,NA,TRUE,f,f,NA,NA,NA,1,6,"6,15,7,10,2,1,11,14,5,9,4,8,3,12,13"
14416,commdev-image-keyboard-response,591,1517850,learnblock2,695,img/planet14_left.png,14,Community 2,NA,TRUE,f,f,NA,NA,NA,1,6,"6,15,7,10,2,1,11,14,5,9,4,8,3,12,13"
14416,commdev-image-keyboard-response,592,1519102,learnblock2,608,img/planet9_right.png,9,Community 2,NA,TRUE,j,j,NA,NA,NA,1,6,"6,15,7,10,2,1,11,14,5,9,4,8,3,12,13"
14416,commdev-image-keyboard-response,593,1520356,learnblock2,576,img/planet1_right.png,1,Community 2,NA,TRUE,j,j,NA,NA,NA,1,6,"6,15,7,10,2,1,11,14,5,9,4,8,3,12,13"
14416,commdev-image-keyboard-response,594,1521610,learnblock2,703,img/planet10_left.png,10,Community 1,NA,TRUE,f,f,NA,NA,NA,1,6,"6,15,7,10,2,1,11,14,5,9,4,8,3,12,13"
14416,commdev-image-keyboard-response,595,1522863,learnblock2,591,img/planet1_right.png,1,Community 2,NA,TRUE,j,j,NA,NA,NA,1,6,"6,15,7,10,2,1,11,14,5,9,4,8,3,12,13"
14416,commdev-image-keyboard-response,596,1524117,learnblock2,409.99999999976717,img/planet10_left.png,10,Community 1,NA,TRUE,f,f,NA,NA,NA,1,6,"6,15,7,10,2,1,11,14,5,9,4,8,3,12,13"
14416,commdev-image-keyboard-response,597,1525371,learnblock2,493,img/planet1_left.png,1,Community 2,NA,TRUE,f,f,NA,NA,NA,1,6,"6,15,7,10,2,1,11,14,5,9,4,8,3,12,13"
14416,commdev-image-keyboard-response,598,1526625,learnblock2,924.0000000002328,img/planet5_right.png,5,Community 2,NA,TRUE,j,j,NA,NA,NA,1,6,"6,15,7,10,2,1,11,14,5,9,4,8,3,12,13"
14416,commdev-image-keyboard-response,599,1527878,learnblock2,505,img/planet11_right.png,11,Community 2,NA,TRUE,j,j,NA,NA,NA,1,6,"6,15,7,10,2,1,11,14,5,9,4,8,3,12,13"
14416,commdev-image-keyboard-response,600,1529134,learnblock2,713.0000000002328,img/planet5_left.png,5,Community 2,NA,FALSE,j,f,NA,NA,NA,1,6,"6,15,7,10,2,1,11,14,5,9,4,8,3,12,13"
14416,commdev-image-keyboard-response,601,1530387,learnblock2,619,img/planet11_right.png,11,Community 2,NA,TRUE,j,j,NA,NA,NA,1,6,"6,15,7,10,2,1,11,14,5,9,4,8,3,12,13"
14416,commdev-image-keyboard-response,602,1531641,learnblock2,932,img/planet14_right.png,14,Community 2,NA,TRUE,j,j,NA,NA,NA,1,6,"6,15,7,10,2,1,11,14,5,9,4,8,3,12,13"
14416,commdev-image-keyboard-response,603,1532894,learnblock2,560,img/planet8_left.png,8,Community 3,NA,TRUE,f,f,NA,NA,NA,1,6,"6,15,7,10,2,1,11,14,5,9,4,8,3,12,13"
14416,commdev-image-keyboard-response,604,1534146,learnblock2,585.0000000002328,img/planet12_right.png,12,Community 3,NA,TRUE,j,j,NA,NA,NA,1,6,"6,15,7,10,2,1,11,14,5,9,4,8,3,12,13"
14416,commdev-image-keyboard-response,605,1535400,learnblock2,709,img/planet8_right.png,8,Community 3,NA,TRUE,j,j,NA,NA,NA,1,6,"6,15,7,10,2,1,11,14,5,9,4,8,3,12,13"
14416,commdev-image-keyboard-response,606,1536653,learnblock2,626,img/planet12_left.png,12,Community 3,NA,TRUE,f,f,NA,NA,NA,1,6,"6,15,7,10,2,1,11,14,5,9,4,8,3,12,13"
14416,commdev-image-keyboard-response,607,1537906,learnblock2,845.0000000002328,img/planet8_left.png,8,Community 3,NA,FALSE,j,f,NA,NA,NA,1,6,"6,15,7,10,2,1,11,14,5,9,4,8,3,12,13"
14416,commdev-image-keyboard-response,608,1539160,learnblock2,647,img/planet13_right.png,13,Community 3,NA,TRUE,j,j,NA,NA,NA,1,6,"6,15,7,10,2,1,11,14,5,9,4,8,3,12,13"
14416,commdev-image-keyboard-response,609,1540413,learnblock2,608.9999999997672,img/planet4_left.png,4,Community 3,NA,TRUE,f,f,NA,NA,NA,1,6,"6,15,7,10,2,1,11,14,5,9,4,8,3,12,13"
14416,commdev-image-keyboard-response,610,1541666,learnblock2,584,img/planet12_left.png,12,Community 3,NA,TRUE,f,f,NA,NA,NA,1,6,"6,15,7,10,2,1,11,14,5,9,4,8,3,12,13"
14416,commdev-image-keyboard-response,611,1542919,learnblock2,512,img/planet4_right.png,4,Community 3,NA,TRUE,j,j,NA,NA,NA,1,6,"6,15,7,10,2,1,11,14,5,9,4,8,3,12,13"
14416,commdev-image-keyboard-response,612,1544173,learnblock2,723,img/planet2_left.png,2,Community 1,NA,TRUE,f,f,NA,NA,NA,1,6,"6,15,7,10,2,1,11,14,5,9,4,8,3,12,13"
14416,commdev-image-keyboard-response,613,1545427,learnblock2,647,img/planet7_right.png,7,Community 1,NA,TRUE,j,j,NA,NA,NA,1,6,"6,15,7,10,2,1,11,14,5,9,4,8,3,12,13"
14416,commdev-image-keyboard-response,614,1546681,learnblock2,565,img/planet6_left.png,6,Community 1,NA,TRUE,f,f,NA,NA,NA,1,6,"6,15,7,10,2,1,11,14,5,9,4,8,3,12,13"
14416,commdev-image-keyboard-response,615,1547935,learnblock2,570.9999999997672,img/planet2_left.png,2,Community 1,NA,TRUE,f,f,NA,NA,NA,1,6,"6,15,7,10,2,1,11,14,5,9,4,8,3,12,13"
14416,commdev-image-keyboard-response,616,1549189,learnblock2,652,img/planet15_right.png,15,Community 1,NA,TRUE,j,j,NA,NA,NA,1,6,"6,15,7,10,2,1,11,14,5,9,4,8,3,12,13"
14416,commdev-image-keyboard-response,617,1550446,learnblock2,638,img/planet2_left.png,2,Community 1,NA,TRUE,f,f,NA,NA,NA,1,6,"6,15,7,10,2,1,11,14,5,9,4,8,3,12,13"
14416,commdev-image-keyboard-response,618,1551701,learnblock2,574,img/planet4_right.png,4,Community 3,NA,TRUE,j,j,NA,NA,NA,1,6,"6,15,7,10,2,1,11,14,5,9,4,8,3,12,13"
14416,commdev-image-keyboard-response,619,1552958,learnblock2,598,img/planet13_left.png,13,Community 3,NA,TRUE,f,f,NA,NA,NA,1,6,"6,15,7,10,2,1,11,14,5,9,4,8,3,12,13"
14416,commdev-image-keyboard-response,620,1554214,learnblock2,602,img/planet8_left.png,8,Community 3,NA,TRUE,f,f,NA,NA,NA,1,6,"6,15,7,10,2,1,11,14,5,9,4,8,3,12,13"
14416,commdev-image-keyboard-response,621,1555470,learnblock2,658,img/planet3_left.png,3,Community 3,NA,TRUE,f,f,NA,NA,NA,1,6,"6,15,7,10,2,1,11,14,5,9,4,8,3,12,13"
14416,commdev-image-keyboard-response,622,1556725,learnblock2,696.0000000002328,img/planet12_left.png,12,Community 3,NA,TRUE,f,f,NA,NA,NA,1,6,"6,15,7,10,2,1,11,14,5,9,4,8,3,12,13"
14416,commdev-image-keyboard-response,623,1557981,learnblock2,681.9999999997672,img/planet8_right.png,8,Community 3,NA,TRUE,j,j,NA,NA,NA,1,6,"6,15,7,10,2,1,11,14,5,9,4,8,3,12,13"
14416,commdev-image-keyboard-response,624,1559236,learnblock2,609,img/planet13_right.png,13,Community 3,NA,FALSE,f,j,NA,NA,NA,1,6,"6,15,7,10,2,1,11,14,5,9,4,8,3,12,13"
14416,commdev-image-keyboard-response,625,1560492,learnblock2,535,img/planet3_left.png,3,Community 3,NA,TRUE,f,f,NA,NA,NA,1,6,"6,15,7,10,2,1,11,14,5,9,4,8,3,12,13"
14416,commdev-image-keyboard-response,626,1561749,learnblock2,499,img/planet8_right.png,8,Community 3,NA,TRUE,j,j,NA,NA,NA,1,6,"6,15,7,10,2,1,11,14,5,9,4,8,3,12,13"
14416,commdev-image-keyboard-response,627,1563004,learnblock2,545,img/planet12_left.png,12,Community 3,NA,TRUE,f,f,NA,NA,NA,1,6,"6,15,7,10,2,1,11,14,5,9,4,8,3,12,13"
14416,commdev-image-keyboard-response,628,1564258,learnblock2,687.9999999997672,img/planet13_right.png,13,Community 3,NA,TRUE,j,j,NA,NA,NA,1,6,"6,15,7,10,2,1,11,14,5,9,4,8,3,12,13"
14416,commdev-image-keyboard-response,629,1565513,learnblock2,594,img/planet4_left.png,4,Community 3,NA,TRUE,f,f,NA,NA,NA,1,6,"6,15,7,10,2,1,11,14,5,9,4,8,3,12,13"
14416,commdev-image-keyboard-response,630,1566766,learnblock2,585,img/planet2_left.png,2,Community 1,NA,TRUE,f,f,NA,NA,NA,1,6,"6,15,7,10,2,1,11,14,5,9,4,8,3,12,13"
14416,commdev-image-keyboard-response,631,1568020,learnblock2,504.99999999976717,img/planet4_right.png,4,Community 3,NA,TRUE,j,j,NA,NA,NA,1,6,"6,15,7,10,2,1,11,14,5,9,4,8,3,12,13"
14416,commdev-image-keyboard-response,632,1569274,learnblock2,572,img/planet12_right.png,12,Community 3,NA,TRUE,j,j,NA,NA,NA,1,6,"6,15,7,10,2,1,11,14,5,9,4,8,3,12,13"
14416,commdev-image-keyboard-response,633,1570529,learnblock2,723,img/planet8_left.png,8,Community 3,NA,TRUE,f,f,NA,NA,NA,1,6,"6,15,7,10,2,1,11,14,5,9,4,8,3,12,13"
14416,commdev-image-keyboard-response,634,1571782,learnblock2,519,img/planet12_right.png,12,Community 3,NA,TRUE,j,j,NA,NA,NA,1,6,"6,15,7,10,2,1,11,14,5,9,4,8,3,12,13"
14416,commdev-image-keyboard-response,635,1573037,learnblock2,582,img/planet13_left.png,13,Community 3,NA,TRUE,f,f,NA,NA,NA,1,6,"6,15,7,10,2,1,11,14,5,9,4,8,3,12,13"
14416,commdev-image-keyboard-response,636,1574291,learnblock2,551.0000000002328,img/planet3_left.png,3,Community 3,NA,TRUE,f,f,NA,NA,NA,1,6,"6,15,7,10,2,1,11,14,5,9,4,8,3,12,13"
14416,commdev-image-keyboard-response,637,1575545,learnblock2,445.99999999976717,img/planet13_left.png,13,Community 3,NA,TRUE,f,f,NA,NA,NA,1,6,"6,15,7,10,2,1,11,14,5,9,4,8,3,12,13"
14416,commdev-image-keyboard-response,638,1576799,learnblock2,531,img/planet3_right.png,3,Community 3,NA,TRUE,j,j,NA,NA,NA,1,6,"6,15,7,10,2,1,11,14,5,9,4,8,3,12,13"
14416,commdev-image-keyboard-response,639,1578053,learnblock2,515,img/planet13_left.png,13,Community 3,NA,TRUE,f,f,NA,NA,NA,1,6,"6,15,7,10,2,1,11,14,5,9,4,8,3,12,13"
14416,commdev-image-keyboard-response,640,1579309,learnblock2,508,img/planet3_right.png,3,Community 3,NA,TRUE,j,j,NA,NA,NA,1,6,"6,15,7,10,2,1,11,14,5,9,4,8,3,12,13"
14416,commdev-image-keyboard-response,641,1580563,learnblock2,508,img/planet12_left.png,12,Community 3,NA,TRUE,f,f,NA,NA,NA,1,6,"6,15,7,10,2,1,11,14,5,9,4,8,3,12,13"
14416,commdev-image-keyboard-response,642,1581817,learnblock2,587.9999999997672,img/planet4_right.png,4,Community 3,NA,TRUE,j,j,NA,NA,NA,1,6,"6,15,7,10,2,1,11,14,5,9,4,8,3,12,13"
14416,commdev-image-keyboard-response,643,1583070,learnblock2,810,img/planet12_right.png,12,Community 3,NA,TRUE,j,j,NA,NA,NA,1,6,"6,15,7,10,2,1,11,14,5,9,4,8,3,12,13"
14416,commdev-image-keyboard-response,644,1584323,learnblock2,769,img/planet4_right.png,4,Community 3,NA,TRUE,j,j,NA,NA,NA,1,6,"6,15,7,10,2,1,11,14,5,9,4,8,3,12,13"
14416,commdev-image-keyboard-response,645,1585576,learnblock2,718.9999999997672,img/planet2_right.png,2,Community 1,NA,TRUE,j,j,NA,NA,NA,1,6,"6,15,7,10,2,1,11,14,5,9,4,8,3,12,13"
14416,commdev-image-keyboard-response,646,1586831,learnblock2,711,img/planet6_right.png,6,Community 1,NA,TRUE,j,j,NA,NA,NA,1,6,"6,15,7,10,2,1,11,14,5,9,4,8,3,12,13"
14416,commdev-image-keyboard-response,647,1588086,learnblock2,497,img/planet10_right.png,10,Community 1,NA,TRUE,j,j,NA,NA,NA,1,6,"6,15,7,10,2,1,11,14,5,9,4,8,3,12,13"
14416,commdev-image-keyboard-response,648,1589340,learnblock2,466,img/planet1_left.png,1,Community 2,NA,TRUE,f,f,NA,NA,NA,1,6,"6,15,7,10,2,1,11,14,5,9,4,8,3,12,13"
14416,commdev-image-keyboard-response,649,1590594,learnblock2,434,img/planet10_right.png,10,Community 1,NA,TRUE,j,j,NA,NA,NA,1,6,"6,15,7,10,2,1,11,14,5,9,4,8,3,12,13"
14416,commdev-image-keyboard-response,650,1591848,learnblock2,594,img/planet6_left.png,6,Community 1,NA,TRUE,f,f,NA,NA,NA,1,6,"6,15,7,10,2,1,11,14,5,9,4,8,3,12,13"
14416,commdev-image-keyboard-response,651,1593102,learnblock2,430,img/planet10_right.png,10,Community 1,NA,TRUE,j,j,NA,NA,NA,1,6,"6,15,7,10,2,1,11,14,5,9,4,8,3,12,13"
14416,commdev-image-keyboard-response,652,1594354,learnblock2,678,img/planet1_left.png,1,Community 2,NA,TRUE,f,f,NA,NA,NA,1,6,"6,15,7,10,2,1,11,14,5,9,4,8,3,12,13"
14416,commdev-image-keyboard-response,653,1595608,learnblock2,702,img/planet11_left.png,11,Community 2,NA,TRUE,f,f,NA,NA,NA,1,6,"6,15,7,10,2,1,11,14,5,9,4,8,3,12,13"
14416,commdev-image-keyboard-response,654,1596861,learnblock2,589,img/planet14_right.png,14,Community 2,NA,TRUE,j,j,NA,NA,NA,1,6,"6,15,7,10,2,1,11,14,5,9,4,8,3,12,13"
14416,commdev-image-keyboard-response,655,1598115,learnblock2,626,img/planet8_left.png,8,Community 3,NA,TRUE,f,f,NA,NA,NA,1,6,"6,15,7,10,2,1,11,14,5,9,4,8,3,12,13"
14416,commdev-image-keyboard-response,656,1599368,learnblock2,806.9999999997672,img/planet14_left.png,14,Community 2,NA,TRUE,f,f,NA,NA,NA,1,6,"6,15,7,10,2,1,11,14,5,9,4,8,3,12,13"
14416,commdev-image-keyboard-response,657,1600621,learnblock2,651.0000000002328,img/planet11_right.png,11,Community 2,NA,TRUE,j,j,NA,NA,NA,1,6,"6,15,7,10,2,1,11,14,5,9,4,8,3,12,13"
14416,commdev-image-keyboard-response,658,1601874,learnblock2,509,img/planet9_left.png,9,Community 2,NA,TRUE,f,f,NA,NA,NA,1,6,"6,15,7,10,2,1,11,14,5,9,4,8,3,12,13"
14416,commdev-image-keyboard-response,659,1603128,learnblock2,567.9999999997672,img/planet11_right.png,11,Community 2,NA,TRUE,j,j,NA,NA,NA,1,6,"6,15,7,10,2,1,11,14,5,9,4,8,3,12,13"
14416,commdev-image-keyboard-response,660,1604382,learnblock2,464,img/planet14_left.png,14,Community 2,NA,TRUE,f,f,NA,NA,NA,1,6,"6,15,7,10,2,1,11,14,5,9,4,8,3,12,13"
14416,commdev-image-keyboard-response,661,1605635,learnblock2,671,img/planet5_left.png,5,Community 2,NA,TRUE,f,f,NA,NA,NA,1,6,"6,15,7,10,2,1,11,14,5,9,4,8,3,12,13"
14416,commdev-image-keyboard-response,662,1606888,learnblock2,605.0000000002328,img/planet11_right.png,11,Community 2,NA,TRUE,j,j,NA,NA,NA,1,6,"6,15,7,10,2,1,11,14,5,9,4,8,3,12,13"
14416,commdev-image-keyboard-response,663,1608142,learnblock2,552,img/planet9_right.png,9,Community 2,NA,TRUE,j,j,NA,NA,NA,1,6,"6,15,7,10,2,1,11,14,5,9,4,8,3,12,13"
14416,commdev-image-keyboard-response,664,1609396,learnblock2,528,img/planet5_right.png,5,Community 2,NA,TRUE,j,j,NA,NA,NA,1,6,"6,15,7,10,2,1,11,14,5,9,4,8,3,12,13"
14416,commdev-image-keyboard-response,665,1610650,learnblock2,611,img/planet11_right.png,11,Community 2,NA,TRUE,j,j,NA,NA,NA,1,6,"6,15,7,10,2,1,11,14,5,9,4,8,3,12,13"
14416,commdev-image-keyboard-response,666,1611904,learnblock2,534,img/planet5_left.png,5,Community 2,NA,TRUE,f,f,NA,NA,NA,1,6,"6,15,7,10,2,1,11,14,5,9,4,8,3,12,13"
14416,commdev-image-keyboard-response,667,1613158,learnblock2,599.9999999997672,img/planet9_left.png,9,Community 2,NA,TRUE,f,f,NA,NA,NA,1,6,"6,15,7,10,2,1,11,14,5,9,4,8,3,12,13"
14416,commdev-image-keyboard-response,668,1614412,learnblock2,549,img/planet14_right.png,14,Community 2,NA,TRUE,j,j,NA,NA,NA,1,6,"6,15,7,10,2,1,11,14,5,9,4,8,3,12,13"
14416,commdev-image-keyboard-response,669,1615666,learnblock2,454,img/planet5_left.png,5,Community 2,NA,TRUE,f,f,NA,NA,NA,1,6,"6,15,7,10,2,1,11,14,5,9,4,8,3,12,13"
14416,commdev-image-keyboard-response,670,1616920,learnblock2,479.00000000023283,img/planet9_right.png,9,Community 2,NA,FALSE,f,j,NA,NA,NA,1,6,"6,15,7,10,2,1,11,14,5,9,4,8,3,12,13"
14416,commdev-image-keyboard-response,671,1618173,learnblock2,576,img/planet5_left.png,5,Community 2,NA,TRUE,f,f,NA,NA,NA,1,6,"6,15,7,10,2,1,11,14,5,9,4,8,3,12,13"
14416,commdev-image-keyboard-response,672,1619428,learnblock2,478.99999999976717,img/planet1_left.png,1,Community 2,NA,TRUE,f,f,NA,NA,NA,1,6,"6,15,7,10,2,1,11,14,5,9,4,8,3,12,13"
14416,commdev-image-keyboard-response,673,1620681,learnblock2,692,img/planet11_right.png,11,Community 2,NA,TRUE,j,j,NA,NA,NA,1,6,"6,15,7,10,2,1,11,14,5,9,4,8,3,12,13"
14416,commdev-image-keyboard-response,674,1621935,learnblock2,667,img/planet5_right.png,5,Community 2,NA,TRUE,j,j,NA,NA,NA,1,6,"6,15,7,10,2,1,11,14,5,9,4,8,3,12,13"
14416,commdev-image-keyboard-response,675,1623189,learnblock2,565.0000000002328,img/planet9_right.png,9,Community 2,NA,TRUE,j,j,NA,NA,NA,1,6,"6,15,7,10,2,1,11,14,5,9,4,8,3,12,13"
14416,commdev-image-keyboard-response,676,1624443,learnblock2,507,img/planet5_left.png,5,Community 2,NA,FALSE,j,f,NA,NA,NA,1,6,"6,15,7,10,2,1,11,14,5,9,4,8,3,12,13"
14416,commdev-image-keyboard-response,677,1625696,learnblock2,571,img/planet14_right.png,14,Community 2,NA,TRUE,j,j,NA,NA,NA,1,6,"6,15,7,10,2,1,11,14,5,9,4,8,3,12,13"
14416,commdev-image-keyboard-response,678,1626950,learnblock2,594,img/planet9_right.png,9,Community 2,NA,TRUE,j,j,NA,NA,NA,1,6,"6,15,7,10,2,1,11,14,5,9,4,8,3,12,13"
14416,commdev-image-keyboard-response,679,1628204,learnblock2,518,img/planet11_right.png,11,Community 2,NA,TRUE,j,j,NA,NA,NA,1,6,"6,15,7,10,2,1,11,14,5,9,4,8,3,12,13"
14416,commdev-image-keyboard-response,680,1629458,learnblock2,573,img/planet14_left.png,14,Community 2,NA,TRUE,f,f,NA,NA,NA,1,6,"6,15,7,10,2,1,11,14,5,9,4,8,3,12,13"
14416,commdev-image-keyboard-response,681,1630713,learnblock2,605,img/planet11_right.png,11,Community 2,NA,TRUE,j,j,NA,NA,NA,1,6,"6,15,7,10,2,1,11,14,5,9,4,8,3,12,13"
14416,commdev-image-keyboard-response,682,1631966,learnblock2,598.9999999997672,img/planet1_left.png,1,Community 2,NA,TRUE,f,f,NA,NA,NA,1,6,"6,15,7,10,2,1,11,14,5,9,4,8,3,12,13"
14416,commdev-image-keyboard-response,683,1633219,learnblock2,609,img/planet11_left.png,11,Community 2,NA,TRUE,f,f,NA,NA,NA,1,6,"6,15,7,10,2,1,11,14,5,9,4,8,3,12,13"
14416,commdev-image-keyboard-response,684,1634472,learnblock2,715.0000000002328,img/planet9_left.png,9,Community 2,NA,TRUE,f,f,NA,NA,NA,1,6,"6,15,7,10,2,1,11,14,5,9,4,8,3,12,13"
