subject_id,trial_type,trial_index,time_elapsed,block,rt,stimulus,planet,community,response,correct,key_press,learning_correct_response,parse,init_locations,final_locations,browser_interactions,num_comp,planet_map
14155,commdev-instructions,7,89519,NA,1169.699999988079,"<p>In this game, you will be shown a 3x3 grid of patterns.</p> <p>The last one in the bottom right-hand corner, <strong>will be missing:</strong></p> <div style='width: 700px;'><div style='float: top;'><img style='width: 200px;' src='practice/p1_M1.png'></img><p class='small'>You need to select<strong> which of the four possible patterns </strong>along the bottom<strong> fits into the gap:</strong></p></div><div style='float: top;'><img style='width: 300px;' src='practice/p1_T1.png'></img></div><br>",NA,NA,NA,NA,NA,NA,NA,NA,NA,NA,6,"15,6,7,11,2,12,9,14,4,8,5,1,10,13,3"
14155,commdev-instructions,8,120939,NA,12601.40000000596,"<p>Try to be as fast and as accurate as you can be.</p> <p>If you cannot solve the puzzle then you should guess - you will not be penalised for an incorrect answer.</p> <p>The task contains a shuffled mix of easy, medium and hard puzzles.</p> <p>You will have <strong>30 seconds</strong> to complete each puzzle.</p><br>",NA,NA,NA,NA,NA,NA,NA,NA,NA,NA,6,"15,6,7,11,2,12,9,14,4,8,5,1,10,13,3"
14155,commdev-instructions,15,149576,NA,3250.7000000178814,<p><strong>Success!</strong></p> <p>You seem to be getting the hang of this...</p> <p>Let's move on to the real trials.</p><br>,NA,NA,NA,NA,NA,NA,NA,NA,NA,NA,6,"15,6,7,11,2,12,9,14,4,8,5,1,10,13,3"
14155,commdev-instructions,93,643382,NA,2637.0999999940395,"<p>In this game, you are a scientist on board a space shuttle. </p><p> On each mission, you will visit planets all across the universe.</p><img src=""img/controlroom.jpg"" width=300vw>",NA,NA,NA,NA,NA,NA,NA,NA,NA,NA,6,"15,6,7,11,2,12,9,14,4,8,5,1,10,13,3"
14155,commdev-instructions,94,646501,NA,1041.6000000238419,"<p>Here are a few planets you might see:</p><img src=""img/practice1.png"" width=200vw><img src=""img/practice2.png"" width=200vw><img src=""img/practice3.png"" width=200vw>",NA,NA,NA,NA,NA,NA,NA,NA,NA,NA,6,"15,6,7,11,2,12,9,14,4,8,5,1,10,13,3"
14155,commdev-instructions,95,655590,NA,1682.300000011921,"<p>Your job as a scientist is to record which direction the winds are moving on each planet.</p><p>There are two types of wind directions:</p><img src=""img/practice1_left.png"" width=200vw><img src=""img/practice1_right.png"" width=200vw>",NA,NA,NA,NA,NA,NA,NA,NA,NA,NA,6,"15,6,7,11,2,12,9,14,4,8,5,1,10,13,3"
14155,commdev-instructions,96,669796,NA,9317.59999999404,"<p>If the winds are moving this way, press the letter <strong>F</strong> on the keyboard as fast as you can.</p><img src=""img/leftwind.png"" width=250vw>",NA,NA,NA,NA,NA,NA,NA,NA,NA,NA,6,"15,6,7,11,2,12,9,14,4,8,5,1,10,13,3"
14155,commdev-instructions,97,676119,NA,1816,"<p>If the winds are moving this way, press the letter <strong>J</strong> on the keyboard as fast as you can.</p><img src=""img/rightwind.png"" width=350vw>",NA,NA,NA,NA,NA,NA,NA,NA,NA,NA,6,"15,6,7,11,2,12,9,14,4,8,5,1,10,13,3"
14155,commdev-instructions,98,681982,NA,1439,<p>You will have 1 second to respond. Try to respond before the time runs out!,NA,NA,NA,NA,NA,NA,NA,NA,NA,NA,6,"15,6,7,11,2,12,9,14,4,8,5,1,10,13,3"
14155,commdev-instructions,99,688903,NA,1480.800000011921,<p>The planets you will visit will look different from each other.</p><p>You should respond <strong>only</strong> based on wind direction.,NA,NA,NA,NA,NA,NA,NA,NA,NA,NA,6,"15,6,7,11,2,12,9,14,4,8,5,1,10,13,3"
14155,commdev-instructions,100,696179,NA,2110.699999988079,"<p> Ready to start the practice round? </p><p> Remember, press <strong>F</strong> or <strong>J</strong> depending on the wind direction.<br><img src=""img/categorize_planet_example.png""",NA,NA,NA,NA,NA,NA,NA,NA,NA,NA,6,"15,6,7,11,2,12,9,14,4,8,5,1,10,13,3"
14155,commdev-instructions,112,750685,NA,2080.399999976158,"<p>Great, now try a short practice mission. </p><p> This time, you will have 1 second to respond and you won't know whether you pressed the right or wrong key for each planet.</p>",NA,NA,NA,NA,NA,NA,NA,NA,NA,NA,6,"15,6,7,11,2,12,9,14,4,8,5,1,10,13,3"
14155,commdev-image-keyboard-response,113,752045,practice,633.3000000119209,img/practice2_right.png,NA,Number not found in mappings,NA,TRUE,j,j,NA,NA,NA,NA,6,"15,6,7,11,2,12,9,14,4,8,5,1,10,13,3"
14155,commdev-image-keyboard-response,114,753311,practice,594.5,img/practice4_left.png,NA,Number not found in mappings,NA,TRUE,f,f,NA,NA,NA,NA,6,"15,6,7,11,2,12,9,14,4,8,5,1,10,13,3"
14155,commdev-image-keyboard-response,115,754564,practice,537,img/practice3_left.png,NA,Number not found in mappings,NA,TRUE,f,f,NA,NA,NA,NA,6,"15,6,7,11,2,12,9,14,4,8,5,1,10,13,3"
14155,commdev-image-keyboard-response,116,755821,practice,649,img/practice2_left.png,NA,Number not found in mappings,NA,TRUE,f,f,NA,NA,NA,NA,6,"15,6,7,11,2,12,9,14,4,8,5,1,10,13,3"
14155,commdev-image-keyboard-response,117,757079,practice,474,img/practice4_right.png,NA,Number not found in mappings,NA,TRUE,j,j,NA,NA,NA,NA,6,"15,6,7,11,2,12,9,14,4,8,5,1,10,13,3"
14155,commdev-image-keyboard-response,118,758344,practice,474.2000000178814,img/practice2_right.png,NA,Number not found in mappings,NA,TRUE,j,j,NA,NA,NA,NA,6,"15,6,7,11,2,12,9,14,4,8,5,1,10,13,3"
14155,commdev-image-keyboard-response,119,759604,practice,642.4000000059605,img/practice3_left.png,NA,Number not found in mappings,NA,TRUE,f,f,NA,NA,NA,NA,6,"15,6,7,11,2,12,9,14,4,8,5,1,10,13,3"
14155,commdev-image-keyboard-response,120,760868,practice,472.10000002384186,img/practice1_right.png,NA,Number not found in mappings,NA,TRUE,j,j,NA,NA,NA,NA,6,"15,6,7,11,2,12,9,14,4,8,5,1,10,13,3"
14155,commdev-instructions,121,773560,NA,3141.9000000059605,"<p>Great job with the practice round.</p><p>During real missions, you won't know whether you pressed the right or wrong key for each planet.</p><p>But between missions, we will tell you how you did overall.</p>",NA,NA,NA,NA,NA,NA,NA,NA,NA,NA,6,"15,6,7,11,2,12,9,14,4,8,5,1,10,13,3"
14155,commdev-instructions,122,784024,NA,2223.5,<p>Try your best! You will be paid a bonus based on how many correct responses you make!</p><p>Responses that are too slow will not count toward your bonus.</p>,NA,NA,NA,NA,NA,NA,NA,NA,NA,NA,6,"15,6,7,11,2,12,9,14,4,8,5,1,10,13,3"
14155,commdev-instructions,123,791336,NA,1099.199999988079,"<p>You are almost ready to start the real game.</p><p> First, we are going to ask you some questions about how the game works.</p>",NA,NA,NA,NA,NA,NA,NA,NA,NA,NA,6,"15,6,7,11,2,12,9,14,4,8,5,1,10,13,3"
14155,commdev-instructions,132,874361,NA,2692.5,"<p> Nice work! It is now time to start the real game.<p></p>You will go on two missions to record wind directions of different planets.<p></p>Each one will take about 5 minutes. You will get to take a break between missions.<p><p> Remember, press <strong>F</strong> or <strong>J</strong> depending on the wind direction. Good luck!<br><img src=""img/categorize_planet_example.png""",NA,NA,NA,NA,NA,NA,NA,NA,NA,NA,6,"15,6,7,11,2,12,9,14,4,8,5,1,10,13,3"
14155,commdev-image-keyboard-response,134,878768,learnblock1,929.4000000059605,img/planet8_left.png,8,Community 2,NA,TRUE,f,f,NA,NA,NA,NA,6,"15,6,7,11,2,12,9,14,4,8,5,1,10,13,3"
14155,commdev-image-keyboard-response,135,880023,learnblock1,517.5999999940395,img/planet9_right.png,9,Community 2,NA,TRUE,j,j,NA,NA,NA,NA,6,"15,6,7,11,2,12,9,14,4,8,5,1,10,13,3"
14155,commdev-image-keyboard-response,136,881275,learnblock1,580.0999999940395,img/planet8_left.png,8,Community 2,NA,FALSE,j,f,NA,NA,NA,NA,6,"15,6,7,11,2,12,9,14,4,8,5,1,10,13,3"
14155,commdev-image-keyboard-response,137,882533,learnblock1,584.4000000059605,img/planet4_right.png,4,Community 2,NA,TRUE,j,j,NA,NA,NA,NA,6,"15,6,7,11,2,12,9,14,4,8,5,1,10,13,3"
14155,commdev-image-keyboard-response,138,883800,learnblock1,541.3000000119209,img/planet12_left.png,12,Community 2,NA,TRUE,f,f,NA,NA,NA,NA,6,"15,6,7,11,2,12,9,14,4,8,5,1,10,13,3"
14155,commdev-image-keyboard-response,139,885067,learnblock1,613.2000000178814,img/planet9_left.png,9,Community 2,NA,TRUE,f,f,NA,NA,NA,NA,6,"15,6,7,11,2,12,9,14,4,8,5,1,10,13,3"
14155,commdev-image-keyboard-response,140,886322,learnblock1,570.4000000059605,img/planet12_right.png,12,Community 2,NA,TRUE,j,j,NA,NA,NA,NA,6,"15,6,7,11,2,12,9,14,4,8,5,1,10,13,3"
14155,commdev-image-keyboard-response,141,887584,learnblock1,562.6999999880791,img/planet11_right.png,11,Community 1,NA,TRUE,j,j,NA,NA,NA,NA,6,"15,6,7,11,2,12,9,14,4,8,5,1,10,13,3"
14155,commdev-image-keyboard-response,142,888837,learnblock1,574.0999999940395,img/planet12_left.png,12,Community 2,NA,TRUE,f,f,NA,NA,NA,NA,6,"15,6,7,11,2,12,9,14,4,8,5,1,10,13,3"
14155,commdev-image-keyboard-response,143,890099,learnblock1,526.3000000119209,img/planet9_left.png,9,Community 2,NA,TRUE,f,f,NA,NA,NA,NA,6,"15,6,7,11,2,12,9,14,4,8,5,1,10,13,3"
14155,commdev-image-keyboard-response,144,891352,learnblock1,723.9000000059605,img/planet8_left.png,8,Community 2,NA,TRUE,f,f,NA,NA,NA,NA,6,"15,6,7,11,2,12,9,14,4,8,5,1,10,13,3"
14155,commdev-image-keyboard-response,145,892613,learnblock1,578.5999999940395,img/planet12_left.png,12,Community 2,NA,TRUE,f,f,NA,NA,NA,NA,6,"15,6,7,11,2,12,9,14,4,8,5,1,10,13,3"
14155,commdev-image-keyboard-response,146,893872,learnblock1,489.69999998807907,img/planet11_right.png,11,Community 1,NA,TRUE,j,j,NA,NA,NA,NA,6,"15,6,7,11,2,12,9,14,4,8,5,1,10,13,3"
14155,commdev-image-keyboard-response,147,895124,learnblock1,594.7999999821186,img/planet6_right.png,6,Community 1,NA,TRUE,j,j,NA,NA,NA,NA,6,"15,6,7,11,2,12,9,14,4,8,5,1,10,13,3"
14155,commdev-image-keyboard-response,148,896391,learnblock1,502.40000000596046,img/planet2_left.png,2,Community 1,NA,TRUE,f,f,NA,NA,NA,NA,6,"15,6,7,11,2,12,9,14,4,8,5,1,10,13,3"
14155,commdev-image-keyboard-response,149,897649,learnblock1,513.5999999940395,img/planet6_left.png,6,Community 1,NA,TRUE,f,f,NA,NA,NA,NA,6,"15,6,7,11,2,12,9,14,4,8,5,1,10,13,3"
14155,commdev-image-keyboard-response,150,898909,learnblock1,532.9000000059605,img/planet15_right.png,15,Community 1,NA,TRUE,j,j,NA,NA,NA,NA,6,"15,6,7,11,2,12,9,14,4,8,5,1,10,13,3"
14155,commdev-image-keyboard-response,151,900175,learnblock1,547.4000000059605,img/planet6_right.png,6,Community 1,NA,TRUE,j,j,NA,NA,NA,NA,6,"15,6,7,11,2,12,9,14,4,8,5,1,10,13,3"
14155,commdev-image-keyboard-response,152,901442,learnblock1,595.7999999821186,img/planet2_right.png,2,Community 1,NA,TRUE,j,j,NA,NA,NA,NA,6,"15,6,7,11,2,12,9,14,4,8,5,1,10,13,3"
14155,commdev-image-keyboard-response,153,902700,learnblock1,594.0999999940395,img/planet5_left.png,5,Community 3,NA,TRUE,f,f,NA,NA,NA,NA,6,"15,6,7,11,2,12,9,14,4,8,5,1,10,13,3"
14155,commdev-image-keyboard-response,154,903958,learnblock1,997.5,img/planet13_right.png,13,Community 3,NA,TRUE,j,j,NA,NA,NA,NA,6,"15,6,7,11,2,12,9,14,4,8,5,1,10,13,3"
14155,commdev-image-keyboard-response,155,905224,learnblock1,1024.699999988079,img/planet10_right.png,10,Community 3,NA,TRUE,j,j,NA,NA,NA,NA,6,"15,6,7,11,2,12,9,14,4,8,5,1,10,13,3"
14155,commdev-image-keyboard-response,156,906482,learnblock1,870.8000000119209,img/planet3_right.png,3,Community 3,NA,TRUE,j,j,NA,NA,NA,NA,6,"15,6,7,11,2,12,9,14,4,8,5,1,10,13,3"
14155,commdev-image-keyboard-response,157,907740,learnblock1,734.5999999940395,img/planet10_left.png,10,Community 3,NA,TRUE,f,f,NA,NA,NA,NA,6,"15,6,7,11,2,12,9,14,4,8,5,1,10,13,3"
14155,commdev-image-keyboard-response,158,908996,learnblock1,502.59999999403954,img/planet1_left.png,1,Community 3,NA,TRUE,f,f,NA,NA,NA,NA,6,"15,6,7,11,2,12,9,14,4,8,5,1,10,13,3"
14155,commdev-image-keyboard-response,159,910255,learnblock1,473.90000000596046,img/planet3_right.png,3,Community 3,NA,TRUE,j,j,NA,NA,NA,NA,6,"15,6,7,11,2,12,9,14,4,8,5,1,10,13,3"
14155,commdev-image-keyboard-response,160,911508,learnblock1,406.10000002384186,img/planet13_right.png,13,Community 3,NA,TRUE,j,j,NA,NA,NA,NA,6,"15,6,7,11,2,12,9,14,4,8,5,1,10,13,3"
14155,commdev-image-keyboard-response,161,912760,learnblock1,484.10000002384186,img/planet5_left.png,5,Community 3,NA,TRUE,f,f,NA,NA,NA,NA,6,"15,6,7,11,2,12,9,14,4,8,5,1,10,13,3"
14155,commdev-image-keyboard-response,162,914012,learnblock1,553.7999999821186,img/planet3_left.png,3,Community 3,NA,TRUE,f,f,NA,NA,NA,NA,6,"15,6,7,11,2,12,9,14,4,8,5,1,10,13,3"
14155,commdev-image-keyboard-response,163,915271,learnblock1,547.5,img/planet1_right.png,1,Community 3,NA,TRUE,j,j,NA,NA,NA,NA,6,"15,6,7,11,2,12,9,14,4,8,5,1,10,13,3"
14155,commdev-image-keyboard-response,164,916528,learnblock1,625.9000000059605,img/planet3_left.png,3,Community 3,NA,TRUE,f,f,NA,NA,NA,NA,6,"15,6,7,11,2,12,9,14,4,8,5,1,10,13,3"
14155,commdev-image-keyboard-response,165,917784,learnblock1,516.9000000059605,img/planet10_right.png,10,Community 3,NA,TRUE,j,j,NA,NA,NA,NA,6,"15,6,7,11,2,12,9,14,4,8,5,1,10,13,3"
14155,commdev-image-keyboard-response,166,919036,learnblock1,504.90000000596046,img/planet5_right.png,5,Community 3,NA,TRUE,j,j,NA,NA,NA,NA,6,"15,6,7,11,2,12,9,14,4,8,5,1,10,13,3"
14155,commdev-image-keyboard-response,167,920290,learnblock1,753.0999999940395,img/planet3_right.png,3,Community 3,NA,TRUE,j,j,NA,NA,NA,NA,6,"15,6,7,11,2,12,9,14,4,8,5,1,10,13,3"
14155,commdev-image-keyboard-response,168,921548,learnblock1,493.5,img/planet1_left.png,1,Community 3,NA,TRUE,f,f,NA,NA,NA,NA,6,"15,6,7,11,2,12,9,14,4,8,5,1,10,13,3"
14155,commdev-image-keyboard-response,169,922800,learnblock1,660.8000000119209,img/planet13_left.png,13,Community 3,NA,TRUE,f,f,NA,NA,NA,NA,6,"15,6,7,11,2,12,9,14,4,8,5,1,10,13,3"
14155,commdev-image-keyboard-response,170,924058,learnblock1,486.59999999403954,img/planet1_left.png,1,Community 3,NA,TRUE,f,f,NA,NA,NA,NA,6,"15,6,7,11,2,12,9,14,4,8,5,1,10,13,3"
14155,commdev-image-keyboard-response,171,925314,learnblock1,482.2000000178814,img/planet14_right.png,14,Community 2,NA,TRUE,j,j,NA,NA,NA,NA,6,"15,6,7,11,2,12,9,14,4,8,5,1,10,13,3"
14155,commdev-image-keyboard-response,172,926571,learnblock1,657.1999999880791,img/planet8_right.png,8,Community 2,NA,TRUE,j,j,NA,NA,NA,NA,6,"15,6,7,11,2,12,9,14,4,8,5,1,10,13,3"
14155,commdev-image-keyboard-response,173,927823,learnblock1,572.5999999940395,img/planet4_right.png,4,Community 2,NA,TRUE,j,j,NA,NA,NA,NA,6,"15,6,7,11,2,12,9,14,4,8,5,1,10,13,3"
14155,commdev-image-keyboard-response,174,929078,learnblock1,488.5,img/planet12_left.png,12,Community 2,NA,FALSE,j,f,NA,NA,NA,NA,6,"15,6,7,11,2,12,9,14,4,8,5,1,10,13,3"
14155,commdev-image-keyboard-response,175,930333,learnblock1,651.6999999880791,img/planet8_left.png,8,Community 2,NA,TRUE,f,f,NA,NA,NA,NA,6,"15,6,7,11,2,12,9,14,4,8,5,1,10,13,3"
14155,commdev-image-keyboard-response,176,931590,learnblock1,482,img/planet4_right.png,4,Community 2,NA,TRUE,j,j,NA,NA,NA,NA,6,"15,6,7,11,2,12,9,14,4,8,5,1,10,13,3"
14155,commdev-image-keyboard-response,177,932852,learnblock1,454.40000000596046,img/planet8_left.png,8,Community 2,NA,FALSE,j,f,NA,NA,NA,NA,6,"15,6,7,11,2,12,9,14,4,8,5,1,10,13,3"
14155,commdev-image-keyboard-response,178,934109,learnblock1,730.7999999821186,img/planet4_left.png,4,Community 2,NA,FALSE,j,f,NA,NA,NA,NA,6,"15,6,7,11,2,12,9,14,4,8,5,1,10,13,3"
14155,commdev-image-keyboard-response,179,935360,learnblock1,643,img/planet9_right.png,9,Community 2,NA,TRUE,j,j,NA,NA,NA,NA,6,"15,6,7,11,2,12,9,14,4,8,5,1,10,13,3"
14155,commdev-image-keyboard-response,180,936616,learnblock1,610.7999999821186,img/planet8_right.png,8,Community 2,NA,TRUE,j,j,NA,NA,NA,NA,6,"15,6,7,11,2,12,9,14,4,8,5,1,10,13,3"
14155,commdev-image-keyboard-response,181,937868,learnblock1,640.6999999880791,img/planet4_right.png,4,Community 2,NA,TRUE,j,j,NA,NA,NA,NA,6,"15,6,7,11,2,12,9,14,4,8,5,1,10,13,3"
14155,commdev-image-keyboard-response,182,939120,learnblock1,647.8999999761581,img/planet8_right.png,8,Community 2,NA,TRUE,j,j,NA,NA,NA,NA,6,"15,6,7,11,2,12,9,14,4,8,5,1,10,13,3"
14155,commdev-image-keyboard-response,183,940374,learnblock1,539.1999999880791,img/planet12_right.png,12,Community 2,NA,TRUE,j,j,NA,NA,NA,NA,6,"15,6,7,11,2,12,9,14,4,8,5,1,10,13,3"
14155,commdev-image-keyboard-response,184,941639,learnblock1,712.8000000119209,img/planet8_right.png,8,Community 2,NA,TRUE,j,j,NA,NA,NA,NA,6,"15,6,7,11,2,12,9,14,4,8,5,1,10,13,3"
14155,commdev-image-keyboard-response,185,942891,learnblock1,759.8000000119209,img/planet14_left.png,14,Community 2,NA,TRUE,f,f,NA,NA,NA,NA,6,"15,6,7,11,2,12,9,14,4,8,5,1,10,13,3"
14155,commdev-image-keyboard-response,186,944144,learnblock1,502.5,img/planet4_left.png,4,Community 2,NA,TRUE,f,f,NA,NA,NA,NA,6,"15,6,7,11,2,12,9,14,4,8,5,1,10,13,3"
14155,commdev-image-keyboard-response,187,945400,learnblock1,569,img/planet9_left.png,9,Community 2,NA,TRUE,f,f,NA,NA,NA,NA,6,"15,6,7,11,2,12,9,14,4,8,5,1,10,13,3"
14155,commdev-image-keyboard-response,188,946659,learnblock1,544,img/planet14_left.png,14,Community 2,NA,TRUE,f,f,NA,NA,NA,NA,6,"15,6,7,11,2,12,9,14,4,8,5,1,10,13,3"
14155,commdev-image-keyboard-response,189,947925,learnblock1,537.8999999761581,img/planet9_left.png,9,Community 2,NA,TRUE,f,f,NA,NA,NA,NA,6,"15,6,7,11,2,12,9,14,4,8,5,1,10,13,3"
14155,commdev-image-keyboard-response,190,949183,learnblock1,609.1999999880791,img/planet12_right.png,12,Community 2,NA,TRUE,j,j,NA,NA,NA,NA,6,"15,6,7,11,2,12,9,14,4,8,5,1,10,13,3"
14155,commdev-image-keyboard-response,191,950445,learnblock1,521.1999999880791,img/planet9_left.png,9,Community 2,NA,TRUE,f,f,NA,NA,NA,NA,6,"15,6,7,11,2,12,9,14,4,8,5,1,10,13,3"
14155,commdev-image-keyboard-response,192,951701,learnblock1,525,img/planet12_right.png,12,Community 2,NA,TRUE,j,j,NA,NA,NA,NA,6,"15,6,7,11,2,12,9,14,4,8,5,1,10,13,3"
14155,commdev-image-keyboard-response,193,952958,learnblock1,550.5,img/planet11_left.png,11,Community 1,NA,TRUE,f,f,NA,NA,NA,NA,6,"15,6,7,11,2,12,9,14,4,8,5,1,10,13,3"
14155,commdev-image-keyboard-response,194,954215,learnblock1,736.0999999940395,img/planet7_left.png,7,Community 1,NA,TRUE,f,f,NA,NA,NA,NA,6,"15,6,7,11,2,12,9,14,4,8,5,1,10,13,3"
14155,commdev-image-keyboard-response,195,955481,learnblock1,611.4000000059605,img/planet6_right.png,6,Community 1,NA,TRUE,j,j,NA,NA,NA,NA,6,"15,6,7,11,2,12,9,14,4,8,5,1,10,13,3"
14155,commdev-image-keyboard-response,196,956733,learnblock1,614.5999999940395,img/planet2_left.png,2,Community 1,NA,TRUE,f,f,NA,NA,NA,NA,6,"15,6,7,11,2,12,9,14,4,8,5,1,10,13,3"
14155,commdev-image-keyboard-response,197,957992,learnblock1,514.8000000119209,img/planet6_right.png,6,Community 1,NA,TRUE,j,j,NA,NA,NA,NA,6,"15,6,7,11,2,12,9,14,4,8,5,1,10,13,3"
14155,commdev-image-keyboard-response,198,959251,learnblock1,515.0999999940395,img/planet7_left.png,7,Community 1,NA,TRUE,f,f,NA,NA,NA,NA,6,"15,6,7,11,2,12,9,14,4,8,5,1,10,13,3"
14155,commdev-image-keyboard-response,199,960510,learnblock1,548.7000000178814,img/planet2_left.png,2,Community 1,NA,TRUE,f,f,NA,NA,NA,NA,6,"15,6,7,11,2,12,9,14,4,8,5,1,10,13,3"
14155,commdev-image-keyboard-response,200,961765,learnblock1,458.40000000596046,img/planet5_right.png,5,Community 3,NA,TRUE,j,j,NA,NA,NA,NA,6,"15,6,7,11,2,12,9,14,4,8,5,1,10,13,3"
14155,commdev-image-keyboard-response,201,963022,learnblock1,478.09999999403954,img/planet2_left.png,2,Community 1,NA,TRUE,f,f,NA,NA,NA,NA,6,"15,6,7,11,2,12,9,14,4,8,5,1,10,13,3"
14155,commdev-image-keyboard-response,202,964273,learnblock1,439.59999999403954,img/planet5_right.png,5,Community 3,NA,TRUE,j,j,NA,NA,NA,NA,6,"15,6,7,11,2,12,9,14,4,8,5,1,10,13,3"
14155,commdev-image-keyboard-response,203,965529,learnblock1,426.90000000596046,img/planet2_left.png,2,Community 1,NA,TRUE,f,f,NA,NA,NA,NA,6,"15,6,7,11,2,12,9,14,4,8,5,1,10,13,3"
14155,commdev-image-keyboard-response,204,966782,learnblock1,564.1999999880791,img/planet7_left.png,7,Community 1,NA,TRUE,f,f,NA,NA,NA,NA,6,"15,6,7,11,2,12,9,14,4,8,5,1,10,13,3"
14155,commdev-image-keyboard-response,205,968035,learnblock1,608.8000000119209,img/planet6_left.png,6,Community 1,NA,TRUE,f,f,NA,NA,NA,NA,6,"15,6,7,11,2,12,9,14,4,8,5,1,10,13,3"
14155,commdev-image-keyboard-response,206,969290,learnblock1,661.9000000059605,img/planet7_right.png,7,Community 1,NA,TRUE,j,j,NA,NA,NA,NA,6,"15,6,7,11,2,12,9,14,4,8,5,1,10,13,3"
14155,commdev-image-keyboard-response,207,970544,learnblock1,575.9000000059605,img/planet6_left.png,6,Community 1,NA,TRUE,f,f,NA,NA,NA,NA,6,"15,6,7,11,2,12,9,14,4,8,5,1,10,13,3"
14155,commdev-image-keyboard-response,208,971803,learnblock1,558,img/planet11_left.png,11,Community 1,NA,TRUE,f,f,NA,NA,NA,NA,6,"15,6,7,11,2,12,9,14,4,8,5,1,10,13,3"
14155,commdev-image-keyboard-response,209,973055,learnblock1,496,img/planet12_right.png,12,Community 2,NA,TRUE,j,j,NA,NA,NA,NA,6,"15,6,7,11,2,12,9,14,4,8,5,1,10,13,3"
14155,commdev-image-keyboard-response,210,974307,learnblock1,576.0999999940395,img/planet8_right.png,8,Community 2,NA,FALSE,f,j,NA,NA,NA,NA,6,"15,6,7,11,2,12,9,14,4,8,5,1,10,13,3"
14155,commdev-image-keyboard-response,211,975565,learnblock1,607.3999999761581,img/planet9_right.png,9,Community 2,NA,TRUE,j,j,NA,NA,NA,NA,6,"15,6,7,11,2,12,9,14,4,8,5,1,10,13,3"
14155,commdev-image-keyboard-response,212,976831,learnblock1,804.1999999880791,img/planet8_left.png,8,Community 2,NA,TRUE,f,f,NA,NA,NA,NA,6,"15,6,7,11,2,12,9,14,4,8,5,1,10,13,3"
14155,commdev-image-keyboard-response,213,978090,learnblock1,748.5,img/planet9_left.png,9,Community 2,NA,TRUE,f,f,NA,NA,NA,NA,6,"15,6,7,11,2,12,9,14,4,8,5,1,10,13,3"
14155,commdev-image-keyboard-response,214,979346,learnblock1,614.8000000119209,img/planet12_right.png,12,Community 2,NA,TRUE,j,j,NA,NA,NA,NA,6,"15,6,7,11,2,12,9,14,4,8,5,1,10,13,3"
14155,commdev-image-keyboard-response,215,980604,learnblock1,639,img/planet11_right.png,11,Community 1,NA,TRUE,j,j,NA,NA,NA,NA,6,"15,6,7,11,2,12,9,14,4,8,5,1,10,13,3"
14155,commdev-image-keyboard-response,216,981863,learnblock1,435.69999998807907,img/planet6_right.png,6,Community 1,NA,TRUE,j,j,NA,NA,NA,NA,6,"15,6,7,11,2,12,9,14,4,8,5,1,10,13,3"
14155,commdev-image-keyboard-response,217,983122,learnblock1,731.1999999880791,img/planet2_right.png,2,Community 1,NA,TRUE,j,j,NA,NA,NA,NA,6,"15,6,7,11,2,12,9,14,4,8,5,1,10,13,3"
14155,commdev-image-keyboard-response,218,984379,learnblock1,466.30000001192093,img/planet15_left.png,15,Community 1,NA,TRUE,f,f,NA,NA,NA,NA,6,"15,6,7,11,2,12,9,14,4,8,5,1,10,13,3"
14155,commdev-image-keyboard-response,219,985631,learnblock1,472.09999999403954,img/planet2_left.png,2,Community 1,NA,TRUE,f,f,NA,NA,NA,NA,6,"15,6,7,11,2,12,9,14,4,8,5,1,10,13,3"
14155,commdev-image-keyboard-response,220,986883,learnblock1,647.8000000119209,img/planet5_left.png,5,Community 3,NA,FALSE,j,f,NA,NA,NA,NA,6,"15,6,7,11,2,12,9,14,4,8,5,1,10,13,3"
14155,commdev-image-keyboard-response,221,988139,learnblock1,909.3999999761581,img/planet13_right.png,13,Community 3,NA,TRUE,j,j,NA,NA,NA,NA,6,"15,6,7,11,2,12,9,14,4,8,5,1,10,13,3"
14155,commdev-image-keyboard-response,222,989395,learnblock1,681.0999999940395,img/planet10_left.png,10,Community 3,NA,TRUE,f,f,NA,NA,NA,NA,6,"15,6,7,11,2,12,9,14,4,8,5,1,10,13,3"
14155,commdev-image-keyboard-response,223,990649,learnblock1,576.6999999880791,img/planet5_left.png,5,Community 3,NA,TRUE,f,f,NA,NA,NA,NA,6,"15,6,7,11,2,12,9,14,4,8,5,1,10,13,3"
14155,commdev-image-keyboard-response,224,991903,learnblock1,650.6000000238419,img/planet2_right.png,2,Community 1,NA,TRUE,j,j,NA,NA,NA,NA,6,"15,6,7,11,2,12,9,14,4,8,5,1,10,13,3"
14155,commdev-image-keyboard-response,225,993157,learnblock1,784,img/planet15_right.png,15,Community 1,NA,TRUE,j,j,NA,NA,NA,NA,6,"15,6,7,11,2,12,9,14,4,8,5,1,10,13,3"
14155,commdev-image-keyboard-response,226,994415,learnblock1,679.4000000059605,img/planet2_left.png,2,Community 1,NA,TRUE,f,f,NA,NA,NA,NA,6,"15,6,7,11,2,12,9,14,4,8,5,1,10,13,3"
14155,commdev-image-keyboard-response,227,995674,learnblock1,675.8999999761581,img/planet7_right.png,7,Community 1,NA,TRUE,j,j,NA,NA,NA,NA,6,"15,6,7,11,2,12,9,14,4,8,5,1,10,13,3"
14155,commdev-image-keyboard-response,228,996930,learnblock1,641.1999999880791,img/planet2_left.png,2,Community 1,NA,TRUE,f,f,NA,NA,NA,NA,6,"15,6,7,11,2,12,9,14,4,8,5,1,10,13,3"
14155,commdev-image-keyboard-response,229,998189,learnblock1,551.2999999821186,img/planet15_right.png,15,Community 1,NA,TRUE,j,j,NA,NA,NA,NA,6,"15,6,7,11,2,12,9,14,4,8,5,1,10,13,3"
14155,commdev-image-keyboard-response,230,999449,learnblock1,795.6999999880791,img/planet11_left.png,11,Community 1,NA,TRUE,f,f,NA,NA,NA,NA,6,"15,6,7,11,2,12,9,14,4,8,5,1,10,13,3"
14155,commdev-image-keyboard-response,231,1000704,learnblock1,712.0999999940395,img/planet15_right.png,15,Community 1,NA,TRUE,j,j,NA,NA,NA,NA,6,"15,6,7,11,2,12,9,14,4,8,5,1,10,13,3"
14155,commdev-image-keyboard-response,232,1001964,learnblock1,570.4000000059605,img/planet6_left.png,6,Community 1,NA,TRUE,f,f,NA,NA,NA,NA,6,"15,6,7,11,2,12,9,14,4,8,5,1,10,13,3"
14155,commdev-image-keyboard-response,233,1003218,learnblock1,584.5999999940395,img/planet2_left.png,2,Community 1,NA,TRUE,f,f,NA,NA,NA,NA,6,"15,6,7,11,2,12,9,14,4,8,5,1,10,13,3"
14155,commdev-image-keyboard-response,234,1004475,learnblock1,713.1999999880791,img/planet7_right.png,7,Community 1,NA,TRUE,j,j,NA,NA,NA,NA,6,"15,6,7,11,2,12,9,14,4,8,5,1,10,13,3"
14155,commdev-image-keyboard-response,235,1005736,learnblock1,616.7000000178814,img/planet15_left.png,15,Community 1,NA,TRUE,f,f,NA,NA,NA,NA,6,"15,6,7,11,2,12,9,14,4,8,5,1,10,13,3"
14155,commdev-image-keyboard-response,236,1006996,learnblock1,582.7000000178814,img/planet7_right.png,7,Community 1,NA,TRUE,j,j,NA,NA,NA,NA,6,"15,6,7,11,2,12,9,14,4,8,5,1,10,13,3"
14155,commdev-image-keyboard-response,237,1008256,learnblock1,620,img/planet11_left.png,11,Community 1,NA,TRUE,f,f,NA,NA,NA,NA,6,"15,6,7,11,2,12,9,14,4,8,5,1,10,13,3"
14155,commdev-image-keyboard-response,238,1009519,learnblock1,693,img/planet6_left.png,6,Community 1,NA,TRUE,f,f,NA,NA,NA,NA,6,"15,6,7,11,2,12,9,14,4,8,5,1,10,13,3"
14155,commdev-image-keyboard-response,239,1010772,learnblock1,806.9000000059605,img/planet15_right.png,15,Community 1,NA,TRUE,j,j,NA,NA,NA,NA,6,"15,6,7,11,2,12,9,14,4,8,5,1,10,13,3"
14155,commdev-image-keyboard-response,240,1012030,learnblock1,555.7000000178814,img/planet11_left.png,11,Community 1,NA,TRUE,f,f,NA,NA,NA,NA,6,"15,6,7,11,2,12,9,14,4,8,5,1,10,13,3"
14155,commdev-image-keyboard-response,241,1013283,learnblock1,525.8000000119209,img/planet6_right.png,6,Community 1,NA,TRUE,j,j,NA,NA,NA,NA,6,"15,6,7,11,2,12,9,14,4,8,5,1,10,13,3"
14155,commdev-image-keyboard-response,242,1014538,learnblock1,562.5999999940395,img/planet15_left.png,15,Community 1,NA,TRUE,f,f,NA,NA,NA,NA,6,"15,6,7,11,2,12,9,14,4,8,5,1,10,13,3"
14155,commdev-image-keyboard-response,243,1015797,learnblock1,546.5,img/planet6_right.png,6,Community 1,NA,TRUE,j,j,NA,NA,NA,NA,6,"15,6,7,11,2,12,9,14,4,8,5,1,10,13,3"
14155,commdev-image-keyboard-response,244,1017053,learnblock1,613.6999999880791,img/planet15_left.png,15,Community 1,NA,FALSE,j,f,NA,NA,NA,NA,6,"15,6,7,11,2,12,9,14,4,8,5,1,10,13,3"
14155,commdev-image-keyboard-response,245,1018308,learnblock1,456.7999999821186,img/planet11_right.png,11,Community 1,NA,TRUE,j,j,NA,NA,NA,NA,6,"15,6,7,11,2,12,9,14,4,8,5,1,10,13,3"
14155,commdev-image-keyboard-response,246,1019563,learnblock1,598.3000000119209,img/planet6_left.png,6,Community 1,NA,TRUE,f,f,NA,NA,NA,NA,6,"15,6,7,11,2,12,9,14,4,8,5,1,10,13,3"
14155,commdev-image-keyboard-response,247,1020829,learnblock1,483.69999998807907,img/planet15_left.png,15,Community 1,NA,TRUE,f,f,NA,NA,NA,NA,6,"15,6,7,11,2,12,9,14,4,8,5,1,10,13,3"
14155,commdev-image-keyboard-response,248,1022082,learnblock1,587.8000000119209,img/planet2_right.png,2,Community 1,NA,TRUE,j,j,NA,NA,NA,NA,6,"15,6,7,11,2,12,9,14,4,8,5,1,10,13,3"
14155,commdev-image-keyboard-response,249,1023340,learnblock1,508.2000000178814,img/planet6_right.png,6,Community 1,NA,TRUE,j,j,NA,NA,NA,NA,6,"15,6,7,11,2,12,9,14,4,8,5,1,10,13,3"
14155,commdev-image-keyboard-response,250,1024600,learnblock1,511.40000000596046,img/planet2_right.png,2,Community 1,NA,TRUE,j,j,NA,NA,NA,NA,6,"15,6,7,11,2,12,9,14,4,8,5,1,10,13,3"
14155,commdev-image-keyboard-response,251,1025854,learnblock1,869.3999999761581,img/planet7_left.png,7,Community 1,NA,TRUE,f,f,NA,NA,NA,NA,6,"15,6,7,11,2,12,9,14,4,8,5,1,10,13,3"
14155,commdev-image-keyboard-response,252,1027107,learnblock1,661.1999999880791,img/planet11_right.png,11,Community 1,NA,TRUE,j,j,NA,NA,NA,NA,6,"15,6,7,11,2,12,9,14,4,8,5,1,10,13,3"
14155,commdev-image-keyboard-response,253,1028364,learnblock1,703.0999999940395,img/planet6_left.png,6,Community 1,NA,TRUE,f,f,NA,NA,NA,NA,6,"15,6,7,11,2,12,9,14,4,8,5,1,10,13,3"
14155,commdev-image-keyboard-response,254,1029629,learnblock1,605.6000000238419,img/planet15_right.png,15,Community 1,NA,TRUE,j,j,NA,NA,NA,NA,6,"15,6,7,11,2,12,9,14,4,8,5,1,10,13,3"
14155,commdev-image-keyboard-response,255,1030889,learnblock1,599.5999999940395,img/planet7_left.png,7,Community 1,NA,TRUE,f,f,NA,NA,NA,NA,6,"15,6,7,11,2,12,9,14,4,8,5,1,10,13,3"
14155,commdev-image-keyboard-response,256,1032142,learnblock1,719.8000000119209,img/planet2_left.png,2,Community 1,NA,TRUE,f,f,NA,NA,NA,NA,6,"15,6,7,11,2,12,9,14,4,8,5,1,10,13,3"
14155,commdev-image-keyboard-response,257,1033400,learnblock1,656.5,img/planet15_right.png,15,Community 1,NA,TRUE,j,j,NA,NA,NA,NA,6,"15,6,7,11,2,12,9,14,4,8,5,1,10,13,3"
14155,commdev-image-keyboard-response,258,1034656,learnblock1,505.7000000178814,img/planet2_right.png,2,Community 1,NA,TRUE,j,j,NA,NA,NA,NA,6,"15,6,7,11,2,12,9,14,4,8,5,1,10,13,3"
14155,commdev-image-keyboard-response,259,1035912,learnblock1,582.5999999940395,img/planet15_left.png,15,Community 1,NA,TRUE,f,f,NA,NA,NA,NA,6,"15,6,7,11,2,12,9,14,4,8,5,1,10,13,3"
14155,commdev-image-keyboard-response,260,1037164,learnblock1,789.8000000119209,img/planet11_right.png,11,Community 1,NA,TRUE,j,j,NA,NA,NA,NA,6,"15,6,7,11,2,12,9,14,4,8,5,1,10,13,3"
14155,commdev-image-keyboard-response,261,1038423,learnblock1,546.1999999880791,img/planet12_left.png,12,Community 2,NA,TRUE,f,f,NA,NA,NA,NA,6,"15,6,7,11,2,12,9,14,4,8,5,1,10,13,3"
14155,commdev-image-keyboard-response,262,1039678,learnblock1,549.5999999940395,img/planet11_left.png,11,Community 1,NA,TRUE,f,f,NA,NA,NA,NA,6,"15,6,7,11,2,12,9,14,4,8,5,1,10,13,3"
14155,commdev-image-keyboard-response,263,1040932,learnblock1,535.2999999821186,img/planet12_right.png,12,Community 2,NA,TRUE,j,j,NA,NA,NA,NA,6,"15,6,7,11,2,12,9,14,4,8,5,1,10,13,3"
14155,commdev-image-keyboard-response,264,1042187,learnblock1,650.7000000178814,img/planet4_right.png,4,Community 2,NA,TRUE,j,j,NA,NA,NA,NA,6,"15,6,7,11,2,12,9,14,4,8,5,1,10,13,3"
14155,commdev-image-keyboard-response,265,1043440,learnblock1,532.2999999821186,img/planet8_left.png,8,Community 2,NA,TRUE,f,f,NA,NA,NA,NA,6,"15,6,7,11,2,12,9,14,4,8,5,1,10,13,3"
14155,commdev-image-keyboard-response,266,1044696,learnblock1,530.9000000059605,img/planet12_left.png,12,Community 2,NA,TRUE,f,f,NA,NA,NA,NA,6,"15,6,7,11,2,12,9,14,4,8,5,1,10,13,3"
14155,commdev-image-keyboard-response,267,1045955,learnblock1,627.4000000059605,img/planet8_left.png,8,Community 2,NA,TRUE,f,f,NA,NA,NA,NA,6,"15,6,7,11,2,12,9,14,4,8,5,1,10,13,3"
14155,commdev-image-keyboard-response,268,1047210,learnblock1,727.0999999940395,img/planet14_left.png,14,Community 2,NA,TRUE,f,f,NA,NA,NA,NA,6,"15,6,7,11,2,12,9,14,4,8,5,1,10,13,3"
14155,commdev-image-keyboard-response,269,1048463,learnblock1,541.7999999821186,img/planet8_right.png,8,Community 2,NA,TRUE,j,j,NA,NA,NA,NA,6,"15,6,7,11,2,12,9,14,4,8,5,1,10,13,3"
14155,commdev-image-keyboard-response,270,1049721,learnblock1,701.3000000119209,img/planet12_left.png,12,Community 2,NA,TRUE,f,f,NA,NA,NA,NA,6,"15,6,7,11,2,12,9,14,4,8,5,1,10,13,3"
14155,commdev-image-keyboard-response,271,1050973,learnblock1,580.2999999821186,img/planet9_right.png,9,Community 2,NA,TRUE,j,j,NA,NA,NA,NA,6,"15,6,7,11,2,12,9,14,4,8,5,1,10,13,3"
14155,commdev-image-keyboard-response,272,1052229,learnblock1,689.2000000178814,img/planet8_right.png,8,Community 2,NA,TRUE,j,j,NA,NA,NA,NA,6,"15,6,7,11,2,12,9,14,4,8,5,1,10,13,3"
14155,commdev-image-keyboard-response,273,1053490,learnblock1,631.7000000178814,img/planet14_right.png,14,Community 2,NA,TRUE,j,j,NA,NA,NA,NA,6,"15,6,7,11,2,12,9,14,4,8,5,1,10,13,3"
14155,commdev-image-keyboard-response,274,1054749,learnblock1,578.9000000059605,img/planet1_left.png,1,Community 3,NA,TRUE,f,f,NA,NA,NA,NA,6,"15,6,7,11,2,12,9,14,4,8,5,1,10,13,3"
14155,commdev-image-keyboard-response,275,1056006,learnblock1,510.80000001192093,img/planet13_right.png,13,Community 3,NA,TRUE,j,j,NA,NA,NA,NA,6,"15,6,7,11,2,12,9,14,4,8,5,1,10,13,3"
14155,commdev-image-keyboard-response,276,1057262,learnblock1,694.9000000059605,img/planet5_left.png,5,Community 3,NA,TRUE,f,f,NA,NA,NA,NA,6,"15,6,7,11,2,12,9,14,4,8,5,1,10,13,3"
14155,commdev-image-keyboard-response,277,1058516,learnblock1,559.9000000059605,img/planet13_left.png,13,Community 3,NA,TRUE,f,f,NA,NA,NA,NA,6,"15,6,7,11,2,12,9,14,4,8,5,1,10,13,3"
14155,commdev-image-keyboard-response,278,1059770,learnblock1,437.69999998807907,img/planet1_left.png,1,Community 3,NA,TRUE,f,f,NA,NA,NA,NA,6,"15,6,7,11,2,12,9,14,4,8,5,1,10,13,3"
14155,commdev-image-keyboard-response,279,1061029,learnblock1,475.69999998807907,img/planet13_right.png,13,Community 3,NA,TRUE,j,j,NA,NA,NA,NA,6,"15,6,7,11,2,12,9,14,4,8,5,1,10,13,3"
14155,commdev-image-keyboard-response,280,1062287,learnblock1,497.30000001192093,img/planet1_right.png,1,Community 3,NA,TRUE,j,j,NA,NA,NA,NA,6,"15,6,7,11,2,12,9,14,4,8,5,1,10,13,3"
14155,commdev-image-keyboard-response,281,1063540,learnblock1,566.5,img/planet14_right.png,14,Community 2,NA,TRUE,j,j,NA,NA,NA,NA,6,"15,6,7,11,2,12,9,14,4,8,5,1,10,13,3"
14155,commdev-image-keyboard-response,282,1064798,learnblock1,558.2999999821186,img/planet4_left.png,4,Community 2,NA,TRUE,f,f,NA,NA,NA,NA,6,"15,6,7,11,2,12,9,14,4,8,5,1,10,13,3"
14155,commdev-image-keyboard-response,283,1066055,learnblock1,473.19999998807907,img/planet9_right.png,9,Community 2,NA,TRUE,j,j,NA,NA,NA,NA,6,"15,6,7,11,2,12,9,14,4,8,5,1,10,13,3"
14155,commdev-image-keyboard-response,284,1067309,learnblock1,619.8000000119209,img/planet14_left.png,14,Community 2,NA,TRUE,f,f,NA,NA,NA,NA,6,"15,6,7,11,2,12,9,14,4,8,5,1,10,13,3"
14155,commdev-image-keyboard-response,285,1068569,learnblock1,582.8000000119209,img/planet4_left.png,4,Community 2,NA,TRUE,f,f,NA,NA,NA,NA,6,"15,6,7,11,2,12,9,14,4,8,5,1,10,13,3"
14155,commdev-image-keyboard-response,286,1069822,learnblock1,541,img/planet14_left.png,14,Community 2,NA,TRUE,f,f,NA,NA,NA,NA,6,"15,6,7,11,2,12,9,14,4,8,5,1,10,13,3"
14155,commdev-image-keyboard-response,287,1071089,learnblock1,561.5999999940395,img/planet9_left.png,9,Community 2,NA,TRUE,f,f,NA,NA,NA,NA,6,"15,6,7,11,2,12,9,14,4,8,5,1,10,13,3"
14155,commdev-image-keyboard-response,288,1072354,learnblock1,576.8000000119209,img/planet8_left.png,8,Community 2,NA,TRUE,f,f,NA,NA,NA,NA,6,"15,6,7,11,2,12,9,14,4,8,5,1,10,13,3"
14155,commdev-image-keyboard-response,289,1073611,learnblock1,494.69999998807907,img/planet4_right.png,4,Community 2,NA,TRUE,j,j,NA,NA,NA,NA,6,"15,6,7,11,2,12,9,14,4,8,5,1,10,13,3"
14155,commdev-image-keyboard-response,290,1074867,learnblock1,502.40000000596046,img/planet12_left.png,12,Community 2,NA,TRUE,f,f,NA,NA,NA,NA,6,"15,6,7,11,2,12,9,14,4,8,5,1,10,13,3"
14155,commdev-image-keyboard-response,291,1076120,learnblock1,551.5,img/planet11_left.png,11,Community 1,NA,FALSE,j,f,NA,NA,NA,NA,6,"15,6,7,11,2,12,9,14,4,8,5,1,10,13,3"
14155,commdev-image-keyboard-response,292,1077373,learnblock1,606.5,img/planet6_left.png,6,Community 1,NA,TRUE,f,f,NA,NA,NA,NA,6,"15,6,7,11,2,12,9,14,4,8,5,1,10,13,3"
14155,commdev-image-keyboard-response,293,1078630,learnblock1,522.0999999940395,img/planet2_left.png,2,Community 1,NA,TRUE,f,f,NA,NA,NA,NA,6,"15,6,7,11,2,12,9,14,4,8,5,1,10,13,3"
14155,commdev-image-keyboard-response,294,1079897,learnblock1,512.2000000178814,img/planet5_right.png,5,Community 3,NA,TRUE,j,j,NA,NA,NA,NA,6,"15,6,7,11,2,12,9,14,4,8,5,1,10,13,3"
14155,commdev-image-keyboard-response,295,1081154,learnblock1,541.9000000059605,img/planet10_left.png,10,Community 3,NA,TRUE,f,f,NA,NA,NA,NA,6,"15,6,7,11,2,12,9,14,4,8,5,1,10,13,3"
14155,commdev-image-keyboard-response,296,1082413,learnblock1,691.0999999940395,img/planet3_right.png,3,Community 3,NA,TRUE,j,j,NA,NA,NA,NA,6,"15,6,7,11,2,12,9,14,4,8,5,1,10,13,3"
14155,commdev-image-keyboard-response,297,1083668,learnblock1,419.10000002384186,img/planet10_left.png,10,Community 3,NA,TRUE,f,f,NA,NA,NA,NA,6,"15,6,7,11,2,12,9,14,4,8,5,1,10,13,3"
14155,commdev-image-keyboard-response,298,1084927,learnblock1,758.8000000119209,img/planet13_right.png,13,Community 3,NA,TRUE,j,j,NA,NA,NA,NA,6,"15,6,7,11,2,12,9,14,4,8,5,1,10,13,3"
14155,commdev-image-keyboard-response,299,1086182,learnblock1,520.1999999880791,img/planet1_right.png,1,Community 3,NA,TRUE,j,j,NA,NA,NA,NA,6,"15,6,7,11,2,12,9,14,4,8,5,1,10,13,3"
14155,commdev-image-keyboard-response,300,1087440,learnblock1,605.5,img/planet13_left.png,13,Community 3,NA,TRUE,f,f,NA,NA,NA,NA,6,"15,6,7,11,2,12,9,14,4,8,5,1,10,13,3"
14155,commdev-image-keyboard-response,301,1088696,learnblock1,653.5,img/planet3_right.png,3,Community 3,NA,TRUE,j,j,NA,NA,NA,NA,6,"15,6,7,11,2,12,9,14,4,8,5,1,10,13,3"
14155,commdev-image-keyboard-response,302,1089954,learnblock1,610.2999999821186,img/planet1_right.png,1,Community 3,NA,TRUE,j,j,NA,NA,NA,NA,6,"15,6,7,11,2,12,9,14,4,8,5,1,10,13,3"
14155,commdev-image-keyboard-response,303,1091214,learnblock1,722.1999999880791,img/planet14_right.png,14,Community 2,NA,TRUE,j,j,NA,NA,NA,NA,6,"15,6,7,11,2,12,9,14,4,8,5,1,10,13,3"
14155,commdev-image-keyboard-response,304,1092471,learnblock1,452.40000000596046,img/planet8_left.png,8,Community 2,NA,TRUE,f,f,NA,NA,NA,NA,6,"15,6,7,11,2,12,9,14,4,8,5,1,10,13,3"
14155,commdev-image-keyboard-response,305,1093724,learnblock1,474.19999998807907,img/planet12_left.png,12,Community 2,NA,TRUE,f,f,NA,NA,NA,NA,6,"15,6,7,11,2,12,9,14,4,8,5,1,10,13,3"
14155,commdev-image-keyboard-response,306,1094980,learnblock1,474.59999999403954,img/planet9_right.png,9,Community 2,NA,TRUE,j,j,NA,NA,NA,NA,6,"15,6,7,11,2,12,9,14,4,8,5,1,10,13,3"
14155,commdev-image-keyboard-response,307,1096247,learnblock1,557.5,img/planet12_right.png,12,Community 2,NA,TRUE,j,j,NA,NA,NA,NA,6,"15,6,7,11,2,12,9,14,4,8,5,1,10,13,3"
14155,commdev-image-keyboard-response,308,1097514,learnblock1,684.6999999880791,img/planet8_right.png,8,Community 2,NA,TRUE,j,j,NA,NA,NA,NA,6,"15,6,7,11,2,12,9,14,4,8,5,1,10,13,3"
14155,commdev-image-keyboard-response,309,1098771,learnblock1,604.7999999821186,img/planet14_right.png,14,Community 2,NA,TRUE,j,j,NA,NA,NA,NA,6,"15,6,7,11,2,12,9,14,4,8,5,1,10,13,3"
14155,commdev-image-keyboard-response,310,1100027,learnblock1,780.8000000119209,img/planet8_right.png,8,Community 2,NA,TRUE,j,j,NA,NA,NA,NA,6,"15,6,7,11,2,12,9,14,4,8,5,1,10,13,3"
14155,commdev-image-keyboard-response,311,1101284,learnblock1,654.4000000059605,img/planet9_left.png,9,Community 2,NA,TRUE,f,f,NA,NA,NA,NA,6,"15,6,7,11,2,12,9,14,4,8,5,1,10,13,3"
14155,commdev-image-keyboard-response,312,1102538,learnblock1,681,img/planet14_right.png,14,Community 2,NA,TRUE,j,j,NA,NA,NA,NA,6,"15,6,7,11,2,12,9,14,4,8,5,1,10,13,3"
14155,commdev-image-keyboard-response,313,1103796,learnblock1,754.1999999880791,img/planet9_right.png,9,Community 2,NA,TRUE,j,j,NA,NA,NA,NA,6,"15,6,7,11,2,12,9,14,4,8,5,1,10,13,3"
14155,commdev-image-keyboard-response,314,1105049,learnblock1,731.4000000059605,img/planet8_left.png,8,Community 2,NA,TRUE,f,f,NA,NA,NA,NA,6,"15,6,7,11,2,12,9,14,4,8,5,1,10,13,3"
14155,commdev-image-keyboard-response,315,1106304,learnblock1,514.7999999821186,img/planet9_right.png,9,Community 2,NA,TRUE,j,j,NA,NA,NA,NA,6,"15,6,7,11,2,12,9,14,4,8,5,1,10,13,3"
14155,commdev-image-keyboard-response,316,1107563,learnblock1,577.1999999880791,img/planet14_right.png,14,Community 2,NA,TRUE,j,j,NA,NA,NA,NA,6,"15,6,7,11,2,12,9,14,4,8,5,1,10,13,3"
14155,commdev-image-keyboard-response,317,1108818,learnblock1,674.3000000119209,img/planet4_right.png,4,Community 2,NA,TRUE,j,j,NA,NA,NA,NA,6,"15,6,7,11,2,12,9,14,4,8,5,1,10,13,3"
14155,commdev-image-keyboard-response,318,1110071,learnblock1,722,img/planet9_right.png,9,Community 2,NA,TRUE,j,j,NA,NA,NA,NA,6,"15,6,7,11,2,12,9,14,4,8,5,1,10,13,3"
14155,commdev-image-keyboard-response,319,1111330,learnblock1,725.5,img/planet8_right.png,8,Community 2,NA,TRUE,j,j,NA,NA,NA,NA,6,"15,6,7,11,2,12,9,14,4,8,5,1,10,13,3"
14155,commdev-image-keyboard-response,320,1112588,learnblock1,708.6999999880791,img/planet12_right.png,12,Community 2,NA,TRUE,j,j,NA,NA,NA,NA,6,"15,6,7,11,2,12,9,14,4,8,5,1,10,13,3"
14155,commdev-image-keyboard-response,321,1113852,learnblock1,676.5,img/planet11_left.png,11,Community 1,NA,TRUE,f,f,NA,NA,NA,NA,6,"15,6,7,11,2,12,9,14,4,8,5,1,10,13,3"
14155,commdev-image-keyboard-response,322,1115114,learnblock1,808.6999999880791,img/planet15_left.png,15,Community 1,NA,TRUE,f,f,NA,NA,NA,NA,6,"15,6,7,11,2,12,9,14,4,8,5,1,10,13,3"
14155,commdev-image-keyboard-response,323,1116370,learnblock1,612.8000000119209,img/planet6_left.png,6,Community 1,NA,TRUE,f,f,NA,NA,NA,NA,6,"15,6,7,11,2,12,9,14,4,8,5,1,10,13,3"
14155,commdev-image-keyboard-response,324,1117628,learnblock1,612.1999999880791,img/planet7_right.png,7,Community 1,NA,TRUE,j,j,NA,NA,NA,NA,6,"15,6,7,11,2,12,9,14,4,8,5,1,10,13,3"
14155,commdev-image-keyboard-response,325,1118880,learnblock1,618.8999999761581,img/planet6_left.png,6,Community 1,NA,FALSE,j,f,NA,NA,NA,NA,6,"15,6,7,11,2,12,9,14,4,8,5,1,10,13,3"
14155,commdev-image-keyboard-response,326,1120135,learnblock1,579,img/planet7_left.png,7,Community 1,NA,TRUE,f,f,NA,NA,NA,NA,6,"15,6,7,11,2,12,9,14,4,8,5,1,10,13,3"
14155,commdev-image-keyboard-response,327,1121395,learnblock1,599.8999999761581,img/planet2_left.png,2,Community 1,NA,TRUE,f,f,NA,NA,NA,NA,6,"15,6,7,11,2,12,9,14,4,8,5,1,10,13,3"
14155,commdev-image-keyboard-response,328,1122663,learnblock1,744.7000000178814,img/planet6_right.png,6,Community 1,NA,TRUE,j,j,NA,NA,NA,NA,6,"15,6,7,11,2,12,9,14,4,8,5,1,10,13,3"
14155,commdev-image-keyboard-response,329,1123928,learnblock1,741.7999999821186,img/planet7_right.png,7,Community 1,NA,TRUE,j,j,NA,NA,NA,NA,6,"15,6,7,11,2,12,9,14,4,8,5,1,10,13,3"
14155,commdev-image-keyboard-response,330,1125187,learnblock1,625.6999999880791,img/planet15_left.png,15,Community 1,NA,TRUE,f,f,NA,NA,NA,NA,6,"15,6,7,11,2,12,9,14,4,8,5,1,10,13,3"
14155,commdev-image-keyboard-response,331,1126445,learnblock1,811.5,img/planet2_left.png,2,Community 1,NA,TRUE,f,f,NA,NA,NA,NA,6,"15,6,7,11,2,12,9,14,4,8,5,1,10,13,3"
14155,commdev-image-keyboard-response,332,1127697,learnblock1,591.2000000178814,img/planet15_left.png,15,Community 1,NA,TRUE,f,f,NA,NA,NA,NA,6,"15,6,7,11,2,12,9,14,4,8,5,1,10,13,3"
14155,commdev-image-keyboard-response,333,1128952,learnblock1,563.9000000059605,img/planet6_right.png,6,Community 1,NA,TRUE,j,j,NA,NA,NA,NA,6,"15,6,7,11,2,12,9,14,4,8,5,1,10,13,3"
14155,commdev-image-keyboard-response,334,1130205,learnblock1,613.6999999880791,img/planet7_right.png,7,Community 1,NA,TRUE,j,j,NA,NA,NA,NA,6,"15,6,7,11,2,12,9,14,4,8,5,1,10,13,3"
14155,commdev-image-keyboard-response,335,1131461,learnblock1,507.90000000596046,img/planet15_left.png,15,Community 1,NA,TRUE,f,f,NA,NA,NA,NA,6,"15,6,7,11,2,12,9,14,4,8,5,1,10,13,3"
14155,commdev-image-keyboard-response,336,1132720,learnblock1,584.5999999940395,img/planet11_right.png,11,Community 1,NA,TRUE,j,j,NA,NA,NA,NA,6,"15,6,7,11,2,12,9,14,4,8,5,1,10,13,3"
14155,commdev-image-keyboard-response,337,1133977,learnblock1,539.2000000178814,img/planet7_right.png,7,Community 1,NA,TRUE,j,j,NA,NA,NA,NA,6,"15,6,7,11,2,12,9,14,4,8,5,1,10,13,3"
14155,commdev-image-keyboard-response,338,1135230,learnblock1,489.5,img/planet6_right.png,6,Community 1,NA,TRUE,j,j,NA,NA,NA,NA,6,"15,6,7,11,2,12,9,14,4,8,5,1,10,13,3"
14155,commdev-image-keyboard-response,339,1136483,learnblock1,474,img/planet15_left.png,15,Community 1,NA,TRUE,f,f,NA,NA,NA,NA,6,"15,6,7,11,2,12,9,14,4,8,5,1,10,13,3"
14155,commdev-image-keyboard-response,340,1137738,learnblock1,620.3000000119209,img/planet11_right.png,11,Community 1,NA,TRUE,j,j,NA,NA,NA,NA,6,"15,6,7,11,2,12,9,14,4,8,5,1,10,13,3"
14155,commdev-image-keyboard-response,341,1138992,learnblock1,504.2999999821186,img/planet12_right.png,12,Community 2,NA,TRUE,j,j,NA,NA,NA,NA,6,"15,6,7,11,2,12,9,14,4,8,5,1,10,13,3"
14155,commdev-image-keyboard-response,342,1140250,learnblock1,493.5,img/planet9_left.png,9,Community 2,NA,TRUE,f,f,NA,NA,NA,NA,6,"15,6,7,11,2,12,9,14,4,8,5,1,10,13,3"
14155,commdev-image-keyboard-response,343,1141508,learnblock1,529.1999999880791,img/planet8_right.png,8,Community 2,NA,TRUE,j,j,NA,NA,NA,NA,6,"15,6,7,11,2,12,9,14,4,8,5,1,10,13,3"
14155,commdev-image-keyboard-response,344,1142771,learnblock1,502.5,img/planet4_left.png,4,Community 2,NA,TRUE,f,f,NA,NA,NA,NA,6,"15,6,7,11,2,12,9,14,4,8,5,1,10,13,3"
14155,commdev-image-keyboard-response,345,1144026,learnblock1,638,img/planet12_right.png,12,Community 2,NA,TRUE,j,j,NA,NA,NA,NA,6,"15,6,7,11,2,12,9,14,4,8,5,1,10,13,3"
14155,commdev-image-keyboard-response,346,1145279,learnblock1,663.2999999821186,img/planet4_right.png,4,Community 2,NA,TRUE,j,j,NA,NA,NA,NA,6,"15,6,7,11,2,12,9,14,4,8,5,1,10,13,3"
14155,commdev-image-keyboard-response,347,1146534,learnblock1,503.80000001192093,img/planet9_right.png,9,Community 2,NA,TRUE,j,j,NA,NA,NA,NA,6,"15,6,7,11,2,12,9,14,4,8,5,1,10,13,3"
14155,commdev-image-keyboard-response,348,1147798,learnblock1,467.90000000596046,img/planet12_right.png,12,Community 2,NA,TRUE,j,j,NA,NA,NA,NA,6,"15,6,7,11,2,12,9,14,4,8,5,1,10,13,3"
14155,commdev-image-keyboard-response,349,1149055,learnblock1,667.9000000059605,img/planet9_left.png,9,Community 2,NA,TRUE,f,f,NA,NA,NA,NA,6,"15,6,7,11,2,12,9,14,4,8,5,1,10,13,3"
14155,commdev-image-keyboard-response,350,1150312,learnblock1,549.5,img/planet12_right.png,12,Community 2,NA,TRUE,j,j,NA,NA,NA,NA,6,"15,6,7,11,2,12,9,14,4,8,5,1,10,13,3"
14155,commdev-image-keyboard-response,351,1151567,learnblock1,749.5999999940395,img/planet11_right.png,11,Community 1,NA,TRUE,j,j,NA,NA,NA,NA,6,"15,6,7,11,2,12,9,14,4,8,5,1,10,13,3"
14155,commdev-image-keyboard-response,352,1152824,learnblock1,593.7000000178814,img/planet7_left.png,7,Community 1,NA,TRUE,f,f,NA,NA,NA,NA,6,"15,6,7,11,2,12,9,14,4,8,5,1,10,13,3"
14155,commdev-image-keyboard-response,353,1154079,learnblock1,613.9000000059605,img/planet15_left.png,15,Community 1,NA,FALSE,j,f,NA,NA,NA,NA,6,"15,6,7,11,2,12,9,14,4,8,5,1,10,13,3"
14155,commdev-image-keyboard-response,354,1155335,learnblock1,504.30000001192093,img/planet7_right.png,7,Community 1,NA,TRUE,j,j,NA,NA,NA,NA,6,"15,6,7,11,2,12,9,14,4,8,5,1,10,13,3"
14155,commdev-image-keyboard-response,355,1156595,learnblock1,580.8999999761581,img/planet15_left.png,15,Community 1,NA,TRUE,f,f,NA,NA,NA,NA,6,"15,6,7,11,2,12,9,14,4,8,5,1,10,13,3"
14155,commdev-image-keyboard-response,356,1157852,learnblock1,520,img/planet6_right.png,6,Community 1,NA,TRUE,j,j,NA,NA,NA,NA,6,"15,6,7,11,2,12,9,14,4,8,5,1,10,13,3"
14155,commdev-image-keyboard-response,357,1159107,learnblock1,501.40000000596046,img/planet11_right.png,11,Community 1,NA,TRUE,j,j,NA,NA,NA,NA,6,"15,6,7,11,2,12,9,14,4,8,5,1,10,13,3"
14155,commdev-image-keyboard-response,358,1160362,learnblock1,477.09999999403954,img/planet12_left.png,12,Community 2,NA,TRUE,f,f,NA,NA,NA,NA,6,"15,6,7,11,2,12,9,14,4,8,5,1,10,13,3"
14155,commdev-image-keyboard-response,359,1161613,learnblock1,694.9000000059605,img/planet8_left.png,8,Community 2,NA,TRUE,f,f,NA,NA,NA,NA,6,"15,6,7,11,2,12,9,14,4,8,5,1,10,13,3"
14155,commdev-image-keyboard-response,360,1162869,learnblock1,508.5,img/planet14_right.png,14,Community 2,NA,TRUE,j,j,NA,NA,NA,NA,6,"15,6,7,11,2,12,9,14,4,8,5,1,10,13,3"
14155,commdev-image-keyboard-response,361,1164127,learnblock1,549.6999999880791,img/planet8_left.png,8,Community 2,NA,TRUE,f,f,NA,NA,NA,NA,6,"15,6,7,11,2,12,9,14,4,8,5,1,10,13,3"
14155,commdev-image-keyboard-response,362,1165385,learnblock1,658.1999999880791,img/planet12_left.png,12,Community 2,NA,TRUE,f,f,NA,NA,NA,NA,6,"15,6,7,11,2,12,9,14,4,8,5,1,10,13,3"
14155,commdev-image-keyboard-response,363,1166641,learnblock1,480.5,img/planet8_right.png,8,Community 2,NA,TRUE,j,j,NA,NA,NA,NA,6,"15,6,7,11,2,12,9,14,4,8,5,1,10,13,3"
14155,commdev-image-keyboard-response,364,1167899,learnblock1,530.9000000059605,img/planet9_right.png,9,Community 2,NA,TRUE,j,j,NA,NA,NA,NA,6,"15,6,7,11,2,12,9,14,4,8,5,1,10,13,3"
14155,commdev-image-keyboard-response,365,1169152,learnblock1,715.9000000059605,img/planet14_left.png,14,Community 2,NA,TRUE,f,f,NA,NA,NA,NA,6,"15,6,7,11,2,12,9,14,4,8,5,1,10,13,3"
14155,commdev-image-keyboard-response,366,1170410,learnblock1,849,img/planet8_right.png,8,Community 2,NA,TRUE,j,j,NA,NA,NA,NA,6,"15,6,7,11,2,12,9,14,4,8,5,1,10,13,3"
14155,commdev-image-keyboard-response,367,1171663,learnblock1,1096.0999999940395,img/planet4_left.png,4,Community 2,NA,TRUE,f,f,NA,NA,NA,NA,6,"15,6,7,11,2,12,9,14,4,8,5,1,10,13,3"
14155,commdev-image-keyboard-response,368,1172916,learnblock1,null,img/planet9_left.png,9,Community 2,NA,FALSE,null,f,NA,NA,NA,NA,6,"15,6,7,11,2,12,9,14,4,8,5,1,10,13,3"
14155,commdev-image-keyboard-response,369,1174173,learnblock1,620.2000000178814,img/planet4_left.png,4,Community 2,NA,TRUE,f,f,NA,NA,NA,NA,6,"15,6,7,11,2,12,9,14,4,8,5,1,10,13,3"
14155,commdev-image-keyboard-response,370,1175436,learnblock1,473.19999998807907,img/planet12_left.png,12,Community 2,NA,TRUE,f,f,NA,NA,NA,NA,6,"15,6,7,11,2,12,9,14,4,8,5,1,10,13,3"
14155,commdev-image-keyboard-response,371,1176696,learnblock1,552.1999999880791,img/planet9_right.png,9,Community 2,NA,TRUE,j,j,NA,NA,NA,NA,6,"15,6,7,11,2,12,9,14,4,8,5,1,10,13,3"
14155,commdev-image-keyboard-response,372,1177962,learnblock1,661.4000000059605,img/planet8_left.png,8,Community 2,NA,TRUE,f,f,NA,NA,NA,NA,6,"15,6,7,11,2,12,9,14,4,8,5,1,10,13,3"
14155,commdev-image-keyboard-response,373,1179219,learnblock1,693.9000000059605,img/planet12_right.png,12,Community 2,NA,TRUE,j,j,NA,NA,NA,NA,6,"15,6,7,11,2,12,9,14,4,8,5,1,10,13,3"
14155,commdev-image-keyboard-response,374,1180474,learnblock1,779.6000000238419,img/planet4_right.png,4,Community 2,NA,TRUE,j,j,NA,NA,NA,NA,6,"15,6,7,11,2,12,9,14,4,8,5,1,10,13,3"
14155,commdev-image-keyboard-response,375,1181726,learnblock1,580.5,img/planet9_left.png,9,Community 2,NA,TRUE,f,f,NA,NA,NA,NA,6,"15,6,7,11,2,12,9,14,4,8,5,1,10,13,3"
14155,commdev-image-keyboard-response,376,1182981,learnblock1,655.7999999821186,img/planet8_left.png,8,Community 2,NA,TRUE,f,f,NA,NA,NA,NA,6,"15,6,7,11,2,12,9,14,4,8,5,1,10,13,3"
14155,commdev-image-keyboard-response,377,1184237,learnblock1,518.5,img/planet12_left.png,12,Community 2,NA,TRUE,f,f,NA,NA,NA,NA,6,"15,6,7,11,2,12,9,14,4,8,5,1,10,13,3"
14155,commdev-image-keyboard-response,378,1185497,learnblock1,556.6999999880791,img/planet4_right.png,4,Community 2,NA,TRUE,j,j,NA,NA,NA,NA,6,"15,6,7,11,2,12,9,14,4,8,5,1,10,13,3"
14155,commdev-image-keyboard-response,379,1186753,learnblock1,600.1000000238419,img/planet8_left.png,8,Community 2,NA,TRUE,f,f,NA,NA,NA,NA,6,"15,6,7,11,2,12,9,14,4,8,5,1,10,13,3"
14155,commdev-image-keyboard-response,380,1188006,learnblock1,601.6999999880791,img/planet12_right.png,12,Community 2,NA,TRUE,j,j,NA,NA,NA,NA,6,"15,6,7,11,2,12,9,14,4,8,5,1,10,13,3"
14155,commdev-image-keyboard-response,381,1189263,learnblock1,484.2999999821186,img/planet4_left.png,4,Community 2,NA,TRUE,f,f,NA,NA,NA,NA,6,"15,6,7,11,2,12,9,14,4,8,5,1,10,13,3"
14155,commdev-image-keyboard-response,382,1190520,learnblock1,632.4000000059605,img/planet8_left.png,8,Community 2,NA,TRUE,f,f,NA,NA,NA,NA,6,"15,6,7,11,2,12,9,14,4,8,5,1,10,13,3"
14155,commdev-image-keyboard-response,383,1191776,learnblock1,690.5,img/planet4_left.png,4,Community 2,NA,TRUE,f,f,NA,NA,NA,NA,6,"15,6,7,11,2,12,9,14,4,8,5,1,10,13,3"
14155,commdev-image-keyboard-response,384,1193035,learnblock1,513.0999999940395,img/planet14_right.png,14,Community 2,NA,TRUE,j,j,NA,NA,NA,NA,6,"15,6,7,11,2,12,9,14,4,8,5,1,10,13,3"
14155,commdev-image-keyboard-response,385,1194294,learnblock1,634.9000000059605,img/planet1_left.png,1,Community 3,NA,TRUE,f,f,NA,NA,NA,NA,6,"15,6,7,11,2,12,9,14,4,8,5,1,10,13,3"
14155,commdev-image-keyboard-response,386,1195562,learnblock1,502.40000000596046,img/planet3_right.png,3,Community 3,NA,TRUE,j,j,NA,NA,NA,NA,6,"15,6,7,11,2,12,9,14,4,8,5,1,10,13,3"
14155,commdev-image-keyboard-response,387,1196819,learnblock1,445.40000000596046,img/planet10_left.png,10,Community 3,NA,TRUE,f,f,NA,NA,NA,NA,6,"15,6,7,11,2,12,9,14,4,8,5,1,10,13,3"
14155,commdev-image-keyboard-response,388,1198083,learnblock1,574.7999999821186,img/planet3_right.png,3,Community 3,NA,TRUE,j,j,NA,NA,NA,NA,6,"15,6,7,11,2,12,9,14,4,8,5,1,10,13,3"
14155,commdev-image-keyboard-response,389,1199344,learnblock1,495,img/planet10_right.png,10,Community 3,NA,TRUE,j,j,NA,NA,NA,NA,6,"15,6,7,11,2,12,9,14,4,8,5,1,10,13,3"
14155,commdev-image-keyboard-response,390,1200603,learnblock1,600.0999999940395,img/planet13_left.png,13,Community 3,NA,TRUE,f,f,NA,NA,NA,NA,6,"15,6,7,11,2,12,9,14,4,8,5,1,10,13,3"
14155,commdev-image-keyboard-response,391,1201866,learnblock1,497.7999999821186,img/planet1_left.png,1,Community 3,NA,TRUE,f,f,NA,NA,NA,NA,6,"15,6,7,11,2,12,9,14,4,8,5,1,10,13,3"
14155,commdev-image-keyboard-response,392,1203118,learnblock1,539.4000000059605,img/planet3_left.png,3,Community 3,NA,FALSE,j,f,NA,NA,NA,NA,6,"15,6,7,11,2,12,9,14,4,8,5,1,10,13,3"
14155,commdev-image-keyboard-response,393,1204379,learnblock1,580,img/planet10_left.png,10,Community 3,NA,TRUE,f,f,NA,NA,NA,NA,6,"15,6,7,11,2,12,9,14,4,8,5,1,10,13,3"
14155,commdev-image-keyboard-response,394,1205636,learnblock1,650.1000000238419,img/planet13_left.png,13,Community 3,NA,TRUE,f,f,NA,NA,NA,NA,6,"15,6,7,11,2,12,9,14,4,8,5,1,10,13,3"
14155,commdev-image-keyboard-response,395,1206902,learnblock1,484.09999999403954,img/planet5_left.png,5,Community 3,NA,TRUE,f,f,NA,NA,NA,NA,6,"15,6,7,11,2,12,9,14,4,8,5,1,10,13,3"
14155,commdev-image-keyboard-response,396,1208161,learnblock1,560.5,img/planet13_left.png,13,Community 3,NA,TRUE,f,f,NA,NA,NA,NA,6,"15,6,7,11,2,12,9,14,4,8,5,1,10,13,3"
14155,commdev-image-keyboard-response,397,1209420,learnblock1,548.5999999940395,img/planet3_left.png,3,Community 3,NA,TRUE,f,f,NA,NA,NA,NA,6,"15,6,7,11,2,12,9,14,4,8,5,1,10,13,3"
14155,commdev-image-keyboard-response,398,1210679,learnblock1,639.7999999821186,img/planet5_right.png,5,Community 3,NA,TRUE,j,j,NA,NA,NA,NA,6,"15,6,7,11,2,12,9,14,4,8,5,1,10,13,3"
14155,commdev-image-keyboard-response,399,1211936,learnblock1,633.0999999940395,img/planet2_right.png,2,Community 1,NA,TRUE,j,j,NA,NA,NA,NA,6,"15,6,7,11,2,12,9,14,4,8,5,1,10,13,3"
14155,commdev-image-keyboard-response,400,1213194,learnblock1,939.2999999821186,img/planet15_left.png,15,Community 1,NA,TRUE,f,f,NA,NA,NA,NA,6,"15,6,7,11,2,12,9,14,4,8,5,1,10,13,3"
14155,commdev-image-keyboard-response,401,1214454,learnblock1,632,img/planet6_right.png,6,Community 1,NA,TRUE,j,j,NA,NA,NA,NA,6,"15,6,7,11,2,12,9,14,4,8,5,1,10,13,3"
14155,commdev-image-keyboard-response,402,1215708,learnblock1,732.2999999821186,img/planet2_right.png,2,Community 1,NA,TRUE,j,j,NA,NA,NA,NA,6,"15,6,7,11,2,12,9,14,4,8,5,1,10,13,3"
14155,commdev-image-keyboard-response,403,1216970,learnblock1,550.6999999880791,img/planet7_right.png,7,Community 1,NA,TRUE,j,j,NA,NA,NA,NA,6,"15,6,7,11,2,12,9,14,4,8,5,1,10,13,3"
14155,commdev-image-keyboard-response,404,1218232,learnblock1,526.0999999940395,img/planet11_left.png,11,Community 1,NA,TRUE,f,f,NA,NA,NA,NA,6,"15,6,7,11,2,12,9,14,4,8,5,1,10,13,3"
14155,commdev-image-keyboard-response,405,1219495,learnblock1,632.5999999940395,img/planet6_left.png,6,Community 1,NA,TRUE,f,f,NA,NA,NA,NA,6,"15,6,7,11,2,12,9,14,4,8,5,1,10,13,3"
14155,commdev-image-keyboard-response,406,1220752,learnblock1,487.2000000178814,img/planet2_left.png,2,Community 1,NA,TRUE,f,f,NA,NA,NA,NA,6,"15,6,7,11,2,12,9,14,4,8,5,1,10,13,3"
14155,commdev-image-keyboard-response,407,1222008,learnblock1,453,img/planet6_left.png,6,Community 1,NA,TRUE,f,f,NA,NA,NA,NA,6,"15,6,7,11,2,12,9,14,4,8,5,1,10,13,3"
14155,commdev-image-keyboard-response,408,1223261,learnblock1,510.5,img/planet7_left.png,7,Community 1,NA,TRUE,f,f,NA,NA,NA,NA,6,"15,6,7,11,2,12,9,14,4,8,5,1,10,13,3"
14155,commdev-image-keyboard-response,409,1224519,learnblock1,562.1999999880791,img/planet15_right.png,15,Community 1,NA,TRUE,j,j,NA,NA,NA,NA,6,"15,6,7,11,2,12,9,14,4,8,5,1,10,13,3"
14155,commdev-image-keyboard-response,410,1225777,learnblock1,490.80000001192093,img/planet11_right.png,11,Community 1,NA,TRUE,j,j,NA,NA,NA,NA,6,"15,6,7,11,2,12,9,14,4,8,5,1,10,13,3"
14155,commdev-image-keyboard-response,411,1227037,learnblock1,519.4000000059605,img/planet12_right.png,12,Community 2,NA,TRUE,j,j,NA,NA,NA,NA,6,"15,6,7,11,2,12,9,14,4,8,5,1,10,13,3"
14155,commdev-image-keyboard-response,412,1228294,learnblock1,520.6999999880791,img/planet4_right.png,4,Community 2,NA,TRUE,j,j,NA,NA,NA,NA,6,"15,6,7,11,2,12,9,14,4,8,5,1,10,13,3"
14155,commdev-image-keyboard-response,413,1229561,learnblock1,472.40000000596046,img/planet9_right.png,9,Community 2,NA,TRUE,j,j,NA,NA,NA,NA,6,"15,6,7,11,2,12,9,14,4,8,5,1,10,13,3"
14155,commdev-image-keyboard-response,414,1230826,learnblock1,391.69999998807907,img/planet12_right.png,12,Community 2,NA,TRUE,j,j,NA,NA,NA,NA,6,"15,6,7,11,2,12,9,14,4,8,5,1,10,13,3"
14155,commdev-image-keyboard-response,415,1232079,learnblock1,508.09999999403954,img/planet8_left.png,8,Community 2,NA,TRUE,f,f,NA,NA,NA,NA,6,"15,6,7,11,2,12,9,14,4,8,5,1,10,13,3"
14155,commdev-image-keyboard-response,416,1233335,learnblock1,486.2000000178814,img/planet12_left.png,12,Community 2,NA,TRUE,f,f,NA,NA,NA,NA,6,"15,6,7,11,2,12,9,14,4,8,5,1,10,13,3"
14155,commdev-image-keyboard-response,417,1234598,learnblock1,592.6999999880791,img/planet4_left.png,4,Community 2,NA,TRUE,f,f,NA,NA,NA,NA,6,"15,6,7,11,2,12,9,14,4,8,5,1,10,13,3"
14155,commdev-image-keyboard-response,418,1235851,learnblock1,506,img/planet12_right.png,12,Community 2,NA,TRUE,j,j,NA,NA,NA,NA,6,"15,6,7,11,2,12,9,14,4,8,5,1,10,13,3"
14155,commdev-image-keyboard-response,419,1237110,learnblock1,497.5,img/planet4_left.png,4,Community 2,NA,FALSE,j,f,NA,NA,NA,NA,6,"15,6,7,11,2,12,9,14,4,8,5,1,10,13,3"
14155,commdev-image-keyboard-response,420,1238362,learnblock1,492.2000000178814,img/planet9_right.png,9,Community 2,NA,TRUE,j,j,NA,NA,NA,NA,6,"15,6,7,11,2,12,9,14,4,8,5,1,10,13,3"
14155,commdev-image-keyboard-response,421,1239617,learnblock1,560.2000000178814,img/planet12_right.png,12,Community 2,NA,TRUE,j,j,NA,NA,NA,NA,6,"15,6,7,11,2,12,9,14,4,8,5,1,10,13,3"
14155,commdev-image-keyboard-response,422,1240876,learnblock1,684.1999999880791,img/planet4_left.png,4,Community 2,NA,TRUE,f,f,NA,NA,NA,NA,6,"15,6,7,11,2,12,9,14,4,8,5,1,10,13,3"
14155,commdev-image-keyboard-response,423,1242128,learnblock1,707.9000000059605,img/planet9_right.png,9,Community 2,NA,TRUE,j,j,NA,NA,NA,NA,6,"15,6,7,11,2,12,9,14,4,8,5,1,10,13,3"
14155,commdev-image-keyboard-response,424,1243386,learnblock1,612.3000000119209,img/planet14_right.png,14,Community 2,NA,TRUE,j,j,NA,NA,NA,NA,6,"15,6,7,11,2,12,9,14,4,8,5,1,10,13,3"
14155,commdev-image-keyboard-response,425,1244641,learnblock1,640.2000000178814,img/planet1_right.png,1,Community 3,NA,TRUE,j,j,NA,NA,NA,NA,6,"15,6,7,11,2,12,9,14,4,8,5,1,10,13,3"
14155,commdev-image-keyboard-response,426,1245902,learnblock1,573,img/planet3_left.png,3,Community 3,NA,TRUE,f,f,NA,NA,NA,NA,6,"15,6,7,11,2,12,9,14,4,8,5,1,10,13,3"
14155,commdev-image-keyboard-response,427,1247159,learnblock1,530.5,img/planet1_right.png,1,Community 3,NA,TRUE,j,j,NA,NA,NA,NA,6,"15,6,7,11,2,12,9,14,4,8,5,1,10,13,3"
14155,commdev-image-keyboard-response,428,1248415,learnblock1,514.1000000238419,img/planet10_left.png,10,Community 3,NA,TRUE,f,f,NA,NA,NA,NA,6,"15,6,7,11,2,12,9,14,4,8,5,1,10,13,3"
14155,commdev-image-keyboard-response,429,1249673,learnblock1,492.19999998807907,img/planet1_left.png,1,Community 3,NA,TRUE,f,f,NA,NA,NA,NA,6,"15,6,7,11,2,12,9,14,4,8,5,1,10,13,3"
14155,commdev-image-keyboard-response,430,1250926,learnblock1,583.5,img/planet3_left.png,3,Community 3,NA,TRUE,f,f,NA,NA,NA,NA,6,"15,6,7,11,2,12,9,14,4,8,5,1,10,13,3"
14155,commdev-image-keyboard-response,431,1252180,learnblock1,541.7999999821186,img/planet5_right.png,5,Community 3,NA,TRUE,j,j,NA,NA,NA,NA,6,"15,6,7,11,2,12,9,14,4,8,5,1,10,13,3"
14155,commdev-image-keyboard-response,432,1253439,learnblock1,485.90000000596046,img/planet13_right.png,13,Community 3,NA,TRUE,j,j,NA,NA,NA,NA,6,"15,6,7,11,2,12,9,14,4,8,5,1,10,13,3"
14155,commdev-image-keyboard-response,433,1254696,learnblock1,472.2000000178814,img/planet10_right.png,10,Community 3,NA,TRUE,j,j,NA,NA,NA,NA,6,"15,6,7,11,2,12,9,14,4,8,5,1,10,13,3"
14155,commdev-image-keyboard-response,437,1436108,learnblock2,583.0999999940395,img/planet6_right.png,6,Community 1,NA,TRUE,j,j,NA,NA,NA,NA,6,"15,6,7,11,2,12,9,14,4,8,5,1,10,13,3"
14155,commdev-image-keyboard-response,438,1437362,learnblock2,528.0999999940395,img/planet11_right.png,11,Community 1,NA,TRUE,j,j,NA,NA,NA,NA,6,"15,6,7,11,2,12,9,14,4,8,5,1,10,13,3"
14155,commdev-image-keyboard-response,439,1438616,learnblock2,569.1999999880791,img/planet12_left.png,12,Community 2,NA,TRUE,f,f,NA,NA,NA,NA,6,"15,6,7,11,2,12,9,14,4,8,5,1,10,13,3"
14155,commdev-image-keyboard-response,440,1439878,learnblock2,468.5,img/planet9_right.png,9,Community 2,NA,TRUE,j,j,NA,NA,NA,NA,6,"15,6,7,11,2,12,9,14,4,8,5,1,10,13,3"
14155,commdev-image-keyboard-response,441,1441137,learnblock2,476.90000000596046,img/planet8_left.png,8,Community 2,NA,TRUE,f,f,NA,NA,NA,NA,6,"15,6,7,11,2,12,9,14,4,8,5,1,10,13,3"
14155,commdev-image-keyboard-response,442,1442395,learnblock2,585.1000000238419,img/planet14_right.png,14,Community 2,NA,TRUE,j,j,NA,NA,NA,NA,6,"15,6,7,11,2,12,9,14,4,8,5,1,10,13,3"
14155,commdev-image-keyboard-response,443,1443654,learnblock2,524.5999999940395,img/planet1_left.png,1,Community 3,NA,TRUE,f,f,NA,NA,NA,NA,6,"15,6,7,11,2,12,9,14,4,8,5,1,10,13,3"
14155,commdev-image-keyboard-response,444,1444910,learnblock2,565.5,img/planet13_left.png,13,Community 3,NA,TRUE,f,f,NA,NA,NA,NA,6,"15,6,7,11,2,12,9,14,4,8,5,1,10,13,3"
14155,commdev-image-keyboard-response,445,1446161,learnblock2,500.60000002384186,img/planet5_left.png,5,Community 3,NA,TRUE,f,f,NA,NA,NA,NA,6,"15,6,7,11,2,12,9,14,4,8,5,1,10,13,3"
14155,commdev-image-keyboard-response,446,1447419,learnblock2,526.5,img/planet10_right.png,10,Community 3,NA,TRUE,j,j,NA,NA,NA,NA,6,"15,6,7,11,2,12,9,14,4,8,5,1,10,13,3"
14155,commdev-image-keyboard-response,447,1448675,learnblock2,439,img/planet5_left.png,5,Community 3,NA,TRUE,f,f,NA,NA,NA,NA,6,"15,6,7,11,2,12,9,14,4,8,5,1,10,13,3"
14155,commdev-image-keyboard-response,448,1449931,learnblock2,493.90000000596046,img/planet10_right.png,10,Community 3,NA,TRUE,j,j,NA,NA,NA,NA,6,"15,6,7,11,2,12,9,14,4,8,5,1,10,13,3"
14155,commdev-image-keyboard-response,449,1451183,learnblock2,543,img/planet1_right.png,1,Community 3,NA,TRUE,j,j,NA,NA,NA,NA,6,"15,6,7,11,2,12,9,14,4,8,5,1,10,13,3"
14155,commdev-image-keyboard-response,450,1452447,learnblock2,522.8000000119209,img/planet14_left.png,14,Community 2,NA,TRUE,f,f,NA,NA,NA,NA,6,"15,6,7,11,2,12,9,14,4,8,5,1,10,13,3"
14155,commdev-image-keyboard-response,451,1453710,learnblock2,482.59999999403954,img/planet8_left.png,8,Community 2,NA,TRUE,f,f,NA,NA,NA,NA,6,"15,6,7,11,2,12,9,14,4,8,5,1,10,13,3"
14155,commdev-image-keyboard-response,452,1454969,learnblock2,569.8000000119209,img/planet4_right.png,4,Community 2,NA,TRUE,j,j,NA,NA,NA,NA,6,"15,6,7,11,2,12,9,14,4,8,5,1,10,13,3"
14155,commdev-image-keyboard-response,453,1456228,learnblock2,451.40000000596046,img/planet14_right.png,14,Community 2,NA,TRUE,j,j,NA,NA,NA,NA,6,"15,6,7,11,2,12,9,14,4,8,5,1,10,13,3"
14155,commdev-image-keyboard-response,454,1457482,learnblock2,448.7000000178814,img/planet1_right.png,1,Community 3,NA,TRUE,j,j,NA,NA,NA,NA,6,"15,6,7,11,2,12,9,14,4,8,5,1,10,13,3"
14155,commdev-image-keyboard-response,455,1458745,learnblock2,548.3000000119209,img/planet13_left.png,13,Community 3,NA,TRUE,f,f,NA,NA,NA,NA,6,"15,6,7,11,2,12,9,14,4,8,5,1,10,13,3"
14155,commdev-image-keyboard-response,456,1460003,learnblock2,696.6000000238419,img/planet10_right.png,10,Community 3,NA,TRUE,j,j,NA,NA,NA,NA,6,"15,6,7,11,2,12,9,14,4,8,5,1,10,13,3"
14155,commdev-image-keyboard-response,457,1461262,learnblock2,496.30000001192093,img/planet5_right.png,5,Community 3,NA,TRUE,j,j,NA,NA,NA,NA,6,"15,6,7,11,2,12,9,14,4,8,5,1,10,13,3"
14155,commdev-image-keyboard-response,458,1462519,learnblock2,557.9000000059605,img/planet13_left.png,13,Community 3,NA,TRUE,f,f,NA,NA,NA,NA,6,"15,6,7,11,2,12,9,14,4,8,5,1,10,13,3"
14155,commdev-image-keyboard-response,459,1463777,learnblock2,566.7000000178814,img/planet1_right.png,1,Community 3,NA,TRUE,j,j,NA,NA,NA,NA,6,"15,6,7,11,2,12,9,14,4,8,5,1,10,13,3"
14155,commdev-image-keyboard-response,460,1465033,learnblock2,684.5999999940395,img/planet10_right.png,10,Community 3,NA,TRUE,j,j,NA,NA,NA,NA,6,"15,6,7,11,2,12,9,14,4,8,5,1,10,13,3"
14155,commdev-image-keyboard-response,461,1466287,learnblock2,584.7999999821186,img/planet1_right.png,1,Community 3,NA,TRUE,j,j,NA,NA,NA,NA,6,"15,6,7,11,2,12,9,14,4,8,5,1,10,13,3"
14155,commdev-image-keyboard-response,462,1467543,learnblock2,630.9000000059605,img/planet13_left.png,13,Community 3,NA,TRUE,f,f,NA,NA,NA,NA,6,"15,6,7,11,2,12,9,14,4,8,5,1,10,13,3"
14155,commdev-image-keyboard-response,463,1468803,learnblock2,512.8000000119209,img/planet3_left.png,3,Community 3,NA,TRUE,f,f,NA,NA,NA,NA,6,"15,6,7,11,2,12,9,14,4,8,5,1,10,13,3"
14155,commdev-image-keyboard-response,464,1470061,learnblock2,493.5,img/planet10_left.png,10,Community 3,NA,TRUE,f,f,NA,NA,NA,NA,6,"15,6,7,11,2,12,9,14,4,8,5,1,10,13,3"
14155,commdev-image-keyboard-response,465,1471319,learnblock2,563.1999999880791,img/planet13_right.png,13,Community 3,NA,TRUE,j,j,NA,NA,NA,NA,6,"15,6,7,11,2,12,9,14,4,8,5,1,10,13,3"
14155,commdev-image-keyboard-response,466,1472576,learnblock2,475,img/planet10_right.png,10,Community 3,NA,TRUE,j,j,NA,NA,NA,NA,6,"15,6,7,11,2,12,9,14,4,8,5,1,10,13,3"
14155,commdev-image-keyboard-response,467,1473829,learnblock2,471.19999998807907,img/planet1_left.png,1,Community 3,NA,TRUE,f,f,NA,NA,NA,NA,6,"15,6,7,11,2,12,9,14,4,8,5,1,10,13,3"
14155,commdev-image-keyboard-response,468,1475085,learnblock2,455.59999999403954,img/planet14_right.png,14,Community 2,NA,TRUE,j,j,NA,NA,NA,NA,6,"15,6,7,11,2,12,9,14,4,8,5,1,10,13,3"
14155,commdev-image-keyboard-response,469,1476342,learnblock2,554.4000000059605,img/planet9_left.png,9,Community 2,NA,TRUE,f,f,NA,NA,NA,NA,6,"15,6,7,11,2,12,9,14,4,8,5,1,10,13,3"
14155,commdev-image-keyboard-response,470,1477595,learnblock2,782.3000000119209,img/planet12_left.png,12,Community 2,NA,TRUE,f,f,NA,NA,NA,NA,6,"15,6,7,11,2,12,9,14,4,8,5,1,10,13,3"
14155,commdev-image-keyboard-response,471,1478861,learnblock2,1071.5,img/planet9_left.png,9,Community 2,NA,FALSE,j,f,NA,NA,NA,NA,6,"15,6,7,11,2,12,9,14,4,8,5,1,10,13,3"
14155,commdev-image-keyboard-response,472,1480114,learnblock2,968.8000000119209,img/planet14_right.png,14,Community 2,NA,TRUE,j,j,NA,NA,NA,NA,6,"15,6,7,11,2,12,9,14,4,8,5,1,10,13,3"
14155,commdev-image-keyboard-response,473,1481368,learnblock2,497.19999998807907,img/planet9_left.png,9,Community 2,NA,TRUE,f,f,NA,NA,NA,NA,6,"15,6,7,11,2,12,9,14,4,8,5,1,10,13,3"
14155,commdev-image-keyboard-response,474,1482625,learnblock2,690.7000000178814,img/planet8_left.png,8,Community 2,NA,TRUE,f,f,NA,NA,NA,NA,6,"15,6,7,11,2,12,9,14,4,8,5,1,10,13,3"
14155,commdev-image-keyboard-response,475,1483882,learnblock2,581,img/planet14_right.png,14,Community 2,NA,TRUE,j,j,NA,NA,NA,NA,6,"15,6,7,11,2,12,9,14,4,8,5,1,10,13,3"
14155,commdev-image-keyboard-response,476,1485135,learnblock2,749.9000000059605,img/planet9_right.png,9,Community 2,NA,TRUE,j,j,NA,NA,NA,NA,6,"15,6,7,11,2,12,9,14,4,8,5,1,10,13,3"
14155,commdev-image-keyboard-response,477,1486393,learnblock2,622.9000000059605,img/planet14_right.png,14,Community 2,NA,TRUE,j,j,NA,NA,NA,NA,6,"15,6,7,11,2,12,9,14,4,8,5,1,10,13,3"
14155,commdev-image-keyboard-response,478,1487656,learnblock2,590.2000000178814,img/planet8_left.png,8,Community 2,NA,TRUE,f,f,NA,NA,NA,NA,6,"15,6,7,11,2,12,9,14,4,8,5,1,10,13,3"
14155,commdev-image-keyboard-response,479,1488920,learnblock2,489.2999999821186,img/planet9_left.png,9,Community 2,NA,TRUE,f,f,NA,NA,NA,NA,6,"15,6,7,11,2,12,9,14,4,8,5,1,10,13,3"
14155,commdev-image-keyboard-response,480,1490187,learnblock2,722.2000000178814,img/planet8_left.png,8,Community 2,NA,TRUE,f,f,NA,NA,NA,NA,6,"15,6,7,11,2,12,9,14,4,8,5,1,10,13,3"
14155,commdev-image-keyboard-response,481,1491447,learnblock2,504.30000001192093,img/planet4_right.png,4,Community 2,NA,TRUE,j,j,NA,NA,NA,NA,6,"15,6,7,11,2,12,9,14,4,8,5,1,10,13,3"
14155,commdev-image-keyboard-response,482,1492703,learnblock2,677.8000000119209,img/planet9_right.png,9,Community 2,NA,TRUE,j,j,NA,NA,NA,NA,6,"15,6,7,11,2,12,9,14,4,8,5,1,10,13,3"
14155,commdev-image-keyboard-response,483,1493962,learnblock2,653,img/planet12_right.png,12,Community 2,NA,TRUE,j,j,NA,NA,NA,NA,6,"15,6,7,11,2,12,9,14,4,8,5,1,10,13,3"
14155,commdev-image-keyboard-response,484,1495221,learnblock2,608.8000000119209,img/planet8_left.png,8,Community 2,NA,TRUE,f,f,NA,NA,NA,NA,6,"15,6,7,11,2,12,9,14,4,8,5,1,10,13,3"
14155,commdev-image-keyboard-response,485,1496481,learnblock2,984,img/planet4_left.png,4,Community 2,NA,TRUE,f,f,NA,NA,NA,NA,6,"15,6,7,11,2,12,9,14,4,8,5,1,10,13,3"
14155,commdev-image-keyboard-response,486,1497738,learnblock2,627.2999999821186,img/planet9_right.png,9,Community 2,NA,TRUE,j,j,NA,NA,NA,NA,6,"15,6,7,11,2,12,9,14,4,8,5,1,10,13,3"
14155,commdev-image-keyboard-response,487,1498993,learnblock2,674.5999999940395,img/planet4_left.png,4,Community 2,NA,TRUE,f,f,NA,NA,NA,NA,6,"15,6,7,11,2,12,9,14,4,8,5,1,10,13,3"
14155,commdev-image-keyboard-response,488,1500247,learnblock2,484.5,img/planet12_right.png,12,Community 2,NA,TRUE,j,j,NA,NA,NA,NA,6,"15,6,7,11,2,12,9,14,4,8,5,1,10,13,3"
14155,commdev-image-keyboard-response,489,1501513,learnblock2,555,img/planet9_right.png,9,Community 2,NA,TRUE,j,j,NA,NA,NA,NA,6,"15,6,7,11,2,12,9,14,4,8,5,1,10,13,3"
14155,commdev-image-keyboard-response,490,1502780,learnblock2,615.5999999940395,img/planet14_right.png,14,Community 2,NA,TRUE,j,j,NA,NA,NA,NA,6,"15,6,7,11,2,12,9,14,4,8,5,1,10,13,3"
14155,commdev-image-keyboard-response,491,1504035,learnblock2,539.7999999821186,img/planet9_left.png,9,Community 2,NA,TRUE,f,f,NA,NA,NA,NA,6,"15,6,7,11,2,12,9,14,4,8,5,1,10,13,3"
14155,commdev-image-keyboard-response,492,1505295,learnblock2,686.9000000059605,img/planet4_left.png,4,Community 2,NA,TRUE,f,f,NA,NA,NA,NA,6,"15,6,7,11,2,12,9,14,4,8,5,1,10,13,3"
14155,commdev-image-keyboard-response,493,1506547,learnblock2,579.9000000059605,img/planet14_left.png,14,Community 2,NA,TRUE,f,f,NA,NA,NA,NA,6,"15,6,7,11,2,12,9,14,4,8,5,1,10,13,3"
14155,commdev-image-keyboard-response,494,1507805,learnblock2,535.1999999880791,img/planet9_right.png,9,Community 2,NA,TRUE,j,j,NA,NA,NA,NA,6,"15,6,7,11,2,12,9,14,4,8,5,1,10,13,3"
14155,commdev-image-keyboard-response,495,1509056,learnblock2,465.10000002384186,img/planet12_left.png,12,Community 2,NA,TRUE,f,f,NA,NA,NA,NA,6,"15,6,7,11,2,12,9,14,4,8,5,1,10,13,3"
14155,commdev-image-keyboard-response,496,1510321,learnblock2,536.1999999880791,img/planet9_left.png,9,Community 2,NA,TRUE,f,f,NA,NA,NA,NA,6,"15,6,7,11,2,12,9,14,4,8,5,1,10,13,3"
14155,commdev-image-keyboard-response,497,1511587,learnblock2,701.5999999940395,img/planet4_right.png,4,Community 2,NA,TRUE,j,j,NA,NA,NA,NA,6,"15,6,7,11,2,12,9,14,4,8,5,1,10,13,3"
14155,commdev-image-keyboard-response,498,1512845,learnblock2,526.5999999940395,img/planet14_right.png,14,Community 2,NA,TRUE,j,j,NA,NA,NA,NA,6,"15,6,7,11,2,12,9,14,4,8,5,1,10,13,3"
14155,commdev-image-keyboard-response,499,1514099,learnblock2,996,img/planet4_left.png,4,Community 2,NA,TRUE,f,f,NA,NA,NA,NA,6,"15,6,7,11,2,12,9,14,4,8,5,1,10,13,3"
14155,commdev-image-keyboard-response,500,1515363,learnblock2,638.7000000178814,img/planet14_left.png,14,Community 2,NA,TRUE,f,f,NA,NA,NA,NA,6,"15,6,7,11,2,12,9,14,4,8,5,1,10,13,3"
14155,commdev-image-keyboard-response,501,1516618,learnblock2,629.9000000059605,img/planet8_right.png,8,Community 2,NA,TRUE,j,j,NA,NA,NA,NA,6,"15,6,7,11,2,12,9,14,4,8,5,1,10,13,3"
14155,commdev-image-keyboard-response,502,1517877,learnblock2,513.9000000059605,img/planet9_right.png,9,Community 2,NA,TRUE,j,j,NA,NA,NA,NA,6,"15,6,7,11,2,12,9,14,4,8,5,1,10,13,3"
14155,commdev-image-keyboard-response,503,1519137,learnblock2,699.5999999940395,img/planet14_left.png,14,Community 2,NA,TRUE,f,f,NA,NA,NA,NA,6,"15,6,7,11,2,12,9,14,4,8,5,1,10,13,3"
14155,commdev-image-keyboard-response,504,1520388,learnblock2,547.7000000178814,img/planet1_right.png,1,Community 3,NA,TRUE,j,j,NA,NA,NA,NA,6,"15,6,7,11,2,12,9,14,4,8,5,1,10,13,3"
14155,commdev-image-keyboard-response,505,1521655,learnblock2,621.2999999821186,img/planet10_right.png,10,Community 3,NA,TRUE,j,j,NA,NA,NA,NA,6,"15,6,7,11,2,12,9,14,4,8,5,1,10,13,3"
14155,commdev-image-keyboard-response,506,1522914,learnblock2,692.9000000059605,img/planet3_right.png,3,Community 3,NA,TRUE,j,j,NA,NA,NA,NA,6,"15,6,7,11,2,12,9,14,4,8,5,1,10,13,3"
14155,commdev-image-keyboard-response,507,1524174,learnblock2,549.8000000119209,img/planet1_left.png,1,Community 3,NA,TRUE,f,f,NA,NA,NA,NA,6,"15,6,7,11,2,12,9,14,4,8,5,1,10,13,3"
14155,commdev-image-keyboard-response,508,1525429,learnblock2,768.7000000178814,img/planet3_left.png,3,Community 3,NA,TRUE,f,f,NA,NA,NA,NA,6,"15,6,7,11,2,12,9,14,4,8,5,1,10,13,3"
14155,commdev-image-keyboard-response,509,1526686,learnblock2,491.90000000596046,img/planet1_left.png,1,Community 3,NA,TRUE,f,f,NA,NA,NA,NA,6,"15,6,7,11,2,12,9,14,4,8,5,1,10,13,3"
14155,commdev-image-keyboard-response,510,1527942,learnblock2,660.8000000119209,img/planet3_right.png,3,Community 3,NA,TRUE,j,j,NA,NA,NA,NA,6,"15,6,7,11,2,12,9,14,4,8,5,1,10,13,3"
14155,commdev-image-keyboard-response,511,1529198,learnblock2,518.5,img/planet13_right.png,13,Community 3,NA,TRUE,j,j,NA,NA,NA,NA,6,"15,6,7,11,2,12,9,14,4,8,5,1,10,13,3"
14155,commdev-image-keyboard-response,512,1530457,learnblock2,547.7000000178814,img/planet3_left.png,3,Community 3,NA,TRUE,f,f,NA,NA,NA,NA,6,"15,6,7,11,2,12,9,14,4,8,5,1,10,13,3"
14155,commdev-image-keyboard-response,513,1531713,learnblock2,469.5,img/planet1_left.png,1,Community 3,NA,TRUE,f,f,NA,NA,NA,NA,6,"15,6,7,11,2,12,9,14,4,8,5,1,10,13,3"
14155,commdev-image-keyboard-response,514,1532971,learnblock2,482.39999997615814,img/planet13_left.png,13,Community 3,NA,TRUE,f,f,NA,NA,NA,NA,6,"15,6,7,11,2,12,9,14,4,8,5,1,10,13,3"
14155,commdev-image-keyboard-response,515,1534224,learnblock2,591.5,img/planet5_left.png,5,Community 3,NA,TRUE,f,f,NA,NA,NA,NA,6,"15,6,7,11,2,12,9,14,4,8,5,1,10,13,3"
14155,commdev-image-keyboard-response,516,1535487,learnblock2,490.5,img/planet2_right.png,2,Community 1,NA,TRUE,j,j,NA,NA,NA,NA,6,"15,6,7,11,2,12,9,14,4,8,5,1,10,13,3"
14155,commdev-image-keyboard-response,517,1536746,learnblock2,677.3000000119209,img/planet15_right.png,15,Community 1,NA,TRUE,j,j,NA,NA,NA,NA,6,"15,6,7,11,2,12,9,14,4,8,5,1,10,13,3"
14155,commdev-image-keyboard-response,518,1538003,learnblock2,629.2999999821186,img/planet7_right.png,7,Community 1,NA,TRUE,j,j,NA,NA,NA,NA,6,"15,6,7,11,2,12,9,14,4,8,5,1,10,13,3"
14155,commdev-image-keyboard-response,519,1539256,learnblock2,586.4000000059605,img/planet15_right.png,15,Community 1,NA,TRUE,j,j,NA,NA,NA,NA,6,"15,6,7,11,2,12,9,14,4,8,5,1,10,13,3"
14155,commdev-image-keyboard-response,520,1540509,learnblock2,523.9000000059605,img/planet6_left.png,6,Community 1,NA,TRUE,f,f,NA,NA,NA,NA,6,"15,6,7,11,2,12,9,14,4,8,5,1,10,13,3"
14155,commdev-image-keyboard-response,521,1541763,learnblock2,537.5999999940395,img/planet11_right.png,11,Community 1,NA,FALSE,f,j,NA,NA,NA,NA,6,"15,6,7,11,2,12,9,14,4,8,5,1,10,13,3"
14155,commdev-image-keyboard-response,522,1543016,learnblock2,793.2999999821186,img/planet12_right.png,12,Community 2,NA,TRUE,j,j,NA,NA,NA,NA,6,"15,6,7,11,2,12,9,14,4,8,5,1,10,13,3"
14155,commdev-image-keyboard-response,523,1544273,learnblock2,542.3000000119209,img/planet8_left.png,8,Community 2,NA,TRUE,f,f,NA,NA,NA,NA,6,"15,6,7,11,2,12,9,14,4,8,5,1,10,13,3"
14155,commdev-image-keyboard-response,524,1545526,learnblock2,564.0999999940395,img/planet12_left.png,12,Community 2,NA,TRUE,f,f,NA,NA,NA,NA,6,"15,6,7,11,2,12,9,14,4,8,5,1,10,13,3"
14155,commdev-image-keyboard-response,525,1546783,learnblock2,500.19999998807907,img/planet11_left.png,11,Community 1,NA,TRUE,f,f,NA,NA,NA,NA,6,"15,6,7,11,2,12,9,14,4,8,5,1,10,13,3"
14155,commdev-image-keyboard-response,526,1548043,learnblock2,574.8999999761581,img/planet6_right.png,6,Community 1,NA,TRUE,j,j,NA,NA,NA,NA,6,"15,6,7,11,2,12,9,14,4,8,5,1,10,13,3"
14155,commdev-image-keyboard-response,527,1549295,learnblock2,679.5999999940395,img/planet7_right.png,7,Community 1,NA,TRUE,j,j,NA,NA,NA,NA,6,"15,6,7,11,2,12,9,14,4,8,5,1,10,13,3"
14155,commdev-image-keyboard-response,528,1550562,learnblock2,564.0999999940395,img/planet15_right.png,15,Community 1,NA,TRUE,j,j,NA,NA,NA,NA,6,"15,6,7,11,2,12,9,14,4,8,5,1,10,13,3"
14155,commdev-image-keyboard-response,529,1551826,learnblock2,672.2000000178814,img/planet6_left.png,6,Community 1,NA,TRUE,f,f,NA,NA,NA,NA,6,"15,6,7,11,2,12,9,14,4,8,5,1,10,13,3"
14155,commdev-image-keyboard-response,530,1553079,learnblock2,589.2999999821186,img/planet7_left.png,7,Community 1,NA,TRUE,f,f,NA,NA,NA,NA,6,"15,6,7,11,2,12,9,14,4,8,5,1,10,13,3"
14155,commdev-image-keyboard-response,531,1554337,learnblock2,432,img/planet2_right.png,2,Community 1,NA,TRUE,j,j,NA,NA,NA,NA,6,"15,6,7,11,2,12,9,14,4,8,5,1,10,13,3"
14155,commdev-image-keyboard-response,532,1555596,learnblock2,582.9000000059605,img/planet15_right.png,15,Community 1,NA,TRUE,j,j,NA,NA,NA,NA,6,"15,6,7,11,2,12,9,14,4,8,5,1,10,13,3"
14155,commdev-image-keyboard-response,533,1556850,learnblock2,466.2999999821186,img/planet11_left.png,11,Community 1,NA,TRUE,f,f,NA,NA,NA,NA,6,"15,6,7,11,2,12,9,14,4,8,5,1,10,13,3"
14155,commdev-image-keyboard-response,534,1558104,learnblock2,517.2999999821186,img/planet6_right.png,6,Community 1,NA,TRUE,j,j,NA,NA,NA,NA,6,"15,6,7,11,2,12,9,14,4,8,5,1,10,13,3"
14155,commdev-image-keyboard-response,535,1559357,learnblock2,930.2000000178814,img/planet2_left.png,2,Community 1,NA,TRUE,f,f,NA,NA,NA,NA,6,"15,6,7,11,2,12,9,14,4,8,5,1,10,13,3"
14155,commdev-image-keyboard-response,536,1560621,learnblock2,780.8000000119209,img/planet15_right.png,15,Community 1,NA,TRUE,j,j,NA,NA,NA,NA,6,"15,6,7,11,2,12,9,14,4,8,5,1,10,13,3"
14155,commdev-image-keyboard-response,537,1561879,learnblock2,593.2999999821186,img/planet11_right.png,11,Community 1,NA,TRUE,j,j,NA,NA,NA,NA,6,"15,6,7,11,2,12,9,14,4,8,5,1,10,13,3"
14155,commdev-image-keyboard-response,538,1563139,learnblock2,705.7999999821186,img/planet7_right.png,7,Community 1,NA,TRUE,j,j,NA,NA,NA,NA,6,"15,6,7,11,2,12,9,14,4,8,5,1,10,13,3"
14155,commdev-image-keyboard-response,539,1564397,learnblock2,553.6999999880791,img/planet11_right.png,11,Community 1,NA,TRUE,j,j,NA,NA,NA,NA,6,"15,6,7,11,2,12,9,14,4,8,5,1,10,13,3"
14155,commdev-image-keyboard-response,540,1565654,learnblock2,585.6999999880791,img/planet6_right.png,6,Community 1,NA,TRUE,j,j,NA,NA,NA,NA,6,"15,6,7,11,2,12,9,14,4,8,5,1,10,13,3"
14155,commdev-image-keyboard-response,541,1566917,learnblock2,500.10000002384186,img/planet7_right.png,7,Community 1,NA,TRUE,j,j,NA,NA,NA,NA,6,"15,6,7,11,2,12,9,14,4,8,5,1,10,13,3"
14155,commdev-image-keyboard-response,542,1568183,learnblock2,644.0999999940395,img/planet11_left.png,11,Community 1,NA,TRUE,f,f,NA,NA,NA,NA,6,"15,6,7,11,2,12,9,14,4,8,5,1,10,13,3"
14155,commdev-image-keyboard-response,543,1569437,learnblock2,650.5,img/planet6_right.png,6,Community 1,NA,TRUE,j,j,NA,NA,NA,NA,6,"15,6,7,11,2,12,9,14,4,8,5,1,10,13,3"
14155,commdev-image-keyboard-response,544,1570693,learnblock2,729,img/planet15_right.png,15,Community 1,NA,TRUE,j,j,NA,NA,NA,NA,6,"15,6,7,11,2,12,9,14,4,8,5,1,10,13,3"
14155,commdev-image-keyboard-response,545,1571948,learnblock2,561.5999999940395,img/planet2_left.png,2,Community 1,NA,TRUE,f,f,NA,NA,NA,NA,6,"15,6,7,11,2,12,9,14,4,8,5,1,10,13,3"
14155,commdev-image-keyboard-response,546,1573202,learnblock2,618.1999999880791,img/planet6_left.png,6,Community 1,NA,TRUE,f,f,NA,NA,NA,NA,6,"15,6,7,11,2,12,9,14,4,8,5,1,10,13,3"
14155,commdev-image-keyboard-response,547,1574463,learnblock2,447.30000001192093,img/planet2_right.png,2,Community 1,NA,TRUE,j,j,NA,NA,NA,NA,6,"15,6,7,11,2,12,9,14,4,8,5,1,10,13,3"
14155,commdev-image-keyboard-response,548,1575722,learnblock2,567.8000000119209,img/planet15_right.png,15,Community 1,NA,TRUE,j,j,NA,NA,NA,NA,6,"15,6,7,11,2,12,9,14,4,8,5,1,10,13,3"
14155,commdev-image-keyboard-response,549,1576976,learnblock2,502.40000000596046,img/planet11_right.png,11,Community 1,NA,TRUE,j,j,NA,NA,NA,NA,6,"15,6,7,11,2,12,9,14,4,8,5,1,10,13,3"
14155,commdev-image-keyboard-response,550,1578236,learnblock2,551.7000000178814,img/planet6_right.png,6,Community 1,NA,TRUE,j,j,NA,NA,NA,NA,6,"15,6,7,11,2,12,9,14,4,8,5,1,10,13,3"
14155,commdev-image-keyboard-response,551,1579495,learnblock2,541.0999999940395,img/planet11_right.png,11,Community 1,NA,TRUE,j,j,NA,NA,NA,NA,6,"15,6,7,11,2,12,9,14,4,8,5,1,10,13,3"
14155,commdev-image-keyboard-response,552,1580751,learnblock2,497.7000000178814,img/planet6_right.png,6,Community 1,NA,TRUE,j,j,NA,NA,NA,NA,6,"15,6,7,11,2,12,9,14,4,8,5,1,10,13,3"
14155,commdev-image-keyboard-response,553,1582010,learnblock2,425.7000000178814,img/planet7_right.png,7,Community 1,NA,TRUE,j,j,NA,NA,NA,NA,6,"15,6,7,11,2,12,9,14,4,8,5,1,10,13,3"
14155,commdev-image-keyboard-response,554,1583270,learnblock2,397.19999998807907,img/planet6_right.png,6,Community 1,NA,TRUE,j,j,NA,NA,NA,NA,6,"15,6,7,11,2,12,9,14,4,8,5,1,10,13,3"
14155,commdev-image-keyboard-response,555,1584528,learnblock2,449.90000000596046,img/planet7_left.png,7,Community 1,NA,FALSE,j,f,NA,NA,NA,NA,6,"15,6,7,11,2,12,9,14,4,8,5,1,10,13,3"
14155,commdev-image-keyboard-response,556,1585784,learnblock2,475.2000000178814,img/planet6_right.png,6,Community 1,NA,TRUE,j,j,NA,NA,NA,NA,6,"15,6,7,11,2,12,9,14,4,8,5,1,10,13,3"
14155,commdev-image-keyboard-response,557,1587043,learnblock2,476.7999999821186,img/planet2_right.png,2,Community 1,NA,TRUE,j,j,NA,NA,NA,NA,6,"15,6,7,11,2,12,9,14,4,8,5,1,10,13,3"
14155,commdev-image-keyboard-response,558,1588310,learnblock2,609.0999999940395,img/planet6_left.png,6,Community 1,NA,TRUE,f,f,NA,NA,NA,NA,6,"15,6,7,11,2,12,9,14,4,8,5,1,10,13,3"
14155,commdev-image-keyboard-response,559,1589565,learnblock2,582,img/planet11_left.png,11,Community 1,NA,TRUE,f,f,NA,NA,NA,NA,6,"15,6,7,11,2,12,9,14,4,8,5,1,10,13,3"
14155,commdev-image-keyboard-response,560,1590823,learnblock2,599,img/planet6_right.png,6,Community 1,NA,TRUE,j,j,NA,NA,NA,NA,6,"15,6,7,11,2,12,9,14,4,8,5,1,10,13,3"
14155,commdev-image-keyboard-response,561,1592076,learnblock2,505.90000000596046,img/planet2_left.png,2,Community 1,NA,TRUE,f,f,NA,NA,NA,NA,6,"15,6,7,11,2,12,9,14,4,8,5,1,10,13,3"
14155,commdev-image-keyboard-response,562,1593343,learnblock2,571.1000000238419,img/planet15_right.png,15,Community 1,NA,TRUE,j,j,NA,NA,NA,NA,6,"15,6,7,11,2,12,9,14,4,8,5,1,10,13,3"
14155,commdev-image-keyboard-response,563,1594601,learnblock2,684.7000000178814,img/planet6_right.png,6,Community 1,NA,TRUE,j,j,NA,NA,NA,NA,6,"15,6,7,11,2,12,9,14,4,8,5,1,10,13,3"
14155,commdev-image-keyboard-response,564,1595859,learnblock2,518.1999999880791,img/planet7_left.png,7,Community 1,NA,TRUE,f,f,NA,NA,NA,NA,6,"15,6,7,11,2,12,9,14,4,8,5,1,10,13,3"
14155,commdev-image-keyboard-response,565,1597119,learnblock2,463.7000000178814,img/planet15_right.png,15,Community 1,NA,TRUE,j,j,NA,NA,NA,NA,6,"15,6,7,11,2,12,9,14,4,8,5,1,10,13,3"
14155,commdev-image-keyboard-response,566,1598385,learnblock2,589.5,img/planet11_right.png,11,Community 1,NA,TRUE,j,j,NA,NA,NA,NA,6,"15,6,7,11,2,12,9,14,4,8,5,1,10,13,3"
14155,commdev-image-keyboard-response,567,1599644,learnblock2,597.3999999761581,img/planet7_left.png,7,Community 1,NA,TRUE,f,f,NA,NA,NA,NA,6,"15,6,7,11,2,12,9,14,4,8,5,1,10,13,3"
14155,commdev-image-keyboard-response,568,1600903,learnblock2,484.40000000596046,img/planet2_left.png,2,Community 1,NA,TRUE,f,f,NA,NA,NA,NA,6,"15,6,7,11,2,12,9,14,4,8,5,1,10,13,3"
14155,commdev-image-keyboard-response,569,1602158,learnblock2,548.9000000059605,img/planet15_right.png,15,Community 1,NA,TRUE,j,j,NA,NA,NA,NA,6,"15,6,7,11,2,12,9,14,4,8,5,1,10,13,3"
14155,commdev-image-keyboard-response,570,1603418,learnblock2,589.1000000238419,img/planet7_right.png,7,Community 1,NA,TRUE,j,j,NA,NA,NA,NA,6,"15,6,7,11,2,12,9,14,4,8,5,1,10,13,3"
14155,commdev-image-keyboard-response,571,1604677,learnblock2,480.10000002384186,img/planet2_left.png,2,Community 1,NA,TRUE,f,f,NA,NA,NA,NA,6,"15,6,7,11,2,12,9,14,4,8,5,1,10,13,3"
14155,commdev-image-keyboard-response,572,1605931,learnblock2,861,img/planet7_left.png,7,Community 1,NA,TRUE,f,f,NA,NA,NA,NA,6,"15,6,7,11,2,12,9,14,4,8,5,1,10,13,3"
14155,commdev-image-keyboard-response,573,1607187,learnblock2,594.3000000119209,img/planet6_left.png,6,Community 1,NA,TRUE,f,f,NA,NA,NA,NA,6,"15,6,7,11,2,12,9,14,4,8,5,1,10,13,3"
14155,commdev-image-keyboard-response,574,1608443,learnblock2,613.8000000119209,img/planet7_left.png,7,Community 1,NA,TRUE,f,f,NA,NA,NA,NA,6,"15,6,7,11,2,12,9,14,4,8,5,1,10,13,3"
14155,commdev-image-keyboard-response,575,1609703,learnblock2,533,img/planet2_right.png,2,Community 1,NA,TRUE,j,j,NA,NA,NA,NA,6,"15,6,7,11,2,12,9,14,4,8,5,1,10,13,3"
14155,commdev-image-keyboard-response,576,1610965,learnblock2,623.9000000059605,img/planet5_left.png,5,Community 3,NA,TRUE,f,f,NA,NA,NA,NA,6,"15,6,7,11,2,12,9,14,4,8,5,1,10,13,3"
14155,commdev-image-keyboard-response,577,1612218,learnblock2,620.2000000178814,img/planet10_right.png,10,Community 3,NA,TRUE,j,j,NA,NA,NA,NA,6,"15,6,7,11,2,12,9,14,4,8,5,1,10,13,3"
14155,commdev-image-keyboard-response,578,1613485,learnblock2,632.2000000178814,img/planet13_left.png,13,Community 3,NA,FALSE,j,f,NA,NA,NA,NA,6,"15,6,7,11,2,12,9,14,4,8,5,1,10,13,3"
14155,commdev-image-keyboard-response,579,1614744,learnblock2,604.4000000059605,img/planet1_left.png,1,Community 3,NA,TRUE,f,f,NA,NA,NA,NA,6,"15,6,7,11,2,12,9,14,4,8,5,1,10,13,3"
14155,commdev-image-keyboard-response,580,1616002,learnblock2,620.5999999940395,img/planet3_left.png,3,Community 3,NA,TRUE,f,f,NA,NA,NA,NA,6,"15,6,7,11,2,12,9,14,4,8,5,1,10,13,3"
14155,commdev-image-keyboard-response,581,1617264,learnblock2,520.1999999880791,img/planet1_left.png,1,Community 3,NA,TRUE,f,f,NA,NA,NA,NA,6,"15,6,7,11,2,12,9,14,4,8,5,1,10,13,3"
14155,commdev-image-keyboard-response,582,1618519,learnblock2,602.4000000059605,img/planet14_right.png,14,Community 2,NA,TRUE,j,j,NA,NA,NA,NA,6,"15,6,7,11,2,12,9,14,4,8,5,1,10,13,3"
14155,commdev-image-keyboard-response,583,1619771,learnblock2,522.5,img/planet1_right.png,1,Community 3,NA,TRUE,j,j,NA,NA,NA,NA,6,"15,6,7,11,2,12,9,14,4,8,5,1,10,13,3"
14155,commdev-image-keyboard-response,584,1621025,learnblock2,731.8000000119209,img/planet3_right.png,3,Community 3,NA,TRUE,j,j,NA,NA,NA,NA,6,"15,6,7,11,2,12,9,14,4,8,5,1,10,13,3"
14155,commdev-image-keyboard-response,585,1622277,learnblock2,594.0999999940395,img/planet1_right.png,1,Community 3,NA,TRUE,j,j,NA,NA,NA,NA,6,"15,6,7,11,2,12,9,14,4,8,5,1,10,13,3"
14155,commdev-image-keyboard-response,586,1623533,learnblock2,538.9000000059605,img/planet13_left.png,13,Community 3,NA,TRUE,f,f,NA,NA,NA,NA,6,"15,6,7,11,2,12,9,14,4,8,5,1,10,13,3"
14155,commdev-image-keyboard-response,587,1624790,learnblock2,731.6999999880791,img/planet5_left.png,5,Community 3,NA,TRUE,f,f,NA,NA,NA,NA,6,"15,6,7,11,2,12,9,14,4,8,5,1,10,13,3"
14155,commdev-image-keyboard-response,588,1626044,learnblock2,623.6999999880791,img/planet2_left.png,2,Community 1,NA,TRUE,f,f,NA,NA,NA,NA,6,"15,6,7,11,2,12,9,14,4,8,5,1,10,13,3"
14155,commdev-image-keyboard-response,589,1627309,learnblock2,594.4000000059605,img/planet6_right.png,6,Community 1,NA,TRUE,j,j,NA,NA,NA,NA,6,"15,6,7,11,2,12,9,14,4,8,5,1,10,13,3"
14155,commdev-image-keyboard-response,590,1628569,learnblock2,696.5999999940395,img/planet15_right.png,15,Community 1,NA,TRUE,j,j,NA,NA,NA,NA,6,"15,6,7,11,2,12,9,14,4,8,5,1,10,13,3"
14155,commdev-image-keyboard-response,591,1629827,learnblock2,710.1999999880791,img/planet7_right.png,7,Community 1,NA,TRUE,j,j,NA,NA,NA,NA,6,"15,6,7,11,2,12,9,14,4,8,5,1,10,13,3"
14155,commdev-image-keyboard-response,592,1631084,learnblock2,541.5,img/planet6_right.png,6,Community 1,NA,TRUE,j,j,NA,NA,NA,NA,6,"15,6,7,11,2,12,9,14,4,8,5,1,10,13,3"
14155,commdev-image-keyboard-response,593,1632338,learnblock2,525.3000000119209,img/planet2_right.png,2,Community 1,NA,TRUE,j,j,NA,NA,NA,NA,6,"15,6,7,11,2,12,9,14,4,8,5,1,10,13,3"
14155,commdev-image-keyboard-response,594,1633590,learnblock2,733.6000000238419,img/planet7_right.png,7,Community 1,NA,TRUE,j,j,NA,NA,NA,NA,6,"15,6,7,11,2,12,9,14,4,8,5,1,10,13,3"
14155,commdev-image-keyboard-response,595,1634850,learnblock2,641.4000000059605,img/planet15_right.png,15,Community 1,NA,TRUE,j,j,NA,NA,NA,NA,6,"15,6,7,11,2,12,9,14,4,8,5,1,10,13,3"
14155,commdev-image-keyboard-response,596,1636102,learnblock2,677.8000000119209,img/planet2_right.png,2,Community 1,NA,TRUE,j,j,NA,NA,NA,NA,6,"15,6,7,11,2,12,9,14,4,8,5,1,10,13,3"
14155,commdev-image-keyboard-response,597,1637360,learnblock2,585.1000000238419,img/planet6_left.png,6,Community 1,NA,TRUE,f,f,NA,NA,NA,NA,6,"15,6,7,11,2,12,9,14,4,8,5,1,10,13,3"
14155,commdev-image-keyboard-response,598,1638616,learnblock2,654.4000000059605,img/planet7_left.png,7,Community 1,NA,TRUE,f,f,NA,NA,NA,NA,6,"15,6,7,11,2,12,9,14,4,8,5,1,10,13,3"
14155,commdev-image-keyboard-response,599,1639874,learnblock2,453.59999999403954,img/planet2_left.png,2,Community 1,NA,TRUE,f,f,NA,NA,NA,NA,6,"15,6,7,11,2,12,9,14,4,8,5,1,10,13,3"
14155,commdev-image-keyboard-response,600,1641127,learnblock2,476.40000000596046,img/planet15_left.png,15,Community 1,NA,TRUE,f,f,NA,NA,NA,NA,6,"15,6,7,11,2,12,9,14,4,8,5,1,10,13,3"
14155,commdev-image-keyboard-response,601,1642385,learnblock2,588.8999999761581,img/planet6_left.png,6,Community 1,NA,TRUE,f,f,NA,NA,NA,NA,6,"15,6,7,11,2,12,9,14,4,8,5,1,10,13,3"
14155,commdev-image-keyboard-response,602,1643639,learnblock2,530.6000000238419,img/planet2_left.png,2,Community 1,NA,TRUE,f,f,NA,NA,NA,NA,6,"15,6,7,11,2,12,9,14,4,8,5,1,10,13,3"
14155,commdev-image-keyboard-response,603,1644894,learnblock2,479.5,img/planet6_left.png,6,Community 1,NA,TRUE,f,f,NA,NA,NA,NA,6,"15,6,7,11,2,12,9,14,4,8,5,1,10,13,3"
14155,commdev-image-keyboard-response,604,1646152,learnblock2,527.5,img/planet15_left.png,15,Community 1,NA,TRUE,f,f,NA,NA,NA,NA,6,"15,6,7,11,2,12,9,14,4,8,5,1,10,13,3"
14155,commdev-image-keyboard-response,605,1647412,learnblock2,691.2999999821186,img/planet2_right.png,2,Community 1,NA,TRUE,j,j,NA,NA,NA,NA,6,"15,6,7,11,2,12,9,14,4,8,5,1,10,13,3"
14155,commdev-image-keyboard-response,606,1648665,learnblock2,528.3000000119209,img/planet5_left.png,5,Community 3,NA,TRUE,f,f,NA,NA,NA,NA,6,"15,6,7,11,2,12,9,14,4,8,5,1,10,13,3"
14155,commdev-image-keyboard-response,607,1649920,learnblock2,767.6999999880791,img/planet10_right.png,10,Community 3,NA,TRUE,j,j,NA,NA,NA,NA,6,"15,6,7,11,2,12,9,14,4,8,5,1,10,13,3"
14155,commdev-image-keyboard-response,608,1651176,learnblock2,737.5999999940395,img/planet1_left.png,1,Community 3,NA,TRUE,f,f,NA,NA,NA,NA,6,"15,6,7,11,2,12,9,14,4,8,5,1,10,13,3"
14155,commdev-image-keyboard-response,609,1652443,learnblock2,600.2000000178814,img/planet3_right.png,3,Community 3,NA,TRUE,j,j,NA,NA,NA,NA,6,"15,6,7,11,2,12,9,14,4,8,5,1,10,13,3"
14155,commdev-image-keyboard-response,610,1653698,learnblock2,556.5999999940395,img/planet1_right.png,1,Community 3,NA,TRUE,j,j,NA,NA,NA,NA,6,"15,6,7,11,2,12,9,14,4,8,5,1,10,13,3"
14155,commdev-image-keyboard-response,611,1654954,learnblock2,604.8999999761581,img/planet13_left.png,13,Community 3,NA,TRUE,f,f,NA,NA,NA,NA,6,"15,6,7,11,2,12,9,14,4,8,5,1,10,13,3"
14155,commdev-image-keyboard-response,612,1656210,learnblock2,531,img/planet3_right.png,3,Community 3,NA,TRUE,j,j,NA,NA,NA,NA,6,"15,6,7,11,2,12,9,14,4,8,5,1,10,13,3"
14155,commdev-image-keyboard-response,613,1657468,learnblock2,410.90000000596046,img/planet10_right.png,10,Community 3,NA,TRUE,j,j,NA,NA,NA,NA,6,"15,6,7,11,2,12,9,14,4,8,5,1,10,13,3"
14155,commdev-image-keyboard-response,614,1658724,learnblock2,694.5,img/planet5_right.png,5,Community 3,NA,TRUE,j,j,NA,NA,NA,NA,6,"15,6,7,11,2,12,9,14,4,8,5,1,10,13,3"
14155,commdev-image-keyboard-response,615,1659977,learnblock2,694.5,img/planet2_right.png,2,Community 1,NA,TRUE,j,j,NA,NA,NA,NA,6,"15,6,7,11,2,12,9,14,4,8,5,1,10,13,3"
14155,commdev-image-keyboard-response,616,1661235,learnblock2,600.9000000059605,img/planet6_right.png,6,Community 1,NA,TRUE,j,j,NA,NA,NA,NA,6,"15,6,7,11,2,12,9,14,4,8,5,1,10,13,3"
14155,commdev-image-keyboard-response,617,1662493,learnblock2,567.9000000059605,img/planet15_left.png,15,Community 1,NA,TRUE,f,f,NA,NA,NA,NA,6,"15,6,7,11,2,12,9,14,4,8,5,1,10,13,3"
14155,commdev-image-keyboard-response,618,1663752,learnblock2,616.2999999821186,img/planet11_left.png,11,Community 1,NA,TRUE,f,f,NA,NA,NA,NA,6,"15,6,7,11,2,12,9,14,4,8,5,1,10,13,3"
14155,commdev-image-keyboard-response,619,1665010,learnblock2,614.5,img/planet15_left.png,15,Community 1,NA,TRUE,f,f,NA,NA,NA,NA,6,"15,6,7,11,2,12,9,14,4,8,5,1,10,13,3"
14155,commdev-image-keyboard-response,620,1666268,learnblock2,826.5,img/planet11_left.png,11,Community 1,NA,TRUE,f,f,NA,NA,NA,NA,6,"15,6,7,11,2,12,9,14,4,8,5,1,10,13,3"
14155,commdev-image-keyboard-response,621,1667527,learnblock2,645.9000000059605,img/planet12_right.png,12,Community 2,NA,TRUE,j,j,NA,NA,NA,NA,6,"15,6,7,11,2,12,9,14,4,8,5,1,10,13,3"
14155,commdev-image-keyboard-response,622,1668783,learnblock2,785.5999999940395,img/planet11_right.png,11,Community 1,NA,TRUE,j,j,NA,NA,NA,NA,6,"15,6,7,11,2,12,9,14,4,8,5,1,10,13,3"
14155,commdev-image-keyboard-response,623,1670035,learnblock2,505.40000000596046,img/planet7_left.png,7,Community 1,NA,TRUE,f,f,NA,NA,NA,NA,6,"15,6,7,11,2,12,9,14,4,8,5,1,10,13,3"
14155,commdev-image-keyboard-response,624,1671290,learnblock2,753.5999999940395,img/planet2_left.png,2,Community 1,NA,TRUE,f,f,NA,NA,NA,NA,6,"15,6,7,11,2,12,9,14,4,8,5,1,10,13,3"
14155,commdev-image-keyboard-response,625,1672551,learnblock2,1009,img/planet15_right.png,15,Community 1,NA,TRUE,j,j,NA,NA,NA,NA,6,"15,6,7,11,2,12,9,14,4,8,5,1,10,13,3"
14155,commdev-image-keyboard-response,626,1673810,learnblock2,747,img/planet6_right.png,6,Community 1,NA,TRUE,j,j,NA,NA,NA,NA,6,"15,6,7,11,2,12,9,14,4,8,5,1,10,13,3"
14155,commdev-image-keyboard-response,627,1675074,learnblock2,1214.5,img/planet2_left.png,2,Community 1,NA,TRUE,f,f,NA,NA,NA,NA,6,"15,6,7,11,2,12,9,14,4,8,5,1,10,13,3"
14155,commdev-image-keyboard-response,628,1676331,learnblock2,706.1999999880791,img/planet6_left.png,6,Community 1,NA,TRUE,f,f,NA,NA,NA,NA,6,"15,6,7,11,2,12,9,14,4,8,5,1,10,13,3"
14155,commdev-image-keyboard-response,629,1677585,learnblock2,542.4000000059605,img/planet15_left.png,15,Community 1,NA,TRUE,f,f,NA,NA,NA,NA,6,"15,6,7,11,2,12,9,14,4,8,5,1,10,13,3"
14155,commdev-image-keyboard-response,630,1678842,learnblock2,600.4000000059605,img/planet11_left.png,11,Community 1,NA,TRUE,f,f,NA,NA,NA,NA,6,"15,6,7,11,2,12,9,14,4,8,5,1,10,13,3"
14155,commdev-image-keyboard-response,631,1680100,learnblock2,537,img/planet6_left.png,6,Community 1,NA,TRUE,f,f,NA,NA,NA,NA,6,"15,6,7,11,2,12,9,14,4,8,5,1,10,13,3"
14155,commdev-image-keyboard-response,632,1681352,learnblock2,489,img/planet2_right.png,2,Community 1,NA,TRUE,j,j,NA,NA,NA,NA,6,"15,6,7,11,2,12,9,14,4,8,5,1,10,13,3"
14155,commdev-image-keyboard-response,633,1682610,learnblock2,488.2000000178814,img/planet5_right.png,5,Community 3,NA,TRUE,j,j,NA,NA,NA,NA,6,"15,6,7,11,2,12,9,14,4,8,5,1,10,13,3"
14155,commdev-image-keyboard-response,634,1683867,learnblock2,554.2999999821186,img/planet13_right.png,13,Community 3,NA,TRUE,j,j,NA,NA,NA,NA,6,"15,6,7,11,2,12,9,14,4,8,5,1,10,13,3"
14155,commdev-image-keyboard-response,635,1685122,learnblock2,468.09999999403954,img/planet3_right.png,3,Community 3,NA,TRUE,j,j,NA,NA,NA,NA,6,"15,6,7,11,2,12,9,14,4,8,5,1,10,13,3"
14155,commdev-image-keyboard-response,636,1686377,learnblock2,745.0999999940395,img/planet1_right.png,1,Community 3,NA,TRUE,j,j,NA,NA,NA,NA,6,"15,6,7,11,2,12,9,14,4,8,5,1,10,13,3"
14155,commdev-image-keyboard-response,637,1687639,learnblock2,567.3000000119209,img/planet3_left.png,3,Community 3,NA,TRUE,f,f,NA,NA,NA,NA,6,"15,6,7,11,2,12,9,14,4,8,5,1,10,13,3"
14155,commdev-image-keyboard-response,638,1688895,learnblock2,438,img/planet13_left.png,13,Community 3,NA,TRUE,f,f,NA,NA,NA,NA,6,"15,6,7,11,2,12,9,14,4,8,5,1,10,13,3"
14155,commdev-image-keyboard-response,639,1690153,learnblock2,483.80000001192093,img/planet1_right.png,1,Community 3,NA,TRUE,j,j,NA,NA,NA,NA,6,"15,6,7,11,2,12,9,14,4,8,5,1,10,13,3"
14155,commdev-image-keyboard-response,640,1691415,learnblock2,753,img/planet10_right.png,10,Community 3,NA,TRUE,j,j,NA,NA,NA,NA,6,"15,6,7,11,2,12,9,14,4,8,5,1,10,13,3"
14155,commdev-image-keyboard-response,641,1692671,learnblock2,430.69999998807907,img/planet13_left.png,13,Community 3,NA,TRUE,f,f,NA,NA,NA,NA,6,"15,6,7,11,2,12,9,14,4,8,5,1,10,13,3"
14155,commdev-image-keyboard-response,642,1693925,learnblock2,507.80000001192093,img/planet3_left.png,3,Community 3,NA,TRUE,f,f,NA,NA,NA,NA,6,"15,6,7,11,2,12,9,14,4,8,5,1,10,13,3"
14155,commdev-image-keyboard-response,643,1695185,learnblock2,499.5,img/planet10_right.png,10,Community 3,NA,TRUE,j,j,NA,NA,NA,NA,6,"15,6,7,11,2,12,9,14,4,8,5,1,10,13,3"
14155,commdev-image-keyboard-response,644,1696444,learnblock2,485.39999997615814,img/planet13_right.png,13,Community 3,NA,TRUE,j,j,NA,NA,NA,NA,6,"15,6,7,11,2,12,9,14,4,8,5,1,10,13,3"
14155,commdev-image-keyboard-response,645,1697702,learnblock2,501.5,img/planet5_left.png,5,Community 3,NA,TRUE,f,f,NA,NA,NA,NA,6,"15,6,7,11,2,12,9,14,4,8,5,1,10,13,3"
14155,commdev-image-keyboard-response,646,1698958,learnblock2,527.1999999880791,img/planet13_left.png,13,Community 3,NA,TRUE,f,f,NA,NA,NA,NA,6,"15,6,7,11,2,12,9,14,4,8,5,1,10,13,3"
14155,commdev-image-keyboard-response,647,1700217,learnblock2,589.1000000238419,img/planet1_left.png,1,Community 3,NA,TRUE,f,f,NA,NA,NA,NA,6,"15,6,7,11,2,12,9,14,4,8,5,1,10,13,3"
14155,commdev-image-keyboard-response,648,1701476,learnblock2,580.6000000238419,img/planet14_right.png,14,Community 2,NA,TRUE,j,j,NA,NA,NA,NA,6,"15,6,7,11,2,12,9,14,4,8,5,1,10,13,3"
14155,commdev-image-keyboard-response,649,1702733,learnblock2,509.10000002384186,img/planet8_left.png,8,Community 2,NA,TRUE,f,f,NA,NA,NA,NA,6,"15,6,7,11,2,12,9,14,4,8,5,1,10,13,3"
14155,commdev-image-keyboard-response,650,1703991,learnblock2,597.3000000119209,img/planet12_left.png,12,Community 2,NA,TRUE,f,f,NA,NA,NA,NA,6,"15,6,7,11,2,12,9,14,4,8,5,1,10,13,3"
14155,commdev-image-keyboard-response,651,1705252,learnblock2,456.59999999403954,img/planet9_left.png,9,Community 2,NA,TRUE,f,f,NA,NA,NA,NA,6,"15,6,7,11,2,12,9,14,4,8,5,1,10,13,3"
14155,commdev-image-keyboard-response,652,1706510,learnblock2,589.6000000238419,img/planet8_left.png,8,Community 2,NA,TRUE,f,f,NA,NA,NA,NA,6,"15,6,7,11,2,12,9,14,4,8,5,1,10,13,3"
14155,commdev-image-keyboard-response,653,1707769,learnblock2,666.9000000059605,img/planet12_right.png,12,Community 2,NA,TRUE,j,j,NA,NA,NA,NA,6,"15,6,7,11,2,12,9,14,4,8,5,1,10,13,3"
14155,commdev-image-keyboard-response,654,1709025,learnblock2,547.3000000119209,img/planet9_right.png,9,Community 2,NA,TRUE,j,j,NA,NA,NA,NA,6,"15,6,7,11,2,12,9,14,4,8,5,1,10,13,3"
14155,commdev-image-keyboard-response,655,1710291,learnblock2,639.5,img/planet4_left.png,4,Community 2,NA,TRUE,f,f,NA,NA,NA,NA,6,"15,6,7,11,2,12,9,14,4,8,5,1,10,13,3"
14155,commdev-image-keyboard-response,656,1711551,learnblock2,584.7000000178814,img/planet12_right.png,12,Community 2,NA,TRUE,j,j,NA,NA,NA,NA,6,"15,6,7,11,2,12,9,14,4,8,5,1,10,13,3"
14155,commdev-image-keyboard-response,657,1712817,learnblock2,556.5,img/planet8_right.png,8,Community 2,NA,TRUE,j,j,NA,NA,NA,NA,6,"15,6,7,11,2,12,9,14,4,8,5,1,10,13,3"
14155,commdev-image-keyboard-response,658,1714074,learnblock2,501.5,img/planet14_right.png,14,Community 2,NA,TRUE,j,j,NA,NA,NA,NA,6,"15,6,7,11,2,12,9,14,4,8,5,1,10,13,3"
