subject_id,trial_type,trial_index,time_elapsed,block,rt,stimulus,planet,community,response,correct,key_press,learning_correct_response,parse,init_locations,final_locations,browser_interactions,num_comp,planet_map
14395,commdev-instructions,7,55979,NA,2036,"<p>In this game, you will be shown a 3x3 grid of patterns.</p> <p>The last one in the bottom right-hand corner, <strong>will be missing:</strong></p> <div style='width: 700px;'><div style='float: top;'><img style='width: 200px;' src='practice/p1_M1.png'></img><p class='small'>You need to select<strong> which of the four possible patterns </strong>along the bottom<strong> fits into the gap:</strong></p></div><div style='float: top;'><img style='width: 300px;' src='practice/p1_T1.png'></img></div><br>",NA,NA,NA,NA,NA,NA,NA,NA,NA,7,6,"3,8,7,2,12,6,11,13,1,10,15,9,4,5,14"
14395,commdev-instructions,8,75721,NA,1541,"<p>Try to be as fast and as accurate as you can be.</p> <p>If you cannot solve the puzzle then you should guess - you will not be penalised for an incorrect answer.</p> <p>The task contains a shuffled mix of easy, medium and hard puzzles.</p> <p>You will have <strong>30 seconds</strong> to complete each puzzle.</p><br>",NA,NA,NA,NA,NA,NA,NA,NA,NA,7,6,"3,8,7,2,12,6,11,13,1,10,15,9,4,5,14"
14395,commdev-instructions,15,104202,NA,1251.0000000000146,<p><strong>Success!</strong></p> <p>You seem to be getting the hang of this...</p> <p>Let's move on to the real trials.</p><br>,NA,NA,NA,NA,NA,NA,NA,NA,NA,7,6,"3,8,7,2,12,6,11,13,1,10,15,9,4,5,14"
14395,commdev-instructions,178,395569,NA,2792,"<p>In this game, you are a scientist on board a space shuttle. </p><p> On each mission, you will visit planets all across the universe.</p><img src=""img/controlroom.jpg"" width=300vw>",NA,NA,NA,NA,NA,NA,NA,NA,NA,7,6,"3,8,7,2,12,6,11,13,1,10,15,9,4,5,14"
14395,commdev-instructions,179,399604,NA,1963,"<p>Here are a few planets you might see:</p><img src=""img/practice1.png"" width=200vw><img src=""img/practice2.png"" width=200vw><img src=""img/practice3.png"" width=200vw>",NA,NA,NA,NA,NA,NA,NA,NA,NA,7,6,"3,8,7,2,12,6,11,13,1,10,15,9,4,5,14"
14395,commdev-instructions,180,408489,NA,1484.9999999999418,"<p>Your job as a scientist is to record which direction the winds are moving on each planet.</p><p>There are two types of wind directions:</p><img src=""img/practice1_left.png"" width=200vw><img src=""img/practice1_right.png"" width=200vw>",NA,NA,NA,NA,NA,NA,NA,NA,NA,7,6,"3,8,7,2,12,6,11,13,1,10,15,9,4,5,14"
14395,commdev-instructions,181,414404,NA,1035,"<p>If the winds are moving this way, press the letter <strong>F</strong> on the keyboard as fast as you can.</p><img src=""img/leftwind.png"" width=250vw>",NA,NA,NA,NA,NA,NA,NA,NA,NA,7,6,"3,8,7,2,12,6,11,13,1,10,15,9,4,5,14"
14395,commdev-instructions,182,439847,NA,20947,"<p>If the winds are moving this way, press the letter <strong>J</strong> on the keyboard as fast as you can.</p><img src=""img/rightwind.png"" width=350vw>",NA,NA,NA,NA,NA,NA,NA,NA,NA,7,6,"3,8,7,2,12,6,11,13,1,10,15,9,4,5,14"
14395,commdev-instructions,183,447646,NA,3375.999999999942,<p>You will have 1 second to respond. Try to respond before the time runs out!,NA,NA,NA,NA,NA,NA,NA,NA,NA,7,6,"3,8,7,2,12,6,11,13,1,10,15,9,4,5,14"
14395,commdev-instructions,184,454357,NA,1280,<p>The planets you will visit will look different from each other.</p><p>You should respond <strong>only</strong> based on wind direction.,NA,NA,NA,NA,NA,NA,NA,NA,NA,7,6,"3,8,7,2,12,6,11,13,1,10,15,9,4,5,14"
14395,commdev-instructions,185,461769,NA,2246,"<p> Ready to start the practice round? </p><p> Remember, press <strong>F</strong> or <strong>J</strong> depending on the wind direction.<br><img src=""img/categorize_planet_example.png""",NA,NA,NA,NA,NA,NA,NA,NA,NA,7,6,"3,8,7,2,12,6,11,13,1,10,15,9,4,5,14"
14395,commdev-instructions,197,533403,NA,3350,"<p>Great, now try a short practice mission. </p><p> This time, you will have 1 second to respond and you won't know whether you pressed the right or wrong key for each planet.</p>",NA,NA,NA,NA,NA,NA,NA,NA,NA,7,6,"3,8,7,2,12,6,11,13,1,10,15,9,4,5,14"
14395,commdev-image-keyboard-response,198,534756,practice,990,img/practice4_left.png,NA,Number not found in mappings,NA,FALSE,j,f,NA,NA,NA,7,6,"3,8,7,2,12,6,11,13,1,10,15,9,4,5,14"
14395,commdev-image-keyboard-response,199,536008,practice,839,img/practice2_right.png,NA,Number not found in mappings,NA,FALSE,f,j,NA,NA,NA,7,6,"3,8,7,2,12,6,11,13,1,10,15,9,4,5,14"
14395,commdev-image-keyboard-response,200,537259,practice,660,img/practice4_right.png,NA,Number not found in mappings,NA,TRUE,j,j,NA,NA,NA,7,6,"3,8,7,2,12,6,11,13,1,10,15,9,4,5,14"
14395,commdev-image-keyboard-response,201,538513,practice,73,img/practice3_left.png,NA,Number not found in mappings,NA,FALSE,j,f,NA,NA,NA,7,6,"3,8,7,2,12,6,11,13,1,10,15,9,4,5,14"
14395,commdev-image-keyboard-response,202,539765,practice,118,img/practice2_left.png,NA,Number not found in mappings,NA,FALSE,j,f,NA,NA,NA,7,6,"3,8,7,2,12,6,11,13,1,10,15,9,4,5,14"
14395,commdev-image-keyboard-response,203,541018,practice,1128,img/practice4_right.png,NA,Number not found in mappings,NA,FALSE,f,j,NA,NA,NA,7,6,"3,8,7,2,12,6,11,13,1,10,15,9,4,5,14"
14395,commdev-image-keyboard-response,204,542269,practice,816,img/practice2_left.png,NA,Number not found in mappings,NA,FALSE,j,f,NA,NA,NA,7,6,"3,8,7,2,12,6,11,13,1,10,15,9,4,5,14"
14395,commdev-image-keyboard-response,205,543520,practice,null,img/practice1_right.png,NA,Number not found in mappings,NA,FALSE,null,j,NA,NA,NA,7,6,"3,8,7,2,12,6,11,13,1,10,15,9,4,5,14"
14395,commdev-instructions,206,564769,NA,11696,"<p>Great job with the practice round.</p><p>During real missions, you won't know whether you pressed the right or wrong key for each planet.</p><p>But between missions, we will tell you how you did overall.</p>",NA,NA,NA,NA,NA,NA,NA,NA,NA,7,6,"3,8,7,2,12,6,11,13,1,10,15,9,4,5,14"
14395,commdev-instructions,207,584284,NA,NA,NA,NA,NA,NA,NA,NA,NA,NA,NA,NA,7,6,"3,8,7,2,12,6,11,13,1,10,15,9,4,5,14"
14395,commdev-instructions,216,683613,NA,9030.999999999884,"<p> Nice work! It is now time to start the real game.<p></p>You will go on two missions to record wind directions of different planets.<p></p>Each one will take about 5 minutes. You will get to take a break between missions.<p><p> Remember, press <strong>F</strong> or <strong>J</strong> depending on the wind direction. Good luck!<br><img src=""img/categorize_planet_example.png""",NA,NA,NA,NA,NA,NA,NA,NA,NA,7,6,"3,8,7,2,12,6,11,13,1,10,15,9,4,5,14"
14395,commdev-image-keyboard-response,218,687959,learnblock1,null,img/planet2_right.png,2,Community 1,NA,FALSE,null,j,NA,NA,NA,7,6,"3,8,7,2,12,6,11,13,1,10,15,9,4,5,14"
14395,commdev-image-keyboard-response,219,689210,learnblock1,140.00000000011642,img/planet8_left.png,8,Community 1,NA,FALSE,j,f,NA,NA,NA,7,6,"3,8,7,2,12,6,11,13,1,10,15,9,4,5,14"
14395,commdev-image-keyboard-response,220,690462,learnblock1,343,img/planet2_right.png,2,Community 1,NA,TRUE,j,j,NA,NA,NA,7,6,"3,8,7,2,12,6,11,13,1,10,15,9,4,5,14"
14395,commdev-image-keyboard-response,221,691714,learnblock1,314,img/planet6_left.png,6,Community 2,NA,FALSE,j,f,NA,NA,NA,7,6,"3,8,7,2,12,6,11,13,1,10,15,9,4,5,14"
14395,commdev-image-keyboard-response,222,692966,learnblock1,408,img/planet10_left.png,10,Community 2,NA,TRUE,f,f,NA,NA,NA,7,6,"3,8,7,2,12,6,11,13,1,10,15,9,4,5,14"
14395,commdev-image-keyboard-response,223,694217,learnblock1,246,img/planet6_left.png,6,Community 2,NA,FALSE,j,f,NA,NA,NA,7,6,"3,8,7,2,12,6,11,13,1,10,15,9,4,5,14"
14395,commdev-image-keyboard-response,224,695468,learnblock1,75,img/planet10_right.png,10,Community 2,NA,FALSE,f,j,NA,NA,NA,7,6,"3,8,7,2,12,6,11,13,1,10,15,9,4,5,14"
14395,commdev-image-keyboard-response,225,696720,learnblock1,12,img/planet1_right.png,1,Community 2,NA,FALSE,f,j,NA,NA,NA,7,6,"3,8,7,2,12,6,11,13,1,10,15,9,4,5,14"
14395,commdev-image-keyboard-response,226,697972,learnblock1,502,img/planet10_left.png,10,Community 2,NA,TRUE,f,f,NA,NA,NA,7,6,"3,8,7,2,12,6,11,13,1,10,15,9,4,5,14"
14395,commdev-image-keyboard-response,227,699224,learnblock1,null,img/planet6_left.png,6,Community 2,NA,FALSE,null,f,NA,NA,NA,7,6,"3,8,7,2,12,6,11,13,1,10,15,9,4,5,14"
14395,commdev-image-keyboard-response,228,700474,learnblock1,164,img/planet10_right.png,10,Community 2,NA,FALSE,f,j,NA,NA,NA,7,6,"3,8,7,2,12,6,11,13,1,10,15,9,4,5,14"
14395,commdev-image-keyboard-response,229,701725,learnblock1,27.999999999883585,img/planet11_left.png,11,Community 2,NA,TRUE,f,f,NA,NA,NA,7,6,"3,8,7,2,12,6,11,13,1,10,15,9,4,5,14"
14395,commdev-image-keyboard-response,230,702979,learnblock1,45.000000000116415,img/planet13_right.png,13,Community 2,NA,TRUE,j,j,NA,NA,NA,7,6,"3,8,7,2,12,6,11,13,1,10,15,9,4,5,14"
14395,commdev-image-keyboard-response,231,704232,learnblock1,19.999999999883585,img/planet1_left.png,1,Community 2,NA,FALSE,j,f,NA,NA,NA,7,6,"3,8,7,2,12,6,11,13,1,10,15,9,4,5,14"
14395,commdev-image-keyboard-response,232,705484,learnblock1,824.0000000001164,img/planet10_left.png,10,Community 2,NA,FALSE,j,f,NA,NA,NA,7,6,"3,8,7,2,12,6,11,13,1,10,15,9,4,5,14"
14395,commdev-image-keyboard-response,233,706735,learnblock1,763,img/planet11_left.png,11,Community 2,NA,FALSE,j,f,NA,NA,NA,7,6,"3,8,7,2,12,6,11,13,1,10,15,9,4,5,14"
14395,commdev-image-keyboard-response,234,707987,learnblock1,638.0000000001164,img/planet1_left.png,1,Community 2,NA,FALSE,j,f,NA,NA,NA,7,6,"3,8,7,2,12,6,11,13,1,10,15,9,4,5,14"
14395,commdev-image-keyboard-response,235,709239,learnblock1,585,img/planet13_right.png,13,Community 2,NA,TRUE,j,j,NA,NA,NA,7,6,"3,8,7,2,12,6,11,13,1,10,15,9,4,5,14"
14395,commdev-image-keyboard-response,236,710491,learnblock1,908,img/planet11_left.png,11,Community 2,NA,TRUE,f,f,NA,NA,NA,7,6,"3,8,7,2,12,6,11,13,1,10,15,9,4,5,14"
14395,commdev-image-keyboard-response,237,711741,learnblock1,741,img/planet6_left.png,6,Community 2,NA,TRUE,f,f,NA,NA,NA,7,6,"3,8,7,2,12,6,11,13,1,10,15,9,4,5,14"
14395,commdev-image-keyboard-response,238,712992,learnblock1,670,img/planet11_left.png,11,Community 2,NA,TRUE,f,f,NA,NA,NA,7,6,"3,8,7,2,12,6,11,13,1,10,15,9,4,5,14"
14395,commdev-image-keyboard-response,239,714243,learnblock1,493,img/planet6_left.png,6,Community 2,NA,TRUE,f,f,NA,NA,NA,7,6,"3,8,7,2,12,6,11,13,1,10,15,9,4,5,14"
14395,commdev-image-keyboard-response,240,715495,learnblock1,69,img/planet11_right.png,11,Community 2,NA,FALSE,f,j,NA,NA,NA,7,6,"3,8,7,2,12,6,11,13,1,10,15,9,4,5,14"
14395,commdev-image-keyboard-response,241,716748,learnblock1,372,img/planet6_right.png,6,Community 2,NA,FALSE,f,j,NA,NA,NA,7,6,"3,8,7,2,12,6,11,13,1,10,15,9,4,5,14"
14395,commdev-image-keyboard-response,242,717999,learnblock1,817.9999999998836,img/planet2_right.png,2,Community 1,NA,TRUE,j,j,NA,NA,NA,7,6,"3,8,7,2,12,6,11,13,1,10,15,9,4,5,14"
14395,commdev-image-keyboard-response,243,719250,learnblock1,660,img/planet6_right.png,6,Community 2,NA,FALSE,f,j,NA,NA,NA,7,6,"3,8,7,2,12,6,11,13,1,10,15,9,4,5,14"
14395,commdev-image-keyboard-response,244,720502,learnblock1,10,img/planet11_right.png,11,Community 2,NA,FALSE,f,j,NA,NA,NA,7,6,"3,8,7,2,12,6,11,13,1,10,15,9,4,5,14"
14395,commdev-image-keyboard-response,245,721754,learnblock1,668,img/planet6_right.png,6,Community 2,NA,FALSE,f,j,NA,NA,NA,7,6,"3,8,7,2,12,6,11,13,1,10,15,9,4,5,14"
14395,commdev-image-keyboard-response,246,723005,learnblock1,709,img/planet10_right.png,10,Community 2,NA,FALSE,f,j,NA,NA,NA,7,6,"3,8,7,2,12,6,11,13,1,10,15,9,4,5,14"
14395,commdev-image-keyboard-response,247,724259,learnblock1,1058.9999999998836,img/planet1_right.png,1,Community 2,NA,FALSE,f,j,NA,NA,NA,7,6,"3,8,7,2,12,6,11,13,1,10,15,9,4,5,14"
14395,commdev-image-keyboard-response,248,725512,learnblock1,892.0000000001164,img/planet11_left.png,11,Community 2,NA,TRUE,f,f,NA,NA,NA,7,6,"3,8,7,2,12,6,11,13,1,10,15,9,4,5,14"
14395,commdev-image-keyboard-response,249,726764,learnblock1,272,img/planet6_left.png,6,Community 2,NA,FALSE,j,f,NA,NA,NA,7,6,"3,8,7,2,12,6,11,13,1,10,15,9,4,5,14"
14395,commdev-image-keyboard-response,250,728015,learnblock1,765,img/planet11_left.png,11,Community 2,NA,TRUE,f,f,NA,NA,NA,7,6,"3,8,7,2,12,6,11,13,1,10,15,9,4,5,14"
14395,commdev-image-keyboard-response,251,729266,learnblock1,865,img/planet10_right.png,10,Community 2,NA,TRUE,j,j,NA,NA,NA,7,6,"3,8,7,2,12,6,11,13,1,10,15,9,4,5,14"
14395,commdev-image-keyboard-response,252,730517,learnblock1,220,img/planet6_right.png,6,Community 2,NA,FALSE,f,j,NA,NA,NA,7,6,"3,8,7,2,12,6,11,13,1,10,15,9,4,5,14"
14395,commdev-image-keyboard-response,253,731770,learnblock1,670,img/planet2_left.png,2,Community 1,NA,FALSE,j,f,NA,NA,NA,7,6,"3,8,7,2,12,6,11,13,1,10,15,9,4,5,14"
14395,commdev-image-keyboard-response,254,733021,learnblock1,93.99999999988358,img/planet8_right.png,8,Community 1,NA,TRUE,j,j,NA,NA,NA,7,6,"3,8,7,2,12,6,11,13,1,10,15,9,4,5,14"
14395,commdev-image-keyboard-response,255,734273,learnblock1,516,img/planet3_right.png,3,Community 1,NA,TRUE,j,j,NA,NA,NA,7,6,"3,8,7,2,12,6,11,13,1,10,15,9,4,5,14"
14395,commdev-image-keyboard-response,256,735525,learnblock1,616,img/planet2_right.png,2,Community 1,NA,TRUE,j,j,NA,NA,NA,7,6,"3,8,7,2,12,6,11,13,1,10,15,9,4,5,14"
14395,commdev-image-keyboard-response,257,736777,learnblock1,79.99999999988358,img/planet7_right.png,7,Community 1,NA,TRUE,j,j,NA,NA,NA,7,6,"3,8,7,2,12,6,11,13,1,10,15,9,4,5,14"
14395,commdev-image-keyboard-response,258,738028,learnblock1,539,img/planet12_right.png,12,Community 1,NA,FALSE,f,j,NA,NA,NA,7,6,"3,8,7,2,12,6,11,13,1,10,15,9,4,5,14"
14395,commdev-image-keyboard-response,259,739279,learnblock1,784,img/planet7_left.png,7,Community 1,NA,TRUE,f,f,NA,NA,NA,7,6,"3,8,7,2,12,6,11,13,1,10,15,9,4,5,14"
14395,commdev-image-keyboard-response,260,740530,learnblock1,866,img/planet3_right.png,3,Community 1,NA,FALSE,f,j,NA,NA,NA,7,6,"3,8,7,2,12,6,11,13,1,10,15,9,4,5,14"
14395,commdev-image-keyboard-response,261,741781,learnblock1,1146,img/planet12_right.png,12,Community 1,NA,TRUE,j,j,NA,NA,NA,7,6,"3,8,7,2,12,6,11,13,1,10,15,9,4,5,14"
14395,commdev-image-keyboard-response,262,743032,learnblock1,null,img/planet15_right.png,15,Community 3,NA,FALSE,null,j,NA,NA,NA,7,6,"3,8,7,2,12,6,11,13,1,10,15,9,4,5,14"
14395,commdev-image-keyboard-response,263,744284,learnblock1,43,img/planet12_left.png,12,Community 1,NA,TRUE,f,f,NA,NA,NA,7,6,"3,8,7,2,12,6,11,13,1,10,15,9,4,5,14"
14395,commdev-image-keyboard-response,264,745536,learnblock1,155,img/planet3_left.png,3,Community 1,NA,FALSE,j,f,NA,NA,NA,7,6,"3,8,7,2,12,6,11,13,1,10,15,9,4,5,14"
14395,commdev-image-keyboard-response,265,746788,learnblock1,30,img/planet2_left.png,2,Community 1,NA,FALSE,j,f,NA,NA,NA,7,6,"3,8,7,2,12,6,11,13,1,10,15,9,4,5,14"
14395,commdev-image-keyboard-response,266,748039,learnblock1,867,img/planet7_left.png,7,Community 1,NA,FALSE,j,f,NA,NA,NA,7,6,"3,8,7,2,12,6,11,13,1,10,15,9,4,5,14"
14395,commdev-image-keyboard-response,267,749291,learnblock1,591,img/planet2_left.png,2,Community 1,NA,FALSE,j,f,NA,NA,NA,7,6,"3,8,7,2,12,6,11,13,1,10,15,9,4,5,14"
14395,commdev-image-keyboard-response,268,750542,learnblock1,1087,img/planet7_left.png,7,Community 1,NA,FALSE,j,f,NA,NA,NA,7,6,"3,8,7,2,12,6,11,13,1,10,15,9,4,5,14"
14395,commdev-image-keyboard-response,269,751794,learnblock1,569,img/planet12_left.png,12,Community 1,NA,FALSE,j,f,NA,NA,NA,7,6,"3,8,7,2,12,6,11,13,1,10,15,9,4,5,14"
14395,commdev-image-keyboard-response,270,753046,learnblock1,435.9999999998836,img/planet3_left.png,3,Community 1,NA,FALSE,j,f,NA,NA,NA,7,6,"3,8,7,2,12,6,11,13,1,10,15,9,4,5,14"
14395,commdev-image-keyboard-response,271,754298,learnblock1,115,img/planet8_right.png,8,Community 1,NA,TRUE,j,j,NA,NA,NA,7,6,"3,8,7,2,12,6,11,13,1,10,15,9,4,5,14"
14395,commdev-image-keyboard-response,272,755550,learnblock1,53,img/planet3_right.png,3,Community 1,NA,TRUE,j,j,NA,NA,NA,7,6,"3,8,7,2,12,6,11,13,1,10,15,9,4,5,14"
14395,commdev-image-keyboard-response,273,756801,learnblock1,32,img/planet12_right.png,12,Community 1,NA,TRUE,j,j,NA,NA,NA,7,6,"3,8,7,2,12,6,11,13,1,10,15,9,4,5,14"
14395,commdev-image-keyboard-response,274,758052,learnblock1,4,img/planet3_left.png,3,Community 1,NA,FALSE,j,f,NA,NA,NA,7,6,"3,8,7,2,12,6,11,13,1,10,15,9,4,5,14"
14395,commdev-image-keyboard-response,275,759303,learnblock1,226,img/planet7_right.png,7,Community 1,NA,TRUE,j,j,NA,NA,NA,7,6,"3,8,7,2,12,6,11,13,1,10,15,9,4,5,14"
14395,commdev-image-keyboard-response,276,760554,learnblock1,226,img/planet3_left.png,3,Community 1,NA,FALSE,j,f,NA,NA,NA,7,6,"3,8,7,2,12,6,11,13,1,10,15,9,4,5,14"
14395,commdev-image-keyboard-response,277,761806,learnblock1,22,img/planet2_right.png,2,Community 1,NA,TRUE,j,j,NA,NA,NA,7,6,"3,8,7,2,12,6,11,13,1,10,15,9,4,5,14"
14395,commdev-image-keyboard-response,278,763058,learnblock1,124,img/planet6_left.png,6,Community 2,NA,TRUE,f,f,NA,NA,NA,7,6,"3,8,7,2,12,6,11,13,1,10,15,9,4,5,14"
14395,commdev-image-keyboard-response,279,764309,learnblock1,155,img/planet11_left.png,11,Community 2,NA,TRUE,f,f,NA,NA,NA,7,6,"3,8,7,2,12,6,11,13,1,10,15,9,4,5,14"
14395,commdev-image-keyboard-response,280,765562,learnblock1,98,img/planet1_left.png,1,Community 2,NA,FALSE,j,f,NA,NA,NA,7,6,"3,8,7,2,12,6,11,13,1,10,15,9,4,5,14"
14395,commdev-image-keyboard-response,281,766814,learnblock1,966,img/planet10_right.png,10,Community 2,NA,FALSE,f,j,NA,NA,NA,7,6,"3,8,7,2,12,6,11,13,1,10,15,9,4,5,14"
14395,commdev-image-keyboard-response,282,768067,learnblock1,584,img/planet13_left.png,13,Community 2,NA,FALSE,j,f,NA,NA,NA,7,6,"3,8,7,2,12,6,11,13,1,10,15,9,4,5,14"
14395,commdev-image-keyboard-response,283,769319,learnblock1,79.99999999988358,img/planet11_right.png,11,Community 2,NA,TRUE,j,j,NA,NA,NA,7,6,"3,8,7,2,12,6,11,13,1,10,15,9,4,5,14"
14395,commdev-image-keyboard-response,284,770569,learnblock1,228,img/planet10_left.png,10,Community 2,NA,TRUE,f,f,NA,NA,NA,7,6,"3,8,7,2,12,6,11,13,1,10,15,9,4,5,14"
14395,commdev-image-keyboard-response,285,771820,learnblock1,690,img/planet13_right.png,13,Community 2,NA,TRUE,j,j,NA,NA,NA,7,6,"3,8,7,2,12,6,11,13,1,10,15,9,4,5,14"
14395,commdev-image-keyboard-response,286,773072,learnblock1,480,img/planet9_right.png,9,Community 3,NA,FALSE,f,j,NA,NA,NA,7,6,"3,8,7,2,12,6,11,13,1,10,15,9,4,5,14"
14395,commdev-image-keyboard-response,287,774324,learnblock1,205.99999999988358,img/planet4_left.png,4,Community 3,NA,TRUE,f,f,NA,NA,NA,7,6,"3,8,7,2,12,6,11,13,1,10,15,9,4,5,14"
14395,commdev-image-keyboard-response,288,775575,learnblock1,478,img/planet5_left.png,5,Community 3,NA,TRUE,f,f,NA,NA,NA,7,6,"3,8,7,2,12,6,11,13,1,10,15,9,4,5,14"
14395,commdev-image-keyboard-response,289,776827,learnblock1,405,img/planet15_left.png,15,Community 3,NA,TRUE,f,f,NA,NA,NA,7,6,"3,8,7,2,12,6,11,13,1,10,15,9,4,5,14"
14395,commdev-image-keyboard-response,290,778078,learnblock1,236.99999999988358,img/planet4_right.png,4,Community 3,NA,TRUE,j,j,NA,NA,NA,7,6,"3,8,7,2,12,6,11,13,1,10,15,9,4,5,14"
14395,commdev-image-keyboard-response,291,779329,learnblock1,668,img/planet9_right.png,9,Community 3,NA,TRUE,j,j,NA,NA,NA,7,6,"3,8,7,2,12,6,11,13,1,10,15,9,4,5,14"
14395,commdev-image-keyboard-response,292,780580,learnblock1,381,img/planet4_right.png,4,Community 3,NA,FALSE,f,j,NA,NA,NA,7,6,"3,8,7,2,12,6,11,13,1,10,15,9,4,5,14"
14395,commdev-image-keyboard-response,293,781831,learnblock1,317,img/planet9_left.png,9,Community 3,NA,FALSE,j,f,NA,NA,NA,7,6,"3,8,7,2,12,6,11,13,1,10,15,9,4,5,14"
14395,commdev-image-keyboard-response,294,783082,learnblock1,202,img/planet4_left.png,4,Community 3,NA,TRUE,f,f,NA,NA,NA,7,6,"3,8,7,2,12,6,11,13,1,10,15,9,4,5,14"
14395,commdev-image-keyboard-response,295,784332,learnblock1,315,img/planet14_right.png,14,Community 3,NA,TRUE,j,j,NA,NA,NA,7,6,"3,8,7,2,12,6,11,13,1,10,15,9,4,5,14"
14395,commdev-image-keyboard-response,296,785583,learnblock1,1198,img/planet5_left.png,5,Community 3,NA,TRUE,f,f,NA,NA,NA,7,6,"3,8,7,2,12,6,11,13,1,10,15,9,4,5,14"
14395,commdev-image-keyboard-response,297,786834,learnblock1,21,img/planet14_right.png,14,Community 3,NA,TRUE,j,j,NA,NA,NA,7,6,"3,8,7,2,12,6,11,13,1,10,15,9,4,5,14"
14395,commdev-image-keyboard-response,298,788085,learnblock1,631.0000000001164,img/planet9_left.png,9,Community 3,NA,TRUE,f,f,NA,NA,NA,7,6,"3,8,7,2,12,6,11,13,1,10,15,9,4,5,14"
14395,commdev-image-keyboard-response,299,789336,learnblock1,420,img/planet5_left.png,5,Community 3,NA,TRUE,f,f,NA,NA,NA,7,6,"3,8,7,2,12,6,11,13,1,10,15,9,4,5,14"
14395,commdev-image-keyboard-response,300,790587,learnblock1,75,img/planet15_left.png,15,Community 3,NA,FALSE,j,f,NA,NA,NA,7,6,"3,8,7,2,12,6,11,13,1,10,15,9,4,5,14"
14395,commdev-image-keyboard-response,301,791838,learnblock1,62,img/planet14_right.png,14,Community 3,NA,TRUE,j,j,NA,NA,NA,7,6,"3,8,7,2,12,6,11,13,1,10,15,9,4,5,14"
14395,commdev-image-keyboard-response,302,793089,learnblock1,268,img/planet5_right.png,5,Community 3,NA,TRUE,j,j,NA,NA,NA,7,6,"3,8,7,2,12,6,11,13,1,10,15,9,4,5,14"
14395,commdev-image-keyboard-response,303,794343,learnblock1,680,img/planet9_right.png,9,Community 3,NA,FALSE,f,j,NA,NA,NA,7,6,"3,8,7,2,12,6,11,13,1,10,15,9,4,5,14"
14395,commdev-image-keyboard-response,304,795595,learnblock1,107,img/planet13_right.png,13,Community 2,NA,FALSE,f,j,NA,NA,NA,7,6,"3,8,7,2,12,6,11,13,1,10,15,9,4,5,14"
14395,commdev-image-keyboard-response,305,796847,learnblock1,602.9999999998836,img/planet1_right.png,1,Community 2,NA,FALSE,f,j,NA,NA,NA,7,6,"3,8,7,2,12,6,11,13,1,10,15,9,4,5,14"
14395,commdev-image-keyboard-response,306,798099,learnblock1,1114,img/planet6_left.png,6,Community 2,NA,TRUE,f,f,NA,NA,NA,7,6,"3,8,7,2,12,6,11,13,1,10,15,9,4,5,14"
14395,commdev-image-keyboard-response,307,799352,learnblock1,957,img/planet10_left.png,10,Community 2,NA,FALSE,j,f,NA,NA,NA,7,6,"3,8,7,2,12,6,11,13,1,10,15,9,4,5,14"
14395,commdev-image-keyboard-response,308,800603,learnblock1,685,img/planet11_left.png,11,Community 2,NA,FALSE,j,f,NA,NA,NA,7,6,"3,8,7,2,12,6,11,13,1,10,15,9,4,5,14"
14395,commdev-image-keyboard-response,309,801854,learnblock1,168,img/planet13_left.png,13,Community 2,NA,FALSE,j,f,NA,NA,NA,7,6,"3,8,7,2,12,6,11,13,1,10,15,9,4,5,14"
14395,commdev-image-keyboard-response,310,803105,learnblock1,156,img/planet9_left.png,9,Community 3,NA,FALSE,j,f,NA,NA,NA,7,6,"3,8,7,2,12,6,11,13,1,10,15,9,4,5,14"
14395,commdev-image-keyboard-response,311,804356,learnblock1,462,img/planet5_left.png,5,Community 3,NA,FALSE,j,f,NA,NA,NA,7,6,"3,8,7,2,12,6,11,13,1,10,15,9,4,5,14"
14395,commdev-image-keyboard-response,312,805608,learnblock1,177,img/planet4_left.png,4,Community 3,NA,FALSE,j,f,NA,NA,NA,7,6,"3,8,7,2,12,6,11,13,1,10,15,9,4,5,14"
14395,commdev-image-keyboard-response,313,806860,learnblock1,429,img/planet5_right.png,5,Community 3,NA,TRUE,j,j,NA,NA,NA,7,6,"3,8,7,2,12,6,11,13,1,10,15,9,4,5,14"
14395,commdev-image-keyboard-response,314,808112,learnblock1,894.0000000001164,img/planet14_left.png,14,Community 3,NA,TRUE,f,f,NA,NA,NA,7,6,"3,8,7,2,12,6,11,13,1,10,15,9,4,5,14"
14395,commdev-image-keyboard-response,315,809363,learnblock1,594,img/planet9_right.png,9,Community 3,NA,TRUE,j,j,NA,NA,NA,7,6,"3,8,7,2,12,6,11,13,1,10,15,9,4,5,14"
14395,commdev-image-keyboard-response,316,810614,learnblock1,876.0000000001164,img/planet14_left.png,14,Community 3,NA,FALSE,j,f,NA,NA,NA,7,6,"3,8,7,2,12,6,11,13,1,10,15,9,4,5,14"
14395,commdev-image-keyboard-response,317,811865,learnblock1,1085.9999999998836,img/planet9_right.png,9,Community 3,NA,TRUE,j,j,NA,NA,NA,7,6,"3,8,7,2,12,6,11,13,1,10,15,9,4,5,14"
14395,commdev-image-keyboard-response,318,813117,learnblock1,1168,img/planet13_left.png,13,Community 2,NA,TRUE,f,f,NA,NA,NA,7,6,"3,8,7,2,12,6,11,13,1,10,15,9,4,5,14"
14395,commdev-image-keyboard-response,319,814369,learnblock1,714,img/planet10_right.png,10,Community 2,NA,TRUE,j,j,NA,NA,NA,7,6,"3,8,7,2,12,6,11,13,1,10,15,9,4,5,14"
14395,commdev-image-keyboard-response,320,815620,learnblock1,204.99999999988358,img/planet11_left.png,11,Community 2,NA,TRUE,f,f,NA,NA,NA,7,6,"3,8,7,2,12,6,11,13,1,10,15,9,4,5,14"
14395,commdev-image-keyboard-response,321,816871,learnblock1,195.00000000011642,img/planet1_left.png,1,Community 2,NA,FALSE,j,f,NA,NA,NA,7,6,"3,8,7,2,12,6,11,13,1,10,15,9,4,5,14"
14395,commdev-image-keyboard-response,322,818122,learnblock1,798,img/planet10_right.png,10,Community 2,NA,FALSE,f,j,NA,NA,NA,7,6,"3,8,7,2,12,6,11,13,1,10,15,9,4,5,14"
14395,commdev-image-keyboard-response,323,819373,learnblock1,702,img/planet1_right.png,1,Community 2,NA,TRUE,j,j,NA,NA,NA,7,6,"3,8,7,2,12,6,11,13,1,10,15,9,4,5,14"
14395,commdev-image-keyboard-response,324,820624,learnblock1,554.9999999998836,img/planet13_right.png,13,Community 2,NA,FALSE,f,j,NA,NA,NA,7,6,"3,8,7,2,12,6,11,13,1,10,15,9,4,5,14"
14395,commdev-image-keyboard-response,325,821876,learnblock1,668,img/planet1_right.png,1,Community 2,NA,FALSE,f,j,NA,NA,NA,7,6,"3,8,7,2,12,6,11,13,1,10,15,9,4,5,14"
14395,commdev-image-keyboard-response,326,823127,learnblock1,650,img/planet10_right.png,10,Community 2,NA,FALSE,f,j,NA,NA,NA,7,6,"3,8,7,2,12,6,11,13,1,10,15,9,4,5,14"
14395,commdev-image-keyboard-response,327,824379,learnblock1,584,img/planet13_left.png,13,Community 2,NA,TRUE,f,f,NA,NA,NA,7,6,"3,8,7,2,12,6,11,13,1,10,15,9,4,5,14"
14395,commdev-image-keyboard-response,328,825632,learnblock1,992,img/planet9_left.png,9,Community 3,NA,TRUE,f,f,NA,NA,NA,7,6,"3,8,7,2,12,6,11,13,1,10,15,9,4,5,14"
14395,commdev-image-keyboard-response,329,826884,learnblock1,490,img/planet4_right.png,4,Community 3,NA,TRUE,j,j,NA,NA,NA,7,6,"3,8,7,2,12,6,11,13,1,10,15,9,4,5,14"
14395,commdev-image-keyboard-response,330,828135,learnblock1,64,img/planet15_right.png,15,Community 3,NA,TRUE,j,j,NA,NA,NA,7,6,"3,8,7,2,12,6,11,13,1,10,15,9,4,5,14"
14395,commdev-image-keyboard-response,331,829386,learnblock1,549,img/planet5_left.png,5,Community 3,NA,TRUE,f,f,NA,NA,NA,7,6,"3,8,7,2,12,6,11,13,1,10,15,9,4,5,14"
14395,commdev-image-keyboard-response,332,830637,learnblock1,70,img/planet14_left.png,14,Community 3,NA,FALSE,j,f,NA,NA,NA,7,6,"3,8,7,2,12,6,11,13,1,10,15,9,4,5,14"
14395,commdev-image-keyboard-response,333,831891,learnblock1,558,img/planet15_right.png,15,Community 3,NA,TRUE,j,j,NA,NA,NA,7,6,"3,8,7,2,12,6,11,13,1,10,15,9,4,5,14"
14395,commdev-image-keyboard-response,334,833143,learnblock1,24,img/planet5_left.png,5,Community 3,NA,FALSE,j,f,NA,NA,NA,7,6,"3,8,7,2,12,6,11,13,1,10,15,9,4,5,14"
14395,commdev-image-keyboard-response,335,834396,learnblock1,503.0000000001164,img/planet14_left.png,14,Community 3,NA,FALSE,j,f,NA,NA,NA,7,6,"3,8,7,2,12,6,11,13,1,10,15,9,4,5,14"
14395,commdev-image-keyboard-response,336,835647,learnblock1,64,img/planet15_left.png,15,Community 3,NA,FALSE,j,f,NA,NA,NA,7,6,"3,8,7,2,12,6,11,13,1,10,15,9,4,5,14"
14395,commdev-image-keyboard-response,337,836899,learnblock1,670.9999999998836,img/planet4_left.png,4,Community 3,NA,FALSE,j,f,NA,NA,NA,7,6,"3,8,7,2,12,6,11,13,1,10,15,9,4,5,14"
14395,commdev-image-keyboard-response,338,838151,learnblock1,132,img/planet14_left.png,14,Community 3,NA,FALSE,j,f,NA,NA,NA,7,6,"3,8,7,2,12,6,11,13,1,10,15,9,4,5,14"
14395,commdev-image-keyboard-response,339,839402,learnblock1,81.99999999988358,img/planet5_left.png,5,Community 3,NA,FALSE,j,f,NA,NA,NA,7,6,"3,8,7,2,12,6,11,13,1,10,15,9,4,5,14"
14395,commdev-image-keyboard-response,340,840653,learnblock1,415,img/planet4_left.png,4,Community 3,NA,TRUE,f,f,NA,NA,NA,7,6,"3,8,7,2,12,6,11,13,1,10,15,9,4,5,14"
14395,commdev-image-keyboard-response,341,841904,learnblock1,30,img/planet15_right.png,15,Community 3,NA,FALSE,f,j,NA,NA,NA,7,6,"3,8,7,2,12,6,11,13,1,10,15,9,4,5,14"
14395,commdev-image-keyboard-response,342,843155,learnblock1,20,img/planet14_right.png,14,Community 3,NA,TRUE,j,j,NA,NA,NA,7,6,"3,8,7,2,12,6,11,13,1,10,15,9,4,5,14"
14395,commdev-image-keyboard-response,343,844407,learnblock1,121.00000000011642,img/planet9_right.png,9,Community 3,NA,TRUE,j,j,NA,NA,NA,7,6,"3,8,7,2,12,6,11,13,1,10,15,9,4,5,14"
14395,commdev-image-keyboard-response,344,845659,learnblock1,612,img/planet13_right.png,13,Community 2,NA,TRUE,j,j,NA,NA,NA,7,6,"3,8,7,2,12,6,11,13,1,10,15,9,4,5,14"
14395,commdev-image-keyboard-response,345,846911,learnblock1,104,img/planet9_right.png,9,Community 3,NA,FALSE,f,j,NA,NA,NA,7,6,"3,8,7,2,12,6,11,13,1,10,15,9,4,5,14"
14395,commdev-image-keyboard-response,346,848161,learnblock1,7,img/planet5_left.png,5,Community 3,NA,TRUE,f,f,NA,NA,NA,7,6,"3,8,7,2,12,6,11,13,1,10,15,9,4,5,14"
14395,commdev-image-keyboard-response,347,849412,learnblock1,382,img/planet4_right.png,4,Community 3,NA,TRUE,j,j,NA,NA,NA,7,6,"3,8,7,2,12,6,11,13,1,10,15,9,4,5,14"
14395,commdev-image-keyboard-response,348,850663,learnblock1,292,img/planet9_left.png,9,Community 3,NA,TRUE,f,f,NA,NA,NA,7,6,"3,8,7,2,12,6,11,13,1,10,15,9,4,5,14"
14395,commdev-image-keyboard-response,349,851914,learnblock1,345,img/planet4_right.png,4,Community 3,NA,TRUE,j,j,NA,NA,NA,7,6,"3,8,7,2,12,6,11,13,1,10,15,9,4,5,14"
14395,commdev-image-keyboard-response,350,853165,learnblock1,463.0000000001164,img/planet14_left.png,14,Community 3,NA,TRUE,f,f,NA,NA,NA,7,6,"3,8,7,2,12,6,11,13,1,10,15,9,4,5,14"
14395,commdev-image-keyboard-response,351,854416,learnblock1,319.9999999998836,img/planet5_left.png,5,Community 3,NA,TRUE,f,f,NA,NA,NA,7,6,"3,8,7,2,12,6,11,13,1,10,15,9,4,5,14"
14395,commdev-image-keyboard-response,352,855667,learnblock1,501,img/planet9_left.png,9,Community 3,NA,FALSE,j,f,NA,NA,NA,7,6,"3,8,7,2,12,6,11,13,1,10,15,9,4,5,14"
14395,commdev-image-keyboard-response,353,856918,learnblock1,null,img/planet4_right.png,4,Community 3,NA,FALSE,null,j,NA,NA,NA,7,6,"3,8,7,2,12,6,11,13,1,10,15,9,4,5,14"
14395,commdev-image-keyboard-response,354,858169,learnblock1,1103,img/planet5_right.png,5,Community 3,NA,TRUE,j,j,NA,NA,NA,7,6,"3,8,7,2,12,6,11,13,1,10,15,9,4,5,14"
14395,commdev-image-keyboard-response,355,859420,learnblock1,null,img/planet15_right.png,15,Community 3,NA,FALSE,null,j,NA,NA,NA,7,6,"3,8,7,2,12,6,11,13,1,10,15,9,4,5,14"
14395,commdev-image-keyboard-response,356,860674,learnblock1,null,img/planet14_right.png,14,Community 3,NA,FALSE,null,j,NA,NA,NA,7,6,"3,8,7,2,12,6,11,13,1,10,15,9,4,5,14"
14395,commdev-image-keyboard-response,357,861925,learnblock1,null,img/planet15_left.png,15,Community 3,NA,FALSE,null,f,NA,NA,NA,7,6,"3,8,7,2,12,6,11,13,1,10,15,9,4,5,14"
14395,commdev-image-keyboard-response,358,863177,learnblock1,null,img/planet5_left.png,5,Community 3,NA,FALSE,null,f,NA,NA,NA,7,6,"3,8,7,2,12,6,11,13,1,10,15,9,4,5,14"
14395,commdev-image-keyboard-response,359,864429,learnblock1,null,img/planet14_left.png,14,Community 3,NA,FALSE,null,f,NA,NA,NA,7,6,"3,8,7,2,12,6,11,13,1,10,15,9,4,5,14"
14395,commdev-image-keyboard-response,360,865682,learnblock1,265,img/planet15_left.png,15,Community 3,NA,FALSE,j,f,NA,NA,NA,7,6,"3,8,7,2,12,6,11,13,1,10,15,9,4,5,14"
14395,commdev-image-keyboard-response,361,866934,learnblock1,262,img/planet12_left.png,12,Community 1,NA,TRUE,f,f,NA,NA,NA,7,6,"3,8,7,2,12,6,11,13,1,10,15,9,4,5,14"
14395,commdev-image-keyboard-response,362,868185,learnblock1,369,img/planet7_right.png,7,Community 1,NA,FALSE,f,j,NA,NA,NA,7,6,"3,8,7,2,12,6,11,13,1,10,15,9,4,5,14"
14395,commdev-image-keyboard-response,363,869437,learnblock1,102,img/planet2_left.png,2,Community 1,NA,TRUE,f,f,NA,NA,NA,7,6,"3,8,7,2,12,6,11,13,1,10,15,9,4,5,14"
14395,commdev-image-keyboard-response,364,870690,learnblock1,934.0000000001164,img/planet8_left.png,8,Community 1,NA,FALSE,j,f,NA,NA,NA,7,6,"3,8,7,2,12,6,11,13,1,10,15,9,4,5,14"
14395,commdev-image-keyboard-response,365,871941,learnblock1,736,img/planet7_right.png,7,Community 1,NA,FALSE,f,j,NA,NA,NA,7,6,"3,8,7,2,12,6,11,13,1,10,15,9,4,5,14"
14395,commdev-image-keyboard-response,366,873192,learnblock1,732,img/planet2_left.png,2,Community 1,NA,FALSE,j,f,NA,NA,NA,7,6,"3,8,7,2,12,6,11,13,1,10,15,9,4,5,14"
14395,commdev-image-keyboard-response,367,874443,learnblock1,657,img/planet7_left.png,7,Community 1,NA,TRUE,f,f,NA,NA,NA,7,6,"3,8,7,2,12,6,11,13,1,10,15,9,4,5,14"
14395,commdev-image-keyboard-response,368,875695,learnblock1,356.9999999998836,img/planet3_right.png,3,Community 1,NA,TRUE,j,j,NA,NA,NA,7,6,"3,8,7,2,12,6,11,13,1,10,15,9,4,5,14"
14395,commdev-image-keyboard-response,369,876947,learnblock1,46.000000000116415,img/planet2_right.png,2,Community 1,NA,FALSE,f,j,NA,NA,NA,7,6,"3,8,7,2,12,6,11,13,1,10,15,9,4,5,14"
14395,commdev-image-keyboard-response,370,878198,learnblock1,142,img/planet7_left.png,7,Community 1,NA,TRUE,f,f,NA,NA,NA,7,6,"3,8,7,2,12,6,11,13,1,10,15,9,4,5,14"
14395,commdev-image-keyboard-response,371,879449,learnblock1,543,img/planet3_right.png,3,Community 1,NA,FALSE,f,j,NA,NA,NA,7,6,"3,8,7,2,12,6,11,13,1,10,15,9,4,5,14"
14395,commdev-image-keyboard-response,372,880700,learnblock1,131,img/planet7_left.png,7,Community 1,NA,TRUE,f,f,NA,NA,NA,7,6,"3,8,7,2,12,6,11,13,1,10,15,9,4,5,14"
14395,commdev-image-keyboard-response,373,881951,learnblock1,294,img/planet3_left.png,3,Community 1,NA,TRUE,f,f,NA,NA,NA,7,6,"3,8,7,2,12,6,11,13,1,10,15,9,4,5,14"
14395,commdev-image-keyboard-response,374,883202,learnblock1,903,img/planet7_right.png,7,Community 1,NA,FALSE,f,j,NA,NA,NA,7,6,"3,8,7,2,12,6,11,13,1,10,15,9,4,5,14"
14395,commdev-image-keyboard-response,375,884455,learnblock1,534.0000000001164,img/planet8_left.png,8,Community 1,NA,FALSE,j,f,NA,NA,NA,7,6,"3,8,7,2,12,6,11,13,1,10,15,9,4,5,14"
14395,commdev-image-keyboard-response,376,885707,learnblock1,164,img/planet7_left.png,7,Community 1,NA,FALSE,j,f,NA,NA,NA,7,6,"3,8,7,2,12,6,11,13,1,10,15,9,4,5,14"
14395,commdev-image-keyboard-response,377,886958,learnblock1,129,img/planet2_left.png,2,Community 1,NA,FALSE,j,f,NA,NA,NA,7,6,"3,8,7,2,12,6,11,13,1,10,15,9,4,5,14"
14395,commdev-image-keyboard-response,378,888209,learnblock1,567.0000000001164,img/planet8_left.png,8,Community 1,NA,FALSE,j,f,NA,NA,NA,7,6,"3,8,7,2,12,6,11,13,1,10,15,9,4,5,14"
14395,commdev-image-keyboard-response,379,889460,learnblock1,979.0000000001164,img/planet12_left.png,12,Community 1,NA,FALSE,j,f,NA,NA,NA,7,6,"3,8,7,2,12,6,11,13,1,10,15,9,4,5,14"
14395,commdev-image-keyboard-response,380,890711,learnblock1,842,img/planet7_left.png,7,Community 1,NA,FALSE,j,f,NA,NA,NA,7,6,"3,8,7,2,12,6,11,13,1,10,15,9,4,5,14"
14395,commdev-image-keyboard-response,381,891963,learnblock1,1234.9999999998836,img/planet8_right.png,8,Community 1,NA,FALSE,f,j,NA,NA,NA,7,6,"3,8,7,2,12,6,11,13,1,10,15,9,4,5,14"
14395,commdev-image-keyboard-response,382,893215,learnblock1,703,img/planet2_left.png,2,Community 1,NA,FALSE,j,f,NA,NA,NA,7,6,"3,8,7,2,12,6,11,13,1,10,15,9,4,5,14"
14395,commdev-image-keyboard-response,383,894466,learnblock1,444,img/planet8_left.png,8,Community 1,NA,FALSE,j,f,NA,NA,NA,7,6,"3,8,7,2,12,6,11,13,1,10,15,9,4,5,14"
14395,commdev-image-keyboard-response,384,895718,learnblock1,250,img/planet7_left.png,7,Community 1,NA,TRUE,f,f,NA,NA,NA,7,6,"3,8,7,2,12,6,11,13,1,10,15,9,4,5,14"
14395,commdev-image-keyboard-response,385,896971,learnblock1,158,img/planet3_right.png,3,Community 1,NA,TRUE,j,j,NA,NA,NA,7,6,"3,8,7,2,12,6,11,13,1,10,15,9,4,5,14"
14395,commdev-image-keyboard-response,386,898222,learnblock1,980.9999999998836,img/planet7_left.png,7,Community 1,NA,FALSE,j,f,NA,NA,NA,7,6,"3,8,7,2,12,6,11,13,1,10,15,9,4,5,14"
14395,commdev-image-keyboard-response,387,899475,learnblock1,361,img/planet8_right.png,8,Community 1,NA,FALSE,f,j,NA,NA,NA,7,6,"3,8,7,2,12,6,11,13,1,10,15,9,4,5,14"
14395,commdev-image-keyboard-response,388,900729,learnblock1,324,img/planet3_right.png,3,Community 1,NA,FALSE,f,j,NA,NA,NA,7,6,"3,8,7,2,12,6,11,13,1,10,15,9,4,5,14"
14395,commdev-image-keyboard-response,389,901982,learnblock1,248,img/planet8_right.png,8,Community 1,NA,TRUE,j,j,NA,NA,NA,7,6,"3,8,7,2,12,6,11,13,1,10,15,9,4,5,14"
14395,commdev-image-keyboard-response,390,903236,learnblock1,141,img/planet7_right.png,7,Community 1,NA,TRUE,j,j,NA,NA,NA,7,6,"3,8,7,2,12,6,11,13,1,10,15,9,4,5,14"
14395,commdev-image-keyboard-response,391,904490,learnblock1,115.00000000011642,img/planet12_right.png,12,Community 1,NA,TRUE,j,j,NA,NA,NA,7,6,"3,8,7,2,12,6,11,13,1,10,15,9,4,5,14"
14395,commdev-image-keyboard-response,392,905744,learnblock1,217,img/planet3_right.png,3,Community 1,NA,FALSE,f,j,NA,NA,NA,7,6,"3,8,7,2,12,6,11,13,1,10,15,9,4,5,14"
14395,commdev-image-keyboard-response,393,906997,learnblock1,112,img/planet12_right.png,12,Community 1,NA,FALSE,f,j,NA,NA,NA,7,6,"3,8,7,2,12,6,11,13,1,10,15,9,4,5,14"
14395,commdev-image-keyboard-response,394,908250,learnblock1,340,img/planet8_left.png,8,Community 1,NA,TRUE,f,f,NA,NA,NA,7,6,"3,8,7,2,12,6,11,13,1,10,15,9,4,5,14"
14395,commdev-image-keyboard-response,395,909502,learnblock1,175.00000000011642,img/planet3_right.png,3,Community 1,NA,FALSE,f,j,NA,NA,NA,7,6,"3,8,7,2,12,6,11,13,1,10,15,9,4,5,14"
14395,commdev-image-keyboard-response,396,910754,learnblock1,369,img/planet8_left.png,8,Community 1,NA,TRUE,f,f,NA,NA,NA,7,6,"3,8,7,2,12,6,11,13,1,10,15,9,4,5,14"
14395,commdev-image-keyboard-response,397,912007,learnblock1,0,img/planet2_right.png,2,Community 1,NA,FALSE,f,j,NA,NA,NA,7,6,"3,8,7,2,12,6,11,13,1,10,15,9,4,5,14"
14395,commdev-image-keyboard-response,398,913259,learnblock1,186.99999999988358,img/planet7_right.png,7,Community 1,NA,FALSE,f,j,NA,NA,NA,7,6,"3,8,7,2,12,6,11,13,1,10,15,9,4,5,14"
14395,commdev-image-keyboard-response,399,914513,learnblock1,442,img/planet3_left.png,3,Community 1,NA,TRUE,f,f,NA,NA,NA,7,6,"3,8,7,2,12,6,11,13,1,10,15,9,4,5,14"
14395,commdev-image-keyboard-response,400,915766,learnblock1,1010,img/planet12_right.png,12,Community 1,NA,TRUE,j,j,NA,NA,NA,7,6,"3,8,7,2,12,6,11,13,1,10,15,9,4,5,14"
14395,commdev-image-keyboard-response,401,917019,learnblock1,694,img/planet8_left.png,8,Community 1,NA,FALSE,j,f,NA,NA,NA,7,6,"3,8,7,2,12,6,11,13,1,10,15,9,4,5,14"
14395,commdev-image-keyboard-response,402,918272,learnblock1,204,img/planet3_left.png,3,Community 1,NA,TRUE,f,f,NA,NA,NA,7,6,"3,8,7,2,12,6,11,13,1,10,15,9,4,5,14"
14395,commdev-image-keyboard-response,403,919527,learnblock1,163,img/planet12_left.png,12,Community 1,NA,FALSE,j,f,NA,NA,NA,7,6,"3,8,7,2,12,6,11,13,1,10,15,9,4,5,14"
14395,commdev-image-keyboard-response,404,920779,learnblock1,862.9999999998836,img/planet8_left.png,8,Community 1,NA,FALSE,j,f,NA,NA,NA,7,6,"3,8,7,2,12,6,11,13,1,10,15,9,4,5,14"
14395,commdev-image-keyboard-response,405,922032,learnblock1,895,img/planet7_left.png,7,Community 1,NA,FALSE,j,f,NA,NA,NA,7,6,"3,8,7,2,12,6,11,13,1,10,15,9,4,5,14"
14395,commdev-image-keyboard-response,406,923284,learnblock1,1006.0000000001164,img/planet8_right.png,8,Community 1,NA,FALSE,f,j,NA,NA,NA,7,6,"3,8,7,2,12,6,11,13,1,10,15,9,4,5,14"
14395,commdev-image-keyboard-response,407,924536,learnblock1,null,img/planet12_left.png,12,Community 1,NA,FALSE,null,f,NA,NA,NA,7,6,"3,8,7,2,12,6,11,13,1,10,15,9,4,5,14"
14395,commdev-image-keyboard-response,408,925788,learnblock1,149,img/planet7_left.png,7,Community 1,NA,FALSE,j,f,NA,NA,NA,7,6,"3,8,7,2,12,6,11,13,1,10,15,9,4,5,14"
14395,commdev-image-keyboard-response,409,927040,learnblock1,112.00000000011642,img/planet3_right.png,3,Community 1,NA,TRUE,j,j,NA,NA,NA,7,6,"3,8,7,2,12,6,11,13,1,10,15,9,4,5,14"
14395,commdev-image-keyboard-response,410,928293,learnblock1,155,img/planet8_left.png,8,Community 1,NA,FALSE,j,f,NA,NA,NA,7,6,"3,8,7,2,12,6,11,13,1,10,15,9,4,5,14"
14395,commdev-image-keyboard-response,411,929545,learnblock1,32,img/planet12_left.png,12,Community 1,NA,TRUE,f,f,NA,NA,NA,7,6,"3,8,7,2,12,6,11,13,1,10,15,9,4,5,14"
14395,commdev-image-keyboard-response,412,930796,learnblock1,267,img/planet3_right.png,3,Community 1,NA,TRUE,j,j,NA,NA,NA,7,6,"3,8,7,2,12,6,11,13,1,10,15,9,4,5,14"
14395,commdev-image-keyboard-response,413,932048,learnblock1,69,img/planet2_right.png,2,Community 1,NA,TRUE,j,j,NA,NA,NA,7,6,"3,8,7,2,12,6,11,13,1,10,15,9,4,5,14"
14395,commdev-image-keyboard-response,414,933299,learnblock1,323,img/planet7_right.png,7,Community 1,NA,TRUE,j,j,NA,NA,NA,7,6,"3,8,7,2,12,6,11,13,1,10,15,9,4,5,14"
14395,commdev-image-keyboard-response,415,934550,learnblock1,378,img/planet2_right.png,2,Community 1,NA,TRUE,j,j,NA,NA,NA,7,6,"3,8,7,2,12,6,11,13,1,10,15,9,4,5,14"
14395,commdev-image-keyboard-response,416,935801,learnblock1,172,img/planet7_left.png,7,Community 1,NA,TRUE,f,f,NA,NA,NA,7,6,"3,8,7,2,12,6,11,13,1,10,15,9,4,5,14"
14395,commdev-image-keyboard-response,417,937054,learnblock1,12.999999999883585,img/planet12_left.png,12,Community 1,NA,TRUE,f,f,NA,NA,NA,7,6,"3,8,7,2,12,6,11,13,1,10,15,9,4,5,14"
14395,commdev-image-keyboard-response,418,938306,learnblock1,10,img/planet3_right.png,3,Community 1,NA,FALSE,f,j,NA,NA,NA,7,6,"3,8,7,2,12,6,11,13,1,10,15,9,4,5,14"
14395,commdev-image-keyboard-response,419,939558,learnblock1,131,img/planet2_left.png,2,Community 1,NA,FALSE,j,f,NA,NA,NA,7,6,"3,8,7,2,12,6,11,13,1,10,15,9,4,5,14"
14395,commdev-image-keyboard-response,420,940810,learnblock1,62,img/planet8_left.png,8,Community 1,NA,TRUE,f,f,NA,NA,NA,7,6,"3,8,7,2,12,6,11,13,1,10,15,9,4,5,14"
14395,commdev-image-keyboard-response,421,942062,learnblock1,1207,img/planet2_right.png,2,Community 1,NA,FALSE,f,j,NA,NA,NA,7,6,"3,8,7,2,12,6,11,13,1,10,15,9,4,5,14"
14395,commdev-image-keyboard-response,422,943314,learnblock1,490.0000000001164,img/planet8_left.png,8,Community 1,NA,TRUE,f,f,NA,NA,NA,7,6,"3,8,7,2,12,6,11,13,1,10,15,9,4,5,14"
14395,commdev-image-keyboard-response,423,944565,learnblock1,197,img/planet7_left.png,7,Community 1,NA,FALSE,j,f,NA,NA,NA,7,6,"3,8,7,2,12,6,11,13,1,10,15,9,4,5,14"
14395,commdev-image-keyboard-response,424,945816,learnblock1,161.00000000011642,img/planet3_right.png,3,Community 1,NA,FALSE,f,j,NA,NA,NA,7,6,"3,8,7,2,12,6,11,13,1,10,15,9,4,5,14"
14395,commdev-image-keyboard-response,425,947069,learnblock1,1108.9999999998836,img/planet8_left.png,8,Community 1,NA,FALSE,j,f,NA,NA,NA,7,6,"3,8,7,2,12,6,11,13,1,10,15,9,4,5,14"
14395,commdev-image-keyboard-response,426,948321,learnblock1,281.0000000001164,img/planet3_right.png,3,Community 1,NA,FALSE,f,j,NA,NA,NA,7,6,"3,8,7,2,12,6,11,13,1,10,15,9,4,5,14"
14395,commdev-image-keyboard-response,427,949574,learnblock1,158,img/planet8_left.png,8,Community 1,NA,TRUE,f,f,NA,NA,NA,7,6,"3,8,7,2,12,6,11,13,1,10,15,9,4,5,14"
14395,commdev-image-keyboard-response,428,950826,learnblock1,null,img/planet7_right.png,7,Community 1,NA,FALSE,null,j,NA,NA,NA,7,6,"3,8,7,2,12,6,11,13,1,10,15,9,4,5,14"
14395,commdev-image-keyboard-response,429,952079,learnblock1,1237,img/planet3_left.png,3,Community 1,NA,TRUE,f,f,NA,NA,NA,7,6,"3,8,7,2,12,6,11,13,1,10,15,9,4,5,14"
14395,commdev-image-keyboard-response,430,953331,learnblock1,399,img/planet2_right.png,2,Community 1,NA,FALSE,f,j,NA,NA,NA,7,6,"3,8,7,2,12,6,11,13,1,10,15,9,4,5,14"
14395,commdev-image-keyboard-response,431,954582,learnblock1,null,img/planet8_left.png,8,Community 1,NA,FALSE,null,f,NA,NA,NA,7,6,"3,8,7,2,12,6,11,13,1,10,15,9,4,5,14"
14395,commdev-image-keyboard-response,432,955834,learnblock1,380.9999999998836,img/planet2_right.png,2,Community 1,NA,FALSE,f,j,NA,NA,NA,7,6,"3,8,7,2,12,6,11,13,1,10,15,9,4,5,14"
14395,commdev-image-keyboard-response,433,957086,learnblock1,81,img/planet3_left.png,3,Community 1,NA,TRUE,f,f,NA,NA,NA,7,6,"3,8,7,2,12,6,11,13,1,10,15,9,4,5,14"
14395,commdev-image-keyboard-response,434,958338,learnblock1,null,img/planet7_left.png,7,Community 1,NA,FALSE,null,f,NA,NA,NA,7,6,"3,8,7,2,12,6,11,13,1,10,15,9,4,5,14"
14395,commdev-image-keyboard-response,435,959589,learnblock1,920,img/planet3_right.png,3,Community 1,NA,TRUE,j,j,NA,NA,NA,7,6,"3,8,7,2,12,6,11,13,1,10,15,9,4,5,14"
14395,commdev-image-keyboard-response,436,960842,learnblock1,345,img/planet7_left.png,7,Community 1,NA,TRUE,f,f,NA,NA,NA,7,6,"3,8,7,2,12,6,11,13,1,10,15,9,4,5,14"
14395,commdev-image-keyboard-response,437,962094,learnblock1,null,img/planet12_right.png,12,Community 1,NA,FALSE,null,j,NA,NA,NA,7,6,"3,8,7,2,12,6,11,13,1,10,15,9,4,5,14"
14395,commdev-image-keyboard-response,438,963345,learnblock1,null,img/planet3_right.png,3,Community 1,NA,FALSE,null,j,NA,NA,NA,7,6,"3,8,7,2,12,6,11,13,1,10,15,9,4,5,14"
14395,commdev-image-keyboard-response,439,964596,learnblock1,null,img/planet8_left.png,8,Community 1,NA,FALSE,null,f,NA,NA,NA,7,6,"3,8,7,2,12,6,11,13,1,10,15,9,4,5,14"
14395,commdev-image-keyboard-response,440,965847,learnblock1,227.00000000011642,img/planet2_right.png,2,Community 1,NA,FALSE,f,j,NA,NA,NA,7,6,"3,8,7,2,12,6,11,13,1,10,15,9,4,5,14"
14395,commdev-image-keyboard-response,441,967099,learnblock1,63.999999999883585,img/planet3_left.png,3,Community 1,NA,TRUE,f,f,NA,NA,NA,7,6,"3,8,7,2,12,6,11,13,1,10,15,9,4,5,14"
14395,commdev-image-keyboard-response,442,968352,learnblock1,244,img/planet12_right.png,12,Community 1,NA,FALSE,f,j,NA,NA,NA,7,6,"3,8,7,2,12,6,11,13,1,10,15,9,4,5,14"
14395,commdev-image-keyboard-response,443,969605,learnblock1,697,img/planet7_left.png,7,Community 1,NA,FALSE,j,f,NA,NA,NA,7,6,"3,8,7,2,12,6,11,13,1,10,15,9,4,5,14"
14395,commdev-image-keyboard-response,444,970857,learnblock1,152,img/planet3_right.png,3,Community 1,NA,TRUE,j,j,NA,NA,NA,7,6,"3,8,7,2,12,6,11,13,1,10,15,9,4,5,14"
14395,commdev-image-keyboard-response,445,972108,learnblock1,72,img/planet7_left.png,7,Community 1,NA,FALSE,j,f,NA,NA,NA,7,6,"3,8,7,2,12,6,11,13,1,10,15,9,4,5,14"
14395,commdev-image-keyboard-response,446,973360,learnblock1,68,img/planet3_right.png,3,Community 1,NA,FALSE,f,j,NA,NA,NA,7,6,"3,8,7,2,12,6,11,13,1,10,15,9,4,5,14"
14395,commdev-image-keyboard-response,447,974612,learnblock1,121,img/planet12_right.png,12,Community 1,NA,FALSE,f,j,NA,NA,NA,7,6,"3,8,7,2,12,6,11,13,1,10,15,9,4,5,14"
14395,commdev-image-keyboard-response,448,975866,learnblock1,133,img/planet15_right.png,15,Community 3,NA,TRUE,j,j,NA,NA,NA,7,6,"3,8,7,2,12,6,11,13,1,10,15,9,4,5,14"
14395,commdev-image-keyboard-response,449,977118,learnblock1,117.99999999988358,img/planet14_right.png,14,Community 3,NA,TRUE,j,j,NA,NA,NA,7,6,"3,8,7,2,12,6,11,13,1,10,15,9,4,5,14"
14395,commdev-image-keyboard-response,450,978370,learnblock1,387,img/planet9_right.png,9,Community 3,NA,FALSE,f,j,NA,NA,NA,7,6,"3,8,7,2,12,6,11,13,1,10,15,9,4,5,14"
14395,commdev-image-keyboard-response,451,979621,learnblock1,null,img/planet4_left.png,4,Community 3,NA,FALSE,null,f,NA,NA,NA,7,6,"3,8,7,2,12,6,11,13,1,10,15,9,4,5,14"
14395,commdev-image-keyboard-response,452,980873,learnblock1,379.0000000001164,img/planet9_left.png,9,Community 3,NA,TRUE,f,f,NA,NA,NA,7,6,"3,8,7,2,12,6,11,13,1,10,15,9,4,5,14"
14395,commdev-image-keyboard-response,453,982124,learnblock1,260,img/planet5_right.png,5,Community 3,NA,FALSE,f,j,NA,NA,NA,7,6,"3,8,7,2,12,6,11,13,1,10,15,9,4,5,14"
14395,commdev-image-keyboard-response,454,983375,learnblock1,356,img/planet4_right.png,4,Community 3,NA,TRUE,j,j,NA,NA,NA,7,6,"3,8,7,2,12,6,11,13,1,10,15,9,4,5,14"
14395,commdev-image-keyboard-response,455,984627,learnblock1,617,img/planet15_left.png,15,Community 3,NA,TRUE,f,f,NA,NA,NA,7,6,"3,8,7,2,12,6,11,13,1,10,15,9,4,5,14"
14395,commdev-image-keyboard-response,456,985879,learnblock1,256,img/planet14_left.png,14,Community 3,NA,FALSE,j,f,NA,NA,NA,7,6,"3,8,7,2,12,6,11,13,1,10,15,9,4,5,14"
14395,commdev-image-keyboard-response,457,987131,learnblock1,385,img/planet15_left.png,15,Community 3,NA,FALSE,j,f,NA,NA,NA,7,6,"3,8,7,2,12,6,11,13,1,10,15,9,4,5,14"
14395,commdev-image-keyboard-response,458,988382,learnblock1,304.9999999998836,img/planet12_right.png,12,Community 1,NA,TRUE,j,j,NA,NA,NA,7,6,"3,8,7,2,12,6,11,13,1,10,15,9,4,5,14"
14395,commdev-image-keyboard-response,459,989633,learnblock1,467,img/planet8_right.png,8,Community 1,NA,FALSE,f,j,NA,NA,NA,7,6,"3,8,7,2,12,6,11,13,1,10,15,9,4,5,14"
14395,commdev-image-keyboard-response,460,990884,learnblock1,395,img/planet3_right.png,3,Community 1,NA,TRUE,j,j,NA,NA,NA,7,6,"3,8,7,2,12,6,11,13,1,10,15,9,4,5,14"
14395,commdev-image-keyboard-response,461,992136,learnblock1,229,img/planet2_right.png,2,Community 1,NA,TRUE,j,j,NA,NA,NA,7,6,"3,8,7,2,12,6,11,13,1,10,15,9,4,5,14"
14395,commdev-image-keyboard-response,462,993389,learnblock1,1017,img/planet7_right.png,7,Community 1,NA,FALSE,f,j,NA,NA,NA,7,6,"3,8,7,2,12,6,11,13,1,10,15,9,4,5,14"
14395,commdev-image-keyboard-response,463,994640,learnblock1,null,img/planet12_left.png,12,Community 1,NA,FALSE,null,f,NA,NA,NA,7,6,"3,8,7,2,12,6,11,13,1,10,15,9,4,5,14"
14395,commdev-image-keyboard-response,464,995891,learnblock1,669,img/planet8_left.png,8,Community 1,NA,TRUE,f,f,NA,NA,NA,7,6,"3,8,7,2,12,6,11,13,1,10,15,9,4,5,14"
14395,commdev-image-keyboard-response,465,997142,learnblock1,722,img/planet2_right.png,2,Community 1,NA,FALSE,f,j,NA,NA,NA,7,6,"3,8,7,2,12,6,11,13,1,10,15,9,4,5,14"
14395,commdev-image-keyboard-response,466,998393,learnblock1,452,img/planet8_left.png,8,Community 1,NA,TRUE,f,f,NA,NA,NA,7,6,"3,8,7,2,12,6,11,13,1,10,15,9,4,5,14"
14395,commdev-image-keyboard-response,467,999645,learnblock1,657,img/planet3_right.png,3,Community 1,NA,FALSE,f,j,NA,NA,NA,7,6,"3,8,7,2,12,6,11,13,1,10,15,9,4,5,14"
14395,commdev-image-keyboard-response,468,1000897,learnblock1,null,img/planet8_right.png,8,Community 1,NA,FALSE,null,j,NA,NA,NA,7,6,"3,8,7,2,12,6,11,13,1,10,15,9,4,5,14"
14395,commdev-image-keyboard-response,469,1002148,learnblock1,544,img/planet2_right.png,2,Community 1,NA,FALSE,f,j,NA,NA,NA,7,6,"3,8,7,2,12,6,11,13,1,10,15,9,4,5,14"
14395,commdev-image-keyboard-response,470,1003402,learnblock1,769,img/planet3_right.png,3,Community 1,NA,FALSE,f,j,NA,NA,NA,7,6,"3,8,7,2,12,6,11,13,1,10,15,9,4,5,14"
14395,commdev-image-keyboard-response,471,1004653,learnblock1,400,img/planet7_right.png,7,Community 1,NA,FALSE,f,j,NA,NA,NA,7,6,"3,8,7,2,12,6,11,13,1,10,15,9,4,5,14"
14395,commdev-image-keyboard-response,472,1005904,learnblock1,905,img/planet8_right.png,8,Community 1,NA,FALSE,f,j,NA,NA,NA,7,6,"3,8,7,2,12,6,11,13,1,10,15,9,4,5,14"
14395,commdev-image-keyboard-response,473,1007155,learnblock1,1147.9999999998836,img/planet2_right.png,2,Community 1,NA,FALSE,f,j,NA,NA,NA,7,6,"3,8,7,2,12,6,11,13,1,10,15,9,4,5,14"
14395,commdev-image-keyboard-response,474,1008406,learnblock1,854,img/planet7_right.png,7,Community 1,NA,FALSE,f,j,NA,NA,NA,7,6,"3,8,7,2,12,6,11,13,1,10,15,9,4,5,14"
14395,commdev-image-keyboard-response,475,1009659,learnblock1,419,img/planet2_right.png,2,Community 1,NA,FALSE,f,j,NA,NA,NA,7,6,"3,8,7,2,12,6,11,13,1,10,15,9,4,5,14"
14395,commdev-image-keyboard-response,476,1010911,learnblock1,504.9999999998836,img/planet6_left.png,6,Community 2,NA,TRUE,f,f,NA,NA,NA,7,6,"3,8,7,2,12,6,11,13,1,10,15,9,4,5,14"
14395,commdev-image-keyboard-response,477,1012163,learnblock1,134,img/planet11_right.png,11,Community 2,NA,TRUE,j,j,NA,NA,NA,7,6,"3,8,7,2,12,6,11,13,1,10,15,9,4,5,14"
14395,commdev-image-keyboard-response,478,1013415,learnblock1,659.0000000001164,img/planet13_right.png,13,Community 2,NA,FALSE,f,j,NA,NA,NA,7,6,"3,8,7,2,12,6,11,13,1,10,15,9,4,5,14"
14395,commdev-image-keyboard-response,479,1014667,learnblock1,294,img/planet9_right.png,9,Community 3,NA,FALSE,f,j,NA,NA,NA,7,6,"3,8,7,2,12,6,11,13,1,10,15,9,4,5,14"
14395,commdev-image-keyboard-response,480,1015918,learnblock1,6,img/planet13_right.png,13,Community 2,NA,TRUE,j,j,NA,NA,NA,7,6,"3,8,7,2,12,6,11,13,1,10,15,9,4,5,14"
14395,commdev-image-keyboard-response,481,1017169,learnblock1,275.0000000001164,img/planet9_right.png,9,Community 3,NA,TRUE,j,j,NA,NA,NA,7,6,"3,8,7,2,12,6,11,13,1,10,15,9,4,5,14"
14395,commdev-image-keyboard-response,482,1018420,learnblock1,29.999999999883585,img/planet4_left.png,4,Community 3,NA,FALSE,j,f,NA,NA,NA,7,6,"3,8,7,2,12,6,11,13,1,10,15,9,4,5,14"
14395,commdev-image-keyboard-response,483,1019671,learnblock1,56,img/planet14_left.png,14,Community 3,NA,FALSE,j,f,NA,NA,NA,7,6,"3,8,7,2,12,6,11,13,1,10,15,9,4,5,14"
14395,commdev-image-keyboard-response,484,1020922,learnblock1,360,img/planet5_left.png,5,Community 3,NA,FALSE,j,f,NA,NA,NA,7,6,"3,8,7,2,12,6,11,13,1,10,15,9,4,5,14"
14395,commdev-image-keyboard-response,485,1022174,learnblock1,175.00000000011642,img/planet9_left.png,9,Community 3,NA,TRUE,f,f,NA,NA,NA,7,6,"3,8,7,2,12,6,11,13,1,10,15,9,4,5,14"
14395,commdev-image-keyboard-response,486,1023426,learnblock1,17.999999999883585,img/planet14_left.png,14,Community 3,NA,FALSE,j,f,NA,NA,NA,7,6,"3,8,7,2,12,6,11,13,1,10,15,9,4,5,14"
14395,commdev-image-keyboard-response,487,1024677,learnblock1,null,img/planet5_left.png,5,Community 3,NA,FALSE,null,f,NA,NA,NA,7,6,"3,8,7,2,12,6,11,13,1,10,15,9,4,5,14"
14395,commdev-image-keyboard-response,488,1025928,learnblock1,null,img/planet15_right.png,15,Community 3,NA,FALSE,null,j,NA,NA,NA,7,6,"3,8,7,2,12,6,11,13,1,10,15,9,4,5,14"
14395,commdev-image-keyboard-response,489,1027179,learnblock1,481.9999999998836,img/planet14_right.png,14,Community 3,NA,TRUE,j,j,NA,NA,NA,7,6,"3,8,7,2,12,6,11,13,1,10,15,9,4,5,14"
14395,commdev-image-keyboard-response,490,1028430,learnblock1,null,img/planet5_right.png,5,Community 3,NA,FALSE,null,j,NA,NA,NA,7,6,"3,8,7,2,12,6,11,13,1,10,15,9,4,5,14"
14395,commdev-image-keyboard-response,491,1029681,learnblock1,895,img/planet15_right.png,15,Community 3,NA,TRUE,j,j,NA,NA,NA,7,6,"3,8,7,2,12,6,11,13,1,10,15,9,4,5,14"
14395,commdev-image-keyboard-response,492,1030932,learnblock1,285.99999999976717,img/planet5_left.png,5,Community 3,NA,TRUE,f,f,NA,NA,NA,7,6,"3,8,7,2,12,6,11,13,1,10,15,9,4,5,14"
14395,commdev-image-keyboard-response,493,1032183,learnblock1,20,img/planet4_left.png,4,Community 3,NA,FALSE,j,f,NA,NA,NA,7,6,"3,8,7,2,12,6,11,13,1,10,15,9,4,5,14"
14395,commdev-image-keyboard-response,494,1033436,learnblock1,585,img/planet14_right.png,14,Community 3,NA,TRUE,j,j,NA,NA,NA,7,6,"3,8,7,2,12,6,11,13,1,10,15,9,4,5,14"
14395,commdev-image-keyboard-response,495,1034689,learnblock1,138.00000000011642,img/planet15_right.png,15,Community 3,NA,TRUE,j,j,NA,NA,NA,7,6,"3,8,7,2,12,6,11,13,1,10,15,9,4,5,14"
14395,commdev-image-keyboard-response,496,1035941,learnblock1,5.999999999883585,img/planet4_left.png,4,Community 3,NA,FALSE,j,f,NA,NA,NA,7,6,"3,8,7,2,12,6,11,13,1,10,15,9,4,5,14"
14395,commdev-image-keyboard-response,497,1037193,learnblock1,70.99999999988358,img/planet15_left.png,15,Community 3,NA,TRUE,f,f,NA,NA,NA,7,6,"3,8,7,2,12,6,11,13,1,10,15,9,4,5,14"
14395,commdev-image-keyboard-response,498,1038445,learnblock1,259.0000000001164,img/planet14_left.png,14,Community 3,NA,TRUE,f,f,NA,NA,NA,7,6,"3,8,7,2,12,6,11,13,1,10,15,9,4,5,14"
14395,commdev-image-keyboard-response,499,1039697,learnblock1,245.00000000011642,img/planet4_right.png,4,Community 3,NA,FALSE,f,j,NA,NA,NA,7,6,"3,8,7,2,12,6,11,13,1,10,15,9,4,5,14"
14395,commdev-image-keyboard-response,500,1040950,learnblock1,1178.0000000001164,img/planet9_left.png,9,Community 3,NA,FALSE,j,f,NA,NA,NA,7,6,"3,8,7,2,12,6,11,13,1,10,15,9,4,5,14"
14395,commdev-image-keyboard-response,501,1042202,learnblock1,225.99999999988358,img/planet5_right.png,5,Community 3,NA,TRUE,j,j,NA,NA,NA,7,6,"3,8,7,2,12,6,11,13,1,10,15,9,4,5,14"
14395,commdev-image-keyboard-response,502,1043453,learnblock1,223.99999999988358,img/planet15_right.png,15,Community 3,NA,FALSE,f,j,NA,NA,NA,7,6,"3,8,7,2,12,6,11,13,1,10,15,9,4,5,14"
14395,commdev-image-keyboard-response,503,1044704,learnblock1,112.00000000011642,img/planet4_right.png,4,Community 3,NA,FALSE,f,j,NA,NA,NA,7,6,"3,8,7,2,12,6,11,13,1,10,15,9,4,5,14"
14395,commdev-image-keyboard-response,504,1045956,learnblock1,null,img/planet15_right.png,15,Community 3,NA,FALSE,null,j,NA,NA,NA,7,6,"3,8,7,2,12,6,11,13,1,10,15,9,4,5,14"
14395,commdev-image-keyboard-response,505,1047209,learnblock1,57.999999999883585,img/planet14_right.png,14,Community 3,NA,TRUE,j,j,NA,NA,NA,7,6,"3,8,7,2,12,6,11,13,1,10,15,9,4,5,14"
14395,commdev-image-keyboard-response,506,1048460,learnblock1,964.9999999997672,img/planet4_right.png,4,Community 3,NA,TRUE,j,j,NA,NA,NA,7,6,"3,8,7,2,12,6,11,13,1,10,15,9,4,5,14"
14395,commdev-image-keyboard-response,507,1049711,learnblock1,146,img/planet9_right.png,9,Community 3,NA,TRUE,j,j,NA,NA,NA,7,6,"3,8,7,2,12,6,11,13,1,10,15,9,4,5,14"
14395,commdev-image-keyboard-response,508,1050962,learnblock1,786,img/planet13_left.png,13,Community 2,NA,FALSE,j,f,NA,NA,NA,7,6,"3,8,7,2,12,6,11,13,1,10,15,9,4,5,14"
14395,commdev-image-keyboard-response,509,1052214,learnblock1,253,img/planet11_right.png,11,Community 2,NA,FALSE,f,j,NA,NA,NA,7,6,"3,8,7,2,12,6,11,13,1,10,15,9,4,5,14"
14395,commdev-image-keyboard-response,510,1053466,learnblock1,36,img/planet13_left.png,13,Community 2,NA,FALSE,j,f,NA,NA,NA,7,6,"3,8,7,2,12,6,11,13,1,10,15,9,4,5,14"
14395,commdev-image-keyboard-response,511,1054717,learnblock1,38,img/planet9_left.png,9,Community 3,NA,FALSE,j,f,NA,NA,NA,7,6,"3,8,7,2,12,6,11,13,1,10,15,9,4,5,14"
14395,commdev-image-keyboard-response,512,1055968,learnblock1,146,img/planet13_right.png,13,Community 2,NA,TRUE,j,j,NA,NA,NA,7,6,"3,8,7,2,12,6,11,13,1,10,15,9,4,5,14"
14395,commdev-image-keyboard-response,513,1057219,learnblock1,null,img/planet11_right.png,11,Community 2,NA,FALSE,null,j,NA,NA,NA,7,6,"3,8,7,2,12,6,11,13,1,10,15,9,4,5,14"
14395,commdev-image-keyboard-response,514,1058472,learnblock1,444,img/planet10_left.png,10,Community 2,NA,FALSE,j,f,NA,NA,NA,7,6,"3,8,7,2,12,6,11,13,1,10,15,9,4,5,14"
14395,commdev-image-keyboard-response,515,1059724,learnblock1,778,img/planet11_right.png,11,Community 2,NA,FALSE,f,j,NA,NA,NA,7,6,"3,8,7,2,12,6,11,13,1,10,15,9,4,5,14"
14395,commdev-image-keyboard-response,516,1060975,learnblock1,321,img/planet10_left.png,10,Community 2,NA,FALSE,j,f,NA,NA,NA,7,6,"3,8,7,2,12,6,11,13,1,10,15,9,4,5,14"
14395,commdev-image-keyboard-response,517,1062227,learnblock1,460,img/planet1_left.png,1,Community 2,NA,TRUE,f,f,NA,NA,NA,7,6,"3,8,7,2,12,6,11,13,1,10,15,9,4,5,14"
14395,commdev-image-keyboard-response,521,1482051,learnblock2,773,img/planet12_left.png,12,Community 1,NA,FALSE,j,f,NA,NA,NA,7,6,"3,8,7,2,12,6,11,13,1,10,15,9,4,5,14"
14395,commdev-image-keyboard-response,522,1483303,learnblock2,1106,img/planet7_left.png,7,Community 1,NA,TRUE,f,f,NA,NA,NA,7,6,"3,8,7,2,12,6,11,13,1,10,15,9,4,5,14"
14395,commdev-image-keyboard-response,523,1484554,learnblock2,923,img/planet2_left.png,2,Community 1,NA,TRUE,f,f,NA,NA,NA,7,6,"3,8,7,2,12,6,11,13,1,10,15,9,4,5,14"
14395,commdev-image-keyboard-response,524,1485805,learnblock2,757,img/planet6_right.png,6,Community 2,NA,TRUE,j,j,NA,NA,NA,7,6,"3,8,7,2,12,6,11,13,1,10,15,9,4,5,14"
14395,commdev-image-keyboard-response,525,1487056,learnblock2,185,img/planet11_left.png,11,Community 2,NA,FALSE,j,f,NA,NA,NA,7,6,"3,8,7,2,12,6,11,13,1,10,15,9,4,5,14"
14395,commdev-image-keyboard-response,526,1488307,learnblock2,460,img/planet1_right.png,1,Community 2,NA,TRUE,j,j,NA,NA,NA,7,6,"3,8,7,2,12,6,11,13,1,10,15,9,4,5,14"
14395,commdev-image-keyboard-response,527,1489558,learnblock2,492.99999999976717,img/planet10_right.png,10,Community 2,NA,FALSE,f,j,NA,NA,NA,7,6,"3,8,7,2,12,6,11,13,1,10,15,9,4,5,14"
14395,commdev-image-keyboard-response,528,1490809,learnblock2,684,img/planet13_left.png,13,Community 2,NA,FALSE,j,f,NA,NA,NA,7,6,"3,8,7,2,12,6,11,13,1,10,15,9,4,5,14"
14395,commdev-image-keyboard-response,529,1492060,learnblock2,674,img/planet9_left.png,9,Community 3,NA,TRUE,f,f,NA,NA,NA,7,6,"3,8,7,2,12,6,11,13,1,10,15,9,4,5,14"
14395,commdev-image-keyboard-response,530,1493311,learnblock2,382,img/planet13_left.png,13,Community 2,NA,FALSE,j,f,NA,NA,NA,7,6,"3,8,7,2,12,6,11,13,1,10,15,9,4,5,14"
14395,commdev-image-keyboard-response,531,1494562,learnblock2,77,img/planet1_right.png,1,Community 2,NA,TRUE,j,j,NA,NA,NA,7,6,"3,8,7,2,12,6,11,13,1,10,15,9,4,5,14"
14395,commdev-image-keyboard-response,532,1495813,learnblock2,234,img/planet11_left.png,11,Community 2,NA,FALSE,j,f,NA,NA,NA,7,6,"3,8,7,2,12,6,11,13,1,10,15,9,4,5,14"
14395,commdev-image-keyboard-response,533,1497064,learnblock2,null,img/planet1_left.png,1,Community 2,NA,FALSE,null,f,NA,NA,NA,7,6,"3,8,7,2,12,6,11,13,1,10,15,9,4,5,14"
14395,commdev-image-keyboard-response,534,1498314,learnblock2,null,img/planet6_right.png,6,Community 2,NA,FALSE,null,j,NA,NA,NA,7,6,"3,8,7,2,12,6,11,13,1,10,15,9,4,5,14"
14395,commdev-image-keyboard-response,535,1499565,learnblock2,561,img/planet1_right.png,1,Community 2,NA,FALSE,f,j,NA,NA,NA,7,6,"3,8,7,2,12,6,11,13,1,10,15,9,4,5,14"
14395,commdev-image-keyboard-response,536,1500816,learnblock2,266.99999999976717,img/planet6_right.png,6,Community 2,NA,TRUE,j,j,NA,NA,NA,7,6,"3,8,7,2,12,6,11,13,1,10,15,9,4,5,14"
14395,commdev-image-keyboard-response,537,1502067,learnblock2,113,img/planet1_left.png,1,Community 2,NA,TRUE,f,f,NA,NA,NA,7,6,"3,8,7,2,12,6,11,13,1,10,15,9,4,5,14"
14395,commdev-image-keyboard-response,538,1503318,learnblock2,null,img/planet13_left.png,13,Community 2,NA,FALSE,null,f,NA,NA,NA,7,6,"3,8,7,2,12,6,11,13,1,10,15,9,4,5,14"
14395,commdev-image-keyboard-response,539,1504569,learnblock2,null,img/planet9_right.png,9,Community 3,NA,FALSE,null,j,NA,NA,NA,7,6,"3,8,7,2,12,6,11,13,1,10,15,9,4,5,14"
14395,commdev-image-keyboard-response,540,1505820,learnblock2,798,img/planet5_right.png,5,Community 3,NA,TRUE,j,j,NA,NA,NA,7,6,"3,8,7,2,12,6,11,13,1,10,15,9,4,5,14"
14395,commdev-image-keyboard-response,541,1507071,learnblock2,1214,img/planet14_right.png,14,Community 3,NA,TRUE,j,j,NA,NA,NA,7,6,"3,8,7,2,12,6,11,13,1,10,15,9,4,5,14"
14395,commdev-image-keyboard-response,542,1508322,learnblock2,901,img/planet15_right.png,15,Community 3,NA,FALSE,f,j,NA,NA,NA,7,6,"3,8,7,2,12,6,11,13,1,10,15,9,4,5,14"
14395,commdev-image-keyboard-response,543,1509573,learnblock2,500,img/planet14_left.png,14,Community 3,NA,TRUE,f,f,NA,NA,NA,7,6,"3,8,7,2,12,6,11,13,1,10,15,9,4,5,14"
14395,commdev-image-keyboard-response,544,1510824,learnblock2,147,img/planet15_right.png,15,Community 3,NA,FALSE,f,j,NA,NA,NA,7,6,"3,8,7,2,12,6,11,13,1,10,15,9,4,5,14"
14395,commdev-image-keyboard-response,545,1512075,learnblock2,251.00000000023283,img/planet12_right.png,12,Community 1,NA,TRUE,j,j,NA,NA,NA,7,6,"3,8,7,2,12,6,11,13,1,10,15,9,4,5,14"
14395,commdev-image-keyboard-response,546,1513326,learnblock2,159.99999999976717,img/planet7_right.png,7,Community 1,NA,FALSE,f,j,NA,NA,NA,7,6,"3,8,7,2,12,6,11,13,1,10,15,9,4,5,14"
14395,commdev-image-keyboard-response,547,1514577,learnblock2,341,img/planet2_right.png,2,Community 1,NA,FALSE,f,j,NA,NA,NA,7,6,"3,8,7,2,12,6,11,13,1,10,15,9,4,5,14"
14395,commdev-image-keyboard-response,548,1515828,learnblock2,262,img/planet7_right.png,7,Community 1,NA,TRUE,j,j,NA,NA,NA,7,6,"3,8,7,2,12,6,11,13,1,10,15,9,4,5,14"
14395,commdev-image-keyboard-response,549,1517079,learnblock2,75.00000000023283,img/planet3_right.png,3,Community 1,NA,FALSE,f,j,NA,NA,NA,7,6,"3,8,7,2,12,6,11,13,1,10,15,9,4,5,14"
14395,commdev-image-keyboard-response,550,1518330,learnblock2,66,img/planet7_left.png,7,Community 1,NA,FALSE,j,f,NA,NA,NA,7,6,"3,8,7,2,12,6,11,13,1,10,15,9,4,5,14"
14395,commdev-image-keyboard-response,551,1519582,learnblock2,233,img/planet8_right.png,8,Community 1,NA,FALSE,f,j,NA,NA,NA,7,6,"3,8,7,2,12,6,11,13,1,10,15,9,4,5,14"
14395,commdev-image-keyboard-response,552,1520835,learnblock2,null,img/planet3_left.png,3,Community 1,NA,FALSE,null,f,NA,NA,NA,7,6,"3,8,7,2,12,6,11,13,1,10,15,9,4,5,14"
14395,commdev-image-keyboard-response,553,1522087,learnblock2,null,img/planet7_right.png,7,Community 1,NA,FALSE,null,j,NA,NA,NA,7,6,"3,8,7,2,12,6,11,13,1,10,15,9,4,5,14"
14395,commdev-image-keyboard-response,554,1523339,learnblock2,954,img/planet3_left.png,3,Community 1,NA,FALSE,j,f,NA,NA,NA,7,6,"3,8,7,2,12,6,11,13,1,10,15,9,4,5,14"
14395,commdev-image-keyboard-response,555,1524590,learnblock2,null,img/planet8_right.png,8,Community 1,NA,FALSE,null,j,NA,NA,NA,7,6,"3,8,7,2,12,6,11,13,1,10,15,9,4,5,14"
14395,commdev-image-keyboard-response,556,1525841,learnblock2,null,img/planet3_left.png,3,Community 1,NA,FALSE,null,f,NA,NA,NA,7,6,"3,8,7,2,12,6,11,13,1,10,15,9,4,5,14"
14395,commdev-image-keyboard-response,557,1527092,learnblock2,null,img/planet8_right.png,8,Community 1,NA,FALSE,null,j,NA,NA,NA,7,6,"3,8,7,2,12,6,11,13,1,10,15,9,4,5,14"
14395,commdev-image-keyboard-response,558,1528344,learnblock2,null,img/planet7_right.png,7,Community 1,NA,FALSE,null,j,NA,NA,NA,7,6,"3,8,7,2,12,6,11,13,1,10,15,9,4,5,14"
14395,commdev-image-keyboard-response,559,1529596,learnblock2,null,img/planet12_left.png,12,Community 1,NA,FALSE,null,f,NA,NA,NA,7,6,"3,8,7,2,12,6,11,13,1,10,15,9,4,5,14"
14395,commdev-image-keyboard-response,560,1530848,learnblock2,null,img/planet7_right.png,7,Community 1,NA,FALSE,null,j,NA,NA,NA,7,6,"3,8,7,2,12,6,11,13,1,10,15,9,4,5,14"
14395,commdev-image-keyboard-response,561,1532099,learnblock2,null,img/planet12_left.png,12,Community 1,NA,FALSE,null,f,NA,NA,NA,7,6,"3,8,7,2,12,6,11,13,1,10,15,9,4,5,14"
14395,commdev-image-keyboard-response,562,1533351,learnblock2,null,img/planet3_left.png,3,Community 1,NA,FALSE,null,f,NA,NA,NA,7,6,"3,8,7,2,12,6,11,13,1,10,15,9,4,5,14"
14395,commdev-image-keyboard-response,563,1534603,learnblock2,null,img/planet8_left.png,8,Community 1,NA,FALSE,null,f,NA,NA,NA,7,6,"3,8,7,2,12,6,11,13,1,10,15,9,4,5,14"
14395,commdev-image-keyboard-response,564,1535854,learnblock2,1131,img/planet2_right.png,2,Community 1,NA,TRUE,j,j,NA,NA,NA,7,6,"3,8,7,2,12,6,11,13,1,10,15,9,4,5,14"
14395,commdev-image-keyboard-response,565,1537105,learnblock2,758.0000000002328,img/planet7_left.png,7,Community 1,NA,FALSE,j,f,NA,NA,NA,7,6,"3,8,7,2,12,6,11,13,1,10,15,9,4,5,14"
14395,commdev-image-keyboard-response,566,1538356,learnblock2,348,img/planet3_left.png,3,Community 1,NA,FALSE,j,f,NA,NA,NA,7,6,"3,8,7,2,12,6,11,13,1,10,15,9,4,5,14"
14395,commdev-image-keyboard-response,567,1539609,learnblock2,197.00000000023283,img/planet2_left.png,2,Community 1,NA,TRUE,f,f,NA,NA,NA,7,6,"3,8,7,2,12,6,11,13,1,10,15,9,4,5,14"
14395,commdev-image-keyboard-response,568,1540861,learnblock2,380,img/planet7_right.png,7,Community 1,NA,TRUE,j,j,NA,NA,NA,7,6,"3,8,7,2,12,6,11,13,1,10,15,9,4,5,14"
14395,commdev-image-keyboard-response,569,1542112,learnblock2,218,img/planet2_right.png,2,Community 1,NA,TRUE,j,j,NA,NA,NA,7,6,"3,8,7,2,12,6,11,13,1,10,15,9,4,5,14"
14395,commdev-image-keyboard-response,570,1543364,learnblock2,579.9999999997672,img/planet3_right.png,3,Community 1,NA,FALSE,f,j,NA,NA,NA,7,6,"3,8,7,2,12,6,11,13,1,10,15,9,4,5,14"
14395,commdev-image-keyboard-response,571,1544617,learnblock2,526.0000000002328,img/planet2_left.png,2,Community 1,NA,FALSE,j,f,NA,NA,NA,7,6,"3,8,7,2,12,6,11,13,1,10,15,9,4,5,14"
14395,commdev-image-keyboard-response,572,1545870,learnblock2,259,img/planet3_left.png,3,Community 1,NA,FALSE,j,f,NA,NA,NA,7,6,"3,8,7,2,12,6,11,13,1,10,15,9,4,5,14"
14395,commdev-image-keyboard-response,573,1547122,learnblock2,null,img/planet12_left.png,12,Community 1,NA,FALSE,null,f,NA,NA,NA,7,6,"3,8,7,2,12,6,11,13,1,10,15,9,4,5,14"
14395,commdev-image-keyboard-response,574,1548373,learnblock2,721,img/planet7_right.png,7,Community 1,NA,TRUE,j,j,NA,NA,NA,7,6,"3,8,7,2,12,6,11,13,1,10,15,9,4,5,14"
14395,commdev-image-keyboard-response,575,1549625,learnblock2,62,img/planet8_right.png,8,Community 1,NA,TRUE,j,j,NA,NA,NA,7,6,"3,8,7,2,12,6,11,13,1,10,15,9,4,5,14"
14395,commdev-image-keyboard-response,576,1550876,learnblock2,425,img/planet3_left.png,3,Community 1,NA,TRUE,f,f,NA,NA,NA,7,6,"3,8,7,2,12,6,11,13,1,10,15,9,4,5,14"
14395,commdev-image-keyboard-response,577,1552128,learnblock2,54.00000000023283,img/planet7_right.png,7,Community 1,NA,FALSE,f,j,NA,NA,NA,7,6,"3,8,7,2,12,6,11,13,1,10,15,9,4,5,14"
14395,commdev-image-keyboard-response,578,1553380,learnblock2,413,img/planet2_left.png,2,Community 1,NA,TRUE,f,f,NA,NA,NA,7,6,"3,8,7,2,12,6,11,13,1,10,15,9,4,5,14"
14395,commdev-image-keyboard-response,579,1554631,learnblock2,248,img/planet6_left.png,6,Community 2,NA,TRUE,f,f,NA,NA,NA,7,6,"3,8,7,2,12,6,11,13,1,10,15,9,4,5,14"
14395,commdev-image-keyboard-response,580,1555882,learnblock2,212,img/planet1_left.png,1,Community 2,NA,TRUE,f,f,NA,NA,NA,7,6,"3,8,7,2,12,6,11,13,1,10,15,9,4,5,14"
14395,commdev-image-keyboard-response,581,1557134,learnblock2,125,img/planet11_right.png,11,Community 2,NA,FALSE,f,j,NA,NA,NA,7,6,"3,8,7,2,12,6,11,13,1,10,15,9,4,5,14"
14395,commdev-image-keyboard-response,582,1558386,learnblock2,94.00000000023283,img/planet10_right.png,10,Community 2,NA,FALSE,f,j,NA,NA,NA,7,6,"3,8,7,2,12,6,11,13,1,10,15,9,4,5,14"
14395,commdev-image-keyboard-response,583,1559637,learnblock2,279,img/planet11_left.png,11,Community 2,NA,FALSE,j,f,NA,NA,NA,7,6,"3,8,7,2,12,6,11,13,1,10,15,9,4,5,14"
14395,commdev-image-keyboard-response,584,1560888,learnblock2,396,img/planet10_left.png,10,Community 2,NA,TRUE,f,f,NA,NA,NA,7,6,"3,8,7,2,12,6,11,13,1,10,15,9,4,5,14"
14395,commdev-image-keyboard-response,585,1562139,learnblock2,49,img/planet6_left.png,6,Community 2,NA,FALSE,j,f,NA,NA,NA,7,6,"3,8,7,2,12,6,11,13,1,10,15,9,4,5,14"
14395,commdev-image-keyboard-response,586,1563391,learnblock2,null,img/planet2_right.png,2,Community 1,NA,FALSE,null,j,NA,NA,NA,7,6,"3,8,7,2,12,6,11,13,1,10,15,9,4,5,14"
14395,commdev-image-keyboard-response,587,1564644,learnblock2,null,img/planet7_right.png,7,Community 1,NA,FALSE,null,j,NA,NA,NA,7,6,"3,8,7,2,12,6,11,13,1,10,15,9,4,5,14"
14395,commdev-image-keyboard-response,588,1565898,learnblock2,null,img/planet3_right.png,3,Community 1,NA,FALSE,null,j,NA,NA,NA,7,6,"3,8,7,2,12,6,11,13,1,10,15,9,4,5,14"
14395,commdev-image-keyboard-response,589,1567149,learnblock2,null,img/planet2_right.png,2,Community 1,NA,FALSE,null,j,NA,NA,NA,7,6,"3,8,7,2,12,6,11,13,1,10,15,9,4,5,14"
14395,commdev-image-keyboard-response,590,1568401,learnblock2,null,img/planet8_left.png,8,Community 1,NA,FALSE,null,f,NA,NA,NA,7,6,"3,8,7,2,12,6,11,13,1,10,15,9,4,5,14"
14395,commdev-image-keyboard-response,591,1569654,learnblock2,null,img/planet7_left.png,7,Community 1,NA,FALSE,null,f,NA,NA,NA,7,6,"3,8,7,2,12,6,11,13,1,10,15,9,4,5,14"
14395,commdev-image-keyboard-response,592,1570905,learnblock2,958.0000000002328,img/planet2_left.png,2,Community 1,NA,FALSE,j,f,NA,NA,NA,7,6,"3,8,7,2,12,6,11,13,1,10,15,9,4,5,14"
14395,commdev-image-keyboard-response,593,1572157,learnblock2,883,img/planet8_right.png,8,Community 1,NA,TRUE,j,j,NA,NA,NA,7,6,"3,8,7,2,12,6,11,13,1,10,15,9,4,5,14"
14395,commdev-image-keyboard-response,594,1573409,learnblock2,359.00000000023283,img/planet7_right.png,7,Community 1,NA,FALSE,f,j,NA,NA,NA,7,6,"3,8,7,2,12,6,11,13,1,10,15,9,4,5,14"
14395,commdev-image-keyboard-response,595,1574660,learnblock2,49.00000000023283,img/planet2_left.png,2,Community 1,NA,TRUE,f,f,NA,NA,NA,7,6,"3,8,7,2,12,6,11,13,1,10,15,9,4,5,14"
14395,commdev-image-keyboard-response,596,1575913,learnblock2,562,img/planet3_left.png,3,Community 1,NA,TRUE,f,f,NA,NA,NA,7,6,"3,8,7,2,12,6,11,13,1,10,15,9,4,5,14"
14395,commdev-image-keyboard-response,597,1577165,learnblock2,238,img/planet7_right.png,7,Community 1,NA,FALSE,f,j,NA,NA,NA,7,6,"3,8,7,2,12,6,11,13,1,10,15,9,4,5,14"
14395,commdev-image-keyboard-response,598,1578417,learnblock2,437.00000000023283,img/planet2_right.png,2,Community 1,NA,FALSE,f,j,NA,NA,NA,7,6,"3,8,7,2,12,6,11,13,1,10,15,9,4,5,14"
14395,commdev-image-keyboard-response,599,1579669,learnblock2,241,img/planet6_left.png,6,Community 2,NA,TRUE,f,f,NA,NA,NA,7,6,"3,8,7,2,12,6,11,13,1,10,15,9,4,5,14"
14395,commdev-image-keyboard-response,600,1580921,learnblock2,260,img/planet11_left.png,11,Community 2,NA,TRUE,f,f,NA,NA,NA,7,6,"3,8,7,2,12,6,11,13,1,10,15,9,4,5,14"
14395,commdev-image-keyboard-response,601,1582172,learnblock2,707,img/planet1_right.png,1,Community 2,NA,TRUE,j,j,NA,NA,NA,7,6,"3,8,7,2,12,6,11,13,1,10,15,9,4,5,14"
14395,commdev-image-keyboard-response,602,1583424,learnblock2,505,img/planet10_left.png,10,Community 2,NA,FALSE,j,f,NA,NA,NA,7,6,"3,8,7,2,12,6,11,13,1,10,15,9,4,5,14"
14395,commdev-image-keyboard-response,603,1584676,learnblock2,438,img/planet11_left.png,11,Community 2,NA,FALSE,j,f,NA,NA,NA,7,6,"3,8,7,2,12,6,11,13,1,10,15,9,4,5,14"
14395,commdev-image-keyboard-response,604,1585928,learnblock2,13,img/planet10_right.png,10,Community 2,NA,FALSE,f,j,NA,NA,NA,7,6,"3,8,7,2,12,6,11,13,1,10,15,9,4,5,14"
14395,commdev-image-keyboard-response,605,1587180,learnblock2,46,img/planet1_right.png,1,Community 2,NA,TRUE,j,j,NA,NA,NA,7,6,"3,8,7,2,12,6,11,13,1,10,15,9,4,5,14"
14395,commdev-image-keyboard-response,606,1588432,learnblock2,549.9999999997672,img/planet10_right.png,10,Community 2,NA,TRUE,j,j,NA,NA,NA,7,6,"3,8,7,2,12,6,11,13,1,10,15,9,4,5,14"
14395,commdev-image-keyboard-response,607,1589683,learnblock2,541,img/planet1_left.png,1,Community 2,NA,TRUE,f,f,NA,NA,NA,7,6,"3,8,7,2,12,6,11,13,1,10,15,9,4,5,14"
14395,commdev-image-keyboard-response,608,1590934,learnblock2,514,img/planet13_left.png,13,Community 2,NA,FALSE,j,f,NA,NA,NA,7,6,"3,8,7,2,12,6,11,13,1,10,15,9,4,5,14"
14395,commdev-image-keyboard-response,609,1592185,learnblock2,50,img/planet1_left.png,1,Community 2,NA,TRUE,f,f,NA,NA,NA,7,6,"3,8,7,2,12,6,11,13,1,10,15,9,4,5,14"
14395,commdev-image-keyboard-response,610,1593437,learnblock2,596,img/planet10_right.png,10,Community 2,NA,FALSE,f,j,NA,NA,NA,7,6,"3,8,7,2,12,6,11,13,1,10,15,9,4,5,14"
14395,commdev-image-keyboard-response,611,1594690,learnblock2,368,img/planet6_right.png,6,Community 2,NA,TRUE,j,j,NA,NA,NA,7,6,"3,8,7,2,12,6,11,13,1,10,15,9,4,5,14"
14395,commdev-image-keyboard-response,612,1595941,learnblock2,161,img/planet2_left.png,2,Community 1,NA,FALSE,j,f,NA,NA,NA,7,6,"3,8,7,2,12,6,11,13,1,10,15,9,4,5,14"
14395,commdev-image-keyboard-response,613,1597192,learnblock2,478.00000000023283,img/planet7_right.png,7,Community 1,NA,FALSE,f,j,NA,NA,NA,7,6,"3,8,7,2,12,6,11,13,1,10,15,9,4,5,14"
14395,commdev-image-keyboard-response,614,1598443,learnblock2,125,img/planet8_right.png,8,Community 1,NA,TRUE,j,j,NA,NA,NA,7,6,"3,8,7,2,12,6,11,13,1,10,15,9,4,5,14"
14395,commdev-image-keyboard-response,615,1599694,learnblock2,276,img/planet2_left.png,2,Community 1,NA,FALSE,j,f,NA,NA,NA,7,6,"3,8,7,2,12,6,11,13,1,10,15,9,4,5,14"
14395,commdev-image-keyboard-response,616,1600946,learnblock2,25,img/planet7_left.png,7,Community 1,NA,TRUE,f,f,NA,NA,NA,7,6,"3,8,7,2,12,6,11,13,1,10,15,9,4,5,14"
14395,commdev-image-keyboard-response,617,1602199,learnblock2,273,img/planet3_right.png,3,Community 1,NA,FALSE,f,j,NA,NA,NA,7,6,"3,8,7,2,12,6,11,13,1,10,15,9,4,5,14"
14395,commdev-image-keyboard-response,618,1603451,learnblock2,null,img/planet2_left.png,2,Community 1,NA,FALSE,null,f,NA,NA,NA,7,6,"3,8,7,2,12,6,11,13,1,10,15,9,4,5,14"
14395,commdev-image-keyboard-response,619,1604703,learnblock2,820,img/planet7_left.png,7,Community 1,NA,FALSE,j,f,NA,NA,NA,7,6,"3,8,7,2,12,6,11,13,1,10,15,9,4,5,14"
14395,commdev-image-keyboard-response,620,1605954,learnblock2,1222,img/planet2_left.png,2,Community 1,NA,TRUE,f,f,NA,NA,NA,7,6,"3,8,7,2,12,6,11,13,1,10,15,9,4,5,14"
14395,commdev-image-keyboard-response,621,1607205,learnblock2,953,img/planet3_right.png,3,Community 1,NA,TRUE,j,j,NA,NA,NA,7,6,"3,8,7,2,12,6,11,13,1,10,15,9,4,5,14"
14395,commdev-image-keyboard-response,622,1608458,learnblock2,null,img/planet2_right.png,2,Community 1,NA,FALSE,null,j,NA,NA,NA,7,6,"3,8,7,2,12,6,11,13,1,10,15,9,4,5,14"
14395,commdev-image-keyboard-response,623,1609710,learnblock2,null,img/planet6_left.png,6,Community 2,NA,FALSE,null,f,NA,NA,NA,7,6,"3,8,7,2,12,6,11,13,1,10,15,9,4,5,14"
14395,commdev-image-keyboard-response,624,1610962,learnblock2,202,img/planet11_left.png,11,Community 2,NA,FALSE,j,f,NA,NA,NA,7,6,"3,8,7,2,12,6,11,13,1,10,15,9,4,5,14"
14395,commdev-image-keyboard-response,625,1612215,learnblock2,null,img/planet10_right.png,10,Community 2,NA,FALSE,null,j,NA,NA,NA,7,6,"3,8,7,2,12,6,11,13,1,10,15,9,4,5,14"
14395,commdev-image-keyboard-response,626,1613466,learnblock2,null,img/planet11_left.png,11,Community 2,NA,FALSE,null,f,NA,NA,NA,7,6,"3,8,7,2,12,6,11,13,1,10,15,9,4,5,14"
14395,commdev-image-keyboard-response,627,1614718,learnblock2,701,img/planet10_right.png,10,Community 2,NA,TRUE,j,j,NA,NA,NA,7,6,"3,8,7,2,12,6,11,13,1,10,15,9,4,5,14"
14395,commdev-image-keyboard-response,628,1615970,learnblock2,null,img/planet1_right.png,1,Community 2,NA,FALSE,null,j,NA,NA,NA,7,6,"3,8,7,2,12,6,11,13,1,10,15,9,4,5,14"
14395,commdev-image-keyboard-response,629,1617222,learnblock2,null,img/planet6_left.png,6,Community 2,NA,FALSE,null,f,NA,NA,NA,7,6,"3,8,7,2,12,6,11,13,1,10,15,9,4,5,14"
14395,commdev-image-keyboard-response,630,1618473,learnblock2,null,img/planet11_right.png,11,Community 2,NA,FALSE,null,j,NA,NA,NA,7,6,"3,8,7,2,12,6,11,13,1,10,15,9,4,5,14"
14395,commdev-image-keyboard-response,631,1619725,learnblock2,228,img/planet6_left.png,6,Community 2,NA,FALSE,j,f,NA,NA,NA,7,6,"3,8,7,2,12,6,11,13,1,10,15,9,4,5,14"
14395,commdev-image-keyboard-response,632,1620977,learnblock2,null,img/planet11_left.png,11,Community 2,NA,FALSE,null,f,NA,NA,NA,7,6,"3,8,7,2,12,6,11,13,1,10,15,9,4,5,14"
14395,commdev-image-keyboard-response,633,1622229,learnblock2,null,img/planet6_left.png,6,Community 2,NA,FALSE,null,f,NA,NA,NA,7,6,"3,8,7,2,12,6,11,13,1,10,15,9,4,5,14"
14395,commdev-image-keyboard-response,634,1623481,learnblock2,935,img/planet11_right.png,11,Community 2,NA,TRUE,j,j,NA,NA,NA,7,6,"3,8,7,2,12,6,11,13,1,10,15,9,4,5,14"
14395,commdev-image-keyboard-response,635,1624733,learnblock2,878,img/planet6_left.png,6,Community 2,NA,TRUE,f,f,NA,NA,NA,7,6,"3,8,7,2,12,6,11,13,1,10,15,9,4,5,14"
14395,commdev-image-keyboard-response,636,1625984,learnblock2,881,img/planet1_left.png,1,Community 2,NA,TRUE,f,f,NA,NA,NA,7,6,"3,8,7,2,12,6,11,13,1,10,15,9,4,5,14"
14395,commdev-image-keyboard-response,637,1627235,learnblock2,31.00000000023283,img/planet10_right.png,10,Community 2,NA,TRUE,j,j,NA,NA,NA,7,6,"3,8,7,2,12,6,11,13,1,10,15,9,4,5,14"
14395,commdev-image-keyboard-response,638,1628487,learnblock2,72,img/planet13_right.png,13,Community 2,NA,FALSE,f,j,NA,NA,NA,7,6,"3,8,7,2,12,6,11,13,1,10,15,9,4,5,14"
14395,commdev-image-keyboard-response,639,1629739,learnblock2,1172,img/planet10_left.png,10,Community 2,NA,TRUE,f,f,NA,NA,NA,7,6,"3,8,7,2,12,6,11,13,1,10,15,9,4,5,14"
14395,commdev-image-keyboard-response,640,1630991,learnblock2,null,img/planet1_left.png,1,Community 2,NA,FALSE,null,f,NA,NA,NA,7,6,"3,8,7,2,12,6,11,13,1,10,15,9,4,5,14"
14395,commdev-image-keyboard-response,641,1632242,learnblock2,null,img/planet11_left.png,11,Community 2,NA,FALSE,null,f,NA,NA,NA,7,6,"3,8,7,2,12,6,11,13,1,10,15,9,4,5,14"
14395,commdev-image-keyboard-response,642,1633494,learnblock2,599,img/planet13_left.png,13,Community 2,NA,TRUE,f,f,NA,NA,NA,7,6,"3,8,7,2,12,6,11,13,1,10,15,9,4,5,14"
14395,commdev-image-keyboard-response,643,1634747,learnblock2,13.99999999976717,img/planet9_left.png,9,Community 3,NA,TRUE,f,f,NA,NA,NA,7,6,"3,8,7,2,12,6,11,13,1,10,15,9,4,5,14"
14395,commdev-image-keyboard-response,644,1635999,learnblock2,708,img/planet4_left.png,4,Community 3,NA,FALSE,j,f,NA,NA,NA,7,6,"3,8,7,2,12,6,11,13,1,10,15,9,4,5,14"
14395,commdev-image-keyboard-response,645,1637250,learnblock2,null,img/planet15_left.png,15,Community 3,NA,FALSE,null,f,NA,NA,NA,7,6,"3,8,7,2,12,6,11,13,1,10,15,9,4,5,14"
14395,commdev-image-keyboard-response,646,1638502,learnblock2,198,img/planet14_left.png,14,Community 3,NA,TRUE,f,f,NA,NA,NA,7,6,"3,8,7,2,12,6,11,13,1,10,15,9,4,5,14"
14395,commdev-image-keyboard-response,647,1639754,learnblock2,null,img/planet9_left.png,9,Community 3,NA,FALSE,null,f,NA,NA,NA,7,6,"3,8,7,2,12,6,11,13,1,10,15,9,4,5,14"
14395,commdev-image-keyboard-response,648,1641007,learnblock2,null,img/planet4_left.png,4,Community 3,NA,FALSE,null,f,NA,NA,NA,7,6,"3,8,7,2,12,6,11,13,1,10,15,9,4,5,14"
14395,commdev-image-keyboard-response,649,1642259,learnblock2,284,img/planet14_left.png,14,Community 3,NA,FALSE,j,f,NA,NA,NA,7,6,"3,8,7,2,12,6,11,13,1,10,15,9,4,5,14"
14395,commdev-image-keyboard-response,650,1643512,learnblock2,null,img/planet9_right.png,9,Community 3,NA,FALSE,null,j,NA,NA,NA,7,6,"3,8,7,2,12,6,11,13,1,10,15,9,4,5,14"
14395,commdev-image-keyboard-response,651,1644763,learnblock2,803,img/planet5_left.png,5,Community 3,NA,FALSE,j,f,NA,NA,NA,7,6,"3,8,7,2,12,6,11,13,1,10,15,9,4,5,14"
14395,commdev-image-keyboard-response,652,1646014,learnblock2,263,img/planet14_left.png,14,Community 3,NA,TRUE,f,f,NA,NA,NA,7,6,"3,8,7,2,12,6,11,13,1,10,15,9,4,5,14"
14395,commdev-image-keyboard-response,653,1647266,learnblock2,null,img/planet9_left.png,9,Community 3,NA,FALSE,null,f,NA,NA,NA,7,6,"3,8,7,2,12,6,11,13,1,10,15,9,4,5,14"
14395,commdev-image-keyboard-response,654,1648518,learnblock2,229.00000000023283,img/planet5_left.png,5,Community 3,NA,FALSE,j,f,NA,NA,NA,7,6,"3,8,7,2,12,6,11,13,1,10,15,9,4,5,14"
14395,commdev-image-keyboard-response,655,1649770,learnblock2,null,img/planet9_right.png,9,Community 3,NA,FALSE,null,j,NA,NA,NA,7,6,"3,8,7,2,12,6,11,13,1,10,15,9,4,5,14"
14395,commdev-image-keyboard-response,656,1651021,learnblock2,353,img/planet4_right.png,4,Community 3,NA,TRUE,j,j,NA,NA,NA,7,6,"3,8,7,2,12,6,11,13,1,10,15,9,4,5,14"
14395,commdev-image-keyboard-response,657,1652273,learnblock2,346,img/planet14_left.png,14,Community 3,NA,FALSE,j,f,NA,NA,NA,7,6,"3,8,7,2,12,6,11,13,1,10,15,9,4,5,14"
14395,commdev-image-keyboard-response,658,1653525,learnblock2,42,img/planet9_left.png,9,Community 3,NA,TRUE,f,f,NA,NA,NA,7,6,"3,8,7,2,12,6,11,13,1,10,15,9,4,5,14"
14395,commdev-image-keyboard-response,659,1654776,learnblock2,33,img/planet13_right.png,13,Community 2,NA,TRUE,j,j,NA,NA,NA,7,6,"3,8,7,2,12,6,11,13,1,10,15,9,4,5,14"
14395,commdev-image-keyboard-response,660,1656027,learnblock2,157,img/planet10_left.png,10,Community 2,NA,FALSE,j,f,NA,NA,NA,7,6,"3,8,7,2,12,6,11,13,1,10,15,9,4,5,14"
14395,commdev-image-keyboard-response,661,1657280,learnblock2,null,img/planet13_right.png,13,Community 2,NA,FALSE,null,j,NA,NA,NA,7,6,"3,8,7,2,12,6,11,13,1,10,15,9,4,5,14"
14395,commdev-image-keyboard-response,662,1658534,learnblock2,null,img/planet9_left.png,9,Community 3,NA,FALSE,null,f,NA,NA,NA,7,6,"3,8,7,2,12,6,11,13,1,10,15,9,4,5,14"
14395,commdev-image-keyboard-response,663,1659786,learnblock2,null,img/planet5_right.png,5,Community 3,NA,FALSE,null,j,NA,NA,NA,7,6,"3,8,7,2,12,6,11,13,1,10,15,9,4,5,14"
14395,commdev-image-keyboard-response,664,1661037,learnblock2,null,img/planet9_right.png,9,Community 3,NA,FALSE,null,j,NA,NA,NA,7,6,"3,8,7,2,12,6,11,13,1,10,15,9,4,5,14"
14395,commdev-image-keyboard-response,665,1662289,learnblock2,null,img/planet14_right.png,14,Community 3,NA,FALSE,null,j,NA,NA,NA,7,6,"3,8,7,2,12,6,11,13,1,10,15,9,4,5,14"
14395,commdev-image-keyboard-response,666,1663542,learnblock2,null,img/planet9_left.png,9,Community 3,NA,FALSE,null,f,NA,NA,NA,7,6,"3,8,7,2,12,6,11,13,1,10,15,9,4,5,14"
14395,commdev-image-keyboard-response,667,1664793,learnblock2,278,img/planet5_left.png,5,Community 3,NA,FALSE,j,f,NA,NA,NA,7,6,"3,8,7,2,12,6,11,13,1,10,15,9,4,5,14"
14395,commdev-image-keyboard-response,668,1666044,learnblock2,418,img/planet14_left.png,14,Community 3,NA,TRUE,f,f,NA,NA,NA,7,6,"3,8,7,2,12,6,11,13,1,10,15,9,4,5,14"
14395,commdev-image-keyboard-response,669,1667297,learnblock2,162.00000000023283,img/planet4_right.png,4,Community 3,NA,FALSE,f,j,NA,NA,NA,7,6,"3,8,7,2,12,6,11,13,1,10,15,9,4,5,14"
14395,commdev-image-keyboard-response,670,1668549,learnblock2,null,img/planet15_right.png,15,Community 3,NA,FALSE,null,j,NA,NA,NA,7,6,"3,8,7,2,12,6,11,13,1,10,15,9,4,5,14"
14395,commdev-image-keyboard-response,671,1669801,learnblock2,502,img/planet12_right.png,12,Community 1,NA,TRUE,j,j,NA,NA,NA,7,6,"3,8,7,2,12,6,11,13,1,10,15,9,4,5,14"
14395,commdev-image-keyboard-response,672,1671053,learnblock2,63,img/planet8_right.png,8,Community 1,NA,FALSE,f,j,NA,NA,NA,7,6,"3,8,7,2,12,6,11,13,1,10,15,9,4,5,14"
14395,commdev-image-keyboard-response,673,1672304,learnblock2,270.99999999976717,img/planet2_left.png,2,Community 1,NA,FALSE,j,f,NA,NA,NA,7,6,"3,8,7,2,12,6,11,13,1,10,15,9,4,5,14"
14395,commdev-image-keyboard-response,674,1673556,learnblock2,null,img/planet7_left.png,7,Community 1,NA,FALSE,null,f,NA,NA,NA,7,6,"3,8,7,2,12,6,11,13,1,10,15,9,4,5,14"
14395,commdev-image-keyboard-response,675,1674809,learnblock2,null,img/planet8_left.png,8,Community 1,NA,FALSE,null,f,NA,NA,NA,7,6,"3,8,7,2,12,6,11,13,1,10,15,9,4,5,14"
14395,commdev-image-keyboard-response,676,1676060,learnblock2,null,img/planet3_left.png,3,Community 1,NA,FALSE,null,f,NA,NA,NA,7,6,"3,8,7,2,12,6,11,13,1,10,15,9,4,5,14"
14395,commdev-image-keyboard-response,677,1677311,learnblock2,null,img/planet12_left.png,12,Community 1,NA,FALSE,null,f,NA,NA,NA,7,6,"3,8,7,2,12,6,11,13,1,10,15,9,4,5,14"
14395,commdev-image-keyboard-response,678,1678563,learnblock2,null,img/planet3_right.png,3,Community 1,NA,FALSE,null,j,NA,NA,NA,7,6,"3,8,7,2,12,6,11,13,1,10,15,9,4,5,14"
14395,commdev-image-keyboard-response,679,1679816,learnblock2,null,img/planet2_right.png,2,Community 1,NA,FALSE,null,j,NA,NA,NA,7,6,"3,8,7,2,12,6,11,13,1,10,15,9,4,5,14"
14395,commdev-image-keyboard-response,680,1681067,learnblock2,null,img/planet8_left.png,8,Community 1,NA,FALSE,null,f,NA,NA,NA,7,6,"3,8,7,2,12,6,11,13,1,10,15,9,4,5,14"
14395,commdev-image-keyboard-response,681,1682319,learnblock2,null,img/planet3_left.png,3,Community 1,NA,FALSE,null,f,NA,NA,NA,7,6,"3,8,7,2,12,6,11,13,1,10,15,9,4,5,14"
14395,commdev-image-keyboard-response,682,1683570,learnblock2,null,img/planet8_left.png,8,Community 1,NA,FALSE,null,f,NA,NA,NA,7,6,"3,8,7,2,12,6,11,13,1,10,15,9,4,5,14"
14395,commdev-image-keyboard-response,683,1684822,learnblock2,null,img/planet12_left.png,12,Community 1,NA,FALSE,null,f,NA,NA,NA,7,6,"3,8,7,2,12,6,11,13,1,10,15,9,4,5,14"
14395,commdev-image-keyboard-response,684,1686073,learnblock2,23,img/planet8_left.png,8,Community 1,NA,FALSE,j,f,NA,NA,NA,7,6,"3,8,7,2,12,6,11,13,1,10,15,9,4,5,14"
14395,commdev-image-keyboard-response,685,1687327,learnblock2,468,img/planet7_right.png,7,Community 1,NA,TRUE,j,j,NA,NA,NA,7,6,"3,8,7,2,12,6,11,13,1,10,15,9,4,5,14"
14395,commdev-image-keyboard-response,686,1688578,learnblock2,320,img/planet2_left.png,2,Community 1,NA,TRUE,f,f,NA,NA,NA,7,6,"3,8,7,2,12,6,11,13,1,10,15,9,4,5,14"
14395,commdev-image-keyboard-response,687,1689830,learnblock2,368.00000000023283,img/planet8_right.png,8,Community 1,NA,TRUE,j,j,NA,NA,NA,7,6,"3,8,7,2,12,6,11,13,1,10,15,9,4,5,14"
14395,commdev-image-keyboard-response,688,1691083,learnblock2,null,img/planet12_right.png,12,Community 1,NA,FALSE,null,j,NA,NA,NA,7,6,"3,8,7,2,12,6,11,13,1,10,15,9,4,5,14"
14395,commdev-image-keyboard-response,689,1692334,learnblock2,null,img/planet8_left.png,8,Community 1,NA,FALSE,null,f,NA,NA,NA,7,6,"3,8,7,2,12,6,11,13,1,10,15,9,4,5,14"
14395,commdev-image-keyboard-response,690,1693586,learnblock2,null,img/planet2_left.png,2,Community 1,NA,FALSE,null,f,NA,NA,NA,7,6,"3,8,7,2,12,6,11,13,1,10,15,9,4,5,14"
14395,commdev-image-keyboard-response,691,1694838,learnblock2,null,img/planet3_right.png,3,Community 1,NA,FALSE,null,j,NA,NA,NA,7,6,"3,8,7,2,12,6,11,13,1,10,15,9,4,5,14"
14395,commdev-image-keyboard-response,692,1696092,learnblock2,null,img/planet7_right.png,7,Community 1,NA,FALSE,null,j,NA,NA,NA,7,6,"3,8,7,2,12,6,11,13,1,10,15,9,4,5,14"
14395,commdev-image-keyboard-response,693,1697344,learnblock2,1042,img/planet8_left.png,8,Community 1,NA,FALSE,j,f,NA,NA,NA,7,6,"3,8,7,2,12,6,11,13,1,10,15,9,4,5,14"
14395,commdev-image-keyboard-response,694,1698596,learnblock2,35.00000000023283,img/planet3_right.png,3,Community 1,NA,FALSE,f,j,NA,NA,NA,7,6,"3,8,7,2,12,6,11,13,1,10,15,9,4,5,14"
14395,commdev-image-keyboard-response,695,1699848,learnblock2,115,img/planet12_left.png,12,Community 1,NA,FALSE,j,f,NA,NA,NA,7,6,"3,8,7,2,12,6,11,13,1,10,15,9,4,5,14"
14395,commdev-image-keyboard-response,696,1701099,learnblock2,189,img/planet7_right.png,7,Community 1,NA,TRUE,j,j,NA,NA,NA,7,6,"3,8,7,2,12,6,11,13,1,10,15,9,4,5,14"
14395,commdev-image-keyboard-response,697,1702351,learnblock2,635.9999999997672,img/planet2_right.png,2,Community 1,NA,TRUE,j,j,NA,NA,NA,7,6,"3,8,7,2,12,6,11,13,1,10,15,9,4,5,14"
14395,commdev-image-keyboard-response,698,1703604,learnblock2,276,img/planet8_left.png,8,Community 1,NA,FALSE,j,f,NA,NA,NA,7,6,"3,8,7,2,12,6,11,13,1,10,15,9,4,5,14"
14395,commdev-image-keyboard-response,699,1704855,learnblock2,180,img/planet7_right.png,7,Community 1,NA,TRUE,j,j,NA,NA,NA,7,6,"3,8,7,2,12,6,11,13,1,10,15,9,4,5,14"
14395,commdev-image-keyboard-response,700,1706106,learnblock2,632,img/planet8_right.png,8,Community 1,NA,TRUE,j,j,NA,NA,NA,7,6,"3,8,7,2,12,6,11,13,1,10,15,9,4,5,14"
14395,commdev-image-keyboard-response,701,1707357,learnblock2,720,img/planet3_left.png,3,Community 1,NA,FALSE,j,f,NA,NA,NA,7,6,"3,8,7,2,12,6,11,13,1,10,15,9,4,5,14"
14395,commdev-image-keyboard-response,702,1708609,learnblock2,32,img/planet2_left.png,2,Community 1,NA,FALSE,j,f,NA,NA,NA,7,6,"3,8,7,2,12,6,11,13,1,10,15,9,4,5,14"
14395,commdev-image-keyboard-response,703,1709862,learnblock2,216.99999999976717,img/planet6_left.png,6,Community 2,NA,FALSE,j,f,NA,NA,NA,7,6,"3,8,7,2,12,6,11,13,1,10,15,9,4,5,14"
14395,commdev-image-keyboard-response,704,1711113,learnblock2,428,img/planet1_right.png,1,Community 2,NA,TRUE,j,j,NA,NA,NA,7,6,"3,8,7,2,12,6,11,13,1,10,15,9,4,5,14"
14395,commdev-image-keyboard-response,705,1712365,learnblock2,63.00000000023283,img/planet11_left.png,11,Community 2,NA,FALSE,j,f,NA,NA,NA,7,6,"3,8,7,2,12,6,11,13,1,10,15,9,4,5,14"
14395,commdev-image-keyboard-response,706,1713617,learnblock2,null,img/planet1_right.png,1,Community 2,NA,FALSE,null,j,NA,NA,NA,7,6,"3,8,7,2,12,6,11,13,1,10,15,9,4,5,14"
14395,commdev-image-keyboard-response,707,1714868,learnblock2,null,img/planet10_right.png,10,Community 2,NA,FALSE,null,j,NA,NA,NA,7,6,"3,8,7,2,12,6,11,13,1,10,15,9,4,5,14"
14395,commdev-image-keyboard-response,708,1716122,learnblock2,null,img/planet11_right.png,11,Community 2,NA,FALSE,null,j,NA,NA,NA,7,6,"3,8,7,2,12,6,11,13,1,10,15,9,4,5,14"
14395,commdev-image-keyboard-response,709,1717375,learnblock2,398,img/planet6_left.png,6,Community 2,NA,TRUE,f,f,NA,NA,NA,7,6,"3,8,7,2,12,6,11,13,1,10,15,9,4,5,14"
14395,commdev-image-keyboard-response,710,1718627,learnblock2,983,img/planet2_left.png,2,Community 1,NA,FALSE,j,f,NA,NA,NA,7,6,"3,8,7,2,12,6,11,13,1,10,15,9,4,5,14"
14395,commdev-image-keyboard-response,711,1719878,learnblock2,407,img/planet7_right.png,7,Community 1,NA,TRUE,j,j,NA,NA,NA,7,6,"3,8,7,2,12,6,11,13,1,10,15,9,4,5,14"
14395,commdev-image-keyboard-response,712,1721130,learnblock2,null,img/planet3_right.png,3,Community 1,NA,FALSE,null,j,NA,NA,NA,7,6,"3,8,7,2,12,6,11,13,1,10,15,9,4,5,14"
14395,commdev-image-keyboard-response,713,1722383,learnblock2,null,img/planet8_left.png,8,Community 1,NA,FALSE,null,f,NA,NA,NA,7,6,"3,8,7,2,12,6,11,13,1,10,15,9,4,5,14"
14395,commdev-image-keyboard-response,714,1723634,learnblock2,679,img/planet2_right.png,2,Community 1,NA,FALSE,f,j,NA,NA,NA,7,6,"3,8,7,2,12,6,11,13,1,10,15,9,4,5,14"
14395,commdev-image-keyboard-response,715,1724887,learnblock2,22.00000000023283,img/planet7_left.png,7,Community 1,NA,TRUE,f,f,NA,NA,NA,7,6,"3,8,7,2,12,6,11,13,1,10,15,9,4,5,14"
14395,commdev-image-keyboard-response,716,1726139,learnblock2,141,img/planet3_right.png,3,Community 1,NA,TRUE,j,j,NA,NA,NA,7,6,"3,8,7,2,12,6,11,13,1,10,15,9,4,5,14"
14395,commdev-image-keyboard-response,717,1727391,learnblock2,501,img/planet2_right.png,2,Community 1,NA,TRUE,j,j,NA,NA,NA,7,6,"3,8,7,2,12,6,11,13,1,10,15,9,4,5,14"
14395,commdev-image-keyboard-response,718,1728643,learnblock2,471,img/planet3_right.png,3,Community 1,NA,TRUE,j,j,NA,NA,NA,7,6,"3,8,7,2,12,6,11,13,1,10,15,9,4,5,14"
14395,commdev-image-keyboard-response,719,1729894,learnblock2,1154,img/planet2_right.png,2,Community 1,NA,TRUE,j,j,NA,NA,NA,7,6,"3,8,7,2,12,6,11,13,1,10,15,9,4,5,14"
14395,commdev-image-keyboard-response,720,1731147,learnblock2,119,img/planet3_left.png,3,Community 1,NA,TRUE,f,f,NA,NA,NA,7,6,"3,8,7,2,12,6,11,13,1,10,15,9,4,5,14"
14395,commdev-image-keyboard-response,721,1732399,learnblock2,6.999999999767169,img/planet7_right.png,7,Community 1,NA,TRUE,j,j,NA,NA,NA,7,6,"3,8,7,2,12,6,11,13,1,10,15,9,4,5,14"
14395,commdev-image-keyboard-response,722,1733650,learnblock2,472,img/planet2_left.png,2,Community 1,NA,FALSE,j,f,NA,NA,NA,7,6,"3,8,7,2,12,6,11,13,1,10,15,9,4,5,14"
14395,commdev-image-keyboard-response,723,1734901,learnblock2,null,img/planet8_right.png,8,Community 1,NA,FALSE,null,j,NA,NA,NA,7,6,"3,8,7,2,12,6,11,13,1,10,15,9,4,5,14"
14395,commdev-image-keyboard-response,724,1736152,learnblock2,null,img/planet3_right.png,3,Community 1,NA,FALSE,null,j,NA,NA,NA,7,6,"3,8,7,2,12,6,11,13,1,10,15,9,4,5,14"
14395,commdev-image-keyboard-response,725,1737404,learnblock2,null,img/planet7_right.png,7,Community 1,NA,FALSE,null,j,NA,NA,NA,7,6,"3,8,7,2,12,6,11,13,1,10,15,9,4,5,14"
14395,commdev-image-keyboard-response,726,1738656,learnblock2,null,img/planet2_left.png,2,Community 1,NA,FALSE,null,f,NA,NA,NA,7,6,"3,8,7,2,12,6,11,13,1,10,15,9,4,5,14"
14395,commdev-image-keyboard-response,727,1739908,learnblock2,null,img/planet3_right.png,3,Community 1,NA,FALSE,null,j,NA,NA,NA,7,6,"3,8,7,2,12,6,11,13,1,10,15,9,4,5,14"
14395,commdev-image-keyboard-response,728,1741159,learnblock2,null,img/planet12_left.png,12,Community 1,NA,FALSE,null,f,NA,NA,NA,7,6,"3,8,7,2,12,6,11,13,1,10,15,9,4,5,14"
14395,commdev-image-keyboard-response,729,1742411,learnblock2,null,img/planet15_right.png,15,Community 3,NA,FALSE,null,j,NA,NA,NA,7,6,"3,8,7,2,12,6,11,13,1,10,15,9,4,5,14"
14395,commdev-image-keyboard-response,730,1743663,learnblock2,null,img/planet4_right.png,4,Community 3,NA,FALSE,null,j,NA,NA,NA,7,6,"3,8,7,2,12,6,11,13,1,10,15,9,4,5,14"
14395,commdev-image-keyboard-response,731,1744914,learnblock2,null,img/planet14_left.png,14,Community 3,NA,FALSE,null,f,NA,NA,NA,7,6,"3,8,7,2,12,6,11,13,1,10,15,9,4,5,14"
14395,commdev-image-keyboard-response,732,1746168,learnblock2,null,img/planet9_left.png,9,Community 3,NA,FALSE,null,f,NA,NA,NA,7,6,"3,8,7,2,12,6,11,13,1,10,15,9,4,5,14"
14395,commdev-image-keyboard-response,733,1747419,learnblock2,null,img/planet5_left.png,5,Community 3,NA,FALSE,null,f,NA,NA,NA,7,6,"3,8,7,2,12,6,11,13,1,10,15,9,4,5,14"
14395,commdev-image-keyboard-response,734,1748672,learnblock2,null,img/planet9_left.png,9,Community 3,NA,FALSE,null,f,NA,NA,NA,7,6,"3,8,7,2,12,6,11,13,1,10,15,9,4,5,14"
14395,commdev-image-keyboard-response,735,1749925,learnblock2,null,img/planet13_left.png,13,Community 2,NA,FALSE,null,f,NA,NA,NA,7,6,"3,8,7,2,12,6,11,13,1,10,15,9,4,5,14"
14395,commdev-image-keyboard-response,736,1751177,learnblock2,null,img/planet9_left.png,9,Community 3,NA,FALSE,null,f,NA,NA,NA,7,6,"3,8,7,2,12,6,11,13,1,10,15,9,4,5,14"
14395,commdev-image-keyboard-response,737,1752429,learnblock2,null,img/planet13_left.png,13,Community 2,NA,FALSE,null,f,NA,NA,NA,7,6,"3,8,7,2,12,6,11,13,1,10,15,9,4,5,14"
14395,commdev-image-keyboard-response,738,1753682,learnblock2,null,img/planet10_left.png,10,Community 2,NA,FALSE,null,f,NA,NA,NA,7,6,"3,8,7,2,12,6,11,13,1,10,15,9,4,5,14"
14395,commdev-image-keyboard-response,739,1754934,learnblock2,null,img/planet6_left.png,6,Community 2,NA,FALSE,null,f,NA,NA,NA,7,6,"3,8,7,2,12,6,11,13,1,10,15,9,4,5,14"
14395,commdev-image-keyboard-response,740,1756186,learnblock2,null,img/planet1_left.png,1,Community 2,NA,FALSE,null,f,NA,NA,NA,7,6,"3,8,7,2,12,6,11,13,1,10,15,9,4,5,14"
14395,commdev-image-keyboard-response,741,1757438,learnblock2,null,img/planet10_right.png,10,Community 2,NA,FALSE,null,j,NA,NA,NA,7,6,"3,8,7,2,12,6,11,13,1,10,15,9,4,5,14"
14395,commdev-image-keyboard-response,742,1758689,learnblock2,null,img/planet11_right.png,11,Community 2,NA,FALSE,null,j,NA,NA,NA,7,6,"3,8,7,2,12,6,11,13,1,10,15,9,4,5,14"
14395,commdev-image-keyboard-response,743,1759941,learnblock2,null,img/planet13_left.png,13,Community 2,NA,FALSE,null,f,NA,NA,NA,7,6,"3,8,7,2,12,6,11,13,1,10,15,9,4,5,14"
14395,commdev-image-keyboard-response,744,1761193,learnblock2,null,img/planet10_right.png,10,Community 2,NA,FALSE,null,j,NA,NA,NA,7,6,"3,8,7,2,12,6,11,13,1,10,15,9,4,5,14"
14395,commdev-image-keyboard-response,745,1762445,learnblock2,null,img/planet6_right.png,6,Community 2,NA,FALSE,null,j,NA,NA,NA,7,6,"3,8,7,2,12,6,11,13,1,10,15,9,4,5,14"
14395,commdev-image-keyboard-response,746,1763696,learnblock2,null,img/planet11_left.png,11,Community 2,NA,FALSE,null,f,NA,NA,NA,7,6,"3,8,7,2,12,6,11,13,1,10,15,9,4,5,14"
14395,commdev-image-keyboard-response,747,1764947,learnblock2,null,img/planet1_left.png,1,Community 2,NA,FALSE,null,f,NA,NA,NA,7,6,"3,8,7,2,12,6,11,13,1,10,15,9,4,5,14"
14395,commdev-image-keyboard-response,748,1766198,learnblock2,null,img/planet6_left.png,6,Community 2,NA,FALSE,null,f,NA,NA,NA,7,6,"3,8,7,2,12,6,11,13,1,10,15,9,4,5,14"
14395,commdev-image-keyboard-response,749,1767450,learnblock2,null,img/planet2_left.png,2,Community 1,NA,FALSE,null,f,NA,NA,NA,7,6,"3,8,7,2,12,6,11,13,1,10,15,9,4,5,14"
14395,commdev-image-keyboard-response,750,1768703,learnblock2,null,img/planet6_right.png,6,Community 2,NA,FALSE,null,j,NA,NA,NA,7,6,"3,8,7,2,12,6,11,13,1,10,15,9,4,5,14"
14395,commdev-image-keyboard-response,751,1769954,learnblock2,null,img/planet1_right.png,1,Community 2,NA,FALSE,null,j,NA,NA,NA,7,6,"3,8,7,2,12,6,11,13,1,10,15,9,4,5,14"
14395,commdev-image-keyboard-response,752,1771208,learnblock2,null,img/planet6_right.png,6,Community 2,NA,FALSE,null,j,NA,NA,NA,7,6,"3,8,7,2,12,6,11,13,1,10,15,9,4,5,14"
14395,commdev-image-keyboard-response,753,1772460,learnblock2,null,img/planet10_right.png,10,Community 2,NA,FALSE,null,j,NA,NA,NA,7,6,"3,8,7,2,12,6,11,13,1,10,15,9,4,5,14"
14395,commdev-image-keyboard-response,754,1773712,learnblock2,null,img/planet13_right.png,13,Community 2,NA,FALSE,null,j,NA,NA,NA,7,6,"3,8,7,2,12,6,11,13,1,10,15,9,4,5,14"
14395,commdev-image-keyboard-response,755,1774964,learnblock2,null,img/planet11_left.png,11,Community 2,NA,FALSE,null,f,NA,NA,NA,7,6,"3,8,7,2,12,6,11,13,1,10,15,9,4,5,14"
14395,commdev-image-keyboard-response,756,1776216,learnblock2,null,img/planet6_left.png,6,Community 2,NA,FALSE,null,f,NA,NA,NA,7,6,"3,8,7,2,12,6,11,13,1,10,15,9,4,5,14"
14395,commdev-image-keyboard-response,757,1777468,learnblock2,null,img/planet10_right.png,10,Community 2,NA,FALSE,null,j,NA,NA,NA,7,6,"3,8,7,2,12,6,11,13,1,10,15,9,4,5,14"
14395,commdev-image-keyboard-response,758,1778719,learnblock2,null,img/planet1_left.png,1,Community 2,NA,FALSE,null,f,NA,NA,NA,7,6,"3,8,7,2,12,6,11,13,1,10,15,9,4,5,14"
14395,commdev-image-keyboard-response,759,1779972,learnblock2,null,img/planet11_right.png,11,Community 2,NA,FALSE,null,j,NA,NA,NA,7,6,"3,8,7,2,12,6,11,13,1,10,15,9,4,5,14"
14395,commdev-image-keyboard-response,760,1781224,learnblock2,null,img/planet13_right.png,13,Community 2,NA,FALSE,null,j,NA,NA,NA,7,6,"3,8,7,2,12,6,11,13,1,10,15,9,4,5,14"
14395,commdev-image-keyboard-response,761,1782476,learnblock2,null,img/planet1_right.png,1,Community 2,NA,FALSE,null,j,NA,NA,NA,7,6,"3,8,7,2,12,6,11,13,1,10,15,9,4,5,14"
14395,commdev-image-keyboard-response,762,1783729,learnblock2,null,img/planet13_right.png,13,Community 2,NA,FALSE,null,j,NA,NA,NA,7,6,"3,8,7,2,12,6,11,13,1,10,15,9,4,5,14"
14395,commdev-image-keyboard-response,763,1784980,learnblock2,null,img/planet9_right.png,9,Community 3,NA,FALSE,null,j,NA,NA,NA,7,6,"3,8,7,2,12,6,11,13,1,10,15,9,4,5,14"
14395,commdev-image-keyboard-response,764,1786231,learnblock2,null,img/planet5_left.png,5,Community 3,NA,FALSE,null,f,NA,NA,NA,7,6,"3,8,7,2,12,6,11,13,1,10,15,9,4,5,14"
14395,commdev-image-keyboard-response,765,1787483,learnblock2,null,img/planet4_left.png,4,Community 3,NA,FALSE,null,f,NA,NA,NA,7,6,"3,8,7,2,12,6,11,13,1,10,15,9,4,5,14"
14395,commdev-image-keyboard-response,766,1788734,learnblock2,null,img/planet14_left.png,14,Community 3,NA,FALSE,null,f,NA,NA,NA,7,6,"3,8,7,2,12,6,11,13,1,10,15,9,4,5,14"
14395,commdev-image-keyboard-response,767,1789986,learnblock2,null,img/planet15_left.png,15,Community 3,NA,FALSE,null,f,NA,NA,NA,7,6,"3,8,7,2,12,6,11,13,1,10,15,9,4,5,14"
14395,commdev-image-keyboard-response,768,1791237,learnblock2,null,img/planet5_left.png,5,Community 3,NA,FALSE,null,f,NA,NA,NA,7,6,"3,8,7,2,12,6,11,13,1,10,15,9,4,5,14"
14395,commdev-image-keyboard-response,769,1792489,learnblock2,null,img/planet14_right.png,14,Community 3,NA,FALSE,null,j,NA,NA,NA,7,6,"3,8,7,2,12,6,11,13,1,10,15,9,4,5,14"
14395,commdev-image-keyboard-response,770,1793740,learnblock2,null,img/planet5_left.png,5,Community 3,NA,FALSE,null,f,NA,NA,NA,7,6,"3,8,7,2,12,6,11,13,1,10,15,9,4,5,14"
14395,commdev-image-keyboard-response,771,1794992,learnblock2,null,img/planet4_right.png,4,Community 3,NA,FALSE,null,j,NA,NA,NA,7,6,"3,8,7,2,12,6,11,13,1,10,15,9,4,5,14"
14395,commdev-image-keyboard-response,772,1796244,learnblock2,null,img/planet15_left.png,15,Community 3,NA,FALSE,null,f,NA,NA,NA,7,6,"3,8,7,2,12,6,11,13,1,10,15,9,4,5,14"
14395,commdev-image-keyboard-response,773,1797496,learnblock2,null,img/planet12_right.png,12,Community 1,NA,FALSE,null,j,NA,NA,NA,7,6,"3,8,7,2,12,6,11,13,1,10,15,9,4,5,14"
