subject_id,trial_type,trial_index,time_elapsed,block,rt,stimulus,planet,community,response,correct,key_press,learning_correct_response,parse,init_locations,final_locations,browser_interactions,num_comp,planet_map
14825,commdev-instructions,7,43523,NA,1988.1000000238419,"<p>In this game, you will be shown a 3x3 grid of patterns.</p> <p>The last one in the bottom right-hand corner, <strong>will be missing:</strong></p> <div style='width: 700px;'><div style='float: top;'><img style='width: 200px;' src='practice/p1_M1.png'></img><p class='small'>You need to select<strong> which of the four possible patterns </strong>along the bottom<strong> fits into the gap:</strong></p></div><div style='float: top;'><img style='width: 300px;' src='practice/p1_T1.png'></img></div><br>",NA,NA,NA,NA,NA,NA,NA,NA,NA,1,7,"15,9,7,1,5,13,4,2,8,3,12,14,11,10,6"
14825,commdev-instructions,8,64418,NA,2149.100000023842,"<p>Try to be as fast and as accurate as you can be.</p> <p>If you cannot solve the puzzle then you should guess - you will not be penalised for an incorrect answer.</p> <p>The task contains a shuffled mix of easy, medium and hard puzzles.</p> <p>You will have <strong>30 seconds</strong> to complete each puzzle.</p><br>",NA,NA,NA,NA,NA,NA,NA,NA,NA,1,7,"15,9,7,1,5,13,4,2,8,3,12,14,11,10,6"
14825,commdev-instructions,17,98385,NA,2096,<p><strong>Success!</strong></p> <p>You seem to be getting the hang of this...</p> <p>Let's move on to the real trials.</p><br>,NA,NA,NA,NA,NA,NA,NA,NA,NA,1,7,"15,9,7,1,5,13,4,2,8,3,12,14,11,10,6"
14825,commdev-instructions,115,603648,NA,12447,"<p>In this game, you are a scientist on board a space shuttle. </p><p> On each mission, you will visit planets all across the universe.</p><img src=""img/controlroom.jpg"" width=300vw>",NA,NA,NA,NA,NA,NA,NA,NA,NA,1,7,"15,9,7,1,5,13,4,2,8,3,12,14,11,10,6"
14825,commdev-instructions,116,621101,NA,15368.199999928474,"<p>Here are a few planets you might see:</p><img src=""img/practice1.png"" width=200vw><img src=""img/practice2.png"" width=200vw><img src=""img/practice3.png"" width=200vw>",NA,NA,NA,NA,NA,NA,NA,NA,NA,1,7,"15,9,7,1,5,13,4,2,8,3,12,14,11,10,6"
14825,commdev-instructions,117,637706,NA,9202.899999976158,"<p>Your job as a scientist is to record which direction the winds are moving on each planet.</p><p>There are two types of wind directions:</p><img src=""img/practice1_left.png"" width=200vw><img src=""img/practice1_right.png"" width=200vw>",NA,NA,NA,NA,NA,NA,NA,NA,NA,1,7,"15,9,7,1,5,13,4,2,8,3,12,14,11,10,6"
14825,commdev-instructions,118,658060,NA,15464.5,"<p>If the winds are moving this way, press the letter <strong>F</strong> on the keyboard as fast as you can.</p><img src=""img/leftwind.png"" width=250vw>",NA,NA,NA,NA,NA,NA,NA,NA,NA,1,7,"15,9,7,1,5,13,4,2,8,3,12,14,11,10,6"
14825,commdev-instructions,119,670173,NA,7597.5,"<p>If the winds are moving this way, press the letter <strong>J</strong> on the keyboard as fast as you can.</p><img src=""img/rightwind.png"" width=350vw>",NA,NA,NA,NA,NA,NA,NA,NA,NA,1,7,"15,9,7,1,5,13,4,2,8,3,12,14,11,10,6"
14825,commdev-instructions,120,676784,NA,2178.600000023842,<p>You will have 1 second to respond. Try to respond before the time runs out!,NA,NA,NA,NA,NA,NA,NA,NA,NA,1,7,"15,9,7,1,5,13,4,2,8,3,12,14,11,10,6"
14825,commdev-instructions,121,685855,NA,3640.399999976158,<p>The planets you will visit will look different from each other.</p><p>You should respond <strong>only</strong> based on wind direction.,NA,NA,NA,NA,NA,NA,NA,NA,NA,1,7,"15,9,7,1,5,13,4,2,8,3,12,14,11,10,6"
14825,commdev-instructions,122,694306,NA,3280.2000000476837,"<p> Ready to start the practice round? </p><p> Remember, press <strong>F</strong> or <strong>J</strong> depending on the wind direction.<br><img src=""img/categorize_planet_example.png""",NA,NA,NA,NA,NA,NA,NA,NA,NA,1,7,"15,9,7,1,5,13,4,2,8,3,12,14,11,10,6"
14825,commdev-instructions,134,803306,NA,1825.2999999523163,"<p>Great, now try a short practice mission. </p><p> This time, you will have 1 second to respond and you won't know whether you pressed the right or wrong key for each planet.</p>",NA,NA,NA,NA,NA,NA,NA,NA,NA,1,7,"15,9,7,1,5,13,4,2,8,3,12,14,11,10,6"
14825,commdev-image-keyboard-response,135,804670,practice,990.5,img/practice3_right.png,NA,Number not found in mappings,NA,FALSE,f,j,NA,NA,NA,1,7,"15,9,7,1,5,13,4,2,8,3,12,14,11,10,6"
14825,commdev-image-keyboard-response,136,805923,practice,738.5,img/practice4_right.png,NA,Number not found in mappings,NA,TRUE,j,j,NA,NA,NA,1,7,"15,9,7,1,5,13,4,2,8,3,12,14,11,10,6"
14825,commdev-image-keyboard-response,137,807177,practice,397.1999999284744,img/practice3_right.png,NA,Number not found in mappings,NA,FALSE,f,j,NA,NA,NA,1,7,"15,9,7,1,5,13,4,2,8,3,12,14,11,10,6"
14825,commdev-image-keyboard-response,138,808433,practice,258.40000009536743,img/practice2_right.png,NA,Number not found in mappings,NA,TRUE,j,j,NA,NA,NA,1,7,"15,9,7,1,5,13,4,2,8,3,12,14,11,10,6"
14825,commdev-image-keyboard-response,139,809698,practice,764.3999999761581,img/practice3_left.png,NA,Number not found in mappings,NA,TRUE,f,f,NA,NA,NA,1,7,"15,9,7,1,5,13,4,2,8,3,12,14,11,10,6"
14825,commdev-image-keyboard-response,140,810958,practice,587,img/practice4_right.png,NA,Number not found in mappings,NA,TRUE,j,j,NA,NA,NA,1,7,"15,9,7,1,5,13,4,2,8,3,12,14,11,10,6"
14825,commdev-image-keyboard-response,141,812220,practice,null,img/practice2_right.png,NA,Number not found in mappings,NA,FALSE,null,j,NA,NA,NA,1,7,"15,9,7,1,5,13,4,2,8,3,12,14,11,10,6"
14825,commdev-image-keyboard-response,142,813476,practice,null,img/practice1_left.png,NA,Number not found in mappings,NA,FALSE,null,f,NA,NA,NA,1,7,"15,9,7,1,5,13,4,2,8,3,12,14,11,10,6"
14825,commdev-instructions,143,835323,NA,12302.799999952316,"<p>Great job with the practice round.</p><p>During real missions, you won't know whether you pressed the right or wrong key for each planet.</p><p>But between missions, we will tell you how you did overall.</p>",NA,NA,NA,NA,NA,NA,NA,NA,NA,1,7,"15,9,7,1,5,13,4,2,8,3,12,14,11,10,6"
14825,commdev-instructions,144,845915,NA,2360.7999999523163,<p>Try your best! You will be paid a bonus based on how many correct responses you make!</p><p>Responses that are too slow will not count toward your bonus.</p>,NA,NA,NA,NA,NA,NA,NA,NA,NA,1,7,"15,9,7,1,5,13,4,2,8,3,12,14,11,10,6"
14825,commdev-instructions,145,856584,NA,4461,"<p>You are almost ready to start the real game.</p><p> First, we are going to ask you some questions about how the game works.</p>",NA,NA,NA,NA,NA,NA,NA,NA,NA,1,7,"15,9,7,1,5,13,4,2,8,3,12,14,11,10,6"
14825,commdev-instructions,154,1055162,NA,102286.10000002384,"<p> Nice work! It is now time to start the real game.<p></p>You will go on two missions to record wind directions of different planets.<p></p>Each one will take about 5 minutes. You will get to take a break between missions.<p><p> Remember, press <strong>F</strong> or <strong>J</strong> depending on the wind direction. Good luck!<br><img src=""img/categorize_planet_example.png""",NA,NA,NA,NA,NA,NA,NA,NA,NA,1,7,"15,9,7,1,5,13,4,2,8,3,12,14,11,10,6"
14825,commdev-image-keyboard-response,156,1057832,learnblock1,998.7000000476837,img/planet7_right.png,7,Community 1,NA,TRUE,j,j,NA,NA,NA,1,7,"15,9,7,1,5,13,4,2,8,3,12,14,11,10,6"
14825,commdev-image-keyboard-response,157,1059090,learnblock1,687.2999999523163,img/planet5_right.png,5,Community 1,NA,TRUE,j,j,NA,NA,NA,1,7,"15,9,7,1,5,13,4,2,8,3,12,14,11,10,6"
14825,commdev-image-keyboard-response,158,1060349,learnblock1,304,img/planet9_left.png,9,Community 1,NA,FALSE,j,f,NA,NA,NA,1,7,"15,9,7,1,5,13,4,2,8,3,12,14,11,10,6"
14825,commdev-image-keyboard-response,159,1061615,learnblock1,204.29999995231628,img/planet7_right.png,7,Community 1,NA,TRUE,j,j,NA,NA,NA,1,7,"15,9,7,1,5,13,4,2,8,3,12,14,11,10,6"
14825,commdev-image-keyboard-response,160,1062871,learnblock1,257.7999999523163,img/planet15_right.png,15,Community 1,NA,TRUE,j,j,NA,NA,NA,1,7,"15,9,7,1,5,13,4,2,8,3,12,14,11,10,6"
14825,commdev-image-keyboard-response,161,1064124,learnblock1,776.1999999284744,img/planet5_left.png,5,Community 1,NA,TRUE,f,f,NA,NA,NA,1,7,"15,9,7,1,5,13,4,2,8,3,12,14,11,10,6"
14825,commdev-image-keyboard-response,162,1065381,learnblock1,686.2999999523163,img/planet9_right.png,9,Community 1,NA,TRUE,j,j,NA,NA,NA,1,7,"15,9,7,1,5,13,4,2,8,3,12,14,11,10,6"
14825,commdev-image-keyboard-response,163,1066640,learnblock1,579,img/planet7_right.png,7,Community 1,NA,TRUE,j,j,NA,NA,NA,1,7,"15,9,7,1,5,13,4,2,8,3,12,14,11,10,6"
14825,commdev-image-keyboard-response,164,1067896,learnblock1,803.3999999761581,img/planet1_right.png,1,Community 1,NA,TRUE,j,j,NA,NA,NA,1,7,"15,9,7,1,5,13,4,2,8,3,12,14,11,10,6"
14825,commdev-image-keyboard-response,165,1069156,learnblock1,385.59999990463257,img/planet9_left.png,9,Community 1,NA,FALSE,j,f,NA,NA,NA,1,7,"15,9,7,1,5,13,4,2,8,3,12,14,11,10,6"
14825,commdev-image-keyboard-response,166,1070423,learnblock1,430.8000000715256,img/planet1_right.png,1,Community 1,NA,TRUE,j,j,NA,NA,NA,1,7,"15,9,7,1,5,13,4,2,8,3,12,14,11,10,6"
14825,commdev-image-keyboard-response,167,1071689,learnblock1,514.1000000238419,img/planet9_right.png,9,Community 1,NA,TRUE,j,j,NA,NA,NA,1,7,"15,9,7,1,5,13,4,2,8,3,12,14,11,10,6"
14825,commdev-image-keyboard-response,168,1072951,learnblock1,321.7999999523163,img/planet7_right.png,7,Community 1,NA,TRUE,j,j,NA,NA,NA,1,7,"15,9,7,1,5,13,4,2,8,3,12,14,11,10,6"
14825,commdev-image-keyboard-response,169,1074205,learnblock1,null,img/planet9_right.png,9,Community 1,NA,FALSE,null,j,NA,NA,NA,1,7,"15,9,7,1,5,13,4,2,8,3,12,14,11,10,6"
14825,commdev-image-keyboard-response,170,1075473,learnblock1,435.1999999284744,img/planet15_left.png,15,Community 1,NA,FALSE,j,f,NA,NA,NA,1,7,"15,9,7,1,5,13,4,2,8,3,12,14,11,10,6"
14825,commdev-image-keyboard-response,171,1076736,learnblock1,264.60000002384186,img/planet5_right.png,5,Community 1,NA,TRUE,j,j,NA,NA,NA,1,7,"15,9,7,1,5,13,4,2,8,3,12,14,11,10,6"
14825,commdev-image-keyboard-response,172,1078002,learnblock1,442.8000000715256,img/planet12_right.png,12,Community 3,NA,TRUE,j,j,NA,NA,NA,1,7,"15,9,7,1,5,13,4,2,8,3,12,14,11,10,6"
14825,commdev-image-keyboard-response,173,1079258,learnblock1,277.3000000715256,img/planet10_left.png,10,Community 3,NA,FALSE,j,f,NA,NA,NA,1,7,"15,9,7,1,5,13,4,2,8,3,12,14,11,10,6"
14825,commdev-image-keyboard-response,174,1080513,learnblock1,297.7999999523163,img/planet6_left.png,6,Community 3,NA,FALSE,j,f,NA,NA,NA,1,7,"15,9,7,1,5,13,4,2,8,3,12,14,11,10,6"
14825,commdev-image-keyboard-response,175,1081772,learnblock1,655.1000000238419,img/planet10_right.png,10,Community 3,NA,TRUE,j,j,NA,NA,NA,1,7,"15,9,7,1,5,13,4,2,8,3,12,14,11,10,6"
14825,commdev-image-keyboard-response,176,1083039,learnblock1,278.10000002384186,img/planet6_right.png,6,Community 3,NA,TRUE,j,j,NA,NA,NA,1,7,"15,9,7,1,5,13,4,2,8,3,12,14,11,10,6"
14825,commdev-image-keyboard-response,177,1084295,learnblock1,303.39999997615814,img/planet12_left.png,12,Community 3,NA,FALSE,j,f,NA,NA,NA,1,7,"15,9,7,1,5,13,4,2,8,3,12,14,11,10,6"
14825,commdev-image-keyboard-response,178,1085548,learnblock1,null,img/planet6_left.png,6,Community 3,NA,FALSE,null,f,NA,NA,NA,1,7,"15,9,7,1,5,13,4,2,8,3,12,14,11,10,6"
14825,commdev-image-keyboard-response,179,1086806,learnblock1,null,img/planet11_right.png,11,Community 3,NA,FALSE,null,j,NA,NA,NA,1,7,"15,9,7,1,5,13,4,2,8,3,12,14,11,10,6"
14825,commdev-image-keyboard-response,180,1088064,learnblock1,null,img/planet6_right.png,6,Community 3,NA,FALSE,null,j,NA,NA,NA,1,7,"15,9,7,1,5,13,4,2,8,3,12,14,11,10,6"
14825,commdev-image-keyboard-response,181,1089321,learnblock1,null,img/planet14_left.png,14,Community 3,NA,FALSE,null,f,NA,NA,NA,1,7,"15,9,7,1,5,13,4,2,8,3,12,14,11,10,6"
14825,commdev-image-keyboard-response,182,1090577,learnblock1,null,img/planet11_right.png,11,Community 3,NA,FALSE,null,j,NA,NA,NA,1,7,"15,9,7,1,5,13,4,2,8,3,12,14,11,10,6"
14825,commdev-image-keyboard-response,183,1091836,learnblock1,null,img/planet12_right.png,12,Community 3,NA,FALSE,null,j,NA,NA,NA,1,7,"15,9,7,1,5,13,4,2,8,3,12,14,11,10,6"
14825,commdev-image-keyboard-response,184,1093096,learnblock1,null,img/planet5_left.png,5,Community 1,NA,FALSE,null,f,NA,NA,NA,1,7,"15,9,7,1,5,13,4,2,8,3,12,14,11,10,6"
14825,commdev-image-keyboard-response,185,1094353,learnblock1,null,img/planet9_left.png,9,Community 1,NA,FALSE,null,f,NA,NA,NA,1,7,"15,9,7,1,5,13,4,2,8,3,12,14,11,10,6"
14825,commdev-image-keyboard-response,186,1095612,learnblock1,null,img/planet1_right.png,1,Community 1,NA,FALSE,null,j,NA,NA,NA,1,7,"15,9,7,1,5,13,4,2,8,3,12,14,11,10,6"
14825,commdev-image-keyboard-response,187,1096873,learnblock1,null,img/planet9_left.png,9,Community 1,NA,FALSE,null,f,NA,NA,NA,1,7,"15,9,7,1,5,13,4,2,8,3,12,14,11,10,6"
14825,commdev-image-keyboard-response,188,1098129,learnblock1,null,img/planet15_left.png,15,Community 1,NA,FALSE,null,f,NA,NA,NA,1,7,"15,9,7,1,5,13,4,2,8,3,12,14,11,10,6"
14825,commdev-image-keyboard-response,189,1099394,learnblock1,null,img/planet5_left.png,5,Community 1,NA,FALSE,null,f,NA,NA,NA,1,7,"15,9,7,1,5,13,4,2,8,3,12,14,11,10,6"
14825,commdev-image-keyboard-response,190,1100646,learnblock1,null,img/planet9_right.png,9,Community 1,NA,FALSE,null,j,NA,NA,NA,1,7,"15,9,7,1,5,13,4,2,8,3,12,14,11,10,6"
14825,commdev-image-keyboard-response,191,1101913,learnblock1,null,img/planet5_left.png,5,Community 1,NA,FALSE,null,f,NA,NA,NA,1,7,"15,9,7,1,5,13,4,2,8,3,12,14,11,10,6"
14825,commdev-image-keyboard-response,192,1103174,learnblock1,null,img/planet15_left.png,15,Community 1,NA,FALSE,null,f,NA,NA,NA,1,7,"15,9,7,1,5,13,4,2,8,3,12,14,11,10,6"
14825,commdev-image-keyboard-response,193,1104435,learnblock1,null,img/planet5_right.png,5,Community 1,NA,FALSE,null,j,NA,NA,NA,1,7,"15,9,7,1,5,13,4,2,8,3,12,14,11,10,6"
14825,commdev-image-keyboard-response,194,1105694,learnblock1,null,img/planet9_left.png,9,Community 1,NA,FALSE,null,f,NA,NA,NA,1,7,"15,9,7,1,5,13,4,2,8,3,12,14,11,10,6"
14825,commdev-image-keyboard-response,195,1106954,learnblock1,null,img/planet7_right.png,7,Community 1,NA,FALSE,null,j,NA,NA,NA,1,7,"15,9,7,1,5,13,4,2,8,3,12,14,11,10,6"
14825,commdev-image-keyboard-response,196,1108221,learnblock1,null,img/planet9_left.png,9,Community 1,NA,FALSE,null,f,NA,NA,NA,1,7,"15,9,7,1,5,13,4,2,8,3,12,14,11,10,6"
14825,commdev-image-keyboard-response,197,1109479,learnblock1,null,img/planet7_right.png,7,Community 1,NA,FALSE,null,j,NA,NA,NA,1,7,"15,9,7,1,5,13,4,2,8,3,12,14,11,10,6"
14825,commdev-image-keyboard-response,198,1110737,learnblock1,null,img/planet9_right.png,9,Community 1,NA,FALSE,null,j,NA,NA,NA,1,7,"15,9,7,1,5,13,4,2,8,3,12,14,11,10,6"
14825,commdev-image-keyboard-response,199,1111994,learnblock1,null,img/planet7_left.png,7,Community 1,NA,FALSE,null,f,NA,NA,NA,1,7,"15,9,7,1,5,13,4,2,8,3,12,14,11,10,6"
14825,commdev-image-keyboard-response,200,1113253,learnblock1,null,img/planet1_right.png,1,Community 1,NA,FALSE,null,j,NA,NA,NA,1,7,"15,9,7,1,5,13,4,2,8,3,12,14,11,10,6"
14825,commdev-image-keyboard-response,201,1114511,learnblock1,null,img/planet7_right.png,7,Community 1,NA,FALSE,null,j,NA,NA,NA,1,7,"15,9,7,1,5,13,4,2,8,3,12,14,11,10,6"
14825,commdev-image-keyboard-response,202,1115774,learnblock1,null,img/planet15_left.png,15,Community 1,NA,FALSE,null,f,NA,NA,NA,1,7,"15,9,7,1,5,13,4,2,8,3,12,14,11,10,6"
14825,commdev-image-keyboard-response,203,1117027,learnblock1,null,img/planet1_right.png,1,Community 1,NA,FALSE,null,j,NA,NA,NA,1,7,"15,9,7,1,5,13,4,2,8,3,12,14,11,10,6"
14825,commdev-image-keyboard-response,204,1118285,learnblock1,null,img/planet9_right.png,9,Community 1,NA,FALSE,null,j,NA,NA,NA,1,7,"15,9,7,1,5,13,4,2,8,3,12,14,11,10,6"
14825,commdev-image-keyboard-response,205,1119540,learnblock1,null,img/planet7_left.png,7,Community 1,NA,FALSE,null,f,NA,NA,NA,1,7,"15,9,7,1,5,13,4,2,8,3,12,14,11,10,6"
14825,commdev-image-keyboard-response,206,1120792,learnblock1,336.39999997615814,img/planet1_right.png,1,Community 1,NA,TRUE,j,j,NA,NA,NA,1,7,"15,9,7,1,5,13,4,2,8,3,12,14,11,10,6"
14825,commdev-image-keyboard-response,207,1122060,learnblock1,117.10000002384186,img/planet13_right.png,13,Community 2,NA,TRUE,j,j,NA,NA,NA,1,7,"15,9,7,1,5,13,4,2,8,3,12,14,11,10,6"
14825,commdev-image-keyboard-response,208,1123317,learnblock1,null,img/planet3_left.png,3,Community 2,NA,FALSE,null,f,NA,NA,NA,1,7,"15,9,7,1,5,13,4,2,8,3,12,14,11,10,6"
14825,commdev-image-keyboard-response,209,1124583,learnblock1,null,img/planet13_left.png,13,Community 2,NA,FALSE,null,f,NA,NA,NA,1,7,"15,9,7,1,5,13,4,2,8,3,12,14,11,10,6"
14825,commdev-image-keyboard-response,210,1125841,learnblock1,541.6999999284744,img/planet3_left.png,3,Community 2,NA,FALSE,j,f,NA,NA,NA,1,7,"15,9,7,1,5,13,4,2,8,3,12,14,11,10,6"
14825,commdev-image-keyboard-response,211,1127101,learnblock1,null,img/planet2_left.png,2,Community 2,NA,FALSE,null,f,NA,NA,NA,1,7,"15,9,7,1,5,13,4,2,8,3,12,14,11,10,6"
14825,commdev-image-keyboard-response,212,1128360,learnblock1,null,img/planet3_right.png,3,Community 2,NA,FALSE,null,j,NA,NA,NA,1,7,"15,9,7,1,5,13,4,2,8,3,12,14,11,10,6"
14825,commdev-image-keyboard-response,213,1129618,learnblock1,1055.7999999523163,img/planet4_left.png,4,Community 2,NA,FALSE,j,f,NA,NA,NA,1,7,"15,9,7,1,5,13,4,2,8,3,12,14,11,10,6"
14825,commdev-image-keyboard-response,214,1130876,learnblock1,459.5,img/planet13_right.png,13,Community 2,NA,TRUE,j,j,NA,NA,NA,1,7,"15,9,7,1,5,13,4,2,8,3,12,14,11,10,6"
14825,commdev-image-keyboard-response,215,1132133,learnblock1,null,img/planet4_left.png,4,Community 2,NA,FALSE,null,f,NA,NA,NA,1,7,"15,9,7,1,5,13,4,2,8,3,12,14,11,10,6"
14825,commdev-image-keyboard-response,216,1133393,learnblock1,null,img/planet2_right.png,2,Community 2,NA,FALSE,null,j,NA,NA,NA,1,7,"15,9,7,1,5,13,4,2,8,3,12,14,11,10,6"
14825,commdev-image-keyboard-response,217,1134651,learnblock1,null,img/planet8_left.png,8,Community 2,NA,FALSE,null,f,NA,NA,NA,1,7,"15,9,7,1,5,13,4,2,8,3,12,14,11,10,6"
14825,commdev-image-keyboard-response,218,1135908,learnblock1,null,img/planet3_right.png,3,Community 2,NA,FALSE,null,j,NA,NA,NA,1,7,"15,9,7,1,5,13,4,2,8,3,12,14,11,10,6"
14825,commdev-image-keyboard-response,219,1137165,learnblock1,null,img/planet2_right.png,2,Community 2,NA,FALSE,null,j,NA,NA,NA,1,7,"15,9,7,1,5,13,4,2,8,3,12,14,11,10,6"
14825,commdev-image-keyboard-response,220,1138426,learnblock1,null,img/planet8_right.png,8,Community 2,NA,FALSE,null,j,NA,NA,NA,1,7,"15,9,7,1,5,13,4,2,8,3,12,14,11,10,6"
14825,commdev-image-keyboard-response,221,1139684,learnblock1,null,img/planet2_left.png,2,Community 2,NA,FALSE,null,f,NA,NA,NA,1,7,"15,9,7,1,5,13,4,2,8,3,12,14,11,10,6"
14825,commdev-image-keyboard-response,222,1140942,learnblock1,null,img/planet4_left.png,4,Community 2,NA,FALSE,null,f,NA,NA,NA,1,7,"15,9,7,1,5,13,4,2,8,3,12,14,11,10,6"
14825,commdev-image-keyboard-response,223,1142196,learnblock1,null,img/planet3_right.png,3,Community 2,NA,FALSE,null,j,NA,NA,NA,1,7,"15,9,7,1,5,13,4,2,8,3,12,14,11,10,6"
14825,commdev-image-keyboard-response,224,1143448,learnblock1,null,img/planet13_left.png,13,Community 2,NA,FALSE,null,f,NA,NA,NA,1,7,"15,9,7,1,5,13,4,2,8,3,12,14,11,10,6"
14825,commdev-image-keyboard-response,225,1144705,learnblock1,null,img/planet8_left.png,8,Community 2,NA,FALSE,null,f,NA,NA,NA,1,7,"15,9,7,1,5,13,4,2,8,3,12,14,11,10,6"
14825,commdev-image-keyboard-response,226,1145963,learnblock1,null,img/planet3_left.png,3,Community 2,NA,FALSE,null,f,NA,NA,NA,1,7,"15,9,7,1,5,13,4,2,8,3,12,14,11,10,6"
14825,commdev-image-keyboard-response,227,1147216,learnblock1,null,img/planet13_left.png,13,Community 2,NA,FALSE,null,f,NA,NA,NA,1,7,"15,9,7,1,5,13,4,2,8,3,12,14,11,10,6"
14825,commdev-image-keyboard-response,228,1148475,learnblock1,494.2999999523163,img/planet1_right.png,1,Community 1,NA,TRUE,j,j,NA,NA,NA,1,7,"15,9,7,1,5,13,4,2,8,3,12,14,11,10,6"
14825,commdev-image-keyboard-response,229,1149738,learnblock1,null,img/planet13_left.png,13,Community 2,NA,FALSE,null,f,NA,NA,NA,1,7,"15,9,7,1,5,13,4,2,8,3,12,14,11,10,6"
14825,commdev-image-keyboard-response,230,1150999,learnblock1,null,img/planet1_left.png,1,Community 1,NA,FALSE,null,f,NA,NA,NA,1,7,"15,9,7,1,5,13,4,2,8,3,12,14,11,10,6"
14825,commdev-image-keyboard-response,231,1152257,learnblock1,null,img/planet15_right.png,15,Community 1,NA,FALSE,null,j,NA,NA,NA,1,7,"15,9,7,1,5,13,4,2,8,3,12,14,11,10,6"
14825,commdev-image-keyboard-response,232,1153516,learnblock1,null,img/planet7_right.png,7,Community 1,NA,FALSE,null,j,NA,NA,NA,1,7,"15,9,7,1,5,13,4,2,8,3,12,14,11,10,6"
14825,commdev-image-keyboard-response,233,1154775,learnblock1,null,img/planet5_right.png,5,Community 1,NA,FALSE,null,j,NA,NA,NA,1,7,"15,9,7,1,5,13,4,2,8,3,12,14,11,10,6"
14825,commdev-image-keyboard-response,234,1156042,learnblock1,null,img/planet12_left.png,12,Community 3,NA,FALSE,null,f,NA,NA,NA,1,7,"15,9,7,1,5,13,4,2,8,3,12,14,11,10,6"
14825,commdev-image-keyboard-response,235,1157299,learnblock1,null,img/planet6_right.png,6,Community 3,NA,FALSE,null,j,NA,NA,NA,1,7,"15,9,7,1,5,13,4,2,8,3,12,14,11,10,6"
14825,commdev-image-keyboard-response,236,1158558,learnblock1,null,img/planet12_right.png,12,Community 3,NA,FALSE,null,j,NA,NA,NA,1,7,"15,9,7,1,5,13,4,2,8,3,12,14,11,10,6"
14825,commdev-image-keyboard-response,237,1159816,learnblock1,null,img/planet10_left.png,10,Community 3,NA,FALSE,null,f,NA,NA,NA,1,7,"15,9,7,1,5,13,4,2,8,3,12,14,11,10,6"
14825,commdev-image-keyboard-response,238,1161083,learnblock1,null,img/planet6_left.png,6,Community 3,NA,FALSE,null,f,NA,NA,NA,1,7,"15,9,7,1,5,13,4,2,8,3,12,14,11,10,6"
14825,commdev-image-keyboard-response,239,1162341,learnblock1,null,img/planet10_right.png,10,Community 3,NA,FALSE,null,j,NA,NA,NA,1,7,"15,9,7,1,5,13,4,2,8,3,12,14,11,10,6"
14825,commdev-image-keyboard-response,240,1163599,learnblock1,null,img/planet6_right.png,6,Community 3,NA,FALSE,null,j,NA,NA,NA,1,7,"15,9,7,1,5,13,4,2,8,3,12,14,11,10,6"
14825,commdev-image-keyboard-response,241,1164855,learnblock1,null,img/planet10_right.png,10,Community 3,NA,FALSE,null,j,NA,NA,NA,1,7,"15,9,7,1,5,13,4,2,8,3,12,14,11,10,6"
14825,commdev-image-keyboard-response,242,1166115,learnblock1,null,img/planet14_right.png,14,Community 3,NA,FALSE,null,j,NA,NA,NA,1,7,"15,9,7,1,5,13,4,2,8,3,12,14,11,10,6"
14825,commdev-image-keyboard-response,243,1167370,learnblock1,null,img/planet11_right.png,11,Community 3,NA,FALSE,null,j,NA,NA,NA,1,7,"15,9,7,1,5,13,4,2,8,3,12,14,11,10,6"
14825,commdev-image-keyboard-response,244,1168631,learnblock1,null,img/planet10_right.png,10,Community 3,NA,FALSE,null,j,NA,NA,NA,1,7,"15,9,7,1,5,13,4,2,8,3,12,14,11,10,6"
14825,commdev-image-keyboard-response,245,1169888,learnblock1,null,img/planet14_right.png,14,Community 3,NA,FALSE,null,j,NA,NA,NA,1,7,"15,9,7,1,5,13,4,2,8,3,12,14,11,10,6"
14825,commdev-image-keyboard-response,246,1171151,learnblock1,null,img/planet10_right.png,10,Community 3,NA,FALSE,null,j,NA,NA,NA,1,7,"15,9,7,1,5,13,4,2,8,3,12,14,11,10,6"
14825,commdev-image-keyboard-response,247,1172408,learnblock1,null,img/planet6_right.png,6,Community 3,NA,FALSE,null,j,NA,NA,NA,1,7,"15,9,7,1,5,13,4,2,8,3,12,14,11,10,6"
14825,commdev-image-keyboard-response,248,1173663,learnblock1,null,img/planet11_right.png,11,Community 3,NA,FALSE,null,j,NA,NA,NA,1,7,"15,9,7,1,5,13,4,2,8,3,12,14,11,10,6"
14825,commdev-image-keyboard-response,249,1174916,learnblock1,null,img/planet6_left.png,6,Community 3,NA,FALSE,null,f,NA,NA,NA,1,7,"15,9,7,1,5,13,4,2,8,3,12,14,11,10,6"
14825,commdev-image-keyboard-response,250,1176174,learnblock1,null,img/planet14_left.png,14,Community 3,NA,FALSE,null,f,NA,NA,NA,1,7,"15,9,7,1,5,13,4,2,8,3,12,14,11,10,6"
14825,commdev-image-keyboard-response,251,1177432,learnblock1,518.6000000238419,img/planet2_right.png,2,Community 2,NA,TRUE,j,j,NA,NA,NA,1,7,"15,9,7,1,5,13,4,2,8,3,12,14,11,10,6"
14825,commdev-image-keyboard-response,252,1178699,learnblock1,null,img/planet14_right.png,14,Community 3,NA,FALSE,null,j,NA,NA,NA,1,7,"15,9,7,1,5,13,4,2,8,3,12,14,11,10,6"
14825,commdev-image-keyboard-response,253,1179957,learnblock1,null,img/planet6_left.png,6,Community 3,NA,FALSE,null,f,NA,NA,NA,1,7,"15,9,7,1,5,13,4,2,8,3,12,14,11,10,6"
14825,commdev-image-keyboard-response,254,1181223,learnblock1,null,img/planet12_right.png,12,Community 3,NA,FALSE,null,j,NA,NA,NA,1,7,"15,9,7,1,5,13,4,2,8,3,12,14,11,10,6"
14825,commdev-image-keyboard-response,255,1182481,learnblock1,null,img/planet11_right.png,11,Community 3,NA,FALSE,null,j,NA,NA,NA,1,7,"15,9,7,1,5,13,4,2,8,3,12,14,11,10,6"
14825,commdev-image-keyboard-response,256,1183749,learnblock1,null,img/planet14_right.png,14,Community 3,NA,FALSE,null,j,NA,NA,NA,1,7,"15,9,7,1,5,13,4,2,8,3,12,14,11,10,6"
14825,commdev-image-keyboard-response,257,1185012,learnblock1,null,img/planet6_right.png,6,Community 3,NA,FALSE,null,j,NA,NA,NA,1,7,"15,9,7,1,5,13,4,2,8,3,12,14,11,10,6"
14825,commdev-image-keyboard-response,258,1186273,learnblock1,null,img/planet14_left.png,14,Community 3,NA,FALSE,null,f,NA,NA,NA,1,7,"15,9,7,1,5,13,4,2,8,3,12,14,11,10,6"
14825,commdev-image-keyboard-response,259,1187540,learnblock1,null,img/planet6_right.png,6,Community 3,NA,FALSE,null,j,NA,NA,NA,1,7,"15,9,7,1,5,13,4,2,8,3,12,14,11,10,6"
14825,commdev-image-keyboard-response,260,1188797,learnblock1,null,img/planet14_left.png,14,Community 3,NA,FALSE,null,f,NA,NA,NA,1,7,"15,9,7,1,5,13,4,2,8,3,12,14,11,10,6"
14825,commdev-image-keyboard-response,261,1190064,learnblock1,null,img/planet10_left.png,10,Community 3,NA,FALSE,null,f,NA,NA,NA,1,7,"15,9,7,1,5,13,4,2,8,3,12,14,11,10,6"
14825,commdev-image-keyboard-response,262,1191332,learnblock1,63.5,img/planet12_left.png,12,Community 3,NA,FALSE,j,f,NA,NA,NA,1,7,"15,9,7,1,5,13,4,2,8,3,12,14,11,10,6"
14825,commdev-image-keyboard-response,263,1192588,learnblock1,191.19999992847443,img/planet11_left.png,11,Community 3,NA,FALSE,j,f,NA,NA,NA,1,7,"15,9,7,1,5,13,4,2,8,3,12,14,11,10,6"
14825,commdev-image-keyboard-response,264,1193856,learnblock1,495.7999999523163,img/planet6_left.png,6,Community 3,NA,FALSE,j,f,NA,NA,NA,1,7,"15,9,7,1,5,13,4,2,8,3,12,14,11,10,6"
14825,commdev-image-keyboard-response,265,1195112,learnblock1,null,img/planet10_right.png,10,Community 3,NA,FALSE,null,j,NA,NA,NA,1,7,"15,9,7,1,5,13,4,2,8,3,12,14,11,10,6"
14825,commdev-image-keyboard-response,266,1196372,learnblock1,null,img/planet6_left.png,6,Community 3,NA,FALSE,null,f,NA,NA,NA,1,7,"15,9,7,1,5,13,4,2,8,3,12,14,11,10,6"
14825,commdev-image-keyboard-response,267,1197631,learnblock1,null,img/planet10_right.png,10,Community 3,NA,FALSE,null,j,NA,NA,NA,1,7,"15,9,7,1,5,13,4,2,8,3,12,14,11,10,6"
14825,commdev-image-keyboard-response,268,1198889,learnblock1,null,img/planet12_right.png,12,Community 3,NA,FALSE,null,j,NA,NA,NA,1,7,"15,9,7,1,5,13,4,2,8,3,12,14,11,10,6"
14825,commdev-image-keyboard-response,269,1200155,learnblock1,null,img/planet5_right.png,5,Community 1,NA,FALSE,null,j,NA,NA,NA,1,7,"15,9,7,1,5,13,4,2,8,3,12,14,11,10,6"
14825,commdev-image-keyboard-response,270,1201414,learnblock1,null,img/planet12_left.png,12,Community 3,NA,FALSE,null,f,NA,NA,NA,1,7,"15,9,7,1,5,13,4,2,8,3,12,14,11,10,6"
14825,commdev-image-keyboard-response,271,1202669,learnblock1,null,img/planet6_right.png,6,Community 3,NA,FALSE,null,j,NA,NA,NA,1,7,"15,9,7,1,5,13,4,2,8,3,12,14,11,10,6"
14825,commdev-image-keyboard-response,272,1203930,learnblock1,null,img/planet14_right.png,14,Community 3,NA,FALSE,null,j,NA,NA,NA,1,7,"15,9,7,1,5,13,4,2,8,3,12,14,11,10,6"
14825,commdev-image-keyboard-response,273,1205196,learnblock1,118.10000002384186,img/planet10_left.png,10,Community 3,NA,FALSE,j,f,NA,NA,NA,1,7,"15,9,7,1,5,13,4,2,8,3,12,14,11,10,6"
14825,commdev-image-keyboard-response,274,1206461,learnblock1,null,img/planet12_right.png,12,Community 3,NA,FALSE,null,j,NA,NA,NA,1,7,"15,9,7,1,5,13,4,2,8,3,12,14,11,10,6"
14825,commdev-image-keyboard-response,275,1207723,learnblock1,null,img/planet10_right.png,10,Community 3,NA,FALSE,null,j,NA,NA,NA,1,7,"15,9,7,1,5,13,4,2,8,3,12,14,11,10,6"
14825,commdev-image-keyboard-response,276,1208980,learnblock1,null,img/planet12_left.png,12,Community 3,NA,FALSE,null,f,NA,NA,NA,1,7,"15,9,7,1,5,13,4,2,8,3,12,14,11,10,6"
14825,commdev-image-keyboard-response,277,1210235,learnblock1,null,img/planet10_right.png,10,Community 3,NA,FALSE,null,j,NA,NA,NA,1,7,"15,9,7,1,5,13,4,2,8,3,12,14,11,10,6"
14825,commdev-image-keyboard-response,278,1211495,learnblock1,null,img/planet12_left.png,12,Community 3,NA,FALSE,null,f,NA,NA,NA,1,7,"15,9,7,1,5,13,4,2,8,3,12,14,11,10,6"
14825,commdev-image-keyboard-response,279,1212762,learnblock1,null,img/planet10_left.png,10,Community 3,NA,FALSE,null,f,NA,NA,NA,1,7,"15,9,7,1,5,13,4,2,8,3,12,14,11,10,6"
14825,commdev-image-keyboard-response,280,1214021,learnblock1,null,img/planet14_left.png,14,Community 3,NA,FALSE,null,f,NA,NA,NA,1,7,"15,9,7,1,5,13,4,2,8,3,12,14,11,10,6"
14825,commdev-image-keyboard-response,281,1215289,learnblock1,null,img/planet10_left.png,10,Community 3,NA,FALSE,null,f,NA,NA,NA,1,7,"15,9,7,1,5,13,4,2,8,3,12,14,11,10,6"
14825,commdev-image-keyboard-response,282,1216547,learnblock1,null,img/planet11_left.png,11,Community 3,NA,FALSE,null,f,NA,NA,NA,1,7,"15,9,7,1,5,13,4,2,8,3,12,14,11,10,6"
14825,commdev-image-keyboard-response,283,1217805,learnblock1,1165.1000000238419,img/planet12_left.png,12,Community 3,NA,FALSE,j,f,NA,NA,NA,1,7,"15,9,7,1,5,13,4,2,8,3,12,14,11,10,6"
14825,commdev-image-keyboard-response,284,1219063,learnblock1,132.70000004768372,img/planet11_left.png,11,Community 3,NA,FALSE,j,f,NA,NA,NA,1,7,"15,9,7,1,5,13,4,2,8,3,12,14,11,10,6"
14825,commdev-image-keyboard-response,285,1220324,learnblock1,null,img/planet6_right.png,6,Community 3,NA,FALSE,null,j,NA,NA,NA,1,7,"15,9,7,1,5,13,4,2,8,3,12,14,11,10,6"
14825,commdev-image-keyboard-response,286,1221577,learnblock1,null,img/planet11_left.png,11,Community 3,NA,FALSE,null,f,NA,NA,NA,1,7,"15,9,7,1,5,13,4,2,8,3,12,14,11,10,6"
14825,commdev-image-keyboard-response,287,1222829,learnblock1,null,img/planet12_right.png,12,Community 3,NA,FALSE,null,j,NA,NA,NA,1,7,"15,9,7,1,5,13,4,2,8,3,12,14,11,10,6"
14825,commdev-image-keyboard-response,288,1224096,learnblock1,null,img/planet10_left.png,10,Community 3,NA,FALSE,null,f,NA,NA,NA,1,7,"15,9,7,1,5,13,4,2,8,3,12,14,11,10,6"
14825,commdev-image-keyboard-response,289,1225362,learnblock1,null,img/planet6_right.png,6,Community 3,NA,FALSE,null,j,NA,NA,NA,1,7,"15,9,7,1,5,13,4,2,8,3,12,14,11,10,6"
14825,commdev-image-keyboard-response,290,1226622,learnblock1,null,img/planet10_right.png,10,Community 3,NA,FALSE,null,j,NA,NA,NA,1,7,"15,9,7,1,5,13,4,2,8,3,12,14,11,10,6"
14825,commdev-image-keyboard-response,291,1227887,learnblock1,null,img/planet11_right.png,11,Community 3,NA,FALSE,null,j,NA,NA,NA,1,7,"15,9,7,1,5,13,4,2,8,3,12,14,11,10,6"
14825,commdev-image-keyboard-response,292,1229144,learnblock1,null,img/planet14_left.png,14,Community 3,NA,FALSE,null,f,NA,NA,NA,1,7,"15,9,7,1,5,13,4,2,8,3,12,14,11,10,6"
14825,commdev-image-keyboard-response,293,1230404,learnblock1,null,img/planet11_right.png,11,Community 3,NA,FALSE,null,j,NA,NA,NA,1,7,"15,9,7,1,5,13,4,2,8,3,12,14,11,10,6"
14825,commdev-image-keyboard-response,294,1231659,learnblock1,null,img/planet6_left.png,6,Community 3,NA,FALSE,null,f,NA,NA,NA,1,7,"15,9,7,1,5,13,4,2,8,3,12,14,11,10,6"
14825,commdev-image-keyboard-response,295,1232921,learnblock1,null,img/planet10_left.png,10,Community 3,NA,FALSE,null,f,NA,NA,NA,1,7,"15,9,7,1,5,13,4,2,8,3,12,14,11,10,6"
14825,commdev-image-keyboard-response,296,1234175,learnblock1,null,img/planet11_right.png,11,Community 3,NA,FALSE,null,j,NA,NA,NA,1,7,"15,9,7,1,5,13,4,2,8,3,12,14,11,10,6"
14825,commdev-image-keyboard-response,297,1235430,learnblock1,null,img/planet12_right.png,12,Community 3,NA,FALSE,null,j,NA,NA,NA,1,7,"15,9,7,1,5,13,4,2,8,3,12,14,11,10,6"
14825,commdev-image-keyboard-response,298,1236687,learnblock1,null,img/planet5_right.png,5,Community 1,NA,FALSE,null,j,NA,NA,NA,1,7,"15,9,7,1,5,13,4,2,8,3,12,14,11,10,6"
14825,commdev-image-keyboard-response,299,1237940,learnblock1,null,img/planet15_right.png,15,Community 1,NA,FALSE,null,j,NA,NA,NA,1,7,"15,9,7,1,5,13,4,2,8,3,12,14,11,10,6"
14825,commdev-image-keyboard-response,300,1239201,learnblock1,null,img/planet7_left.png,7,Community 1,NA,FALSE,null,f,NA,NA,NA,1,7,"15,9,7,1,5,13,4,2,8,3,12,14,11,10,6"
14825,commdev-image-keyboard-response,301,1240460,learnblock1,null,img/planet15_right.png,15,Community 1,NA,FALSE,null,j,NA,NA,NA,1,7,"15,9,7,1,5,13,4,2,8,3,12,14,11,10,6"
14825,commdev-image-keyboard-response,302,1241726,learnblock1,null,img/planet7_right.png,7,Community 1,NA,FALSE,null,j,NA,NA,NA,1,7,"15,9,7,1,5,13,4,2,8,3,12,14,11,10,6"
14825,commdev-image-keyboard-response,303,1242993,learnblock1,null,img/planet15_right.png,15,Community 1,NA,FALSE,null,j,NA,NA,NA,1,7,"15,9,7,1,5,13,4,2,8,3,12,14,11,10,6"
14825,commdev-image-keyboard-response,304,1244252,learnblock1,null,img/planet5_left.png,5,Community 1,NA,FALSE,null,f,NA,NA,NA,1,7,"15,9,7,1,5,13,4,2,8,3,12,14,11,10,6"
14825,commdev-image-keyboard-response,305,1245511,learnblock1,null,img/planet7_right.png,7,Community 1,NA,FALSE,null,j,NA,NA,NA,1,7,"15,9,7,1,5,13,4,2,8,3,12,14,11,10,6"
14825,commdev-image-keyboard-response,306,1246769,learnblock1,null,img/planet1_left.png,1,Community 1,NA,FALSE,null,f,NA,NA,NA,1,7,"15,9,7,1,5,13,4,2,8,3,12,14,11,10,6"
14825,commdev-image-keyboard-response,307,1248026,learnblock1,null,img/planet9_right.png,9,Community 1,NA,FALSE,null,j,NA,NA,NA,1,7,"15,9,7,1,5,13,4,2,8,3,12,14,11,10,6"
14825,commdev-image-keyboard-response,308,1249285,learnblock1,null,img/planet15_left.png,15,Community 1,NA,FALSE,null,f,NA,NA,NA,1,7,"15,9,7,1,5,13,4,2,8,3,12,14,11,10,6"
14825,commdev-image-keyboard-response,309,1250552,learnblock1,null,img/planet9_right.png,9,Community 1,NA,FALSE,null,j,NA,NA,NA,1,7,"15,9,7,1,5,13,4,2,8,3,12,14,11,10,6"
14825,commdev-image-keyboard-response,310,1251810,learnblock1,null,img/planet5_left.png,5,Community 1,NA,FALSE,null,f,NA,NA,NA,1,7,"15,9,7,1,5,13,4,2,8,3,12,14,11,10,6"
14825,commdev-image-keyboard-response,311,1253077,learnblock1,null,img/planet9_right.png,9,Community 1,NA,FALSE,null,j,NA,NA,NA,1,7,"15,9,7,1,5,13,4,2,8,3,12,14,11,10,6"
14825,commdev-image-keyboard-response,312,1254335,learnblock1,null,img/planet7_left.png,7,Community 1,NA,FALSE,null,f,NA,NA,NA,1,7,"15,9,7,1,5,13,4,2,8,3,12,14,11,10,6"
14825,commdev-image-keyboard-response,313,1255602,learnblock1,null,img/planet9_left.png,9,Community 1,NA,FALSE,null,f,NA,NA,NA,1,7,"15,9,7,1,5,13,4,2,8,3,12,14,11,10,6"
14825,commdev-image-keyboard-response,314,1256868,learnblock1,null,img/planet15_right.png,15,Community 1,NA,FALSE,null,j,NA,NA,NA,1,7,"15,9,7,1,5,13,4,2,8,3,12,14,11,10,6"
14825,commdev-image-keyboard-response,315,1258125,learnblock1,null,img/planet1_right.png,1,Community 1,NA,FALSE,null,j,NA,NA,NA,1,7,"15,9,7,1,5,13,4,2,8,3,12,14,11,10,6"
14825,commdev-image-keyboard-response,316,1259391,learnblock1,null,img/planet13_right.png,13,Community 2,NA,FALSE,null,j,NA,NA,NA,1,7,"15,9,7,1,5,13,4,2,8,3,12,14,11,10,6"
14825,commdev-image-keyboard-response,317,1260651,learnblock1,null,img/planet3_right.png,3,Community 2,NA,FALSE,null,j,NA,NA,NA,1,7,"15,9,7,1,5,13,4,2,8,3,12,14,11,10,6"
14825,commdev-image-keyboard-response,318,1261909,learnblock1,null,img/planet13_right.png,13,Community 2,NA,FALSE,null,j,NA,NA,NA,1,7,"15,9,7,1,5,13,4,2,8,3,12,14,11,10,6"
14825,commdev-image-keyboard-response,319,1263163,learnblock1,null,img/planet4_left.png,4,Community 2,NA,FALSE,null,f,NA,NA,NA,1,7,"15,9,7,1,5,13,4,2,8,3,12,14,11,10,6"
14825,commdev-image-keyboard-response,320,1264417,learnblock1,null,img/planet13_left.png,13,Community 2,NA,FALSE,null,f,NA,NA,NA,1,7,"15,9,7,1,5,13,4,2,8,3,12,14,11,10,6"
14825,commdev-image-keyboard-response,321,1265681,learnblock1,null,img/planet4_right.png,4,Community 2,NA,FALSE,null,j,NA,NA,NA,1,7,"15,9,7,1,5,13,4,2,8,3,12,14,11,10,6"
14825,commdev-image-keyboard-response,322,1266934,learnblock1,null,img/planet2_right.png,2,Community 2,NA,FALSE,null,j,NA,NA,NA,1,7,"15,9,7,1,5,13,4,2,8,3,12,14,11,10,6"
14825,commdev-image-keyboard-response,323,1268192,learnblock1,null,img/planet8_right.png,8,Community 2,NA,FALSE,null,j,NA,NA,NA,1,7,"15,9,7,1,5,13,4,2,8,3,12,14,11,10,6"
14825,commdev-image-keyboard-response,324,1269459,learnblock1,null,img/planet3_right.png,3,Community 2,NA,FALSE,null,j,NA,NA,NA,1,7,"15,9,7,1,5,13,4,2,8,3,12,14,11,10,6"
14825,commdev-image-keyboard-response,325,1270715,learnblock1,null,img/planet8_left.png,8,Community 2,NA,FALSE,null,f,NA,NA,NA,1,7,"15,9,7,1,5,13,4,2,8,3,12,14,11,10,6"
14825,commdev-image-keyboard-response,326,1271974,learnblock1,null,img/planet13_right.png,13,Community 2,NA,FALSE,null,j,NA,NA,NA,1,7,"15,9,7,1,5,13,4,2,8,3,12,14,11,10,6"
14825,commdev-image-keyboard-response,327,1273234,learnblock1,null,img/planet1_left.png,1,Community 1,NA,FALSE,null,f,NA,NA,NA,1,7,"15,9,7,1,5,13,4,2,8,3,12,14,11,10,6"
14825,commdev-image-keyboard-response,328,1274490,learnblock1,null,img/planet13_right.png,13,Community 2,NA,FALSE,null,j,NA,NA,NA,1,7,"15,9,7,1,5,13,4,2,8,3,12,14,11,10,6"
14825,commdev-image-keyboard-response,329,1275750,learnblock1,null,img/planet8_right.png,8,Community 2,NA,FALSE,null,j,NA,NA,NA,1,7,"15,9,7,1,5,13,4,2,8,3,12,14,11,10,6"
14825,commdev-image-keyboard-response,330,1277009,learnblock1,null,img/planet4_left.png,4,Community 2,NA,FALSE,null,f,NA,NA,NA,1,7,"15,9,7,1,5,13,4,2,8,3,12,14,11,10,6"
14825,commdev-image-keyboard-response,331,1278267,learnblock1,null,img/planet8_left.png,8,Community 2,NA,FALSE,null,f,NA,NA,NA,1,7,"15,9,7,1,5,13,4,2,8,3,12,14,11,10,6"
14825,commdev-image-keyboard-response,332,1279525,learnblock1,null,img/planet4_right.png,4,Community 2,NA,FALSE,null,j,NA,NA,NA,1,7,"15,9,7,1,5,13,4,2,8,3,12,14,11,10,6"
14825,commdev-image-keyboard-response,333,1280792,learnblock1,null,img/planet13_left.png,13,Community 2,NA,FALSE,null,f,NA,NA,NA,1,7,"15,9,7,1,5,13,4,2,8,3,12,14,11,10,6"
14825,commdev-image-keyboard-response,334,1282051,learnblock1,null,img/planet8_right.png,8,Community 2,NA,FALSE,null,j,NA,NA,NA,1,7,"15,9,7,1,5,13,4,2,8,3,12,14,11,10,6"
14825,commdev-image-keyboard-response,335,1283316,learnblock1,null,img/planet4_right.png,4,Community 2,NA,FALSE,null,j,NA,NA,NA,1,7,"15,9,7,1,5,13,4,2,8,3,12,14,11,10,6"
14825,commdev-image-keyboard-response,336,1284574,learnblock1,null,img/planet2_left.png,2,Community 2,NA,FALSE,null,f,NA,NA,NA,1,7,"15,9,7,1,5,13,4,2,8,3,12,14,11,10,6"
14825,commdev-image-keyboard-response,337,1285833,learnblock1,null,img/planet8_right.png,8,Community 2,NA,FALSE,null,j,NA,NA,NA,1,7,"15,9,7,1,5,13,4,2,8,3,12,14,11,10,6"
14825,commdev-image-keyboard-response,338,1287091,learnblock1,null,img/planet3_left.png,3,Community 2,NA,FALSE,null,f,NA,NA,NA,1,7,"15,9,7,1,5,13,4,2,8,3,12,14,11,10,6"
14825,commdev-image-keyboard-response,339,1288357,learnblock1,null,img/planet8_right.png,8,Community 2,NA,FALSE,null,j,NA,NA,NA,1,7,"15,9,7,1,5,13,4,2,8,3,12,14,11,10,6"
14825,commdev-image-keyboard-response,340,1289615,learnblock1,null,img/planet13_right.png,13,Community 2,NA,FALSE,null,j,NA,NA,NA,1,7,"15,9,7,1,5,13,4,2,8,3,12,14,11,10,6"
14825,commdev-image-keyboard-response,341,1290873,learnblock1,null,img/planet4_right.png,4,Community 2,NA,FALSE,null,j,NA,NA,NA,1,7,"15,9,7,1,5,13,4,2,8,3,12,14,11,10,6"
14825,commdev-image-keyboard-response,342,1292133,learnblock1,null,img/planet13_left.png,13,Community 2,NA,FALSE,null,f,NA,NA,NA,1,7,"15,9,7,1,5,13,4,2,8,3,12,14,11,10,6"
14825,commdev-image-keyboard-response,343,1293398,learnblock1,null,img/planet8_right.png,8,Community 2,NA,FALSE,null,j,NA,NA,NA,1,7,"15,9,7,1,5,13,4,2,8,3,12,14,11,10,6"
14825,commdev-image-keyboard-response,344,1294656,learnblock1,null,img/planet4_left.png,4,Community 2,NA,FALSE,null,f,NA,NA,NA,1,7,"15,9,7,1,5,13,4,2,8,3,12,14,11,10,6"
14825,commdev-image-keyboard-response,345,1295916,learnblock1,null,img/planet3_left.png,3,Community 2,NA,FALSE,null,f,NA,NA,NA,1,7,"15,9,7,1,5,13,4,2,8,3,12,14,11,10,6"
14825,commdev-image-keyboard-response,346,1297175,learnblock1,null,img/planet4_left.png,4,Community 2,NA,FALSE,null,f,NA,NA,NA,1,7,"15,9,7,1,5,13,4,2,8,3,12,14,11,10,6"
14825,commdev-image-keyboard-response,347,1298442,learnblock1,null,img/planet2_right.png,2,Community 2,NA,FALSE,null,j,NA,NA,NA,1,7,"15,9,7,1,5,13,4,2,8,3,12,14,11,10,6"
14825,commdev-image-keyboard-response,348,1299697,learnblock1,null,img/planet3_right.png,3,Community 2,NA,FALSE,null,j,NA,NA,NA,1,7,"15,9,7,1,5,13,4,2,8,3,12,14,11,10,6"
14825,commdev-image-keyboard-response,349,1300956,learnblock1,null,img/planet8_left.png,8,Community 2,NA,FALSE,null,f,NA,NA,NA,1,7,"15,9,7,1,5,13,4,2,8,3,12,14,11,10,6"
14825,commdev-image-keyboard-response,350,1302216,learnblock1,null,img/planet13_left.png,13,Community 2,NA,FALSE,null,f,NA,NA,NA,1,7,"15,9,7,1,5,13,4,2,8,3,12,14,11,10,6"
14825,commdev-image-keyboard-response,351,1303472,learnblock1,null,img/planet4_left.png,4,Community 2,NA,FALSE,null,f,NA,NA,NA,1,7,"15,9,7,1,5,13,4,2,8,3,12,14,11,10,6"
14825,commdev-image-keyboard-response,352,1304732,learnblock1,null,img/planet3_right.png,3,Community 2,NA,FALSE,null,j,NA,NA,NA,1,7,"15,9,7,1,5,13,4,2,8,3,12,14,11,10,6"
14825,commdev-image-keyboard-response,353,1305989,learnblock1,null,img/planet8_right.png,8,Community 2,NA,FALSE,null,j,NA,NA,NA,1,7,"15,9,7,1,5,13,4,2,8,3,12,14,11,10,6"
14825,commdev-image-keyboard-response,354,1307248,learnblock1,null,img/planet3_right.png,3,Community 2,NA,FALSE,null,j,NA,NA,NA,1,7,"15,9,7,1,5,13,4,2,8,3,12,14,11,10,6"
14825,commdev-image-keyboard-response,355,1308505,learnblock1,null,img/planet13_left.png,13,Community 2,NA,FALSE,null,f,NA,NA,NA,1,7,"15,9,7,1,5,13,4,2,8,3,12,14,11,10,6"
14825,commdev-image-keyboard-response,356,1309765,learnblock1,null,img/planet8_left.png,8,Community 2,NA,FALSE,null,f,NA,NA,NA,1,7,"15,9,7,1,5,13,4,2,8,3,12,14,11,10,6"
14825,commdev-image-keyboard-response,357,1311023,learnblock1,null,img/planet2_left.png,2,Community 2,NA,FALSE,null,f,NA,NA,NA,1,7,"15,9,7,1,5,13,4,2,8,3,12,14,11,10,6"
14825,commdev-image-keyboard-response,358,1312282,learnblock1,null,img/planet3_left.png,3,Community 2,NA,FALSE,null,f,NA,NA,NA,1,7,"15,9,7,1,5,13,4,2,8,3,12,14,11,10,6"
14825,commdev-image-keyboard-response,359,1313540,learnblock1,null,img/planet2_left.png,2,Community 2,NA,FALSE,null,f,NA,NA,NA,1,7,"15,9,7,1,5,13,4,2,8,3,12,14,11,10,6"
14825,commdev-image-keyboard-response,360,1314799,learnblock1,null,img/planet14_left.png,14,Community 3,NA,FALSE,null,f,NA,NA,NA,1,7,"15,9,7,1,5,13,4,2,8,3,12,14,11,10,6"
14825,commdev-image-keyboard-response,361,1316057,learnblock1,null,img/planet2_right.png,2,Community 2,NA,FALSE,null,j,NA,NA,NA,1,7,"15,9,7,1,5,13,4,2,8,3,12,14,11,10,6"
14825,commdev-image-keyboard-response,362,1317315,learnblock1,null,img/planet3_left.png,3,Community 2,NA,FALSE,null,f,NA,NA,NA,1,7,"15,9,7,1,5,13,4,2,8,3,12,14,11,10,6"
14825,commdev-image-keyboard-response,363,1318573,learnblock1,null,img/planet8_left.png,8,Community 2,NA,FALSE,null,f,NA,NA,NA,1,7,"15,9,7,1,5,13,4,2,8,3,12,14,11,10,6"
14825,commdev-image-keyboard-response,364,1319840,learnblock1,null,img/planet3_left.png,3,Community 2,NA,FALSE,null,f,NA,NA,NA,1,7,"15,9,7,1,5,13,4,2,8,3,12,14,11,10,6"
14825,commdev-image-keyboard-response,365,1321093,learnblock1,null,img/planet13_left.png,13,Community 2,NA,FALSE,null,f,NA,NA,NA,1,7,"15,9,7,1,5,13,4,2,8,3,12,14,11,10,6"
14825,commdev-image-keyboard-response,366,1322346,learnblock1,null,img/planet8_left.png,8,Community 2,NA,FALSE,null,f,NA,NA,NA,1,7,"15,9,7,1,5,13,4,2,8,3,12,14,11,10,6"
14825,commdev-image-keyboard-response,367,1323600,learnblock1,null,img/planet2_left.png,2,Community 2,NA,FALSE,null,f,NA,NA,NA,1,7,"15,9,7,1,5,13,4,2,8,3,12,14,11,10,6"
14825,commdev-image-keyboard-response,368,1324864,learnblock1,null,img/planet4_left.png,4,Community 2,NA,FALSE,null,f,NA,NA,NA,1,7,"15,9,7,1,5,13,4,2,8,3,12,14,11,10,6"
14825,commdev-image-keyboard-response,369,1326118,learnblock1,null,img/planet3_left.png,3,Community 2,NA,FALSE,null,f,NA,NA,NA,1,7,"15,9,7,1,5,13,4,2,8,3,12,14,11,10,6"
14825,commdev-image-keyboard-response,370,1327373,learnblock1,null,img/planet13_left.png,13,Community 2,NA,FALSE,null,f,NA,NA,NA,1,7,"15,9,7,1,5,13,4,2,8,3,12,14,11,10,6"
14825,commdev-image-keyboard-response,371,1328628,learnblock1,null,img/planet8_right.png,8,Community 2,NA,FALSE,null,j,NA,NA,NA,1,7,"15,9,7,1,5,13,4,2,8,3,12,14,11,10,6"
14825,commdev-image-keyboard-response,372,1329884,learnblock1,null,img/planet4_left.png,4,Community 2,NA,FALSE,null,f,NA,NA,NA,1,7,"15,9,7,1,5,13,4,2,8,3,12,14,11,10,6"
14825,commdev-image-keyboard-response,373,1331138,learnblock1,null,img/planet2_left.png,2,Community 2,NA,FALSE,null,f,NA,NA,NA,1,7,"15,9,7,1,5,13,4,2,8,3,12,14,11,10,6"
14825,commdev-image-keyboard-response,374,1332393,learnblock1,null,img/planet4_left.png,4,Community 2,NA,FALSE,null,f,NA,NA,NA,1,7,"15,9,7,1,5,13,4,2,8,3,12,14,11,10,6"
14825,commdev-image-keyboard-response,375,1333647,learnblock1,null,img/planet8_left.png,8,Community 2,NA,FALSE,null,f,NA,NA,NA,1,7,"15,9,7,1,5,13,4,2,8,3,12,14,11,10,6"
14825,commdev-image-keyboard-response,376,1334901,learnblock1,null,img/planet13_right.png,13,Community 2,NA,FALSE,null,j,NA,NA,NA,1,7,"15,9,7,1,5,13,4,2,8,3,12,14,11,10,6"
14825,commdev-image-keyboard-response,377,1336156,learnblock1,null,img/planet3_right.png,3,Community 2,NA,FALSE,null,j,NA,NA,NA,1,7,"15,9,7,1,5,13,4,2,8,3,12,14,11,10,6"
14825,commdev-image-keyboard-response,378,1337413,learnblock1,null,img/planet2_right.png,2,Community 2,NA,FALSE,null,j,NA,NA,NA,1,7,"15,9,7,1,5,13,4,2,8,3,12,14,11,10,6"
14825,commdev-image-keyboard-response,379,1338668,learnblock1,null,img/planet8_left.png,8,Community 2,NA,FALSE,null,f,NA,NA,NA,1,7,"15,9,7,1,5,13,4,2,8,3,12,14,11,10,6"
14825,commdev-image-keyboard-response,380,1339924,learnblock1,null,img/planet4_left.png,4,Community 2,NA,FALSE,null,f,NA,NA,NA,1,7,"15,9,7,1,5,13,4,2,8,3,12,14,11,10,6"
14825,commdev-image-keyboard-response,381,1341181,learnblock1,null,img/planet13_left.png,13,Community 2,NA,FALSE,null,f,NA,NA,NA,1,7,"15,9,7,1,5,13,4,2,8,3,12,14,11,10,6"
14825,commdev-image-keyboard-response,382,1342439,learnblock1,null,img/planet4_left.png,4,Community 2,NA,FALSE,null,f,NA,NA,NA,1,7,"15,9,7,1,5,13,4,2,8,3,12,14,11,10,6"
14825,commdev-image-keyboard-response,383,1343698,learnblock1,null,img/planet8_right.png,8,Community 2,NA,FALSE,null,j,NA,NA,NA,1,7,"15,9,7,1,5,13,4,2,8,3,12,14,11,10,6"
14825,commdev-image-keyboard-response,384,1344968,learnblock1,null,img/planet4_right.png,4,Community 2,NA,FALSE,null,j,NA,NA,NA,1,7,"15,9,7,1,5,13,4,2,8,3,12,14,11,10,6"
14825,commdev-image-keyboard-response,385,1346223,learnblock1,null,img/planet8_left.png,8,Community 2,NA,FALSE,null,f,NA,NA,NA,1,7,"15,9,7,1,5,13,4,2,8,3,12,14,11,10,6"
14825,commdev-image-keyboard-response,386,1347479,learnblock1,null,img/planet4_right.png,4,Community 2,NA,FALSE,null,j,NA,NA,NA,1,7,"15,9,7,1,5,13,4,2,8,3,12,14,11,10,6"
14825,commdev-image-keyboard-response,387,1348739,learnblock1,null,img/planet2_right.png,2,Community 2,NA,FALSE,null,j,NA,NA,NA,1,7,"15,9,7,1,5,13,4,2,8,3,12,14,11,10,6"
14825,commdev-image-keyboard-response,388,1350002,learnblock1,null,img/planet3_right.png,3,Community 2,NA,FALSE,null,j,NA,NA,NA,1,7,"15,9,7,1,5,13,4,2,8,3,12,14,11,10,6"
14825,commdev-image-keyboard-response,389,1351257,learnblock1,null,img/planet8_left.png,8,Community 2,NA,FALSE,null,f,NA,NA,NA,1,7,"15,9,7,1,5,13,4,2,8,3,12,14,11,10,6"
14825,commdev-image-keyboard-response,390,1352524,learnblock1,null,img/planet13_left.png,13,Community 2,NA,FALSE,null,f,NA,NA,NA,1,7,"15,9,7,1,5,13,4,2,8,3,12,14,11,10,6"
14825,commdev-image-keyboard-response,391,1353780,learnblock1,null,img/planet3_right.png,3,Community 2,NA,FALSE,null,j,NA,NA,NA,1,7,"15,9,7,1,5,13,4,2,8,3,12,14,11,10,6"
14825,commdev-image-keyboard-response,392,1355037,learnblock1,null,img/planet2_right.png,2,Community 2,NA,FALSE,null,j,NA,NA,NA,1,7,"15,9,7,1,5,13,4,2,8,3,12,14,11,10,6"
14825,commdev-image-keyboard-response,393,1356300,learnblock1,null,img/planet14_left.png,14,Community 3,NA,FALSE,null,f,NA,NA,NA,1,7,"15,9,7,1,5,13,4,2,8,3,12,14,11,10,6"
14825,commdev-image-keyboard-response,394,1357568,learnblock1,null,img/planet10_right.png,10,Community 3,NA,FALSE,null,j,NA,NA,NA,1,7,"15,9,7,1,5,13,4,2,8,3,12,14,11,10,6"
14825,commdev-image-keyboard-response,395,1358828,learnblock1,null,img/planet11_left.png,11,Community 3,NA,FALSE,null,f,NA,NA,NA,1,7,"15,9,7,1,5,13,4,2,8,3,12,14,11,10,6"
14825,commdev-image-keyboard-response,396,1360085,learnblock1,null,img/planet12_right.png,12,Community 3,NA,FALSE,null,j,NA,NA,NA,1,7,"15,9,7,1,5,13,4,2,8,3,12,14,11,10,6"
14825,commdev-image-keyboard-response,397,1361343,learnblock1,null,img/planet6_left.png,6,Community 3,NA,FALSE,null,f,NA,NA,NA,1,7,"15,9,7,1,5,13,4,2,8,3,12,14,11,10,6"
14825,commdev-image-keyboard-response,398,1362602,learnblock1,null,img/planet12_right.png,12,Community 3,NA,FALSE,null,j,NA,NA,NA,1,7,"15,9,7,1,5,13,4,2,8,3,12,14,11,10,6"
14825,commdev-image-keyboard-response,399,1363856,learnblock1,null,img/planet10_left.png,10,Community 3,NA,FALSE,null,f,NA,NA,NA,1,7,"15,9,7,1,5,13,4,2,8,3,12,14,11,10,6"
14825,commdev-image-keyboard-response,400,1365113,learnblock1,null,img/planet12_left.png,12,Community 3,NA,FALSE,null,f,NA,NA,NA,1,7,"15,9,7,1,5,13,4,2,8,3,12,14,11,10,6"
14825,commdev-image-keyboard-response,401,1366368,learnblock1,null,img/planet5_right.png,5,Community 1,NA,FALSE,null,j,NA,NA,NA,1,7,"15,9,7,1,5,13,4,2,8,3,12,14,11,10,6"
14825,commdev-image-keyboard-response,402,1367622,learnblock1,null,img/planet15_right.png,15,Community 1,NA,FALSE,null,j,NA,NA,NA,1,7,"15,9,7,1,5,13,4,2,8,3,12,14,11,10,6"
14825,commdev-image-keyboard-response,403,1368878,learnblock1,null,img/planet9_right.png,9,Community 1,NA,FALSE,null,j,NA,NA,NA,1,7,"15,9,7,1,5,13,4,2,8,3,12,14,11,10,6"
14825,commdev-image-keyboard-response,404,1370138,learnblock1,null,img/planet15_right.png,15,Community 1,NA,FALSE,null,j,NA,NA,NA,1,7,"15,9,7,1,5,13,4,2,8,3,12,14,11,10,6"
14825,commdev-image-keyboard-response,405,1371404,learnblock1,null,img/planet7_left.png,7,Community 1,NA,FALSE,null,f,NA,NA,NA,1,7,"15,9,7,1,5,13,4,2,8,3,12,14,11,10,6"
14825,commdev-image-keyboard-response,406,1372662,learnblock1,null,img/planet1_left.png,1,Community 1,NA,FALSE,null,f,NA,NA,NA,1,7,"15,9,7,1,5,13,4,2,8,3,12,14,11,10,6"
14825,commdev-image-keyboard-response,407,1373929,learnblock1,null,img/planet13_left.png,13,Community 2,NA,FALSE,null,f,NA,NA,NA,1,7,"15,9,7,1,5,13,4,2,8,3,12,14,11,10,6"
14825,commdev-image-keyboard-response,408,1375186,learnblock1,null,img/planet1_right.png,1,Community 1,NA,FALSE,null,j,NA,NA,NA,1,7,"15,9,7,1,5,13,4,2,8,3,12,14,11,10,6"
14825,commdev-image-keyboard-response,409,1376439,learnblock1,null,img/planet15_right.png,15,Community 1,NA,FALSE,null,j,NA,NA,NA,1,7,"15,9,7,1,5,13,4,2,8,3,12,14,11,10,6"
14825,commdev-image-keyboard-response,410,1377695,learnblock1,null,img/planet5_right.png,5,Community 1,NA,FALSE,null,j,NA,NA,NA,1,7,"15,9,7,1,5,13,4,2,8,3,12,14,11,10,6"
14825,commdev-image-keyboard-response,411,1378960,learnblock1,null,img/planet9_right.png,9,Community 1,NA,FALSE,null,j,NA,NA,NA,1,7,"15,9,7,1,5,13,4,2,8,3,12,14,11,10,6"
14825,commdev-image-keyboard-response,412,1380216,learnblock1,null,img/planet5_left.png,5,Community 1,NA,FALSE,null,f,NA,NA,NA,1,7,"15,9,7,1,5,13,4,2,8,3,12,14,11,10,6"
14825,commdev-image-keyboard-response,413,1381473,learnblock1,null,img/planet7_left.png,7,Community 1,NA,FALSE,null,f,NA,NA,NA,1,7,"15,9,7,1,5,13,4,2,8,3,12,14,11,10,6"
14825,commdev-image-keyboard-response,414,1382729,learnblock1,null,img/planet9_left.png,9,Community 1,NA,FALSE,null,f,NA,NA,NA,1,7,"15,9,7,1,5,13,4,2,8,3,12,14,11,10,6"
14825,commdev-image-keyboard-response,415,1383993,learnblock1,null,img/planet7_right.png,7,Community 1,NA,FALSE,null,j,NA,NA,NA,1,7,"15,9,7,1,5,13,4,2,8,3,12,14,11,10,6"
14825,commdev-image-keyboard-response,416,1385246,learnblock1,null,img/planet5_right.png,5,Community 1,NA,FALSE,null,j,NA,NA,NA,1,7,"15,9,7,1,5,13,4,2,8,3,12,14,11,10,6"
14825,commdev-image-keyboard-response,417,1386506,learnblock1,null,img/planet12_right.png,12,Community 3,NA,FALSE,null,j,NA,NA,NA,1,7,"15,9,7,1,5,13,4,2,8,3,12,14,11,10,6"
14825,commdev-image-keyboard-response,418,1387773,learnblock1,null,img/planet10_right.png,10,Community 3,NA,FALSE,null,j,NA,NA,NA,1,7,"15,9,7,1,5,13,4,2,8,3,12,14,11,10,6"
14825,commdev-image-keyboard-response,419,1389037,learnblock1,null,img/planet6_right.png,6,Community 3,NA,FALSE,null,j,NA,NA,NA,1,7,"15,9,7,1,5,13,4,2,8,3,12,14,11,10,6"
14825,commdev-image-keyboard-response,420,1390295,learnblock1,null,img/planet12_right.png,12,Community 3,NA,FALSE,null,j,NA,NA,NA,1,7,"15,9,7,1,5,13,4,2,8,3,12,14,11,10,6"
14825,commdev-image-keyboard-response,421,1391562,learnblock1,null,img/planet11_right.png,11,Community 3,NA,FALSE,null,j,NA,NA,NA,1,7,"15,9,7,1,5,13,4,2,8,3,12,14,11,10,6"
14825,commdev-image-keyboard-response,422,1392822,learnblock1,null,img/planet10_right.png,10,Community 3,NA,FALSE,null,j,NA,NA,NA,1,7,"15,9,7,1,5,13,4,2,8,3,12,14,11,10,6"
14825,commdev-image-keyboard-response,423,1394078,learnblock1,null,img/planet12_right.png,12,Community 3,NA,FALSE,null,j,NA,NA,NA,1,7,"15,9,7,1,5,13,4,2,8,3,12,14,11,10,6"
14825,commdev-image-keyboard-response,424,1395336,learnblock1,null,img/planet6_right.png,6,Community 3,NA,FALSE,null,j,NA,NA,NA,1,7,"15,9,7,1,5,13,4,2,8,3,12,14,11,10,6"
14825,commdev-image-keyboard-response,425,1396589,learnblock1,null,img/planet12_left.png,12,Community 3,NA,FALSE,null,f,NA,NA,NA,1,7,"15,9,7,1,5,13,4,2,8,3,12,14,11,10,6"
14825,commdev-image-keyboard-response,426,1397842,learnblock1,null,img/planet5_right.png,5,Community 1,NA,FALSE,null,j,NA,NA,NA,1,7,"15,9,7,1,5,13,4,2,8,3,12,14,11,10,6"
14825,commdev-image-keyboard-response,427,1399094,learnblock1,null,img/planet15_right.png,15,Community 1,NA,FALSE,null,j,NA,NA,NA,1,7,"15,9,7,1,5,13,4,2,8,3,12,14,11,10,6"
14825,commdev-image-keyboard-response,428,1400361,learnblock1,null,img/planet1_left.png,1,Community 1,NA,FALSE,null,f,NA,NA,NA,1,7,"15,9,7,1,5,13,4,2,8,3,12,14,11,10,6"
14825,commdev-image-keyboard-response,429,1401628,learnblock1,null,img/planet13_right.png,13,Community 2,NA,FALSE,null,j,NA,NA,NA,1,7,"15,9,7,1,5,13,4,2,8,3,12,14,11,10,6"
14825,commdev-image-keyboard-response,430,1402882,learnblock1,null,img/planet1_right.png,1,Community 1,NA,FALSE,null,j,NA,NA,NA,1,7,"15,9,7,1,5,13,4,2,8,3,12,14,11,10,6"
14825,commdev-image-keyboard-response,431,1404144,learnblock1,null,img/planet13_left.png,13,Community 2,NA,FALSE,null,f,NA,NA,NA,1,7,"15,9,7,1,5,13,4,2,8,3,12,14,11,10,6"
14825,commdev-image-keyboard-response,432,1405402,learnblock1,null,img/planet3_left.png,3,Community 2,NA,FALSE,null,f,NA,NA,NA,1,7,"15,9,7,1,5,13,4,2,8,3,12,14,11,10,6"
14825,commdev-image-keyboard-response,433,1406657,learnblock1,777.2000000476837,img/planet8_left.png,8,Community 2,NA,FALSE,j,f,NA,NA,NA,1,7,"15,9,7,1,5,13,4,2,8,3,12,14,11,10,6"
14825,commdev-image-keyboard-response,434,1407910,learnblock1,161,img/planet13_left.png,13,Community 2,NA,FALSE,j,f,NA,NA,NA,1,7,"15,9,7,1,5,13,4,2,8,3,12,14,11,10,6"
14825,commdev-image-keyboard-response,435,1409169,learnblock1,109.39999997615814,img/planet1_right.png,1,Community 1,NA,TRUE,j,j,NA,NA,NA,1,7,"15,9,7,1,5,13,4,2,8,3,12,14,11,10,6"
14825,commdev-image-keyboard-response,436,1410424,learnblock1,564.3999999761581,img/planet13_right.png,13,Community 2,NA,TRUE,j,j,NA,NA,NA,1,7,"15,9,7,1,5,13,4,2,8,3,12,14,11,10,6"
14825,commdev-image-keyboard-response,437,1411682,learnblock1,220.20000004768372,img/planet8_right.png,8,Community 2,NA,TRUE,j,j,NA,NA,NA,1,7,"15,9,7,1,5,13,4,2,8,3,12,14,11,10,6"
14825,commdev-image-keyboard-response,438,1412942,learnblock1,null,img/planet4_left.png,4,Community 2,NA,FALSE,null,f,NA,NA,NA,1,7,"15,9,7,1,5,13,4,2,8,3,12,14,11,10,6"
14825,commdev-image-keyboard-response,439,1414199,learnblock1,null,img/planet8_right.png,8,Community 2,NA,FALSE,null,j,NA,NA,NA,1,7,"15,9,7,1,5,13,4,2,8,3,12,14,11,10,6"
14825,commdev-image-keyboard-response,440,1415457,learnblock1,null,img/planet2_left.png,2,Community 2,NA,FALSE,null,f,NA,NA,NA,1,7,"15,9,7,1,5,13,4,2,8,3,12,14,11,10,6"
14825,commdev-image-keyboard-response,441,1416710,learnblock1,null,img/planet4_right.png,4,Community 2,NA,FALSE,null,j,NA,NA,NA,1,7,"15,9,7,1,5,13,4,2,8,3,12,14,11,10,6"
14825,commdev-image-keyboard-response,442,1417969,learnblock1,null,img/planet3_right.png,3,Community 2,NA,FALSE,null,j,NA,NA,NA,1,7,"15,9,7,1,5,13,4,2,8,3,12,14,11,10,6"
14825,commdev-image-keyboard-response,443,1419227,learnblock1,null,img/planet13_left.png,13,Community 2,NA,FALSE,null,f,NA,NA,NA,1,7,"15,9,7,1,5,13,4,2,8,3,12,14,11,10,6"
14825,commdev-image-keyboard-response,444,1420480,learnblock1,null,img/planet3_right.png,3,Community 2,NA,FALSE,null,j,NA,NA,NA,1,7,"15,9,7,1,5,13,4,2,8,3,12,14,11,10,6"
14825,commdev-image-keyboard-response,445,1421745,learnblock1,null,img/planet2_left.png,2,Community 2,NA,FALSE,null,f,NA,NA,NA,1,7,"15,9,7,1,5,13,4,2,8,3,12,14,11,10,6"
14825,commdev-image-keyboard-response,446,1423001,learnblock1,null,img/planet8_left.png,8,Community 2,NA,FALSE,null,f,NA,NA,NA,1,7,"15,9,7,1,5,13,4,2,8,3,12,14,11,10,6"
14825,commdev-image-keyboard-response,447,1424259,learnblock1,null,img/planet13_right.png,13,Community 2,NA,FALSE,null,j,NA,NA,NA,1,7,"15,9,7,1,5,13,4,2,8,3,12,14,11,10,6"
14825,commdev-image-keyboard-response,448,1425523,learnblock1,null,img/planet3_left.png,3,Community 2,NA,FALSE,null,f,NA,NA,NA,1,7,"15,9,7,1,5,13,4,2,8,3,12,14,11,10,6"
14825,commdev-image-keyboard-response,449,1426779,learnblock1,null,img/planet8_right.png,8,Community 2,NA,FALSE,null,j,NA,NA,NA,1,7,"15,9,7,1,5,13,4,2,8,3,12,14,11,10,6"
14825,commdev-image-keyboard-response,450,1428035,learnblock1,null,img/planet4_right.png,4,Community 2,NA,FALSE,null,j,NA,NA,NA,1,7,"15,9,7,1,5,13,4,2,8,3,12,14,11,10,6"
14825,commdev-image-keyboard-response,451,1429287,learnblock1,null,img/planet3_left.png,3,Community 2,NA,FALSE,null,f,NA,NA,NA,1,7,"15,9,7,1,5,13,4,2,8,3,12,14,11,10,6"
14825,commdev-image-keyboard-response,452,1430542,learnblock1,null,img/planet4_right.png,4,Community 2,NA,FALSE,null,j,NA,NA,NA,1,7,"15,9,7,1,5,13,4,2,8,3,12,14,11,10,6"
14825,commdev-image-keyboard-response,453,1431795,learnblock1,null,img/planet13_left.png,13,Community 2,NA,FALSE,null,f,NA,NA,NA,1,7,"15,9,7,1,5,13,4,2,8,3,12,14,11,10,6"
14825,commdev-image-keyboard-response,454,1433057,learnblock1,null,img/planet1_right.png,1,Community 1,NA,FALSE,null,j,NA,NA,NA,1,7,"15,9,7,1,5,13,4,2,8,3,12,14,11,10,6"
14825,commdev-image-keyboard-response,455,1434319,learnblock1,null,img/planet15_left.png,15,Community 1,NA,FALSE,null,f,NA,NA,NA,1,7,"15,9,7,1,5,13,4,2,8,3,12,14,11,10,6"
14825,commdev-image-keyboard-response,459,1466349,learnblock2,1088.2000000476837,img/planet11_right.png,11,Community 3,NA,FALSE,f,j,NA,NA,NA,1,7,"15,9,7,1,5,13,4,2,8,3,12,14,11,10,6"
14825,commdev-image-keyboard-response,460,1467604,learnblock2,778.6000000238419,img/planet10_right.png,10,Community 3,NA,TRUE,j,j,NA,NA,NA,1,7,"15,9,7,1,5,13,4,2,8,3,12,14,11,10,6"
14825,commdev-image-keyboard-response,461,1468860,learnblock2,null,img/planet6_right.png,6,Community 3,NA,FALSE,null,j,NA,NA,NA,1,7,"15,9,7,1,5,13,4,2,8,3,12,14,11,10,6"
14825,commdev-image-keyboard-response,462,1470116,learnblock2,null,img/planet12_right.png,12,Community 3,NA,FALSE,null,j,NA,NA,NA,1,7,"15,9,7,1,5,13,4,2,8,3,12,14,11,10,6"
14825,commdev-image-keyboard-response,463,1471373,learnblock2,null,img/planet11_left.png,11,Community 3,NA,FALSE,null,f,NA,NA,NA,1,7,"15,9,7,1,5,13,4,2,8,3,12,14,11,10,6"
14825,commdev-image-keyboard-response,464,1472635,learnblock2,null,img/planet12_right.png,12,Community 3,NA,FALSE,null,j,NA,NA,NA,1,7,"15,9,7,1,5,13,4,2,8,3,12,14,11,10,6"
14825,commdev-image-keyboard-response,465,1473896,learnblock2,null,img/planet11_left.png,11,Community 3,NA,FALSE,null,f,NA,NA,NA,1,7,"15,9,7,1,5,13,4,2,8,3,12,14,11,10,6"
14825,commdev-image-keyboard-response,466,1475150,learnblock2,null,img/planet6_left.png,6,Community 3,NA,FALSE,null,f,NA,NA,NA,1,7,"15,9,7,1,5,13,4,2,8,3,12,14,11,10,6"
14825,commdev-image-keyboard-response,467,1476403,learnblock2,null,img/planet12_left.png,12,Community 3,NA,FALSE,null,f,NA,NA,NA,1,7,"15,9,7,1,5,13,4,2,8,3,12,14,11,10,6"
14825,commdev-image-keyboard-response,468,1477667,learnblock2,null,img/planet11_right.png,11,Community 3,NA,FALSE,null,j,NA,NA,NA,1,7,"15,9,7,1,5,13,4,2,8,3,12,14,11,10,6"
14825,commdev-image-keyboard-response,469,1478923,learnblock2,null,img/planet10_left.png,10,Community 3,NA,FALSE,null,f,NA,NA,NA,1,7,"15,9,7,1,5,13,4,2,8,3,12,14,11,10,6"
14825,commdev-image-keyboard-response,470,1480186,learnblock2,null,img/planet6_left.png,6,Community 3,NA,FALSE,null,f,NA,NA,NA,1,7,"15,9,7,1,5,13,4,2,8,3,12,14,11,10,6"
14825,commdev-image-keyboard-response,471,1481444,learnblock2,null,img/planet10_left.png,10,Community 3,NA,FALSE,null,f,NA,NA,NA,1,7,"15,9,7,1,5,13,4,2,8,3,12,14,11,10,6"
14825,commdev-image-keyboard-response,472,1482699,learnblock2,null,img/planet12_right.png,12,Community 3,NA,FALSE,null,j,NA,NA,NA,1,7,"15,9,7,1,5,13,4,2,8,3,12,14,11,10,6"
14825,commdev-image-keyboard-response,473,1483955,learnblock2,null,img/planet5_left.png,5,Community 1,NA,FALSE,null,f,NA,NA,NA,1,7,"15,9,7,1,5,13,4,2,8,3,12,14,11,10,6"
14825,commdev-image-keyboard-response,474,1485213,learnblock2,null,img/planet15_right.png,15,Community 1,NA,FALSE,null,j,NA,NA,NA,1,7,"15,9,7,1,5,13,4,2,8,3,12,14,11,10,6"
14825,commdev-image-keyboard-response,475,1486470,learnblock2,null,img/planet7_right.png,7,Community 1,NA,FALSE,null,j,NA,NA,NA,1,7,"15,9,7,1,5,13,4,2,8,3,12,14,11,10,6"
14825,commdev-image-keyboard-response,476,1487733,learnblock2,null,img/planet9_left.png,9,Community 1,NA,FALSE,null,f,NA,NA,NA,1,7,"15,9,7,1,5,13,4,2,8,3,12,14,11,10,6"
14825,commdev-image-keyboard-response,477,1488989,learnblock2,null,img/planet5_right.png,5,Community 1,NA,FALSE,null,j,NA,NA,NA,1,7,"15,9,7,1,5,13,4,2,8,3,12,14,11,10,6"
14825,commdev-image-keyboard-response,478,1490252,learnblock2,null,img/planet12_left.png,12,Community 3,NA,FALSE,null,f,NA,NA,NA,1,7,"15,9,7,1,5,13,4,2,8,3,12,14,11,10,6"
14825,commdev-image-keyboard-response,479,1491510,learnblock2,null,img/planet10_left.png,10,Community 3,NA,FALSE,null,f,NA,NA,NA,1,7,"15,9,7,1,5,13,4,2,8,3,12,14,11,10,6"
14825,commdev-image-keyboard-response,480,1492767,learnblock2,null,img/planet14_left.png,14,Community 3,NA,FALSE,null,f,NA,NA,NA,1,7,"15,9,7,1,5,13,4,2,8,3,12,14,11,10,6"
14825,commdev-image-keyboard-response,481,1494022,learnblock2,null,img/planet6_left.png,6,Community 3,NA,FALSE,null,f,NA,NA,NA,1,7,"15,9,7,1,5,13,4,2,8,3,12,14,11,10,6"
14825,commdev-image-keyboard-response,482,1495276,learnblock2,null,img/planet14_left.png,14,Community 3,NA,FALSE,null,f,NA,NA,NA,1,7,"15,9,7,1,5,13,4,2,8,3,12,14,11,10,6"
14825,commdev-image-keyboard-response,483,1496535,learnblock2,null,img/planet10_left.png,10,Community 3,NA,FALSE,null,f,NA,NA,NA,1,7,"15,9,7,1,5,13,4,2,8,3,12,14,11,10,6"
14825,commdev-image-keyboard-response,484,1497803,learnblock2,null,img/planet12_left.png,12,Community 3,NA,FALSE,null,f,NA,NA,NA,1,7,"15,9,7,1,5,13,4,2,8,3,12,14,11,10,6"
14825,commdev-image-keyboard-response,485,1499062,learnblock2,null,img/planet5_right.png,5,Community 1,NA,FALSE,null,j,NA,NA,NA,1,7,"15,9,7,1,5,13,4,2,8,3,12,14,11,10,6"
14825,commdev-image-keyboard-response,486,1500322,learnblock2,null,img/planet9_left.png,9,Community 1,NA,FALSE,null,f,NA,NA,NA,1,7,"15,9,7,1,5,13,4,2,8,3,12,14,11,10,6"
14825,commdev-image-keyboard-response,487,1501587,learnblock2,null,img/planet5_left.png,5,Community 1,NA,FALSE,null,f,NA,NA,NA,1,7,"15,9,7,1,5,13,4,2,8,3,12,14,11,10,6"
14825,commdev-image-keyboard-response,488,1502852,learnblock2,null,img/planet15_left.png,15,Community 1,NA,FALSE,null,f,NA,NA,NA,1,7,"15,9,7,1,5,13,4,2,8,3,12,14,11,10,6"
14825,commdev-image-keyboard-response,489,1504111,learnblock2,null,img/planet5_left.png,5,Community 1,NA,FALSE,null,f,NA,NA,NA,1,7,"15,9,7,1,5,13,4,2,8,3,12,14,11,10,6"
14825,commdev-image-keyboard-response,490,1505365,learnblock2,null,img/planet15_left.png,15,Community 1,NA,FALSE,null,f,NA,NA,NA,1,7,"15,9,7,1,5,13,4,2,8,3,12,14,11,10,6"
14825,commdev-image-keyboard-response,491,1506626,learnblock2,null,img/planet9_left.png,9,Community 1,NA,FALSE,null,f,NA,NA,NA,1,7,"15,9,7,1,5,13,4,2,8,3,12,14,11,10,6"
14825,commdev-image-keyboard-response,492,1507882,learnblock2,null,img/planet5_left.png,5,Community 1,NA,FALSE,null,f,NA,NA,NA,1,7,"15,9,7,1,5,13,4,2,8,3,12,14,11,10,6"
14825,commdev-image-keyboard-response,493,1509146,learnblock2,null,img/planet7_right.png,7,Community 1,NA,FALSE,null,j,NA,NA,NA,1,7,"15,9,7,1,5,13,4,2,8,3,12,14,11,10,6"
14825,commdev-image-keyboard-response,494,1510406,learnblock2,null,img/planet9_right.png,9,Community 1,NA,FALSE,null,j,NA,NA,NA,1,7,"15,9,7,1,5,13,4,2,8,3,12,14,11,10,6"
14825,commdev-image-keyboard-response,495,1511666,learnblock2,null,img/planet5_right.png,5,Community 1,NA,FALSE,null,j,NA,NA,NA,1,7,"15,9,7,1,5,13,4,2,8,3,12,14,11,10,6"
14825,commdev-image-keyboard-response,496,1512930,learnblock2,null,img/planet15_left.png,15,Community 1,NA,FALSE,null,f,NA,NA,NA,1,7,"15,9,7,1,5,13,4,2,8,3,12,14,11,10,6"
14825,commdev-image-keyboard-response,497,1514196,learnblock2,null,img/planet7_left.png,7,Community 1,NA,FALSE,null,f,NA,NA,NA,1,7,"15,9,7,1,5,13,4,2,8,3,12,14,11,10,6"
14825,commdev-image-keyboard-response,498,1515454,learnblock2,null,img/planet5_left.png,5,Community 1,NA,FALSE,null,f,NA,NA,NA,1,7,"15,9,7,1,5,13,4,2,8,3,12,14,11,10,6"
14825,commdev-image-keyboard-response,499,1516707,learnblock2,null,img/planet7_left.png,7,Community 1,NA,FALSE,null,f,NA,NA,NA,1,7,"15,9,7,1,5,13,4,2,8,3,12,14,11,10,6"
14825,commdev-image-keyboard-response,500,1517965,learnblock2,null,img/planet15_left.png,15,Community 1,NA,FALSE,null,f,NA,NA,NA,1,7,"15,9,7,1,5,13,4,2,8,3,12,14,11,10,6"
14825,commdev-image-keyboard-response,501,1519218,learnblock2,null,img/planet7_right.png,7,Community 1,NA,FALSE,null,j,NA,NA,NA,1,7,"15,9,7,1,5,13,4,2,8,3,12,14,11,10,6"
14825,commdev-image-keyboard-response,502,1520474,learnblock2,null,img/planet5_left.png,5,Community 1,NA,FALSE,null,f,NA,NA,NA,1,7,"15,9,7,1,5,13,4,2,8,3,12,14,11,10,6"
14825,commdev-image-keyboard-response,503,1521732,learnblock2,null,img/planet9_left.png,9,Community 1,NA,FALSE,null,f,NA,NA,NA,1,7,"15,9,7,1,5,13,4,2,8,3,12,14,11,10,6"
14825,commdev-image-keyboard-response,504,1522992,learnblock2,null,img/planet5_right.png,5,Community 1,NA,FALSE,null,j,NA,NA,NA,1,7,"15,9,7,1,5,13,4,2,8,3,12,14,11,10,6"
14825,commdev-image-keyboard-response,505,1524249,learnblock2,null,img/planet12_right.png,12,Community 3,NA,FALSE,null,j,NA,NA,NA,1,7,"15,9,7,1,5,13,4,2,8,3,12,14,11,10,6"
14825,commdev-image-keyboard-response,506,1525502,learnblock2,null,img/planet5_right.png,5,Community 1,NA,FALSE,null,j,NA,NA,NA,1,7,"15,9,7,1,5,13,4,2,8,3,12,14,11,10,6"
14825,commdev-image-keyboard-response,507,1526762,learnblock2,null,img/planet9_left.png,9,Community 1,NA,FALSE,null,f,NA,NA,NA,1,7,"15,9,7,1,5,13,4,2,8,3,12,14,11,10,6"
14825,commdev-image-keyboard-response,508,1528028,learnblock2,null,img/planet7_left.png,7,Community 1,NA,FALSE,null,f,NA,NA,NA,1,7,"15,9,7,1,5,13,4,2,8,3,12,14,11,10,6"
14825,commdev-image-keyboard-response,509,1529287,learnblock2,null,img/planet9_left.png,9,Community 1,NA,FALSE,null,f,NA,NA,NA,1,7,"15,9,7,1,5,13,4,2,8,3,12,14,11,10,6"
14825,commdev-image-keyboard-response,510,1530556,learnblock2,null,img/planet5_left.png,5,Community 1,NA,FALSE,null,f,NA,NA,NA,1,7,"15,9,7,1,5,13,4,2,8,3,12,14,11,10,6"
14825,commdev-image-keyboard-response,511,1531811,learnblock2,null,img/planet9_right.png,9,Community 1,NA,FALSE,null,j,NA,NA,NA,1,7,"15,9,7,1,5,13,4,2,8,3,12,14,11,10,6"
14825,commdev-image-keyboard-response,512,1533070,learnblock2,null,img/planet1_left.png,1,Community 1,NA,FALSE,null,f,NA,NA,NA,1,7,"15,9,7,1,5,13,4,2,8,3,12,14,11,10,6"
14825,commdev-image-keyboard-response,513,1534330,learnblock2,null,img/planet15_right.png,15,Community 1,NA,FALSE,null,j,NA,NA,NA,1,7,"15,9,7,1,5,13,4,2,8,3,12,14,11,10,6"
14825,commdev-image-keyboard-response,514,1535584,learnblock2,null,img/planet5_right.png,5,Community 1,NA,FALSE,null,j,NA,NA,NA,1,7,"15,9,7,1,5,13,4,2,8,3,12,14,11,10,6"
14825,commdev-image-keyboard-response,515,1536851,learnblock2,null,img/planet7_right.png,7,Community 1,NA,FALSE,null,j,NA,NA,NA,1,7,"15,9,7,1,5,13,4,2,8,3,12,14,11,10,6"
14825,commdev-image-keyboard-response,516,1538112,learnblock2,null,img/planet5_right.png,5,Community 1,NA,FALSE,null,j,NA,NA,NA,1,7,"15,9,7,1,5,13,4,2,8,3,12,14,11,10,6"
14825,commdev-image-keyboard-response,517,1539367,learnblock2,null,img/planet9_right.png,9,Community 1,NA,FALSE,null,j,NA,NA,NA,1,7,"15,9,7,1,5,13,4,2,8,3,12,14,11,10,6"
14825,commdev-image-keyboard-response,518,1540627,learnblock2,null,img/planet15_left.png,15,Community 1,NA,FALSE,null,f,NA,NA,NA,1,7,"15,9,7,1,5,13,4,2,8,3,12,14,11,10,6"
14825,commdev-image-keyboard-response,519,1541879,learnblock2,null,img/planet5_right.png,5,Community 1,NA,FALSE,null,j,NA,NA,NA,1,7,"15,9,7,1,5,13,4,2,8,3,12,14,11,10,6"
14825,commdev-image-keyboard-response,520,1543144,learnblock2,null,img/planet12_left.png,12,Community 3,NA,FALSE,null,f,NA,NA,NA,1,7,"15,9,7,1,5,13,4,2,8,3,12,14,11,10,6"
14825,commdev-image-keyboard-response,521,1544412,learnblock2,null,img/planet6_right.png,6,Community 3,NA,FALSE,null,j,NA,NA,NA,1,7,"15,9,7,1,5,13,4,2,8,3,12,14,11,10,6"
14825,commdev-image-keyboard-response,522,1545669,learnblock2,null,img/planet11_right.png,11,Community 3,NA,FALSE,null,j,NA,NA,NA,1,7,"15,9,7,1,5,13,4,2,8,3,12,14,11,10,6"
14825,commdev-image-keyboard-response,523,1546926,learnblock2,null,img/planet14_right.png,14,Community 3,NA,FALSE,null,j,NA,NA,NA,1,7,"15,9,7,1,5,13,4,2,8,3,12,14,11,10,6"
14825,commdev-image-keyboard-response,524,1548185,learnblock2,null,img/planet11_left.png,11,Community 3,NA,FALSE,null,f,NA,NA,NA,1,7,"15,9,7,1,5,13,4,2,8,3,12,14,11,10,6"
14825,commdev-image-keyboard-response,525,1549445,learnblock2,null,img/planet6_right.png,6,Community 3,NA,FALSE,null,j,NA,NA,NA,1,7,"15,9,7,1,5,13,4,2,8,3,12,14,11,10,6"
14825,commdev-image-keyboard-response,526,1550699,learnblock2,null,img/planet10_right.png,10,Community 3,NA,FALSE,null,j,NA,NA,NA,1,7,"15,9,7,1,5,13,4,2,8,3,12,14,11,10,6"
14825,commdev-image-keyboard-response,527,1551959,learnblock2,null,img/planet6_left.png,6,Community 3,NA,FALSE,null,f,NA,NA,NA,1,7,"15,9,7,1,5,13,4,2,8,3,12,14,11,10,6"
14825,commdev-image-keyboard-response,528,1553219,learnblock2,null,img/planet10_right.png,10,Community 3,NA,FALSE,null,j,NA,NA,NA,1,7,"15,9,7,1,5,13,4,2,8,3,12,14,11,10,6"
14825,commdev-image-keyboard-response,529,1554486,learnblock2,null,img/planet12_left.png,12,Community 3,NA,FALSE,null,f,NA,NA,NA,1,7,"15,9,7,1,5,13,4,2,8,3,12,14,11,10,6"
14825,commdev-image-keyboard-response,530,1555744,learnblock2,null,img/planet11_right.png,11,Community 3,NA,FALSE,null,j,NA,NA,NA,1,7,"15,9,7,1,5,13,4,2,8,3,12,14,11,10,6"
14825,commdev-image-keyboard-response,531,1557002,learnblock2,null,img/planet10_left.png,10,Community 3,NA,FALSE,null,f,NA,NA,NA,1,7,"15,9,7,1,5,13,4,2,8,3,12,14,11,10,6"
14825,commdev-image-keyboard-response,532,1558255,learnblock2,null,img/planet6_right.png,6,Community 3,NA,FALSE,null,j,NA,NA,NA,1,7,"15,9,7,1,5,13,4,2,8,3,12,14,11,10,6"
14825,commdev-image-keyboard-response,533,1559513,learnblock2,null,img/planet11_right.png,11,Community 3,NA,FALSE,null,j,NA,NA,NA,1,7,"15,9,7,1,5,13,4,2,8,3,12,14,11,10,6"
14825,commdev-image-keyboard-response,534,1560772,learnblock2,null,img/planet14_left.png,14,Community 3,NA,FALSE,null,f,NA,NA,NA,1,7,"15,9,7,1,5,13,4,2,8,3,12,14,11,10,6"
14825,commdev-image-keyboard-response,535,1562026,learnblock2,null,img/planet11_left.png,11,Community 3,NA,FALSE,null,f,NA,NA,NA,1,7,"15,9,7,1,5,13,4,2,8,3,12,14,11,10,6"
14825,commdev-image-keyboard-response,536,1563288,learnblock2,null,img/planet12_left.png,12,Community 3,NA,FALSE,null,f,NA,NA,NA,1,7,"15,9,7,1,5,13,4,2,8,3,12,14,11,10,6"
14825,commdev-image-keyboard-response,537,1564543,learnblock2,null,img/planet10_right.png,10,Community 3,NA,FALSE,null,j,NA,NA,NA,1,7,"15,9,7,1,5,13,4,2,8,3,12,14,11,10,6"
14825,commdev-image-keyboard-response,538,1565812,learnblock2,null,img/planet14_left.png,14,Community 3,NA,FALSE,null,f,NA,NA,NA,1,7,"15,9,7,1,5,13,4,2,8,3,12,14,11,10,6"
14825,commdev-image-keyboard-response,539,1567069,learnblock2,null,img/planet6_left.png,6,Community 3,NA,FALSE,null,f,NA,NA,NA,1,7,"15,9,7,1,5,13,4,2,8,3,12,14,11,10,6"
14825,commdev-image-keyboard-response,540,1568336,learnblock2,null,img/planet14_right.png,14,Community 3,NA,FALSE,null,j,NA,NA,NA,1,7,"15,9,7,1,5,13,4,2,8,3,12,14,11,10,6"
14825,commdev-image-keyboard-response,541,1569589,learnblock2,null,img/planet10_right.png,10,Community 3,NA,FALSE,null,j,NA,NA,NA,1,7,"15,9,7,1,5,13,4,2,8,3,12,14,11,10,6"
14825,commdev-image-keyboard-response,542,1570845,learnblock2,null,img/planet11_left.png,11,Community 3,NA,FALSE,null,f,NA,NA,NA,1,7,"15,9,7,1,5,13,4,2,8,3,12,14,11,10,6"
14825,commdev-image-keyboard-response,543,1572104,learnblock2,null,img/planet10_left.png,10,Community 3,NA,FALSE,null,f,NA,NA,NA,1,7,"15,9,7,1,5,13,4,2,8,3,12,14,11,10,6"
14825,commdev-image-keyboard-response,544,1573357,learnblock2,null,img/planet11_right.png,11,Community 3,NA,FALSE,null,j,NA,NA,NA,1,7,"15,9,7,1,5,13,4,2,8,3,12,14,11,10,6"
14825,commdev-image-keyboard-response,545,1574617,learnblock2,null,img/planet12_right.png,12,Community 3,NA,FALSE,null,j,NA,NA,NA,1,7,"15,9,7,1,5,13,4,2,8,3,12,14,11,10,6"
14825,commdev-image-keyboard-response,546,1575872,learnblock2,null,img/planet10_left.png,10,Community 3,NA,FALSE,null,f,NA,NA,NA,1,7,"15,9,7,1,5,13,4,2,8,3,12,14,11,10,6"
14825,commdev-image-keyboard-response,547,1577137,learnblock2,null,img/planet14_left.png,14,Community 3,NA,FALSE,null,f,NA,NA,NA,1,7,"15,9,7,1,5,13,4,2,8,3,12,14,11,10,6"
14825,commdev-image-keyboard-response,548,1578404,learnblock2,null,img/planet6_left.png,6,Community 3,NA,FALSE,null,f,NA,NA,NA,1,7,"15,9,7,1,5,13,4,2,8,3,12,14,11,10,6"
14825,commdev-image-keyboard-response,549,1579663,learnblock2,null,img/planet12_right.png,12,Community 3,NA,FALSE,null,j,NA,NA,NA,1,7,"15,9,7,1,5,13,4,2,8,3,12,14,11,10,6"
14825,commdev-image-keyboard-response,550,1580922,learnblock2,null,img/planet5_left.png,5,Community 1,NA,FALSE,null,f,NA,NA,NA,1,7,"15,9,7,1,5,13,4,2,8,3,12,14,11,10,6"
14825,commdev-image-keyboard-response,551,1582175,learnblock2,null,img/planet15_right.png,15,Community 1,NA,FALSE,null,j,NA,NA,NA,1,7,"15,9,7,1,5,13,4,2,8,3,12,14,11,10,6"
14825,commdev-image-keyboard-response,552,1583429,learnblock2,490.09999990463257,img/planet5_left.png,5,Community 1,NA,TRUE,f,f,NA,NA,NA,1,7,"15,9,7,1,5,13,4,2,8,3,12,14,11,10,6"
14825,commdev-image-keyboard-response,553,1584683,learnblock2,172.30000007152557,img/planet7_left.png,7,Community 1,NA,TRUE,f,f,NA,NA,NA,1,7,"15,9,7,1,5,13,4,2,8,3,12,14,11,10,6"
14825,commdev-image-keyboard-response,554,1585952,learnblock2,null,img/planet15_right.png,15,Community 1,NA,FALSE,null,j,NA,NA,NA,1,7,"15,9,7,1,5,13,4,2,8,3,12,14,11,10,6"
14825,commdev-image-keyboard-response,555,1587211,learnblock2,null,img/planet5_left.png,5,Community 1,NA,FALSE,null,f,NA,NA,NA,1,7,"15,9,7,1,5,13,4,2,8,3,12,14,11,10,6"
14825,commdev-image-keyboard-response,556,1588472,learnblock2,null,img/planet15_right.png,15,Community 1,NA,FALSE,null,j,NA,NA,NA,1,7,"15,9,7,1,5,13,4,2,8,3,12,14,11,10,6"
14825,commdev-image-keyboard-response,557,1589733,learnblock2,null,img/planet9_left.png,9,Community 1,NA,FALSE,null,f,NA,NA,NA,1,7,"15,9,7,1,5,13,4,2,8,3,12,14,11,10,6"
14825,commdev-image-keyboard-response,558,1590985,learnblock2,null,img/planet1_right.png,1,Community 1,NA,FALSE,null,j,NA,NA,NA,1,7,"15,9,7,1,5,13,4,2,8,3,12,14,11,10,6"
14825,commdev-image-keyboard-response,559,1592244,learnblock2,null,img/planet7_right.png,7,Community 1,NA,FALSE,null,j,NA,NA,NA,1,7,"15,9,7,1,5,13,4,2,8,3,12,14,11,10,6"
14825,commdev-image-keyboard-response,560,1593505,learnblock2,null,img/planet15_left.png,15,Community 1,NA,FALSE,null,f,NA,NA,NA,1,7,"15,9,7,1,5,13,4,2,8,3,12,14,11,10,6"
14825,commdev-image-keyboard-response,561,1594764,learnblock2,null,img/planet7_right.png,7,Community 1,NA,FALSE,null,j,NA,NA,NA,1,7,"15,9,7,1,5,13,4,2,8,3,12,14,11,10,6"
14825,commdev-image-keyboard-response,562,1596032,learnblock2,null,img/planet5_right.png,5,Community 1,NA,FALSE,null,j,NA,NA,NA,1,7,"15,9,7,1,5,13,4,2,8,3,12,14,11,10,6"
14825,commdev-image-keyboard-response,563,1597300,learnblock2,null,img/planet7_left.png,7,Community 1,NA,FALSE,null,f,NA,NA,NA,1,7,"15,9,7,1,5,13,4,2,8,3,12,14,11,10,6"
14825,commdev-image-keyboard-response,564,1598556,learnblock2,null,img/planet5_right.png,5,Community 1,NA,FALSE,null,j,NA,NA,NA,1,7,"15,9,7,1,5,13,4,2,8,3,12,14,11,10,6"
14825,commdev-image-keyboard-response,565,1599810,learnblock2,null,img/planet15_left.png,15,Community 1,NA,FALSE,null,f,NA,NA,NA,1,7,"15,9,7,1,5,13,4,2,8,3,12,14,11,10,6"
14825,commdev-image-keyboard-response,566,1601069,learnblock2,null,img/planet5_right.png,5,Community 1,NA,FALSE,null,j,NA,NA,NA,1,7,"15,9,7,1,5,13,4,2,8,3,12,14,11,10,6"
14825,commdev-image-keyboard-response,567,1602332,learnblock2,null,img/planet7_left.png,7,Community 1,NA,FALSE,null,f,NA,NA,NA,1,7,"15,9,7,1,5,13,4,2,8,3,12,14,11,10,6"
14825,commdev-image-keyboard-response,568,1603590,learnblock2,586.2999999523163,img/planet1_left.png,1,Community 1,NA,TRUE,f,f,NA,NA,NA,1,7,"15,9,7,1,5,13,4,2,8,3,12,14,11,10,6"
14825,commdev-image-keyboard-response,569,1604846,learnblock2,210.5,img/planet7_left.png,7,Community 1,NA,FALSE,j,f,NA,NA,NA,1,7,"15,9,7,1,5,13,4,2,8,3,12,14,11,10,6"
14825,commdev-image-keyboard-response,570,1606102,learnblock2,244.30000007152557,img/planet1_right.png,1,Community 1,NA,TRUE,j,j,NA,NA,NA,1,7,"15,9,7,1,5,13,4,2,8,3,12,14,11,10,6"
14825,commdev-image-keyboard-response,571,1607366,learnblock2,640.8999999761581,img/planet15_left.png,15,Community 1,NA,FALSE,j,f,NA,NA,NA,1,7,"15,9,7,1,5,13,4,2,8,3,12,14,11,10,6"
14825,commdev-image-keyboard-response,572,1608624,learnblock2,5.699999928474426,img/planet1_left.png,1,Community 1,NA,TRUE,f,f,NA,NA,NA,1,7,"15,9,7,1,5,13,4,2,8,3,12,14,11,10,6"
14825,commdev-image-keyboard-response,573,1609878,learnblock2,273.39999997615814,img/planet15_left.png,15,Community 1,NA,FALSE,j,f,NA,NA,NA,1,7,"15,9,7,1,5,13,4,2,8,3,12,14,11,10,6"
14825,commdev-image-keyboard-response,574,1611132,learnblock2,123.10000002384186,img/planet1_right.png,1,Community 1,NA,FALSE,f,j,NA,NA,NA,1,7,"15,9,7,1,5,13,4,2,8,3,12,14,11,10,6"
14825,commdev-image-keyboard-response,575,1612391,learnblock2,53,img/planet7_left.png,7,Community 1,NA,TRUE,f,f,NA,NA,NA,1,7,"15,9,7,1,5,13,4,2,8,3,12,14,11,10,6"
14825,commdev-image-keyboard-response,576,1613648,learnblock2,null,img/planet15_right.png,15,Community 1,NA,FALSE,null,j,NA,NA,NA,1,7,"15,9,7,1,5,13,4,2,8,3,12,14,11,10,6"
14825,commdev-image-keyboard-response,577,1614910,learnblock2,null,img/planet9_right.png,9,Community 1,NA,FALSE,null,j,NA,NA,NA,1,7,"15,9,7,1,5,13,4,2,8,3,12,14,11,10,6"
14825,commdev-image-keyboard-response,578,1616165,learnblock2,null,img/planet15_left.png,15,Community 1,NA,FALSE,null,f,NA,NA,NA,1,7,"15,9,7,1,5,13,4,2,8,3,12,14,11,10,6"
14825,commdev-image-keyboard-response,579,1617419,learnblock2,null,img/planet7_right.png,7,Community 1,NA,FALSE,null,j,NA,NA,NA,1,7,"15,9,7,1,5,13,4,2,8,3,12,14,11,10,6"
14825,commdev-image-keyboard-response,580,1618674,learnblock2,null,img/planet1_left.png,1,Community 1,NA,FALSE,null,f,NA,NA,NA,1,7,"15,9,7,1,5,13,4,2,8,3,12,14,11,10,6"
14825,commdev-image-keyboard-response,581,1619939,learnblock2,null,img/planet13_left.png,13,Community 2,NA,FALSE,null,f,NA,NA,NA,1,7,"15,9,7,1,5,13,4,2,8,3,12,14,11,10,6"
14825,commdev-image-keyboard-response,582,1621198,learnblock2,null,img/planet3_right.png,3,Community 2,NA,FALSE,null,j,NA,NA,NA,1,7,"15,9,7,1,5,13,4,2,8,3,12,14,11,10,6"
14825,commdev-image-keyboard-response,583,1622452,learnblock2,null,img/planet13_right.png,13,Community 2,NA,FALSE,null,j,NA,NA,NA,1,7,"15,9,7,1,5,13,4,2,8,3,12,14,11,10,6"
14825,commdev-image-keyboard-response,584,1623707,learnblock2,null,img/planet1_right.png,1,Community 1,NA,FALSE,null,j,NA,NA,NA,1,7,"15,9,7,1,5,13,4,2,8,3,12,14,11,10,6"
14825,commdev-image-keyboard-response,585,1624964,learnblock2,null,img/planet7_left.png,7,Community 1,NA,FALSE,null,f,NA,NA,NA,1,7,"15,9,7,1,5,13,4,2,8,3,12,14,11,10,6"
14825,commdev-image-keyboard-response,586,1626228,learnblock2,null,img/planet9_right.png,9,Community 1,NA,FALSE,null,j,NA,NA,NA,1,7,"15,9,7,1,5,13,4,2,8,3,12,14,11,10,6"
14825,commdev-image-keyboard-response,587,1627481,learnblock2,null,img/planet1_left.png,1,Community 1,NA,FALSE,null,f,NA,NA,NA,1,7,"15,9,7,1,5,13,4,2,8,3,12,14,11,10,6"
14825,commdev-image-keyboard-response,588,1628744,learnblock2,null,img/planet15_right.png,15,Community 1,NA,FALSE,null,j,NA,NA,NA,1,7,"15,9,7,1,5,13,4,2,8,3,12,14,11,10,6"
14825,commdev-image-keyboard-response,589,1629997,learnblock2,null,img/planet1_left.png,1,Community 1,NA,FALSE,null,f,NA,NA,NA,1,7,"15,9,7,1,5,13,4,2,8,3,12,14,11,10,6"
14825,commdev-image-keyboard-response,590,1631257,learnblock2,null,img/planet9_left.png,9,Community 1,NA,FALSE,null,f,NA,NA,NA,1,7,"15,9,7,1,5,13,4,2,8,3,12,14,11,10,6"
14825,commdev-image-keyboard-response,591,1632522,learnblock2,null,img/planet5_left.png,5,Community 1,NA,FALSE,null,f,NA,NA,NA,1,7,"15,9,7,1,5,13,4,2,8,3,12,14,11,10,6"
14825,commdev-image-keyboard-response,592,1633777,learnblock2,null,img/planet7_left.png,7,Community 1,NA,FALSE,null,f,NA,NA,NA,1,7,"15,9,7,1,5,13,4,2,8,3,12,14,11,10,6"
14825,commdev-image-keyboard-response,593,1635029,learnblock2,null,img/planet15_left.png,15,Community 1,NA,FALSE,null,f,NA,NA,NA,1,7,"15,9,7,1,5,13,4,2,8,3,12,14,11,10,6"
14825,commdev-image-keyboard-response,594,1636287,learnblock2,null,img/planet1_right.png,1,Community 1,NA,FALSE,null,j,NA,NA,NA,1,7,"15,9,7,1,5,13,4,2,8,3,12,14,11,10,6"
14825,commdev-image-keyboard-response,595,1637544,learnblock2,null,img/planet13_left.png,13,Community 2,NA,FALSE,null,f,NA,NA,NA,1,7,"15,9,7,1,5,13,4,2,8,3,12,14,11,10,6"
14825,commdev-image-keyboard-response,596,1638802,learnblock2,null,img/planet1_right.png,1,Community 1,NA,FALSE,null,j,NA,NA,NA,1,7,"15,9,7,1,5,13,4,2,8,3,12,14,11,10,6"
14825,commdev-image-keyboard-response,597,1640066,learnblock2,null,img/planet7_left.png,7,Community 1,NA,FALSE,null,f,NA,NA,NA,1,7,"15,9,7,1,5,13,4,2,8,3,12,14,11,10,6"
14825,commdev-image-keyboard-response,598,1641322,learnblock2,null,img/planet9_left.png,9,Community 1,NA,FALSE,null,f,NA,NA,NA,1,7,"15,9,7,1,5,13,4,2,8,3,12,14,11,10,6"
14825,commdev-image-keyboard-response,599,1642576,learnblock2,null,img/planet15_right.png,15,Community 1,NA,FALSE,null,j,NA,NA,NA,1,7,"15,9,7,1,5,13,4,2,8,3,12,14,11,10,6"
14825,commdev-image-keyboard-response,600,1643835,learnblock2,null,img/planet5_left.png,5,Community 1,NA,FALSE,null,f,NA,NA,NA,1,7,"15,9,7,1,5,13,4,2,8,3,12,14,11,10,6"
14825,commdev-image-keyboard-response,601,1645095,learnblock2,null,img/planet15_right.png,15,Community 1,NA,FALSE,null,j,NA,NA,NA,1,7,"15,9,7,1,5,13,4,2,8,3,12,14,11,10,6"
14825,commdev-image-keyboard-response,602,1646352,learnblock2,null,img/planet5_left.png,5,Community 1,NA,FALSE,null,f,NA,NA,NA,1,7,"15,9,7,1,5,13,4,2,8,3,12,14,11,10,6"
14825,commdev-image-keyboard-response,603,1647611,learnblock2,null,img/planet9_right.png,9,Community 1,NA,FALSE,null,j,NA,NA,NA,1,7,"15,9,7,1,5,13,4,2,8,3,12,14,11,10,6"
14825,commdev-image-keyboard-response,604,1648872,learnblock2,null,img/planet15_right.png,15,Community 1,NA,FALSE,null,j,NA,NA,NA,1,7,"15,9,7,1,5,13,4,2,8,3,12,14,11,10,6"
14825,commdev-image-keyboard-response,605,1650135,learnblock2,null,img/planet7_right.png,7,Community 1,NA,FALSE,null,j,NA,NA,NA,1,7,"15,9,7,1,5,13,4,2,8,3,12,14,11,10,6"
14825,commdev-image-keyboard-response,606,1651392,learnblock2,null,img/planet1_left.png,1,Community 1,NA,FALSE,null,f,NA,NA,NA,1,7,"15,9,7,1,5,13,4,2,8,3,12,14,11,10,6"
14825,commdev-image-keyboard-response,607,1652658,learnblock2,null,img/planet9_left.png,9,Community 1,NA,FALSE,null,f,NA,NA,NA,1,7,"15,9,7,1,5,13,4,2,8,3,12,14,11,10,6"
14825,commdev-image-keyboard-response,608,1653915,learnblock2,null,img/planet5_left.png,5,Community 1,NA,FALSE,null,f,NA,NA,NA,1,7,"15,9,7,1,5,13,4,2,8,3,12,14,11,10,6"
14825,commdev-image-keyboard-response,609,1655170,learnblock2,null,img/planet15_left.png,15,Community 1,NA,FALSE,null,f,NA,NA,NA,1,7,"15,9,7,1,5,13,4,2,8,3,12,14,11,10,6"
14825,commdev-image-keyboard-response,610,1656426,learnblock2,null,img/planet5_left.png,5,Community 1,NA,FALSE,null,f,NA,NA,NA,1,7,"15,9,7,1,5,13,4,2,8,3,12,14,11,10,6"
14825,commdev-image-keyboard-response,611,1657684,learnblock2,null,img/planet7_left.png,7,Community 1,NA,FALSE,null,f,NA,NA,NA,1,7,"15,9,7,1,5,13,4,2,8,3,12,14,11,10,6"
14825,commdev-image-keyboard-response,612,1658937,learnblock2,null,img/planet15_right.png,15,Community 1,NA,FALSE,null,j,NA,NA,NA,1,7,"15,9,7,1,5,13,4,2,8,3,12,14,11,10,6"
14825,commdev-image-keyboard-response,613,1660195,learnblock2,null,img/planet7_right.png,7,Community 1,NA,FALSE,null,j,NA,NA,NA,1,7,"15,9,7,1,5,13,4,2,8,3,12,14,11,10,6"
14825,commdev-image-keyboard-response,614,1661455,learnblock2,null,img/planet1_right.png,1,Community 1,NA,FALSE,null,j,NA,NA,NA,1,7,"15,9,7,1,5,13,4,2,8,3,12,14,11,10,6"
14825,commdev-image-keyboard-response,615,1662712,learnblock2,null,img/planet7_left.png,7,Community 1,NA,FALSE,null,f,NA,NA,NA,1,7,"15,9,7,1,5,13,4,2,8,3,12,14,11,10,6"
14825,commdev-image-keyboard-response,616,1663969,learnblock2,null,img/planet1_right.png,1,Community 1,NA,FALSE,null,j,NA,NA,NA,1,7,"15,9,7,1,5,13,4,2,8,3,12,14,11,10,6"
14825,commdev-image-keyboard-response,617,1665236,learnblock2,null,img/planet15_left.png,15,Community 1,NA,FALSE,null,f,NA,NA,NA,1,7,"15,9,7,1,5,13,4,2,8,3,12,14,11,10,6"
14825,commdev-image-keyboard-response,618,1666491,learnblock2,null,img/planet1_left.png,1,Community 1,NA,FALSE,null,f,NA,NA,NA,1,7,"15,9,7,1,5,13,4,2,8,3,12,14,11,10,6"
14825,commdev-image-keyboard-response,619,1667746,learnblock2,null,img/planet7_left.png,7,Community 1,NA,FALSE,null,f,NA,NA,NA,1,7,"15,9,7,1,5,13,4,2,8,3,12,14,11,10,6"
14825,commdev-image-keyboard-response,620,1669012,learnblock2,null,img/planet9_right.png,9,Community 1,NA,FALSE,null,j,NA,NA,NA,1,7,"15,9,7,1,5,13,4,2,8,3,12,14,11,10,6"
14825,commdev-image-keyboard-response,621,1670271,learnblock2,null,img/planet5_left.png,5,Community 1,NA,FALSE,null,f,NA,NA,NA,1,7,"15,9,7,1,5,13,4,2,8,3,12,14,11,10,6"
14825,commdev-image-keyboard-response,622,1671523,learnblock2,null,img/planet7_left.png,7,Community 1,NA,FALSE,null,f,NA,NA,NA,1,7,"15,9,7,1,5,13,4,2,8,3,12,14,11,10,6"
14825,commdev-image-keyboard-response,623,1672778,learnblock2,null,img/planet15_left.png,15,Community 1,NA,FALSE,null,f,NA,NA,NA,1,7,"15,9,7,1,5,13,4,2,8,3,12,14,11,10,6"
14825,commdev-image-keyboard-response,624,1674039,learnblock2,null,img/planet5_left.png,5,Community 1,NA,FALSE,null,f,NA,NA,NA,1,7,"15,9,7,1,5,13,4,2,8,3,12,14,11,10,6"
14825,commdev-image-keyboard-response,625,1675294,learnblock2,null,img/planet12_right.png,12,Community 3,NA,FALSE,null,j,NA,NA,NA,1,7,"15,9,7,1,5,13,4,2,8,3,12,14,11,10,6"
14825,commdev-image-keyboard-response,626,1676561,learnblock2,null,img/planet6_left.png,6,Community 3,NA,FALSE,null,f,NA,NA,NA,1,7,"15,9,7,1,5,13,4,2,8,3,12,14,11,10,6"
14825,commdev-image-keyboard-response,627,1677819,learnblock2,null,img/planet12_left.png,12,Community 3,NA,FALSE,null,f,NA,NA,NA,1,7,"15,9,7,1,5,13,4,2,8,3,12,14,11,10,6"
14825,commdev-image-keyboard-response,628,1679085,learnblock2,null,img/planet10_left.png,10,Community 3,NA,FALSE,null,f,NA,NA,NA,1,7,"15,9,7,1,5,13,4,2,8,3,12,14,11,10,6"
14825,commdev-image-keyboard-response,629,1680344,learnblock2,null,img/planet14_right.png,14,Community 3,NA,FALSE,null,j,NA,NA,NA,1,7,"15,9,7,1,5,13,4,2,8,3,12,14,11,10,6"
14825,commdev-image-keyboard-response,630,1681603,learnblock2,null,img/planet6_left.png,6,Community 3,NA,FALSE,null,f,NA,NA,NA,1,7,"15,9,7,1,5,13,4,2,8,3,12,14,11,10,6"
14825,commdev-image-keyboard-response,631,1682856,learnblock2,null,img/planet12_left.png,12,Community 3,NA,FALSE,null,f,NA,NA,NA,1,7,"15,9,7,1,5,13,4,2,8,3,12,14,11,10,6"
14825,commdev-image-keyboard-response,632,1684115,learnblock2,null,img/planet6_right.png,6,Community 3,NA,FALSE,null,j,NA,NA,NA,1,7,"15,9,7,1,5,13,4,2,8,3,12,14,11,10,6"
14825,commdev-image-keyboard-response,633,1685368,learnblock2,null,img/planet11_right.png,11,Community 3,NA,FALSE,null,j,NA,NA,NA,1,7,"15,9,7,1,5,13,4,2,8,3,12,14,11,10,6"
14825,commdev-image-keyboard-response,634,1686627,learnblock2,null,img/planet10_right.png,10,Community 3,NA,FALSE,null,j,NA,NA,NA,1,7,"15,9,7,1,5,13,4,2,8,3,12,14,11,10,6"
14825,commdev-image-keyboard-response,635,1687887,learnblock2,null,img/planet6_right.png,6,Community 3,NA,FALSE,null,j,NA,NA,NA,1,7,"15,9,7,1,5,13,4,2,8,3,12,14,11,10,6"
14825,commdev-image-keyboard-response,636,1689146,learnblock2,null,img/planet14_left.png,14,Community 3,NA,FALSE,null,f,NA,NA,NA,1,7,"15,9,7,1,5,13,4,2,8,3,12,14,11,10,6"
14825,commdev-image-keyboard-response,637,1690404,learnblock2,null,img/planet11_right.png,11,Community 3,NA,FALSE,null,j,NA,NA,NA,1,7,"15,9,7,1,5,13,4,2,8,3,12,14,11,10,6"
14825,commdev-image-keyboard-response,638,1691658,learnblock2,null,img/planet12_right.png,12,Community 3,NA,FALSE,null,j,NA,NA,NA,1,7,"15,9,7,1,5,13,4,2,8,3,12,14,11,10,6"
14825,commdev-image-keyboard-response,639,1692918,learnblock2,null,img/planet6_left.png,6,Community 3,NA,FALSE,null,f,NA,NA,NA,1,7,"15,9,7,1,5,13,4,2,8,3,12,14,11,10,6"
14825,commdev-image-keyboard-response,640,1694176,learnblock2,null,img/planet11_right.png,11,Community 3,NA,FALSE,null,j,NA,NA,NA,1,7,"15,9,7,1,5,13,4,2,8,3,12,14,11,10,6"
14825,commdev-image-keyboard-response,641,1695435,learnblock2,null,img/planet14_left.png,14,Community 3,NA,FALSE,null,f,NA,NA,NA,1,7,"15,9,7,1,5,13,4,2,8,3,12,14,11,10,6"
14825,commdev-image-keyboard-response,642,1696689,learnblock2,null,img/planet10_right.png,10,Community 3,NA,FALSE,null,j,NA,NA,NA,1,7,"15,9,7,1,5,13,4,2,8,3,12,14,11,10,6"
14825,commdev-image-keyboard-response,643,1697955,learnblock2,null,img/planet12_left.png,12,Community 3,NA,FALSE,null,f,NA,NA,NA,1,7,"15,9,7,1,5,13,4,2,8,3,12,14,11,10,6"
14825,commdev-image-keyboard-response,644,1699212,learnblock2,null,img/planet6_left.png,6,Community 3,NA,FALSE,null,f,NA,NA,NA,1,7,"15,9,7,1,5,13,4,2,8,3,12,14,11,10,6"
14825,commdev-image-keyboard-response,645,1700465,learnblock2,null,img/planet10_left.png,10,Community 3,NA,FALSE,null,f,NA,NA,NA,1,7,"15,9,7,1,5,13,4,2,8,3,12,14,11,10,6"
14825,commdev-image-keyboard-response,646,1701730,learnblock2,null,img/planet6_right.png,6,Community 3,NA,FALSE,null,j,NA,NA,NA,1,7,"15,9,7,1,5,13,4,2,8,3,12,14,11,10,6"
14825,commdev-image-keyboard-response,647,1702992,learnblock2,null,img/planet14_right.png,14,Community 3,NA,FALSE,null,j,NA,NA,NA,1,7,"15,9,7,1,5,13,4,2,8,3,12,14,11,10,6"
14825,commdev-image-keyboard-response,648,1704252,learnblock2,null,img/planet11_right.png,11,Community 3,NA,FALSE,null,j,NA,NA,NA,1,7,"15,9,7,1,5,13,4,2,8,3,12,14,11,10,6"
14825,commdev-image-keyboard-response,649,1705509,learnblock2,null,img/planet14_right.png,14,Community 3,NA,FALSE,null,j,NA,NA,NA,1,7,"15,9,7,1,5,13,4,2,8,3,12,14,11,10,6"
14825,commdev-image-keyboard-response,650,1706767,learnblock2,null,img/planet11_right.png,11,Community 3,NA,FALSE,null,j,NA,NA,NA,1,7,"15,9,7,1,5,13,4,2,8,3,12,14,11,10,6"
14825,commdev-image-keyboard-response,651,1708023,learnblock2,null,img/planet12_left.png,12,Community 3,NA,FALSE,null,f,NA,NA,NA,1,7,"15,9,7,1,5,13,4,2,8,3,12,14,11,10,6"
14825,commdev-image-keyboard-response,652,1709291,learnblock2,null,img/planet5_right.png,5,Community 1,NA,FALSE,null,j,NA,NA,NA,1,7,"15,9,7,1,5,13,4,2,8,3,12,14,11,10,6"
14825,commdev-image-keyboard-response,653,1710556,learnblock2,null,img/planet15_left.png,15,Community 1,NA,FALSE,null,f,NA,NA,NA,1,7,"15,9,7,1,5,13,4,2,8,3,12,14,11,10,6"
14825,commdev-image-keyboard-response,654,1711810,learnblock2,null,img/planet9_left.png,9,Community 1,NA,FALSE,null,f,NA,NA,NA,1,7,"15,9,7,1,5,13,4,2,8,3,12,14,11,10,6"
14825,commdev-image-keyboard-response,655,1713067,learnblock2,null,img/planet7_right.png,7,Community 1,NA,FALSE,null,j,NA,NA,NA,1,7,"15,9,7,1,5,13,4,2,8,3,12,14,11,10,6"
14825,commdev-image-keyboard-response,656,1714322,learnblock2,null,img/planet1_right.png,1,Community 1,NA,FALSE,null,j,NA,NA,NA,1,7,"15,9,7,1,5,13,4,2,8,3,12,14,11,10,6"
14825,commdev-image-keyboard-response,657,1715575,learnblock2,null,img/planet7_left.png,7,Community 1,NA,FALSE,null,f,NA,NA,NA,1,7,"15,9,7,1,5,13,4,2,8,3,12,14,11,10,6"
14825,commdev-image-keyboard-response,658,1716842,learnblock2,null,img/planet9_right.png,9,Community 1,NA,FALSE,null,j,NA,NA,NA,1,7,"15,9,7,1,5,13,4,2,8,3,12,14,11,10,6"
14825,commdev-image-keyboard-response,659,1718095,learnblock2,null,img/planet5_left.png,5,Community 1,NA,FALSE,null,f,NA,NA,NA,1,7,"15,9,7,1,5,13,4,2,8,3,12,14,11,10,6"
14825,commdev-image-keyboard-response,660,1719352,learnblock2,null,img/planet12_left.png,12,Community 3,NA,FALSE,null,f,NA,NA,NA,1,7,"15,9,7,1,5,13,4,2,8,3,12,14,11,10,6"
14825,commdev-image-keyboard-response,661,1720619,learnblock2,null,img/planet5_left.png,5,Community 1,NA,FALSE,null,f,NA,NA,NA,1,7,"15,9,7,1,5,13,4,2,8,3,12,14,11,10,6"
14825,commdev-image-keyboard-response,662,1721879,learnblock2,null,img/planet7_left.png,7,Community 1,NA,FALSE,null,f,NA,NA,NA,1,7,"15,9,7,1,5,13,4,2,8,3,12,14,11,10,6"
14825,commdev-image-keyboard-response,663,1723145,learnblock2,null,img/planet5_right.png,5,Community 1,NA,FALSE,null,j,NA,NA,NA,1,7,"15,9,7,1,5,13,4,2,8,3,12,14,11,10,6"
14825,commdev-image-keyboard-response,664,1724402,learnblock2,null,img/planet15_right.png,15,Community 1,NA,FALSE,null,j,NA,NA,NA,1,7,"15,9,7,1,5,13,4,2,8,3,12,14,11,10,6"
14825,commdev-image-keyboard-response,665,1725656,learnblock2,null,img/planet9_left.png,9,Community 1,NA,FALSE,null,f,NA,NA,NA,1,7,"15,9,7,1,5,13,4,2,8,3,12,14,11,10,6"
14825,commdev-image-keyboard-response,666,1726913,learnblock2,null,img/planet15_right.png,15,Community 1,NA,FALSE,null,j,NA,NA,NA,1,7,"15,9,7,1,5,13,4,2,8,3,12,14,11,10,6"
14825,commdev-image-keyboard-response,667,1728166,learnblock2,null,img/planet1_left.png,1,Community 1,NA,FALSE,null,f,NA,NA,NA,1,7,"15,9,7,1,5,13,4,2,8,3,12,14,11,10,6"
14825,commdev-image-keyboard-response,668,1729422,learnblock2,null,img/planet15_left.png,15,Community 1,NA,FALSE,null,f,NA,NA,NA,1,7,"15,9,7,1,5,13,4,2,8,3,12,14,11,10,6"
14825,commdev-image-keyboard-response,669,1730675,learnblock2,null,img/planet1_left.png,1,Community 1,NA,FALSE,null,f,NA,NA,NA,1,7,"15,9,7,1,5,13,4,2,8,3,12,14,11,10,6"
14825,commdev-image-keyboard-response,670,1731935,learnblock2,null,img/planet13_right.png,13,Community 2,NA,FALSE,null,j,NA,NA,NA,1,7,"15,9,7,1,5,13,4,2,8,3,12,14,11,10,6"
14825,commdev-image-keyboard-response,671,1733203,learnblock2,null,img/planet8_right.png,8,Community 2,NA,FALSE,null,j,NA,NA,NA,1,7,"15,9,7,1,5,13,4,2,8,3,12,14,11,10,6"
14825,commdev-image-keyboard-response,672,1734462,learnblock2,null,img/planet3_right.png,3,Community 2,NA,FALSE,null,j,NA,NA,NA,1,7,"15,9,7,1,5,13,4,2,8,3,12,14,11,10,6"
14825,commdev-image-keyboard-response,673,1735716,learnblock2,null,img/planet8_left.png,8,Community 2,NA,FALSE,null,f,NA,NA,NA,1,7,"15,9,7,1,5,13,4,2,8,3,12,14,11,10,6"
14825,commdev-image-keyboard-response,674,1736971,learnblock2,null,img/planet4_right.png,4,Community 2,NA,FALSE,null,j,NA,NA,NA,1,7,"15,9,7,1,5,13,4,2,8,3,12,14,11,10,6"
14825,commdev-image-keyboard-response,675,1738227,learnblock2,null,img/planet13_left.png,13,Community 2,NA,FALSE,null,f,NA,NA,NA,1,7,"15,9,7,1,5,13,4,2,8,3,12,14,11,10,6"
14825,commdev-image-keyboard-response,676,1739494,learnblock2,null,img/planet1_left.png,1,Community 1,NA,FALSE,null,f,NA,NA,NA,1,7,"15,9,7,1,5,13,4,2,8,3,12,14,11,10,6"
14825,commdev-image-keyboard-response,677,1740756,learnblock2,null,img/planet15_left.png,15,Community 1,NA,FALSE,null,f,NA,NA,NA,1,7,"15,9,7,1,5,13,4,2,8,3,12,14,11,10,6"
14825,commdev-image-keyboard-response,678,1742015,learnblock2,null,img/planet5_right.png,5,Community 1,NA,FALSE,null,j,NA,NA,NA,1,7,"15,9,7,1,5,13,4,2,8,3,12,14,11,10,6"
14825,commdev-image-keyboard-response,679,1743267,learnblock2,585.2999999523163,img/planet15_right.png,15,Community 1,NA,TRUE,j,j,NA,NA,NA,1,7,"15,9,7,1,5,13,4,2,8,3,12,14,11,10,6"
14825,commdev-image-keyboard-response,680,1744523,learnblock2,null,img/planet9_left.png,9,Community 1,NA,FALSE,null,f,NA,NA,NA,1,7,"15,9,7,1,5,13,4,2,8,3,12,14,11,10,6"
14825,commdev-image-keyboard-response,681,1745783,learnblock2,null,img/planet1_left.png,1,Community 1,NA,FALSE,null,f,NA,NA,NA,1,7,"15,9,7,1,5,13,4,2,8,3,12,14,11,10,6"
14825,commdev-image-keyboard-response,682,1747039,learnblock2,null,img/planet7_right.png,7,Community 1,NA,FALSE,null,j,NA,NA,NA,1,7,"15,9,7,1,5,13,4,2,8,3,12,14,11,10,6"
14825,commdev-image-keyboard-response,683,1748299,learnblock2,null,img/planet5_right.png,5,Community 1,NA,FALSE,null,j,NA,NA,NA,1,7,"15,9,7,1,5,13,4,2,8,3,12,14,11,10,6"
14825,commdev-image-keyboard-response,684,1749557,learnblock2,null,img/planet7_right.png,7,Community 1,NA,FALSE,null,j,NA,NA,NA,1,7,"15,9,7,1,5,13,4,2,8,3,12,14,11,10,6"
14825,commdev-image-keyboard-response,685,1750812,learnblock2,null,img/planet15_left.png,15,Community 1,NA,FALSE,null,f,NA,NA,NA,1,7,"15,9,7,1,5,13,4,2,8,3,12,14,11,10,6"
14825,commdev-image-keyboard-response,686,1752077,learnblock2,null,img/planet7_left.png,7,Community 1,NA,FALSE,null,f,NA,NA,NA,1,7,"15,9,7,1,5,13,4,2,8,3,12,14,11,10,6"
14825,commdev-image-keyboard-response,687,1753336,learnblock2,null,img/planet9_right.png,9,Community 1,NA,FALSE,null,j,NA,NA,NA,1,7,"15,9,7,1,5,13,4,2,8,3,12,14,11,10,6"
14825,commdev-image-keyboard-response,688,1754592,learnblock2,null,img/planet1_right.png,1,Community 1,NA,FALSE,null,j,NA,NA,NA,1,7,"15,9,7,1,5,13,4,2,8,3,12,14,11,10,6"
14825,commdev-image-keyboard-response,689,1755849,learnblock2,null,img/planet7_left.png,7,Community 1,NA,FALSE,null,f,NA,NA,NA,1,7,"15,9,7,1,5,13,4,2,8,3,12,14,11,10,6"
14825,commdev-image-keyboard-response,690,1757104,learnblock2,null,img/planet15_left.png,15,Community 1,NA,FALSE,null,f,NA,NA,NA,1,7,"15,9,7,1,5,13,4,2,8,3,12,14,11,10,6"
14825,commdev-image-keyboard-response,691,1758358,learnblock2,null,img/planet9_right.png,9,Community 1,NA,FALSE,null,j,NA,NA,NA,1,7,"15,9,7,1,5,13,4,2,8,3,12,14,11,10,6"
14825,commdev-image-keyboard-response,692,1759612,learnblock2,null,img/planet15_right.png,15,Community 1,NA,FALSE,null,j,NA,NA,NA,1,7,"15,9,7,1,5,13,4,2,8,3,12,14,11,10,6"
14825,commdev-image-keyboard-response,693,1760865,learnblock2,null,img/planet7_left.png,7,Community 1,NA,FALSE,null,f,NA,NA,NA,1,7,"15,9,7,1,5,13,4,2,8,3,12,14,11,10,6"
14825,commdev-image-keyboard-response,694,1762118,learnblock2,null,img/planet15_right.png,15,Community 1,NA,FALSE,null,j,NA,NA,NA,1,7,"15,9,7,1,5,13,4,2,8,3,12,14,11,10,6"
14825,commdev-image-keyboard-response,695,1763385,learnblock2,null,img/planet1_right.png,1,Community 1,NA,FALSE,null,j,NA,NA,NA,1,7,"15,9,7,1,5,13,4,2,8,3,12,14,11,10,6"
14825,commdev-image-keyboard-response,696,1764638,learnblock2,null,img/planet13_left.png,13,Community 2,NA,FALSE,null,f,NA,NA,NA,1,7,"15,9,7,1,5,13,4,2,8,3,12,14,11,10,6"
14825,commdev-image-keyboard-response,697,1765904,learnblock2,null,img/planet4_left.png,4,Community 2,NA,FALSE,null,f,NA,NA,NA,1,7,"15,9,7,1,5,13,4,2,8,3,12,14,11,10,6"
14825,commdev-image-keyboard-response,698,1767164,learnblock2,null,img/planet2_right.png,2,Community 2,NA,FALSE,null,j,NA,NA,NA,1,7,"15,9,7,1,5,13,4,2,8,3,12,14,11,10,6"
14825,commdev-image-keyboard-response,699,1768418,learnblock2,null,img/planet3_right.png,3,Community 2,NA,FALSE,null,j,NA,NA,NA,1,7,"15,9,7,1,5,13,4,2,8,3,12,14,11,10,6"
14825,commdev-image-keyboard-response,700,1769679,learnblock2,null,img/planet4_left.png,4,Community 2,NA,FALSE,null,f,NA,NA,NA,1,7,"15,9,7,1,5,13,4,2,8,3,12,14,11,10,6"
14825,commdev-image-keyboard-response,701,1770939,learnblock2,null,img/planet3_right.png,3,Community 2,NA,FALSE,null,j,NA,NA,NA,1,7,"15,9,7,1,5,13,4,2,8,3,12,14,11,10,6"
