subject_id,trial_type,trial_index,time_elapsed,block,rt,stimulus,planet,community,response,correct,key_press,learning_correct_response,parse,init_locations,final_locations,browser_interactions,num_comp,planet_map
14824,commdev-instructions,7,81940,NA,1621.8999999985099,"<p>In this game, you are a scientist on board a space shuttle. </p><p> On each mission, you will visit planets all across the universe.</p><img src=""img/controlroom.jpg"" width=300vw>",NA,NA,NA,NA,NA,NA,NA,NA,NA,7,6,"8,6,3,15,11,4,14,1,13,7,9,10,5,12,2"
14824,commdev-instructions,8,85014,NA,997.7999999970198,"<p>Here are a few planets you might see:</p><img src=""img/practice1.png"" width=200vw><img src=""img/practice2.png"" width=200vw><img src=""img/practice3.png"" width=200vw>",NA,NA,NA,NA,NA,NA,NA,NA,NA,7,6,"8,6,3,15,11,4,14,1,13,7,9,10,5,12,2"
14824,commdev-instructions,9,93100,NA,685.3999999985099,"<p>Your job as a scientist is to record which direction the winds are moving on each planet.</p><p>There are two types of wind directions:</p><img src=""img/practice1_left.png"" width=200vw><img src=""img/practice1_right.png"" width=200vw>",NA,NA,NA,NA,NA,NA,NA,NA,NA,7,6,"8,6,3,15,11,4,14,1,13,7,9,10,5,12,2"
14824,commdev-instructions,10,98782,NA,798.5,"<p>If the winds are moving this way, press the letter <strong>F</strong> on the keyboard as fast as you can.</p><img src=""img/leftwind.png"" width=250vw>",NA,NA,NA,NA,NA,NA,NA,NA,NA,7,6,"8,6,3,15,11,4,14,1,13,7,9,10,5,12,2"
14824,commdev-instructions,11,103774,NA,494.3999999985099,"<p>If the winds are moving this way, press the letter <strong>J</strong> on the keyboard as fast as you can.</p><img src=""img/rightwind.png"" width=350vw>",NA,NA,NA,NA,NA,NA,NA,NA,NA,7,6,"8,6,3,15,11,4,14,1,13,7,9,10,5,12,2"
14824,commdev-instructions,12,109121,NA,923,<p>You will have 1 second to respond. Try to respond before the time runs out!,NA,NA,NA,NA,NA,NA,NA,NA,NA,7,6,"8,6,3,15,11,4,14,1,13,7,9,10,5,12,2"
14824,commdev-instructions,13,116058,NA,1508,<p>The planets you will visit will look different from each other.</p><p>You should respond <strong>only</strong> based on wind direction.,NA,NA,NA,NA,NA,NA,NA,NA,NA,7,6,"8,6,3,15,11,4,14,1,13,7,9,10,5,12,2"
14824,commdev-instructions,14,122551,NA,1322.8999999985099,"<p> Ready to start the practice round? </p><p> Remember, press <strong>F</strong> or <strong>J</strong> depending on the wind direction.<br><img src=""img/categorize_planet_example.png""",NA,NA,NA,NA,NA,NA,NA,NA,NA,7,6,"8,6,3,15,11,4,14,1,13,7,9,10,5,12,2"
14824,commdev-instructions,26,176908,NA,631.6000000014901,"<p>Great, now try a short practice mission. </p><p> This time, you will have 1 second to respond and you won't know whether you pressed the right or wrong key for each planet.</p>",NA,NA,NA,NA,NA,NA,NA,NA,NA,7,6,"8,6,3,15,11,4,14,1,13,7,9,10,5,12,2"
14824,commdev-image-keyboard-response,27,178267,practice,1168.7999999970198,img/practice2_right.png,NA,Number not found in mappings,NA,TRUE,j,j,NA,NA,NA,7,6,"8,6,3,15,11,4,14,1,13,7,9,10,5,12,2"
14824,commdev-image-keyboard-response,28,179521,practice,803.3999999985099,img/practice4_right.png,NA,Number not found in mappings,NA,TRUE,j,j,NA,NA,NA,7,6,"8,6,3,15,11,4,14,1,13,7,9,10,5,12,2"
14824,commdev-image-keyboard-response,29,180774,practice,565.1000000014901,img/practice1_right.png,NA,Number not found in mappings,NA,TRUE,j,j,NA,NA,NA,7,6,"8,6,3,15,11,4,14,1,13,7,9,10,5,12,2"
14824,commdev-image-keyboard-response,30,182027,practice,595.3999999985099,img/practice3_left.png,NA,Number not found in mappings,NA,TRUE,f,f,NA,NA,NA,7,6,"8,6,3,15,11,4,14,1,13,7,9,10,5,12,2"
14824,commdev-image-keyboard-response,31,183281,practice,598.3000000044703,img/practice1_left.png,NA,Number not found in mappings,NA,TRUE,f,f,NA,NA,NA,7,6,"8,6,3,15,11,4,14,1,13,7,9,10,5,12,2"
14824,commdev-image-keyboard-response,32,184534,practice,824.8000000044703,img/practice3_left.png,NA,Number not found in mappings,NA,TRUE,f,f,NA,NA,NA,7,6,"8,6,3,15,11,4,14,1,13,7,9,10,5,12,2"
14824,commdev-image-keyboard-response,33,185788,practice,706,img/practice4_left.png,NA,Number not found in mappings,NA,TRUE,f,f,NA,NA,NA,7,6,"8,6,3,15,11,4,14,1,13,7,9,10,5,12,2"
14824,commdev-image-keyboard-response,34,187041,practice,588.7999999970198,img/practice1_left.png,NA,Number not found in mappings,NA,TRUE,f,f,NA,NA,NA,7,6,"8,6,3,15,11,4,14,1,13,7,9,10,5,12,2"
14824,commdev-instructions,35,198523,NA,1932.2999999970198,"<p>Great job with the practice round.</p><p>During real missions, you won't know whether you pressed the right or wrong key for each planet.</p><p>But between missions, we will tell you how you did overall.</p>",NA,NA,NA,NA,NA,NA,NA,NA,NA,7,6,"8,6,3,15,11,4,14,1,13,7,9,10,5,12,2"
14824,commdev-instructions,36,207546,NA,783.2000000029802,<p>Try your best! You will be paid a bonus based on how many correct responses you make!</p><p>Responses that are too slow will not count toward your bonus.</p>,NA,NA,NA,NA,NA,NA,NA,NA,NA,7,6,"8,6,3,15,11,4,14,1,13,7,9,10,5,12,2"
14824,commdev-instructions,37,214669,NA,925.5,"<p>You are almost ready to start the real game.</p><p> First, we are going to ask you some questions about how the game works.</p>",NA,NA,NA,NA,NA,NA,NA,NA,NA,7,6,"8,6,3,15,11,4,14,1,13,7,9,10,5,12,2"
14824,commdev-instructions,46,290889,NA,1623.8000000044703,"<p> Nice work! It is now time to start the real game.<p></p>You will go on two missions to record wind directions of different planets.<p></p>Each one will take about 5 minutes. You will get to take a break between missions.<p><p> Remember, press <strong>F</strong> or <strong>J</strong> depending on the wind direction. Good luck!<br><img src=""img/categorize_planet_example.png""",NA,NA,NA,NA,NA,NA,NA,NA,NA,7,6,"8,6,3,15,11,4,14,1,13,7,9,10,5,12,2"
14824,commdev-image-keyboard-response,48,294403,learnblock1,null,img/planet4_right.png,4,Community 2,NA,FALSE,null,j,NA,NA,NA,7,6,"8,6,3,15,11,4,14,1,13,7,9,10,5,12,2"
14824,commdev-image-keyboard-response,49,295657,learnblock1,48.70000000298023,img/planet14_right.png,14,Community 2,NA,TRUE,j,j,NA,NA,NA,7,6,"8,6,3,15,11,4,14,1,13,7,9,10,5,12,2"
14824,commdev-image-keyboard-response,50,296909,learnblock1,743.8999999985099,img/planet1_left.png,1,Community 2,NA,TRUE,f,f,NA,NA,NA,7,6,"8,6,3,15,11,4,14,1,13,7,9,10,5,12,2"
14824,commdev-image-keyboard-response,51,298163,learnblock1,777.2999999970198,img/planet13_right.png,13,Community 2,NA,TRUE,j,j,NA,NA,NA,7,6,"8,6,3,15,11,4,14,1,13,7,9,10,5,12,2"
14824,commdev-image-keyboard-response,52,299416,learnblock1,395.3999999985099,img/planet1_left.png,1,Community 2,NA,TRUE,f,f,NA,NA,NA,7,6,"8,6,3,15,11,4,14,1,13,7,9,10,5,12,2"
14824,commdev-image-keyboard-response,53,300670,learnblock1,718.6000000014901,img/planet14_left.png,14,Community 2,NA,TRUE,f,f,NA,NA,NA,7,6,"8,6,3,15,11,4,14,1,13,7,9,10,5,12,2"
14824,commdev-image-keyboard-response,54,301923,learnblock1,613.7000000029802,img/planet7_right.png,7,Community 2,NA,TRUE,j,j,NA,NA,NA,7,6,"8,6,3,15,11,4,14,1,13,7,9,10,5,12,2"
14824,commdev-image-keyboard-response,55,303176,learnblock1,839.7999999970198,img/planet1_right.png,1,Community 2,NA,TRUE,j,j,NA,NA,NA,7,6,"8,6,3,15,11,4,14,1,13,7,9,10,5,12,2"
14824,commdev-image-keyboard-response,56,304430,learnblock1,null,img/planet14_right.png,14,Community 2,NA,FALSE,null,j,NA,NA,NA,7,6,"8,6,3,15,11,4,14,1,13,7,9,10,5,12,2"
14824,commdev-image-keyboard-response,57,305683,learnblock1,84.10000000149012,img/planet7_left.png,7,Community 2,NA,FALSE,j,f,NA,NA,NA,7,6,"8,6,3,15,11,4,14,1,13,7,9,10,5,12,2"
14824,commdev-image-keyboard-response,58,306936,learnblock1,822.3000000044703,img/planet1_left.png,1,Community 2,NA,TRUE,f,f,NA,NA,NA,7,6,"8,6,3,15,11,4,14,1,13,7,9,10,5,12,2"
14824,commdev-image-keyboard-response,59,308189,learnblock1,709.8999999985099,img/planet7_right.png,7,Community 2,NA,TRUE,j,j,NA,NA,NA,7,6,"8,6,3,15,11,4,14,1,13,7,9,10,5,12,2"
14824,commdev-image-keyboard-response,60,309442,learnblock1,798.1999999955297,img/planet13_left.png,13,Community 2,NA,TRUE,f,f,NA,NA,NA,7,6,"8,6,3,15,11,4,14,1,13,7,9,10,5,12,2"
14824,commdev-image-keyboard-response,61,310696,learnblock1,573.4000000059605,img/planet7_right.png,7,Community 2,NA,TRUE,j,j,NA,NA,NA,7,6,"8,6,3,15,11,4,14,1,13,7,9,10,5,12,2"
14824,commdev-image-keyboard-response,62,311949,learnblock1,712.2000000029802,img/planet4_right.png,4,Community 2,NA,TRUE,j,j,NA,NA,NA,7,6,"8,6,3,15,11,4,14,1,13,7,9,10,5,12,2"
14824,commdev-image-keyboard-response,63,313202,learnblock1,893.2999999970198,img/planet14_right.png,14,Community 2,NA,TRUE,j,j,NA,NA,NA,7,6,"8,6,3,15,11,4,14,1,13,7,9,10,5,12,2"
14824,commdev-image-keyboard-response,64,314455,learnblock1,560.8999999985099,img/planet7_left.png,7,Community 2,NA,TRUE,f,f,NA,NA,NA,7,6,"8,6,3,15,11,4,14,1,13,7,9,10,5,12,2"
14824,commdev-image-keyboard-response,65,315707,learnblock1,577.8999999985099,img/planet13_left.png,13,Community 2,NA,TRUE,f,f,NA,NA,NA,7,6,"8,6,3,15,11,4,14,1,13,7,9,10,5,12,2"
14824,commdev-image-keyboard-response,66,316960,learnblock1,636.8999999985099,img/planet7_right.png,7,Community 2,NA,TRUE,j,j,NA,NA,NA,7,6,"8,6,3,15,11,4,14,1,13,7,9,10,5,12,2"
14824,commdev-image-keyboard-response,67,318213,learnblock1,799.1000000014901,img/planet4_left.png,4,Community 2,NA,TRUE,f,f,NA,NA,NA,7,6,"8,6,3,15,11,4,14,1,13,7,9,10,5,12,2"
14824,commdev-image-keyboard-response,68,319466,learnblock1,623.4000000059605,img/planet14_right.png,14,Community 2,NA,TRUE,j,j,NA,NA,NA,7,6,"8,6,3,15,11,4,14,1,13,7,9,10,5,12,2"
14824,commdev-image-keyboard-response,69,320720,learnblock1,609.2000000029802,img/planet7_right.png,7,Community 2,NA,TRUE,j,j,NA,NA,NA,7,6,"8,6,3,15,11,4,14,1,13,7,9,10,5,12,2"
14824,commdev-image-keyboard-response,70,321973,learnblock1,537.2999999970198,img/planet14_right.png,14,Community 2,NA,TRUE,j,j,NA,NA,NA,7,6,"8,6,3,15,11,4,14,1,13,7,9,10,5,12,2"
14824,commdev-image-keyboard-response,71,323225,learnblock1,780.7000000029802,img/planet1_right.png,1,Community 2,NA,TRUE,j,j,NA,NA,NA,7,6,"8,6,3,15,11,4,14,1,13,7,9,10,5,12,2"
14824,commdev-image-keyboard-response,72,324479,learnblock1,635,img/planet7_right.png,7,Community 2,NA,TRUE,j,j,NA,NA,NA,7,6,"8,6,3,15,11,4,14,1,13,7,9,10,5,12,2"
14824,commdev-image-keyboard-response,73,325732,learnblock1,689.8999999985099,img/planet14_right.png,14,Community 2,NA,TRUE,j,j,NA,NA,NA,7,6,"8,6,3,15,11,4,14,1,13,7,9,10,5,12,2"
14824,commdev-image-keyboard-response,74,326984,learnblock1,749.2999999970198,img/planet1_right.png,1,Community 2,NA,TRUE,j,j,NA,NA,NA,7,6,"8,6,3,15,11,4,14,1,13,7,9,10,5,12,2"
14824,commdev-image-keyboard-response,75,328237,learnblock1,639.6999999955297,img/planet10_left.png,10,Community 3,NA,FALSE,j,f,NA,NA,NA,7,6,"8,6,3,15,11,4,14,1,13,7,9,10,5,12,2"
14824,commdev-image-keyboard-response,76,329491,learnblock1,760.2999999970198,img/planet1_right.png,1,Community 2,NA,TRUE,j,j,NA,NA,NA,7,6,"8,6,3,15,11,4,14,1,13,7,9,10,5,12,2"
14824,commdev-image-keyboard-response,77,330744,learnblock1,604.1000000014901,img/planet7_right.png,7,Community 2,NA,TRUE,j,j,NA,NA,NA,7,6,"8,6,3,15,11,4,14,1,13,7,9,10,5,12,2"
14824,commdev-image-keyboard-response,78,331998,learnblock1,500.30000000447035,img/planet13_left.png,13,Community 2,NA,TRUE,f,f,NA,NA,NA,7,6,"8,6,3,15,11,4,14,1,13,7,9,10,5,12,2"
14824,commdev-image-keyboard-response,79,333250,learnblock1,485.5,img/planet1_left.png,1,Community 2,NA,TRUE,f,f,NA,NA,NA,7,6,"8,6,3,15,11,4,14,1,13,7,9,10,5,12,2"
14824,commdev-image-keyboard-response,80,334503,learnblock1,null,img/planet13_right.png,13,Community 2,NA,FALSE,null,j,NA,NA,NA,7,6,"8,6,3,15,11,4,14,1,13,7,9,10,5,12,2"
14824,commdev-image-keyboard-response,81,335756,learnblock1,590,img/planet14_left.png,14,Community 2,NA,TRUE,f,f,NA,NA,NA,7,6,"8,6,3,15,11,4,14,1,13,7,9,10,5,12,2"
14824,commdev-image-keyboard-response,82,337008,learnblock1,566.3000000044703,img/planet1_left.png,1,Community 2,NA,TRUE,f,f,NA,NA,NA,7,6,"8,6,3,15,11,4,14,1,13,7,9,10,5,12,2"
14824,commdev-image-keyboard-response,83,338262,learnblock1,541.7999999970198,img/planet13_right.png,13,Community 2,NA,TRUE,j,j,NA,NA,NA,7,6,"8,6,3,15,11,4,14,1,13,7,9,10,5,12,2"
14824,commdev-image-keyboard-response,84,339515,learnblock1,610.6000000014901,img/planet7_right.png,7,Community 2,NA,TRUE,j,j,NA,NA,NA,7,6,"8,6,3,15,11,4,14,1,13,7,9,10,5,12,2"
14824,commdev-image-keyboard-response,85,340768,learnblock1,450.30000000447035,img/planet13_left.png,13,Community 2,NA,TRUE,f,f,NA,NA,NA,7,6,"8,6,3,15,11,4,14,1,13,7,9,10,5,12,2"
14824,commdev-image-keyboard-response,86,342021,learnblock1,554.1999999955297,img/planet14_right.png,14,Community 2,NA,TRUE,j,j,NA,NA,NA,7,6,"8,6,3,15,11,4,14,1,13,7,9,10,5,12,2"
14824,commdev-image-keyboard-response,87,343273,learnblock1,646.3999999985099,img/planet4_right.png,4,Community 2,NA,TRUE,j,j,NA,NA,NA,7,6,"8,6,3,15,11,4,14,1,13,7,9,10,5,12,2"
14824,commdev-image-keyboard-response,88,344527,learnblock1,463.1000000014901,img/planet7_left.png,7,Community 2,NA,TRUE,f,f,NA,NA,NA,7,6,"8,6,3,15,11,4,14,1,13,7,9,10,5,12,2"
14824,commdev-image-keyboard-response,89,345780,learnblock1,434.3999999985099,img/planet1_right.png,1,Community 2,NA,TRUE,j,j,NA,NA,NA,7,6,"8,6,3,15,11,4,14,1,13,7,9,10,5,12,2"
14824,commdev-image-keyboard-response,90,347032,learnblock1,337.8999999985099,img/planet13_left.png,13,Community 2,NA,TRUE,f,f,NA,NA,NA,7,6,"8,6,3,15,11,4,14,1,13,7,9,10,5,12,2"
14824,commdev-image-keyboard-response,91,348284,learnblock1,361.5,img/planet7_right.png,7,Community 2,NA,TRUE,j,j,NA,NA,NA,7,6,"8,6,3,15,11,4,14,1,13,7,9,10,5,12,2"
14824,commdev-image-keyboard-response,92,349538,learnblock1,477.30000000447035,img/planet14_left.png,14,Community 2,NA,TRUE,f,f,NA,NA,NA,7,6,"8,6,3,15,11,4,14,1,13,7,9,10,5,12,2"
14824,commdev-image-keyboard-response,93,350790,learnblock1,449.1000000014901,img/planet13_right.png,13,Community 2,NA,TRUE,j,j,NA,NA,NA,7,6,"8,6,3,15,11,4,14,1,13,7,9,10,5,12,2"
14824,commdev-image-keyboard-response,94,352043,learnblock1,514.1999999955297,img/planet14_right.png,14,Community 2,NA,TRUE,j,j,NA,NA,NA,7,6,"8,6,3,15,11,4,14,1,13,7,9,10,5,12,2"
14824,commdev-image-keyboard-response,95,353296,learnblock1,512.7999999970198,img/planet7_left.png,7,Community 2,NA,TRUE,f,f,NA,NA,NA,7,6,"8,6,3,15,11,4,14,1,13,7,9,10,5,12,2"
14824,commdev-image-keyboard-response,96,354548,learnblock1,1097.1000000014901,img/planet1_left.png,1,Community 2,NA,TRUE,f,f,NA,NA,NA,7,6,"8,6,3,15,11,4,14,1,13,7,9,10,5,12,2"
14824,commdev-image-keyboard-response,97,355801,learnblock1,860.7999999970198,img/planet13_left.png,13,Community 2,NA,FALSE,j,f,NA,NA,NA,7,6,"8,6,3,15,11,4,14,1,13,7,9,10,5,12,2"
14824,commdev-image-keyboard-response,98,357053,learnblock1,1086.7999999970198,img/planet7_right.png,7,Community 2,NA,TRUE,j,j,NA,NA,NA,7,6,"8,6,3,15,11,4,14,1,13,7,9,10,5,12,2"
14824,commdev-image-keyboard-response,99,358306,learnblock1,577.7000000029802,img/planet13_right.png,13,Community 2,NA,TRUE,j,j,NA,NA,NA,7,6,"8,6,3,15,11,4,14,1,13,7,9,10,5,12,2"
14824,commdev-image-keyboard-response,100,359559,learnblock1,516,img/planet1_right.png,1,Community 2,NA,TRUE,j,j,NA,NA,NA,7,6,"8,6,3,15,11,4,14,1,13,7,9,10,5,12,2"
14824,commdev-image-keyboard-response,101,360811,learnblock1,475.6000000014901,img/planet10_left.png,10,Community 3,NA,TRUE,f,f,NA,NA,NA,7,6,"8,6,3,15,11,4,14,1,13,7,9,10,5,12,2"
14824,commdev-image-keyboard-response,102,362064,learnblock1,542,img/planet2_right.png,2,Community 3,NA,TRUE,j,j,NA,NA,NA,7,6,"8,6,3,15,11,4,14,1,13,7,9,10,5,12,2"
14824,commdev-image-keyboard-response,103,363317,learnblock1,382.19999999552965,img/planet9_left.png,9,Community 3,NA,TRUE,f,f,NA,NA,NA,7,6,"8,6,3,15,11,4,14,1,13,7,9,10,5,12,2"
14824,commdev-image-keyboard-response,104,364569,learnblock1,447.8999999985099,img/planet5_right.png,5,Community 3,NA,TRUE,j,j,NA,NA,NA,7,6,"8,6,3,15,11,4,14,1,13,7,9,10,5,12,2"
14824,commdev-image-keyboard-response,105,365822,learnblock1,570.3999999985099,img/planet12_left.png,12,Community 3,NA,TRUE,f,f,NA,NA,NA,7,6,"8,6,3,15,11,4,14,1,13,7,9,10,5,12,2"
14824,commdev-image-keyboard-response,106,367075,learnblock1,420.90000000596046,img/planet2_left.png,2,Community 3,NA,FALSE,j,f,NA,NA,NA,7,6,"8,6,3,15,11,4,14,1,13,7,9,10,5,12,2"
14824,commdev-image-keyboard-response,107,368327,learnblock1,493.79999999701977,img/planet10_left.png,10,Community 3,NA,TRUE,f,f,NA,NA,NA,7,6,"8,6,3,15,11,4,14,1,13,7,9,10,5,12,2"
14824,commdev-image-keyboard-response,108,369580,learnblock1,520.2000000029802,img/planet2_left.png,2,Community 3,NA,TRUE,f,f,NA,NA,NA,7,6,"8,6,3,15,11,4,14,1,13,7,9,10,5,12,2"
14824,commdev-image-keyboard-response,109,370832,learnblock1,610.8000000044703,img/planet9_left.png,9,Community 3,NA,TRUE,f,f,NA,NA,NA,7,6,"8,6,3,15,11,4,14,1,13,7,9,10,5,12,2"
14824,commdev-image-keyboard-response,110,372085,learnblock1,560.7000000029802,img/planet2_right.png,2,Community 3,NA,TRUE,j,j,NA,NA,NA,7,6,"8,6,3,15,11,4,14,1,13,7,9,10,5,12,2"
14824,commdev-image-keyboard-response,111,373338,learnblock1,586.1000000014901,img/planet10_right.png,10,Community 3,NA,TRUE,j,j,NA,NA,NA,7,6,"8,6,3,15,11,4,14,1,13,7,9,10,5,12,2"
14824,commdev-image-keyboard-response,112,374591,learnblock1,520.8000000044703,img/planet5_right.png,5,Community 3,NA,TRUE,j,j,NA,NA,NA,7,6,"8,6,3,15,11,4,14,1,13,7,9,10,5,12,2"
14824,commdev-image-keyboard-response,113,375845,learnblock1,610.5,img/planet9_right.png,9,Community 3,NA,TRUE,j,j,NA,NA,NA,7,6,"8,6,3,15,11,4,14,1,13,7,9,10,5,12,2"
14824,commdev-image-keyboard-response,114,377097,learnblock1,673.6000000014901,img/planet12_right.png,12,Community 3,NA,TRUE,j,j,NA,NA,NA,7,6,"8,6,3,15,11,4,14,1,13,7,9,10,5,12,2"
14824,commdev-image-keyboard-response,115,378349,learnblock1,747,img/planet10_left.png,10,Community 3,NA,TRUE,f,f,NA,NA,NA,7,6,"8,6,3,15,11,4,14,1,13,7,9,10,5,12,2"
14824,commdev-image-keyboard-response,116,379602,learnblock1,590.8999999985099,img/planet1_right.png,1,Community 2,NA,TRUE,j,j,NA,NA,NA,7,6,"8,6,3,15,11,4,14,1,13,7,9,10,5,12,2"
14824,commdev-image-keyboard-response,117,380855,learnblock1,1090.2999999970198,img/planet14_right.png,14,Community 2,NA,TRUE,j,j,NA,NA,NA,7,6,"8,6,3,15,11,4,14,1,13,7,9,10,5,12,2"
14824,commdev-image-keyboard-response,118,382107,learnblock1,560.7999999970198,img/planet13_left.png,13,Community 2,NA,TRUE,f,f,NA,NA,NA,7,6,"8,6,3,15,11,4,14,1,13,7,9,10,5,12,2"
14824,commdev-image-keyboard-response,119,383360,learnblock1,479.30000000447035,img/planet1_left.png,1,Community 2,NA,TRUE,f,f,NA,NA,NA,7,6,"8,6,3,15,11,4,14,1,13,7,9,10,5,12,2"
14824,commdev-image-keyboard-response,120,384613,learnblock1,534.1000000014901,img/planet10_left.png,10,Community 3,NA,TRUE,f,f,NA,NA,NA,7,6,"8,6,3,15,11,4,14,1,13,7,9,10,5,12,2"
14824,commdev-image-keyboard-response,121,385866,learnblock1,605,img/planet5_left.png,5,Community 3,NA,TRUE,f,f,NA,NA,NA,7,6,"8,6,3,15,11,4,14,1,13,7,9,10,5,12,2"
14824,commdev-image-keyboard-response,122,387119,learnblock1,654.9000000059605,img/planet10_right.png,10,Community 3,NA,TRUE,j,j,NA,NA,NA,7,6,"8,6,3,15,11,4,14,1,13,7,9,10,5,12,2"
14824,commdev-image-keyboard-response,123,388372,learnblock1,706.1000000014901,img/planet5_right.png,5,Community 3,NA,TRUE,j,j,NA,NA,NA,7,6,"8,6,3,15,11,4,14,1,13,7,9,10,5,12,2"
14824,commdev-image-keyboard-response,124,389625,learnblock1,671.2000000029802,img/planet9_right.png,9,Community 3,NA,TRUE,j,j,NA,NA,NA,7,6,"8,6,3,15,11,4,14,1,13,7,9,10,5,12,2"
14824,commdev-image-keyboard-response,125,390878,learnblock1,585.3000000044703,img/planet5_left.png,5,Community 3,NA,TRUE,f,f,NA,NA,NA,7,6,"8,6,3,15,11,4,14,1,13,7,9,10,5,12,2"
14824,commdev-image-keyboard-response,126,392131,learnblock1,506.19999999552965,img/planet12_left.png,12,Community 3,NA,FALSE,j,f,NA,NA,NA,7,6,"8,6,3,15,11,4,14,1,13,7,9,10,5,12,2"
14824,commdev-image-keyboard-response,127,393383,learnblock1,445,img/planet9_left.png,9,Community 3,NA,TRUE,f,f,NA,NA,NA,7,6,"8,6,3,15,11,4,14,1,13,7,9,10,5,12,2"
14824,commdev-image-keyboard-response,128,394636,learnblock1,337.3999999985099,img/planet5_left.png,5,Community 3,NA,TRUE,f,f,NA,NA,NA,7,6,"8,6,3,15,11,4,14,1,13,7,9,10,5,12,2"
14824,commdev-image-keyboard-response,129,395889,learnblock1,627.3999999985099,img/planet12_left.png,12,Community 3,NA,TRUE,f,f,NA,NA,NA,7,6,"8,6,3,15,11,4,14,1,13,7,9,10,5,12,2"
14824,commdev-image-keyboard-response,130,397142,learnblock1,570.8999999985099,img/planet9_left.png,9,Community 3,NA,TRUE,f,f,NA,NA,NA,7,6,"8,6,3,15,11,4,14,1,13,7,9,10,5,12,2"
14824,commdev-image-keyboard-response,131,398395,learnblock1,741.5,img/planet12_right.png,12,Community 3,NA,TRUE,j,j,NA,NA,NA,7,6,"8,6,3,15,11,4,14,1,13,7,9,10,5,12,2"
14824,commdev-image-keyboard-response,132,399648,learnblock1,865.6000000014901,img/planet10_left.png,10,Community 3,NA,TRUE,f,f,NA,NA,NA,7,6,"8,6,3,15,11,4,14,1,13,7,9,10,5,12,2"
14824,commdev-image-keyboard-response,133,400902,learnblock1,621.6000000014901,img/planet12_right.png,12,Community 3,NA,TRUE,j,j,NA,NA,NA,7,6,"8,6,3,15,11,4,14,1,13,7,9,10,5,12,2"
14824,commdev-image-keyboard-response,134,402154,learnblock1,null,img/planet2_right.png,2,Community 3,NA,FALSE,null,j,NA,NA,NA,7,6,"8,6,3,15,11,4,14,1,13,7,9,10,5,12,2"
14824,commdev-image-keyboard-response,135,403407,learnblock1,187.90000000596046,img/planet10_left.png,10,Community 3,NA,FALSE,j,f,NA,NA,NA,7,6,"8,6,3,15,11,4,14,1,13,7,9,10,5,12,2"
14824,commdev-image-keyboard-response,136,404660,learnblock1,629.6000000014901,img/planet12_right.png,12,Community 3,NA,TRUE,j,j,NA,NA,NA,7,6,"8,6,3,15,11,4,14,1,13,7,9,10,5,12,2"
14824,commdev-image-keyboard-response,137,405913,learnblock1,706.1999999955297,img/planet9_right.png,9,Community 3,NA,TRUE,j,j,NA,NA,NA,7,6,"8,6,3,15,11,4,14,1,13,7,9,10,5,12,2"
14824,commdev-image-keyboard-response,138,407166,learnblock1,521.7999999970198,img/planet11_left.png,11,Community 1,NA,TRUE,f,f,NA,NA,NA,7,6,"8,6,3,15,11,4,14,1,13,7,9,10,5,12,2"
14824,commdev-image-keyboard-response,139,408419,learnblock1,692.9000000059605,img/planet6_left.png,6,Community 1,NA,TRUE,f,f,NA,NA,NA,7,6,"8,6,3,15,11,4,14,1,13,7,9,10,5,12,2"
14824,commdev-image-keyboard-response,140,409673,learnblock1,532.6000000014901,img/planet15_right.png,15,Community 1,NA,TRUE,j,j,NA,NA,NA,7,6,"8,6,3,15,11,4,14,1,13,7,9,10,5,12,2"
14824,commdev-image-keyboard-response,141,410926,learnblock1,589,img/planet8_right.png,8,Community 1,NA,TRUE,j,j,NA,NA,NA,7,6,"8,6,3,15,11,4,14,1,13,7,9,10,5,12,2"
14824,commdev-image-keyboard-response,142,412180,learnblock1,621.1000000014901,img/planet11_right.png,11,Community 1,NA,TRUE,j,j,NA,NA,NA,7,6,"8,6,3,15,11,4,14,1,13,7,9,10,5,12,2"
14824,commdev-image-keyboard-response,143,413433,learnblock1,617.6999999955297,img/planet6_right.png,6,Community 1,NA,TRUE,j,j,NA,NA,NA,7,6,"8,6,3,15,11,4,14,1,13,7,9,10,5,12,2"
14824,commdev-image-keyboard-response,144,414686,learnblock1,571.2000000029802,img/planet3_right.png,3,Community 1,NA,TRUE,j,j,NA,NA,NA,7,6,"8,6,3,15,11,4,14,1,13,7,9,10,5,12,2"
14824,commdev-image-keyboard-response,145,415940,learnblock1,716,img/planet11_left.png,11,Community 1,NA,TRUE,f,f,NA,NA,NA,7,6,"8,6,3,15,11,4,14,1,13,7,9,10,5,12,2"
14824,commdev-image-keyboard-response,146,417193,learnblock1,774.5,img/planet6_left.png,6,Community 1,NA,TRUE,f,f,NA,NA,NA,7,6,"8,6,3,15,11,4,14,1,13,7,9,10,5,12,2"
14824,commdev-image-keyboard-response,147,418447,learnblock1,717.2999999970198,img/planet3_left.png,3,Community 1,NA,TRUE,f,f,NA,NA,NA,7,6,"8,6,3,15,11,4,14,1,13,7,9,10,5,12,2"
14824,commdev-image-keyboard-response,148,419700,learnblock1,589.7000000029802,img/planet8_left.png,8,Community 1,NA,TRUE,f,f,NA,NA,NA,7,6,"8,6,3,15,11,4,14,1,13,7,9,10,5,12,2"
14824,commdev-image-keyboard-response,149,420953,learnblock1,540.3999999985099,img/planet15_left.png,15,Community 1,NA,TRUE,f,f,NA,NA,NA,7,6,"8,6,3,15,11,4,14,1,13,7,9,10,5,12,2"
14824,commdev-image-keyboard-response,150,422207,learnblock1,657,img/planet4_right.png,4,Community 2,NA,TRUE,j,j,NA,NA,NA,7,6,"8,6,3,15,11,4,14,1,13,7,9,10,5,12,2"
14824,commdev-image-keyboard-response,151,423458,learnblock1,657.6999999955297,img/planet13_left.png,13,Community 2,NA,TRUE,f,f,NA,NA,NA,7,6,"8,6,3,15,11,4,14,1,13,7,9,10,5,12,2"
14824,commdev-image-keyboard-response,152,424712,learnblock1,535.2999999970198,img/planet7_right.png,7,Community 2,NA,TRUE,j,j,NA,NA,NA,7,6,"8,6,3,15,11,4,14,1,13,7,9,10,5,12,2"
14824,commdev-image-keyboard-response,153,425965,learnblock1,675.6000000014901,img/planet4_right.png,4,Community 2,NA,TRUE,j,j,NA,NA,NA,7,6,"8,6,3,15,11,4,14,1,13,7,9,10,5,12,2"
14824,commdev-image-keyboard-response,154,427219,learnblock1,523.8000000044703,img/planet14_left.png,14,Community 2,NA,TRUE,f,f,NA,NA,NA,7,6,"8,6,3,15,11,4,14,1,13,7,9,10,5,12,2"
14824,commdev-image-keyboard-response,155,428473,learnblock1,479.09999999403954,img/planet7_right.png,7,Community 2,NA,TRUE,j,j,NA,NA,NA,7,6,"8,6,3,15,11,4,14,1,13,7,9,10,5,12,2"
14824,commdev-image-keyboard-response,156,429726,learnblock1,687.7000000029802,img/planet1_left.png,1,Community 2,NA,TRUE,f,f,NA,NA,NA,7,6,"8,6,3,15,11,4,14,1,13,7,9,10,5,12,2"
14824,commdev-image-keyboard-response,157,430979,learnblock1,681.7000000029802,img/planet13_left.png,13,Community 2,NA,TRUE,f,f,NA,NA,NA,7,6,"8,6,3,15,11,4,14,1,13,7,9,10,5,12,2"
14824,commdev-image-keyboard-response,158,432232,learnblock1,null,img/planet4_right.png,4,Community 2,NA,FALSE,null,j,NA,NA,NA,7,6,"8,6,3,15,11,4,14,1,13,7,9,10,5,12,2"
14824,commdev-image-keyboard-response,159,433486,learnblock1,1013.1000000014901,img/planet7_left.png,7,Community 2,NA,TRUE,f,f,NA,NA,NA,7,6,"8,6,3,15,11,4,14,1,13,7,9,10,5,12,2"
14824,commdev-image-keyboard-response,160,434740,learnblock1,597.5999999940395,img/planet14_right.png,14,Community 2,NA,TRUE,j,j,NA,NA,NA,7,6,"8,6,3,15,11,4,14,1,13,7,9,10,5,12,2"
14824,commdev-image-keyboard-response,161,435993,learnblock1,910.1000000014901,img/planet13_right.png,13,Community 2,NA,TRUE,j,j,NA,NA,NA,7,6,"8,6,3,15,11,4,14,1,13,7,9,10,5,12,2"
14824,commdev-image-keyboard-response,162,437247,learnblock1,null,img/planet1_right.png,1,Community 2,NA,FALSE,null,j,NA,NA,NA,7,6,"8,6,3,15,11,4,14,1,13,7,9,10,5,12,2"
14824,commdev-image-keyboard-response,163,438500,learnblock1,90.90000000596046,img/planet13_left.png,13,Community 2,NA,FALSE,j,f,NA,NA,NA,7,6,"8,6,3,15,11,4,14,1,13,7,9,10,5,12,2"
14824,commdev-image-keyboard-response,164,439753,learnblock1,554.7000000029802,img/planet1_right.png,1,Community 2,NA,TRUE,j,j,NA,NA,NA,7,6,"8,6,3,15,11,4,14,1,13,7,9,10,5,12,2"
14824,commdev-image-keyboard-response,165,441006,learnblock1,718,img/planet10_right.png,10,Community 3,NA,TRUE,j,j,NA,NA,NA,7,6,"8,6,3,15,11,4,14,1,13,7,9,10,5,12,2"
14824,commdev-image-keyboard-response,166,442259,learnblock1,605.5,img/planet12_right.png,12,Community 3,NA,TRUE,j,j,NA,NA,NA,7,6,"8,6,3,15,11,4,14,1,13,7,9,10,5,12,2"
14824,commdev-image-keyboard-response,167,443512,learnblock1,515.2000000029802,img/planet10_left.png,10,Community 3,NA,TRUE,f,f,NA,NA,NA,7,6,"8,6,3,15,11,4,14,1,13,7,9,10,5,12,2"
14824,commdev-image-keyboard-response,168,444764,learnblock1,535.5,img/planet12_right.png,12,Community 3,NA,TRUE,j,j,NA,NA,NA,7,6,"8,6,3,15,11,4,14,1,13,7,9,10,5,12,2"
14824,commdev-image-keyboard-response,169,446018,learnblock1,493.5,img/planet2_left.png,2,Community 3,NA,TRUE,f,f,NA,NA,NA,7,6,"8,6,3,15,11,4,14,1,13,7,9,10,5,12,2"
14824,commdev-image-keyboard-response,170,447271,learnblock1,432.20000000298023,img/planet5_right.png,5,Community 3,NA,TRUE,j,j,NA,NA,NA,7,6,"8,6,3,15,11,4,14,1,13,7,9,10,5,12,2"
14824,commdev-image-keyboard-response,171,448523,learnblock1,321.8999999985099,img/planet2_left.png,2,Community 3,NA,TRUE,f,f,NA,NA,NA,7,6,"8,6,3,15,11,4,14,1,13,7,9,10,5,12,2"
14824,commdev-image-keyboard-response,172,449776,learnblock1,365.6000000014901,img/planet9_left.png,9,Community 3,NA,FALSE,j,f,NA,NA,NA,7,6,"8,6,3,15,11,4,14,1,13,7,9,10,5,12,2"
14824,commdev-image-keyboard-response,173,451029,learnblock1,850.9000000059605,img/planet5_left.png,5,Community 3,NA,TRUE,f,f,NA,NA,NA,7,6,"8,6,3,15,11,4,14,1,13,7,9,10,5,12,2"
14824,commdev-image-keyboard-response,174,452282,learnblock1,554.3999999985099,img/planet10_left.png,10,Community 3,NA,TRUE,f,f,NA,NA,NA,7,6,"8,6,3,15,11,4,14,1,13,7,9,10,5,12,2"
14824,commdev-image-keyboard-response,175,453535,learnblock1,495.20000000298023,img/planet1_left.png,1,Community 2,NA,TRUE,f,f,NA,NA,NA,7,6,"8,6,3,15,11,4,14,1,13,7,9,10,5,12,2"
14824,commdev-image-keyboard-response,176,454787,learnblock1,754,img/planet14_left.png,14,Community 2,NA,TRUE,f,f,NA,NA,NA,7,6,"8,6,3,15,11,4,14,1,13,7,9,10,5,12,2"
14824,commdev-image-keyboard-response,177,456040,learnblock1,624.8999999985099,img/planet7_left.png,7,Community 2,NA,TRUE,f,f,NA,NA,NA,7,6,"8,6,3,15,11,4,14,1,13,7,9,10,5,12,2"
14824,commdev-image-keyboard-response,178,457293,learnblock1,695.1999999955297,img/planet4_right.png,4,Community 2,NA,TRUE,j,j,NA,NA,NA,7,6,"8,6,3,15,11,4,14,1,13,7,9,10,5,12,2"
14824,commdev-image-keyboard-response,179,458545,learnblock1,681.3999999985099,img/planet13_right.png,13,Community 2,NA,TRUE,j,j,NA,NA,NA,7,6,"8,6,3,15,11,4,14,1,13,7,9,10,5,12,2"
14824,commdev-image-keyboard-response,180,459798,learnblock1,560.1999999955297,img/planet1_right.png,1,Community 2,NA,TRUE,j,j,NA,NA,NA,7,6,"8,6,3,15,11,4,14,1,13,7,9,10,5,12,2"
14824,commdev-image-keyboard-response,181,461051,learnblock1,542,img/planet14_left.png,14,Community 2,NA,TRUE,f,f,NA,NA,NA,7,6,"8,6,3,15,11,4,14,1,13,7,9,10,5,12,2"
14824,commdev-image-keyboard-response,182,462304,learnblock1,753.3999999985099,img/planet13_left.png,13,Community 2,NA,TRUE,f,f,NA,NA,NA,7,6,"8,6,3,15,11,4,14,1,13,7,9,10,5,12,2"
14824,commdev-image-keyboard-response,183,463556,learnblock1,654.6999999955297,img/planet14_right.png,14,Community 2,NA,TRUE,j,j,NA,NA,NA,7,6,"8,6,3,15,11,4,14,1,13,7,9,10,5,12,2"
14824,commdev-image-keyboard-response,184,464809,learnblock1,620.7000000029802,img/planet1_left.png,1,Community 2,NA,TRUE,f,f,NA,NA,NA,7,6,"8,6,3,15,11,4,14,1,13,7,9,10,5,12,2"
14824,commdev-image-keyboard-response,185,466062,learnblock1,620.3999999985099,img/planet14_right.png,14,Community 2,NA,TRUE,j,j,NA,NA,NA,7,6,"8,6,3,15,11,4,14,1,13,7,9,10,5,12,2"
14824,commdev-image-keyboard-response,186,467315,learnblock1,790.6000000014901,img/planet7_right.png,7,Community 2,NA,TRUE,j,j,NA,NA,NA,7,6,"8,6,3,15,11,4,14,1,13,7,9,10,5,12,2"
14824,commdev-image-keyboard-response,187,468568,learnblock1,833.5,img/planet4_right.png,4,Community 2,NA,TRUE,j,j,NA,NA,NA,7,6,"8,6,3,15,11,4,14,1,13,7,9,10,5,12,2"
14824,commdev-image-keyboard-response,188,469821,learnblock1,666.2000000029802,img/planet15_left.png,15,Community 1,NA,TRUE,f,f,NA,NA,NA,7,6,"8,6,3,15,11,4,14,1,13,7,9,10,5,12,2"
14824,commdev-image-keyboard-response,189,471075,learnblock1,null,img/planet4_left.png,4,Community 2,NA,FALSE,null,f,NA,NA,NA,7,6,"8,6,3,15,11,4,14,1,13,7,9,10,5,12,2"
14824,commdev-image-keyboard-response,190,472328,learnblock1,715.7000000029802,img/planet15_left.png,15,Community 1,NA,TRUE,f,f,NA,NA,NA,7,6,"8,6,3,15,11,4,14,1,13,7,9,10,5,12,2"
14824,commdev-image-keyboard-response,191,473581,learnblock1,663.5,img/planet8_left.png,8,Community 1,NA,TRUE,f,f,NA,NA,NA,7,6,"8,6,3,15,11,4,14,1,13,7,9,10,5,12,2"
14824,commdev-image-keyboard-response,192,474834,learnblock1,511.5,img/planet15_left.png,15,Community 1,NA,TRUE,f,f,NA,NA,NA,7,6,"8,6,3,15,11,4,14,1,13,7,9,10,5,12,2"
14824,commdev-image-keyboard-response,193,476087,learnblock1,602.7000000029802,img/planet3_right.png,3,Community 1,NA,TRUE,j,j,NA,NA,NA,7,6,"8,6,3,15,11,4,14,1,13,7,9,10,5,12,2"
14824,commdev-image-keyboard-response,194,477340,learnblock1,538.3999999985099,img/planet6_right.png,6,Community 1,NA,TRUE,j,j,NA,NA,NA,7,6,"8,6,3,15,11,4,14,1,13,7,9,10,5,12,2"
14824,commdev-image-keyboard-response,195,478594,learnblock1,675.5,img/planet15_left.png,15,Community 1,NA,TRUE,f,f,NA,NA,NA,7,6,"8,6,3,15,11,4,14,1,13,7,9,10,5,12,2"
14824,commdev-image-keyboard-response,196,479847,learnblock1,636.7999999970198,img/planet4_left.png,4,Community 2,NA,TRUE,f,f,NA,NA,NA,7,6,"8,6,3,15,11,4,14,1,13,7,9,10,5,12,2"
14824,commdev-image-keyboard-response,197,481101,learnblock1,593.4000000059605,img/planet14_left.png,14,Community 2,NA,TRUE,f,f,NA,NA,NA,7,6,"8,6,3,15,11,4,14,1,13,7,9,10,5,12,2"
14824,commdev-image-keyboard-response,198,482354,learnblock1,544.9000000059605,img/planet13_left.png,13,Community 2,NA,TRUE,f,f,NA,NA,NA,7,6,"8,6,3,15,11,4,14,1,13,7,9,10,5,12,2"
14824,commdev-image-keyboard-response,199,483606,learnblock1,566.8999999985099,img/planet1_right.png,1,Community 2,NA,TRUE,j,j,NA,NA,NA,7,6,"8,6,3,15,11,4,14,1,13,7,9,10,5,12,2"
14824,commdev-image-keyboard-response,200,484860,learnblock1,526.1999999955297,img/planet10_left.png,10,Community 3,NA,TRUE,f,f,NA,NA,NA,7,6,"8,6,3,15,11,4,14,1,13,7,9,10,5,12,2"
14824,commdev-image-keyboard-response,201,486113,learnblock1,348,img/planet1_right.png,1,Community 2,NA,TRUE,j,j,NA,NA,NA,7,6,"8,6,3,15,11,4,14,1,13,7,9,10,5,12,2"
14824,commdev-image-keyboard-response,202,487367,learnblock1,543.1000000014901,img/planet13_left.png,13,Community 2,NA,TRUE,f,f,NA,NA,NA,7,6,"8,6,3,15,11,4,14,1,13,7,9,10,5,12,2"
14824,commdev-image-keyboard-response,203,488620,learnblock1,314.3999999985099,img/planet4_right.png,4,Community 2,NA,TRUE,j,j,NA,NA,NA,7,6,"8,6,3,15,11,4,14,1,13,7,9,10,5,12,2"
14824,commdev-image-keyboard-response,204,489874,learnblock1,703.6000000014901,img/planet13_right.png,13,Community 2,NA,TRUE,j,j,NA,NA,NA,7,6,"8,6,3,15,11,4,14,1,13,7,9,10,5,12,2"
14824,commdev-image-keyboard-response,205,491126,learnblock1,707.1000000014901,img/planet1_left.png,1,Community 2,NA,TRUE,f,f,NA,NA,NA,7,6,"8,6,3,15,11,4,14,1,13,7,9,10,5,12,2"
14824,commdev-image-keyboard-response,206,492380,learnblock1,486.20000000298023,img/planet13_right.png,13,Community 2,NA,TRUE,j,j,NA,NA,NA,7,6,"8,6,3,15,11,4,14,1,13,7,9,10,5,12,2"
14824,commdev-image-keyboard-response,207,493631,learnblock1,898.1000000014901,img/planet14_right.png,14,Community 2,NA,TRUE,j,j,NA,NA,NA,7,6,"8,6,3,15,11,4,14,1,13,7,9,10,5,12,2"
14824,commdev-image-keyboard-response,208,494884,learnblock1,617.1000000014901,img/planet13_left.png,13,Community 2,NA,TRUE,f,f,NA,NA,NA,7,6,"8,6,3,15,11,4,14,1,13,7,9,10,5,12,2"
14824,commdev-image-keyboard-response,209,496137,learnblock1,421.1000000014901,img/planet1_right.png,1,Community 2,NA,TRUE,j,j,NA,NA,NA,7,6,"8,6,3,15,11,4,14,1,13,7,9,10,5,12,2"
14824,commdev-image-keyboard-response,210,497390,learnblock1,323.79999999701977,img/planet7_left.png,7,Community 2,NA,TRUE,f,f,NA,NA,NA,7,6,"8,6,3,15,11,4,14,1,13,7,9,10,5,12,2"
14824,commdev-image-keyboard-response,211,498643,learnblock1,294.1000000014901,img/planet1_right.png,1,Community 2,NA,TRUE,j,j,NA,NA,NA,7,6,"8,6,3,15,11,4,14,1,13,7,9,10,5,12,2"
14824,commdev-image-keyboard-response,212,499896,learnblock1,414.3999999985099,img/planet10_right.png,10,Community 3,NA,FALSE,f,j,NA,NA,NA,7,6,"8,6,3,15,11,4,14,1,13,7,9,10,5,12,2"
14824,commdev-image-keyboard-response,213,501149,learnblock1,413.6000000014901,img/planet2_left.png,2,Community 3,NA,FALSE,j,f,NA,NA,NA,7,6,"8,6,3,15,11,4,14,1,13,7,9,10,5,12,2"
14824,commdev-image-keyboard-response,214,502403,learnblock1,593.8000000044703,img/planet12_right.png,12,Community 3,NA,TRUE,j,j,NA,NA,NA,7,6,"8,6,3,15,11,4,14,1,13,7,9,10,5,12,2"
14824,commdev-image-keyboard-response,215,503655,learnblock1,517.2999999970198,img/planet9_left.png,9,Community 3,NA,TRUE,f,f,NA,NA,NA,7,6,"8,6,3,15,11,4,14,1,13,7,9,10,5,12,2"
14824,commdev-image-keyboard-response,216,504908,learnblock1,641.3999999985099,img/planet12_right.png,12,Community 3,NA,TRUE,j,j,NA,NA,NA,7,6,"8,6,3,15,11,4,14,1,13,7,9,10,5,12,2"
14824,commdev-image-keyboard-response,217,506161,learnblock1,619.2999999970198,img/planet5_right.png,5,Community 3,NA,TRUE,j,j,NA,NA,NA,7,6,"8,6,3,15,11,4,14,1,13,7,9,10,5,12,2"
14824,commdev-image-keyboard-response,218,507415,learnblock1,593.6999999955297,img/planet2_left.png,2,Community 3,NA,TRUE,f,f,NA,NA,NA,7,6,"8,6,3,15,11,4,14,1,13,7,9,10,5,12,2"
14824,commdev-image-keyboard-response,219,508668,learnblock1,667.6000000014901,img/planet9_left.png,9,Community 3,NA,TRUE,f,f,NA,NA,NA,7,6,"8,6,3,15,11,4,14,1,13,7,9,10,5,12,2"
14824,commdev-image-keyboard-response,220,509921,learnblock1,753.3000000044703,img/planet12_left.png,12,Community 3,NA,TRUE,f,f,NA,NA,NA,7,6,"8,6,3,15,11,4,14,1,13,7,9,10,5,12,2"
14824,commdev-image-keyboard-response,221,511173,learnblock1,563.3999999985099,img/planet9_right.png,9,Community 3,NA,TRUE,j,j,NA,NA,NA,7,6,"8,6,3,15,11,4,14,1,13,7,9,10,5,12,2"
14824,commdev-image-keyboard-response,222,512427,learnblock1,598.6999999955297,img/planet2_left.png,2,Community 3,NA,TRUE,f,f,NA,NA,NA,7,6,"8,6,3,15,11,4,14,1,13,7,9,10,5,12,2"
14824,commdev-image-keyboard-response,223,513680,learnblock1,420.09999999403954,img/planet5_left.png,5,Community 3,NA,FALSE,j,f,NA,NA,NA,7,6,"8,6,3,15,11,4,14,1,13,7,9,10,5,12,2"
14824,commdev-image-keyboard-response,224,514933,learnblock1,524.9000000059605,img/planet10_left.png,10,Community 3,NA,FALSE,j,f,NA,NA,NA,7,6,"8,6,3,15,11,4,14,1,13,7,9,10,5,12,2"
14824,commdev-image-keyboard-response,225,516186,learnblock1,491.79999999701977,img/planet2_right.png,2,Community 3,NA,FALSE,f,j,NA,NA,NA,7,6,"8,6,3,15,11,4,14,1,13,7,9,10,5,12,2"
14824,commdev-image-keyboard-response,226,517440,learnblock1,834.8999999985099,img/planet9_left.png,9,Community 3,NA,TRUE,f,f,NA,NA,NA,7,6,"8,6,3,15,11,4,14,1,13,7,9,10,5,12,2"
14824,commdev-image-keyboard-response,227,518692,learnblock1,500.59999999403954,img/planet12_left.png,12,Community 3,NA,FALSE,j,f,NA,NA,NA,7,6,"8,6,3,15,11,4,14,1,13,7,9,10,5,12,2"
14824,commdev-image-keyboard-response,228,519945,learnblock1,670.1999999955297,img/planet10_right.png,10,Community 3,NA,TRUE,j,j,NA,NA,NA,7,6,"8,6,3,15,11,4,14,1,13,7,9,10,5,12,2"
14824,commdev-image-keyboard-response,229,521198,learnblock1,584.8999999985099,img/planet2_right.png,2,Community 3,NA,TRUE,j,j,NA,NA,NA,7,6,"8,6,3,15,11,4,14,1,13,7,9,10,5,12,2"
14824,commdev-image-keyboard-response,230,522451,learnblock1,669.2000000029802,img/planet9_left.png,9,Community 3,NA,TRUE,f,f,NA,NA,NA,7,6,"8,6,3,15,11,4,14,1,13,7,9,10,5,12,2"
14824,commdev-image-keyboard-response,231,523704,learnblock1,762.5,img/planet11_left.png,11,Community 1,NA,TRUE,f,f,NA,NA,NA,7,6,"8,6,3,15,11,4,14,1,13,7,9,10,5,12,2"
14824,commdev-image-keyboard-response,232,524958,learnblock1,442.20000000298023,img/planet9_left.png,9,Community 3,NA,TRUE,f,f,NA,NA,NA,7,6,"8,6,3,15,11,4,14,1,13,7,9,10,5,12,2"
14824,commdev-image-keyboard-response,233,526210,learnblock1,444.29999999701977,img/planet2_left.png,2,Community 3,NA,TRUE,f,f,NA,NA,NA,7,6,"8,6,3,15,11,4,14,1,13,7,9,10,5,12,2"
14824,commdev-image-keyboard-response,234,527464,learnblock1,325.40000000596046,img/planet12_right.png,12,Community 3,NA,FALSE,f,j,NA,NA,NA,7,6,"8,6,3,15,11,4,14,1,13,7,9,10,5,12,2"
14824,commdev-image-keyboard-response,235,528716,learnblock1,481.79999999701977,img/planet2_right.png,2,Community 3,NA,TRUE,j,j,NA,NA,NA,7,6,"8,6,3,15,11,4,14,1,13,7,9,10,5,12,2"
14824,commdev-image-keyboard-response,236,529970,learnblock1,520.3999999985099,img/planet10_left.png,10,Community 3,NA,TRUE,f,f,NA,NA,NA,7,6,"8,6,3,15,11,4,14,1,13,7,9,10,5,12,2"
14824,commdev-image-keyboard-response,237,531223,learnblock1,703.4000000059605,img/planet5_right.png,5,Community 3,NA,TRUE,j,j,NA,NA,NA,7,6,"8,6,3,15,11,4,14,1,13,7,9,10,5,12,2"
14824,commdev-image-keyboard-response,238,532476,learnblock1,582.1000000014901,img/planet10_right.png,10,Community 3,NA,TRUE,j,j,NA,NA,NA,7,6,"8,6,3,15,11,4,14,1,13,7,9,10,5,12,2"
14824,commdev-image-keyboard-response,239,533729,learnblock1,481.6000000014901,img/planet1_left.png,1,Community 2,NA,TRUE,f,f,NA,NA,NA,7,6,"8,6,3,15,11,4,14,1,13,7,9,10,5,12,2"
14824,commdev-image-keyboard-response,240,534982,learnblock1,590,img/planet7_right.png,7,Community 2,NA,TRUE,j,j,NA,NA,NA,7,6,"8,6,3,15,11,4,14,1,13,7,9,10,5,12,2"
14824,commdev-image-keyboard-response,241,536235,learnblock1,487.1000000014901,img/planet1_right.png,1,Community 2,NA,TRUE,j,j,NA,NA,NA,7,6,"8,6,3,15,11,4,14,1,13,7,9,10,5,12,2"
14824,commdev-image-keyboard-response,242,537487,learnblock1,670.7999999970198,img/planet13_left.png,13,Community 2,NA,TRUE,f,f,NA,NA,NA,7,6,"8,6,3,15,11,4,14,1,13,7,9,10,5,12,2"
14824,commdev-image-keyboard-response,243,538741,learnblock1,726.5,img/planet7_left.png,7,Community 2,NA,TRUE,f,f,NA,NA,NA,7,6,"8,6,3,15,11,4,14,1,13,7,9,10,5,12,2"
14824,commdev-image-keyboard-response,244,539994,learnblock1,571.7999999970198,img/planet14_right.png,14,Community 2,NA,TRUE,j,j,NA,NA,NA,7,6,"8,6,3,15,11,4,14,1,13,7,9,10,5,12,2"
14824,commdev-image-keyboard-response,245,541247,learnblock1,889.8999999985099,img/planet1_right.png,1,Community 2,NA,TRUE,j,j,NA,NA,NA,7,6,"8,6,3,15,11,4,14,1,13,7,9,10,5,12,2"
14824,commdev-image-keyboard-response,246,542500,learnblock1,527.5999999940395,img/planet14_left.png,14,Community 2,NA,TRUE,f,f,NA,NA,NA,7,6,"8,6,3,15,11,4,14,1,13,7,9,10,5,12,2"
14824,commdev-image-keyboard-response,247,543752,learnblock1,326.70000000298023,img/planet13_left.png,13,Community 2,NA,FALSE,j,f,NA,NA,NA,7,6,"8,6,3,15,11,4,14,1,13,7,9,10,5,12,2"
14824,commdev-image-keyboard-response,248,545005,learnblock1,638.3999999985099,img/planet7_left.png,7,Community 2,NA,TRUE,f,f,NA,NA,NA,7,6,"8,6,3,15,11,4,14,1,13,7,9,10,5,12,2"
14824,commdev-image-keyboard-response,249,546258,learnblock1,606.1999999955297,img/planet14_right.png,14,Community 2,NA,TRUE,j,j,NA,NA,NA,7,6,"8,6,3,15,11,4,14,1,13,7,9,10,5,12,2"
14824,commdev-image-keyboard-response,250,547512,learnblock1,744.0999999940395,img/planet13_right.png,13,Community 2,NA,TRUE,j,j,NA,NA,NA,7,6,"8,6,3,15,11,4,14,1,13,7,9,10,5,12,2"
14824,commdev-image-keyboard-response,251,548764,learnblock1,450.6000000014901,img/planet1_left.png,1,Community 2,NA,TRUE,f,f,NA,NA,NA,7,6,"8,6,3,15,11,4,14,1,13,7,9,10,5,12,2"
14824,commdev-image-keyboard-response,252,550017,learnblock1,701.2999999970198,img/planet7_left.png,7,Community 2,NA,TRUE,f,f,NA,NA,NA,7,6,"8,6,3,15,11,4,14,1,13,7,9,10,5,12,2"
14824,commdev-image-keyboard-response,253,551270,learnblock1,511.79999999701977,img/planet14_right.png,14,Community 2,NA,TRUE,j,j,NA,NA,NA,7,6,"8,6,3,15,11,4,14,1,13,7,9,10,5,12,2"
14824,commdev-image-keyboard-response,254,552523,learnblock1,665.2000000029802,img/planet13_right.png,13,Community 2,NA,TRUE,j,j,NA,NA,NA,7,6,"8,6,3,15,11,4,14,1,13,7,9,10,5,12,2"
14824,commdev-image-keyboard-response,255,553776,learnblock1,616.6000000014901,img/planet7_left.png,7,Community 2,NA,TRUE,f,f,NA,NA,NA,7,6,"8,6,3,15,11,4,14,1,13,7,9,10,5,12,2"
14824,commdev-image-keyboard-response,256,555029,learnblock1,854,img/planet13_right.png,13,Community 2,NA,TRUE,j,j,NA,NA,NA,7,6,"8,6,3,15,11,4,14,1,13,7,9,10,5,12,2"
14824,commdev-image-keyboard-response,257,556281,learnblock1,537.1000000014901,img/planet1_left.png,1,Community 2,NA,TRUE,f,f,NA,NA,NA,7,6,"8,6,3,15,11,4,14,1,13,7,9,10,5,12,2"
14824,commdev-image-keyboard-response,258,557535,learnblock1,664.1999999955297,img/planet7_left.png,7,Community 2,NA,TRUE,f,f,NA,NA,NA,7,6,"8,6,3,15,11,4,14,1,13,7,9,10,5,12,2"
14824,commdev-image-keyboard-response,259,558787,learnblock1,383.69999999552965,img/planet14_left.png,14,Community 2,NA,FALSE,j,f,NA,NA,NA,7,6,"8,6,3,15,11,4,14,1,13,7,9,10,5,12,2"
14824,commdev-image-keyboard-response,260,560040,learnblock1,490.30000000447035,img/planet1_right.png,1,Community 2,NA,FALSE,f,j,NA,NA,NA,7,6,"8,6,3,15,11,4,14,1,13,7,9,10,5,12,2"
14824,commdev-image-keyboard-response,261,561293,learnblock1,693.2000000029802,img/planet10_right.png,10,Community 3,NA,TRUE,j,j,NA,NA,NA,7,6,"8,6,3,15,11,4,14,1,13,7,9,10,5,12,2"
14824,commdev-image-keyboard-response,262,562546,learnblock1,572.6999999955297,img/planet12_right.png,12,Community 3,NA,TRUE,j,j,NA,NA,NA,7,6,"8,6,3,15,11,4,14,1,13,7,9,10,5,12,2"
14824,commdev-image-keyboard-response,263,563799,learnblock1,594.2999999970198,img/planet2_left.png,2,Community 3,NA,TRUE,f,f,NA,NA,NA,7,6,"8,6,3,15,11,4,14,1,13,7,9,10,5,12,2"
14824,commdev-image-keyboard-response,264,565052,learnblock1,504.1000000014901,img/planet5_right.png,5,Community 3,NA,TRUE,j,j,NA,NA,NA,7,6,"8,6,3,15,11,4,14,1,13,7,9,10,5,12,2"
14824,commdev-image-keyboard-response,265,566305,learnblock1,542,img/planet2_left.png,2,Community 3,NA,TRUE,f,f,NA,NA,NA,7,6,"8,6,3,15,11,4,14,1,13,7,9,10,5,12,2"
14824,commdev-image-keyboard-response,266,567558,learnblock1,580.1000000014901,img/planet5_right.png,5,Community 3,NA,TRUE,j,j,NA,NA,NA,7,6,"8,6,3,15,11,4,14,1,13,7,9,10,5,12,2"
14824,commdev-image-keyboard-response,267,568810,learnblock1,572.6000000014901,img/planet9_right.png,9,Community 3,NA,TRUE,j,j,NA,NA,NA,7,6,"8,6,3,15,11,4,14,1,13,7,9,10,5,12,2"
14824,commdev-image-keyboard-response,268,570063,learnblock1,612.2999999970198,img/planet2_left.png,2,Community 3,NA,TRUE,f,f,NA,NA,NA,7,6,"8,6,3,15,11,4,14,1,13,7,9,10,5,12,2"
14824,commdev-image-keyboard-response,269,571316,learnblock1,890.1999999955297,img/planet12_left.png,12,Community 3,NA,TRUE,f,f,NA,NA,NA,7,6,"8,6,3,15,11,4,14,1,13,7,9,10,5,12,2"
14824,commdev-image-keyboard-response,270,572569,learnblock1,728,img/planet9_left.png,9,Community 3,NA,TRUE,f,f,NA,NA,NA,7,6,"8,6,3,15,11,4,14,1,13,7,9,10,5,12,2"
14824,commdev-image-keyboard-response,271,573821,learnblock1,639.7000000029802,img/planet12_right.png,12,Community 3,NA,TRUE,j,j,NA,NA,NA,7,6,"8,6,3,15,11,4,14,1,13,7,9,10,5,12,2"
14824,commdev-image-keyboard-response,272,575074,learnblock1,1170.3000000044703,img/planet2_left.png,2,Community 3,NA,TRUE,f,f,NA,NA,NA,7,6,"8,6,3,15,11,4,14,1,13,7,9,10,5,12,2"
14824,commdev-image-keyboard-response,273,576328,learnblock1,578.5,img/planet5_right.png,5,Community 3,NA,TRUE,j,j,NA,NA,NA,7,6,"8,6,3,15,11,4,14,1,13,7,9,10,5,12,2"
14824,commdev-image-keyboard-response,274,577580,learnblock1,632,img/planet12_left.png,12,Community 3,NA,TRUE,f,f,NA,NA,NA,7,6,"8,6,3,15,11,4,14,1,13,7,9,10,5,12,2"
14824,commdev-image-keyboard-response,275,578833,learnblock1,316.19999999552965,img/planet2_right.png,2,Community 3,NA,TRUE,j,j,NA,NA,NA,7,6,"8,6,3,15,11,4,14,1,13,7,9,10,5,12,2"
14824,commdev-image-keyboard-response,276,580086,learnblock1,951.5999999940395,img/planet10_left.png,10,Community 3,NA,TRUE,f,f,NA,NA,NA,7,6,"8,6,3,15,11,4,14,1,13,7,9,10,5,12,2"
14824,commdev-image-keyboard-response,277,581339,learnblock1,550.8999999985099,img/planet5_left.png,5,Community 3,NA,FALSE,j,f,NA,NA,NA,7,6,"8,6,3,15,11,4,14,1,13,7,9,10,5,12,2"
14824,commdev-image-keyboard-response,278,582593,learnblock1,314,img/planet9_right.png,9,Community 3,NA,FALSE,f,j,NA,NA,NA,7,6,"8,6,3,15,11,4,14,1,13,7,9,10,5,12,2"
14824,commdev-image-keyboard-response,279,583845,learnblock1,534.5999999940395,img/planet2_right.png,2,Community 3,NA,TRUE,j,j,NA,NA,NA,7,6,"8,6,3,15,11,4,14,1,13,7,9,10,5,12,2"
14824,commdev-image-keyboard-response,280,585099,learnblock1,558.1000000014901,img/planet12_left.png,12,Community 3,NA,TRUE,f,f,NA,NA,NA,7,6,"8,6,3,15,11,4,14,1,13,7,9,10,5,12,2"
14824,commdev-image-keyboard-response,281,586352,learnblock1,469.6000000014901,img/planet5_right.png,5,Community 3,NA,TRUE,j,j,NA,NA,NA,7,6,"8,6,3,15,11,4,14,1,13,7,9,10,5,12,2"
14824,commdev-image-keyboard-response,282,587605,learnblock1,492.8999999985099,img/planet9_right.png,9,Community 3,NA,TRUE,j,j,NA,NA,NA,7,6,"8,6,3,15,11,4,14,1,13,7,9,10,5,12,2"
14824,commdev-image-keyboard-response,283,588858,learnblock1,586.5,img/planet12_left.png,12,Community 3,NA,TRUE,f,f,NA,NA,NA,7,6,"8,6,3,15,11,4,14,1,13,7,9,10,5,12,2"
14824,commdev-image-keyboard-response,284,590111,learnblock1,497.70000000298023,img/planet9_right.png,9,Community 3,NA,TRUE,j,j,NA,NA,NA,7,6,"8,6,3,15,11,4,14,1,13,7,9,10,5,12,2"
14824,commdev-image-keyboard-response,285,591363,learnblock1,650.6999999955297,img/planet2_right.png,2,Community 3,NA,TRUE,j,j,NA,NA,NA,7,6,"8,6,3,15,11,4,14,1,13,7,9,10,5,12,2"
14824,commdev-image-keyboard-response,286,592617,learnblock1,670.5999999940395,img/planet10_right.png,10,Community 3,NA,FALSE,f,j,NA,NA,NA,7,6,"8,6,3,15,11,4,14,1,13,7,9,10,5,12,2"
14824,commdev-image-keyboard-response,287,593870,learnblock1,568.8000000044703,img/planet5_right.png,5,Community 3,NA,TRUE,j,j,NA,NA,NA,7,6,"8,6,3,15,11,4,14,1,13,7,9,10,5,12,2"
14824,commdev-image-keyboard-response,288,595123,learnblock1,448.5,img/planet9_left.png,9,Community 3,NA,TRUE,f,f,NA,NA,NA,7,6,"8,6,3,15,11,4,14,1,13,7,9,10,5,12,2"
14824,commdev-image-keyboard-response,289,596377,learnblock1,630.1999999955297,img/planet12_left.png,12,Community 3,NA,TRUE,f,f,NA,NA,NA,7,6,"8,6,3,15,11,4,14,1,13,7,9,10,5,12,2"
14824,commdev-image-keyboard-response,290,597630,learnblock1,526.2999999970198,img/planet10_right.png,10,Community 3,NA,TRUE,j,j,NA,NA,NA,7,6,"8,6,3,15,11,4,14,1,13,7,9,10,5,12,2"
14824,commdev-image-keyboard-response,291,598883,learnblock1,564.3999999985099,img/planet2_right.png,2,Community 3,NA,TRUE,j,j,NA,NA,NA,7,6,"8,6,3,15,11,4,14,1,13,7,9,10,5,12,2"
14824,commdev-image-keyboard-response,292,600137,learnblock1,610.6000000014901,img/planet5_left.png,5,Community 3,NA,TRUE,f,f,NA,NA,NA,7,6,"8,6,3,15,11,4,14,1,13,7,9,10,5,12,2"
14824,commdev-image-keyboard-response,293,601390,learnblock1,457.79999999701977,img/planet9_right.png,9,Community 3,NA,TRUE,j,j,NA,NA,NA,7,6,"8,6,3,15,11,4,14,1,13,7,9,10,5,12,2"
14824,commdev-image-keyboard-response,294,602643,learnblock1,633.7000000029802,img/planet11_right.png,11,Community 1,NA,TRUE,j,j,NA,NA,NA,7,6,"8,6,3,15,11,4,14,1,13,7,9,10,5,12,2"
14824,commdev-image-keyboard-response,295,603895,learnblock1,736.3000000044703,img/planet3_right.png,3,Community 1,NA,TRUE,j,j,NA,NA,NA,7,6,"8,6,3,15,11,4,14,1,13,7,9,10,5,12,2"
14824,commdev-image-keyboard-response,296,605148,learnblock1,541.6000000014901,img/planet6_right.png,6,Community 1,NA,TRUE,j,j,NA,NA,NA,7,6,"8,6,3,15,11,4,14,1,13,7,9,10,5,12,2"
14824,commdev-image-keyboard-response,297,606401,learnblock1,449.6000000014901,img/planet3_left.png,3,Community 1,NA,FALSE,j,f,NA,NA,NA,7,6,"8,6,3,15,11,4,14,1,13,7,9,10,5,12,2"
14824,commdev-image-keyboard-response,298,607655,learnblock1,707.3999999985099,img/planet11_left.png,11,Community 1,NA,TRUE,f,f,NA,NA,NA,7,6,"8,6,3,15,11,4,14,1,13,7,9,10,5,12,2"
14824,commdev-image-keyboard-response,299,608908,learnblock1,594,img/planet9_left.png,9,Community 3,NA,TRUE,f,f,NA,NA,NA,7,6,"8,6,3,15,11,4,14,1,13,7,9,10,5,12,2"
14824,commdev-image-keyboard-response,300,610162,learnblock1,591.5,img/planet5_left.png,5,Community 3,NA,TRUE,f,f,NA,NA,NA,7,6,"8,6,3,15,11,4,14,1,13,7,9,10,5,12,2"
14824,commdev-image-keyboard-response,301,611415,learnblock1,517.6000000014901,img/planet10_right.png,10,Community 3,NA,TRUE,j,j,NA,NA,NA,7,6,"8,6,3,15,11,4,14,1,13,7,9,10,5,12,2"
14824,commdev-image-keyboard-response,302,612668,learnblock1,637,img/planet12_right.png,12,Community 3,NA,TRUE,j,j,NA,NA,NA,7,6,"8,6,3,15,11,4,14,1,13,7,9,10,5,12,2"
14824,commdev-image-keyboard-response,303,613921,learnblock1,476.69999999552965,img/planet2_left.png,2,Community 3,NA,FALSE,j,f,NA,NA,NA,7,6,"8,6,3,15,11,4,14,1,13,7,9,10,5,12,2"
14824,commdev-image-keyboard-response,304,615174,learnblock1,535,img/planet10_left.png,10,Community 3,NA,TRUE,f,f,NA,NA,NA,7,6,"8,6,3,15,11,4,14,1,13,7,9,10,5,12,2"
14824,commdev-image-keyboard-response,305,616427,learnblock1,717.7000000029802,img/planet5_left.png,5,Community 3,NA,FALSE,j,f,NA,NA,NA,7,6,"8,6,3,15,11,4,14,1,13,7,9,10,5,12,2"
14824,commdev-image-keyboard-response,306,617680,learnblock1,502.5,img/planet2_right.png,2,Community 3,NA,FALSE,f,j,NA,NA,NA,7,6,"8,6,3,15,11,4,14,1,13,7,9,10,5,12,2"
14824,commdev-image-keyboard-response,307,618932,learnblock1,482.29999999701977,img/planet10_right.png,10,Community 3,NA,TRUE,j,j,NA,NA,NA,7,6,"8,6,3,15,11,4,14,1,13,7,9,10,5,12,2"
14824,commdev-image-keyboard-response,308,620185,learnblock1,443.1000000014901,img/planet5_right.png,5,Community 3,NA,TRUE,j,j,NA,NA,NA,7,6,"8,6,3,15,11,4,14,1,13,7,9,10,5,12,2"
14824,commdev-image-keyboard-response,309,621439,learnblock1,501,img/planet12_left.png,12,Community 3,NA,TRUE,f,f,NA,NA,NA,7,6,"8,6,3,15,11,4,14,1,13,7,9,10,5,12,2"
14824,commdev-image-keyboard-response,310,622692,learnblock1,601.7000000029802,img/planet2_left.png,2,Community 3,NA,TRUE,f,f,NA,NA,NA,7,6,"8,6,3,15,11,4,14,1,13,7,9,10,5,12,2"
14824,commdev-image-keyboard-response,311,623945,learnblock1,501.1000000014901,img/planet10_right.png,10,Community 3,NA,TRUE,j,j,NA,NA,NA,7,6,"8,6,3,15,11,4,14,1,13,7,9,10,5,12,2"
14824,commdev-image-keyboard-response,312,625197,learnblock1,623.5999999940395,img/planet5_left.png,5,Community 3,NA,TRUE,f,f,NA,NA,NA,7,6,"8,6,3,15,11,4,14,1,13,7,9,10,5,12,2"
14824,commdev-image-keyboard-response,313,626450,learnblock1,406.79999999701977,img/planet9_right.png,9,Community 3,NA,TRUE,j,j,NA,NA,NA,7,6,"8,6,3,15,11,4,14,1,13,7,9,10,5,12,2"
14824,commdev-image-keyboard-response,314,627703,learnblock1,null,img/planet11_right.png,11,Community 1,NA,FALSE,null,j,NA,NA,NA,7,6,"8,6,3,15,11,4,14,1,13,7,9,10,5,12,2"
14824,commdev-image-keyboard-response,315,628955,learnblock1,580.3999999985099,img/planet9_left.png,9,Community 3,NA,TRUE,f,f,NA,NA,NA,7,6,"8,6,3,15,11,4,14,1,13,7,9,10,5,12,2"
14824,commdev-image-keyboard-response,316,630209,learnblock1,367.20000000298023,img/planet12_right.png,12,Community 3,NA,TRUE,j,j,NA,NA,NA,7,6,"8,6,3,15,11,4,14,1,13,7,9,10,5,12,2"
14824,commdev-image-keyboard-response,317,631462,learnblock1,573.6999999955297,img/planet9_right.png,9,Community 3,NA,TRUE,j,j,NA,NA,NA,7,6,"8,6,3,15,11,4,14,1,13,7,9,10,5,12,2"
14824,commdev-image-keyboard-response,318,632715,learnblock1,524.9000000059605,img/planet5_left.png,5,Community 3,NA,TRUE,f,f,NA,NA,NA,7,6,"8,6,3,15,11,4,14,1,13,7,9,10,5,12,2"
14824,commdev-image-keyboard-response,319,633968,learnblock1,321.5,img/planet12_right.png,12,Community 3,NA,TRUE,j,j,NA,NA,NA,7,6,"8,6,3,15,11,4,14,1,13,7,9,10,5,12,2"
14824,commdev-image-keyboard-response,320,635221,learnblock1,284.29999999701977,img/planet10_left.png,10,Community 3,NA,TRUE,f,f,NA,NA,NA,7,6,"8,6,3,15,11,4,14,1,13,7,9,10,5,12,2"
14824,commdev-image-keyboard-response,321,636475,learnblock1,256.69999999552965,img/planet1_right.png,1,Community 2,NA,TRUE,j,j,NA,NA,NA,7,6,"8,6,3,15,11,4,14,1,13,7,9,10,5,12,2"
14824,commdev-image-keyboard-response,322,637728,learnblock1,289.09999999403954,img/planet13_left.png,13,Community 2,NA,TRUE,f,f,NA,NA,NA,7,6,"8,6,3,15,11,4,14,1,13,7,9,10,5,12,2"
14824,commdev-image-keyboard-response,323,638982,learnblock1,269.30000000447035,img/planet1_left.png,1,Community 2,NA,FALSE,j,f,NA,NA,NA,7,6,"8,6,3,15,11,4,14,1,13,7,9,10,5,12,2"
14824,commdev-image-keyboard-response,324,640235,learnblock1,349.3999999985099,img/planet10_left.png,10,Community 3,NA,TRUE,f,f,NA,NA,NA,7,6,"8,6,3,15,11,4,14,1,13,7,9,10,5,12,2"
14824,commdev-image-keyboard-response,325,641488,learnblock1,407.5,img/planet1_right.png,1,Community 2,NA,TRUE,j,j,NA,NA,NA,7,6,"8,6,3,15,11,4,14,1,13,7,9,10,5,12,2"
14824,commdev-image-keyboard-response,326,642741,learnblock1,714.3999999985099,img/planet10_left.png,10,Community 3,NA,TRUE,f,f,NA,NA,NA,7,6,"8,6,3,15,11,4,14,1,13,7,9,10,5,12,2"
14824,commdev-image-keyboard-response,327,643993,learnblock1,494.8999999985099,img/planet12_right.png,12,Community 3,NA,TRUE,j,j,NA,NA,NA,7,6,"8,6,3,15,11,4,14,1,13,7,9,10,5,12,2"
14824,commdev-image-keyboard-response,328,645247,learnblock1,887.8000000044703,img/planet2_right.png,2,Community 3,NA,TRUE,j,j,NA,NA,NA,7,6,"8,6,3,15,11,4,14,1,13,7,9,10,5,12,2"
14824,commdev-image-keyboard-response,329,646500,learnblock1,754.1000000014901,img/planet5_right.png,5,Community 3,NA,TRUE,j,j,NA,NA,NA,7,6,"8,6,3,15,11,4,14,1,13,7,9,10,5,12,2"
14824,commdev-image-keyboard-response,330,647754,learnblock1,470.19999999552965,img/planet9_left.png,9,Community 3,NA,TRUE,f,f,NA,NA,NA,7,6,"8,6,3,15,11,4,14,1,13,7,9,10,5,12,2"
14824,commdev-image-keyboard-response,331,649006,learnblock1,568.0999999940395,img/planet5_left.png,5,Community 3,NA,TRUE,f,f,NA,NA,NA,7,6,"8,6,3,15,11,4,14,1,13,7,9,10,5,12,2"
14824,commdev-image-keyboard-response,332,650258,learnblock1,652.3999999985099,img/planet2_left.png,2,Community 3,NA,TRUE,f,f,NA,NA,NA,7,6,"8,6,3,15,11,4,14,1,13,7,9,10,5,12,2"
14824,commdev-image-keyboard-response,333,651511,learnblock1,607.7000000029802,img/planet5_right.png,5,Community 3,NA,TRUE,j,j,NA,NA,NA,7,6,"8,6,3,15,11,4,14,1,13,7,9,10,5,12,2"
14824,commdev-image-keyboard-response,334,652764,learnblock1,639.7000000029802,img/planet10_right.png,10,Community 3,NA,TRUE,j,j,NA,NA,NA,7,6,"8,6,3,15,11,4,14,1,13,7,9,10,5,12,2"
14824,commdev-image-keyboard-response,335,654017,learnblock1,638.6999999955297,img/planet1_right.png,1,Community 2,NA,TRUE,j,j,NA,NA,NA,7,6,"8,6,3,15,11,4,14,1,13,7,9,10,5,12,2"
14824,commdev-image-keyboard-response,336,655271,learnblock1,451.6000000014901,img/planet10_left.png,10,Community 3,NA,FALSE,j,f,NA,NA,NA,7,6,"8,6,3,15,11,4,14,1,13,7,9,10,5,12,2"
14824,commdev-image-keyboard-response,337,656524,learnblock1,803.3000000044703,img/planet5_right.png,5,Community 3,NA,TRUE,j,j,NA,NA,NA,7,6,"8,6,3,15,11,4,14,1,13,7,9,10,5,12,2"
14824,commdev-image-keyboard-response,338,657777,learnblock1,642.5,img/planet2_left.png,2,Community 3,NA,TRUE,f,f,NA,NA,NA,7,6,"8,6,3,15,11,4,14,1,13,7,9,10,5,12,2"
14824,commdev-image-keyboard-response,339,659030,learnblock1,730.7000000029802,img/planet12_left.png,12,Community 3,NA,TRUE,f,f,NA,NA,NA,7,6,"8,6,3,15,11,4,14,1,13,7,9,10,5,12,2"
14824,commdev-image-keyboard-response,340,660283,learnblock1,752.2999999970198,img/planet5_left.png,5,Community 3,NA,TRUE,f,f,NA,NA,NA,7,6,"8,6,3,15,11,4,14,1,13,7,9,10,5,12,2"
14824,commdev-image-keyboard-response,341,661536,learnblock1,512.5,img/planet10_right.png,10,Community 3,NA,FALSE,f,j,NA,NA,NA,7,6,"8,6,3,15,11,4,14,1,13,7,9,10,5,12,2"
14824,commdev-image-keyboard-response,342,662789,learnblock1,668.6000000014901,img/planet5_right.png,5,Community 3,NA,FALSE,f,j,NA,NA,NA,7,6,"8,6,3,15,11,4,14,1,13,7,9,10,5,12,2"
14824,commdev-image-keyboard-response,343,664041,learnblock1,681.8000000044703,img/planet9_right.png,9,Community 3,NA,TRUE,j,j,NA,NA,NA,7,6,"8,6,3,15,11,4,14,1,13,7,9,10,5,12,2"
14824,commdev-image-keyboard-response,344,665294,learnblock1,518.6000000014901,img/planet12_left.png,12,Community 3,NA,TRUE,f,f,NA,NA,NA,7,6,"8,6,3,15,11,4,14,1,13,7,9,10,5,12,2"
14824,commdev-image-keyboard-response,345,666547,learnblock1,null,img/planet10_right.png,10,Community 3,NA,FALSE,null,j,NA,NA,NA,7,6,"8,6,3,15,11,4,14,1,13,7,9,10,5,12,2"
14824,commdev-image-keyboard-response,346,667801,learnblock1,null,img/planet5_left.png,5,Community 3,NA,FALSE,null,f,NA,NA,NA,7,6,"8,6,3,15,11,4,14,1,13,7,9,10,5,12,2"
14824,commdev-image-keyboard-response,347,669052,learnblock1,638,img/planet12_right.png,12,Community 3,NA,TRUE,j,j,NA,NA,NA,7,6,"8,6,3,15,11,4,14,1,13,7,9,10,5,12,2"
14824,commdev-image-keyboard-response,351,692583,learnblock2,null,img/planet1_left.png,1,Community 2,NA,FALSE,null,f,NA,NA,NA,7,6,"8,6,3,15,11,4,14,1,13,7,9,10,5,12,2"
14824,commdev-image-keyboard-response,352,693836,learnblock2,788.6000000014901,img/planet10_right.png,10,Community 3,NA,TRUE,j,j,NA,NA,NA,7,6,"8,6,3,15,11,4,14,1,13,7,9,10,5,12,2"
14824,commdev-image-keyboard-response,353,695090,learnblock2,675.5999999940395,img/planet12_left.png,12,Community 3,NA,TRUE,f,f,NA,NA,NA,7,6,"8,6,3,15,11,4,14,1,13,7,9,10,5,12,2"
14824,commdev-image-keyboard-response,354,696342,learnblock2,724.7000000029802,img/planet9_right.png,9,Community 3,NA,TRUE,j,j,NA,NA,NA,7,6,"8,6,3,15,11,4,14,1,13,7,9,10,5,12,2"
14824,commdev-image-keyboard-response,355,697596,learnblock2,650.8999999985099,img/planet2_left.png,2,Community 3,NA,TRUE,f,f,NA,NA,NA,7,6,"8,6,3,15,11,4,14,1,13,7,9,10,5,12,2"
14824,commdev-image-keyboard-response,356,698850,learnblock2,291.70000000298023,img/planet9_left.png,9,Community 3,NA,FALSE,j,f,NA,NA,NA,7,6,"8,6,3,15,11,4,14,1,13,7,9,10,5,12,2"
14824,commdev-image-keyboard-response,357,700103,learnblock2,794.1000000014901,img/planet2_left.png,2,Community 3,NA,TRUE,f,f,NA,NA,NA,7,6,"8,6,3,15,11,4,14,1,13,7,9,10,5,12,2"
14824,commdev-image-keyboard-response,358,701355,learnblock2,657.3999999985099,img/planet5_left.png,5,Community 3,NA,TRUE,f,f,NA,NA,NA,7,6,"8,6,3,15,11,4,14,1,13,7,9,10,5,12,2"
14824,commdev-image-keyboard-response,359,702609,learnblock2,736.8999999985099,img/planet9_right.png,9,Community 3,NA,TRUE,j,j,NA,NA,NA,7,6,"8,6,3,15,11,4,14,1,13,7,9,10,5,12,2"
14824,commdev-image-keyboard-response,360,703862,learnblock2,628.8000000044703,img/planet5_right.png,5,Community 3,NA,TRUE,j,j,NA,NA,NA,7,6,"8,6,3,15,11,4,14,1,13,7,9,10,5,12,2"
14824,commdev-image-keyboard-response,361,705116,learnblock2,468.1000000014901,img/planet10_left.png,10,Community 3,NA,TRUE,f,f,NA,NA,NA,7,6,"8,6,3,15,11,4,14,1,13,7,9,10,5,12,2"
14824,commdev-image-keyboard-response,362,706368,learnblock2,387.5,img/planet1_right.png,1,Community 2,NA,TRUE,j,j,NA,NA,NA,7,6,"8,6,3,15,11,4,14,1,13,7,9,10,5,12,2"
14824,commdev-image-keyboard-response,363,707621,learnblock2,524.5,img/planet10_right.png,10,Community 3,NA,TRUE,j,j,NA,NA,NA,7,6,"8,6,3,15,11,4,14,1,13,7,9,10,5,12,2"
14824,commdev-image-keyboard-response,364,708874,learnblock2,441.8999999985099,img/planet12_right.png,12,Community 3,NA,TRUE,j,j,NA,NA,NA,7,6,"8,6,3,15,11,4,14,1,13,7,9,10,5,12,2"
14824,commdev-image-keyboard-response,365,710128,learnblock2,533.7999999970198,img/planet10_right.png,10,Community 3,NA,TRUE,j,j,NA,NA,NA,7,6,"8,6,3,15,11,4,14,1,13,7,9,10,5,12,2"
14824,commdev-image-keyboard-response,366,711380,learnblock2,635.5,img/planet5_left.png,5,Community 3,NA,TRUE,f,f,NA,NA,NA,7,6,"8,6,3,15,11,4,14,1,13,7,9,10,5,12,2"
14824,commdev-image-keyboard-response,367,712634,learnblock2,551,img/planet12_right.png,12,Community 3,NA,TRUE,j,j,NA,NA,NA,7,6,"8,6,3,15,11,4,14,1,13,7,9,10,5,12,2"
14824,commdev-image-keyboard-response,368,713887,learnblock2,674.8000000044703,img/planet9_right.png,9,Community 3,NA,TRUE,j,j,NA,NA,NA,7,6,"8,6,3,15,11,4,14,1,13,7,9,10,5,12,2"
14824,commdev-image-keyboard-response,369,715140,learnblock2,null,img/planet11_right.png,11,Community 1,NA,FALSE,null,j,NA,NA,NA,7,6,"8,6,3,15,11,4,14,1,13,7,9,10,5,12,2"
14824,commdev-image-keyboard-response,370,716393,learnblock2,534.2000000029802,img/planet8_right.png,8,Community 1,NA,TRUE,j,j,NA,NA,NA,7,6,"8,6,3,15,11,4,14,1,13,7,9,10,5,12,2"
14824,commdev-image-keyboard-response,371,717647,learnblock2,511.79999999701977,img/planet3_right.png,3,Community 1,NA,TRUE,j,j,NA,NA,NA,7,6,"8,6,3,15,11,4,14,1,13,7,9,10,5,12,2"
14824,commdev-image-keyboard-response,372,718899,learnblock2,654.2999999970198,img/planet11_left.png,11,Community 1,NA,TRUE,f,f,NA,NA,NA,7,6,"8,6,3,15,11,4,14,1,13,7,9,10,5,12,2"
14824,commdev-image-keyboard-response,373,720152,learnblock2,579,img/planet6_right.png,6,Community 1,NA,TRUE,j,j,NA,NA,NA,7,6,"8,6,3,15,11,4,14,1,13,7,9,10,5,12,2"
14824,commdev-image-keyboard-response,374,721405,learnblock2,635.5,img/planet3_left.png,3,Community 1,NA,TRUE,f,f,NA,NA,NA,7,6,"8,6,3,15,11,4,14,1,13,7,9,10,5,12,2"
14824,commdev-image-keyboard-response,375,722658,learnblock2,486.19999999552965,img/planet11_right.png,11,Community 1,NA,TRUE,j,j,NA,NA,NA,7,6,"8,6,3,15,11,4,14,1,13,7,9,10,5,12,2"
14824,commdev-image-keyboard-response,376,723912,learnblock2,830.2999999970198,img/planet8_right.png,8,Community 1,NA,TRUE,j,j,NA,NA,NA,7,6,"8,6,3,15,11,4,14,1,13,7,9,10,5,12,2"
14824,commdev-image-keyboard-response,377,725165,learnblock2,1047.6000000014901,img/planet15_left.png,15,Community 1,NA,TRUE,f,f,NA,NA,NA,7,6,"8,6,3,15,11,4,14,1,13,7,9,10,5,12,2"
14824,commdev-image-keyboard-response,378,726418,learnblock2,479.70000000298023,img/planet6_right.png,6,Community 1,NA,TRUE,j,j,NA,NA,NA,7,6,"8,6,3,15,11,4,14,1,13,7,9,10,5,12,2"
14824,commdev-image-keyboard-response,379,727671,learnblock2,887.6000000014901,img/planet8_right.png,8,Community 1,NA,TRUE,j,j,NA,NA,NA,7,6,"8,6,3,15,11,4,14,1,13,7,9,10,5,12,2"
14824,commdev-image-keyboard-response,380,728924,learnblock2,551,img/planet15_right.png,15,Community 1,NA,TRUE,j,j,NA,NA,NA,7,6,"8,6,3,15,11,4,14,1,13,7,9,10,5,12,2"
14824,commdev-image-keyboard-response,381,730178,learnblock2,719.8999999985099,img/planet8_left.png,8,Community 1,NA,TRUE,f,f,NA,NA,NA,7,6,"8,6,3,15,11,4,14,1,13,7,9,10,5,12,2"
14824,commdev-image-keyboard-response,382,731431,learnblock2,334.69999999552965,img/planet3_right.png,3,Community 1,NA,TRUE,j,j,NA,NA,NA,7,6,"8,6,3,15,11,4,14,1,13,7,9,10,5,12,2"
14824,commdev-image-keyboard-response,383,732684,learnblock2,686.2999999970198,img/planet11_left.png,11,Community 1,NA,TRUE,f,f,NA,NA,NA,7,6,"8,6,3,15,11,4,14,1,13,7,9,10,5,12,2"
14824,commdev-image-keyboard-response,384,733938,learnblock2,null,img/planet9_left.png,9,Community 3,NA,FALSE,null,f,NA,NA,NA,7,6,"8,6,3,15,11,4,14,1,13,7,9,10,5,12,2"
14824,commdev-image-keyboard-response,385,735191,learnblock2,92.10000000149012,img/planet12_left.png,12,Community 3,NA,TRUE,f,f,NA,NA,NA,7,6,"8,6,3,15,11,4,14,1,13,7,9,10,5,12,2"
14824,commdev-image-keyboard-response,386,736443,learnblock2,520.7999999970198,img/planet9_right.png,9,Community 3,NA,TRUE,j,j,NA,NA,NA,7,6,"8,6,3,15,11,4,14,1,13,7,9,10,5,12,2"
14824,commdev-image-keyboard-response,387,737696,learnblock2,705.6000000014901,img/planet5_right.png,5,Community 3,NA,TRUE,j,j,NA,NA,NA,7,6,"8,6,3,15,11,4,14,1,13,7,9,10,5,12,2"
14824,commdev-image-keyboard-response,388,738950,learnblock2,617.1000000014901,img/planet9_right.png,9,Community 3,NA,TRUE,j,j,NA,NA,NA,7,6,"8,6,3,15,11,4,14,1,13,7,9,10,5,12,2"
14824,commdev-image-keyboard-response,389,740202,learnblock2,741.7999999970198,img/planet11_right.png,11,Community 1,NA,TRUE,j,j,NA,NA,NA,7,6,"8,6,3,15,11,4,14,1,13,7,9,10,5,12,2"
14824,commdev-image-keyboard-response,390,741455,learnblock2,578.8999999985099,img/planet3_left.png,3,Community 1,NA,TRUE,f,f,NA,NA,NA,7,6,"8,6,3,15,11,4,14,1,13,7,9,10,5,12,2"
14824,commdev-image-keyboard-response,391,742709,learnblock2,591.5,img/planet11_right.png,11,Community 1,NA,TRUE,j,j,NA,NA,NA,7,6,"8,6,3,15,11,4,14,1,13,7,9,10,5,12,2"
14824,commdev-image-keyboard-response,392,743962,learnblock2,527.7000000029802,img/planet6_left.png,6,Community 1,NA,TRUE,f,f,NA,NA,NA,7,6,"8,6,3,15,11,4,14,1,13,7,9,10,5,12,2"
14824,commdev-image-keyboard-response,393,745215,learnblock2,277.70000000298023,img/planet11_left.png,11,Community 1,NA,FALSE,j,f,NA,NA,NA,7,6,"8,6,3,15,11,4,14,1,13,7,9,10,5,12,2"
14824,commdev-image-keyboard-response,394,746468,learnblock2,406.29999999701977,img/planet9_left.png,9,Community 3,NA,TRUE,f,f,NA,NA,NA,7,6,"8,6,3,15,11,4,14,1,13,7,9,10,5,12,2"
14824,commdev-image-keyboard-response,395,747722,learnblock2,324.40000000596046,img/planet12_left.png,12,Community 3,NA,TRUE,f,f,NA,NA,NA,7,6,"8,6,3,15,11,4,14,1,13,7,9,10,5,12,2"
14824,commdev-image-keyboard-response,396,748976,learnblock2,481.90000000596046,img/planet5_right.png,5,Community 3,NA,TRUE,j,j,NA,NA,NA,7,6,"8,6,3,15,11,4,14,1,13,7,9,10,5,12,2"
14824,commdev-image-keyboard-response,397,750229,learnblock2,588.2000000029802,img/planet9_left.png,9,Community 3,NA,TRUE,f,f,NA,NA,NA,7,6,"8,6,3,15,11,4,14,1,13,7,9,10,5,12,2"
14824,commdev-image-keyboard-response,398,751482,learnblock2,579.2999999970198,img/planet5_left.png,5,Community 3,NA,TRUE,f,f,NA,NA,NA,7,6,"8,6,3,15,11,4,14,1,13,7,9,10,5,12,2"
14824,commdev-image-keyboard-response,399,752735,learnblock2,528.5999999940395,img/planet10_left.png,10,Community 3,NA,TRUE,f,f,NA,NA,NA,7,6,"8,6,3,15,11,4,14,1,13,7,9,10,5,12,2"
14824,commdev-image-keyboard-response,400,753987,learnblock2,489.6000000014901,img/planet5_left.png,5,Community 3,NA,TRUE,f,f,NA,NA,NA,7,6,"8,6,3,15,11,4,14,1,13,7,9,10,5,12,2"
14824,commdev-image-keyboard-response,401,755241,learnblock2,462.8999999985099,img/planet10_left.png,10,Community 3,NA,TRUE,f,f,NA,NA,NA,7,6,"8,6,3,15,11,4,14,1,13,7,9,10,5,12,2"
14824,commdev-image-keyboard-response,402,756493,learnblock2,451.70000000298023,img/planet12_left.png,12,Community 3,NA,TRUE,f,f,NA,NA,NA,7,6,"8,6,3,15,11,4,14,1,13,7,9,10,5,12,2"
14824,commdev-image-keyboard-response,403,757747,learnblock2,357,img/planet9_right.png,9,Community 3,NA,FALSE,f,j,NA,NA,NA,7,6,"8,6,3,15,11,4,14,1,13,7,9,10,5,12,2"
14824,commdev-image-keyboard-response,404,759000,learnblock2,504.20000000298023,img/planet5_right.png,5,Community 3,NA,TRUE,j,j,NA,NA,NA,7,6,"8,6,3,15,11,4,14,1,13,7,9,10,5,12,2"
14824,commdev-image-keyboard-response,405,760253,learnblock2,502,img/planet2_left.png,2,Community 3,NA,TRUE,f,f,NA,NA,NA,7,6,"8,6,3,15,11,4,14,1,13,7,9,10,5,12,2"
14824,commdev-image-keyboard-response,406,761506,learnblock2,584.3999999985099,img/planet5_left.png,5,Community 3,NA,TRUE,f,f,NA,NA,NA,7,6,"8,6,3,15,11,4,14,1,13,7,9,10,5,12,2"
14824,commdev-image-keyboard-response,407,762760,learnblock2,900.5,img/planet12_left.png,12,Community 3,NA,TRUE,f,f,NA,NA,NA,7,6,"8,6,3,15,11,4,14,1,13,7,9,10,5,12,2"
14824,commdev-image-keyboard-response,408,764012,learnblock2,509.6000000014901,img/planet5_right.png,5,Community 3,NA,TRUE,j,j,NA,NA,NA,7,6,"8,6,3,15,11,4,14,1,13,7,9,10,5,12,2"
14824,commdev-image-keyboard-response,409,765266,learnblock2,563.0999999940395,img/planet10_left.png,10,Community 3,NA,TRUE,f,f,NA,NA,NA,7,6,"8,6,3,15,11,4,14,1,13,7,9,10,5,12,2"
14824,commdev-image-keyboard-response,410,766519,learnblock2,421.6000000014901,img/planet2_right.png,2,Community 3,NA,TRUE,j,j,NA,NA,NA,7,6,"8,6,3,15,11,4,14,1,13,7,9,10,5,12,2"
14824,commdev-image-keyboard-response,411,767772,learnblock2,742.9000000059605,img/planet12_right.png,12,Community 3,NA,TRUE,j,j,NA,NA,NA,7,6,"8,6,3,15,11,4,14,1,13,7,9,10,5,12,2"
14824,commdev-image-keyboard-response,412,769025,learnblock2,760.1000000014901,img/planet10_right.png,10,Community 3,NA,TRUE,j,j,NA,NA,NA,7,6,"8,6,3,15,11,4,14,1,13,7,9,10,5,12,2"
14824,commdev-image-keyboard-response,413,770279,learnblock2,555.1000000014901,img/planet12_right.png,12,Community 3,NA,TRUE,j,j,NA,NA,NA,7,6,"8,6,3,15,11,4,14,1,13,7,9,10,5,12,2"
14824,commdev-image-keyboard-response,414,771532,learnblock2,635.8000000044703,img/planet9_right.png,9,Community 3,NA,TRUE,j,j,NA,NA,NA,7,6,"8,6,3,15,11,4,14,1,13,7,9,10,5,12,2"
14824,commdev-image-keyboard-response,415,772785,learnblock2,484.69999999552965,img/planet12_left.png,12,Community 3,NA,FALSE,j,f,NA,NA,NA,7,6,"8,6,3,15,11,4,14,1,13,7,9,10,5,12,2"
14824,commdev-image-keyboard-response,416,774038,learnblock2,622.0999999940395,img/planet9_left.png,9,Community 3,NA,TRUE,f,f,NA,NA,NA,7,6,"8,6,3,15,11,4,14,1,13,7,9,10,5,12,2"
14824,commdev-image-keyboard-response,417,775291,learnblock2,493.20000000298023,img/planet2_right.png,2,Community 3,NA,TRUE,j,j,NA,NA,NA,7,6,"8,6,3,15,11,4,14,1,13,7,9,10,5,12,2"
14824,commdev-image-keyboard-response,418,776544,learnblock2,658.1000000014901,img/planet9_right.png,9,Community 3,NA,TRUE,j,j,NA,NA,NA,7,6,"8,6,3,15,11,4,14,1,13,7,9,10,5,12,2"
14824,commdev-image-keyboard-response,419,777797,learnblock2,528.5,img/planet2_right.png,2,Community 3,NA,TRUE,j,j,NA,NA,NA,7,6,"8,6,3,15,11,4,14,1,13,7,9,10,5,12,2"
14824,commdev-image-keyboard-response,420,779050,learnblock2,473.70000000298023,img/planet9_right.png,9,Community 3,NA,TRUE,j,j,NA,NA,NA,7,6,"8,6,3,15,11,4,14,1,13,7,9,10,5,12,2"
14824,commdev-image-keyboard-response,421,780302,learnblock2,545.7000000029802,img/planet2_left.png,2,Community 3,NA,FALSE,j,f,NA,NA,NA,7,6,"8,6,3,15,11,4,14,1,13,7,9,10,5,12,2"
14824,commdev-image-keyboard-response,422,781555,learnblock2,440.20000000298023,img/planet10_right.png,10,Community 3,NA,TRUE,j,j,NA,NA,NA,7,6,"8,6,3,15,11,4,14,1,13,7,9,10,5,12,2"
14824,commdev-image-keyboard-response,423,782808,learnblock2,572.7999999970198,img/planet2_left.png,2,Community 3,NA,TRUE,f,f,NA,NA,NA,7,6,"8,6,3,15,11,4,14,1,13,7,9,10,5,12,2"
14824,commdev-image-keyboard-response,424,784061,learnblock2,487,img/planet10_right.png,10,Community 3,NA,TRUE,j,j,NA,NA,NA,7,6,"8,6,3,15,11,4,14,1,13,7,9,10,5,12,2"
14824,commdev-image-keyboard-response,425,785313,learnblock2,760.6000000014901,img/planet12_right.png,12,Community 3,NA,TRUE,j,j,NA,NA,NA,7,6,"8,6,3,15,11,4,14,1,13,7,9,10,5,12,2"
14824,commdev-image-keyboard-response,426,786567,learnblock2,674.1000000014901,img/planet5_right.png,5,Community 3,NA,TRUE,j,j,NA,NA,NA,7,6,"8,6,3,15,11,4,14,1,13,7,9,10,5,12,2"
14824,commdev-image-keyboard-response,427,787820,learnblock2,517.6000000014901,img/planet9_left.png,9,Community 3,NA,TRUE,f,f,NA,NA,NA,7,6,"8,6,3,15,11,4,14,1,13,7,9,10,5,12,2"
14824,commdev-image-keyboard-response,428,789073,learnblock2,635.2999999970198,img/planet11_right.png,11,Community 1,NA,TRUE,j,j,NA,NA,NA,7,6,"8,6,3,15,11,4,14,1,13,7,9,10,5,12,2"
14824,commdev-image-keyboard-response,429,790326,learnblock2,561.8999999985099,img/planet9_right.png,9,Community 3,NA,TRUE,j,j,NA,NA,NA,7,6,"8,6,3,15,11,4,14,1,13,7,9,10,5,12,2"
14824,commdev-image-keyboard-response,430,791579,learnblock2,null,img/planet2_right.png,2,Community 3,NA,FALSE,null,j,NA,NA,NA,7,6,"8,6,3,15,11,4,14,1,13,7,9,10,5,12,2"
14824,commdev-image-keyboard-response,431,792831,learnblock2,773.2999999970198,img/planet9_right.png,9,Community 3,NA,TRUE,j,j,NA,NA,NA,7,6,"8,6,3,15,11,4,14,1,13,7,9,10,5,12,2"
14824,commdev-image-keyboard-response,432,794084,learnblock2,572.3000000044703,img/planet11_left.png,11,Community 1,NA,TRUE,f,f,NA,NA,NA,7,6,"8,6,3,15,11,4,14,1,13,7,9,10,5,12,2"
14824,commdev-image-keyboard-response,433,795337,learnblock2,679.6000000014901,img/planet9_right.png,9,Community 3,NA,TRUE,j,j,NA,NA,NA,7,6,"8,6,3,15,11,4,14,1,13,7,9,10,5,12,2"
14824,commdev-image-keyboard-response,434,796589,learnblock2,547,img/planet2_left.png,2,Community 3,NA,TRUE,f,f,NA,NA,NA,7,6,"8,6,3,15,11,4,14,1,13,7,9,10,5,12,2"
14824,commdev-image-keyboard-response,435,797842,learnblock2,464,img/planet9_right.png,9,Community 3,NA,TRUE,j,j,NA,NA,NA,7,6,"8,6,3,15,11,4,14,1,13,7,9,10,5,12,2"
14824,commdev-image-keyboard-response,436,799095,learnblock2,627.2999999970198,img/planet11_left.png,11,Community 1,NA,TRUE,f,f,NA,NA,NA,7,6,"8,6,3,15,11,4,14,1,13,7,9,10,5,12,2"
14824,commdev-image-keyboard-response,437,800348,learnblock2,null,img/planet3_right.png,3,Community 1,NA,FALSE,null,j,NA,NA,NA,7,6,"8,6,3,15,11,4,14,1,13,7,9,10,5,12,2"
14824,commdev-image-keyboard-response,438,801600,learnblock2,null,img/planet8_left.png,8,Community 1,NA,FALSE,null,f,NA,NA,NA,7,6,"8,6,3,15,11,4,14,1,13,7,9,10,5,12,2"
14824,commdev-image-keyboard-response,439,802853,learnblock2,511.19999999552965,img/planet6_right.png,6,Community 1,NA,TRUE,j,j,NA,NA,NA,7,6,"8,6,3,15,11,4,14,1,13,7,9,10,5,12,2"
14824,commdev-image-keyboard-response,440,804106,learnblock2,598.1000000014901,img/planet3_left.png,3,Community 1,NA,TRUE,f,f,NA,NA,NA,7,6,"8,6,3,15,11,4,14,1,13,7,9,10,5,12,2"
14824,commdev-image-keyboard-response,441,805359,learnblock2,495.1000000014901,img/planet8_left.png,8,Community 1,NA,FALSE,j,f,NA,NA,NA,7,6,"8,6,3,15,11,4,14,1,13,7,9,10,5,12,2"
14824,commdev-image-keyboard-response,442,806612,learnblock2,592.3000000044703,img/planet6_left.png,6,Community 1,NA,TRUE,f,f,NA,NA,NA,7,6,"8,6,3,15,11,4,14,1,13,7,9,10,5,12,2"
14824,commdev-image-keyboard-response,443,807865,learnblock2,547.3999999985099,img/planet15_right.png,15,Community 1,NA,TRUE,j,j,NA,NA,NA,7,6,"8,6,3,15,11,4,14,1,13,7,9,10,5,12,2"
14824,commdev-image-keyboard-response,444,809117,learnblock2,774.6000000014901,img/planet6_left.png,6,Community 1,NA,TRUE,f,f,NA,NA,NA,7,6,"8,6,3,15,11,4,14,1,13,7,9,10,5,12,2"
14824,commdev-image-keyboard-response,445,810370,learnblock2,340.69999999552965,img/planet8_right.png,8,Community 1,NA,TRUE,j,j,NA,NA,NA,7,6,"8,6,3,15,11,4,14,1,13,7,9,10,5,12,2"
14824,commdev-image-keyboard-response,446,811622,learnblock2,808.1999999955297,img/planet11_right.png,11,Community 1,NA,TRUE,j,j,NA,NA,NA,7,6,"8,6,3,15,11,4,14,1,13,7,9,10,5,12,2"
14824,commdev-image-keyboard-response,447,812875,learnblock2,632.5,img/planet9_right.png,9,Community 3,NA,TRUE,j,j,NA,NA,NA,7,6,"8,6,3,15,11,4,14,1,13,7,9,10,5,12,2"
14824,commdev-image-keyboard-response,448,814127,learnblock2,601.0999999940395,img/planet12_right.png,12,Community 3,NA,TRUE,j,j,NA,NA,NA,7,6,"8,6,3,15,11,4,14,1,13,7,9,10,5,12,2"
14824,commdev-image-keyboard-response,449,815379,learnblock2,532,img/planet9_right.png,9,Community 3,NA,TRUE,j,j,NA,NA,NA,7,6,"8,6,3,15,11,4,14,1,13,7,9,10,5,12,2"
14824,commdev-image-keyboard-response,450,816632,learnblock2,577.2999999970198,img/planet5_left.png,5,Community 3,NA,TRUE,f,f,NA,NA,NA,7,6,"8,6,3,15,11,4,14,1,13,7,9,10,5,12,2"
14824,commdev-image-keyboard-response,451,817885,learnblock2,710.7000000029802,img/planet9_left.png,9,Community 3,NA,TRUE,f,f,NA,NA,NA,7,6,"8,6,3,15,11,4,14,1,13,7,9,10,5,12,2"
14824,commdev-image-keyboard-response,452,819138,learnblock2,563.7000000029802,img/planet12_right.png,12,Community 3,NA,TRUE,j,j,NA,NA,NA,7,6,"8,6,3,15,11,4,14,1,13,7,9,10,5,12,2"
14824,commdev-image-keyboard-response,453,820392,learnblock2,602.2000000029802,img/planet2_right.png,2,Community 3,NA,TRUE,j,j,NA,NA,NA,7,6,"8,6,3,15,11,4,14,1,13,7,9,10,5,12,2"
14824,commdev-image-keyboard-response,454,821643,learnblock2,657.2000000029802,img/planet10_right.png,10,Community 3,NA,TRUE,j,j,NA,NA,NA,7,6,"8,6,3,15,11,4,14,1,13,7,9,10,5,12,2"
14824,commdev-image-keyboard-response,455,822896,learnblock2,566.5,img/planet5_left.png,5,Community 3,NA,FALSE,j,f,NA,NA,NA,7,6,"8,6,3,15,11,4,14,1,13,7,9,10,5,12,2"
14824,commdev-image-keyboard-response,456,824150,learnblock2,816.5,img/planet12_right.png,12,Community 3,NA,TRUE,j,j,NA,NA,NA,7,6,"8,6,3,15,11,4,14,1,13,7,9,10,5,12,2"
14824,commdev-image-keyboard-response,457,825403,learnblock2,730.6000000014901,img/planet9_right.png,9,Community 3,NA,TRUE,j,j,NA,NA,NA,7,6,"8,6,3,15,11,4,14,1,13,7,9,10,5,12,2"
14824,commdev-image-keyboard-response,458,826655,learnblock2,512.1000000014901,img/planet11_left.png,11,Community 1,NA,TRUE,f,f,NA,NA,NA,7,6,"8,6,3,15,11,4,14,1,13,7,9,10,5,12,2"
14824,commdev-image-keyboard-response,459,827908,learnblock2,638.2999999970198,img/planet8_left.png,8,Community 1,NA,TRUE,f,f,NA,NA,NA,7,6,"8,6,3,15,11,4,14,1,13,7,9,10,5,12,2"
14824,commdev-image-keyboard-response,460,829161,learnblock2,525.5,img/planet6_right.png,6,Community 1,NA,TRUE,j,j,NA,NA,NA,7,6,"8,6,3,15,11,4,14,1,13,7,9,10,5,12,2"
14824,commdev-image-keyboard-response,461,830414,learnblock2,535.5999999940395,img/planet8_left.png,8,Community 1,NA,TRUE,f,f,NA,NA,NA,7,6,"8,6,3,15,11,4,14,1,13,7,9,10,5,12,2"
14824,commdev-image-keyboard-response,462,831667,learnblock2,441.79999999701977,img/planet6_right.png,6,Community 1,NA,TRUE,j,j,NA,NA,NA,7,6,"8,6,3,15,11,4,14,1,13,7,9,10,5,12,2"
14824,commdev-image-keyboard-response,463,832920,learnblock2,565.5,img/planet8_right.png,8,Community 1,NA,TRUE,j,j,NA,NA,NA,7,6,"8,6,3,15,11,4,14,1,13,7,9,10,5,12,2"
14824,commdev-image-keyboard-response,464,834173,learnblock2,711.7000000029802,img/planet3_left.png,3,Community 1,NA,TRUE,f,f,NA,NA,NA,7,6,"8,6,3,15,11,4,14,1,13,7,9,10,5,12,2"
14824,commdev-image-keyboard-response,465,835426,learnblock2,671.7000000029802,img/planet8_left.png,8,Community 1,NA,TRUE,f,f,NA,NA,NA,7,6,"8,6,3,15,11,4,14,1,13,7,9,10,5,12,2"
14824,commdev-image-keyboard-response,466,836679,learnblock2,537.6000000014901,img/planet15_left.png,15,Community 1,NA,TRUE,f,f,NA,NA,NA,7,6,"8,6,3,15,11,4,14,1,13,7,9,10,5,12,2"
14824,commdev-image-keyboard-response,467,837931,learnblock2,465.6000000014901,img/planet8_left.png,8,Community 1,NA,TRUE,f,f,NA,NA,NA,7,6,"8,6,3,15,11,4,14,1,13,7,9,10,5,12,2"
14824,commdev-image-keyboard-response,468,839183,learnblock2,554,img/planet11_left.png,11,Community 1,NA,TRUE,f,f,NA,NA,NA,7,6,"8,6,3,15,11,4,14,1,13,7,9,10,5,12,2"
14824,commdev-image-keyboard-response,469,840436,learnblock2,513.4000000059605,img/planet6_left.png,6,Community 1,NA,TRUE,f,f,NA,NA,NA,7,6,"8,6,3,15,11,4,14,1,13,7,9,10,5,12,2"
14824,commdev-image-keyboard-response,470,841689,learnblock2,505.5,img/planet11_left.png,11,Community 1,NA,TRUE,f,f,NA,NA,NA,7,6,"8,6,3,15,11,4,14,1,13,7,9,10,5,12,2"
14824,commdev-image-keyboard-response,471,842942,learnblock2,561.5,img/planet3_left.png,3,Community 1,NA,TRUE,f,f,NA,NA,NA,7,6,"8,6,3,15,11,4,14,1,13,7,9,10,5,12,2"
14824,commdev-image-keyboard-response,472,844196,learnblock2,584,img/planet8_left.png,8,Community 1,NA,TRUE,f,f,NA,NA,NA,7,6,"8,6,3,15,11,4,14,1,13,7,9,10,5,12,2"
14824,commdev-image-keyboard-response,473,845449,learnblock2,408.79999999701977,img/planet3_right.png,3,Community 1,NA,FALSE,f,j,NA,NA,NA,7,6,"8,6,3,15,11,4,14,1,13,7,9,10,5,12,2"
14824,commdev-image-keyboard-response,474,846701,learnblock2,424,img/planet15_right.png,15,Community 1,NA,TRUE,j,j,NA,NA,NA,7,6,"8,6,3,15,11,4,14,1,13,7,9,10,5,12,2"
14824,commdev-image-keyboard-response,475,847955,learnblock2,628.0999999940395,img/planet3_left.png,3,Community 1,NA,TRUE,f,f,NA,NA,NA,7,6,"8,6,3,15,11,4,14,1,13,7,9,10,5,12,2"
14824,commdev-image-keyboard-response,476,849208,learnblock2,551.8999999985099,img/planet8_right.png,8,Community 1,NA,TRUE,j,j,NA,NA,NA,7,6,"8,6,3,15,11,4,14,1,13,7,9,10,5,12,2"
14824,commdev-image-keyboard-response,477,850461,learnblock2,628,img/planet15_left.png,15,Community 1,NA,TRUE,f,f,NA,NA,NA,7,6,"8,6,3,15,11,4,14,1,13,7,9,10,5,12,2"
14824,commdev-image-keyboard-response,478,851713,learnblock2,510.80000000447035,img/planet3_right.png,3,Community 1,NA,TRUE,j,j,NA,NA,NA,7,6,"8,6,3,15,11,4,14,1,13,7,9,10,5,12,2"
14824,commdev-image-keyboard-response,479,852966,learnblock2,612.9000000059605,img/planet6_right.png,6,Community 1,NA,TRUE,j,j,NA,NA,NA,7,6,"8,6,3,15,11,4,14,1,13,7,9,10,5,12,2"
14824,commdev-image-keyboard-response,480,854220,learnblock2,553.8999999985099,img/planet15_left.png,15,Community 1,NA,TRUE,f,f,NA,NA,NA,7,6,"8,6,3,15,11,4,14,1,13,7,9,10,5,12,2"
14824,commdev-image-keyboard-response,481,855473,learnblock2,560.3999999985099,img/planet6_right.png,6,Community 1,NA,TRUE,j,j,NA,NA,NA,7,6,"8,6,3,15,11,4,14,1,13,7,9,10,5,12,2"
14824,commdev-image-keyboard-response,482,856726,learnblock2,556,img/planet11_left.png,11,Community 1,NA,TRUE,f,f,NA,NA,NA,7,6,"8,6,3,15,11,4,14,1,13,7,9,10,5,12,2"
14824,commdev-image-keyboard-response,483,857980,learnblock2,470.09999999403954,img/planet6_right.png,6,Community 1,NA,TRUE,j,j,NA,NA,NA,7,6,"8,6,3,15,11,4,14,1,13,7,9,10,5,12,2"
14824,commdev-image-keyboard-response,484,859232,learnblock2,608.6000000014901,img/planet11_left.png,11,Community 1,NA,TRUE,f,f,NA,NA,NA,7,6,"8,6,3,15,11,4,14,1,13,7,9,10,5,12,2"
14824,commdev-image-keyboard-response,485,860486,learnblock2,null,img/planet8_left.png,8,Community 1,NA,FALSE,null,f,NA,NA,NA,7,6,"8,6,3,15,11,4,14,1,13,7,9,10,5,12,2"
14824,commdev-image-keyboard-response,486,861739,learnblock2,null,img/planet6_left.png,6,Community 1,NA,FALSE,null,f,NA,NA,NA,7,6,"8,6,3,15,11,4,14,1,13,7,9,10,5,12,2"
14824,commdev-image-keyboard-response,487,862992,learnblock2,35.100000001490116,img/planet15_right.png,15,Community 1,NA,FALSE,f,j,NA,NA,NA,7,6,"8,6,3,15,11,4,14,1,13,7,9,10,5,12,2"
14824,commdev-image-keyboard-response,488,864246,learnblock2,null,img/planet3_left.png,3,Community 1,NA,FALSE,null,f,NA,NA,NA,7,6,"8,6,3,15,11,4,14,1,13,7,9,10,5,12,2"
14824,commdev-image-keyboard-response,489,865498,learnblock2,897.2000000029802,img/planet8_left.png,8,Community 1,NA,TRUE,f,f,NA,NA,NA,7,6,"8,6,3,15,11,4,14,1,13,7,9,10,5,12,2"
14824,commdev-image-keyboard-response,490,866751,learnblock2,437.3999999985099,img/planet15_right.png,15,Community 1,NA,TRUE,j,j,NA,NA,NA,7,6,"8,6,3,15,11,4,14,1,13,7,9,10,5,12,2"
14824,commdev-image-keyboard-response,491,868005,learnblock2,627.2999999970198,img/planet6_left.png,6,Community 1,NA,TRUE,f,f,NA,NA,NA,7,6,"8,6,3,15,11,4,14,1,13,7,9,10,5,12,2"
14824,commdev-image-keyboard-response,492,869258,learnblock2,null,img/planet11_left.png,11,Community 1,NA,FALSE,null,f,NA,NA,NA,7,6,"8,6,3,15,11,4,14,1,13,7,9,10,5,12,2"
14824,commdev-image-keyboard-response,493,870512,learnblock2,285.09999999403954,img/planet6_left.png,6,Community 1,NA,FALSE,j,f,NA,NA,NA,7,6,"8,6,3,15,11,4,14,1,13,7,9,10,5,12,2"
14824,commdev-image-keyboard-response,494,871764,learnblock2,824.7000000029802,img/planet3_right.png,3,Community 1,NA,TRUE,j,j,NA,NA,NA,7,6,"8,6,3,15,11,4,14,1,13,7,9,10,5,12,2"
14824,commdev-image-keyboard-response,495,873016,learnblock2,470,img/planet6_left.png,6,Community 1,NA,TRUE,f,f,NA,NA,NA,7,6,"8,6,3,15,11,4,14,1,13,7,9,10,5,12,2"
14824,commdev-image-keyboard-response,496,874269,learnblock2,659.1000000014901,img/planet11_left.png,11,Community 1,NA,TRUE,f,f,NA,NA,NA,7,6,"8,6,3,15,11,4,14,1,13,7,9,10,5,12,2"
14824,commdev-image-keyboard-response,497,875522,learnblock2,635.5,img/planet9_left.png,9,Community 3,NA,TRUE,f,f,NA,NA,NA,7,6,"8,6,3,15,11,4,14,1,13,7,9,10,5,12,2"
14824,commdev-image-keyboard-response,498,876775,learnblock2,711,img/planet5_left.png,5,Community 3,NA,TRUE,f,f,NA,NA,NA,7,6,"8,6,3,15,11,4,14,1,13,7,9,10,5,12,2"
14824,commdev-image-keyboard-response,499,878027,learnblock2,470.69999999552965,img/planet9_right.png,9,Community 3,NA,FALSE,f,j,NA,NA,NA,7,6,"8,6,3,15,11,4,14,1,13,7,9,10,5,12,2"
14824,commdev-image-keyboard-response,500,879280,learnblock2,676.6999999955297,img/planet12_right.png,12,Community 3,NA,TRUE,j,j,NA,NA,NA,7,6,"8,6,3,15,11,4,14,1,13,7,9,10,5,12,2"
14824,commdev-image-keyboard-response,501,880533,learnblock2,568.7999999970198,img/planet5_right.png,5,Community 3,NA,TRUE,j,j,NA,NA,NA,7,6,"8,6,3,15,11,4,14,1,13,7,9,10,5,12,2"
14824,commdev-image-keyboard-response,502,881786,learnblock2,514,img/planet2_right.png,2,Community 3,NA,TRUE,j,j,NA,NA,NA,7,6,"8,6,3,15,11,4,14,1,13,7,9,10,5,12,2"
14824,commdev-image-keyboard-response,503,883039,learnblock2,792.3000000044703,img/planet5_left.png,5,Community 3,NA,TRUE,f,f,NA,NA,NA,7,6,"8,6,3,15,11,4,14,1,13,7,9,10,5,12,2"
14824,commdev-image-keyboard-response,504,884292,learnblock2,827.3999999985099,img/planet12_left.png,12,Community 3,NA,TRUE,f,f,NA,NA,NA,7,6,"8,6,3,15,11,4,14,1,13,7,9,10,5,12,2"
14824,commdev-image-keyboard-response,505,885546,learnblock2,868.3999999985099,img/planet2_left.png,2,Community 3,NA,TRUE,f,f,NA,NA,NA,7,6,"8,6,3,15,11,4,14,1,13,7,9,10,5,12,2"
14824,commdev-image-keyboard-response,506,886798,learnblock2,991.1000000014901,img/planet12_left.png,12,Community 3,NA,TRUE,f,f,NA,NA,NA,7,6,"8,6,3,15,11,4,14,1,13,7,9,10,5,12,2"
14824,commdev-image-keyboard-response,507,888051,learnblock2,755.8999999985099,img/planet5_left.png,5,Community 3,NA,TRUE,f,f,NA,NA,NA,7,6,"8,6,3,15,11,4,14,1,13,7,9,10,5,12,2"
14824,commdev-image-keyboard-response,508,889304,learnblock2,541.6000000014901,img/planet9_right.png,9,Community 3,NA,TRUE,j,j,NA,NA,NA,7,6,"8,6,3,15,11,4,14,1,13,7,9,10,5,12,2"
14824,commdev-image-keyboard-response,509,890558,learnblock2,494,img/planet2_right.png,2,Community 3,NA,TRUE,j,j,NA,NA,NA,7,6,"8,6,3,15,11,4,14,1,13,7,9,10,5,12,2"
14824,commdev-image-keyboard-response,510,891811,learnblock2,462,img/planet9_right.png,9,Community 3,NA,TRUE,j,j,NA,NA,NA,7,6,"8,6,3,15,11,4,14,1,13,7,9,10,5,12,2"
14824,commdev-image-keyboard-response,511,893063,learnblock2,641.3000000044703,img/planet11_right.png,11,Community 1,NA,TRUE,j,j,NA,NA,NA,7,6,"8,6,3,15,11,4,14,1,13,7,9,10,5,12,2"
14824,commdev-image-keyboard-response,512,894317,learnblock2,542.1999999955297,img/planet8_right.png,8,Community 1,NA,TRUE,j,j,NA,NA,NA,7,6,"8,6,3,15,11,4,14,1,13,7,9,10,5,12,2"
14824,commdev-image-keyboard-response,513,895570,learnblock2,459.69999999552965,img/planet6_right.png,6,Community 1,NA,TRUE,j,j,NA,NA,NA,7,6,"8,6,3,15,11,4,14,1,13,7,9,10,5,12,2"
14824,commdev-image-keyboard-response,514,896822,learnblock2,630,img/planet11_left.png,11,Community 1,NA,TRUE,f,f,NA,NA,NA,7,6,"8,6,3,15,11,4,14,1,13,7,9,10,5,12,2"
14824,commdev-image-keyboard-response,515,898074,learnblock2,542.6999999955297,img/planet3_left.png,3,Community 1,NA,TRUE,f,f,NA,NA,NA,7,6,"8,6,3,15,11,4,14,1,13,7,9,10,5,12,2"
14824,commdev-image-keyboard-response,516,899327,learnblock2,573,img/planet11_right.png,11,Community 1,NA,TRUE,j,j,NA,NA,NA,7,6,"8,6,3,15,11,4,14,1,13,7,9,10,5,12,2"
14824,commdev-image-keyboard-response,517,900580,learnblock2,734,img/planet3_right.png,3,Community 1,NA,TRUE,j,j,NA,NA,NA,7,6,"8,6,3,15,11,4,14,1,13,7,9,10,5,12,2"
14824,commdev-image-keyboard-response,518,901833,learnblock2,498.6000000014901,img/planet8_right.png,8,Community 1,NA,TRUE,j,j,NA,NA,NA,7,6,"8,6,3,15,11,4,14,1,13,7,9,10,5,12,2"
14824,commdev-image-keyboard-response,519,903085,learnblock2,467.80000000447035,img/planet11_right.png,11,Community 1,NA,TRUE,j,j,NA,NA,NA,7,6,"8,6,3,15,11,4,14,1,13,7,9,10,5,12,2"
14824,commdev-image-keyboard-response,520,904338,learnblock2,590.6000000014901,img/planet9_right.png,9,Community 3,NA,TRUE,j,j,NA,NA,NA,7,6,"8,6,3,15,11,4,14,1,13,7,9,10,5,12,2"
14824,commdev-image-keyboard-response,521,905591,learnblock2,694.8000000044703,img/planet5_left.png,5,Community 3,NA,TRUE,f,f,NA,NA,NA,7,6,"8,6,3,15,11,4,14,1,13,7,9,10,5,12,2"
14824,commdev-image-keyboard-response,522,906844,learnblock2,813.2999999970198,img/planet9_left.png,9,Community 3,NA,TRUE,f,f,NA,NA,NA,7,6,"8,6,3,15,11,4,14,1,13,7,9,10,5,12,2"
14824,commdev-image-keyboard-response,523,908096,learnblock2,687.6000000014901,img/planet2_left.png,2,Community 3,NA,TRUE,f,f,NA,NA,NA,7,6,"8,6,3,15,11,4,14,1,13,7,9,10,5,12,2"
14824,commdev-image-keyboard-response,524,909349,learnblock2,466.70000000298023,img/planet10_right.png,10,Community 3,NA,TRUE,j,j,NA,NA,NA,7,6,"8,6,3,15,11,4,14,1,13,7,9,10,5,12,2"
14824,commdev-image-keyboard-response,525,910602,learnblock2,535.2999999970198,img/planet1_right.png,1,Community 2,NA,TRUE,j,j,NA,NA,NA,7,6,"8,6,3,15,11,4,14,1,13,7,9,10,5,12,2"
14824,commdev-image-keyboard-response,526,911855,learnblock2,530.3999999985099,img/planet14_right.png,14,Community 2,NA,FALSE,f,j,NA,NA,NA,7,6,"8,6,3,15,11,4,14,1,13,7,9,10,5,12,2"
14824,commdev-image-keyboard-response,527,913108,learnblock2,718.3999999985099,img/planet4_right.png,4,Community 2,NA,TRUE,j,j,NA,NA,NA,7,6,"8,6,3,15,11,4,14,1,13,7,9,10,5,12,2"
14824,commdev-image-keyboard-response,528,914362,learnblock2,728.1000000014901,img/planet7_left.png,7,Community 2,NA,TRUE,f,f,NA,NA,NA,7,6,"8,6,3,15,11,4,14,1,13,7,9,10,5,12,2"
14824,commdev-image-keyboard-response,529,915615,learnblock2,535.8999999985099,img/planet1_right.png,1,Community 2,NA,TRUE,j,j,NA,NA,NA,7,6,"8,6,3,15,11,4,14,1,13,7,9,10,5,12,2"
14824,commdev-image-keyboard-response,530,916867,learnblock2,777.7999999970198,img/planet10_right.png,10,Community 3,NA,TRUE,j,j,NA,NA,NA,7,6,"8,6,3,15,11,4,14,1,13,7,9,10,5,12,2"
14824,commdev-image-keyboard-response,531,918119,learnblock2,570.9000000059605,img/planet5_left.png,5,Community 3,NA,TRUE,f,f,NA,NA,NA,7,6,"8,6,3,15,11,4,14,1,13,7,9,10,5,12,2"
14824,commdev-image-keyboard-response,532,919372,learnblock2,436.80000000447035,img/planet10_right.png,10,Community 3,NA,TRUE,j,j,NA,NA,NA,7,6,"8,6,3,15,11,4,14,1,13,7,9,10,5,12,2"
14824,commdev-image-keyboard-response,533,920626,learnblock2,445.70000000298023,img/planet2_left.png,2,Community 3,NA,TRUE,f,f,NA,NA,NA,7,6,"8,6,3,15,11,4,14,1,13,7,9,10,5,12,2"
14824,commdev-image-keyboard-response,534,921879,learnblock2,885.2999999970198,img/planet12_left.png,12,Community 3,NA,FALSE,j,f,NA,NA,NA,7,6,"8,6,3,15,11,4,14,1,13,7,9,10,5,12,2"
14824,commdev-image-keyboard-response,535,923131,learnblock2,680.2999999970198,img/planet5_right.png,5,Community 3,NA,TRUE,j,j,NA,NA,NA,7,6,"8,6,3,15,11,4,14,1,13,7,9,10,5,12,2"
14824,commdev-image-keyboard-response,536,924384,learnblock2,573.7999999970198,img/planet10_right.png,10,Community 3,NA,TRUE,j,j,NA,NA,NA,7,6,"8,6,3,15,11,4,14,1,13,7,9,10,5,12,2"
14824,commdev-image-keyboard-response,537,925637,learnblock2,893.5,img/planet1_right.png,1,Community 2,NA,TRUE,j,j,NA,NA,NA,7,6,"8,6,3,15,11,4,14,1,13,7,9,10,5,12,2"
14824,commdev-image-keyboard-response,538,926891,learnblock2,1036.1999999955297,img/planet7_right.png,7,Community 2,NA,TRUE,j,j,NA,NA,NA,7,6,"8,6,3,15,11,4,14,1,13,7,9,10,5,12,2"
14824,commdev-image-keyboard-response,539,928143,learnblock2,565.2999999970198,img/planet1_right.png,1,Community 2,NA,TRUE,j,j,NA,NA,NA,7,6,"8,6,3,15,11,4,14,1,13,7,9,10,5,12,2"
14824,commdev-image-keyboard-response,540,929397,learnblock2,538.8999999985099,img/planet10_right.png,10,Community 3,NA,TRUE,j,j,NA,NA,NA,7,6,"8,6,3,15,11,4,14,1,13,7,9,10,5,12,2"
14824,commdev-image-keyboard-response,541,930650,learnblock2,569.3000000044703,img/planet1_right.png,1,Community 2,NA,TRUE,j,j,NA,NA,NA,7,6,"8,6,3,15,11,4,14,1,13,7,9,10,5,12,2"
14824,commdev-image-keyboard-response,542,931903,learnblock2,758,img/planet7_right.png,7,Community 2,NA,TRUE,j,j,NA,NA,NA,7,6,"8,6,3,15,11,4,14,1,13,7,9,10,5,12,2"
14824,commdev-image-keyboard-response,543,933156,learnblock2,861.8999999985099,img/planet1_right.png,1,Community 2,NA,TRUE,j,j,NA,NA,NA,7,6,"8,6,3,15,11,4,14,1,13,7,9,10,5,12,2"
14824,commdev-image-keyboard-response,544,934409,learnblock2,712,img/planet13_right.png,13,Community 2,NA,TRUE,j,j,NA,NA,NA,7,6,"8,6,3,15,11,4,14,1,13,7,9,10,5,12,2"
14824,commdev-image-keyboard-response,545,935662,learnblock2,876.8000000044703,img/planet4_left.png,4,Community 2,NA,TRUE,f,f,NA,NA,NA,7,6,"8,6,3,15,11,4,14,1,13,7,9,10,5,12,2"
14824,commdev-image-keyboard-response,546,936915,learnblock2,783.1999999955297,img/planet7_left.png,7,Community 2,NA,TRUE,f,f,NA,NA,NA,7,6,"8,6,3,15,11,4,14,1,13,7,9,10,5,12,2"
14824,commdev-image-keyboard-response,547,938168,learnblock2,679.5,img/planet14_right.png,14,Community 2,NA,TRUE,j,j,NA,NA,NA,7,6,"8,6,3,15,11,4,14,1,13,7,9,10,5,12,2"
14824,commdev-image-keyboard-response,548,939421,learnblock2,977.2000000029802,img/planet7_left.png,7,Community 2,NA,TRUE,f,f,NA,NA,NA,7,6,"8,6,3,15,11,4,14,1,13,7,9,10,5,12,2"
14824,commdev-image-keyboard-response,549,940675,learnblock2,549.8999999985099,img/planet1_right.png,1,Community 2,NA,TRUE,j,j,NA,NA,NA,7,6,"8,6,3,15,11,4,14,1,13,7,9,10,5,12,2"
14824,commdev-image-keyboard-response,550,941928,learnblock2,712.5,img/planet13_left.png,13,Community 2,NA,TRUE,f,f,NA,NA,NA,7,6,"8,6,3,15,11,4,14,1,13,7,9,10,5,12,2"
14824,commdev-image-keyboard-response,551,943180,learnblock2,695.1000000014901,img/planet4_left.png,4,Community 2,NA,TRUE,f,f,NA,NA,NA,7,6,"8,6,3,15,11,4,14,1,13,7,9,10,5,12,2"
14824,commdev-image-keyboard-response,552,944434,learnblock2,649.6000000014901,img/planet14_left.png,14,Community 2,NA,TRUE,f,f,NA,NA,NA,7,6,"8,6,3,15,11,4,14,1,13,7,9,10,5,12,2"
14824,commdev-image-keyboard-response,553,945686,learnblock2,539.5,img/planet4_right.png,4,Community 2,NA,TRUE,j,j,NA,NA,NA,7,6,"8,6,3,15,11,4,14,1,13,7,9,10,5,12,2"
14824,commdev-image-keyboard-response,554,946940,learnblock2,511.3999999985099,img/planet13_left.png,13,Community 2,NA,TRUE,f,f,NA,NA,NA,7,6,"8,6,3,15,11,4,14,1,13,7,9,10,5,12,2"
14824,commdev-image-keyboard-response,555,948193,learnblock2,302.69999999552965,img/planet4_right.png,4,Community 2,NA,TRUE,j,j,NA,NA,NA,7,6,"8,6,3,15,11,4,14,1,13,7,9,10,5,12,2"
14824,commdev-image-keyboard-response,556,949446,learnblock2,531,img/planet14_left.png,14,Community 2,NA,TRUE,f,f,NA,NA,NA,7,6,"8,6,3,15,11,4,14,1,13,7,9,10,5,12,2"
14824,commdev-image-keyboard-response,557,950699,learnblock2,595.5,img/planet7_left.png,7,Community 2,NA,TRUE,f,f,NA,NA,NA,7,6,"8,6,3,15,11,4,14,1,13,7,9,10,5,12,2"
14824,commdev-image-keyboard-response,558,951952,learnblock2,543.8000000044703,img/planet1_left.png,1,Community 2,NA,TRUE,f,f,NA,NA,NA,7,6,"8,6,3,15,11,4,14,1,13,7,9,10,5,12,2"
14824,commdev-image-keyboard-response,559,953205,learnblock2,585.6000000014901,img/planet13_right.png,13,Community 2,NA,TRUE,j,j,NA,NA,NA,7,6,"8,6,3,15,11,4,14,1,13,7,9,10,5,12,2"
14824,commdev-image-keyboard-response,560,954458,learnblock2,531.1000000014901,img/planet4_right.png,4,Community 2,NA,TRUE,j,j,NA,NA,NA,7,6,"8,6,3,15,11,4,14,1,13,7,9,10,5,12,2"
14824,commdev-image-keyboard-response,561,955711,learnblock2,441.29999999701977,img/planet14_right.png,14,Community 2,NA,TRUE,j,j,NA,NA,NA,7,6,"8,6,3,15,11,4,14,1,13,7,9,10,5,12,2"
14824,commdev-image-keyboard-response,562,956964,learnblock2,482.79999999701977,img/planet1_right.png,1,Community 2,NA,TRUE,j,j,NA,NA,NA,7,6,"8,6,3,15,11,4,14,1,13,7,9,10,5,12,2"
14824,commdev-image-keyboard-response,563,958217,learnblock2,540.6999999955297,img/planet7_left.png,7,Community 2,NA,TRUE,f,f,NA,NA,NA,7,6,"8,6,3,15,11,4,14,1,13,7,9,10,5,12,2"
14824,commdev-image-keyboard-response,564,959470,learnblock2,629.4000000059605,img/planet4_left.png,4,Community 2,NA,TRUE,f,f,NA,NA,NA,7,6,"8,6,3,15,11,4,14,1,13,7,9,10,5,12,2"
14824,commdev-image-keyboard-response,565,960724,learnblock2,477.5,img/planet13_right.png,13,Community 2,NA,TRUE,j,j,NA,NA,NA,7,6,"8,6,3,15,11,4,14,1,13,7,9,10,5,12,2"
14824,commdev-image-keyboard-response,566,961977,learnblock2,608.8999999985099,img/planet14_right.png,14,Community 2,NA,TRUE,j,j,NA,NA,NA,7,6,"8,6,3,15,11,4,14,1,13,7,9,10,5,12,2"
14824,commdev-image-keyboard-response,567,963230,learnblock2,546.5,img/planet1_left.png,1,Community 2,NA,TRUE,f,f,NA,NA,NA,7,6,"8,6,3,15,11,4,14,1,13,7,9,10,5,12,2"
14824,commdev-image-keyboard-response,568,964482,learnblock2,710.2000000029802,img/planet7_right.png,7,Community 2,NA,TRUE,j,j,NA,NA,NA,7,6,"8,6,3,15,11,4,14,1,13,7,9,10,5,12,2"
14824,commdev-image-keyboard-response,569,965736,learnblock2,627,img/planet14_left.png,14,Community 2,NA,TRUE,f,f,NA,NA,NA,7,6,"8,6,3,15,11,4,14,1,13,7,9,10,5,12,2"
14824,commdev-image-keyboard-response,570,966989,learnblock2,372.70000000298023,img/planet7_right.png,7,Community 2,NA,TRUE,j,j,NA,NA,NA,7,6,"8,6,3,15,11,4,14,1,13,7,9,10,5,12,2"
14824,commdev-image-keyboard-response,571,968243,learnblock2,670.5,img/planet13_left.png,13,Community 2,NA,FALSE,j,f,NA,NA,NA,7,6,"8,6,3,15,11,4,14,1,13,7,9,10,5,12,2"
14824,commdev-image-keyboard-response,572,969496,learnblock2,629.7999999970198,img/planet4_right.png,4,Community 2,NA,TRUE,j,j,NA,NA,NA,7,6,"8,6,3,15,11,4,14,1,13,7,9,10,5,12,2"
14824,commdev-image-keyboard-response,573,970749,learnblock2,932.0999999940395,img/planet15_right.png,15,Community 1,NA,TRUE,j,j,NA,NA,NA,7,6,"8,6,3,15,11,4,14,1,13,7,9,10,5,12,2"
14824,commdev-image-keyboard-response,574,972002,learnblock2,556.6000000014901,img/planet8_left.png,8,Community 1,NA,TRUE,f,f,NA,NA,NA,7,6,"8,6,3,15,11,4,14,1,13,7,9,10,5,12,2"
14824,commdev-image-keyboard-response,575,973255,learnblock2,677,img/planet11_left.png,11,Community 1,NA,TRUE,f,f,NA,NA,NA,7,6,"8,6,3,15,11,4,14,1,13,7,9,10,5,12,2"
14824,commdev-image-keyboard-response,576,974508,learnblock2,516.6000000014901,img/planet8_right.png,8,Community 1,NA,TRUE,j,j,NA,NA,NA,7,6,"8,6,3,15,11,4,14,1,13,7,9,10,5,12,2"
14824,commdev-image-keyboard-response,577,975761,learnblock2,726.8999999985099,img/planet15_left.png,15,Community 1,NA,TRUE,f,f,NA,NA,NA,7,6,"8,6,3,15,11,4,14,1,13,7,9,10,5,12,2"
14824,commdev-image-keyboard-response,578,977014,learnblock2,714.1000000014901,img/planet8_left.png,8,Community 1,NA,TRUE,f,f,NA,NA,NA,7,6,"8,6,3,15,11,4,14,1,13,7,9,10,5,12,2"
14824,commdev-image-keyboard-response,579,978268,learnblock2,690.6999999955297,img/planet3_left.png,3,Community 1,NA,TRUE,f,f,NA,NA,NA,7,6,"8,6,3,15,11,4,14,1,13,7,9,10,5,12,2"
14824,commdev-image-keyboard-response,580,979521,learnblock2,589.0999999940395,img/planet11_left.png,11,Community 1,NA,TRUE,f,f,NA,NA,NA,7,6,"8,6,3,15,11,4,14,1,13,7,9,10,5,12,2"
14824,commdev-image-keyboard-response,581,980774,learnblock2,717.2000000029802,img/planet6_right.png,6,Community 1,NA,TRUE,j,j,NA,NA,NA,7,6,"8,6,3,15,11,4,14,1,13,7,9,10,5,12,2"
14824,commdev-image-keyboard-response,582,982027,learnblock2,594.7000000029802,img/planet8_right.png,8,Community 1,NA,TRUE,j,j,NA,NA,NA,7,6,"8,6,3,15,11,4,14,1,13,7,9,10,5,12,2"
14824,commdev-image-keyboard-response,583,983279,learnblock2,537.5,img/planet6_right.png,6,Community 1,NA,TRUE,j,j,NA,NA,NA,7,6,"8,6,3,15,11,4,14,1,13,7,9,10,5,12,2"
14824,commdev-image-keyboard-response,584,984532,learnblock2,618.1000000014901,img/planet8_right.png,8,Community 1,NA,TRUE,j,j,NA,NA,NA,7,6,"8,6,3,15,11,4,14,1,13,7,9,10,5,12,2"
14824,commdev-image-keyboard-response,585,985785,learnblock2,480.1000000014901,img/planet6_right.png,6,Community 1,NA,TRUE,j,j,NA,NA,NA,7,6,"8,6,3,15,11,4,14,1,13,7,9,10,5,12,2"
14824,commdev-image-keyboard-response,586,987039,learnblock2,742.3999999985099,img/planet15_left.png,15,Community 1,NA,TRUE,f,f,NA,NA,NA,7,6,"8,6,3,15,11,4,14,1,13,7,9,10,5,12,2"
