subject_id,trial_type,trial_index,time_elapsed,block,rt,stimulus,planet,community,response,correct,key_press,learning_correct_response,parse,init_locations,final_locations,browser_interactions,num_comp,planet_map
15143,commdev-instructions,7,65279,NA,965.0000000000073,"<p>In this game, you will be shown a 3x3 grid of patterns.</p> <p>The last one in the bottom right-hand corner, <strong>will be missing:</strong></p> <div style='width: 700px;'><div style='float: top;'><img style='width: 200px;' src='practice/p1_M1.png'></img><p class='small'>You need to select<strong> which of the four possible patterns </strong>along the bottom<strong> fits into the gap:</strong></p></div><div style='float: top;'><img style='width: 300px;' src='practice/p1_T1.png'></img></div><br>",NA,NA,NA,NA,NA,NA,NA,NA,NA,5,6,"10,5,9,13,3,2,14,1,8,7,11,12,15,4,6"
15143,commdev-instructions,8,85297,NA,2164,"<p>Try to be as fast and as accurate as you can be.</p> <p>If you cannot solve the puzzle then you should guess - you will not be penalised for an incorrect answer.</p> <p>The task contains a shuffled mix of easy, medium and hard puzzles.</p> <p>You will have <strong>30 seconds</strong> to complete each puzzle.</p><br>",NA,NA,NA,NA,NA,NA,NA,NA,NA,5,6,"10,5,9,13,3,2,14,1,8,7,11,12,15,4,6"
15143,commdev-instructions,15,111048,NA,1251.0000000000146,<p><strong>Success!</strong></p> <p>You seem to be getting the hang of this...</p> <p>Let's move on to the real trials.</p><br>,NA,NA,NA,NA,NA,NA,NA,NA,NA,5,6,"10,5,9,13,3,2,14,1,8,7,11,12,15,4,6"
15143,commdev-instructions,103,604221,NA,1276,"<p>In this game, you are a scientist on board a space shuttle. </p><p> On each mission, you will visit planets all across the universe.</p><img src=""img/controlroom.jpg"" width=300vw>",NA,NA,NA,NA,NA,NA,NA,NA,NA,5,6,"10,5,9,13,3,2,14,1,8,7,11,12,15,4,6"
15143,commdev-instructions,104,607365,NA,1071,"<p>Here are a few planets you might see:</p><img src=""img/practice1.png"" width=200vw><img src=""img/practice2.png"" width=200vw><img src=""img/practice3.png"" width=200vw>",NA,NA,NA,NA,NA,NA,NA,NA,NA,5,6,"10,5,9,13,3,2,14,1,8,7,11,12,15,4,6"
15143,commdev-instructions,105,615548,NA,785,"<p>Your job as a scientist is to record which direction the winds are moving on each planet.</p><p>There are two types of wind directions:</p><img src=""img/practice1_left.png"" width=200vw><img src=""img/practice1_right.png"" width=200vw>",NA,NA,NA,NA,NA,NA,NA,NA,NA,5,6,"10,5,9,13,3,2,14,1,8,7,11,12,15,4,6"
15143,commdev-instructions,106,621548,NA,1119,"<p>If the winds are moving this way, press the letter <strong>F</strong> on the keyboard as fast as you can.</p><img src=""img/leftwind.png"" width=250vw>",NA,NA,NA,NA,NA,NA,NA,NA,NA,5,6,"10,5,9,13,3,2,14,1,8,7,11,12,15,4,6"
15143,commdev-instructions,107,628494,NA,2449,"<p>If the winds are moving this way, press the letter <strong>J</strong> on the keyboard as fast as you can.</p><img src=""img/rightwind.png"" width=350vw>",NA,NA,NA,NA,NA,NA,NA,NA,NA,5,6,"10,5,9,13,3,2,14,1,8,7,11,12,15,4,6"
15143,commdev-instructions,108,634294,NA,1376,<p>You will have 1 second to respond. Try to respond before the time runs out!,NA,NA,NA,NA,NA,NA,NA,NA,NA,5,6,"10,5,9,13,3,2,14,1,8,7,11,12,15,4,6"
15143,commdev-instructions,109,640971,NA,1246.9999999998836,<p>The planets you will visit will look different from each other.</p><p>You should respond <strong>only</strong> based on wind direction.,NA,NA,NA,NA,NA,NA,NA,NA,NA,5,6,"10,5,9,13,3,2,14,1,8,7,11,12,15,4,6"
15143,commdev-instructions,110,652483,NA,6344,"<p> Ready to start the practice round? </p><p> Remember, press <strong>F</strong> or <strong>J</strong> depending on the wind direction.<br><img src=""img/categorize_planet_example.png""",NA,NA,NA,NA,NA,NA,NA,NA,NA,5,6,"10,5,9,13,3,2,14,1,8,7,11,12,15,4,6"
15143,commdev-instructions,122,723620,NA,7181,"<p>Great, now try a short practice mission. </p><p> This time, you will have 1 second to respond and you won't know whether you pressed the right or wrong key for each planet.</p>",NA,NA,NA,NA,NA,NA,NA,NA,NA,5,6,"10,5,9,13,3,2,14,1,8,7,11,12,15,4,6"
15143,commdev-image-keyboard-response,123,724975,practice,948,img/practice3_left.png,NA,Number not found in mappings,NA,TRUE,f,f,NA,NA,NA,5,6,"10,5,9,13,3,2,14,1,8,7,11,12,15,4,6"
15143,commdev-image-keyboard-response,124,726228,practice,null,img/practice2_left.png,NA,Number not found in mappings,NA,FALSE,null,f,NA,NA,NA,5,6,"10,5,9,13,3,2,14,1,8,7,11,12,15,4,6"
15143,commdev-image-keyboard-response,125,727480,practice,618.9999999998836,img/practice4_left.png,NA,Number not found in mappings,NA,TRUE,f,f,NA,NA,NA,5,6,"10,5,9,13,3,2,14,1,8,7,11,12,15,4,6"
15143,commdev-image-keyboard-response,126,728733,practice,569.0000000001164,img/practice1_left.png,NA,Number not found in mappings,NA,TRUE,f,f,NA,NA,NA,5,6,"10,5,9,13,3,2,14,1,8,7,11,12,15,4,6"
15143,commdev-image-keyboard-response,127,729986,practice,508,img/practice2_left.png,NA,Number not found in mappings,NA,TRUE,f,f,NA,NA,NA,5,6,"10,5,9,13,3,2,14,1,8,7,11,12,15,4,6"
15143,commdev-image-keyboard-response,128,731239,practice,null,img/practice4_right.png,NA,Number not found in mappings,NA,FALSE,null,j,NA,NA,NA,5,6,"10,5,9,13,3,2,14,1,8,7,11,12,15,4,6"
15143,commdev-image-keyboard-response,129,732492,practice,748,img/practice1_left.png,NA,Number not found in mappings,NA,TRUE,f,f,NA,NA,NA,5,6,"10,5,9,13,3,2,14,1,8,7,11,12,15,4,6"
15143,commdev-image-keyboard-response,130,733745,practice,null,img/practice2_right.png,NA,Number not found in mappings,NA,FALSE,null,j,NA,NA,NA,5,6,"10,5,9,13,3,2,14,1,8,7,11,12,15,4,6"
15143,commdev-instructions,131,747608,NA,4309,"<p>Great job with the practice round.</p><p>During real missions, you won't know whether you pressed the right or wrong key for each planet.</p><p>But between missions, we will tell you how you did overall.</p>",NA,NA,NA,NA,NA,NA,NA,NA,NA,5,6,"10,5,9,13,3,2,14,1,8,7,11,12,15,4,6"
15143,commdev-instructions,132,756578,NA,728.9999999998836,<p>Try your best! You will be paid a bonus based on how many correct responses you make!</p><p>Responses that are too slow will not count toward your bonus.</p>,NA,NA,NA,NA,NA,NA,NA,NA,NA,5,6,"10,5,9,13,3,2,14,1,8,7,11,12,15,4,6"
15143,commdev-instructions,133,763271,NA,493.9999999998836,"<p>You are almost ready to start the real game.</p><p> First, we are going to ask you some questions about how the game works.</p>",NA,NA,NA,NA,NA,NA,NA,NA,NA,5,6,"10,5,9,13,3,2,14,1,8,7,11,12,15,4,6"
15143,commdev-instructions,142,842019,NA,1107,"<p> Nice work! It is now time to start the real game.<p></p>You will go on two missions to record wind directions of different planets.<p></p>Each one will take about 5 minutes. You will get to take a break between missions.<p><p> Remember, press <strong>F</strong> or <strong>J</strong> depending on the wind direction. Good luck!<br><img src=""img/categorize_planet_example.png""",NA,NA,NA,NA,NA,NA,NA,NA,NA,5,6,"10,5,9,13,3,2,14,1,8,7,11,12,15,4,6"
15143,commdev-image-keyboard-response,144,845476,learnblock1,784,img/planet6_left.png,6,Community 3,NA,FALSE,j,f,NA,NA,NA,5,6,"10,5,9,13,3,2,14,1,8,7,11,12,15,4,6"
15143,commdev-image-keyboard-response,145,846728,learnblock1,1135,img/planet4_right.png,4,Community 3,NA,FALSE,f,j,NA,NA,NA,5,6,"10,5,9,13,3,2,14,1,8,7,11,12,15,4,6"
15143,commdev-image-keyboard-response,146,847980,learnblock1,736.9999999998836,img/planet11_left.png,11,Community 3,NA,FALSE,j,f,NA,NA,NA,5,6,"10,5,9,13,3,2,14,1,8,7,11,12,15,4,6"
15143,commdev-image-keyboard-response,147,849233,learnblock1,803,img/planet15_right.png,15,Community 3,NA,FALSE,f,j,NA,NA,NA,5,6,"10,5,9,13,3,2,14,1,8,7,11,12,15,4,6"
15143,commdev-image-keyboard-response,148,850485,learnblock1,717,img/planet12_left.png,12,Community 3,NA,FALSE,j,f,NA,NA,NA,5,6,"10,5,9,13,3,2,14,1,8,7,11,12,15,4,6"
15143,commdev-image-keyboard-response,149,851737,learnblock1,758,img/planet1_left.png,1,Community 2,NA,FALSE,j,f,NA,NA,NA,5,6,"10,5,9,13,3,2,14,1,8,7,11,12,15,4,6"
15143,commdev-image-keyboard-response,150,852990,learnblock1,660,img/planet14_left.png,14,Community 2,NA,TRUE,f,f,NA,NA,NA,5,6,"10,5,9,13,3,2,14,1,8,7,11,12,15,4,6"
15143,commdev-image-keyboard-response,151,854242,learnblock1,734,img/planet7_left.png,7,Community 2,NA,FALSE,j,f,NA,NA,NA,5,6,"10,5,9,13,3,2,14,1,8,7,11,12,15,4,6"
15143,commdev-image-keyboard-response,152,855495,learnblock1,1146,img/planet14_left.png,14,Community 2,NA,FALSE,j,f,NA,NA,NA,5,6,"10,5,9,13,3,2,14,1,8,7,11,12,15,4,6"
15143,commdev-image-keyboard-response,153,856748,learnblock1,922,img/planet2_right.png,2,Community 2,NA,FALSE,f,j,NA,NA,NA,5,6,"10,5,9,13,3,2,14,1,8,7,11,12,15,4,6"
15143,commdev-image-keyboard-response,154,858000,learnblock1,null,img/planet14_right.png,14,Community 2,NA,FALSE,null,j,NA,NA,NA,5,6,"10,5,9,13,3,2,14,1,8,7,11,12,15,4,6"
15143,commdev-image-keyboard-response,155,859253,learnblock1,51,img/planet1_left.png,1,Community 2,NA,TRUE,f,f,NA,NA,NA,5,6,"10,5,9,13,3,2,14,1,8,7,11,12,15,4,6"
15143,commdev-image-keyboard-response,156,860505,learnblock1,837,img/planet12_right.png,12,Community 3,NA,FALSE,f,j,NA,NA,NA,5,6,"10,5,9,13,3,2,14,1,8,7,11,12,15,4,6"
15143,commdev-image-keyboard-response,157,861757,learnblock1,595,img/planet1_left.png,1,Community 2,NA,FALSE,j,f,NA,NA,NA,5,6,"10,5,9,13,3,2,14,1,8,7,11,12,15,4,6"
15143,commdev-image-keyboard-response,158,863010,learnblock1,920,img/planet12_left.png,12,Community 3,NA,FALSE,j,f,NA,NA,NA,5,6,"10,5,9,13,3,2,14,1,8,7,11,12,15,4,6"
15143,commdev-image-keyboard-response,159,864262,learnblock1,588,img/planet1_left.png,1,Community 2,NA,FALSE,j,f,NA,NA,NA,5,6,"10,5,9,13,3,2,14,1,8,7,11,12,15,4,6"
15143,commdev-image-keyboard-response,160,865515,learnblock1,732,img/planet7_left.png,7,Community 2,NA,FALSE,j,f,NA,NA,NA,5,6,"10,5,9,13,3,2,14,1,8,7,11,12,15,4,6"
15143,commdev-image-keyboard-response,161,866768,learnblock1,590.9999999998836,img/planet2_right.png,2,Community 2,NA,FALSE,f,j,NA,NA,NA,5,6,"10,5,9,13,3,2,14,1,8,7,11,12,15,4,6"
15143,commdev-image-keyboard-response,162,868020,learnblock1,1079,img/planet14_left.png,14,Community 2,NA,TRUE,f,f,NA,NA,NA,5,6,"10,5,9,13,3,2,14,1,8,7,11,12,15,4,6"
15143,commdev-image-keyboard-response,163,869272,learnblock1,1179.9999999998836,img/planet7_right.png,7,Community 2,NA,TRUE,j,j,NA,NA,NA,5,6,"10,5,9,13,3,2,14,1,8,7,11,12,15,4,6"
15143,commdev-image-keyboard-response,164,870525,learnblock1,641,img/planet1_left.png,1,Community 2,NA,TRUE,f,f,NA,NA,NA,5,6,"10,5,9,13,3,2,14,1,8,7,11,12,15,4,6"
15143,commdev-image-keyboard-response,165,871777,learnblock1,721,img/planet14_right.png,14,Community 2,NA,TRUE,j,j,NA,NA,NA,5,6,"10,5,9,13,3,2,14,1,8,7,11,12,15,4,6"
15143,commdev-image-keyboard-response,166,873030,learnblock1,688,img/planet7_left.png,7,Community 2,NA,TRUE,f,f,NA,NA,NA,5,6,"10,5,9,13,3,2,14,1,8,7,11,12,15,4,6"
15143,commdev-image-keyboard-response,167,874282,learnblock1,503,img/planet1_right.png,1,Community 2,NA,TRUE,j,j,NA,NA,NA,5,6,"10,5,9,13,3,2,14,1,8,7,11,12,15,4,6"
15143,commdev-image-keyboard-response,168,875535,learnblock1,750,img/planet7_left.png,7,Community 2,NA,TRUE,f,f,NA,NA,NA,5,6,"10,5,9,13,3,2,14,1,8,7,11,12,15,4,6"
15143,commdev-image-keyboard-response,169,876788,learnblock1,728,img/planet8_left.png,8,Community 2,NA,FALSE,j,f,NA,NA,NA,5,6,"10,5,9,13,3,2,14,1,8,7,11,12,15,4,6"
15143,commdev-image-keyboard-response,170,878040,learnblock1,996,img/planet14_left.png,14,Community 2,NA,FALSE,j,f,NA,NA,NA,5,6,"10,5,9,13,3,2,14,1,8,7,11,12,15,4,6"
15143,commdev-image-keyboard-response,171,879293,learnblock1,700,img/planet1_right.png,1,Community 2,NA,FALSE,f,j,NA,NA,NA,5,6,"10,5,9,13,3,2,14,1,8,7,11,12,15,4,6"
15143,commdev-image-keyboard-response,172,880545,learnblock1,698,img/planet7_right.png,7,Community 2,NA,FALSE,f,j,NA,NA,NA,5,6,"10,5,9,13,3,2,14,1,8,7,11,12,15,4,6"
15143,commdev-image-keyboard-response,173,881798,learnblock1,461.0000000001164,img/planet1_left.png,1,Community 2,NA,FALSE,j,f,NA,NA,NA,5,6,"10,5,9,13,3,2,14,1,8,7,11,12,15,4,6"
15143,commdev-image-keyboard-response,174,883050,learnblock1,625,img/planet12_left.png,12,Community 3,NA,FALSE,j,f,NA,NA,NA,5,6,"10,5,9,13,3,2,14,1,8,7,11,12,15,4,6"
15143,commdev-image-keyboard-response,175,884303,learnblock1,677.0000000001164,img/planet4_left.png,4,Community 3,NA,FALSE,j,f,NA,NA,NA,5,6,"10,5,9,13,3,2,14,1,8,7,11,12,15,4,6"
15143,commdev-image-keyboard-response,176,885556,learnblock1,620,img/planet12_left.png,12,Community 3,NA,FALSE,j,f,NA,NA,NA,5,6,"10,5,9,13,3,2,14,1,8,7,11,12,15,4,6"
15143,commdev-image-keyboard-response,177,886809,learnblock1,565,img/planet6_right.png,6,Community 3,NA,FALSE,f,j,NA,NA,NA,5,6,"10,5,9,13,3,2,14,1,8,7,11,12,15,4,6"
15143,commdev-image-keyboard-response,178,888061,learnblock1,757,img/planet12_right.png,12,Community 3,NA,FALSE,f,j,NA,NA,NA,5,6,"10,5,9,13,3,2,14,1,8,7,11,12,15,4,6"
15143,commdev-image-keyboard-response,179,889314,learnblock1,613.0000000001164,img/planet4_left.png,4,Community 3,NA,FALSE,j,f,NA,NA,NA,5,6,"10,5,9,13,3,2,14,1,8,7,11,12,15,4,6"
15143,commdev-image-keyboard-response,180,890566,learnblock1,667,img/planet6_right.png,6,Community 3,NA,FALSE,f,j,NA,NA,NA,5,6,"10,5,9,13,3,2,14,1,8,7,11,12,15,4,6"
15143,commdev-image-keyboard-response,181,891819,learnblock1,886,img/planet15_right.png,15,Community 3,NA,TRUE,j,j,NA,NA,NA,5,6,"10,5,9,13,3,2,14,1,8,7,11,12,15,4,6"
15143,commdev-image-keyboard-response,182,893072,learnblock1,902,img/planet4_right.png,4,Community 3,NA,FALSE,f,j,NA,NA,NA,5,6,"10,5,9,13,3,2,14,1,8,7,11,12,15,4,6"
15143,commdev-image-keyboard-response,183,894324,learnblock1,858.0000000001164,img/planet6_left.png,6,Community 3,NA,FALSE,j,f,NA,NA,NA,5,6,"10,5,9,13,3,2,14,1,8,7,11,12,15,4,6"
15143,commdev-image-keyboard-response,184,895577,learnblock1,613,img/planet12_right.png,12,Community 3,NA,FALSE,f,j,NA,NA,NA,5,6,"10,5,9,13,3,2,14,1,8,7,11,12,15,4,6"
15143,commdev-image-keyboard-response,185,896829,learnblock1,707,img/planet15_right.png,15,Community 3,NA,FALSE,f,j,NA,NA,NA,5,6,"10,5,9,13,3,2,14,1,8,7,11,12,15,4,6"
15143,commdev-image-keyboard-response,186,898082,learnblock1,498,img/planet12_left.png,12,Community 3,NA,FALSE,j,f,NA,NA,NA,5,6,"10,5,9,13,3,2,14,1,8,7,11,12,15,4,6"
15143,commdev-image-keyboard-response,187,899334,learnblock1,626,img/planet1_right.png,1,Community 2,NA,TRUE,j,j,NA,NA,NA,5,6,"10,5,9,13,3,2,14,1,8,7,11,12,15,4,6"
15143,commdev-image-keyboard-response,188,900586,learnblock1,693,img/planet7_right.png,7,Community 2,NA,FALSE,f,j,NA,NA,NA,5,6,"10,5,9,13,3,2,14,1,8,7,11,12,15,4,6"
15143,commdev-image-keyboard-response,189,901839,learnblock1,758,img/planet14_left.png,14,Community 2,NA,FALSE,j,f,NA,NA,NA,5,6,"10,5,9,13,3,2,14,1,8,7,11,12,15,4,6"
15143,commdev-image-keyboard-response,190,903091,learnblock1,1186.0000000001164,img/planet8_left.png,8,Community 2,NA,FALSE,j,f,NA,NA,NA,5,6,"10,5,9,13,3,2,14,1,8,7,11,12,15,4,6"
15143,commdev-image-keyboard-response,191,904344,learnblock1,647,img/planet1_right.png,1,Community 2,NA,FALSE,f,j,NA,NA,NA,5,6,"10,5,9,13,3,2,14,1,8,7,11,12,15,4,6"
15143,commdev-image-keyboard-response,192,905597,learnblock1,631,img/planet14_right.png,14,Community 2,NA,TRUE,j,j,NA,NA,NA,5,6,"10,5,9,13,3,2,14,1,8,7,11,12,15,4,6"
15143,commdev-image-keyboard-response,193,906849,learnblock1,699,img/planet8_left.png,8,Community 2,NA,TRUE,f,f,NA,NA,NA,5,6,"10,5,9,13,3,2,14,1,8,7,11,12,15,4,6"
15143,commdev-image-keyboard-response,194,908102,learnblock1,899,img/planet7_left.png,7,Community 2,NA,FALSE,j,f,NA,NA,NA,5,6,"10,5,9,13,3,2,14,1,8,7,11,12,15,4,6"
15143,commdev-image-keyboard-response,195,909354,learnblock1,613,img/planet8_right.png,8,Community 2,NA,FALSE,f,j,NA,NA,NA,5,6,"10,5,9,13,3,2,14,1,8,7,11,12,15,4,6"
15143,commdev-image-keyboard-response,196,910607,learnblock1,939,img/planet14_right.png,14,Community 2,NA,FALSE,f,j,NA,NA,NA,5,6,"10,5,9,13,3,2,14,1,8,7,11,12,15,4,6"
15143,commdev-image-keyboard-response,197,911859,learnblock1,null,img/planet8_right.png,8,Community 2,NA,FALSE,null,j,NA,NA,NA,5,6,"10,5,9,13,3,2,14,1,8,7,11,12,15,4,6"
15143,commdev-image-keyboard-response,198,913112,learnblock1,869,img/planet2_left.png,2,Community 2,NA,FALSE,j,f,NA,NA,NA,5,6,"10,5,9,13,3,2,14,1,8,7,11,12,15,4,6"
15143,commdev-image-keyboard-response,199,914365,learnblock1,708,img/planet7_right.png,7,Community 2,NA,FALSE,f,j,NA,NA,NA,5,6,"10,5,9,13,3,2,14,1,8,7,11,12,15,4,6"
15143,commdev-image-keyboard-response,200,915617,learnblock1,675,img/planet14_left.png,14,Community 2,NA,FALSE,j,f,NA,NA,NA,5,6,"10,5,9,13,3,2,14,1,8,7,11,12,15,4,6"
15143,commdev-image-keyboard-response,201,916870,learnblock1,743,img/planet8_left.png,8,Community 2,NA,FALSE,j,f,NA,NA,NA,5,6,"10,5,9,13,3,2,14,1,8,7,11,12,15,4,6"
15143,commdev-image-keyboard-response,202,918122,learnblock1,687,img/planet7_right.png,7,Community 2,NA,FALSE,f,j,NA,NA,NA,5,6,"10,5,9,13,3,2,14,1,8,7,11,12,15,4,6"
15143,commdev-image-keyboard-response,203,919375,learnblock1,886,img/planet1_right.png,1,Community 2,NA,FALSE,f,j,NA,NA,NA,5,6,"10,5,9,13,3,2,14,1,8,7,11,12,15,4,6"
15143,commdev-image-keyboard-response,204,920628,learnblock1,725,img/planet8_right.png,8,Community 2,NA,FALSE,f,j,NA,NA,NA,5,6,"10,5,9,13,3,2,14,1,8,7,11,12,15,4,6"
15143,commdev-image-keyboard-response,205,921881,learnblock1,835,img/planet2_left.png,2,Community 2,NA,FALSE,j,f,NA,NA,NA,5,6,"10,5,9,13,3,2,14,1,8,7,11,12,15,4,6"
15143,commdev-image-keyboard-response,206,923133,learnblock1,780,img/planet8_left.png,8,Community 2,NA,FALSE,j,f,NA,NA,NA,5,6,"10,5,9,13,3,2,14,1,8,7,11,12,15,4,6"
15143,commdev-image-keyboard-response,207,924386,learnblock1,717,img/planet7_right.png,7,Community 2,NA,FALSE,f,j,NA,NA,NA,5,6,"10,5,9,13,3,2,14,1,8,7,11,12,15,4,6"
15143,commdev-image-keyboard-response,208,925638,learnblock1,469,img/planet1_left.png,1,Community 2,NA,FALSE,j,f,NA,NA,NA,5,6,"10,5,9,13,3,2,14,1,8,7,11,12,15,4,6"
15143,commdev-image-keyboard-response,209,926891,learnblock1,802,img/planet14_left.png,14,Community 2,NA,TRUE,f,f,NA,NA,NA,5,6,"10,5,9,13,3,2,14,1,8,7,11,12,15,4,6"
15143,commdev-image-keyboard-response,210,928143,learnblock1,1122,img/planet7_right.png,7,Community 2,NA,FALSE,f,j,NA,NA,NA,5,6,"10,5,9,13,3,2,14,1,8,7,11,12,15,4,6"
15143,commdev-image-keyboard-response,211,929396,learnblock1,796,img/planet14_right.png,14,Community 2,NA,FALSE,f,j,NA,NA,NA,5,6,"10,5,9,13,3,2,14,1,8,7,11,12,15,4,6"
15143,commdev-image-keyboard-response,212,930652,learnblock1,728,img/planet1_left.png,1,Community 2,NA,FALSE,j,f,NA,NA,NA,5,6,"10,5,9,13,3,2,14,1,8,7,11,12,15,4,6"
15143,commdev-image-keyboard-response,213,931906,learnblock1,599.0000000001164,img/planet8_right.png,8,Community 2,NA,FALSE,f,j,NA,NA,NA,5,6,"10,5,9,13,3,2,14,1,8,7,11,12,15,4,6"
15143,commdev-image-keyboard-response,214,933159,learnblock1,865,img/planet14_left.png,14,Community 2,NA,FALSE,j,f,NA,NA,NA,5,6,"10,5,9,13,3,2,14,1,8,7,11,12,15,4,6"
15143,commdev-image-keyboard-response,215,934412,learnblock1,644,img/planet8_right.png,8,Community 2,NA,FALSE,f,j,NA,NA,NA,5,6,"10,5,9,13,3,2,14,1,8,7,11,12,15,4,6"
15143,commdev-image-keyboard-response,216,935665,learnblock1,627.0000000001164,img/planet2_left.png,2,Community 2,NA,FALSE,j,f,NA,NA,NA,5,6,"10,5,9,13,3,2,14,1,8,7,11,12,15,4,6"
15143,commdev-image-keyboard-response,217,936918,learnblock1,987,img/planet8_right.png,8,Community 2,NA,FALSE,f,j,NA,NA,NA,5,6,"10,5,9,13,3,2,14,1,8,7,11,12,15,4,6"
15143,commdev-image-keyboard-response,218,938171,learnblock1,537,img/planet7_left.png,7,Community 2,NA,FALSE,j,f,NA,NA,NA,5,6,"10,5,9,13,3,2,14,1,8,7,11,12,15,4,6"
15143,commdev-image-keyboard-response,219,939424,learnblock1,731,img/planet14_left.png,14,Community 2,NA,TRUE,f,f,NA,NA,NA,5,6,"10,5,9,13,3,2,14,1,8,7,11,12,15,4,6"
15143,commdev-image-keyboard-response,220,940677,learnblock1,1079.9999999998836,img/planet2_left.png,2,Community 2,NA,FALSE,j,f,NA,NA,NA,5,6,"10,5,9,13,3,2,14,1,8,7,11,12,15,4,6"
15143,commdev-image-keyboard-response,221,941930,learnblock1,821,img/planet8_left.png,8,Community 2,NA,FALSE,j,f,NA,NA,NA,5,6,"10,5,9,13,3,2,14,1,8,7,11,12,15,4,6"
15143,commdev-image-keyboard-response,222,943182,learnblock1,623.9999999998836,img/planet14_left.png,14,Community 2,NA,FALSE,j,f,NA,NA,NA,5,6,"10,5,9,13,3,2,14,1,8,7,11,12,15,4,6"
15143,commdev-image-keyboard-response,223,944435,learnblock1,853,img/planet8_left.png,8,Community 2,NA,FALSE,j,f,NA,NA,NA,5,6,"10,5,9,13,3,2,14,1,8,7,11,12,15,4,6"
15143,commdev-image-keyboard-response,224,945687,learnblock1,667,img/planet1_left.png,1,Community 2,NA,FALSE,j,f,NA,NA,NA,5,6,"10,5,9,13,3,2,14,1,8,7,11,12,15,4,6"
15143,commdev-image-keyboard-response,225,946940,learnblock1,859,img/planet7_left.png,7,Community 2,NA,FALSE,j,f,NA,NA,NA,5,6,"10,5,9,13,3,2,14,1,8,7,11,12,15,4,6"
15143,commdev-image-keyboard-response,226,948193,learnblock1,584,img/planet1_right.png,1,Community 2,NA,FALSE,f,j,NA,NA,NA,5,6,"10,5,9,13,3,2,14,1,8,7,11,12,15,4,6"
15143,commdev-image-keyboard-response,227,949445,learnblock1,591,img/planet7_left.png,7,Community 2,NA,FALSE,j,f,NA,NA,NA,5,6,"10,5,9,13,3,2,14,1,8,7,11,12,15,4,6"
15143,commdev-image-keyboard-response,228,950698,learnblock1,574,img/planet8_right.png,8,Community 2,NA,FALSE,f,j,NA,NA,NA,5,6,"10,5,9,13,3,2,14,1,8,7,11,12,15,4,6"
15143,commdev-image-keyboard-response,229,951951,learnblock1,852.9999999998836,img/planet2_right.png,2,Community 2,NA,FALSE,f,j,NA,NA,NA,5,6,"10,5,9,13,3,2,14,1,8,7,11,12,15,4,6"
15143,commdev-image-keyboard-response,230,953204,learnblock1,832,img/planet7_right.png,7,Community 2,NA,FALSE,f,j,NA,NA,NA,5,6,"10,5,9,13,3,2,14,1,8,7,11,12,15,4,6"
15143,commdev-image-keyboard-response,231,954456,learnblock1,554.9999999998836,img/planet8_left.png,8,Community 2,NA,FALSE,j,f,NA,NA,NA,5,6,"10,5,9,13,3,2,14,1,8,7,11,12,15,4,6"
15143,commdev-image-keyboard-response,232,955709,learnblock1,660.0000000001164,img/planet7_left.png,7,Community 2,NA,FALSE,j,f,NA,NA,NA,5,6,"10,5,9,13,3,2,14,1,8,7,11,12,15,4,6"
15143,commdev-image-keyboard-response,233,956961,learnblock1,900,img/planet14_left.png,14,Community 2,NA,FALSE,j,f,NA,NA,NA,5,6,"10,5,9,13,3,2,14,1,8,7,11,12,15,4,6"
15143,commdev-image-keyboard-response,234,958214,learnblock1,864,img/planet1_right.png,1,Community 2,NA,FALSE,f,j,NA,NA,NA,5,6,"10,5,9,13,3,2,14,1,8,7,11,12,15,4,6"
15143,commdev-image-keyboard-response,235,959467,learnblock1,983,img/planet8_right.png,8,Community 2,NA,TRUE,j,j,NA,NA,NA,5,6,"10,5,9,13,3,2,14,1,8,7,11,12,15,4,6"
15143,commdev-image-keyboard-response,236,960719,learnblock1,839,img/planet7_left.png,7,Community 2,NA,TRUE,f,f,NA,NA,NA,5,6,"10,5,9,13,3,2,14,1,8,7,11,12,15,4,6"
15143,commdev-image-keyboard-response,237,961972,learnblock1,1173,img/planet2_right.png,2,Community 2,NA,FALSE,f,j,NA,NA,NA,5,6,"10,5,9,13,3,2,14,1,8,7,11,12,15,4,6"
15143,commdev-image-keyboard-response,238,963224,learnblock1,null,img/planet13_right.png,13,Community 1,NA,FALSE,null,j,NA,NA,NA,5,6,"10,5,9,13,3,2,14,1,8,7,11,12,15,4,6"
15143,commdev-image-keyboard-response,239,964477,learnblock1,23,img/planet10_left.png,10,Community 1,NA,FALSE,j,f,NA,NA,NA,5,6,"10,5,9,13,3,2,14,1,8,7,11,12,15,4,6"
15143,commdev-image-keyboard-response,240,965730,learnblock1,562.9999999998836,img/planet9_left.png,9,Community 1,NA,FALSE,j,f,NA,NA,NA,5,6,"10,5,9,13,3,2,14,1,8,7,11,12,15,4,6"
15143,commdev-image-keyboard-response,241,966982,learnblock1,646,img/planet10_right.png,10,Community 1,NA,FALSE,f,j,NA,NA,NA,5,6,"10,5,9,13,3,2,14,1,8,7,11,12,15,4,6"
15143,commdev-image-keyboard-response,242,968235,learnblock1,532,img/planet13_left.png,13,Community 1,NA,FALSE,j,f,NA,NA,NA,5,6,"10,5,9,13,3,2,14,1,8,7,11,12,15,4,6"
15143,commdev-image-keyboard-response,243,969488,learnblock1,725,img/planet10_left.png,10,Community 1,NA,TRUE,f,f,NA,NA,NA,5,6,"10,5,9,13,3,2,14,1,8,7,11,12,15,4,6"
15143,commdev-image-keyboard-response,244,970740,learnblock1,656,img/planet5_left.png,5,Community 1,NA,FALSE,j,f,NA,NA,NA,5,6,"10,5,9,13,3,2,14,1,8,7,11,12,15,4,6"
15143,commdev-image-keyboard-response,245,971993,learnblock1,786,img/planet13_right.png,13,Community 1,NA,TRUE,j,j,NA,NA,NA,5,6,"10,5,9,13,3,2,14,1,8,7,11,12,15,4,6"
15143,commdev-image-keyboard-response,246,973246,learnblock1,1198,img/planet9_right.png,9,Community 1,NA,FALSE,f,j,NA,NA,NA,5,6,"10,5,9,13,3,2,14,1,8,7,11,12,15,4,6"
15143,commdev-image-keyboard-response,247,974499,learnblock1,551.9999999998836,img/planet10_left.png,10,Community 1,NA,FALSE,j,f,NA,NA,NA,5,6,"10,5,9,13,3,2,14,1,8,7,11,12,15,4,6"
15143,commdev-image-keyboard-response,248,975751,learnblock1,795,img/planet3_right.png,3,Community 1,NA,FALSE,f,j,NA,NA,NA,5,6,"10,5,9,13,3,2,14,1,8,7,11,12,15,4,6"
15143,commdev-image-keyboard-response,249,977003,learnblock1,1087.9999999998836,img/planet9_right.png,9,Community 1,NA,FALSE,f,j,NA,NA,NA,5,6,"10,5,9,13,3,2,14,1,8,7,11,12,15,4,6"
15143,commdev-image-keyboard-response,250,978256,learnblock1,902.0000000001164,img/planet13_left.png,13,Community 1,NA,FALSE,j,f,NA,NA,NA,5,6,"10,5,9,13,3,2,14,1,8,7,11,12,15,4,6"
15143,commdev-image-keyboard-response,251,979508,learnblock1,591.9999999998836,img/planet2_left.png,2,Community 2,NA,FALSE,j,f,NA,NA,NA,5,6,"10,5,9,13,3,2,14,1,8,7,11,12,15,4,6"
15143,commdev-image-keyboard-response,252,980761,learnblock1,639,img/planet8_right.png,8,Community 2,NA,FALSE,f,j,NA,NA,NA,5,6,"10,5,9,13,3,2,14,1,8,7,11,12,15,4,6"
15143,commdev-image-keyboard-response,253,982014,learnblock1,813,img/planet14_left.png,14,Community 2,NA,FALSE,j,f,NA,NA,NA,5,6,"10,5,9,13,3,2,14,1,8,7,11,12,15,4,6"
15143,commdev-image-keyboard-response,254,983266,learnblock1,814,img/planet2_left.png,2,Community 2,NA,TRUE,f,f,NA,NA,NA,5,6,"10,5,9,13,3,2,14,1,8,7,11,12,15,4,6"
15143,commdev-image-keyboard-response,255,984519,learnblock1,861,img/planet13_right.png,13,Community 1,NA,TRUE,j,j,NA,NA,NA,5,6,"10,5,9,13,3,2,14,1,8,7,11,12,15,4,6"
15143,commdev-image-keyboard-response,256,985772,learnblock1,698.0000000001164,img/planet2_left.png,2,Community 2,NA,TRUE,f,f,NA,NA,NA,5,6,"10,5,9,13,3,2,14,1,8,7,11,12,15,4,6"
15143,commdev-image-keyboard-response,257,987024,learnblock1,null,img/planet13_right.png,13,Community 1,NA,FALSE,null,j,NA,NA,NA,5,6,"10,5,9,13,3,2,14,1,8,7,11,12,15,4,6"
15143,commdev-image-keyboard-response,258,988276,learnblock1,581,img/planet5_left.png,5,Community 1,NA,FALSE,j,f,NA,NA,NA,5,6,"10,5,9,13,3,2,14,1,8,7,11,12,15,4,6"
15143,commdev-image-keyboard-response,259,989529,learnblock1,1052.0000000001164,img/planet10_left.png,10,Community 1,NA,TRUE,f,f,NA,NA,NA,5,6,"10,5,9,13,3,2,14,1,8,7,11,12,15,4,6"
15143,commdev-image-keyboard-response,260,990781,learnblock1,1234,img/planet3_right.png,3,Community 1,NA,FALSE,f,j,NA,NA,NA,5,6,"10,5,9,13,3,2,14,1,8,7,11,12,15,4,6"
15143,commdev-image-keyboard-response,261,992034,learnblock1,738,img/planet11_left.png,11,Community 3,NA,FALSE,j,f,NA,NA,NA,5,6,"10,5,9,13,3,2,14,1,8,7,11,12,15,4,6"
15143,commdev-image-keyboard-response,262,993286,learnblock1,679.0000000001164,img/planet4_right.png,4,Community 3,NA,FALSE,f,j,NA,NA,NA,5,6,"10,5,9,13,3,2,14,1,8,7,11,12,15,4,6"
15143,commdev-image-keyboard-response,263,994539,learnblock1,1128.0000000001164,img/planet12_right.png,12,Community 3,NA,FALSE,f,j,NA,NA,NA,5,6,"10,5,9,13,3,2,14,1,8,7,11,12,15,4,6"
15143,commdev-image-keyboard-response,264,995792,learnblock1,1007.9999999998836,img/planet4_right.png,4,Community 3,NA,FALSE,f,j,NA,NA,NA,5,6,"10,5,9,13,3,2,14,1,8,7,11,12,15,4,6"
15143,commdev-image-keyboard-response,265,997044,learnblock1,776,img/planet6_right.png,6,Community 3,NA,FALSE,f,j,NA,NA,NA,5,6,"10,5,9,13,3,2,14,1,8,7,11,12,15,4,6"
15143,commdev-image-keyboard-response,266,998297,learnblock1,805.9999999998836,img/planet4_right.png,4,Community 3,NA,FALSE,f,j,NA,NA,NA,5,6,"10,5,9,13,3,2,14,1,8,7,11,12,15,4,6"
15143,commdev-image-keyboard-response,267,999549,learnblock1,914,img/planet6_right.png,6,Community 3,NA,FALSE,f,j,NA,NA,NA,5,6,"10,5,9,13,3,2,14,1,8,7,11,12,15,4,6"
15143,commdev-image-keyboard-response,268,1000802,learnblock1,788.9999999998836,img/planet12_left.png,12,Community 3,NA,FALSE,j,f,NA,NA,NA,5,6,"10,5,9,13,3,2,14,1,8,7,11,12,15,4,6"
15143,commdev-image-keyboard-response,269,1002055,learnblock1,831,img/planet4_right.png,4,Community 3,NA,FALSE,f,j,NA,NA,NA,5,6,"10,5,9,13,3,2,14,1,8,7,11,12,15,4,6"
15143,commdev-image-keyboard-response,270,1003307,learnblock1,636.9999999998836,img/planet12_left.png,12,Community 3,NA,FALSE,j,f,NA,NA,NA,5,6,"10,5,9,13,3,2,14,1,8,7,11,12,15,4,6"
15143,commdev-image-keyboard-response,271,1004560,learnblock1,674,img/planet6_right.png,6,Community 3,NA,FALSE,f,j,NA,NA,NA,5,6,"10,5,9,13,3,2,14,1,8,7,11,12,15,4,6"
15143,commdev-image-keyboard-response,272,1005813,learnblock1,1175,img/planet15_right.png,15,Community 3,NA,TRUE,j,j,NA,NA,NA,5,6,"10,5,9,13,3,2,14,1,8,7,11,12,15,4,6"
15143,commdev-image-keyboard-response,273,1007065,learnblock1,1137,img/planet11_right.png,11,Community 3,NA,FALSE,f,j,NA,NA,NA,5,6,"10,5,9,13,3,2,14,1,8,7,11,12,15,4,6"
15143,commdev-image-keyboard-response,274,1008318,learnblock1,610,img/planet15_left.png,15,Community 3,NA,FALSE,j,f,NA,NA,NA,5,6,"10,5,9,13,3,2,14,1,8,7,11,12,15,4,6"
15143,commdev-image-keyboard-response,275,1009570,learnblock1,1005,img/planet6_right.png,6,Community 3,NA,FALSE,f,j,NA,NA,NA,5,6,"10,5,9,13,3,2,14,1,8,7,11,12,15,4,6"
15143,commdev-image-keyboard-response,276,1010823,learnblock1,1089,img/planet15_left.png,15,Community 3,NA,FALSE,j,f,NA,NA,NA,5,6,"10,5,9,13,3,2,14,1,8,7,11,12,15,4,6"
15143,commdev-image-keyboard-response,277,1012076,learnblock1,760.9999999998836,img/planet11_right.png,11,Community 3,NA,FALSE,f,j,NA,NA,NA,5,6,"10,5,9,13,3,2,14,1,8,7,11,12,15,4,6"
15143,commdev-image-keyboard-response,278,1013328,learnblock1,1089.0000000001164,img/planet6_right.png,6,Community 3,NA,TRUE,j,j,NA,NA,NA,5,6,"10,5,9,13,3,2,14,1,8,7,11,12,15,4,6"
15143,commdev-image-keyboard-response,279,1014581,learnblock1,1187.9999999998836,img/planet12_right.png,12,Community 3,NA,TRUE,j,j,NA,NA,NA,5,6,"10,5,9,13,3,2,14,1,8,7,11,12,15,4,6"
15143,commdev-image-keyboard-response,280,1015834,learnblock1,895,img/planet6_right.png,6,Community 3,NA,TRUE,j,j,NA,NA,NA,5,6,"10,5,9,13,3,2,14,1,8,7,11,12,15,4,6"
15143,commdev-image-keyboard-response,281,1017086,learnblock1,645,img/planet15_left.png,15,Community 3,NA,TRUE,f,f,NA,NA,NA,5,6,"10,5,9,13,3,2,14,1,8,7,11,12,15,4,6"
15143,commdev-image-keyboard-response,282,1018339,learnblock1,925,img/planet6_right.png,6,Community 3,NA,FALSE,f,j,NA,NA,NA,5,6,"10,5,9,13,3,2,14,1,8,7,11,12,15,4,6"
15143,commdev-image-keyboard-response,283,1019592,learnblock1,817,img/planet15_right.png,15,Community 3,NA,FALSE,f,j,NA,NA,NA,5,6,"10,5,9,13,3,2,14,1,8,7,11,12,15,4,6"
15143,commdev-image-keyboard-response,284,1020844,learnblock1,599,img/planet4_right.png,4,Community 3,NA,FALSE,f,j,NA,NA,NA,5,6,"10,5,9,13,3,2,14,1,8,7,11,12,15,4,6"
15143,commdev-image-keyboard-response,285,1022097,learnblock1,688,img/planet15_right.png,15,Community 3,NA,FALSE,f,j,NA,NA,NA,5,6,"10,5,9,13,3,2,14,1,8,7,11,12,15,4,6"
15143,commdev-image-keyboard-response,286,1023350,learnblock1,702.9999999998836,img/planet11_left.png,11,Community 3,NA,FALSE,j,f,NA,NA,NA,5,6,"10,5,9,13,3,2,14,1,8,7,11,12,15,4,6"
15143,commdev-image-keyboard-response,287,1024602,learnblock1,961,img/planet6_right.png,6,Community 3,NA,FALSE,f,j,NA,NA,NA,5,6,"10,5,9,13,3,2,14,1,8,7,11,12,15,4,6"
15143,commdev-image-keyboard-response,288,1025855,learnblock1,900,img/planet11_right.png,11,Community 3,NA,FALSE,f,j,NA,NA,NA,5,6,"10,5,9,13,3,2,14,1,8,7,11,12,15,4,6"
15143,commdev-image-keyboard-response,289,1027107,learnblock1,543.9999999998836,img/planet6_left.png,6,Community 3,NA,FALSE,j,f,NA,NA,NA,5,6,"10,5,9,13,3,2,14,1,8,7,11,12,15,4,6"
15143,commdev-image-keyboard-response,290,1028360,learnblock1,856,img/planet15_right.png,15,Community 3,NA,FALSE,f,j,NA,NA,NA,5,6,"10,5,9,13,3,2,14,1,8,7,11,12,15,4,6"
15143,commdev-image-keyboard-response,291,1029613,learnblock1,750,img/planet12_left.png,12,Community 3,NA,FALSE,j,f,NA,NA,NA,5,6,"10,5,9,13,3,2,14,1,8,7,11,12,15,4,6"
15143,commdev-image-keyboard-response,292,1030865,learnblock1,663,img/planet15_right.png,15,Community 3,NA,FALSE,f,j,NA,NA,NA,5,6,"10,5,9,13,3,2,14,1,8,7,11,12,15,4,6"
15143,commdev-image-keyboard-response,293,1032118,learnblock1,555.9999999997672,img/planet12_left.png,12,Community 3,NA,FALSE,j,f,NA,NA,NA,5,6,"10,5,9,13,3,2,14,1,8,7,11,12,15,4,6"
15143,commdev-image-keyboard-response,294,1033371,learnblock1,801,img/planet15_left.png,15,Community 3,NA,FALSE,j,f,NA,NA,NA,5,6,"10,5,9,13,3,2,14,1,8,7,11,12,15,4,6"
15143,commdev-image-keyboard-response,295,1034624,learnblock1,645.9999999998836,img/planet11_right.png,11,Community 3,NA,FALSE,f,j,NA,NA,NA,5,6,"10,5,9,13,3,2,14,1,8,7,11,12,15,4,6"
15143,commdev-image-keyboard-response,296,1035876,learnblock1,783.9999999998836,img/planet3_left.png,3,Community 1,NA,FALSE,j,f,NA,NA,NA,5,6,"10,5,9,13,3,2,14,1,8,7,11,12,15,4,6"
15143,commdev-image-keyboard-response,297,1037129,learnblock1,1039.9999999998836,img/planet11_left.png,11,Community 3,NA,FALSE,j,f,NA,NA,NA,5,6,"10,5,9,13,3,2,14,1,8,7,11,12,15,4,6"
15143,commdev-image-keyboard-response,298,1038382,learnblock1,834,img/planet4_left.png,4,Community 3,NA,FALSE,j,f,NA,NA,NA,5,6,"10,5,9,13,3,2,14,1,8,7,11,12,15,4,6"
15143,commdev-image-keyboard-response,299,1039634,learnblock1,531.0000000001164,img/planet6_left.png,6,Community 3,NA,FALSE,j,f,NA,NA,NA,5,6,"10,5,9,13,3,2,14,1,8,7,11,12,15,4,6"
15143,commdev-image-keyboard-response,300,1040887,learnblock1,502.9999999998836,img/planet15_right.png,15,Community 3,NA,FALSE,f,j,NA,NA,NA,5,6,"10,5,9,13,3,2,14,1,8,7,11,12,15,4,6"
15143,commdev-image-keyboard-response,301,1042140,learnblock1,535.0000000001164,img/planet4_right.png,4,Community 3,NA,FALSE,f,j,NA,NA,NA,5,6,"10,5,9,13,3,2,14,1,8,7,11,12,15,4,6"
15143,commdev-image-keyboard-response,302,1043393,learnblock1,486.0000000001164,img/planet15_right.png,15,Community 3,NA,FALSE,f,j,NA,NA,NA,5,6,"10,5,9,13,3,2,14,1,8,7,11,12,15,4,6"
15143,commdev-image-keyboard-response,303,1044645,learnblock1,586,img/planet11_left.png,11,Community 3,NA,FALSE,j,f,NA,NA,NA,5,6,"10,5,9,13,3,2,14,1,8,7,11,12,15,4,6"
15143,commdev-image-keyboard-response,304,1045897,learnblock1,515.9999999998836,img/planet4_right.png,4,Community 3,NA,TRUE,j,j,NA,NA,NA,5,6,"10,5,9,13,3,2,14,1,8,7,11,12,15,4,6"
15143,commdev-image-keyboard-response,305,1047150,learnblock1,776.0000000001164,img/planet11_right.png,11,Community 3,NA,FALSE,f,j,NA,NA,NA,5,6,"10,5,9,13,3,2,14,1,8,7,11,12,15,4,6"
15143,commdev-image-keyboard-response,306,1048403,learnblock1,578,img/planet4_right.png,4,Community 3,NA,FALSE,f,j,NA,NA,NA,5,6,"10,5,9,13,3,2,14,1,8,7,11,12,15,4,6"
15143,commdev-image-keyboard-response,307,1049655,learnblock1,722,img/planet15_right.png,15,Community 3,NA,FALSE,f,j,NA,NA,NA,5,6,"10,5,9,13,3,2,14,1,8,7,11,12,15,4,6"
15143,commdev-image-keyboard-response,308,1050908,learnblock1,541,img/planet11_right.png,11,Community 3,NA,FALSE,f,j,NA,NA,NA,5,6,"10,5,9,13,3,2,14,1,8,7,11,12,15,4,6"
15143,commdev-image-keyboard-response,309,1052161,learnblock1,461,img/planet15_right.png,15,Community 3,NA,FALSE,f,j,NA,NA,NA,5,6,"10,5,9,13,3,2,14,1,8,7,11,12,15,4,6"
15143,commdev-image-keyboard-response,310,1053414,learnblock1,957,img/planet12_right.png,12,Community 3,NA,TRUE,j,j,NA,NA,NA,5,6,"10,5,9,13,3,2,14,1,8,7,11,12,15,4,6"
15143,commdev-image-keyboard-response,311,1054666,learnblock1,731,img/planet1_right.png,1,Community 2,NA,FALSE,f,j,NA,NA,NA,5,6,"10,5,9,13,3,2,14,1,8,7,11,12,15,4,6"
15143,commdev-image-keyboard-response,312,1055919,learnblock1,475,img/planet14_left.png,14,Community 2,NA,FALSE,j,f,NA,NA,NA,5,6,"10,5,9,13,3,2,14,1,8,7,11,12,15,4,6"
15143,commdev-image-keyboard-response,313,1057172,learnblock1,539,img/planet2_right.png,2,Community 2,NA,FALSE,f,j,NA,NA,NA,5,6,"10,5,9,13,3,2,14,1,8,7,11,12,15,4,6"
15143,commdev-image-keyboard-response,314,1058424,learnblock1,809,img/planet8_left.png,8,Community 2,NA,FALSE,j,f,NA,NA,NA,5,6,"10,5,9,13,3,2,14,1,8,7,11,12,15,4,6"
15143,commdev-image-keyboard-response,315,1059677,learnblock1,649,img/planet14_right.png,14,Community 2,NA,FALSE,f,j,NA,NA,NA,5,6,"10,5,9,13,3,2,14,1,8,7,11,12,15,4,6"
15143,commdev-image-keyboard-response,316,1060930,learnblock1,860.0000000002328,img/planet1_right.png,1,Community 2,NA,FALSE,f,j,NA,NA,NA,5,6,"10,5,9,13,3,2,14,1,8,7,11,12,15,4,6"
15143,commdev-image-keyboard-response,317,1062182,learnblock1,824,img/planet12_left.png,12,Community 3,NA,FALSE,j,f,NA,NA,NA,5,6,"10,5,9,13,3,2,14,1,8,7,11,12,15,4,6"
15143,commdev-image-keyboard-response,318,1063434,learnblock1,801,img/planet4_left.png,4,Community 3,NA,FALSE,j,f,NA,NA,NA,5,6,"10,5,9,13,3,2,14,1,8,7,11,12,15,4,6"
15143,commdev-image-keyboard-response,319,1064689,learnblock1,556,img/planet6_left.png,6,Community 3,NA,FALSE,j,f,NA,NA,NA,5,6,"10,5,9,13,3,2,14,1,8,7,11,12,15,4,6"
15143,commdev-image-keyboard-response,320,1065943,learnblock1,620,img/planet11_left.png,11,Community 3,NA,FALSE,j,f,NA,NA,NA,5,6,"10,5,9,13,3,2,14,1,8,7,11,12,15,4,6"
15143,commdev-image-keyboard-response,321,1067197,learnblock1,623.0000000002328,img/planet6_left.png,6,Community 3,NA,FALSE,j,f,NA,NA,NA,5,6,"10,5,9,13,3,2,14,1,8,7,11,12,15,4,6"
15143,commdev-image-keyboard-response,322,1068450,learnblock1,753.0000000002328,img/planet11_left.png,11,Community 3,NA,FALSE,j,f,NA,NA,NA,5,6,"10,5,9,13,3,2,14,1,8,7,11,12,15,4,6"
15143,commdev-image-keyboard-response,323,1069703,learnblock1,918.9999999997672,img/planet3_right.png,3,Community 1,NA,FALSE,f,j,NA,NA,NA,5,6,"10,5,9,13,3,2,14,1,8,7,11,12,15,4,6"
15143,commdev-image-keyboard-response,324,1070956,learnblock1,661.0000000002328,img/planet5_right.png,5,Community 1,NA,FALSE,f,j,NA,NA,NA,5,6,"10,5,9,13,3,2,14,1,8,7,11,12,15,4,6"
15143,commdev-image-keyboard-response,325,1072209,learnblock1,920,img/planet13_right.png,13,Community 1,NA,FALSE,f,j,NA,NA,NA,5,6,"10,5,9,13,3,2,14,1,8,7,11,12,15,4,6"
15143,commdev-image-keyboard-response,326,1073462,learnblock1,901,img/planet9_right.png,9,Community 1,NA,FALSE,f,j,NA,NA,NA,5,6,"10,5,9,13,3,2,14,1,8,7,11,12,15,4,6"
15143,commdev-image-keyboard-response,327,1074715,learnblock1,817,img/planet13_right.png,13,Community 1,NA,FALSE,f,j,NA,NA,NA,5,6,"10,5,9,13,3,2,14,1,8,7,11,12,15,4,6"
15143,commdev-image-keyboard-response,328,1075969,learnblock1,546,img/planet2_left.png,2,Community 2,NA,FALSE,j,f,NA,NA,NA,5,6,"10,5,9,13,3,2,14,1,8,7,11,12,15,4,6"
15143,commdev-image-keyboard-response,329,1077221,learnblock1,641,img/planet8_left.png,8,Community 2,NA,FALSE,j,f,NA,NA,NA,5,6,"10,5,9,13,3,2,14,1,8,7,11,12,15,4,6"
15143,commdev-image-keyboard-response,330,1078474,learnblock1,651,img/planet2_right.png,2,Community 2,NA,FALSE,f,j,NA,NA,NA,5,6,"10,5,9,13,3,2,14,1,8,7,11,12,15,4,6"
15143,commdev-image-keyboard-response,331,1079727,learnblock1,941,img/planet13_left.png,13,Community 1,NA,FALSE,j,f,NA,NA,NA,5,6,"10,5,9,13,3,2,14,1,8,7,11,12,15,4,6"
15143,commdev-image-keyboard-response,332,1080980,learnblock1,681,img/planet5_left.png,5,Community 1,NA,FALSE,j,f,NA,NA,NA,5,6,"10,5,9,13,3,2,14,1,8,7,11,12,15,4,6"
15143,commdev-image-keyboard-response,333,1082233,learnblock1,552,img/planet9_right.png,9,Community 1,NA,FALSE,f,j,NA,NA,NA,5,6,"10,5,9,13,3,2,14,1,8,7,11,12,15,4,6"
15143,commdev-image-keyboard-response,334,1083486,learnblock1,652,img/planet5_right.png,5,Community 1,NA,FALSE,f,j,NA,NA,NA,5,6,"10,5,9,13,3,2,14,1,8,7,11,12,15,4,6"
15143,commdev-image-keyboard-response,335,1084738,learnblock1,581,img/planet9_right.png,9,Community 1,NA,FALSE,f,j,NA,NA,NA,5,6,"10,5,9,13,3,2,14,1,8,7,11,12,15,4,6"
15143,commdev-image-keyboard-response,336,1085991,learnblock1,642,img/planet5_right.png,5,Community 1,NA,FALSE,f,j,NA,NA,NA,5,6,"10,5,9,13,3,2,14,1,8,7,11,12,15,4,6"
15143,commdev-image-keyboard-response,337,1087244,learnblock1,600,img/planet9_right.png,9,Community 1,NA,FALSE,f,j,NA,NA,NA,5,6,"10,5,9,13,3,2,14,1,8,7,11,12,15,4,6"
15143,commdev-image-keyboard-response,338,1088497,learnblock1,606,img/planet13_left.png,13,Community 1,NA,FALSE,j,f,NA,NA,NA,5,6,"10,5,9,13,3,2,14,1,8,7,11,12,15,4,6"
15143,commdev-image-keyboard-response,339,1089750,learnblock1,593,img/planet2_left.png,2,Community 2,NA,FALSE,j,f,NA,NA,NA,5,6,"10,5,9,13,3,2,14,1,8,7,11,12,15,4,6"
15143,commdev-image-keyboard-response,340,1091003,learnblock1,607,img/planet13_right.png,13,Community 1,NA,FALSE,f,j,NA,NA,NA,5,6,"10,5,9,13,3,2,14,1,8,7,11,12,15,4,6"
15143,commdev-image-keyboard-response,341,1092257,learnblock1,696.0000000002328,img/planet2_left.png,2,Community 2,NA,FALSE,j,f,NA,NA,NA,5,6,"10,5,9,13,3,2,14,1,8,7,11,12,15,4,6"
15143,commdev-image-keyboard-response,342,1093510,learnblock1,877,img/planet14_left.png,14,Community 2,NA,FALSE,j,f,NA,NA,NA,5,6,"10,5,9,13,3,2,14,1,8,7,11,12,15,4,6"
15143,commdev-image-keyboard-response,343,1094763,learnblock1,666,img/planet1_right.png,1,Community 2,NA,FALSE,f,j,NA,NA,NA,5,6,"10,5,9,13,3,2,14,1,8,7,11,12,15,4,6"
15143,commdev-image-keyboard-response,344,1096017,learnblock1,700,img/planet7_left.png,7,Community 2,NA,FALSE,j,f,NA,NA,NA,5,6,"10,5,9,13,3,2,14,1,8,7,11,12,15,4,6"
15143,commdev-image-keyboard-response,345,1097270,learnblock1,1073,img/planet14_right.png,14,Community 2,NA,FALSE,f,j,NA,NA,NA,5,6,"10,5,9,13,3,2,14,1,8,7,11,12,15,4,6"
15143,commdev-image-keyboard-response,346,1098523,learnblock1,763,img/planet2_right.png,2,Community 2,NA,FALSE,f,j,NA,NA,NA,5,6,"10,5,9,13,3,2,14,1,8,7,11,12,15,4,6"
15143,commdev-image-keyboard-response,347,1099776,learnblock1,890,img/planet14_left.png,14,Community 2,NA,FALSE,j,f,NA,NA,NA,5,6,"10,5,9,13,3,2,14,1,8,7,11,12,15,4,6"
15143,commdev-image-keyboard-response,348,1101030,learnblock1,658,img/planet1_right.png,1,Community 2,NA,FALSE,f,j,NA,NA,NA,5,6,"10,5,9,13,3,2,14,1,8,7,11,12,15,4,6"
15143,commdev-image-keyboard-response,349,1102282,learnblock1,1178,img/planet14_right.png,14,Community 2,NA,FALSE,f,j,NA,NA,NA,5,6,"10,5,9,13,3,2,14,1,8,7,11,12,15,4,6"
15143,commdev-image-keyboard-response,350,1103534,learnblock1,1053.0000000002328,img/planet2_right.png,2,Community 2,NA,FALSE,f,j,NA,NA,NA,5,6,"10,5,9,13,3,2,14,1,8,7,11,12,15,4,6"
15143,commdev-image-keyboard-response,351,1104787,learnblock1,825,img/planet7_left.png,7,Community 2,NA,FALSE,j,f,NA,NA,NA,5,6,"10,5,9,13,3,2,14,1,8,7,11,12,15,4,6"
15143,commdev-image-keyboard-response,352,1106040,learnblock1,677.9999999997672,img/planet2_right.png,2,Community 2,NA,FALSE,f,j,NA,NA,NA,5,6,"10,5,9,13,3,2,14,1,8,7,11,12,15,4,6"
15143,commdev-image-keyboard-response,353,1107292,learnblock1,863,img/planet8_left.png,8,Community 2,NA,FALSE,j,f,NA,NA,NA,5,6,"10,5,9,13,3,2,14,1,8,7,11,12,15,4,6"
15143,commdev-image-keyboard-response,354,1108545,learnblock1,784,img/planet14_left.png,14,Community 2,NA,FALSE,j,f,NA,NA,NA,5,6,"10,5,9,13,3,2,14,1,8,7,11,12,15,4,6"
15143,commdev-image-keyboard-response,355,1109798,learnblock1,665.0000000002328,img/planet8_right.png,8,Community 2,NA,FALSE,f,j,NA,NA,NA,5,6,"10,5,9,13,3,2,14,1,8,7,11,12,15,4,6"
15143,commdev-image-keyboard-response,356,1111051,learnblock1,578,img/planet2_right.png,2,Community 2,NA,FALSE,f,j,NA,NA,NA,5,6,"10,5,9,13,3,2,14,1,8,7,11,12,15,4,6"
15143,commdev-image-keyboard-response,357,1112304,learnblock1,594,img/planet7_right.png,7,Community 2,NA,FALSE,f,j,NA,NA,NA,5,6,"10,5,9,13,3,2,14,1,8,7,11,12,15,4,6"
15143,commdev-image-keyboard-response,358,1113557,learnblock1,657,img/planet2_right.png,2,Community 2,NA,FALSE,f,j,NA,NA,NA,5,6,"10,5,9,13,3,2,14,1,8,7,11,12,15,4,6"
15143,commdev-image-keyboard-response,359,1114810,learnblock1,651,img/planet8_left.png,8,Community 2,NA,FALSE,j,f,NA,NA,NA,5,6,"10,5,9,13,3,2,14,1,8,7,11,12,15,4,6"
15143,commdev-image-keyboard-response,360,1116063,learnblock1,826,img/planet2_left.png,2,Community 2,NA,FALSE,j,f,NA,NA,NA,5,6,"10,5,9,13,3,2,14,1,8,7,11,12,15,4,6"
15143,commdev-image-keyboard-response,361,1117316,learnblock1,685.0000000002328,img/planet14_right.png,14,Community 2,NA,FALSE,f,j,NA,NA,NA,5,6,"10,5,9,13,3,2,14,1,8,7,11,12,15,4,6"
15143,commdev-image-keyboard-response,362,1118568,learnblock1,596.9999999997672,img/planet2_left.png,2,Community 2,NA,FALSE,j,f,NA,NA,NA,5,6,"10,5,9,13,3,2,14,1,8,7,11,12,15,4,6"
15143,commdev-image-keyboard-response,363,1119822,learnblock1,815,img/planet7_left.png,7,Community 2,NA,FALSE,j,f,NA,NA,NA,5,6,"10,5,9,13,3,2,14,1,8,7,11,12,15,4,6"
15143,commdev-image-keyboard-response,364,1121075,learnblock1,880,img/planet2_left.png,2,Community 2,NA,FALSE,j,f,NA,NA,NA,5,6,"10,5,9,13,3,2,14,1,8,7,11,12,15,4,6"
15143,commdev-image-keyboard-response,365,1122329,learnblock1,770.9999999997672,img/planet14_right.png,14,Community 2,NA,FALSE,f,j,NA,NA,NA,5,6,"10,5,9,13,3,2,14,1,8,7,11,12,15,4,6"
15143,commdev-image-keyboard-response,366,1123582,learnblock1,791,img/planet1_right.png,1,Community 2,NA,FALSE,f,j,NA,NA,NA,5,6,"10,5,9,13,3,2,14,1,8,7,11,12,15,4,6"
15143,commdev-image-keyboard-response,367,1124835,learnblock1,994,img/planet8_right.png,8,Community 2,NA,FALSE,f,j,NA,NA,NA,5,6,"10,5,9,13,3,2,14,1,8,7,11,12,15,4,6"
15143,commdev-image-keyboard-response,368,1126089,learnblock1,686,img/planet1_left.png,1,Community 2,NA,FALSE,j,f,NA,NA,NA,5,6,"10,5,9,13,3,2,14,1,8,7,11,12,15,4,6"
15143,commdev-image-keyboard-response,369,1127342,learnblock1,568,img/planet8_right.png,8,Community 2,NA,FALSE,f,j,NA,NA,NA,5,6,"10,5,9,13,3,2,14,1,8,7,11,12,15,4,6"
15143,commdev-image-keyboard-response,370,1128594,learnblock1,1008,img/planet7_right.png,7,Community 2,NA,FALSE,f,j,NA,NA,NA,5,6,"10,5,9,13,3,2,14,1,8,7,11,12,15,4,6"
15143,commdev-image-keyboard-response,371,1129847,learnblock1,483,img/planet8_left.png,8,Community 2,NA,FALSE,j,f,NA,NA,NA,5,6,"10,5,9,13,3,2,14,1,8,7,11,12,15,4,6"
15143,commdev-image-keyboard-response,372,1131101,learnblock1,624,img/planet7_left.png,7,Community 2,NA,FALSE,j,f,NA,NA,NA,5,6,"10,5,9,13,3,2,14,1,8,7,11,12,15,4,6"
15143,commdev-image-keyboard-response,373,1132354,learnblock1,980,img/planet14_right.png,14,Community 2,NA,FALSE,f,j,NA,NA,NA,5,6,"10,5,9,13,3,2,14,1,8,7,11,12,15,4,6"
15143,commdev-image-keyboard-response,374,1133607,learnblock1,924.9999999997672,img/planet8_right.png,8,Community 2,NA,FALSE,f,j,NA,NA,NA,5,6,"10,5,9,13,3,2,14,1,8,7,11,12,15,4,6"
15143,commdev-image-keyboard-response,375,1134860,learnblock1,null,img/planet1_right.png,1,Community 2,NA,FALSE,null,j,NA,NA,NA,5,6,"10,5,9,13,3,2,14,1,8,7,11,12,15,4,6"
15143,commdev-image-keyboard-response,376,1136113,learnblock1,160,img/planet7_right.png,7,Community 2,NA,FALSE,f,j,NA,NA,NA,5,6,"10,5,9,13,3,2,14,1,8,7,11,12,15,4,6"
15143,commdev-image-keyboard-response,377,1137366,learnblock1,804,img/planet8_left.png,8,Community 2,NA,FALSE,j,f,NA,NA,NA,5,6,"10,5,9,13,3,2,14,1,8,7,11,12,15,4,6"
15143,commdev-image-keyboard-response,378,1138619,learnblock1,531,img/planet1_right.png,1,Community 2,NA,FALSE,f,j,NA,NA,NA,5,6,"10,5,9,13,3,2,14,1,8,7,11,12,15,4,6"
15143,commdev-image-keyboard-response,379,1139872,learnblock1,788,img/planet8_right.png,8,Community 2,NA,FALSE,f,j,NA,NA,NA,5,6,"10,5,9,13,3,2,14,1,8,7,11,12,15,4,6"
15143,commdev-image-keyboard-response,380,1141126,learnblock1,758,img/planet7_right.png,7,Community 2,NA,FALSE,f,j,NA,NA,NA,5,6,"10,5,9,13,3,2,14,1,8,7,11,12,15,4,6"
15143,commdev-image-keyboard-response,381,1142379,learnblock1,864,img/planet14_right.png,14,Community 2,NA,FALSE,f,j,NA,NA,NA,5,6,"10,5,9,13,3,2,14,1,8,7,11,12,15,4,6"
15143,commdev-image-keyboard-response,382,1143633,learnblock1,914,img/planet2_right.png,2,Community 2,NA,FALSE,f,j,NA,NA,NA,5,6,"10,5,9,13,3,2,14,1,8,7,11,12,15,4,6"
15143,commdev-image-keyboard-response,383,1144886,learnblock1,1100.9999999997672,img/planet7_right.png,7,Community 2,NA,FALSE,f,j,NA,NA,NA,5,6,"10,5,9,13,3,2,14,1,8,7,11,12,15,4,6"
15143,commdev-image-keyboard-response,384,1146139,learnblock1,654,img/planet14_left.png,14,Community 2,NA,FALSE,j,f,NA,NA,NA,5,6,"10,5,9,13,3,2,14,1,8,7,11,12,15,4,6"
15143,commdev-image-keyboard-response,385,1147392,learnblock1,920,img/planet1_left.png,1,Community 2,NA,FALSE,j,f,NA,NA,NA,5,6,"10,5,9,13,3,2,14,1,8,7,11,12,15,4,6"
15143,commdev-image-keyboard-response,386,1148645,learnblock1,554,img/planet14_left.png,14,Community 2,NA,FALSE,j,f,NA,NA,NA,5,6,"10,5,9,13,3,2,14,1,8,7,11,12,15,4,6"
15143,commdev-image-keyboard-response,387,1149898,learnblock1,634,img/planet7_right.png,7,Community 2,NA,FALSE,f,j,NA,NA,NA,5,6,"10,5,9,13,3,2,14,1,8,7,11,12,15,4,6"
15143,commdev-image-keyboard-response,388,1151151,learnblock1,590,img/planet14_left.png,14,Community 2,NA,FALSE,j,f,NA,NA,NA,5,6,"10,5,9,13,3,2,14,1,8,7,11,12,15,4,6"
15143,commdev-image-keyboard-response,389,1152404,learnblock1,598,img/planet8_right.png,8,Community 2,NA,FALSE,f,j,NA,NA,NA,5,6,"10,5,9,13,3,2,14,1,8,7,11,12,15,4,6"
15143,commdev-image-keyboard-response,390,1153657,learnblock1,479.00000000023283,img/planet7_left.png,7,Community 2,NA,FALSE,j,f,NA,NA,NA,5,6,"10,5,9,13,3,2,14,1,8,7,11,12,15,4,6"
15143,commdev-image-keyboard-response,391,1154910,learnblock1,644,img/planet14_right.png,14,Community 2,NA,FALSE,f,j,NA,NA,NA,5,6,"10,5,9,13,3,2,14,1,8,7,11,12,15,4,6"
15143,commdev-image-keyboard-response,392,1156163,learnblock1,303,img/planet2_left.png,2,Community 2,NA,FALSE,j,f,NA,NA,NA,5,6,"10,5,9,13,3,2,14,1,8,7,11,12,15,4,6"
15143,commdev-image-keyboard-response,393,1157416,learnblock1,354,img/planet7_left.png,7,Community 2,NA,TRUE,f,f,NA,NA,NA,5,6,"10,5,9,13,3,2,14,1,8,7,11,12,15,4,6"
15143,commdev-image-keyboard-response,394,1158669,learnblock1,810,img/planet2_right.png,2,Community 2,NA,FALSE,f,j,NA,NA,NA,5,6,"10,5,9,13,3,2,14,1,8,7,11,12,15,4,6"
15143,commdev-image-keyboard-response,395,1159922,learnblock1,630,img/planet14_left.png,14,Community 2,NA,FALSE,j,f,NA,NA,NA,5,6,"10,5,9,13,3,2,14,1,8,7,11,12,15,4,6"
15143,commdev-image-keyboard-response,396,1161175,learnblock1,663.0000000002328,img/planet1_left.png,1,Community 2,NA,FALSE,j,f,NA,NA,NA,5,6,"10,5,9,13,3,2,14,1,8,7,11,12,15,4,6"
15143,commdev-image-keyboard-response,397,1162428,learnblock1,804.0000000002328,img/planet7_right.png,7,Community 2,NA,FALSE,f,j,NA,NA,NA,5,6,"10,5,9,13,3,2,14,1,8,7,11,12,15,4,6"
15143,commdev-image-keyboard-response,398,1163681,learnblock1,559,img/planet1_right.png,1,Community 2,NA,FALSE,f,j,NA,NA,NA,5,6,"10,5,9,13,3,2,14,1,8,7,11,12,15,4,6"
15143,commdev-image-keyboard-response,399,1164934,learnblock1,1027.9999999997672,img/planet8_right.png,8,Community 2,NA,FALSE,f,j,NA,NA,NA,5,6,"10,5,9,13,3,2,14,1,8,7,11,12,15,4,6"
15143,commdev-image-keyboard-response,400,1166186,learnblock1,816,img/planet2_right.png,2,Community 2,NA,FALSE,f,j,NA,NA,NA,5,6,"10,5,9,13,3,2,14,1,8,7,11,12,15,4,6"
15143,commdev-image-keyboard-response,401,1167439,learnblock1,676,img/planet8_right.png,8,Community 2,NA,FALSE,f,j,NA,NA,NA,5,6,"10,5,9,13,3,2,14,1,8,7,11,12,15,4,6"
15143,commdev-image-keyboard-response,402,1168692,learnblock1,757,img/planet14_left.png,14,Community 2,NA,FALSE,j,f,NA,NA,NA,5,6,"10,5,9,13,3,2,14,1,8,7,11,12,15,4,6"
15143,commdev-image-keyboard-response,403,1169945,learnblock1,745,img/planet2_right.png,2,Community 2,NA,FALSE,f,j,NA,NA,NA,5,6,"10,5,9,13,3,2,14,1,8,7,11,12,15,4,6"
15143,commdev-image-keyboard-response,404,1171198,learnblock1,755.0000000002328,img/planet14_left.png,14,Community 2,NA,FALSE,j,f,NA,NA,NA,5,6,"10,5,9,13,3,2,14,1,8,7,11,12,15,4,6"
15143,commdev-image-keyboard-response,405,1172452,learnblock1,742.0000000002328,img/planet1_left.png,1,Community 2,NA,FALSE,j,f,NA,NA,NA,5,6,"10,5,9,13,3,2,14,1,8,7,11,12,15,4,6"
15143,commdev-image-keyboard-response,406,1173705,learnblock1,740,img/planet7_right.png,7,Community 2,NA,FALSE,f,j,NA,NA,NA,5,6,"10,5,9,13,3,2,14,1,8,7,11,12,15,4,6"
15143,commdev-image-keyboard-response,407,1174959,learnblock1,903,img/planet1_left.png,1,Community 2,NA,FALSE,j,f,NA,NA,NA,5,6,"10,5,9,13,3,2,14,1,8,7,11,12,15,4,6"
15143,commdev-image-keyboard-response,408,1176212,learnblock1,734,img/planet7_left.png,7,Community 2,NA,FALSE,j,f,NA,NA,NA,5,6,"10,5,9,13,3,2,14,1,8,7,11,12,15,4,6"
15143,commdev-image-keyboard-response,409,1177465,learnblock1,792,img/planet2_left.png,2,Community 2,NA,FALSE,j,f,NA,NA,NA,5,6,"10,5,9,13,3,2,14,1,8,7,11,12,15,4,6"
15143,commdev-image-keyboard-response,410,1178718,learnblock1,773,img/planet14_right.png,14,Community 2,NA,FALSE,f,j,NA,NA,NA,5,6,"10,5,9,13,3,2,14,1,8,7,11,12,15,4,6"
15143,commdev-image-keyboard-response,411,1179971,learnblock1,1044,img/planet2_left.png,2,Community 2,NA,FALSE,j,f,NA,NA,NA,5,6,"10,5,9,13,3,2,14,1,8,7,11,12,15,4,6"
15143,commdev-image-keyboard-response,412,1181225,learnblock1,838,img/planet14_right.png,14,Community 2,NA,FALSE,f,j,NA,NA,NA,5,6,"10,5,9,13,3,2,14,1,8,7,11,12,15,4,6"
15143,commdev-image-keyboard-response,413,1182478,learnblock1,696.0000000002328,img/planet7_right.png,7,Community 2,NA,FALSE,f,j,NA,NA,NA,5,6,"10,5,9,13,3,2,14,1,8,7,11,12,15,4,6"
15143,commdev-image-keyboard-response,414,1183730,learnblock1,611,img/planet8_left.png,8,Community 2,NA,FALSE,j,f,NA,NA,NA,5,6,"10,5,9,13,3,2,14,1,8,7,11,12,15,4,6"
15143,commdev-image-keyboard-response,415,1184983,learnblock1,642,img/planet2_left.png,2,Community 2,NA,FALSE,j,f,NA,NA,NA,5,6,"10,5,9,13,3,2,14,1,8,7,11,12,15,4,6"
15143,commdev-image-keyboard-response,416,1186236,learnblock1,657,img/planet13_right.png,13,Community 1,NA,FALSE,f,j,NA,NA,NA,5,6,"10,5,9,13,3,2,14,1,8,7,11,12,15,4,6"
15143,commdev-image-keyboard-response,417,1187489,learnblock1,605,img/planet2_left.png,2,Community 2,NA,FALSE,j,f,NA,NA,NA,5,6,"10,5,9,13,3,2,14,1,8,7,11,12,15,4,6"
15143,commdev-image-keyboard-response,418,1188741,learnblock1,583.9999999997672,img/planet8_right.png,8,Community 2,NA,FALSE,f,j,NA,NA,NA,5,6,"10,5,9,13,3,2,14,1,8,7,11,12,15,4,6"
15143,commdev-image-keyboard-response,419,1189994,learnblock1,979,img/planet2_left.png,2,Community 2,NA,FALSE,j,f,NA,NA,NA,5,6,"10,5,9,13,3,2,14,1,8,7,11,12,15,4,6"
15143,commdev-image-keyboard-response,420,1191247,learnblock1,1180,img/planet7_right.png,7,Community 2,NA,FALSE,f,j,NA,NA,NA,5,6,"10,5,9,13,3,2,14,1,8,7,11,12,15,4,6"
15143,commdev-image-keyboard-response,421,1192500,learnblock1,1051,img/planet2_right.png,2,Community 2,NA,FALSE,f,j,NA,NA,NA,5,6,"10,5,9,13,3,2,14,1,8,7,11,12,15,4,6"
15143,commdev-image-keyboard-response,422,1193753,learnblock1,647,img/planet7_left.png,7,Community 2,NA,FALSE,j,f,NA,NA,NA,5,6,"10,5,9,13,3,2,14,1,8,7,11,12,15,4,6"
15143,commdev-image-keyboard-response,423,1195006,learnblock1,838,img/planet14_left.png,14,Community 2,NA,FALSE,j,f,NA,NA,NA,5,6,"10,5,9,13,3,2,14,1,8,7,11,12,15,4,6"
15143,commdev-image-keyboard-response,424,1196258,learnblock1,538,img/planet2_left.png,2,Community 2,NA,FALSE,j,f,NA,NA,NA,5,6,"10,5,9,13,3,2,14,1,8,7,11,12,15,4,6"
15143,commdev-image-keyboard-response,425,1197511,learnblock1,895.9999999997672,img/planet13_left.png,13,Community 1,NA,TRUE,f,f,NA,NA,NA,5,6,"10,5,9,13,3,2,14,1,8,7,11,12,15,4,6"
15143,commdev-image-keyboard-response,426,1198764,learnblock1,760,img/planet9_right.png,9,Community 1,NA,FALSE,f,j,NA,NA,NA,5,6,"10,5,9,13,3,2,14,1,8,7,11,12,15,4,6"
15143,commdev-image-keyboard-response,427,1200016,learnblock1,786,img/planet5_left.png,5,Community 1,NA,TRUE,f,f,NA,NA,NA,5,6,"10,5,9,13,3,2,14,1,8,7,11,12,15,4,6"
15143,commdev-image-keyboard-response,428,1201270,learnblock1,854,img/planet9_left.png,9,Community 1,NA,FALSE,j,f,NA,NA,NA,5,6,"10,5,9,13,3,2,14,1,8,7,11,12,15,4,6"
15143,commdev-image-keyboard-response,429,1202524,learnblock1,876,img/planet5_left.png,5,Community 1,NA,FALSE,j,f,NA,NA,NA,5,6,"10,5,9,13,3,2,14,1,8,7,11,12,15,4,6"
15143,commdev-image-keyboard-response,430,1203777,learnblock1,658,img/planet9_right.png,9,Community 1,NA,FALSE,f,j,NA,NA,NA,5,6,"10,5,9,13,3,2,14,1,8,7,11,12,15,4,6"
15143,commdev-image-keyboard-response,431,1205030,learnblock1,664.9999999997672,img/planet5_left.png,5,Community 1,NA,FALSE,j,f,NA,NA,NA,5,6,"10,5,9,13,3,2,14,1,8,7,11,12,15,4,6"
15143,commdev-image-keyboard-response,432,1206284,learnblock1,925,img/planet10_left.png,10,Community 1,NA,FALSE,j,f,NA,NA,NA,5,6,"10,5,9,13,3,2,14,1,8,7,11,12,15,4,6"
15143,commdev-image-keyboard-response,433,1207537,learnblock1,1073,img/planet5_left.png,5,Community 1,NA,FALSE,j,f,NA,NA,NA,5,6,"10,5,9,13,3,2,14,1,8,7,11,12,15,4,6"
15143,commdev-image-keyboard-response,434,1208790,learnblock1,862.9999999997672,img/planet9_left.png,9,Community 1,NA,FALSE,j,f,NA,NA,NA,5,6,"10,5,9,13,3,2,14,1,8,7,11,12,15,4,6"
15143,commdev-image-keyboard-response,435,1210043,learnblock1,567,img/planet5_left.png,5,Community 1,NA,FALSE,j,f,NA,NA,NA,5,6,"10,5,9,13,3,2,14,1,8,7,11,12,15,4,6"
15143,commdev-image-keyboard-response,436,1211297,learnblock1,580,img/planet13_right.png,13,Community 1,NA,FALSE,f,j,NA,NA,NA,5,6,"10,5,9,13,3,2,14,1,8,7,11,12,15,4,6"
15143,commdev-image-keyboard-response,437,1212550,learnblock1,796,img/planet5_left.png,5,Community 1,NA,TRUE,f,f,NA,NA,NA,5,6,"10,5,9,13,3,2,14,1,8,7,11,12,15,4,6"
15143,commdev-image-keyboard-response,438,1213802,learnblock1,536,img/planet13_left.png,13,Community 1,NA,TRUE,f,f,NA,NA,NA,5,6,"10,5,9,13,3,2,14,1,8,7,11,12,15,4,6"
15143,commdev-image-keyboard-response,439,1215055,learnblock1,731,img/planet2_left.png,2,Community 2,NA,FALSE,j,f,NA,NA,NA,5,6,"10,5,9,13,3,2,14,1,8,7,11,12,15,4,6"
15143,commdev-image-keyboard-response,440,1216308,learnblock1,702,img/planet7_left.png,7,Community 2,NA,FALSE,j,f,NA,NA,NA,5,6,"10,5,9,13,3,2,14,1,8,7,11,12,15,4,6"
15143,commdev-image-keyboard-response,441,1217561,learnblock1,484,img/planet2_left.png,2,Community 2,NA,FALSE,j,f,NA,NA,NA,5,6,"10,5,9,13,3,2,14,1,8,7,11,12,15,4,6"
15143,commdev-image-keyboard-response,442,1218814,learnblock1,564,img/planet14_right.png,14,Community 2,NA,TRUE,j,j,NA,NA,NA,5,6,"10,5,9,13,3,2,14,1,8,7,11,12,15,4,6"
15143,commdev-image-keyboard-response,443,1220067,learnblock1,788,img/planet2_right.png,2,Community 2,NA,FALSE,f,j,NA,NA,NA,5,6,"10,5,9,13,3,2,14,1,8,7,11,12,15,4,6"
15143,commdev-image-keyboard-response,447,1282273,learnblock2,795,img/planet6_right.png,6,Community 3,NA,TRUE,j,j,NA,NA,NA,5,6,"10,5,9,13,3,2,14,1,8,7,11,12,15,4,6"
15143,commdev-image-keyboard-response,448,1283527,learnblock2,671,img/planet11_right.png,11,Community 3,NA,TRUE,j,j,NA,NA,NA,5,6,"10,5,9,13,3,2,14,1,8,7,11,12,15,4,6"
15143,commdev-image-keyboard-response,449,1284780,learnblock2,679.9999999997672,img/planet3_left.png,3,Community 1,NA,TRUE,f,f,NA,NA,NA,5,6,"10,5,9,13,3,2,14,1,8,7,11,12,15,4,6"
15143,commdev-image-keyboard-response,450,1286033,learnblock2,577,img/planet10_right.png,10,Community 1,NA,TRUE,j,j,NA,NA,NA,5,6,"10,5,9,13,3,2,14,1,8,7,11,12,15,4,6"
15143,commdev-image-keyboard-response,451,1287286,learnblock2,530,img/planet3_left.png,3,Community 1,NA,TRUE,f,f,NA,NA,NA,5,6,"10,5,9,13,3,2,14,1,8,7,11,12,15,4,6"
15143,commdev-image-keyboard-response,452,1288539,learnblock2,504,img/planet11_right.png,11,Community 3,NA,TRUE,j,j,NA,NA,NA,5,6,"10,5,9,13,3,2,14,1,8,7,11,12,15,4,6"
15143,commdev-image-keyboard-response,453,1289792,learnblock2,490,img/planet15_left.png,15,Community 3,NA,TRUE,f,f,NA,NA,NA,5,6,"10,5,9,13,3,2,14,1,8,7,11,12,15,4,6"
15143,commdev-image-keyboard-response,454,1291046,learnblock2,511,img/planet4_right.png,4,Community 3,NA,TRUE,j,j,NA,NA,NA,5,6,"10,5,9,13,3,2,14,1,8,7,11,12,15,4,6"
15143,commdev-image-keyboard-response,455,1292298,learnblock2,487.99999999976717,img/planet12_right.png,12,Community 3,NA,FALSE,f,j,NA,NA,NA,5,6,"10,5,9,13,3,2,14,1,8,7,11,12,15,4,6"
15143,commdev-image-keyboard-response,456,1293550,learnblock2,950.0000000002328,img/planet4_left.png,4,Community 3,NA,TRUE,f,f,NA,NA,NA,5,6,"10,5,9,13,3,2,14,1,8,7,11,12,15,4,6"
15143,commdev-image-keyboard-response,457,1294804,learnblock2,924,img/planet6_right.png,6,Community 3,NA,FALSE,f,j,NA,NA,NA,5,6,"10,5,9,13,3,2,14,1,8,7,11,12,15,4,6"
15143,commdev-image-keyboard-response,458,1296056,learnblock2,1018,img/planet4_left.png,4,Community 3,NA,TRUE,f,f,NA,NA,NA,5,6,"10,5,9,13,3,2,14,1,8,7,11,12,15,4,6"
15143,commdev-image-keyboard-response,459,1297309,learnblock2,null,img/planet11_right.png,11,Community 3,NA,FALSE,null,j,NA,NA,NA,5,6,"10,5,9,13,3,2,14,1,8,7,11,12,15,4,6"
15143,commdev-image-keyboard-response,460,1298562,learnblock2,114,img/planet6_left.png,6,Community 3,NA,FALSE,j,f,NA,NA,NA,5,6,"10,5,9,13,3,2,14,1,8,7,11,12,15,4,6"
15143,commdev-image-keyboard-response,461,1299815,learnblock2,661,img/planet15_left.png,15,Community 3,NA,TRUE,f,f,NA,NA,NA,5,6,"10,5,9,13,3,2,14,1,8,7,11,12,15,4,6"
15143,commdev-image-keyboard-response,462,1301068,learnblock2,529.0000000002328,img/planet4_left.png,4,Community 3,NA,TRUE,f,f,NA,NA,NA,5,6,"10,5,9,13,3,2,14,1,8,7,11,12,15,4,6"
15143,commdev-image-keyboard-response,463,1302322,learnblock2,690,img/planet11_right.png,11,Community 3,NA,TRUE,j,j,NA,NA,NA,5,6,"10,5,9,13,3,2,14,1,8,7,11,12,15,4,6"
15143,commdev-image-keyboard-response,464,1303576,learnblock2,740,img/planet15_left.png,15,Community 3,NA,TRUE,f,f,NA,NA,NA,5,6,"10,5,9,13,3,2,14,1,8,7,11,12,15,4,6"
15143,commdev-image-keyboard-response,465,1304829,learnblock2,527,img/planet6_right.png,6,Community 3,NA,TRUE,j,j,NA,NA,NA,5,6,"10,5,9,13,3,2,14,1,8,7,11,12,15,4,6"
15143,commdev-image-keyboard-response,466,1306082,learnblock2,490,img/planet4_left.png,4,Community 3,NA,TRUE,f,f,NA,NA,NA,5,6,"10,5,9,13,3,2,14,1,8,7,11,12,15,4,6"
15143,commdev-image-keyboard-response,467,1307335,learnblock2,579,img/planet6_right.png,6,Community 3,NA,TRUE,j,j,NA,NA,NA,5,6,"10,5,9,13,3,2,14,1,8,7,11,12,15,4,6"
15143,commdev-image-keyboard-response,468,1308588,learnblock2,762.9999999997672,img/planet11_right.png,11,Community 3,NA,TRUE,j,j,NA,NA,NA,5,6,"10,5,9,13,3,2,14,1,8,7,11,12,15,4,6"
15143,commdev-image-keyboard-response,469,1309841,learnblock2,629,img/planet4_left.png,4,Community 3,NA,TRUE,f,f,NA,NA,NA,5,6,"10,5,9,13,3,2,14,1,8,7,11,12,15,4,6"
15143,commdev-image-keyboard-response,470,1311095,learnblock2,727,img/planet12_left.png,12,Community 3,NA,TRUE,f,f,NA,NA,NA,5,6,"10,5,9,13,3,2,14,1,8,7,11,12,15,4,6"
15143,commdev-image-keyboard-response,471,1312348,learnblock2,655,img/planet4_right.png,4,Community 3,NA,TRUE,j,j,NA,NA,NA,5,6,"10,5,9,13,3,2,14,1,8,7,11,12,15,4,6"
15143,commdev-image-keyboard-response,472,1313601,learnblock2,558,img/planet11_right.png,11,Community 3,NA,TRUE,j,j,NA,NA,NA,5,6,"10,5,9,13,3,2,14,1,8,7,11,12,15,4,6"
15143,commdev-image-keyboard-response,473,1314854,learnblock2,548,img/planet3_right.png,3,Community 1,NA,TRUE,j,j,NA,NA,NA,5,6,"10,5,9,13,3,2,14,1,8,7,11,12,15,4,6"
15143,commdev-image-keyboard-response,474,1316107,learnblock2,657.9999999997672,img/planet5_left.png,5,Community 1,NA,TRUE,f,f,NA,NA,NA,5,6,"10,5,9,13,3,2,14,1,8,7,11,12,15,4,6"
15143,commdev-image-keyboard-response,475,1317360,learnblock2,596,img/planet9_left.png,9,Community 1,NA,TRUE,f,f,NA,NA,NA,5,6,"10,5,9,13,3,2,14,1,8,7,11,12,15,4,6"
15143,commdev-image-keyboard-response,476,1318613,learnblock2,783,img/planet5_left.png,5,Community 1,NA,TRUE,f,f,NA,NA,NA,5,6,"10,5,9,13,3,2,14,1,8,7,11,12,15,4,6"
15143,commdev-image-keyboard-response,477,1319867,learnblock2,636.9999999997672,img/planet10_left.png,10,Community 1,NA,TRUE,f,f,NA,NA,NA,5,6,"10,5,9,13,3,2,14,1,8,7,11,12,15,4,6"
15143,commdev-image-keyboard-response,478,1321120,learnblock2,526,img/planet13_right.png,13,Community 1,NA,FALSE,f,j,NA,NA,NA,5,6,"10,5,9,13,3,2,14,1,8,7,11,12,15,4,6"
15143,commdev-image-keyboard-response,479,1322373,learnblock2,449,img/planet5_right.png,5,Community 1,NA,TRUE,j,j,NA,NA,NA,5,6,"10,5,9,13,3,2,14,1,8,7,11,12,15,4,6"
15143,commdev-image-keyboard-response,480,1323626,learnblock2,450,img/planet13_left.png,13,Community 1,NA,TRUE,f,f,NA,NA,NA,5,6,"10,5,9,13,3,2,14,1,8,7,11,12,15,4,6"
15143,commdev-image-keyboard-response,481,1324879,learnblock2,405,img/planet9_right.png,9,Community 1,NA,TRUE,j,j,NA,NA,NA,5,6,"10,5,9,13,3,2,14,1,8,7,11,12,15,4,6"
15143,commdev-image-keyboard-response,482,1326132,learnblock2,606,img/planet10_left.png,10,Community 1,NA,TRUE,f,f,NA,NA,NA,5,6,"10,5,9,13,3,2,14,1,8,7,11,12,15,4,6"
15143,commdev-image-keyboard-response,483,1327386,learnblock2,643,img/planet3_left.png,3,Community 1,NA,TRUE,f,f,NA,NA,NA,5,6,"10,5,9,13,3,2,14,1,8,7,11,12,15,4,6"
15143,commdev-image-keyboard-response,484,1328639,learnblock2,706,img/planet11_left.png,11,Community 3,NA,TRUE,f,f,NA,NA,NA,5,6,"10,5,9,13,3,2,14,1,8,7,11,12,15,4,6"
15143,commdev-image-keyboard-response,485,1329892,learnblock2,618,img/planet6_right.png,6,Community 3,NA,TRUE,j,j,NA,NA,NA,5,6,"10,5,9,13,3,2,14,1,8,7,11,12,15,4,6"
15143,commdev-image-keyboard-response,486,1331145,learnblock2,790.9999999997672,img/planet15_right.png,15,Community 3,NA,TRUE,j,j,NA,NA,NA,5,6,"10,5,9,13,3,2,14,1,8,7,11,12,15,4,6"
15143,commdev-image-keyboard-response,487,1332398,learnblock2,755,img/planet11_right.png,11,Community 3,NA,TRUE,j,j,NA,NA,NA,5,6,"10,5,9,13,3,2,14,1,8,7,11,12,15,4,6"
15143,commdev-image-keyboard-response,488,1333651,learnblock2,587,img/planet6_right.png,6,Community 3,NA,TRUE,j,j,NA,NA,NA,5,6,"10,5,9,13,3,2,14,1,8,7,11,12,15,4,6"
15143,commdev-image-keyboard-response,489,1334903,learnblock2,683,img/planet4_right.png,4,Community 3,NA,TRUE,j,j,NA,NA,NA,5,6,"10,5,9,13,3,2,14,1,8,7,11,12,15,4,6"
15143,commdev-image-keyboard-response,490,1336156,learnblock2,473,img/planet15_left.png,15,Community 3,NA,TRUE,f,f,NA,NA,NA,5,6,"10,5,9,13,3,2,14,1,8,7,11,12,15,4,6"
15143,commdev-image-keyboard-response,491,1337410,learnblock2,566,img/planet4_left.png,4,Community 3,NA,TRUE,f,f,NA,NA,NA,5,6,"10,5,9,13,3,2,14,1,8,7,11,12,15,4,6"
15143,commdev-image-keyboard-response,492,1338664,learnblock2,590,img/planet6_right.png,6,Community 3,NA,TRUE,j,j,NA,NA,NA,5,6,"10,5,9,13,3,2,14,1,8,7,11,12,15,4,6"
15143,commdev-image-keyboard-response,493,1339916,learnblock2,918,img/planet15_left.png,15,Community 3,NA,TRUE,f,f,NA,NA,NA,5,6,"10,5,9,13,3,2,14,1,8,7,11,12,15,4,6"
15143,commdev-image-keyboard-response,494,1341169,learnblock2,1075,img/planet11_right.png,11,Community 3,NA,TRUE,j,j,NA,NA,NA,5,6,"10,5,9,13,3,2,14,1,8,7,11,12,15,4,6"
15143,commdev-image-keyboard-response,495,1342422,learnblock2,943,img/planet15_right.png,15,Community 3,NA,TRUE,j,j,NA,NA,NA,5,6,"10,5,9,13,3,2,14,1,8,7,11,12,15,4,6"
15143,commdev-image-keyboard-response,496,1343675,learnblock2,668,img/planet4_right.png,4,Community 3,NA,TRUE,j,j,NA,NA,NA,5,6,"10,5,9,13,3,2,14,1,8,7,11,12,15,4,6"
15143,commdev-image-keyboard-response,497,1344929,learnblock2,610,img/planet11_right.png,11,Community 3,NA,TRUE,j,j,NA,NA,NA,5,6,"10,5,9,13,3,2,14,1,8,7,11,12,15,4,6"
15143,commdev-image-keyboard-response,498,1346183,learnblock2,618,img/planet6_left.png,6,Community 3,NA,TRUE,f,f,NA,NA,NA,5,6,"10,5,9,13,3,2,14,1,8,7,11,12,15,4,6"
15143,commdev-image-keyboard-response,499,1347436,learnblock2,784,img/planet15_right.png,15,Community 3,NA,TRUE,j,j,NA,NA,NA,5,6,"10,5,9,13,3,2,14,1,8,7,11,12,15,4,6"
15143,commdev-image-keyboard-response,500,1348689,learnblock2,496,img/planet12_left.png,12,Community 3,NA,TRUE,f,f,NA,NA,NA,5,6,"10,5,9,13,3,2,14,1,8,7,11,12,15,4,6"
15143,commdev-image-keyboard-response,501,1349941,learnblock2,636,img/planet15_right.png,15,Community 3,NA,TRUE,j,j,NA,NA,NA,5,6,"10,5,9,13,3,2,14,1,8,7,11,12,15,4,6"
15143,commdev-image-keyboard-response,502,1351194,learnblock2,766.9999999997672,img/planet4_right.png,4,Community 3,NA,TRUE,j,j,NA,NA,NA,5,6,"10,5,9,13,3,2,14,1,8,7,11,12,15,4,6"
15143,commdev-image-keyboard-response,503,1352447,learnblock2,468.00000000023283,img/planet11_left.png,11,Community 3,NA,TRUE,f,f,NA,NA,NA,5,6,"10,5,9,13,3,2,14,1,8,7,11,12,15,4,6"
15143,commdev-image-keyboard-response,504,1353700,learnblock2,471,img/planet15_right.png,15,Community 3,NA,TRUE,j,j,NA,NA,NA,5,6,"10,5,9,13,3,2,14,1,8,7,11,12,15,4,6"
15143,commdev-image-keyboard-response,505,1354954,learnblock2,512,img/planet11_left.png,11,Community 3,NA,TRUE,f,f,NA,NA,NA,5,6,"10,5,9,13,3,2,14,1,8,7,11,12,15,4,6"
15143,commdev-image-keyboard-response,506,1356208,learnblock2,723,img/planet4_left.png,4,Community 3,NA,TRUE,f,f,NA,NA,NA,5,6,"10,5,9,13,3,2,14,1,8,7,11,12,15,4,6"
15143,commdev-image-keyboard-response,507,1357461,learnblock2,469,img/planet6_right.png,6,Community 3,NA,TRUE,j,j,NA,NA,NA,5,6,"10,5,9,13,3,2,14,1,8,7,11,12,15,4,6"
15143,commdev-image-keyboard-response,508,1358714,learnblock2,441.00000000023283,img/planet11_right.png,11,Community 3,NA,FALSE,f,j,NA,NA,NA,5,6,"10,5,9,13,3,2,14,1,8,7,11,12,15,4,6"
15143,commdev-image-keyboard-response,509,1359967,learnblock2,730,img/planet4_left.png,4,Community 3,NA,TRUE,f,f,NA,NA,NA,5,6,"10,5,9,13,3,2,14,1,8,7,11,12,15,4,6"
15143,commdev-image-keyboard-response,510,1361220,learnblock2,670,img/planet15_left.png,15,Community 3,NA,TRUE,f,f,NA,NA,NA,5,6,"10,5,9,13,3,2,14,1,8,7,11,12,15,4,6"
15143,commdev-image-keyboard-response,511,1362473,learnblock2,511,img/planet11_right.png,11,Community 3,NA,TRUE,j,j,NA,NA,NA,5,6,"10,5,9,13,3,2,14,1,8,7,11,12,15,4,6"
15143,commdev-image-keyboard-response,512,1363727,learnblock2,510,img/planet15_right.png,15,Community 3,NA,TRUE,j,j,NA,NA,NA,5,6,"10,5,9,13,3,2,14,1,8,7,11,12,15,4,6"
15143,commdev-image-keyboard-response,513,1364979,learnblock2,604,img/planet12_left.png,12,Community 3,NA,TRUE,f,f,NA,NA,NA,5,6,"10,5,9,13,3,2,14,1,8,7,11,12,15,4,6"
15143,commdev-image-keyboard-response,514,1366232,learnblock2,529.9999999997672,img/planet15_left.png,15,Community 3,NA,TRUE,f,f,NA,NA,NA,5,6,"10,5,9,13,3,2,14,1,8,7,11,12,15,4,6"
15143,commdev-image-keyboard-response,515,1367484,learnblock2,468.00000000023283,img/planet12_right.png,12,Community 3,NA,TRUE,j,j,NA,NA,NA,5,6,"10,5,9,13,3,2,14,1,8,7,11,12,15,4,6"
15143,commdev-image-keyboard-response,516,1368737,learnblock2,618,img/planet1_left.png,1,Community 2,NA,TRUE,f,f,NA,NA,NA,5,6,"10,5,9,13,3,2,14,1,8,7,11,12,15,4,6"
15143,commdev-image-keyboard-response,517,1369990,learnblock2,790.0000000002328,img/planet12_right.png,12,Community 3,NA,TRUE,j,j,NA,NA,NA,5,6,"10,5,9,13,3,2,14,1,8,7,11,12,15,4,6"
15143,commdev-image-keyboard-response,518,1371243,learnblock2,646,img/planet4_right.png,4,Community 3,NA,TRUE,j,j,NA,NA,NA,5,6,"10,5,9,13,3,2,14,1,8,7,11,12,15,4,6"
15143,commdev-image-keyboard-response,519,1372496,learnblock2,874,img/planet12_right.png,12,Community 3,NA,TRUE,j,j,NA,NA,NA,5,6,"10,5,9,13,3,2,14,1,8,7,11,12,15,4,6"
15143,commdev-image-keyboard-response,520,1373750,learnblock2,611,img/planet6_left.png,6,Community 3,NA,TRUE,f,f,NA,NA,NA,5,6,"10,5,9,13,3,2,14,1,8,7,11,12,15,4,6"
15143,commdev-image-keyboard-response,521,1375003,learnblock2,808,img/planet12_right.png,12,Community 3,NA,TRUE,j,j,NA,NA,NA,5,6,"10,5,9,13,3,2,14,1,8,7,11,12,15,4,6"
15143,commdev-image-keyboard-response,522,1376256,learnblock2,545,img/planet4_left.png,4,Community 3,NA,TRUE,f,f,NA,NA,NA,5,6,"10,5,9,13,3,2,14,1,8,7,11,12,15,4,6"
15143,commdev-image-keyboard-response,523,1377508,learnblock2,734,img/planet12_left.png,12,Community 3,NA,TRUE,f,f,NA,NA,NA,5,6,"10,5,9,13,3,2,14,1,8,7,11,12,15,4,6"
15143,commdev-image-keyboard-response,524,1378761,learnblock2,515.9999999997672,img/planet6_right.png,6,Community 3,NA,TRUE,j,j,NA,NA,NA,5,6,"10,5,9,13,3,2,14,1,8,7,11,12,15,4,6"
15143,commdev-image-keyboard-response,525,1380014,learnblock2,597,img/planet12_left.png,12,Community 3,NA,TRUE,f,f,NA,NA,NA,5,6,"10,5,9,13,3,2,14,1,8,7,11,12,15,4,6"
15143,commdev-image-keyboard-response,526,1381268,learnblock2,580,img/planet4_left.png,4,Community 3,NA,TRUE,f,f,NA,NA,NA,5,6,"10,5,9,13,3,2,14,1,8,7,11,12,15,4,6"
15143,commdev-image-keyboard-response,527,1382521,learnblock2,714,img/planet12_right.png,12,Community 3,NA,TRUE,j,j,NA,NA,NA,5,6,"10,5,9,13,3,2,14,1,8,7,11,12,15,4,6"
15143,commdev-image-keyboard-response,528,1383775,learnblock2,654,img/planet6_left.png,6,Community 3,NA,TRUE,f,f,NA,NA,NA,5,6,"10,5,9,13,3,2,14,1,8,7,11,12,15,4,6"
15143,commdev-image-keyboard-response,529,1385027,learnblock2,565,img/planet4_right.png,4,Community 3,NA,TRUE,j,j,NA,NA,NA,5,6,"10,5,9,13,3,2,14,1,8,7,11,12,15,4,6"
15143,commdev-image-keyboard-response,530,1386281,learnblock2,510,img/planet6_left.png,6,Community 3,NA,TRUE,f,f,NA,NA,NA,5,6,"10,5,9,13,3,2,14,1,8,7,11,12,15,4,6"
15143,commdev-image-keyboard-response,531,1387533,learnblock2,440,img/planet15_right.png,15,Community 3,NA,TRUE,j,j,NA,NA,NA,5,6,"10,5,9,13,3,2,14,1,8,7,11,12,15,4,6"
15143,commdev-image-keyboard-response,532,1388786,learnblock2,748,img/planet4_left.png,4,Community 3,NA,TRUE,f,f,NA,NA,NA,5,6,"10,5,9,13,3,2,14,1,8,7,11,12,15,4,6"
15143,commdev-image-keyboard-response,533,1390039,learnblock2,552,img/planet11_right.png,11,Community 3,NA,TRUE,j,j,NA,NA,NA,5,6,"10,5,9,13,3,2,14,1,8,7,11,12,15,4,6"
15143,commdev-image-keyboard-response,534,1391292,learnblock2,752,img/planet4_right.png,4,Community 3,NA,TRUE,j,j,NA,NA,NA,5,6,"10,5,9,13,3,2,14,1,8,7,11,12,15,4,6"
15143,commdev-image-keyboard-response,535,1392545,learnblock2,1129.0000000002328,img/planet11_left.png,11,Community 3,NA,TRUE,f,f,NA,NA,NA,5,6,"10,5,9,13,3,2,14,1,8,7,11,12,15,4,6"
15143,commdev-image-keyboard-response,536,1393797,learnblock2,905.0000000002328,img/planet6_right.png,6,Community 3,NA,FALSE,f,j,NA,NA,NA,5,6,"10,5,9,13,3,2,14,1,8,7,11,12,15,4,6"
15143,commdev-image-keyboard-response,537,1395050,learnblock2,806,img/planet15_left.png,15,Community 3,NA,TRUE,f,f,NA,NA,NA,5,6,"10,5,9,13,3,2,14,1,8,7,11,12,15,4,6"
15143,commdev-image-keyboard-response,538,1396303,learnblock2,528,img/planet4_right.png,4,Community 3,NA,TRUE,j,j,NA,NA,NA,5,6,"10,5,9,13,3,2,14,1,8,7,11,12,15,4,6"
15143,commdev-image-keyboard-response,539,1397556,learnblock2,994,img/planet15_left.png,15,Community 3,NA,FALSE,j,f,NA,NA,NA,5,6,"10,5,9,13,3,2,14,1,8,7,11,12,15,4,6"
15143,commdev-image-keyboard-response,540,1398809,learnblock2,626.9999999997672,img/planet12_left.png,12,Community 3,NA,TRUE,f,f,NA,NA,NA,5,6,"10,5,9,13,3,2,14,1,8,7,11,12,15,4,6"
15143,commdev-image-keyboard-response,541,1400062,learnblock2,796,img/planet4_left.png,4,Community 3,NA,TRUE,f,f,NA,NA,NA,5,6,"10,5,9,13,3,2,14,1,8,7,11,12,15,4,6"
15143,commdev-image-keyboard-response,542,1401314,learnblock2,830.0000000002328,img/planet11_left.png,11,Community 3,NA,TRUE,f,f,NA,NA,NA,5,6,"10,5,9,13,3,2,14,1,8,7,11,12,15,4,6"
15143,commdev-image-keyboard-response,543,1402567,learnblock2,603,img/planet4_left.png,4,Community 3,NA,TRUE,f,f,NA,NA,NA,5,6,"10,5,9,13,3,2,14,1,8,7,11,12,15,4,6"
15143,commdev-image-keyboard-response,544,1403820,learnblock2,799,img/planet11_right.png,11,Community 3,NA,FALSE,f,j,NA,NA,NA,5,6,"10,5,9,13,3,2,14,1,8,7,11,12,15,4,6"
15143,commdev-image-keyboard-response,545,1405073,learnblock2,767,img/planet15_left.png,15,Community 3,NA,TRUE,f,f,NA,NA,NA,5,6,"10,5,9,13,3,2,14,1,8,7,11,12,15,4,6"
15143,commdev-image-keyboard-response,546,1406327,learnblock2,490,img/planet6_right.png,6,Community 3,NA,TRUE,j,j,NA,NA,NA,5,6,"10,5,9,13,3,2,14,1,8,7,11,12,15,4,6"
15143,commdev-image-keyboard-response,547,1407580,learnblock2,639,img/planet12_right.png,12,Community 3,NA,TRUE,j,j,NA,NA,NA,5,6,"10,5,9,13,3,2,14,1,8,7,11,12,15,4,6"
15143,commdev-image-keyboard-response,548,1408833,learnblock2,769,img/planet4_left.png,4,Community 3,NA,TRUE,f,f,NA,NA,NA,5,6,"10,5,9,13,3,2,14,1,8,7,11,12,15,4,6"
15143,commdev-image-keyboard-response,549,1410087,learnblock2,756,img/planet6_left.png,6,Community 3,NA,TRUE,f,f,NA,NA,NA,5,6,"10,5,9,13,3,2,14,1,8,7,11,12,15,4,6"
15143,commdev-image-keyboard-response,550,1411340,learnblock2,579,img/planet12_right.png,12,Community 3,NA,TRUE,j,j,NA,NA,NA,5,6,"10,5,9,13,3,2,14,1,8,7,11,12,15,4,6"
15143,commdev-image-keyboard-response,551,1412592,learnblock2,547,img/planet4_right.png,4,Community 3,NA,TRUE,j,j,NA,NA,NA,5,6,"10,5,9,13,3,2,14,1,8,7,11,12,15,4,6"
15143,commdev-image-keyboard-response,552,1413845,learnblock2,438,img/planet6_right.png,6,Community 3,NA,TRUE,j,j,NA,NA,NA,5,6,"10,5,9,13,3,2,14,1,8,7,11,12,15,4,6"
15143,commdev-image-keyboard-response,553,1415099,learnblock2,960.0000000002328,img/planet4_left.png,4,Community 3,NA,FALSE,j,f,NA,NA,NA,5,6,"10,5,9,13,3,2,14,1,8,7,11,12,15,4,6"
15143,commdev-image-keyboard-response,554,1416352,learnblock2,975,img/planet11_right.png,11,Community 3,NA,TRUE,j,j,NA,NA,NA,5,6,"10,5,9,13,3,2,14,1,8,7,11,12,15,4,6"
15143,commdev-image-keyboard-response,555,1417605,learnblock2,466,img/planet4_left.png,4,Community 3,NA,TRUE,f,f,NA,NA,NA,5,6,"10,5,9,13,3,2,14,1,8,7,11,12,15,4,6"
15143,commdev-image-keyboard-response,556,1418858,learnblock2,664,img/planet6_right.png,6,Community 3,NA,TRUE,j,j,NA,NA,NA,5,6,"10,5,9,13,3,2,14,1,8,7,11,12,15,4,6"
15143,commdev-image-keyboard-response,557,1420111,learnblock2,835,img/planet11_right.png,11,Community 3,NA,TRUE,j,j,NA,NA,NA,5,6,"10,5,9,13,3,2,14,1,8,7,11,12,15,4,6"
15143,commdev-image-keyboard-response,558,1421364,learnblock2,833,img/planet6_right.png,6,Community 3,NA,TRUE,j,j,NA,NA,NA,5,6,"10,5,9,13,3,2,14,1,8,7,11,12,15,4,6"
15143,commdev-image-keyboard-response,559,1422617,learnblock2,654.9999999997672,img/planet12_left.png,12,Community 3,NA,TRUE,f,f,NA,NA,NA,5,6,"10,5,9,13,3,2,14,1,8,7,11,12,15,4,6"
15143,commdev-image-keyboard-response,560,1423870,learnblock2,499,img/planet4_right.png,4,Community 3,NA,FALSE,f,j,NA,NA,NA,5,6,"10,5,9,13,3,2,14,1,8,7,11,12,15,4,6"
15143,commdev-image-keyboard-response,561,1425123,learnblock2,771,img/planet11_right.png,11,Community 3,NA,TRUE,j,j,NA,NA,NA,5,6,"10,5,9,13,3,2,14,1,8,7,11,12,15,4,6"
15143,commdev-image-keyboard-response,562,1426375,learnblock2,582.9999999997672,img/planet4_right.png,4,Community 3,NA,TRUE,j,j,NA,NA,NA,5,6,"10,5,9,13,3,2,14,1,8,7,11,12,15,4,6"
15143,commdev-image-keyboard-response,563,1427628,learnblock2,635,img/planet6_right.png,6,Community 3,NA,TRUE,j,j,NA,NA,NA,5,6,"10,5,9,13,3,2,14,1,8,7,11,12,15,4,6"
15143,commdev-image-keyboard-response,564,1428881,learnblock2,892,img/planet12_right.png,12,Community 3,NA,TRUE,j,j,NA,NA,NA,5,6,"10,5,9,13,3,2,14,1,8,7,11,12,15,4,6"
15143,commdev-image-keyboard-response,565,1430134,learnblock2,1179,img/planet1_right.png,1,Community 2,NA,TRUE,j,j,NA,NA,NA,5,6,"10,5,9,13,3,2,14,1,8,7,11,12,15,4,6"
15143,commdev-image-keyboard-response,566,1431387,learnblock2,670,img/planet14_left.png,14,Community 2,NA,TRUE,f,f,NA,NA,NA,5,6,"10,5,9,13,3,2,14,1,8,7,11,12,15,4,6"
15143,commdev-image-keyboard-response,567,1432640,learnblock2,712,img/planet8_left.png,8,Community 2,NA,TRUE,f,f,NA,NA,NA,5,6,"10,5,9,13,3,2,14,1,8,7,11,12,15,4,6"
15143,commdev-image-keyboard-response,568,1433892,learnblock2,633,img/planet2_right.png,2,Community 2,NA,TRUE,j,j,NA,NA,NA,5,6,"10,5,9,13,3,2,14,1,8,7,11,12,15,4,6"
15143,commdev-image-keyboard-response,569,1435144,learnblock2,867.9999999997672,img/planet7_right.png,7,Community 2,NA,TRUE,j,j,NA,NA,NA,5,6,"10,5,9,13,3,2,14,1,8,7,11,12,15,4,6"
15143,commdev-image-keyboard-response,570,1436397,learnblock2,772,img/planet14_left.png,14,Community 2,NA,TRUE,f,f,NA,NA,NA,5,6,"10,5,9,13,3,2,14,1,8,7,11,12,15,4,6"
15143,commdev-image-keyboard-response,571,1437650,learnblock2,603,img/planet7_right.png,7,Community 2,NA,TRUE,j,j,NA,NA,NA,5,6,"10,5,9,13,3,2,14,1,8,7,11,12,15,4,6"
15143,commdev-image-keyboard-response,572,1438902,learnblock2,838,img/planet14_left.png,14,Community 2,NA,TRUE,f,f,NA,NA,NA,5,6,"10,5,9,13,3,2,14,1,8,7,11,12,15,4,6"
15143,commdev-image-keyboard-response,573,1440155,learnblock2,726.9999999997672,img/planet2_left.png,2,Community 2,NA,FALSE,j,f,NA,NA,NA,5,6,"10,5,9,13,3,2,14,1,8,7,11,12,15,4,6"
15143,commdev-image-keyboard-response,574,1441408,learnblock2,705,img/planet13_left.png,13,Community 1,NA,TRUE,f,f,NA,NA,NA,5,6,"10,5,9,13,3,2,14,1,8,7,11,12,15,4,6"
15143,commdev-image-keyboard-response,575,1442661,learnblock2,661,img/planet2_left.png,2,Community 2,NA,TRUE,f,f,NA,NA,NA,5,6,"10,5,9,13,3,2,14,1,8,7,11,12,15,4,6"
15143,commdev-image-keyboard-response,576,1443914,learnblock2,640,img/planet14_left.png,14,Community 2,NA,TRUE,f,f,NA,NA,NA,5,6,"10,5,9,13,3,2,14,1,8,7,11,12,15,4,6"
15143,commdev-image-keyboard-response,577,1445168,learnblock2,599,img/planet2_left.png,2,Community 2,NA,TRUE,f,f,NA,NA,NA,5,6,"10,5,9,13,3,2,14,1,8,7,11,12,15,4,6"
15143,commdev-image-keyboard-response,578,1446421,learnblock2,967,img/planet8_left.png,8,Community 2,NA,TRUE,f,f,NA,NA,NA,5,6,"10,5,9,13,3,2,14,1,8,7,11,12,15,4,6"
15143,commdev-image-keyboard-response,579,1447674,learnblock2,796.9999999997672,img/planet14_left.png,14,Community 2,NA,TRUE,f,f,NA,NA,NA,5,6,"10,5,9,13,3,2,14,1,8,7,11,12,15,4,6"
15143,commdev-image-keyboard-response,580,1448927,learnblock2,769,img/planet2_left.png,2,Community 2,NA,TRUE,f,f,NA,NA,NA,5,6,"10,5,9,13,3,2,14,1,8,7,11,12,15,4,6"
15143,commdev-image-keyboard-response,581,1450179,learnblock2,734,img/planet8_right.png,8,Community 2,NA,TRUE,j,j,NA,NA,NA,5,6,"10,5,9,13,3,2,14,1,8,7,11,12,15,4,6"
15143,commdev-image-keyboard-response,582,1451432,learnblock2,897,img/planet7_left.png,7,Community 2,NA,TRUE,f,f,NA,NA,NA,5,6,"10,5,9,13,3,2,14,1,8,7,11,12,15,4,6"
15143,commdev-image-keyboard-response,583,1452685,learnblock2,808,img/planet14_left.png,14,Community 2,NA,TRUE,f,f,NA,NA,NA,5,6,"10,5,9,13,3,2,14,1,8,7,11,12,15,4,6"
15143,commdev-image-keyboard-response,584,1453938,learnblock2,758,img/planet2_left.png,2,Community 2,NA,TRUE,f,f,NA,NA,NA,5,6,"10,5,9,13,3,2,14,1,8,7,11,12,15,4,6"
15143,commdev-image-keyboard-response,585,1455191,learnblock2,668,img/planet13_left.png,13,Community 1,NA,TRUE,f,f,NA,NA,NA,5,6,"10,5,9,13,3,2,14,1,8,7,11,12,15,4,6"
15143,commdev-image-keyboard-response,586,1456443,learnblock2,653,img/planet9_left.png,9,Community 1,NA,TRUE,f,f,NA,NA,NA,5,6,"10,5,9,13,3,2,14,1,8,7,11,12,15,4,6"
15143,commdev-image-keyboard-response,587,1457696,learnblock2,622.0000000002328,img/planet5_left.png,5,Community 1,NA,TRUE,f,f,NA,NA,NA,5,6,"10,5,9,13,3,2,14,1,8,7,11,12,15,4,6"
15143,commdev-image-keyboard-response,588,1458948,learnblock2,612,img/planet10_left.png,10,Community 1,NA,TRUE,f,f,NA,NA,NA,5,6,"10,5,9,13,3,2,14,1,8,7,11,12,15,4,6"
15143,commdev-image-keyboard-response,589,1460201,learnblock2,572,img/planet5_right.png,5,Community 1,NA,FALSE,f,j,NA,NA,NA,5,6,"10,5,9,13,3,2,14,1,8,7,11,12,15,4,6"
15143,commdev-image-keyboard-response,590,1461454,learnblock2,656,img/planet9_right.png,9,Community 1,NA,TRUE,j,j,NA,NA,NA,5,6,"10,5,9,13,3,2,14,1,8,7,11,12,15,4,6"
15143,commdev-image-keyboard-response,591,1462706,learnblock2,429.00000000023283,img/planet10_right.png,10,Community 1,NA,TRUE,j,j,NA,NA,NA,5,6,"10,5,9,13,3,2,14,1,8,7,11,12,15,4,6"
15143,commdev-image-keyboard-response,592,1463959,learnblock2,507,img/planet13_right.png,13,Community 1,NA,TRUE,j,j,NA,NA,NA,5,6,"10,5,9,13,3,2,14,1,8,7,11,12,15,4,6"
15143,commdev-image-keyboard-response,593,1465212,learnblock2,569,img/planet10_right.png,10,Community 1,NA,TRUE,j,j,NA,NA,NA,5,6,"10,5,9,13,3,2,14,1,8,7,11,12,15,4,6"
15143,commdev-image-keyboard-response,594,1466464,learnblock2,738,img/planet5_left.png,5,Community 1,NA,TRUE,f,f,NA,NA,NA,5,6,"10,5,9,13,3,2,14,1,8,7,11,12,15,4,6"
15143,commdev-image-keyboard-response,595,1467717,learnblock2,648,img/planet13_left.png,13,Community 1,NA,TRUE,f,f,NA,NA,NA,5,6,"10,5,9,13,3,2,14,1,8,7,11,12,15,4,6"
15143,commdev-image-keyboard-response,596,1468970,learnblock2,481,img/planet9_left.png,9,Community 1,NA,TRUE,f,f,NA,NA,NA,5,6,"10,5,9,13,3,2,14,1,8,7,11,12,15,4,6"
15143,commdev-image-keyboard-response,597,1470222,learnblock2,790.9999999997672,img/planet3_left.png,3,Community 1,NA,TRUE,f,f,NA,NA,NA,5,6,"10,5,9,13,3,2,14,1,8,7,11,12,15,4,6"
15143,commdev-image-keyboard-response,598,1471475,learnblock2,639,img/planet5_left.png,5,Community 1,NA,TRUE,f,f,NA,NA,NA,5,6,"10,5,9,13,3,2,14,1,8,7,11,12,15,4,6"
15143,commdev-image-keyboard-response,599,1472728,learnblock2,628,img/planet3_left.png,3,Community 1,NA,TRUE,f,f,NA,NA,NA,5,6,"10,5,9,13,3,2,14,1,8,7,11,12,15,4,6"
15143,commdev-image-keyboard-response,600,1473980,learnblock2,724,img/planet9_right.png,9,Community 1,NA,TRUE,j,j,NA,NA,NA,5,6,"10,5,9,13,3,2,14,1,8,7,11,12,15,4,6"
15143,commdev-image-keyboard-response,601,1475233,learnblock2,863,img/planet5_left.png,5,Community 1,NA,TRUE,f,f,NA,NA,NA,5,6,"10,5,9,13,3,2,14,1,8,7,11,12,15,4,6"
15143,commdev-image-keyboard-response,602,1476486,learnblock2,773,img/planet13_left.png,13,Community 1,NA,TRUE,f,f,NA,NA,NA,5,6,"10,5,9,13,3,2,14,1,8,7,11,12,15,4,6"
15143,commdev-image-keyboard-response,603,1477738,learnblock2,697,img/planet2_right.png,2,Community 2,NA,TRUE,j,j,NA,NA,NA,5,6,"10,5,9,13,3,2,14,1,8,7,11,12,15,4,6"
15143,commdev-image-keyboard-response,604,1478991,learnblock2,930.9999999997672,img/planet13_left.png,13,Community 1,NA,TRUE,f,f,NA,NA,NA,5,6,"10,5,9,13,3,2,14,1,8,7,11,12,15,4,6"
15143,commdev-image-keyboard-response,605,1480244,learnblock2,807,img/planet10_left.png,10,Community 1,NA,TRUE,f,f,NA,NA,NA,5,6,"10,5,9,13,3,2,14,1,8,7,11,12,15,4,6"
15143,commdev-image-keyboard-response,606,1481497,learnblock2,655,img/planet3_left.png,3,Community 1,NA,TRUE,f,f,NA,NA,NA,5,6,"10,5,9,13,3,2,14,1,8,7,11,12,15,4,6"
15143,commdev-image-keyboard-response,607,1482749,learnblock2,636.0000000002328,img/planet10_right.png,10,Community 1,NA,TRUE,j,j,NA,NA,NA,5,6,"10,5,9,13,3,2,14,1,8,7,11,12,15,4,6"
15143,commdev-image-keyboard-response,608,1484002,learnblock2,838,img/planet9_right.png,9,Community 1,NA,TRUE,j,j,NA,NA,NA,5,6,"10,5,9,13,3,2,14,1,8,7,11,12,15,4,6"
15143,commdev-image-keyboard-response,609,1485255,learnblock2,891,img/planet5_left.png,5,Community 1,NA,TRUE,f,f,NA,NA,NA,5,6,"10,5,9,13,3,2,14,1,8,7,11,12,15,4,6"
15143,commdev-image-keyboard-response,610,1486508,learnblock2,704,img/planet10_left.png,10,Community 1,NA,TRUE,f,f,NA,NA,NA,5,6,"10,5,9,13,3,2,14,1,8,7,11,12,15,4,6"
15143,commdev-image-keyboard-response,611,1487760,learnblock2,677.9999999997672,img/planet9_right.png,9,Community 1,NA,TRUE,j,j,NA,NA,NA,5,6,"10,5,9,13,3,2,14,1,8,7,11,12,15,4,6"
15143,commdev-image-keyboard-response,612,1489013,learnblock2,1051,img/planet3_right.png,3,Community 1,NA,TRUE,j,j,NA,NA,NA,5,6,"10,5,9,13,3,2,14,1,8,7,11,12,15,4,6"
15143,commdev-image-keyboard-response,613,1490266,learnblock2,665,img/planet11_right.png,11,Community 3,NA,TRUE,j,j,NA,NA,NA,5,6,"10,5,9,13,3,2,14,1,8,7,11,12,15,4,6"
15143,commdev-image-keyboard-response,614,1491519,learnblock2,679,img/planet4_right.png,4,Community 3,NA,TRUE,j,j,NA,NA,NA,5,6,"10,5,9,13,3,2,14,1,8,7,11,12,15,4,6"
15143,commdev-image-keyboard-response,615,1492771,learnblock2,479.00000000023283,img/planet11_left.png,11,Community 3,NA,TRUE,f,f,NA,NA,NA,5,6,"10,5,9,13,3,2,14,1,8,7,11,12,15,4,6"
15143,commdev-image-keyboard-response,616,1494024,learnblock2,663,img/planet6_right.png,6,Community 3,NA,TRUE,j,j,NA,NA,NA,5,6,"10,5,9,13,3,2,14,1,8,7,11,12,15,4,6"
15143,commdev-image-keyboard-response,617,1495277,learnblock2,637,img/planet4_right.png,4,Community 3,NA,TRUE,j,j,NA,NA,NA,5,6,"10,5,9,13,3,2,14,1,8,7,11,12,15,4,6"
15143,commdev-image-keyboard-response,618,1496530,learnblock2,504.99999999976717,img/planet15_left.png,15,Community 3,NA,TRUE,f,f,NA,NA,NA,5,6,"10,5,9,13,3,2,14,1,8,7,11,12,15,4,6"
15143,commdev-image-keyboard-response,619,1497782,learnblock2,634,img/planet4_right.png,4,Community 3,NA,TRUE,j,j,NA,NA,NA,5,6,"10,5,9,13,3,2,14,1,8,7,11,12,15,4,6"
15143,commdev-image-keyboard-response,620,1499035,learnblock2,299,img/planet15_left.png,15,Community 3,NA,TRUE,f,f,NA,NA,NA,5,6,"10,5,9,13,3,2,14,1,8,7,11,12,15,4,6"
15143,commdev-image-keyboard-response,621,1500288,learnblock2,408,img/planet4_right.png,4,Community 3,NA,TRUE,j,j,NA,NA,NA,5,6,"10,5,9,13,3,2,14,1,8,7,11,12,15,4,6"
15143,commdev-image-keyboard-response,622,1501540,learnblock2,377,img/planet15_right.png,15,Community 3,NA,FALSE,f,j,NA,NA,NA,5,6,"10,5,9,13,3,2,14,1,8,7,11,12,15,4,6"
15143,commdev-image-keyboard-response,623,1502792,learnblock2,478,img/planet11_right.png,11,Community 3,NA,TRUE,j,j,NA,NA,NA,5,6,"10,5,9,13,3,2,14,1,8,7,11,12,15,4,6"
15143,commdev-image-keyboard-response,624,1504045,learnblock2,569,img/planet4_left.png,4,Community 3,NA,TRUE,f,f,NA,NA,NA,5,6,"10,5,9,13,3,2,14,1,8,7,11,12,15,4,6"
15143,commdev-image-keyboard-response,625,1505298,learnblock2,593,img/planet11_right.png,11,Community 3,NA,TRUE,j,j,NA,NA,NA,5,6,"10,5,9,13,3,2,14,1,8,7,11,12,15,4,6"
15143,commdev-image-keyboard-response,626,1506551,learnblock2,480,img/planet15_left.png,15,Community 3,NA,TRUE,f,f,NA,NA,NA,5,6,"10,5,9,13,3,2,14,1,8,7,11,12,15,4,6"
15143,commdev-image-keyboard-response,627,1507803,learnblock2,825,img/planet12_left.png,12,Community 3,NA,TRUE,f,f,NA,NA,NA,5,6,"10,5,9,13,3,2,14,1,8,7,11,12,15,4,6"
15143,commdev-image-keyboard-response,628,1509056,learnblock2,962,img/planet4_left.png,4,Community 3,NA,TRUE,f,f,NA,NA,NA,5,6,"10,5,9,13,3,2,14,1,8,7,11,12,15,4,6"
15143,commdev-image-keyboard-response,629,1510309,learnblock2,640.9999999997672,img/planet11_right.png,11,Community 3,NA,TRUE,j,j,NA,NA,NA,5,6,"10,5,9,13,3,2,14,1,8,7,11,12,15,4,6"
15143,commdev-image-keyboard-response,630,1511561,learnblock2,616,img/planet3_right.png,3,Community 1,NA,TRUE,j,j,NA,NA,NA,5,6,"10,5,9,13,3,2,14,1,8,7,11,12,15,4,6"
15143,commdev-image-keyboard-response,631,1512814,learnblock2,920,img/planet9_right.png,9,Community 1,NA,TRUE,j,j,NA,NA,NA,5,6,"10,5,9,13,3,2,14,1,8,7,11,12,15,4,6"
15143,commdev-image-keyboard-response,632,1514067,learnblock2,696,img/planet5_right.png,5,Community 1,NA,TRUE,j,j,NA,NA,NA,5,6,"10,5,9,13,3,2,14,1,8,7,11,12,15,4,6"
15143,commdev-image-keyboard-response,633,1515320,learnblock2,827,img/planet3_left.png,3,Community 1,NA,TRUE,f,f,NA,NA,NA,5,6,"10,5,9,13,3,2,14,1,8,7,11,12,15,4,6"
15143,commdev-image-keyboard-response,634,1516573,learnblock2,801,img/planet5_left.png,5,Community 1,NA,TRUE,f,f,NA,NA,NA,5,6,"10,5,9,13,3,2,14,1,8,7,11,12,15,4,6"
15143,commdev-image-keyboard-response,635,1517824,learnblock2,null,img/planet13_left.png,13,Community 1,NA,FALSE,null,f,NA,NA,NA,5,6,"10,5,9,13,3,2,14,1,8,7,11,12,15,4,6"
15143,commdev-image-keyboard-response,636,1519077,learnblock2,68.99999999976717,img/planet5_left.png,5,Community 1,NA,FALSE,j,f,NA,NA,NA,5,6,"10,5,9,13,3,2,14,1,8,7,11,12,15,4,6"
15143,commdev-image-keyboard-response,637,1520330,learnblock2,672,img/planet13_left.png,13,Community 1,NA,TRUE,f,f,NA,NA,NA,5,6,"10,5,9,13,3,2,14,1,8,7,11,12,15,4,6"
15143,commdev-image-keyboard-response,638,1521583,learnblock2,537,img/planet9_left.png,9,Community 1,NA,TRUE,f,f,NA,NA,NA,5,6,"10,5,9,13,3,2,14,1,8,7,11,12,15,4,6"
15143,commdev-image-keyboard-response,639,1522836,learnblock2,792,img/planet13_right.png,13,Community 1,NA,TRUE,j,j,NA,NA,NA,5,6,"10,5,9,13,3,2,14,1,8,7,11,12,15,4,6"
15143,commdev-image-keyboard-response,640,1524088,learnblock2,631,img/planet10_left.png,10,Community 1,NA,TRUE,f,f,NA,NA,NA,5,6,"10,5,9,13,3,2,14,1,8,7,11,12,15,4,6"
15143,commdev-image-keyboard-response,641,1525340,learnblock2,767,img/planet9_right.png,9,Community 1,NA,TRUE,j,j,NA,NA,NA,5,6,"10,5,9,13,3,2,14,1,8,7,11,12,15,4,6"
15143,commdev-image-keyboard-response,642,1526593,learnblock2,771,img/planet5_left.png,5,Community 1,NA,TRUE,f,f,NA,NA,NA,5,6,"10,5,9,13,3,2,14,1,8,7,11,12,15,4,6"
15143,commdev-image-keyboard-response,643,1527845,learnblock2,831,img/planet13_right.png,13,Community 1,NA,TRUE,j,j,NA,NA,NA,5,6,"10,5,9,13,3,2,14,1,8,7,11,12,15,4,6"
15143,commdev-image-keyboard-response,644,1529098,learnblock2,981,img/planet10_left.png,10,Community 1,NA,TRUE,f,f,NA,NA,NA,5,6,"10,5,9,13,3,2,14,1,8,7,11,12,15,4,6"
15143,commdev-image-keyboard-response,645,1530351,learnblock2,1119,img/planet3_left.png,3,Community 1,NA,TRUE,f,f,NA,NA,NA,5,6,"10,5,9,13,3,2,14,1,8,7,11,12,15,4,6"
15143,commdev-image-keyboard-response,646,1531603,learnblock2,538,img/planet11_right.png,11,Community 3,NA,TRUE,j,j,NA,NA,NA,5,6,"10,5,9,13,3,2,14,1,8,7,11,12,15,4,6"
15143,commdev-image-keyboard-response,647,1532856,learnblock2,1005,img/planet4_left.png,4,Community 3,NA,TRUE,f,f,NA,NA,NA,5,6,"10,5,9,13,3,2,14,1,8,7,11,12,15,4,6"
15143,commdev-image-keyboard-response,648,1534109,learnblock2,625,img/planet12_right.png,12,Community 3,NA,TRUE,j,j,NA,NA,NA,5,6,"10,5,9,13,3,2,14,1,8,7,11,12,15,4,6"
15143,commdev-image-keyboard-response,649,1535361,learnblock2,564,img/planet6_left.png,6,Community 3,NA,TRUE,f,f,NA,NA,NA,5,6,"10,5,9,13,3,2,14,1,8,7,11,12,15,4,6"
15143,commdev-image-keyboard-response,650,1536614,learnblock2,575,img/planet15_left.png,15,Community 3,NA,TRUE,f,f,NA,NA,NA,5,6,"10,5,9,13,3,2,14,1,8,7,11,12,15,4,6"
15143,commdev-image-keyboard-response,651,1537867,learnblock2,718.9999999997672,img/planet6_left.png,6,Community 3,NA,TRUE,f,f,NA,NA,NA,5,6,"10,5,9,13,3,2,14,1,8,7,11,12,15,4,6"
15143,commdev-image-keyboard-response,652,1539119,learnblock2,731,img/planet4_right.png,4,Community 3,NA,TRUE,j,j,NA,NA,NA,5,6,"10,5,9,13,3,2,14,1,8,7,11,12,15,4,6"
15143,commdev-image-keyboard-response,653,1540372,learnblock2,579,img/planet15_right.png,15,Community 3,NA,TRUE,j,j,NA,NA,NA,5,6,"10,5,9,13,3,2,14,1,8,7,11,12,15,4,6"
15143,commdev-image-keyboard-response,654,1541625,learnblock2,771,img/planet11_right.png,11,Community 3,NA,TRUE,j,j,NA,NA,NA,5,6,"10,5,9,13,3,2,14,1,8,7,11,12,15,4,6"
15143,commdev-image-keyboard-response,655,1542878,learnblock2,889,img/planet15_left.png,15,Community 3,NA,TRUE,f,f,NA,NA,NA,5,6,"10,5,9,13,3,2,14,1,8,7,11,12,15,4,6"
15143,commdev-image-keyboard-response,656,1544131,learnblock2,801,img/planet4_left.png,4,Community 3,NA,FALSE,j,f,NA,NA,NA,5,6,"10,5,9,13,3,2,14,1,8,7,11,12,15,4,6"
15143,commdev-image-keyboard-response,657,1545383,learnblock2,847,img/planet15_left.png,15,Community 3,NA,TRUE,f,f,NA,NA,NA,5,6,"10,5,9,13,3,2,14,1,8,7,11,12,15,4,6"
15143,commdev-image-keyboard-response,658,1546636,learnblock2,447.99999999976717,img/planet11_right.png,11,Community 3,NA,FALSE,f,j,NA,NA,NA,5,6,"10,5,9,13,3,2,14,1,8,7,11,12,15,4,6"
15143,commdev-image-keyboard-response,659,1547889,learnblock2,610,img/planet15_left.png,15,Community 3,NA,TRUE,f,f,NA,NA,NA,5,6,"10,5,9,13,3,2,14,1,8,7,11,12,15,4,6"
15143,commdev-image-keyboard-response,660,1549141,learnblock2,502,img/planet6_right.png,6,Community 3,NA,TRUE,j,j,NA,NA,NA,5,6,"10,5,9,13,3,2,14,1,8,7,11,12,15,4,6"
15143,commdev-image-keyboard-response,661,1550394,learnblock2,557,img/planet4_right.png,4,Community 3,NA,TRUE,j,j,NA,NA,NA,5,6,"10,5,9,13,3,2,14,1,8,7,11,12,15,4,6"
15143,commdev-image-keyboard-response,662,1551647,learnblock2,680,img/planet12_right.png,12,Community 3,NA,TRUE,j,j,NA,NA,NA,5,6,"10,5,9,13,3,2,14,1,8,7,11,12,15,4,6"
15143,commdev-image-keyboard-response,663,1552899,learnblock2,926,img/planet1_left.png,1,Community 2,NA,FALSE,j,f,NA,NA,NA,5,6,"10,5,9,13,3,2,14,1,8,7,11,12,15,4,6"
15143,commdev-image-keyboard-response,664,1554152,learnblock2,706,img/planet12_left.png,12,Community 3,NA,TRUE,f,f,NA,NA,NA,5,6,"10,5,9,13,3,2,14,1,8,7,11,12,15,4,6"
15143,commdev-image-keyboard-response,665,1555404,learnblock2,663,img/planet1_right.png,1,Community 2,NA,TRUE,j,j,NA,NA,NA,5,6,"10,5,9,13,3,2,14,1,8,7,11,12,15,4,6"
15143,commdev-image-keyboard-response,666,1556657,learnblock2,557,img/planet14_left.png,14,Community 2,NA,TRUE,f,f,NA,NA,NA,5,6,"10,5,9,13,3,2,14,1,8,7,11,12,15,4,6"
15143,commdev-image-keyboard-response,667,1557910,learnblock2,924,img/planet7_right.png,7,Community 2,NA,TRUE,j,j,NA,NA,NA,5,6,"10,5,9,13,3,2,14,1,8,7,11,12,15,4,6"
15143,commdev-image-keyboard-response,668,1559163,learnblock2,617.0000000002328,img/planet2_right.png,2,Community 2,NA,TRUE,j,j,NA,NA,NA,5,6,"10,5,9,13,3,2,14,1,8,7,11,12,15,4,6"
15143,commdev-image-keyboard-response,669,1560416,learnblock2,883.0000000002328,img/planet13_left.png,13,Community 1,NA,TRUE,f,f,NA,NA,NA,5,6,"10,5,9,13,3,2,14,1,8,7,11,12,15,4,6"
15143,commdev-image-keyboard-response,670,1561668,learnblock2,667,img/planet9_right.png,9,Community 1,NA,TRUE,j,j,NA,NA,NA,5,6,"10,5,9,13,3,2,14,1,8,7,11,12,15,4,6"
15143,commdev-image-keyboard-response,671,1562921,learnblock2,589,img/planet5_left.png,5,Community 1,NA,TRUE,f,f,NA,NA,NA,5,6,"10,5,9,13,3,2,14,1,8,7,11,12,15,4,6"
15143,commdev-image-keyboard-response,672,1564174,learnblock2,808.9999999997672,img/planet3_right.png,3,Community 1,NA,TRUE,j,j,NA,NA,NA,5,6,"10,5,9,13,3,2,14,1,8,7,11,12,15,4,6"
15143,commdev-image-keyboard-response,673,1565427,learnblock2,916,img/planet9_right.png,9,Community 1,NA,TRUE,j,j,NA,NA,NA,5,6,"10,5,9,13,3,2,14,1,8,7,11,12,15,4,6"
15143,commdev-image-keyboard-response,674,1566680,learnblock2,880,img/planet3_right.png,3,Community 1,NA,TRUE,j,j,NA,NA,NA,5,6,"10,5,9,13,3,2,14,1,8,7,11,12,15,4,6"
15143,commdev-image-keyboard-response,675,1567933,learnblock2,866.0000000002328,img/planet11_right.png,11,Community 3,NA,TRUE,j,j,NA,NA,NA,5,6,"10,5,9,13,3,2,14,1,8,7,11,12,15,4,6"
15143,commdev-image-keyboard-response,676,1569185,learnblock2,852,img/planet6_left.png,6,Community 3,NA,TRUE,f,f,NA,NA,NA,5,6,"10,5,9,13,3,2,14,1,8,7,11,12,15,4,6"
15143,commdev-image-keyboard-response,677,1570437,learnblock2,605,img/planet15_left.png,15,Community 3,NA,TRUE,f,f,NA,NA,NA,5,6,"10,5,9,13,3,2,14,1,8,7,11,12,15,4,6"
15143,commdev-image-keyboard-response,678,1571690,learnblock2,768,img/planet6_right.png,6,Community 3,NA,FALSE,f,j,NA,NA,NA,5,6,"10,5,9,13,3,2,14,1,8,7,11,12,15,4,6"
15143,commdev-image-keyboard-response,679,1572943,learnblock2,714.9999999997672,img/planet11_right.png,11,Community 3,NA,TRUE,j,j,NA,NA,NA,5,6,"10,5,9,13,3,2,14,1,8,7,11,12,15,4,6"
15143,commdev-image-keyboard-response,680,1574196,learnblock2,799,img/planet3_right.png,3,Community 1,NA,TRUE,j,j,NA,NA,NA,5,6,"10,5,9,13,3,2,14,1,8,7,11,12,15,4,6"
15143,commdev-image-keyboard-response,681,1575451,learnblock2,576,img/planet11_right.png,11,Community 3,NA,TRUE,j,j,NA,NA,NA,5,6,"10,5,9,13,3,2,14,1,8,7,11,12,15,4,6"
15143,commdev-image-keyboard-response,682,1576704,learnblock2,567,img/planet15_right.png,15,Community 3,NA,TRUE,j,j,NA,NA,NA,5,6,"10,5,9,13,3,2,14,1,8,7,11,12,15,4,6"
15143,commdev-image-keyboard-response,683,1577957,learnblock2,411,img/planet11_right.png,11,Community 3,NA,TRUE,j,j,NA,NA,NA,5,6,"10,5,9,13,3,2,14,1,8,7,11,12,15,4,6"
15143,commdev-image-keyboard-response,684,1579210,learnblock2,577,img/planet6_left.png,6,Community 3,NA,TRUE,f,f,NA,NA,NA,5,6,"10,5,9,13,3,2,14,1,8,7,11,12,15,4,6"
15143,commdev-image-keyboard-response,685,1580463,learnblock2,491.99999999976717,img/planet4_right.png,4,Community 3,NA,FALSE,f,j,NA,NA,NA,5,6,"10,5,9,13,3,2,14,1,8,7,11,12,15,4,6"
15143,commdev-image-keyboard-response,686,1581716,learnblock2,701,img/planet12_right.png,12,Community 3,NA,TRUE,j,j,NA,NA,NA,5,6,"10,5,9,13,3,2,14,1,8,7,11,12,15,4,6"
15143,commdev-image-keyboard-response,687,1582969,learnblock2,708,img/planet4_left.png,4,Community 3,NA,TRUE,f,f,NA,NA,NA,5,6,"10,5,9,13,3,2,14,1,8,7,11,12,15,4,6"
15143,commdev-image-keyboard-response,688,1584222,learnblock2,559.9999999997672,img/planet12_left.png,12,Community 3,NA,FALSE,j,f,NA,NA,NA,5,6,"10,5,9,13,3,2,14,1,8,7,11,12,15,4,6"
15143,commdev-image-keyboard-response,689,1585476,learnblock2,576,img/planet1_right.png,1,Community 2,NA,TRUE,j,j,NA,NA,NA,5,6,"10,5,9,13,3,2,14,1,8,7,11,12,15,4,6"
15143,commdev-image-keyboard-response,690,1586729,learnblock2,541.0000000002328,img/planet14_left.png,14,Community 2,NA,TRUE,f,f,NA,NA,NA,5,6,"10,5,9,13,3,2,14,1,8,7,11,12,15,4,6"
15143,commdev-image-keyboard-response,691,1587981,learnblock2,587,img/planet2_right.png,2,Community 2,NA,TRUE,j,j,NA,NA,NA,5,6,"10,5,9,13,3,2,14,1,8,7,11,12,15,4,6"
15143,commdev-image-keyboard-response,692,1589234,learnblock2,625,img/planet14_right.png,14,Community 2,NA,TRUE,j,j,NA,NA,NA,5,6,"10,5,9,13,3,2,14,1,8,7,11,12,15,4,6"
15143,commdev-image-keyboard-response,693,1590487,learnblock2,737,img/planet8_right.png,8,Community 2,NA,TRUE,j,j,NA,NA,NA,5,6,"10,5,9,13,3,2,14,1,8,7,11,12,15,4,6"
15143,commdev-image-keyboard-response,694,1591739,learnblock2,609,img/planet2_left.png,2,Community 2,NA,TRUE,f,f,NA,NA,NA,5,6,"10,5,9,13,3,2,14,1,8,7,11,12,15,4,6"
15143,commdev-image-keyboard-response,695,1592992,learnblock2,703.9999999997672,img/planet7_right.png,7,Community 2,NA,TRUE,j,j,NA,NA,NA,5,6,"10,5,9,13,3,2,14,1,8,7,11,12,15,4,6"
15143,commdev-image-keyboard-response,696,1594244,learnblock2,974,img/planet1_right.png,1,Community 2,NA,TRUE,j,j,NA,NA,NA,5,6,"10,5,9,13,3,2,14,1,8,7,11,12,15,4,6"
15143,commdev-image-keyboard-response,697,1595497,learnblock2,653,img/planet14_right.png,14,Community 2,NA,FALSE,f,j,NA,NA,NA,5,6,"10,5,9,13,3,2,14,1,8,7,11,12,15,4,6"
