subject_id,trial_type,trial_index,time_elapsed,block,rt,stimulus,planet,community,response,correct,key_press,learning_correct_response,parse,init_locations,final_locations,browser_interactions,num_comp,planet_map
14415,commdev-instructions,7,31478,NA,1699.8999999761581,"<p>In this game, you will be shown a 3x3 grid of patterns.</p> <p>The last one in the bottom right-hand corner, <strong>will be missing:</strong></p> <div style='width: 700px;'><div style='float: top;'><img style='width: 200px;' src='practice/p1_M1.png'></img><p class='small'>You need to select<strong> which of the four possible patterns </strong>along the bottom<strong> fits into the gap:</strong></p></div><div style='float: top;'><img style='width: 300px;' src='practice/p1_T1.png'></img></div><br>",NA,NA,NA,NA,NA,NA,NA,NA,NA,5,6,"6,5,3,2,4,13,1,14,12,15,8,7,9,11,10"
14415,commdev-instructions,8,51855,NA,1206.5,"<p>Try to be as fast and as accurate as you can be.</p> <p>If you cannot solve the puzzle then you should guess - you will not be penalised for an incorrect answer.</p> <p>The task contains a shuffled mix of easy, medium and hard puzzles.</p> <p>You will have <strong>30 seconds</strong> to complete each puzzle.</p><br>",NA,NA,NA,NA,NA,NA,NA,NA,NA,5,6,"6,5,3,2,4,13,1,14,12,15,8,7,9,11,10"
14415,commdev-instructions,15,77730,NA,1170.8999999761581,<p><strong>Success!</strong></p> <p>You seem to be getting the hang of this...</p> <p>Let's move on to the real trials.</p><br>,NA,NA,NA,NA,NA,NA,NA,NA,NA,5,6,"6,5,3,2,4,13,1,14,12,15,8,7,9,11,10"
14415,commdev-instructions,141,571975,NA,1865.1999999284744,"<p>In this game, you are a scientist on board a space shuttle. </p><p> On each mission, you will visit planets all across the universe.</p><img src=""img/controlroom.jpg"" width=300vw>",NA,NA,NA,NA,NA,NA,NA,NA,NA,5,6,"6,5,3,2,4,13,1,14,12,15,8,7,9,11,10"
14415,commdev-instructions,142,578727,NA,4676.600000023842,"<p>Here are a few planets you might see:</p><img src=""img/practice1.png"" width=200vw><img src=""img/practice2.png"" width=200vw><img src=""img/practice3.png"" width=200vw>",NA,NA,NA,NA,NA,NA,NA,NA,NA,5,6,"6,5,3,2,4,13,1,14,12,15,8,7,9,11,10"
14415,commdev-instructions,143,591442,NA,5302.399999976158,"<p>Your job as a scientist is to record which direction the winds are moving on each planet.</p><p>There are two types of wind directions:</p><img src=""img/practice1_left.png"" width=200vw><img src=""img/practice1_right.png"" width=200vw>",NA,NA,NA,NA,NA,NA,NA,NA,NA,5,6,"6,5,3,2,4,13,1,14,12,15,8,7,9,11,10"
14415,commdev-instructions,144,602140,NA,5801.5,"<p>If the winds are moving this way, press the letter <strong>F</strong> on the keyboard as fast as you can.</p><img src=""img/leftwind.png"" width=250vw>",NA,NA,NA,NA,NA,NA,NA,NA,NA,5,6,"6,5,3,2,4,13,1,14,12,15,8,7,9,11,10"
14415,commdev-instructions,145,609440,NA,2799.7999999523163,"<p>If the winds are moving this way, press the letter <strong>J</strong> on the keyboard as fast as you can.</p><img src=""img/rightwind.png"" width=350vw>",NA,NA,NA,NA,NA,NA,NA,NA,NA,5,6,"6,5,3,2,4,13,1,14,12,15,8,7,9,11,10"
14415,commdev-instructions,146,617756,NA,3886.100000023842,<p>You will have 1 second to respond. Try to respond before the time runs out!,NA,NA,NA,NA,NA,NA,NA,NA,NA,5,6,"6,5,3,2,4,13,1,14,12,15,8,7,9,11,10"
14415,commdev-instructions,147,624995,NA,1795.0999999046326,<p>The planets you will visit will look different from each other.</p><p>You should respond <strong>only</strong> based on wind direction.,NA,NA,NA,NA,NA,NA,NA,NA,NA,5,6,"6,5,3,2,4,13,1,14,12,15,8,7,9,11,10"
14415,commdev-instructions,148,632270,NA,2090.100000023842,"<p> Ready to start the practice round? </p><p> Remember, press <strong>F</strong> or <strong>J</strong> depending on the wind direction.<br><img src=""img/categorize_planet_example.png""",NA,NA,NA,NA,NA,NA,NA,NA,NA,5,6,"6,5,3,2,4,13,1,14,12,15,8,7,9,11,10"
14415,commdev-instructions,160,682876,NA,4582,"<p>Great, now try a short practice mission. </p><p> This time, you will have 1 second to respond and you won't know whether you pressed the right or wrong key for each planet.</p>",NA,NA,NA,NA,NA,NA,NA,NA,NA,5,6,"6,5,3,2,4,13,1,14,12,15,8,7,9,11,10"
14415,commdev-image-keyboard-response,161,684249,practice,613.5,img/practice2_right.png,NA,Number not found in mappings,NA,TRUE,j,j,NA,NA,NA,5,6,"6,5,3,2,4,13,1,14,12,15,8,7,9,11,10"
14415,commdev-image-keyboard-response,162,685514,practice,726.7999999523163,img/practice4_right.png,NA,Number not found in mappings,NA,TRUE,j,j,NA,NA,NA,5,6,"6,5,3,2,4,13,1,14,12,15,8,7,9,11,10"
14415,commdev-image-keyboard-response,163,686768,practice,576.6999999284744,img/practice3_left.png,NA,Number not found in mappings,NA,TRUE,f,f,NA,NA,NA,5,6,"6,5,3,2,4,13,1,14,12,15,8,7,9,11,10"
14415,commdev-image-keyboard-response,164,688024,practice,524.6999999284744,img/practice2_right.png,NA,Number not found in mappings,NA,TRUE,j,j,NA,NA,NA,5,6,"6,5,3,2,4,13,1,14,12,15,8,7,9,11,10"
14415,commdev-image-keyboard-response,165,689280,practice,682.5,img/practice1_right.png,NA,Number not found in mappings,NA,TRUE,j,j,NA,NA,NA,5,6,"6,5,3,2,4,13,1,14,12,15,8,7,9,11,10"
14415,commdev-image-keyboard-response,166,690546,practice,503.5,img/practice4_right.png,NA,Number not found in mappings,NA,TRUE,j,j,NA,NA,NA,5,6,"6,5,3,2,4,13,1,14,12,15,8,7,9,11,10"
14415,commdev-image-keyboard-response,167,691811,practice,680.5,img/practice2_right.png,NA,Number not found in mappings,NA,FALSE,f,j,NA,NA,NA,5,6,"6,5,3,2,4,13,1,14,12,15,8,7,9,11,10"
14415,commdev-image-keyboard-response,168,693077,practice,795.8999999761581,img/practice4_right.png,NA,Number not found in mappings,NA,TRUE,j,j,NA,NA,NA,5,6,"6,5,3,2,4,13,1,14,12,15,8,7,9,11,10"
14415,commdev-instructions,169,704267,NA,1633.7999999523163,"<p>Great job with the practice round.</p><p>During real missions, you won't know whether you pressed the right or wrong key for each planet.</p><p>But between missions, we will tell you how you did overall.</p>",NA,NA,NA,NA,NA,NA,NA,NA,NA,5,6,"6,5,3,2,4,13,1,14,12,15,8,7,9,11,10"
14415,commdev-instructions,170,720820,NA,8296.300000071526,<p>Try your best! You will be paid a bonus based on how many correct responses you make!</p><p>Responses that are too slow will not count toward your bonus.</p>,NA,NA,NA,NA,NA,NA,NA,NA,NA,5,6,"6,5,3,2,4,13,1,14,12,15,8,7,9,11,10"
14415,commdev-instructions,171,728182,NA,1158,"<p>You are almost ready to start the real game.</p><p> First, we are going to ask you some questions about how the game works.</p>",NA,NA,NA,NA,NA,NA,NA,NA,NA,5,6,"6,5,3,2,4,13,1,14,12,15,8,7,9,11,10"
14415,commdev-instructions,180,808667,NA,883.2000000476837,"<p> Nice work! It is now time to start the real game.<p></p>You will go on two missions to record wind directions of different planets.<p></p>Each one will take about 5 minutes. You will get to take a break between missions.<p><p> Remember, press <strong>F</strong> or <strong>J</strong> depending on the wind direction. Good luck!<br><img src=""img/categorize_planet_example.png""",NA,NA,NA,NA,NA,NA,NA,NA,NA,5,6,"6,5,3,2,4,13,1,14,12,15,8,7,9,11,10"
14415,commdev-image-keyboard-response,182,811965,learnblock1,844,img/planet5_left.png,5,Community 1,NA,TRUE,f,f,NA,NA,NA,5,6,"6,5,3,2,4,13,1,14,12,15,8,7,9,11,10"
14415,commdev-image-keyboard-response,183,813218,learnblock1,507,img/planet2_right.png,2,Community 1,NA,TRUE,j,j,NA,NA,NA,5,6,"6,5,3,2,4,13,1,14,12,15,8,7,9,11,10"
14415,commdev-image-keyboard-response,184,814470,learnblock1,897.3000000715256,img/planet6_right.png,6,Community 1,NA,TRUE,j,j,NA,NA,NA,5,6,"6,5,3,2,4,13,1,14,12,15,8,7,9,11,10"
14415,commdev-image-keyboard-response,185,815733,learnblock1,727.2000000476837,img/planet3_right.png,3,Community 1,NA,TRUE,j,j,NA,NA,NA,5,6,"6,5,3,2,4,13,1,14,12,15,8,7,9,11,10"
14415,commdev-image-keyboard-response,186,816994,learnblock1,740.1999999284744,img/planet4_right.png,4,Community 1,NA,TRUE,j,j,NA,NA,NA,5,6,"6,5,3,2,4,13,1,14,12,15,8,7,9,11,10"
14415,commdev-image-keyboard-response,187,818250,learnblock1,680.4000000953674,img/planet6_right.png,6,Community 1,NA,TRUE,j,j,NA,NA,NA,5,6,"6,5,3,2,4,13,1,14,12,15,8,7,9,11,10"
14415,commdev-image-keyboard-response,188,819506,learnblock1,779.7999999523163,img/planet5_right.png,5,Community 1,NA,TRUE,j,j,NA,NA,NA,5,6,"6,5,3,2,4,13,1,14,12,15,8,7,9,11,10"
14415,commdev-image-keyboard-response,189,820758,learnblock1,731.3999999761581,img/planet3_left.png,3,Community 1,NA,TRUE,f,f,NA,NA,NA,5,6,"6,5,3,2,4,13,1,14,12,15,8,7,9,11,10"
14415,commdev-image-keyboard-response,190,822015,learnblock1,686.1999999284744,img/planet2_left.png,2,Community 1,NA,TRUE,f,f,NA,NA,NA,5,6,"6,5,3,2,4,13,1,14,12,15,8,7,9,11,10"
14415,commdev-image-keyboard-response,191,823278,learnblock1,681.5999999046326,img/planet3_right.png,3,Community 1,NA,TRUE,j,j,NA,NA,NA,5,6,"6,5,3,2,4,13,1,14,12,15,8,7,9,11,10"
14415,commdev-image-keyboard-response,192,824543,learnblock1,631.6999999284744,img/planet5_right.png,5,Community 1,NA,TRUE,j,j,NA,NA,NA,5,6,"6,5,3,2,4,13,1,14,12,15,8,7,9,11,10"
14415,commdev-image-keyboard-response,193,825803,learnblock1,703.6000000238419,img/planet6_right.png,6,Community 1,NA,TRUE,j,j,NA,NA,NA,5,6,"6,5,3,2,4,13,1,14,12,15,8,7,9,11,10"
14415,commdev-image-keyboard-response,194,827057,learnblock1,679.5,img/planet4_left.png,4,Community 1,NA,TRUE,f,f,NA,NA,NA,5,6,"6,5,3,2,4,13,1,14,12,15,8,7,9,11,10"
14415,commdev-image-keyboard-response,195,828324,learnblock1,668.6000000238419,img/planet3_right.png,3,Community 1,NA,TRUE,j,j,NA,NA,NA,5,6,"6,5,3,2,4,13,1,14,12,15,8,7,9,11,10"
14415,commdev-image-keyboard-response,196,829585,learnblock1,530.5999999046326,img/planet5_left.png,5,Community 1,NA,TRUE,f,f,NA,NA,NA,5,6,"6,5,3,2,4,13,1,14,12,15,8,7,9,11,10"
14415,commdev-image-keyboard-response,197,830840,learnblock1,672.5,img/planet3_left.png,3,Community 1,NA,TRUE,f,f,NA,NA,NA,5,6,"6,5,3,2,4,13,1,14,12,15,8,7,9,11,10"
14415,commdev-image-keyboard-response,198,832100,learnblock1,588.5,img/planet2_right.png,2,Community 1,NA,TRUE,j,j,NA,NA,NA,5,6,"6,5,3,2,4,13,1,14,12,15,8,7,9,11,10"
14415,commdev-image-keyboard-response,199,833353,learnblock1,667,img/planet3_left.png,3,Community 1,NA,TRUE,f,f,NA,NA,NA,5,6,"6,5,3,2,4,13,1,14,12,15,8,7,9,11,10"
14415,commdev-image-keyboard-response,200,834615,learnblock1,581.6000000238419,img/planet6_left.png,6,Community 1,NA,TRUE,f,f,NA,NA,NA,5,6,"6,5,3,2,4,13,1,14,12,15,8,7,9,11,10"
14415,commdev-image-keyboard-response,201,835867,learnblock1,550.2000000476837,img/planet5_right.png,5,Community 1,NA,TRUE,j,j,NA,NA,NA,5,6,"6,5,3,2,4,13,1,14,12,15,8,7,9,11,10"
14415,commdev-image-keyboard-response,202,837132,learnblock1,641.8999999761581,img/planet2_left.png,2,Community 1,NA,FALSE,j,f,NA,NA,NA,5,6,"6,5,3,2,4,13,1,14,12,15,8,7,9,11,10"
14415,commdev-image-keyboard-response,203,838394,learnblock1,811.1999999284744,img/planet6_left.png,6,Community 1,NA,TRUE,f,f,NA,NA,NA,5,6,"6,5,3,2,4,13,1,14,12,15,8,7,9,11,10"
14415,commdev-image-keyboard-response,204,839649,learnblock1,732.7000000476837,img/planet4_left.png,4,Community 1,NA,TRUE,f,f,NA,NA,NA,5,6,"6,5,3,2,4,13,1,14,12,15,8,7,9,11,10"
14415,commdev-image-keyboard-response,205,840910,learnblock1,808.6000000238419,img/planet6_left.png,6,Community 1,NA,TRUE,f,f,NA,NA,NA,5,6,"6,5,3,2,4,13,1,14,12,15,8,7,9,11,10"
14415,commdev-image-keyboard-response,206,842173,learnblock1,674.7999999523163,img/planet3_right.png,3,Community 1,NA,TRUE,j,j,NA,NA,NA,5,6,"6,5,3,2,4,13,1,14,12,15,8,7,9,11,10"
14415,commdev-image-keyboard-response,207,843430,learnblock1,746.1000000238419,img/planet6_left.png,6,Community 1,NA,TRUE,f,f,NA,NA,NA,5,6,"6,5,3,2,4,13,1,14,12,15,8,7,9,11,10"
14415,commdev-image-keyboard-response,208,844695,learnblock1,621.1999999284744,img/planet5_left.png,5,Community 1,NA,TRUE,f,f,NA,NA,NA,5,6,"6,5,3,2,4,13,1,14,12,15,8,7,9,11,10"
14415,commdev-image-keyboard-response,209,845961,learnblock1,525.1000000238419,img/planet4_right.png,4,Community 1,NA,TRUE,j,j,NA,NA,NA,5,6,"6,5,3,2,4,13,1,14,12,15,8,7,9,11,10"
14415,commdev-image-keyboard-response,210,847230,learnblock1,588.3999999761581,img/planet3_left.png,3,Community 1,NA,TRUE,f,f,NA,NA,NA,5,6,"6,5,3,2,4,13,1,14,12,15,8,7,9,11,10"
14415,commdev-image-keyboard-response,211,848484,learnblock1,559.2000000476837,img/planet4_right.png,4,Community 1,NA,TRUE,j,j,NA,NA,NA,5,6,"6,5,3,2,4,13,1,14,12,15,8,7,9,11,10"
14415,commdev-image-keyboard-response,212,849738,learnblock1,538.2000000476837,img/planet6_left.png,6,Community 1,NA,TRUE,f,f,NA,NA,NA,5,6,"6,5,3,2,4,13,1,14,12,15,8,7,9,11,10"
14415,commdev-image-keyboard-response,213,850990,learnblock1,614.5,img/planet5_right.png,5,Community 1,NA,TRUE,j,j,NA,NA,NA,5,6,"6,5,3,2,4,13,1,14,12,15,8,7,9,11,10"
14415,commdev-image-keyboard-response,214,852252,learnblock1,510.10000002384186,img/planet6_right.png,6,Community 1,NA,FALSE,f,j,NA,NA,NA,5,6,"6,5,3,2,4,13,1,14,12,15,8,7,9,11,10"
14415,commdev-image-keyboard-response,215,853512,learnblock1,813.6999999284744,img/planet3_right.png,3,Community 1,NA,TRUE,j,j,NA,NA,NA,5,6,"6,5,3,2,4,13,1,14,12,15,8,7,9,11,10"
14415,commdev-image-keyboard-response,216,854763,learnblock1,587.7999999523163,img/planet6_left.png,6,Community 1,NA,TRUE,f,f,NA,NA,NA,5,6,"6,5,3,2,4,13,1,14,12,15,8,7,9,11,10"
14415,commdev-image-keyboard-response,217,856019,learnblock1,686.1000000238419,img/planet4_left.png,4,Community 1,NA,TRUE,f,f,NA,NA,NA,5,6,"6,5,3,2,4,13,1,14,12,15,8,7,9,11,10"
14415,commdev-image-keyboard-response,218,857273,learnblock1,597.7999999523163,img/planet3_right.png,3,Community 1,NA,TRUE,j,j,NA,NA,NA,5,6,"6,5,3,2,4,13,1,14,12,15,8,7,9,11,10"
14415,commdev-image-keyboard-response,219,858527,learnblock1,578.6999999284744,img/planet2_right.png,2,Community 1,NA,TRUE,j,j,NA,NA,NA,5,6,"6,5,3,2,4,13,1,14,12,15,8,7,9,11,10"
14415,commdev-image-keyboard-response,220,859780,learnblock1,601.6000000238419,img/planet5_left.png,5,Community 1,NA,TRUE,f,f,NA,NA,NA,5,6,"6,5,3,2,4,13,1,14,12,15,8,7,9,11,10"
14415,commdev-image-keyboard-response,221,861045,learnblock1,617.7999999523163,img/planet2_left.png,2,Community 1,NA,TRUE,f,f,NA,NA,NA,5,6,"6,5,3,2,4,13,1,14,12,15,8,7,9,11,10"
14415,commdev-image-keyboard-response,222,862309,learnblock1,501.2000000476837,img/planet3_left.png,3,Community 1,NA,TRUE,f,f,NA,NA,NA,5,6,"6,5,3,2,4,13,1,14,12,15,8,7,9,11,10"
14415,commdev-image-keyboard-response,223,863565,learnblock1,551,img/planet6_right.png,6,Community 1,NA,TRUE,j,j,NA,NA,NA,5,6,"6,5,3,2,4,13,1,14,12,15,8,7,9,11,10"
14415,commdev-image-keyboard-response,224,864822,learnblock1,517.5,img/planet4_left.png,4,Community 1,NA,TRUE,f,f,NA,NA,NA,5,6,"6,5,3,2,4,13,1,14,12,15,8,7,9,11,10"
14415,commdev-image-keyboard-response,225,866077,learnblock1,594.1000000238419,img/planet8_right.png,8,Community 3,NA,TRUE,j,j,NA,NA,NA,5,6,"6,5,3,2,4,13,1,14,12,15,8,7,9,11,10"
14415,commdev-image-keyboard-response,226,867335,learnblock1,638.1000000238419,img/planet9_left.png,9,Community 3,NA,TRUE,f,f,NA,NA,NA,5,6,"6,5,3,2,4,13,1,14,12,15,8,7,9,11,10"
14415,commdev-image-keyboard-response,227,868597,learnblock1,574.5999999046326,img/planet10_left.png,10,Community 3,NA,TRUE,f,f,NA,NA,NA,5,6,"6,5,3,2,4,13,1,14,12,15,8,7,9,11,10"
14415,commdev-image-keyboard-response,228,869849,learnblock1,660.8999999761581,img/planet9_right.png,9,Community 3,NA,TRUE,j,j,NA,NA,NA,5,6,"6,5,3,2,4,13,1,14,12,15,8,7,9,11,10"
14415,commdev-image-keyboard-response,229,871100,learnblock1,587.8999999761581,img/planet8_left.png,8,Community 3,NA,TRUE,f,f,NA,NA,NA,5,6,"6,5,3,2,4,13,1,14,12,15,8,7,9,11,10"
14415,commdev-image-keyboard-response,230,872354,learnblock1,656.3999999761581,img/planet11_left.png,11,Community 3,NA,TRUE,f,f,NA,NA,NA,5,6,"6,5,3,2,4,13,1,14,12,15,8,7,9,11,10"
14415,commdev-image-keyboard-response,231,873613,learnblock1,651.3999999761581,img/planet9_right.png,9,Community 3,NA,TRUE,j,j,NA,NA,NA,5,6,"6,5,3,2,4,13,1,14,12,15,8,7,9,11,10"
14415,commdev-image-keyboard-response,232,874878,learnblock1,815.4000000953674,img/planet11_right.png,11,Community 3,NA,TRUE,j,j,NA,NA,NA,5,6,"6,5,3,2,4,13,1,14,12,15,8,7,9,11,10"
14415,commdev-image-keyboard-response,233,876134,learnblock1,784.6000000238419,img/planet7_right.png,7,Community 3,NA,TRUE,j,j,NA,NA,NA,5,6,"6,5,3,2,4,13,1,14,12,15,8,7,9,11,10"
14415,commdev-image-keyboard-response,234,877394,learnblock1,1145.7999999523163,img/planet14_right.png,14,Community 2,NA,TRUE,j,j,NA,NA,NA,5,6,"6,5,3,2,4,13,1,14,12,15,8,7,9,11,10"
14415,commdev-image-keyboard-response,235,878648,learnblock1,779.3999999761581,img/planet15_right.png,15,Community 2,NA,TRUE,j,j,NA,NA,NA,5,6,"6,5,3,2,4,13,1,14,12,15,8,7,9,11,10"
14415,commdev-image-keyboard-response,236,879902,learnblock1,898.2000000476837,img/planet12_right.png,12,Community 2,NA,TRUE,j,j,NA,NA,NA,5,6,"6,5,3,2,4,13,1,14,12,15,8,7,9,11,10"
14415,commdev-image-keyboard-response,237,881156,learnblock1,879.2999999523163,img/planet15_right.png,15,Community 2,NA,TRUE,j,j,NA,NA,NA,5,6,"6,5,3,2,4,13,1,14,12,15,8,7,9,11,10"
14415,commdev-image-keyboard-response,238,882416,learnblock1,713.2000000476837,img/planet13_left.png,13,Community 2,NA,TRUE,f,f,NA,NA,NA,5,6,"6,5,3,2,4,13,1,14,12,15,8,7,9,11,10"
14415,commdev-image-keyboard-response,239,883668,learnblock1,878.6000000238419,img/planet12_right.png,12,Community 2,NA,TRUE,j,j,NA,NA,NA,5,6,"6,5,3,2,4,13,1,14,12,15,8,7,9,11,10"
14415,commdev-image-keyboard-response,240,884922,learnblock1,697.6000000238419,img/planet13_right.png,13,Community 2,NA,TRUE,j,j,NA,NA,NA,5,6,"6,5,3,2,4,13,1,14,12,15,8,7,9,11,10"
14415,commdev-image-keyboard-response,241,886178,learnblock1,653.8999999761581,img/planet15_left.png,15,Community 2,NA,TRUE,f,f,NA,NA,NA,5,6,"6,5,3,2,4,13,1,14,12,15,8,7,9,11,10"
14415,commdev-image-keyboard-response,242,887437,learnblock1,924.8999999761581,img/planet12_right.png,12,Community 2,NA,TRUE,j,j,NA,NA,NA,5,6,"6,5,3,2,4,13,1,14,12,15,8,7,9,11,10"
14415,commdev-image-keyboard-response,243,888691,learnblock1,862.5,img/planet13_right.png,13,Community 2,NA,FALSE,f,j,NA,NA,NA,5,6,"6,5,3,2,4,13,1,14,12,15,8,7,9,11,10"
14415,commdev-image-keyboard-response,244,889959,learnblock1,783.2999999523163,img/planet2_right.png,2,Community 1,NA,TRUE,j,j,NA,NA,NA,5,6,"6,5,3,2,4,13,1,14,12,15,8,7,9,11,10"
14415,commdev-image-keyboard-response,245,891216,learnblock1,741.7999999523163,img/planet13_left.png,13,Community 2,NA,TRUE,f,f,NA,NA,NA,5,6,"6,5,3,2,4,13,1,14,12,15,8,7,9,11,10"
14415,commdev-image-keyboard-response,246,892473,learnblock1,839.7999999523163,img/planet12_left.png,12,Community 2,NA,TRUE,f,f,NA,NA,NA,5,6,"6,5,3,2,4,13,1,14,12,15,8,7,9,11,10"
14415,commdev-image-keyboard-response,247,893729,learnblock1,990.7999999523163,img/planet14_right.png,14,Community 2,NA,TRUE,j,j,NA,NA,NA,5,6,"6,5,3,2,4,13,1,14,12,15,8,7,9,11,10"
14415,commdev-image-keyboard-response,248,894986,learnblock1,816.8000000715256,img/planet1_right.png,1,Community 2,NA,TRUE,j,j,NA,NA,NA,5,6,"6,5,3,2,4,13,1,14,12,15,8,7,9,11,10"
14415,commdev-image-keyboard-response,249,896242,learnblock1,985.8999999761581,img/planet15_right.png,15,Community 2,NA,TRUE,j,j,NA,NA,NA,5,6,"6,5,3,2,4,13,1,14,12,15,8,7,9,11,10"
14415,commdev-image-keyboard-response,250,897500,learnblock1,1070.7999999523163,img/planet13_left.png,13,Community 2,NA,TRUE,f,f,NA,NA,NA,5,6,"6,5,3,2,4,13,1,14,12,15,8,7,9,11,10"
14415,commdev-image-keyboard-response,251,898761,learnblock1,771,img/planet1_right.png,1,Community 2,NA,TRUE,j,j,NA,NA,NA,5,6,"6,5,3,2,4,13,1,14,12,15,8,7,9,11,10"
14415,commdev-image-keyboard-response,252,900017,learnblock1,668.1000000238419,img/planet14_right.png,14,Community 2,NA,TRUE,j,j,NA,NA,NA,5,6,"6,5,3,2,4,13,1,14,12,15,8,7,9,11,10"
14415,commdev-image-keyboard-response,253,901272,learnblock1,918.9000000953674,img/planet12_right.png,12,Community 2,NA,TRUE,j,j,NA,NA,NA,5,6,"6,5,3,2,4,13,1,14,12,15,8,7,9,11,10"
14415,commdev-image-keyboard-response,254,902532,learnblock1,636.9000000953674,img/planet14_right.png,14,Community 2,NA,TRUE,j,j,NA,NA,NA,5,6,"6,5,3,2,4,13,1,14,12,15,8,7,9,11,10"
14415,commdev-image-keyboard-response,255,903786,learnblock1,618.4000000953674,img/planet12_left.png,12,Community 2,NA,TRUE,f,f,NA,NA,NA,5,6,"6,5,3,2,4,13,1,14,12,15,8,7,9,11,10"
14415,commdev-image-keyboard-response,256,905042,learnblock1,653.2000000476837,img/planet13_left.png,13,Community 2,NA,TRUE,f,f,NA,NA,NA,5,6,"6,5,3,2,4,13,1,14,12,15,8,7,9,11,10"
14415,commdev-image-keyboard-response,257,906302,learnblock1,480.1999999284744,img/planet1_right.png,1,Community 2,NA,TRUE,j,j,NA,NA,NA,5,6,"6,5,3,2,4,13,1,14,12,15,8,7,9,11,10"
14415,commdev-image-keyboard-response,258,907555,learnblock1,652.0999999046326,img/planet14_left.png,14,Community 2,NA,TRUE,f,f,NA,NA,NA,5,6,"6,5,3,2,4,13,1,14,12,15,8,7,9,11,10"
14415,commdev-image-keyboard-response,259,908816,learnblock1,835.0999999046326,img/planet1_left.png,1,Community 2,NA,TRUE,f,f,NA,NA,NA,5,6,"6,5,3,2,4,13,1,14,12,15,8,7,9,11,10"
14415,commdev-image-keyboard-response,260,910073,learnblock1,875.7000000476837,img/planet15_left.png,15,Community 2,NA,TRUE,f,f,NA,NA,NA,5,6,"6,5,3,2,4,13,1,14,12,15,8,7,9,11,10"
14415,commdev-image-keyboard-response,261,911325,learnblock1,703.5999999046326,img/planet1_right.png,1,Community 2,NA,TRUE,j,j,NA,NA,NA,5,6,"6,5,3,2,4,13,1,14,12,15,8,7,9,11,10"
14415,commdev-image-keyboard-response,262,912586,learnblock1,572.3999999761581,img/planet12_left.png,12,Community 2,NA,TRUE,f,f,NA,NA,NA,5,6,"6,5,3,2,4,13,1,14,12,15,8,7,9,11,10"
14415,commdev-image-keyboard-response,263,913844,learnblock1,613.7000000476837,img/planet15_right.png,15,Community 2,NA,TRUE,j,j,NA,NA,NA,5,6,"6,5,3,2,4,13,1,14,12,15,8,7,9,11,10"
14415,commdev-image-keyboard-response,264,915097,learnblock1,515.5,img/planet1_right.png,1,Community 2,NA,FALSE,f,j,NA,NA,NA,5,6,"6,5,3,2,4,13,1,14,12,15,8,7,9,11,10"
14415,commdev-image-keyboard-response,265,916352,learnblock1,776.8999999761581,img/planet14_right.png,14,Community 2,NA,TRUE,j,j,NA,NA,NA,5,6,"6,5,3,2,4,13,1,14,12,15,8,7,9,11,10"
14415,commdev-image-keyboard-response,266,917608,learnblock1,717,img/planet7_right.png,7,Community 3,NA,TRUE,j,j,NA,NA,NA,5,6,"6,5,3,2,4,13,1,14,12,15,8,7,9,11,10"
14415,commdev-image-keyboard-response,267,918861,learnblock1,845.3000000715256,img/planet9_right.png,9,Community 3,NA,TRUE,j,j,NA,NA,NA,5,6,"6,5,3,2,4,13,1,14,12,15,8,7,9,11,10"
14415,commdev-image-keyboard-response,268,920112,learnblock1,789.6000000238419,img/planet7_right.png,7,Community 3,NA,TRUE,j,j,NA,NA,NA,5,6,"6,5,3,2,4,13,1,14,12,15,8,7,9,11,10"
14415,commdev-image-keyboard-response,269,921371,learnblock1,965.5,img/planet14_right.png,14,Community 2,NA,TRUE,j,j,NA,NA,NA,5,6,"6,5,3,2,4,13,1,14,12,15,8,7,9,11,10"
14415,commdev-image-keyboard-response,270,922629,learnblock1,805.6000000238419,img/planet15_right.png,15,Community 2,NA,TRUE,j,j,NA,NA,NA,5,6,"6,5,3,2,4,13,1,14,12,15,8,7,9,11,10"
14415,commdev-image-keyboard-response,271,923885,learnblock1,1177.0999999046326,img/planet12_right.png,12,Community 2,NA,TRUE,j,j,NA,NA,NA,5,6,"6,5,3,2,4,13,1,14,12,15,8,7,9,11,10"
14415,commdev-image-keyboard-response,272,925139,learnblock1,902.7999999523163,img/planet13_left.png,13,Community 2,NA,TRUE,f,f,NA,NA,NA,5,6,"6,5,3,2,4,13,1,14,12,15,8,7,9,11,10"
14415,commdev-image-keyboard-response,273,926393,learnblock1,686.5,img/planet12_right.png,12,Community 2,NA,TRUE,j,j,NA,NA,NA,5,6,"6,5,3,2,4,13,1,14,12,15,8,7,9,11,10"
14415,commdev-image-keyboard-response,274,927659,learnblock1,815.5,img/planet14_right.png,14,Community 2,NA,TRUE,j,j,NA,NA,NA,5,6,"6,5,3,2,4,13,1,14,12,15,8,7,9,11,10"
14415,commdev-image-keyboard-response,275,928919,learnblock1,812.7999999523163,img/planet12_right.png,12,Community 2,NA,TRUE,j,j,NA,NA,NA,5,6,"6,5,3,2,4,13,1,14,12,15,8,7,9,11,10"
14415,commdev-image-keyboard-response,276,930172,learnblock1,891.7000000476837,img/planet13_left.png,13,Community 2,NA,TRUE,f,f,NA,NA,NA,5,6,"6,5,3,2,4,13,1,14,12,15,8,7,9,11,10"
14415,commdev-image-keyboard-response,277,931424,learnblock1,830.1000000238419,img/planet1_right.png,1,Community 2,NA,TRUE,j,j,NA,NA,NA,5,6,"6,5,3,2,4,13,1,14,12,15,8,7,9,11,10"
14415,commdev-image-keyboard-response,278,932683,learnblock1,1114.3000000715256,img/planet15_right.png,15,Community 2,NA,TRUE,j,j,NA,NA,NA,5,6,"6,5,3,2,4,13,1,14,12,15,8,7,9,11,10"
14415,commdev-image-keyboard-response,279,933941,learnblock1,982.7999999523163,img/planet12_right.png,12,Community 2,NA,TRUE,j,j,NA,NA,NA,5,6,"6,5,3,2,4,13,1,14,12,15,8,7,9,11,10"
14415,commdev-image-keyboard-response,280,935200,learnblock1,947.6999999284744,img/planet1_right.png,1,Community 2,NA,TRUE,j,j,NA,NA,NA,5,6,"6,5,3,2,4,13,1,14,12,15,8,7,9,11,10"
14415,commdev-image-keyboard-response,281,936462,learnblock1,989.6000000238419,img/planet14_right.png,14,Community 2,NA,TRUE,j,j,NA,NA,NA,5,6,"6,5,3,2,4,13,1,14,12,15,8,7,9,11,10"
14415,commdev-image-keyboard-response,282,937719,learnblock1,881.3000000715256,img/planet7_left.png,7,Community 3,NA,TRUE,f,f,NA,NA,NA,5,6,"6,5,3,2,4,13,1,14,12,15,8,7,9,11,10"
14415,commdev-image-keyboard-response,283,938971,learnblock1,1089.5,img/planet11_left.png,11,Community 3,NA,TRUE,f,f,NA,NA,NA,5,6,"6,5,3,2,4,13,1,14,12,15,8,7,9,11,10"
14415,commdev-image-keyboard-response,284,940236,learnblock1,701,img/planet10_right.png,10,Community 3,NA,TRUE,j,j,NA,NA,NA,5,6,"6,5,3,2,4,13,1,14,12,15,8,7,9,11,10"
14415,commdev-image-keyboard-response,285,941504,learnblock1,805.2999999523163,img/planet11_right.png,11,Community 3,NA,TRUE,j,j,NA,NA,NA,5,6,"6,5,3,2,4,13,1,14,12,15,8,7,9,11,10"
14415,commdev-image-keyboard-response,286,942758,learnblock1,832,img/planet10_right.png,10,Community 3,NA,TRUE,j,j,NA,NA,NA,5,6,"6,5,3,2,4,13,1,14,12,15,8,7,9,11,10"
14415,commdev-image-keyboard-response,287,944012,learnblock1,706.8999999761581,img/planet9_left.png,9,Community 3,NA,TRUE,f,f,NA,NA,NA,5,6,"6,5,3,2,4,13,1,14,12,15,8,7,9,11,10"
14415,commdev-image-keyboard-response,288,945269,learnblock1,809.7000000476837,img/planet7_right.png,7,Community 3,NA,TRUE,j,j,NA,NA,NA,5,6,"6,5,3,2,4,13,1,14,12,15,8,7,9,11,10"
14415,commdev-image-keyboard-response,289,946523,learnblock1,753.6000000238419,img/planet9_right.png,9,Community 3,NA,TRUE,j,j,NA,NA,NA,5,6,"6,5,3,2,4,13,1,14,12,15,8,7,9,11,10"
14415,commdev-image-keyboard-response,290,947782,learnblock1,687.2999999523163,img/planet10_left.png,10,Community 3,NA,TRUE,f,f,NA,NA,NA,5,6,"6,5,3,2,4,13,1,14,12,15,8,7,9,11,10"
14415,commdev-image-keyboard-response,291,949047,learnblock1,835.5,img/planet7_left.png,7,Community 3,NA,TRUE,f,f,NA,NA,NA,5,6,"6,5,3,2,4,13,1,14,12,15,8,7,9,11,10"
14415,commdev-image-keyboard-response,292,950314,learnblock1,839.6999999284744,img/planet10_left.png,10,Community 3,NA,FALSE,j,f,NA,NA,NA,5,6,"6,5,3,2,4,13,1,14,12,15,8,7,9,11,10"
14415,commdev-image-keyboard-response,293,951570,learnblock1,840.7999999523163,img/planet9_left.png,9,Community 3,NA,TRUE,f,f,NA,NA,NA,5,6,"6,5,3,2,4,13,1,14,12,15,8,7,9,11,10"
14415,commdev-image-keyboard-response,294,952836,learnblock1,744.1000000238419,img/planet11_right.png,11,Community 3,NA,TRUE,j,j,NA,NA,NA,5,6,"6,5,3,2,4,13,1,14,12,15,8,7,9,11,10"
14415,commdev-image-keyboard-response,295,954094,learnblock1,708.1999999284744,img/planet9_right.png,9,Community 3,NA,TRUE,j,j,NA,NA,NA,5,6,"6,5,3,2,4,13,1,14,12,15,8,7,9,11,10"
14415,commdev-image-keyboard-response,296,955358,learnblock1,726.6000000238419,img/planet7_right.png,7,Community 3,NA,TRUE,j,j,NA,NA,NA,5,6,"6,5,3,2,4,13,1,14,12,15,8,7,9,11,10"
14415,commdev-image-keyboard-response,297,956615,learnblock1,723.6000000238419,img/planet14_left.png,14,Community 2,NA,TRUE,f,f,NA,NA,NA,5,6,"6,5,3,2,4,13,1,14,12,15,8,7,9,11,10"
14415,commdev-image-keyboard-response,298,957876,learnblock1,653.5,img/planet15_right.png,15,Community 2,NA,TRUE,j,j,NA,NA,NA,5,6,"6,5,3,2,4,13,1,14,12,15,8,7,9,11,10"
14415,commdev-image-keyboard-response,299,959139,learnblock1,815.6999999284744,img/planet13_right.png,13,Community 2,NA,TRUE,j,j,NA,NA,NA,5,6,"6,5,3,2,4,13,1,14,12,15,8,7,9,11,10"
14415,commdev-image-keyboard-response,300,960396,learnblock1,645,img/planet2_left.png,2,Community 1,NA,TRUE,f,f,NA,NA,NA,5,6,"6,5,3,2,4,13,1,14,12,15,8,7,9,11,10"
14415,commdev-image-keyboard-response,301,961654,learnblock1,609.6000000238419,img/planet6_right.png,6,Community 1,NA,TRUE,j,j,NA,NA,NA,5,6,"6,5,3,2,4,13,1,14,12,15,8,7,9,11,10"
14415,commdev-image-keyboard-response,302,962913,learnblock1,728,img/planet3_right.png,3,Community 1,NA,TRUE,j,j,NA,NA,NA,5,6,"6,5,3,2,4,13,1,14,12,15,8,7,9,11,10"
14415,commdev-image-keyboard-response,303,964169,learnblock1,1112.3999999761581,img/planet4_right.png,4,Community 1,NA,TRUE,j,j,NA,NA,NA,5,6,"6,5,3,2,4,13,1,14,12,15,8,7,9,11,10"
14415,commdev-image-keyboard-response,304,965432,learnblock1,941.6999999284744,img/planet5_right.png,5,Community 1,NA,TRUE,j,j,NA,NA,NA,5,6,"6,5,3,2,4,13,1,14,12,15,8,7,9,11,10"
14415,commdev-image-keyboard-response,305,966686,learnblock1,812.7999999523163,img/planet4_right.png,4,Community 1,NA,TRUE,j,j,NA,NA,NA,5,6,"6,5,3,2,4,13,1,14,12,15,8,7,9,11,10"
14415,commdev-image-keyboard-response,306,967950,learnblock1,671.3000000715256,img/planet3_left.png,3,Community 1,NA,TRUE,f,f,NA,NA,NA,5,6,"6,5,3,2,4,13,1,14,12,15,8,7,9,11,10"
14415,commdev-image-keyboard-response,307,969207,learnblock1,677.6999999284744,img/planet6_right.png,6,Community 1,NA,TRUE,j,j,NA,NA,NA,5,6,"6,5,3,2,4,13,1,14,12,15,8,7,9,11,10"
14415,commdev-image-keyboard-response,308,970461,learnblock1,785.3000000715256,img/planet4_left.png,4,Community 1,NA,TRUE,f,f,NA,NA,NA,5,6,"6,5,3,2,4,13,1,14,12,15,8,7,9,11,10"
14415,commdev-image-keyboard-response,309,971719,learnblock1,755,img/planet5_right.png,5,Community 1,NA,FALSE,f,j,NA,NA,NA,5,6,"6,5,3,2,4,13,1,14,12,15,8,7,9,11,10"
14415,commdev-image-keyboard-response,310,972975,learnblock1,746.1000000238419,img/planet3_left.png,3,Community 1,NA,TRUE,f,f,NA,NA,NA,5,6,"6,5,3,2,4,13,1,14,12,15,8,7,9,11,10"
14415,commdev-image-keyboard-response,311,974237,learnblock1,666.7999999523163,img/planet6_right.png,6,Community 1,NA,TRUE,j,j,NA,NA,NA,5,6,"6,5,3,2,4,13,1,14,12,15,8,7,9,11,10"
14415,commdev-image-keyboard-response,312,975497,learnblock1,899.1000000238419,img/planet3_left.png,3,Community 1,NA,TRUE,f,f,NA,NA,NA,5,6,"6,5,3,2,4,13,1,14,12,15,8,7,9,11,10"
14415,commdev-image-keyboard-response,313,976750,learnblock1,581.9000000953674,img/planet2_right.png,2,Community 1,NA,TRUE,j,j,NA,NA,NA,5,6,"6,5,3,2,4,13,1,14,12,15,8,7,9,11,10"
14415,commdev-image-keyboard-response,314,978003,learnblock1,693.7999999523163,img/planet5_left.png,5,Community 1,NA,TRUE,f,f,NA,NA,NA,5,6,"6,5,3,2,4,13,1,14,12,15,8,7,9,11,10"
14415,commdev-image-keyboard-response,315,979265,learnblock1,869,img/planet6_left.png,6,Community 1,NA,TRUE,f,f,NA,NA,NA,5,6,"6,5,3,2,4,13,1,14,12,15,8,7,9,11,10"
14415,commdev-image-keyboard-response,316,980519,learnblock1,705.8999999761581,img/planet4_right.png,4,Community 1,NA,TRUE,j,j,NA,NA,NA,5,6,"6,5,3,2,4,13,1,14,12,15,8,7,9,11,10"
14415,commdev-image-keyboard-response,317,981777,learnblock1,684.2999999523163,img/planet5_left.png,5,Community 1,NA,TRUE,f,f,NA,NA,NA,5,6,"6,5,3,2,4,13,1,14,12,15,8,7,9,11,10"
14415,commdev-image-keyboard-response,318,983029,learnblock1,661.2000000476837,img/planet2_right.png,2,Community 1,NA,TRUE,j,j,NA,NA,NA,5,6,"6,5,3,2,4,13,1,14,12,15,8,7,9,11,10"
14415,commdev-image-keyboard-response,319,984281,learnblock1,640.3000000715256,img/planet3_left.png,3,Community 1,NA,TRUE,f,f,NA,NA,NA,5,6,"6,5,3,2,4,13,1,14,12,15,8,7,9,11,10"
14415,commdev-image-keyboard-response,320,985536,learnblock1,578.8000000715256,img/planet2_left.png,2,Community 1,NA,TRUE,f,f,NA,NA,NA,5,6,"6,5,3,2,4,13,1,14,12,15,8,7,9,11,10"
14415,commdev-image-keyboard-response,321,986792,learnblock1,579.1000000238419,img/planet3_left.png,3,Community 1,NA,TRUE,f,f,NA,NA,NA,5,6,"6,5,3,2,4,13,1,14,12,15,8,7,9,11,10"
14415,commdev-image-keyboard-response,322,988050,learnblock1,524.3000000715256,img/planet6_left.png,6,Community 1,NA,TRUE,f,f,NA,NA,NA,5,6,"6,5,3,2,4,13,1,14,12,15,8,7,9,11,10"
14415,commdev-image-keyboard-response,323,989307,learnblock1,648.3999999761581,img/planet5_right.png,5,Community 1,NA,TRUE,j,j,NA,NA,NA,5,6,"6,5,3,2,4,13,1,14,12,15,8,7,9,11,10"
14415,commdev-image-keyboard-response,324,990569,learnblock1,757,img/planet3_right.png,3,Community 1,NA,TRUE,j,j,NA,NA,NA,5,6,"6,5,3,2,4,13,1,14,12,15,8,7,9,11,10"
14415,commdev-image-keyboard-response,325,991827,learnblock1,297.10000002384186,img/planet6_right.png,6,Community 1,NA,TRUE,j,j,NA,NA,NA,5,6,"6,5,3,2,4,13,1,14,12,15,8,7,9,11,10"
14415,commdev-image-keyboard-response,326,993084,learnblock1,520.3999999761581,img/planet3_right.png,3,Community 1,NA,TRUE,j,j,NA,NA,NA,5,6,"6,5,3,2,4,13,1,14,12,15,8,7,9,11,10"
14415,commdev-image-keyboard-response,327,994338,learnblock1,579.7000000476837,img/planet5_right.png,5,Community 1,NA,TRUE,j,j,NA,NA,NA,5,6,"6,5,3,2,4,13,1,14,12,15,8,7,9,11,10"
14415,commdev-image-keyboard-response,328,995599,learnblock1,602.8999999761581,img/planet3_right.png,3,Community 1,NA,TRUE,j,j,NA,NA,NA,5,6,"6,5,3,2,4,13,1,14,12,15,8,7,9,11,10"
14415,commdev-image-keyboard-response,329,996863,learnblock1,724.6000000238419,img/planet5_left.png,5,Community 1,NA,TRUE,f,f,NA,NA,NA,5,6,"6,5,3,2,4,13,1,14,12,15,8,7,9,11,10"
14415,commdev-image-keyboard-response,330,998122,learnblock1,754.3999999761581,img/planet4_right.png,4,Community 1,NA,TRUE,j,j,NA,NA,NA,5,6,"6,5,3,2,4,13,1,14,12,15,8,7,9,11,10"
14415,commdev-image-keyboard-response,331,999383,learnblock1,null,img/planet6_left.png,6,Community 1,NA,FALSE,null,f,NA,NA,NA,5,6,"6,5,3,2,4,13,1,14,12,15,8,7,9,11,10"
14415,commdev-image-keyboard-response,332,1000636,learnblock1,101,img/planet5_left.png,5,Community 1,NA,FALSE,j,f,NA,NA,NA,5,6,"6,5,3,2,4,13,1,14,12,15,8,7,9,11,10"
14415,commdev-image-keyboard-response,333,1001898,learnblock1,600.5,img/planet2_right.png,2,Community 1,NA,FALSE,f,j,NA,NA,NA,5,6,"6,5,3,2,4,13,1,14,12,15,8,7,9,11,10"
14415,commdev-image-keyboard-response,334,1003157,learnblock1,745.3999999761581,img/planet3_right.png,3,Community 1,NA,TRUE,j,j,NA,NA,NA,5,6,"6,5,3,2,4,13,1,14,12,15,8,7,9,11,10"
14415,commdev-image-keyboard-response,335,1004422,learnblock1,670.5,img/planet5_right.png,5,Community 1,NA,TRUE,j,j,NA,NA,NA,5,6,"6,5,3,2,4,13,1,14,12,15,8,7,9,11,10"
14415,commdev-image-keyboard-response,336,1005684,learnblock1,787.5999999046326,img/planet4_right.png,4,Community 1,NA,TRUE,j,j,NA,NA,NA,5,6,"6,5,3,2,4,13,1,14,12,15,8,7,9,11,10"
14415,commdev-image-keyboard-response,337,1006937,learnblock1,746.6999999284744,img/planet5_right.png,5,Community 1,NA,TRUE,j,j,NA,NA,NA,5,6,"6,5,3,2,4,13,1,14,12,15,8,7,9,11,10"
14415,commdev-image-keyboard-response,338,1008196,learnblock1,684.8999999761581,img/planet2_left.png,2,Community 1,NA,TRUE,f,f,NA,NA,NA,5,6,"6,5,3,2,4,13,1,14,12,15,8,7,9,11,10"
14415,commdev-image-keyboard-response,339,1009454,learnblock1,832.1999999284744,img/planet6_left.png,6,Community 1,NA,TRUE,f,f,NA,NA,NA,5,6,"6,5,3,2,4,13,1,14,12,15,8,7,9,11,10"
14415,commdev-image-keyboard-response,340,1010707,learnblock1,715.2000000476837,img/planet3_right.png,3,Community 1,NA,TRUE,j,j,NA,NA,NA,5,6,"6,5,3,2,4,13,1,14,12,15,8,7,9,11,10"
14415,commdev-image-keyboard-response,341,1011964,learnblock1,894.5999999046326,img/planet4_left.png,4,Community 1,NA,TRUE,f,f,NA,NA,NA,5,6,"6,5,3,2,4,13,1,14,12,15,8,7,9,11,10"
14415,commdev-image-keyboard-response,342,1013219,learnblock1,825.2000000476837,img/planet8_left.png,8,Community 3,NA,TRUE,f,f,NA,NA,NA,5,6,"6,5,3,2,4,13,1,14,12,15,8,7,9,11,10"
14415,commdev-image-keyboard-response,343,1014476,learnblock1,684.3000000715256,img/planet4_right.png,4,Community 1,NA,TRUE,j,j,NA,NA,NA,5,6,"6,5,3,2,4,13,1,14,12,15,8,7,9,11,10"
14415,commdev-image-keyboard-response,344,1015732,learnblock1,977.8999999761581,img/planet3_right.png,3,Community 1,NA,FALSE,f,j,NA,NA,NA,5,6,"6,5,3,2,4,13,1,14,12,15,8,7,9,11,10"
14415,commdev-image-keyboard-response,345,1016988,learnblock1,747.2000000476837,img/planet2_right.png,2,Community 1,NA,TRUE,j,j,NA,NA,NA,5,6,"6,5,3,2,4,13,1,14,12,15,8,7,9,11,10"
14415,commdev-image-keyboard-response,346,1018244,learnblock1,596.8999999761581,img/planet3_right.png,3,Community 1,NA,TRUE,j,j,NA,NA,NA,5,6,"6,5,3,2,4,13,1,14,12,15,8,7,9,11,10"
14415,commdev-image-keyboard-response,347,1019495,learnblock1,1064.5,img/planet2_right.png,2,Community 1,NA,TRUE,j,j,NA,NA,NA,5,6,"6,5,3,2,4,13,1,14,12,15,8,7,9,11,10"
14415,commdev-image-keyboard-response,348,1020748,learnblock1,837.5,img/planet6_left.png,6,Community 1,NA,TRUE,f,f,NA,NA,NA,5,6,"6,5,3,2,4,13,1,14,12,15,8,7,9,11,10"
14415,commdev-image-keyboard-response,349,1022003,learnblock1,663.3999999761581,img/planet5_right.png,5,Community 1,NA,TRUE,j,j,NA,NA,NA,5,6,"6,5,3,2,4,13,1,14,12,15,8,7,9,11,10"
14415,commdev-image-keyboard-response,350,1023259,learnblock1,440.59999990463257,img/planet6_left.png,6,Community 1,NA,TRUE,f,f,NA,NA,NA,5,6,"6,5,3,2,4,13,1,14,12,15,8,7,9,11,10"
14415,commdev-image-keyboard-response,351,1024512,learnblock1,772.8000000715256,img/planet4_left.png,4,Community 1,NA,TRUE,f,f,NA,NA,NA,5,6,"6,5,3,2,4,13,1,14,12,15,8,7,9,11,10"
14415,commdev-image-keyboard-response,352,1025769,learnblock1,632.8000000715256,img/planet5_right.png,5,Community 1,NA,TRUE,j,j,NA,NA,NA,5,6,"6,5,3,2,4,13,1,14,12,15,8,7,9,11,10"
14415,commdev-image-keyboard-response,353,1027035,learnblock1,629.6000000238419,img/planet3_left.png,3,Community 1,NA,TRUE,f,f,NA,NA,NA,5,6,"6,5,3,2,4,13,1,14,12,15,8,7,9,11,10"
14415,commdev-image-keyboard-response,354,1028295,learnblock1,716.5,img/planet6_right.png,6,Community 1,NA,TRUE,j,j,NA,NA,NA,5,6,"6,5,3,2,4,13,1,14,12,15,8,7,9,11,10"
14415,commdev-image-keyboard-response,355,1029562,learnblock1,717.1000000238419,img/planet5_left.png,5,Community 1,NA,TRUE,f,f,NA,NA,NA,5,6,"6,5,3,2,4,13,1,14,12,15,8,7,9,11,10"
14415,commdev-image-keyboard-response,356,1030815,learnblock1,583.7000000476837,img/planet2_left.png,2,Community 1,NA,TRUE,f,f,NA,NA,NA,5,6,"6,5,3,2,4,13,1,14,12,15,8,7,9,11,10"
14415,commdev-image-keyboard-response,357,1032074,learnblock1,608,img/planet13_left.png,13,Community 2,NA,TRUE,f,f,NA,NA,NA,5,6,"6,5,3,2,4,13,1,14,12,15,8,7,9,11,10"
14415,commdev-image-keyboard-response,358,1033342,learnblock1,800.2000000476837,img/planet1_left.png,1,Community 2,NA,TRUE,f,f,NA,NA,NA,5,6,"6,5,3,2,4,13,1,14,12,15,8,7,9,11,10"
14415,commdev-image-keyboard-response,359,1034604,learnblock1,710.5,img/planet13_left.png,13,Community 2,NA,TRUE,f,f,NA,NA,NA,5,6,"6,5,3,2,4,13,1,14,12,15,8,7,9,11,10"
14415,commdev-image-keyboard-response,360,1035864,learnblock1,721.2999999523163,img/planet2_left.png,2,Community 1,NA,TRUE,f,f,NA,NA,NA,5,6,"6,5,3,2,4,13,1,14,12,15,8,7,9,11,10"
14415,commdev-image-keyboard-response,361,1037117,learnblock1,886.8000000715256,img/planet13_left.png,13,Community 2,NA,TRUE,f,f,NA,NA,NA,5,6,"6,5,3,2,4,13,1,14,12,15,8,7,9,11,10"
14415,commdev-image-keyboard-response,362,1038373,learnblock1,692.1000000238419,img/planet15_left.png,15,Community 2,NA,TRUE,f,f,NA,NA,NA,5,6,"6,5,3,2,4,13,1,14,12,15,8,7,9,11,10"
14415,commdev-image-keyboard-response,363,1039630,learnblock1,656.6999999284744,img/planet1_left.png,1,Community 2,NA,TRUE,f,f,NA,NA,NA,5,6,"6,5,3,2,4,13,1,14,12,15,8,7,9,11,10"
14415,commdev-image-keyboard-response,364,1040883,learnblock1,1226.8999999761581,img/planet14_left.png,14,Community 2,NA,TRUE,f,f,NA,NA,NA,5,6,"6,5,3,2,4,13,1,14,12,15,8,7,9,11,10"
14415,commdev-image-keyboard-response,365,1042144,learnblock1,918.5,img/planet1_left.png,1,Community 2,NA,TRUE,f,f,NA,NA,NA,5,6,"6,5,3,2,4,13,1,14,12,15,8,7,9,11,10"
14415,commdev-image-keyboard-response,366,1043402,learnblock1,715.1000000238419,img/planet12_right.png,12,Community 2,NA,TRUE,j,j,NA,NA,NA,5,6,"6,5,3,2,4,13,1,14,12,15,8,7,9,11,10"
14415,commdev-image-keyboard-response,367,1044658,learnblock1,648.3999999761581,img/planet13_left.png,13,Community 2,NA,TRUE,f,f,NA,NA,NA,5,6,"6,5,3,2,4,13,1,14,12,15,8,7,9,11,10"
14415,commdev-image-keyboard-response,368,1045919,learnblock1,656,img/planet2_right.png,2,Community 1,NA,TRUE,j,j,NA,NA,NA,5,6,"6,5,3,2,4,13,1,14,12,15,8,7,9,11,10"
14415,commdev-image-keyboard-response,369,1047170,learnblock1,802.0999999046326,img/planet13_right.png,13,Community 2,NA,TRUE,j,j,NA,NA,NA,5,6,"6,5,3,2,4,13,1,14,12,15,8,7,9,11,10"
14415,commdev-image-keyboard-response,370,1048431,learnblock1,637.2000000476837,img/planet2_right.png,2,Community 1,NA,TRUE,j,j,NA,NA,NA,5,6,"6,5,3,2,4,13,1,14,12,15,8,7,9,11,10"
14415,commdev-image-keyboard-response,371,1049690,learnblock1,737.9000000953674,img/planet6_left.png,6,Community 1,NA,FALSE,j,f,NA,NA,NA,5,6,"6,5,3,2,4,13,1,14,12,15,8,7,9,11,10"
14415,commdev-image-keyboard-response,372,1050951,learnblock1,633.1999999284744,img/planet3_right.png,3,Community 1,NA,TRUE,j,j,NA,NA,NA,5,6,"6,5,3,2,4,13,1,14,12,15,8,7,9,11,10"
14415,commdev-image-keyboard-response,373,1052205,learnblock1,643.3999999761581,img/planet2_right.png,2,Community 1,NA,TRUE,j,j,NA,NA,NA,5,6,"6,5,3,2,4,13,1,14,12,15,8,7,9,11,10"
14415,commdev-image-keyboard-response,374,1053464,learnblock1,602.6000000238419,img/planet3_left.png,3,Community 1,NA,TRUE,f,f,NA,NA,NA,5,6,"6,5,3,2,4,13,1,14,12,15,8,7,9,11,10"
14415,commdev-image-keyboard-response,375,1054724,learnblock1,625.2000000476837,img/planet5_right.png,5,Community 1,NA,TRUE,j,j,NA,NA,NA,5,6,"6,5,3,2,4,13,1,14,12,15,8,7,9,11,10"
14415,commdev-image-keyboard-response,376,1055987,learnblock1,647.8999999761581,img/planet3_left.png,3,Community 1,NA,TRUE,f,f,NA,NA,NA,5,6,"6,5,3,2,4,13,1,14,12,15,8,7,9,11,10"
14415,commdev-image-keyboard-response,377,1057244,learnblock1,317.60000002384186,img/planet6_right.png,6,Community 1,NA,TRUE,j,j,NA,NA,NA,5,6,"6,5,3,2,4,13,1,14,12,15,8,7,9,11,10"
14415,commdev-image-keyboard-response,378,1058502,learnblock1,432.10000002384186,img/planet3_left.png,3,Community 1,NA,TRUE,f,f,NA,NA,NA,5,6,"6,5,3,2,4,13,1,14,12,15,8,7,9,11,10"
14415,commdev-image-keyboard-response,379,1059759,learnblock1,469,img/planet4_right.png,4,Community 1,NA,TRUE,j,j,NA,NA,NA,5,6,"6,5,3,2,4,13,1,14,12,15,8,7,9,11,10"
14415,commdev-image-keyboard-response,380,1061013,learnblock1,833,img/planet3_right.png,3,Community 1,NA,TRUE,j,j,NA,NA,NA,5,6,"6,5,3,2,4,13,1,14,12,15,8,7,9,11,10"
14415,commdev-image-keyboard-response,381,1062279,learnblock1,670.1000000238419,img/planet6_right.png,6,Community 1,NA,FALSE,f,j,NA,NA,NA,5,6,"6,5,3,2,4,13,1,14,12,15,8,7,9,11,10"
14415,commdev-image-keyboard-response,382,1063542,learnblock1,662.2999999523163,img/planet4_right.png,4,Community 1,NA,TRUE,j,j,NA,NA,NA,5,6,"6,5,3,2,4,13,1,14,12,15,8,7,9,11,10"
14415,commdev-image-keyboard-response,383,1064802,learnblock1,668.1000000238419,img/planet3_right.png,3,Community 1,NA,TRUE,j,j,NA,NA,NA,5,6,"6,5,3,2,4,13,1,14,12,15,8,7,9,11,10"
14415,commdev-image-keyboard-response,384,1066053,learnblock1,635.8000000715256,img/planet6_right.png,6,Community 1,NA,TRUE,j,j,NA,NA,NA,5,6,"6,5,3,2,4,13,1,14,12,15,8,7,9,11,10"
14415,commdev-image-keyboard-response,385,1067306,learnblock1,631.1000000238419,img/planet4_right.png,4,Community 1,NA,TRUE,j,j,NA,NA,NA,5,6,"6,5,3,2,4,13,1,14,12,15,8,7,9,11,10"
14415,commdev-image-keyboard-response,386,1068564,learnblock1,683.2999999523163,img/planet5_left.png,5,Community 1,NA,TRUE,f,f,NA,NA,NA,5,6,"6,5,3,2,4,13,1,14,12,15,8,7,9,11,10"
14415,commdev-image-keyboard-response,387,1069825,learnblock1,592.3999999761581,img/planet3_right.png,3,Community 1,NA,TRUE,j,j,NA,NA,NA,5,6,"6,5,3,2,4,13,1,14,12,15,8,7,9,11,10"
14415,commdev-image-keyboard-response,388,1071084,learnblock1,842.8999999761581,img/planet5_left.png,5,Community 1,NA,TRUE,f,f,NA,NA,NA,5,6,"6,5,3,2,4,13,1,14,12,15,8,7,9,11,10"
14415,commdev-image-keyboard-response,389,1072338,learnblock1,998,img/planet4_left.png,4,Community 1,NA,FALSE,j,f,NA,NA,NA,5,6,"6,5,3,2,4,13,1,14,12,15,8,7,9,11,10"
14415,commdev-image-keyboard-response,390,1073604,learnblock1,650.5,img/planet3_left.png,3,Community 1,NA,TRUE,f,f,NA,NA,NA,5,6,"6,5,3,2,4,13,1,14,12,15,8,7,9,11,10"
14415,commdev-image-keyboard-response,391,1074860,learnblock1,563,img/planet5_left.png,5,Community 1,NA,TRUE,f,f,NA,NA,NA,5,6,"6,5,3,2,4,13,1,14,12,15,8,7,9,11,10"
14415,commdev-image-keyboard-response,392,1076115,learnblock1,574.8999999761581,img/planet6_left.png,6,Community 1,NA,TRUE,f,f,NA,NA,NA,5,6,"6,5,3,2,4,13,1,14,12,15,8,7,9,11,10"
14415,commdev-image-keyboard-response,393,1077374,learnblock1,645.8999999761581,img/planet5_left.png,5,Community 1,NA,TRUE,f,f,NA,NA,NA,5,6,"6,5,3,2,4,13,1,14,12,15,8,7,9,11,10"
14415,commdev-image-keyboard-response,394,1078634,learnblock1,584.1000000238419,img/planet4_left.png,4,Community 1,NA,TRUE,f,f,NA,NA,NA,5,6,"6,5,3,2,4,13,1,14,12,15,8,7,9,11,10"
14415,commdev-image-keyboard-response,395,1079892,learnblock1,675.2000000476837,img/planet5_left.png,5,Community 1,NA,TRUE,f,f,NA,NA,NA,5,6,"6,5,3,2,4,13,1,14,12,15,8,7,9,11,10"
14415,commdev-image-keyboard-response,396,1081150,learnblock1,512.2000000476837,img/planet6_right.png,6,Community 1,NA,TRUE,j,j,NA,NA,NA,5,6,"6,5,3,2,4,13,1,14,12,15,8,7,9,11,10"
14415,commdev-image-keyboard-response,397,1082416,learnblock1,661.3000000715256,img/planet3_left.png,3,Community 1,NA,TRUE,f,f,NA,NA,NA,5,6,"6,5,3,2,4,13,1,14,12,15,8,7,9,11,10"
14415,commdev-image-keyboard-response,398,1083683,learnblock1,556.1999999284744,img/planet5_right.png,5,Community 1,NA,TRUE,j,j,NA,NA,NA,5,6,"6,5,3,2,4,13,1,14,12,15,8,7,9,11,10"
14415,commdev-image-keyboard-response,399,1084936,learnblock1,762.8000000715256,img/planet3_left.png,3,Community 1,NA,TRUE,f,f,NA,NA,NA,5,6,"6,5,3,2,4,13,1,14,12,15,8,7,9,11,10"
14415,commdev-image-keyboard-response,400,1086191,learnblock1,714,img/planet6_right.png,6,Community 1,NA,TRUE,j,j,NA,NA,NA,5,6,"6,5,3,2,4,13,1,14,12,15,8,7,9,11,10"
14415,commdev-image-keyboard-response,401,1087442,learnblock1,836.2000000476837,img/planet5_right.png,5,Community 1,NA,TRUE,j,j,NA,NA,NA,5,6,"6,5,3,2,4,13,1,14,12,15,8,7,9,11,10"
14415,commdev-image-keyboard-response,402,1088707,learnblock1,null,img/planet2_right.png,2,Community 1,NA,FALSE,null,j,NA,NA,NA,5,6,"6,5,3,2,4,13,1,14,12,15,8,7,9,11,10"
14415,commdev-image-keyboard-response,403,1089975,learnblock1,30.100000023841858,img/planet13_left.png,13,Community 2,NA,FALSE,j,f,NA,NA,NA,5,6,"6,5,3,2,4,13,1,14,12,15,8,7,9,11,10"
14415,commdev-image-keyboard-response,404,1091231,learnblock1,453.60000002384186,img/planet12_left.png,12,Community 2,NA,FALSE,j,f,NA,NA,NA,5,6,"6,5,3,2,4,13,1,14,12,15,8,7,9,11,10"
14415,commdev-image-keyboard-response,405,1092484,learnblock1,809.2000000476837,img/planet1_left.png,1,Community 2,NA,TRUE,f,f,NA,NA,NA,5,6,"6,5,3,2,4,13,1,14,12,15,8,7,9,11,10"
14415,commdev-image-keyboard-response,406,1093738,learnblock1,731.8999999761581,img/planet13_left.png,13,Community 2,NA,TRUE,f,f,NA,NA,NA,5,6,"6,5,3,2,4,13,1,14,12,15,8,7,9,11,10"
14415,commdev-image-keyboard-response,407,1094993,learnblock1,573.3999999761581,img/planet2_right.png,2,Community 1,NA,FALSE,f,j,NA,NA,NA,5,6,"6,5,3,2,4,13,1,14,12,15,8,7,9,11,10"
14415,commdev-image-keyboard-response,408,1096251,learnblock1,823.5,img/planet5_left.png,5,Community 1,NA,TRUE,f,f,NA,NA,NA,5,6,"6,5,3,2,4,13,1,14,12,15,8,7,9,11,10"
14415,commdev-image-keyboard-response,409,1097510,learnblock1,951.7999999523163,img/planet3_left.png,3,Community 1,NA,TRUE,f,f,NA,NA,NA,5,6,"6,5,3,2,4,13,1,14,12,15,8,7,9,11,10"
14415,commdev-image-keyboard-response,410,1098763,learnblock1,609.7000000476837,img/planet2_right.png,2,Community 1,NA,TRUE,j,j,NA,NA,NA,5,6,"6,5,3,2,4,13,1,14,12,15,8,7,9,11,10"
14415,commdev-image-keyboard-response,411,1100021,learnblock1,708,img/planet6_right.png,6,Community 1,NA,TRUE,j,j,NA,NA,NA,5,6,"6,5,3,2,4,13,1,14,12,15,8,7,9,11,10"
14415,commdev-image-keyboard-response,412,1101273,learnblock1,767.1999999284744,img/planet5_right.png,5,Community 1,NA,TRUE,j,j,NA,NA,NA,5,6,"6,5,3,2,4,13,1,14,12,15,8,7,9,11,10"
14415,commdev-image-keyboard-response,413,1102528,learnblock1,714.6999999284744,img/planet6_left.png,6,Community 1,NA,TRUE,f,f,NA,NA,NA,5,6,"6,5,3,2,4,13,1,14,12,15,8,7,9,11,10"
14415,commdev-image-keyboard-response,414,1103787,learnblock1,846.7999999523163,img/planet4_left.png,4,Community 1,NA,TRUE,f,f,NA,NA,NA,5,6,"6,5,3,2,4,13,1,14,12,15,8,7,9,11,10"
14415,commdev-image-keyboard-response,415,1105054,learnblock1,865.2999999523163,img/planet6_left.png,6,Community 1,NA,TRUE,f,f,NA,NA,NA,5,6,"6,5,3,2,4,13,1,14,12,15,8,7,9,11,10"
14415,commdev-image-keyboard-response,416,1106309,learnblock1,739.2000000476837,img/planet3_right.png,3,Community 1,NA,TRUE,j,j,NA,NA,NA,5,6,"6,5,3,2,4,13,1,14,12,15,8,7,9,11,10"
14415,commdev-image-keyboard-response,417,1107569,learnblock1,677.2999999523163,img/planet4_left.png,4,Community 1,NA,TRUE,f,f,NA,NA,NA,5,6,"6,5,3,2,4,13,1,14,12,15,8,7,9,11,10"
14415,commdev-image-keyboard-response,418,1108821,learnblock1,620.6000000238419,img/planet5_right.png,5,Community 1,NA,TRUE,j,j,NA,NA,NA,5,6,"6,5,3,2,4,13,1,14,12,15,8,7,9,11,10"
14415,commdev-image-keyboard-response,419,1110072,learnblock1,793.8999999761581,img/planet4_right.png,4,Community 1,NA,TRUE,j,j,NA,NA,NA,5,6,"6,5,3,2,4,13,1,14,12,15,8,7,9,11,10"
14415,commdev-image-keyboard-response,420,1111334,learnblock1,581.8000000715256,img/planet5_left.png,5,Community 1,NA,TRUE,f,f,NA,NA,NA,5,6,"6,5,3,2,4,13,1,14,12,15,8,7,9,11,10"
14415,commdev-image-keyboard-response,421,1112587,learnblock1,984.1000000238419,img/planet4_left.png,4,Community 1,NA,TRUE,f,f,NA,NA,NA,5,6,"6,5,3,2,4,13,1,14,12,15,8,7,9,11,10"
14415,commdev-image-keyboard-response,422,1113847,learnblock1,997.2000000476837,img/planet8_left.png,8,Community 3,NA,TRUE,f,f,NA,NA,NA,5,6,"6,5,3,2,4,13,1,14,12,15,8,7,9,11,10"
14415,commdev-image-keyboard-response,423,1115102,learnblock1,652,img/planet4_right.png,4,Community 1,NA,TRUE,j,j,NA,NA,NA,5,6,"6,5,3,2,4,13,1,14,12,15,8,7,9,11,10"
14415,commdev-image-keyboard-response,424,1116356,learnblock1,945.5999999046326,img/planet8_right.png,8,Community 3,NA,FALSE,f,j,NA,NA,NA,5,6,"6,5,3,2,4,13,1,14,12,15,8,7,9,11,10"
14415,commdev-image-keyboard-response,425,1117613,learnblock1,996.5,img/planet9_right.png,9,Community 3,NA,TRUE,j,j,NA,NA,NA,5,6,"6,5,3,2,4,13,1,14,12,15,8,7,9,11,10"
14415,commdev-image-keyboard-response,426,1118872,learnblock1,745.8999999761581,img/planet7_left.png,7,Community 3,NA,TRUE,f,f,NA,NA,NA,5,6,"6,5,3,2,4,13,1,14,12,15,8,7,9,11,10"
14415,commdev-image-keyboard-response,427,1120126,learnblock1,null,img/planet14_left.png,14,Community 2,NA,FALSE,null,f,NA,NA,NA,5,6,"6,5,3,2,4,13,1,14,12,15,8,7,9,11,10"
14415,commdev-image-keyboard-response,428,1121379,learnblock1,1045,img/planet15_right.png,15,Community 2,NA,TRUE,j,j,NA,NA,NA,5,6,"6,5,3,2,4,13,1,14,12,15,8,7,9,11,10"
14415,commdev-image-keyboard-response,429,1122637,learnblock1,1029.9000000953674,img/planet1_right.png,1,Community 2,NA,TRUE,j,j,NA,NA,NA,5,6,"6,5,3,2,4,13,1,14,12,15,8,7,9,11,10"
14415,commdev-image-keyboard-response,430,1123900,learnblock1,628,img/planet12_left.png,12,Community 2,NA,TRUE,f,f,NA,NA,NA,5,6,"6,5,3,2,4,13,1,14,12,15,8,7,9,11,10"
14415,commdev-image-keyboard-response,431,1125159,learnblock1,673,img/planet1_left.png,1,Community 2,NA,TRUE,f,f,NA,NA,NA,5,6,"6,5,3,2,4,13,1,14,12,15,8,7,9,11,10"
14415,commdev-image-keyboard-response,432,1126424,learnblock1,840.3000000715256,img/planet12_right.png,12,Community 2,NA,TRUE,j,j,NA,NA,NA,5,6,"6,5,3,2,4,13,1,14,12,15,8,7,9,11,10"
14415,commdev-image-keyboard-response,433,1127687,learnblock1,699.3999999761581,img/planet1_right.png,1,Community 2,NA,FALSE,f,j,NA,NA,NA,5,6,"6,5,3,2,4,13,1,14,12,15,8,7,9,11,10"
14415,commdev-image-keyboard-response,434,1128948,learnblock1,987.5,img/planet15_left.png,15,Community 2,NA,TRUE,f,f,NA,NA,NA,5,6,"6,5,3,2,4,13,1,14,12,15,8,7,9,11,10"
14415,commdev-image-keyboard-response,435,1130201,learnblock1,877,img/planet13_left.png,13,Community 2,NA,TRUE,f,f,NA,NA,NA,5,6,"6,5,3,2,4,13,1,14,12,15,8,7,9,11,10"
14415,commdev-image-keyboard-response,436,1131466,learnblock1,826.7999999523163,img/planet1_left.png,1,Community 2,NA,TRUE,f,f,NA,NA,NA,5,6,"6,5,3,2,4,13,1,14,12,15,8,7,9,11,10"
14415,commdev-image-keyboard-response,437,1132719,learnblock1,890.5,img/planet12_left.png,12,Community 2,NA,TRUE,f,f,NA,NA,NA,5,6,"6,5,3,2,4,13,1,14,12,15,8,7,9,11,10"
14415,commdev-image-keyboard-response,438,1133975,learnblock1,720.3999999761581,img/planet13_right.png,13,Community 2,NA,TRUE,j,j,NA,NA,NA,5,6,"6,5,3,2,4,13,1,14,12,15,8,7,9,11,10"
14415,commdev-image-keyboard-response,439,1135239,learnblock1,712.7000000476837,img/planet2_left.png,2,Community 1,NA,TRUE,f,f,NA,NA,NA,5,6,"6,5,3,2,4,13,1,14,12,15,8,7,9,11,10"
14415,commdev-image-keyboard-response,440,1136492,learnblock1,628.3999999761581,img/planet5_right.png,5,Community 1,NA,TRUE,j,j,NA,NA,NA,5,6,"6,5,3,2,4,13,1,14,12,15,8,7,9,11,10"
14415,commdev-image-keyboard-response,441,1137747,learnblock1,664.1000000238419,img/planet3_left.png,3,Community 1,NA,TRUE,f,f,NA,NA,NA,5,6,"6,5,3,2,4,13,1,14,12,15,8,7,9,11,10"
14415,commdev-image-keyboard-response,442,1139002,learnblock1,874.2999999523163,img/planet5_right.png,5,Community 1,NA,TRUE,j,j,NA,NA,NA,5,6,"6,5,3,2,4,13,1,14,12,15,8,7,9,11,10"
14415,commdev-image-keyboard-response,443,1140254,learnblock1,984.2999999523163,img/planet6_right.png,6,Community 1,NA,TRUE,j,j,NA,NA,NA,5,6,"6,5,3,2,4,13,1,14,12,15,8,7,9,11,10"
14415,commdev-image-keyboard-response,444,1141515,learnblock1,853.6000000238419,img/planet3_left.png,3,Community 1,NA,TRUE,f,f,NA,NA,NA,5,6,"6,5,3,2,4,13,1,14,12,15,8,7,9,11,10"
14415,commdev-image-keyboard-response,445,1142770,learnblock1,584.1000000238419,img/planet6_right.png,6,Community 1,NA,TRUE,j,j,NA,NA,NA,5,6,"6,5,3,2,4,13,1,14,12,15,8,7,9,11,10"
14415,commdev-image-keyboard-response,446,1144025,learnblock1,1094.8999999761581,img/planet3_left.png,3,Community 1,NA,FALSE,j,f,NA,NA,NA,5,6,"6,5,3,2,4,13,1,14,12,15,8,7,9,11,10"
14415,commdev-image-keyboard-response,447,1145279,learnblock1,990.6000000238419,img/planet6_right.png,6,Community 1,NA,TRUE,j,j,NA,NA,NA,5,6,"6,5,3,2,4,13,1,14,12,15,8,7,9,11,10"
14415,commdev-image-keyboard-response,448,1146539,learnblock1,950.9000000953674,img/planet3_right.png,3,Community 1,NA,TRUE,j,j,NA,NA,NA,5,6,"6,5,3,2,4,13,1,14,12,15,8,7,9,11,10"
14415,commdev-image-keyboard-response,449,1147805,learnblock1,737.8999999761581,img/planet6_right.png,6,Community 1,NA,TRUE,j,j,NA,NA,NA,5,6,"6,5,3,2,4,13,1,14,12,15,8,7,9,11,10"
14415,commdev-image-keyboard-response,450,1149062,learnblock1,698.8000000715256,img/planet3_right.png,3,Community 1,NA,TRUE,j,j,NA,NA,NA,5,6,"6,5,3,2,4,13,1,14,12,15,8,7,9,11,10"
14415,commdev-image-keyboard-response,451,1150329,learnblock1,667.3999999761581,img/planet5_left.png,5,Community 1,NA,TRUE,f,f,NA,NA,NA,5,6,"6,5,3,2,4,13,1,14,12,15,8,7,9,11,10"
14415,commdev-image-keyboard-response,452,1151582,learnblock1,623.3000000715256,img/planet4_right.png,4,Community 1,NA,TRUE,j,j,NA,NA,NA,5,6,"6,5,3,2,4,13,1,14,12,15,8,7,9,11,10"
14415,commdev-image-keyboard-response,453,1152842,learnblock1,868.2000000476837,img/planet8_right.png,8,Community 3,NA,TRUE,j,j,NA,NA,NA,5,6,"6,5,3,2,4,13,1,14,12,15,8,7,9,11,10"
14415,commdev-image-keyboard-response,454,1154097,learnblock1,812,img/planet10_right.png,10,Community 3,NA,TRUE,j,j,NA,NA,NA,5,6,"6,5,3,2,4,13,1,14,12,15,8,7,9,11,10"
14415,commdev-image-keyboard-response,455,1155351,learnblock1,1006.0999999046326,img/planet11_right.png,11,Community 3,NA,TRUE,j,j,NA,NA,NA,5,6,"6,5,3,2,4,13,1,14,12,15,8,7,9,11,10"
14415,commdev-image-keyboard-response,456,1156604,learnblock1,721.5,img/planet8_left.png,8,Community 3,NA,TRUE,f,f,NA,NA,NA,5,6,"6,5,3,2,4,13,1,14,12,15,8,7,9,11,10"
14415,commdev-image-keyboard-response,457,1157861,learnblock1,865.9000000953674,img/planet4_left.png,4,Community 1,NA,TRUE,f,f,NA,NA,NA,5,6,"6,5,3,2,4,13,1,14,12,15,8,7,9,11,10"
14415,commdev-image-keyboard-response,458,1159119,learnblock1,907.7000000476837,img/planet5_left.png,5,Community 1,NA,TRUE,f,f,NA,NA,NA,5,6,"6,5,3,2,4,13,1,14,12,15,8,7,9,11,10"
14415,commdev-image-keyboard-response,459,1160375,learnblock1,801.6999999284744,img/planet2_left.png,2,Community 1,NA,TRUE,f,f,NA,NA,NA,5,6,"6,5,3,2,4,13,1,14,12,15,8,7,9,11,10"
14415,commdev-image-keyboard-response,460,1161643,learnblock1,756.1999999284744,img/planet13_left.png,13,Community 2,NA,TRUE,f,f,NA,NA,NA,5,6,"6,5,3,2,4,13,1,14,12,15,8,7,9,11,10"
14415,commdev-image-keyboard-response,461,1162903,learnblock1,727.2000000476837,img/planet1_left.png,1,Community 2,NA,TRUE,f,f,NA,NA,NA,5,6,"6,5,3,2,4,13,1,14,12,15,8,7,9,11,10"
14415,commdev-image-keyboard-response,462,1164162,learnblock1,451.7000000476837,img/planet15_right.png,15,Community 2,NA,TRUE,j,j,NA,NA,NA,5,6,"6,5,3,2,4,13,1,14,12,15,8,7,9,11,10"
14415,commdev-image-keyboard-response,463,1165422,learnblock1,734.7000000476837,img/planet12_left.png,12,Community 2,NA,TRUE,f,f,NA,NA,NA,5,6,"6,5,3,2,4,13,1,14,12,15,8,7,9,11,10"
14415,commdev-image-keyboard-response,464,1166691,learnblock1,748.7000000476837,img/planet13_left.png,13,Community 2,NA,TRUE,f,f,NA,NA,NA,5,6,"6,5,3,2,4,13,1,14,12,15,8,7,9,11,10"
14415,commdev-image-keyboard-response,465,1167945,learnblock1,568.8999999761581,img/planet12_left.png,12,Community 2,NA,FALSE,j,f,NA,NA,NA,5,6,"6,5,3,2,4,13,1,14,12,15,8,7,9,11,10"
14415,commdev-image-keyboard-response,466,1169212,learnblock1,709.6999999284744,img/planet15_right.png,15,Community 2,NA,TRUE,j,j,NA,NA,NA,5,6,"6,5,3,2,4,13,1,14,12,15,8,7,9,11,10"
14415,commdev-image-keyboard-response,467,1170469,learnblock1,738,img/planet12_left.png,12,Community 2,NA,TRUE,f,f,NA,NA,NA,5,6,"6,5,3,2,4,13,1,14,12,15,8,7,9,11,10"
14415,commdev-image-keyboard-response,468,1171721,learnblock1,799.3999999761581,img/planet13_left.png,13,Community 2,NA,TRUE,f,f,NA,NA,NA,5,6,"6,5,3,2,4,13,1,14,12,15,8,7,9,11,10"
14415,commdev-image-keyboard-response,469,1172982,learnblock1,760.6999999284744,img/planet15_right.png,15,Community 2,NA,TRUE,j,j,NA,NA,NA,5,6,"6,5,3,2,4,13,1,14,12,15,8,7,9,11,10"
14415,commdev-image-keyboard-response,470,1174234,learnblock1,828,img/planet14_left.png,14,Community 2,NA,TRUE,f,f,NA,NA,NA,5,6,"6,5,3,2,4,13,1,14,12,15,8,7,9,11,10"
14415,commdev-image-keyboard-response,471,1175490,learnblock1,1053.7000000476837,img/planet15_left.png,15,Community 2,NA,FALSE,j,f,NA,NA,NA,5,6,"6,5,3,2,4,13,1,14,12,15,8,7,9,11,10"
14415,commdev-image-keyboard-response,472,1176747,learnblock1,985.8999999761581,img/planet1_right.png,1,Community 2,NA,FALSE,f,j,NA,NA,NA,5,6,"6,5,3,2,4,13,1,14,12,15,8,7,9,11,10"
14415,commdev-image-keyboard-response,473,1178013,learnblock1,938.1000000238419,img/planet12_right.png,12,Community 2,NA,TRUE,j,j,NA,NA,NA,5,6,"6,5,3,2,4,13,1,14,12,15,8,7,9,11,10"
14415,commdev-image-keyboard-response,474,1179269,learnblock1,685.7000000476837,img/planet1_right.png,1,Community 2,NA,TRUE,j,j,NA,NA,NA,5,6,"6,5,3,2,4,13,1,14,12,15,8,7,9,11,10"
14415,commdev-image-keyboard-response,475,1180527,learnblock1,1010.9000000953674,img/planet14_left.png,14,Community 2,NA,TRUE,f,f,NA,NA,NA,5,6,"6,5,3,2,4,13,1,14,12,15,8,7,9,11,10"
14415,commdev-image-keyboard-response,476,1181782,learnblock1,759.2999999523163,img/planet1_right.png,1,Community 2,NA,TRUE,j,j,NA,NA,NA,5,6,"6,5,3,2,4,13,1,14,12,15,8,7,9,11,10"
14415,commdev-image-keyboard-response,477,1183044,learnblock1,894.6000000238419,img/planet12_left.png,12,Community 2,NA,TRUE,f,f,NA,NA,NA,5,6,"6,5,3,2,4,13,1,14,12,15,8,7,9,11,10"
14415,commdev-image-keyboard-response,478,1184304,learnblock1,837.3000000715256,img/planet15_right.png,15,Community 2,NA,TRUE,j,j,NA,NA,NA,5,6,"6,5,3,2,4,13,1,14,12,15,8,7,9,11,10"
14415,commdev-image-keyboard-response,479,1185564,learnblock1,null,img/planet14_right.png,14,Community 2,NA,FALSE,null,j,NA,NA,NA,5,6,"6,5,3,2,4,13,1,14,12,15,8,7,9,11,10"
14415,commdev-image-keyboard-response,480,1186822,learnblock1,null,img/planet15_left.png,15,Community 2,NA,FALSE,null,f,NA,NA,NA,5,6,"6,5,3,2,4,13,1,14,12,15,8,7,9,11,10"
14415,commdev-image-keyboard-response,481,1188074,learnblock1,1058.7000000476837,img/planet1_right.png,1,Community 2,NA,FALSE,f,j,NA,NA,NA,5,6,"6,5,3,2,4,13,1,14,12,15,8,7,9,11,10"
14415,commdev-image-keyboard-response,485,1515471,learnblock2,765.3999999761581,img/planet3_left.png,3,Community 1,NA,TRUE,f,f,NA,NA,NA,5,6,"6,5,3,2,4,13,1,14,12,15,8,7,9,11,10"
14415,commdev-image-keyboard-response,486,1516730,learnblock2,613.8999999761581,img/planet4_left.png,4,Community 1,NA,TRUE,f,f,NA,NA,NA,5,6,"6,5,3,2,4,13,1,14,12,15,8,7,9,11,10"
14415,commdev-image-keyboard-response,487,1517987,learnblock2,597.2999999523163,img/planet6_left.png,6,Community 1,NA,TRUE,f,f,NA,NA,NA,5,6,"6,5,3,2,4,13,1,14,12,15,8,7,9,11,10"
14415,commdev-image-keyboard-response,488,1519242,learnblock2,513.6000000238419,img/planet2_left.png,2,Community 1,NA,TRUE,f,f,NA,NA,NA,5,6,"6,5,3,2,4,13,1,14,12,15,8,7,9,11,10"
14415,commdev-image-keyboard-response,489,1520511,learnblock2,705,img/planet3_left.png,3,Community 1,NA,TRUE,f,f,NA,NA,NA,5,6,"6,5,3,2,4,13,1,14,12,15,8,7,9,11,10"
14415,commdev-image-keyboard-response,490,1521767,learnblock2,452.3000000715256,img/planet4_right.png,4,Community 1,NA,TRUE,j,j,NA,NA,NA,5,6,"6,5,3,2,4,13,1,14,12,15,8,7,9,11,10"
14415,commdev-image-keyboard-response,491,1523030,learnblock2,553.5,img/planet6_right.png,6,Community 1,NA,TRUE,j,j,NA,NA,NA,5,6,"6,5,3,2,4,13,1,14,12,15,8,7,9,11,10"
14415,commdev-image-keyboard-response,492,1524290,learnblock2,616.5,img/planet3_left.png,3,Community 1,NA,TRUE,f,f,NA,NA,NA,5,6,"6,5,3,2,4,13,1,14,12,15,8,7,9,11,10"
14415,commdev-image-keyboard-response,493,1525546,learnblock2,527.3999999761581,img/planet6_left.png,6,Community 1,NA,TRUE,f,f,NA,NA,NA,5,6,"6,5,3,2,4,13,1,14,12,15,8,7,9,11,10"
14415,commdev-image-keyboard-response,494,1526804,learnblock2,518.8999999761581,img/planet5_left.png,5,Community 1,NA,TRUE,f,f,NA,NA,NA,5,6,"6,5,3,2,4,13,1,14,12,15,8,7,9,11,10"
14415,commdev-image-keyboard-response,495,1528068,learnblock2,624,img/planet3_left.png,3,Community 1,NA,TRUE,f,f,NA,NA,NA,5,6,"6,5,3,2,4,13,1,14,12,15,8,7,9,11,10"
14415,commdev-image-keyboard-response,496,1529329,learnblock2,529.3000000715256,img/planet2_left.png,2,Community 1,NA,TRUE,f,f,NA,NA,NA,5,6,"6,5,3,2,4,13,1,14,12,15,8,7,9,11,10"
14415,commdev-image-keyboard-response,497,1530587,learnblock2,715.5,img/planet3_left.png,3,Community 1,NA,TRUE,f,f,NA,NA,NA,5,6,"6,5,3,2,4,13,1,14,12,15,8,7,9,11,10"
14415,commdev-image-keyboard-response,498,1531841,learnblock2,598.6999999284744,img/planet2_left.png,2,Community 1,NA,TRUE,f,f,NA,NA,NA,5,6,"6,5,3,2,4,13,1,14,12,15,8,7,9,11,10"
14415,commdev-image-keyboard-response,499,1533105,learnblock2,650.3000000715256,img/planet3_left.png,3,Community 1,NA,TRUE,f,f,NA,NA,NA,5,6,"6,5,3,2,4,13,1,14,12,15,8,7,9,11,10"
14415,commdev-image-keyboard-response,500,1534358,learnblock2,608.5,img/planet4_right.png,4,Community 1,NA,TRUE,j,j,NA,NA,NA,5,6,"6,5,3,2,4,13,1,14,12,15,8,7,9,11,10"
14415,commdev-image-keyboard-response,501,1535624,learnblock2,620,img/planet8_left.png,8,Community 3,NA,TRUE,f,f,NA,NA,NA,5,6,"6,5,3,2,4,13,1,14,12,15,8,7,9,11,10"
14415,commdev-image-keyboard-response,502,1536876,learnblock2,532.2999999523163,img/planet9_left.png,9,Community 3,NA,TRUE,f,f,NA,NA,NA,5,6,"6,5,3,2,4,13,1,14,12,15,8,7,9,11,10"
14415,commdev-image-keyboard-response,503,1538134,learnblock2,937.8999999761581,img/planet7_right.png,7,Community 3,NA,TRUE,j,j,NA,NA,NA,5,6,"6,5,3,2,4,13,1,14,12,15,8,7,9,11,10"
14415,commdev-image-keyboard-response,504,1539390,learnblock2,912.8000000715256,img/planet9_left.png,9,Community 3,NA,TRUE,f,f,NA,NA,NA,5,6,"6,5,3,2,4,13,1,14,12,15,8,7,9,11,10"
14415,commdev-image-keyboard-response,505,1540658,learnblock2,930,img/planet10_right.png,10,Community 3,NA,TRUE,j,j,NA,NA,NA,5,6,"6,5,3,2,4,13,1,14,12,15,8,7,9,11,10"
14415,commdev-image-keyboard-response,506,1541916,learnblock2,null,img/planet9_left.png,9,Community 3,NA,FALSE,null,f,NA,NA,NA,5,6,"6,5,3,2,4,13,1,14,12,15,8,7,9,11,10"
14415,commdev-image-keyboard-response,507,1543171,learnblock2,308.89999997615814,img/planet8_right.png,8,Community 3,NA,FALSE,f,j,NA,NA,NA,5,6,"6,5,3,2,4,13,1,14,12,15,8,7,9,11,10"
14415,commdev-image-keyboard-response,508,1544433,learnblock2,577.8999999761581,img/planet10_left.png,10,Community 3,NA,TRUE,f,f,NA,NA,NA,5,6,"6,5,3,2,4,13,1,14,12,15,8,7,9,11,10"
14415,commdev-image-keyboard-response,509,1545700,learnblock2,581,img/planet8_right.png,8,Community 3,NA,TRUE,j,j,NA,NA,NA,5,6,"6,5,3,2,4,13,1,14,12,15,8,7,9,11,10"
14415,commdev-image-keyboard-response,510,1546957,learnblock2,581.3000000715256,img/planet10_left.png,10,Community 3,NA,TRUE,f,f,NA,NA,NA,5,6,"6,5,3,2,4,13,1,14,12,15,8,7,9,11,10"
14415,commdev-image-keyboard-response,511,1548214,learnblock2,414.5,img/planet7_left.png,7,Community 3,NA,FALSE,j,f,NA,NA,NA,5,6,"6,5,3,2,4,13,1,14,12,15,8,7,9,11,10"
14415,commdev-image-keyboard-response,512,1549471,learnblock2,1107.3999999761581,img/planet11_right.png,11,Community 3,NA,TRUE,j,j,NA,NA,NA,5,6,"6,5,3,2,4,13,1,14,12,15,8,7,9,11,10"
14415,commdev-image-keyboard-response,513,1550726,learnblock2,598.1000000238419,img/planet7_left.png,7,Community 3,NA,TRUE,f,f,NA,NA,NA,5,6,"6,5,3,2,4,13,1,14,12,15,8,7,9,11,10"
14415,commdev-image-keyboard-response,514,1551981,learnblock2,606.6999999284744,img/planet9_left.png,9,Community 3,NA,TRUE,f,f,NA,NA,NA,5,6,"6,5,3,2,4,13,1,14,12,15,8,7,9,11,10"
14415,commdev-image-keyboard-response,515,1553238,learnblock2,699.6999999284744,img/planet8_left.png,8,Community 3,NA,TRUE,f,f,NA,NA,NA,5,6,"6,5,3,2,4,13,1,14,12,15,8,7,9,11,10"
14415,commdev-image-keyboard-response,516,1554497,learnblock2,717.6999999284744,img/planet10_left.png,10,Community 3,NA,TRUE,f,f,NA,NA,NA,5,6,"6,5,3,2,4,13,1,14,12,15,8,7,9,11,10"
14415,commdev-image-keyboard-response,517,1555753,learnblock2,647.5,img/planet11_right.png,11,Community 3,NA,TRUE,j,j,NA,NA,NA,5,6,"6,5,3,2,4,13,1,14,12,15,8,7,9,11,10"
14415,commdev-image-keyboard-response,518,1557013,learnblock2,659.6000000238419,img/planet7_right.png,7,Community 3,NA,TRUE,j,j,NA,NA,NA,5,6,"6,5,3,2,4,13,1,14,12,15,8,7,9,11,10"
14415,commdev-image-keyboard-response,519,1558272,learnblock2,745.7000000476837,img/planet11_right.png,11,Community 3,NA,TRUE,j,j,NA,NA,NA,5,6,"6,5,3,2,4,13,1,14,12,15,8,7,9,11,10"
14415,commdev-image-keyboard-response,520,1559526,learnblock2,756.8000000715256,img/planet7_right.png,7,Community 3,NA,TRUE,j,j,NA,NA,NA,5,6,"6,5,3,2,4,13,1,14,12,15,8,7,9,11,10"
14415,commdev-image-keyboard-response,521,1560784,learnblock2,928.1000000238419,img/planet11_right.png,11,Community 3,NA,TRUE,j,j,NA,NA,NA,5,6,"6,5,3,2,4,13,1,14,12,15,8,7,9,11,10"
14415,commdev-image-keyboard-response,522,1562049,learnblock2,565.8999999761581,img/planet9_right.png,9,Community 3,NA,TRUE,j,j,NA,NA,NA,5,6,"6,5,3,2,4,13,1,14,12,15,8,7,9,11,10"
14415,commdev-image-keyboard-response,523,1563304,learnblock2,539.3999999761581,img/planet8_right.png,8,Community 3,NA,TRUE,j,j,NA,NA,NA,5,6,"6,5,3,2,4,13,1,14,12,15,8,7,9,11,10"
14415,commdev-image-keyboard-response,524,1564563,learnblock2,501.60000002384186,img/planet10_right.png,10,Community 3,NA,TRUE,j,j,NA,NA,NA,5,6,"6,5,3,2,4,13,1,14,12,15,8,7,9,11,10"
14415,commdev-image-keyboard-response,525,1565824,learnblock2,647.5,img/planet8_right.png,8,Community 3,NA,TRUE,j,j,NA,NA,NA,5,6,"6,5,3,2,4,13,1,14,12,15,8,7,9,11,10"
14415,commdev-image-keyboard-response,526,1567082,learnblock2,584.7000000476837,img/planet10_right.png,10,Community 3,NA,TRUE,j,j,NA,NA,NA,5,6,"6,5,3,2,4,13,1,14,12,15,8,7,9,11,10"
14415,commdev-image-keyboard-response,527,1568345,learnblock2,629.8999999761581,img/planet9_right.png,9,Community 3,NA,TRUE,j,j,NA,NA,NA,5,6,"6,5,3,2,4,13,1,14,12,15,8,7,9,11,10"
14415,commdev-image-keyboard-response,528,1569598,learnblock2,528.6999999284744,img/planet10_left.png,10,Community 3,NA,TRUE,f,f,NA,NA,NA,5,6,"6,5,3,2,4,13,1,14,12,15,8,7,9,11,10"
14415,commdev-image-keyboard-response,529,1570851,learnblock2,562.7000000476837,img/planet11_right.png,11,Community 3,NA,TRUE,j,j,NA,NA,NA,5,6,"6,5,3,2,4,13,1,14,12,15,8,7,9,11,10"
14415,commdev-image-keyboard-response,530,1572106,learnblock2,501.89999997615814,img/planet10_left.png,10,Community 3,NA,TRUE,f,f,NA,NA,NA,5,6,"6,5,3,2,4,13,1,14,12,15,8,7,9,11,10"
14415,commdev-image-keyboard-response,531,1573365,learnblock2,522.5,img/planet7_right.png,7,Community 3,NA,TRUE,j,j,NA,NA,NA,5,6,"6,5,3,2,4,13,1,14,12,15,8,7,9,11,10"
14415,commdev-image-keyboard-response,532,1574625,learnblock2,557.5,img/planet9_left.png,9,Community 3,NA,FALSE,j,f,NA,NA,NA,5,6,"6,5,3,2,4,13,1,14,12,15,8,7,9,11,10"
14415,commdev-image-keyboard-response,533,1575879,learnblock2,629.5,img/planet11_right.png,11,Community 3,NA,TRUE,j,j,NA,NA,NA,5,6,"6,5,3,2,4,13,1,14,12,15,8,7,9,11,10"
14415,commdev-image-keyboard-response,534,1577130,learnblock2,739.7000000476837,img/planet8_right.png,8,Community 3,NA,TRUE,j,j,NA,NA,NA,5,6,"6,5,3,2,4,13,1,14,12,15,8,7,9,11,10"
14415,commdev-image-keyboard-response,535,1578385,learnblock2,846.5,img/planet9_left.png,9,Community 3,NA,TRUE,f,f,NA,NA,NA,5,6,"6,5,3,2,4,13,1,14,12,15,8,7,9,11,10"
14415,commdev-image-keyboard-response,536,1579641,learnblock2,536.4000000953674,img/planet10_right.png,10,Community 3,NA,TRUE,j,j,NA,NA,NA,5,6,"6,5,3,2,4,13,1,14,12,15,8,7,9,11,10"
14415,commdev-image-keyboard-response,537,1580907,learnblock2,844.9000000953674,img/planet7_right.png,7,Community 3,NA,TRUE,j,j,NA,NA,NA,5,6,"6,5,3,2,4,13,1,14,12,15,8,7,9,11,10"
14415,commdev-image-keyboard-response,538,1582160,learnblock2,810.5,img/planet10_right.png,10,Community 3,NA,TRUE,j,j,NA,NA,NA,5,6,"6,5,3,2,4,13,1,14,12,15,8,7,9,11,10"
14415,commdev-image-keyboard-response,539,1583414,learnblock2,805.7999999523163,img/planet7_left.png,7,Community 3,NA,TRUE,f,f,NA,NA,NA,5,6,"6,5,3,2,4,13,1,14,12,15,8,7,9,11,10"
14415,commdev-image-keyboard-response,540,1584674,learnblock2,830.2999999523163,img/planet14_left.png,14,Community 2,NA,TRUE,f,f,NA,NA,NA,5,6,"6,5,3,2,4,13,1,14,12,15,8,7,9,11,10"
14415,commdev-image-keyboard-response,541,1585931,learnblock2,943.7999999523163,img/planet7_right.png,7,Community 3,NA,TRUE,j,j,NA,NA,NA,5,6,"6,5,3,2,4,13,1,14,12,15,8,7,9,11,10"
14415,commdev-image-keyboard-response,542,1587191,learnblock2,715,img/planet11_left.png,11,Community 3,NA,TRUE,f,f,NA,NA,NA,5,6,"6,5,3,2,4,13,1,14,12,15,8,7,9,11,10"
14415,commdev-image-keyboard-response,543,1588456,learnblock2,789.2000000476837,img/planet8_right.png,8,Community 3,NA,TRUE,j,j,NA,NA,NA,5,6,"6,5,3,2,4,13,1,14,12,15,8,7,9,11,10"
14415,commdev-image-keyboard-response,544,1589723,learnblock2,593.7000000476837,img/planet9_left.png,9,Community 3,NA,TRUE,f,f,NA,NA,NA,5,6,"6,5,3,2,4,13,1,14,12,15,8,7,9,11,10"
14415,commdev-image-keyboard-response,545,1590984,learnblock2,820,img/planet8_right.png,8,Community 3,NA,TRUE,j,j,NA,NA,NA,5,6,"6,5,3,2,4,13,1,14,12,15,8,7,9,11,10"
14415,commdev-image-keyboard-response,546,1592239,learnblock2,865.5,img/planet4_left.png,4,Community 1,NA,TRUE,f,f,NA,NA,NA,5,6,"6,5,3,2,4,13,1,14,12,15,8,7,9,11,10"
14415,commdev-image-keyboard-response,547,1593503,learnblock2,633.5,img/planet3_right.png,3,Community 1,NA,TRUE,j,j,NA,NA,NA,5,6,"6,5,3,2,4,13,1,14,12,15,8,7,9,11,10"
14415,commdev-image-keyboard-response,548,1594757,learnblock2,512.0999999046326,img/planet6_right.png,6,Community 1,NA,TRUE,j,j,NA,NA,NA,5,6,"6,5,3,2,4,13,1,14,12,15,8,7,9,11,10"
14415,commdev-image-keyboard-response,549,1596018,learnblock2,512.7000000476837,img/planet4_right.png,4,Community 1,NA,TRUE,j,j,NA,NA,NA,5,6,"6,5,3,2,4,13,1,14,12,15,8,7,9,11,10"
14415,commdev-image-keyboard-response,550,1597273,learnblock2,554,img/planet5_left.png,5,Community 1,NA,TRUE,f,f,NA,NA,NA,5,6,"6,5,3,2,4,13,1,14,12,15,8,7,9,11,10"
14415,commdev-image-keyboard-response,551,1598529,learnblock2,550.8999999761581,img/planet2_right.png,2,Community 1,NA,TRUE,j,j,NA,NA,NA,5,6,"6,5,3,2,4,13,1,14,12,15,8,7,9,11,10"
14415,commdev-image-keyboard-response,552,1599782,learnblock2,818.1999999284744,img/planet13_right.png,13,Community 2,NA,TRUE,j,j,NA,NA,NA,5,6,"6,5,3,2,4,13,1,14,12,15,8,7,9,11,10"
14415,commdev-image-keyboard-response,553,1601034,learnblock2,982.6000000238419,img/planet1_left.png,1,Community 2,NA,TRUE,f,f,NA,NA,NA,5,6,"6,5,3,2,4,13,1,14,12,15,8,7,9,11,10"
14415,commdev-image-keyboard-response,554,1602293,learnblock2,768.7000000476837,img/planet12_right.png,12,Community 2,NA,TRUE,j,j,NA,NA,NA,5,6,"6,5,3,2,4,13,1,14,12,15,8,7,9,11,10"
14415,commdev-image-keyboard-response,555,1603551,learnblock2,747.1000000238419,img/planet15_left.png,15,Community 2,NA,TRUE,f,f,NA,NA,NA,5,6,"6,5,3,2,4,13,1,14,12,15,8,7,9,11,10"
14415,commdev-image-keyboard-response,556,1604817,learnblock2,520.1999999284744,img/planet12_left.png,12,Community 2,NA,TRUE,f,f,NA,NA,NA,5,6,"6,5,3,2,4,13,1,14,12,15,8,7,9,11,10"
14415,commdev-image-keyboard-response,557,1606074,learnblock2,709.6000000238419,img/planet13_left.png,13,Community 2,NA,TRUE,f,f,NA,NA,NA,5,6,"6,5,3,2,4,13,1,14,12,15,8,7,9,11,10"
14415,commdev-image-keyboard-response,558,1607333,learnblock2,534.2999999523163,img/planet2_left.png,2,Community 1,NA,TRUE,f,f,NA,NA,NA,5,6,"6,5,3,2,4,13,1,14,12,15,8,7,9,11,10"
14415,commdev-image-keyboard-response,559,1608586,learnblock2,685,img/planet13_right.png,13,Community 2,NA,TRUE,j,j,NA,NA,NA,5,6,"6,5,3,2,4,13,1,14,12,15,8,7,9,11,10"
14415,commdev-image-keyboard-response,560,1609848,learnblock2,695.5,img/planet15_right.png,15,Community 2,NA,TRUE,j,j,NA,NA,NA,5,6,"6,5,3,2,4,13,1,14,12,15,8,7,9,11,10"
14415,commdev-image-keyboard-response,561,1611112,learnblock2,596.7999999523163,img/planet13_left.png,13,Community 2,NA,TRUE,f,f,NA,NA,NA,5,6,"6,5,3,2,4,13,1,14,12,15,8,7,9,11,10"
14415,commdev-image-keyboard-response,562,1612370,learnblock2,741.8000000715256,img/planet1_left.png,1,Community 2,NA,TRUE,f,f,NA,NA,NA,5,6,"6,5,3,2,4,13,1,14,12,15,8,7,9,11,10"
14415,commdev-image-keyboard-response,563,1613629,learnblock2,838.5,img/planet15_left.png,15,Community 2,NA,TRUE,f,f,NA,NA,NA,5,6,"6,5,3,2,4,13,1,14,12,15,8,7,9,11,10"
14415,commdev-image-keyboard-response,564,1614897,learnblock2,617,img/planet14_right.png,14,Community 2,NA,TRUE,j,j,NA,NA,NA,5,6,"6,5,3,2,4,13,1,14,12,15,8,7,9,11,10"
14415,commdev-image-keyboard-response,565,1616153,learnblock2,623.2999999523163,img/planet12_right.png,12,Community 2,NA,TRUE,j,j,NA,NA,NA,5,6,"6,5,3,2,4,13,1,14,12,15,8,7,9,11,10"
14415,commdev-image-keyboard-response,566,1617413,learnblock2,604.6999999284744,img/planet14_right.png,14,Community 2,NA,TRUE,j,j,NA,NA,NA,5,6,"6,5,3,2,4,13,1,14,12,15,8,7,9,11,10"
14415,commdev-image-keyboard-response,567,1618666,learnblock2,799.5,img/planet7_left.png,7,Community 3,NA,TRUE,f,f,NA,NA,NA,5,6,"6,5,3,2,4,13,1,14,12,15,8,7,9,11,10"
14415,commdev-image-keyboard-response,568,1619922,learnblock2,1153.3000000715256,img/planet9_left.png,9,Community 3,NA,TRUE,f,f,NA,NA,NA,5,6,"6,5,3,2,4,13,1,14,12,15,8,7,9,11,10"
14415,commdev-image-keyboard-response,569,1621175,learnblock2,616.2000000476837,img/planet10_left.png,10,Community 3,NA,TRUE,f,f,NA,NA,NA,5,6,"6,5,3,2,4,13,1,14,12,15,8,7,9,11,10"
14415,commdev-image-keyboard-response,570,1622430,learnblock2,635.4000000953674,img/planet9_left.png,9,Community 3,NA,TRUE,f,f,NA,NA,NA,5,6,"6,5,3,2,4,13,1,14,12,15,8,7,9,11,10"
14415,commdev-image-keyboard-response,571,1623689,learnblock2,697.6999999284744,img/planet7_left.png,7,Community 3,NA,TRUE,f,f,NA,NA,NA,5,6,"6,5,3,2,4,13,1,14,12,15,8,7,9,11,10"
14415,commdev-image-keyboard-response,572,1624945,learnblock2,523.8000000715256,img/planet11_left.png,11,Community 3,NA,TRUE,f,f,NA,NA,NA,5,6,"6,5,3,2,4,13,1,14,12,15,8,7,9,11,10"
14415,commdev-image-keyboard-response,573,1626198,learnblock2,675.7000000476837,img/planet9_right.png,9,Community 3,NA,TRUE,j,j,NA,NA,NA,5,6,"6,5,3,2,4,13,1,14,12,15,8,7,9,11,10"
14415,commdev-image-keyboard-response,574,1627450,learnblock2,777.6000000238419,img/planet8_right.png,8,Community 3,NA,TRUE,j,j,NA,NA,NA,5,6,"6,5,3,2,4,13,1,14,12,15,8,7,9,11,10"
14415,commdev-image-keyboard-response,575,1628714,learnblock2,717.5,img/planet9_left.png,9,Community 3,NA,TRUE,f,f,NA,NA,NA,5,6,"6,5,3,2,4,13,1,14,12,15,8,7,9,11,10"
14415,commdev-image-keyboard-response,576,1629969,learnblock2,503.89999997615814,img/planet10_right.png,10,Community 3,NA,TRUE,j,j,NA,NA,NA,5,6,"6,5,3,2,4,13,1,14,12,15,8,7,9,11,10"
14415,commdev-image-keyboard-response,577,1631221,learnblock2,593.1000000238419,img/planet8_right.png,8,Community 3,NA,TRUE,j,j,NA,NA,NA,5,6,"6,5,3,2,4,13,1,14,12,15,8,7,9,11,10"
14415,commdev-image-keyboard-response,578,1632477,learnblock2,835,img/planet9_right.png,9,Community 3,NA,TRUE,j,j,NA,NA,NA,5,6,"6,5,3,2,4,13,1,14,12,15,8,7,9,11,10"
14415,commdev-image-keyboard-response,579,1633733,learnblock2,824.9000000953674,img/planet11_left.png,11,Community 3,NA,TRUE,f,f,NA,NA,NA,5,6,"6,5,3,2,4,13,1,14,12,15,8,7,9,11,10"
14415,commdev-image-keyboard-response,580,1634989,learnblock2,611.2000000476837,img/planet9_left.png,9,Community 3,NA,TRUE,f,f,NA,NA,NA,5,6,"6,5,3,2,4,13,1,14,12,15,8,7,9,11,10"
14415,commdev-image-keyboard-response,581,1636248,learnblock2,509.7999999523163,img/planet8_right.png,8,Community 3,NA,TRUE,j,j,NA,NA,NA,5,6,"6,5,3,2,4,13,1,14,12,15,8,7,9,11,10"
14415,commdev-image-keyboard-response,582,1637515,learnblock2,545,img/planet4_right.png,4,Community 1,NA,TRUE,j,j,NA,NA,NA,5,6,"6,5,3,2,4,13,1,14,12,15,8,7,9,11,10"
14415,commdev-image-keyboard-response,583,1638782,learnblock2,571.2000000476837,img/planet8_left.png,8,Community 3,NA,TRUE,f,f,NA,NA,NA,5,6,"6,5,3,2,4,13,1,14,12,15,8,7,9,11,10"
14415,commdev-image-keyboard-response,584,1640036,learnblock2,566.8999999761581,img/planet11_right.png,11,Community 3,NA,TRUE,j,j,NA,NA,NA,5,6,"6,5,3,2,4,13,1,14,12,15,8,7,9,11,10"
14415,commdev-image-keyboard-response,585,1641301,learnblock2,533.8999999761581,img/planet10_right.png,10,Community 3,NA,TRUE,j,j,NA,NA,NA,5,6,"6,5,3,2,4,13,1,14,12,15,8,7,9,11,10"
14415,commdev-image-keyboard-response,586,1642556,learnblock2,560.0999999046326,img/planet8_left.png,8,Community 3,NA,TRUE,f,f,NA,NA,NA,5,6,"6,5,3,2,4,13,1,14,12,15,8,7,9,11,10"
14415,commdev-image-keyboard-response,587,1643819,learnblock2,474.10000002384186,img/planet4_right.png,4,Community 1,NA,TRUE,j,j,NA,NA,NA,5,6,"6,5,3,2,4,13,1,14,12,15,8,7,9,11,10"
14415,commdev-image-keyboard-response,588,1645072,learnblock2,508.7999999523163,img/planet3_left.png,3,Community 1,NA,TRUE,f,f,NA,NA,NA,5,6,"6,5,3,2,4,13,1,14,12,15,8,7,9,11,10"
14415,commdev-image-keyboard-response,589,1646335,learnblock2,720.6000000238419,img/planet6_left.png,6,Community 1,NA,TRUE,f,f,NA,NA,NA,5,6,"6,5,3,2,4,13,1,14,12,15,8,7,9,11,10"
14415,commdev-image-keyboard-response,590,1647589,learnblock2,660.2999999523163,img/planet5_right.png,5,Community 1,NA,TRUE,j,j,NA,NA,NA,5,6,"6,5,3,2,4,13,1,14,12,15,8,7,9,11,10"
14415,commdev-image-keyboard-response,591,1648843,learnblock2,647.3999999761581,img/planet6_left.png,6,Community 1,NA,TRUE,f,f,NA,NA,NA,5,6,"6,5,3,2,4,13,1,14,12,15,8,7,9,11,10"
14415,commdev-image-keyboard-response,592,1650100,learnblock2,685.6000000238419,img/planet3_right.png,3,Community 1,NA,TRUE,j,j,NA,NA,NA,5,6,"6,5,3,2,4,13,1,14,12,15,8,7,9,11,10"
14415,commdev-image-keyboard-response,593,1651362,learnblock2,721.2999999523163,img/planet5_right.png,5,Community 1,NA,FALSE,f,j,NA,NA,NA,5,6,"6,5,3,2,4,13,1,14,12,15,8,7,9,11,10"
14415,commdev-image-keyboard-response,594,1652622,learnblock2,578.6000000238419,img/planet2_right.png,2,Community 1,NA,TRUE,j,j,NA,NA,NA,5,6,"6,5,3,2,4,13,1,14,12,15,8,7,9,11,10"
14415,commdev-image-keyboard-response,595,1653874,learnblock2,638.9000000953674,img/planet5_left.png,5,Community 1,NA,TRUE,f,f,NA,NA,NA,5,6,"6,5,3,2,4,13,1,14,12,15,8,7,9,11,10"
14415,commdev-image-keyboard-response,596,1655132,learnblock2,631.3000000715256,img/planet3_left.png,3,Community 1,NA,TRUE,f,f,NA,NA,NA,5,6,"6,5,3,2,4,13,1,14,12,15,8,7,9,11,10"
14415,commdev-image-keyboard-response,597,1656391,learnblock2,760.8000000715256,img/planet2_right.png,2,Community 1,NA,TRUE,j,j,NA,NA,NA,5,6,"6,5,3,2,4,13,1,14,12,15,8,7,9,11,10"
14415,commdev-image-keyboard-response,598,1657647,learnblock2,932.5,img/planet3_right.png,3,Community 1,NA,TRUE,j,j,NA,NA,NA,5,6,"6,5,3,2,4,13,1,14,12,15,8,7,9,11,10"
14415,commdev-image-keyboard-response,599,1658909,learnblock2,786.5,img/planet2_right.png,2,Community 1,NA,TRUE,j,j,NA,NA,NA,5,6,"6,5,3,2,4,13,1,14,12,15,8,7,9,11,10"
14415,commdev-image-keyboard-response,600,1660167,learnblock2,759.5,img/planet3_left.png,3,Community 1,NA,TRUE,f,f,NA,NA,NA,5,6,"6,5,3,2,4,13,1,14,12,15,8,7,9,11,10"
14415,commdev-image-keyboard-response,601,1661421,learnblock2,743.8999999761581,img/planet2_right.png,2,Community 1,NA,TRUE,j,j,NA,NA,NA,5,6,"6,5,3,2,4,13,1,14,12,15,8,7,9,11,10"
14415,commdev-image-keyboard-response,602,1662676,learnblock2,758.2000000476837,img/planet13_left.png,13,Community 2,NA,TRUE,f,f,NA,NA,NA,5,6,"6,5,3,2,4,13,1,14,12,15,8,7,9,11,10"
14415,commdev-image-keyboard-response,603,1663933,learnblock2,661.1000000238419,img/planet1_left.png,1,Community 2,NA,TRUE,f,f,NA,NA,NA,5,6,"6,5,3,2,4,13,1,14,12,15,8,7,9,11,10"
14415,commdev-image-keyboard-response,604,1665186,learnblock2,771.2000000476837,img/planet15_left.png,15,Community 2,NA,TRUE,f,f,NA,NA,NA,5,6,"6,5,3,2,4,13,1,14,12,15,8,7,9,11,10"
14415,commdev-image-keyboard-response,605,1666438,learnblock2,758.9000000953674,img/planet1_left.png,1,Community 2,NA,TRUE,f,f,NA,NA,NA,5,6,"6,5,3,2,4,13,1,14,12,15,8,7,9,11,10"
14415,commdev-image-keyboard-response,606,1667700,learnblock2,677.2000000476837,img/planet15_right.png,15,Community 2,NA,TRUE,j,j,NA,NA,NA,5,6,"6,5,3,2,4,13,1,14,12,15,8,7,9,11,10"
14415,commdev-image-keyboard-response,607,1668963,learnblock2,831.5,img/planet14_right.png,14,Community 2,NA,TRUE,j,j,NA,NA,NA,5,6,"6,5,3,2,4,13,1,14,12,15,8,7,9,11,10"
14415,commdev-image-keyboard-response,608,1670219,learnblock2,643.5,img/planet7_right.png,7,Community 3,NA,TRUE,j,j,NA,NA,NA,5,6,"6,5,3,2,4,13,1,14,12,15,8,7,9,11,10"
14415,commdev-image-keyboard-response,609,1671473,learnblock2,936.7999999523163,img/planet14_right.png,14,Community 2,NA,TRUE,j,j,NA,NA,NA,5,6,"6,5,3,2,4,13,1,14,12,15,8,7,9,11,10"
14415,commdev-image-keyboard-response,610,1672726,learnblock2,743.8999999761581,img/planet12_right.png,12,Community 2,NA,TRUE,j,j,NA,NA,NA,5,6,"6,5,3,2,4,13,1,14,12,15,8,7,9,11,10"
14415,commdev-image-keyboard-response,611,1673984,learnblock2,676.2000000476837,img/planet1_left.png,1,Community 2,NA,FALSE,j,f,NA,NA,NA,5,6,"6,5,3,2,4,13,1,14,12,15,8,7,9,11,10"
14415,commdev-image-keyboard-response,612,1675243,learnblock2,831.8000000715256,img/planet15_right.png,15,Community 2,NA,TRUE,j,j,NA,NA,NA,5,6,"6,5,3,2,4,13,1,14,12,15,8,7,9,11,10"
14415,commdev-image-keyboard-response,613,1676507,learnblock2,807.2999999523163,img/planet13_left.png,13,Community 2,NA,TRUE,f,f,NA,NA,NA,5,6,"6,5,3,2,4,13,1,14,12,15,8,7,9,11,10"
14415,commdev-image-keyboard-response,614,1677768,learnblock2,602.8999999761581,img/planet15_right.png,15,Community 2,NA,TRUE,j,j,NA,NA,NA,5,6,"6,5,3,2,4,13,1,14,12,15,8,7,9,11,10"
14415,commdev-image-keyboard-response,615,1679022,learnblock2,843.6999999284744,img/planet12_right.png,12,Community 2,NA,TRUE,j,j,NA,NA,NA,5,6,"6,5,3,2,4,13,1,14,12,15,8,7,9,11,10"
14415,commdev-image-keyboard-response,616,1680278,learnblock2,860,img/planet13_right.png,13,Community 2,NA,TRUE,j,j,NA,NA,NA,5,6,"6,5,3,2,4,13,1,14,12,15,8,7,9,11,10"
14415,commdev-image-keyboard-response,617,1681542,learnblock2,826.3999999761581,img/planet1_right.png,1,Community 2,NA,TRUE,j,j,NA,NA,NA,5,6,"6,5,3,2,4,13,1,14,12,15,8,7,9,11,10"
14415,commdev-image-keyboard-response,618,1682797,learnblock2,622.2999999523163,img/planet14_right.png,14,Community 2,NA,TRUE,j,j,NA,NA,NA,5,6,"6,5,3,2,4,13,1,14,12,15,8,7,9,11,10"
14415,commdev-image-keyboard-response,619,1684059,learnblock2,787.8999999761581,img/planet15_left.png,15,Community 2,NA,FALSE,j,f,NA,NA,NA,5,6,"6,5,3,2,4,13,1,14,12,15,8,7,9,11,10"
14415,commdev-image-keyboard-response,620,1685313,learnblock2,1082.6000000238419,img/planet12_left.png,12,Community 2,NA,TRUE,f,f,NA,NA,NA,5,6,"6,5,3,2,4,13,1,14,12,15,8,7,9,11,10"
14415,commdev-image-keyboard-response,621,1686573,learnblock2,779.3999999761581,img/planet14_left.png,14,Community 2,NA,TRUE,f,f,NA,NA,NA,5,6,"6,5,3,2,4,13,1,14,12,15,8,7,9,11,10"
14415,commdev-image-keyboard-response,622,1687828,learnblock2,620.8999999761581,img/planet1_right.png,1,Community 2,NA,TRUE,j,j,NA,NA,NA,5,6,"6,5,3,2,4,13,1,14,12,15,8,7,9,11,10"
14415,commdev-image-keyboard-response,623,1689082,learnblock2,797.6999999284744,img/planet12_left.png,12,Community 2,NA,TRUE,f,f,NA,NA,NA,5,6,"6,5,3,2,4,13,1,14,12,15,8,7,9,11,10"
14415,commdev-image-keyboard-response,624,1690349,learnblock2,553.5,img/planet14_right.png,14,Community 2,NA,TRUE,j,j,NA,NA,NA,5,6,"6,5,3,2,4,13,1,14,12,15,8,7,9,11,10"
14415,commdev-image-keyboard-response,625,1691609,learnblock2,895.1000000238419,img/planet15_left.png,15,Community 2,NA,TRUE,f,f,NA,NA,NA,5,6,"6,5,3,2,4,13,1,14,12,15,8,7,9,11,10"
14415,commdev-image-keyboard-response,626,1692873,learnblock2,721.1000000238419,img/planet1_right.png,1,Community 2,NA,TRUE,j,j,NA,NA,NA,5,6,"6,5,3,2,4,13,1,14,12,15,8,7,9,11,10"
14415,commdev-image-keyboard-response,627,1694137,learnblock2,815.8999999761581,img/planet12_right.png,12,Community 2,NA,TRUE,j,j,NA,NA,NA,5,6,"6,5,3,2,4,13,1,14,12,15,8,7,9,11,10"
14415,commdev-image-keyboard-response,628,1695390,learnblock2,556.1000000238419,img/planet13_right.png,13,Community 2,NA,TRUE,j,j,NA,NA,NA,5,6,"6,5,3,2,4,13,1,14,12,15,8,7,9,11,10"
14415,commdev-image-keyboard-response,629,1696644,learnblock2,603.3999999761581,img/planet1_right.png,1,Community 2,NA,TRUE,j,j,NA,NA,NA,5,6,"6,5,3,2,4,13,1,14,12,15,8,7,9,11,10"
14415,commdev-image-keyboard-response,630,1697899,learnblock2,564.7000000476837,img/planet14_left.png,14,Community 2,NA,TRUE,f,f,NA,NA,NA,5,6,"6,5,3,2,4,13,1,14,12,15,8,7,9,11,10"
14415,commdev-image-keyboard-response,631,1699160,learnblock2,638.8999999761581,img/planet15_right.png,15,Community 2,NA,TRUE,j,j,NA,NA,NA,5,6,"6,5,3,2,4,13,1,14,12,15,8,7,9,11,10"
14415,commdev-image-keyboard-response,632,1700426,learnblock2,605.3999999761581,img/planet1_left.png,1,Community 2,NA,TRUE,f,f,NA,NA,NA,5,6,"6,5,3,2,4,13,1,14,12,15,8,7,9,11,10"
14415,commdev-image-keyboard-response,633,1701684,learnblock2,754.8999999761581,img/planet14_right.png,14,Community 2,NA,TRUE,j,j,NA,NA,NA,5,6,"6,5,3,2,4,13,1,14,12,15,8,7,9,11,10"
14415,commdev-image-keyboard-response,634,1702938,learnblock2,562,img/planet12_left.png,12,Community 2,NA,TRUE,f,f,NA,NA,NA,5,6,"6,5,3,2,4,13,1,14,12,15,8,7,9,11,10"
14415,commdev-image-keyboard-response,635,1704206,learnblock2,734.7999999523163,img/planet13_right.png,13,Community 2,NA,TRUE,j,j,NA,NA,NA,5,6,"6,5,3,2,4,13,1,14,12,15,8,7,9,11,10"
14415,commdev-image-keyboard-response,636,1705472,learnblock2,786.8999999761581,img/planet2_right.png,2,Community 1,NA,TRUE,j,j,NA,NA,NA,5,6,"6,5,3,2,4,13,1,14,12,15,8,7,9,11,10"
14415,commdev-image-keyboard-response,637,1706731,learnblock2,603.7000000476837,img/planet3_right.png,3,Community 1,NA,TRUE,j,j,NA,NA,NA,5,6,"6,5,3,2,4,13,1,14,12,15,8,7,9,11,10"
14415,commdev-image-keyboard-response,638,1707985,learnblock2,649.7999999523163,img/planet5_left.png,5,Community 1,NA,TRUE,f,f,NA,NA,NA,5,6,"6,5,3,2,4,13,1,14,12,15,8,7,9,11,10"
14415,commdev-image-keyboard-response,639,1709236,learnblock2,596.0999999046326,img/planet2_right.png,2,Community 1,NA,TRUE,j,j,NA,NA,NA,5,6,"6,5,3,2,4,13,1,14,12,15,8,7,9,11,10"
14415,commdev-image-keyboard-response,640,1710493,learnblock2,802.6999999284744,img/planet3_right.png,3,Community 1,NA,TRUE,j,j,NA,NA,NA,5,6,"6,5,3,2,4,13,1,14,12,15,8,7,9,11,10"
14415,commdev-image-keyboard-response,641,1711746,learnblock2,682.1999999284744,img/planet6_left.png,6,Community 1,NA,FALSE,j,f,NA,NA,NA,5,6,"6,5,3,2,4,13,1,14,12,15,8,7,9,11,10"
14415,commdev-image-keyboard-response,642,1713005,learnblock2,786.8999999761581,img/planet2_right.png,2,Community 1,NA,TRUE,j,j,NA,NA,NA,5,6,"6,5,3,2,4,13,1,14,12,15,8,7,9,11,10"
14415,commdev-image-keyboard-response,643,1714273,learnblock2,828.2000000476837,img/planet13_left.png,13,Community 2,NA,TRUE,f,f,NA,NA,NA,5,6,"6,5,3,2,4,13,1,14,12,15,8,7,9,11,10"
14415,commdev-image-keyboard-response,644,1715528,learnblock2,821.7999999523163,img/planet1_left.png,1,Community 2,NA,TRUE,f,f,NA,NA,NA,5,6,"6,5,3,2,4,13,1,14,12,15,8,7,9,11,10"
14415,commdev-image-keyboard-response,645,1716793,learnblock2,559,img/planet15_right.png,15,Community 2,NA,TRUE,j,j,NA,NA,NA,5,6,"6,5,3,2,4,13,1,14,12,15,8,7,9,11,10"
14415,commdev-image-keyboard-response,646,1718050,learnblock2,820.7000000476837,img/planet12_right.png,12,Community 2,NA,TRUE,j,j,NA,NA,NA,5,6,"6,5,3,2,4,13,1,14,12,15,8,7,9,11,10"
14415,commdev-image-keyboard-response,647,1719310,learnblock2,827.8999999761581,img/planet15_left.png,15,Community 2,NA,TRUE,f,f,NA,NA,NA,5,6,"6,5,3,2,4,13,1,14,12,15,8,7,9,11,10"
14415,commdev-image-keyboard-response,648,1720562,learnblock2,898.2000000476837,img/planet1_left.png,1,Community 2,NA,TRUE,f,f,NA,NA,NA,5,6,"6,5,3,2,4,13,1,14,12,15,8,7,9,11,10"
14415,commdev-image-keyboard-response,649,1721816,learnblock2,1033.1999999284744,img/planet15_left.png,15,Community 2,NA,FALSE,j,f,NA,NA,NA,5,6,"6,5,3,2,4,13,1,14,12,15,8,7,9,11,10"
14415,commdev-image-keyboard-response,650,1723073,learnblock2,611.3999999761581,img/planet1_right.png,1,Community 2,NA,TRUE,j,j,NA,NA,NA,5,6,"6,5,3,2,4,13,1,14,12,15,8,7,9,11,10"
14415,commdev-image-keyboard-response,651,1724330,learnblock2,658,img/planet13_left.png,13,Community 2,NA,TRUE,f,f,NA,NA,NA,5,6,"6,5,3,2,4,13,1,14,12,15,8,7,9,11,10"
14415,commdev-image-keyboard-response,652,1725584,learnblock2,582.8999999761581,img/planet1_right.png,1,Community 2,NA,TRUE,j,j,NA,NA,NA,5,6,"6,5,3,2,4,13,1,14,12,15,8,7,9,11,10"
14415,commdev-image-keyboard-response,653,1726840,learnblock2,1132.1000000238419,img/planet15_left.png,15,Community 2,NA,TRUE,f,f,NA,NA,NA,5,6,"6,5,3,2,4,13,1,14,12,15,8,7,9,11,10"
14415,commdev-image-keyboard-response,654,1728094,learnblock2,739.5,img/planet1_left.png,1,Community 2,NA,TRUE,f,f,NA,NA,NA,5,6,"6,5,3,2,4,13,1,14,12,15,8,7,9,11,10"
14415,commdev-image-keyboard-response,655,1729360,learnblock2,557.1999999284744,img/planet15_right.png,15,Community 2,NA,TRUE,j,j,NA,NA,NA,5,6,"6,5,3,2,4,13,1,14,12,15,8,7,9,11,10"
14415,commdev-image-keyboard-response,656,1730619,learnblock2,893.5,img/planet13_right.png,13,Community 2,NA,TRUE,j,j,NA,NA,NA,5,6,"6,5,3,2,4,13,1,14,12,15,8,7,9,11,10"
14415,commdev-image-keyboard-response,657,1731874,learnblock2,765.7000000476837,img/planet1_right.png,1,Community 2,NA,TRUE,j,j,NA,NA,NA,5,6,"6,5,3,2,4,13,1,14,12,15,8,7,9,11,10"
14415,commdev-image-keyboard-response,658,1733133,learnblock2,682.5,img/planet13_right.png,13,Community 2,NA,TRUE,j,j,NA,NA,NA,5,6,"6,5,3,2,4,13,1,14,12,15,8,7,9,11,10"
14415,commdev-image-keyboard-response,659,1734386,learnblock2,700.6000000238419,img/planet12_left.png,12,Community 2,NA,TRUE,f,f,NA,NA,NA,5,6,"6,5,3,2,4,13,1,14,12,15,8,7,9,11,10"
14415,commdev-image-keyboard-response,660,1735655,learnblock2,693,img/planet1_right.png,1,Community 2,NA,TRUE,j,j,NA,NA,NA,5,6,"6,5,3,2,4,13,1,14,12,15,8,7,9,11,10"
14415,commdev-image-keyboard-response,661,1736915,learnblock2,615.0999999046326,img/planet12_left.png,12,Community 2,NA,TRUE,f,f,NA,NA,NA,5,6,"6,5,3,2,4,13,1,14,12,15,8,7,9,11,10"
14415,commdev-image-keyboard-response,662,1738169,learnblock2,500.60000002384186,img/planet15_left.png,15,Community 2,NA,FALSE,j,f,NA,NA,NA,5,6,"6,5,3,2,4,13,1,14,12,15,8,7,9,11,10"
14415,commdev-image-keyboard-response,663,1739425,learnblock2,832.2999999523163,img/planet13_right.png,13,Community 2,NA,TRUE,j,j,NA,NA,NA,5,6,"6,5,3,2,4,13,1,14,12,15,8,7,9,11,10"
14415,commdev-image-keyboard-response,664,1740681,learnblock2,1038.8999999761581,img/planet2_left.png,2,Community 1,NA,TRUE,f,f,NA,NA,NA,5,6,"6,5,3,2,4,13,1,14,12,15,8,7,9,11,10"
14415,commdev-image-keyboard-response,665,1741948,learnblock2,906.9000000953674,img/planet5_left.png,5,Community 1,NA,TRUE,f,f,NA,NA,NA,5,6,"6,5,3,2,4,13,1,14,12,15,8,7,9,11,10"
14415,commdev-image-keyboard-response,666,1743212,learnblock2,691.3999999761581,img/planet6_right.png,6,Community 1,NA,TRUE,j,j,NA,NA,NA,5,6,"6,5,3,2,4,13,1,14,12,15,8,7,9,11,10"
14415,commdev-image-keyboard-response,667,1744476,learnblock2,958.3999999761581,img/planet2_right.png,2,Community 1,NA,TRUE,j,j,NA,NA,NA,5,6,"6,5,3,2,4,13,1,14,12,15,8,7,9,11,10"
14415,commdev-image-keyboard-response,668,1745732,learnblock2,764.5,img/planet13_left.png,13,Community 2,NA,TRUE,f,f,NA,NA,NA,5,6,"6,5,3,2,4,13,1,14,12,15,8,7,9,11,10"
14415,commdev-image-keyboard-response,669,1746984,learnblock2,1081.7000000476837,img/planet15_left.png,15,Community 2,NA,TRUE,f,f,NA,NA,NA,5,6,"6,5,3,2,4,13,1,14,12,15,8,7,9,11,10"
14415,commdev-image-keyboard-response,670,1748239,learnblock2,1049.7999999523163,img/planet13_left.png,13,Community 2,NA,TRUE,f,f,NA,NA,NA,5,6,"6,5,3,2,4,13,1,14,12,15,8,7,9,11,10"
14415,commdev-image-keyboard-response,671,1749496,learnblock2,729.2999999523163,img/planet12_left.png,12,Community 2,NA,TRUE,f,f,NA,NA,NA,5,6,"6,5,3,2,4,13,1,14,12,15,8,7,9,11,10"
14415,commdev-image-keyboard-response,672,1750754,learnblock2,689.3000000715256,img/planet15_right.png,15,Community 2,NA,TRUE,j,j,NA,NA,NA,5,6,"6,5,3,2,4,13,1,14,12,15,8,7,9,11,10"
14415,commdev-image-keyboard-response,673,1752008,learnblock2,691.7000000476837,img/planet14_right.png,14,Community 2,NA,TRUE,j,j,NA,NA,NA,5,6,"6,5,3,2,4,13,1,14,12,15,8,7,9,11,10"
14415,commdev-image-keyboard-response,674,1753264,learnblock2,746.0999999046326,img/planet1_left.png,1,Community 2,NA,TRUE,f,f,NA,NA,NA,5,6,"6,5,3,2,4,13,1,14,12,15,8,7,9,11,10"
14415,commdev-image-keyboard-response,675,1754518,learnblock2,574.8999999761581,img/planet15_right.png,15,Community 2,NA,FALSE,f,j,NA,NA,NA,5,6,"6,5,3,2,4,13,1,14,12,15,8,7,9,11,10"
14415,commdev-image-keyboard-response,676,1755773,learnblock2,1049.8999999761581,img/planet13_left.png,13,Community 2,NA,TRUE,f,f,NA,NA,NA,5,6,"6,5,3,2,4,13,1,14,12,15,8,7,9,11,10"
14415,commdev-image-keyboard-response,677,1757032,learnblock2,497.6999999284744,img/planet12_right.png,12,Community 2,NA,TRUE,j,j,NA,NA,NA,5,6,"6,5,3,2,4,13,1,14,12,15,8,7,9,11,10"
14415,commdev-image-keyboard-response,678,1758299,learnblock2,669.2000000476837,img/planet15_right.png,15,Community 2,NA,TRUE,j,j,NA,NA,NA,5,6,"6,5,3,2,4,13,1,14,12,15,8,7,9,11,10"
14415,commdev-image-keyboard-response,679,1759558,learnblock2,786.6000000238419,img/planet12_right.png,12,Community 2,NA,TRUE,j,j,NA,NA,NA,5,6,"6,5,3,2,4,13,1,14,12,15,8,7,9,11,10"
14415,commdev-image-keyboard-response,680,1760814,learnblock2,1033.3999999761581,img/planet13_right.png,13,Community 2,NA,TRUE,j,j,NA,NA,NA,5,6,"6,5,3,2,4,13,1,14,12,15,8,7,9,11,10"
14415,commdev-image-keyboard-response,681,1762072,learnblock2,730.3999999761581,img/planet12_left.png,12,Community 2,NA,TRUE,f,f,NA,NA,NA,5,6,"6,5,3,2,4,13,1,14,12,15,8,7,9,11,10"
14415,commdev-image-keyboard-response,682,1763332,learnblock2,965,img/planet13_right.png,13,Community 2,NA,FALSE,f,j,NA,NA,NA,5,6,"6,5,3,2,4,13,1,14,12,15,8,7,9,11,10"
14415,commdev-image-keyboard-response,683,1764591,learnblock2,712.1999999284744,img/planet2_left.png,2,Community 1,NA,TRUE,f,f,NA,NA,NA,5,6,"6,5,3,2,4,13,1,14,12,15,8,7,9,11,10"
14415,commdev-image-keyboard-response,684,1765847,learnblock2,719.6000000238419,img/planet5_left.png,5,Community 1,NA,TRUE,f,f,NA,NA,NA,5,6,"6,5,3,2,4,13,1,14,12,15,8,7,9,11,10"
14415,commdev-image-keyboard-response,685,1767100,learnblock2,733,img/planet2_left.png,2,Community 1,NA,TRUE,f,f,NA,NA,NA,5,6,"6,5,3,2,4,13,1,14,12,15,8,7,9,11,10"
14415,commdev-image-keyboard-response,686,1768368,learnblock2,716,img/planet13_left.png,13,Community 2,NA,TRUE,f,f,NA,NA,NA,5,6,"6,5,3,2,4,13,1,14,12,15,8,7,9,11,10"
14415,commdev-image-keyboard-response,687,1769632,learnblock2,683.2000000476837,img/planet12_right.png,12,Community 2,NA,TRUE,j,j,NA,NA,NA,5,6,"6,5,3,2,4,13,1,14,12,15,8,7,9,11,10"
14415,commdev-image-keyboard-response,688,1770899,learnblock2,680.6999999284744,img/planet13_right.png,13,Community 2,NA,TRUE,j,j,NA,NA,NA,5,6,"6,5,3,2,4,13,1,14,12,15,8,7,9,11,10"
14415,commdev-image-keyboard-response,689,1772154,learnblock2,735.3999999761581,img/planet12_right.png,12,Community 2,NA,TRUE,j,j,NA,NA,NA,5,6,"6,5,3,2,4,13,1,14,12,15,8,7,9,11,10"
14415,commdev-image-keyboard-response,690,1773418,learnblock2,768.5,img/planet1_right.png,1,Community 2,NA,TRUE,j,j,NA,NA,NA,5,6,"6,5,3,2,4,13,1,14,12,15,8,7,9,11,10"
14415,commdev-image-keyboard-response,691,1774675,learnblock2,722.5,img/planet12_left.png,12,Community 2,NA,TRUE,f,f,NA,NA,NA,5,6,"6,5,3,2,4,13,1,14,12,15,8,7,9,11,10"
14415,commdev-image-keyboard-response,692,1775940,learnblock2,888.1000000238419,img/planet15_right.png,15,Community 2,NA,TRUE,j,j,NA,NA,NA,5,6,"6,5,3,2,4,13,1,14,12,15,8,7,9,11,10"
14415,commdev-image-keyboard-response,693,1777202,learnblock2,729.1999999284744,img/planet12_left.png,12,Community 2,NA,TRUE,f,f,NA,NA,NA,5,6,"6,5,3,2,4,13,1,14,12,15,8,7,9,11,10"
14415,commdev-image-keyboard-response,694,1778462,learnblock2,672.6000000238419,img/planet13_right.png,13,Community 2,NA,TRUE,j,j,NA,NA,NA,5,6,"6,5,3,2,4,13,1,14,12,15,8,7,9,11,10"
14415,commdev-image-keyboard-response,695,1779726,learnblock2,572.2999999523163,img/planet2_right.png,2,Community 1,NA,FALSE,f,j,NA,NA,NA,5,6,"6,5,3,2,4,13,1,14,12,15,8,7,9,11,10"
14415,commdev-image-keyboard-response,696,1780979,learnblock2,630.2000000476837,img/planet13_left.png,13,Community 2,NA,TRUE,f,f,NA,NA,NA,5,6,"6,5,3,2,4,13,1,14,12,15,8,7,9,11,10"
14415,commdev-image-keyboard-response,697,1782230,learnblock2,650.1000000238419,img/planet12_right.png,12,Community 2,NA,TRUE,j,j,NA,NA,NA,5,6,"6,5,3,2,4,13,1,14,12,15,8,7,9,11,10"
14415,commdev-image-keyboard-response,698,1783483,learnblock2,762.8999999761581,img/planet1_right.png,1,Community 2,NA,TRUE,j,j,NA,NA,NA,5,6,"6,5,3,2,4,13,1,14,12,15,8,7,9,11,10"
14415,commdev-image-keyboard-response,699,1784742,learnblock2,715.3999999761581,img/planet14_right.png,14,Community 2,NA,TRUE,j,j,NA,NA,NA,5,6,"6,5,3,2,4,13,1,14,12,15,8,7,9,11,10"
14415,commdev-image-keyboard-response,700,1785998,learnblock2,759,img/planet7_right.png,7,Community 3,NA,TRUE,j,j,NA,NA,NA,5,6,"6,5,3,2,4,13,1,14,12,15,8,7,9,11,10"
14415,commdev-image-keyboard-response,701,1787255,learnblock2,705,img/planet9_right.png,9,Community 3,NA,TRUE,j,j,NA,NA,NA,5,6,"6,5,3,2,4,13,1,14,12,15,8,7,9,11,10"
14415,commdev-image-keyboard-response,702,1788509,learnblock2,735.2999999523163,img/planet8_left.png,8,Community 3,NA,TRUE,f,f,NA,NA,NA,5,6,"6,5,3,2,4,13,1,14,12,15,8,7,9,11,10"
14415,commdev-image-keyboard-response,703,1789766,learnblock2,710.6000000238419,img/planet4_left.png,4,Community 1,NA,TRUE,f,f,NA,NA,NA,5,6,"6,5,3,2,4,13,1,14,12,15,8,7,9,11,10"
14415,commdev-image-keyboard-response,704,1791029,learnblock2,693.7999999523163,img/planet8_right.png,8,Community 3,NA,TRUE,j,j,NA,NA,NA,5,6,"6,5,3,2,4,13,1,14,12,15,8,7,9,11,10"
14415,commdev-image-keyboard-response,705,1792286,learnblock2,652,img/planet4_left.png,4,Community 1,NA,TRUE,f,f,NA,NA,NA,5,6,"6,5,3,2,4,13,1,14,12,15,8,7,9,11,10"
14415,commdev-image-keyboard-response,706,1793539,learnblock2,540.8000000715256,img/planet8_right.png,8,Community 3,NA,TRUE,j,j,NA,NA,NA,5,6,"6,5,3,2,4,13,1,14,12,15,8,7,9,11,10"
14415,commdev-image-keyboard-response,707,1794793,learnblock2,830.2000000476837,img/planet11_right.png,11,Community 3,NA,TRUE,j,j,NA,NA,NA,5,6,"6,5,3,2,4,13,1,14,12,15,8,7,9,11,10"
14415,commdev-image-keyboard-response,708,1796061,learnblock2,667.5,img/planet10_right.png,10,Community 3,NA,TRUE,j,j,NA,NA,NA,5,6,"6,5,3,2,4,13,1,14,12,15,8,7,9,11,10"
14415,commdev-image-keyboard-response,709,1797319,learnblock2,640.3999999761581,img/planet7_left.png,7,Community 3,NA,TRUE,f,f,NA,NA,NA,5,6,"6,5,3,2,4,13,1,14,12,15,8,7,9,11,10"
14415,commdev-image-keyboard-response,710,1798579,learnblock2,657.3999999761581,img/planet11_right.png,11,Community 3,NA,TRUE,j,j,NA,NA,NA,5,6,"6,5,3,2,4,13,1,14,12,15,8,7,9,11,10"
14415,commdev-image-keyboard-response,711,1799838,learnblock2,623.2000000476837,img/planet9_left.png,9,Community 3,NA,TRUE,f,f,NA,NA,NA,5,6,"6,5,3,2,4,13,1,14,12,15,8,7,9,11,10"
