subject_id,trial_type,trial_index,time_elapsed,block,rt,stimulus,planet,community,response,correct,key_press,learning_correct_response,parse,init_locations,final_locations,browser_interactions,num_comp,planet_map
15140,commdev-instructions,7,80674,NA,4172.5,"<p>In this game, you are a scientist on board a space shuttle. </p><p> On each mission, you will visit planets all across the universe.</p><img src=""img/controlroom.jpg"" width=300vw>",NA,NA,NA,NA,NA,NA,NA,NA,NA,4,6,"15,3,2,9,11,5,1,10,6,8,13,7,4,14,12"
15140,commdev-instructions,8,84782,NA,2030.7999992370605,"<p>Here are a few planets you might see:</p><img src=""img/practice1.png"" width=200vw><img src=""img/practice2.png"" width=200vw><img src=""img/practice3.png"" width=200vw>",NA,NA,NA,NA,NA,NA,NA,NA,NA,4,6,"15,3,2,9,11,5,1,10,6,8,13,7,4,14,12"
15140,commdev-instructions,9,94706,NA,2525.1000003814697,"<p>Your job as a scientist is to record which direction the winds are moving on each planet.</p><p>There are two types of wind directions:</p><img src=""img/practice1_left.png"" width=200vw><img src=""img/practice1_right.png"" width=200vw>",NA,NA,NA,NA,NA,NA,NA,NA,NA,4,6,"15,3,2,9,11,5,1,10,6,8,13,7,4,14,12"
15140,commdev-instructions,10,104053,NA,4462.10000038147,"<p>If the winds are moving this way, press the letter <strong>F</strong> on the keyboard as fast as you can.</p><img src=""img/leftwind.png"" width=250vw>",NA,NA,NA,NA,NA,NA,NA,NA,NA,4,6,"15,3,2,9,11,5,1,10,6,8,13,7,4,14,12"
15140,commdev-instructions,11,111576,NA,3014.7000007629395,"<p>If the winds are moving this way, press the letter <strong>J</strong> on the keyboard as fast as you can.</p><img src=""img/rightwind.png"" width=350vw>",NA,NA,NA,NA,NA,NA,NA,NA,NA,4,6,"15,3,2,9,11,5,1,10,6,8,13,7,4,14,12"
15140,commdev-instructions,12,118391,NA,2390.6000003814697,<p>You will have 1 second to respond. Try to respond before the time runs out!,NA,NA,NA,NA,NA,NA,NA,NA,NA,4,6,"15,3,2,9,11,5,1,10,6,8,13,7,4,14,12"
15140,commdev-instructions,13,124977,NA,1146.6000003814697,<p>The planets you will visit will look different from each other.</p><p>You should respond <strong>only</strong> based on wind direction.,NA,NA,NA,NA,NA,NA,NA,NA,NA,4,6,"15,3,2,9,11,5,1,10,6,8,13,7,4,14,12"
15140,commdev-instructions,14,131315,NA,1153.5,"<p> Ready to start the practice round? </p><p> Remember, press <strong>F</strong> or <strong>J</strong> depending on the wind direction.<br><img src=""img/categorize_planet_example.png""",NA,NA,NA,NA,NA,NA,NA,NA,NA,4,6,"15,3,2,9,11,5,1,10,6,8,13,7,4,14,12"
15140,commdev-instructions,26,189985,NA,2541.7999992370605,"<p>Great, now try a short practice mission. </p><p> This time, you will have 1 second to respond and you won't know whether you pressed the right or wrong key for each planet.</p>",NA,NA,NA,NA,NA,NA,NA,NA,NA,4,6,"15,3,2,9,11,5,1,10,6,8,13,7,4,14,12"
15140,commdev-image-keyboard-response,27,191354,practice,808,img/practice2_right.png,NA,Number not found in mappings,NA,FALSE,f,j,NA,NA,NA,4,6,"15,3,2,9,11,5,1,10,6,8,13,7,4,14,12"
15140,commdev-image-keyboard-response,28,192621,practice,737.6999988555908,img/practice3_right.png,NA,Number not found in mappings,NA,TRUE,j,j,NA,NA,NA,4,6,"15,3,2,9,11,5,1,10,6,8,13,7,4,14,12"
15140,commdev-image-keyboard-response,29,193879,practice,350.79999923706055,img/practice4_left.png,NA,Number not found in mappings,NA,TRUE,f,f,NA,NA,NA,4,6,"15,3,2,9,11,5,1,10,6,8,13,7,4,14,12"
15140,commdev-image-keyboard-response,30,195133,practice,292.6000003814697,img/practice3_right.png,NA,Number not found in mappings,NA,FALSE,f,j,NA,NA,NA,4,6,"15,3,2,9,11,5,1,10,6,8,13,7,4,14,12"
15140,commdev-image-keyboard-response,31,196393,practice,349.6000003814697,img/practice2_right.png,NA,Number not found in mappings,NA,FALSE,f,j,NA,NA,NA,4,6,"15,3,2,9,11,5,1,10,6,8,13,7,4,14,12"
15140,commdev-image-keyboard-response,32,197662,practice,258.8000011444092,img/practice4_left.png,NA,Number not found in mappings,NA,FALSE,j,f,NA,NA,NA,4,6,"15,3,2,9,11,5,1,10,6,8,13,7,4,14,12"
15140,commdev-image-keyboard-response,33,198915,practice,70,img/practice2_right.png,NA,Number not found in mappings,NA,FALSE,f,j,NA,NA,NA,4,6,"15,3,2,9,11,5,1,10,6,8,13,7,4,14,12"
15140,commdev-image-keyboard-response,34,200168,practice,417.29999923706055,img/practice4_left.png,NA,Number not found in mappings,NA,FALSE,j,f,NA,NA,NA,4,6,"15,3,2,9,11,5,1,10,6,8,13,7,4,14,12"
15140,commdev-instructions,35,210189,NA,465.8000011444092,"<p>Great job with the practice round.</p><p>During real missions, you won't know whether you pressed the right or wrong key for each planet.</p><p>But between missions, we will tell you how you did overall.</p>",NA,NA,NA,NA,NA,NA,NA,NA,NA,4,6,"15,3,2,9,11,5,1,10,6,8,13,7,4,14,12"
15140,commdev-instructions,36,219110,NA,667.1000003814697,<p>Try your best! You will be paid a bonus based on how many correct responses you make!</p><p>Responses that are too slow will not count toward your bonus.</p>,NA,NA,NA,NA,NA,NA,NA,NA,NA,4,6,"15,3,2,9,11,5,1,10,6,8,13,7,4,14,12"
15140,commdev-instructions,37,230648,NA,5324.099998474121,"<p>You are almost ready to start the real game.</p><p> First, we are going to ask you some questions about how the game works.</p>",NA,NA,NA,NA,NA,NA,NA,NA,NA,4,6,"15,3,2,9,11,5,1,10,6,8,13,7,4,14,12"
15140,commdev-instructions,46,344860,NA,3793.7999992370605,"<p> Nice work! It is now time to start the real game.<p></p>You will go on two missions to record wind directions of different planets.<p></p>Each one will take about 5 minutes. You will get to take a break between missions.<p><p> Remember, press <strong>F</strong> or <strong>J</strong> depending on the wind direction. Good luck!<br><img src=""img/categorize_planet_example.png""",NA,NA,NA,NA,NA,NA,NA,NA,NA,4,6,"15,3,2,9,11,5,1,10,6,8,13,7,4,14,12"
15140,commdev-image-keyboard-response,48,352161,learnblock1,1027.3000011444092,img/planet8_right.png,8,Community 2,NA,TRUE,j,j,NA,NA,NA,4,6,"15,3,2,9,11,5,1,10,6,8,13,7,4,14,12"
15140,commdev-image-keyboard-response,49,353425,learnblock1,687.1000003814697,img/planet6_right.png,6,Community 2,NA,TRUE,j,j,NA,NA,NA,4,6,"15,3,2,9,11,5,1,10,6,8,13,7,4,14,12"
15140,commdev-image-keyboard-response,50,354680,learnblock1,612.6999988555908,img/planet5_right.png,5,Community 2,NA,TRUE,j,j,NA,NA,NA,4,6,"15,3,2,9,11,5,1,10,6,8,13,7,4,14,12"
15140,commdev-image-keyboard-response,51,355936,learnblock1,668.6999988555908,img/planet9_right.png,9,Community 1,NA,TRUE,j,j,NA,NA,NA,4,6,"15,3,2,9,11,5,1,10,6,8,13,7,4,14,12"
15140,commdev-image-keyboard-response,52,357199,learnblock1,662.7000007629395,img/planet3_left.png,3,Community 1,NA,FALSE,j,f,NA,NA,NA,4,6,"15,3,2,9,11,5,1,10,6,8,13,7,4,14,12"
15140,commdev-image-keyboard-response,53,358456,learnblock1,809.1999988555908,img/planet2_right.png,2,Community 1,NA,TRUE,j,j,NA,NA,NA,4,6,"15,3,2,9,11,5,1,10,6,8,13,7,4,14,12"
15140,commdev-image-keyboard-response,54,359707,learnblock1,742.5,img/planet9_left.png,9,Community 1,NA,TRUE,f,f,NA,NA,NA,4,6,"15,3,2,9,11,5,1,10,6,8,13,7,4,14,12"
15140,commdev-image-keyboard-response,55,360974,learnblock1,760.8000011444092,img/planet5_left.png,5,Community 2,NA,TRUE,f,f,NA,NA,NA,4,6,"15,3,2,9,11,5,1,10,6,8,13,7,4,14,12"
15140,commdev-image-keyboard-response,56,362239,learnblock1,734.2999992370605,img/planet6_left.png,6,Community 2,NA,TRUE,f,f,NA,NA,NA,4,6,"15,3,2,9,11,5,1,10,6,8,13,7,4,14,12"
15140,commdev-image-keyboard-response,57,363490,learnblock1,719.5,img/planet10_left.png,10,Community 2,NA,TRUE,f,f,NA,NA,NA,4,6,"15,3,2,9,11,5,1,10,6,8,13,7,4,14,12"
15140,commdev-image-keyboard-response,58,364742,learnblock1,988,img/planet8_right.png,8,Community 2,NA,TRUE,j,j,NA,NA,NA,4,6,"15,3,2,9,11,5,1,10,6,8,13,7,4,14,12"
15140,commdev-image-keyboard-response,59,365997,learnblock1,816.6000003814697,img/planet1_right.png,1,Community 2,NA,TRUE,j,j,NA,NA,NA,4,6,"15,3,2,9,11,5,1,10,6,8,13,7,4,14,12"
15140,commdev-image-keyboard-response,60,367259,learnblock1,701.1999988555908,img/planet6_right.png,6,Community 2,NA,TRUE,j,j,NA,NA,NA,4,6,"15,3,2,9,11,5,1,10,6,8,13,7,4,14,12"
15140,commdev-image-keyboard-response,61,368525,learnblock1,749.3999996185303,img/planet10_right.png,10,Community 2,NA,TRUE,j,j,NA,NA,NA,4,6,"15,3,2,9,11,5,1,10,6,8,13,7,4,14,12"
15140,commdev-image-keyboard-response,62,369788,learnblock1,812.8999996185303,img/planet8_right.png,8,Community 2,NA,TRUE,j,j,NA,NA,NA,4,6,"15,3,2,9,11,5,1,10,6,8,13,7,4,14,12"
15140,commdev-image-keyboard-response,63,371045,learnblock1,780.7999992370605,img/planet10_right.png,10,Community 2,NA,TRUE,j,j,NA,NA,NA,4,6,"15,3,2,9,11,5,1,10,6,8,13,7,4,14,12"
15140,commdev-image-keyboard-response,64,372298,learnblock1,703.1999988555908,img/planet8_right.png,8,Community 2,NA,TRUE,j,j,NA,NA,NA,4,6,"15,3,2,9,11,5,1,10,6,8,13,7,4,14,12"
15140,commdev-image-keyboard-response,65,373550,learnblock1,680.2000007629395,img/planet10_left.png,10,Community 2,NA,TRUE,f,f,NA,NA,NA,4,6,"15,3,2,9,11,5,1,10,6,8,13,7,4,14,12"
15140,commdev-image-keyboard-response,66,374802,learnblock1,null,img/planet7_right.png,7,Community 3,NA,FALSE,null,j,NA,NA,NA,4,6,"15,3,2,9,11,5,1,10,6,8,13,7,4,14,12"
15140,commdev-image-keyboard-response,67,376053,learnblock1,987.2000007629395,img/planet10_left.png,10,Community 2,NA,TRUE,f,f,NA,NA,NA,4,6,"15,3,2,9,11,5,1,10,6,8,13,7,4,14,12"
15140,commdev-image-keyboard-response,68,377304,learnblock1,846,img/planet7_right.png,7,Community 3,NA,TRUE,j,j,NA,NA,NA,4,6,"15,3,2,9,11,5,1,10,6,8,13,7,4,14,12"
15140,commdev-image-keyboard-response,69,378557,learnblock1,744.2999992370605,img/planet12_right.png,12,Community 3,NA,FALSE,f,j,NA,NA,NA,4,6,"15,3,2,9,11,5,1,10,6,8,13,7,4,14,12"
15140,commdev-image-keyboard-response,70,379809,learnblock1,782,img/planet13_left.png,13,Community 3,NA,TRUE,f,f,NA,NA,NA,4,6,"15,3,2,9,11,5,1,10,6,8,13,7,4,14,12"
15140,commdev-image-keyboard-response,71,381061,learnblock1,919.1000003814697,img/planet4_right.png,4,Community 3,NA,TRUE,j,j,NA,NA,NA,4,6,"15,3,2,9,11,5,1,10,6,8,13,7,4,14,12"
15140,commdev-image-keyboard-response,72,382313,learnblock1,688.1000003814697,img/planet12_right.png,12,Community 3,NA,TRUE,j,j,NA,NA,NA,4,6,"15,3,2,9,11,5,1,10,6,8,13,7,4,14,12"
15140,commdev-image-keyboard-response,73,383565,learnblock1,565.7999992370605,img/planet14_left.png,14,Community 3,NA,TRUE,f,f,NA,NA,NA,4,6,"15,3,2,9,11,5,1,10,6,8,13,7,4,14,12"
15140,commdev-image-keyboard-response,74,384817,learnblock1,763.6000003814697,img/planet7_left.png,7,Community 3,NA,TRUE,f,f,NA,NA,NA,4,6,"15,3,2,9,11,5,1,10,6,8,13,7,4,14,12"
15140,commdev-image-keyboard-response,75,386069,learnblock1,672,img/planet10_left.png,10,Community 2,NA,TRUE,f,f,NA,NA,NA,4,6,"15,3,2,9,11,5,1,10,6,8,13,7,4,14,12"
15140,commdev-image-keyboard-response,76,387321,learnblock1,810.2000007629395,img/planet1_left.png,1,Community 2,NA,TRUE,f,f,NA,NA,NA,4,6,"15,3,2,9,11,5,1,10,6,8,13,7,4,14,12"
15140,commdev-image-keyboard-response,77,388573,learnblock1,847.6000003814697,img/planet8_right.png,8,Community 2,NA,TRUE,j,j,NA,NA,NA,4,6,"15,3,2,9,11,5,1,10,6,8,13,7,4,14,12"
15140,commdev-image-keyboard-response,78,389824,learnblock1,765.8000011444092,img/planet1_left.png,1,Community 2,NA,TRUE,f,f,NA,NA,NA,4,6,"15,3,2,9,11,5,1,10,6,8,13,7,4,14,12"
15140,commdev-image-keyboard-response,79,391076,learnblock1,744.1000003814697,img/planet8_right.png,8,Community 2,NA,TRUE,j,j,NA,NA,NA,4,6,"15,3,2,9,11,5,1,10,6,8,13,7,4,14,12"
15140,commdev-image-keyboard-response,80,392328,learnblock1,862.1999988555908,img/planet5_right.png,5,Community 2,NA,TRUE,j,j,NA,NA,NA,4,6,"15,3,2,9,11,5,1,10,6,8,13,7,4,14,12"
15140,commdev-image-keyboard-response,81,393580,learnblock1,670.7000007629395,img/planet1_left.png,1,Community 2,NA,TRUE,f,f,NA,NA,NA,4,6,"15,3,2,9,11,5,1,10,6,8,13,7,4,14,12"
15140,commdev-image-keyboard-response,82,394832,learnblock1,848.4000015258789,img/planet10_right.png,10,Community 2,NA,TRUE,j,j,NA,NA,NA,4,6,"15,3,2,9,11,5,1,10,6,8,13,7,4,14,12"
15140,commdev-image-keyboard-response,83,396083,learnblock1,null,img/planet8_right.png,8,Community 2,NA,FALSE,null,j,NA,NA,NA,4,6,"15,3,2,9,11,5,1,10,6,8,13,7,4,14,12"
15140,commdev-image-keyboard-response,84,397334,learnblock1,15.69999885559082,img/planet5_left.png,5,Community 2,NA,FALSE,j,f,NA,NA,NA,4,6,"15,3,2,9,11,5,1,10,6,8,13,7,4,14,12"
15140,commdev-image-keyboard-response,85,398586,learnblock1,904.2999992370605,img/planet9_left.png,9,Community 1,NA,TRUE,f,f,NA,NA,NA,4,6,"15,3,2,9,11,5,1,10,6,8,13,7,4,14,12"
15140,commdev-image-keyboard-response,86,399838,learnblock1,692.6999988555908,img/planet5_right.png,5,Community 2,NA,TRUE,j,j,NA,NA,NA,4,6,"15,3,2,9,11,5,1,10,6,8,13,7,4,14,12"
15140,commdev-image-keyboard-response,87,401089,learnblock1,850.8999996185303,img/planet9_left.png,9,Community 1,NA,TRUE,f,f,NA,NA,NA,4,6,"15,3,2,9,11,5,1,10,6,8,13,7,4,14,12"
15140,commdev-image-keyboard-response,88,402342,learnblock1,699.1000003814697,img/planet2_right.png,2,Community 1,NA,TRUE,j,j,NA,NA,NA,4,6,"15,3,2,9,11,5,1,10,6,8,13,7,4,14,12"
15140,commdev-image-keyboard-response,89,403594,learnblock1,766.2999992370605,img/planet3_left.png,3,Community 1,NA,TRUE,f,f,NA,NA,NA,4,6,"15,3,2,9,11,5,1,10,6,8,13,7,4,14,12"
15140,commdev-image-keyboard-response,90,404846,learnblock1,774.8999996185303,img/planet11_left.png,11,Community 1,NA,TRUE,f,f,NA,NA,NA,4,6,"15,3,2,9,11,5,1,10,6,8,13,7,4,14,12"
15140,commdev-image-keyboard-response,91,406098,learnblock1,723.1999988555908,img/planet13_left.png,13,Community 3,NA,TRUE,f,f,NA,NA,NA,4,6,"15,3,2,9,11,5,1,10,6,8,13,7,4,14,12"
15140,commdev-image-keyboard-response,92,407349,learnblock1,681.1000003814697,img/planet14_left.png,14,Community 3,NA,TRUE,f,f,NA,NA,NA,4,6,"15,3,2,9,11,5,1,10,6,8,13,7,4,14,12"
15140,commdev-image-keyboard-response,93,408601,learnblock1,709.2999992370605,img/planet4_left.png,4,Community 3,NA,TRUE,f,f,NA,NA,NA,4,6,"15,3,2,9,11,5,1,10,6,8,13,7,4,14,12"
15140,commdev-image-keyboard-response,94,409852,learnblock1,697.7000007629395,img/planet7_left.png,7,Community 3,NA,TRUE,f,f,NA,NA,NA,4,6,"15,3,2,9,11,5,1,10,6,8,13,7,4,14,12"
15140,commdev-image-keyboard-response,95,411104,learnblock1,556,img/planet12_right.png,12,Community 3,NA,TRUE,j,j,NA,NA,NA,4,6,"15,3,2,9,11,5,1,10,6,8,13,7,4,14,12"
15140,commdev-image-keyboard-response,96,412356,learnblock1,654.2999992370605,img/planet13_left.png,13,Community 3,NA,TRUE,f,f,NA,NA,NA,4,6,"15,3,2,9,11,5,1,10,6,8,13,7,4,14,12"
15140,commdev-image-keyboard-response,97,413608,learnblock1,672.5,img/planet4_left.png,4,Community 3,NA,TRUE,f,f,NA,NA,NA,4,6,"15,3,2,9,11,5,1,10,6,8,13,7,4,14,12"
15140,commdev-image-keyboard-response,98,414859,learnblock1,720.7000007629395,img/planet14_right.png,14,Community 3,NA,TRUE,j,j,NA,NA,NA,4,6,"15,3,2,9,11,5,1,10,6,8,13,7,4,14,12"
15140,commdev-image-keyboard-response,99,416111,learnblock1,799.3999996185303,img/planet13_right.png,13,Community 3,NA,TRUE,j,j,NA,NA,NA,4,6,"15,3,2,9,11,5,1,10,6,8,13,7,4,14,12"
15140,commdev-image-keyboard-response,100,417363,learnblock1,787.5,img/planet14_right.png,14,Community 3,NA,TRUE,j,j,NA,NA,NA,4,6,"15,3,2,9,11,5,1,10,6,8,13,7,4,14,12"
15140,commdev-image-keyboard-response,101,418614,learnblock1,695.3000011444092,img/planet4_left.png,4,Community 3,NA,TRUE,f,f,NA,NA,NA,4,6,"15,3,2,9,11,5,1,10,6,8,13,7,4,14,12"
15140,commdev-image-keyboard-response,102,419866,learnblock1,744.5,img/planet7_right.png,7,Community 3,NA,TRUE,j,j,NA,NA,NA,4,6,"15,3,2,9,11,5,1,10,6,8,13,7,4,14,12"
15140,commdev-image-keyboard-response,103,421118,learnblock1,802.6000003814697,img/planet10_right.png,10,Community 2,NA,TRUE,j,j,NA,NA,NA,4,6,"15,3,2,9,11,5,1,10,6,8,13,7,4,14,12"
15140,commdev-image-keyboard-response,104,422370,learnblock1,760.3999996185303,img/planet6_left.png,6,Community 2,NA,TRUE,f,f,NA,NA,NA,4,6,"15,3,2,9,11,5,1,10,6,8,13,7,4,14,12"
15140,commdev-image-keyboard-response,105,423622,learnblock1,968.7000007629395,img/planet8_left.png,8,Community 2,NA,TRUE,f,f,NA,NA,NA,4,6,"15,3,2,9,11,5,1,10,6,8,13,7,4,14,12"
15140,commdev-image-keyboard-response,106,424874,learnblock1,785.9000015258789,img/planet1_right.png,1,Community 2,NA,TRUE,j,j,NA,NA,NA,4,6,"15,3,2,9,11,5,1,10,6,8,13,7,4,14,12"
15140,commdev-image-keyboard-response,107,426125,learnblock1,1083.900001525879,img/planet6_right.png,6,Community 2,NA,TRUE,j,j,NA,NA,NA,4,6,"15,3,2,9,11,5,1,10,6,8,13,7,4,14,12"
15140,commdev-image-keyboard-response,108,427378,learnblock1,1203.2999992370605,img/planet8_right.png,8,Community 2,NA,TRUE,j,j,NA,NA,NA,4,6,"15,3,2,9,11,5,1,10,6,8,13,7,4,14,12"
15140,commdev-image-keyboard-response,109,428630,learnblock1,800.5,img/planet5_right.png,5,Community 2,NA,TRUE,j,j,NA,NA,NA,4,6,"15,3,2,9,11,5,1,10,6,8,13,7,4,14,12"
15140,commdev-image-keyboard-response,110,429881,learnblock1,718.9000015258789,img/planet9_left.png,9,Community 1,NA,TRUE,f,f,NA,NA,NA,4,6,"15,3,2,9,11,5,1,10,6,8,13,7,4,14,12"
15140,commdev-image-keyboard-response,111,431133,learnblock1,777.3999996185303,img/planet2_right.png,2,Community 1,NA,TRUE,j,j,NA,NA,NA,4,6,"15,3,2,9,11,5,1,10,6,8,13,7,4,14,12"
15140,commdev-image-keyboard-response,112,432384,learnblock1,695.8000011444092,img/planet11_right.png,11,Community 1,NA,TRUE,j,j,NA,NA,NA,4,6,"15,3,2,9,11,5,1,10,6,8,13,7,4,14,12"
15140,commdev-image-keyboard-response,113,433636,learnblock1,664.1999988555908,img/planet15_left.png,15,Community 1,NA,TRUE,f,f,NA,NA,NA,4,6,"15,3,2,9,11,5,1,10,6,8,13,7,4,14,12"
15140,commdev-image-keyboard-response,114,434888,learnblock1,1172.2000007629395,img/planet3_right.png,3,Community 1,NA,TRUE,j,j,NA,NA,NA,4,6,"15,3,2,9,11,5,1,10,6,8,13,7,4,14,12"
15140,commdev-image-keyboard-response,115,436139,learnblock1,661,img/planet9_left.png,9,Community 1,NA,TRUE,f,f,NA,NA,NA,4,6,"15,3,2,9,11,5,1,10,6,8,13,7,4,14,12"
15140,commdev-image-keyboard-response,116,437391,learnblock1,819.4000015258789,img/planet2_right.png,2,Community 1,NA,TRUE,j,j,NA,NA,NA,4,6,"15,3,2,9,11,5,1,10,6,8,13,7,4,14,12"
15140,commdev-image-keyboard-response,117,438643,learnblock1,687.3999996185303,img/planet11_left.png,11,Community 1,NA,TRUE,f,f,NA,NA,NA,4,6,"15,3,2,9,11,5,1,10,6,8,13,7,4,14,12"
15140,commdev-image-keyboard-response,118,439894,learnblock1,625.5999984741211,img/planet13_left.png,13,Community 3,NA,TRUE,f,f,NA,NA,NA,4,6,"15,3,2,9,11,5,1,10,6,8,13,7,4,14,12"
15140,commdev-image-keyboard-response,119,441146,learnblock1,734.7000007629395,img/planet14_right.png,14,Community 3,NA,TRUE,j,j,NA,NA,NA,4,6,"15,3,2,9,11,5,1,10,6,8,13,7,4,14,12"
15140,commdev-image-keyboard-response,120,442397,learnblock1,1223.1000003814697,img/planet12_left.png,12,Community 3,NA,TRUE,f,f,NA,NA,NA,4,6,"15,3,2,9,11,5,1,10,6,8,13,7,4,14,12"
15140,commdev-image-keyboard-response,121,443649,learnblock1,861.3999996185303,img/planet4_right.png,4,Community 3,NA,TRUE,j,j,NA,NA,NA,4,6,"15,3,2,9,11,5,1,10,6,8,13,7,4,14,12"
15140,commdev-image-keyboard-response,122,444900,learnblock1,829.5999984741211,img/planet12_right.png,12,Community 3,NA,TRUE,j,j,NA,NA,NA,4,6,"15,3,2,9,11,5,1,10,6,8,13,7,4,14,12"
15140,commdev-image-keyboard-response,123,446153,learnblock1,798,img/planet13_left.png,13,Community 3,NA,TRUE,f,f,NA,NA,NA,4,6,"15,3,2,9,11,5,1,10,6,8,13,7,4,14,12"
15140,commdev-image-keyboard-response,124,447404,learnblock1,946.2000007629395,img/planet14_left.png,14,Community 3,NA,TRUE,f,f,NA,NA,NA,4,6,"15,3,2,9,11,5,1,10,6,8,13,7,4,14,12"
15140,commdev-image-keyboard-response,125,448656,learnblock1,834.2999992370605,img/planet12_right.png,12,Community 3,NA,TRUE,j,j,NA,NA,NA,4,6,"15,3,2,9,11,5,1,10,6,8,13,7,4,14,12"
15140,commdev-image-keyboard-response,126,449909,learnblock1,null,img/planet13_right.png,13,Community 3,NA,FALSE,null,j,NA,NA,NA,4,6,"15,3,2,9,11,5,1,10,6,8,13,7,4,14,12"
15140,commdev-image-keyboard-response,127,451161,learnblock1,110.29999923706055,img/planet12_left.png,12,Community 3,NA,FALSE,j,f,NA,NA,NA,4,6,"15,3,2,9,11,5,1,10,6,8,13,7,4,14,12"
15140,commdev-image-keyboard-response,128,452413,learnblock1,null,img/planet14_right.png,14,Community 3,NA,FALSE,null,j,NA,NA,NA,4,6,"15,3,2,9,11,5,1,10,6,8,13,7,4,14,12"
15140,commdev-image-keyboard-response,129,453664,learnblock1,36.400001525878906,img/planet4_right.png,4,Community 3,NA,TRUE,j,j,NA,NA,NA,4,6,"15,3,2,9,11,5,1,10,6,8,13,7,4,14,12"
15140,commdev-image-keyboard-response,130,454915,learnblock1,654.6999988555908,img/planet12_left.png,12,Community 3,NA,FALSE,j,f,NA,NA,NA,4,6,"15,3,2,9,11,5,1,10,6,8,13,7,4,14,12"
15140,commdev-image-keyboard-response,131,456167,learnblock1,793.3999996185303,img/planet7_left.png,7,Community 3,NA,TRUE,f,f,NA,NA,NA,4,6,"15,3,2,9,11,5,1,10,6,8,13,7,4,14,12"
15140,commdev-image-keyboard-response,132,457419,learnblock1,742.5,img/planet12_right.png,12,Community 3,NA,TRUE,j,j,NA,NA,NA,4,6,"15,3,2,9,11,5,1,10,6,8,13,7,4,14,12"
15140,commdev-image-keyboard-response,133,458671,learnblock1,629.9000015258789,img/planet4_left.png,4,Community 3,NA,TRUE,f,f,NA,NA,NA,4,6,"15,3,2,9,11,5,1,10,6,8,13,7,4,14,12"
15140,commdev-image-keyboard-response,134,459922,learnblock1,697.8000011444092,img/planet14_right.png,14,Community 3,NA,TRUE,j,j,NA,NA,NA,4,6,"15,3,2,9,11,5,1,10,6,8,13,7,4,14,12"
15140,commdev-image-keyboard-response,135,461174,learnblock1,616.3999996185303,img/planet4_right.png,4,Community 3,NA,TRUE,j,j,NA,NA,NA,4,6,"15,3,2,9,11,5,1,10,6,8,13,7,4,14,12"
15140,commdev-image-keyboard-response,136,462426,learnblock1,775.1000003814697,img/planet7_right.png,7,Community 3,NA,TRUE,j,j,NA,NA,NA,4,6,"15,3,2,9,11,5,1,10,6,8,13,7,4,14,12"
15140,commdev-image-keyboard-response,137,463679,learnblock1,1193.1999988555908,img/planet4_left.png,4,Community 3,NA,TRUE,f,f,NA,NA,NA,4,6,"15,3,2,9,11,5,1,10,6,8,13,7,4,14,12"
15140,commdev-image-keyboard-response,138,464931,learnblock1,879.8999996185303,img/planet14_right.png,14,Community 3,NA,TRUE,j,j,NA,NA,NA,4,6,"15,3,2,9,11,5,1,10,6,8,13,7,4,14,12"
15140,commdev-image-keyboard-response,139,466183,learnblock1,758.4000015258789,img/planet7_left.png,7,Community 3,NA,TRUE,f,f,NA,NA,NA,4,6,"15,3,2,9,11,5,1,10,6,8,13,7,4,14,12"
15140,commdev-image-keyboard-response,140,467436,learnblock1,695.3999996185303,img/planet12_right.png,12,Community 3,NA,TRUE,j,j,NA,NA,NA,4,6,"15,3,2,9,11,5,1,10,6,8,13,7,4,14,12"
15140,commdev-image-keyboard-response,141,468688,learnblock1,923.1000003814697,img/planet7_right.png,7,Community 3,NA,TRUE,j,j,NA,NA,NA,4,6,"15,3,2,9,11,5,1,10,6,8,13,7,4,14,12"
15140,commdev-image-keyboard-response,142,469940,learnblock1,710.5,img/planet10_right.png,10,Community 2,NA,TRUE,j,j,NA,NA,NA,4,6,"15,3,2,9,11,5,1,10,6,8,13,7,4,14,12"
15140,commdev-image-keyboard-response,143,471192,learnblock1,658.5,img/planet8_right.png,8,Community 2,NA,FALSE,f,j,NA,NA,NA,4,6,"15,3,2,9,11,5,1,10,6,8,13,7,4,14,12"
15140,commdev-image-keyboard-response,144,472446,learnblock1,886.3999996185303,img/planet5_right.png,5,Community 2,NA,TRUE,j,j,NA,NA,NA,4,6,"15,3,2,9,11,5,1,10,6,8,13,7,4,14,12"
15140,commdev-image-keyboard-response,145,473711,learnblock1,672.8999996185303,img/planet8_right.png,8,Community 2,NA,TRUE,j,j,NA,NA,NA,4,6,"15,3,2,9,11,5,1,10,6,8,13,7,4,14,12"
15140,commdev-image-keyboard-response,146,474963,learnblock1,668.4000015258789,img/planet5_left.png,5,Community 2,NA,TRUE,f,f,NA,NA,NA,4,6,"15,3,2,9,11,5,1,10,6,8,13,7,4,14,12"
15140,commdev-image-keyboard-response,147,476215,learnblock1,875.7999992370605,img/planet6_right.png,6,Community 2,NA,FALSE,f,j,NA,NA,NA,4,6,"15,3,2,9,11,5,1,10,6,8,13,7,4,14,12"
15140,commdev-image-keyboard-response,148,477467,learnblock1,753.7000007629395,img/planet1_right.png,1,Community 2,NA,TRUE,j,j,NA,NA,NA,4,6,"15,3,2,9,11,5,1,10,6,8,13,7,4,14,12"
15140,commdev-image-keyboard-response,149,478719,learnblock1,781.8000011444092,img/planet10_left.png,10,Community 2,NA,TRUE,f,f,NA,NA,NA,4,6,"15,3,2,9,11,5,1,10,6,8,13,7,4,14,12"
15140,commdev-image-keyboard-response,150,479971,learnblock1,829.5,img/planet6_left.png,6,Community 2,NA,TRUE,f,f,NA,NA,NA,4,6,"15,3,2,9,11,5,1,10,6,8,13,7,4,14,12"
15140,commdev-image-keyboard-response,151,481223,learnblock1,878.9000015258789,img/planet8_left.png,8,Community 2,NA,TRUE,f,f,NA,NA,NA,4,6,"15,3,2,9,11,5,1,10,6,8,13,7,4,14,12"
15140,commdev-image-keyboard-response,152,482474,learnblock1,866.5,img/planet5_right.png,5,Community 2,NA,TRUE,j,j,NA,NA,NA,4,6,"15,3,2,9,11,5,1,10,6,8,13,7,4,14,12"
15140,commdev-image-keyboard-response,153,483726,learnblock1,904.7000007629395,img/planet9_right.png,9,Community 1,NA,TRUE,j,j,NA,NA,NA,4,6,"15,3,2,9,11,5,1,10,6,8,13,7,4,14,12"
15140,commdev-image-keyboard-response,154,484978,learnblock1,823.3999996185303,img/planet15_right.png,15,Community 1,NA,TRUE,j,j,NA,NA,NA,4,6,"15,3,2,9,11,5,1,10,6,8,13,7,4,14,12"
15140,commdev-image-keyboard-response,155,486229,learnblock1,661.2000007629395,img/planet9_left.png,9,Community 1,NA,TRUE,f,f,NA,NA,NA,4,6,"15,3,2,9,11,5,1,10,6,8,13,7,4,14,12"
15140,commdev-image-keyboard-response,156,487482,learnblock1,799.6000003814697,img/planet5_right.png,5,Community 2,NA,TRUE,j,j,NA,NA,NA,4,6,"15,3,2,9,11,5,1,10,6,8,13,7,4,14,12"
15140,commdev-image-keyboard-response,157,488734,learnblock1,1037,img/planet9_left.png,9,Community 1,NA,TRUE,f,f,NA,NA,NA,4,6,"15,3,2,9,11,5,1,10,6,8,13,7,4,14,12"
15140,commdev-image-keyboard-response,158,489986,learnblock1,915.1000003814697,img/planet3_right.png,3,Community 1,NA,TRUE,j,j,NA,NA,NA,4,6,"15,3,2,9,11,5,1,10,6,8,13,7,4,14,12"
15140,commdev-image-keyboard-response,159,491237,learnblock1,912.8999996185303,img/planet15_left.png,15,Community 1,NA,TRUE,f,f,NA,NA,NA,4,6,"15,3,2,9,11,5,1,10,6,8,13,7,4,14,12"
15140,commdev-image-keyboard-response,160,492489,learnblock1,802,img/planet11_right.png,11,Community 1,NA,TRUE,j,j,NA,NA,NA,4,6,"15,3,2,9,11,5,1,10,6,8,13,7,4,14,12"
15140,commdev-image-keyboard-response,161,493740,learnblock1,820.2999992370605,img/planet13_right.png,13,Community 3,NA,TRUE,j,j,NA,NA,NA,4,6,"15,3,2,9,11,5,1,10,6,8,13,7,4,14,12"
15140,commdev-image-keyboard-response,162,494991,learnblock1,829.7999992370605,img/planet11_left.png,11,Community 1,NA,TRUE,f,f,NA,NA,NA,4,6,"15,3,2,9,11,5,1,10,6,8,13,7,4,14,12"
15140,commdev-image-keyboard-response,163,496243,learnblock1,689.1000003814697,img/planet15_right.png,15,Community 1,NA,TRUE,j,j,NA,NA,NA,4,6,"15,3,2,9,11,5,1,10,6,8,13,7,4,14,12"
15140,commdev-image-keyboard-response,164,497495,learnblock1,726.1999988555908,img/planet11_right.png,11,Community 1,NA,TRUE,j,j,NA,NA,NA,4,6,"15,3,2,9,11,5,1,10,6,8,13,7,4,14,12"
15140,commdev-image-keyboard-response,165,498748,learnblock1,755.7000007629395,img/planet3_left.png,3,Community 1,NA,TRUE,f,f,NA,NA,NA,4,6,"15,3,2,9,11,5,1,10,6,8,13,7,4,14,12"
15140,commdev-image-keyboard-response,166,499999,learnblock1,702.2000007629395,img/planet2_left.png,2,Community 1,NA,FALSE,j,f,NA,NA,NA,4,6,"15,3,2,9,11,5,1,10,6,8,13,7,4,14,12"
15140,commdev-image-keyboard-response,167,501251,learnblock1,790.2000007629395,img/planet3_left.png,3,Community 1,NA,TRUE,f,f,NA,NA,NA,4,6,"15,3,2,9,11,5,1,10,6,8,13,7,4,14,12"
15140,commdev-image-keyboard-response,168,502504,learnblock1,808.6999988555908,img/planet9_left.png,9,Community 1,NA,TRUE,f,f,NA,NA,NA,4,6,"15,3,2,9,11,5,1,10,6,8,13,7,4,14,12"
15140,commdev-image-keyboard-response,169,503755,learnblock1,796.2999992370605,img/planet3_left.png,3,Community 1,NA,TRUE,f,f,NA,NA,NA,4,6,"15,3,2,9,11,5,1,10,6,8,13,7,4,14,12"
15140,commdev-image-keyboard-response,170,505008,learnblock1,644.8000011444092,img/planet2_left.png,2,Community 1,NA,TRUE,f,f,NA,NA,NA,4,6,"15,3,2,9,11,5,1,10,6,8,13,7,4,14,12"
15140,commdev-image-keyboard-response,171,506260,learnblock1,1092.8000011444092,img/planet3_right.png,3,Community 1,NA,TRUE,j,j,NA,NA,NA,4,6,"15,3,2,9,11,5,1,10,6,8,13,7,4,14,12"
15140,commdev-image-keyboard-response,172,507512,learnblock1,989,img/planet9_right.png,9,Community 1,NA,TRUE,j,j,NA,NA,NA,4,6,"15,3,2,9,11,5,1,10,6,8,13,7,4,14,12"
15140,commdev-image-keyboard-response,173,508764,learnblock1,817.4000015258789,img/planet15_left.png,15,Community 1,NA,TRUE,f,f,NA,NA,NA,4,6,"15,3,2,9,11,5,1,10,6,8,13,7,4,14,12"
15140,commdev-image-keyboard-response,174,510015,learnblock1,836.3999996185303,img/planet2_left.png,2,Community 1,NA,TRUE,f,f,NA,NA,NA,4,6,"15,3,2,9,11,5,1,10,6,8,13,7,4,14,12"
15140,commdev-image-keyboard-response,175,511267,learnblock1,933.6000003814697,img/planet3_left.png,3,Community 1,NA,TRUE,f,f,NA,NA,NA,4,6,"15,3,2,9,11,5,1,10,6,8,13,7,4,14,12"
15140,commdev-image-keyboard-response,176,512518,learnblock1,962.3999996185303,img/planet11_right.png,11,Community 1,NA,TRUE,j,j,NA,NA,NA,4,6,"15,3,2,9,11,5,1,10,6,8,13,7,4,14,12"
15140,commdev-image-keyboard-response,177,513770,learnblock1,841.8000011444092,img/planet2_left.png,2,Community 1,NA,TRUE,f,f,NA,NA,NA,4,6,"15,3,2,9,11,5,1,10,6,8,13,7,4,14,12"
15140,commdev-image-keyboard-response,178,515022,learnblock1,949.5,img/planet11_right.png,11,Community 1,NA,TRUE,j,j,NA,NA,NA,4,6,"15,3,2,9,11,5,1,10,6,8,13,7,4,14,12"
15140,commdev-image-keyboard-response,179,516274,learnblock1,908.0999984741211,img/planet13_left.png,13,Community 3,NA,TRUE,f,f,NA,NA,NA,4,6,"15,3,2,9,11,5,1,10,6,8,13,7,4,14,12"
15140,commdev-image-keyboard-response,180,517527,learnblock1,966.8000011444092,img/planet14_right.png,14,Community 3,NA,TRUE,j,j,NA,NA,NA,4,6,"15,3,2,9,11,5,1,10,6,8,13,7,4,14,12"
15140,commdev-image-keyboard-response,181,518779,learnblock1,null,img/planet7_right.png,7,Community 3,NA,FALSE,null,j,NA,NA,NA,4,6,"15,3,2,9,11,5,1,10,6,8,13,7,4,14,12"
15140,commdev-image-keyboard-response,182,520030,learnblock1,1.3999996185302734,img/planet12_right.png,12,Community 3,NA,TRUE,j,j,NA,NA,NA,4,6,"15,3,2,9,11,5,1,10,6,8,13,7,4,14,12"
15140,commdev-image-keyboard-response,183,521283,learnblock1,859.5,img/planet13_right.png,13,Community 3,NA,TRUE,j,j,NA,NA,NA,4,6,"15,3,2,9,11,5,1,10,6,8,13,7,4,14,12"
15140,commdev-image-keyboard-response,184,522536,learnblock1,937.6999988555908,img/planet11_left.png,11,Community 1,NA,TRUE,f,f,NA,NA,NA,4,6,"15,3,2,9,11,5,1,10,6,8,13,7,4,14,12"
15140,commdev-image-keyboard-response,185,523788,learnblock1,745,img/planet3_left.png,3,Community 1,NA,TRUE,f,f,NA,NA,NA,4,6,"15,3,2,9,11,5,1,10,6,8,13,7,4,14,12"
15140,commdev-image-keyboard-response,186,525040,learnblock1,772.5,img/planet15_right.png,15,Community 1,NA,TRUE,j,j,NA,NA,NA,4,6,"15,3,2,9,11,5,1,10,6,8,13,7,4,14,12"
15140,commdev-image-keyboard-response,187,526292,learnblock1,1130.099998474121,img/planet2_left.png,2,Community 1,NA,TRUE,f,f,NA,NA,NA,4,6,"15,3,2,9,11,5,1,10,6,8,13,7,4,14,12"
15140,commdev-image-keyboard-response,188,527544,learnblock1,698.3999996185303,img/planet15_right.png,15,Community 1,NA,TRUE,j,j,NA,NA,NA,4,6,"15,3,2,9,11,5,1,10,6,8,13,7,4,14,12"
15140,commdev-image-keyboard-response,189,528796,learnblock1,516.1000003814697,img/planet11_left.png,11,Community 1,NA,TRUE,f,f,NA,NA,NA,4,6,"15,3,2,9,11,5,1,10,6,8,13,7,4,14,12"
15140,commdev-image-keyboard-response,190,530048,learnblock1,793.9000015258789,img/planet3_right.png,3,Community 1,NA,TRUE,j,j,NA,NA,NA,4,6,"15,3,2,9,11,5,1,10,6,8,13,7,4,14,12"
15140,commdev-image-keyboard-response,191,531300,learnblock1,731.8999996185303,img/planet15_right.png,15,Community 1,NA,TRUE,j,j,NA,NA,NA,4,6,"15,3,2,9,11,5,1,10,6,8,13,7,4,14,12"
15140,commdev-image-keyboard-response,192,532561,learnblock1,640.3999996185303,img/planet3_left.png,3,Community 1,NA,FALSE,j,f,NA,NA,NA,4,6,"15,3,2,9,11,5,1,10,6,8,13,7,4,14,12"
15140,commdev-image-keyboard-response,193,533812,learnblock1,849.7000007629395,img/planet9_right.png,9,Community 1,NA,TRUE,j,j,NA,NA,NA,4,6,"15,3,2,9,11,5,1,10,6,8,13,7,4,14,12"
15140,commdev-image-keyboard-response,194,535064,learnblock1,708.5,img/planet2_left.png,2,Community 1,NA,TRUE,f,f,NA,NA,NA,4,6,"15,3,2,9,11,5,1,10,6,8,13,7,4,14,12"
15140,commdev-image-keyboard-response,195,536316,learnblock1,1015.7000007629395,img/planet3_right.png,3,Community 1,NA,TRUE,j,j,NA,NA,NA,4,6,"15,3,2,9,11,5,1,10,6,8,13,7,4,14,12"
15140,commdev-image-keyboard-response,196,537567,learnblock1,714.5,img/planet15_left.png,15,Community 1,NA,TRUE,f,f,NA,NA,NA,4,6,"15,3,2,9,11,5,1,10,6,8,13,7,4,14,12"
15140,commdev-image-keyboard-response,197,538819,learnblock1,733.8999996185303,img/planet9_right.png,9,Community 1,NA,TRUE,j,j,NA,NA,NA,4,6,"15,3,2,9,11,5,1,10,6,8,13,7,4,14,12"
15140,commdev-image-keyboard-response,198,540071,learnblock1,691.1000003814697,img/planet5_right.png,5,Community 2,NA,TRUE,j,j,NA,NA,NA,4,6,"15,3,2,9,11,5,1,10,6,8,13,7,4,14,12"
15140,commdev-image-keyboard-response,199,541323,learnblock1,589.5,img/planet1_left.png,1,Community 2,NA,TRUE,f,f,NA,NA,NA,4,6,"15,3,2,9,11,5,1,10,6,8,13,7,4,14,12"
15140,commdev-image-keyboard-response,200,542575,learnblock1,627.6999988555908,img/planet5_left.png,5,Community 2,NA,TRUE,f,f,NA,NA,NA,4,6,"15,3,2,9,11,5,1,10,6,8,13,7,4,14,12"
15140,commdev-image-keyboard-response,201,543828,learnblock1,846,img/planet6_left.png,6,Community 2,NA,TRUE,f,f,NA,NA,NA,4,6,"15,3,2,9,11,5,1,10,6,8,13,7,4,14,12"
15140,commdev-image-keyboard-response,202,545079,learnblock1,622.5,img/planet5_left.png,5,Community 2,NA,TRUE,f,f,NA,NA,NA,4,6,"15,3,2,9,11,5,1,10,6,8,13,7,4,14,12"
15140,commdev-image-keyboard-response,203,546331,learnblock1,691.2000007629395,img/planet9_left.png,9,Community 1,NA,TRUE,f,f,NA,NA,NA,4,6,"15,3,2,9,11,5,1,10,6,8,13,7,4,14,12"
15140,commdev-image-keyboard-response,204,547583,learnblock1,709.6999988555908,img/planet15_right.png,15,Community 1,NA,TRUE,j,j,NA,NA,NA,4,6,"15,3,2,9,11,5,1,10,6,8,13,7,4,14,12"
15140,commdev-image-keyboard-response,205,548835,learnblock1,827.5,img/planet11_right.png,11,Community 1,NA,TRUE,j,j,NA,NA,NA,4,6,"15,3,2,9,11,5,1,10,6,8,13,7,4,14,12"
15140,commdev-image-keyboard-response,206,550087,learnblock1,635.1999988555908,img/planet2_left.png,2,Community 1,NA,TRUE,f,f,NA,NA,NA,4,6,"15,3,2,9,11,5,1,10,6,8,13,7,4,14,12"
15140,commdev-image-keyboard-response,207,551339,learnblock1,733.6000003814697,img/planet15_right.png,15,Community 1,NA,TRUE,j,j,NA,NA,NA,4,6,"15,3,2,9,11,5,1,10,6,8,13,7,4,14,12"
15140,commdev-image-keyboard-response,208,552590,learnblock1,811.7000007629395,img/planet2_right.png,2,Community 1,NA,TRUE,j,j,NA,NA,NA,4,6,"15,3,2,9,11,5,1,10,6,8,13,7,4,14,12"
15140,commdev-image-keyboard-response,209,553842,learnblock1,739.7999992370605,img/planet11_right.png,11,Community 1,NA,TRUE,j,j,NA,NA,NA,4,6,"15,3,2,9,11,5,1,10,6,8,13,7,4,14,12"
15140,commdev-image-keyboard-response,210,555093,learnblock1,698.2000007629395,img/planet15_right.png,15,Community 1,NA,TRUE,j,j,NA,NA,NA,4,6,"15,3,2,9,11,5,1,10,6,8,13,7,4,14,12"
15140,commdev-image-keyboard-response,211,556345,learnblock1,796.2999992370605,img/planet3_right.png,3,Community 1,NA,TRUE,j,j,NA,NA,NA,4,6,"15,3,2,9,11,5,1,10,6,8,13,7,4,14,12"
15140,commdev-image-keyboard-response,212,557596,learnblock1,625.7000007629395,img/planet2_right.png,2,Community 1,NA,TRUE,j,j,NA,NA,NA,4,6,"15,3,2,9,11,5,1,10,6,8,13,7,4,14,12"
15140,commdev-image-keyboard-response,213,558848,learnblock1,1043.6999988555908,img/planet11_right.png,11,Community 1,NA,TRUE,j,j,NA,NA,NA,4,6,"15,3,2,9,11,5,1,10,6,8,13,7,4,14,12"
15140,commdev-image-keyboard-response,214,560099,learnblock1,772.2999992370605,img/planet13_right.png,13,Community 3,NA,TRUE,j,j,NA,NA,NA,4,6,"15,3,2,9,11,5,1,10,6,8,13,7,4,14,12"
15140,commdev-image-keyboard-response,215,561351,learnblock1,1121.2999992370605,img/planet14_right.png,14,Community 3,NA,TRUE,j,j,NA,NA,NA,4,6,"15,3,2,9,11,5,1,10,6,8,13,7,4,14,12"
15140,commdev-image-keyboard-response,216,562601,learnblock1,1049.6000003814697,img/planet4_right.png,4,Community 3,NA,TRUE,j,j,NA,NA,NA,4,6,"15,3,2,9,11,5,1,10,6,8,13,7,4,14,12"
15140,commdev-image-keyboard-response,217,563853,learnblock1,null,img/planet7_right.png,7,Community 3,NA,FALSE,null,j,NA,NA,NA,4,6,"15,3,2,9,11,5,1,10,6,8,13,7,4,14,12"
15140,commdev-image-keyboard-response,218,565105,learnblock1,197.19999885559082,img/planet4_right.png,4,Community 3,NA,TRUE,j,j,NA,NA,NA,4,6,"15,3,2,9,11,5,1,10,6,8,13,7,4,14,12"
15140,commdev-image-keyboard-response,219,566356,learnblock1,195.19999885559082,img/planet7_left.png,7,Community 3,NA,FALSE,j,f,NA,NA,NA,4,6,"15,3,2,9,11,5,1,10,6,8,13,7,4,14,12"
15140,commdev-image-keyboard-response,220,567608,learnblock1,795.1000003814697,img/planet4_left.png,4,Community 3,NA,TRUE,f,f,NA,NA,NA,4,6,"15,3,2,9,11,5,1,10,6,8,13,7,4,14,12"
15140,commdev-image-keyboard-response,221,568861,learnblock1,962.1999988555908,img/planet14_right.png,14,Community 3,NA,TRUE,j,j,NA,NA,NA,4,6,"15,3,2,9,11,5,1,10,6,8,13,7,4,14,12"
15140,commdev-image-keyboard-response,222,570112,learnblock1,1089.6999988555908,img/planet13_right.png,13,Community 3,NA,TRUE,j,j,NA,NA,NA,4,6,"15,3,2,9,11,5,1,10,6,8,13,7,4,14,12"
15140,commdev-image-keyboard-response,223,571364,learnblock1,808.5,img/planet12_left.png,12,Community 3,NA,TRUE,f,f,NA,NA,NA,4,6,"15,3,2,9,11,5,1,10,6,8,13,7,4,14,12"
15140,commdev-image-keyboard-response,224,572615,learnblock1,1127.7000007629395,img/planet13_left.png,13,Community 3,NA,TRUE,f,f,NA,NA,NA,4,6,"15,3,2,9,11,5,1,10,6,8,13,7,4,14,12"
15140,commdev-image-keyboard-response,225,573867,learnblock1,null,img/planet12_right.png,12,Community 3,NA,FALSE,null,j,NA,NA,NA,4,6,"15,3,2,9,11,5,1,10,6,8,13,7,4,14,12"
15140,commdev-image-keyboard-response,226,575118,learnblock1,673.5,img/planet7_right.png,7,Community 3,NA,TRUE,j,j,NA,NA,NA,4,6,"15,3,2,9,11,5,1,10,6,8,13,7,4,14,12"
15140,commdev-image-keyboard-response,227,576370,learnblock1,772.5,img/planet12_right.png,12,Community 3,NA,TRUE,j,j,NA,NA,NA,4,6,"15,3,2,9,11,5,1,10,6,8,13,7,4,14,12"
15140,commdev-image-keyboard-response,228,577622,learnblock1,521.1000003814697,img/planet13_left.png,13,Community 3,NA,TRUE,f,f,NA,NA,NA,4,6,"15,3,2,9,11,5,1,10,6,8,13,7,4,14,12"
15140,commdev-image-keyboard-response,229,578874,learnblock1,529.3000011444092,img/planet4_left.png,4,Community 3,NA,TRUE,f,f,NA,NA,NA,4,6,"15,3,2,9,11,5,1,10,6,8,13,7,4,14,12"
15140,commdev-image-keyboard-response,230,580125,learnblock1,716.7000007629395,img/planet13_right.png,13,Community 3,NA,TRUE,j,j,NA,NA,NA,4,6,"15,3,2,9,11,5,1,10,6,8,13,7,4,14,12"
15140,commdev-image-keyboard-response,231,581377,learnblock1,686.3000011444092,img/planet14_left.png,14,Community 3,NA,TRUE,f,f,NA,NA,NA,4,6,"15,3,2,9,11,5,1,10,6,8,13,7,4,14,12"
15140,commdev-image-keyboard-response,232,582628,learnblock1,944.6000003814697,img/planet12_left.png,12,Community 3,NA,TRUE,f,f,NA,NA,NA,4,6,"15,3,2,9,11,5,1,10,6,8,13,7,4,14,12"
15140,commdev-image-keyboard-response,233,583880,learnblock1,712.8999996185303,img/planet13_right.png,13,Community 3,NA,TRUE,j,j,NA,NA,NA,4,6,"15,3,2,9,11,5,1,10,6,8,13,7,4,14,12"
15140,commdev-image-keyboard-response,234,585131,learnblock1,921.7999992370605,img/planet14_right.png,14,Community 3,NA,TRUE,j,j,NA,NA,NA,4,6,"15,3,2,9,11,5,1,10,6,8,13,7,4,14,12"
15140,commdev-image-keyboard-response,235,586383,learnblock1,749.7999992370605,img/planet13_right.png,13,Community 3,NA,TRUE,j,j,NA,NA,NA,4,6,"15,3,2,9,11,5,1,10,6,8,13,7,4,14,12"
15140,commdev-image-keyboard-response,236,587635,learnblock1,null,img/planet12_right.png,12,Community 3,NA,FALSE,null,j,NA,NA,NA,4,6,"15,3,2,9,11,5,1,10,6,8,13,7,4,14,12"
15140,commdev-image-keyboard-response,237,588886,learnblock1,106.39999961853027,img/planet4_left.png,4,Community 3,NA,FALSE,j,f,NA,NA,NA,4,6,"15,3,2,9,11,5,1,10,6,8,13,7,4,14,12"
15140,commdev-image-keyboard-response,238,590146,learnblock1,774.8000011444092,img/planet13_right.png,13,Community 3,NA,TRUE,j,j,NA,NA,NA,4,6,"15,3,2,9,11,5,1,10,6,8,13,7,4,14,12"
15140,commdev-image-keyboard-response,239,591398,learnblock1,756.7000007629395,img/planet12_left.png,12,Community 3,NA,TRUE,f,f,NA,NA,NA,4,6,"15,3,2,9,11,5,1,10,6,8,13,7,4,14,12"
15140,commdev-image-keyboard-response,240,592650,learnblock1,642.3999996185303,img/planet4_left.png,4,Community 3,NA,TRUE,f,f,NA,NA,NA,4,6,"15,3,2,9,11,5,1,10,6,8,13,7,4,14,12"
15140,commdev-image-keyboard-response,241,593902,learnblock1,690.7999992370605,img/planet7_left.png,7,Community 3,NA,TRUE,f,f,NA,NA,NA,4,6,"15,3,2,9,11,5,1,10,6,8,13,7,4,14,12"
15140,commdev-image-keyboard-response,242,595154,learnblock1,588.9000015258789,img/planet4_left.png,4,Community 3,NA,TRUE,f,f,NA,NA,NA,4,6,"15,3,2,9,11,5,1,10,6,8,13,7,4,14,12"
15140,commdev-image-keyboard-response,243,596405,learnblock1,767.1999988555908,img/planet14_right.png,14,Community 3,NA,TRUE,j,j,NA,NA,NA,4,6,"15,3,2,9,11,5,1,10,6,8,13,7,4,14,12"
15140,commdev-image-keyboard-response,244,597657,learnblock1,916.1000003814697,img/planet13_right.png,13,Community 3,NA,TRUE,j,j,NA,NA,NA,4,6,"15,3,2,9,11,5,1,10,6,8,13,7,4,14,12"
15140,commdev-image-keyboard-response,245,598908,learnblock1,734.6000003814697,img/planet11_left.png,11,Community 1,NA,TRUE,f,f,NA,NA,NA,4,6,"15,3,2,9,11,5,1,10,6,8,13,7,4,14,12"
15140,commdev-image-keyboard-response,246,600160,learnblock1,683.2000007629395,img/planet15_left.png,15,Community 1,NA,TRUE,f,f,NA,NA,NA,4,6,"15,3,2,9,11,5,1,10,6,8,13,7,4,14,12"
15140,commdev-image-keyboard-response,247,601412,learnblock1,663.8000011444092,img/planet11_left.png,11,Community 1,NA,TRUE,f,f,NA,NA,NA,4,6,"15,3,2,9,11,5,1,10,6,8,13,7,4,14,12"
15140,commdev-image-keyboard-response,248,602664,learnblock1,619.2999992370605,img/planet15_right.png,15,Community 1,NA,TRUE,j,j,NA,NA,NA,4,6,"15,3,2,9,11,5,1,10,6,8,13,7,4,14,12"
15140,commdev-image-keyboard-response,249,603915,learnblock1,787.0999984741211,img/planet11_right.png,11,Community 1,NA,TRUE,j,j,NA,NA,NA,4,6,"15,3,2,9,11,5,1,10,6,8,13,7,4,14,12"
15140,commdev-image-keyboard-response,250,605167,learnblock1,735.5999984741211,img/planet3_left.png,3,Community 1,NA,TRUE,f,f,NA,NA,NA,4,6,"15,3,2,9,11,5,1,10,6,8,13,7,4,14,12"
15140,commdev-image-keyboard-response,251,606419,learnblock1,1123.7999992370605,img/planet9_right.png,9,Community 1,NA,TRUE,j,j,NA,NA,NA,4,6,"15,3,2,9,11,5,1,10,6,8,13,7,4,14,12"
15140,commdev-image-keyboard-response,252,607671,learnblock1,732.2999992370605,img/planet2_right.png,2,Community 1,NA,TRUE,j,j,NA,NA,NA,4,6,"15,3,2,9,11,5,1,10,6,8,13,7,4,14,12"
15140,commdev-image-keyboard-response,253,608923,learnblock1,770.5,img/planet9_left.png,9,Community 1,NA,TRUE,f,f,NA,NA,NA,4,6,"15,3,2,9,11,5,1,10,6,8,13,7,4,14,12"
15140,commdev-image-keyboard-response,254,610174,learnblock1,818.1000003814697,img/planet5_left.png,5,Community 2,NA,TRUE,f,f,NA,NA,NA,4,6,"15,3,2,9,11,5,1,10,6,8,13,7,4,14,12"
15140,commdev-image-keyboard-response,255,611426,learnblock1,786.6000003814697,img/planet1_left.png,1,Community 2,NA,TRUE,f,f,NA,NA,NA,4,6,"15,3,2,9,11,5,1,10,6,8,13,7,4,14,12"
15140,commdev-image-keyboard-response,256,612678,learnblock1,1005.3999996185303,img/planet8_left.png,8,Community 2,NA,TRUE,f,f,NA,NA,NA,4,6,"15,3,2,9,11,5,1,10,6,8,13,7,4,14,12"
15140,commdev-image-keyboard-response,257,613929,learnblock1,784.1000003814697,img/planet5_left.png,5,Community 2,NA,TRUE,f,f,NA,NA,NA,4,6,"15,3,2,9,11,5,1,10,6,8,13,7,4,14,12"
15140,commdev-image-keyboard-response,258,615181,learnblock1,811.2999992370605,img/planet8_right.png,8,Community 2,NA,FALSE,f,j,NA,NA,NA,4,6,"15,3,2,9,11,5,1,10,6,8,13,7,4,14,12"
15140,commdev-image-keyboard-response,259,616434,learnblock1,null,img/planet6_right.png,6,Community 2,NA,FALSE,null,j,NA,NA,NA,4,6,"15,3,2,9,11,5,1,10,6,8,13,7,4,14,12"
15140,commdev-image-keyboard-response,260,617685,learnblock1,17.5,img/planet8_right.png,8,Community 2,NA,TRUE,j,j,NA,NA,NA,4,6,"15,3,2,9,11,5,1,10,6,8,13,7,4,14,12"
15140,commdev-image-keyboard-response,261,618938,learnblock1,595.8999996185303,img/planet1_right.png,1,Community 2,NA,TRUE,j,j,NA,NA,NA,4,6,"15,3,2,9,11,5,1,10,6,8,13,7,4,14,12"
15140,commdev-image-keyboard-response,262,620190,learnblock1,843.6000003814697,img/planet10_right.png,10,Community 2,NA,TRUE,j,j,NA,NA,NA,4,6,"15,3,2,9,11,5,1,10,6,8,13,7,4,14,12"
15140,commdev-image-keyboard-response,263,621441,learnblock1,761.5,img/planet7_right.png,7,Community 3,NA,TRUE,j,j,NA,NA,NA,4,6,"15,3,2,9,11,5,1,10,6,8,13,7,4,14,12"
15140,commdev-image-keyboard-response,264,622693,learnblock1,709.7999992370605,img/planet12_left.png,12,Community 3,NA,TRUE,f,f,NA,NA,NA,4,6,"15,3,2,9,11,5,1,10,6,8,13,7,4,14,12"
15140,commdev-image-keyboard-response,265,623944,learnblock1,688.3999996185303,img/planet13_right.png,13,Community 3,NA,TRUE,j,j,NA,NA,NA,4,6,"15,3,2,9,11,5,1,10,6,8,13,7,4,14,12"
15140,commdev-image-keyboard-response,266,625196,learnblock1,766.7999992370605,img/planet12_left.png,12,Community 3,NA,TRUE,f,f,NA,NA,NA,4,6,"15,3,2,9,11,5,1,10,6,8,13,7,4,14,12"
15140,commdev-image-keyboard-response,267,626448,learnblock1,665.8999996185303,img/planet4_right.png,4,Community 3,NA,TRUE,j,j,NA,NA,NA,4,6,"15,3,2,9,11,5,1,10,6,8,13,7,4,14,12"
15140,commdev-image-keyboard-response,268,627700,learnblock1,993,img/planet12_right.png,12,Community 3,NA,TRUE,j,j,NA,NA,NA,4,6,"15,3,2,9,11,5,1,10,6,8,13,7,4,14,12"
15140,commdev-image-keyboard-response,269,628951,learnblock1,751,img/planet14_left.png,14,Community 3,NA,TRUE,f,f,NA,NA,NA,4,6,"15,3,2,9,11,5,1,10,6,8,13,7,4,14,12"
15140,commdev-image-keyboard-response,270,630203,learnblock1,859.7999992370605,img/planet13_left.png,13,Community 3,NA,TRUE,f,f,NA,NA,NA,4,6,"15,3,2,9,11,5,1,10,6,8,13,7,4,14,12"
15140,commdev-image-keyboard-response,271,631454,learnblock1,798,img/planet14_left.png,14,Community 3,NA,TRUE,f,f,NA,NA,NA,4,6,"15,3,2,9,11,5,1,10,6,8,13,7,4,14,12"
15140,commdev-image-keyboard-response,272,632706,learnblock1,956.5,img/planet12_left.png,12,Community 3,NA,TRUE,f,f,NA,NA,NA,4,6,"15,3,2,9,11,5,1,10,6,8,13,7,4,14,12"
15140,commdev-image-keyboard-response,273,633958,learnblock1,825.1999988555908,img/planet13_left.png,13,Community 3,NA,TRUE,f,f,NA,NA,NA,4,6,"15,3,2,9,11,5,1,10,6,8,13,7,4,14,12"
15140,commdev-image-keyboard-response,274,635210,learnblock1,753.5,img/planet12_left.png,12,Community 3,NA,TRUE,f,f,NA,NA,NA,4,6,"15,3,2,9,11,5,1,10,6,8,13,7,4,14,12"
15140,commdev-image-keyboard-response,275,636461,learnblock1,701.1000003814697,img/planet4_left.png,4,Community 3,NA,TRUE,f,f,NA,NA,NA,4,6,"15,3,2,9,11,5,1,10,6,8,13,7,4,14,12"
15140,commdev-image-keyboard-response,276,637712,learnblock1,759.6000003814697,img/planet14_right.png,14,Community 3,NA,TRUE,j,j,NA,NA,NA,4,6,"15,3,2,9,11,5,1,10,6,8,13,7,4,14,12"
15140,commdev-image-keyboard-response,277,638964,learnblock1,748.5,img/planet4_left.png,4,Community 3,NA,TRUE,f,f,NA,NA,NA,4,6,"15,3,2,9,11,5,1,10,6,8,13,7,4,14,12"
15140,commdev-image-keyboard-response,278,640215,learnblock1,727.2000007629395,img/planet12_left.png,12,Community 3,NA,TRUE,f,f,NA,NA,NA,4,6,"15,3,2,9,11,5,1,10,6,8,13,7,4,14,12"
15140,commdev-image-keyboard-response,279,641468,learnblock1,675.6000003814697,img/planet14_left.png,14,Community 3,NA,TRUE,f,f,NA,NA,NA,4,6,"15,3,2,9,11,5,1,10,6,8,13,7,4,14,12"
15140,commdev-image-keyboard-response,280,642720,learnblock1,862.5,img/planet13_left.png,13,Community 3,NA,TRUE,f,f,NA,NA,NA,4,6,"15,3,2,9,11,5,1,10,6,8,13,7,4,14,12"
15140,commdev-image-keyboard-response,281,643972,learnblock1,811.1000003814697,img/planet11_left.png,11,Community 1,NA,TRUE,f,f,NA,NA,NA,4,6,"15,3,2,9,11,5,1,10,6,8,13,7,4,14,12"
15140,commdev-image-keyboard-response,282,645227,learnblock1,789.7000007629395,img/planet13_left.png,13,Community 3,NA,TRUE,f,f,NA,NA,NA,4,6,"15,3,2,9,11,5,1,10,6,8,13,7,4,14,12"
15140,commdev-image-keyboard-response,283,646478,learnblock1,593.7000007629395,img/planet4_left.png,4,Community 3,NA,TRUE,f,f,NA,NA,NA,4,6,"15,3,2,9,11,5,1,10,6,8,13,7,4,14,12"
15140,commdev-image-keyboard-response,284,647730,learnblock1,772.6000003814697,img/planet14_right.png,14,Community 3,NA,TRUE,j,j,NA,NA,NA,4,6,"15,3,2,9,11,5,1,10,6,8,13,7,4,14,12"
15140,commdev-image-keyboard-response,285,648982,learnblock1,941,img/planet7_left.png,7,Community 3,NA,TRUE,f,f,NA,NA,NA,4,6,"15,3,2,9,11,5,1,10,6,8,13,7,4,14,12"
15140,commdev-image-keyboard-response,286,650234,learnblock1,929.1000003814697,img/planet12_left.png,12,Community 3,NA,TRUE,f,f,NA,NA,NA,4,6,"15,3,2,9,11,5,1,10,6,8,13,7,4,14,12"
15140,commdev-image-keyboard-response,287,651485,learnblock1,757.5,img/planet4_left.png,4,Community 3,NA,TRUE,f,f,NA,NA,NA,4,6,"15,3,2,9,11,5,1,10,6,8,13,7,4,14,12"
15140,commdev-image-keyboard-response,288,652738,learnblock1,656.1999988555908,img/planet14_left.png,14,Community 3,NA,TRUE,f,f,NA,NA,NA,4,6,"15,3,2,9,11,5,1,10,6,8,13,7,4,14,12"
15140,commdev-image-keyboard-response,289,653989,learnblock1,783,img/planet12_right.png,12,Community 3,NA,TRUE,j,j,NA,NA,NA,4,6,"15,3,2,9,11,5,1,10,6,8,13,7,4,14,12"
15140,commdev-image-keyboard-response,290,655241,learnblock1,892.3999996185303,img/planet13_right.png,13,Community 3,NA,TRUE,j,j,NA,NA,NA,4,6,"15,3,2,9,11,5,1,10,6,8,13,7,4,14,12"
15140,commdev-image-keyboard-response,291,656493,learnblock1,879.2999992370605,img/planet11_right.png,11,Community 1,NA,TRUE,j,j,NA,NA,NA,4,6,"15,3,2,9,11,5,1,10,6,8,13,7,4,14,12"
15140,commdev-image-keyboard-response,292,657745,learnblock1,797.7999992370605,img/planet15_left.png,15,Community 1,NA,TRUE,f,f,NA,NA,NA,4,6,"15,3,2,9,11,5,1,10,6,8,13,7,4,14,12"
15140,commdev-image-keyboard-response,293,658996,learnblock1,1207.1000003814697,img/planet9_left.png,9,Community 1,NA,TRUE,f,f,NA,NA,NA,4,6,"15,3,2,9,11,5,1,10,6,8,13,7,4,14,12"
15140,commdev-image-keyboard-response,294,660248,learnblock1,914.6000003814697,img/planet2_right.png,2,Community 1,NA,TRUE,j,j,NA,NA,NA,4,6,"15,3,2,9,11,5,1,10,6,8,13,7,4,14,12"
15140,commdev-image-keyboard-response,295,661499,learnblock1,883.1000003814697,img/planet3_right.png,3,Community 1,NA,TRUE,j,j,NA,NA,NA,4,6,"15,3,2,9,11,5,1,10,6,8,13,7,4,14,12"
15140,commdev-image-keyboard-response,296,662751,learnblock1,762,img/planet15_left.png,15,Community 1,NA,TRUE,f,f,NA,NA,NA,4,6,"15,3,2,9,11,5,1,10,6,8,13,7,4,14,12"
15140,commdev-image-keyboard-response,297,664003,learnblock1,970,img/planet3_right.png,3,Community 1,NA,TRUE,j,j,NA,NA,NA,4,6,"15,3,2,9,11,5,1,10,6,8,13,7,4,14,12"
15140,commdev-image-keyboard-response,298,665255,learnblock1,998.1999988555908,img/planet9_right.png,9,Community 1,NA,TRUE,j,j,NA,NA,NA,4,6,"15,3,2,9,11,5,1,10,6,8,13,7,4,14,12"
15140,commdev-image-keyboard-response,299,666508,learnblock1,706.2999992370605,img/planet15_left.png,15,Community 1,NA,TRUE,f,f,NA,NA,NA,4,6,"15,3,2,9,11,5,1,10,6,8,13,7,4,14,12"
15140,commdev-image-keyboard-response,300,667759,learnblock1,863.2000007629395,img/planet9_right.png,9,Community 1,NA,TRUE,j,j,NA,NA,NA,4,6,"15,3,2,9,11,5,1,10,6,8,13,7,4,14,12"
15140,commdev-image-keyboard-response,301,669011,learnblock1,742.2000007629395,img/planet5_left.png,5,Community 2,NA,FALSE,j,f,NA,NA,NA,4,6,"15,3,2,9,11,5,1,10,6,8,13,7,4,14,12"
15140,commdev-image-keyboard-response,302,670263,learnblock1,950.0999984741211,img/planet9_left.png,9,Community 1,NA,TRUE,f,f,NA,NA,NA,4,6,"15,3,2,9,11,5,1,10,6,8,13,7,4,14,12"
15140,commdev-image-keyboard-response,303,671514,learnblock1,608.1999988555908,img/planet2_left.png,2,Community 1,NA,TRUE,f,f,NA,NA,NA,4,6,"15,3,2,9,11,5,1,10,6,8,13,7,4,14,12"
15140,commdev-image-keyboard-response,304,672766,learnblock1,907,img/planet15_left.png,15,Community 1,NA,TRUE,f,f,NA,NA,NA,4,6,"15,3,2,9,11,5,1,10,6,8,13,7,4,14,12"
15140,commdev-image-keyboard-response,305,674018,learnblock1,755.1999988555908,img/planet11_left.png,11,Community 1,NA,TRUE,f,f,NA,NA,NA,4,6,"15,3,2,9,11,5,1,10,6,8,13,7,4,14,12"
15140,commdev-image-keyboard-response,306,675269,learnblock1,1163.3999996185303,img/planet13_right.png,13,Community 3,NA,TRUE,j,j,NA,NA,NA,4,6,"15,3,2,9,11,5,1,10,6,8,13,7,4,14,12"
15140,commdev-image-keyboard-response,307,676520,learnblock1,1142.1000003814697,img/planet14_right.png,14,Community 3,NA,TRUE,j,j,NA,NA,NA,4,6,"15,3,2,9,11,5,1,10,6,8,13,7,4,14,12"
15140,commdev-image-keyboard-response,308,677772,learnblock1,811.2000007629395,img/planet12_left.png,12,Community 3,NA,TRUE,f,f,NA,NA,NA,4,6,"15,3,2,9,11,5,1,10,6,8,13,7,4,14,12"
15140,commdev-image-keyboard-response,309,679024,learnblock1,699.3999996185303,img/planet14_left.png,14,Community 3,NA,TRUE,f,f,NA,NA,NA,4,6,"15,3,2,9,11,5,1,10,6,8,13,7,4,14,12"
15140,commdev-image-keyboard-response,310,680275,learnblock1,1017.6000003814697,img/planet7_left.png,7,Community 3,NA,TRUE,f,f,NA,NA,NA,4,6,"15,3,2,9,11,5,1,10,6,8,13,7,4,14,12"
15140,commdev-image-keyboard-response,311,681527,learnblock1,795.9000015258789,img/planet4_left.png,4,Community 3,NA,TRUE,f,f,NA,NA,NA,4,6,"15,3,2,9,11,5,1,10,6,8,13,7,4,14,12"
15140,commdev-image-keyboard-response,312,682779,learnblock1,723.6000003814697,img/planet7_right.png,7,Community 3,NA,TRUE,j,j,NA,NA,NA,4,6,"15,3,2,9,11,5,1,10,6,8,13,7,4,14,12"
15140,commdev-image-keyboard-response,313,684030,learnblock1,642.5,img/planet4_right.png,4,Community 3,NA,TRUE,j,j,NA,NA,NA,4,6,"15,3,2,9,11,5,1,10,6,8,13,7,4,14,12"
15140,commdev-image-keyboard-response,314,685282,learnblock1,820.7000007629395,img/planet12_right.png,12,Community 3,NA,TRUE,j,j,NA,NA,NA,4,6,"15,3,2,9,11,5,1,10,6,8,13,7,4,14,12"
15140,commdev-image-keyboard-response,315,686534,learnblock1,759.1000003814697,img/planet13_right.png,13,Community 3,NA,TRUE,j,j,NA,NA,NA,4,6,"15,3,2,9,11,5,1,10,6,8,13,7,4,14,12"
15140,commdev-image-keyboard-response,316,687786,learnblock1,777.3999996185303,img/planet11_left.png,11,Community 1,NA,TRUE,f,f,NA,NA,NA,4,6,"15,3,2,9,11,5,1,10,6,8,13,7,4,14,12"
15140,commdev-image-keyboard-response,317,689038,learnblock1,965.0999984741211,img/planet3_right.png,3,Community 1,NA,TRUE,j,j,NA,NA,NA,4,6,"15,3,2,9,11,5,1,10,6,8,13,7,4,14,12"
15140,commdev-image-keyboard-response,318,690289,learnblock1,783.7999992370605,img/planet15_left.png,15,Community 1,NA,TRUE,f,f,NA,NA,NA,4,6,"15,3,2,9,11,5,1,10,6,8,13,7,4,14,12"
15140,commdev-image-keyboard-response,319,691541,learnblock1,752.1000003814697,img/planet2_left.png,2,Community 1,NA,TRUE,f,f,NA,NA,NA,4,6,"15,3,2,9,11,5,1,10,6,8,13,7,4,14,12"
15140,commdev-image-keyboard-response,320,692793,learnblock1,839.8999996185303,img/planet9_left.png,9,Community 1,NA,TRUE,f,f,NA,NA,NA,4,6,"15,3,2,9,11,5,1,10,6,8,13,7,4,14,12"
15140,commdev-image-keyboard-response,321,694045,learnblock1,648,img/planet2_left.png,2,Community 1,NA,TRUE,f,f,NA,NA,NA,4,6,"15,3,2,9,11,5,1,10,6,8,13,7,4,14,12"
15140,commdev-image-keyboard-response,322,695298,learnblock1,705.8999996185303,img/planet9_left.png,9,Community 1,NA,TRUE,f,f,NA,NA,NA,4,6,"15,3,2,9,11,5,1,10,6,8,13,7,4,14,12"
15140,commdev-image-keyboard-response,323,696550,learnblock1,623,img/planet2_right.png,2,Community 1,NA,TRUE,j,j,NA,NA,NA,4,6,"15,3,2,9,11,5,1,10,6,8,13,7,4,14,12"
15140,commdev-image-keyboard-response,324,697802,learnblock1,1001.5,img/planet15_left.png,15,Community 1,NA,TRUE,f,f,NA,NA,NA,4,6,"15,3,2,9,11,5,1,10,6,8,13,7,4,14,12"
15140,commdev-image-keyboard-response,325,699054,learnblock1,729.1000003814697,img/planet9_right.png,9,Community 1,NA,TRUE,j,j,NA,NA,NA,4,6,"15,3,2,9,11,5,1,10,6,8,13,7,4,14,12"
15140,commdev-image-keyboard-response,326,700305,learnblock1,767.6000003814697,img/planet15_right.png,15,Community 1,NA,FALSE,f,j,NA,NA,NA,4,6,"15,3,2,9,11,5,1,10,6,8,13,7,4,14,12"
15140,commdev-image-keyboard-response,327,701558,learnblock1,946.1000003814697,img/planet3_right.png,3,Community 1,NA,TRUE,j,j,NA,NA,NA,4,6,"15,3,2,9,11,5,1,10,6,8,13,7,4,14,12"
15140,commdev-image-keyboard-response,328,702809,learnblock1,724,img/planet9_left.png,9,Community 1,NA,TRUE,f,f,NA,NA,NA,4,6,"15,3,2,9,11,5,1,10,6,8,13,7,4,14,12"
15140,commdev-image-keyboard-response,329,704061,learnblock1,652,img/planet15_left.png,15,Community 1,NA,TRUE,f,f,NA,NA,NA,4,6,"15,3,2,9,11,5,1,10,6,8,13,7,4,14,12"
15140,commdev-image-keyboard-response,330,705312,learnblock1,630.9000015258789,img/planet9_right.png,9,Community 1,NA,TRUE,j,j,NA,NA,NA,4,6,"15,3,2,9,11,5,1,10,6,8,13,7,4,14,12"
15140,commdev-image-keyboard-response,331,706565,learnblock1,609,img/planet2_left.png,2,Community 1,NA,TRUE,f,f,NA,NA,NA,4,6,"15,3,2,9,11,5,1,10,6,8,13,7,4,14,12"
15140,commdev-image-keyboard-response,332,707816,learnblock1,816.5,img/planet15_right.png,15,Community 1,NA,TRUE,j,j,NA,NA,NA,4,6,"15,3,2,9,11,5,1,10,6,8,13,7,4,14,12"
15140,commdev-image-keyboard-response,333,709067,learnblock1,755.9000015258789,img/planet3_left.png,3,Community 1,NA,TRUE,f,f,NA,NA,NA,4,6,"15,3,2,9,11,5,1,10,6,8,13,7,4,14,12"
15140,commdev-image-keyboard-response,334,710320,learnblock1,533.8999996185303,img/planet11_left.png,11,Community 1,NA,FALSE,j,f,NA,NA,NA,4,6,"15,3,2,9,11,5,1,10,6,8,13,7,4,14,12"
15140,commdev-image-keyboard-response,335,711571,learnblock1,512,img/planet13_left.png,13,Community 3,NA,FALSE,j,f,NA,NA,NA,4,6,"15,3,2,9,11,5,1,10,6,8,13,7,4,14,12"
15140,commdev-image-keyboard-response,336,712822,learnblock1,620.7000007629395,img/planet11_right.png,11,Community 1,NA,TRUE,j,j,NA,NA,NA,4,6,"15,3,2,9,11,5,1,10,6,8,13,7,4,14,12"
15140,commdev-image-keyboard-response,337,714074,learnblock1,779,img/planet15_right.png,15,Community 1,NA,TRUE,j,j,NA,NA,NA,4,6,"15,3,2,9,11,5,1,10,6,8,13,7,4,14,12"
15140,commdev-image-keyboard-response,338,715326,learnblock1,707.2000007629395,img/planet3_left.png,3,Community 1,NA,TRUE,f,f,NA,NA,NA,4,6,"15,3,2,9,11,5,1,10,6,8,13,7,4,14,12"
15140,commdev-image-keyboard-response,339,716578,learnblock1,925.7000007629395,img/planet15_left.png,15,Community 1,NA,TRUE,f,f,NA,NA,NA,4,6,"15,3,2,9,11,5,1,10,6,8,13,7,4,14,12"
15140,commdev-image-keyboard-response,340,717830,learnblock1,813.7999992370605,img/planet2_left.png,2,Community 1,NA,TRUE,f,f,NA,NA,NA,4,6,"15,3,2,9,11,5,1,10,6,8,13,7,4,14,12"
15140,commdev-image-keyboard-response,341,719082,learnblock1,861.5999984741211,img/planet3_left.png,3,Community 1,NA,TRUE,f,f,NA,NA,NA,4,6,"15,3,2,9,11,5,1,10,6,8,13,7,4,14,12"
15140,commdev-image-keyboard-response,342,720334,learnblock1,1079.7000007629395,img/planet15_left.png,15,Community 1,NA,TRUE,f,f,NA,NA,NA,4,6,"15,3,2,9,11,5,1,10,6,8,13,7,4,14,12"
15140,commdev-image-keyboard-response,343,721585,learnblock1,937.6999988555908,img/planet3_right.png,3,Community 1,NA,TRUE,j,j,NA,NA,NA,4,6,"15,3,2,9,11,5,1,10,6,8,13,7,4,14,12"
15140,commdev-image-keyboard-response,344,722837,learnblock1,837.0999984741211,img/planet11_right.png,11,Community 1,NA,TRUE,j,j,NA,NA,NA,4,6,"15,3,2,9,11,5,1,10,6,8,13,7,4,14,12"
15140,commdev-image-keyboard-response,345,724089,learnblock1,694.1999988555908,img/planet13_right.png,13,Community 3,NA,TRUE,j,j,NA,NA,NA,4,6,"15,3,2,9,11,5,1,10,6,8,13,7,4,14,12"
15140,commdev-image-keyboard-response,346,725340,learnblock1,962.7000007629395,img/planet14_right.png,14,Community 3,NA,TRUE,j,j,NA,NA,NA,4,6,"15,3,2,9,11,5,1,10,6,8,13,7,4,14,12"
15140,commdev-image-keyboard-response,347,726592,learnblock1,950.8999996185303,img/planet7_left.png,7,Community 3,NA,TRUE,f,f,NA,NA,NA,4,6,"15,3,2,9,11,5,1,10,6,8,13,7,4,14,12"
15140,commdev-image-keyboard-response,351,985401,learnblock2,868.1999988555908,img/planet8_left.png,8,Community 2,NA,TRUE,f,f,NA,NA,NA,4,6,"15,3,2,9,11,5,1,10,6,8,13,7,4,14,12"
15140,commdev-image-keyboard-response,352,986652,learnblock2,596.6000003814697,img/planet10_left.png,10,Community 2,NA,TRUE,f,f,NA,NA,NA,4,6,"15,3,2,9,11,5,1,10,6,8,13,7,4,14,12"
15140,commdev-image-keyboard-response,353,987903,learnblock2,725.5,img/planet6_right.png,6,Community 2,NA,TRUE,j,j,NA,NA,NA,4,6,"15,3,2,9,11,5,1,10,6,8,13,7,4,14,12"
15140,commdev-image-keyboard-response,354,989155,learnblock2,864.9000015258789,img/planet1_left.png,1,Community 2,NA,TRUE,f,f,NA,NA,NA,4,6,"15,3,2,9,11,5,1,10,6,8,13,7,4,14,12"
15140,commdev-image-keyboard-response,355,990406,learnblock2,623.2999992370605,img/planet10_right.png,10,Community 2,NA,TRUE,j,j,NA,NA,NA,4,6,"15,3,2,9,11,5,1,10,6,8,13,7,4,14,12"
15140,commdev-image-keyboard-response,356,991658,learnblock2,1005.3000011444092,img/planet8_right.png,8,Community 2,NA,TRUE,j,j,NA,NA,NA,4,6,"15,3,2,9,11,5,1,10,6,8,13,7,4,14,12"
15140,commdev-image-keyboard-response,357,992909,learnblock2,700.0999984741211,img/planet6_right.png,6,Community 2,NA,TRUE,j,j,NA,NA,NA,4,6,"15,3,2,9,11,5,1,10,6,8,13,7,4,14,12"
15140,commdev-image-keyboard-response,358,994161,learnblock2,628.5,img/planet8_left.png,8,Community 2,NA,TRUE,f,f,NA,NA,NA,4,6,"15,3,2,9,11,5,1,10,6,8,13,7,4,14,12"
15140,commdev-image-keyboard-response,359,995412,learnblock2,687.3999996185303,img/planet6_right.png,6,Community 2,NA,FALSE,f,j,NA,NA,NA,4,6,"15,3,2,9,11,5,1,10,6,8,13,7,4,14,12"
15140,commdev-image-keyboard-response,360,996664,learnblock2,465.79999923706055,img/planet10_left.png,10,Community 2,NA,TRUE,f,f,NA,NA,NA,4,6,"15,3,2,9,11,5,1,10,6,8,13,7,4,14,12"
15140,commdev-image-keyboard-response,361,997916,learnblock2,913.7000007629395,img/planet8_left.png,8,Community 2,NA,TRUE,f,f,NA,NA,NA,4,6,"15,3,2,9,11,5,1,10,6,8,13,7,4,14,12"
15140,commdev-image-keyboard-response,362,999168,learnblock2,581.7000007629395,img/planet1_left.png,1,Community 2,NA,TRUE,f,f,NA,NA,NA,4,6,"15,3,2,9,11,5,1,10,6,8,13,7,4,14,12"
15140,commdev-image-keyboard-response,363,1000420,learnblock2,749.8000011444092,img/planet8_right.png,8,Community 2,NA,TRUE,j,j,NA,NA,NA,4,6,"15,3,2,9,11,5,1,10,6,8,13,7,4,14,12"
15140,commdev-image-keyboard-response,364,1001671,learnblock2,687.8999996185303,img/planet6_right.png,6,Community 2,NA,TRUE,j,j,NA,NA,NA,4,6,"15,3,2,9,11,5,1,10,6,8,13,7,4,14,12"
15140,commdev-image-keyboard-response,365,1002923,learnblock2,626.6000003814697,img/planet5_right.png,5,Community 2,NA,TRUE,j,j,NA,NA,NA,4,6,"15,3,2,9,11,5,1,10,6,8,13,7,4,14,12"
15140,commdev-image-keyboard-response,366,1004174,learnblock2,505.79999923706055,img/planet1_left.png,1,Community 2,NA,FALSE,j,f,NA,NA,NA,4,6,"15,3,2,9,11,5,1,10,6,8,13,7,4,14,12"
15140,commdev-image-keyboard-response,367,1005426,learnblock2,604,img/planet10_right.png,10,Community 2,NA,TRUE,j,j,NA,NA,NA,4,6,"15,3,2,9,11,5,1,10,6,8,13,7,4,14,12"
15140,commdev-image-keyboard-response,368,1006678,learnblock2,781.9000015258789,img/planet6_left.png,6,Community 2,NA,TRUE,f,f,NA,NA,NA,4,6,"15,3,2,9,11,5,1,10,6,8,13,7,4,14,12"
15140,commdev-image-keyboard-response,369,1007929,learnblock2,920.5,img/planet8_right.png,8,Community 2,NA,FALSE,f,j,NA,NA,NA,4,6,"15,3,2,9,11,5,1,10,6,8,13,7,4,14,12"
15140,commdev-image-keyboard-response,370,1009181,learnblock2,719,img/planet10_left.png,10,Community 2,NA,TRUE,f,f,NA,NA,NA,4,6,"15,3,2,9,11,5,1,10,6,8,13,7,4,14,12"
15140,commdev-image-keyboard-response,371,1010433,learnblock2,797.3999996185303,img/planet1_right.png,1,Community 2,NA,TRUE,j,j,NA,NA,NA,4,6,"15,3,2,9,11,5,1,10,6,8,13,7,4,14,12"
15140,commdev-image-keyboard-response,372,1011684,learnblock2,625.6000003814697,img/planet10_left.png,10,Community 2,NA,TRUE,f,f,NA,NA,NA,4,6,"15,3,2,9,11,5,1,10,6,8,13,7,4,14,12"
15140,commdev-image-keyboard-response,373,1012938,learnblock2,713.3999996185303,img/planet8_left.png,8,Community 2,NA,TRUE,f,f,NA,NA,NA,4,6,"15,3,2,9,11,5,1,10,6,8,13,7,4,14,12"
15140,commdev-image-keyboard-response,374,1014189,learnblock2,680.6000003814697,img/planet1_right.png,1,Community 2,NA,TRUE,j,j,NA,NA,NA,4,6,"15,3,2,9,11,5,1,10,6,8,13,7,4,14,12"
15140,commdev-image-keyboard-response,375,1015442,learnblock2,688.8999996185303,img/planet6_right.png,6,Community 2,NA,TRUE,j,j,NA,NA,NA,4,6,"15,3,2,9,11,5,1,10,6,8,13,7,4,14,12"
15140,commdev-image-keyboard-response,376,1016694,learnblock2,726.3000011444092,img/planet8_left.png,8,Community 2,NA,TRUE,f,f,NA,NA,NA,4,6,"15,3,2,9,11,5,1,10,6,8,13,7,4,14,12"
15140,commdev-image-keyboard-response,377,1017945,learnblock2,684.6000003814697,img/planet5_left.png,5,Community 2,NA,TRUE,f,f,NA,NA,NA,4,6,"15,3,2,9,11,5,1,10,6,8,13,7,4,14,12"
15140,commdev-image-keyboard-response,378,1019197,learnblock2,993.3999996185303,img/planet9_left.png,9,Community 1,NA,TRUE,f,f,NA,NA,NA,4,6,"15,3,2,9,11,5,1,10,6,8,13,7,4,14,12"
15140,commdev-image-keyboard-response,379,1020449,learnblock2,690.6999988555908,img/planet2_right.png,2,Community 1,NA,TRUE,j,j,NA,NA,NA,4,6,"15,3,2,9,11,5,1,10,6,8,13,7,4,14,12"
15140,commdev-image-keyboard-response,380,1021701,learnblock2,859.3999996185303,img/planet11_left.png,11,Community 1,NA,TRUE,f,f,NA,NA,NA,4,6,"15,3,2,9,11,5,1,10,6,8,13,7,4,14,12"
15140,commdev-image-keyboard-response,381,1022953,learnblock2,947.5,img/planet15_right.png,15,Community 1,NA,TRUE,j,j,NA,NA,NA,4,6,"15,3,2,9,11,5,1,10,6,8,13,7,4,14,12"
15140,commdev-image-keyboard-response,382,1024204,learnblock2,815.5,img/planet9_left.png,9,Community 1,NA,TRUE,f,f,NA,NA,NA,4,6,"15,3,2,9,11,5,1,10,6,8,13,7,4,14,12"
15140,commdev-image-keyboard-response,383,1025457,learnblock2,763.7999992370605,img/planet3_left.png,3,Community 1,NA,TRUE,f,f,NA,NA,NA,4,6,"15,3,2,9,11,5,1,10,6,8,13,7,4,14,12"
15140,commdev-image-keyboard-response,384,1026708,learnblock2,682.7000007629395,img/planet2_right.png,2,Community 1,NA,TRUE,j,j,NA,NA,NA,4,6,"15,3,2,9,11,5,1,10,6,8,13,7,4,14,12"
15140,commdev-image-keyboard-response,385,1027960,learnblock2,579.4000015258789,img/planet9_right.png,9,Community 1,NA,TRUE,j,j,NA,NA,NA,4,6,"15,3,2,9,11,5,1,10,6,8,13,7,4,14,12"
15140,commdev-image-keyboard-response,386,1029211,learnblock2,808.5,img/planet5_right.png,5,Community 2,NA,TRUE,j,j,NA,NA,NA,4,6,"15,3,2,9,11,5,1,10,6,8,13,7,4,14,12"
15140,commdev-image-keyboard-response,387,1030462,learnblock2,617.3999996185303,img/planet9_right.png,9,Community 1,NA,TRUE,j,j,NA,NA,NA,4,6,"15,3,2,9,11,5,1,10,6,8,13,7,4,14,12"
15140,commdev-image-keyboard-response,388,1031714,learnblock2,666.1000003814697,img/planet5_right.png,5,Community 2,NA,TRUE,j,j,NA,NA,NA,4,6,"15,3,2,9,11,5,1,10,6,8,13,7,4,14,12"
15140,commdev-image-keyboard-response,389,1032967,learnblock2,984.1999988555908,img/planet8_right.png,8,Community 2,NA,TRUE,j,j,NA,NA,NA,4,6,"15,3,2,9,11,5,1,10,6,8,13,7,4,14,12"
15140,commdev-image-keyboard-response,390,1034219,learnblock2,861.1000003814697,img/planet10_right.png,10,Community 2,NA,TRUE,j,j,NA,NA,NA,4,6,"15,3,2,9,11,5,1,10,6,8,13,7,4,14,12"
15140,commdev-image-keyboard-response,391,1035471,learnblock2,739.5,img/planet8_right.png,8,Community 2,NA,TRUE,j,j,NA,NA,NA,4,6,"15,3,2,9,11,5,1,10,6,8,13,7,4,14,12"
15140,commdev-image-keyboard-response,392,1036722,learnblock2,767.8999996185303,img/planet5_left.png,5,Community 2,NA,TRUE,f,f,NA,NA,NA,4,6,"15,3,2,9,11,5,1,10,6,8,13,7,4,14,12"
15140,commdev-image-keyboard-response,393,1037974,learnblock2,876.2999992370605,img/planet9_left.png,9,Community 1,NA,TRUE,f,f,NA,NA,NA,4,6,"15,3,2,9,11,5,1,10,6,8,13,7,4,14,12"
15140,commdev-image-keyboard-response,394,1039226,learnblock2,924,img/planet5_left.png,5,Community 2,NA,TRUE,f,f,NA,NA,NA,4,6,"15,3,2,9,11,5,1,10,6,8,13,7,4,14,12"
15140,commdev-image-keyboard-response,395,1040478,learnblock2,712.8000011444092,img/planet8_left.png,8,Community 2,NA,TRUE,f,f,NA,NA,NA,4,6,"15,3,2,9,11,5,1,10,6,8,13,7,4,14,12"
15140,commdev-image-keyboard-response,396,1041730,learnblock2,830.8000011444092,img/planet6_left.png,6,Community 2,NA,TRUE,f,f,NA,NA,NA,4,6,"15,3,2,9,11,5,1,10,6,8,13,7,4,14,12"
15140,commdev-image-keyboard-response,397,1042982,learnblock2,988.3999996185303,img/planet8_right.png,8,Community 2,NA,TRUE,j,j,NA,NA,NA,4,6,"15,3,2,9,11,5,1,10,6,8,13,7,4,14,12"
15140,commdev-image-keyboard-response,398,1044233,learnblock2,806.7000007629395,img/planet10_left.png,10,Community 2,NA,TRUE,f,f,NA,NA,NA,4,6,"15,3,2,9,11,5,1,10,6,8,13,7,4,14,12"
15140,commdev-image-keyboard-response,399,1045485,learnblock2,745.3000011444092,img/planet8_left.png,8,Community 2,NA,TRUE,f,f,NA,NA,NA,4,6,"15,3,2,9,11,5,1,10,6,8,13,7,4,14,12"
15140,commdev-image-keyboard-response,400,1046737,learnblock2,703.2000007629395,img/planet1_left.png,1,Community 2,NA,TRUE,f,f,NA,NA,NA,4,6,"15,3,2,9,11,5,1,10,6,8,13,7,4,14,12"
15140,commdev-image-keyboard-response,401,1047989,learnblock2,821.8999996185303,img/planet8_right.png,8,Community 2,NA,TRUE,j,j,NA,NA,NA,4,6,"15,3,2,9,11,5,1,10,6,8,13,7,4,14,12"
15140,commdev-image-keyboard-response,402,1049241,learnblock2,819.1000003814697,img/planet1_left.png,1,Community 2,NA,FALSE,j,f,NA,NA,NA,4,6,"15,3,2,9,11,5,1,10,6,8,13,7,4,14,12"
15140,commdev-image-keyboard-response,403,1050493,learnblock2,1087.6000003814697,img/planet6_left.png,6,Community 2,NA,TRUE,f,f,NA,NA,NA,4,6,"15,3,2,9,11,5,1,10,6,8,13,7,4,14,12"
15140,commdev-image-keyboard-response,404,1051745,learnblock2,675.2000007629395,img/planet1_right.png,1,Community 2,NA,TRUE,j,j,NA,NA,NA,4,6,"15,3,2,9,11,5,1,10,6,8,13,7,4,14,12"
15140,commdev-image-keyboard-response,405,1052996,learnblock2,683.2999992370605,img/planet10_right.png,10,Community 2,NA,TRUE,j,j,NA,NA,NA,4,6,"15,3,2,9,11,5,1,10,6,8,13,7,4,14,12"
15140,commdev-image-keyboard-response,406,1054248,learnblock2,662.1000003814697,img/planet1_right.png,1,Community 2,NA,TRUE,j,j,NA,NA,NA,4,6,"15,3,2,9,11,5,1,10,6,8,13,7,4,14,12"
15140,commdev-image-keyboard-response,407,1055500,learnblock2,670.4000015258789,img/planet8_left.png,8,Community 2,NA,TRUE,f,f,NA,NA,NA,4,6,"15,3,2,9,11,5,1,10,6,8,13,7,4,14,12"
15140,commdev-image-keyboard-response,408,1056752,learnblock2,958.2000007629395,img/planet10_left.png,10,Community 2,NA,TRUE,f,f,NA,NA,NA,4,6,"15,3,2,9,11,5,1,10,6,8,13,7,4,14,12"
15140,commdev-image-keyboard-response,409,1058004,learnblock2,746.4000015258789,img/planet7_left.png,7,Community 3,NA,TRUE,f,f,NA,NA,NA,4,6,"15,3,2,9,11,5,1,10,6,8,13,7,4,14,12"
15140,commdev-image-keyboard-response,410,1059255,learnblock2,794.6000003814697,img/planet10_right.png,10,Community 2,NA,TRUE,j,j,NA,NA,NA,4,6,"15,3,2,9,11,5,1,10,6,8,13,7,4,14,12"
15140,commdev-image-keyboard-response,411,1060508,learnblock2,823.5,img/planet6_left.png,6,Community 2,NA,TRUE,f,f,NA,NA,NA,4,6,"15,3,2,9,11,5,1,10,6,8,13,7,4,14,12"
15140,commdev-image-keyboard-response,412,1061760,learnblock2,1060.7000007629395,img/planet10_right.png,10,Community 2,NA,TRUE,j,j,NA,NA,NA,4,6,"15,3,2,9,11,5,1,10,6,8,13,7,4,14,12"
15140,commdev-image-keyboard-response,413,1063011,learnblock2,689.1999988555908,img/planet8_right.png,8,Community 2,NA,TRUE,j,j,NA,NA,NA,4,6,"15,3,2,9,11,5,1,10,6,8,13,7,4,14,12"
15140,commdev-image-keyboard-response,414,1064263,learnblock2,697.5,img/planet1_right.png,1,Community 2,NA,TRUE,j,j,NA,NA,NA,4,6,"15,3,2,9,11,5,1,10,6,8,13,7,4,14,12"
15140,commdev-image-keyboard-response,415,1065514,learnblock2,806,img/planet10_right.png,10,Community 2,NA,TRUE,j,j,NA,NA,NA,4,6,"15,3,2,9,11,5,1,10,6,8,13,7,4,14,12"
15140,commdev-image-keyboard-response,416,1066767,learnblock2,683.6999988555908,img/planet8_left.png,8,Community 2,NA,TRUE,f,f,NA,NA,NA,4,6,"15,3,2,9,11,5,1,10,6,8,13,7,4,14,12"
15140,commdev-image-keyboard-response,417,1068019,learnblock2,751.2999992370605,img/planet6_left.png,6,Community 2,NA,TRUE,f,f,NA,NA,NA,4,6,"15,3,2,9,11,5,1,10,6,8,13,7,4,14,12"
15140,commdev-image-keyboard-response,418,1069271,learnblock2,879.8999996185303,img/planet5_right.png,5,Community 2,NA,TRUE,j,j,NA,NA,NA,4,6,"15,3,2,9,11,5,1,10,6,8,13,7,4,14,12"
15140,commdev-image-keyboard-response,419,1070522,learnblock2,657.1999988555908,img/planet8_left.png,8,Community 2,NA,TRUE,f,f,NA,NA,NA,4,6,"15,3,2,9,11,5,1,10,6,8,13,7,4,14,12"
15140,commdev-image-keyboard-response,420,1071774,learnblock2,726,img/planet6_left.png,6,Community 2,NA,TRUE,f,f,NA,NA,NA,4,6,"15,3,2,9,11,5,1,10,6,8,13,7,4,14,12"
15140,commdev-image-keyboard-response,421,1073026,learnblock2,814.7999992370605,img/planet8_left.png,8,Community 2,NA,TRUE,f,f,NA,NA,NA,4,6,"15,3,2,9,11,5,1,10,6,8,13,7,4,14,12"
15140,commdev-image-keyboard-response,422,1074277,learnblock2,712.8999996185303,img/planet1_left.png,1,Community 2,NA,TRUE,f,f,NA,NA,NA,4,6,"15,3,2,9,11,5,1,10,6,8,13,7,4,14,12"
15140,commdev-image-keyboard-response,423,1075529,learnblock2,891.3999996185303,img/planet6_left.png,6,Community 2,NA,TRUE,f,f,NA,NA,NA,4,6,"15,3,2,9,11,5,1,10,6,8,13,7,4,14,12"
15140,commdev-image-keyboard-response,424,1076781,learnblock2,619.3000011444092,img/planet8_left.png,8,Community 2,NA,TRUE,f,f,NA,NA,NA,4,6,"15,3,2,9,11,5,1,10,6,8,13,7,4,14,12"
15140,commdev-image-keyboard-response,425,1078033,learnblock2,617.7999992370605,img/planet5_right.png,5,Community 2,NA,TRUE,j,j,NA,NA,NA,4,6,"15,3,2,9,11,5,1,10,6,8,13,7,4,14,12"
15140,commdev-image-keyboard-response,426,1079285,learnblock2,675.6000003814697,img/planet1_right.png,1,Community 2,NA,TRUE,j,j,NA,NA,NA,4,6,"15,3,2,9,11,5,1,10,6,8,13,7,4,14,12"
15140,commdev-image-keyboard-response,427,1080536,learnblock2,684,img/planet6_right.png,6,Community 2,NA,FALSE,f,j,NA,NA,NA,4,6,"15,3,2,9,11,5,1,10,6,8,13,7,4,14,12"
15140,commdev-image-keyboard-response,428,1081788,learnblock2,682.6999988555908,img/planet8_right.png,8,Community 2,NA,TRUE,j,j,NA,NA,NA,4,6,"15,3,2,9,11,5,1,10,6,8,13,7,4,14,12"
15140,commdev-image-keyboard-response,429,1083039,learnblock2,701,img/planet10_right.png,10,Community 2,NA,TRUE,j,j,NA,NA,NA,4,6,"15,3,2,9,11,5,1,10,6,8,13,7,4,14,12"
15140,commdev-image-keyboard-response,430,1084291,learnblock2,640.8999996185303,img/planet8_left.png,8,Community 2,NA,TRUE,f,f,NA,NA,NA,4,6,"15,3,2,9,11,5,1,10,6,8,13,7,4,14,12"
15140,commdev-image-keyboard-response,431,1085543,learnblock2,818,img/planet10_right.png,10,Community 2,NA,TRUE,j,j,NA,NA,NA,4,6,"15,3,2,9,11,5,1,10,6,8,13,7,4,14,12"
15140,commdev-image-keyboard-response,432,1086795,learnblock2,875.4000015258789,img/planet6_right.png,6,Community 2,NA,TRUE,j,j,NA,NA,NA,4,6,"15,3,2,9,11,5,1,10,6,8,13,7,4,14,12"
15140,commdev-image-keyboard-response,433,1088047,learnblock2,953.8000011444092,img/planet1_right.png,1,Community 2,NA,TRUE,j,j,NA,NA,NA,4,6,"15,3,2,9,11,5,1,10,6,8,13,7,4,14,12"
15140,commdev-image-keyboard-response,434,1089299,learnblock2,741.2999992370605,img/planet5_right.png,5,Community 2,NA,TRUE,j,j,NA,NA,NA,4,6,"15,3,2,9,11,5,1,10,6,8,13,7,4,14,12"
15140,commdev-image-keyboard-response,435,1090550,learnblock2,709.6999988555908,img/planet6_right.png,6,Community 2,NA,TRUE,j,j,NA,NA,NA,4,6,"15,3,2,9,11,5,1,10,6,8,13,7,4,14,12"
15140,commdev-image-keyboard-response,436,1091802,learnblock2,648.5,img/planet10_right.png,10,Community 2,NA,TRUE,j,j,NA,NA,NA,4,6,"15,3,2,9,11,5,1,10,6,8,13,7,4,14,12"
15140,commdev-image-keyboard-response,437,1093054,learnblock2,1217.3999996185303,img/planet6_left.png,6,Community 2,NA,TRUE,f,f,NA,NA,NA,4,6,"15,3,2,9,11,5,1,10,6,8,13,7,4,14,12"
15140,commdev-image-keyboard-response,438,1094306,learnblock2,685.2000007629395,img/planet5_left.png,5,Community 2,NA,TRUE,f,f,NA,NA,NA,4,6,"15,3,2,9,11,5,1,10,6,8,13,7,4,14,12"
15140,commdev-image-keyboard-response,439,1095557,learnblock2,703.1000003814697,img/planet1_left.png,1,Community 2,NA,TRUE,f,f,NA,NA,NA,4,6,"15,3,2,9,11,5,1,10,6,8,13,7,4,14,12"
15140,commdev-image-keyboard-response,440,1096809,learnblock2,702.1000003814697,img/planet8_right.png,8,Community 2,NA,TRUE,j,j,NA,NA,NA,4,6,"15,3,2,9,11,5,1,10,6,8,13,7,4,14,12"
15140,commdev-image-keyboard-response,441,1098061,learnblock2,759.7000007629395,img/planet10_left.png,10,Community 2,NA,TRUE,f,f,NA,NA,NA,4,6,"15,3,2,9,11,5,1,10,6,8,13,7,4,14,12"
15140,commdev-image-keyboard-response,442,1099312,learnblock2,907.7000007629395,img/planet1_left.png,1,Community 2,NA,TRUE,f,f,NA,NA,NA,4,6,"15,3,2,9,11,5,1,10,6,8,13,7,4,14,12"
15140,commdev-image-keyboard-response,443,1100564,learnblock2,916,img/planet5_right.png,5,Community 2,NA,TRUE,j,j,NA,NA,NA,4,6,"15,3,2,9,11,5,1,10,6,8,13,7,4,14,12"
15140,commdev-image-keyboard-response,444,1101816,learnblock2,724.5,img/planet9_right.png,9,Community 1,NA,TRUE,j,j,NA,NA,NA,4,6,"15,3,2,9,11,5,1,10,6,8,13,7,4,14,12"
15140,commdev-image-keyboard-response,445,1103067,learnblock2,983.1000003814697,img/planet5_left.png,5,Community 2,NA,TRUE,f,f,NA,NA,NA,4,6,"15,3,2,9,11,5,1,10,6,8,13,7,4,14,12"
15140,commdev-image-keyboard-response,446,1104319,learnblock2,671.3999996185303,img/planet6_left.png,6,Community 2,NA,TRUE,f,f,NA,NA,NA,4,6,"15,3,2,9,11,5,1,10,6,8,13,7,4,14,12"
15140,commdev-image-keyboard-response,447,1105571,learnblock2,599.5,img/planet10_left.png,10,Community 2,NA,TRUE,f,f,NA,NA,NA,4,6,"15,3,2,9,11,5,1,10,6,8,13,7,4,14,12"
15140,commdev-image-keyboard-response,448,1106822,learnblock2,578.2000007629395,img/planet1_left.png,1,Community 2,NA,TRUE,f,f,NA,NA,NA,4,6,"15,3,2,9,11,5,1,10,6,8,13,7,4,14,12"
15140,commdev-image-keyboard-response,449,1108074,learnblock2,696.8999996185303,img/planet10_right.png,10,Community 2,NA,TRUE,j,j,NA,NA,NA,4,6,"15,3,2,9,11,5,1,10,6,8,13,7,4,14,12"
15140,commdev-image-keyboard-response,450,1109325,learnblock2,805.3000011444092,img/planet1_left.png,1,Community 2,NA,TRUE,f,f,NA,NA,NA,4,6,"15,3,2,9,11,5,1,10,6,8,13,7,4,14,12"
15140,commdev-image-keyboard-response,451,1110578,learnblock2,683.7999992370605,img/planet5_left.png,5,Community 2,NA,TRUE,f,f,NA,NA,NA,4,6,"15,3,2,9,11,5,1,10,6,8,13,7,4,14,12"
15140,commdev-image-keyboard-response,452,1111829,learnblock2,750.5,img/planet1_right.png,1,Community 2,NA,TRUE,j,j,NA,NA,NA,4,6,"15,3,2,9,11,5,1,10,6,8,13,7,4,14,12"
15140,commdev-image-keyboard-response,453,1113081,learnblock2,759.3999996185303,img/planet6_left.png,6,Community 2,NA,TRUE,f,f,NA,NA,NA,4,6,"15,3,2,9,11,5,1,10,6,8,13,7,4,14,12"
15140,commdev-image-keyboard-response,454,1114333,learnblock2,747.7000007629395,img/planet10_right.png,10,Community 2,NA,TRUE,j,j,NA,NA,NA,4,6,"15,3,2,9,11,5,1,10,6,8,13,7,4,14,12"
15140,commdev-image-keyboard-response,455,1115584,learnblock2,636,img/planet6_left.png,6,Community 2,NA,TRUE,f,f,NA,NA,NA,4,6,"15,3,2,9,11,5,1,10,6,8,13,7,4,14,12"
15140,commdev-image-keyboard-response,456,1116836,learnblock2,664.5,img/planet10_right.png,10,Community 2,NA,TRUE,j,j,NA,NA,NA,4,6,"15,3,2,9,11,5,1,10,6,8,13,7,4,14,12"
15140,commdev-image-keyboard-response,457,1118088,learnblock2,633.6999988555908,img/planet8_right.png,8,Community 2,NA,TRUE,j,j,NA,NA,NA,4,6,"15,3,2,9,11,5,1,10,6,8,13,7,4,14,12"
15140,commdev-image-keyboard-response,458,1119341,learnblock2,521.1000003814697,img/planet10_left.png,10,Community 2,NA,TRUE,f,f,NA,NA,NA,4,6,"15,3,2,9,11,5,1,10,6,8,13,7,4,14,12"
15140,commdev-image-keyboard-response,459,1120592,learnblock2,597.9000015258789,img/planet7_left.png,7,Community 3,NA,TRUE,f,f,NA,NA,NA,4,6,"15,3,2,9,11,5,1,10,6,8,13,7,4,14,12"
15140,commdev-image-keyboard-response,460,1121844,learnblock2,616.1999988555908,img/planet10_left.png,10,Community 2,NA,TRUE,f,f,NA,NA,NA,4,6,"15,3,2,9,11,5,1,10,6,8,13,7,4,14,12"
15140,commdev-image-keyboard-response,461,1123095,learnblock2,784.8000011444092,img/planet8_left.png,8,Community 2,NA,TRUE,f,f,NA,NA,NA,4,6,"15,3,2,9,11,5,1,10,6,8,13,7,4,14,12"
15140,commdev-image-keyboard-response,462,1124347,learnblock2,663.3999996185303,img/planet1_right.png,1,Community 2,NA,TRUE,j,j,NA,NA,NA,4,6,"15,3,2,9,11,5,1,10,6,8,13,7,4,14,12"
15140,commdev-image-keyboard-response,463,1125599,learnblock2,721.8000011444092,img/planet6_right.png,6,Community 2,NA,TRUE,j,j,NA,NA,NA,4,6,"15,3,2,9,11,5,1,10,6,8,13,7,4,14,12"
15140,commdev-image-keyboard-response,464,1126851,learnblock2,700.2000007629395,img/planet5_right.png,5,Community 2,NA,TRUE,j,j,NA,NA,NA,4,6,"15,3,2,9,11,5,1,10,6,8,13,7,4,14,12"
15140,commdev-image-keyboard-response,465,1128103,learnblock2,598.2000007629395,img/planet9_right.png,9,Community 1,NA,TRUE,j,j,NA,NA,NA,4,6,"15,3,2,9,11,5,1,10,6,8,13,7,4,14,12"
15140,commdev-image-keyboard-response,466,1129355,learnblock2,746.5,img/planet15_right.png,15,Community 1,NA,TRUE,j,j,NA,NA,NA,4,6,"15,3,2,9,11,5,1,10,6,8,13,7,4,14,12"
15140,commdev-image-keyboard-response,467,1130607,learnblock2,534.1000003814697,img/planet2_right.png,2,Community 1,NA,TRUE,j,j,NA,NA,NA,4,6,"15,3,2,9,11,5,1,10,6,8,13,7,4,14,12"
15140,commdev-image-keyboard-response,468,1131858,learnblock2,701.6000003814697,img/planet11_right.png,11,Community 1,NA,TRUE,j,j,NA,NA,NA,4,6,"15,3,2,9,11,5,1,10,6,8,13,7,4,14,12"
15140,commdev-image-keyboard-response,469,1133110,learnblock2,870.7000007629395,img/planet13_left.png,13,Community 3,NA,TRUE,f,f,NA,NA,NA,4,6,"15,3,2,9,11,5,1,10,6,8,13,7,4,14,12"
15140,commdev-image-keyboard-response,470,1134363,learnblock2,837.9000015258789,img/planet14_right.png,14,Community 3,NA,TRUE,j,j,NA,NA,NA,4,6,"15,3,2,9,11,5,1,10,6,8,13,7,4,14,12"
15140,commdev-image-keyboard-response,471,1135615,learnblock2,685.5,img/planet7_left.png,7,Community 3,NA,TRUE,f,f,NA,NA,NA,4,6,"15,3,2,9,11,5,1,10,6,8,13,7,4,14,12"
15140,commdev-image-keyboard-response,472,1136868,learnblock2,913.7000007629395,img/planet4_right.png,4,Community 3,NA,TRUE,j,j,NA,NA,NA,4,6,"15,3,2,9,11,5,1,10,6,8,13,7,4,14,12"
15140,commdev-image-keyboard-response,473,1138120,learnblock2,821.2999992370605,img/planet7_left.png,7,Community 3,NA,TRUE,f,f,NA,NA,NA,4,6,"15,3,2,9,11,5,1,10,6,8,13,7,4,14,12"
15140,commdev-image-keyboard-response,474,1139372,learnblock2,879.2999992370605,img/planet12_right.png,12,Community 3,NA,TRUE,j,j,NA,NA,NA,4,6,"15,3,2,9,11,5,1,10,6,8,13,7,4,14,12"
15140,commdev-image-keyboard-response,475,1140623,learnblock2,847.2999992370605,img/planet13_left.png,13,Community 3,NA,TRUE,f,f,NA,NA,NA,4,6,"15,3,2,9,11,5,1,10,6,8,13,7,4,14,12"
15140,commdev-image-keyboard-response,476,1141875,learnblock2,null,img/planet4_right.png,4,Community 3,NA,FALSE,null,j,NA,NA,NA,4,6,"15,3,2,9,11,5,1,10,6,8,13,7,4,14,12"
15140,commdev-image-keyboard-response,477,1143126,learnblock2,34.30000114440918,img/planet13_left.png,13,Community 3,NA,FALSE,j,f,NA,NA,NA,4,6,"15,3,2,9,11,5,1,10,6,8,13,7,4,14,12"
15140,commdev-image-keyboard-response,478,1144378,learnblock2,723.0999984741211,img/planet14_right.png,14,Community 3,NA,TRUE,j,j,NA,NA,NA,4,6,"15,3,2,9,11,5,1,10,6,8,13,7,4,14,12"
15140,commdev-image-keyboard-response,479,1145630,learnblock2,740.9000015258789,img/planet12_left.png,12,Community 3,NA,TRUE,f,f,NA,NA,NA,4,6,"15,3,2,9,11,5,1,10,6,8,13,7,4,14,12"
15140,commdev-image-keyboard-response,480,1146881,learnblock2,709.3999996185303,img/planet4_left.png,4,Community 3,NA,TRUE,f,f,NA,NA,NA,4,6,"15,3,2,9,11,5,1,10,6,8,13,7,4,14,12"
15140,commdev-image-keyboard-response,481,1148133,learnblock2,887.6000003814697,img/planet13_right.png,13,Community 3,NA,TRUE,j,j,NA,NA,NA,4,6,"15,3,2,9,11,5,1,10,6,8,13,7,4,14,12"
15140,commdev-image-keyboard-response,482,1149384,learnblock2,907,img/planet12_right.png,12,Community 3,NA,TRUE,j,j,NA,NA,NA,4,6,"15,3,2,9,11,5,1,10,6,8,13,7,4,14,12"
15140,commdev-image-keyboard-response,483,1150637,learnblock2,674.8999996185303,img/planet13_left.png,13,Community 3,NA,TRUE,f,f,NA,NA,NA,4,6,"15,3,2,9,11,5,1,10,6,8,13,7,4,14,12"
15140,commdev-image-keyboard-response,484,1151889,learnblock2,701.7000007629395,img/planet4_left.png,4,Community 3,NA,TRUE,f,f,NA,NA,NA,4,6,"15,3,2,9,11,5,1,10,6,8,13,7,4,14,12"
15140,commdev-image-keyboard-response,485,1153141,learnblock2,870.2999992370605,img/planet14_right.png,14,Community 3,NA,TRUE,j,j,NA,NA,NA,4,6,"15,3,2,9,11,5,1,10,6,8,13,7,4,14,12"
15140,commdev-image-keyboard-response,486,1154392,learnblock2,798.4000015258789,img/planet13_right.png,13,Community 3,NA,TRUE,j,j,NA,NA,NA,4,6,"15,3,2,9,11,5,1,10,6,8,13,7,4,14,12"
15140,commdev-image-keyboard-response,487,1155644,learnblock2,697.2999992370605,img/planet11_left.png,11,Community 1,NA,TRUE,f,f,NA,NA,NA,4,6,"15,3,2,9,11,5,1,10,6,8,13,7,4,14,12"
15140,commdev-image-keyboard-response,488,1156896,learnblock2,855.3999996185303,img/planet13_right.png,13,Community 3,NA,TRUE,j,j,NA,NA,NA,4,6,"15,3,2,9,11,5,1,10,6,8,13,7,4,14,12"
15140,commdev-image-keyboard-response,489,1158148,learnblock2,823.3999996185303,img/planet11_right.png,11,Community 1,NA,TRUE,j,j,NA,NA,NA,4,6,"15,3,2,9,11,5,1,10,6,8,13,7,4,14,12"
15140,commdev-image-keyboard-response,490,1159400,learnblock2,651.2000007629395,img/planet13_left.png,13,Community 3,NA,TRUE,f,f,NA,NA,NA,4,6,"15,3,2,9,11,5,1,10,6,8,13,7,4,14,12"
15140,commdev-image-keyboard-response,491,1160652,learnblock2,739.3999996185303,img/planet4_right.png,4,Community 3,NA,TRUE,j,j,NA,NA,NA,4,6,"15,3,2,9,11,5,1,10,6,8,13,7,4,14,12"
15140,commdev-image-keyboard-response,492,1161904,learnblock2,657.3999996185303,img/planet7_left.png,7,Community 3,NA,TRUE,f,f,NA,NA,NA,4,6,"15,3,2,9,11,5,1,10,6,8,13,7,4,14,12"
15140,commdev-image-keyboard-response,493,1163156,learnblock2,815.8000011444092,img/planet10_right.png,10,Community 2,NA,TRUE,j,j,NA,NA,NA,4,6,"15,3,2,9,11,5,1,10,6,8,13,7,4,14,12"
15140,commdev-image-keyboard-response,494,1164407,learnblock2,873.8000011444092,img/planet6_right.png,6,Community 2,NA,TRUE,j,j,NA,NA,NA,4,6,"15,3,2,9,11,5,1,10,6,8,13,7,4,14,12"
15140,commdev-image-keyboard-response,495,1165659,learnblock2,1031.7999992370605,img/planet1_left.png,1,Community 2,NA,TRUE,f,f,NA,NA,NA,4,6,"15,3,2,9,11,5,1,10,6,8,13,7,4,14,12"
15140,commdev-image-keyboard-response,496,1166910,learnblock2,690.6999988555908,img/planet5_left.png,5,Community 2,NA,TRUE,f,f,NA,NA,NA,4,6,"15,3,2,9,11,5,1,10,6,8,13,7,4,14,12"
15140,commdev-image-keyboard-response,497,1168162,learnblock2,779.8000011444092,img/planet8_right.png,8,Community 2,NA,FALSE,f,j,NA,NA,NA,4,6,"15,3,2,9,11,5,1,10,6,8,13,7,4,14,12"
15140,commdev-image-keyboard-response,498,1169414,learnblock2,767.3999996185303,img/planet6_left.png,6,Community 2,NA,TRUE,f,f,NA,NA,NA,4,6,"15,3,2,9,11,5,1,10,6,8,13,7,4,14,12"
15140,commdev-image-keyboard-response,499,1170666,learnblock2,765.7000007629395,img/planet1_left.png,1,Community 2,NA,TRUE,f,f,NA,NA,NA,4,6,"15,3,2,9,11,5,1,10,6,8,13,7,4,14,12"
15140,commdev-image-keyboard-response,500,1171918,learnblock2,843.1000003814697,img/planet8_left.png,8,Community 2,NA,TRUE,f,f,NA,NA,NA,4,6,"15,3,2,9,11,5,1,10,6,8,13,7,4,14,12"
15140,commdev-image-keyboard-response,501,1173170,learnblock2,791,img/planet10_left.png,10,Community 2,NA,TRUE,f,f,NA,NA,NA,4,6,"15,3,2,9,11,5,1,10,6,8,13,7,4,14,12"
15140,commdev-image-keyboard-response,502,1174422,learnblock2,750.2000007629395,img/planet8_right.png,8,Community 2,NA,TRUE,j,j,NA,NA,NA,4,6,"15,3,2,9,11,5,1,10,6,8,13,7,4,14,12"
15140,commdev-image-keyboard-response,503,1175673,learnblock2,878.7000007629395,img/planet10_right.png,10,Community 2,NA,TRUE,j,j,NA,NA,NA,4,6,"15,3,2,9,11,5,1,10,6,8,13,7,4,14,12"
15140,commdev-image-keyboard-response,504,1176925,learnblock2,816.5999984741211,img/planet8_right.png,8,Community 2,NA,TRUE,j,j,NA,NA,NA,4,6,"15,3,2,9,11,5,1,10,6,8,13,7,4,14,12"
15140,commdev-image-keyboard-response,505,1178177,learnblock2,764.3999996185303,img/planet5_right.png,5,Community 2,NA,TRUE,j,j,NA,NA,NA,4,6,"15,3,2,9,11,5,1,10,6,8,13,7,4,14,12"
15140,commdev-image-keyboard-response,506,1179430,learnblock2,811.6999988555908,img/planet9_right.png,9,Community 1,NA,TRUE,j,j,NA,NA,NA,4,6,"15,3,2,9,11,5,1,10,6,8,13,7,4,14,12"
15140,commdev-image-keyboard-response,507,1180681,learnblock2,659.1000003814697,img/planet2_left.png,2,Community 1,NA,TRUE,f,f,NA,NA,NA,4,6,"15,3,2,9,11,5,1,10,6,8,13,7,4,14,12"
15140,commdev-image-keyboard-response,508,1181933,learnblock2,768.2000007629395,img/planet15_right.png,15,Community 1,NA,TRUE,j,j,NA,NA,NA,4,6,"15,3,2,9,11,5,1,10,6,8,13,7,4,14,12"
15140,commdev-image-keyboard-response,509,1183184,learnblock2,936.8999996185303,img/planet9_left.png,9,Community 1,NA,TRUE,f,f,NA,NA,NA,4,6,"15,3,2,9,11,5,1,10,6,8,13,7,4,14,12"
15140,commdev-image-keyboard-response,510,1184436,learnblock2,796.5999984741211,img/planet2_right.png,2,Community 1,NA,TRUE,j,j,NA,NA,NA,4,6,"15,3,2,9,11,5,1,10,6,8,13,7,4,14,12"
15140,commdev-image-keyboard-response,511,1185688,learnblock2,804.9000015258789,img/planet3_left.png,3,Community 1,NA,TRUE,f,f,NA,NA,NA,4,6,"15,3,2,9,11,5,1,10,6,8,13,7,4,14,12"
15140,commdev-image-keyboard-response,512,1186940,learnblock2,961.4000015258789,img/planet9_right.png,9,Community 1,NA,TRUE,j,j,NA,NA,NA,4,6,"15,3,2,9,11,5,1,10,6,8,13,7,4,14,12"
15140,commdev-image-keyboard-response,513,1188192,learnblock2,740.5,img/planet2_right.png,2,Community 1,NA,TRUE,j,j,NA,NA,NA,4,6,"15,3,2,9,11,5,1,10,6,8,13,7,4,14,12"
15140,commdev-image-keyboard-response,514,1189444,learnblock2,778.1000003814697,img/planet15_right.png,15,Community 1,NA,TRUE,j,j,NA,NA,NA,4,6,"15,3,2,9,11,5,1,10,6,8,13,7,4,14,12"
15140,commdev-image-keyboard-response,515,1190695,learnblock2,756.8999996185303,img/planet9_left.png,9,Community 1,NA,TRUE,f,f,NA,NA,NA,4,6,"15,3,2,9,11,5,1,10,6,8,13,7,4,14,12"
15140,commdev-image-keyboard-response,516,1191946,learnblock2,696,img/planet3_left.png,3,Community 1,NA,TRUE,f,f,NA,NA,NA,4,6,"15,3,2,9,11,5,1,10,6,8,13,7,4,14,12"
15140,commdev-image-keyboard-response,517,1193198,learnblock2,814.2999992370605,img/planet11_left.png,11,Community 1,NA,TRUE,f,f,NA,NA,NA,4,6,"15,3,2,9,11,5,1,10,6,8,13,7,4,14,12"
15140,commdev-image-keyboard-response,518,1194450,learnblock2,862.1000003814697,img/planet15_left.png,15,Community 1,NA,TRUE,f,f,NA,NA,NA,4,6,"15,3,2,9,11,5,1,10,6,8,13,7,4,14,12"
15140,commdev-image-keyboard-response,519,1195702,learnblock2,610.3999996185303,img/planet2_left.png,2,Community 1,NA,TRUE,f,f,NA,NA,NA,4,6,"15,3,2,9,11,5,1,10,6,8,13,7,4,14,12"
15140,commdev-image-keyboard-response,520,1196954,learnblock2,938.5,img/planet11_right.png,11,Community 1,NA,TRUE,j,j,NA,NA,NA,4,6,"15,3,2,9,11,5,1,10,6,8,13,7,4,14,12"
15140,commdev-image-keyboard-response,521,1198205,learnblock2,736.5,img/planet13_left.png,13,Community 3,NA,TRUE,f,f,NA,NA,NA,4,6,"15,3,2,9,11,5,1,10,6,8,13,7,4,14,12"
15140,commdev-image-keyboard-response,522,1199457,learnblock2,755,img/planet12_right.png,12,Community 3,NA,TRUE,j,j,NA,NA,NA,4,6,"15,3,2,9,11,5,1,10,6,8,13,7,4,14,12"
15140,commdev-image-keyboard-response,523,1200708,learnblock2,704,img/planet4_right.png,4,Community 3,NA,TRUE,j,j,NA,NA,NA,4,6,"15,3,2,9,11,5,1,10,6,8,13,7,4,14,12"
15140,commdev-image-keyboard-response,524,1201960,learnblock2,932.3999996185303,img/planet7_right.png,7,Community 3,NA,TRUE,j,j,NA,NA,NA,4,6,"15,3,2,9,11,5,1,10,6,8,13,7,4,14,12"
15140,commdev-image-keyboard-response,525,1203211,learnblock2,751,img/planet10_right.png,10,Community 2,NA,TRUE,j,j,NA,NA,NA,4,6,"15,3,2,9,11,5,1,10,6,8,13,7,4,14,12"
15140,commdev-image-keyboard-response,526,1204463,learnblock2,699.9000015258789,img/planet6_left.png,6,Community 2,NA,TRUE,f,f,NA,NA,NA,4,6,"15,3,2,9,11,5,1,10,6,8,13,7,4,14,12"
15140,commdev-image-keyboard-response,527,1205715,learnblock2,887.4000015258789,img/planet8_right.png,8,Community 2,NA,TRUE,j,j,NA,NA,NA,4,6,"15,3,2,9,11,5,1,10,6,8,13,7,4,14,12"
15140,commdev-image-keyboard-response,528,1206968,learnblock2,695.9000015258789,img/planet6_right.png,6,Community 2,NA,TRUE,j,j,NA,NA,NA,4,6,"15,3,2,9,11,5,1,10,6,8,13,7,4,14,12"
15140,commdev-image-keyboard-response,529,1208219,learnblock2,702.7000007629395,img/planet5_right.png,5,Community 2,NA,TRUE,j,j,NA,NA,NA,4,6,"15,3,2,9,11,5,1,10,6,8,13,7,4,14,12"
15140,commdev-image-keyboard-response,530,1209472,learnblock2,751.2000007629395,img/planet8_left.png,8,Community 2,NA,TRUE,f,f,NA,NA,NA,4,6,"15,3,2,9,11,5,1,10,6,8,13,7,4,14,12"
15140,commdev-image-keyboard-response,531,1210723,learnblock2,708.9000015258789,img/planet5_right.png,5,Community 2,NA,TRUE,j,j,NA,NA,NA,4,6,"15,3,2,9,11,5,1,10,6,8,13,7,4,14,12"
15140,commdev-image-keyboard-response,532,1211975,learnblock2,1087.2000007629395,img/planet1_right.png,1,Community 2,NA,TRUE,j,j,NA,NA,NA,4,6,"15,3,2,9,11,5,1,10,6,8,13,7,4,14,12"
15140,commdev-image-keyboard-response,533,1213226,learnblock2,1025,img/planet5_left.png,5,Community 2,NA,TRUE,f,f,NA,NA,NA,4,6,"15,3,2,9,11,5,1,10,6,8,13,7,4,14,12"
15140,commdev-image-keyboard-response,534,1214478,learnblock2,724.7000007629395,img/planet6_right.png,6,Community 2,NA,TRUE,j,j,NA,NA,NA,4,6,"15,3,2,9,11,5,1,10,6,8,13,7,4,14,12"
15140,commdev-image-keyboard-response,535,1215731,learnblock2,862.1000003814697,img/planet5_right.png,5,Community 2,NA,TRUE,j,j,NA,NA,NA,4,6,"15,3,2,9,11,5,1,10,6,8,13,7,4,14,12"
15140,commdev-image-keyboard-response,536,1216984,learnblock2,1078.6999988555908,img/planet8_right.png,8,Community 2,NA,TRUE,j,j,NA,NA,NA,4,6,"15,3,2,9,11,5,1,10,6,8,13,7,4,14,12"
15140,commdev-image-keyboard-response,537,1218236,learnblock2,867.1000003814697,img/planet10_right.png,10,Community 2,NA,TRUE,j,j,NA,NA,NA,4,6,"15,3,2,9,11,5,1,10,6,8,13,7,4,14,12"
15140,commdev-image-keyboard-response,538,1219488,learnblock2,714.7999992370605,img/planet7_left.png,7,Community 3,NA,TRUE,f,f,NA,NA,NA,4,6,"15,3,2,9,11,5,1,10,6,8,13,7,4,14,12"
15140,commdev-image-keyboard-response,539,1220740,learnblock2,692.8000011444092,img/planet12_left.png,12,Community 3,NA,TRUE,f,f,NA,NA,NA,4,6,"15,3,2,9,11,5,1,10,6,8,13,7,4,14,12"
15140,commdev-image-keyboard-response,540,1221991,learnblock2,881.1000003814697,img/planet14_left.png,14,Community 3,NA,TRUE,f,f,NA,NA,NA,4,6,"15,3,2,9,11,5,1,10,6,8,13,7,4,14,12"
15140,commdev-image-keyboard-response,541,1223243,learnblock2,808.9000015258789,img/planet13_left.png,13,Community 3,NA,TRUE,f,f,NA,NA,NA,4,6,"15,3,2,9,11,5,1,10,6,8,13,7,4,14,12"
15140,commdev-image-keyboard-response,542,1224495,learnblock2,767.8000011444092,img/planet4_right.png,4,Community 3,NA,TRUE,j,j,NA,NA,NA,4,6,"15,3,2,9,11,5,1,10,6,8,13,7,4,14,12"
15140,commdev-image-keyboard-response,543,1225747,learnblock2,726,img/planet7_left.png,7,Community 3,NA,TRUE,f,f,NA,NA,NA,4,6,"15,3,2,9,11,5,1,10,6,8,13,7,4,14,12"
15140,commdev-image-keyboard-response,544,1226999,learnblock2,1113.6000003814697,img/planet14_left.png,14,Community 3,NA,TRUE,f,f,NA,NA,NA,4,6,"15,3,2,9,11,5,1,10,6,8,13,7,4,14,12"
15140,commdev-image-keyboard-response,545,1228250,learnblock2,741.5,img/planet4_right.png,4,Community 3,NA,TRUE,j,j,NA,NA,NA,4,6,"15,3,2,9,11,5,1,10,6,8,13,7,4,14,12"
15140,commdev-image-keyboard-response,546,1229501,learnblock2,950.5,img/planet14_right.png,14,Community 3,NA,TRUE,j,j,NA,NA,NA,4,6,"15,3,2,9,11,5,1,10,6,8,13,7,4,14,12"
15140,commdev-image-keyboard-response,547,1230754,learnblock2,699,img/planet13_left.png,13,Community 3,NA,FALSE,j,f,NA,NA,NA,4,6,"15,3,2,9,11,5,1,10,6,8,13,7,4,14,12"
15140,commdev-image-keyboard-response,548,1232006,learnblock2,577.5,img/planet4_left.png,4,Community 3,NA,FALSE,j,f,NA,NA,NA,4,6,"15,3,2,9,11,5,1,10,6,8,13,7,4,14,12"
15140,commdev-image-keyboard-response,549,1233257,learnblock2,654.6999988555908,img/planet13_right.png,13,Community 3,NA,TRUE,j,j,NA,NA,NA,4,6,"15,3,2,9,11,5,1,10,6,8,13,7,4,14,12"
15140,commdev-image-keyboard-response,550,1234509,learnblock2,883.7999992370605,img/planet14_right.png,14,Community 3,NA,TRUE,j,j,NA,NA,NA,4,6,"15,3,2,9,11,5,1,10,6,8,13,7,4,14,12"
15140,commdev-image-keyboard-response,551,1235761,learnblock2,1021.3000011444092,img/planet7_right.png,7,Community 3,NA,TRUE,j,j,NA,NA,NA,4,6,"15,3,2,9,11,5,1,10,6,8,13,7,4,14,12"
15140,commdev-image-keyboard-response,552,1237013,learnblock2,689.5999984741211,img/planet4_left.png,4,Community 3,NA,TRUE,f,f,NA,NA,NA,4,6,"15,3,2,9,11,5,1,10,6,8,13,7,4,14,12"
15140,commdev-image-keyboard-response,553,1238264,learnblock2,657.7000007629395,img/planet13_left.png,13,Community 3,NA,TRUE,f,f,NA,NA,NA,4,6,"15,3,2,9,11,5,1,10,6,8,13,7,4,14,12"
15140,commdev-image-keyboard-response,554,1239516,learnblock2,1146.2999992370605,img/planet14_left.png,14,Community 3,NA,TRUE,f,f,NA,NA,NA,4,6,"15,3,2,9,11,5,1,10,6,8,13,7,4,14,12"
15140,commdev-image-keyboard-response,555,1240767,learnblock2,984.7999992370605,img/planet7_right.png,7,Community 3,NA,TRUE,j,j,NA,NA,NA,4,6,"15,3,2,9,11,5,1,10,6,8,13,7,4,14,12"
15140,commdev-image-keyboard-response,556,1242019,learnblock2,953.1999988555908,img/planet12_right.png,12,Community 3,NA,TRUE,j,j,NA,NA,NA,4,6,"15,3,2,9,11,5,1,10,6,8,13,7,4,14,12"
15140,commdev-image-keyboard-response,557,1243270,learnblock2,791.6999988555908,img/planet4_right.png,4,Community 3,NA,TRUE,j,j,NA,NA,NA,4,6,"15,3,2,9,11,5,1,10,6,8,13,7,4,14,12"
15140,commdev-image-keyboard-response,558,1244522,learnblock2,960.8999996185303,img/planet14_right.png,14,Community 3,NA,TRUE,j,j,NA,NA,NA,4,6,"15,3,2,9,11,5,1,10,6,8,13,7,4,14,12"
15140,commdev-image-keyboard-response,559,1245773,learnblock2,779.2000007629395,img/planet13_right.png,13,Community 3,NA,TRUE,j,j,NA,NA,NA,4,6,"15,3,2,9,11,5,1,10,6,8,13,7,4,14,12"
15140,commdev-image-keyboard-response,560,1247025,learnblock2,717.2999992370605,img/planet4_right.png,4,Community 3,NA,TRUE,j,j,NA,NA,NA,4,6,"15,3,2,9,11,5,1,10,6,8,13,7,4,14,12"
15140,commdev-image-keyboard-response,561,1248278,learnblock2,656.1000003814697,img/planet13_right.png,13,Community 3,NA,TRUE,j,j,NA,NA,NA,4,6,"15,3,2,9,11,5,1,10,6,8,13,7,4,14,12"
15140,commdev-image-keyboard-response,562,1249530,learnblock2,732.3000011444092,img/planet4_left.png,4,Community 3,NA,TRUE,f,f,NA,NA,NA,4,6,"15,3,2,9,11,5,1,10,6,8,13,7,4,14,12"
15140,commdev-image-keyboard-response,563,1250782,learnblock2,810.7999992370605,img/planet7_right.png,7,Community 3,NA,TRUE,j,j,NA,NA,NA,4,6,"15,3,2,9,11,5,1,10,6,8,13,7,4,14,12"
15140,commdev-image-keyboard-response,564,1252033,learnblock2,709.2000007629395,img/planet14_right.png,14,Community 3,NA,TRUE,j,j,NA,NA,NA,4,6,"15,3,2,9,11,5,1,10,6,8,13,7,4,14,12"
15140,commdev-image-keyboard-response,565,1253285,learnblock2,667.1999988555908,img/planet13_left.png,13,Community 3,NA,TRUE,f,f,NA,NA,NA,4,6,"15,3,2,9,11,5,1,10,6,8,13,7,4,14,12"
15140,commdev-image-keyboard-response,566,1254538,learnblock2,746.8999996185303,img/planet12_left.png,12,Community 3,NA,TRUE,f,f,NA,NA,NA,4,6,"15,3,2,9,11,5,1,10,6,8,13,7,4,14,12"
15140,commdev-image-keyboard-response,567,1255789,learnblock2,823,img/planet4_right.png,4,Community 3,NA,TRUE,j,j,NA,NA,NA,4,6,"15,3,2,9,11,5,1,10,6,8,13,7,4,14,12"
15140,commdev-image-keyboard-response,568,1257041,learnblock2,null,img/planet14_right.png,14,Community 3,NA,FALSE,null,j,NA,NA,NA,4,6,"15,3,2,9,11,5,1,10,6,8,13,7,4,14,12"
15140,commdev-image-keyboard-response,569,1258292,learnblock2,690.5,img/planet12_right.png,12,Community 3,NA,TRUE,j,j,NA,NA,NA,4,6,"15,3,2,9,11,5,1,10,6,8,13,7,4,14,12"
15140,commdev-image-keyboard-response,570,1259544,learnblock2,848.7999992370605,img/planet7_right.png,7,Community 3,NA,TRUE,j,j,NA,NA,NA,4,6,"15,3,2,9,11,5,1,10,6,8,13,7,4,14,12"
15140,commdev-image-keyboard-response,571,1260795,learnblock2,756.8999996185303,img/planet14_right.png,14,Community 3,NA,TRUE,j,j,NA,NA,NA,4,6,"15,3,2,9,11,5,1,10,6,8,13,7,4,14,12"
15140,commdev-image-keyboard-response,572,1262047,learnblock2,845.8000011444092,img/planet13_left.png,13,Community 3,NA,FALSE,j,f,NA,NA,NA,4,6,"15,3,2,9,11,5,1,10,6,8,13,7,4,14,12"
15140,commdev-image-keyboard-response,573,1263299,learnblock2,693.5,img/planet11_left.png,11,Community 1,NA,TRUE,f,f,NA,NA,NA,4,6,"15,3,2,9,11,5,1,10,6,8,13,7,4,14,12"
15140,commdev-image-keyboard-response,574,1264550,learnblock2,571.7999992370605,img/planet2_left.png,2,Community 1,NA,TRUE,f,f,NA,NA,NA,4,6,"15,3,2,9,11,5,1,10,6,8,13,7,4,14,12"
15140,commdev-image-keyboard-response,575,1265802,learnblock2,860.6000003814697,img/planet3_left.png,3,Community 1,NA,TRUE,f,f,NA,NA,NA,4,6,"15,3,2,9,11,5,1,10,6,8,13,7,4,14,12"
15140,commdev-image-keyboard-response,576,1267053,learnblock2,719.3000011444092,img/planet2_left.png,2,Community 1,NA,TRUE,f,f,NA,NA,NA,4,6,"15,3,2,9,11,5,1,10,6,8,13,7,4,14,12"
15140,commdev-image-keyboard-response,577,1268305,learnblock2,937.7999992370605,img/planet3_right.png,3,Community 1,NA,TRUE,j,j,NA,NA,NA,4,6,"15,3,2,9,11,5,1,10,6,8,13,7,4,14,12"
15140,commdev-image-keyboard-response,578,1269558,learnblock2,906,img/planet9_left.png,9,Community 1,NA,TRUE,f,f,NA,NA,NA,4,6,"15,3,2,9,11,5,1,10,6,8,13,7,4,14,12"
15140,commdev-image-keyboard-response,579,1270809,learnblock2,793.5999984741211,img/planet2_left.png,2,Community 1,NA,TRUE,f,f,NA,NA,NA,4,6,"15,3,2,9,11,5,1,10,6,8,13,7,4,14,12"
15140,commdev-image-keyboard-response,580,1272061,learnblock2,812.1000003814697,img/planet15_right.png,15,Community 1,NA,TRUE,j,j,NA,NA,NA,4,6,"15,3,2,9,11,5,1,10,6,8,13,7,4,14,12"
15140,commdev-image-keyboard-response,581,1273314,learnblock2,849.1999988555908,img/planet11_left.png,11,Community 1,NA,TRUE,f,f,NA,NA,NA,4,6,"15,3,2,9,11,5,1,10,6,8,13,7,4,14,12"
15140,commdev-image-keyboard-response,582,1274566,learnblock2,816.8999996185303,img/planet15_left.png,15,Community 1,NA,TRUE,f,f,NA,NA,NA,4,6,"15,3,2,9,11,5,1,10,6,8,13,7,4,14,12"
15140,commdev-image-keyboard-response,583,1275818,learnblock2,1106.7000007629395,img/planet9_left.png,9,Community 1,NA,TRUE,f,f,NA,NA,NA,4,6,"15,3,2,9,11,5,1,10,6,8,13,7,4,14,12"
15140,commdev-image-keyboard-response,584,1277070,learnblock2,1193.1000003814697,img/planet15_right.png,15,Community 1,NA,TRUE,j,j,NA,NA,NA,4,6,"15,3,2,9,11,5,1,10,6,8,13,7,4,14,12"
15140,commdev-image-keyboard-response,585,1278322,learnblock2,1011,img/planet11_right.png,11,Community 1,NA,TRUE,j,j,NA,NA,NA,4,6,"15,3,2,9,11,5,1,10,6,8,13,7,4,14,12"
