subject_id,trial_type,trial_index,time_elapsed,block,rt,stimulus,planet,community,response,correct,key_press,learning_correct_response,parse,init_locations,final_locations,browser_interactions,num_comp,planet_map
14701,commdev-instructions,7,57399,NA,5543.5,"<p>In this game, you are a scientist on board a space shuttle. </p><p> On each mission, you will visit planets all across the universe.</p><img src=""img/controlroom.jpg"" width=300vw>",NA,NA,NA,NA,NA,NA,NA,NA,NA,1,6,"12,13,6,2,4,15,10,5,9,3,11,1,14,8,7"
14701,commdev-instructions,8,61309,NA,1832.3999999761581,"<p>Here are a few planets you might see:</p><img src=""img/practice1.png"" width=200vw><img src=""img/practice2.png"" width=200vw><img src=""img/practice3.png"" width=200vw>",NA,NA,NA,NA,NA,NA,NA,NA,NA,1,6,"12,13,6,2,4,15,10,5,9,3,11,1,14,8,7"
14701,commdev-instructions,9,71459,NA,2743.399999976158,"<p>Your job as a scientist is to record which direction the winds are moving on each planet.</p><p>There are two types of wind directions:</p><img src=""img/practice1_left.png"" width=200vw><img src=""img/practice1_right.png"" width=200vw>",NA,NA,NA,NA,NA,NA,NA,NA,NA,1,6,"12,13,6,2,4,15,10,5,9,3,11,1,14,8,7"
14701,commdev-instructions,10,79060,NA,2704.2000000476837,"<p>If the winds are moving this way, press the letter <strong>F</strong> on the keyboard as fast as you can.</p><img src=""img/leftwind.png"" width=250vw>",NA,NA,NA,NA,NA,NA,NA,NA,NA,1,6,"12,13,6,2,4,15,10,5,9,3,11,1,14,8,7"
14701,commdev-instructions,11,84423,NA,856.6999999284744,"<p>If the winds are moving this way, press the letter <strong>J</strong> on the keyboard as fast as you can.</p><img src=""img/rightwind.png"" width=350vw>",NA,NA,NA,NA,NA,NA,NA,NA,NA,1,6,"12,13,6,2,4,15,10,5,9,3,11,1,14,8,7"
14701,commdev-instructions,12,90179,NA,1325.4000000953674,<p>You will have 1 second to respond. Try to respond before the time runs out!,NA,NA,NA,NA,NA,NA,NA,NA,NA,1,6,"12,13,6,2,4,15,10,5,9,3,11,1,14,8,7"
14701,commdev-instructions,13,96353,NA,748.2000000476837,<p>The planets you will visit will look different from each other.</p><p>You should respond <strong>only</strong> based on wind direction.,NA,NA,NA,NA,NA,NA,NA,NA,NA,1,6,"12,13,6,2,4,15,10,5,9,3,11,1,14,8,7"
14701,commdev-instructions,14,102497,NA,971,"<p> Ready to start the practice round? </p><p> Remember, press <strong>F</strong> or <strong>J</strong> depending on the wind direction.<br><img src=""img/categorize_planet_example.png""",NA,NA,NA,NA,NA,NA,NA,NA,NA,1,6,"12,13,6,2,4,15,10,5,9,3,11,1,14,8,7"
14701,commdev-instructions,26,163612,NA,1864.3999999761581,"<p>Great, now try a short practice mission. </p><p> This time, you will have 1 second to respond and you won't know whether you pressed the right or wrong key for each planet.</p>",NA,NA,NA,NA,NA,NA,NA,NA,NA,1,6,"12,13,6,2,4,15,10,5,9,3,11,1,14,8,7"
14701,commdev-image-keyboard-response,27,164987,practice,null,img/practice3_right.png,NA,Number not found in mappings,NA,FALSE,null,j,NA,NA,NA,1,6,"12,13,6,2,4,15,10,5,9,3,11,1,14,8,7"
14701,commdev-image-keyboard-response,28,166257,practice,21.399999976158142,img/practice2_right.png,NA,Number not found in mappings,NA,TRUE,j,j,NA,NA,NA,1,6,"12,13,6,2,4,15,10,5,9,3,11,1,14,8,7"
14701,commdev-image-keyboard-response,29,167516,practice,224.5,img/practice3_left.png,NA,Number not found in mappings,NA,FALSE,j,f,NA,NA,NA,1,6,"12,13,6,2,4,15,10,5,9,3,11,1,14,8,7"
14701,commdev-image-keyboard-response,30,168776,practice,760.5,img/practice1_left.png,NA,Number not found in mappings,NA,TRUE,f,f,NA,NA,NA,1,6,"12,13,6,2,4,15,10,5,9,3,11,1,14,8,7"
14701,commdev-image-keyboard-response,31,170047,practice,1024.1000000238419,img/practice2_left.png,NA,Number not found in mappings,NA,FALSE,j,f,NA,NA,NA,1,6,"12,13,6,2,4,15,10,5,9,3,11,1,14,8,7"
14701,commdev-image-keyboard-response,32,171317,practice,651.8999999761581,img/practice1_left.png,NA,Number not found in mappings,NA,TRUE,f,f,NA,NA,NA,1,6,"12,13,6,2,4,15,10,5,9,3,11,1,14,8,7"
14701,commdev-image-keyboard-response,33,172576,practice,960.5,img/practice2_right.png,NA,Number not found in mappings,NA,FALSE,f,j,NA,NA,NA,1,6,"12,13,6,2,4,15,10,5,9,3,11,1,14,8,7"
14701,commdev-image-keyboard-response,34,173837,practice,1094.3999999761581,img/practice3_left.png,NA,Number not found in mappings,NA,TRUE,f,f,NA,NA,NA,1,6,"12,13,6,2,4,15,10,5,9,3,11,1,14,8,7"
14701,commdev-instructions,35,183928,NA,541.1000000238419,"<p>Great job with the practice round.</p><p>During real missions, you won't know whether you pressed the right or wrong key for each planet.</p><p>But between missions, we will tell you how you did overall.</p>",NA,NA,NA,NA,NA,NA,NA,NA,NA,1,6,"12,13,6,2,4,15,10,5,9,3,11,1,14,8,7"
14701,commdev-instructions,36,192686,NA,498.2999999523163,<p>Try your best! You will be paid a bonus based on how many correct responses you make!</p><p>Responses that are too slow will not count toward your bonus.</p>,NA,NA,NA,NA,NA,NA,NA,NA,NA,1,6,"12,13,6,2,4,15,10,5,9,3,11,1,14,8,7"
14701,commdev-instructions,37,199539,NA,651.2000000476837,"<p>You are almost ready to start the real game.</p><p> First, we are going to ask you some questions about how the game works.</p>",NA,NA,NA,NA,NA,NA,NA,NA,NA,1,6,"12,13,6,2,4,15,10,5,9,3,11,1,14,8,7"
14701,commdev-instructions,46,274459,NA,1070.6000000238419,"<p> Nice work! It is now time to start the real game.<p></p>You will go on two missions to record wind directions of different planets.<p></p>Each one will take about 5 minutes. You will get to take a break between missions.<p><p> Remember, press <strong>F</strong> or <strong>J</strong> depending on the wind direction. Good luck!<br><img src=""img/categorize_planet_example.png""",NA,NA,NA,NA,NA,NA,NA,NA,NA,1,6,"12,13,6,2,4,15,10,5,9,3,11,1,14,8,7"
14701,commdev-image-keyboard-response,48,279385,learnblock1,990.5,img/planet15_left.png,15,Community 2,NA,TRUE,f,f,NA,NA,NA,1,6,"12,13,6,2,4,15,10,5,9,3,11,1,14,8,7"
14701,commdev-image-keyboard-response,49,280646,learnblock1,1120.5,img/planet2_left.png,2,Community 1,NA,TRUE,f,f,NA,NA,NA,1,6,"12,13,6,2,4,15,10,5,9,3,11,1,14,8,7"
14701,commdev-image-keyboard-response,50,281915,learnblock1,889.2999999523163,img/planet15_right.png,15,Community 2,NA,TRUE,j,j,NA,NA,NA,1,6,"12,13,6,2,4,15,10,5,9,3,11,1,14,8,7"
14701,commdev-image-keyboard-response,51,283176,learnblock1,1036.5,img/planet9_right.png,9,Community 2,NA,TRUE,j,j,NA,NA,NA,1,6,"12,13,6,2,4,15,10,5,9,3,11,1,14,8,7"
14701,commdev-image-keyboard-response,52,284445,learnblock1,1064.1000000238419,img/planet15_right.png,15,Community 2,NA,TRUE,j,j,NA,NA,NA,1,6,"12,13,6,2,4,15,10,5,9,3,11,1,14,8,7"
14701,commdev-image-keyboard-response,53,285705,learnblock1,1010.5,img/planet2_left.png,2,Community 1,NA,TRUE,f,f,NA,NA,NA,1,6,"12,13,6,2,4,15,10,5,9,3,11,1,14,8,7"
14701,commdev-image-keyboard-response,54,286966,learnblock1,977.8999999761581,img/planet15_right.png,15,Community 2,NA,TRUE,j,j,NA,NA,NA,1,6,"12,13,6,2,4,15,10,5,9,3,11,1,14,8,7"
14701,commdev-image-keyboard-response,55,288227,learnblock1,null,img/planet2_right.png,2,Community 1,NA,FALSE,null,j,NA,NA,NA,1,6,"12,13,6,2,4,15,10,5,9,3,11,1,14,8,7"
14701,commdev-image-keyboard-response,56,289495,learnblock1,66.19999992847443,img/planet12_right.png,12,Community 1,NA,TRUE,j,j,NA,NA,NA,1,6,"12,13,6,2,4,15,10,5,9,3,11,1,14,8,7"
14701,commdev-image-keyboard-response,57,290765,learnblock1,731.6000000238419,img/planet2_right.png,2,Community 1,NA,TRUE,j,j,NA,NA,NA,1,6,"12,13,6,2,4,15,10,5,9,3,11,1,14,8,7"
14701,commdev-image-keyboard-response,58,292036,learnblock1,729.6999999284744,img/planet12_left.png,12,Community 1,NA,TRUE,f,f,NA,NA,NA,1,6,"12,13,6,2,4,15,10,5,9,3,11,1,14,8,7"
14701,commdev-image-keyboard-response,59,293295,learnblock1,706.6999999284744,img/planet2_right.png,2,Community 1,NA,TRUE,j,j,NA,NA,NA,1,6,"12,13,6,2,4,15,10,5,9,3,11,1,14,8,7"
14701,commdev-image-keyboard-response,60,294565,learnblock1,658,img/planet15_left.png,15,Community 2,NA,TRUE,f,f,NA,NA,NA,1,6,"12,13,6,2,4,15,10,5,9,3,11,1,14,8,7"
14701,commdev-image-keyboard-response,61,295825,learnblock1,912.6999999284744,img/planet3_right.png,3,Community 2,NA,TRUE,j,j,NA,NA,NA,1,6,"12,13,6,2,4,15,10,5,9,3,11,1,14,8,7"
14701,commdev-image-keyboard-response,62,297085,learnblock1,913.8000000715256,img/planet5_right.png,5,Community 2,NA,TRUE,j,j,NA,NA,NA,1,6,"12,13,6,2,4,15,10,5,9,3,11,1,14,8,7"
14701,commdev-image-keyboard-response,63,298356,learnblock1,880.9000000953674,img/planet1_right.png,1,Community 3,NA,TRUE,j,j,NA,NA,NA,1,6,"12,13,6,2,4,15,10,5,9,3,11,1,14,8,7"
14701,commdev-image-keyboard-response,64,299611,learnblock1,840.1999999284744,img/planet5_right.png,5,Community 2,NA,TRUE,j,j,NA,NA,NA,1,6,"12,13,6,2,4,15,10,5,9,3,11,1,14,8,7"
14701,commdev-image-keyboard-response,65,300870,learnblock1,552.2999999523163,img/planet9_left.png,9,Community 2,NA,TRUE,f,f,NA,NA,NA,1,6,"12,13,6,2,4,15,10,5,9,3,11,1,14,8,7"
14701,commdev-image-keyboard-response,66,302125,learnblock1,696.2000000476837,img/planet10_left.png,10,Community 2,NA,TRUE,f,f,NA,NA,NA,1,6,"12,13,6,2,4,15,10,5,9,3,11,1,14,8,7"
14701,commdev-image-keyboard-response,67,303386,learnblock1,690.1000000238419,img/planet5_right.png,5,Community 2,NA,TRUE,j,j,NA,NA,NA,1,6,"12,13,6,2,4,15,10,5,9,3,11,1,14,8,7"
14701,commdev-image-keyboard-response,68,304638,learnblock1,886,img/planet9_right.png,9,Community 2,NA,TRUE,j,j,NA,NA,NA,1,6,"12,13,6,2,4,15,10,5,9,3,11,1,14,8,7"
14701,commdev-image-keyboard-response,69,305889,learnblock1,1154.1999999284744,img/planet3_right.png,3,Community 2,NA,TRUE,j,j,NA,NA,NA,1,6,"12,13,6,2,4,15,10,5,9,3,11,1,14,8,7"
14701,commdev-image-keyboard-response,70,307141,learnblock1,763.2999999523163,img/planet10_left.png,10,Community 2,NA,TRUE,f,f,NA,NA,NA,1,6,"12,13,6,2,4,15,10,5,9,3,11,1,14,8,7"
14701,commdev-image-keyboard-response,71,308393,learnblock1,859.8999999761581,img/planet5_left.png,5,Community 2,NA,FALSE,j,f,NA,NA,NA,1,6,"12,13,6,2,4,15,10,5,9,3,11,1,14,8,7"
14701,commdev-image-keyboard-response,72,309651,learnblock1,977.2000000476837,img/planet9_right.png,9,Community 2,NA,TRUE,j,j,NA,NA,NA,1,6,"12,13,6,2,4,15,10,5,9,3,11,1,14,8,7"
14701,commdev-image-keyboard-response,73,310903,learnblock1,1131,img/planet10_right.png,10,Community 2,NA,TRUE,j,j,NA,NA,NA,1,6,"12,13,6,2,4,15,10,5,9,3,11,1,14,8,7"
14701,commdev-image-keyboard-response,74,312154,learnblock1,856.6000000238419,img/planet9_left.png,9,Community 2,NA,TRUE,f,f,NA,NA,NA,1,6,"12,13,6,2,4,15,10,5,9,3,11,1,14,8,7"
14701,commdev-image-keyboard-response,75,313405,learnblock1,789.8999999761581,img/planet5_left.png,5,Community 2,NA,TRUE,f,f,NA,NA,NA,1,6,"12,13,6,2,4,15,10,5,9,3,11,1,14,8,7"
14701,commdev-image-keyboard-response,76,314657,learnblock1,677.1999999284744,img/planet10_left.png,10,Community 2,NA,TRUE,f,f,NA,NA,NA,1,6,"12,13,6,2,4,15,10,5,9,3,11,1,14,8,7"
14701,commdev-image-keyboard-response,77,315908,learnblock1,595,img/planet9_left.png,9,Community 2,NA,TRUE,f,f,NA,NA,NA,1,6,"12,13,6,2,4,15,10,5,9,3,11,1,14,8,7"
14701,commdev-image-keyboard-response,78,317160,learnblock1,508.5,img/planet5_right.png,5,Community 2,NA,TRUE,j,j,NA,NA,NA,1,6,"12,13,6,2,4,15,10,5,9,3,11,1,14,8,7"
14701,commdev-image-keyboard-response,79,318413,learnblock1,825.1000000238419,img/planet3_right.png,3,Community 2,NA,FALSE,f,j,NA,NA,NA,1,6,"12,13,6,2,4,15,10,5,9,3,11,1,14,8,7"
14701,commdev-image-keyboard-response,80,319667,learnblock1,591,img/planet10_left.png,10,Community 2,NA,TRUE,f,f,NA,NA,NA,1,6,"12,13,6,2,4,15,10,5,9,3,11,1,14,8,7"
14701,commdev-image-keyboard-response,81,320919,learnblock1,573.3999999761581,img/planet15_left.png,15,Community 2,NA,TRUE,f,f,NA,NA,NA,1,6,"12,13,6,2,4,15,10,5,9,3,11,1,14,8,7"
14701,commdev-image-keyboard-response,82,322177,learnblock1,676.1000000238419,img/planet2_left.png,2,Community 1,NA,TRUE,f,f,NA,NA,NA,1,6,"12,13,6,2,4,15,10,5,9,3,11,1,14,8,7"
14701,commdev-image-keyboard-response,83,323429,learnblock1,813.8999999761581,img/planet6_left.png,6,Community 1,NA,TRUE,f,f,NA,NA,NA,1,6,"12,13,6,2,4,15,10,5,9,3,11,1,14,8,7"
14701,commdev-image-keyboard-response,84,324681,learnblock1,834,img/planet13_right.png,13,Community 1,NA,FALSE,f,j,NA,NA,NA,1,6,"12,13,6,2,4,15,10,5,9,3,11,1,14,8,7"
14701,commdev-image-keyboard-response,85,325933,learnblock1,645.8000000715256,img/planet6_right.png,6,Community 1,NA,TRUE,j,j,NA,NA,NA,1,6,"12,13,6,2,4,15,10,5,9,3,11,1,14,8,7"
14701,commdev-image-keyboard-response,86,327184,learnblock1,681.2000000476837,img/planet4_right.png,4,Community 1,NA,TRUE,j,j,NA,NA,NA,1,6,"12,13,6,2,4,15,10,5,9,3,11,1,14,8,7"
14701,commdev-image-keyboard-response,87,328437,learnblock1,790.6000000238419,img/planet6_right.png,6,Community 1,NA,FALSE,f,j,NA,NA,NA,1,6,"12,13,6,2,4,15,10,5,9,3,11,1,14,8,7"
14701,commdev-image-keyboard-response,88,329689,learnblock1,1024.7999999523163,img/planet12_right.png,12,Community 1,NA,TRUE,j,j,NA,NA,NA,1,6,"12,13,6,2,4,15,10,5,9,3,11,1,14,8,7"
14701,commdev-image-keyboard-response,89,330941,learnblock1,843,img/planet2_right.png,2,Community 1,NA,TRUE,j,j,NA,NA,NA,1,6,"12,13,6,2,4,15,10,5,9,3,11,1,14,8,7"
14701,commdev-image-keyboard-response,90,332193,learnblock1,911.5,img/planet6_right.png,6,Community 1,NA,FALSE,f,j,NA,NA,NA,1,6,"12,13,6,2,4,15,10,5,9,3,11,1,14,8,7"
14701,commdev-image-keyboard-response,91,333445,learnblock1,836.4000000953674,img/planet4_right.png,4,Community 1,NA,TRUE,j,j,NA,NA,NA,1,6,"12,13,6,2,4,15,10,5,9,3,11,1,14,8,7"
14701,commdev-image-keyboard-response,92,334697,learnblock1,789.8999999761581,img/planet12_left.png,12,Community 1,NA,TRUE,f,f,NA,NA,NA,1,6,"12,13,6,2,4,15,10,5,9,3,11,1,14,8,7"
14701,commdev-image-keyboard-response,93,335949,learnblock1,802.0999999046326,img/planet2_left.png,2,Community 1,NA,TRUE,f,f,NA,NA,NA,1,6,"12,13,6,2,4,15,10,5,9,3,11,1,14,8,7"
14701,commdev-image-keyboard-response,94,337214,learnblock1,706.5,img/planet6_left.png,6,Community 1,NA,TRUE,f,f,NA,NA,NA,1,6,"12,13,6,2,4,15,10,5,9,3,11,1,14,8,7"
14701,commdev-image-keyboard-response,95,338467,learnblock1,739.2000000476837,img/planet13_right.png,13,Community 1,NA,TRUE,j,j,NA,NA,NA,1,6,"12,13,6,2,4,15,10,5,9,3,11,1,14,8,7"
14701,commdev-image-keyboard-response,96,339719,learnblock1,669.1999999284744,img/planet12_left.png,12,Community 1,NA,TRUE,f,f,NA,NA,NA,1,6,"12,13,6,2,4,15,10,5,9,3,11,1,14,8,7"
14701,commdev-image-keyboard-response,97,340971,learnblock1,830.8999999761581,img/planet4_left.png,4,Community 1,NA,FALSE,j,f,NA,NA,NA,1,6,"12,13,6,2,4,15,10,5,9,3,11,1,14,8,7"
14701,commdev-image-keyboard-response,98,342224,learnblock1,792.1999999284744,img/planet6_right.png,6,Community 1,NA,TRUE,j,j,NA,NA,NA,1,6,"12,13,6,2,4,15,10,5,9,3,11,1,14,8,7"
14701,commdev-image-keyboard-response,99,343475,learnblock1,602.1000000238419,img/planet2_left.png,2,Community 1,NA,TRUE,f,f,NA,NA,NA,1,6,"12,13,6,2,4,15,10,5,9,3,11,1,14,8,7"
14701,commdev-image-keyboard-response,100,344727,learnblock1,644.5,img/planet15_left.png,15,Community 2,NA,TRUE,f,f,NA,NA,NA,1,6,"12,13,6,2,4,15,10,5,9,3,11,1,14,8,7"
14701,commdev-image-keyboard-response,101,345979,learnblock1,556.3000000715256,img/planet10_right.png,10,Community 2,NA,TRUE,j,j,NA,NA,NA,1,6,"12,13,6,2,4,15,10,5,9,3,11,1,14,8,7"
14701,commdev-image-keyboard-response,102,347231,learnblock1,606.8000000715256,img/planet5_left.png,5,Community 2,NA,TRUE,f,f,NA,NA,NA,1,6,"12,13,6,2,4,15,10,5,9,3,11,1,14,8,7"
14701,commdev-image-keyboard-response,103,348483,learnblock1,535.2999999523163,img/planet10_right.png,10,Community 2,NA,TRUE,j,j,NA,NA,NA,1,6,"12,13,6,2,4,15,10,5,9,3,11,1,14,8,7"
14701,commdev-image-keyboard-response,104,349735,learnblock1,648.5,img/planet15_right.png,15,Community 2,NA,FALSE,f,j,NA,NA,NA,1,6,"12,13,6,2,4,15,10,5,9,3,11,1,14,8,7"
14701,commdev-image-keyboard-response,105,350999,learnblock1,701.0999999046326,img/planet9_right.png,9,Community 2,NA,FALSE,f,j,NA,NA,NA,1,6,"12,13,6,2,4,15,10,5,9,3,11,1,14,8,7"
14701,commdev-image-keyboard-response,106,352250,learnblock1,722.3999999761581,img/planet5_left.png,5,Community 2,NA,TRUE,f,f,NA,NA,NA,1,6,"12,13,6,2,4,15,10,5,9,3,11,1,14,8,7"
14701,commdev-image-keyboard-response,107,353502,learnblock1,630.8000000715256,img/planet1_right.png,1,Community 3,NA,TRUE,j,j,NA,NA,NA,1,6,"12,13,6,2,4,15,10,5,9,3,11,1,14,8,7"
14701,commdev-image-keyboard-response,108,354754,learnblock1,772,img/planet7_right.png,7,Community 3,NA,FALSE,f,j,NA,NA,NA,1,6,"12,13,6,2,4,15,10,5,9,3,11,1,14,8,7"
14701,commdev-image-keyboard-response,109,356006,learnblock1,674.7999999523163,img/planet14_left.png,14,Community 3,NA,TRUE,f,f,NA,NA,NA,1,6,"12,13,6,2,4,15,10,5,9,3,11,1,14,8,7"
14701,commdev-image-keyboard-response,110,357259,learnblock1,865.3999999761581,img/planet11_left.png,11,Community 3,NA,TRUE,f,f,NA,NA,NA,1,6,"12,13,6,2,4,15,10,5,9,3,11,1,14,8,7"
14701,commdev-image-keyboard-response,111,358511,learnblock1,970.7999999523163,img/planet4_left.png,4,Community 1,NA,TRUE,f,f,NA,NA,NA,1,6,"12,13,6,2,4,15,10,5,9,3,11,1,14,8,7"
14701,commdev-image-keyboard-response,112,359762,learnblock1,1090,img/planet12_left.png,12,Community 1,NA,FALSE,j,f,NA,NA,NA,1,6,"12,13,6,2,4,15,10,5,9,3,11,1,14,8,7"
14701,commdev-image-keyboard-response,113,361014,learnblock1,834.3999999761581,img/planet13_left.png,13,Community 1,NA,TRUE,f,f,NA,NA,NA,1,6,"12,13,6,2,4,15,10,5,9,3,11,1,14,8,7"
14701,commdev-image-keyboard-response,114,362266,learnblock1,596.6999999284744,img/planet4_right.png,4,Community 1,NA,TRUE,j,j,NA,NA,NA,1,6,"12,13,6,2,4,15,10,5,9,3,11,1,14,8,7"
14701,commdev-image-keyboard-response,115,363520,learnblock1,777.1000000238419,img/planet12_right.png,12,Community 1,NA,FALSE,f,j,NA,NA,NA,1,6,"12,13,6,2,4,15,10,5,9,3,11,1,14,8,7"
14701,commdev-image-keyboard-response,116,364781,learnblock1,955.1000000238419,img/planet6_right.png,6,Community 1,NA,FALSE,f,j,NA,NA,NA,1,6,"12,13,6,2,4,15,10,5,9,3,11,1,14,8,7"
14701,commdev-image-keyboard-response,117,366033,learnblock1,693.1000000238419,img/planet2_left.png,2,Community 1,NA,TRUE,f,f,NA,NA,NA,1,6,"12,13,6,2,4,15,10,5,9,3,11,1,14,8,7"
14701,commdev-image-keyboard-response,118,367285,learnblock1,692.3000000715256,img/planet15_right.png,15,Community 2,NA,TRUE,j,j,NA,NA,NA,1,6,"12,13,6,2,4,15,10,5,9,3,11,1,14,8,7"
14701,commdev-image-keyboard-response,119,368547,learnblock1,805.4000000953674,img/planet3_right.png,3,Community 2,NA,FALSE,f,j,NA,NA,NA,1,6,"12,13,6,2,4,15,10,5,9,3,11,1,14,8,7"
14701,commdev-image-keyboard-response,120,369799,learnblock1,760.8000000715256,img/planet10_left.png,10,Community 2,NA,TRUE,f,f,NA,NA,NA,1,6,"12,13,6,2,4,15,10,5,9,3,11,1,14,8,7"
14701,commdev-image-keyboard-response,121,371057,learnblock1,616.7999999523163,img/planet9_right.png,9,Community 2,NA,TRUE,j,j,NA,NA,NA,1,6,"12,13,6,2,4,15,10,5,9,3,11,1,14,8,7"
14701,commdev-image-keyboard-response,122,372309,learnblock1,518.1000000238419,img/planet10_right.png,10,Community 2,NA,TRUE,j,j,NA,NA,NA,1,6,"12,13,6,2,4,15,10,5,9,3,11,1,14,8,7"
14701,commdev-image-keyboard-response,123,373562,learnblock1,901.3999999761581,img/planet15_right.png,15,Community 2,NA,TRUE,j,j,NA,NA,NA,1,6,"12,13,6,2,4,15,10,5,9,3,11,1,14,8,7"
14701,commdev-image-keyboard-response,124,374815,learnblock1,808.1000000238419,img/planet9_left.png,9,Community 2,NA,TRUE,f,f,NA,NA,NA,1,6,"12,13,6,2,4,15,10,5,9,3,11,1,14,8,7"
14701,commdev-image-keyboard-response,125,376067,learnblock1,604.5,img/planet5_right.png,5,Community 2,NA,TRUE,j,j,NA,NA,NA,1,6,"12,13,6,2,4,15,10,5,9,3,11,1,14,8,7"
14701,commdev-image-keyboard-response,126,377320,learnblock1,478.5,img/planet10_left.png,10,Community 2,NA,TRUE,f,f,NA,NA,NA,1,6,"12,13,6,2,4,15,10,5,9,3,11,1,14,8,7"
14701,commdev-image-keyboard-response,127,378572,learnblock1,823.7000000476837,img/planet3_right.png,3,Community 2,NA,TRUE,j,j,NA,NA,NA,1,6,"12,13,6,2,4,15,10,5,9,3,11,1,14,8,7"
14701,commdev-image-keyboard-response,128,379824,learnblock1,631.8000000715256,img/planet9_right.png,9,Community 2,NA,TRUE,j,j,NA,NA,NA,1,6,"12,13,6,2,4,15,10,5,9,3,11,1,14,8,7"
14701,commdev-image-keyboard-response,129,381076,learnblock1,614.2000000476837,img/planet5_left.png,5,Community 2,NA,TRUE,f,f,NA,NA,NA,1,6,"12,13,6,2,4,15,10,5,9,3,11,1,14,8,7"
14701,commdev-image-keyboard-response,130,382328,learnblock1,574.7999999523163,img/planet3_right.png,3,Community 2,NA,TRUE,j,j,NA,NA,NA,1,6,"12,13,6,2,4,15,10,5,9,3,11,1,14,8,7"
14701,commdev-image-keyboard-response,131,383579,learnblock1,615,img/planet5_left.png,5,Community 2,NA,TRUE,f,f,NA,NA,NA,1,6,"12,13,6,2,4,15,10,5,9,3,11,1,14,8,7"
14701,commdev-image-keyboard-response,132,384831,learnblock1,613.1000000238419,img/planet3_right.png,3,Community 2,NA,TRUE,j,j,NA,NA,NA,1,6,"12,13,6,2,4,15,10,5,9,3,11,1,14,8,7"
14701,commdev-image-keyboard-response,133,386084,learnblock1,562.5,img/planet9_left.png,9,Community 2,NA,TRUE,f,f,NA,NA,NA,1,6,"12,13,6,2,4,15,10,5,9,3,11,1,14,8,7"
14701,commdev-image-keyboard-response,134,387336,learnblock1,720.8999999761581,img/planet5_left.png,5,Community 2,NA,TRUE,f,f,NA,NA,NA,1,6,"12,13,6,2,4,15,10,5,9,3,11,1,14,8,7"
14701,commdev-image-keyboard-response,135,388589,learnblock1,633.6000000238419,img/planet9_right.png,9,Community 2,NA,TRUE,j,j,NA,NA,NA,1,6,"12,13,6,2,4,15,10,5,9,3,11,1,14,8,7"
14701,commdev-image-keyboard-response,136,389841,learnblock1,627.5,img/planet5_left.png,5,Community 2,NA,TRUE,f,f,NA,NA,NA,1,6,"12,13,6,2,4,15,10,5,9,3,11,1,14,8,7"
14701,commdev-image-keyboard-response,137,391093,learnblock1,620.8999999761581,img/planet9_left.png,9,Community 2,NA,FALSE,j,f,NA,NA,NA,1,6,"12,13,6,2,4,15,10,5,9,3,11,1,14,8,7"
14701,commdev-image-keyboard-response,138,392345,learnblock1,607.2999999523163,img/planet5_left.png,5,Community 2,NA,TRUE,f,f,NA,NA,NA,1,6,"12,13,6,2,4,15,10,5,9,3,11,1,14,8,7"
14701,commdev-image-keyboard-response,139,393597,learnblock1,664.8999999761581,img/planet9_left.png,9,Community 2,NA,TRUE,f,f,NA,NA,NA,1,6,"12,13,6,2,4,15,10,5,9,3,11,1,14,8,7"
14701,commdev-image-keyboard-response,140,394849,learnblock1,923,img/planet3_left.png,3,Community 2,NA,TRUE,f,f,NA,NA,NA,1,6,"12,13,6,2,4,15,10,5,9,3,11,1,14,8,7"
14701,commdev-image-keyboard-response,141,396102,learnblock1,800.2999999523163,img/planet9_right.png,9,Community 2,NA,TRUE,j,j,NA,NA,NA,1,6,"12,13,6,2,4,15,10,5,9,3,11,1,14,8,7"
14701,commdev-image-keyboard-response,142,397354,learnblock1,637.5,img/planet5_left.png,5,Community 2,NA,TRUE,f,f,NA,NA,NA,1,6,"12,13,6,2,4,15,10,5,9,3,11,1,14,8,7"
14701,commdev-image-keyboard-response,143,398606,learnblock1,537.1000000238419,img/planet10_right.png,10,Community 2,NA,TRUE,j,j,NA,NA,NA,1,6,"12,13,6,2,4,15,10,5,9,3,11,1,14,8,7"
14701,commdev-image-keyboard-response,144,399858,learnblock1,740.1999999284744,img/planet15_right.png,15,Community 2,NA,TRUE,j,j,NA,NA,NA,1,6,"12,13,6,2,4,15,10,5,9,3,11,1,14,8,7"
14701,commdev-image-keyboard-response,145,401110,learnblock1,572.7000000476837,img/planet10_left.png,10,Community 2,NA,TRUE,f,f,NA,NA,NA,1,6,"12,13,6,2,4,15,10,5,9,3,11,1,14,8,7"
14701,commdev-image-keyboard-response,146,402363,learnblock1,594.1000000238419,img/planet5_left.png,5,Community 2,NA,TRUE,f,f,NA,NA,NA,1,6,"12,13,6,2,4,15,10,5,9,3,11,1,14,8,7"
14701,commdev-image-keyboard-response,147,403615,learnblock1,615.3000000715256,img/planet1_left.png,1,Community 3,NA,TRUE,f,f,NA,NA,NA,1,6,"12,13,6,2,4,15,10,5,9,3,11,1,14,8,7"
14701,commdev-image-keyboard-response,148,404867,learnblock1,609,img/planet5_right.png,5,Community 2,NA,TRUE,j,j,NA,NA,NA,1,6,"12,13,6,2,4,15,10,5,9,3,11,1,14,8,7"
14701,commdev-image-keyboard-response,149,406119,learnblock1,655,img/planet9_left.png,9,Community 2,NA,TRUE,f,f,NA,NA,NA,1,6,"12,13,6,2,4,15,10,5,9,3,11,1,14,8,7"
14701,commdev-image-keyboard-response,150,407371,learnblock1,738.7000000476837,img/planet15_right.png,15,Community 2,NA,TRUE,j,j,NA,NA,NA,1,6,"12,13,6,2,4,15,10,5,9,3,11,1,14,8,7"
14701,commdev-image-keyboard-response,151,408623,learnblock1,907.6999999284744,img/planet9_right.png,9,Community 2,NA,FALSE,f,j,NA,NA,NA,1,6,"12,13,6,2,4,15,10,5,9,3,11,1,14,8,7"
14701,commdev-image-keyboard-response,152,409874,learnblock1,829.1000000238419,img/planet15_left.png,15,Community 2,NA,TRUE,f,f,NA,NA,NA,1,6,"12,13,6,2,4,15,10,5,9,3,11,1,14,8,7"
14701,commdev-image-keyboard-response,153,411126,learnblock1,794.2999999523163,img/planet3_left.png,3,Community 2,NA,TRUE,f,f,NA,NA,NA,1,6,"12,13,6,2,4,15,10,5,9,3,11,1,14,8,7"
14701,commdev-image-keyboard-response,154,412387,learnblock1,647.8999999761581,img/planet15_right.png,15,Community 2,NA,TRUE,j,j,NA,NA,NA,1,6,"12,13,6,2,4,15,10,5,9,3,11,1,14,8,7"
14701,commdev-image-keyboard-response,155,413639,learnblock1,901.2000000476837,img/planet10_right.png,10,Community 2,NA,TRUE,j,j,NA,NA,NA,1,6,"12,13,6,2,4,15,10,5,9,3,11,1,14,8,7"
14701,commdev-image-keyboard-response,156,414891,learnblock1,839.2000000476837,img/planet3_right.png,3,Community 2,NA,FALSE,f,j,NA,NA,NA,1,6,"12,13,6,2,4,15,10,5,9,3,11,1,14,8,7"
14701,commdev-image-keyboard-response,157,416144,learnblock1,897.6000000238419,img/planet5_right.png,5,Community 2,NA,FALSE,f,j,NA,NA,NA,1,6,"12,13,6,2,4,15,10,5,9,3,11,1,14,8,7"
14701,commdev-image-keyboard-response,158,417396,learnblock1,714.6999999284744,img/planet1_left.png,1,Community 3,NA,TRUE,f,f,NA,NA,NA,1,6,"12,13,6,2,4,15,10,5,9,3,11,1,14,8,7"
14701,commdev-image-keyboard-response,159,418649,learnblock1,840.7000000476837,img/planet5_left.png,5,Community 2,NA,TRUE,f,f,NA,NA,NA,1,6,"12,13,6,2,4,15,10,5,9,3,11,1,14,8,7"
14701,commdev-image-keyboard-response,160,419901,learnblock1,884.5,img/planet1_left.png,1,Community 3,NA,FALSE,j,f,NA,NA,NA,1,6,"12,13,6,2,4,15,10,5,9,3,11,1,14,8,7"
14701,commdev-image-keyboard-response,161,421153,learnblock1,1129.8999999761581,img/planet8_left.png,8,Community 3,NA,TRUE,f,f,NA,NA,NA,1,6,"12,13,6,2,4,15,10,5,9,3,11,1,14,8,7"
14701,commdev-image-keyboard-response,162,422405,learnblock1,889.7999999523163,img/planet14_left.png,14,Community 3,NA,TRUE,f,f,NA,NA,NA,1,6,"12,13,6,2,4,15,10,5,9,3,11,1,14,8,7"
14701,commdev-image-keyboard-response,163,423656,learnblock1,674.6000000238419,img/planet8_right.png,8,Community 3,NA,TRUE,j,j,NA,NA,NA,1,6,"12,13,6,2,4,15,10,5,9,3,11,1,14,8,7"
14701,commdev-image-keyboard-response,164,424908,learnblock1,979,img/planet1_right.png,1,Community 3,NA,FALSE,f,j,NA,NA,NA,1,6,"12,13,6,2,4,15,10,5,9,3,11,1,14,8,7"
14701,commdev-image-keyboard-response,165,426161,learnblock1,866.6000000238419,img/planet14_right.png,14,Community 3,NA,FALSE,f,j,NA,NA,NA,1,6,"12,13,6,2,4,15,10,5,9,3,11,1,14,8,7"
14701,commdev-image-keyboard-response,166,427413,learnblock1,974.2999999523163,img/planet8_left.png,8,Community 3,NA,TRUE,f,f,NA,NA,NA,1,6,"12,13,6,2,4,15,10,5,9,3,11,1,14,8,7"
14701,commdev-image-keyboard-response,167,428665,learnblock1,954.8999999761581,img/planet7_right.png,7,Community 3,NA,TRUE,j,j,NA,NA,NA,1,6,"12,13,6,2,4,15,10,5,9,3,11,1,14,8,7"
14701,commdev-image-keyboard-response,168,429917,learnblock1,1019.8999999761581,img/planet14_right.png,14,Community 3,NA,TRUE,j,j,NA,NA,NA,1,6,"12,13,6,2,4,15,10,5,9,3,11,1,14,8,7"
14701,commdev-image-keyboard-response,169,431184,learnblock1,679.5,img/planet1_left.png,1,Community 3,NA,TRUE,f,f,NA,NA,NA,1,6,"12,13,6,2,4,15,10,5,9,3,11,1,14,8,7"
14701,commdev-image-keyboard-response,170,432436,learnblock1,632.2999999523163,img/planet5_left.png,5,Community 2,NA,FALSE,j,f,NA,NA,NA,1,6,"12,13,6,2,4,15,10,5,9,3,11,1,14,8,7"
14701,commdev-image-keyboard-response,171,433689,learnblock1,953,img/planet3_left.png,3,Community 2,NA,TRUE,f,f,NA,NA,NA,1,6,"12,13,6,2,4,15,10,5,9,3,11,1,14,8,7"
14701,commdev-image-keyboard-response,172,434941,learnblock1,961.1999999284744,img/planet15_left.png,15,Community 2,NA,TRUE,f,f,NA,NA,NA,1,6,"12,13,6,2,4,15,10,5,9,3,11,1,14,8,7"
14701,commdev-image-keyboard-response,173,436193,learnblock1,582.5,img/planet9_right.png,9,Community 2,NA,TRUE,j,j,NA,NA,NA,1,6,"12,13,6,2,4,15,10,5,9,3,11,1,14,8,7"
14701,commdev-image-keyboard-response,174,437456,learnblock1,543.6000000238419,img/planet5_left.png,5,Community 2,NA,TRUE,f,f,NA,NA,NA,1,6,"12,13,6,2,4,15,10,5,9,3,11,1,14,8,7"
14701,commdev-image-keyboard-response,175,438709,learnblock1,743.0999999046326,img/planet9_left.png,9,Community 2,NA,TRUE,f,f,NA,NA,NA,1,6,"12,13,6,2,4,15,10,5,9,3,11,1,14,8,7"
14701,commdev-image-keyboard-response,176,439962,learnblock1,664.5,img/planet3_right.png,3,Community 2,NA,TRUE,j,j,NA,NA,NA,1,6,"12,13,6,2,4,15,10,5,9,3,11,1,14,8,7"
14701,commdev-image-keyboard-response,177,441214,learnblock1,758.4000000953674,img/planet15_right.png,15,Community 2,NA,FALSE,f,j,NA,NA,NA,1,6,"12,13,6,2,4,15,10,5,9,3,11,1,14,8,7"
14701,commdev-image-keyboard-response,178,442469,learnblock1,815.8000000715256,img/planet10_right.png,10,Community 2,NA,FALSE,f,j,NA,NA,NA,1,6,"12,13,6,2,4,15,10,5,9,3,11,1,14,8,7"
14701,commdev-image-keyboard-response,179,443726,learnblock1,883.3999999761581,img/planet3_left.png,3,Community 2,NA,TRUE,f,f,NA,NA,NA,1,6,"12,13,6,2,4,15,10,5,9,3,11,1,14,8,7"
14701,commdev-image-keyboard-response,180,444992,learnblock1,754,img/planet15_left.png,15,Community 2,NA,TRUE,f,f,NA,NA,NA,1,6,"12,13,6,2,4,15,10,5,9,3,11,1,14,8,7"
14701,commdev-image-keyboard-response,181,446244,learnblock1,602.6999999284744,img/planet2_right.png,2,Community 1,NA,TRUE,j,j,NA,NA,NA,1,6,"12,13,6,2,4,15,10,5,9,3,11,1,14,8,7"
14701,commdev-image-keyboard-response,182,447496,learnblock1,604.6000000238419,img/planet12_left.png,12,Community 1,NA,TRUE,f,f,NA,NA,NA,1,6,"12,13,6,2,4,15,10,5,9,3,11,1,14,8,7"
14701,commdev-image-keyboard-response,183,448747,learnblock1,547,img/planet13_right.png,13,Community 1,NA,TRUE,j,j,NA,NA,NA,1,6,"12,13,6,2,4,15,10,5,9,3,11,1,14,8,7"
14701,commdev-image-keyboard-response,184,450000,learnblock1,596.2000000476837,img/planet4_left.png,4,Community 1,NA,TRUE,f,f,NA,NA,NA,1,6,"12,13,6,2,4,15,10,5,9,3,11,1,14,8,7"
14701,commdev-image-keyboard-response,185,451252,learnblock1,653.5,img/planet12_left.png,12,Community 1,NA,TRUE,f,f,NA,NA,NA,1,6,"12,13,6,2,4,15,10,5,9,3,11,1,14,8,7"
14701,commdev-image-keyboard-response,186,452504,learnblock1,573.6000000238419,img/planet13_right.png,13,Community 1,NA,TRUE,j,j,NA,NA,NA,1,6,"12,13,6,2,4,15,10,5,9,3,11,1,14,8,7"
14701,commdev-image-keyboard-response,187,453756,learnblock1,672.3999999761581,img/planet4_left.png,4,Community 1,NA,TRUE,f,f,NA,NA,NA,1,6,"12,13,6,2,4,15,10,5,9,3,11,1,14,8,7"
14701,commdev-image-keyboard-response,188,455009,learnblock1,710.6000000238419,img/planet6_left.png,6,Community 1,NA,FALSE,j,f,NA,NA,NA,1,6,"12,13,6,2,4,15,10,5,9,3,11,1,14,8,7"
14701,commdev-image-keyboard-response,189,456262,learnblock1,673.2000000476837,img/planet13_left.png,13,Community 1,NA,TRUE,f,f,NA,NA,NA,1,6,"12,13,6,2,4,15,10,5,9,3,11,1,14,8,7"
14701,commdev-image-keyboard-response,190,457524,learnblock1,563.7999999523163,img/planet4_left.png,4,Community 1,NA,TRUE,f,f,NA,NA,NA,1,6,"12,13,6,2,4,15,10,5,9,3,11,1,14,8,7"
14701,commdev-image-keyboard-response,191,458776,learnblock1,569.8000000715256,img/planet13_left.png,13,Community 1,NA,TRUE,f,f,NA,NA,NA,1,6,"12,13,6,2,4,15,10,5,9,3,11,1,14,8,7"
14701,commdev-image-keyboard-response,192,460029,learnblock1,487.6999999284744,img/planet4_right.png,4,Community 1,NA,TRUE,j,j,NA,NA,NA,1,6,"12,13,6,2,4,15,10,5,9,3,11,1,14,8,7"
14701,commdev-image-keyboard-response,193,461281,learnblock1,607.5,img/planet13_left.png,13,Community 1,NA,TRUE,f,f,NA,NA,NA,1,6,"12,13,6,2,4,15,10,5,9,3,11,1,14,8,7"
14701,commdev-image-keyboard-response,194,462533,learnblock1,607.2999999523163,img/planet2_left.png,2,Community 1,NA,TRUE,f,f,NA,NA,NA,1,6,"12,13,6,2,4,15,10,5,9,3,11,1,14,8,7"
14701,commdev-image-keyboard-response,195,463785,learnblock1,631,img/planet6_right.png,6,Community 1,NA,TRUE,j,j,NA,NA,NA,1,6,"12,13,6,2,4,15,10,5,9,3,11,1,14,8,7"
14701,commdev-image-keyboard-response,196,465038,learnblock1,1225.5,img/planet12_right.png,12,Community 1,NA,FALSE,f,j,NA,NA,NA,1,6,"12,13,6,2,4,15,10,5,9,3,11,1,14,8,7"
14701,commdev-image-keyboard-response,197,466290,learnblock1,843.5,img/planet6_left.png,6,Community 1,NA,TRUE,f,f,NA,NA,NA,1,6,"12,13,6,2,4,15,10,5,9,3,11,1,14,8,7"
14701,commdev-image-keyboard-response,198,467542,learnblock1,887.1000000238419,img/planet12_left.png,12,Community 1,NA,FALSE,j,f,NA,NA,NA,1,6,"12,13,6,2,4,15,10,5,9,3,11,1,14,8,7"
14701,commdev-image-keyboard-response,199,468794,learnblock1,792.9000000953674,img/planet2_right.png,2,Community 1,NA,TRUE,j,j,NA,NA,NA,1,6,"12,13,6,2,4,15,10,5,9,3,11,1,14,8,7"
14701,commdev-image-keyboard-response,200,470047,learnblock1,693.8999999761581,img/planet6_left.png,6,Community 1,NA,TRUE,f,f,NA,NA,NA,1,6,"12,13,6,2,4,15,10,5,9,3,11,1,14,8,7"
14701,commdev-image-keyboard-response,201,471310,learnblock1,1007.7999999523163,img/planet2_left.png,2,Community 1,NA,TRUE,f,f,NA,NA,NA,1,6,"12,13,6,2,4,15,10,5,9,3,11,1,14,8,7"
14701,commdev-image-keyboard-response,202,472561,learnblock1,657.2000000476837,img/planet13_left.png,13,Community 1,NA,TRUE,f,f,NA,NA,NA,1,6,"12,13,6,2,4,15,10,5,9,3,11,1,14,8,7"
14701,commdev-image-keyboard-response,203,473813,learnblock1,554.9000000953674,img/planet2_right.png,2,Community 1,NA,TRUE,j,j,NA,NA,NA,1,6,"12,13,6,2,4,15,10,5,9,3,11,1,14,8,7"
14701,commdev-image-keyboard-response,204,475064,learnblock1,634.7000000476837,img/planet15_left.png,15,Community 2,NA,TRUE,f,f,NA,NA,NA,1,6,"12,13,6,2,4,15,10,5,9,3,11,1,14,8,7"
14701,commdev-image-keyboard-response,205,476317,learnblock1,543.2000000476837,img/planet10_left.png,10,Community 2,NA,TRUE,f,f,NA,NA,NA,1,6,"12,13,6,2,4,15,10,5,9,3,11,1,14,8,7"
14701,commdev-image-keyboard-response,206,477569,learnblock1,627.7000000476837,img/planet5_left.png,5,Community 2,NA,TRUE,f,f,NA,NA,NA,1,6,"12,13,6,2,4,15,10,5,9,3,11,1,14,8,7"
14701,commdev-image-keyboard-response,207,478822,learnblock1,583.7999999523163,img/planet10_left.png,10,Community 2,NA,TRUE,f,f,NA,NA,NA,1,6,"12,13,6,2,4,15,10,5,9,3,11,1,14,8,7"
14701,commdev-image-keyboard-response,208,480074,learnblock1,568.2999999523163,img/planet5_right.png,5,Community 2,NA,TRUE,j,j,NA,NA,NA,1,6,"12,13,6,2,4,15,10,5,9,3,11,1,14,8,7"
14701,commdev-image-keyboard-response,209,481327,learnblock1,551,img/planet3_left.png,3,Community 2,NA,TRUE,f,f,NA,NA,NA,1,6,"12,13,6,2,4,15,10,5,9,3,11,1,14,8,7"
14701,commdev-image-keyboard-response,210,482579,learnblock1,534.3999999761581,img/planet9_right.png,9,Community 2,NA,TRUE,j,j,NA,NA,NA,1,6,"12,13,6,2,4,15,10,5,9,3,11,1,14,8,7"
14701,commdev-image-keyboard-response,211,483831,learnblock1,544.3999999761581,img/planet3_left.png,3,Community 2,NA,TRUE,f,f,NA,NA,NA,1,6,"12,13,6,2,4,15,10,5,9,3,11,1,14,8,7"
14701,commdev-image-keyboard-response,212,485083,learnblock1,510.3000000715256,img/planet9_right.png,9,Community 2,NA,TRUE,j,j,NA,NA,NA,1,6,"12,13,6,2,4,15,10,5,9,3,11,1,14,8,7"
14701,commdev-image-keyboard-response,213,486335,learnblock1,537.3999999761581,img/planet15_left.png,15,Community 2,NA,TRUE,f,f,NA,NA,NA,1,6,"12,13,6,2,4,15,10,5,9,3,11,1,14,8,7"
14701,commdev-image-keyboard-response,214,487587,learnblock1,845.8999999761581,img/planet9_left.png,9,Community 2,NA,TRUE,f,f,NA,NA,NA,1,6,"12,13,6,2,4,15,10,5,9,3,11,1,14,8,7"
14701,commdev-image-keyboard-response,215,488839,learnblock1,562.1000000238419,img/planet3_right.png,3,Community 2,NA,TRUE,j,j,NA,NA,NA,1,6,"12,13,6,2,4,15,10,5,9,3,11,1,14,8,7"
14701,commdev-image-keyboard-response,216,490092,learnblock1,633.5,img/planet15_left.png,15,Community 2,NA,TRUE,f,f,NA,NA,NA,1,6,"12,13,6,2,4,15,10,5,9,3,11,1,14,8,7"
14701,commdev-image-keyboard-response,217,491344,learnblock1,609.6000000238419,img/planet10_right.png,10,Community 2,NA,TRUE,j,j,NA,NA,NA,1,6,"12,13,6,2,4,15,10,5,9,3,11,1,14,8,7"
14701,commdev-image-keyboard-response,218,492596,learnblock1,551.6999999284744,img/planet5_left.png,5,Community 2,NA,TRUE,f,f,NA,NA,NA,1,6,"12,13,6,2,4,15,10,5,9,3,11,1,14,8,7"
14701,commdev-image-keyboard-response,219,493849,learnblock1,532,img/planet10_right.png,10,Community 2,NA,TRUE,j,j,NA,NA,NA,1,6,"12,13,6,2,4,15,10,5,9,3,11,1,14,8,7"
14701,commdev-image-keyboard-response,220,495102,learnblock1,465.5,img/planet9_left.png,9,Community 2,NA,TRUE,f,f,NA,NA,NA,1,6,"12,13,6,2,4,15,10,5,9,3,11,1,14,8,7"
14701,commdev-image-keyboard-response,221,496354,learnblock1,679.7999999523163,img/planet15_left.png,15,Community 2,NA,TRUE,f,f,NA,NA,NA,1,6,"12,13,6,2,4,15,10,5,9,3,11,1,14,8,7"
14701,commdev-image-keyboard-response,222,497606,learnblock1,564.2000000476837,img/planet10_left.png,10,Community 2,NA,TRUE,f,f,NA,NA,NA,1,6,"12,13,6,2,4,15,10,5,9,3,11,1,14,8,7"
14701,commdev-image-keyboard-response,223,498859,learnblock1,481,img/planet9_right.png,9,Community 2,NA,TRUE,j,j,NA,NA,NA,1,6,"12,13,6,2,4,15,10,5,9,3,11,1,14,8,7"
14701,commdev-image-keyboard-response,224,500112,learnblock1,825.1999999284744,img/planet15_right.png,15,Community 2,NA,TRUE,j,j,NA,NA,NA,1,6,"12,13,6,2,4,15,10,5,9,3,11,1,14,8,7"
14701,commdev-image-keyboard-response,225,501364,learnblock1,869,img/planet2_right.png,2,Community 1,NA,TRUE,j,j,NA,NA,NA,1,6,"12,13,6,2,4,15,10,5,9,3,11,1,14,8,7"
14701,commdev-image-keyboard-response,226,502616,learnblock1,633.3000000715256,img/planet13_left.png,13,Community 1,NA,TRUE,f,f,NA,NA,NA,1,6,"12,13,6,2,4,15,10,5,9,3,11,1,14,8,7"
14701,commdev-image-keyboard-response,227,503868,learnblock1,796.1000000238419,img/planet2_left.png,2,Community 1,NA,TRUE,f,f,NA,NA,NA,1,6,"12,13,6,2,4,15,10,5,9,3,11,1,14,8,7"
14701,commdev-image-keyboard-response,228,505119,learnblock1,823.2000000476837,img/planet15_left.png,15,Community 2,NA,TRUE,f,f,NA,NA,NA,1,6,"12,13,6,2,4,15,10,5,9,3,11,1,14,8,7"
14701,commdev-image-keyboard-response,229,506372,learnblock1,854.3999999761581,img/planet3_left.png,3,Community 2,NA,FALSE,j,f,NA,NA,NA,1,6,"12,13,6,2,4,15,10,5,9,3,11,1,14,8,7"
14701,commdev-image-keyboard-response,230,507624,learnblock1,744.0999999046326,img/planet9_right.png,9,Community 2,NA,TRUE,j,j,NA,NA,NA,1,6,"12,13,6,2,4,15,10,5,9,3,11,1,14,8,7"
14701,commdev-image-keyboard-response,231,508876,learnblock1,921.2999999523163,img/planet15_right.png,15,Community 2,NA,TRUE,j,j,NA,NA,NA,1,6,"12,13,6,2,4,15,10,5,9,3,11,1,14,8,7"
14701,commdev-image-keyboard-response,232,510130,learnblock1,680.1999999284744,img/planet2_left.png,2,Community 1,NA,TRUE,f,f,NA,NA,NA,1,6,"12,13,6,2,4,15,10,5,9,3,11,1,14,8,7"
14701,commdev-image-keyboard-response,233,511383,learnblock1,629.6999999284744,img/planet13_left.png,13,Community 1,NA,TRUE,f,f,NA,NA,NA,1,6,"12,13,6,2,4,15,10,5,9,3,11,1,14,8,7"
14701,commdev-image-keyboard-response,234,512634,learnblock1,654.8999999761581,img/planet6_left.png,6,Community 1,NA,TRUE,f,f,NA,NA,NA,1,6,"12,13,6,2,4,15,10,5,9,3,11,1,14,8,7"
14701,commdev-image-keyboard-response,235,513886,learnblock1,898.8000000715256,img/planet4_left.png,4,Community 1,NA,TRUE,f,f,NA,NA,NA,1,6,"12,13,6,2,4,15,10,5,9,3,11,1,14,8,7"
14701,commdev-image-keyboard-response,236,515138,learnblock1,568,img/planet13_right.png,13,Community 1,NA,TRUE,j,j,NA,NA,NA,1,6,"12,13,6,2,4,15,10,5,9,3,11,1,14,8,7"
14701,commdev-image-keyboard-response,237,516390,learnblock1,617.7999999523163,img/planet2_right.png,2,Community 1,NA,TRUE,j,j,NA,NA,NA,1,6,"12,13,6,2,4,15,10,5,9,3,11,1,14,8,7"
14701,commdev-image-keyboard-response,238,517641,learnblock1,946.5,img/planet6_right.png,6,Community 1,NA,TRUE,j,j,NA,NA,NA,1,6,"12,13,6,2,4,15,10,5,9,3,11,1,14,8,7"
14701,commdev-image-keyboard-response,239,518894,learnblock1,723.3999999761581,img/planet2_left.png,2,Community 1,NA,TRUE,f,f,NA,NA,NA,1,6,"12,13,6,2,4,15,10,5,9,3,11,1,14,8,7"
14701,commdev-image-keyboard-response,240,520146,learnblock1,749.5,img/planet6_left.png,6,Community 1,NA,FALSE,j,f,NA,NA,NA,1,6,"12,13,6,2,4,15,10,5,9,3,11,1,14,8,7"
14701,commdev-image-keyboard-response,241,521414,learnblock1,974.5,img/planet12_left.png,12,Community 1,NA,FALSE,j,f,NA,NA,NA,1,6,"12,13,6,2,4,15,10,5,9,3,11,1,14,8,7"
14701,commdev-image-keyboard-response,242,522666,learnblock1,1042.2999999523163,img/planet4_left.png,4,Community 1,NA,TRUE,f,f,NA,NA,NA,1,6,"12,13,6,2,4,15,10,5,9,3,11,1,14,8,7"
14701,commdev-image-keyboard-response,243,523919,learnblock1,663.1000000238419,img/planet13_right.png,13,Community 1,NA,FALSE,f,j,NA,NA,NA,1,6,"12,13,6,2,4,15,10,5,9,3,11,1,14,8,7"
14701,commdev-image-keyboard-response,244,525172,learnblock1,636.2999999523163,img/planet2_left.png,2,Community 1,NA,TRUE,f,f,NA,NA,NA,1,6,"12,13,6,2,4,15,10,5,9,3,11,1,14,8,7"
14701,commdev-image-keyboard-response,245,526424,learnblock1,943.1999999284744,img/planet12_right.png,12,Community 1,NA,TRUE,j,j,NA,NA,NA,1,6,"12,13,6,2,4,15,10,5,9,3,11,1,14,8,7"
14701,commdev-image-keyboard-response,246,527676,learnblock1,1066.1999999284744,img/planet6_right.png,6,Community 1,NA,FALSE,f,j,NA,NA,NA,1,6,"12,13,6,2,4,15,10,5,9,3,11,1,14,8,7"
14701,commdev-image-keyboard-response,247,528929,learnblock1,749.5,img/planet13_left.png,13,Community 1,NA,TRUE,f,f,NA,NA,NA,1,6,"12,13,6,2,4,15,10,5,9,3,11,1,14,8,7"
14701,commdev-image-keyboard-response,248,530180,learnblock1,586.2000000476837,img/planet2_right.png,2,Community 1,NA,TRUE,j,j,NA,NA,NA,1,6,"12,13,6,2,4,15,10,5,9,3,11,1,14,8,7"
14701,commdev-image-keyboard-response,249,531433,learnblock1,759.3000000715256,img/planet13_right.png,13,Community 1,NA,TRUE,j,j,NA,NA,NA,1,6,"12,13,6,2,4,15,10,5,9,3,11,1,14,8,7"
14701,commdev-image-keyboard-response,250,532685,learnblock1,640.1000000238419,img/planet4_left.png,4,Community 1,NA,TRUE,f,f,NA,NA,NA,1,6,"12,13,6,2,4,15,10,5,9,3,11,1,14,8,7"
14701,commdev-image-keyboard-response,251,533950,learnblock1,824,img/planet12_left.png,12,Community 1,NA,TRUE,f,f,NA,NA,NA,1,6,"12,13,6,2,4,15,10,5,9,3,11,1,14,8,7"
14701,commdev-image-keyboard-response,252,535203,learnblock1,858.2000000476837,img/planet4_right.png,4,Community 1,NA,TRUE,j,j,NA,NA,NA,1,6,"12,13,6,2,4,15,10,5,9,3,11,1,14,8,7"
14701,commdev-image-keyboard-response,253,536455,learnblock1,891.8999999761581,img/planet12_right.png,12,Community 1,NA,TRUE,j,j,NA,NA,NA,1,6,"12,13,6,2,4,15,10,5,9,3,11,1,14,8,7"
14701,commdev-image-keyboard-response,254,537708,learnblock1,831.8000000715256,img/planet13_left.png,13,Community 1,NA,TRUE,f,f,NA,NA,NA,1,6,"12,13,6,2,4,15,10,5,9,3,11,1,14,8,7"
14701,commdev-image-keyboard-response,255,538961,learnblock1,526.5,img/planet2_right.png,2,Community 1,NA,TRUE,j,j,NA,NA,NA,1,6,"12,13,6,2,4,15,10,5,9,3,11,1,14,8,7"
14701,commdev-image-keyboard-response,256,540213,learnblock1,520.0999999046326,img/planet13_left.png,13,Community 1,NA,TRUE,f,f,NA,NA,NA,1,6,"12,13,6,2,4,15,10,5,9,3,11,1,14,8,7"
14701,commdev-image-keyboard-response,257,541466,learnblock1,757.3000000715256,img/planet12_left.png,12,Community 1,NA,TRUE,f,f,NA,NA,NA,1,6,"12,13,6,2,4,15,10,5,9,3,11,1,14,8,7"
14701,commdev-image-keyboard-response,258,542718,learnblock1,583.1999999284744,img/planet2_right.png,2,Community 1,NA,TRUE,j,j,NA,NA,NA,1,6,"12,13,6,2,4,15,10,5,9,3,11,1,14,8,7"
14701,commdev-image-keyboard-response,259,543970,learnblock1,708.5,img/planet12_right.png,12,Community 1,NA,TRUE,j,j,NA,NA,NA,1,6,"12,13,6,2,4,15,10,5,9,3,11,1,14,8,7"
14701,commdev-image-keyboard-response,260,545222,learnblock1,791.3999999761581,img/planet4_right.png,4,Community 1,NA,TRUE,j,j,NA,NA,NA,1,6,"12,13,6,2,4,15,10,5,9,3,11,1,14,8,7"
14701,commdev-image-keyboard-response,261,546474,learnblock1,647,img/planet6_left.png,6,Community 1,NA,TRUE,f,f,NA,NA,NA,1,6,"12,13,6,2,4,15,10,5,9,3,11,1,14,8,7"
14701,commdev-image-keyboard-response,262,547727,learnblock1,532.5,img/planet12_right.png,12,Community 1,NA,TRUE,j,j,NA,NA,NA,1,6,"12,13,6,2,4,15,10,5,9,3,11,1,14,8,7"
14701,commdev-image-keyboard-response,263,548979,learnblock1,783.7000000476837,img/planet4_left.png,4,Community 1,NA,TRUE,f,f,NA,NA,NA,1,6,"12,13,6,2,4,15,10,5,9,3,11,1,14,8,7"
14701,commdev-image-keyboard-response,264,550232,learnblock1,888.6999999284744,img/planet6_left.png,6,Community 1,NA,FALSE,j,f,NA,NA,NA,1,6,"12,13,6,2,4,15,10,5,9,3,11,1,14,8,7"
14701,commdev-image-keyboard-response,265,551485,learnblock1,1098.9000000953674,img/planet4_left.png,4,Community 1,NA,FALSE,j,f,NA,NA,NA,1,6,"12,13,6,2,4,15,10,5,9,3,11,1,14,8,7"
14701,commdev-image-keyboard-response,266,552737,learnblock1,828.5,img/planet6_left.png,6,Community 1,NA,TRUE,f,f,NA,NA,NA,1,6,"12,13,6,2,4,15,10,5,9,3,11,1,14,8,7"
14701,commdev-image-keyboard-response,267,553989,learnblock1,696.5,img/planet4_right.png,4,Community 1,NA,TRUE,j,j,NA,NA,NA,1,6,"12,13,6,2,4,15,10,5,9,3,11,1,14,8,7"
14701,commdev-image-keyboard-response,268,555242,learnblock1,610.5,img/planet11_left.png,11,Community 3,NA,TRUE,f,f,NA,NA,NA,1,6,"12,13,6,2,4,15,10,5,9,3,11,1,14,8,7"
14701,commdev-image-keyboard-response,269,556493,learnblock1,927.2999999523163,img/planet14_left.png,14,Community 3,NA,TRUE,f,f,NA,NA,NA,1,6,"12,13,6,2,4,15,10,5,9,3,11,1,14,8,7"
14701,commdev-image-keyboard-response,270,557745,learnblock1,622.7000000476837,img/planet1_left.png,1,Community 3,NA,TRUE,f,f,NA,NA,NA,1,6,"12,13,6,2,4,15,10,5,9,3,11,1,14,8,7"
14701,commdev-image-keyboard-response,271,558997,learnblock1,992.2000000476837,img/planet8_left.png,8,Community 3,NA,TRUE,f,f,NA,NA,NA,1,6,"12,13,6,2,4,15,10,5,9,3,11,1,14,8,7"
14701,commdev-image-keyboard-response,272,560251,learnblock1,985.8999999761581,img/planet7_right.png,7,Community 3,NA,TRUE,j,j,NA,NA,NA,1,6,"12,13,6,2,4,15,10,5,9,3,11,1,14,8,7"
14701,commdev-image-keyboard-response,273,561503,learnblock1,1088.7999999523163,img/planet1_right.png,1,Community 3,NA,FALSE,f,j,NA,NA,NA,1,6,"12,13,6,2,4,15,10,5,9,3,11,1,14,8,7"
14701,commdev-image-keyboard-response,274,562755,learnblock1,null,img/planet8_left.png,8,Community 3,NA,FALSE,null,f,NA,NA,NA,1,6,"12,13,6,2,4,15,10,5,9,3,11,1,14,8,7"
14701,commdev-image-keyboard-response,275,564007,learnblock1,49.59999990463257,img/planet1_right.png,1,Community 3,NA,FALSE,f,j,NA,NA,NA,1,6,"12,13,6,2,4,15,10,5,9,3,11,1,14,8,7"
14701,commdev-image-keyboard-response,276,565260,learnblock1,856.2999999523163,img/planet8_left.png,8,Community 3,NA,TRUE,f,f,NA,NA,NA,1,6,"12,13,6,2,4,15,10,5,9,3,11,1,14,8,7"
14701,commdev-image-keyboard-response,277,566512,learnblock1,856,img/planet7_left.png,7,Community 3,NA,FALSE,j,f,NA,NA,NA,1,6,"12,13,6,2,4,15,10,5,9,3,11,1,14,8,7"
14701,commdev-image-keyboard-response,278,567771,learnblock1,1129.6999999284744,img/planet8_left.png,8,Community 3,NA,TRUE,f,f,NA,NA,NA,1,6,"12,13,6,2,4,15,10,5,9,3,11,1,14,8,7"
14701,commdev-image-keyboard-response,279,569023,learnblock1,1194.5,img/planet7_right.png,7,Community 3,NA,FALSE,f,j,NA,NA,NA,1,6,"12,13,6,2,4,15,10,5,9,3,11,1,14,8,7"
14701,commdev-image-keyboard-response,280,570276,learnblock1,926.6999999284744,img/planet11_left.png,11,Community 3,NA,TRUE,f,f,NA,NA,NA,1,6,"12,13,6,2,4,15,10,5,9,3,11,1,14,8,7"
14701,commdev-image-keyboard-response,281,571528,learnblock1,645.0999999046326,img/planet4_right.png,4,Community 1,NA,TRUE,j,j,NA,NA,NA,1,6,"12,13,6,2,4,15,10,5,9,3,11,1,14,8,7"
14701,commdev-image-keyboard-response,282,572780,learnblock1,710.6999999284744,img/planet13_left.png,13,Community 1,NA,TRUE,f,f,NA,NA,NA,1,6,"12,13,6,2,4,15,10,5,9,3,11,1,14,8,7"
14701,commdev-image-keyboard-response,283,574045,learnblock1,826.8999999761581,img/planet6_left.png,6,Community 1,NA,TRUE,f,f,NA,NA,NA,1,6,"12,13,6,2,4,15,10,5,9,3,11,1,14,8,7"
14701,commdev-image-keyboard-response,284,575297,learnblock1,515.2999999523163,img/planet4_right.png,4,Community 1,NA,TRUE,j,j,NA,NA,NA,1,6,"12,13,6,2,4,15,10,5,9,3,11,1,14,8,7"
14701,commdev-image-keyboard-response,285,576550,learnblock1,465.39999997615814,img/planet13_left.png,13,Community 1,NA,TRUE,f,f,NA,NA,NA,1,6,"12,13,6,2,4,15,10,5,9,3,11,1,14,8,7"
14701,commdev-image-keyboard-response,286,577802,learnblock1,605.2999999523163,img/planet12_right.png,12,Community 1,NA,TRUE,j,j,NA,NA,NA,1,6,"12,13,6,2,4,15,10,5,9,3,11,1,14,8,7"
14701,commdev-image-keyboard-response,287,579053,learnblock1,874.2000000476837,img/planet6_right.png,6,Community 1,NA,FALSE,f,j,NA,NA,NA,1,6,"12,13,6,2,4,15,10,5,9,3,11,1,14,8,7"
14701,commdev-image-keyboard-response,288,580306,learnblock1,666.8000000715256,img/planet4_right.png,4,Community 1,NA,TRUE,j,j,NA,NA,NA,1,6,"12,13,6,2,4,15,10,5,9,3,11,1,14,8,7"
14701,commdev-image-keyboard-response,289,581559,learnblock1,546.6000000238419,img/planet13_left.png,13,Community 1,NA,TRUE,f,f,NA,NA,NA,1,6,"12,13,6,2,4,15,10,5,9,3,11,1,14,8,7"
14701,commdev-image-keyboard-response,290,582811,learnblock1,600.1999999284744,img/planet2_right.png,2,Community 1,NA,TRUE,j,j,NA,NA,NA,1,6,"12,13,6,2,4,15,10,5,9,3,11,1,14,8,7"
14701,commdev-image-keyboard-response,291,584064,learnblock1,718.8000000715256,img/planet15_right.png,15,Community 2,NA,TRUE,j,j,NA,NA,NA,1,6,"12,13,6,2,4,15,10,5,9,3,11,1,14,8,7"
14701,commdev-image-keyboard-response,292,585317,learnblock1,792.2999999523163,img/planet9_right.png,9,Community 2,NA,TRUE,j,j,NA,NA,NA,1,6,"12,13,6,2,4,15,10,5,9,3,11,1,14,8,7"
14701,commdev-image-keyboard-response,293,586568,learnblock1,652.2000000476837,img/planet3_left.png,3,Community 2,NA,TRUE,f,f,NA,NA,NA,1,6,"12,13,6,2,4,15,10,5,9,3,11,1,14,8,7"
14701,commdev-image-keyboard-response,294,587819,learnblock1,737.7000000476837,img/planet5_right.png,5,Community 2,NA,TRUE,j,j,NA,NA,NA,1,6,"12,13,6,2,4,15,10,5,9,3,11,1,14,8,7"
14701,commdev-image-keyboard-response,295,589071,learnblock1,913.2000000476837,img/planet9_right.png,9,Community 2,NA,FALSE,f,j,NA,NA,NA,1,6,"12,13,6,2,4,15,10,5,9,3,11,1,14,8,7"
14701,commdev-image-keyboard-response,296,590323,learnblock1,868.6000000238419,img/planet3_left.png,3,Community 2,NA,FALSE,j,f,NA,NA,NA,1,6,"12,13,6,2,4,15,10,5,9,3,11,1,14,8,7"
14701,commdev-image-keyboard-response,297,591575,learnblock1,839.5,img/planet5_left.png,5,Community 2,NA,FALSE,j,f,NA,NA,NA,1,6,"12,13,6,2,4,15,10,5,9,3,11,1,14,8,7"
14701,commdev-image-keyboard-response,298,592827,learnblock1,938.2000000476837,img/planet3_right.png,3,Community 2,NA,TRUE,j,j,NA,NA,NA,1,6,"12,13,6,2,4,15,10,5,9,3,11,1,14,8,7"
14701,commdev-image-keyboard-response,299,594079,learnblock1,1003.0999999046326,img/planet9_right.png,9,Community 2,NA,TRUE,j,j,NA,NA,NA,1,6,"12,13,6,2,4,15,10,5,9,3,11,1,14,8,7"
14701,commdev-image-keyboard-response,300,595331,learnblock1,1070.7999999523163,img/planet5_left.png,5,Community 2,NA,TRUE,f,f,NA,NA,NA,1,6,"12,13,6,2,4,15,10,5,9,3,11,1,14,8,7"
14701,commdev-image-keyboard-response,301,596583,learnblock1,894.3000000715256,img/planet3_left.png,3,Community 2,NA,TRUE,f,f,NA,NA,NA,1,6,"12,13,6,2,4,15,10,5,9,3,11,1,14,8,7"
14701,commdev-image-keyboard-response,302,597835,learnblock1,997.5,img/planet15_right.png,15,Community 2,NA,TRUE,j,j,NA,NA,NA,1,6,"12,13,6,2,4,15,10,5,9,3,11,1,14,8,7"
14701,commdev-image-keyboard-response,303,599086,learnblock1,698.5,img/planet2_right.png,2,Community 1,NA,TRUE,j,j,NA,NA,NA,1,6,"12,13,6,2,4,15,10,5,9,3,11,1,14,8,7"
14701,commdev-image-keyboard-response,304,600338,learnblock1,743.8000000715256,img/planet15_left.png,15,Community 2,NA,TRUE,f,f,NA,NA,NA,1,6,"12,13,6,2,4,15,10,5,9,3,11,1,14,8,7"
14701,commdev-image-keyboard-response,305,601591,learnblock1,556,img/planet2_left.png,2,Community 1,NA,TRUE,f,f,NA,NA,NA,1,6,"12,13,6,2,4,15,10,5,9,3,11,1,14,8,7"
14701,commdev-image-keyboard-response,306,602843,learnblock1,781.0999999046326,img/planet12_right.png,12,Community 1,NA,TRUE,j,j,NA,NA,NA,1,6,"12,13,6,2,4,15,10,5,9,3,11,1,14,8,7"
14701,commdev-image-keyboard-response,307,604109,learnblock1,771.5,img/planet4_right.png,4,Community 1,NA,TRUE,j,j,NA,NA,NA,1,6,"12,13,6,2,4,15,10,5,9,3,11,1,14,8,7"
14701,commdev-image-keyboard-response,308,605361,learnblock1,565.6999999284744,img/planet6_left.png,6,Community 1,NA,TRUE,f,f,NA,NA,NA,1,6,"12,13,6,2,4,15,10,5,9,3,11,1,14,8,7"
14701,commdev-image-keyboard-response,309,606613,learnblock1,807.5,img/planet4_left.png,4,Community 1,NA,TRUE,f,f,NA,NA,NA,1,6,"12,13,6,2,4,15,10,5,9,3,11,1,14,8,7"
14701,commdev-image-keyboard-response,310,607866,learnblock1,775.1000000238419,img/planet11_left.png,11,Community 3,NA,TRUE,f,f,NA,NA,NA,1,6,"12,13,6,2,4,15,10,5,9,3,11,1,14,8,7"
14701,commdev-image-keyboard-response,311,609120,learnblock1,612.0999999046326,img/planet14_right.png,14,Community 3,NA,TRUE,j,j,NA,NA,NA,1,6,"12,13,6,2,4,15,10,5,9,3,11,1,14,8,7"
14701,commdev-image-keyboard-response,312,610377,learnblock1,753.1999999284744,img/planet7_right.png,7,Community 3,NA,FALSE,f,j,NA,NA,NA,1,6,"12,13,6,2,4,15,10,5,9,3,11,1,14,8,7"
14701,commdev-image-keyboard-response,313,611629,learnblock1,624.8999999761581,img/planet14_right.png,14,Community 3,NA,TRUE,j,j,NA,NA,NA,1,6,"12,13,6,2,4,15,10,5,9,3,11,1,14,8,7"
14701,commdev-image-keyboard-response,314,612882,learnblock1,569,img/planet11_left.png,11,Community 3,NA,TRUE,f,f,NA,NA,NA,1,6,"12,13,6,2,4,15,10,5,9,3,11,1,14,8,7"
14701,commdev-image-keyboard-response,315,614134,learnblock1,752.1000000238419,img/planet14_left.png,14,Community 3,NA,FALSE,j,f,NA,NA,NA,1,6,"12,13,6,2,4,15,10,5,9,3,11,1,14,8,7"
14701,commdev-image-keyboard-response,316,615387,learnblock1,700.7000000476837,img/planet8_right.png,8,Community 3,NA,TRUE,j,j,NA,NA,NA,1,6,"12,13,6,2,4,15,10,5,9,3,11,1,14,8,7"
14701,commdev-image-keyboard-response,317,616640,learnblock1,648.5999999046326,img/planet1_left.png,1,Community 3,NA,TRUE,f,f,NA,NA,NA,1,6,"12,13,6,2,4,15,10,5,9,3,11,1,14,8,7"
14701,commdev-image-keyboard-response,318,617892,learnblock1,555.5,img/planet5_right.png,5,Community 2,NA,TRUE,j,j,NA,NA,NA,1,6,"12,13,6,2,4,15,10,5,9,3,11,1,14,8,7"
14701,commdev-image-keyboard-response,319,619144,learnblock1,486.7999999523163,img/planet10_left.png,10,Community 2,NA,TRUE,f,f,NA,NA,NA,1,6,"12,13,6,2,4,15,10,5,9,3,11,1,14,8,7"
14701,commdev-image-keyboard-response,320,620395,learnblock1,532.8999999761581,img/planet15_left.png,15,Community 2,NA,TRUE,f,f,NA,NA,NA,1,6,"12,13,6,2,4,15,10,5,9,3,11,1,14,8,7"
14701,commdev-image-keyboard-response,321,621647,learnblock1,685.4000000953674,img/planet9_right.png,9,Community 2,NA,TRUE,j,j,NA,NA,NA,1,6,"12,13,6,2,4,15,10,5,9,3,11,1,14,8,7"
14701,commdev-image-keyboard-response,322,622900,learnblock1,598.9000000953674,img/planet5_left.png,5,Community 2,NA,TRUE,f,f,NA,NA,NA,1,6,"12,13,6,2,4,15,10,5,9,3,11,1,14,8,7"
14701,commdev-image-keyboard-response,323,624152,learnblock1,553.3000000715256,img/planet9_right.png,9,Community 2,NA,FALSE,f,j,NA,NA,NA,1,6,"12,13,6,2,4,15,10,5,9,3,11,1,14,8,7"
14701,commdev-image-keyboard-response,324,625404,learnblock1,1135.8999999761581,img/planet15_right.png,15,Community 2,NA,TRUE,j,j,NA,NA,NA,1,6,"12,13,6,2,4,15,10,5,9,3,11,1,14,8,7"
14701,commdev-image-keyboard-response,325,626656,learnblock1,675,img/planet9_left.png,9,Community 2,NA,TRUE,f,f,NA,NA,NA,1,6,"12,13,6,2,4,15,10,5,9,3,11,1,14,8,7"
14701,commdev-image-keyboard-response,326,627909,learnblock1,833.6000000238419,img/planet15_right.png,15,Community 2,NA,TRUE,j,j,NA,NA,NA,1,6,"12,13,6,2,4,15,10,5,9,3,11,1,14,8,7"
14701,commdev-image-keyboard-response,327,629162,learnblock1,602.7999999523163,img/planet3_left.png,3,Community 2,NA,TRUE,f,f,NA,NA,NA,1,6,"12,13,6,2,4,15,10,5,9,3,11,1,14,8,7"
14701,commdev-image-keyboard-response,328,630413,learnblock1,738.7999999523163,img/planet9_left.png,9,Community 2,NA,FALSE,j,f,NA,NA,NA,1,6,"12,13,6,2,4,15,10,5,9,3,11,1,14,8,7"
14701,commdev-image-keyboard-response,329,631664,learnblock1,773.5,img/planet5_right.png,5,Community 2,NA,TRUE,j,j,NA,NA,NA,1,6,"12,13,6,2,4,15,10,5,9,3,11,1,14,8,7"
14701,commdev-image-keyboard-response,330,632917,learnblock1,574.8999999761581,img/planet9_left.png,9,Community 2,NA,TRUE,f,f,NA,NA,NA,1,6,"12,13,6,2,4,15,10,5,9,3,11,1,14,8,7"
14701,commdev-image-keyboard-response,331,634169,learnblock1,525.7000000476837,img/planet10_left.png,10,Community 2,NA,TRUE,f,f,NA,NA,NA,1,6,"12,13,6,2,4,15,10,5,9,3,11,1,14,8,7"
14701,commdev-image-keyboard-response,332,635422,learnblock1,628,img/planet3_left.png,3,Community 2,NA,FALSE,j,f,NA,NA,NA,1,6,"12,13,6,2,4,15,10,5,9,3,11,1,14,8,7"
14701,commdev-image-keyboard-response,333,636674,learnblock1,670.1000000238419,img/planet10_right.png,10,Community 2,NA,TRUE,j,j,NA,NA,NA,1,6,"12,13,6,2,4,15,10,5,9,3,11,1,14,8,7"
14701,commdev-image-keyboard-response,334,637927,learnblock1,729.7000000476837,img/planet15_right.png,15,Community 2,NA,TRUE,j,j,NA,NA,NA,1,6,"12,13,6,2,4,15,10,5,9,3,11,1,14,8,7"
14701,commdev-image-keyboard-response,335,639179,learnblock1,886.2999999523163,img/planet3_left.png,3,Community 2,NA,FALSE,j,f,NA,NA,NA,1,6,"12,13,6,2,4,15,10,5,9,3,11,1,14,8,7"
14701,commdev-image-keyboard-response,336,640431,learnblock1,1118.6000000238419,img/planet9_left.png,9,Community 2,NA,FALSE,j,f,NA,NA,NA,1,6,"12,13,6,2,4,15,10,5,9,3,11,1,14,8,7"
14701,commdev-image-keyboard-response,337,641683,learnblock1,1090.1999999284744,img/planet10_left.png,10,Community 2,NA,TRUE,f,f,NA,NA,NA,1,6,"12,13,6,2,4,15,10,5,9,3,11,1,14,8,7"
14701,commdev-image-keyboard-response,338,642935,learnblock1,630.1000000238419,img/planet5_left.png,5,Community 2,NA,TRUE,f,f,NA,NA,NA,1,6,"12,13,6,2,4,15,10,5,9,3,11,1,14,8,7"
14701,commdev-image-keyboard-response,339,644188,learnblock1,577.3000000715256,img/planet3_right.png,3,Community 2,NA,TRUE,j,j,NA,NA,NA,1,6,"12,13,6,2,4,15,10,5,9,3,11,1,14,8,7"
14701,commdev-image-keyboard-response,340,645441,learnblock1,578.8000000715256,img/planet10_left.png,10,Community 2,NA,TRUE,f,f,NA,NA,NA,1,6,"12,13,6,2,4,15,10,5,9,3,11,1,14,8,7"
14701,commdev-image-keyboard-response,341,646693,learnblock1,449.8000000715256,img/planet9_right.png,9,Community 2,NA,TRUE,j,j,NA,NA,NA,1,6,"12,13,6,2,4,15,10,5,9,3,11,1,14,8,7"
14701,commdev-image-keyboard-response,342,647945,learnblock1,515,img/planet15_left.png,15,Community 2,NA,TRUE,f,f,NA,NA,NA,1,6,"12,13,6,2,4,15,10,5,9,3,11,1,14,8,7"
14701,commdev-image-keyboard-response,343,649197,learnblock1,750.2000000476837,img/planet3_left.png,3,Community 2,NA,TRUE,f,f,NA,NA,NA,1,6,"12,13,6,2,4,15,10,5,9,3,11,1,14,8,7"
14701,commdev-image-keyboard-response,344,650451,learnblock1,749.7000000476837,img/planet9_right.png,9,Community 2,NA,TRUE,j,j,NA,NA,NA,1,6,"12,13,6,2,4,15,10,5,9,3,11,1,14,8,7"
14701,commdev-image-keyboard-response,345,651703,learnblock1,883,img/planet5_right.png,5,Community 2,NA,TRUE,j,j,NA,NA,NA,1,6,"12,13,6,2,4,15,10,5,9,3,11,1,14,8,7"
14701,commdev-image-keyboard-response,346,652960,learnblock1,522.6000000238419,img/planet10_left.png,10,Community 2,NA,TRUE,f,f,NA,NA,NA,1,6,"12,13,6,2,4,15,10,5,9,3,11,1,14,8,7"
14701,commdev-image-keyboard-response,347,654213,learnblock1,883.5,img/planet9_left.png,9,Community 2,NA,TRUE,f,f,NA,NA,NA,1,6,"12,13,6,2,4,15,10,5,9,3,11,1,14,8,7"
14701,commdev-image-keyboard-response,351,677364,learnblock2,784.6000000238419,img/planet8_right.png,8,Community 3,NA,TRUE,j,j,NA,NA,NA,1,6,"12,13,6,2,4,15,10,5,9,3,11,1,14,8,7"
14701,commdev-image-keyboard-response,352,678617,learnblock2,641.6000000238419,img/planet7_left.png,7,Community 3,NA,TRUE,f,f,NA,NA,NA,1,6,"12,13,6,2,4,15,10,5,9,3,11,1,14,8,7"
14701,commdev-image-keyboard-response,353,679869,learnblock2,561.8999999761581,img/planet1_right.png,1,Community 3,NA,TRUE,j,j,NA,NA,NA,1,6,"12,13,6,2,4,15,10,5,9,3,11,1,14,8,7"
14701,commdev-image-keyboard-response,354,681122,learnblock2,825.2999999523163,img/planet7_left.png,7,Community 3,NA,FALSE,j,f,NA,NA,NA,1,6,"12,13,6,2,4,15,10,5,9,3,11,1,14,8,7"
14701,commdev-image-keyboard-response,355,682373,learnblock2,933.7000000476837,img/planet11_left.png,11,Community 3,NA,TRUE,f,f,NA,NA,NA,1,6,"12,13,6,2,4,15,10,5,9,3,11,1,14,8,7"
14701,commdev-image-keyboard-response,356,683625,learnblock2,626.2000000476837,img/planet14_right.png,14,Community 3,NA,TRUE,j,j,NA,NA,NA,1,6,"12,13,6,2,4,15,10,5,9,3,11,1,14,8,7"
14701,commdev-image-keyboard-response,357,684876,learnblock2,550.1000000238419,img/planet1_left.png,1,Community 3,NA,TRUE,f,f,NA,NA,NA,1,6,"12,13,6,2,4,15,10,5,9,3,11,1,14,8,7"
14701,commdev-image-keyboard-response,358,686130,learnblock2,611.8999999761581,img/planet8_right.png,8,Community 3,NA,TRUE,j,j,NA,NA,NA,1,6,"12,13,6,2,4,15,10,5,9,3,11,1,14,8,7"
14701,commdev-image-keyboard-response,359,687382,learnblock2,749.5,img/planet14_right.png,14,Community 3,NA,TRUE,j,j,NA,NA,NA,1,6,"12,13,6,2,4,15,10,5,9,3,11,1,14,8,7"
14701,commdev-image-keyboard-response,360,688634,learnblock2,830,img/planet7_right.png,7,Community 3,NA,TRUE,j,j,NA,NA,NA,1,6,"12,13,6,2,4,15,10,5,9,3,11,1,14,8,7"
14701,commdev-image-keyboard-response,361,689885,learnblock2,963.2000000476837,img/planet8_right.png,8,Community 3,NA,FALSE,f,j,NA,NA,NA,1,6,"12,13,6,2,4,15,10,5,9,3,11,1,14,8,7"
14701,commdev-image-keyboard-response,362,691137,learnblock2,753.3000000715256,img/planet7_left.png,7,Community 3,NA,TRUE,f,f,NA,NA,NA,1,6,"12,13,6,2,4,15,10,5,9,3,11,1,14,8,7"
14701,commdev-image-keyboard-response,363,692388,learnblock2,872.6000000238419,img/planet8_left.png,8,Community 3,NA,FALSE,j,f,NA,NA,NA,1,6,"12,13,6,2,4,15,10,5,9,3,11,1,14,8,7"
14701,commdev-image-keyboard-response,364,693640,learnblock2,1140.3000000715256,img/planet11_right.png,11,Community 3,NA,TRUE,j,j,NA,NA,NA,1,6,"12,13,6,2,4,15,10,5,9,3,11,1,14,8,7"
14701,commdev-image-keyboard-response,365,694893,learnblock2,1043.2000000476837,img/planet8_right.png,8,Community 3,NA,FALSE,f,j,NA,NA,NA,1,6,"12,13,6,2,4,15,10,5,9,3,11,1,14,8,7"
14701,commdev-image-keyboard-response,366,696145,learnblock2,992.1999999284744,img/planet7_right.png,7,Community 3,NA,FALSE,f,j,NA,NA,NA,1,6,"12,13,6,2,4,15,10,5,9,3,11,1,14,8,7"
14701,commdev-image-keyboard-response,367,697399,learnblock2,720.8000000715256,img/planet11_right.png,11,Community 3,NA,TRUE,j,j,NA,NA,NA,1,6,"12,13,6,2,4,15,10,5,9,3,11,1,14,8,7"
14701,commdev-image-keyboard-response,368,698651,learnblock2,857.6999999284744,img/planet7_right.png,7,Community 3,NA,FALSE,f,j,NA,NA,NA,1,6,"12,13,6,2,4,15,10,5,9,3,11,1,14,8,7"
14701,commdev-image-keyboard-response,369,699909,learnblock2,930,img/planet8_left.png,8,Community 3,NA,FALSE,j,f,NA,NA,NA,1,6,"12,13,6,2,4,15,10,5,9,3,11,1,14,8,7"
14701,commdev-image-keyboard-response,370,701161,learnblock2,1013.1000000238419,img/planet1_left.png,1,Community 3,NA,TRUE,f,f,NA,NA,NA,1,6,"12,13,6,2,4,15,10,5,9,3,11,1,14,8,7"
14701,commdev-image-keyboard-response,371,702412,learnblock2,600.3999999761581,img/planet14_right.png,14,Community 3,NA,TRUE,j,j,NA,NA,NA,1,6,"12,13,6,2,4,15,10,5,9,3,11,1,14,8,7"
14701,commdev-image-keyboard-response,372,703665,learnblock2,771.8999999761581,img/planet7_left.png,7,Community 3,NA,TRUE,f,f,NA,NA,NA,1,6,"12,13,6,2,4,15,10,5,9,3,11,1,14,8,7"
14701,commdev-image-keyboard-response,373,704917,learnblock2,922.5999999046326,img/planet14_left.png,14,Community 3,NA,FALSE,j,f,NA,NA,NA,1,6,"12,13,6,2,4,15,10,5,9,3,11,1,14,8,7"
14701,commdev-image-keyboard-response,374,706169,learnblock2,780.8999999761581,img/planet1_right.png,1,Community 3,NA,TRUE,j,j,NA,NA,NA,1,6,"12,13,6,2,4,15,10,5,9,3,11,1,14,8,7"
14701,commdev-image-keyboard-response,375,707422,learnblock2,894.5,img/planet7_right.png,7,Community 3,NA,FALSE,f,j,NA,NA,NA,1,6,"12,13,6,2,4,15,10,5,9,3,11,1,14,8,7"
14701,commdev-image-keyboard-response,376,708675,learnblock2,964,img/planet14_right.png,14,Community 3,NA,FALSE,f,j,NA,NA,NA,1,6,"12,13,6,2,4,15,10,5,9,3,11,1,14,8,7"
14701,commdev-image-keyboard-response,377,709928,learnblock2,1012.3999999761581,img/planet7_left.png,7,Community 3,NA,TRUE,f,f,NA,NA,NA,1,6,"12,13,6,2,4,15,10,5,9,3,11,1,14,8,7"
14701,commdev-image-keyboard-response,378,711181,learnblock2,704.8999999761581,img/planet1_right.png,1,Community 3,NA,TRUE,j,j,NA,NA,NA,1,6,"12,13,6,2,4,15,10,5,9,3,11,1,14,8,7"
14701,commdev-image-keyboard-response,379,712434,learnblock2,709.5,img/planet14_left.png,14,Community 3,NA,TRUE,f,f,NA,NA,NA,1,6,"12,13,6,2,4,15,10,5,9,3,11,1,14,8,7"
14701,commdev-image-keyboard-response,380,713686,learnblock2,802.6999999284744,img/planet7_left.png,7,Community 3,NA,FALSE,j,f,NA,NA,NA,1,6,"12,13,6,2,4,15,10,5,9,3,11,1,14,8,7"
14701,commdev-image-keyboard-response,381,714939,learnblock2,1087.0999999046326,img/planet14_left.png,14,Community 3,NA,TRUE,f,f,NA,NA,NA,1,6,"12,13,6,2,4,15,10,5,9,3,11,1,14,8,7"
14701,commdev-image-keyboard-response,382,716191,learnblock2,637.2999999523163,img/planet1_left.png,1,Community 3,NA,TRUE,f,f,NA,NA,NA,1,6,"12,13,6,2,4,15,10,5,9,3,11,1,14,8,7"
14701,commdev-image-keyboard-response,383,717442,learnblock2,883.2000000476837,img/planet5_left.png,5,Community 2,NA,TRUE,f,f,NA,NA,NA,1,6,"12,13,6,2,4,15,10,5,9,3,11,1,14,8,7"
14701,commdev-image-keyboard-response,384,718695,learnblock2,847.1000000238419,img/planet10_right.png,10,Community 2,NA,TRUE,j,j,NA,NA,NA,1,6,"12,13,6,2,4,15,10,5,9,3,11,1,14,8,7"
14701,commdev-image-keyboard-response,385,719947,learnblock2,879.8999999761581,img/planet9_left.png,9,Community 2,NA,TRUE,f,f,NA,NA,NA,1,6,"12,13,6,2,4,15,10,5,9,3,11,1,14,8,7"
14701,commdev-image-keyboard-response,386,721200,learnblock2,651,img/planet10_right.png,10,Community 2,NA,TRUE,j,j,NA,NA,NA,1,6,"12,13,6,2,4,15,10,5,9,3,11,1,14,8,7"
14701,commdev-image-keyboard-response,387,722451,learnblock2,1138.5,img/planet15_right.png,15,Community 2,NA,TRUE,j,j,NA,NA,NA,1,6,"12,13,6,2,4,15,10,5,9,3,11,1,14,8,7"
14701,commdev-image-keyboard-response,388,723703,learnblock2,1169.8000000715256,img/planet9_right.png,9,Community 2,NA,FALSE,f,j,NA,NA,NA,1,6,"12,13,6,2,4,15,10,5,9,3,11,1,14,8,7"
14701,commdev-image-keyboard-response,389,724956,learnblock2,1201.1000000238419,img/planet5_left.png,5,Community 2,NA,TRUE,f,f,NA,NA,NA,1,6,"12,13,6,2,4,15,10,5,9,3,11,1,14,8,7"
14701,commdev-image-keyboard-response,390,726208,learnblock2,900.8000000715256,img/planet3_left.png,3,Community 2,NA,TRUE,f,f,NA,NA,NA,1,6,"12,13,6,2,4,15,10,5,9,3,11,1,14,8,7"
14701,commdev-image-keyboard-response,391,727462,learnblock2,859,img/planet15_right.png,15,Community 2,NA,TRUE,j,j,NA,NA,NA,1,6,"12,13,6,2,4,15,10,5,9,3,11,1,14,8,7"
14701,commdev-image-keyboard-response,392,728714,learnblock2,787.6000000238419,img/planet3_right.png,3,Community 2,NA,TRUE,j,j,NA,NA,NA,1,6,"12,13,6,2,4,15,10,5,9,3,11,1,14,8,7"
14701,commdev-image-keyboard-response,393,729966,learnblock2,610.2999999523163,img/planet15_left.png,15,Community 2,NA,TRUE,f,f,NA,NA,NA,1,6,"12,13,6,2,4,15,10,5,9,3,11,1,14,8,7"
14701,commdev-image-keyboard-response,394,731218,learnblock2,609.6000000238419,img/planet2_left.png,2,Community 1,NA,TRUE,f,f,NA,NA,NA,1,6,"12,13,6,2,4,15,10,5,9,3,11,1,14,8,7"
14701,commdev-image-keyboard-response,395,732470,learnblock2,731,img/planet15_left.png,15,Community 2,NA,TRUE,f,f,NA,NA,NA,1,6,"12,13,6,2,4,15,10,5,9,3,11,1,14,8,7"
14701,commdev-image-keyboard-response,396,733722,learnblock2,861.9000000953674,img/planet9_left.png,9,Community 2,NA,TRUE,f,f,NA,NA,NA,1,6,"12,13,6,2,4,15,10,5,9,3,11,1,14,8,7"
14701,commdev-image-keyboard-response,397,734974,learnblock2,707.6999999284744,img/planet15_left.png,15,Community 2,NA,TRUE,f,f,NA,NA,NA,1,6,"12,13,6,2,4,15,10,5,9,3,11,1,14,8,7"
14701,commdev-image-keyboard-response,398,736227,learnblock2,756.4000000953674,img/planet3_left.png,3,Community 2,NA,TRUE,f,f,NA,NA,NA,1,6,"12,13,6,2,4,15,10,5,9,3,11,1,14,8,7"
14701,commdev-image-keyboard-response,399,737479,learnblock2,790,img/planet9_left.png,9,Community 2,NA,TRUE,f,f,NA,NA,NA,1,6,"12,13,6,2,4,15,10,5,9,3,11,1,14,8,7"
14701,commdev-image-keyboard-response,400,738732,learnblock2,684.3999999761581,img/planet3_left.png,3,Community 2,NA,TRUE,f,f,NA,NA,NA,1,6,"12,13,6,2,4,15,10,5,9,3,11,1,14,8,7"
14701,commdev-image-keyboard-response,401,739984,learnblock2,960.3000000715256,img/planet15_left.png,15,Community 2,NA,TRUE,f,f,NA,NA,NA,1,6,"12,13,6,2,4,15,10,5,9,3,11,1,14,8,7"
14701,commdev-image-keyboard-response,402,741236,learnblock2,575.6000000238419,img/planet10_right.png,10,Community 2,NA,TRUE,j,j,NA,NA,NA,1,6,"12,13,6,2,4,15,10,5,9,3,11,1,14,8,7"
14701,commdev-image-keyboard-response,403,742489,learnblock2,591.3999999761581,img/planet9_left.png,9,Community 2,NA,TRUE,f,f,NA,NA,NA,1,6,"12,13,6,2,4,15,10,5,9,3,11,1,14,8,7"
14701,commdev-image-keyboard-response,404,743740,learnblock2,617.3000000715256,img/planet10_left.png,10,Community 2,NA,TRUE,f,f,NA,NA,NA,1,6,"12,13,6,2,4,15,10,5,9,3,11,1,14,8,7"
14701,commdev-image-keyboard-response,405,744992,learnblock2,658.2999999523163,img/planet3_left.png,3,Community 2,NA,TRUE,f,f,NA,NA,NA,1,6,"12,13,6,2,4,15,10,5,9,3,11,1,14,8,7"
14701,commdev-image-keyboard-response,406,746249,learnblock2,644.2000000476837,img/planet9_left.png,9,Community 2,NA,TRUE,f,f,NA,NA,NA,1,6,"12,13,6,2,4,15,10,5,9,3,11,1,14,8,7"
14701,commdev-image-keyboard-response,407,747500,learnblock2,583,img/planet15_left.png,15,Community 2,NA,TRUE,f,f,NA,NA,NA,1,6,"12,13,6,2,4,15,10,5,9,3,11,1,14,8,7"
14701,commdev-image-keyboard-response,408,748753,learnblock2,907.1000000238419,img/planet9_right.png,9,Community 2,NA,TRUE,j,j,NA,NA,NA,1,6,"12,13,6,2,4,15,10,5,9,3,11,1,14,8,7"
14701,commdev-image-keyboard-response,409,750005,learnblock2,622.8000000715256,img/planet10_right.png,10,Community 2,NA,TRUE,j,j,NA,NA,NA,1,6,"12,13,6,2,4,15,10,5,9,3,11,1,14,8,7"
14701,commdev-image-keyboard-response,410,751256,learnblock2,1029.7999999523163,img/planet3_left.png,3,Community 2,NA,TRUE,f,f,NA,NA,NA,1,6,"12,13,6,2,4,15,10,5,9,3,11,1,14,8,7"
14701,commdev-image-keyboard-response,411,752508,learnblock2,697.6000000238419,img/planet5_right.png,5,Community 2,NA,TRUE,j,j,NA,NA,NA,1,6,"12,13,6,2,4,15,10,5,9,3,11,1,14,8,7"
14701,commdev-image-keyboard-response,412,753761,learnblock2,610.2000000476837,img/planet1_left.png,1,Community 3,NA,TRUE,f,f,NA,NA,NA,1,6,"12,13,6,2,4,15,10,5,9,3,11,1,14,8,7"
14701,commdev-image-keyboard-response,413,755013,learnblock2,803.9000000953674,img/planet7_right.png,7,Community 3,NA,TRUE,j,j,NA,NA,NA,1,6,"12,13,6,2,4,15,10,5,9,3,11,1,14,8,7"
14701,commdev-image-keyboard-response,414,756266,learnblock2,1137.5,img/planet8_left.png,8,Community 3,NA,TRUE,f,f,NA,NA,NA,1,6,"12,13,6,2,4,15,10,5,9,3,11,1,14,8,7"
14701,commdev-image-keyboard-response,415,757518,learnblock2,956.7999999523163,img/planet14_right.png,14,Community 3,NA,TRUE,j,j,NA,NA,NA,1,6,"12,13,6,2,4,15,10,5,9,3,11,1,14,8,7"
14701,commdev-image-keyboard-response,416,758770,learnblock2,957.8000000715256,img/planet11_right.png,11,Community 3,NA,FALSE,f,j,NA,NA,NA,1,6,"12,13,6,2,4,15,10,5,9,3,11,1,14,8,7"
14701,commdev-image-keyboard-response,417,760021,learnblock2,null,img/planet8_right.png,8,Community 3,NA,FALSE,null,j,NA,NA,NA,1,6,"12,13,6,2,4,15,10,5,9,3,11,1,14,8,7"
14701,commdev-image-keyboard-response,418,761273,learnblock2,18.600000023841858,img/planet14_left.png,14,Community 3,NA,TRUE,f,f,NA,NA,NA,1,6,"12,13,6,2,4,15,10,5,9,3,11,1,14,8,7"
14701,commdev-image-keyboard-response,419,762526,learnblock2,936.6000000238419,img/planet7_left.png,7,Community 3,NA,FALSE,j,f,NA,NA,NA,1,6,"12,13,6,2,4,15,10,5,9,3,11,1,14,8,7"
14701,commdev-image-keyboard-response,420,763779,learnblock2,807.8000000715256,img/planet1_right.png,1,Community 3,NA,TRUE,j,j,NA,NA,NA,1,6,"12,13,6,2,4,15,10,5,9,3,11,1,14,8,7"
14701,commdev-image-keyboard-response,421,765032,learnblock2,873.3999999761581,img/planet7_right.png,7,Community 3,NA,FALSE,f,j,NA,NA,NA,1,6,"12,13,6,2,4,15,10,5,9,3,11,1,14,8,7"
14701,commdev-image-keyboard-response,422,766285,learnblock2,788.8999999761581,img/planet14_left.png,14,Community 3,NA,FALSE,j,f,NA,NA,NA,1,6,"12,13,6,2,4,15,10,5,9,3,11,1,14,8,7"
14701,commdev-image-keyboard-response,423,767537,learnblock2,673.8000000715256,img/planet11_left.png,11,Community 3,NA,TRUE,f,f,NA,NA,NA,1,6,"12,13,6,2,4,15,10,5,9,3,11,1,14,8,7"
14701,commdev-image-keyboard-response,424,768789,learnblock2,674.5999999046326,img/planet8_left.png,8,Community 3,NA,FALSE,j,f,NA,NA,NA,1,6,"12,13,6,2,4,15,10,5,9,3,11,1,14,8,7"
14701,commdev-image-keyboard-response,425,770041,learnblock2,762.0999999046326,img/planet11_left.png,11,Community 3,NA,TRUE,f,f,NA,NA,NA,1,6,"12,13,6,2,4,15,10,5,9,3,11,1,14,8,7"
14701,commdev-image-keyboard-response,426,771293,learnblock2,796.2000000476837,img/planet7_right.png,7,Community 3,NA,TRUE,j,j,NA,NA,NA,1,6,"12,13,6,2,4,15,10,5,9,3,11,1,14,8,7"
14701,commdev-image-keyboard-response,427,772545,learnblock2,786.2999999523163,img/planet14_left.png,14,Community 3,NA,FALSE,j,f,NA,NA,NA,1,6,"12,13,6,2,4,15,10,5,9,3,11,1,14,8,7"
14701,commdev-image-keyboard-response,428,773798,learnblock2,1157.8999999761581,img/planet1_left.png,1,Community 3,NA,TRUE,f,f,NA,NA,NA,1,6,"12,13,6,2,4,15,10,5,9,3,11,1,14,8,7"
14701,commdev-image-keyboard-response,429,775050,learnblock2,973.7999999523163,img/planet5_left.png,5,Community 2,NA,TRUE,f,f,NA,NA,NA,1,6,"12,13,6,2,4,15,10,5,9,3,11,1,14,8,7"
14701,commdev-image-keyboard-response,430,776303,learnblock2,723.1000000238419,img/planet1_left.png,1,Community 3,NA,TRUE,f,f,NA,NA,NA,1,6,"12,13,6,2,4,15,10,5,9,3,11,1,14,8,7"
14701,commdev-image-keyboard-response,431,777555,learnblock2,624.7000000476837,img/planet5_right.png,5,Community 2,NA,TRUE,j,j,NA,NA,NA,1,6,"12,13,6,2,4,15,10,5,9,3,11,1,14,8,7"
14701,commdev-image-keyboard-response,432,778808,learnblock2,612,img/planet10_left.png,10,Community 2,NA,TRUE,f,f,NA,NA,NA,1,6,"12,13,6,2,4,15,10,5,9,3,11,1,14,8,7"
14701,commdev-image-keyboard-response,433,780060,learnblock2,960.2999999523163,img/planet9_left.png,9,Community 2,NA,TRUE,f,f,NA,NA,NA,1,6,"12,13,6,2,4,15,10,5,9,3,11,1,14,8,7"
14701,commdev-image-keyboard-response,434,781313,learnblock2,1028.1999999284744,img/planet3_right.png,3,Community 2,NA,FALSE,f,j,NA,NA,NA,1,6,"12,13,6,2,4,15,10,5,9,3,11,1,14,8,7"
14701,commdev-image-keyboard-response,435,782565,learnblock2,926.3999999761581,img/planet5_left.png,5,Community 2,NA,TRUE,f,f,NA,NA,NA,1,6,"12,13,6,2,4,15,10,5,9,3,11,1,14,8,7"
14701,commdev-image-keyboard-response,436,783818,learnblock2,626.8999999761581,img/planet1_left.png,1,Community 3,NA,TRUE,f,f,NA,NA,NA,1,6,"12,13,6,2,4,15,10,5,9,3,11,1,14,8,7"
14701,commdev-image-keyboard-response,437,785084,learnblock2,546.8999999761581,img/planet5_right.png,5,Community 2,NA,TRUE,j,j,NA,NA,NA,1,6,"12,13,6,2,4,15,10,5,9,3,11,1,14,8,7"
14701,commdev-image-keyboard-response,438,786336,learnblock2,782.5,img/planet9_right.png,9,Community 2,NA,FALSE,f,j,NA,NA,NA,1,6,"12,13,6,2,4,15,10,5,9,3,11,1,14,8,7"
14701,commdev-image-keyboard-response,439,787589,learnblock2,669.2000000476837,img/planet5_left.png,5,Community 2,NA,TRUE,f,f,NA,NA,NA,1,6,"12,13,6,2,4,15,10,5,9,3,11,1,14,8,7"
14701,commdev-image-keyboard-response,440,788841,learnblock2,831.7000000476837,img/planet9_left.png,9,Community 2,NA,TRUE,f,f,NA,NA,NA,1,6,"12,13,6,2,4,15,10,5,9,3,11,1,14,8,7"
14701,commdev-image-keyboard-response,441,790093,learnblock2,909.7999999523163,img/planet3_right.png,3,Community 2,NA,TRUE,j,j,NA,NA,NA,1,6,"12,13,6,2,4,15,10,5,9,3,11,1,14,8,7"
14701,commdev-image-keyboard-response,442,791345,learnblock2,834,img/planet9_right.png,9,Community 2,NA,FALSE,f,j,NA,NA,NA,1,6,"12,13,6,2,4,15,10,5,9,3,11,1,14,8,7"
14701,commdev-image-keyboard-response,443,792598,learnblock2,667.8000000715256,img/planet15_left.png,15,Community 2,NA,TRUE,f,f,NA,NA,NA,1,6,"12,13,6,2,4,15,10,5,9,3,11,1,14,8,7"
14701,commdev-image-keyboard-response,444,793850,learnblock2,638.3000000715256,img/planet3_left.png,3,Community 2,NA,TRUE,f,f,NA,NA,NA,1,6,"12,13,6,2,4,15,10,5,9,3,11,1,14,8,7"
14701,commdev-image-keyboard-response,445,795103,learnblock2,569.3000000715256,img/planet15_left.png,15,Community 2,NA,TRUE,f,f,NA,NA,NA,1,6,"12,13,6,2,4,15,10,5,9,3,11,1,14,8,7"
14701,commdev-image-keyboard-response,446,796355,learnblock2,645.5,img/planet10_left.png,10,Community 2,NA,TRUE,f,f,NA,NA,NA,1,6,"12,13,6,2,4,15,10,5,9,3,11,1,14,8,7"
14701,commdev-image-keyboard-response,447,797607,learnblock2,614.7999999523163,img/planet5_right.png,5,Community 2,NA,TRUE,j,j,NA,NA,NA,1,6,"12,13,6,2,4,15,10,5,9,3,11,1,14,8,7"
14701,commdev-image-keyboard-response,448,798859,learnblock2,845.6999999284744,img/planet3_right.png,3,Community 2,NA,FALSE,f,j,NA,NA,NA,1,6,"12,13,6,2,4,15,10,5,9,3,11,1,14,8,7"
14701,commdev-image-keyboard-response,449,800112,learnblock2,708.1999999284744,img/planet10_left.png,10,Community 2,NA,TRUE,f,f,NA,NA,NA,1,6,"12,13,6,2,4,15,10,5,9,3,11,1,14,8,7"
14701,commdev-image-keyboard-response,450,801365,learnblock2,555,img/planet5_right.png,5,Community 2,NA,TRUE,j,j,NA,NA,NA,1,6,"12,13,6,2,4,15,10,5,9,3,11,1,14,8,7"
14701,commdev-image-keyboard-response,451,802616,learnblock2,550,img/planet3_left.png,3,Community 2,NA,TRUE,f,f,NA,NA,NA,1,6,"12,13,6,2,4,15,10,5,9,3,11,1,14,8,7"
14701,commdev-image-keyboard-response,452,803869,learnblock2,752.6000000238419,img/planet9_right.png,9,Community 2,NA,FALSE,f,j,NA,NA,NA,1,6,"12,13,6,2,4,15,10,5,9,3,11,1,14,8,7"
14701,commdev-image-keyboard-response,453,805122,learnblock2,984.6000000238419,img/planet15_right.png,15,Community 2,NA,TRUE,j,j,NA,NA,NA,1,6,"12,13,6,2,4,15,10,5,9,3,11,1,14,8,7"
14701,commdev-image-keyboard-response,454,806375,learnblock2,855.5,img/planet3_left.png,3,Community 2,NA,TRUE,f,f,NA,NA,NA,1,6,"12,13,6,2,4,15,10,5,9,3,11,1,14,8,7"
14701,commdev-image-keyboard-response,455,807628,learnblock2,823.7000000476837,img/planet9_left.png,9,Community 2,NA,FALSE,j,f,NA,NA,NA,1,6,"12,13,6,2,4,15,10,5,9,3,11,1,14,8,7"
14701,commdev-image-keyboard-response,456,808880,learnblock2,875,img/planet5_right.png,5,Community 2,NA,FALSE,f,j,NA,NA,NA,1,6,"12,13,6,2,4,15,10,5,9,3,11,1,14,8,7"
14701,commdev-image-keyboard-response,457,810131,learnblock2,699.5,img/planet1_right.png,1,Community 3,NA,TRUE,j,j,NA,NA,NA,1,6,"12,13,6,2,4,15,10,5,9,3,11,1,14,8,7"
14701,commdev-image-keyboard-response,458,811384,learnblock2,699.5,img/planet14_right.png,14,Community 3,NA,TRUE,j,j,NA,NA,NA,1,6,"12,13,6,2,4,15,10,5,9,3,11,1,14,8,7"
14701,commdev-image-keyboard-response,459,812636,learnblock2,561.1000000238419,img/planet1_right.png,1,Community 3,NA,TRUE,j,j,NA,NA,NA,1,6,"12,13,6,2,4,15,10,5,9,3,11,1,14,8,7"
14701,commdev-image-keyboard-response,460,813888,learnblock2,717,img/planet7_right.png,7,Community 3,NA,FALSE,f,j,NA,NA,NA,1,6,"12,13,6,2,4,15,10,5,9,3,11,1,14,8,7"
14701,commdev-image-keyboard-response,461,815141,learnblock2,795.4000000953674,img/planet8_left.png,8,Community 3,NA,FALSE,j,f,NA,NA,NA,1,6,"12,13,6,2,4,15,10,5,9,3,11,1,14,8,7"
14701,commdev-image-keyboard-response,462,816393,learnblock2,1014.2000000476837,img/planet7_left.png,7,Community 3,NA,FALSE,j,f,NA,NA,NA,1,6,"12,13,6,2,4,15,10,5,9,3,11,1,14,8,7"
14701,commdev-image-keyboard-response,463,817646,learnblock2,741.0999999046326,img/planet11_left.png,11,Community 3,NA,TRUE,f,f,NA,NA,NA,1,6,"12,13,6,2,4,15,10,5,9,3,11,1,14,8,7"
14701,commdev-image-keyboard-response,464,818899,learnblock2,1074.6999999284744,img/planet8_left.png,8,Community 3,NA,FALSE,j,f,NA,NA,NA,1,6,"12,13,6,2,4,15,10,5,9,3,11,1,14,8,7"
14701,commdev-image-keyboard-response,465,820151,learnblock2,719,img/planet11_left.png,11,Community 3,NA,TRUE,f,f,NA,NA,NA,1,6,"12,13,6,2,4,15,10,5,9,3,11,1,14,8,7"
14701,commdev-image-keyboard-response,466,821403,learnblock2,951.8000000715256,img/planet7_left.png,7,Community 3,NA,TRUE,f,f,NA,NA,NA,1,6,"12,13,6,2,4,15,10,5,9,3,11,1,14,8,7"
14701,commdev-image-keyboard-response,467,822655,learnblock2,1215.6000000238419,img/planet11_right.png,11,Community 3,NA,FALSE,f,j,NA,NA,NA,1,6,"12,13,6,2,4,15,10,5,9,3,11,1,14,8,7"
14701,commdev-image-keyboard-response,468,823907,learnblock2,1218.8000000715256,img/planet14_right.png,14,Community 3,NA,TRUE,j,j,NA,NA,NA,1,6,"12,13,6,2,4,15,10,5,9,3,11,1,14,8,7"
14701,commdev-image-keyboard-response,469,825160,learnblock2,829.2000000476837,img/planet7_left.png,7,Community 3,NA,TRUE,f,f,NA,NA,NA,1,6,"12,13,6,2,4,15,10,5,9,3,11,1,14,8,7"
14701,commdev-image-keyboard-response,470,826412,learnblock2,667.8999999761581,img/planet11_left.png,11,Community 3,NA,TRUE,f,f,NA,NA,NA,1,6,"12,13,6,2,4,15,10,5,9,3,11,1,14,8,7"
14701,commdev-image-keyboard-response,471,827664,learnblock2,841.3999999761581,img/planet7_right.png,7,Community 3,NA,FALSE,f,j,NA,NA,NA,1,6,"12,13,6,2,4,15,10,5,9,3,11,1,14,8,7"
14701,commdev-image-keyboard-response,472,828916,learnblock2,726.3999999761581,img/planet14_left.png,14,Community 3,NA,TRUE,f,f,NA,NA,NA,1,6,"12,13,6,2,4,15,10,5,9,3,11,1,14,8,7"
14701,commdev-image-keyboard-response,473,830169,learnblock2,887.3999999761581,img/planet8_left.png,8,Community 3,NA,TRUE,f,f,NA,NA,NA,1,6,"12,13,6,2,4,15,10,5,9,3,11,1,14,8,7"
14701,commdev-image-keyboard-response,474,831422,learnblock2,630.2000000476837,img/planet1_right.png,1,Community 3,NA,TRUE,j,j,NA,NA,NA,1,6,"12,13,6,2,4,15,10,5,9,3,11,1,14,8,7"
14701,commdev-image-keyboard-response,475,832674,learnblock2,596.7999999523163,img/planet7_left.png,7,Community 3,NA,TRUE,f,f,NA,NA,NA,1,6,"12,13,6,2,4,15,10,5,9,3,11,1,14,8,7"
14701,commdev-image-keyboard-response,476,833925,learnblock2,623.3999999761581,img/planet11_left.png,11,Community 3,NA,TRUE,f,f,NA,NA,NA,1,6,"12,13,6,2,4,15,10,5,9,3,11,1,14,8,7"
14701,commdev-image-keyboard-response,477,835178,learnblock2,581.8999999761581,img/planet4_right.png,4,Community 1,NA,TRUE,j,j,NA,NA,NA,1,6,"12,13,6,2,4,15,10,5,9,3,11,1,14,8,7"
14701,commdev-image-keyboard-response,478,836431,learnblock2,515.8000000715256,img/planet11_left.png,11,Community 3,NA,TRUE,f,f,NA,NA,NA,1,6,"12,13,6,2,4,15,10,5,9,3,11,1,14,8,7"
14701,commdev-image-keyboard-response,479,837684,learnblock2,686.3000000715256,img/planet8_right.png,8,Community 3,NA,TRUE,j,j,NA,NA,NA,1,6,"12,13,6,2,4,15,10,5,9,3,11,1,14,8,7"
14701,commdev-image-keyboard-response,480,838936,learnblock2,506.6999999284744,img/planet1_left.png,1,Community 3,NA,TRUE,f,f,NA,NA,NA,1,6,"12,13,6,2,4,15,10,5,9,3,11,1,14,8,7"
14701,commdev-image-keyboard-response,481,840189,learnblock2,669.2000000476837,img/planet8_left.png,8,Community 3,NA,TRUE,f,f,NA,NA,NA,1,6,"12,13,6,2,4,15,10,5,9,3,11,1,14,8,7"
14701,commdev-image-keyboard-response,482,841441,learnblock2,622.7999999523163,img/planet14_right.png,14,Community 3,NA,TRUE,j,j,NA,NA,NA,1,6,"12,13,6,2,4,15,10,5,9,3,11,1,14,8,7"
14701,commdev-image-keyboard-response,483,842693,learnblock2,702.6000000238419,img/planet7_left.png,7,Community 3,NA,TRUE,f,f,NA,NA,NA,1,6,"12,13,6,2,4,15,10,5,9,3,11,1,14,8,7"
14701,commdev-image-keyboard-response,484,843946,learnblock2,807.2999999523163,img/planet14_left.png,14,Community 3,NA,TRUE,f,f,NA,NA,NA,1,6,"12,13,6,2,4,15,10,5,9,3,11,1,14,8,7"
14701,commdev-image-keyboard-response,485,845198,learnblock2,648.5,img/planet8_right.png,8,Community 3,NA,TRUE,j,j,NA,NA,NA,1,6,"12,13,6,2,4,15,10,5,9,3,11,1,14,8,7"
14701,commdev-image-keyboard-response,486,846450,learnblock2,781,img/planet1_right.png,1,Community 3,NA,TRUE,j,j,NA,NA,NA,1,6,"12,13,6,2,4,15,10,5,9,3,11,1,14,8,7"
14701,commdev-image-keyboard-response,487,847702,learnblock2,797.3999999761581,img/planet8_right.png,8,Community 3,NA,TRUE,j,j,NA,NA,NA,1,6,"12,13,6,2,4,15,10,5,9,3,11,1,14,8,7"
14701,commdev-image-keyboard-response,488,848955,learnblock2,783.2000000476837,img/planet11_right.png,11,Community 3,NA,TRUE,j,j,NA,NA,NA,1,6,"12,13,6,2,4,15,10,5,9,3,11,1,14,8,7"
14701,commdev-image-keyboard-response,489,850207,learnblock2,751.8000000715256,img/planet14_left.png,14,Community 3,NA,TRUE,f,f,NA,NA,NA,1,6,"12,13,6,2,4,15,10,5,9,3,11,1,14,8,7"
14701,commdev-image-keyboard-response,490,851459,learnblock2,548.8999999761581,img/planet11_left.png,11,Community 3,NA,TRUE,f,f,NA,NA,NA,1,6,"12,13,6,2,4,15,10,5,9,3,11,1,14,8,7"
14701,commdev-image-keyboard-response,491,852711,learnblock2,493.10000002384186,img/planet14_right.png,14,Community 3,NA,TRUE,j,j,NA,NA,NA,1,6,"12,13,6,2,4,15,10,5,9,3,11,1,14,8,7"
14701,commdev-image-keyboard-response,492,853975,learnblock2,501.5,img/planet1_left.png,1,Community 3,NA,TRUE,f,f,NA,NA,NA,1,6,"12,13,6,2,4,15,10,5,9,3,11,1,14,8,7"
14701,commdev-image-keyboard-response,493,855229,learnblock2,522.5999999046326,img/planet14_right.png,14,Community 3,NA,FALSE,f,j,NA,NA,NA,1,6,"12,13,6,2,4,15,10,5,9,3,11,1,14,8,7"
14701,commdev-image-keyboard-response,494,856480,learnblock2,702.6999999284744,img/planet1_left.png,1,Community 3,NA,TRUE,f,f,NA,NA,NA,1,6,"12,13,6,2,4,15,10,5,9,3,11,1,14,8,7"
14701,commdev-image-keyboard-response,495,857732,learnblock2,809.9000000953674,img/planet5_left.png,5,Community 2,NA,FALSE,j,f,NA,NA,NA,1,6,"12,13,6,2,4,15,10,5,9,3,11,1,14,8,7"
14701,commdev-image-keyboard-response,496,858985,learnblock2,634.5,img/planet1_left.png,1,Community 3,NA,TRUE,f,f,NA,NA,NA,1,6,"12,13,6,2,4,15,10,5,9,3,11,1,14,8,7"
14701,commdev-image-keyboard-response,497,860239,learnblock2,665.8999999761581,img/planet8_right.png,8,Community 3,NA,TRUE,j,j,NA,NA,NA,1,6,"12,13,6,2,4,15,10,5,9,3,11,1,14,8,7"
14701,commdev-image-keyboard-response,498,861491,learnblock2,575.2000000476837,img/planet14_left.png,14,Community 3,NA,TRUE,f,f,NA,NA,NA,1,6,"12,13,6,2,4,15,10,5,9,3,11,1,14,8,7"
14701,commdev-image-keyboard-response,499,862744,learnblock2,571,img/planet11_right.png,11,Community 3,NA,TRUE,j,j,NA,NA,NA,1,6,"12,13,6,2,4,15,10,5,9,3,11,1,14,8,7"
14701,commdev-image-keyboard-response,500,863996,learnblock2,735.9000000953674,img/planet14_left.png,14,Community 3,NA,TRUE,f,f,NA,NA,NA,1,6,"12,13,6,2,4,15,10,5,9,3,11,1,14,8,7"
14701,commdev-image-keyboard-response,501,865249,learnblock2,766.6000000238419,img/planet7_left.png,7,Community 3,NA,TRUE,f,f,NA,NA,NA,1,6,"12,13,6,2,4,15,10,5,9,3,11,1,14,8,7"
14701,commdev-image-keyboard-response,502,866500,learnblock2,996.1000000238419,img/planet8_left.png,8,Community 3,NA,TRUE,f,f,NA,NA,NA,1,6,"12,13,6,2,4,15,10,5,9,3,11,1,14,8,7"
14701,commdev-image-keyboard-response,503,867752,learnblock2,550.6999999284744,img/planet11_right.png,11,Community 3,NA,TRUE,j,j,NA,NA,NA,1,6,"12,13,6,2,4,15,10,5,9,3,11,1,14,8,7"
14701,commdev-image-keyboard-response,504,869005,learnblock2,710,img/planet7_right.png,7,Community 3,NA,FALSE,f,j,NA,NA,NA,1,6,"12,13,6,2,4,15,10,5,9,3,11,1,14,8,7"
14701,commdev-image-keyboard-response,505,870260,learnblock2,604.5999999046326,img/planet1_right.png,1,Community 3,NA,TRUE,j,j,NA,NA,NA,1,6,"12,13,6,2,4,15,10,5,9,3,11,1,14,8,7"
14701,commdev-image-keyboard-response,506,871512,learnblock2,789,img/planet8_left.png,8,Community 3,NA,TRUE,f,f,NA,NA,NA,1,6,"12,13,6,2,4,15,10,5,9,3,11,1,14,8,7"
14701,commdev-image-keyboard-response,507,872764,learnblock2,813.2000000476837,img/planet14_right.png,14,Community 3,NA,TRUE,j,j,NA,NA,NA,1,6,"12,13,6,2,4,15,10,5,9,3,11,1,14,8,7"
14701,commdev-image-keyboard-response,508,874016,learnblock2,720.6000000238419,img/planet1_right.png,1,Community 3,NA,TRUE,j,j,NA,NA,NA,1,6,"12,13,6,2,4,15,10,5,9,3,11,1,14,8,7"
14701,commdev-image-keyboard-response,509,875269,learnblock2,675.8999999761581,img/planet5_right.png,5,Community 2,NA,TRUE,j,j,NA,NA,NA,1,6,"12,13,6,2,4,15,10,5,9,3,11,1,14,8,7"
14701,commdev-image-keyboard-response,510,876522,learnblock2,566.8999999761581,img/planet10_left.png,10,Community 2,NA,TRUE,f,f,NA,NA,NA,1,6,"12,13,6,2,4,15,10,5,9,3,11,1,14,8,7"
14701,commdev-image-keyboard-response,511,877775,learnblock2,630.5,img/planet15_right.png,15,Community 2,NA,TRUE,j,j,NA,NA,NA,1,6,"12,13,6,2,4,15,10,5,9,3,11,1,14,8,7"
14701,commdev-image-keyboard-response,512,879026,learnblock2,767.5,img/planet2_right.png,2,Community 1,NA,TRUE,j,j,NA,NA,NA,1,6,"12,13,6,2,4,15,10,5,9,3,11,1,14,8,7"
14701,commdev-image-keyboard-response,513,880278,learnblock2,696.3000000715256,img/planet6_left.png,6,Community 1,NA,TRUE,f,f,NA,NA,NA,1,6,"12,13,6,2,4,15,10,5,9,3,11,1,14,8,7"
14701,commdev-image-keyboard-response,514,881539,learnblock2,697.5,img/planet13_left.png,13,Community 1,NA,TRUE,f,f,NA,NA,NA,1,6,"12,13,6,2,4,15,10,5,9,3,11,1,14,8,7"
14701,commdev-image-keyboard-response,515,882792,learnblock2,765.6000000238419,img/planet6_left.png,6,Community 1,NA,TRUE,f,f,NA,NA,NA,1,6,"12,13,6,2,4,15,10,5,9,3,11,1,14,8,7"
14701,commdev-image-keyboard-response,516,884045,learnblock2,723,img/planet13_left.png,13,Community 1,NA,TRUE,f,f,NA,NA,NA,1,6,"12,13,6,2,4,15,10,5,9,3,11,1,14,8,7"
14701,commdev-image-keyboard-response,517,885297,learnblock2,805.1000000238419,img/planet4_left.png,4,Community 1,NA,TRUE,f,f,NA,NA,NA,1,6,"12,13,6,2,4,15,10,5,9,3,11,1,14,8,7"
14701,commdev-image-keyboard-response,518,886549,learnblock2,965.1000000238419,img/planet12_left.png,12,Community 1,NA,TRUE,f,f,NA,NA,NA,1,6,"12,13,6,2,4,15,10,5,9,3,11,1,14,8,7"
14701,commdev-image-keyboard-response,519,887801,learnblock2,633.3999999761581,img/planet2_right.png,2,Community 1,NA,TRUE,j,j,NA,NA,NA,1,6,"12,13,6,2,4,15,10,5,9,3,11,1,14,8,7"
14701,commdev-image-keyboard-response,520,889053,learnblock2,955.7999999523163,img/planet12_left.png,12,Community 1,NA,TRUE,f,f,NA,NA,NA,1,6,"12,13,6,2,4,15,10,5,9,3,11,1,14,8,7"
14701,commdev-image-keyboard-response,521,890319,learnblock2,1072.6999999284744,img/planet6_right.png,6,Community 1,NA,FALSE,f,j,NA,NA,NA,1,6,"12,13,6,2,4,15,10,5,9,3,11,1,14,8,7"
14701,commdev-image-keyboard-response,522,891573,learnblock2,773.4000000953674,img/planet4_right.png,4,Community 1,NA,TRUE,j,j,NA,NA,NA,1,6,"12,13,6,2,4,15,10,5,9,3,11,1,14,8,7"
14701,commdev-image-keyboard-response,523,892830,learnblock2,572.3999999761581,img/planet13_right.png,13,Community 1,NA,TRUE,j,j,NA,NA,NA,1,6,"12,13,6,2,4,15,10,5,9,3,11,1,14,8,7"
14701,commdev-image-keyboard-response,524,894082,learnblock2,638.7000000476837,img/planet4_right.png,4,Community 1,NA,TRUE,j,j,NA,NA,NA,1,6,"12,13,6,2,4,15,10,5,9,3,11,1,14,8,7"
14701,commdev-image-keyboard-response,525,895334,learnblock2,1022.6999999284744,img/planet12_left.png,12,Community 1,NA,FALSE,j,f,NA,NA,NA,1,6,"12,13,6,2,4,15,10,5,9,3,11,1,14,8,7"
14701,commdev-image-keyboard-response,526,896587,learnblock2,1188.3999999761581,img/planet13_left.png,13,Community 1,NA,TRUE,f,f,NA,NA,NA,1,6,"12,13,6,2,4,15,10,5,9,3,11,1,14,8,7"
14701,commdev-image-keyboard-response,527,897839,learnblock2,961.7999999523163,img/planet6_right.png,6,Community 1,NA,TRUE,j,j,NA,NA,NA,1,6,"12,13,6,2,4,15,10,5,9,3,11,1,14,8,7"
14701,commdev-image-keyboard-response,528,899090,learnblock2,646.2999999523163,img/planet2_right.png,2,Community 1,NA,TRUE,j,j,NA,NA,NA,1,6,"12,13,6,2,4,15,10,5,9,3,11,1,14,8,7"
14701,commdev-image-keyboard-response,529,900342,learnblock2,782.7999999523163,img/planet13_right.png,13,Community 1,NA,TRUE,j,j,NA,NA,NA,1,6,"12,13,6,2,4,15,10,5,9,3,11,1,14,8,7"
14701,commdev-image-keyboard-response,530,901594,learnblock2,596,img/planet2_right.png,2,Community 1,NA,TRUE,j,j,NA,NA,NA,1,6,"12,13,6,2,4,15,10,5,9,3,11,1,14,8,7"
14701,commdev-image-keyboard-response,531,902845,learnblock2,729.5999999046326,img/planet15_left.png,15,Community 2,NA,TRUE,f,f,NA,NA,NA,1,6,"12,13,6,2,4,15,10,5,9,3,11,1,14,8,7"
14701,commdev-image-keyboard-response,532,904097,learnblock2,888.6999999284744,img/planet3_right.png,3,Community 2,NA,FALSE,f,j,NA,NA,NA,1,6,"12,13,6,2,4,15,10,5,9,3,11,1,14,8,7"
14701,commdev-image-keyboard-response,533,905350,learnblock2,1060,img/planet15_right.png,15,Community 2,NA,TRUE,j,j,NA,NA,NA,1,6,"12,13,6,2,4,15,10,5,9,3,11,1,14,8,7"
14701,commdev-image-keyboard-response,534,906602,learnblock2,977.7999999523163,img/planet10_right.png,10,Community 2,NA,FALSE,f,j,NA,NA,NA,1,6,"12,13,6,2,4,15,10,5,9,3,11,1,14,8,7"
14701,commdev-image-keyboard-response,535,907853,learnblock2,927.8999999761581,img/planet5_right.png,5,Community 2,NA,TRUE,j,j,NA,NA,NA,1,6,"12,13,6,2,4,15,10,5,9,3,11,1,14,8,7"
14701,commdev-image-keyboard-response,536,909108,learnblock2,858.2000000476837,img/planet10_right.png,10,Community 2,NA,FALSE,f,j,NA,NA,NA,1,6,"12,13,6,2,4,15,10,5,9,3,11,1,14,8,7"
14701,commdev-image-keyboard-response,537,910360,learnblock2,747.2999999523163,img/planet5_right.png,5,Community 2,NA,TRUE,j,j,NA,NA,NA,1,6,"12,13,6,2,4,15,10,5,9,3,11,1,14,8,7"
14701,commdev-image-keyboard-response,538,911613,learnblock2,717.8999999761581,img/planet9_right.png,9,Community 2,NA,TRUE,j,j,NA,NA,NA,1,6,"12,13,6,2,4,15,10,5,9,3,11,1,14,8,7"
14701,commdev-image-keyboard-response,539,912879,learnblock2,533.8999999761581,img/planet10_left.png,10,Community 2,NA,TRUE,f,f,NA,NA,NA,1,6,"12,13,6,2,4,15,10,5,9,3,11,1,14,8,7"
14701,commdev-image-keyboard-response,540,914133,learnblock2,831.8999999761581,img/planet5_right.png,5,Community 2,NA,TRUE,j,j,NA,NA,NA,1,6,"12,13,6,2,4,15,10,5,9,3,11,1,14,8,7"
14701,commdev-image-keyboard-response,541,915385,learnblock2,572.1000000238419,img/planet3_left.png,3,Community 2,NA,TRUE,f,f,NA,NA,NA,1,6,"12,13,6,2,4,15,10,5,9,3,11,1,14,8,7"
14701,commdev-image-keyboard-response,542,916637,learnblock2,588.3999999761581,img/planet9_right.png,9,Community 2,NA,TRUE,j,j,NA,NA,NA,1,6,"12,13,6,2,4,15,10,5,9,3,11,1,14,8,7"
14701,commdev-image-keyboard-response,543,917890,learnblock2,547.5,img/planet15_left.png,15,Community 2,NA,TRUE,f,f,NA,NA,NA,1,6,"12,13,6,2,4,15,10,5,9,3,11,1,14,8,7"
14701,commdev-image-keyboard-response,544,919142,learnblock2,673.5,img/planet10_left.png,10,Community 2,NA,TRUE,f,f,NA,NA,NA,1,6,"12,13,6,2,4,15,10,5,9,3,11,1,14,8,7"
14701,commdev-image-keyboard-response,545,920395,learnblock2,745.8000000715256,img/planet15_left.png,15,Community 2,NA,TRUE,f,f,NA,NA,NA,1,6,"12,13,6,2,4,15,10,5,9,3,11,1,14,8,7"
14701,commdev-image-keyboard-response,546,921647,learnblock2,893.6999999284744,img/planet2_left.png,2,Community 1,NA,FALSE,j,f,NA,NA,NA,1,6,"12,13,6,2,4,15,10,5,9,3,11,1,14,8,7"
14701,commdev-image-keyboard-response,547,922900,learnblock2,975.1000000238419,img/planet6_right.png,6,Community 1,NA,FALSE,f,j,NA,NA,NA,1,6,"12,13,6,2,4,15,10,5,9,3,11,1,14,8,7"
14701,commdev-image-keyboard-response,548,924152,learnblock2,1084.2999999523163,img/planet12_right.png,12,Community 1,NA,TRUE,j,j,NA,NA,NA,1,6,"12,13,6,2,4,15,10,5,9,3,11,1,14,8,7"
14701,commdev-image-keyboard-response,549,925404,learnblock2,717.5,img/planet13_left.png,13,Community 1,NA,TRUE,f,f,NA,NA,NA,1,6,"12,13,6,2,4,15,10,5,9,3,11,1,14,8,7"
14701,commdev-image-keyboard-response,550,926656,learnblock2,804,img/planet6_left.png,6,Community 1,NA,TRUE,f,f,NA,NA,NA,1,6,"12,13,6,2,4,15,10,5,9,3,11,1,14,8,7"
14701,commdev-image-keyboard-response,551,927908,learnblock2,646.8000000715256,img/planet4_right.png,4,Community 1,NA,TRUE,j,j,NA,NA,NA,1,6,"12,13,6,2,4,15,10,5,9,3,11,1,14,8,7"
14701,commdev-image-keyboard-response,552,929160,learnblock2,701.3000000715256,img/planet11_left.png,11,Community 3,NA,TRUE,f,f,NA,NA,NA,1,6,"12,13,6,2,4,15,10,5,9,3,11,1,14,8,7"
14701,commdev-image-keyboard-response,553,930412,learnblock2,824.2000000476837,img/planet14_left.png,14,Community 3,NA,FALSE,j,f,NA,NA,NA,1,6,"12,13,6,2,4,15,10,5,9,3,11,1,14,8,7"
14701,commdev-image-keyboard-response,554,931663,learnblock2,747.8000000715256,img/planet7_right.png,7,Community 3,NA,TRUE,j,j,NA,NA,NA,1,6,"12,13,6,2,4,15,10,5,9,3,11,1,14,8,7"
14701,commdev-image-keyboard-response,555,932916,learnblock2,893,img/planet8_left.png,8,Community 3,NA,TRUE,f,f,NA,NA,NA,1,6,"12,13,6,2,4,15,10,5,9,3,11,1,14,8,7"
14701,commdev-image-keyboard-response,556,934169,learnblock2,826.3000000715256,img/planet11_right.png,11,Community 3,NA,TRUE,j,j,NA,NA,NA,1,6,"12,13,6,2,4,15,10,5,9,3,11,1,14,8,7"
14701,commdev-image-keyboard-response,557,935421,learnblock2,703.0999999046326,img/planet14_left.png,14,Community 3,NA,TRUE,f,f,NA,NA,NA,1,6,"12,13,6,2,4,15,10,5,9,3,11,1,14,8,7"
14701,commdev-image-keyboard-response,558,936673,learnblock2,754.1000000238419,img/planet8_right.png,8,Community 3,NA,TRUE,j,j,NA,NA,NA,1,6,"12,13,6,2,4,15,10,5,9,3,11,1,14,8,7"
14701,commdev-image-keyboard-response,559,937926,learnblock2,813.1000000238419,img/planet11_right.png,11,Community 3,NA,TRUE,j,j,NA,NA,NA,1,6,"12,13,6,2,4,15,10,5,9,3,11,1,14,8,7"
14701,commdev-image-keyboard-response,560,939179,learnblock2,802.7000000476837,img/planet7_left.png,7,Community 3,NA,TRUE,f,f,NA,NA,NA,1,6,"12,13,6,2,4,15,10,5,9,3,11,1,14,8,7"
14701,commdev-image-keyboard-response,561,940431,learnblock2,894.7000000476837,img/planet8_left.png,8,Community 3,NA,TRUE,f,f,NA,NA,NA,1,6,"12,13,6,2,4,15,10,5,9,3,11,1,14,8,7"
14701,commdev-image-keyboard-response,562,941684,learnblock2,709.5,img/planet11_left.png,11,Community 3,NA,TRUE,f,f,NA,NA,NA,1,6,"12,13,6,2,4,15,10,5,9,3,11,1,14,8,7"
14701,commdev-image-keyboard-response,563,942936,learnblock2,884.3999999761581,img/planet4_left.png,4,Community 1,NA,TRUE,f,f,NA,NA,NA,1,6,"12,13,6,2,4,15,10,5,9,3,11,1,14,8,7"
14701,commdev-image-keyboard-response,564,944189,learnblock2,659.2999999523163,img/planet13_left.png,13,Community 1,NA,TRUE,f,f,NA,NA,NA,1,6,"12,13,6,2,4,15,10,5,9,3,11,1,14,8,7"
14701,commdev-image-keyboard-response,565,945442,learnblock2,836.7000000476837,img/planet12_right.png,12,Community 1,NA,TRUE,j,j,NA,NA,NA,1,6,"12,13,6,2,4,15,10,5,9,3,11,1,14,8,7"
14701,commdev-image-keyboard-response,566,946694,learnblock2,643.3000000715256,img/planet2_left.png,2,Community 1,NA,TRUE,f,f,NA,NA,NA,1,6,"12,13,6,2,4,15,10,5,9,3,11,1,14,8,7"
14701,commdev-image-keyboard-response,567,947947,learnblock2,855.8000000715256,img/planet13_left.png,13,Community 1,NA,TRUE,f,f,NA,NA,NA,1,6,"12,13,6,2,4,15,10,5,9,3,11,1,14,8,7"
14701,commdev-image-keyboard-response,568,949214,learnblock2,547.6999999284744,img/planet2_left.png,2,Community 1,NA,TRUE,f,f,NA,NA,NA,1,6,"12,13,6,2,4,15,10,5,9,3,11,1,14,8,7"
14701,commdev-image-keyboard-response,569,950466,learnblock2,636.1000000238419,img/planet15_right.png,15,Community 2,NA,TRUE,j,j,NA,NA,NA,1,6,"12,13,6,2,4,15,10,5,9,3,11,1,14,8,7"
14701,commdev-image-keyboard-response,570,951719,learnblock2,575.2999999523163,img/planet10_left.png,10,Community 2,NA,TRUE,f,f,NA,NA,NA,1,6,"12,13,6,2,4,15,10,5,9,3,11,1,14,8,7"
14701,commdev-image-keyboard-response,571,952971,learnblock2,572.1000000238419,img/planet5_right.png,5,Community 2,NA,TRUE,j,j,NA,NA,NA,1,6,"12,13,6,2,4,15,10,5,9,3,11,1,14,8,7"
14701,commdev-image-keyboard-response,572,954224,learnblock2,592.5,img/planet3_left.png,3,Community 2,NA,TRUE,f,f,NA,NA,NA,1,6,"12,13,6,2,4,15,10,5,9,3,11,1,14,8,7"
14701,commdev-image-keyboard-response,573,955476,learnblock2,558,img/planet15_left.png,15,Community 2,NA,TRUE,f,f,NA,NA,NA,1,6,"12,13,6,2,4,15,10,5,9,3,11,1,14,8,7"
14701,commdev-image-keyboard-response,574,956729,learnblock2,709.5,img/planet9_left.png,9,Community 2,NA,FALSE,j,f,NA,NA,NA,1,6,"12,13,6,2,4,15,10,5,9,3,11,1,14,8,7"
14701,commdev-image-keyboard-response,575,957981,learnblock2,811.5,img/planet10_left.png,10,Community 2,NA,TRUE,f,f,NA,NA,NA,1,6,"12,13,6,2,4,15,10,5,9,3,11,1,14,8,7"
14701,commdev-image-keyboard-response,576,959234,learnblock2,1050.6000000238419,img/planet9_left.png,9,Community 2,NA,TRUE,f,f,NA,NA,NA,1,6,"12,13,6,2,4,15,10,5,9,3,11,1,14,8,7"
14701,commdev-image-keyboard-response,577,960486,learnblock2,667.5,img/planet3_right.png,3,Community 2,NA,TRUE,j,j,NA,NA,NA,1,6,"12,13,6,2,4,15,10,5,9,3,11,1,14,8,7"
14701,commdev-image-keyboard-response,578,961739,learnblock2,729.6000000238419,img/planet15_right.png,15,Community 2,NA,TRUE,j,j,NA,NA,NA,1,6,"12,13,6,2,4,15,10,5,9,3,11,1,14,8,7"
14701,commdev-image-keyboard-response,579,962991,learnblock2,858.3999999761581,img/planet10_right.png,10,Community 2,NA,FALSE,f,j,NA,NA,NA,1,6,"12,13,6,2,4,15,10,5,9,3,11,1,14,8,7"
14701,commdev-image-keyboard-response,580,964244,learnblock2,779.2000000476837,img/planet5_right.png,5,Community 2,NA,TRUE,j,j,NA,NA,NA,1,6,"12,13,6,2,4,15,10,5,9,3,11,1,14,8,7"
14701,commdev-image-keyboard-response,581,965497,learnblock2,674,img/planet9_right.png,9,Community 2,NA,TRUE,j,j,NA,NA,NA,1,6,"12,13,6,2,4,15,10,5,9,3,11,1,14,8,7"
14701,commdev-image-keyboard-response,582,966749,learnblock2,727.6999999284744,img/planet15_right.png,15,Community 2,NA,TRUE,j,j,NA,NA,NA,1,6,"12,13,6,2,4,15,10,5,9,3,11,1,14,8,7"
14701,commdev-image-keyboard-response,583,968002,learnblock2,974.1999999284744,img/planet9_left.png,9,Community 2,NA,TRUE,f,f,NA,NA,NA,1,6,"12,13,6,2,4,15,10,5,9,3,11,1,14,8,7"
14701,commdev-image-keyboard-response,584,969255,learnblock2,657.3999999761581,img/planet10_left.png,10,Community 2,NA,TRUE,f,f,NA,NA,NA,1,6,"12,13,6,2,4,15,10,5,9,3,11,1,14,8,7"
14701,commdev-image-keyboard-response,585,970509,learnblock2,934.6999999284744,img/planet9_left.png,9,Community 2,NA,TRUE,f,f,NA,NA,NA,1,6,"12,13,6,2,4,15,10,5,9,3,11,1,14,8,7"
14701,commdev-image-keyboard-response,586,971761,learnblock2,894.1000000238419,img/planet5_left.png,5,Community 2,NA,TRUE,f,f,NA,NA,NA,1,6,"12,13,6,2,4,15,10,5,9,3,11,1,14,8,7"
14701,commdev-image-keyboard-response,587,973013,learnblock2,982.7000000476837,img/planet9_right.png,9,Community 2,NA,TRUE,j,j,NA,NA,NA,1,6,"12,13,6,2,4,15,10,5,9,3,11,1,14,8,7"
