subject_id,trial_type,trial_index,time_elapsed,block,rt,stimulus,planet,community,response,correct,key_press,learning_correct_response,parse,init_locations,final_locations,browser_interactions,num_comp,planet_map
15422,commdev-instructions,7,51918,NA,1016,"<p>In this game, you will be shown a 3x3 grid of patterns.</p> <p>The last one in the bottom right-hand corner, <strong>will be missing:</strong></p> <div style='width: 700px;'><div style='float: top;'><img style='width: 200px;' src='practice/p1_M1.png'></img><p class='small'>You need to select<strong> which of the four possible patterns </strong>along the bottom<strong> fits into the gap:</strong></p></div><div style='float: top;'><img style='width: 300px;' src='practice/p1_T1.png'></img></div><br>",NA,NA,NA,NA,NA,NA,NA,NA,NA,1,6,"11,2,7,10,4,13,8,6,5,3,9,14,1,15,12"
15422,commdev-instructions,8,72684,NA,642,"<p>Try to be as fast and as accurate as you can be.</p> <p>If you cannot solve the puzzle then you should guess - you will not be penalised for an incorrect answer.</p> <p>The task contains a shuffled mix of easy, medium and hard puzzles.</p> <p>You will have <strong>30 seconds</strong> to complete each puzzle.</p><br>",NA,NA,NA,NA,NA,NA,NA,NA,NA,1,6,"11,2,7,10,4,13,8,6,5,3,9,14,1,15,12"
15422,commdev-instructions,15,100033,NA,965,<p><strong>Success!</strong></p> <p>You seem to be getting the hang of this...</p> <p>Let's move on to the real trials.</p><br>,NA,NA,NA,NA,NA,NA,NA,NA,NA,1,6,"11,2,7,10,4,13,8,6,5,3,9,14,1,15,12"
15422,commdev-instructions,91,595736,NA,3856,"<p>In this game, you are a scientist on board a space shuttle. </p><p> On each mission, you will visit planets all across the universe.</p><img src=""img/controlroom.jpg"" width=300vw>",NA,NA,NA,NA,NA,NA,NA,NA,NA,1,6,"11,2,7,10,4,13,8,6,5,3,9,14,1,15,12"
15422,commdev-instructions,92,598900,NA,1093,"<p>Here are a few planets you might see:</p><img src=""img/practice1.png"" width=200vw><img src=""img/practice2.png"" width=200vw><img src=""img/practice3.png"" width=200vw>",NA,NA,NA,NA,NA,NA,NA,NA,NA,1,6,"11,2,7,10,4,13,8,6,5,3,9,14,1,15,12"
15422,commdev-instructions,93,608952,NA,2652,"<p>Your job as a scientist is to record which direction the winds are moving on each planet.</p><p>There are two types of wind directions:</p><img src=""img/practice1_left.png"" width=200vw><img src=""img/practice1_right.png"" width=200vw>",NA,NA,NA,NA,NA,NA,NA,NA,NA,1,6,"11,2,7,10,4,13,8,6,5,3,9,14,1,15,12"
15422,commdev-instructions,94,617534,NA,3704,"<p>If the winds are moving this way, press the letter <strong>F</strong> on the keyboard as fast as you can.</p><img src=""img/leftwind.png"" width=250vw>",NA,NA,NA,NA,NA,NA,NA,NA,NA,1,6,"11,2,7,10,4,13,8,6,5,3,9,14,1,15,12"
15422,commdev-instructions,95,622484,NA,456,"<p>If the winds are moving this way, press the letter <strong>J</strong> on the keyboard as fast as you can.</p><img src=""img/rightwind.png"" width=350vw>",NA,NA,NA,NA,NA,NA,NA,NA,NA,1,6,"11,2,7,10,4,13,8,6,5,3,9,14,1,15,12"
15422,commdev-instructions,96,627985,NA,1079,<p>You will have 1 second to respond. Try to respond before the time runs out!,NA,NA,NA,NA,NA,NA,NA,NA,NA,1,6,"11,2,7,10,4,13,8,6,5,3,9,14,1,15,12"
15422,commdev-instructions,97,634433,NA,1017,<p>The planets you will visit will look different from each other.</p><p>You should respond <strong>only</strong> based on wind direction.,NA,NA,NA,NA,NA,NA,NA,NA,NA,1,6,"11,2,7,10,4,13,8,6,5,3,9,14,1,15,12"
15422,commdev-instructions,98,640283,NA,682,"<p> Ready to start the practice round? </p><p> Remember, press <strong>F</strong> or <strong>J</strong> depending on the wind direction.<br><img src=""img/categorize_planet_example.png""",NA,NA,NA,NA,NA,NA,NA,NA,NA,1,6,"11,2,7,10,4,13,8,6,5,3,9,14,1,15,12"
15422,commdev-instructions,110,704065,NA,753.9999999998836,"<p>Great, now try a short practice mission. </p><p> This time, you will have 1 second to respond and you won't know whether you pressed the right or wrong key for each planet.</p>",NA,NA,NA,NA,NA,NA,NA,NA,NA,1,6,"11,2,7,10,4,13,8,6,5,3,9,14,1,15,12"
15422,commdev-image-keyboard-response,111,705420,practice,809.0000000001164,img/practice2_left.png,NA,Number not found in mappings,NA,TRUE,f,f,NA,NA,NA,1,6,"11,2,7,10,4,13,8,6,5,3,9,14,1,15,12"
15422,commdev-image-keyboard-response,112,706674,practice,707,img/practice4_right.png,NA,Number not found in mappings,NA,TRUE,j,j,NA,NA,NA,1,6,"11,2,7,10,4,13,8,6,5,3,9,14,1,15,12"
15422,commdev-image-keyboard-response,113,707927,practice,666,img/practice1_right.png,NA,Number not found in mappings,NA,TRUE,j,j,NA,NA,NA,1,6,"11,2,7,10,4,13,8,6,5,3,9,14,1,15,12"
15422,commdev-image-keyboard-response,114,709181,practice,487.9999999998836,img/practice4_left.png,NA,Number not found in mappings,NA,TRUE,f,f,NA,NA,NA,1,6,"11,2,7,10,4,13,8,6,5,3,9,14,1,15,12"
15422,commdev-image-keyboard-response,115,710433,practice,453,img/practice1_left.png,NA,Number not found in mappings,NA,TRUE,f,f,NA,NA,NA,1,6,"11,2,7,10,4,13,8,6,5,3,9,14,1,15,12"
15422,commdev-image-keyboard-response,116,711687,practice,614.0000000001164,img/practice3_right.png,NA,Number not found in mappings,NA,TRUE,j,j,NA,NA,NA,1,6,"11,2,7,10,4,13,8,6,5,3,9,14,1,15,12"
15422,commdev-image-keyboard-response,117,712940,practice,568,img/practice2_left.png,NA,Number not found in mappings,NA,TRUE,f,f,NA,NA,NA,1,6,"11,2,7,10,4,13,8,6,5,3,9,14,1,15,12"
15422,commdev-image-keyboard-response,118,714193,practice,538,img/practice1_right.png,NA,Number not found in mappings,NA,TRUE,j,j,NA,NA,NA,1,6,"11,2,7,10,4,13,8,6,5,3,9,14,1,15,12"
15422,commdev-instructions,119,724414,NA,667,"<p>Great job with the practice round.</p><p>During real missions, you won't know whether you pressed the right or wrong key for each planet.</p><p>But between missions, we will tell you how you did overall.</p>",NA,NA,NA,NA,NA,NA,NA,NA,NA,1,6,"11,2,7,10,4,13,8,6,5,3,9,14,1,15,12"
15422,commdev-instructions,120,733697,NA,1043,<p>Try your best! You will be paid a bonus based on how many correct responses you make!</p><p>Responses that are too slow will not count toward your bonus.</p>,NA,NA,NA,NA,NA,NA,NA,NA,NA,1,6,"11,2,7,10,4,13,8,6,5,3,9,14,1,15,12"
15422,commdev-instructions,121,740612,NA,717,"<p>You are almost ready to start the real game.</p><p> First, we are going to ask you some questions about how the game works.</p>",NA,NA,NA,NA,NA,NA,NA,NA,NA,1,6,"11,2,7,10,4,13,8,6,5,3,9,14,1,15,12"
15422,commdev-instructions,130,817095,NA,1208,"<p> Nice work! It is now time to start the real game.<p></p>You will go on two missions to record wind directions of different planets.<p></p>Each one will take about 5 minutes. You will get to take a break between missions.<p><p> Remember, press <strong>F</strong> or <strong>J</strong> depending on the wind direction. Good luck!<br><img src=""img/categorize_planet_example.png""",NA,NA,NA,NA,NA,NA,NA,NA,NA,1,6,"11,2,7,10,4,13,8,6,5,3,9,14,1,15,12"
15422,commdev-image-keyboard-response,132,822157,learnblock1,1166,img/planet13_right.png,13,Community 2,NA,TRUE,j,j,NA,NA,NA,1,6,"11,2,7,10,4,13,8,6,5,3,9,14,1,15,12"
15422,commdev-image-keyboard-response,133,823411,learnblock1,779,img/planet5_right.png,5,Community 2,NA,TRUE,j,j,NA,NA,NA,1,6,"11,2,7,10,4,13,8,6,5,3,9,14,1,15,12"
15422,commdev-image-keyboard-response,134,824663,learnblock1,775,img/planet3_right.png,3,Community 2,NA,TRUE,j,j,NA,NA,NA,1,6,"11,2,7,10,4,13,8,6,5,3,9,14,1,15,12"
15422,commdev-image-keyboard-response,135,825916,learnblock1,660,img/planet6_right.png,6,Community 2,NA,TRUE,j,j,NA,NA,NA,1,6,"11,2,7,10,4,13,8,6,5,3,9,14,1,15,12"
15422,commdev-image-keyboard-response,136,827169,learnblock1,648.0000000001164,img/planet14_right.png,14,Community 3,NA,TRUE,j,j,NA,NA,NA,1,6,"11,2,7,10,4,13,8,6,5,3,9,14,1,15,12"
15422,commdev-image-keyboard-response,137,828421,learnblock1,976,img/planet15_right.png,15,Community 3,NA,TRUE,j,j,NA,NA,NA,1,6,"11,2,7,10,4,13,8,6,5,3,9,14,1,15,12"
15422,commdev-image-keyboard-response,138,829674,learnblock1,616,img/planet9_right.png,9,Community 3,NA,TRUE,j,j,NA,NA,NA,1,6,"11,2,7,10,4,13,8,6,5,3,9,14,1,15,12"
15422,commdev-image-keyboard-response,139,830927,learnblock1,597.0000000001164,img/planet1_left.png,1,Community 3,NA,TRUE,f,f,NA,NA,NA,1,6,"11,2,7,10,4,13,8,6,5,3,9,14,1,15,12"
15422,commdev-image-keyboard-response,140,832180,learnblock1,676,img/planet9_left.png,9,Community 3,NA,TRUE,f,f,NA,NA,NA,1,6,"11,2,7,10,4,13,8,6,5,3,9,14,1,15,12"
15422,commdev-image-keyboard-response,141,833432,learnblock1,473,img/planet1_left.png,1,Community 3,NA,TRUE,f,f,NA,NA,NA,1,6,"11,2,7,10,4,13,8,6,5,3,9,14,1,15,12"
15422,commdev-image-keyboard-response,142,834685,learnblock1,625,img/planet15_right.png,15,Community 3,NA,TRUE,j,j,NA,NA,NA,1,6,"11,2,7,10,4,13,8,6,5,3,9,14,1,15,12"
15422,commdev-image-keyboard-response,143,835937,learnblock1,669,img/planet9_left.png,9,Community 3,NA,TRUE,f,f,NA,NA,NA,1,6,"11,2,7,10,4,13,8,6,5,3,9,14,1,15,12"
15422,commdev-image-keyboard-response,144,837190,learnblock1,616,img/planet12_right.png,12,Community 3,NA,TRUE,j,j,NA,NA,NA,1,6,"11,2,7,10,4,13,8,6,5,3,9,14,1,15,12"
15422,commdev-image-keyboard-response,145,838443,learnblock1,603,img/planet15_left.png,15,Community 3,NA,TRUE,f,f,NA,NA,NA,1,6,"11,2,7,10,4,13,8,6,5,3,9,14,1,15,12"
15422,commdev-image-keyboard-response,146,839695,learnblock1,639,img/planet1_right.png,1,Community 3,NA,TRUE,j,j,NA,NA,NA,1,6,"11,2,7,10,4,13,8,6,5,3,9,14,1,15,12"
15422,commdev-image-keyboard-response,147,840947,learnblock1,768,img/planet12_left.png,12,Community 3,NA,TRUE,f,f,NA,NA,NA,1,6,"11,2,7,10,4,13,8,6,5,3,9,14,1,15,12"
15422,commdev-image-keyboard-response,148,842200,learnblock1,576,img/planet1_left.png,1,Community 3,NA,TRUE,f,f,NA,NA,NA,1,6,"11,2,7,10,4,13,8,6,5,3,9,14,1,15,12"
15422,commdev-image-keyboard-response,149,843454,learnblock1,489,img/planet9_left.png,9,Community 3,NA,TRUE,f,f,NA,NA,NA,1,6,"11,2,7,10,4,13,8,6,5,3,9,14,1,15,12"
15422,commdev-image-keyboard-response,150,844707,learnblock1,997,img/planet4_right.png,4,Community 1,NA,TRUE,j,j,NA,NA,NA,1,6,"11,2,7,10,4,13,8,6,5,3,9,14,1,15,12"
15422,commdev-image-keyboard-response,151,845960,learnblock1,735,img/planet9_left.png,9,Community 3,NA,TRUE,f,f,NA,NA,NA,1,6,"11,2,7,10,4,13,8,6,5,3,9,14,1,15,12"
15422,commdev-image-keyboard-response,152,847213,learnblock1,728.0000000001164,img/planet4_left.png,4,Community 1,NA,TRUE,f,f,NA,NA,NA,1,6,"11,2,7,10,4,13,8,6,5,3,9,14,1,15,12"
15422,commdev-image-keyboard-response,153,848465,learnblock1,675,img/planet7_right.png,7,Community 1,NA,TRUE,j,j,NA,NA,NA,1,6,"11,2,7,10,4,13,8,6,5,3,9,14,1,15,12"
15422,commdev-image-keyboard-response,154,849718,learnblock1,702,img/planet4_left.png,4,Community 1,NA,TRUE,f,f,NA,NA,NA,1,6,"11,2,7,10,4,13,8,6,5,3,9,14,1,15,12"
15422,commdev-image-keyboard-response,155,850972,learnblock1,753.0000000001164,img/planet7_right.png,7,Community 1,NA,TRUE,j,j,NA,NA,NA,1,6,"11,2,7,10,4,13,8,6,5,3,9,14,1,15,12"
15422,commdev-image-keyboard-response,156,852225,learnblock1,1020.9999999998836,img/planet11_right.png,11,Community 1,NA,FALSE,f,j,NA,NA,NA,1,6,"11,2,7,10,4,13,8,6,5,3,9,14,1,15,12"
15422,commdev-image-keyboard-response,157,853478,learnblock1,774,img/planet10_right.png,10,Community 1,NA,TRUE,j,j,NA,NA,NA,1,6,"11,2,7,10,4,13,8,6,5,3,9,14,1,15,12"
15422,commdev-image-keyboard-response,158,854731,learnblock1,747,img/planet2_left.png,2,Community 1,NA,TRUE,f,f,NA,NA,NA,1,6,"11,2,7,10,4,13,8,6,5,3,9,14,1,15,12"
15422,commdev-image-keyboard-response,159,855983,learnblock1,830,img/planet11_left.png,11,Community 1,NA,TRUE,f,f,NA,NA,NA,1,6,"11,2,7,10,4,13,8,6,5,3,9,14,1,15,12"
15422,commdev-image-keyboard-response,160,857236,learnblock1,783,img/planet4_right.png,4,Community 1,NA,TRUE,j,j,NA,NA,NA,1,6,"11,2,7,10,4,13,8,6,5,3,9,14,1,15,12"
15422,commdev-image-keyboard-response,161,858488,learnblock1,683.9999999998836,img/planet7_right.png,7,Community 1,NA,TRUE,j,j,NA,NA,NA,1,6,"11,2,7,10,4,13,8,6,5,3,9,14,1,15,12"
15422,commdev-image-keyboard-response,162,859742,learnblock1,573,img/planet2_left.png,2,Community 1,NA,TRUE,f,f,NA,NA,NA,1,6,"11,2,7,10,4,13,8,6,5,3,9,14,1,15,12"
15422,commdev-image-keyboard-response,163,860995,learnblock1,589,img/planet10_left.png,10,Community 1,NA,TRUE,f,f,NA,NA,NA,1,6,"11,2,7,10,4,13,8,6,5,3,9,14,1,15,12"
15422,commdev-image-keyboard-response,164,862248,learnblock1,856.9999999998836,img/planet2_right.png,2,Community 1,NA,TRUE,j,j,NA,NA,NA,1,6,"11,2,7,10,4,13,8,6,5,3,9,14,1,15,12"
15422,commdev-image-keyboard-response,165,863501,learnblock1,609,img/planet4_right.png,4,Community 1,NA,TRUE,j,j,NA,NA,NA,1,6,"11,2,7,10,4,13,8,6,5,3,9,14,1,15,12"
15422,commdev-image-keyboard-response,166,864754,learnblock1,561,img/planet9_right.png,9,Community 3,NA,TRUE,j,j,NA,NA,NA,1,6,"11,2,7,10,4,13,8,6,5,3,9,14,1,15,12"
15422,commdev-image-keyboard-response,167,866007,learnblock1,609,img/planet15_right.png,15,Community 3,NA,TRUE,j,j,NA,NA,NA,1,6,"11,2,7,10,4,13,8,6,5,3,9,14,1,15,12"
15422,commdev-image-keyboard-response,168,867259,learnblock1,522,img/planet12_right.png,12,Community 3,NA,TRUE,j,j,NA,NA,NA,1,6,"11,2,7,10,4,13,8,6,5,3,9,14,1,15,12"
15422,commdev-image-keyboard-response,169,868512,learnblock1,665.9999999998836,img/planet1_left.png,1,Community 3,NA,TRUE,f,f,NA,NA,NA,1,6,"11,2,7,10,4,13,8,6,5,3,9,14,1,15,12"
15422,commdev-image-keyboard-response,170,869765,learnblock1,813,img/planet15_right.png,15,Community 3,NA,TRUE,j,j,NA,NA,NA,1,6,"11,2,7,10,4,13,8,6,5,3,9,14,1,15,12"
15422,commdev-image-keyboard-response,171,871018,learnblock1,584,img/planet1_left.png,1,Community 3,NA,TRUE,f,f,NA,NA,NA,1,6,"11,2,7,10,4,13,8,6,5,3,9,14,1,15,12"
15422,commdev-image-keyboard-response,172,872271,learnblock1,536.9999999998836,img/planet15_left.png,15,Community 3,NA,TRUE,f,f,NA,NA,NA,1,6,"11,2,7,10,4,13,8,6,5,3,9,14,1,15,12"
15422,commdev-image-keyboard-response,173,873524,learnblock1,765,img/planet1_right.png,1,Community 3,NA,TRUE,j,j,NA,NA,NA,1,6,"11,2,7,10,4,13,8,6,5,3,9,14,1,15,12"
15422,commdev-image-keyboard-response,174,874776,learnblock1,587.9999999998836,img/planet14_right.png,14,Community 3,NA,TRUE,j,j,NA,NA,NA,1,6,"11,2,7,10,4,13,8,6,5,3,9,14,1,15,12"
15422,commdev-image-keyboard-response,175,876028,learnblock1,508,img/planet1_right.png,1,Community 3,NA,TRUE,j,j,NA,NA,NA,1,6,"11,2,7,10,4,13,8,6,5,3,9,14,1,15,12"
15422,commdev-image-keyboard-response,176,877282,learnblock1,569,img/planet15_left.png,15,Community 3,NA,TRUE,f,f,NA,NA,NA,1,6,"11,2,7,10,4,13,8,6,5,3,9,14,1,15,12"
15422,commdev-image-keyboard-response,177,878536,learnblock1,674,img/planet14_left.png,14,Community 3,NA,TRUE,f,f,NA,NA,NA,1,6,"11,2,7,10,4,13,8,6,5,3,9,14,1,15,12"
15422,commdev-image-keyboard-response,178,879788,learnblock1,686,img/planet1_right.png,1,Community 3,NA,FALSE,f,j,NA,NA,NA,1,6,"11,2,7,10,4,13,8,6,5,3,9,14,1,15,12"
15422,commdev-image-keyboard-response,179,881041,learnblock1,744.0000000001164,img/planet9_right.png,9,Community 3,NA,FALSE,f,j,NA,NA,NA,1,6,"11,2,7,10,4,13,8,6,5,3,9,14,1,15,12"
15422,commdev-image-keyboard-response,180,882293,learnblock1,982.0000000001164,img/planet15_left.png,15,Community 3,NA,TRUE,f,f,NA,NA,NA,1,6,"11,2,7,10,4,13,8,6,5,3,9,14,1,15,12"
15422,commdev-image-keyboard-response,181,883546,learnblock1,569,img/planet12_right.png,12,Community 3,NA,TRUE,j,j,NA,NA,NA,1,6,"11,2,7,10,4,13,8,6,5,3,9,14,1,15,12"
15422,commdev-image-keyboard-response,182,884799,learnblock1,889,img/planet9_left.png,9,Community 3,NA,TRUE,f,f,NA,NA,NA,1,6,"11,2,7,10,4,13,8,6,5,3,9,14,1,15,12"
15422,commdev-image-keyboard-response,183,886052,learnblock1,617.0000000001164,img/planet15_right.png,15,Community 3,NA,TRUE,j,j,NA,NA,NA,1,6,"11,2,7,10,4,13,8,6,5,3,9,14,1,15,12"
15422,commdev-image-keyboard-response,184,887304,learnblock1,709,img/planet14_right.png,14,Community 3,NA,TRUE,j,j,NA,NA,NA,1,6,"11,2,7,10,4,13,8,6,5,3,9,14,1,15,12"
15422,commdev-image-keyboard-response,185,888556,learnblock1,561,img/planet6_left.png,6,Community 2,NA,TRUE,f,f,NA,NA,NA,1,6,"11,2,7,10,4,13,8,6,5,3,9,14,1,15,12"
15422,commdev-image-keyboard-response,186,889809,learnblock1,565,img/planet3_left.png,3,Community 2,NA,TRUE,f,f,NA,NA,NA,1,6,"11,2,7,10,4,13,8,6,5,3,9,14,1,15,12"
15422,commdev-image-keyboard-response,187,891061,learnblock1,539,img/planet6_left.png,6,Community 2,NA,TRUE,f,f,NA,NA,NA,1,6,"11,2,7,10,4,13,8,6,5,3,9,14,1,15,12"
15422,commdev-image-keyboard-response,188,892314,learnblock1,535,img/planet8_left.png,8,Community 2,NA,TRUE,f,f,NA,NA,NA,1,6,"11,2,7,10,4,13,8,6,5,3,9,14,1,15,12"
15422,commdev-image-keyboard-response,189,893566,learnblock1,581,img/planet3_right.png,3,Community 2,NA,TRUE,j,j,NA,NA,NA,1,6,"11,2,7,10,4,13,8,6,5,3,9,14,1,15,12"
15422,commdev-image-keyboard-response,190,894819,learnblock1,509.9999999998836,img/planet13_right.png,13,Community 2,NA,TRUE,j,j,NA,NA,NA,1,6,"11,2,7,10,4,13,8,6,5,3,9,14,1,15,12"
15422,commdev-image-keyboard-response,191,896071,learnblock1,604,img/planet8_right.png,8,Community 2,NA,TRUE,j,j,NA,NA,NA,1,6,"11,2,7,10,4,13,8,6,5,3,9,14,1,15,12"
15422,commdev-image-keyboard-response,192,897324,learnblock1,657,img/planet5_left.png,5,Community 2,NA,TRUE,f,f,NA,NA,NA,1,6,"11,2,7,10,4,13,8,6,5,3,9,14,1,15,12"
15422,commdev-image-keyboard-response,193,898578,learnblock1,799,img/planet3_right.png,3,Community 2,NA,TRUE,j,j,NA,NA,NA,1,6,"11,2,7,10,4,13,8,6,5,3,9,14,1,15,12"
15422,commdev-image-keyboard-response,194,899831,learnblock1,591,img/planet6_right.png,6,Community 2,NA,TRUE,j,j,NA,NA,NA,1,6,"11,2,7,10,4,13,8,6,5,3,9,14,1,15,12"
15422,commdev-image-keyboard-response,195,901084,learnblock1,605,img/planet3_left.png,3,Community 2,NA,TRUE,f,f,NA,NA,NA,1,6,"11,2,7,10,4,13,8,6,5,3,9,14,1,15,12"
15422,commdev-image-keyboard-response,196,902338,learnblock1,532,img/planet6_left.png,6,Community 2,NA,TRUE,f,f,NA,NA,NA,1,6,"11,2,7,10,4,13,8,6,5,3,9,14,1,15,12"
15422,commdev-image-keyboard-response,197,903590,learnblock1,516,img/planet14_left.png,14,Community 3,NA,TRUE,f,f,NA,NA,NA,1,6,"11,2,7,10,4,13,8,6,5,3,9,14,1,15,12"
15422,commdev-image-keyboard-response,198,904843,learnblock1,481,img/planet12_left.png,12,Community 3,NA,TRUE,f,f,NA,NA,NA,1,6,"11,2,7,10,4,13,8,6,5,3,9,14,1,15,12"
15422,commdev-image-keyboard-response,199,906095,learnblock1,438.0000000001164,img/planet9_left.png,9,Community 3,NA,TRUE,f,f,NA,NA,NA,1,6,"11,2,7,10,4,13,8,6,5,3,9,14,1,15,12"
15422,commdev-image-keyboard-response,200,907349,learnblock1,479,img/planet15_left.png,15,Community 3,NA,TRUE,f,f,NA,NA,NA,1,6,"11,2,7,10,4,13,8,6,5,3,9,14,1,15,12"
15422,commdev-image-keyboard-response,201,908601,learnblock1,440,img/planet1_right.png,1,Community 3,NA,TRUE,j,j,NA,NA,NA,1,6,"11,2,7,10,4,13,8,6,5,3,9,14,1,15,12"
15422,commdev-image-keyboard-response,202,909854,learnblock1,517,img/planet14_right.png,14,Community 3,NA,TRUE,j,j,NA,NA,NA,1,6,"11,2,7,10,4,13,8,6,5,3,9,14,1,15,12"
15422,commdev-image-keyboard-response,203,911107,learnblock1,433,img/planet1_right.png,1,Community 3,NA,TRUE,j,j,NA,NA,NA,1,6,"11,2,7,10,4,13,8,6,5,3,9,14,1,15,12"
15422,commdev-image-keyboard-response,204,912359,learnblock1,622,img/planet12_left.png,12,Community 3,NA,TRUE,f,f,NA,NA,NA,1,6,"11,2,7,10,4,13,8,6,5,3,9,14,1,15,12"
15422,commdev-image-keyboard-response,205,913612,learnblock1,529,img/planet1_right.png,1,Community 3,NA,TRUE,j,j,NA,NA,NA,1,6,"11,2,7,10,4,13,8,6,5,3,9,14,1,15,12"
15422,commdev-image-keyboard-response,206,914865,learnblock1,579.9999999998836,img/planet14_right.png,14,Community 3,NA,TRUE,j,j,NA,NA,NA,1,6,"11,2,7,10,4,13,8,6,5,3,9,14,1,15,12"
15422,commdev-image-keyboard-response,207,916117,learnblock1,854,img/planet15_left.png,15,Community 3,NA,TRUE,f,f,NA,NA,NA,1,6,"11,2,7,10,4,13,8,6,5,3,9,14,1,15,12"
15422,commdev-image-keyboard-response,208,917370,learnblock1,723.9999999998836,img/planet12_left.png,12,Community 3,NA,TRUE,f,f,NA,NA,NA,1,6,"11,2,7,10,4,13,8,6,5,3,9,14,1,15,12"
15422,commdev-image-keyboard-response,209,918622,learnblock1,527,img/planet15_right.png,15,Community 3,NA,TRUE,j,j,NA,NA,NA,1,6,"11,2,7,10,4,13,8,6,5,3,9,14,1,15,12"
15422,commdev-image-keyboard-response,210,919875,learnblock1,533,img/planet14_right.png,14,Community 3,NA,TRUE,j,j,NA,NA,NA,1,6,"11,2,7,10,4,13,8,6,5,3,9,14,1,15,12"
15422,commdev-image-keyboard-response,211,921129,learnblock1,632,img/planet12_left.png,12,Community 3,NA,TRUE,f,f,NA,NA,NA,1,6,"11,2,7,10,4,13,8,6,5,3,9,14,1,15,12"
15422,commdev-image-keyboard-response,212,922382,learnblock1,544,img/planet14_right.png,14,Community 3,NA,TRUE,j,j,NA,NA,NA,1,6,"11,2,7,10,4,13,8,6,5,3,9,14,1,15,12"
15422,commdev-image-keyboard-response,213,923634,learnblock1,562,img/planet6_right.png,6,Community 2,NA,TRUE,j,j,NA,NA,NA,1,6,"11,2,7,10,4,13,8,6,5,3,9,14,1,15,12"
15422,commdev-image-keyboard-response,214,924888,learnblock1,700,img/planet3_left.png,3,Community 2,NA,TRUE,f,f,NA,NA,NA,1,6,"11,2,7,10,4,13,8,6,5,3,9,14,1,15,12"
15422,commdev-image-keyboard-response,215,926141,learnblock1,575.0000000001164,img/planet13_right.png,13,Community 2,NA,TRUE,j,j,NA,NA,NA,1,6,"11,2,7,10,4,13,8,6,5,3,9,14,1,15,12"
15422,commdev-image-keyboard-response,216,927397,learnblock1,533.9999999998836,img/planet10_left.png,10,Community 1,NA,TRUE,f,f,NA,NA,NA,1,6,"11,2,7,10,4,13,8,6,5,3,9,14,1,15,12"
15422,commdev-image-keyboard-response,217,928649,learnblock1,492,img/planet11_left.png,11,Community 1,NA,TRUE,f,f,NA,NA,NA,1,6,"11,2,7,10,4,13,8,6,5,3,9,14,1,15,12"
15422,commdev-image-keyboard-response,218,929902,learnblock1,535,img/planet4_right.png,4,Community 1,NA,TRUE,j,j,NA,NA,NA,1,6,"11,2,7,10,4,13,8,6,5,3,9,14,1,15,12"
15422,commdev-image-keyboard-response,219,931154,learnblock1,473,img/planet7_right.png,7,Community 1,NA,TRUE,j,j,NA,NA,NA,1,6,"11,2,7,10,4,13,8,6,5,3,9,14,1,15,12"
15422,commdev-image-keyboard-response,220,932406,learnblock1,456,img/planet4_left.png,4,Community 1,NA,FALSE,j,f,NA,NA,NA,1,6,"11,2,7,10,4,13,8,6,5,3,9,14,1,15,12"
15422,commdev-image-keyboard-response,221,933658,learnblock1,547,img/planet11_right.png,11,Community 1,NA,TRUE,j,j,NA,NA,NA,1,6,"11,2,7,10,4,13,8,6,5,3,9,14,1,15,12"
15422,commdev-image-keyboard-response,222,934911,learnblock1,510,img/planet7_right.png,7,Community 1,NA,TRUE,j,j,NA,NA,NA,1,6,"11,2,7,10,4,13,8,6,5,3,9,14,1,15,12"
15422,commdev-image-keyboard-response,223,936163,learnblock1,543,img/planet4_right.png,4,Community 1,NA,TRUE,j,j,NA,NA,NA,1,6,"11,2,7,10,4,13,8,6,5,3,9,14,1,15,12"
15422,commdev-image-keyboard-response,224,937415,learnblock1,554.0000000001164,img/planet7_left.png,7,Community 1,NA,TRUE,f,f,NA,NA,NA,1,6,"11,2,7,10,4,13,8,6,5,3,9,14,1,15,12"
15422,commdev-image-keyboard-response,225,938668,learnblock1,559,img/planet4_right.png,4,Community 1,NA,FALSE,f,j,NA,NA,NA,1,6,"11,2,7,10,4,13,8,6,5,3,9,14,1,15,12"
15422,commdev-image-keyboard-response,226,939921,learnblock1,793,img/planet9_left.png,9,Community 3,NA,TRUE,f,f,NA,NA,NA,1,6,"11,2,7,10,4,13,8,6,5,3,9,14,1,15,12"
15422,commdev-image-keyboard-response,227,941173,learnblock1,553,img/planet4_left.png,4,Community 1,NA,TRUE,f,f,NA,NA,NA,1,6,"11,2,7,10,4,13,8,6,5,3,9,14,1,15,12"
15422,commdev-image-keyboard-response,228,942426,learnblock1,588,img/planet11_left.png,11,Community 1,NA,TRUE,f,f,NA,NA,NA,1,6,"11,2,7,10,4,13,8,6,5,3,9,14,1,15,12"
15422,commdev-image-keyboard-response,229,943680,learnblock1,645.9999999998836,img/planet7_left.png,7,Community 1,NA,TRUE,f,f,NA,NA,NA,1,6,"11,2,7,10,4,13,8,6,5,3,9,14,1,15,12"
15422,commdev-image-keyboard-response,230,944934,learnblock1,565.0000000001164,img/planet4_right.png,4,Community 1,NA,TRUE,j,j,NA,NA,NA,1,6,"11,2,7,10,4,13,8,6,5,3,9,14,1,15,12"
15422,commdev-image-keyboard-response,231,946186,learnblock1,574,img/planet9_left.png,9,Community 3,NA,TRUE,f,f,NA,NA,NA,1,6,"11,2,7,10,4,13,8,6,5,3,9,14,1,15,12"
15422,commdev-image-keyboard-response,232,947440,learnblock1,537.9999999998836,img/planet12_right.png,12,Community 3,NA,TRUE,j,j,NA,NA,NA,1,6,"11,2,7,10,4,13,8,6,5,3,9,14,1,15,12"
15422,commdev-image-keyboard-response,233,948692,learnblock1,513,img/planet14_right.png,14,Community 3,NA,TRUE,j,j,NA,NA,NA,1,6,"11,2,7,10,4,13,8,6,5,3,9,14,1,15,12"
15422,commdev-image-keyboard-response,234,949945,learnblock1,632.9999999998836,img/planet1_left.png,1,Community 3,NA,TRUE,f,f,NA,NA,NA,1,6,"11,2,7,10,4,13,8,6,5,3,9,14,1,15,12"
15422,commdev-image-keyboard-response,235,951197,learnblock1,663,img/planet14_left.png,14,Community 3,NA,TRUE,f,f,NA,NA,NA,1,6,"11,2,7,10,4,13,8,6,5,3,9,14,1,15,12"
15422,commdev-image-keyboard-response,236,952450,learnblock1,459,img/planet12_left.png,12,Community 3,NA,TRUE,f,f,NA,NA,NA,1,6,"11,2,7,10,4,13,8,6,5,3,9,14,1,15,12"
15422,commdev-image-keyboard-response,237,953703,learnblock1,520,img/planet9_right.png,9,Community 3,NA,TRUE,j,j,NA,NA,NA,1,6,"11,2,7,10,4,13,8,6,5,3,9,14,1,15,12"
15422,commdev-image-keyboard-response,238,954955,learnblock1,562,img/planet12_left.png,12,Community 3,NA,TRUE,f,f,NA,NA,NA,1,6,"11,2,7,10,4,13,8,6,5,3,9,14,1,15,12"
15422,commdev-image-keyboard-response,239,956208,learnblock1,654,img/planet14_left.png,14,Community 3,NA,TRUE,f,f,NA,NA,NA,1,6,"11,2,7,10,4,13,8,6,5,3,9,14,1,15,12"
15422,commdev-image-keyboard-response,240,957461,learnblock1,668,img/planet12_right.png,12,Community 3,NA,TRUE,j,j,NA,NA,NA,1,6,"11,2,7,10,4,13,8,6,5,3,9,14,1,15,12"
15422,commdev-image-keyboard-response,241,958713,learnblock1,695.9999999998836,img/planet1_right.png,1,Community 3,NA,TRUE,j,j,NA,NA,NA,1,6,"11,2,7,10,4,13,8,6,5,3,9,14,1,15,12"
15422,commdev-image-keyboard-response,242,959966,learnblock1,579.0000000001164,img/planet9_left.png,9,Community 3,NA,TRUE,f,f,NA,NA,NA,1,6,"11,2,7,10,4,13,8,6,5,3,9,14,1,15,12"
15422,commdev-image-keyboard-response,243,961218,learnblock1,556,img/planet15_left.png,15,Community 3,NA,TRUE,f,f,NA,NA,NA,1,6,"11,2,7,10,4,13,8,6,5,3,9,14,1,15,12"
15422,commdev-image-keyboard-response,244,962471,learnblock1,577,img/planet12_left.png,12,Community 3,NA,TRUE,f,f,NA,NA,NA,1,6,"11,2,7,10,4,13,8,6,5,3,9,14,1,15,12"
15422,commdev-image-keyboard-response,245,963724,learnblock1,544,img/planet9_right.png,9,Community 3,NA,TRUE,j,j,NA,NA,NA,1,6,"11,2,7,10,4,13,8,6,5,3,9,14,1,15,12"
15422,commdev-image-keyboard-response,246,964977,learnblock1,632,img/planet4_right.png,4,Community 1,NA,TRUE,j,j,NA,NA,NA,1,6,"11,2,7,10,4,13,8,6,5,3,9,14,1,15,12"
15422,commdev-image-keyboard-response,247,966229,learnblock1,556,img/planet11_right.png,11,Community 1,NA,TRUE,j,j,NA,NA,NA,1,6,"11,2,7,10,4,13,8,6,5,3,9,14,1,15,12"
15422,commdev-image-keyboard-response,248,967483,learnblock1,506,img/planet4_right.png,4,Community 1,NA,TRUE,j,j,NA,NA,NA,1,6,"11,2,7,10,4,13,8,6,5,3,9,14,1,15,12"
15422,commdev-image-keyboard-response,249,968736,learnblock1,529,img/planet7_right.png,7,Community 1,NA,TRUE,j,j,NA,NA,NA,1,6,"11,2,7,10,4,13,8,6,5,3,9,14,1,15,12"
15422,commdev-image-keyboard-response,250,969988,learnblock1,588,img/planet2_right.png,2,Community 1,NA,TRUE,j,j,NA,NA,NA,1,6,"11,2,7,10,4,13,8,6,5,3,9,14,1,15,12"
15422,commdev-image-keyboard-response,251,971241,learnblock1,564.9999999998836,img/planet11_left.png,11,Community 1,NA,TRUE,f,f,NA,NA,NA,1,6,"11,2,7,10,4,13,8,6,5,3,9,14,1,15,12"
15422,commdev-image-keyboard-response,252,972494,learnblock1,629,img/planet2_right.png,2,Community 1,NA,TRUE,j,j,NA,NA,NA,1,6,"11,2,7,10,4,13,8,6,5,3,9,14,1,15,12"
15422,commdev-image-keyboard-response,253,973747,learnblock1,485.9999999998836,img/planet7_left.png,7,Community 1,NA,TRUE,f,f,NA,NA,NA,1,6,"11,2,7,10,4,13,8,6,5,3,9,14,1,15,12"
15422,commdev-image-keyboard-response,254,975000,learnblock1,461,img/planet4_left.png,4,Community 1,NA,TRUE,f,f,NA,NA,NA,1,6,"11,2,7,10,4,13,8,6,5,3,9,14,1,15,12"
15422,commdev-image-keyboard-response,255,976252,learnblock1,445,img/planet9_left.png,9,Community 3,NA,TRUE,f,f,NA,NA,NA,1,6,"11,2,7,10,4,13,8,6,5,3,9,14,1,15,12"
15422,commdev-image-keyboard-response,256,977505,learnblock1,563,img/planet12_right.png,12,Community 3,NA,TRUE,j,j,NA,NA,NA,1,6,"11,2,7,10,4,13,8,6,5,3,9,14,1,15,12"
15422,commdev-image-keyboard-response,257,978758,learnblock1,541,img/planet14_left.png,14,Community 3,NA,FALSE,j,f,NA,NA,NA,1,6,"11,2,7,10,4,13,8,6,5,3,9,14,1,15,12"
15422,commdev-image-keyboard-response,258,980010,learnblock1,1120,img/planet15_right.png,15,Community 3,NA,TRUE,j,j,NA,NA,NA,1,6,"11,2,7,10,4,13,8,6,5,3,9,14,1,15,12"
15422,commdev-image-keyboard-response,259,981263,learnblock1,664,img/planet1_right.png,1,Community 3,NA,TRUE,j,j,NA,NA,NA,1,6,"11,2,7,10,4,13,8,6,5,3,9,14,1,15,12"
15422,commdev-image-keyboard-response,260,982516,learnblock1,575,img/planet14_left.png,14,Community 3,NA,TRUE,f,f,NA,NA,NA,1,6,"11,2,7,10,4,13,8,6,5,3,9,14,1,15,12"
15422,commdev-image-keyboard-response,261,983768,learnblock1,648,img/planet1_right.png,1,Community 3,NA,TRUE,j,j,NA,NA,NA,1,6,"11,2,7,10,4,13,8,6,5,3,9,14,1,15,12"
15422,commdev-image-keyboard-response,262,985021,learnblock1,569,img/planet14_right.png,14,Community 3,NA,TRUE,j,j,NA,NA,NA,1,6,"11,2,7,10,4,13,8,6,5,3,9,14,1,15,12"
15422,commdev-image-keyboard-response,263,986273,learnblock1,482,img/planet6_right.png,6,Community 2,NA,TRUE,j,j,NA,NA,NA,1,6,"11,2,7,10,4,13,8,6,5,3,9,14,1,15,12"
15422,commdev-image-keyboard-response,264,987526,learnblock1,606,img/planet8_right.png,8,Community 2,NA,TRUE,j,j,NA,NA,NA,1,6,"11,2,7,10,4,13,8,6,5,3,9,14,1,15,12"
15422,commdev-image-keyboard-response,265,988779,learnblock1,720.9999999998836,img/planet13_left.png,13,Community 2,NA,TRUE,f,f,NA,NA,NA,1,6,"11,2,7,10,4,13,8,6,5,3,9,14,1,15,12"
15422,commdev-image-keyboard-response,266,990031,learnblock1,719,img/planet8_left.png,8,Community 2,NA,TRUE,f,f,NA,NA,NA,1,6,"11,2,7,10,4,13,8,6,5,3,9,14,1,15,12"
15422,commdev-image-keyboard-response,267,991285,learnblock1,809,img/planet3_right.png,3,Community 2,NA,TRUE,j,j,NA,NA,NA,1,6,"11,2,7,10,4,13,8,6,5,3,9,14,1,15,12"
15422,commdev-image-keyboard-response,268,992538,learnblock1,560.9999999998836,img/planet5_left.png,5,Community 2,NA,TRUE,f,f,NA,NA,NA,1,6,"11,2,7,10,4,13,8,6,5,3,9,14,1,15,12"
15422,commdev-image-keyboard-response,269,993791,learnblock1,562,img/planet6_right.png,6,Community 2,NA,TRUE,j,j,NA,NA,NA,1,6,"11,2,7,10,4,13,8,6,5,3,9,14,1,15,12"
15422,commdev-image-keyboard-response,270,995043,learnblock1,623,img/planet5_left.png,5,Community 2,NA,TRUE,f,f,NA,NA,NA,1,6,"11,2,7,10,4,13,8,6,5,3,9,14,1,15,12"
15422,commdev-image-keyboard-response,271,996295,learnblock1,535.0000000001164,img/planet3_right.png,3,Community 2,NA,TRUE,j,j,NA,NA,NA,1,6,"11,2,7,10,4,13,8,6,5,3,9,14,1,15,12"
15422,commdev-image-keyboard-response,272,997547,learnblock1,803,img/planet6_left.png,6,Community 2,NA,TRUE,f,f,NA,NA,NA,1,6,"11,2,7,10,4,13,8,6,5,3,9,14,1,15,12"
15422,commdev-image-keyboard-response,273,998800,learnblock1,686,img/planet8_right.png,8,Community 2,NA,TRUE,j,j,NA,NA,NA,1,6,"11,2,7,10,4,13,8,6,5,3,9,14,1,15,12"
15422,commdev-image-keyboard-response,274,1000054,learnblock1,518,img/planet6_right.png,6,Community 2,NA,TRUE,j,j,NA,NA,NA,1,6,"11,2,7,10,4,13,8,6,5,3,9,14,1,15,12"
15422,commdev-image-keyboard-response,275,1001306,learnblock1,462,img/planet14_left.png,14,Community 3,NA,TRUE,f,f,NA,NA,NA,1,6,"11,2,7,10,4,13,8,6,5,3,9,14,1,15,12"
15422,commdev-image-keyboard-response,276,1002558,learnblock1,556.0000000001164,img/planet15_right.png,15,Community 3,NA,TRUE,j,j,NA,NA,NA,1,6,"11,2,7,10,4,13,8,6,5,3,9,14,1,15,12"
15422,commdev-image-keyboard-response,277,1003811,learnblock1,548,img/planet9_left.png,9,Community 3,NA,TRUE,f,f,NA,NA,NA,1,6,"11,2,7,10,4,13,8,6,5,3,9,14,1,15,12"
15422,commdev-image-keyboard-response,278,1005064,learnblock1,552,img/planet15_left.png,15,Community 3,NA,TRUE,f,f,NA,NA,NA,1,6,"11,2,7,10,4,13,8,6,5,3,9,14,1,15,12"
15422,commdev-image-keyboard-response,279,1006316,learnblock1,511.9999999998836,img/planet14_right.png,14,Community 3,NA,TRUE,j,j,NA,NA,NA,1,6,"11,2,7,10,4,13,8,6,5,3,9,14,1,15,12"
15422,commdev-image-keyboard-response,280,1007568,learnblock1,534,img/planet12_left.png,12,Community 3,NA,TRUE,f,f,NA,NA,NA,1,6,"11,2,7,10,4,13,8,6,5,3,9,14,1,15,12"
15422,commdev-image-keyboard-response,281,1008821,learnblock1,537,img/planet1_right.png,1,Community 3,NA,TRUE,j,j,NA,NA,NA,1,6,"11,2,7,10,4,13,8,6,5,3,9,14,1,15,12"
15422,commdev-image-keyboard-response,282,1010073,learnblock1,570.0000000001164,img/planet14_right.png,14,Community 3,NA,TRUE,j,j,NA,NA,NA,1,6,"11,2,7,10,4,13,8,6,5,3,9,14,1,15,12"
15422,commdev-image-keyboard-response,283,1011325,learnblock1,550,img/planet1_left.png,1,Community 3,NA,TRUE,f,f,NA,NA,NA,1,6,"11,2,7,10,4,13,8,6,5,3,9,14,1,15,12"
15422,commdev-image-keyboard-response,284,1012578,learnblock1,542.0000000001164,img/planet12_right.png,12,Community 3,NA,TRUE,j,j,NA,NA,NA,1,6,"11,2,7,10,4,13,8,6,5,3,9,14,1,15,12"
15422,commdev-image-keyboard-response,285,1013831,learnblock1,605.0000000001164,img/planet1_left.png,1,Community 3,NA,TRUE,f,f,NA,NA,NA,1,6,"11,2,7,10,4,13,8,6,5,3,9,14,1,15,12"
15422,commdev-image-keyboard-response,286,1015084,learnblock1,505,img/planet12_right.png,12,Community 3,NA,TRUE,j,j,NA,NA,NA,1,6,"11,2,7,10,4,13,8,6,5,3,9,14,1,15,12"
15422,commdev-image-keyboard-response,287,1016337,learnblock1,584,img/planet15_right.png,15,Community 3,NA,TRUE,j,j,NA,NA,NA,1,6,"11,2,7,10,4,13,8,6,5,3,9,14,1,15,12"
15422,commdev-image-keyboard-response,288,1017590,learnblock1,545.9999999998836,img/planet9_right.png,9,Community 3,NA,TRUE,j,j,NA,NA,NA,1,6,"11,2,7,10,4,13,8,6,5,3,9,14,1,15,12"
15422,commdev-image-keyboard-response,289,1018842,learnblock1,517,img/planet1_right.png,1,Community 3,NA,TRUE,j,j,NA,NA,NA,1,6,"11,2,7,10,4,13,8,6,5,3,9,14,1,15,12"
15422,commdev-image-keyboard-response,290,1020096,learnblock1,728,img/planet15_right.png,15,Community 3,NA,TRUE,j,j,NA,NA,NA,1,6,"11,2,7,10,4,13,8,6,5,3,9,14,1,15,12"
15422,commdev-image-keyboard-response,291,1021348,learnblock1,588.9999999998836,img/planet12_left.png,12,Community 3,NA,TRUE,f,f,NA,NA,NA,1,6,"11,2,7,10,4,13,8,6,5,3,9,14,1,15,12"
15422,commdev-image-keyboard-response,292,1022602,learnblock1,695.9999999998836,img/planet1_right.png,1,Community 3,NA,TRUE,j,j,NA,NA,NA,1,6,"11,2,7,10,4,13,8,6,5,3,9,14,1,15,12"
15422,commdev-image-keyboard-response,293,1023854,learnblock1,610.9999999998836,img/planet12_left.png,12,Community 3,NA,TRUE,f,f,NA,NA,NA,1,6,"11,2,7,10,4,13,8,6,5,3,9,14,1,15,12"
15422,commdev-image-keyboard-response,294,1025106,learnblock1,512,img/planet1_left.png,1,Community 3,NA,TRUE,f,f,NA,NA,NA,1,6,"11,2,7,10,4,13,8,6,5,3,9,14,1,15,12"
15422,commdev-image-keyboard-response,295,1026359,learnblock1,504.00000000023283,img/planet15_right.png,15,Community 3,NA,TRUE,j,j,NA,NA,NA,1,6,"11,2,7,10,4,13,8,6,5,3,9,14,1,15,12"
15422,commdev-image-keyboard-response,296,1027612,learnblock1,641.9999999997672,img/planet12_right.png,12,Community 3,NA,TRUE,j,j,NA,NA,NA,1,6,"11,2,7,10,4,13,8,6,5,3,9,14,1,15,12"
15422,commdev-image-keyboard-response,297,1028865,learnblock1,547.0000000001164,img/planet15_left.png,15,Community 3,NA,TRUE,f,f,NA,NA,NA,1,6,"11,2,7,10,4,13,8,6,5,3,9,14,1,15,12"
15422,commdev-image-keyboard-response,298,1030118,learnblock1,559.9999999998836,img/planet9_left.png,9,Community 3,NA,TRUE,f,f,NA,NA,NA,1,6,"11,2,7,10,4,13,8,6,5,3,9,14,1,15,12"
15422,commdev-image-keyboard-response,299,1031372,learnblock1,812.9999999998836,img/planet1_left.png,1,Community 3,NA,TRUE,f,f,NA,NA,NA,1,6,"11,2,7,10,4,13,8,6,5,3,9,14,1,15,12"
15422,commdev-image-keyboard-response,300,1032625,learnblock1,517.0000000001164,img/planet14_left.png,14,Community 3,NA,TRUE,f,f,NA,NA,NA,1,6,"11,2,7,10,4,13,8,6,5,3,9,14,1,15,12"
15422,commdev-image-keyboard-response,301,1033878,learnblock1,520,img/planet12_right.png,12,Community 3,NA,TRUE,j,j,NA,NA,NA,1,6,"11,2,7,10,4,13,8,6,5,3,9,14,1,15,12"
15422,commdev-image-keyboard-response,302,1035131,learnblock1,552.9999999998836,img/planet9_right.png,9,Community 3,NA,TRUE,j,j,NA,NA,NA,1,6,"11,2,7,10,4,13,8,6,5,3,9,14,1,15,12"
15422,commdev-image-keyboard-response,303,1036384,learnblock1,577,img/planet4_left.png,4,Community 1,NA,TRUE,f,f,NA,NA,NA,1,6,"11,2,7,10,4,13,8,6,5,3,9,14,1,15,12"
15422,commdev-image-keyboard-response,304,1037637,learnblock1,512.0000000001164,img/planet9_right.png,9,Community 3,NA,TRUE,j,j,NA,NA,NA,1,6,"11,2,7,10,4,13,8,6,5,3,9,14,1,15,12"
15422,commdev-image-keyboard-response,305,1038890,learnblock1,482,img/planet4_left.png,4,Community 1,NA,TRUE,f,f,NA,NA,NA,1,6,"11,2,7,10,4,13,8,6,5,3,9,14,1,15,12"
15422,commdev-image-keyboard-response,306,1040143,learnblock1,534.0000000001164,img/planet11_right.png,11,Community 1,NA,TRUE,j,j,NA,NA,NA,1,6,"11,2,7,10,4,13,8,6,5,3,9,14,1,15,12"
15422,commdev-image-keyboard-response,307,1041396,learnblock1,586,img/planet10_right.png,10,Community 1,NA,TRUE,j,j,NA,NA,NA,1,6,"11,2,7,10,4,13,8,6,5,3,9,14,1,15,12"
15422,commdev-image-keyboard-response,308,1042648,learnblock1,560,img/planet11_left.png,11,Community 1,NA,TRUE,f,f,NA,NA,NA,1,6,"11,2,7,10,4,13,8,6,5,3,9,14,1,15,12"
15422,commdev-image-keyboard-response,309,1043901,learnblock1,561.9999999998836,img/planet10_right.png,10,Community 1,NA,TRUE,j,j,NA,NA,NA,1,6,"11,2,7,10,4,13,8,6,5,3,9,14,1,15,12"
15422,commdev-image-keyboard-response,310,1045154,learnblock1,579,img/planet2_left.png,2,Community 1,NA,TRUE,f,f,NA,NA,NA,1,6,"11,2,7,10,4,13,8,6,5,3,9,14,1,15,12"
15422,commdev-image-keyboard-response,311,1046406,learnblock1,598.0000000002328,img/planet10_right.png,10,Community 1,NA,TRUE,j,j,NA,NA,NA,1,6,"11,2,7,10,4,13,8,6,5,3,9,14,1,15,12"
15422,commdev-image-keyboard-response,312,1047658,learnblock1,471,img/planet2_left.png,2,Community 1,NA,TRUE,f,f,NA,NA,NA,1,6,"11,2,7,10,4,13,8,6,5,3,9,14,1,15,12"
15422,commdev-image-keyboard-response,313,1048911,learnblock1,512,img/planet4_right.png,4,Community 1,NA,TRUE,j,j,NA,NA,NA,1,6,"11,2,7,10,4,13,8,6,5,3,9,14,1,15,12"
15422,commdev-image-keyboard-response,314,1050163,learnblock1,475,img/planet9_left.png,9,Community 3,NA,TRUE,f,f,NA,NA,NA,1,6,"11,2,7,10,4,13,8,6,5,3,9,14,1,15,12"
15422,commdev-image-keyboard-response,315,1051416,learnblock1,494,img/planet1_right.png,1,Community 3,NA,TRUE,j,j,NA,NA,NA,1,6,"11,2,7,10,4,13,8,6,5,3,9,14,1,15,12"
15422,commdev-image-keyboard-response,316,1052669,learnblock1,574,img/planet14_right.png,14,Community 3,NA,TRUE,j,j,NA,NA,NA,1,6,"11,2,7,10,4,13,8,6,5,3,9,14,1,15,12"
15422,commdev-image-keyboard-response,317,1053921,learnblock1,448,img/planet6_right.png,6,Community 2,NA,TRUE,j,j,NA,NA,NA,1,6,"11,2,7,10,4,13,8,6,5,3,9,14,1,15,12"
15422,commdev-image-keyboard-response,318,1055175,learnblock1,517,img/planet14_right.png,14,Community 3,NA,TRUE,j,j,NA,NA,NA,1,6,"11,2,7,10,4,13,8,6,5,3,9,14,1,15,12"
15422,commdev-image-keyboard-response,319,1056428,learnblock1,648,img/planet15_right.png,15,Community 3,NA,TRUE,j,j,NA,NA,NA,1,6,"11,2,7,10,4,13,8,6,5,3,9,14,1,15,12"
15422,commdev-image-keyboard-response,320,1057681,learnblock1,578,img/planet12_left.png,12,Community 3,NA,TRUE,f,f,NA,NA,NA,1,6,"11,2,7,10,4,13,8,6,5,3,9,14,1,15,12"
15422,commdev-image-keyboard-response,321,1058934,learnblock1,634,img/planet14_left.png,14,Community 3,NA,TRUE,f,f,NA,NA,NA,1,6,"11,2,7,10,4,13,8,6,5,3,9,14,1,15,12"
15422,commdev-image-keyboard-response,322,1060187,learnblock1,515,img/planet12_left.png,12,Community 3,NA,TRUE,f,f,NA,NA,NA,1,6,"11,2,7,10,4,13,8,6,5,3,9,14,1,15,12"
15422,commdev-image-keyboard-response,323,1061440,learnblock1,547,img/planet1_right.png,1,Community 3,NA,TRUE,j,j,NA,NA,NA,1,6,"11,2,7,10,4,13,8,6,5,3,9,14,1,15,12"
15422,commdev-image-keyboard-response,324,1062692,learnblock1,553,img/planet14_right.png,14,Community 3,NA,TRUE,j,j,NA,NA,NA,1,6,"11,2,7,10,4,13,8,6,5,3,9,14,1,15,12"
15422,commdev-image-keyboard-response,325,1063945,learnblock1,584.9999999997672,img/planet1_left.png,1,Community 3,NA,TRUE,f,f,NA,NA,NA,1,6,"11,2,7,10,4,13,8,6,5,3,9,14,1,15,12"
15422,commdev-image-keyboard-response,326,1065198,learnblock1,525,img/planet14_right.png,14,Community 3,NA,TRUE,j,j,NA,NA,NA,1,6,"11,2,7,10,4,13,8,6,5,3,9,14,1,15,12"
15422,commdev-image-keyboard-response,327,1066450,learnblock1,499,img/planet15_right.png,15,Community 3,NA,TRUE,j,j,NA,NA,NA,1,6,"11,2,7,10,4,13,8,6,5,3,9,14,1,15,12"
15422,commdev-image-keyboard-response,328,1067703,learnblock1,623,img/planet14_left.png,14,Community 3,NA,TRUE,f,f,NA,NA,NA,1,6,"11,2,7,10,4,13,8,6,5,3,9,14,1,15,12"
15422,commdev-image-keyboard-response,329,1068956,learnblock1,621,img/planet1_left.png,1,Community 3,NA,FALSE,j,f,NA,NA,NA,1,6,"11,2,7,10,4,13,8,6,5,3,9,14,1,15,12"
15422,commdev-image-keyboard-response,330,1070210,learnblock1,608,img/planet9_left.png,9,Community 3,NA,TRUE,f,f,NA,NA,NA,1,6,"11,2,7,10,4,13,8,6,5,3,9,14,1,15,12"
15422,commdev-image-keyboard-response,331,1071462,learnblock1,456,img/planet4_left.png,4,Community 1,NA,TRUE,f,f,NA,NA,NA,1,6,"11,2,7,10,4,13,8,6,5,3,9,14,1,15,12"
15422,commdev-image-keyboard-response,332,1072715,learnblock1,770,img/planet7_left.png,7,Community 1,NA,TRUE,f,f,NA,NA,NA,1,6,"11,2,7,10,4,13,8,6,5,3,9,14,1,15,12"
15422,commdev-image-keyboard-response,333,1073968,learnblock1,562,img/planet4_right.png,4,Community 1,NA,TRUE,j,j,NA,NA,NA,1,6,"11,2,7,10,4,13,8,6,5,3,9,14,1,15,12"
15422,commdev-image-keyboard-response,334,1075221,learnblock1,649,img/planet11_right.png,11,Community 1,NA,TRUE,j,j,NA,NA,NA,1,6,"11,2,7,10,4,13,8,6,5,3,9,14,1,15,12"
15422,commdev-image-keyboard-response,335,1076473,learnblock1,587.9999999997672,img/planet4_left.png,4,Community 1,NA,TRUE,f,f,NA,NA,NA,1,6,"11,2,7,10,4,13,8,6,5,3,9,14,1,15,12"
15422,commdev-image-keyboard-response,336,1077726,learnblock1,567,img/planet11_left.png,11,Community 1,NA,TRUE,f,f,NA,NA,NA,1,6,"11,2,7,10,4,13,8,6,5,3,9,14,1,15,12"
15422,commdev-image-keyboard-response,337,1078980,learnblock1,635,img/planet7_right.png,7,Community 1,NA,TRUE,j,j,NA,NA,NA,1,6,"11,2,7,10,4,13,8,6,5,3,9,14,1,15,12"
15422,commdev-image-keyboard-response,338,1080232,learnblock1,859.9999999997672,img/planet11_right.png,11,Community 1,NA,TRUE,j,j,NA,NA,NA,1,6,"11,2,7,10,4,13,8,6,5,3,9,14,1,15,12"
15422,commdev-image-keyboard-response,339,1081484,learnblock1,720,img/planet10_left.png,10,Community 1,NA,TRUE,f,f,NA,NA,NA,1,6,"11,2,7,10,4,13,8,6,5,3,9,14,1,15,12"
15422,commdev-image-keyboard-response,340,1082737,learnblock1,709,img/planet13_left.png,13,Community 2,NA,TRUE,f,f,NA,NA,NA,1,6,"11,2,7,10,4,13,8,6,5,3,9,14,1,15,12"
15422,commdev-image-keyboard-response,341,1083990,learnblock1,731,img/planet8_right.png,8,Community 2,NA,TRUE,j,j,NA,NA,NA,1,6,"11,2,7,10,4,13,8,6,5,3,9,14,1,15,12"
15422,commdev-image-keyboard-response,342,1085242,learnblock1,630,img/planet6_right.png,6,Community 2,NA,TRUE,j,j,NA,NA,NA,1,6,"11,2,7,10,4,13,8,6,5,3,9,14,1,15,12"
15422,commdev-image-keyboard-response,343,1086496,learnblock1,null,img/planet8_left.png,8,Community 2,NA,FALSE,null,f,NA,NA,NA,1,6,"11,2,7,10,4,13,8,6,5,3,9,14,1,15,12"
15422,commdev-image-keyboard-response,344,1087750,learnblock1,173,img/planet6_left.png,6,Community 2,NA,FALSE,j,f,NA,NA,NA,1,6,"11,2,7,10,4,13,8,6,5,3,9,14,1,15,12"
15422,commdev-image-keyboard-response,345,1089003,learnblock1,732,img/planet3_right.png,3,Community 2,NA,TRUE,j,j,NA,NA,NA,1,6,"11,2,7,10,4,13,8,6,5,3,9,14,1,15,12"
15422,commdev-image-keyboard-response,346,1090256,learnblock1,707,img/planet5_left.png,5,Community 2,NA,TRUE,f,f,NA,NA,NA,1,6,"11,2,7,10,4,13,8,6,5,3,9,14,1,15,12"
15422,commdev-image-keyboard-response,347,1091509,learnblock1,764,img/planet8_right.png,8,Community 2,NA,TRUE,j,j,NA,NA,NA,1,6,"11,2,7,10,4,13,8,6,5,3,9,14,1,15,12"
15422,commdev-image-keyboard-response,348,1092762,learnblock1,687,img/planet13_right.png,13,Community 2,NA,TRUE,j,j,NA,NA,NA,1,6,"11,2,7,10,4,13,8,6,5,3,9,14,1,15,12"
15422,commdev-image-keyboard-response,349,1094014,learnblock1,750,img/planet8_right.png,8,Community 2,NA,TRUE,j,j,NA,NA,NA,1,6,"11,2,7,10,4,13,8,6,5,3,9,14,1,15,12"
15422,commdev-image-keyboard-response,350,1095268,learnblock1,864,img/planet13_right.png,13,Community 2,NA,TRUE,j,j,NA,NA,NA,1,6,"11,2,7,10,4,13,8,6,5,3,9,14,1,15,12"
15422,commdev-image-keyboard-response,351,1096520,learnblock1,615,img/planet10_right.png,10,Community 1,NA,TRUE,j,j,NA,NA,NA,1,6,"11,2,7,10,4,13,8,6,5,3,9,14,1,15,12"
15422,commdev-image-keyboard-response,352,1097773,learnblock1,620,img/planet7_left.png,7,Community 1,NA,TRUE,f,f,NA,NA,NA,1,6,"11,2,7,10,4,13,8,6,5,3,9,14,1,15,12"
15422,commdev-image-keyboard-response,353,1099026,learnblock1,550,img/planet11_left.png,11,Community 1,NA,TRUE,f,f,NA,NA,NA,1,6,"11,2,7,10,4,13,8,6,5,3,9,14,1,15,12"
15422,commdev-image-keyboard-response,354,1100278,learnblock1,866.9999999997672,img/planet7_right.png,7,Community 1,NA,TRUE,j,j,NA,NA,NA,1,6,"11,2,7,10,4,13,8,6,5,3,9,14,1,15,12"
15422,commdev-image-keyboard-response,355,1101530,learnblock1,577,img/planet4_left.png,4,Community 1,NA,TRUE,f,f,NA,NA,NA,1,6,"11,2,7,10,4,13,8,6,5,3,9,14,1,15,12"
15422,commdev-image-keyboard-response,356,1102783,learnblock1,549,img/planet9_left.png,9,Community 3,NA,TRUE,f,f,NA,NA,NA,1,6,"11,2,7,10,4,13,8,6,5,3,9,14,1,15,12"
15422,commdev-image-keyboard-response,357,1104037,learnblock1,539,img/planet1_right.png,1,Community 3,NA,TRUE,j,j,NA,NA,NA,1,6,"11,2,7,10,4,13,8,6,5,3,9,14,1,15,12"
15422,commdev-image-keyboard-response,358,1105290,learnblock1,735,img/planet12_right.png,12,Community 3,NA,TRUE,j,j,NA,NA,NA,1,6,"11,2,7,10,4,13,8,6,5,3,9,14,1,15,12"
15422,commdev-image-keyboard-response,359,1106542,learnblock1,449,img/planet9_right.png,9,Community 3,NA,TRUE,j,j,NA,NA,NA,1,6,"11,2,7,10,4,13,8,6,5,3,9,14,1,15,12"
15422,commdev-image-keyboard-response,360,1107795,learnblock1,444,img/planet15_right.png,15,Community 3,NA,TRUE,j,j,NA,NA,NA,1,6,"11,2,7,10,4,13,8,6,5,3,9,14,1,15,12"
15422,commdev-image-keyboard-response,361,1109048,learnblock1,559.9999999997672,img/planet12_left.png,12,Community 3,NA,TRUE,f,f,NA,NA,NA,1,6,"11,2,7,10,4,13,8,6,5,3,9,14,1,15,12"
15422,commdev-image-keyboard-response,362,1110302,learnblock1,501,img/planet9_right.png,9,Community 3,NA,TRUE,j,j,NA,NA,NA,1,6,"11,2,7,10,4,13,8,6,5,3,9,14,1,15,12"
15422,commdev-image-keyboard-response,363,1111554,learnblock1,710,img/planet15_right.png,15,Community 3,NA,TRUE,j,j,NA,NA,NA,1,6,"11,2,7,10,4,13,8,6,5,3,9,14,1,15,12"
15422,commdev-image-keyboard-response,364,1112808,learnblock1,548,img/planet1_right.png,1,Community 3,NA,TRUE,j,j,NA,NA,NA,1,6,"11,2,7,10,4,13,8,6,5,3,9,14,1,15,12"
15422,commdev-image-keyboard-response,365,1114060,learnblock1,475,img/planet14_left.png,14,Community 3,NA,TRUE,f,f,NA,NA,NA,1,6,"11,2,7,10,4,13,8,6,5,3,9,14,1,15,12"
15422,commdev-image-keyboard-response,366,1115313,learnblock1,452,img/planet12_right.png,12,Community 3,NA,TRUE,j,j,NA,NA,NA,1,6,"11,2,7,10,4,13,8,6,5,3,9,14,1,15,12"
15422,commdev-image-keyboard-response,367,1116565,learnblock1,484,img/planet9_left.png,9,Community 3,NA,TRUE,f,f,NA,NA,NA,1,6,"11,2,7,10,4,13,8,6,5,3,9,14,1,15,12"
15422,commdev-image-keyboard-response,368,1117818,learnblock1,440,img/planet4_left.png,4,Community 1,NA,TRUE,f,f,NA,NA,NA,1,6,"11,2,7,10,4,13,8,6,5,3,9,14,1,15,12"
15422,commdev-image-keyboard-response,369,1119071,learnblock1,441,img/planet2_right.png,2,Community 1,NA,TRUE,j,j,NA,NA,NA,1,6,"11,2,7,10,4,13,8,6,5,3,9,14,1,15,12"
15422,commdev-image-keyboard-response,370,1120324,learnblock1,469,img/planet11_right.png,11,Community 1,NA,TRUE,j,j,NA,NA,NA,1,6,"11,2,7,10,4,13,8,6,5,3,9,14,1,15,12"
15422,commdev-image-keyboard-response,371,1121576,learnblock1,517,img/planet2_left.png,2,Community 1,NA,TRUE,f,f,NA,NA,NA,1,6,"11,2,7,10,4,13,8,6,5,3,9,14,1,15,12"
15422,commdev-image-keyboard-response,372,1122828,learnblock1,495,img/planet11_right.png,11,Community 1,NA,TRUE,j,j,NA,NA,NA,1,6,"11,2,7,10,4,13,8,6,5,3,9,14,1,15,12"
15422,commdev-image-keyboard-response,373,1124081,learnblock1,506,img/planet7_right.png,7,Community 1,NA,TRUE,j,j,NA,NA,NA,1,6,"11,2,7,10,4,13,8,6,5,3,9,14,1,15,12"
15422,commdev-image-keyboard-response,374,1125335,learnblock1,422,img/planet11_right.png,11,Community 1,NA,TRUE,j,j,NA,NA,NA,1,6,"11,2,7,10,4,13,8,6,5,3,9,14,1,15,12"
15422,commdev-image-keyboard-response,375,1126587,learnblock1,456,img/planet10_right.png,10,Community 1,NA,TRUE,j,j,NA,NA,NA,1,6,"11,2,7,10,4,13,8,6,5,3,9,14,1,15,12"
15422,commdev-image-keyboard-response,376,1127841,learnblock1,533,img/planet13_left.png,13,Community 2,NA,TRUE,f,f,NA,NA,NA,1,6,"11,2,7,10,4,13,8,6,5,3,9,14,1,15,12"
15422,commdev-image-keyboard-response,377,1129094,learnblock1,539.0000000002328,img/planet10_right.png,10,Community 1,NA,TRUE,j,j,NA,NA,NA,1,6,"11,2,7,10,4,13,8,6,5,3,9,14,1,15,12"
15422,commdev-image-keyboard-response,378,1130348,learnblock1,591,img/planet11_left.png,11,Community 1,NA,TRUE,f,f,NA,NA,NA,1,6,"11,2,7,10,4,13,8,6,5,3,9,14,1,15,12"
15422,commdev-image-keyboard-response,379,1131600,learnblock1,659,img/planet10_left.png,10,Community 1,NA,TRUE,f,f,NA,NA,NA,1,6,"11,2,7,10,4,13,8,6,5,3,9,14,1,15,12"
15422,commdev-image-keyboard-response,380,1132852,learnblock1,554,img/planet11_left.png,11,Community 1,NA,TRUE,f,f,NA,NA,NA,1,6,"11,2,7,10,4,13,8,6,5,3,9,14,1,15,12"
15422,commdev-image-keyboard-response,381,1134103,learnblock1,418.99999999976717,img/planet7_right.png,7,Community 1,NA,TRUE,j,j,NA,NA,NA,1,6,"11,2,7,10,4,13,8,6,5,3,9,14,1,15,12"
15422,commdev-image-keyboard-response,382,1135355,learnblock1,651,img/planet2_left.png,2,Community 1,NA,TRUE,f,f,NA,NA,NA,1,6,"11,2,7,10,4,13,8,6,5,3,9,14,1,15,12"
15422,commdev-image-keyboard-response,383,1136607,learnblock1,525.0000000002328,img/planet10_left.png,10,Community 1,NA,TRUE,f,f,NA,NA,NA,1,6,"11,2,7,10,4,13,8,6,5,3,9,14,1,15,12"
15422,commdev-image-keyboard-response,384,1137860,learnblock1,507,img/planet2_right.png,2,Community 1,NA,TRUE,j,j,NA,NA,NA,1,6,"11,2,7,10,4,13,8,6,5,3,9,14,1,15,12"
15422,commdev-image-keyboard-response,385,1139112,learnblock1,659,img/planet11_right.png,11,Community 1,NA,TRUE,j,j,NA,NA,NA,1,6,"11,2,7,10,4,13,8,6,5,3,9,14,1,15,12"
15422,commdev-image-keyboard-response,386,1140365,learnblock1,624,img/planet10_right.png,10,Community 1,NA,TRUE,j,j,NA,NA,NA,1,6,"11,2,7,10,4,13,8,6,5,3,9,14,1,15,12"
15422,commdev-image-keyboard-response,387,1141618,learnblock1,475,img/planet2_right.png,2,Community 1,NA,TRUE,j,j,NA,NA,NA,1,6,"11,2,7,10,4,13,8,6,5,3,9,14,1,15,12"
15422,commdev-image-keyboard-response,388,1142872,learnblock1,541,img/planet11_left.png,11,Community 1,NA,TRUE,f,f,NA,NA,NA,1,6,"11,2,7,10,4,13,8,6,5,3,9,14,1,15,12"
15422,commdev-image-keyboard-response,389,1144125,learnblock1,598,img/planet4_right.png,4,Community 1,NA,TRUE,j,j,NA,NA,NA,1,6,"11,2,7,10,4,13,8,6,5,3,9,14,1,15,12"
15422,commdev-image-keyboard-response,390,1145378,learnblock1,645,img/planet2_right.png,2,Community 1,NA,TRUE,j,j,NA,NA,NA,1,6,"11,2,7,10,4,13,8,6,5,3,9,14,1,15,12"
15422,commdev-image-keyboard-response,391,1146631,learnblock1,567,img/planet10_left.png,10,Community 1,NA,TRUE,f,f,NA,NA,NA,1,6,"11,2,7,10,4,13,8,6,5,3,9,14,1,15,12"
15422,commdev-image-keyboard-response,392,1147884,learnblock1,501,img/planet11_right.png,11,Community 1,NA,TRUE,j,j,NA,NA,NA,1,6,"11,2,7,10,4,13,8,6,5,3,9,14,1,15,12"
15422,commdev-image-keyboard-response,393,1149136,learnblock1,499,img/planet2_right.png,2,Community 1,NA,TRUE,j,j,NA,NA,NA,1,6,"11,2,7,10,4,13,8,6,5,3,9,14,1,15,12"
15422,commdev-image-keyboard-response,394,1150389,learnblock1,542,img/planet4_left.png,4,Community 1,NA,TRUE,f,f,NA,NA,NA,1,6,"11,2,7,10,4,13,8,6,5,3,9,14,1,15,12"
15422,commdev-image-keyboard-response,395,1151642,learnblock1,549.9999999997672,img/planet11_right.png,11,Community 1,NA,TRUE,j,j,NA,NA,NA,1,6,"11,2,7,10,4,13,8,6,5,3,9,14,1,15,12"
15422,commdev-image-keyboard-response,396,1152894,learnblock1,624,img/planet10_right.png,10,Community 1,NA,TRUE,j,j,NA,NA,NA,1,6,"11,2,7,10,4,13,8,6,5,3,9,14,1,15,12"
15422,commdev-image-keyboard-response,397,1154147,learnblock1,713,img/planet13_right.png,13,Community 2,NA,TRUE,j,j,NA,NA,NA,1,6,"11,2,7,10,4,13,8,6,5,3,9,14,1,15,12"
15422,commdev-image-keyboard-response,398,1155400,learnblock1,682,img/planet5_right.png,5,Community 2,NA,TRUE,j,j,NA,NA,NA,1,6,"11,2,7,10,4,13,8,6,5,3,9,14,1,15,12"
15422,commdev-image-keyboard-response,399,1156652,learnblock1,572,img/planet6_right.png,6,Community 2,NA,TRUE,j,j,NA,NA,NA,1,6,"11,2,7,10,4,13,8,6,5,3,9,14,1,15,12"
15422,commdev-image-keyboard-response,400,1157905,learnblock1,648,img/planet3_right.png,3,Community 2,NA,TRUE,j,j,NA,NA,NA,1,6,"11,2,7,10,4,13,8,6,5,3,9,14,1,15,12"
15422,commdev-image-keyboard-response,401,1159158,learnblock1,487,img/planet6_left.png,6,Community 2,NA,TRUE,f,f,NA,NA,NA,1,6,"11,2,7,10,4,13,8,6,5,3,9,14,1,15,12"
15422,commdev-image-keyboard-response,402,1160411,learnblock1,521,img/planet3_right.png,3,Community 2,NA,TRUE,j,j,NA,NA,NA,1,6,"11,2,7,10,4,13,8,6,5,3,9,14,1,15,12"
15422,commdev-image-keyboard-response,403,1161665,learnblock1,458,img/planet6_left.png,6,Community 2,NA,TRUE,f,f,NA,NA,NA,1,6,"11,2,7,10,4,13,8,6,5,3,9,14,1,15,12"
15422,commdev-image-keyboard-response,404,1162919,learnblock1,442,img/planet14_left.png,14,Community 3,NA,FALSE,j,f,NA,NA,NA,1,6,"11,2,7,10,4,13,8,6,5,3,9,14,1,15,12"
15422,commdev-image-keyboard-response,405,1164171,learnblock1,559,img/planet1_right.png,1,Community 3,NA,TRUE,j,j,NA,NA,NA,1,6,"11,2,7,10,4,13,8,6,5,3,9,14,1,15,12"
15422,commdev-image-keyboard-response,406,1165424,learnblock1,515.0000000002328,img/planet12_left.png,12,Community 3,NA,TRUE,f,f,NA,NA,NA,1,6,"11,2,7,10,4,13,8,6,5,3,9,14,1,15,12"
15422,commdev-image-keyboard-response,407,1166677,learnblock1,420,img/planet9_left.png,9,Community 3,NA,TRUE,f,f,NA,NA,NA,1,6,"11,2,7,10,4,13,8,6,5,3,9,14,1,15,12"
15422,commdev-image-keyboard-response,408,1167930,learnblock1,521,img/planet12_right.png,12,Community 3,NA,TRUE,j,j,NA,NA,NA,1,6,"11,2,7,10,4,13,8,6,5,3,9,14,1,15,12"
15422,commdev-image-keyboard-response,409,1169183,learnblock1,530,img/planet14_left.png,14,Community 3,NA,TRUE,f,f,NA,NA,NA,1,6,"11,2,7,10,4,13,8,6,5,3,9,14,1,15,12"
15422,commdev-image-keyboard-response,410,1170435,learnblock1,525,img/planet6_left.png,6,Community 2,NA,FALSE,j,f,NA,NA,NA,1,6,"11,2,7,10,4,13,8,6,5,3,9,14,1,15,12"
15422,commdev-image-keyboard-response,411,1171687,learnblock1,666.9999999997672,img/planet14_right.png,14,Community 3,NA,TRUE,j,j,NA,NA,NA,1,6,"11,2,7,10,4,13,8,6,5,3,9,14,1,15,12"
15422,commdev-image-keyboard-response,412,1172940,learnblock1,550,img/planet6_left.png,6,Community 2,NA,TRUE,f,f,NA,NA,NA,1,6,"11,2,7,10,4,13,8,6,5,3,9,14,1,15,12"
15422,commdev-image-keyboard-response,413,1174192,learnblock1,782,img/planet14_right.png,14,Community 3,NA,TRUE,j,j,NA,NA,NA,1,6,"11,2,7,10,4,13,8,6,5,3,9,14,1,15,12"
15422,commdev-image-keyboard-response,414,1175445,learnblock1,770,img/planet15_right.png,15,Community 3,NA,TRUE,j,j,NA,NA,NA,1,6,"11,2,7,10,4,13,8,6,5,3,9,14,1,15,12"
15422,commdev-image-keyboard-response,415,1176697,learnblock1,459,img/planet9_left.png,9,Community 3,NA,TRUE,f,f,NA,NA,NA,1,6,"11,2,7,10,4,13,8,6,5,3,9,14,1,15,12"
15422,commdev-image-keyboard-response,416,1177950,learnblock1,431,img/planet1_left.png,1,Community 3,NA,TRUE,f,f,NA,NA,NA,1,6,"11,2,7,10,4,13,8,6,5,3,9,14,1,15,12"
15422,commdev-image-keyboard-response,417,1179203,learnblock1,587,img/planet14_left.png,14,Community 3,NA,TRUE,f,f,NA,NA,NA,1,6,"11,2,7,10,4,13,8,6,5,3,9,14,1,15,12"
15422,commdev-image-keyboard-response,418,1180456,learnblock1,531.0000000002328,img/planet6_right.png,6,Community 2,NA,TRUE,j,j,NA,NA,NA,1,6,"11,2,7,10,4,13,8,6,5,3,9,14,1,15,12"
15422,commdev-image-keyboard-response,419,1181708,learnblock1,479,img/planet3_right.png,3,Community 2,NA,TRUE,j,j,NA,NA,NA,1,6,"11,2,7,10,4,13,8,6,5,3,9,14,1,15,12"
15422,commdev-image-keyboard-response,420,1182962,learnblock1,421,img/planet6_right.png,6,Community 2,NA,TRUE,j,j,NA,NA,NA,1,6,"11,2,7,10,4,13,8,6,5,3,9,14,1,15,12"
15422,commdev-image-keyboard-response,421,1184216,learnblock1,650,img/planet3_left.png,3,Community 2,NA,TRUE,f,f,NA,NA,NA,1,6,"11,2,7,10,4,13,8,6,5,3,9,14,1,15,12"
15422,commdev-image-keyboard-response,422,1185469,learnblock1,670.0000000002328,img/planet6_right.png,6,Community 2,NA,TRUE,j,j,NA,NA,NA,1,6,"11,2,7,10,4,13,8,6,5,3,9,14,1,15,12"
15422,commdev-image-keyboard-response,423,1186722,learnblock1,687,img/planet8_right.png,8,Community 2,NA,TRUE,j,j,NA,NA,NA,1,6,"11,2,7,10,4,13,8,6,5,3,9,14,1,15,12"
15422,commdev-image-keyboard-response,424,1187975,learnblock1,1066.9999999997672,img/planet6_right.png,6,Community 2,NA,TRUE,j,j,NA,NA,NA,1,6,"11,2,7,10,4,13,8,6,5,3,9,14,1,15,12"
15422,commdev-image-keyboard-response,425,1189227,learnblock1,664,img/planet8_right.png,8,Community 2,NA,TRUE,j,j,NA,NA,NA,1,6,"11,2,7,10,4,13,8,6,5,3,9,14,1,15,12"
15422,commdev-image-keyboard-response,426,1190480,learnblock1,570,img/planet3_left.png,3,Community 2,NA,TRUE,f,f,NA,NA,NA,1,6,"11,2,7,10,4,13,8,6,5,3,9,14,1,15,12"
15422,commdev-image-keyboard-response,427,1191733,learnblock1,492,img/planet8_right.png,8,Community 2,NA,TRUE,j,j,NA,NA,NA,1,6,"11,2,7,10,4,13,8,6,5,3,9,14,1,15,12"
15422,commdev-image-keyboard-response,428,1192986,learnblock1,551,img/planet5_right.png,5,Community 2,NA,TRUE,j,j,NA,NA,NA,1,6,"11,2,7,10,4,13,8,6,5,3,9,14,1,15,12"
15422,commdev-image-keyboard-response,429,1194237,learnblock1,589,img/planet3_left.png,3,Community 2,NA,TRUE,f,f,NA,NA,NA,1,6,"11,2,7,10,4,13,8,6,5,3,9,14,1,15,12"
15422,commdev-image-keyboard-response,430,1195490,learnblock1,580,img/planet5_right.png,5,Community 2,NA,TRUE,j,j,NA,NA,NA,1,6,"11,2,7,10,4,13,8,6,5,3,9,14,1,15,12"
15422,commdev-image-keyboard-response,431,1196743,learnblock1,580,img/planet8_left.png,8,Community 2,NA,TRUE,f,f,NA,NA,NA,1,6,"11,2,7,10,4,13,8,6,5,3,9,14,1,15,12"
15422,commdev-image-keyboard-response,435,1302711,learnblock2,658,img/planet8_left.png,8,Community 2,NA,TRUE,f,f,NA,NA,NA,1,6,"11,2,7,10,4,13,8,6,5,3,9,14,1,15,12"
15422,commdev-image-keyboard-response,436,1303964,learnblock2,509,img/planet3_left.png,3,Community 2,NA,TRUE,f,f,NA,NA,NA,1,6,"11,2,7,10,4,13,8,6,5,3,9,14,1,15,12"
15422,commdev-image-keyboard-response,437,1305217,learnblock2,580,img/planet6_right.png,6,Community 2,NA,TRUE,j,j,NA,NA,NA,1,6,"11,2,7,10,4,13,8,6,5,3,9,14,1,15,12"
15422,commdev-image-keyboard-response,438,1306470,learnblock2,511,img/planet14_right.png,14,Community 3,NA,TRUE,j,j,NA,NA,NA,1,6,"11,2,7,10,4,13,8,6,5,3,9,14,1,15,12"
15422,commdev-image-keyboard-response,439,1307723,learnblock2,545,img/planet6_right.png,6,Community 2,NA,TRUE,j,j,NA,NA,NA,1,6,"11,2,7,10,4,13,8,6,5,3,9,14,1,15,12"
15422,commdev-image-keyboard-response,440,1308975,learnblock2,521.0000000002328,img/planet8_left.png,8,Community 2,NA,TRUE,f,f,NA,NA,NA,1,6,"11,2,7,10,4,13,8,6,5,3,9,14,1,15,12"
15422,commdev-image-keyboard-response,441,1310228,learnblock2,476.99999999976717,img/planet3_right.png,3,Community 2,NA,TRUE,j,j,NA,NA,NA,1,6,"11,2,7,10,4,13,8,6,5,3,9,14,1,15,12"
15422,commdev-image-keyboard-response,442,1311482,learnblock2,445,img/planet6_right.png,6,Community 2,NA,TRUE,j,j,NA,NA,NA,1,6,"11,2,7,10,4,13,8,6,5,3,9,14,1,15,12"
15422,commdev-image-keyboard-response,443,1312734,learnblock2,563,img/planet3_left.png,3,Community 2,NA,TRUE,f,f,NA,NA,NA,1,6,"11,2,7,10,4,13,8,6,5,3,9,14,1,15,12"
15422,commdev-image-keyboard-response,444,1313987,learnblock2,551.9999999997672,img/planet5_right.png,5,Community 2,NA,TRUE,j,j,NA,NA,NA,1,6,"11,2,7,10,4,13,8,6,5,3,9,14,1,15,12"
15422,commdev-image-keyboard-response,445,1315240,learnblock2,496,img/planet6_right.png,6,Community 2,NA,TRUE,j,j,NA,NA,NA,1,6,"11,2,7,10,4,13,8,6,5,3,9,14,1,15,12"
15422,commdev-image-keyboard-response,446,1316494,learnblock2,583,img/planet14_right.png,14,Community 3,NA,TRUE,j,j,NA,NA,NA,1,6,"11,2,7,10,4,13,8,6,5,3,9,14,1,15,12"
15422,commdev-image-keyboard-response,447,1317747,learnblock2,530.9999999997672,img/planet6_right.png,6,Community 2,NA,TRUE,j,j,NA,NA,NA,1,6,"11,2,7,10,4,13,8,6,5,3,9,14,1,15,12"
15422,commdev-image-keyboard-response,448,1319000,learnblock2,466,img/planet5_right.png,5,Community 2,NA,TRUE,j,j,NA,NA,NA,1,6,"11,2,7,10,4,13,8,6,5,3,9,14,1,15,12"
15422,commdev-image-keyboard-response,449,1320253,learnblock2,565,img/planet13_right.png,13,Community 2,NA,TRUE,j,j,NA,NA,NA,1,6,"11,2,7,10,4,13,8,6,5,3,9,14,1,15,12"
15422,commdev-image-keyboard-response,450,1321507,learnblock2,450.99999999976717,img/planet3_right.png,3,Community 2,NA,TRUE,j,j,NA,NA,NA,1,6,"11,2,7,10,4,13,8,6,5,3,9,14,1,15,12"
15422,commdev-image-keyboard-response,451,1322761,learnblock2,519,img/planet8_left.png,8,Community 2,NA,TRUE,f,f,NA,NA,NA,1,6,"11,2,7,10,4,13,8,6,5,3,9,14,1,15,12"
15422,commdev-image-keyboard-response,452,1324014,learnblock2,513,img/planet6_right.png,6,Community 2,NA,TRUE,j,j,NA,NA,NA,1,6,"11,2,7,10,4,13,8,6,5,3,9,14,1,15,12"
15422,commdev-image-keyboard-response,453,1325267,learnblock2,543,img/planet5_left.png,5,Community 2,NA,TRUE,f,f,NA,NA,NA,1,6,"11,2,7,10,4,13,8,6,5,3,9,14,1,15,12"
15422,commdev-image-keyboard-response,454,1326520,learnblock2,502,img/planet6_left.png,6,Community 2,NA,TRUE,f,f,NA,NA,NA,1,6,"11,2,7,10,4,13,8,6,5,3,9,14,1,15,12"
15422,commdev-image-keyboard-response,455,1327773,learnblock2,646.0000000002328,img/planet8_left.png,8,Community 2,NA,TRUE,f,f,NA,NA,NA,1,6,"11,2,7,10,4,13,8,6,5,3,9,14,1,15,12"
15422,commdev-image-keyboard-response,456,1329026,learnblock2,555,img/planet6_right.png,6,Community 2,NA,TRUE,j,j,NA,NA,NA,1,6,"11,2,7,10,4,13,8,6,5,3,9,14,1,15,12"
15422,commdev-image-keyboard-response,457,1330279,learnblock2,694,img/planet14_left.png,14,Community 3,NA,TRUE,f,f,NA,NA,NA,1,6,"11,2,7,10,4,13,8,6,5,3,9,14,1,15,12"
15422,commdev-image-keyboard-response,458,1331533,learnblock2,520,img/planet12_left.png,12,Community 3,NA,TRUE,f,f,NA,NA,NA,1,6,"11,2,7,10,4,13,8,6,5,3,9,14,1,15,12"
15422,commdev-image-keyboard-response,459,1332785,learnblock2,472,img/planet9_right.png,9,Community 3,NA,TRUE,j,j,NA,NA,NA,1,6,"11,2,7,10,4,13,8,6,5,3,9,14,1,15,12"
15422,commdev-image-keyboard-response,460,1334038,learnblock2,521,img/planet1_left.png,1,Community 3,NA,TRUE,f,f,NA,NA,NA,1,6,"11,2,7,10,4,13,8,6,5,3,9,14,1,15,12"
15422,commdev-image-keyboard-response,461,1335292,learnblock2,553,img/planet14_left.png,14,Community 3,NA,TRUE,f,f,NA,NA,NA,1,6,"11,2,7,10,4,13,8,6,5,3,9,14,1,15,12"
15422,commdev-image-keyboard-response,462,1336544,learnblock2,516,img/planet1_left.png,1,Community 3,NA,TRUE,f,f,NA,NA,NA,1,6,"11,2,7,10,4,13,8,6,5,3,9,14,1,15,12"
15422,commdev-image-keyboard-response,463,1337798,learnblock2,586,img/planet15_right.png,15,Community 3,NA,TRUE,j,j,NA,NA,NA,1,6,"11,2,7,10,4,13,8,6,5,3,9,14,1,15,12"
15422,commdev-image-keyboard-response,464,1339051,learnblock2,553,img/planet12_left.png,12,Community 3,NA,TRUE,f,f,NA,NA,NA,1,6,"11,2,7,10,4,13,8,6,5,3,9,14,1,15,12"
15422,commdev-image-keyboard-response,465,1340305,learnblock2,642.0000000002328,img/planet14_right.png,14,Community 3,NA,TRUE,j,j,NA,NA,NA,1,6,"11,2,7,10,4,13,8,6,5,3,9,14,1,15,12"
15422,commdev-image-keyboard-response,466,1341559,learnblock2,493,img/planet12_left.png,12,Community 3,NA,TRUE,f,f,NA,NA,NA,1,6,"11,2,7,10,4,13,8,6,5,3,9,14,1,15,12"
15422,commdev-image-keyboard-response,467,1342812,learnblock2,491,img/planet15_right.png,15,Community 3,NA,TRUE,j,j,NA,NA,NA,1,6,"11,2,7,10,4,13,8,6,5,3,9,14,1,15,12"
15422,commdev-image-keyboard-response,468,1344064,learnblock2,470.00000000023283,img/planet14_right.png,14,Community 3,NA,TRUE,j,j,NA,NA,NA,1,6,"11,2,7,10,4,13,8,6,5,3,9,14,1,15,12"
15422,commdev-image-keyboard-response,469,1345317,learnblock2,449,img/planet15_left.png,15,Community 3,NA,TRUE,f,f,NA,NA,NA,1,6,"11,2,7,10,4,13,8,6,5,3,9,14,1,15,12"
15422,commdev-image-keyboard-response,470,1346570,learnblock2,509,img/planet9_right.png,9,Community 3,NA,TRUE,j,j,NA,NA,NA,1,6,"11,2,7,10,4,13,8,6,5,3,9,14,1,15,12"
15422,commdev-image-keyboard-response,471,1347824,learnblock2,579,img/planet4_right.png,4,Community 1,NA,TRUE,j,j,NA,NA,NA,1,6,"11,2,7,10,4,13,8,6,5,3,9,14,1,15,12"
15422,commdev-image-keyboard-response,472,1349077,learnblock2,535,img/planet2_left.png,2,Community 1,NA,TRUE,f,f,NA,NA,NA,1,6,"11,2,7,10,4,13,8,6,5,3,9,14,1,15,12"
15422,commdev-image-keyboard-response,473,1350329,learnblock2,643,img/planet7_right.png,7,Community 1,NA,TRUE,j,j,NA,NA,NA,1,6,"11,2,7,10,4,13,8,6,5,3,9,14,1,15,12"
15422,commdev-image-keyboard-response,474,1351581,learnblock2,540.9999999997672,img/planet10_right.png,10,Community 1,NA,TRUE,j,j,NA,NA,NA,1,6,"11,2,7,10,4,13,8,6,5,3,9,14,1,15,12"
15422,commdev-image-keyboard-response,475,1352834,learnblock2,503,img/planet13_left.png,13,Community 2,NA,TRUE,f,f,NA,NA,NA,1,6,"11,2,7,10,4,13,8,6,5,3,9,14,1,15,12"
15422,commdev-image-keyboard-response,476,1354087,learnblock2,586,img/planet5_right.png,5,Community 2,NA,TRUE,j,j,NA,NA,NA,1,6,"11,2,7,10,4,13,8,6,5,3,9,14,1,15,12"
15422,commdev-image-keyboard-response,477,1355341,learnblock2,562.9999999997672,img/planet8_left.png,8,Community 2,NA,TRUE,f,f,NA,NA,NA,1,6,"11,2,7,10,4,13,8,6,5,3,9,14,1,15,12"
15422,commdev-image-keyboard-response,478,1356594,learnblock2,817,img/planet13_left.png,13,Community 2,NA,FALSE,j,f,NA,NA,NA,1,6,"11,2,7,10,4,13,8,6,5,3,9,14,1,15,12"
15422,commdev-image-keyboard-response,479,1357848,learnblock2,696,img/planet8_right.png,8,Community 2,NA,TRUE,j,j,NA,NA,NA,1,6,"11,2,7,10,4,13,8,6,5,3,9,14,1,15,12"
15422,commdev-image-keyboard-response,480,1359101,learnblock2,623,img/planet5_right.png,5,Community 2,NA,TRUE,j,j,NA,NA,NA,1,6,"11,2,7,10,4,13,8,6,5,3,9,14,1,15,12"
15422,commdev-image-keyboard-response,481,1360353,learnblock2,627,img/planet13_right.png,13,Community 2,NA,TRUE,j,j,NA,NA,NA,1,6,"11,2,7,10,4,13,8,6,5,3,9,14,1,15,12"
15422,commdev-image-keyboard-response,482,1361607,learnblock2,512,img/planet10_left.png,10,Community 1,NA,TRUE,f,f,NA,NA,NA,1,6,"11,2,7,10,4,13,8,6,5,3,9,14,1,15,12"
15422,commdev-image-keyboard-response,483,1362860,learnblock2,648,img/planet2_right.png,2,Community 1,NA,TRUE,j,j,NA,NA,NA,1,6,"11,2,7,10,4,13,8,6,5,3,9,14,1,15,12"
15422,commdev-image-keyboard-response,484,1364114,learnblock2,633,img/planet11_left.png,11,Community 1,NA,TRUE,f,f,NA,NA,NA,1,6,"11,2,7,10,4,13,8,6,5,3,9,14,1,15,12"
15422,commdev-image-keyboard-response,485,1365366,learnblock2,562,img/planet10_right.png,10,Community 1,NA,TRUE,j,j,NA,NA,NA,1,6,"11,2,7,10,4,13,8,6,5,3,9,14,1,15,12"
15422,commdev-image-keyboard-response,486,1366619,learnblock2,683.9999999997672,img/planet2_right.png,2,Community 1,NA,TRUE,j,j,NA,NA,NA,1,6,"11,2,7,10,4,13,8,6,5,3,9,14,1,15,12"
15422,commdev-image-keyboard-response,487,1367872,learnblock2,646,img/planet7_right.png,7,Community 1,NA,TRUE,j,j,NA,NA,NA,1,6,"11,2,7,10,4,13,8,6,5,3,9,14,1,15,12"
15422,commdev-image-keyboard-response,488,1369125,learnblock2,561.0000000002328,img/planet4_right.png,4,Community 1,NA,TRUE,j,j,NA,NA,NA,1,6,"11,2,7,10,4,13,8,6,5,3,9,14,1,15,12"
15422,commdev-image-keyboard-response,489,1370378,learnblock2,438,img/planet2_right.png,2,Community 1,NA,TRUE,j,j,NA,NA,NA,1,6,"11,2,7,10,4,13,8,6,5,3,9,14,1,15,12"
15422,commdev-image-keyboard-response,490,1371632,learnblock2,487,img/planet7_right.png,7,Community 1,NA,TRUE,j,j,NA,NA,NA,1,6,"11,2,7,10,4,13,8,6,5,3,9,14,1,15,12"
15422,commdev-image-keyboard-response,491,1372886,learnblock2,621,img/planet11_right.png,11,Community 1,NA,TRUE,j,j,NA,NA,NA,1,6,"11,2,7,10,4,13,8,6,5,3,9,14,1,15,12"
15422,commdev-image-keyboard-response,492,1374138,learnblock2,483,img/planet4_right.png,4,Community 1,NA,TRUE,j,j,NA,NA,NA,1,6,"11,2,7,10,4,13,8,6,5,3,9,14,1,15,12"
15422,commdev-image-keyboard-response,493,1375392,learnblock2,617,img/planet9_left.png,9,Community 3,NA,TRUE,f,f,NA,NA,NA,1,6,"11,2,7,10,4,13,8,6,5,3,9,14,1,15,12"
15422,commdev-image-keyboard-response,494,1376645,learnblock2,467,img/planet12_left.png,12,Community 3,NA,TRUE,f,f,NA,NA,NA,1,6,"11,2,7,10,4,13,8,6,5,3,9,14,1,15,12"
15422,commdev-image-keyboard-response,495,1377898,learnblock2,557.0000000002328,img/planet14_right.png,14,Community 3,NA,TRUE,j,j,NA,NA,NA,1,6,"11,2,7,10,4,13,8,6,5,3,9,14,1,15,12"
15422,commdev-image-keyboard-response,496,1379151,learnblock2,497,img/planet1_left.png,1,Community 3,NA,TRUE,f,f,NA,NA,NA,1,6,"11,2,7,10,4,13,8,6,5,3,9,14,1,15,12"
15422,commdev-image-keyboard-response,497,1380405,learnblock2,455,img/planet9_right.png,9,Community 3,NA,TRUE,j,j,NA,NA,NA,1,6,"11,2,7,10,4,13,8,6,5,3,9,14,1,15,12"
15422,commdev-image-keyboard-response,498,1381658,learnblock2,616,img/planet1_left.png,1,Community 3,NA,TRUE,f,f,NA,NA,NA,1,6,"11,2,7,10,4,13,8,6,5,3,9,14,1,15,12"
15422,commdev-image-keyboard-response,499,1382911,learnblock2,574,img/planet14_left.png,14,Community 3,NA,TRUE,f,f,NA,NA,NA,1,6,"11,2,7,10,4,13,8,6,5,3,9,14,1,15,12"
15422,commdev-image-keyboard-response,500,1384163,learnblock2,542,img/planet15_right.png,15,Community 3,NA,TRUE,j,j,NA,NA,NA,1,6,"11,2,7,10,4,13,8,6,5,3,9,14,1,15,12"
15422,commdev-image-keyboard-response,501,1385416,learnblock2,574,img/planet14_right.png,14,Community 3,NA,TRUE,j,j,NA,NA,NA,1,6,"11,2,7,10,4,13,8,6,5,3,9,14,1,15,12"
15422,commdev-image-keyboard-response,502,1386668,learnblock2,453,img/planet1_left.png,1,Community 3,NA,TRUE,f,f,NA,NA,NA,1,6,"11,2,7,10,4,13,8,6,5,3,9,14,1,15,12"
15422,commdev-image-keyboard-response,503,1387921,learnblock2,492,img/planet12_right.png,12,Community 3,NA,TRUE,j,j,NA,NA,NA,1,6,"11,2,7,10,4,13,8,6,5,3,9,14,1,15,12"
15422,commdev-image-keyboard-response,504,1389173,learnblock2,484,img/planet15_left.png,15,Community 3,NA,TRUE,f,f,NA,NA,NA,1,6,"11,2,7,10,4,13,8,6,5,3,9,14,1,15,12"
15422,commdev-image-keyboard-response,505,1390426,learnblock2,567,img/planet14_left.png,14,Community 3,NA,TRUE,f,f,NA,NA,NA,1,6,"11,2,7,10,4,13,8,6,5,3,9,14,1,15,12"
15422,commdev-image-keyboard-response,506,1391679,learnblock2,470,img/planet12_left.png,12,Community 3,NA,TRUE,f,f,NA,NA,NA,1,6,"11,2,7,10,4,13,8,6,5,3,9,14,1,15,12"
15422,commdev-image-keyboard-response,507,1392932,learnblock2,427,img/planet9_left.png,9,Community 3,NA,TRUE,f,f,NA,NA,NA,1,6,"11,2,7,10,4,13,8,6,5,3,9,14,1,15,12"
15422,commdev-image-keyboard-response,508,1394186,learnblock2,538,img/planet1_right.png,1,Community 3,NA,TRUE,j,j,NA,NA,NA,1,6,"11,2,7,10,4,13,8,6,5,3,9,14,1,15,12"
15422,commdev-image-keyboard-response,509,1395439,learnblock2,497,img/planet9_right.png,9,Community 3,NA,TRUE,j,j,NA,NA,NA,1,6,"11,2,7,10,4,13,8,6,5,3,9,14,1,15,12"
15422,commdev-image-keyboard-response,510,1396692,learnblock2,571,img/planet15_left.png,15,Community 3,NA,TRUE,f,f,NA,NA,NA,1,6,"11,2,7,10,4,13,8,6,5,3,9,14,1,15,12"
15422,commdev-image-keyboard-response,511,1397945,learnblock2,519,img/planet1_left.png,1,Community 3,NA,TRUE,f,f,NA,NA,NA,1,6,"11,2,7,10,4,13,8,6,5,3,9,14,1,15,12"
15422,commdev-image-keyboard-response,512,1399197,learnblock2,511,img/planet12_left.png,12,Community 3,NA,TRUE,f,f,NA,NA,NA,1,6,"11,2,7,10,4,13,8,6,5,3,9,14,1,15,12"
15422,commdev-image-keyboard-response,513,1400450,learnblock2,629.0000000002328,img/planet15_right.png,15,Community 3,NA,TRUE,j,j,NA,NA,NA,1,6,"11,2,7,10,4,13,8,6,5,3,9,14,1,15,12"
15422,commdev-image-keyboard-response,514,1401703,learnblock2,579.9999999997672,img/planet1_left.png,1,Community 3,NA,TRUE,f,f,NA,NA,NA,1,6,"11,2,7,10,4,13,8,6,5,3,9,14,1,15,12"
15422,commdev-image-keyboard-response,515,1402956,learnblock2,482,img/planet9_left.png,9,Community 3,NA,TRUE,f,f,NA,NA,NA,1,6,"11,2,7,10,4,13,8,6,5,3,9,14,1,15,12"
15422,commdev-image-keyboard-response,516,1404209,learnblock2,492,img/planet1_right.png,1,Community 3,NA,TRUE,j,j,NA,NA,NA,1,6,"11,2,7,10,4,13,8,6,5,3,9,14,1,15,12"
15422,commdev-image-keyboard-response,517,1405461,learnblock2,485,img/planet15_left.png,15,Community 3,NA,TRUE,f,f,NA,NA,NA,1,6,"11,2,7,10,4,13,8,6,5,3,9,14,1,15,12"
15422,commdev-image-keyboard-response,518,1406713,learnblock2,501,img/planet14_right.png,14,Community 3,NA,TRUE,j,j,NA,NA,NA,1,6,"11,2,7,10,4,13,8,6,5,3,9,14,1,15,12"
15422,commdev-image-keyboard-response,519,1407965,learnblock2,450,img/planet12_right.png,12,Community 3,NA,TRUE,j,j,NA,NA,NA,1,6,"11,2,7,10,4,13,8,6,5,3,9,14,1,15,12"
15422,commdev-image-keyboard-response,520,1409217,learnblock2,533,img/planet1_left.png,1,Community 3,NA,TRUE,f,f,NA,NA,NA,1,6,"11,2,7,10,4,13,8,6,5,3,9,14,1,15,12"
15422,commdev-image-keyboard-response,521,1410470,learnblock2,616,img/planet14_left.png,14,Community 3,NA,TRUE,f,f,NA,NA,NA,1,6,"11,2,7,10,4,13,8,6,5,3,9,14,1,15,12"
15422,commdev-image-keyboard-response,522,1411723,learnblock2,462,img/planet12_left.png,12,Community 3,NA,TRUE,f,f,NA,NA,NA,1,6,"11,2,7,10,4,13,8,6,5,3,9,14,1,15,12"
15422,commdev-image-keyboard-response,523,1412976,learnblock2,516,img/planet15_right.png,15,Community 3,NA,TRUE,j,j,NA,NA,NA,1,6,"11,2,7,10,4,13,8,6,5,3,9,14,1,15,12"
15422,commdev-image-keyboard-response,524,1414228,learnblock2,511,img/planet1_left.png,1,Community 3,NA,TRUE,f,f,NA,NA,NA,1,6,"11,2,7,10,4,13,8,6,5,3,9,14,1,15,12"
15422,commdev-image-keyboard-response,525,1415480,learnblock2,505,img/planet15_right.png,15,Community 3,NA,TRUE,j,j,NA,NA,NA,1,6,"11,2,7,10,4,13,8,6,5,3,9,14,1,15,12"
15422,commdev-image-keyboard-response,526,1416798,learnblock2,487,img/planet9_left.png,9,Community 3,NA,TRUE,f,f,NA,NA,NA,1,6,"11,2,7,10,4,13,8,6,5,3,9,14,1,15,12"
15422,commdev-image-keyboard-response,527,1418052,learnblock2,529,img/planet15_left.png,15,Community 3,NA,TRUE,f,f,NA,NA,NA,1,6,"11,2,7,10,4,13,8,6,5,3,9,14,1,15,12"
15422,commdev-image-keyboard-response,528,1419304,learnblock2,470,img/planet9_left.png,9,Community 3,NA,TRUE,f,f,NA,NA,NA,1,6,"11,2,7,10,4,13,8,6,5,3,9,14,1,15,12"
15422,commdev-image-keyboard-response,529,1420557,learnblock2,440.00000000023283,img/planet12_left.png,12,Community 3,NA,TRUE,f,f,NA,NA,NA,1,6,"11,2,7,10,4,13,8,6,5,3,9,14,1,15,12"
15422,commdev-image-keyboard-response,530,1421809,learnblock2,544.0000000002328,img/planet14_right.png,14,Community 3,NA,TRUE,j,j,NA,NA,NA,1,6,"11,2,7,10,4,13,8,6,5,3,9,14,1,15,12"
15422,commdev-image-keyboard-response,531,1423062,learnblock2,543,img/planet15_right.png,15,Community 3,NA,TRUE,j,j,NA,NA,NA,1,6,"11,2,7,10,4,13,8,6,5,3,9,14,1,15,12"
15422,commdev-image-keyboard-response,532,1424316,learnblock2,507.99999999976717,img/planet1_right.png,1,Community 3,NA,TRUE,j,j,NA,NA,NA,1,6,"11,2,7,10,4,13,8,6,5,3,9,14,1,15,12"
15422,commdev-image-keyboard-response,533,1425569,learnblock2,459,img/planet12_right.png,12,Community 3,NA,TRUE,j,j,NA,NA,NA,1,6,"11,2,7,10,4,13,8,6,5,3,9,14,1,15,12"
15422,commdev-image-keyboard-response,534,1426822,learnblock2,467,img/planet9_right.png,9,Community 3,NA,TRUE,j,j,NA,NA,NA,1,6,"11,2,7,10,4,13,8,6,5,3,9,14,1,15,12"
15422,commdev-image-keyboard-response,535,1428074,learnblock2,568,img/planet12_left.png,12,Community 3,NA,TRUE,f,f,NA,NA,NA,1,6,"11,2,7,10,4,13,8,6,5,3,9,14,1,15,12"
15422,commdev-image-keyboard-response,536,1429327,learnblock2,496,img/planet9_right.png,9,Community 3,NA,TRUE,j,j,NA,NA,NA,1,6,"11,2,7,10,4,13,8,6,5,3,9,14,1,15,12"
15422,commdev-image-keyboard-response,537,1430580,learnblock2,532,img/planet4_right.png,4,Community 1,NA,TRUE,j,j,NA,NA,NA,1,6,"11,2,7,10,4,13,8,6,5,3,9,14,1,15,12"
15422,commdev-image-keyboard-response,538,1431834,learnblock2,495,img/planet9_left.png,9,Community 3,NA,TRUE,f,f,NA,NA,NA,1,6,"11,2,7,10,4,13,8,6,5,3,9,14,1,15,12"
15422,commdev-image-keyboard-response,539,1433087,learnblock2,609,img/planet15_right.png,15,Community 3,NA,TRUE,j,j,NA,NA,NA,1,6,"11,2,7,10,4,13,8,6,5,3,9,14,1,15,12"
15422,commdev-image-keyboard-response,540,1434341,learnblock2,513.0000000002328,img/planet1_right.png,1,Community 3,NA,TRUE,j,j,NA,NA,NA,1,6,"11,2,7,10,4,13,8,6,5,3,9,14,1,15,12"
15422,commdev-image-keyboard-response,541,1435594,learnblock2,524.9999999997672,img/planet14_right.png,14,Community 3,NA,TRUE,j,j,NA,NA,NA,1,6,"11,2,7,10,4,13,8,6,5,3,9,14,1,15,12"
15422,commdev-image-keyboard-response,542,1436846,learnblock2,583,img/planet15_left.png,15,Community 3,NA,TRUE,f,f,NA,NA,NA,1,6,"11,2,7,10,4,13,8,6,5,3,9,14,1,15,12"
15422,commdev-image-keyboard-response,543,1438098,learnblock2,654,img/planet9_left.png,9,Community 3,NA,TRUE,f,f,NA,NA,NA,1,6,"11,2,7,10,4,13,8,6,5,3,9,14,1,15,12"
15422,commdev-image-keyboard-response,544,1439350,learnblock2,519,img/planet12_right.png,12,Community 3,NA,TRUE,j,j,NA,NA,NA,1,6,"11,2,7,10,4,13,8,6,5,3,9,14,1,15,12"
15422,commdev-image-keyboard-response,545,1440603,learnblock2,551.9999999997672,img/planet14_left.png,14,Community 3,NA,TRUE,f,f,NA,NA,NA,1,6,"11,2,7,10,4,13,8,6,5,3,9,14,1,15,12"
15422,commdev-image-keyboard-response,546,1441856,learnblock2,520,img/planet15_right.png,15,Community 3,NA,TRUE,j,j,NA,NA,NA,1,6,"11,2,7,10,4,13,8,6,5,3,9,14,1,15,12"
15422,commdev-image-keyboard-response,547,1443109,learnblock2,513.0000000002328,img/planet1_right.png,1,Community 3,NA,TRUE,j,j,NA,NA,NA,1,6,"11,2,7,10,4,13,8,6,5,3,9,14,1,15,12"
15422,commdev-image-keyboard-response,548,1444362,learnblock2,506,img/planet12_left.png,12,Community 3,NA,TRUE,f,f,NA,NA,NA,1,6,"11,2,7,10,4,13,8,6,5,3,9,14,1,15,12"
15422,commdev-image-keyboard-response,549,1445615,learnblock2,554,img/planet9_right.png,9,Community 3,NA,TRUE,j,j,NA,NA,NA,1,6,"11,2,7,10,4,13,8,6,5,3,9,14,1,15,12"
15422,commdev-image-keyboard-response,550,1446868,learnblock2,530,img/planet15_left.png,15,Community 3,NA,TRUE,f,f,NA,NA,NA,1,6,"11,2,7,10,4,13,8,6,5,3,9,14,1,15,12"
15422,commdev-image-keyboard-response,551,1448120,learnblock2,462,img/planet1_right.png,1,Community 3,NA,TRUE,j,j,NA,NA,NA,1,6,"11,2,7,10,4,13,8,6,5,3,9,14,1,15,12"
15422,commdev-image-keyboard-response,552,1449374,learnblock2,541,img/planet9_right.png,9,Community 3,NA,TRUE,j,j,NA,NA,NA,1,6,"11,2,7,10,4,13,8,6,5,3,9,14,1,15,12"
15422,commdev-image-keyboard-response,553,1450628,learnblock2,517,img/planet1_left.png,1,Community 3,NA,TRUE,f,f,NA,NA,NA,1,6,"11,2,7,10,4,13,8,6,5,3,9,14,1,15,12"
15422,commdev-image-keyboard-response,554,1451881,learnblock2,501.00000000023283,img/planet12_right.png,12,Community 3,NA,TRUE,j,j,NA,NA,NA,1,6,"11,2,7,10,4,13,8,6,5,3,9,14,1,15,12"
15422,commdev-image-keyboard-response,555,1453134,learnblock2,453,img/planet9_left.png,9,Community 3,NA,TRUE,f,f,NA,NA,NA,1,6,"11,2,7,10,4,13,8,6,5,3,9,14,1,15,12"
15422,commdev-image-keyboard-response,556,1454387,learnblock2,476,img/planet12_right.png,12,Community 3,NA,TRUE,j,j,NA,NA,NA,1,6,"11,2,7,10,4,13,8,6,5,3,9,14,1,15,12"
15422,commdev-image-keyboard-response,557,1455640,learnblock2,451,img/planet1_right.png,1,Community 3,NA,FALSE,f,j,NA,NA,NA,1,6,"11,2,7,10,4,13,8,6,5,3,9,14,1,15,12"
15422,commdev-image-keyboard-response,558,1456891,learnblock2,804.9999999997672,img/planet14_right.png,14,Community 3,NA,TRUE,j,j,NA,NA,NA,1,6,"11,2,7,10,4,13,8,6,5,3,9,14,1,15,12"
15422,commdev-image-keyboard-response,559,1458144,learnblock2,590,img/planet1_left.png,1,Community 3,NA,TRUE,f,f,NA,NA,NA,1,6,"11,2,7,10,4,13,8,6,5,3,9,14,1,15,12"
15422,commdev-image-keyboard-response,560,1459397,learnblock2,665,img/planet12_left.png,12,Community 3,NA,TRUE,f,f,NA,NA,NA,1,6,"11,2,7,10,4,13,8,6,5,3,9,14,1,15,12"
15422,commdev-image-keyboard-response,561,1460650,learnblock2,583,img/planet14_right.png,14,Community 3,NA,TRUE,j,j,NA,NA,NA,1,6,"11,2,7,10,4,13,8,6,5,3,9,14,1,15,12"
15422,commdev-image-keyboard-response,562,1461903,learnblock2,525,img/planet6_left.png,6,Community 2,NA,TRUE,f,f,NA,NA,NA,1,6,"11,2,7,10,4,13,8,6,5,3,9,14,1,15,12"
15422,commdev-image-keyboard-response,563,1463156,learnblock2,758,img/planet8_right.png,8,Community 2,NA,TRUE,j,j,NA,NA,NA,1,6,"11,2,7,10,4,13,8,6,5,3,9,14,1,15,12"
15422,commdev-image-keyboard-response,564,1464409,learnblock2,612,img/planet5_right.png,5,Community 2,NA,TRUE,j,j,NA,NA,NA,1,6,"11,2,7,10,4,13,8,6,5,3,9,14,1,15,12"
15422,commdev-image-keyboard-response,565,1465662,learnblock2,578.9999999997672,img/planet3_left.png,3,Community 2,NA,TRUE,f,f,NA,NA,NA,1,6,"11,2,7,10,4,13,8,6,5,3,9,14,1,15,12"
15422,commdev-image-keyboard-response,566,1466914,learnblock2,591,img/planet8_right.png,8,Community 2,NA,TRUE,j,j,NA,NA,NA,1,6,"11,2,7,10,4,13,8,6,5,3,9,14,1,15,12"
15422,commdev-image-keyboard-response,567,1468167,learnblock2,628.0000000002328,img/planet13_right.png,13,Community 2,NA,TRUE,j,j,NA,NA,NA,1,6,"11,2,7,10,4,13,8,6,5,3,9,14,1,15,12"
15422,commdev-image-keyboard-response,568,1469420,learnblock2,559.9999999997672,img/planet5_right.png,5,Community 2,NA,TRUE,j,j,NA,NA,NA,1,6,"11,2,7,10,4,13,8,6,5,3,9,14,1,15,12"
15422,commdev-image-keyboard-response,569,1470673,learnblock2,527.0000000002328,img/planet8_left.png,8,Community 2,NA,TRUE,f,f,NA,NA,NA,1,6,"11,2,7,10,4,13,8,6,5,3,9,14,1,15,12"
15422,commdev-image-keyboard-response,570,1471927,learnblock2,614,img/planet13_right.png,13,Community 2,NA,TRUE,j,j,NA,NA,NA,1,6,"11,2,7,10,4,13,8,6,5,3,9,14,1,15,12"
15422,commdev-image-keyboard-response,571,1473181,learnblock2,582.9999999997672,img/planet5_left.png,5,Community 2,NA,TRUE,f,f,NA,NA,NA,1,6,"11,2,7,10,4,13,8,6,5,3,9,14,1,15,12"
15422,commdev-image-keyboard-response,572,1474434,learnblock2,740,img/planet3_left.png,3,Community 2,NA,TRUE,f,f,NA,NA,NA,1,6,"11,2,7,10,4,13,8,6,5,3,9,14,1,15,12"
15422,commdev-image-keyboard-response,573,1475687,learnblock2,743.0000000002328,img/planet6_left.png,6,Community 2,NA,FALSE,j,f,NA,NA,NA,1,6,"11,2,7,10,4,13,8,6,5,3,9,14,1,15,12"
15422,commdev-image-keyboard-response,574,1476939,learnblock2,490,img/planet5_right.png,5,Community 2,NA,TRUE,j,j,NA,NA,NA,1,6,"11,2,7,10,4,13,8,6,5,3,9,14,1,15,12"
15422,commdev-image-keyboard-response,575,1478192,learnblock2,569,img/planet3_right.png,3,Community 2,NA,TRUE,j,j,NA,NA,NA,1,6,"11,2,7,10,4,13,8,6,5,3,9,14,1,15,12"
15422,commdev-image-keyboard-response,576,1479444,learnblock2,538,img/planet5_left.png,5,Community 2,NA,TRUE,f,f,NA,NA,NA,1,6,"11,2,7,10,4,13,8,6,5,3,9,14,1,15,12"
15422,commdev-image-keyboard-response,577,1480698,learnblock2,524,img/planet13_left.png,13,Community 2,NA,TRUE,f,f,NA,NA,NA,1,6,"11,2,7,10,4,13,8,6,5,3,9,14,1,15,12"
15422,commdev-image-keyboard-response,578,1481951,learnblock2,690.0000000002328,img/planet8_left.png,8,Community 2,NA,TRUE,f,f,NA,NA,NA,1,6,"11,2,7,10,4,13,8,6,5,3,9,14,1,15,12"
15422,commdev-image-keyboard-response,579,1483204,learnblock2,492,img/planet5_left.png,5,Community 2,NA,TRUE,f,f,NA,NA,NA,1,6,"11,2,7,10,4,13,8,6,5,3,9,14,1,15,12"
15422,commdev-image-keyboard-response,580,1484457,learnblock2,470,img/planet3_right.png,3,Community 2,NA,TRUE,j,j,NA,NA,NA,1,6,"11,2,7,10,4,13,8,6,5,3,9,14,1,15,12"
15422,commdev-image-keyboard-response,581,1485710,learnblock2,455.99999999976717,img/planet6_right.png,6,Community 2,NA,TRUE,j,j,NA,NA,NA,1,6,"11,2,7,10,4,13,8,6,5,3,9,14,1,15,12"
15422,commdev-image-keyboard-response,582,1486963,learnblock2,561,img/planet3_left.png,3,Community 2,NA,TRUE,f,f,NA,NA,NA,1,6,"11,2,7,10,4,13,8,6,5,3,9,14,1,15,12"
15422,commdev-image-keyboard-response,583,1488216,learnblock2,540,img/planet8_left.png,8,Community 2,NA,TRUE,f,f,NA,NA,NA,1,6,"11,2,7,10,4,13,8,6,5,3,9,14,1,15,12"
15422,commdev-image-keyboard-response,584,1489469,learnblock2,576,img/planet13_right.png,13,Community 2,NA,TRUE,j,j,NA,NA,NA,1,6,"11,2,7,10,4,13,8,6,5,3,9,14,1,15,12"
15422,commdev-image-keyboard-response,585,1490722,learnblock2,694,img/planet5_left.png,5,Community 2,NA,TRUE,f,f,NA,NA,NA,1,6,"11,2,7,10,4,13,8,6,5,3,9,14,1,15,12"
15422,commdev-image-keyboard-response,586,1491975,learnblock2,631,img/planet8_left.png,8,Community 2,NA,TRUE,f,f,NA,NA,NA,1,6,"11,2,7,10,4,13,8,6,5,3,9,14,1,15,12"
15422,commdev-image-keyboard-response,587,1493228,learnblock2,484,img/planet6_left.png,6,Community 2,NA,TRUE,f,f,NA,NA,NA,1,6,"11,2,7,10,4,13,8,6,5,3,9,14,1,15,12"
15422,commdev-image-keyboard-response,588,1494483,learnblock2,618,img/planet3_left.png,3,Community 2,NA,TRUE,f,f,NA,NA,NA,1,6,"11,2,7,10,4,13,8,6,5,3,9,14,1,15,12"
15422,commdev-image-keyboard-response,589,1495736,learnblock2,542,img/planet5_left.png,5,Community 2,NA,TRUE,f,f,NA,NA,NA,1,6,"11,2,7,10,4,13,8,6,5,3,9,14,1,15,12"
15422,commdev-image-keyboard-response,590,1496989,learnblock2,541,img/planet13_right.png,13,Community 2,NA,TRUE,j,j,NA,NA,NA,1,6,"11,2,7,10,4,13,8,6,5,3,9,14,1,15,12"
15422,commdev-image-keyboard-response,591,1498243,learnblock2,493,img/planet8_left.png,8,Community 2,NA,TRUE,f,f,NA,NA,NA,1,6,"11,2,7,10,4,13,8,6,5,3,9,14,1,15,12"
15422,commdev-image-keyboard-response,592,1499495,learnblock2,593,img/planet3_left.png,3,Community 2,NA,TRUE,f,f,NA,NA,NA,1,6,"11,2,7,10,4,13,8,6,5,3,9,14,1,15,12"
15422,commdev-image-keyboard-response,593,1500749,learnblock2,611,img/planet6_right.png,6,Community 2,NA,FALSE,f,j,NA,NA,NA,1,6,"11,2,7,10,4,13,8,6,5,3,9,14,1,15,12"
15422,commdev-image-keyboard-response,594,1502001,learnblock2,468,img/planet14_left.png,14,Community 3,NA,TRUE,f,f,NA,NA,NA,1,6,"11,2,7,10,4,13,8,6,5,3,9,14,1,15,12"
15422,commdev-image-keyboard-response,595,1503254,learnblock2,507,img/planet15_left.png,15,Community 3,NA,TRUE,f,f,NA,NA,NA,1,6,"11,2,7,10,4,13,8,6,5,3,9,14,1,15,12"
15422,commdev-image-keyboard-response,596,1504506,learnblock2,407.99999999976717,img/planet9_left.png,9,Community 3,NA,TRUE,f,f,NA,NA,NA,1,6,"11,2,7,10,4,13,8,6,5,3,9,14,1,15,12"
15422,commdev-image-keyboard-response,597,1505759,learnblock2,500,img/planet4_right.png,4,Community 1,NA,TRUE,j,j,NA,NA,NA,1,6,"11,2,7,10,4,13,8,6,5,3,9,14,1,15,12"
15422,commdev-image-keyboard-response,598,1507011,learnblock2,730,img/planet7_left.png,7,Community 1,NA,TRUE,f,f,NA,NA,NA,1,6,"11,2,7,10,4,13,8,6,5,3,9,14,1,15,12"
15422,commdev-image-keyboard-response,599,1508264,learnblock2,1163,img/planet4_left.png,4,Community 1,NA,TRUE,f,f,NA,NA,NA,1,6,"11,2,7,10,4,13,8,6,5,3,9,14,1,15,12"
15422,commdev-image-keyboard-response,600,1509516,learnblock2,549.9999999997672,img/planet2_right.png,2,Community 1,NA,TRUE,j,j,NA,NA,NA,1,6,"11,2,7,10,4,13,8,6,5,3,9,14,1,15,12"
15422,commdev-image-keyboard-response,601,1510771,learnblock2,516.0000000002328,img/planet10_left.png,10,Community 1,NA,TRUE,f,f,NA,NA,NA,1,6,"11,2,7,10,4,13,8,6,5,3,9,14,1,15,12"
15422,commdev-image-keyboard-response,602,1512025,learnblock2,586,img/planet11_right.png,11,Community 1,NA,TRUE,j,j,NA,NA,NA,1,6,"11,2,7,10,4,13,8,6,5,3,9,14,1,15,12"
15422,commdev-image-keyboard-response,603,1513278,learnblock2,554,img/planet7_left.png,7,Community 1,NA,TRUE,f,f,NA,NA,NA,1,6,"11,2,7,10,4,13,8,6,5,3,9,14,1,15,12"
15422,commdev-image-keyboard-response,604,1514531,learnblock2,556,img/planet10_right.png,10,Community 1,NA,TRUE,j,j,NA,NA,NA,1,6,"11,2,7,10,4,13,8,6,5,3,9,14,1,15,12"
15422,commdev-image-keyboard-response,605,1515784,learnblock2,509,img/planet11_left.png,11,Community 1,NA,TRUE,f,f,NA,NA,NA,1,6,"11,2,7,10,4,13,8,6,5,3,9,14,1,15,12"
15422,commdev-image-keyboard-response,606,1517037,learnblock2,491,img/planet4_right.png,4,Community 1,NA,TRUE,j,j,NA,NA,NA,1,6,"11,2,7,10,4,13,8,6,5,3,9,14,1,15,12"
15422,commdev-image-keyboard-response,607,1518290,learnblock2,611.0000000002328,img/planet11_right.png,11,Community 1,NA,TRUE,j,j,NA,NA,NA,1,6,"11,2,7,10,4,13,8,6,5,3,9,14,1,15,12"
15422,commdev-image-keyboard-response,608,1519544,learnblock2,538,img/planet2_left.png,2,Community 1,NA,TRUE,f,f,NA,NA,NA,1,6,"11,2,7,10,4,13,8,6,5,3,9,14,1,15,12"
15422,commdev-image-keyboard-response,609,1520797,learnblock2,451,img/planet11_right.png,11,Community 1,NA,TRUE,j,j,NA,NA,NA,1,6,"11,2,7,10,4,13,8,6,5,3,9,14,1,15,12"
15422,commdev-image-keyboard-response,610,1522048,learnblock2,497,img/planet10_left.png,10,Community 1,NA,TRUE,f,f,NA,NA,NA,1,6,"11,2,7,10,4,13,8,6,5,3,9,14,1,15,12"
15422,commdev-image-keyboard-response,611,1523301,learnblock2,525,img/planet13_right.png,13,Community 2,NA,TRUE,j,j,NA,NA,NA,1,6,"11,2,7,10,4,13,8,6,5,3,9,14,1,15,12"
15422,commdev-image-keyboard-response,612,1524554,learnblock2,514,img/planet3_left.png,3,Community 2,NA,TRUE,f,f,NA,NA,NA,1,6,"11,2,7,10,4,13,8,6,5,3,9,14,1,15,12"
15422,commdev-image-keyboard-response,613,1525807,learnblock2,478,img/planet8_right.png,8,Community 2,NA,TRUE,j,j,NA,NA,NA,1,6,"11,2,7,10,4,13,8,6,5,3,9,14,1,15,12"
15422,commdev-image-keyboard-response,614,1527060,learnblock2,463,img/planet13_left.png,13,Community 2,NA,TRUE,f,f,NA,NA,NA,1,6,"11,2,7,10,4,13,8,6,5,3,9,14,1,15,12"
15422,commdev-image-keyboard-response,615,1528313,learnblock2,452,img/planet5_right.png,5,Community 2,NA,TRUE,j,j,NA,NA,NA,1,6,"11,2,7,10,4,13,8,6,5,3,9,14,1,15,12"
15422,commdev-image-keyboard-response,616,1529566,learnblock2,532,img/planet13_right.png,13,Community 2,NA,TRUE,j,j,NA,NA,NA,1,6,"11,2,7,10,4,13,8,6,5,3,9,14,1,15,12"
15422,commdev-image-keyboard-response,617,1530819,learnblock2,569,img/planet10_left.png,10,Community 1,NA,TRUE,f,f,NA,NA,NA,1,6,"11,2,7,10,4,13,8,6,5,3,9,14,1,15,12"
15422,commdev-image-keyboard-response,618,1532071,learnblock2,598,img/planet13_left.png,13,Community 2,NA,TRUE,f,f,NA,NA,NA,1,6,"11,2,7,10,4,13,8,6,5,3,9,14,1,15,12"
15422,commdev-image-keyboard-response,619,1533325,learnblock2,534.9999999997672,img/planet10_right.png,10,Community 1,NA,TRUE,j,j,NA,NA,NA,1,6,"11,2,7,10,4,13,8,6,5,3,9,14,1,15,12"
15422,commdev-image-keyboard-response,620,1534578,learnblock2,470,img/planet13_left.png,13,Community 2,NA,TRUE,f,f,NA,NA,NA,1,6,"11,2,7,10,4,13,8,6,5,3,9,14,1,15,12"
15422,commdev-image-keyboard-response,621,1535831,learnblock2,834,img/planet8_right.png,8,Community 2,NA,TRUE,j,j,NA,NA,NA,1,6,"11,2,7,10,4,13,8,6,5,3,9,14,1,15,12"
15422,commdev-image-keyboard-response,622,1537084,learnblock2,577.9999999997672,img/planet13_right.png,13,Community 2,NA,TRUE,j,j,NA,NA,NA,1,6,"11,2,7,10,4,13,8,6,5,3,9,14,1,15,12"
15422,commdev-image-keyboard-response,623,1538340,learnblock2,527,img/planet10_left.png,10,Community 1,NA,TRUE,f,f,NA,NA,NA,1,6,"11,2,7,10,4,13,8,6,5,3,9,14,1,15,12"
15422,commdev-image-keyboard-response,624,1539592,learnblock2,516.9999999997672,img/planet11_right.png,11,Community 1,NA,TRUE,j,j,NA,NA,NA,1,6,"11,2,7,10,4,13,8,6,5,3,9,14,1,15,12"
15422,commdev-image-keyboard-response,625,1540845,learnblock2,579,img/planet2_right.png,2,Community 1,NA,TRUE,j,j,NA,NA,NA,1,6,"11,2,7,10,4,13,8,6,5,3,9,14,1,15,12"
15422,commdev-image-keyboard-response,626,1542098,learnblock2,438.00000000023283,img/planet10_left.png,10,Community 1,NA,TRUE,f,f,NA,NA,NA,1,6,"11,2,7,10,4,13,8,6,5,3,9,14,1,15,12"
15422,commdev-image-keyboard-response,627,1543350,learnblock2,572,img/planet13_left.png,13,Community 2,NA,TRUE,f,f,NA,NA,NA,1,6,"11,2,7,10,4,13,8,6,5,3,9,14,1,15,12"
15422,commdev-image-keyboard-response,628,1544603,learnblock2,563.9999999997672,img/planet10_left.png,10,Community 1,NA,TRUE,f,f,NA,NA,NA,1,6,"11,2,7,10,4,13,8,6,5,3,9,14,1,15,12"
15422,commdev-image-keyboard-response,629,1545856,learnblock2,768,img/planet2_left.png,2,Community 1,NA,TRUE,f,f,NA,NA,NA,1,6,"11,2,7,10,4,13,8,6,5,3,9,14,1,15,12"
15422,commdev-image-keyboard-response,630,1547110,learnblock2,683,img/planet7_left.png,7,Community 1,NA,TRUE,f,f,NA,NA,NA,1,6,"11,2,7,10,4,13,8,6,5,3,9,14,1,15,12"
15422,commdev-image-keyboard-response,631,1548363,learnblock2,490,img/planet4_right.png,4,Community 1,NA,TRUE,j,j,NA,NA,NA,1,6,"11,2,7,10,4,13,8,6,5,3,9,14,1,15,12"
15422,commdev-image-keyboard-response,632,1549617,learnblock2,495,img/planet2_left.png,2,Community 1,NA,TRUE,f,f,NA,NA,NA,1,6,"11,2,7,10,4,13,8,6,5,3,9,14,1,15,12"
15422,commdev-image-keyboard-response,633,1550870,learnblock2,453,img/planet4_right.png,4,Community 1,NA,TRUE,j,j,NA,NA,NA,1,6,"11,2,7,10,4,13,8,6,5,3,9,14,1,15,12"
15422,commdev-image-keyboard-response,634,1552123,learnblock2,508,img/planet9_right.png,9,Community 3,NA,TRUE,j,j,NA,NA,NA,1,6,"11,2,7,10,4,13,8,6,5,3,9,14,1,15,12"
15422,commdev-image-keyboard-response,635,1553376,learnblock2,434,img/planet12_right.png,12,Community 3,NA,TRUE,j,j,NA,NA,NA,1,6,"11,2,7,10,4,13,8,6,5,3,9,14,1,15,12"
15422,commdev-image-keyboard-response,636,1554629,learnblock2,480,img/planet1_left.png,1,Community 3,NA,TRUE,f,f,NA,NA,NA,1,6,"11,2,7,10,4,13,8,6,5,3,9,14,1,15,12"
15422,commdev-image-keyboard-response,637,1555882,learnblock2,458.99999999976717,img/planet9_left.png,9,Community 3,NA,TRUE,f,f,NA,NA,NA,1,6,"11,2,7,10,4,13,8,6,5,3,9,14,1,15,12"
15422,commdev-image-keyboard-response,638,1557135,learnblock2,482,img/planet4_left.png,4,Community 1,NA,TRUE,f,f,NA,NA,NA,1,6,"11,2,7,10,4,13,8,6,5,3,9,14,1,15,12"
15422,commdev-image-keyboard-response,639,1558388,learnblock2,573,img/planet7_left.png,7,Community 1,NA,TRUE,f,f,NA,NA,NA,1,6,"11,2,7,10,4,13,8,6,5,3,9,14,1,15,12"
15422,commdev-image-keyboard-response,640,1559641,learnblock2,630.9999999997672,img/planet11_left.png,11,Community 1,NA,TRUE,f,f,NA,NA,NA,1,6,"11,2,7,10,4,13,8,6,5,3,9,14,1,15,12"
15422,commdev-image-keyboard-response,641,1560893,learnblock2,528,img/planet4_right.png,4,Community 1,NA,TRUE,j,j,NA,NA,NA,1,6,"11,2,7,10,4,13,8,6,5,3,9,14,1,15,12"
15422,commdev-image-keyboard-response,642,1562145,learnblock2,558,img/planet9_left.png,9,Community 3,NA,TRUE,f,f,NA,NA,NA,1,6,"11,2,7,10,4,13,8,6,5,3,9,14,1,15,12"
15422,commdev-image-keyboard-response,643,1563399,learnblock2,553,img/planet15_right.png,15,Community 3,NA,TRUE,j,j,NA,NA,NA,1,6,"11,2,7,10,4,13,8,6,5,3,9,14,1,15,12"
15422,commdev-image-keyboard-response,644,1564651,learnblock2,486,img/planet9_right.png,9,Community 3,NA,TRUE,j,j,NA,NA,NA,1,6,"11,2,7,10,4,13,8,6,5,3,9,14,1,15,12"
15422,commdev-image-keyboard-response,645,1565904,learnblock2,507.00000000023283,img/planet4_left.png,4,Community 1,NA,TRUE,f,f,NA,NA,NA,1,6,"11,2,7,10,4,13,8,6,5,3,9,14,1,15,12"
15422,commdev-image-keyboard-response,646,1567157,learnblock2,572,img/planet7_left.png,7,Community 1,NA,TRUE,f,f,NA,NA,NA,1,6,"11,2,7,10,4,13,8,6,5,3,9,14,1,15,12"
15422,commdev-image-keyboard-response,647,1568411,learnblock2,495,img/planet11_right.png,11,Community 1,NA,TRUE,j,j,NA,NA,NA,1,6,"11,2,7,10,4,13,8,6,5,3,9,14,1,15,12"
15422,commdev-image-keyboard-response,648,1569665,learnblock2,522,img/planet4_left.png,4,Community 1,NA,TRUE,f,f,NA,NA,NA,1,6,"11,2,7,10,4,13,8,6,5,3,9,14,1,15,12"
15422,commdev-image-keyboard-response,649,1570918,learnblock2,626,img/planet7_left.png,7,Community 1,NA,TRUE,f,f,NA,NA,NA,1,6,"11,2,7,10,4,13,8,6,5,3,9,14,1,15,12"
15422,commdev-image-keyboard-response,650,1572172,learnblock2,516,img/planet11_left.png,11,Community 1,NA,TRUE,f,f,NA,NA,NA,1,6,"11,2,7,10,4,13,8,6,5,3,9,14,1,15,12"
15422,commdev-image-keyboard-response,651,1573425,learnblock2,503,img/planet10_left.png,10,Community 1,NA,TRUE,f,f,NA,NA,NA,1,6,"11,2,7,10,4,13,8,6,5,3,9,14,1,15,12"
15422,commdev-image-keyboard-response,652,1574678,learnblock2,498,img/planet11_right.png,11,Community 1,NA,TRUE,j,j,NA,NA,NA,1,6,"11,2,7,10,4,13,8,6,5,3,9,14,1,15,12"
15422,commdev-image-keyboard-response,653,1575932,learnblock2,627,img/planet4_left.png,4,Community 1,NA,TRUE,f,f,NA,NA,NA,1,6,"11,2,7,10,4,13,8,6,5,3,9,14,1,15,12"
15422,commdev-image-keyboard-response,654,1577185,learnblock2,645,img/planet7_left.png,7,Community 1,NA,TRUE,f,f,NA,NA,NA,1,6,"11,2,7,10,4,13,8,6,5,3,9,14,1,15,12"
15422,commdev-image-keyboard-response,655,1578438,learnblock2,492.00000000023283,img/planet11_right.png,11,Community 1,NA,TRUE,j,j,NA,NA,NA,1,6,"11,2,7,10,4,13,8,6,5,3,9,14,1,15,12"
15422,commdev-image-keyboard-response,656,1579691,learnblock2,484,img/planet7_left.png,7,Community 1,NA,TRUE,f,f,NA,NA,NA,1,6,"11,2,7,10,4,13,8,6,5,3,9,14,1,15,12"
15422,commdev-image-keyboard-response,657,1580945,learnblock2,514.0000000002328,img/planet11_left.png,11,Community 1,NA,TRUE,f,f,NA,NA,NA,1,6,"11,2,7,10,4,13,8,6,5,3,9,14,1,15,12"
15422,commdev-image-keyboard-response,658,1582198,learnblock2,499,img/planet4_right.png,4,Community 1,NA,TRUE,j,j,NA,NA,NA,1,6,"11,2,7,10,4,13,8,6,5,3,9,14,1,15,12"
15422,commdev-image-keyboard-response,659,1583450,learnblock2,538,img/planet7_right.png,7,Community 1,NA,TRUE,j,j,NA,NA,NA,1,6,"11,2,7,10,4,13,8,6,5,3,9,14,1,15,12"
15422,commdev-image-keyboard-response,660,1584703,learnblock2,426,img/planet10_right.png,10,Community 1,NA,TRUE,j,j,NA,NA,NA,1,6,"11,2,7,10,4,13,8,6,5,3,9,14,1,15,12"
15422,commdev-image-keyboard-response,661,1585957,learnblock2,504,img/planet11_left.png,11,Community 1,NA,TRUE,f,f,NA,NA,NA,1,6,"11,2,7,10,4,13,8,6,5,3,9,14,1,15,12"
15422,commdev-image-keyboard-response,662,1587211,learnblock2,512,img/planet7_left.png,7,Community 1,NA,TRUE,f,f,NA,NA,NA,1,6,"11,2,7,10,4,13,8,6,5,3,9,14,1,15,12"
15422,commdev-image-keyboard-response,663,1588464,learnblock2,514.0000000002328,img/planet4_right.png,4,Community 1,NA,TRUE,j,j,NA,NA,NA,1,6,"11,2,7,10,4,13,8,6,5,3,9,14,1,15,12"
15422,commdev-image-keyboard-response,664,1589718,learnblock2,489.99999999976717,img/planet11_right.png,11,Community 1,NA,TRUE,j,j,NA,NA,NA,1,6,"11,2,7,10,4,13,8,6,5,3,9,14,1,15,12"
15422,commdev-image-keyboard-response,665,1590971,learnblock2,521,img/planet2_right.png,2,Community 1,NA,TRUE,j,j,NA,NA,NA,1,6,"11,2,7,10,4,13,8,6,5,3,9,14,1,15,12"
15422,commdev-image-keyboard-response,666,1592224,learnblock2,471,img/planet10_left.png,10,Community 1,NA,TRUE,f,f,NA,NA,NA,1,6,"11,2,7,10,4,13,8,6,5,3,9,14,1,15,12"
15422,commdev-image-keyboard-response,667,1593478,learnblock2,450.99999999976717,img/planet2_left.png,2,Community 1,NA,TRUE,f,f,NA,NA,NA,1,6,"11,2,7,10,4,13,8,6,5,3,9,14,1,15,12"
15422,commdev-image-keyboard-response,668,1594731,learnblock2,473,img/planet4_right.png,4,Community 1,NA,TRUE,j,j,NA,NA,NA,1,6,"11,2,7,10,4,13,8,6,5,3,9,14,1,15,12"
15422,commdev-image-keyboard-response,669,1595984,learnblock2,450,img/planet11_right.png,11,Community 1,NA,TRUE,j,j,NA,NA,NA,1,6,"11,2,7,10,4,13,8,6,5,3,9,14,1,15,12"
15422,commdev-image-keyboard-response,670,1597237,learnblock2,618,img/planet7_right.png,7,Community 1,NA,TRUE,j,j,NA,NA,NA,1,6,"11,2,7,10,4,13,8,6,5,3,9,14,1,15,12"
15422,commdev-image-keyboard-response,671,1598490,learnblock2,492,img/planet10_right.png,10,Community 1,NA,TRUE,j,j,NA,NA,NA,1,6,"11,2,7,10,4,13,8,6,5,3,9,14,1,15,12"
15422,commdev-image-keyboard-response,672,1599743,learnblock2,492,img/planet2_left.png,2,Community 1,NA,TRUE,f,f,NA,NA,NA,1,6,"11,2,7,10,4,13,8,6,5,3,9,14,1,15,12"
15422,commdev-image-keyboard-response,673,1600995,learnblock2,579,img/planet7_right.png,7,Community 1,NA,TRUE,j,j,NA,NA,NA,1,6,"11,2,7,10,4,13,8,6,5,3,9,14,1,15,12"
15422,commdev-image-keyboard-response,674,1602248,learnblock2,516,img/planet4_left.png,4,Community 1,NA,TRUE,f,f,NA,NA,NA,1,6,"11,2,7,10,4,13,8,6,5,3,9,14,1,15,12"
15422,commdev-image-keyboard-response,675,1603502,learnblock2,626,img/planet7_left.png,7,Community 1,NA,TRUE,f,f,NA,NA,NA,1,6,"11,2,7,10,4,13,8,6,5,3,9,14,1,15,12"
15422,commdev-image-keyboard-response,676,1604755,learnblock2,532,img/planet4_left.png,4,Community 1,NA,TRUE,f,f,NA,NA,NA,1,6,"11,2,7,10,4,13,8,6,5,3,9,14,1,15,12"
15422,commdev-image-keyboard-response,677,1606008,learnblock2,411,img/planet9_left.png,9,Community 3,NA,TRUE,f,f,NA,NA,NA,1,6,"11,2,7,10,4,13,8,6,5,3,9,14,1,15,12"
15422,commdev-image-keyboard-response,678,1607262,learnblock2,414,img/planet4_left.png,4,Community 1,NA,TRUE,f,f,NA,NA,NA,1,6,"11,2,7,10,4,13,8,6,5,3,9,14,1,15,12"
15422,commdev-image-keyboard-response,679,1608516,learnblock2,556.9999999997672,img/planet7_right.png,7,Community 1,NA,TRUE,j,j,NA,NA,NA,1,6,"11,2,7,10,4,13,8,6,5,3,9,14,1,15,12"
15422,commdev-image-keyboard-response,680,1609770,learnblock2,474,img/planet10_left.png,10,Community 1,NA,TRUE,f,f,NA,NA,NA,1,6,"11,2,7,10,4,13,8,6,5,3,9,14,1,15,12"
15422,commdev-image-keyboard-response,681,1611023,learnblock2,419,img/planet7_right.png,7,Community 1,NA,TRUE,j,j,NA,NA,NA,1,6,"11,2,7,10,4,13,8,6,5,3,9,14,1,15,12"
15422,commdev-image-keyboard-response,682,1612277,learnblock2,467,img/planet11_left.png,11,Community 1,NA,TRUE,f,f,NA,NA,NA,1,6,"11,2,7,10,4,13,8,6,5,3,9,14,1,15,12"
15422,commdev-image-keyboard-response,683,1613530,learnblock2,426,img/planet2_right.png,2,Community 1,NA,TRUE,j,j,NA,NA,NA,1,6,"11,2,7,10,4,13,8,6,5,3,9,14,1,15,12"
15422,commdev-image-keyboard-response,684,1614782,learnblock2,530,img/planet11_right.png,11,Community 1,NA,TRUE,j,j,NA,NA,NA,1,6,"11,2,7,10,4,13,8,6,5,3,9,14,1,15,12"
15422,commdev-image-keyboard-response,685,1616035,learnblock2,503,img/planet2_left.png,2,Community 1,NA,TRUE,f,f,NA,NA,NA,1,6,"11,2,7,10,4,13,8,6,5,3,9,14,1,15,12"
15422,commdev-image-keyboard-response,686,1617289,learnblock2,476,img/planet4_right.png,4,Community 1,NA,TRUE,j,j,NA,NA,NA,1,6,"11,2,7,10,4,13,8,6,5,3,9,14,1,15,12"
15422,commdev-image-keyboard-response,687,1618542,learnblock2,470,img/planet2_right.png,2,Community 1,NA,TRUE,j,j,NA,NA,NA,1,6,"11,2,7,10,4,13,8,6,5,3,9,14,1,15,12"
