subject_id,trial_type,trial_index,time_elapsed,block,rt,stimulus,planet,community,response,correct,key_press,learning_correct_response,parse,init_locations,final_locations,browser_interactions,num_comp,planet_map
14822,commdev-instructions,7,32310,NA,4469.299999999814,"<p>In this game, you are a scientist on board a space shuttle. </p><p> On each mission, you will visit planets all across the universe.</p><img src=""img/controlroom.jpg"" width=300vw>",NA,NA,NA,NA,NA,NA,NA,NA,NA,4,7,"6,8,15,10,2,1,11,13,4,3,5,12,14,7,9"
14822,commdev-instructions,8,38808,NA,4427,"<p>Here are a few planets you might see:</p><img src=""img/practice1.png"" width=200vw><img src=""img/practice2.png"" width=200vw><img src=""img/practice3.png"" width=200vw>",NA,NA,NA,NA,NA,NA,NA,NA,NA,4,7,"6,8,15,10,2,1,11,13,4,3,5,12,14,7,9"
14822,commdev-instructions,9,47699,NA,1481.1000000005588,"<p>Your job as a scientist is to record which direction the winds are moving on each planet.</p><p>There are two types of wind directions:</p><img src=""img/practice1_left.png"" width=200vw><img src=""img/practice1_right.png"" width=200vw>",NA,NA,NA,NA,NA,NA,NA,NA,NA,4,7,"6,8,15,10,2,1,11,13,4,3,5,12,14,7,9"
14822,commdev-instructions,10,54445,NA,1847.4000000003725,"<p>If the winds are moving this way, press the letter <strong>F</strong> on the keyboard as fast as you can.</p><img src=""img/leftwind.png"" width=250vw>",NA,NA,NA,NA,NA,NA,NA,NA,NA,4,7,"6,8,15,10,2,1,11,13,4,3,5,12,14,7,9"
14822,commdev-instructions,11,60637,NA,1679.5,"<p>If the winds are moving this way, press the letter <strong>J</strong> on the keyboard as fast as you can.</p><img src=""img/rightwind.png"" width=350vw>",NA,NA,NA,NA,NA,NA,NA,NA,NA,4,7,"6,8,15,10,2,1,11,13,4,3,5,12,14,7,9"
14822,commdev-instructions,12,68489,NA,3432,<p>You will have 1 second to respond. Try to respond before the time runs out!,NA,NA,NA,NA,NA,NA,NA,NA,NA,4,7,"6,8,15,10,2,1,11,13,4,3,5,12,14,7,9"
14822,commdev-instructions,13,74721,NA,793.7999999998137,<p>The planets you will visit will look different from each other.</p><p>You should respond <strong>only</strong> based on wind direction.,NA,NA,NA,NA,NA,NA,NA,NA,NA,4,7,"6,8,15,10,2,1,11,13,4,3,5,12,14,7,9"
14822,commdev-instructions,14,80645,NA,737.7000000001863,"<p> Ready to start the practice round? </p><p> Remember, press <strong>F</strong> or <strong>J</strong> depending on the wind direction.<br><img src=""img/categorize_planet_example.png""",NA,NA,NA,NA,NA,NA,NA,NA,NA,4,7,"6,8,15,10,2,1,11,13,4,3,5,12,14,7,9"
14822,commdev-instructions,26,134613,NA,2782.4000000003725,"<p>Great, now try a short practice mission. </p><p> This time, you will have 1 second to respond and you won't know whether you pressed the right or wrong key for each planet.</p>",NA,NA,NA,NA,NA,NA,NA,NA,NA,4,7,"6,8,15,10,2,1,11,13,4,3,5,12,14,7,9"
14822,commdev-image-keyboard-response,27,135972,practice,1245.2000000001863,img/practice4_left.png,NA,Number not found in mappings,NA,TRUE,f,f,NA,NA,NA,4,7,"6,8,15,10,2,1,11,13,4,3,5,12,14,7,9"
14822,commdev-image-keyboard-response,28,137239,practice,null,img/practice2_left.png,NA,Number not found in mappings,NA,FALSE,null,f,NA,NA,NA,4,7,"6,8,15,10,2,1,11,13,4,3,5,12,14,7,9"
14822,commdev-image-keyboard-response,29,138499,practice,216.29999999981374,img/practice1_left.png,NA,Number not found in mappings,NA,TRUE,f,f,NA,NA,NA,4,7,"6,8,15,10,2,1,11,13,4,3,5,12,14,7,9"
14822,commdev-image-keyboard-response,30,139768,practice,1006.5999999996275,img/practice3_right.png,NA,Number not found in mappings,NA,TRUE,j,j,NA,NA,NA,4,7,"6,8,15,10,2,1,11,13,4,3,5,12,14,7,9"
14822,commdev-image-keyboard-response,31,141025,practice,438.40000000037253,img/practice4_left.png,NA,Number not found in mappings,NA,TRUE,f,f,NA,NA,NA,4,7,"6,8,15,10,2,1,11,13,4,3,5,12,14,7,9"
14822,commdev-image-keyboard-response,32,142278,practice,622.6999999992549,img/practice1_left.png,NA,Number not found in mappings,NA,TRUE,f,f,NA,NA,NA,4,7,"6,8,15,10,2,1,11,13,4,3,5,12,14,7,9"
14822,commdev-image-keyboard-response,33,143538,practice,582.7999999998137,img/practice3_left.png,NA,Number not found in mappings,NA,FALSE,j,f,NA,NA,NA,4,7,"6,8,15,10,2,1,11,13,4,3,5,12,14,7,9"
14822,commdev-image-keyboard-response,34,144809,practice,526.9000000003725,img/practice4_left.png,NA,Number not found in mappings,NA,TRUE,f,f,NA,NA,NA,4,7,"6,8,15,10,2,1,11,13,4,3,5,12,14,7,9"
14822,commdev-instructions,35,159185,NA,4814.5,"<p>Great job with the practice round.</p><p>During real missions, you won't know whether you pressed the right or wrong key for each planet.</p><p>But between missions, we will tell you how you did overall.</p>",NA,NA,NA,NA,NA,NA,NA,NA,NA,4,7,"6,8,15,10,2,1,11,13,4,3,5,12,14,7,9"
14822,commdev-instructions,36,171893,NA,4462.299999999814,<p>Try your best! You will be paid a bonus based on how many correct responses you make!</p><p>Responses that are too slow will not count toward your bonus.</p>,NA,NA,NA,NA,NA,NA,NA,NA,NA,4,7,"6,8,15,10,2,1,11,13,4,3,5,12,14,7,9"
14822,commdev-instructions,37,179360,NA,1249.0999999996275,"<p>You are almost ready to start the real game.</p><p> First, we are going to ask you some questions about how the game works.</p>",NA,NA,NA,NA,NA,NA,NA,NA,NA,4,7,"6,8,15,10,2,1,11,13,4,3,5,12,14,7,9"
14822,commdev-instructions,46,278808,NA,3636.2999999998137,"<p> Nice work! It is now time to start the real game.<p></p>You will go on two missions to record wind directions of different planets.<p></p>Each one will take about 5 minutes. You will get to take a break between missions.<p><p> Remember, press <strong>F</strong> or <strong>J</strong> depending on the wind direction. Good luck!<br><img src=""img/categorize_planet_example.png""",NA,NA,NA,NA,NA,NA,NA,NA,NA,4,7,"6,8,15,10,2,1,11,13,4,3,5,12,14,7,9"
14822,commdev-image-keyboard-response,48,282090,learnblock1,886.4000000003725,img/planet12_right.png,12,Community 3,NA,TRUE,j,j,NA,NA,NA,4,7,"6,8,15,10,2,1,11,13,4,3,5,12,14,7,9"
14822,commdev-image-keyboard-response,49,283345,learnblock1,660.7000000001863,img/planet14_left.png,14,Community 3,NA,TRUE,f,f,NA,NA,NA,4,7,"6,8,15,10,2,1,11,13,4,3,5,12,14,7,9"
14822,commdev-image-keyboard-response,50,284609,learnblock1,673.4000000003725,img/planet9_right.png,9,Community 3,NA,FALSE,f,j,NA,NA,NA,4,7,"6,8,15,10,2,1,11,13,4,3,5,12,14,7,9"
14822,commdev-image-keyboard-response,51,285873,learnblock1,721.7000000001863,img/planet12_left.png,12,Community 3,NA,TRUE,f,f,NA,NA,NA,4,7,"6,8,15,10,2,1,11,13,4,3,5,12,14,7,9"
14822,commdev-image-keyboard-response,52,287129,learnblock1,745,img/planet14_left.png,14,Community 3,NA,TRUE,f,f,NA,NA,NA,4,7,"6,8,15,10,2,1,11,13,4,3,5,12,14,7,9"
14822,commdev-image-keyboard-response,53,288389,learnblock1,511.09999999962747,img/planet9_left.png,9,Community 3,NA,TRUE,f,f,NA,NA,NA,4,7,"6,8,15,10,2,1,11,13,4,3,5,12,14,7,9"
14822,commdev-image-keyboard-response,54,289649,learnblock1,657.5,img/planet7_right.png,7,Community 3,NA,TRUE,j,j,NA,NA,NA,4,7,"6,8,15,10,2,1,11,13,4,3,5,12,14,7,9"
14822,commdev-image-keyboard-response,55,290903,learnblock1,528.0999999996275,img/planet9_left.png,9,Community 3,NA,TRUE,f,f,NA,NA,NA,4,7,"6,8,15,10,2,1,11,13,4,3,5,12,14,7,9"
14822,commdev-image-keyboard-response,56,292171,learnblock1,623.7000000001863,img/planet7_left.png,7,Community 3,NA,TRUE,f,f,NA,NA,NA,4,7,"6,8,15,10,2,1,11,13,4,3,5,12,14,7,9"
14822,commdev-image-keyboard-response,57,293440,learnblock1,585,img/planet5_left.png,5,Community 3,NA,TRUE,f,f,NA,NA,NA,4,7,"6,8,15,10,2,1,11,13,4,3,5,12,14,7,9"
14822,commdev-image-keyboard-response,58,294700,learnblock1,584.2999999998137,img/planet14_left.png,14,Community 3,NA,TRUE,f,f,NA,NA,NA,4,7,"6,8,15,10,2,1,11,13,4,3,5,12,14,7,9"
14822,commdev-image-keyboard-response,59,295964,learnblock1,601.9000000003725,img/planet5_right.png,5,Community 3,NA,TRUE,j,j,NA,NA,NA,4,7,"6,8,15,10,2,1,11,13,4,3,5,12,14,7,9"
14822,commdev-image-keyboard-response,60,297220,learnblock1,660.7000000001863,img/planet9_right.png,9,Community 3,NA,TRUE,j,j,NA,NA,NA,4,7,"6,8,15,10,2,1,11,13,4,3,5,12,14,7,9"
14822,commdev-image-keyboard-response,61,298481,learnblock1,683.2000000001863,img/planet5_right.png,5,Community 3,NA,TRUE,j,j,NA,NA,NA,4,7,"6,8,15,10,2,1,11,13,4,3,5,12,14,7,9"
14822,commdev-image-keyboard-response,62,299745,learnblock1,533.0999999996275,img/planet2_right.png,2,Community 1,NA,TRUE,j,j,NA,NA,NA,4,7,"6,8,15,10,2,1,11,13,4,3,5,12,14,7,9"
14822,commdev-image-keyboard-response,63,301009,learnblock1,685.5,img/planet15_right.png,15,Community 1,NA,TRUE,j,j,NA,NA,NA,4,7,"6,8,15,10,2,1,11,13,4,3,5,12,14,7,9"
14822,commdev-image-keyboard-response,64,302275,learnblock1,535.1000000005588,img/planet6_left.png,6,Community 1,NA,TRUE,f,f,NA,NA,NA,4,7,"6,8,15,10,2,1,11,13,4,3,5,12,14,7,9"
14822,commdev-image-keyboard-response,65,303530,learnblock1,554.4000000003725,img/planet10_right.png,10,Community 1,NA,TRUE,j,j,NA,NA,NA,4,7,"6,8,15,10,2,1,11,13,4,3,5,12,14,7,9"
14822,commdev-image-keyboard-response,66,304790,learnblock1,737.9000000003725,img/planet8_right.png,8,Community 1,NA,TRUE,j,j,NA,NA,NA,4,7,"6,8,15,10,2,1,11,13,4,3,5,12,14,7,9"
14822,commdev-image-keyboard-response,67,306044,learnblock1,722.5,img/planet2_right.png,2,Community 1,NA,TRUE,j,j,NA,NA,NA,4,7,"6,8,15,10,2,1,11,13,4,3,5,12,14,7,9"
14822,commdev-image-keyboard-response,68,307301,learnblock1,776.2999999998137,img/planet5_right.png,5,Community 3,NA,TRUE,j,j,NA,NA,NA,4,7,"6,8,15,10,2,1,11,13,4,3,5,12,14,7,9"
14822,commdev-image-keyboard-response,69,308558,learnblock1,585.2000000001863,img/planet2_right.png,2,Community 1,NA,TRUE,j,j,NA,NA,NA,4,7,"6,8,15,10,2,1,11,13,4,3,5,12,14,7,9"
14822,commdev-image-keyboard-response,70,309824,learnblock1,581.3000000007451,img/planet6_left.png,6,Community 1,NA,TRUE,f,f,NA,NA,NA,4,7,"6,8,15,10,2,1,11,13,4,3,5,12,14,7,9"
14822,commdev-image-keyboard-response,71,311081,learnblock1,510.09999999962747,img/planet10_right.png,10,Community 1,NA,TRUE,j,j,NA,NA,NA,4,7,"6,8,15,10,2,1,11,13,4,3,5,12,14,7,9"
14822,commdev-image-keyboard-response,72,312338,learnblock1,515.4000000003725,img/planet6_right.png,6,Community 1,NA,TRUE,j,j,NA,NA,NA,4,7,"6,8,15,10,2,1,11,13,4,3,5,12,14,7,9"
14822,commdev-image-keyboard-response,73,313604,learnblock1,647.6000000005588,img/planet15_right.png,15,Community 1,NA,TRUE,j,j,NA,NA,NA,4,7,"6,8,15,10,2,1,11,13,4,3,5,12,14,7,9"
14822,commdev-image-keyboard-response,74,314865,learnblock1,543.4000000003725,img/planet2_right.png,2,Community 1,NA,TRUE,j,j,NA,NA,NA,4,7,"6,8,15,10,2,1,11,13,4,3,5,12,14,7,9"
14822,commdev-image-keyboard-response,75,316119,learnblock1,534.9000000003725,img/planet8_right.png,8,Community 1,NA,TRUE,j,j,NA,NA,NA,4,7,"6,8,15,10,2,1,11,13,4,3,5,12,14,7,9"
14822,commdev-image-keyboard-response,76,317378,learnblock1,627.9000000003725,img/planet15_left.png,15,Community 1,NA,TRUE,f,f,NA,NA,NA,4,7,"6,8,15,10,2,1,11,13,4,3,5,12,14,7,9"
14822,commdev-image-keyboard-response,77,318637,learnblock1,805.9000000003725,img/planet2_right.png,2,Community 1,NA,TRUE,j,j,NA,NA,NA,4,7,"6,8,15,10,2,1,11,13,4,3,5,12,14,7,9"
14822,commdev-image-keyboard-response,78,319889,learnblock1,604.3000000007451,img/planet6_left.png,6,Community 1,NA,TRUE,f,f,NA,NA,NA,4,7,"6,8,15,10,2,1,11,13,4,3,5,12,14,7,9"
14822,commdev-image-keyboard-response,79,321144,learnblock1,556.7000000001863,img/planet8_right.png,8,Community 1,NA,TRUE,j,j,NA,NA,NA,4,7,"6,8,15,10,2,1,11,13,4,3,5,12,14,7,9"
14822,commdev-image-keyboard-response,80,322403,learnblock1,446.5,img/planet10_left.png,10,Community 1,NA,TRUE,f,f,NA,NA,NA,4,7,"6,8,15,10,2,1,11,13,4,3,5,12,14,7,9"
14822,commdev-image-keyboard-response,81,323656,learnblock1,629.2999999998137,img/planet6_left.png,6,Community 1,NA,TRUE,f,f,NA,NA,NA,4,7,"6,8,15,10,2,1,11,13,4,3,5,12,14,7,9"
14822,commdev-image-keyboard-response,82,324918,learnblock1,603.0999999996275,img/planet15_left.png,15,Community 1,NA,TRUE,f,f,NA,NA,NA,4,7,"6,8,15,10,2,1,11,13,4,3,5,12,14,7,9"
14822,commdev-image-keyboard-response,83,326175,learnblock1,638,img/planet8_left.png,8,Community 1,NA,TRUE,f,f,NA,NA,NA,4,7,"6,8,15,10,2,1,11,13,4,3,5,12,14,7,9"
14822,commdev-image-keyboard-response,84,327436,learnblock1,490.09999999962747,img/planet2_left.png,2,Community 1,NA,TRUE,f,f,NA,NA,NA,4,7,"6,8,15,10,2,1,11,13,4,3,5,12,14,7,9"
14822,commdev-image-keyboard-response,85,328694,learnblock1,573.2000000001863,img/planet15_right.png,15,Community 1,NA,TRUE,j,j,NA,NA,NA,4,7,"6,8,15,10,2,1,11,13,4,3,5,12,14,7,9"
14822,commdev-image-keyboard-response,86,329954,learnblock1,494.5,img/planet8_left.png,8,Community 1,NA,TRUE,f,f,NA,NA,NA,4,7,"6,8,15,10,2,1,11,13,4,3,5,12,14,7,9"
14822,commdev-image-keyboard-response,87,331206,learnblock1,495.30000000074506,img/planet6_left.png,6,Community 1,NA,TRUE,f,f,NA,NA,NA,4,7,"6,8,15,10,2,1,11,13,4,3,5,12,14,7,9"
14822,commdev-image-keyboard-response,88,332460,learnblock1,541.2000000001863,img/planet10_left.png,10,Community 1,NA,TRUE,f,f,NA,NA,NA,4,7,"6,8,15,10,2,1,11,13,4,3,5,12,14,7,9"
14822,commdev-image-keyboard-response,89,333720,learnblock1,496.29999999981374,img/planet6_left.png,6,Community 1,NA,TRUE,f,f,NA,NA,NA,4,7,"6,8,15,10,2,1,11,13,4,3,5,12,14,7,9"
14822,commdev-image-keyboard-response,90,334975,learnblock1,333.5,img/planet8_right.png,8,Community 1,NA,FALSE,f,j,NA,NA,NA,4,7,"6,8,15,10,2,1,11,13,4,3,5,12,14,7,9"
14822,commdev-image-keyboard-response,91,336230,learnblock1,450.59999999962747,img/planet15_left.png,15,Community 1,NA,FALSE,j,f,NA,NA,NA,4,7,"6,8,15,10,2,1,11,13,4,3,5,12,14,7,9"
14822,commdev-image-keyboard-response,92,337487,learnblock1,568.7999999998137,img/planet10_left.png,10,Community 1,NA,TRUE,f,f,NA,NA,NA,4,7,"6,8,15,10,2,1,11,13,4,3,5,12,14,7,9"
14822,commdev-image-keyboard-response,93,338743,learnblock1,874.0999999996275,img/planet6_right.png,6,Community 1,NA,TRUE,j,j,NA,NA,NA,4,7,"6,8,15,10,2,1,11,13,4,3,5,12,14,7,9"
14822,commdev-image-keyboard-response,94,339999,learnblock1,739.5999999996275,img/planet2_left.png,2,Community 1,NA,TRUE,f,f,NA,NA,NA,4,7,"6,8,15,10,2,1,11,13,4,3,5,12,14,7,9"
14822,commdev-image-keyboard-response,95,341263,learnblock1,865.7000000001863,img/planet5_left.png,5,Community 3,NA,TRUE,f,f,NA,NA,NA,4,7,"6,8,15,10,2,1,11,13,4,3,5,12,14,7,9"
14822,commdev-image-keyboard-response,96,342523,learnblock1,535.6000000005588,img/planet7_left.png,7,Community 3,NA,TRUE,f,f,NA,NA,NA,4,7,"6,8,15,10,2,1,11,13,4,3,5,12,14,7,9"
14822,commdev-image-keyboard-response,97,343784,learnblock1,598.7999999998137,img/planet14_right.png,14,Community 3,NA,TRUE,j,j,NA,NA,NA,4,7,"6,8,15,10,2,1,11,13,4,3,5,12,14,7,9"
14822,commdev-image-keyboard-response,98,345037,learnblock1,592.7000000001863,img/planet12_left.png,12,Community 3,NA,TRUE,f,f,NA,NA,NA,4,7,"6,8,15,10,2,1,11,13,4,3,5,12,14,7,9"
14822,commdev-image-keyboard-response,99,346296,learnblock1,647.4000000003725,img/planet13_right.png,13,Community 2,NA,TRUE,j,j,NA,NA,NA,4,7,"6,8,15,10,2,1,11,13,4,3,5,12,14,7,9"
14822,commdev-image-keyboard-response,100,347552,learnblock1,662.7000000001863,img/planet4_right.png,4,Community 2,NA,TRUE,j,j,NA,NA,NA,4,7,"6,8,15,10,2,1,11,13,4,3,5,12,14,7,9"
14822,commdev-image-keyboard-response,101,348810,learnblock1,562.8999999994412,img/planet3_left.png,3,Community 2,NA,TRUE,f,f,NA,NA,NA,4,7,"6,8,15,10,2,1,11,13,4,3,5,12,14,7,9"
14822,commdev-image-keyboard-response,102,350062,learnblock1,580.8999999994412,img/planet4_right.png,4,Community 2,NA,TRUE,j,j,NA,NA,NA,4,7,"6,8,15,10,2,1,11,13,4,3,5,12,14,7,9"
14822,commdev-image-keyboard-response,103,351316,learnblock1,653.8000000007451,img/planet11_right.png,11,Community 2,NA,TRUE,j,j,NA,NA,NA,4,7,"6,8,15,10,2,1,11,13,4,3,5,12,14,7,9"
14822,commdev-image-keyboard-response,104,352572,learnblock1,570,img/planet1_left.png,1,Community 2,NA,TRUE,f,f,NA,NA,NA,4,7,"6,8,15,10,2,1,11,13,4,3,5,12,14,7,9"
14822,commdev-image-keyboard-response,105,353825,learnblock1,611.1999999992549,img/planet10_left.png,10,Community 1,NA,TRUE,f,f,NA,NA,NA,4,7,"6,8,15,10,2,1,11,13,4,3,5,12,14,7,9"
14822,commdev-image-keyboard-response,106,355085,learnblock1,597.6000000014901,img/planet15_right.png,15,Community 1,NA,TRUE,j,j,NA,NA,NA,4,7,"6,8,15,10,2,1,11,13,4,3,5,12,14,7,9"
14822,commdev-image-keyboard-response,107,356340,learnblock1,563.5,img/planet10_left.png,10,Community 1,NA,TRUE,f,f,NA,NA,NA,4,7,"6,8,15,10,2,1,11,13,4,3,5,12,14,7,9"
14822,commdev-image-keyboard-response,108,357595,learnblock1,560.5,img/planet1_left.png,1,Community 2,NA,TRUE,f,f,NA,NA,NA,4,7,"6,8,15,10,2,1,11,13,4,3,5,12,14,7,9"
14822,commdev-image-keyboard-response,109,358861,learnblock1,675.4000000003725,img/planet3_left.png,3,Community 2,NA,TRUE,f,f,NA,NA,NA,4,7,"6,8,15,10,2,1,11,13,4,3,5,12,14,7,9"
14822,commdev-image-keyboard-response,110,360120,learnblock1,558.6999999992549,img/planet1_left.png,1,Community 2,NA,TRUE,f,f,NA,NA,NA,4,7,"6,8,15,10,2,1,11,13,4,3,5,12,14,7,9"
14822,commdev-image-keyboard-response,111,361374,learnblock1,634.8999999985099,img/planet11_right.png,11,Community 2,NA,TRUE,j,j,NA,NA,NA,4,7,"6,8,15,10,2,1,11,13,4,3,5,12,14,7,9"
14822,commdev-image-keyboard-response,112,362635,learnblock1,683.3000000007451,img/planet4_right.png,4,Community 2,NA,TRUE,j,j,NA,NA,NA,4,7,"6,8,15,10,2,1,11,13,4,3,5,12,14,7,9"
14822,commdev-image-keyboard-response,113,363901,learnblock1,581.7000000011176,img/planet3_left.png,3,Community 2,NA,TRUE,f,f,NA,NA,NA,4,7,"6,8,15,10,2,1,11,13,4,3,5,12,14,7,9"
14822,commdev-image-keyboard-response,114,365157,learnblock1,524.1999999992549,img/planet4_left.png,4,Community 2,NA,TRUE,f,f,NA,NA,NA,4,7,"6,8,15,10,2,1,11,13,4,3,5,12,14,7,9"
14822,commdev-image-keyboard-response,115,366423,learnblock1,573.3000000007451,img/planet13_right.png,13,Community 2,NA,TRUE,j,j,NA,NA,NA,4,7,"6,8,15,10,2,1,11,13,4,3,5,12,14,7,9"
14822,commdev-image-keyboard-response,116,367682,learnblock1,501.2999999988824,img/planet12_left.png,12,Community 3,NA,TRUE,f,f,NA,NA,NA,4,7,"6,8,15,10,2,1,11,13,4,3,5,12,14,7,9"
14822,commdev-image-keyboard-response,117,368935,learnblock1,620.0999999996275,img/planet14_left.png,14,Community 3,NA,TRUE,f,f,NA,NA,NA,4,7,"6,8,15,10,2,1,11,13,4,3,5,12,14,7,9"
14822,commdev-image-keyboard-response,118,370196,learnblock1,532.1999999992549,img/planet7_right.png,7,Community 3,NA,TRUE,j,j,NA,NA,NA,4,7,"6,8,15,10,2,1,11,13,4,3,5,12,14,7,9"
14822,commdev-image-keyboard-response,119,371449,learnblock1,632,img/planet9_right.png,9,Community 3,NA,TRUE,j,j,NA,NA,NA,4,7,"6,8,15,10,2,1,11,13,4,3,5,12,14,7,9"
14822,commdev-image-keyboard-response,120,372708,learnblock1,602.4000000003725,img/planet5_right.png,5,Community 3,NA,TRUE,j,j,NA,NA,NA,4,7,"6,8,15,10,2,1,11,13,4,3,5,12,14,7,9"
14822,commdev-image-keyboard-response,121,373963,learnblock1,658.5,img/planet14_right.png,14,Community 3,NA,TRUE,j,j,NA,NA,NA,4,7,"6,8,15,10,2,1,11,13,4,3,5,12,14,7,9"
14822,commdev-image-keyboard-response,122,375219,learnblock1,567.0999999996275,img/planet9_left.png,9,Community 3,NA,TRUE,f,f,NA,NA,NA,4,7,"6,8,15,10,2,1,11,13,4,3,5,12,14,7,9"
14822,commdev-image-keyboard-response,123,376482,learnblock1,621.5999999996275,img/planet14_right.png,14,Community 3,NA,TRUE,j,j,NA,NA,NA,4,7,"6,8,15,10,2,1,11,13,4,3,5,12,14,7,9"
14822,commdev-image-keyboard-response,124,377736,learnblock1,597.1999999992549,img/planet7_left.png,7,Community 3,NA,TRUE,f,f,NA,NA,NA,4,7,"6,8,15,10,2,1,11,13,4,3,5,12,14,7,9"
14822,commdev-image-keyboard-response,125,378994,learnblock1,635.5999999996275,img/planet9_right.png,9,Community 3,NA,TRUE,j,j,NA,NA,NA,4,7,"6,8,15,10,2,1,11,13,4,3,5,12,14,7,9"
14822,commdev-image-keyboard-response,126,380254,learnblock1,557.5,img/planet5_left.png,5,Community 3,NA,TRUE,f,f,NA,NA,NA,4,7,"6,8,15,10,2,1,11,13,4,3,5,12,14,7,9"
14822,commdev-image-keyboard-response,127,381515,learnblock1,494.30000000074506,img/planet9_left.png,9,Community 3,NA,TRUE,f,f,NA,NA,NA,4,7,"6,8,15,10,2,1,11,13,4,3,5,12,14,7,9"
14822,commdev-image-keyboard-response,128,382774,learnblock1,556.4000000003725,img/planet7_left.png,7,Community 3,NA,TRUE,f,f,NA,NA,NA,4,7,"6,8,15,10,2,1,11,13,4,3,5,12,14,7,9"
14822,commdev-image-keyboard-response,129,384034,learnblock1,582.5999999996275,img/planet12_right.png,12,Community 3,NA,TRUE,j,j,NA,NA,NA,4,7,"6,8,15,10,2,1,11,13,4,3,5,12,14,7,9"
14822,commdev-image-keyboard-response,130,385301,learnblock1,748.5999999996275,img/planet13_right.png,13,Community 2,NA,TRUE,j,j,NA,NA,NA,4,7,"6,8,15,10,2,1,11,13,4,3,5,12,14,7,9"
14822,commdev-image-keyboard-response,131,386561,learnblock1,534.3000000007451,img/planet12_left.png,12,Community 3,NA,TRUE,f,f,NA,NA,NA,4,7,"6,8,15,10,2,1,11,13,4,3,5,12,14,7,9"
14822,commdev-image-keyboard-response,132,387815,learnblock1,566.9000000003725,img/planet9_left.png,9,Community 3,NA,TRUE,f,f,NA,NA,NA,4,7,"6,8,15,10,2,1,11,13,4,3,5,12,14,7,9"
14822,commdev-image-keyboard-response,133,389073,learnblock1,574.8000000007451,img/planet12_right.png,12,Community 3,NA,TRUE,j,j,NA,NA,NA,4,7,"6,8,15,10,2,1,11,13,4,3,5,12,14,7,9"
14822,commdev-image-keyboard-response,134,390338,learnblock1,679.5,img/planet14_left.png,14,Community 3,NA,TRUE,f,f,NA,NA,NA,4,7,"6,8,15,10,2,1,11,13,4,3,5,12,14,7,9"
14822,commdev-image-keyboard-response,135,391595,learnblock1,531.4000000003725,img/planet7_right.png,7,Community 3,NA,TRUE,j,j,NA,NA,NA,4,7,"6,8,15,10,2,1,11,13,4,3,5,12,14,7,9"
14822,commdev-image-keyboard-response,136,392852,learnblock1,491.19999999925494,img/planet9_left.png,9,Community 3,NA,TRUE,f,f,NA,NA,NA,4,7,"6,8,15,10,2,1,11,13,4,3,5,12,14,7,9"
14822,commdev-image-keyboard-response,137,394111,learnblock1,546.7000000011176,img/planet14_right.png,14,Community 3,NA,TRUE,j,j,NA,NA,NA,4,7,"6,8,15,10,2,1,11,13,4,3,5,12,14,7,9"
14822,commdev-image-keyboard-response,138,395369,learnblock1,565,img/planet5_right.png,5,Community 3,NA,TRUE,j,j,NA,NA,NA,4,7,"6,8,15,10,2,1,11,13,4,3,5,12,14,7,9"
14822,commdev-image-keyboard-response,139,396625,learnblock1,697.6999999992549,img/planet2_right.png,2,Community 1,NA,FALSE,f,j,NA,NA,NA,4,7,"6,8,15,10,2,1,11,13,4,3,5,12,14,7,9"
14822,commdev-image-keyboard-response,140,397878,learnblock1,638.5999999996275,img/planet8_left.png,8,Community 1,NA,TRUE,f,f,NA,NA,NA,4,7,"6,8,15,10,2,1,11,13,4,3,5,12,14,7,9"
14822,commdev-image-keyboard-response,141,399140,learnblock1,551.6000000014901,img/planet6_right.png,6,Community 1,NA,TRUE,j,j,NA,NA,NA,4,7,"6,8,15,10,2,1,11,13,4,3,5,12,14,7,9"
14822,commdev-image-keyboard-response,142,400395,learnblock1,482.6000000014901,img/planet8_left.png,8,Community 1,NA,TRUE,f,f,NA,NA,NA,4,7,"6,8,15,10,2,1,11,13,4,3,5,12,14,7,9"
14822,commdev-image-keyboard-response,143,401652,learnblock1,540.5,img/planet15_left.png,15,Community 1,NA,FALSE,j,f,NA,NA,NA,4,7,"6,8,15,10,2,1,11,13,4,3,5,12,14,7,9"
14822,commdev-image-keyboard-response,144,402911,learnblock1,561.9000000003725,img/planet6_right.png,6,Community 1,NA,TRUE,j,j,NA,NA,NA,4,7,"6,8,15,10,2,1,11,13,4,3,5,12,14,7,9"
14822,commdev-image-keyboard-response,145,404170,learnblock1,524.7999999988824,img/planet10_left.png,10,Community 1,NA,TRUE,f,f,NA,NA,NA,4,7,"6,8,15,10,2,1,11,13,4,3,5,12,14,7,9"
14822,commdev-image-keyboard-response,146,405431,learnblock1,577.9000000003725,img/planet6_right.png,6,Community 1,NA,TRUE,j,j,NA,NA,NA,4,7,"6,8,15,10,2,1,11,13,4,3,5,12,14,7,9"
14822,commdev-image-keyboard-response,147,406691,learnblock1,585.3999999985099,img/planet10_left.png,10,Community 1,NA,TRUE,f,f,NA,NA,NA,4,7,"6,8,15,10,2,1,11,13,4,3,5,12,14,7,9"
14822,commdev-image-keyboard-response,148,407955,learnblock1,740.2999999988824,img/planet6_left.png,6,Community 1,NA,TRUE,f,f,NA,NA,NA,4,7,"6,8,15,10,2,1,11,13,4,3,5,12,14,7,9"
14822,commdev-image-keyboard-response,149,409212,learnblock1,537.6999999992549,img/planet15_left.png,15,Community 1,NA,TRUE,f,f,NA,NA,NA,4,7,"6,8,15,10,2,1,11,13,4,3,5,12,14,7,9"
14822,commdev-image-keyboard-response,150,410467,learnblock1,521.1999999992549,img/planet2_left.png,2,Community 1,NA,TRUE,f,f,NA,NA,NA,4,7,"6,8,15,10,2,1,11,13,4,3,5,12,14,7,9"
14822,commdev-image-keyboard-response,151,411732,learnblock1,515.5,img/planet5_left.png,5,Community 3,NA,TRUE,f,f,NA,NA,NA,4,7,"6,8,15,10,2,1,11,13,4,3,5,12,14,7,9"
14822,commdev-image-keyboard-response,152,412994,learnblock1,634.8000000007451,img/planet9_right.png,9,Community 3,NA,TRUE,j,j,NA,NA,NA,4,7,"6,8,15,10,2,1,11,13,4,3,5,12,14,7,9"
14822,commdev-image-keyboard-response,153,414258,learnblock1,496.7999999988824,img/planet5_right.png,5,Community 3,NA,TRUE,j,j,NA,NA,NA,4,7,"6,8,15,10,2,1,11,13,4,3,5,12,14,7,9"
14822,commdev-image-keyboard-response,154,415512,learnblock1,533.7000000011176,img/planet9_right.png,9,Community 3,NA,TRUE,j,j,NA,NA,NA,4,7,"6,8,15,10,2,1,11,13,4,3,5,12,14,7,9"
14822,commdev-image-keyboard-response,155,416769,learnblock1,697.7999999988824,img/planet5_left.png,5,Community 3,NA,TRUE,f,f,NA,NA,NA,4,7,"6,8,15,10,2,1,11,13,4,3,5,12,14,7,9"
14822,commdev-image-keyboard-response,156,418026,learnblock1,555.9000000003725,img/planet7_left.png,7,Community 3,NA,TRUE,f,f,NA,NA,NA,4,7,"6,8,15,10,2,1,11,13,4,3,5,12,14,7,9"
14822,commdev-image-keyboard-response,157,419292,learnblock1,555.3000000007451,img/planet9_left.png,9,Community 3,NA,TRUE,f,f,NA,NA,NA,4,7,"6,8,15,10,2,1,11,13,4,3,5,12,14,7,9"
14822,commdev-image-keyboard-response,158,420547,learnblock1,696,img/planet14_right.png,14,Community 3,NA,TRUE,j,j,NA,NA,NA,4,7,"6,8,15,10,2,1,11,13,4,3,5,12,14,7,9"
14822,commdev-image-keyboard-response,159,421807,learnblock1,642.5999999996275,img/planet9_left.png,9,Community 3,NA,TRUE,f,f,NA,NA,NA,4,7,"6,8,15,10,2,1,11,13,4,3,5,12,14,7,9"
14822,commdev-image-keyboard-response,160,423061,learnblock1,640.8000000007451,img/planet7_left.png,7,Community 3,NA,TRUE,f,f,NA,NA,NA,4,7,"6,8,15,10,2,1,11,13,4,3,5,12,14,7,9"
14822,commdev-image-keyboard-response,161,424316,learnblock1,656.7999999988824,img/planet12_left.png,12,Community 3,NA,TRUE,f,f,NA,NA,NA,4,7,"6,8,15,10,2,1,11,13,4,3,5,12,14,7,9"
14822,commdev-image-keyboard-response,162,425570,learnblock1,465.7999999988824,img/planet7_left.png,7,Community 3,NA,TRUE,f,f,NA,NA,NA,4,7,"6,8,15,10,2,1,11,13,4,3,5,12,14,7,9"
14822,commdev-image-keyboard-response,163,426823,learnblock1,588.1999999992549,img/planet5_left.png,5,Community 3,NA,TRUE,f,f,NA,NA,NA,4,7,"6,8,15,10,2,1,11,13,4,3,5,12,14,7,9"
14822,commdev-image-keyboard-response,164,428081,learnblock1,590.1999999992549,img/planet14_right.png,14,Community 3,NA,TRUE,j,j,NA,NA,NA,4,7,"6,8,15,10,2,1,11,13,4,3,5,12,14,7,9"
14822,commdev-image-keyboard-response,165,429341,learnblock1,373.3999999985099,img/planet9_left.png,9,Community 3,NA,TRUE,f,f,NA,NA,NA,4,7,"6,8,15,10,2,1,11,13,4,3,5,12,14,7,9"
14822,commdev-image-keyboard-response,166,430600,learnblock1,629.7999999988824,img/planet14_left.png,14,Community 3,NA,TRUE,f,f,NA,NA,NA,4,7,"6,8,15,10,2,1,11,13,4,3,5,12,14,7,9"
14822,commdev-image-keyboard-response,167,431855,learnblock1,498.40000000037253,img/planet5_left.png,5,Community 3,NA,TRUE,f,f,NA,NA,NA,4,7,"6,8,15,10,2,1,11,13,4,3,5,12,14,7,9"
14822,commdev-image-keyboard-response,168,433109,learnblock1,595.3999999985099,img/planet14_right.png,14,Community 3,NA,TRUE,j,j,NA,NA,NA,4,7,"6,8,15,10,2,1,11,13,4,3,5,12,14,7,9"
14822,commdev-image-keyboard-response,169,434375,learnblock1,574,img/planet7_right.png,7,Community 3,NA,FALSE,f,j,NA,NA,NA,4,7,"6,8,15,10,2,1,11,13,4,3,5,12,14,7,9"
14822,commdev-image-keyboard-response,170,435634,learnblock1,727.3000000007451,img/planet12_right.png,12,Community 3,NA,TRUE,j,j,NA,NA,NA,4,7,"6,8,15,10,2,1,11,13,4,3,5,12,14,7,9"
14822,commdev-image-keyboard-response,171,436886,learnblock1,578.7999999988824,img/planet7_left.png,7,Community 3,NA,TRUE,f,f,NA,NA,NA,4,7,"6,8,15,10,2,1,11,13,4,3,5,12,14,7,9"
14822,commdev-image-keyboard-response,172,438144,learnblock1,699.3999999985099,img/planet14_left.png,14,Community 3,NA,FALSE,j,f,NA,NA,NA,4,7,"6,8,15,10,2,1,11,13,4,3,5,12,14,7,9"
14822,commdev-image-keyboard-response,173,439407,learnblock1,643.5,img/planet12_left.png,12,Community 3,NA,TRUE,f,f,NA,NA,NA,4,7,"6,8,15,10,2,1,11,13,4,3,5,12,14,7,9"
14822,commdev-image-keyboard-response,174,440666,learnblock1,642.9000000003725,img/planet7_right.png,7,Community 3,NA,TRUE,j,j,NA,NA,NA,4,7,"6,8,15,10,2,1,11,13,4,3,5,12,14,7,9"
14822,commdev-image-keyboard-response,175,441920,learnblock1,685.1999999992549,img/planet12_right.png,12,Community 3,NA,TRUE,j,j,NA,NA,NA,4,7,"6,8,15,10,2,1,11,13,4,3,5,12,14,7,9"
14822,commdev-image-keyboard-response,176,443178,learnblock1,602.8000000007451,img/planet9_right.png,9,Community 3,NA,FALSE,f,j,NA,NA,NA,4,7,"6,8,15,10,2,1,11,13,4,3,5,12,14,7,9"
14822,commdev-image-keyboard-response,177,444430,learnblock1,606.4000000003725,img/planet5_right.png,5,Community 3,NA,TRUE,j,j,NA,NA,NA,4,7,"6,8,15,10,2,1,11,13,4,3,5,12,14,7,9"
14822,commdev-image-keyboard-response,178,445682,learnblock1,585,img/planet2_right.png,2,Community 1,NA,TRUE,j,j,NA,NA,NA,4,7,"6,8,15,10,2,1,11,13,4,3,5,12,14,7,9"
14822,commdev-image-keyboard-response,179,446945,learnblock1,595.8999999985099,img/planet8_right.png,8,Community 1,NA,TRUE,j,j,NA,NA,NA,4,7,"6,8,15,10,2,1,11,13,4,3,5,12,14,7,9"
14822,commdev-image-keyboard-response,180,448204,learnblock1,554,img/planet6_left.png,6,Community 1,NA,TRUE,f,f,NA,NA,NA,4,7,"6,8,15,10,2,1,11,13,4,3,5,12,14,7,9"
14822,commdev-image-keyboard-response,181,449463,learnblock1,555.6999999992549,img/planet15_left.png,15,Community 1,NA,TRUE,f,f,NA,NA,NA,4,7,"6,8,15,10,2,1,11,13,4,3,5,12,14,7,9"
14822,commdev-image-keyboard-response,182,450717,learnblock1,600.8000000007451,img/planet10_right.png,10,Community 1,NA,TRUE,j,j,NA,NA,NA,4,7,"6,8,15,10,2,1,11,13,4,3,5,12,14,7,9"
14822,commdev-image-keyboard-response,183,451976,learnblock1,525.8000000007451,img/planet1_left.png,1,Community 2,NA,TRUE,f,f,NA,NA,NA,4,7,"6,8,15,10,2,1,11,13,4,3,5,12,14,7,9"
14822,commdev-image-keyboard-response,184,453232,learnblock1,623.8000000007451,img/planet3_left.png,3,Community 2,NA,TRUE,f,f,NA,NA,NA,4,7,"6,8,15,10,2,1,11,13,4,3,5,12,14,7,9"
14822,commdev-image-keyboard-response,185,454499,learnblock1,582.2000000011176,img/planet13_right.png,13,Community 2,NA,TRUE,j,j,NA,NA,NA,4,7,"6,8,15,10,2,1,11,13,4,3,5,12,14,7,9"
14822,commdev-image-keyboard-response,186,455750,learnblock1,666.9000000003725,img/planet12_right.png,12,Community 3,NA,TRUE,j,j,NA,NA,NA,4,7,"6,8,15,10,2,1,11,13,4,3,5,12,14,7,9"
14822,commdev-image-keyboard-response,187,457011,learnblock1,766.7999999988824,img/planet7_left.png,7,Community 3,NA,TRUE,f,f,NA,NA,NA,4,7,"6,8,15,10,2,1,11,13,4,3,5,12,14,7,9"
14822,commdev-image-keyboard-response,188,458267,learnblock1,637.1999999992549,img/planet12_right.png,12,Community 3,NA,TRUE,j,j,NA,NA,NA,4,7,"6,8,15,10,2,1,11,13,4,3,5,12,14,7,9"
14822,commdev-image-keyboard-response,189,459523,learnblock1,509.2999999988824,img/planet13_left.png,13,Community 2,NA,TRUE,f,f,NA,NA,NA,4,7,"6,8,15,10,2,1,11,13,4,3,5,12,14,7,9"
14822,commdev-image-keyboard-response,190,460787,learnblock1,570.9000000003725,img/planet4_left.png,4,Community 2,NA,TRUE,f,f,NA,NA,NA,4,7,"6,8,15,10,2,1,11,13,4,3,5,12,14,7,9"
14822,commdev-image-keyboard-response,191,462045,learnblock1,575.5,img/planet1_right.png,1,Community 2,NA,TRUE,j,j,NA,NA,NA,4,7,"6,8,15,10,2,1,11,13,4,3,5,12,14,7,9"
14822,commdev-image-keyboard-response,192,463308,learnblock1,662.5,img/planet11_left.png,11,Community 2,NA,TRUE,f,f,NA,NA,NA,4,7,"6,8,15,10,2,1,11,13,4,3,5,12,14,7,9"
14822,commdev-image-keyboard-response,193,464562,learnblock1,487,img/planet13_left.png,13,Community 2,NA,TRUE,f,f,NA,NA,NA,4,7,"6,8,15,10,2,1,11,13,4,3,5,12,14,7,9"
14822,commdev-image-keyboard-response,194,465815,learnblock1,480.5,img/planet12_left.png,12,Community 3,NA,TRUE,f,f,NA,NA,NA,4,7,"6,8,15,10,2,1,11,13,4,3,5,12,14,7,9"
14822,commdev-image-keyboard-response,195,467067,learnblock1,638.4000000003725,img/planet9_right.png,9,Community 3,NA,TRUE,j,j,NA,NA,NA,4,7,"6,8,15,10,2,1,11,13,4,3,5,12,14,7,9"
14822,commdev-image-keyboard-response,196,468326,learnblock1,855,img/planet14_left.png,14,Community 3,NA,TRUE,f,f,NA,NA,NA,4,7,"6,8,15,10,2,1,11,13,4,3,5,12,14,7,9"
14822,commdev-image-keyboard-response,197,469592,learnblock1,672,img/planet12_right.png,12,Community 3,NA,TRUE,j,j,NA,NA,NA,4,7,"6,8,15,10,2,1,11,13,4,3,5,12,14,7,9"
14822,commdev-image-keyboard-response,198,470847,learnblock1,748.2000000011176,img/planet9_left.png,9,Community 3,NA,TRUE,f,f,NA,NA,NA,4,7,"6,8,15,10,2,1,11,13,4,3,5,12,14,7,9"
14822,commdev-image-keyboard-response,199,472114,learnblock1,553.2000000011176,img/planet14_right.png,14,Community 3,NA,TRUE,j,j,NA,NA,NA,4,7,"6,8,15,10,2,1,11,13,4,3,5,12,14,7,9"
14822,commdev-image-keyboard-response,200,473379,learnblock1,550.1000000014901,img/planet9_right.png,9,Community 3,NA,TRUE,j,j,NA,NA,NA,4,7,"6,8,15,10,2,1,11,13,4,3,5,12,14,7,9"
14822,commdev-image-keyboard-response,201,474633,learnblock1,717.6999999992549,img/planet12_right.png,12,Community 3,NA,TRUE,j,j,NA,NA,NA,4,7,"6,8,15,10,2,1,11,13,4,3,5,12,14,7,9"
14822,commdev-image-keyboard-response,202,475897,learnblock1,510.2000000011176,img/planet13_left.png,13,Community 2,NA,TRUE,f,f,NA,NA,NA,4,7,"6,8,15,10,2,1,11,13,4,3,5,12,14,7,9"
14822,commdev-image-keyboard-response,203,477164,learnblock1,652.7999999988824,img/planet12_left.png,12,Community 3,NA,TRUE,f,f,NA,NA,NA,4,7,"6,8,15,10,2,1,11,13,4,3,5,12,14,7,9"
14822,commdev-image-keyboard-response,204,478425,learnblock1,607.5,img/planet9_right.png,9,Community 3,NA,TRUE,j,j,NA,NA,NA,4,7,"6,8,15,10,2,1,11,13,4,3,5,12,14,7,9"
14822,commdev-image-keyboard-response,205,479680,learnblock1,697.5,img/planet5_right.png,5,Community 3,NA,TRUE,j,j,NA,NA,NA,4,7,"6,8,15,10,2,1,11,13,4,3,5,12,14,7,9"
14822,commdev-image-keyboard-response,206,480933,learnblock1,560.7999999988824,img/planet14_left.png,14,Community 3,NA,TRUE,f,f,NA,NA,NA,4,7,"6,8,15,10,2,1,11,13,4,3,5,12,14,7,9"
14822,commdev-image-keyboard-response,207,482194,learnblock1,671.5999999996275,img/planet7_left.png,7,Community 3,NA,TRUE,f,f,NA,NA,NA,4,7,"6,8,15,10,2,1,11,13,4,3,5,12,14,7,9"
14822,commdev-image-keyboard-response,208,483452,learnblock1,645.4000000003725,img/planet5_right.png,5,Community 3,NA,TRUE,j,j,NA,NA,NA,4,7,"6,8,15,10,2,1,11,13,4,3,5,12,14,7,9"
14822,commdev-image-keyboard-response,209,484717,learnblock1,667.5,img/planet9_right.png,9,Community 3,NA,TRUE,j,j,NA,NA,NA,4,7,"6,8,15,10,2,1,11,13,4,3,5,12,14,7,9"
14822,commdev-image-keyboard-response,210,485971,learnblock1,539.8999999985099,img/planet12_left.png,12,Community 3,NA,TRUE,f,f,NA,NA,NA,4,7,"6,8,15,10,2,1,11,13,4,3,5,12,14,7,9"
14822,commdev-image-keyboard-response,211,487223,learnblock1,797.0999999996275,img/planet14_right.png,14,Community 3,NA,TRUE,j,j,NA,NA,NA,4,7,"6,8,15,10,2,1,11,13,4,3,5,12,14,7,9"
14822,commdev-image-keyboard-response,212,488477,learnblock1,746.9000000003725,img/planet9_left.png,9,Community 3,NA,TRUE,f,f,NA,NA,NA,4,7,"6,8,15,10,2,1,11,13,4,3,5,12,14,7,9"
14822,commdev-image-keyboard-response,213,489735,learnblock1,551.5,img/planet5_left.png,5,Community 3,NA,TRUE,f,f,NA,NA,NA,4,7,"6,8,15,10,2,1,11,13,4,3,5,12,14,7,9"
14822,commdev-image-keyboard-response,214,490988,learnblock1,622.4000000003725,img/planet9_right.png,9,Community 3,NA,TRUE,j,j,NA,NA,NA,4,7,"6,8,15,10,2,1,11,13,4,3,5,12,14,7,9"
14822,commdev-image-keyboard-response,215,492245,learnblock1,691,img/planet5_right.png,5,Community 3,NA,TRUE,j,j,NA,NA,NA,4,7,"6,8,15,10,2,1,11,13,4,3,5,12,14,7,9"
14822,commdev-image-keyboard-response,216,493503,learnblock1,570.9000000003725,img/planet14_right.png,14,Community 3,NA,TRUE,j,j,NA,NA,NA,4,7,"6,8,15,10,2,1,11,13,4,3,5,12,14,7,9"
14822,commdev-image-keyboard-response,217,494763,learnblock1,874.7000000011176,img/planet7_right.png,7,Community 3,NA,TRUE,j,j,NA,NA,NA,4,7,"6,8,15,10,2,1,11,13,4,3,5,12,14,7,9"
14822,commdev-image-keyboard-response,218,496017,learnblock1,662,img/planet14_left.png,14,Community 3,NA,TRUE,f,f,NA,NA,NA,4,7,"6,8,15,10,2,1,11,13,4,3,5,12,14,7,9"
14822,commdev-image-keyboard-response,219,497281,learnblock1,472.09999999962747,img/planet9_left.png,9,Community 3,NA,TRUE,f,f,NA,NA,NA,4,7,"6,8,15,10,2,1,11,13,4,3,5,12,14,7,9"
14822,commdev-image-keyboard-response,220,498543,learnblock1,613.9000000003725,img/planet14_right.png,14,Community 3,NA,TRUE,j,j,NA,NA,NA,4,7,"6,8,15,10,2,1,11,13,4,3,5,12,14,7,9"
14822,commdev-image-keyboard-response,221,499795,learnblock1,568.3000000007451,img/planet5_left.png,5,Community 3,NA,TRUE,f,f,NA,NA,NA,4,7,"6,8,15,10,2,1,11,13,4,3,5,12,14,7,9"
14822,commdev-image-keyboard-response,222,501051,learnblock1,638.4000000003725,img/planet14_left.png,14,Community 3,NA,TRUE,f,f,NA,NA,NA,4,7,"6,8,15,10,2,1,11,13,4,3,5,12,14,7,9"
14822,commdev-image-keyboard-response,223,502307,learnblock1,566.1999999992549,img/planet9_left.png,9,Community 3,NA,TRUE,f,f,NA,NA,NA,4,7,"6,8,15,10,2,1,11,13,4,3,5,12,14,7,9"
14822,commdev-image-keyboard-response,224,503567,learnblock1,550.9000000003725,img/planet7_left.png,7,Community 3,NA,TRUE,f,f,NA,NA,NA,4,7,"6,8,15,10,2,1,11,13,4,3,5,12,14,7,9"
14822,commdev-image-keyboard-response,225,504835,learnblock1,710.1999999992549,img/planet14_right.png,14,Community 3,NA,TRUE,j,j,NA,NA,NA,4,7,"6,8,15,10,2,1,11,13,4,3,5,12,14,7,9"
14822,commdev-image-keyboard-response,226,506102,learnblock1,599,img/planet7_left.png,7,Community 3,NA,TRUE,f,f,NA,NA,NA,4,7,"6,8,15,10,2,1,11,13,4,3,5,12,14,7,9"
14822,commdev-image-keyboard-response,227,507356,learnblock1,563.3000000007451,img/planet5_left.png,5,Community 3,NA,TRUE,f,f,NA,NA,NA,4,7,"6,8,15,10,2,1,11,13,4,3,5,12,14,7,9"
14822,commdev-image-keyboard-response,228,508609,learnblock1,470.2000000011176,img/planet2_left.png,2,Community 1,NA,TRUE,f,f,NA,NA,NA,4,7,"6,8,15,10,2,1,11,13,4,3,5,12,14,7,9"
14822,commdev-image-keyboard-response,229,509862,learnblock1,599.1999999992549,img/planet8_left.png,8,Community 1,NA,TRUE,f,f,NA,NA,NA,4,7,"6,8,15,10,2,1,11,13,4,3,5,12,14,7,9"
14822,commdev-image-keyboard-response,230,511117,learnblock1,872.3000000007451,img/planet6_right.png,6,Community 1,NA,TRUE,j,j,NA,NA,NA,4,7,"6,8,15,10,2,1,11,13,4,3,5,12,14,7,9"
14822,commdev-image-keyboard-response,231,512371,learnblock1,611,img/planet2_right.png,2,Community 1,NA,TRUE,j,j,NA,NA,NA,4,7,"6,8,15,10,2,1,11,13,4,3,5,12,14,7,9"
14822,commdev-image-keyboard-response,232,513626,learnblock1,934.3000000007451,img/planet15_right.png,15,Community 1,NA,TRUE,j,j,NA,NA,NA,4,7,"6,8,15,10,2,1,11,13,4,3,5,12,14,7,9"
14822,commdev-image-keyboard-response,233,514880,learnblock1,595,img/planet8_left.png,8,Community 1,NA,TRUE,f,f,NA,NA,NA,4,7,"6,8,15,10,2,1,11,13,4,3,5,12,14,7,9"
14822,commdev-image-keyboard-response,234,516133,learnblock1,546.7999999988824,img/planet10_left.png,10,Community 1,NA,TRUE,f,f,NA,NA,NA,4,7,"6,8,15,10,2,1,11,13,4,3,5,12,14,7,9"
14822,commdev-image-keyboard-response,235,517392,learnblock1,583,img/planet8_left.png,8,Community 1,NA,TRUE,f,f,NA,NA,NA,4,7,"6,8,15,10,2,1,11,13,4,3,5,12,14,7,9"
14822,commdev-image-keyboard-response,236,518656,learnblock1,632.8000000007451,img/planet10_right.png,10,Community 1,NA,TRUE,j,j,NA,NA,NA,4,7,"6,8,15,10,2,1,11,13,4,3,5,12,14,7,9"
14822,commdev-image-keyboard-response,237,519916,learnblock1,576.5999999996275,img/planet1_left.png,1,Community 2,NA,TRUE,f,f,NA,NA,NA,4,7,"6,8,15,10,2,1,11,13,4,3,5,12,14,7,9"
14822,commdev-image-keyboard-response,238,521177,learnblock1,688.2000000011176,img/planet11_left.png,11,Community 2,NA,TRUE,f,f,NA,NA,NA,4,7,"6,8,15,10,2,1,11,13,4,3,5,12,14,7,9"
14822,commdev-image-keyboard-response,239,522437,learnblock1,620.1999999992549,img/planet3_left.png,3,Community 2,NA,TRUE,f,f,NA,NA,NA,4,7,"6,8,15,10,2,1,11,13,4,3,5,12,14,7,9"
14822,commdev-image-keyboard-response,240,523690,learnblock1,542.5,img/planet1_left.png,1,Community 2,NA,TRUE,f,f,NA,NA,NA,4,7,"6,8,15,10,2,1,11,13,4,3,5,12,14,7,9"
14822,commdev-image-keyboard-response,241,524943,learnblock1,729.3999999985099,img/planet3_left.png,3,Community 2,NA,TRUE,f,f,NA,NA,NA,4,7,"6,8,15,10,2,1,11,13,4,3,5,12,14,7,9"
14822,commdev-image-keyboard-response,242,526198,learnblock1,628.9000000003725,img/planet4_right.png,4,Community 2,NA,TRUE,j,j,NA,NA,NA,4,7,"6,8,15,10,2,1,11,13,4,3,5,12,14,7,9"
14822,commdev-image-keyboard-response,243,527454,learnblock1,624.1999999992549,img/planet1_right.png,1,Community 2,NA,TRUE,j,j,NA,NA,NA,4,7,"6,8,15,10,2,1,11,13,4,3,5,12,14,7,9"
14822,commdev-image-keyboard-response,244,528712,learnblock1,636.4000000003725,img/planet10_left.png,10,Community 1,NA,TRUE,f,f,NA,NA,NA,4,7,"6,8,15,10,2,1,11,13,4,3,5,12,14,7,9"
14822,commdev-image-keyboard-response,245,529976,learnblock1,731.6999999992549,img/planet6_left.png,6,Community 1,NA,TRUE,f,f,NA,NA,NA,4,7,"6,8,15,10,2,1,11,13,4,3,5,12,14,7,9"
14822,commdev-image-keyboard-response,246,531229,learnblock1,591.5999999996275,img/planet2_right.png,2,Community 1,NA,TRUE,j,j,NA,NA,NA,4,7,"6,8,15,10,2,1,11,13,4,3,5,12,14,7,9"
14822,commdev-image-keyboard-response,247,532488,learnblock1,657.2999999988824,img/planet6_left.png,6,Community 1,NA,TRUE,f,f,NA,NA,NA,4,7,"6,8,15,10,2,1,11,13,4,3,5,12,14,7,9"
14822,commdev-image-keyboard-response,248,533745,learnblock1,641.0999999996275,img/planet10_right.png,10,Community 1,NA,TRUE,j,j,NA,NA,NA,4,7,"6,8,15,10,2,1,11,13,4,3,5,12,14,7,9"
14822,commdev-image-keyboard-response,249,535008,learnblock1,562.8000000007451,img/planet8_right.png,8,Community 1,NA,TRUE,j,j,NA,NA,NA,4,7,"6,8,15,10,2,1,11,13,4,3,5,12,14,7,9"
14822,commdev-image-keyboard-response,250,536268,learnblock1,644.2000000011176,img/planet15_left.png,15,Community 1,NA,TRUE,f,f,NA,NA,NA,4,7,"6,8,15,10,2,1,11,13,4,3,5,12,14,7,9"
14822,commdev-image-keyboard-response,251,537521,learnblock1,618.9000000003725,img/planet8_left.png,8,Community 1,NA,TRUE,f,f,NA,NA,NA,4,7,"6,8,15,10,2,1,11,13,4,3,5,12,14,7,9"
14822,commdev-image-keyboard-response,252,538788,learnblock1,472.30000000074506,img/planet10_left.png,10,Community 1,NA,TRUE,f,f,NA,NA,NA,4,7,"6,8,15,10,2,1,11,13,4,3,5,12,14,7,9"
14822,commdev-image-keyboard-response,253,540041,learnblock1,476.09999999962747,img/planet6_left.png,6,Community 1,NA,TRUE,f,f,NA,NA,NA,4,7,"6,8,15,10,2,1,11,13,4,3,5,12,14,7,9"
14822,commdev-image-keyboard-response,254,541303,learnblock1,590.0999999996275,img/planet2_right.png,2,Community 1,NA,TRUE,j,j,NA,NA,NA,4,7,"6,8,15,10,2,1,11,13,4,3,5,12,14,7,9"
14822,commdev-image-keyboard-response,255,542563,learnblock1,721.4000000003725,img/planet15_right.png,15,Community 1,NA,TRUE,j,j,NA,NA,NA,4,7,"6,8,15,10,2,1,11,13,4,3,5,12,14,7,9"
14822,commdev-image-keyboard-response,256,543824,learnblock1,590.1000000014901,img/planet6_right.png,6,Community 1,NA,TRUE,j,j,NA,NA,NA,4,7,"6,8,15,10,2,1,11,13,4,3,5,12,14,7,9"
14822,commdev-image-keyboard-response,257,545082,learnblock1,551.6999999992549,img/planet15_left.png,15,Community 1,NA,TRUE,f,f,NA,NA,NA,4,7,"6,8,15,10,2,1,11,13,4,3,5,12,14,7,9"
14822,commdev-image-keyboard-response,258,546335,learnblock1,597,img/planet8_right.png,8,Community 1,NA,TRUE,j,j,NA,NA,NA,4,7,"6,8,15,10,2,1,11,13,4,3,5,12,14,7,9"
14822,commdev-image-keyboard-response,259,547594,learnblock1,802.3000000007451,img/planet15_right.png,15,Community 1,NA,TRUE,j,j,NA,NA,NA,4,7,"6,8,15,10,2,1,11,13,4,3,5,12,14,7,9"
14822,commdev-image-keyboard-response,260,548849,learnblock1,631.7999999988824,img/planet2_left.png,2,Community 1,NA,TRUE,f,f,NA,NA,NA,4,7,"6,8,15,10,2,1,11,13,4,3,5,12,14,7,9"
14822,commdev-image-keyboard-response,261,550110,learnblock1,577.3999999985099,img/planet6_left.png,6,Community 1,NA,TRUE,f,f,NA,NA,NA,4,7,"6,8,15,10,2,1,11,13,4,3,5,12,14,7,9"
14822,commdev-image-keyboard-response,262,551366,learnblock1,614.1000000014901,img/planet2_right.png,2,Community 1,NA,TRUE,j,j,NA,NA,NA,4,7,"6,8,15,10,2,1,11,13,4,3,5,12,14,7,9"
14822,commdev-image-keyboard-response,263,552623,learnblock1,517.2000000011176,img/planet8_right.png,8,Community 1,NA,TRUE,j,j,NA,NA,NA,4,7,"6,8,15,10,2,1,11,13,4,3,5,12,14,7,9"
14822,commdev-image-keyboard-response,264,553883,learnblock1,730.3000000007451,img/planet15_right.png,15,Community 1,NA,TRUE,j,j,NA,NA,NA,4,7,"6,8,15,10,2,1,11,13,4,3,5,12,14,7,9"
14822,commdev-image-keyboard-response,265,555140,learnblock1,547.5999999996275,img/planet2_right.png,2,Community 1,NA,TRUE,j,j,NA,NA,NA,4,7,"6,8,15,10,2,1,11,13,4,3,5,12,14,7,9"
14822,commdev-image-keyboard-response,266,556398,learnblock1,586.3999999985099,img/planet15_left.png,15,Community 1,NA,TRUE,f,f,NA,NA,NA,4,7,"6,8,15,10,2,1,11,13,4,3,5,12,14,7,9"
14822,commdev-image-keyboard-response,267,557656,learnblock1,629.5999999996275,img/planet10_right.png,10,Community 1,NA,TRUE,j,j,NA,NA,NA,4,7,"6,8,15,10,2,1,11,13,4,3,5,12,14,7,9"
14822,commdev-image-keyboard-response,268,558918,learnblock1,571.4000000003725,img/planet6_left.png,6,Community 1,NA,TRUE,f,f,NA,NA,NA,4,7,"6,8,15,10,2,1,11,13,4,3,5,12,14,7,9"
14822,commdev-image-keyboard-response,269,560174,learnblock1,557.7000000011176,img/planet10_right.png,10,Community 1,NA,TRUE,j,j,NA,NA,NA,4,7,"6,8,15,10,2,1,11,13,4,3,5,12,14,7,9"
14822,commdev-image-keyboard-response,270,561431,learnblock1,575.4000000003725,img/planet6_right.png,6,Community 1,NA,TRUE,j,j,NA,NA,NA,4,7,"6,8,15,10,2,1,11,13,4,3,5,12,14,7,9"
14822,commdev-image-keyboard-response,271,562685,learnblock1,541.6000000014901,img/planet8_right.png,8,Community 1,NA,TRUE,j,j,NA,NA,NA,4,7,"6,8,15,10,2,1,11,13,4,3,5,12,14,7,9"
14822,commdev-image-keyboard-response,272,563951,learnblock1,481.19999999925494,img/planet2_left.png,2,Community 1,NA,TRUE,f,f,NA,NA,NA,4,7,"6,8,15,10,2,1,11,13,4,3,5,12,14,7,9"
14822,commdev-image-keyboard-response,273,565207,learnblock1,658.4000000003725,img/planet15_left.png,15,Community 1,NA,TRUE,f,f,NA,NA,NA,4,7,"6,8,15,10,2,1,11,13,4,3,5,12,14,7,9"
14822,commdev-image-keyboard-response,274,566459,learnblock1,506,img/planet10_left.png,10,Community 1,NA,TRUE,f,f,NA,NA,NA,4,7,"6,8,15,10,2,1,11,13,4,3,5,12,14,7,9"
14822,commdev-image-keyboard-response,275,567718,learnblock1,597.7999999988824,img/planet1_right.png,1,Community 2,NA,TRUE,j,j,NA,NA,NA,4,7,"6,8,15,10,2,1,11,13,4,3,5,12,14,7,9"
14822,commdev-image-keyboard-response,276,568973,learnblock1,549.9000000003725,img/planet10_left.png,10,Community 1,NA,TRUE,f,f,NA,NA,NA,4,7,"6,8,15,10,2,1,11,13,4,3,5,12,14,7,9"
14822,commdev-image-keyboard-response,277,570237,learnblock1,547.3000000007451,img/planet15_left.png,15,Community 1,NA,TRUE,f,f,NA,NA,NA,4,7,"6,8,15,10,2,1,11,13,4,3,5,12,14,7,9"
14822,commdev-image-keyboard-response,278,571491,learnblock1,576.5,img/planet6_right.png,6,Community 1,NA,TRUE,j,j,NA,NA,NA,4,7,"6,8,15,10,2,1,11,13,4,3,5,12,14,7,9"
14822,commdev-image-keyboard-response,279,572747,learnblock1,644,img/planet2_right.png,2,Community 1,NA,TRUE,j,j,NA,NA,NA,4,7,"6,8,15,10,2,1,11,13,4,3,5,12,14,7,9"
14822,commdev-image-keyboard-response,280,574007,learnblock1,600,img/planet8_left.png,8,Community 1,NA,TRUE,f,f,NA,NA,NA,4,7,"6,8,15,10,2,1,11,13,4,3,5,12,14,7,9"
14822,commdev-image-keyboard-response,281,575267,learnblock1,469.40000000037253,img/planet2_right.png,2,Community 1,NA,FALSE,f,j,NA,NA,NA,4,7,"6,8,15,10,2,1,11,13,4,3,5,12,14,7,9"
14822,commdev-image-keyboard-response,282,576529,learnblock1,977.9000000003725,img/planet8_right.png,8,Community 1,NA,FALSE,f,j,NA,NA,NA,4,7,"6,8,15,10,2,1,11,13,4,3,5,12,14,7,9"
14822,commdev-image-keyboard-response,283,577789,learnblock1,587,img/planet15_left.png,15,Community 1,NA,TRUE,f,f,NA,NA,NA,4,7,"6,8,15,10,2,1,11,13,4,3,5,12,14,7,9"
14822,commdev-image-keyboard-response,284,579056,learnblock1,525.0999999996275,img/planet2_left.png,2,Community 1,NA,TRUE,f,f,NA,NA,NA,4,7,"6,8,15,10,2,1,11,13,4,3,5,12,14,7,9"
14822,commdev-image-keyboard-response,285,580323,learnblock1,535.5999999996275,img/planet6_left.png,6,Community 1,NA,TRUE,f,f,NA,NA,NA,4,7,"6,8,15,10,2,1,11,13,4,3,5,12,14,7,9"
14822,commdev-image-keyboard-response,286,581581,learnblock1,423,img/planet8_left.png,8,Community 1,NA,TRUE,f,f,NA,NA,NA,4,7,"6,8,15,10,2,1,11,13,4,3,5,12,14,7,9"
14822,commdev-image-keyboard-response,287,582834,learnblock1,589.7999999988824,img/planet6_left.png,6,Community 1,NA,TRUE,f,f,NA,NA,NA,4,7,"6,8,15,10,2,1,11,13,4,3,5,12,14,7,9"
14822,commdev-image-keyboard-response,288,584088,learnblock1,852.7000000011176,img/planet2_left.png,2,Community 1,NA,TRUE,f,f,NA,NA,NA,4,7,"6,8,15,10,2,1,11,13,4,3,5,12,14,7,9"
14822,commdev-image-keyboard-response,289,585347,learnblock1,619.8000000007451,img/planet15_left.png,15,Community 1,NA,TRUE,f,f,NA,NA,NA,4,7,"6,8,15,10,2,1,11,13,4,3,5,12,14,7,9"
14822,commdev-image-keyboard-response,290,586600,learnblock1,584.1999999992549,img/planet2_right.png,2,Community 1,NA,TRUE,j,j,NA,NA,NA,4,7,"6,8,15,10,2,1,11,13,4,3,5,12,14,7,9"
14822,commdev-image-keyboard-response,291,587862,learnblock1,683.3000000007451,img/planet6_right.png,6,Community 1,NA,TRUE,j,j,NA,NA,NA,4,7,"6,8,15,10,2,1,11,13,4,3,5,12,14,7,9"
14822,commdev-image-keyboard-response,292,589122,learnblock1,740.5999999996275,img/planet8_right.png,8,Community 1,NA,TRUE,j,j,NA,NA,NA,4,7,"6,8,15,10,2,1,11,13,4,3,5,12,14,7,9"
14822,commdev-image-keyboard-response,293,590380,learnblock1,529.1999999992549,img/planet10_right.png,10,Community 1,NA,TRUE,j,j,NA,NA,NA,4,7,"6,8,15,10,2,1,11,13,4,3,5,12,14,7,9"
14822,commdev-image-keyboard-response,294,591640,learnblock1,588.5,img/planet15_right.png,15,Community 1,NA,TRUE,j,j,NA,NA,NA,4,7,"6,8,15,10,2,1,11,13,4,3,5,12,14,7,9"
14822,commdev-image-keyboard-response,295,592896,learnblock1,352,img/planet10_left.png,10,Community 1,NA,FALSE,j,f,NA,NA,NA,4,7,"6,8,15,10,2,1,11,13,4,3,5,12,14,7,9"
14822,commdev-image-keyboard-response,296,594162,learnblock1,559.4000000003725,img/planet6_left.png,6,Community 1,NA,TRUE,f,f,NA,NA,NA,4,7,"6,8,15,10,2,1,11,13,4,3,5,12,14,7,9"
14822,commdev-image-keyboard-response,297,595421,learnblock1,607.2999999988824,img/planet10_right.png,10,Community 1,NA,TRUE,j,j,NA,NA,NA,4,7,"6,8,15,10,2,1,11,13,4,3,5,12,14,7,9"
14822,commdev-image-keyboard-response,298,596683,learnblock1,634.8000000007451,img/planet6_right.png,6,Community 1,NA,TRUE,j,j,NA,NA,NA,4,7,"6,8,15,10,2,1,11,13,4,3,5,12,14,7,9"
14822,commdev-image-keyboard-response,299,597947,learnblock1,571.1999999992549,img/planet10_left.png,10,Community 1,NA,TRUE,f,f,NA,NA,NA,4,7,"6,8,15,10,2,1,11,13,4,3,5,12,14,7,9"
14822,commdev-image-keyboard-response,300,599206,learnblock1,648.6999999992549,img/planet6_right.png,6,Community 1,NA,TRUE,j,j,NA,NA,NA,4,7,"6,8,15,10,2,1,11,13,4,3,5,12,14,7,9"
14822,commdev-image-keyboard-response,301,600460,learnblock1,591.1000000014901,img/planet8_left.png,8,Community 1,NA,TRUE,f,f,NA,NA,NA,4,7,"6,8,15,10,2,1,11,13,4,3,5,12,14,7,9"
14822,commdev-image-keyboard-response,302,601725,learnblock1,538.3999999985099,img/planet15_left.png,15,Community 1,NA,TRUE,f,f,NA,NA,NA,4,7,"6,8,15,10,2,1,11,13,4,3,5,12,14,7,9"
14822,commdev-image-keyboard-response,303,602981,learnblock1,608.2000000011176,img/planet6_left.png,6,Community 1,NA,TRUE,f,f,NA,NA,NA,4,7,"6,8,15,10,2,1,11,13,4,3,5,12,14,7,9"
14822,commdev-image-keyboard-response,304,604247,learnblock1,492.90000000037253,img/planet8_left.png,8,Community 1,NA,TRUE,f,f,NA,NA,NA,4,7,"6,8,15,10,2,1,11,13,4,3,5,12,14,7,9"
14822,commdev-image-keyboard-response,305,605500,learnblock1,594.2000000011176,img/planet2_right.png,2,Community 1,NA,TRUE,j,j,NA,NA,NA,4,7,"6,8,15,10,2,1,11,13,4,3,5,12,14,7,9"
14822,commdev-image-keyboard-response,306,606754,learnblock1,541.6999999992549,img/planet6_right.png,6,Community 1,NA,TRUE,j,j,NA,NA,NA,4,7,"6,8,15,10,2,1,11,13,4,3,5,12,14,7,9"
14822,commdev-image-keyboard-response,307,608019,learnblock1,773.2000000011176,img/planet15_right.png,15,Community 1,NA,TRUE,j,j,NA,NA,NA,4,7,"6,8,15,10,2,1,11,13,4,3,5,12,14,7,9"
14822,commdev-image-keyboard-response,308,609285,learnblock1,567.4000000003725,img/planet2_left.png,2,Community 1,NA,TRUE,f,f,NA,NA,NA,4,7,"6,8,15,10,2,1,11,13,4,3,5,12,14,7,9"
14822,commdev-image-keyboard-response,309,610540,learnblock1,645.2000000011176,img/planet15_right.png,15,Community 1,NA,TRUE,j,j,NA,NA,NA,4,7,"6,8,15,10,2,1,11,13,4,3,5,12,14,7,9"
14822,commdev-image-keyboard-response,310,611791,learnblock1,584.3000000007451,img/planet2_right.png,2,Community 1,NA,TRUE,j,j,NA,NA,NA,4,7,"6,8,15,10,2,1,11,13,4,3,5,12,14,7,9"
14822,commdev-image-keyboard-response,311,613048,learnblock1,550.9000000003725,img/planet15_left.png,15,Community 1,NA,TRUE,f,f,NA,NA,NA,4,7,"6,8,15,10,2,1,11,13,4,3,5,12,14,7,9"
14822,commdev-image-keyboard-response,312,614312,learnblock1,581.2000000011176,img/planet2_right.png,2,Community 1,NA,TRUE,j,j,NA,NA,NA,4,7,"6,8,15,10,2,1,11,13,4,3,5,12,14,7,9"
14822,commdev-image-keyboard-response,313,615571,learnblock1,578.5999999996275,img/planet6_right.png,6,Community 1,NA,TRUE,j,j,NA,NA,NA,4,7,"6,8,15,10,2,1,11,13,4,3,5,12,14,7,9"
14822,commdev-image-keyboard-response,314,616831,learnblock1,489.5,img/planet15_left.png,15,Community 1,NA,TRUE,f,f,NA,NA,NA,4,7,"6,8,15,10,2,1,11,13,4,3,5,12,14,7,9"
14822,commdev-image-keyboard-response,315,618094,learnblock1,593.9000000003725,img/planet10_right.png,10,Community 1,NA,TRUE,j,j,NA,NA,NA,4,7,"6,8,15,10,2,1,11,13,4,3,5,12,14,7,9"
14822,commdev-image-keyboard-response,316,619357,learnblock1,623,img/planet6_left.png,6,Community 1,NA,TRUE,f,f,NA,NA,NA,4,7,"6,8,15,10,2,1,11,13,4,3,5,12,14,7,9"
14822,commdev-image-keyboard-response,317,620610,learnblock1,714.8000000007451,img/planet15_right.png,15,Community 1,NA,TRUE,j,j,NA,NA,NA,4,7,"6,8,15,10,2,1,11,13,4,3,5,12,14,7,9"
14822,commdev-image-keyboard-response,318,621863,learnblock1,804.9000000003725,img/planet8_right.png,8,Community 1,NA,FALSE,f,j,NA,NA,NA,4,7,"6,8,15,10,2,1,11,13,4,3,5,12,14,7,9"
14822,commdev-image-keyboard-response,319,623121,learnblock1,483.59999999962747,img/planet10_left.png,10,Community 1,NA,TRUE,f,f,NA,NA,NA,4,7,"6,8,15,10,2,1,11,13,4,3,5,12,14,7,9"
14822,commdev-image-keyboard-response,320,624376,learnblock1,489.1000000014901,img/planet6_left.png,6,Community 1,NA,TRUE,f,f,NA,NA,NA,4,7,"6,8,15,10,2,1,11,13,4,3,5,12,14,7,9"
14822,commdev-image-keyboard-response,321,625636,learnblock1,503.8999999985099,img/planet10_left.png,10,Community 1,NA,TRUE,f,f,NA,NA,NA,4,7,"6,8,15,10,2,1,11,13,4,3,5,12,14,7,9"
14822,commdev-image-keyboard-response,322,626893,learnblock1,562.5999999996275,img/planet15_right.png,15,Community 1,NA,TRUE,j,j,NA,NA,NA,4,7,"6,8,15,10,2,1,11,13,4,3,5,12,14,7,9"
14822,commdev-image-keyboard-response,323,628154,learnblock1,620.5999999996275,img/planet8_right.png,8,Community 1,NA,TRUE,j,j,NA,NA,NA,4,7,"6,8,15,10,2,1,11,13,4,3,5,12,14,7,9"
14822,commdev-image-keyboard-response,324,629411,learnblock1,650.5999999996275,img/planet15_left.png,15,Community 1,NA,TRUE,f,f,NA,NA,NA,4,7,"6,8,15,10,2,1,11,13,4,3,5,12,14,7,9"
14822,commdev-image-keyboard-response,325,630663,learnblock1,559.7000000011176,img/planet6_left.png,6,Community 1,NA,TRUE,f,f,NA,NA,NA,4,7,"6,8,15,10,2,1,11,13,4,3,5,12,14,7,9"
14822,commdev-image-keyboard-response,326,631924,learnblock1,626.6999999992549,img/planet15_left.png,15,Community 1,NA,TRUE,f,f,NA,NA,NA,4,7,"6,8,15,10,2,1,11,13,4,3,5,12,14,7,9"
14822,commdev-image-keyboard-response,327,633187,learnblock1,599.6999999992549,img/planet6_left.png,6,Community 1,NA,TRUE,f,f,NA,NA,NA,4,7,"6,8,15,10,2,1,11,13,4,3,5,12,14,7,9"
14822,commdev-image-keyboard-response,328,634443,learnblock1,693.3000000007451,img/planet15_right.png,15,Community 1,NA,TRUE,j,j,NA,NA,NA,4,7,"6,8,15,10,2,1,11,13,4,3,5,12,14,7,9"
14822,commdev-image-keyboard-response,329,635697,learnblock1,548.0999999996275,img/planet10_right.png,10,Community 1,NA,TRUE,j,j,NA,NA,NA,4,7,"6,8,15,10,2,1,11,13,4,3,5,12,14,7,9"
14822,commdev-image-keyboard-response,330,636954,learnblock1,624.8000000007451,img/planet15_left.png,15,Community 1,NA,TRUE,f,f,NA,NA,NA,4,7,"6,8,15,10,2,1,11,13,4,3,5,12,14,7,9"
14822,commdev-image-keyboard-response,331,638218,learnblock1,697.5,img/planet8_left.png,8,Community 1,NA,TRUE,f,f,NA,NA,NA,4,7,"6,8,15,10,2,1,11,13,4,3,5,12,14,7,9"
14822,commdev-image-keyboard-response,332,639478,learnblock1,663.2999999988824,img/planet10_left.png,10,Community 1,NA,TRUE,f,f,NA,NA,NA,4,7,"6,8,15,10,2,1,11,13,4,3,5,12,14,7,9"
14822,commdev-image-keyboard-response,333,640736,learnblock1,581.9000000003725,img/planet15_right.png,15,Community 1,NA,TRUE,j,j,NA,NA,NA,4,7,"6,8,15,10,2,1,11,13,4,3,5,12,14,7,9"
14822,commdev-image-keyboard-response,334,641997,learnblock1,601.1999999992549,img/planet6_right.png,6,Community 1,NA,TRUE,j,j,NA,NA,NA,4,7,"6,8,15,10,2,1,11,13,4,3,5,12,14,7,9"
14822,commdev-image-keyboard-response,335,643257,learnblock1,506.69999999925494,img/planet10_right.png,10,Community 1,NA,TRUE,j,j,NA,NA,NA,4,7,"6,8,15,10,2,1,11,13,4,3,5,12,14,7,9"
14822,commdev-image-keyboard-response,336,644511,learnblock1,443.59999999962747,img/planet1_left.png,1,Community 2,NA,TRUE,f,f,NA,NA,NA,4,7,"6,8,15,10,2,1,11,13,4,3,5,12,14,7,9"
14822,commdev-image-keyboard-response,337,645767,learnblock1,789.6999999992549,img/planet3_left.png,3,Community 2,NA,TRUE,f,f,NA,NA,NA,4,7,"6,8,15,10,2,1,11,13,4,3,5,12,14,7,9"
14822,commdev-image-keyboard-response,338,647027,learnblock1,549.0999999996275,img/planet4_left.png,4,Community 2,NA,TRUE,f,f,NA,NA,NA,4,7,"6,8,15,10,2,1,11,13,4,3,5,12,14,7,9"
14822,commdev-image-keyboard-response,339,648281,learnblock1,480,img/planet11_left.png,11,Community 2,NA,TRUE,f,f,NA,NA,NA,4,7,"6,8,15,10,2,1,11,13,4,3,5,12,14,7,9"
14822,commdev-image-keyboard-response,340,649533,learnblock1,647.6999999992549,img/planet13_right.png,13,Community 2,NA,TRUE,j,j,NA,NA,NA,4,7,"6,8,15,10,2,1,11,13,4,3,5,12,14,7,9"
14822,commdev-image-keyboard-response,341,650789,learnblock1,871.1999999992549,img/planet11_right.png,11,Community 2,NA,TRUE,j,j,NA,NA,NA,4,7,"6,8,15,10,2,1,11,13,4,3,5,12,14,7,9"
14822,commdev-image-keyboard-response,342,652048,learnblock1,650.5,img/planet4_right.png,4,Community 2,NA,TRUE,j,j,NA,NA,NA,4,7,"6,8,15,10,2,1,11,13,4,3,5,12,14,7,9"
14822,commdev-image-keyboard-response,343,653315,learnblock1,548.2000000011176,img/planet13_right.png,13,Community 2,NA,TRUE,j,j,NA,NA,NA,4,7,"6,8,15,10,2,1,11,13,4,3,5,12,14,7,9"
14822,commdev-image-keyboard-response,344,654574,learnblock1,552.9000000003725,img/planet4_left.png,4,Community 2,NA,TRUE,f,f,NA,NA,NA,4,7,"6,8,15,10,2,1,11,13,4,3,5,12,14,7,9"
14822,commdev-image-keyboard-response,345,655829,learnblock1,737,img/planet3_right.png,3,Community 2,NA,TRUE,j,j,NA,NA,NA,4,7,"6,8,15,10,2,1,11,13,4,3,5,12,14,7,9"
14822,commdev-image-keyboard-response,346,657088,learnblock1,562.9000000003725,img/planet4_left.png,4,Community 2,NA,TRUE,f,f,NA,NA,NA,4,7,"6,8,15,10,2,1,11,13,4,3,5,12,14,7,9"
14822,commdev-image-keyboard-response,347,658342,learnblock1,655.7000000011176,img/planet13_right.png,13,Community 2,NA,TRUE,j,j,NA,NA,NA,4,7,"6,8,15,10,2,1,11,13,4,3,5,12,14,7,9"
14822,commdev-image-keyboard-response,351,714183,learnblock2,895.9000000003725,img/planet11_left.png,11,Community 2,NA,TRUE,f,f,NA,NA,NA,4,7,"6,8,15,10,2,1,11,13,4,3,5,12,14,7,9"
14822,commdev-image-keyboard-response,352,715440,learnblock2,573.5999999996275,img/planet13_left.png,13,Community 2,NA,TRUE,f,f,NA,NA,NA,4,7,"6,8,15,10,2,1,11,13,4,3,5,12,14,7,9"
14822,commdev-image-keyboard-response,353,716708,learnblock2,588.9000000003725,img/planet11_right.png,11,Community 2,NA,TRUE,j,j,NA,NA,NA,4,7,"6,8,15,10,2,1,11,13,4,3,5,12,14,7,9"
14822,commdev-image-keyboard-response,354,717974,learnblock2,611.5,img/planet13_left.png,13,Community 2,NA,TRUE,f,f,NA,NA,NA,4,7,"6,8,15,10,2,1,11,13,4,3,5,12,14,7,9"
14822,commdev-image-keyboard-response,355,719235,learnblock2,621.0999999996275,img/planet4_left.png,4,Community 2,NA,TRUE,f,f,NA,NA,NA,4,7,"6,8,15,10,2,1,11,13,4,3,5,12,14,7,9"
14822,commdev-image-keyboard-response,356,720490,learnblock2,709.9000000003725,img/planet13_right.png,13,Community 2,NA,TRUE,j,j,NA,NA,NA,4,7,"6,8,15,10,2,1,11,13,4,3,5,12,14,7,9"
14822,commdev-image-keyboard-response,357,721746,learnblock2,688,img/planet3_right.png,3,Community 2,NA,TRUE,j,j,NA,NA,NA,4,7,"6,8,15,10,2,1,11,13,4,3,5,12,14,7,9"
14822,commdev-image-keyboard-response,358,723014,learnblock2,847.4000000003725,img/planet11_right.png,11,Community 2,NA,TRUE,j,j,NA,NA,NA,4,7,"6,8,15,10,2,1,11,13,4,3,5,12,14,7,9"
14822,commdev-image-keyboard-response,359,724267,learnblock2,600.1999999992549,img/planet1_left.png,1,Community 2,NA,TRUE,f,f,NA,NA,NA,4,7,"6,8,15,10,2,1,11,13,4,3,5,12,14,7,9"
14822,commdev-image-keyboard-response,360,725519,learnblock2,624.8000000007451,img/planet10_left.png,10,Community 1,NA,TRUE,f,f,NA,NA,NA,4,7,"6,8,15,10,2,1,11,13,4,3,5,12,14,7,9"
14822,commdev-image-keyboard-response,361,726779,learnblock2,641.1000000014901,img/planet6_right.png,6,Community 1,NA,TRUE,j,j,NA,NA,NA,4,7,"6,8,15,10,2,1,11,13,4,3,5,12,14,7,9"
14822,commdev-image-keyboard-response,362,728047,learnblock2,657.6999999992549,img/planet15_right.png,15,Community 1,NA,TRUE,j,j,NA,NA,NA,4,7,"6,8,15,10,2,1,11,13,4,3,5,12,14,7,9"
14822,commdev-image-keyboard-response,363,729302,learnblock2,538.7000000011176,img/planet8_right.png,8,Community 1,NA,TRUE,j,j,NA,NA,NA,4,7,"6,8,15,10,2,1,11,13,4,3,5,12,14,7,9"
14822,commdev-image-keyboard-response,364,730561,learnblock2,527.4000000003725,img/planet2_right.png,2,Community 1,NA,TRUE,j,j,NA,NA,NA,4,7,"6,8,15,10,2,1,11,13,4,3,5,12,14,7,9"
14822,commdev-image-keyboard-response,365,731821,learnblock2,420.80000000074506,img/planet15_right.png,15,Community 1,NA,TRUE,j,j,NA,NA,NA,4,7,"6,8,15,10,2,1,11,13,4,3,5,12,14,7,9"
14822,commdev-image-keyboard-response,366,733089,learnblock2,568.5999999996275,img/planet6_right.png,6,Community 1,NA,TRUE,j,j,NA,NA,NA,4,7,"6,8,15,10,2,1,11,13,4,3,5,12,14,7,9"
14822,commdev-image-keyboard-response,367,734356,learnblock2,605.4000000003725,img/planet8_left.png,8,Community 1,NA,TRUE,f,f,NA,NA,NA,4,7,"6,8,15,10,2,1,11,13,4,3,5,12,14,7,9"
14822,commdev-image-keyboard-response,368,735610,learnblock2,631,img/planet6_right.png,6,Community 1,NA,TRUE,j,j,NA,NA,NA,4,7,"6,8,15,10,2,1,11,13,4,3,5,12,14,7,9"
14822,commdev-image-keyboard-response,369,736866,learnblock2,661.2999999988824,img/planet2_right.png,2,Community 1,NA,TRUE,j,j,NA,NA,NA,4,7,"6,8,15,10,2,1,11,13,4,3,5,12,14,7,9"
14822,commdev-image-keyboard-response,370,738126,learnblock2,676.8000000007451,img/planet15_left.png,15,Community 1,NA,TRUE,f,f,NA,NA,NA,4,7,"6,8,15,10,2,1,11,13,4,3,5,12,14,7,9"
14822,commdev-image-keyboard-response,371,739379,learnblock2,571.5999999996275,img/planet10_right.png,10,Community 1,NA,TRUE,j,j,NA,NA,NA,4,7,"6,8,15,10,2,1,11,13,4,3,5,12,14,7,9"
14822,commdev-image-keyboard-response,372,740641,learnblock2,608,img/planet8_right.png,8,Community 1,NA,TRUE,j,j,NA,NA,NA,4,7,"6,8,15,10,2,1,11,13,4,3,5,12,14,7,9"
14822,commdev-image-keyboard-response,373,741901,learnblock2,515.8000000007451,img/planet6_left.png,6,Community 1,NA,FALSE,j,f,NA,NA,NA,4,7,"6,8,15,10,2,1,11,13,4,3,5,12,14,7,9"
14822,commdev-image-keyboard-response,374,743156,learnblock2,539.8000000007451,img/planet8_left.png,8,Community 1,NA,TRUE,f,f,NA,NA,NA,4,7,"6,8,15,10,2,1,11,13,4,3,5,12,14,7,9"
14822,commdev-image-keyboard-response,375,744415,learnblock2,664.5,img/planet2_left.png,2,Community 1,NA,TRUE,f,f,NA,NA,NA,4,7,"6,8,15,10,2,1,11,13,4,3,5,12,14,7,9"
14822,commdev-image-keyboard-response,376,745670,learnblock2,672.9000000003725,img/planet8_right.png,8,Community 1,NA,TRUE,j,j,NA,NA,NA,4,7,"6,8,15,10,2,1,11,13,4,3,5,12,14,7,9"
14822,commdev-image-keyboard-response,377,746927,learnblock2,671,img/planet15_right.png,15,Community 1,NA,TRUE,j,j,NA,NA,NA,4,7,"6,8,15,10,2,1,11,13,4,3,5,12,14,7,9"
14822,commdev-image-keyboard-response,378,748181,learnblock2,551.5999999996275,img/planet8_left.png,8,Community 1,NA,TRUE,f,f,NA,NA,NA,4,7,"6,8,15,10,2,1,11,13,4,3,5,12,14,7,9"
14822,commdev-image-keyboard-response,379,749443,learnblock2,579.1999999992549,img/planet15_left.png,15,Community 1,NA,TRUE,f,f,NA,NA,NA,4,7,"6,8,15,10,2,1,11,13,4,3,5,12,14,7,9"
14822,commdev-image-keyboard-response,380,750696,learnblock2,602.0999999996275,img/planet8_left.png,8,Community 1,NA,TRUE,f,f,NA,NA,NA,4,7,"6,8,15,10,2,1,11,13,4,3,5,12,14,7,9"
14822,commdev-image-keyboard-response,381,751953,learnblock2,502.90000000037253,img/planet15_left.png,15,Community 1,NA,TRUE,f,f,NA,NA,NA,4,7,"6,8,15,10,2,1,11,13,4,3,5,12,14,7,9"
14822,commdev-image-keyboard-response,382,753213,learnblock2,573,img/planet10_left.png,10,Community 1,NA,TRUE,f,f,NA,NA,NA,4,7,"6,8,15,10,2,1,11,13,4,3,5,12,14,7,9"
14822,commdev-image-keyboard-response,383,754466,learnblock2,603.3000000007451,img/planet6_left.png,6,Community 1,NA,TRUE,f,f,NA,NA,NA,4,7,"6,8,15,10,2,1,11,13,4,3,5,12,14,7,9"
14822,commdev-image-keyboard-response,384,755729,learnblock2,487.09999999962747,img/planet10_left.png,10,Community 1,NA,TRUE,f,f,NA,NA,NA,4,7,"6,8,15,10,2,1,11,13,4,3,5,12,14,7,9"
14822,commdev-image-keyboard-response,385,756993,learnblock2,629.8999999985099,img/planet6_right.png,6,Community 1,NA,TRUE,j,j,NA,NA,NA,4,7,"6,8,15,10,2,1,11,13,4,3,5,12,14,7,9"
14822,commdev-image-keyboard-response,386,758250,learnblock2,622.5999999996275,img/planet2_right.png,2,Community 1,NA,TRUE,j,j,NA,NA,NA,4,7,"6,8,15,10,2,1,11,13,4,3,5,12,14,7,9"
14822,commdev-image-keyboard-response,387,759506,learnblock2,568.0999999996275,img/planet15_right.png,15,Community 1,NA,TRUE,j,j,NA,NA,NA,4,7,"6,8,15,10,2,1,11,13,4,3,5,12,14,7,9"
14822,commdev-image-keyboard-response,388,760758,learnblock2,573.1999999992549,img/planet6_right.png,6,Community 1,NA,TRUE,j,j,NA,NA,NA,4,7,"6,8,15,10,2,1,11,13,4,3,5,12,14,7,9"
14822,commdev-image-keyboard-response,389,762018,learnblock2,589.5,img/planet8_left.png,8,Community 1,NA,TRUE,f,f,NA,NA,NA,4,7,"6,8,15,10,2,1,11,13,4,3,5,12,14,7,9"
14822,commdev-image-keyboard-response,390,763282,learnblock2,669,img/planet2_right.png,2,Community 1,NA,TRUE,j,j,NA,NA,NA,4,7,"6,8,15,10,2,1,11,13,4,3,5,12,14,7,9"
14822,commdev-image-keyboard-response,391,764539,learnblock2,694,img/planet8_right.png,8,Community 1,NA,TRUE,j,j,NA,NA,NA,4,7,"6,8,15,10,2,1,11,13,4,3,5,12,14,7,9"
14822,commdev-image-keyboard-response,392,765794,learnblock2,519.6999999992549,img/planet6_left.png,6,Community 1,NA,TRUE,f,f,NA,NA,NA,4,7,"6,8,15,10,2,1,11,13,4,3,5,12,14,7,9"
14822,commdev-image-keyboard-response,393,767055,learnblock2,679.6999999992549,img/planet8_right.png,8,Community 1,NA,TRUE,j,j,NA,NA,NA,4,7,"6,8,15,10,2,1,11,13,4,3,5,12,14,7,9"
14822,commdev-image-keyboard-response,394,768315,learnblock2,750.9000000003725,img/planet15_right.png,15,Community 1,NA,TRUE,j,j,NA,NA,NA,4,7,"6,8,15,10,2,1,11,13,4,3,5,12,14,7,9"
14822,commdev-image-keyboard-response,395,769576,learnblock2,568.1999999992549,img/planet10_right.png,10,Community 1,NA,TRUE,j,j,NA,NA,NA,4,7,"6,8,15,10,2,1,11,13,4,3,5,12,14,7,9"
14822,commdev-image-keyboard-response,396,770830,learnblock2,680.5,img/planet8_right.png,8,Community 1,NA,TRUE,j,j,NA,NA,NA,4,7,"6,8,15,10,2,1,11,13,4,3,5,12,14,7,9"
14822,commdev-image-keyboard-response,397,772095,learnblock2,548.9000000003725,img/planet6_right.png,6,Community 1,NA,TRUE,j,j,NA,NA,NA,4,7,"6,8,15,10,2,1,11,13,4,3,5,12,14,7,9"
14822,commdev-image-keyboard-response,398,773354,learnblock2,596.6999999992549,img/planet15_left.png,15,Community 1,NA,TRUE,f,f,NA,NA,NA,4,7,"6,8,15,10,2,1,11,13,4,3,5,12,14,7,9"
14822,commdev-image-keyboard-response,399,774609,learnblock2,667.9000000003725,img/planet10_right.png,10,Community 1,NA,TRUE,j,j,NA,NA,NA,4,7,"6,8,15,10,2,1,11,13,4,3,5,12,14,7,9"
14822,commdev-image-keyboard-response,400,775864,learnblock2,604.5999999996275,img/planet15_left.png,15,Community 1,NA,TRUE,f,f,NA,NA,NA,4,7,"6,8,15,10,2,1,11,13,4,3,5,12,14,7,9"
14822,commdev-image-keyboard-response,401,777124,learnblock2,523,img/planet2_left.png,2,Community 1,NA,TRUE,f,f,NA,NA,NA,4,7,"6,8,15,10,2,1,11,13,4,3,5,12,14,7,9"
14822,commdev-image-keyboard-response,402,778379,learnblock2,679.1999999992549,img/planet8_right.png,8,Community 1,NA,TRUE,j,j,NA,NA,NA,4,7,"6,8,15,10,2,1,11,13,4,3,5,12,14,7,9"
14822,commdev-image-keyboard-response,403,779639,learnblock2,671.3999999985099,img/planet6_right.png,6,Community 1,NA,TRUE,j,j,NA,NA,NA,4,7,"6,8,15,10,2,1,11,13,4,3,5,12,14,7,9"
14822,commdev-image-keyboard-response,404,780891,learnblock2,564.6999999992549,img/planet10_left.png,10,Community 1,NA,TRUE,f,f,NA,NA,NA,4,7,"6,8,15,10,2,1,11,13,4,3,5,12,14,7,9"
14822,commdev-image-keyboard-response,405,782148,learnblock2,627.5999999996275,img/planet8_left.png,8,Community 1,NA,TRUE,f,f,NA,NA,NA,4,7,"6,8,15,10,2,1,11,13,4,3,5,12,14,7,9"
14822,commdev-image-keyboard-response,406,783413,learnblock2,603.7000000011176,img/planet6_right.png,6,Community 1,NA,TRUE,j,j,NA,NA,NA,4,7,"6,8,15,10,2,1,11,13,4,3,5,12,14,7,9"
14822,commdev-image-keyboard-response,407,784672,learnblock2,752,img/planet10_right.png,10,Community 1,NA,TRUE,j,j,NA,NA,NA,4,7,"6,8,15,10,2,1,11,13,4,3,5,12,14,7,9"
14822,commdev-image-keyboard-response,408,785928,learnblock2,539.6000000014901,img/planet8_left.png,8,Community 1,NA,TRUE,f,f,NA,NA,NA,4,7,"6,8,15,10,2,1,11,13,4,3,5,12,14,7,9"
14822,commdev-image-keyboard-response,409,787184,learnblock2,621.9000000003725,img/planet2_right.png,2,Community 1,NA,TRUE,j,j,NA,NA,NA,4,7,"6,8,15,10,2,1,11,13,4,3,5,12,14,7,9"
14822,commdev-image-keyboard-response,410,788437,learnblock2,604,img/planet5_left.png,5,Community 3,NA,TRUE,f,f,NA,NA,NA,4,7,"6,8,15,10,2,1,11,13,4,3,5,12,14,7,9"
14822,commdev-image-keyboard-response,411,789696,learnblock2,652.7000000011176,img/planet2_left.png,2,Community 1,NA,TRUE,f,f,NA,NA,NA,4,7,"6,8,15,10,2,1,11,13,4,3,5,12,14,7,9"
14822,commdev-image-keyboard-response,412,790957,learnblock2,687,img/planet6_left.png,6,Community 1,NA,TRUE,f,f,NA,NA,NA,4,7,"6,8,15,10,2,1,11,13,4,3,5,12,14,7,9"
14822,commdev-image-keyboard-response,413,792211,learnblock2,601.6999999992549,img/planet8_right.png,8,Community 1,NA,TRUE,j,j,NA,NA,NA,4,7,"6,8,15,10,2,1,11,13,4,3,5,12,14,7,9"
14822,commdev-image-keyboard-response,414,793465,learnblock2,658.1999999992549,img/planet10_right.png,10,Community 1,NA,TRUE,j,j,NA,NA,NA,4,7,"6,8,15,10,2,1,11,13,4,3,5,12,14,7,9"
14822,commdev-image-keyboard-response,415,794727,learnblock2,574.2999999988824,img/planet1_left.png,1,Community 2,NA,TRUE,f,f,NA,NA,NA,4,7,"6,8,15,10,2,1,11,13,4,3,5,12,14,7,9"
14822,commdev-image-keyboard-response,416,795979,learnblock2,527.1999999992549,img/planet11_left.png,11,Community 2,NA,TRUE,f,f,NA,NA,NA,4,7,"6,8,15,10,2,1,11,13,4,3,5,12,14,7,9"
14822,commdev-image-keyboard-response,417,797231,learnblock2,510,img/planet3_left.png,3,Community 2,NA,TRUE,f,f,NA,NA,NA,4,7,"6,8,15,10,2,1,11,13,4,3,5,12,14,7,9"
14822,commdev-image-keyboard-response,418,798498,learnblock2,503,img/planet1_left.png,1,Community 2,NA,TRUE,f,f,NA,NA,NA,4,7,"6,8,15,10,2,1,11,13,4,3,5,12,14,7,9"
14822,commdev-image-keyboard-response,419,799761,learnblock2,537.0999999996275,img/planet4_left.png,4,Community 2,NA,TRUE,f,f,NA,NA,NA,4,7,"6,8,15,10,2,1,11,13,4,3,5,12,14,7,9"
14822,commdev-image-keyboard-response,420,801014,learnblock2,547,img/planet11_right.png,11,Community 2,NA,TRUE,j,j,NA,NA,NA,4,7,"6,8,15,10,2,1,11,13,4,3,5,12,14,7,9"
14822,commdev-image-keyboard-response,421,802273,learnblock2,545.5,img/planet13_left.png,13,Community 2,NA,TRUE,f,f,NA,NA,NA,4,7,"6,8,15,10,2,1,11,13,4,3,5,12,14,7,9"
14822,commdev-image-keyboard-response,422,803533,learnblock2,602.9000000003725,img/planet4_right.png,4,Community 2,NA,TRUE,j,j,NA,NA,NA,4,7,"6,8,15,10,2,1,11,13,4,3,5,12,14,7,9"
14822,commdev-image-keyboard-response,423,804790,learnblock2,511,img/planet3_left.png,3,Community 2,NA,TRUE,f,f,NA,NA,NA,4,7,"6,8,15,10,2,1,11,13,4,3,5,12,14,7,9"
14822,commdev-image-keyboard-response,424,806046,learnblock2,565.5,img/planet4_left.png,4,Community 2,NA,TRUE,f,f,NA,NA,NA,4,7,"6,8,15,10,2,1,11,13,4,3,5,12,14,7,9"
14822,commdev-image-keyboard-response,425,807304,learnblock2,834.2000000011176,img/planet1_right.png,1,Community 2,NA,TRUE,j,j,NA,NA,NA,4,7,"6,8,15,10,2,1,11,13,4,3,5,12,14,7,9"
14822,commdev-image-keyboard-response,426,808565,learnblock2,593.4000000003725,img/planet4_right.png,4,Community 2,NA,TRUE,j,j,NA,NA,NA,4,7,"6,8,15,10,2,1,11,13,4,3,5,12,14,7,9"
14822,commdev-image-keyboard-response,427,809831,learnblock2,591.6999999992549,img/planet11_right.png,11,Community 2,NA,TRUE,j,j,NA,NA,NA,4,7,"6,8,15,10,2,1,11,13,4,3,5,12,14,7,9"
14822,commdev-image-keyboard-response,428,811092,learnblock2,488.5,img/planet13_right.png,13,Community 2,NA,TRUE,j,j,NA,NA,NA,4,7,"6,8,15,10,2,1,11,13,4,3,5,12,14,7,9"
14822,commdev-image-keyboard-response,429,812347,learnblock2,642.6999999992549,img/planet12_right.png,12,Community 3,NA,TRUE,j,j,NA,NA,NA,4,7,"6,8,15,10,2,1,11,13,4,3,5,12,14,7,9"
14822,commdev-image-keyboard-response,430,813600,learnblock2,651.6999999992549,img/planet9_right.png,9,Community 3,NA,TRUE,j,j,NA,NA,NA,4,7,"6,8,15,10,2,1,11,13,4,3,5,12,14,7,9"
14822,commdev-image-keyboard-response,431,814859,learnblock2,586.0999999996275,img/planet12_left.png,12,Community 3,NA,TRUE,f,f,NA,NA,NA,4,7,"6,8,15,10,2,1,11,13,4,3,5,12,14,7,9"
14822,commdev-image-keyboard-response,432,816111,learnblock2,526,img/planet9_right.png,9,Community 3,NA,TRUE,j,j,NA,NA,NA,4,7,"6,8,15,10,2,1,11,13,4,3,5,12,14,7,9"
14822,commdev-image-keyboard-response,433,817371,learnblock2,595.9000000003725,img/planet5_left.png,5,Community 3,NA,TRUE,f,f,NA,NA,NA,4,7,"6,8,15,10,2,1,11,13,4,3,5,12,14,7,9"
14822,commdev-image-keyboard-response,434,818635,learnblock2,650.5,img/planet14_left.png,14,Community 3,NA,TRUE,f,f,NA,NA,NA,4,7,"6,8,15,10,2,1,11,13,4,3,5,12,14,7,9"
14822,commdev-image-keyboard-response,435,819895,learnblock2,766.5999999996275,img/planet5_right.png,5,Community 3,NA,TRUE,j,j,NA,NA,NA,4,7,"6,8,15,10,2,1,11,13,4,3,5,12,14,7,9"
14822,commdev-image-keyboard-response,436,821149,learnblock2,656.6999999992549,img/planet2_right.png,2,Community 1,NA,TRUE,j,j,NA,NA,NA,4,7,"6,8,15,10,2,1,11,13,4,3,5,12,14,7,9"
14822,commdev-image-keyboard-response,437,822405,learnblock2,614.5,img/planet8_right.png,8,Community 1,NA,TRUE,j,j,NA,NA,NA,4,7,"6,8,15,10,2,1,11,13,4,3,5,12,14,7,9"
14822,commdev-image-keyboard-response,438,823660,learnblock2,656.5,img/planet15_right.png,15,Community 1,NA,TRUE,j,j,NA,NA,NA,4,7,"6,8,15,10,2,1,11,13,4,3,5,12,14,7,9"
14822,commdev-image-keyboard-response,439,824914,learnblock2,592,img/planet10_left.png,10,Community 1,NA,TRUE,f,f,NA,NA,NA,4,7,"6,8,15,10,2,1,11,13,4,3,5,12,14,7,9"
14822,commdev-image-keyboard-response,440,826167,learnblock2,570.9000000003725,img/planet6_left.png,6,Community 1,NA,TRUE,f,f,NA,NA,NA,4,7,"6,8,15,10,2,1,11,13,4,3,5,12,14,7,9"
14822,commdev-image-keyboard-response,441,827432,learnblock2,637.9000000003725,img/planet2_right.png,2,Community 1,NA,TRUE,j,j,NA,NA,NA,4,7,"6,8,15,10,2,1,11,13,4,3,5,12,14,7,9"
14822,commdev-image-keyboard-response,442,828687,learnblock2,613.1000000014901,img/planet6_right.png,6,Community 1,NA,TRUE,j,j,NA,NA,NA,4,7,"6,8,15,10,2,1,11,13,4,3,5,12,14,7,9"
14822,commdev-image-keyboard-response,443,829939,learnblock2,675.2999999988824,img/planet15_right.png,15,Community 1,NA,TRUE,j,j,NA,NA,NA,4,7,"6,8,15,10,2,1,11,13,4,3,5,12,14,7,9"
14822,commdev-image-keyboard-response,444,831195,learnblock2,474.59999999962747,img/planet10_right.png,10,Community 1,NA,TRUE,j,j,NA,NA,NA,4,7,"6,8,15,10,2,1,11,13,4,3,5,12,14,7,9"
14822,commdev-image-keyboard-response,445,832462,learnblock2,425.2000000011176,img/planet6_right.png,6,Community 1,NA,TRUE,j,j,NA,NA,NA,4,7,"6,8,15,10,2,1,11,13,4,3,5,12,14,7,9"
14822,commdev-image-keyboard-response,446,833717,learnblock2,530.0999999996275,img/planet2_right.png,2,Community 1,NA,TRUE,j,j,NA,NA,NA,4,7,"6,8,15,10,2,1,11,13,4,3,5,12,14,7,9"
14822,commdev-image-keyboard-response,447,834985,learnblock2,557.4000000003725,img/planet5_right.png,5,Community 3,NA,TRUE,j,j,NA,NA,NA,4,7,"6,8,15,10,2,1,11,13,4,3,5,12,14,7,9"
14822,commdev-image-keyboard-response,448,836240,learnblock2,402.2000000011176,img/planet7_left.png,7,Community 3,NA,FALSE,j,f,NA,NA,NA,4,7,"6,8,15,10,2,1,11,13,4,3,5,12,14,7,9"
14822,commdev-image-keyboard-response,449,837504,learnblock2,530.1999999992549,img/planet9_left.png,9,Community 3,NA,TRUE,f,f,NA,NA,NA,4,7,"6,8,15,10,2,1,11,13,4,3,5,12,14,7,9"
14822,commdev-image-keyboard-response,450,838763,learnblock2,593.0999999996275,img/planet7_right.png,7,Community 3,NA,FALSE,f,j,NA,NA,NA,4,7,"6,8,15,10,2,1,11,13,4,3,5,12,14,7,9"
14822,commdev-image-keyboard-response,451,840017,learnblock2,689.1999999992549,img/planet12_left.png,12,Community 3,NA,TRUE,f,f,NA,NA,NA,4,7,"6,8,15,10,2,1,11,13,4,3,5,12,14,7,9"
14822,commdev-image-keyboard-response,452,841281,learnblock2,550.5,img/planet14_left.png,14,Community 3,NA,TRUE,f,f,NA,NA,NA,4,7,"6,8,15,10,2,1,11,13,4,3,5,12,14,7,9"
14822,commdev-image-keyboard-response,453,842541,learnblock2,773,img/planet9_left.png,9,Community 3,NA,TRUE,f,f,NA,NA,NA,4,7,"6,8,15,10,2,1,11,13,4,3,5,12,14,7,9"
14822,commdev-image-keyboard-response,454,843795,learnblock2,715.5999999996275,img/planet14_right.png,14,Community 3,NA,TRUE,j,j,NA,NA,NA,4,7,"6,8,15,10,2,1,11,13,4,3,5,12,14,7,9"
14822,commdev-image-keyboard-response,455,845053,learnblock2,502.80000000074506,img/planet5_right.png,5,Community 3,NA,TRUE,j,j,NA,NA,NA,4,7,"6,8,15,10,2,1,11,13,4,3,5,12,14,7,9"
14822,commdev-image-keyboard-response,456,846306,learnblock2,467.2000000011176,img/planet14_right.png,14,Community 3,NA,TRUE,j,j,NA,NA,NA,4,7,"6,8,15,10,2,1,11,13,4,3,5,12,14,7,9"
14822,commdev-image-keyboard-response,457,847572,learnblock2,534,img/planet7_right.png,7,Community 3,NA,TRUE,j,j,NA,NA,NA,4,7,"6,8,15,10,2,1,11,13,4,3,5,12,14,7,9"
14822,commdev-image-keyboard-response,458,848834,learnblock2,639.5999999996275,img/planet12_right.png,12,Community 3,NA,TRUE,j,j,NA,NA,NA,4,7,"6,8,15,10,2,1,11,13,4,3,5,12,14,7,9"
14822,commdev-image-keyboard-response,459,850098,learnblock2,451.09999999962747,img/planet9_left.png,9,Community 3,NA,TRUE,f,f,NA,NA,NA,4,7,"6,8,15,10,2,1,11,13,4,3,5,12,14,7,9"
14822,commdev-image-keyboard-response,460,851349,learnblock2,614.2999999988824,img/planet12_right.png,12,Community 3,NA,TRUE,j,j,NA,NA,NA,4,7,"6,8,15,10,2,1,11,13,4,3,5,12,14,7,9"
14822,commdev-image-keyboard-response,461,852609,learnblock2,636.1999999992549,img/planet7_right.png,7,Community 3,NA,TRUE,j,j,NA,NA,NA,4,7,"6,8,15,10,2,1,11,13,4,3,5,12,14,7,9"
14822,commdev-image-keyboard-response,462,853871,learnblock2,608.7000000011176,img/planet5_right.png,5,Community 3,NA,TRUE,j,j,NA,NA,NA,4,7,"6,8,15,10,2,1,11,13,4,3,5,12,14,7,9"
14822,commdev-image-keyboard-response,463,855131,learnblock2,583.5999999996275,img/planet9_right.png,9,Community 3,NA,TRUE,j,j,NA,NA,NA,4,7,"6,8,15,10,2,1,11,13,4,3,5,12,14,7,9"
14822,commdev-image-keyboard-response,464,856390,learnblock2,452.1000000014901,img/planet5_right.png,5,Community 3,NA,TRUE,j,j,NA,NA,NA,4,7,"6,8,15,10,2,1,11,13,4,3,5,12,14,7,9"
14822,commdev-image-keyboard-response,465,857652,learnblock2,573.2999999988824,img/planet14_right.png,14,Community 3,NA,TRUE,j,j,NA,NA,NA,4,7,"6,8,15,10,2,1,11,13,4,3,5,12,14,7,9"
14822,commdev-image-keyboard-response,466,858908,learnblock2,561.3000000007451,img/planet5_left.png,5,Community 3,NA,TRUE,f,f,NA,NA,NA,4,7,"6,8,15,10,2,1,11,13,4,3,5,12,14,7,9"
14822,commdev-image-keyboard-response,467,860168,learnblock2,458.7000000011176,img/planet2_right.png,2,Community 1,NA,FALSE,f,j,NA,NA,NA,4,7,"6,8,15,10,2,1,11,13,4,3,5,12,14,7,9"
14822,commdev-image-keyboard-response,468,861422,learnblock2,616.9000000003725,img/planet6_left.png,6,Community 1,NA,TRUE,f,f,NA,NA,NA,4,7,"6,8,15,10,2,1,11,13,4,3,5,12,14,7,9"
14822,commdev-image-keyboard-response,469,862680,learnblock2,588.0999999996275,img/planet10_right.png,10,Community 1,NA,TRUE,j,j,NA,NA,NA,4,7,"6,8,15,10,2,1,11,13,4,3,5,12,14,7,9"
14822,commdev-image-keyboard-response,470,863945,learnblock2,501.59999999962747,img/planet6_right.png,6,Community 1,NA,TRUE,j,j,NA,NA,NA,4,7,"6,8,15,10,2,1,11,13,4,3,5,12,14,7,9"
14822,commdev-image-keyboard-response,471,865203,learnblock2,434.19999999925494,img/planet2_right.png,2,Community 1,NA,TRUE,j,j,NA,NA,NA,4,7,"6,8,15,10,2,1,11,13,4,3,5,12,14,7,9"
14822,commdev-image-keyboard-response,472,866458,learnblock2,652.3000000007451,img/planet5_left.png,5,Community 3,NA,TRUE,f,f,NA,NA,NA,4,7,"6,8,15,10,2,1,11,13,4,3,5,12,14,7,9"
14822,commdev-image-keyboard-response,473,867721,learnblock2,486.5,img/planet2_right.png,2,Community 1,NA,TRUE,j,j,NA,NA,NA,4,7,"6,8,15,10,2,1,11,13,4,3,5,12,14,7,9"
14822,commdev-image-keyboard-response,474,868985,learnblock2,641.1000000014901,img/planet6_left.png,6,Community 1,NA,TRUE,f,f,NA,NA,NA,4,7,"6,8,15,10,2,1,11,13,4,3,5,12,14,7,9"
14822,commdev-image-keyboard-response,475,870250,learnblock2,517.4000000003725,img/planet2_right.png,2,Community 1,NA,TRUE,j,j,NA,NA,NA,4,7,"6,8,15,10,2,1,11,13,4,3,5,12,14,7,9"
14822,commdev-image-keyboard-response,476,871502,learnblock2,406.19999999925494,img/planet15_right.png,15,Community 1,NA,TRUE,j,j,NA,NA,NA,4,7,"6,8,15,10,2,1,11,13,4,3,5,12,14,7,9"
14822,commdev-image-keyboard-response,477,872758,learnblock2,599.7000000011176,img/planet2_right.png,2,Community 1,NA,TRUE,j,j,NA,NA,NA,4,7,"6,8,15,10,2,1,11,13,4,3,5,12,14,7,9"
14822,commdev-image-keyboard-response,478,874015,learnblock2,636.7999999988824,img/planet5_left.png,5,Community 3,NA,TRUE,f,f,NA,NA,NA,4,7,"6,8,15,10,2,1,11,13,4,3,5,12,14,7,9"
14822,commdev-image-keyboard-response,479,875274,learnblock2,535,img/planet9_left.png,9,Community 3,NA,TRUE,f,f,NA,NA,NA,4,7,"6,8,15,10,2,1,11,13,4,3,5,12,14,7,9"
14822,commdev-image-keyboard-response,480,876533,learnblock2,663.0999999996275,img/planet5_right.png,5,Community 3,NA,TRUE,j,j,NA,NA,NA,4,7,"6,8,15,10,2,1,11,13,4,3,5,12,14,7,9"
14822,commdev-image-keyboard-response,481,877786,learnblock2,671.3000000007451,img/planet9_left.png,9,Community 3,NA,TRUE,f,f,NA,NA,NA,4,7,"6,8,15,10,2,1,11,13,4,3,5,12,14,7,9"
14822,commdev-image-keyboard-response,482,879044,learnblock2,582.7000000011176,img/planet5_right.png,5,Community 3,NA,TRUE,j,j,NA,NA,NA,4,7,"6,8,15,10,2,1,11,13,4,3,5,12,14,7,9"
14822,commdev-image-keyboard-response,483,880300,learnblock2,386.80000000074506,img/planet7_right.png,7,Community 3,NA,FALSE,f,j,NA,NA,NA,4,7,"6,8,15,10,2,1,11,13,4,3,5,12,14,7,9"
14822,commdev-image-keyboard-response,484,881568,learnblock2,527,img/planet12_left.png,12,Community 3,NA,TRUE,f,f,NA,NA,NA,4,7,"6,8,15,10,2,1,11,13,4,3,5,12,14,7,9"
14822,commdev-image-keyboard-response,485,882824,learnblock2,605.8000000007451,img/planet7_left.png,7,Community 3,NA,FALSE,j,f,NA,NA,NA,4,7,"6,8,15,10,2,1,11,13,4,3,5,12,14,7,9"
14822,commdev-image-keyboard-response,486,884080,learnblock2,685.5,img/planet5_right.png,5,Community 3,NA,TRUE,j,j,NA,NA,NA,4,7,"6,8,15,10,2,1,11,13,4,3,5,12,14,7,9"
14822,commdev-image-keyboard-response,487,885341,learnblock2,545.2999999988824,img/planet9_left.png,9,Community 3,NA,TRUE,f,f,NA,NA,NA,4,7,"6,8,15,10,2,1,11,13,4,3,5,12,14,7,9"
14822,commdev-image-keyboard-response,488,886595,learnblock2,470.2999999988824,img/planet5_left.png,5,Community 3,NA,TRUE,f,f,NA,NA,NA,4,7,"6,8,15,10,2,1,11,13,4,3,5,12,14,7,9"
14822,commdev-image-keyboard-response,489,887851,learnblock2,512.1999999992549,img/planet14_left.png,14,Community 3,NA,TRUE,f,f,NA,NA,NA,4,7,"6,8,15,10,2,1,11,13,4,3,5,12,14,7,9"
14822,commdev-image-keyboard-response,490,889118,learnblock2,629.2000000011176,img/planet9_left.png,9,Community 3,NA,TRUE,f,f,NA,NA,NA,4,7,"6,8,15,10,2,1,11,13,4,3,5,12,14,7,9"
14822,commdev-image-keyboard-response,491,890370,learnblock2,656.0999999996275,img/planet12_right.png,12,Community 3,NA,TRUE,j,j,NA,NA,NA,4,7,"6,8,15,10,2,1,11,13,4,3,5,12,14,7,9"
14822,commdev-image-keyboard-response,492,891622,learnblock2,626.6999999992549,img/planet13_right.png,13,Community 2,NA,FALSE,f,j,NA,NA,NA,4,7,"6,8,15,10,2,1,11,13,4,3,5,12,14,7,9"
14822,commdev-image-keyboard-response,493,892880,learnblock2,804.6000000014901,img/planet4_right.png,4,Community 2,NA,FALSE,f,j,NA,NA,NA,4,7,"6,8,15,10,2,1,11,13,4,3,5,12,14,7,9"
14822,commdev-image-keyboard-response,494,894141,learnblock2,616.8000000007451,img/planet1_left.png,1,Community 2,NA,TRUE,f,f,NA,NA,NA,4,7,"6,8,15,10,2,1,11,13,4,3,5,12,14,7,9"
14822,commdev-image-keyboard-response,495,895408,learnblock2,727.5,img/planet11_right.png,11,Community 2,NA,TRUE,j,j,NA,NA,NA,4,7,"6,8,15,10,2,1,11,13,4,3,5,12,14,7,9"
14822,commdev-image-keyboard-response,496,896667,learnblock2,611,img/planet1_left.png,1,Community 2,NA,TRUE,f,f,NA,NA,NA,4,7,"6,8,15,10,2,1,11,13,4,3,5,12,14,7,9"
14822,commdev-image-keyboard-response,497,897921,learnblock2,678.6999999992549,img/planet10_left.png,10,Community 1,NA,TRUE,f,f,NA,NA,NA,4,7,"6,8,15,10,2,1,11,13,4,3,5,12,14,7,9"
14822,commdev-image-keyboard-response,498,899178,learnblock2,632.5999999996275,img/planet6_right.png,6,Community 1,NA,TRUE,j,j,NA,NA,NA,4,7,"6,8,15,10,2,1,11,13,4,3,5,12,14,7,9"
14822,commdev-image-keyboard-response,499,900438,learnblock2,590,img/planet2_left.png,2,Community 1,NA,TRUE,f,f,NA,NA,NA,4,7,"6,8,15,10,2,1,11,13,4,3,5,12,14,7,9"
14822,commdev-image-keyboard-response,500,901696,learnblock2,635.0999999996275,img/planet5_right.png,5,Community 3,NA,TRUE,j,j,NA,NA,NA,4,7,"6,8,15,10,2,1,11,13,4,3,5,12,14,7,9"
14822,commdev-image-keyboard-response,501,902953,learnblock2,819.7000000011176,img/planet9_right.png,9,Community 3,NA,TRUE,j,j,NA,NA,NA,4,7,"6,8,15,10,2,1,11,13,4,3,5,12,14,7,9"
14822,commdev-image-keyboard-response,502,904214,learnblock2,616.7999999988824,img/planet5_left.png,5,Community 3,NA,TRUE,f,f,NA,NA,NA,4,7,"6,8,15,10,2,1,11,13,4,3,5,12,14,7,9"
14822,commdev-image-keyboard-response,503,905467,learnblock2,587.8000000007451,img/planet14_right.png,14,Community 3,NA,TRUE,j,j,NA,NA,NA,4,7,"6,8,15,10,2,1,11,13,4,3,5,12,14,7,9"
14822,commdev-image-keyboard-response,504,906732,learnblock2,659.1000000014901,img/planet7_right.png,7,Community 3,NA,TRUE,j,j,NA,NA,NA,4,7,"6,8,15,10,2,1,11,13,4,3,5,12,14,7,9"
14822,commdev-image-keyboard-response,505,907992,learnblock2,658.8999999985099,img/planet12_right.png,12,Community 3,NA,TRUE,j,j,NA,NA,NA,4,7,"6,8,15,10,2,1,11,13,4,3,5,12,14,7,9"
14822,commdev-image-keyboard-response,506,909243,learnblock2,725.4000000003725,img/planet14_right.png,14,Community 3,NA,TRUE,j,j,NA,NA,NA,4,7,"6,8,15,10,2,1,11,13,4,3,5,12,14,7,9"
14822,commdev-image-keyboard-response,507,910507,learnblock2,632.0999999996275,img/planet7_left.png,7,Community 3,NA,TRUE,f,f,NA,NA,NA,4,7,"6,8,15,10,2,1,11,13,4,3,5,12,14,7,9"
14822,commdev-image-keyboard-response,508,911775,learnblock2,684.4000000003725,img/planet14_left.png,14,Community 3,NA,TRUE,f,f,NA,NA,NA,4,7,"6,8,15,10,2,1,11,13,4,3,5,12,14,7,9"
14822,commdev-image-keyboard-response,509,913032,learnblock2,599.3000000007451,img/planet7_right.png,7,Community 3,NA,FALSE,f,j,NA,NA,NA,4,7,"6,8,15,10,2,1,11,13,4,3,5,12,14,7,9"
14822,commdev-image-keyboard-response,510,914286,learnblock2,880.5999999996275,img/planet9_right.png,9,Community 3,NA,TRUE,j,j,NA,NA,NA,4,7,"6,8,15,10,2,1,11,13,4,3,5,12,14,7,9"
14822,commdev-image-keyboard-response,511,915544,learnblock2,561.5999999996275,img/planet12_left.png,12,Community 3,NA,TRUE,f,f,NA,NA,NA,4,7,"6,8,15,10,2,1,11,13,4,3,5,12,14,7,9"
14822,commdev-image-keyboard-response,512,916811,learnblock2,632,img/planet14_left.png,14,Community 3,NA,TRUE,f,f,NA,NA,NA,4,7,"6,8,15,10,2,1,11,13,4,3,5,12,14,7,9"
14822,commdev-image-keyboard-response,513,918068,learnblock2,709.5999999996275,img/planet12_right.png,12,Community 3,NA,TRUE,j,j,NA,NA,NA,4,7,"6,8,15,10,2,1,11,13,4,3,5,12,14,7,9"
14822,commdev-image-keyboard-response,514,919332,learnblock2,583.2000000011176,img/planet7_left.png,7,Community 3,NA,TRUE,f,f,NA,NA,NA,4,7,"6,8,15,10,2,1,11,13,4,3,5,12,14,7,9"
14822,commdev-image-keyboard-response,515,920587,learnblock2,525.1000000014901,img/planet9_right.png,9,Community 3,NA,TRUE,j,j,NA,NA,NA,4,7,"6,8,15,10,2,1,11,13,4,3,5,12,14,7,9"
14822,commdev-image-keyboard-response,516,921846,learnblock2,684.0999999996275,img/planet5_right.png,5,Community 3,NA,TRUE,j,j,NA,NA,NA,4,7,"6,8,15,10,2,1,11,13,4,3,5,12,14,7,9"
14822,commdev-image-keyboard-response,517,923111,learnblock2,573,img/planet9_left.png,9,Community 3,NA,TRUE,f,f,NA,NA,NA,4,7,"6,8,15,10,2,1,11,13,4,3,5,12,14,7,9"
14822,commdev-image-keyboard-response,518,924370,learnblock2,511.40000000037253,img/planet14_left.png,14,Community 3,NA,FALSE,j,f,NA,NA,NA,4,7,"6,8,15,10,2,1,11,13,4,3,5,12,14,7,9"
14822,commdev-image-keyboard-response,519,925627,learnblock2,621,img/planet12_right.png,12,Community 3,NA,TRUE,j,j,NA,NA,NA,4,7,"6,8,15,10,2,1,11,13,4,3,5,12,14,7,9"
14822,commdev-image-keyboard-response,520,926885,learnblock2,544.3000000007451,img/planet14_left.png,14,Community 3,NA,TRUE,f,f,NA,NA,NA,4,7,"6,8,15,10,2,1,11,13,4,3,5,12,14,7,9"
14822,commdev-image-keyboard-response,521,928145,learnblock2,707.6999999992549,img/planet12_left.png,12,Community 3,NA,TRUE,f,f,NA,NA,NA,4,7,"6,8,15,10,2,1,11,13,4,3,5,12,14,7,9"
14822,commdev-image-keyboard-response,522,929406,learnblock2,610.8999999985099,img/planet13_right.png,13,Community 2,NA,TRUE,j,j,NA,NA,NA,4,7,"6,8,15,10,2,1,11,13,4,3,5,12,14,7,9"
14822,commdev-image-keyboard-response,523,930659,learnblock2,685.0999999996275,img/planet12_right.png,12,Community 3,NA,TRUE,j,j,NA,NA,NA,4,7,"6,8,15,10,2,1,11,13,4,3,5,12,14,7,9"
14822,commdev-image-keyboard-response,524,931912,learnblock2,1059.4000000003725,img/planet7_right.png,7,Community 3,NA,TRUE,j,j,NA,NA,NA,4,7,"6,8,15,10,2,1,11,13,4,3,5,12,14,7,9"
14822,commdev-image-keyboard-response,525,933168,learnblock2,851.9000000003725,img/planet5_left.png,5,Community 3,NA,TRUE,f,f,NA,NA,NA,4,7,"6,8,15,10,2,1,11,13,4,3,5,12,14,7,9"
14822,commdev-image-keyboard-response,526,934426,learnblock2,635.5,img/planet2_right.png,2,Community 1,NA,TRUE,j,j,NA,NA,NA,4,7,"6,8,15,10,2,1,11,13,4,3,5,12,14,7,9"
14822,commdev-image-keyboard-response,527,935691,learnblock2,711.7000000011176,img/planet8_right.png,8,Community 1,NA,TRUE,j,j,NA,NA,NA,4,7,"6,8,15,10,2,1,11,13,4,3,5,12,14,7,9"
14822,commdev-image-keyboard-response,528,936946,learnblock2,499.30000000074506,img/planet10_left.png,10,Community 1,NA,TRUE,f,f,NA,NA,NA,4,7,"6,8,15,10,2,1,11,13,4,3,5,12,14,7,9"
14822,commdev-image-keyboard-response,529,938206,learnblock2,671.9000000003725,img/planet15_left.png,15,Community 1,NA,FALSE,j,f,NA,NA,NA,4,7,"6,8,15,10,2,1,11,13,4,3,5,12,14,7,9"
14822,commdev-image-keyboard-response,530,939466,learnblock2,588.5999999996275,img/planet6_right.png,6,Community 1,NA,TRUE,j,j,NA,NA,NA,4,7,"6,8,15,10,2,1,11,13,4,3,5,12,14,7,9"
14822,commdev-image-keyboard-response,531,940730,learnblock2,735.5999999996275,img/planet15_right.png,15,Community 1,NA,TRUE,j,j,NA,NA,NA,4,7,"6,8,15,10,2,1,11,13,4,3,5,12,14,7,9"
14822,commdev-image-keyboard-response,532,941985,learnblock2,669.8999999985099,img/planet8_right.png,8,Community 1,NA,TRUE,j,j,NA,NA,NA,4,7,"6,8,15,10,2,1,11,13,4,3,5,12,14,7,9"
14822,commdev-image-keyboard-response,533,943253,learnblock2,514.5,img/planet10_right.png,10,Community 1,NA,TRUE,j,j,NA,NA,NA,4,7,"6,8,15,10,2,1,11,13,4,3,5,12,14,7,9"
14822,commdev-image-keyboard-response,534,944515,learnblock2,603.5999999996275,img/planet1_left.png,1,Community 2,NA,TRUE,f,f,NA,NA,NA,4,7,"6,8,15,10,2,1,11,13,4,3,5,12,14,7,9"
14822,commdev-image-keyboard-response,535,945777,learnblock2,537,img/planet11_right.png,11,Community 2,NA,TRUE,j,j,NA,NA,NA,4,7,"6,8,15,10,2,1,11,13,4,3,5,12,14,7,9"
14822,commdev-image-keyboard-response,536,947031,learnblock2,523,img/planet1_left.png,1,Community 2,NA,TRUE,f,f,NA,NA,NA,4,7,"6,8,15,10,2,1,11,13,4,3,5,12,14,7,9"
14822,commdev-image-keyboard-response,537,948295,learnblock2,615.4000000003725,img/planet4_right.png,4,Community 2,NA,TRUE,j,j,NA,NA,NA,4,7,"6,8,15,10,2,1,11,13,4,3,5,12,14,7,9"
14822,commdev-image-keyboard-response,538,949553,learnblock2,571.1000000014901,img/planet3_left.png,3,Community 2,NA,TRUE,f,f,NA,NA,NA,4,7,"6,8,15,10,2,1,11,13,4,3,5,12,14,7,9"
14822,commdev-image-keyboard-response,539,950806,learnblock2,528.6999999992549,img/planet13_right.png,13,Community 2,NA,TRUE,j,j,NA,NA,NA,4,7,"6,8,15,10,2,1,11,13,4,3,5,12,14,7,9"
14822,commdev-image-keyboard-response,540,952061,learnblock2,630.5999999996275,img/planet4_left.png,4,Community 2,NA,TRUE,f,f,NA,NA,NA,4,7,"6,8,15,10,2,1,11,13,4,3,5,12,14,7,9"
14822,commdev-image-keyboard-response,541,953319,learnblock2,687.7999999988824,img/planet11_left.png,11,Community 2,NA,TRUE,f,f,NA,NA,NA,4,7,"6,8,15,10,2,1,11,13,4,3,5,12,14,7,9"
14822,commdev-image-keyboard-response,542,954573,learnblock2,512.1000000014901,img/planet1_left.png,1,Community 2,NA,TRUE,f,f,NA,NA,NA,4,7,"6,8,15,10,2,1,11,13,4,3,5,12,14,7,9"
14822,commdev-image-keyboard-response,543,955826,learnblock2,628.5,img/planet4_right.png,4,Community 2,NA,TRUE,j,j,NA,NA,NA,4,7,"6,8,15,10,2,1,11,13,4,3,5,12,14,7,9"
14822,commdev-image-keyboard-response,544,957088,learnblock2,472.09999999962747,img/planet11_left.png,11,Community 2,NA,TRUE,f,f,NA,NA,NA,4,7,"6,8,15,10,2,1,11,13,4,3,5,12,14,7,9"
14822,commdev-image-keyboard-response,545,958344,learnblock2,615.3999999985099,img/planet4_right.png,4,Community 2,NA,TRUE,j,j,NA,NA,NA,4,7,"6,8,15,10,2,1,11,13,4,3,5,12,14,7,9"
14822,commdev-image-keyboard-response,546,959603,learnblock2,664.8000000007451,img/planet13_right.png,13,Community 2,NA,TRUE,j,j,NA,NA,NA,4,7,"6,8,15,10,2,1,11,13,4,3,5,12,14,7,9"
14822,commdev-image-keyboard-response,547,960862,learnblock2,678.4000000003725,img/planet12_right.png,12,Community 3,NA,TRUE,j,j,NA,NA,NA,4,7,"6,8,15,10,2,1,11,13,4,3,5,12,14,7,9"
14822,commdev-image-keyboard-response,548,962116,learnblock2,673.0999999996275,img/planet7_right.png,7,Community 3,NA,TRUE,j,j,NA,NA,NA,4,7,"6,8,15,10,2,1,11,13,4,3,5,12,14,7,9"
14822,commdev-image-keyboard-response,549,963373,learnblock2,627.9000000003725,img/planet12_right.png,12,Community 3,NA,TRUE,j,j,NA,NA,NA,4,7,"6,8,15,10,2,1,11,13,4,3,5,12,14,7,9"
14822,commdev-image-keyboard-response,550,964628,learnblock2,582.2000000011176,img/planet14_right.png,14,Community 3,NA,TRUE,j,j,NA,NA,NA,4,7,"6,8,15,10,2,1,11,13,4,3,5,12,14,7,9"
14822,commdev-image-keyboard-response,551,965880,learnblock2,595.7999999988824,img/planet5_left.png,5,Community 3,NA,TRUE,f,f,NA,NA,NA,4,7,"6,8,15,10,2,1,11,13,4,3,5,12,14,7,9"
14822,commdev-image-keyboard-response,552,967132,learnblock2,609.5,img/planet9_left.png,9,Community 3,NA,TRUE,f,f,NA,NA,NA,4,7,"6,8,15,10,2,1,11,13,4,3,5,12,14,7,9"
14822,commdev-image-keyboard-response,553,968393,learnblock2,632.9000000003725,img/planet7_right.png,7,Community 3,NA,TRUE,j,j,NA,NA,NA,4,7,"6,8,15,10,2,1,11,13,4,3,5,12,14,7,9"
14822,commdev-image-keyboard-response,554,969649,learnblock2,574.5,img/planet14_right.png,14,Community 3,NA,TRUE,j,j,NA,NA,NA,4,7,"6,8,15,10,2,1,11,13,4,3,5,12,14,7,9"
14822,commdev-image-keyboard-response,555,970901,learnblock2,717.9000000003725,img/planet12_left.png,12,Community 3,NA,FALSE,j,f,NA,NA,NA,4,7,"6,8,15,10,2,1,11,13,4,3,5,12,14,7,9"
14822,commdev-image-keyboard-response,556,972162,learnblock2,553.0999999996275,img/planet7_right.png,7,Community 3,NA,TRUE,j,j,NA,NA,NA,4,7,"6,8,15,10,2,1,11,13,4,3,5,12,14,7,9"
14822,commdev-image-keyboard-response,557,973416,learnblock2,572.1999999992549,img/planet12_left.png,12,Community 3,NA,TRUE,f,f,NA,NA,NA,4,7,"6,8,15,10,2,1,11,13,4,3,5,12,14,7,9"
14822,commdev-image-keyboard-response,558,974682,learnblock2,690.0999999996275,img/planet9_right.png,9,Community 3,NA,TRUE,j,j,NA,NA,NA,4,7,"6,8,15,10,2,1,11,13,4,3,5,12,14,7,9"
14822,commdev-image-keyboard-response,559,975937,learnblock2,494.09999999962747,img/planet5_right.png,5,Community 3,NA,TRUE,j,j,NA,NA,NA,4,7,"6,8,15,10,2,1,11,13,4,3,5,12,14,7,9"
14822,commdev-image-keyboard-response,560,977194,learnblock2,699.5999999996275,img/planet14_right.png,14,Community 3,NA,TRUE,j,j,NA,NA,NA,4,7,"6,8,15,10,2,1,11,13,4,3,5,12,14,7,9"
14822,commdev-image-keyboard-response,561,978447,learnblock2,684.7000000011176,img/planet12_left.png,12,Community 3,NA,TRUE,f,f,NA,NA,NA,4,7,"6,8,15,10,2,1,11,13,4,3,5,12,14,7,9"
14822,commdev-image-keyboard-response,562,979706,learnblock2,841.9000000003725,img/planet14_left.png,14,Community 3,NA,TRUE,f,f,NA,NA,NA,4,7,"6,8,15,10,2,1,11,13,4,3,5,12,14,7,9"
14822,commdev-image-keyboard-response,563,980959,learnblock2,null,img/planet12_left.png,12,Community 3,NA,FALSE,null,f,NA,NA,NA,4,7,"6,8,15,10,2,1,11,13,4,3,5,12,14,7,9"
14822,commdev-image-keyboard-response,564,982224,learnblock2,561.5999999996275,img/planet13_left.png,13,Community 2,NA,TRUE,f,f,NA,NA,NA,4,7,"6,8,15,10,2,1,11,13,4,3,5,12,14,7,9"
14822,commdev-image-keyboard-response,565,983479,learnblock2,592.5999999996275,img/planet11_right.png,11,Community 2,NA,TRUE,j,j,NA,NA,NA,4,7,"6,8,15,10,2,1,11,13,4,3,5,12,14,7,9"
14822,commdev-image-keyboard-response,566,984734,learnblock2,1182.699999999255,img/planet1_right.png,1,Community 2,NA,TRUE,j,j,NA,NA,NA,4,7,"6,8,15,10,2,1,11,13,4,3,5,12,14,7,9"
14822,commdev-image-keyboard-response,567,985988,learnblock2,572.8000000007451,img/planet4_left.png,4,Community 2,NA,TRUE,f,f,NA,NA,NA,4,7,"6,8,15,10,2,1,11,13,4,3,5,12,14,7,9"
14822,commdev-image-keyboard-response,568,987246,learnblock2,795.2000000011176,img/planet1_right.png,1,Community 2,NA,TRUE,j,j,NA,NA,NA,4,7,"6,8,15,10,2,1,11,13,4,3,5,12,14,7,9"
14822,commdev-image-keyboard-response,569,988512,learnblock2,635.5999999996275,img/planet10_right.png,10,Community 1,NA,TRUE,j,j,NA,NA,NA,4,7,"6,8,15,10,2,1,11,13,4,3,5,12,14,7,9"
14822,commdev-image-keyboard-response,570,989770,learnblock2,545.3999999985099,img/planet8_right.png,8,Community 1,NA,TRUE,j,j,NA,NA,NA,4,7,"6,8,15,10,2,1,11,13,4,3,5,12,14,7,9"
14822,commdev-image-keyboard-response,571,991022,learnblock2,573.5,img/planet15_right.png,15,Community 1,NA,TRUE,j,j,NA,NA,NA,4,7,"6,8,15,10,2,1,11,13,4,3,5,12,14,7,9"
14822,commdev-image-keyboard-response,572,992276,learnblock2,422.59999999962747,img/planet6_right.png,6,Community 1,NA,TRUE,j,j,NA,NA,NA,4,7,"6,8,15,10,2,1,11,13,4,3,5,12,14,7,9"
14822,commdev-image-keyboard-response,573,993533,learnblock2,455,img/planet8_right.png,8,Community 1,NA,TRUE,j,j,NA,NA,NA,4,7,"6,8,15,10,2,1,11,13,4,3,5,12,14,7,9"
14822,commdev-image-keyboard-response,574,994788,learnblock2,550.6999999992549,img/planet6_right.png,6,Community 1,NA,TRUE,j,j,NA,NA,NA,4,7,"6,8,15,10,2,1,11,13,4,3,5,12,14,7,9"
14822,commdev-image-keyboard-response,575,996044,learnblock2,723.8000000007451,img/planet2_left.png,2,Community 1,NA,TRUE,f,f,NA,NA,NA,4,7,"6,8,15,10,2,1,11,13,4,3,5,12,14,7,9"
14822,commdev-image-keyboard-response,576,997297,learnblock2,778.8000000007451,img/planet15_right.png,15,Community 1,NA,TRUE,j,j,NA,NA,NA,4,7,"6,8,15,10,2,1,11,13,4,3,5,12,14,7,9"
14822,commdev-image-keyboard-response,577,998559,learnblock2,639.8000000007451,img/planet6_left.png,6,Community 1,NA,TRUE,f,f,NA,NA,NA,4,7,"6,8,15,10,2,1,11,13,4,3,5,12,14,7,9"
14822,commdev-image-keyboard-response,578,999814,learnblock2,564.6999999992549,img/planet10_left.png,10,Community 1,NA,TRUE,f,f,NA,NA,NA,4,7,"6,8,15,10,2,1,11,13,4,3,5,12,14,7,9"
14822,commdev-image-keyboard-response,579,1001069,learnblock2,453.69999999925494,img/planet1_left.png,1,Community 2,NA,FALSE,j,f,NA,NA,NA,4,7,"6,8,15,10,2,1,11,13,4,3,5,12,14,7,9"
14822,commdev-image-keyboard-response,580,1002323,learnblock2,581.2999999988824,img/planet11_left.png,11,Community 2,NA,TRUE,f,f,NA,NA,NA,4,7,"6,8,15,10,2,1,11,13,4,3,5,12,14,7,9"
14822,commdev-image-keyboard-response,581,1003582,learnblock2,582.7000000011176,img/planet4_right.png,4,Community 2,NA,TRUE,j,j,NA,NA,NA,4,7,"6,8,15,10,2,1,11,13,4,3,5,12,14,7,9"
14822,commdev-image-keyboard-response,582,1004837,learnblock2,688.4000000003725,img/planet3_left.png,3,Community 2,NA,TRUE,f,f,NA,NA,NA,4,7,"6,8,15,10,2,1,11,13,4,3,5,12,14,7,9"
14822,commdev-image-keyboard-response,583,1006091,learnblock2,598.7999999988824,img/planet4_left.png,4,Community 2,NA,TRUE,f,f,NA,NA,NA,4,7,"6,8,15,10,2,1,11,13,4,3,5,12,14,7,9"
14822,commdev-image-keyboard-response,584,1007347,learnblock2,478.09999999962747,img/planet1_left.png,1,Community 2,NA,TRUE,f,f,NA,NA,NA,4,7,"6,8,15,10,2,1,11,13,4,3,5,12,14,7,9"
14822,commdev-image-keyboard-response,585,1008604,learnblock2,417.40000000037253,img/planet4_left.png,4,Community 2,NA,TRUE,f,f,NA,NA,NA,4,7,"6,8,15,10,2,1,11,13,4,3,5,12,14,7,9"
14822,commdev-image-keyboard-response,586,1009870,learnblock2,507.80000000074506,img/planet13_left.png,13,Community 2,NA,FALSE,j,f,NA,NA,NA,4,7,"6,8,15,10,2,1,11,13,4,3,5,12,14,7,9"
