subject_id,trial_type,trial_index,time_elapsed,block,rt,stimulus,planet,community,response,correct,key_press,learning_correct_response,parse,init_locations,final_locations,browser_interactions,num_comp,planet_map
14719,commdev-instructions,7,26681,NA,1365,"<p>In this game, you will be shown a 3x3 grid of patterns.</p> <p>The last one in the bottom right-hand corner, <strong>will be missing:</strong></p> <div style='width: 700px;'><div style='float: top;'><img style='width: 200px;' src='practice/p1_M1.png'></img><p class='small'>You need to select<strong> which of the four possible patterns </strong>along the bottom<strong> fits into the gap:</strong></p></div><div style='float: top;'><img style='width: 300px;' src='practice/p1_T1.png'></img></div><br>",NA,NA,NA,NA,NA,NA,NA,NA,NA,3,6,"8,10,1,12,9,7,6,3,14,4,2,13,5,15,11"
14719,commdev-instructions,8,49239,NA,4645.100000023842,"<p>Try to be as fast and as accurate as you can be.</p> <p>If you cannot solve the puzzle then you should guess - you will not be penalised for an incorrect answer.</p> <p>The task contains a shuffled mix of easy, medium and hard puzzles.</p> <p>You will have <strong>30 seconds</strong> to complete each puzzle.</p><br>",NA,NA,NA,NA,NA,NA,NA,NA,NA,3,6,"8,10,1,12,9,7,6,3,14,4,2,13,5,15,11"
14719,commdev-instructions,15,79172,NA,7054.100000023842,<p><strong>Success!</strong></p> <p>You seem to be getting the hang of this...</p> <p>Let's move on to the real trials.</p><br>,NA,NA,NA,NA,NA,NA,NA,NA,NA,3,6,"8,10,1,12,9,7,6,3,14,4,2,13,5,15,11"
14719,commdev-instructions,89,573261,NA,2090.600000023842,"<p>In this game, you are a scientist on board a space shuttle. </p><p> On each mission, you will visit planets all across the universe.</p><img src=""img/controlroom.jpg"" width=300vw>",NA,NA,NA,NA,NA,NA,NA,NA,NA,3,6,"8,10,1,12,9,7,6,3,14,4,2,13,5,15,11"
14719,commdev-instructions,90,576229,NA,897.8999999761581,"<p>Here are a few planets you might see:</p><img src=""img/practice1.png"" width=200vw><img src=""img/practice2.png"" width=200vw><img src=""img/practice3.png"" width=200vw>",NA,NA,NA,NA,NA,NA,NA,NA,NA,3,6,"8,10,1,12,9,7,6,3,14,4,2,13,5,15,11"
14719,commdev-instructions,91,584232,NA,602.2999999523163,"<p>Your job as a scientist is to record which direction the winds are moving on each planet.</p><p>There are two types of wind directions:</p><img src=""img/practice1_left.png"" width=200vw><img src=""img/practice1_right.png"" width=200vw>",NA,NA,NA,NA,NA,NA,NA,NA,NA,3,6,"8,10,1,12,9,7,6,3,14,4,2,13,5,15,11"
14719,commdev-instructions,92,589941,NA,829.7000000476837,"<p>If the winds are moving this way, press the letter <strong>F</strong> on the keyboard as fast as you can.</p><img src=""img/leftwind.png"" width=250vw>",NA,NA,NA,NA,NA,NA,NA,NA,NA,3,6,"8,10,1,12,9,7,6,3,14,4,2,13,5,15,11"
14719,commdev-instructions,93,595574,NA,1134.2000000476837,"<p>If the winds are moving this way, press the letter <strong>J</strong> on the keyboard as fast as you can.</p><img src=""img/rightwind.png"" width=350vw>",NA,NA,NA,NA,NA,NA,NA,NA,NA,3,6,"8,10,1,12,9,7,6,3,14,4,2,13,5,15,11"
14719,commdev-instructions,94,601187,NA,1190.3999999761581,<p>You will have 1 second to respond. Try to respond before the time runs out!,NA,NA,NA,NA,NA,NA,NA,NA,NA,3,6,"8,10,1,12,9,7,6,3,14,4,2,13,5,15,11"
14719,commdev-instructions,95,607339,NA,723.8999999761581,<p>The planets you will visit will look different from each other.</p><p>You should respond <strong>only</strong> based on wind direction.,NA,NA,NA,NA,NA,NA,NA,NA,NA,3,6,"8,10,1,12,9,7,6,3,14,4,2,13,5,15,11"
14719,commdev-instructions,96,614076,NA,1567,"<p> Ready to start the practice round? </p><p> Remember, press <strong>F</strong> or <strong>J</strong> depending on the wind direction.<br><img src=""img/categorize_planet_example.png""",NA,NA,NA,NA,NA,NA,NA,NA,NA,3,6,"8,10,1,12,9,7,6,3,14,4,2,13,5,15,11"
14719,commdev-instructions,108,663764,NA,795.8999999761581,"<p>Great, now try a short practice mission. </p><p> This time, you will have 1 second to respond and you won't know whether you pressed the right or wrong key for each planet.</p>",NA,NA,NA,NA,NA,NA,NA,NA,NA,3,6,"8,10,1,12,9,7,6,3,14,4,2,13,5,15,11"
14719,commdev-image-keyboard-response,109,665121,practice,880.1000000238419,img/practice3_left.png,NA,Number not found in mappings,NA,TRUE,f,f,NA,NA,NA,3,6,"8,10,1,12,9,7,6,3,14,4,2,13,5,15,11"
14719,commdev-image-keyboard-response,110,666374,practice,936.3999999761581,img/practice2_right.png,NA,Number not found in mappings,NA,TRUE,j,j,NA,NA,NA,3,6,"8,10,1,12,9,7,6,3,14,4,2,13,5,15,11"
14719,commdev-image-keyboard-response,111,667627,practice,842.2999999523163,img/practice4_right.png,NA,Number not found in mappings,NA,TRUE,j,j,NA,NA,NA,3,6,"8,10,1,12,9,7,6,3,14,4,2,13,5,15,11"
14719,commdev-image-keyboard-response,112,668878,practice,862,img/practice2_right.png,NA,Number not found in mappings,NA,TRUE,j,j,NA,NA,NA,3,6,"8,10,1,12,9,7,6,3,14,4,2,13,5,15,11"
14719,commdev-image-keyboard-response,113,670132,practice,594.8000000715256,img/practice3_right.png,NA,Number not found in mappings,NA,TRUE,j,j,NA,NA,NA,3,6,"8,10,1,12,9,7,6,3,14,4,2,13,5,15,11"
14719,commdev-image-keyboard-response,114,671384,practice,795.8000000715256,img/practice2_right.png,NA,Number not found in mappings,NA,TRUE,j,j,NA,NA,NA,3,6,"8,10,1,12,9,7,6,3,14,4,2,13,5,15,11"
14719,commdev-image-keyboard-response,115,672637,practice,548.6000000238419,img/practice3_left.png,NA,Number not found in mappings,NA,TRUE,f,f,NA,NA,NA,3,6,"8,10,1,12,9,7,6,3,14,4,2,13,5,15,11"
14719,commdev-image-keyboard-response,116,673890,practice,681.5,img/practice2_left.png,NA,Number not found in mappings,NA,TRUE,f,f,NA,NA,NA,3,6,"8,10,1,12,9,7,6,3,14,4,2,13,5,15,11"
14719,commdev-instructions,117,684300,NA,857.3999999761581,"<p>Great job with the practice round.</p><p>During real missions, you won't know whether you pressed the right or wrong key for each planet.</p><p>But between missions, we will tell you how you did overall.</p>",NA,NA,NA,NA,NA,NA,NA,NA,NA,3,6,"8,10,1,12,9,7,6,3,14,4,2,13,5,15,11"
14719,commdev-instructions,118,696446,NA,3905.7000000476837,<p>Try your best! You will be paid a bonus based on how many correct responses you make!</p><p>Responses that are too slow will not count toward your bonus.</p>,NA,NA,NA,NA,NA,NA,NA,NA,NA,3,6,"8,10,1,12,9,7,6,3,14,4,2,13,5,15,11"
14719,commdev-instructions,119,703176,NA,534.8999999761581,"<p>You are almost ready to start the real game.</p><p> First, we are going to ask you some questions about how the game works.</p>",NA,NA,NA,NA,NA,NA,NA,NA,NA,3,6,"8,10,1,12,9,7,6,3,14,4,2,13,5,15,11"
14719,commdev-instructions,128,810480,NA,24256.899999976158,"<p> Nice work! It is now time to start the real game.<p></p>You will go on two missions to record wind directions of different planets.<p></p>Each one will take about 5 minutes. You will get to take a break between missions.<p><p> Remember, press <strong>F</strong> or <strong>J</strong> depending on the wind direction. Good luck!<br><img src=""img/categorize_planet_example.png""",NA,NA,NA,NA,NA,NA,NA,NA,NA,3,6,"8,10,1,12,9,7,6,3,14,4,2,13,5,15,11"
14719,commdev-image-keyboard-response,130,814787,learnblock1,1121.3999999761581,img/planet11_left.png,11,Community 3,NA,TRUE,f,f,NA,NA,NA,3,6,"8,10,1,12,9,7,6,3,14,4,2,13,5,15,11"
14719,commdev-image-keyboard-response,131,816040,learnblock1,816,img/planet13_left.png,13,Community 3,NA,TRUE,f,f,NA,NA,NA,3,6,"8,10,1,12,9,7,6,3,14,4,2,13,5,15,11"
14719,commdev-image-keyboard-response,132,817292,learnblock1,733.7999999523163,img/planet11_right.png,11,Community 3,NA,TRUE,j,j,NA,NA,NA,3,6,"8,10,1,12,9,7,6,3,14,4,2,13,5,15,11"
14719,commdev-image-keyboard-response,133,818545,learnblock1,701.5,img/planet5_right.png,5,Community 3,NA,TRUE,j,j,NA,NA,NA,3,6,"8,10,1,12,9,7,6,3,14,4,2,13,5,15,11"
14719,commdev-image-keyboard-response,134,819797,learnblock1,795.8999999761581,img/planet13_right.png,13,Community 3,NA,TRUE,j,j,NA,NA,NA,3,6,"8,10,1,12,9,7,6,3,14,4,2,13,5,15,11"
14719,commdev-image-keyboard-response,135,821049,learnblock1,523.6000000238419,img/planet5_left.png,5,Community 3,NA,TRUE,f,f,NA,NA,NA,3,6,"8,10,1,12,9,7,6,3,14,4,2,13,5,15,11"
14719,commdev-image-keyboard-response,136,822302,learnblock1,688.3999999761581,img/planet2_right.png,2,Community 3,NA,TRUE,j,j,NA,NA,NA,3,6,"8,10,1,12,9,7,6,3,14,4,2,13,5,15,11"
14719,commdev-image-keyboard-response,137,823555,learnblock1,602,img/planet15_left.png,15,Community 3,NA,TRUE,f,f,NA,NA,NA,3,6,"8,10,1,12,9,7,6,3,14,4,2,13,5,15,11"
14719,commdev-image-keyboard-response,138,824807,learnblock1,516.7999999523163,img/planet2_right.png,2,Community 3,NA,TRUE,j,j,NA,NA,NA,3,6,"8,10,1,12,9,7,6,3,14,4,2,13,5,15,11"
14719,commdev-image-keyboard-response,139,826059,learnblock1,531,img/planet15_left.png,15,Community 3,NA,TRUE,f,f,NA,NA,NA,3,6,"8,10,1,12,9,7,6,3,14,4,2,13,5,15,11"
14719,commdev-image-keyboard-response,140,827312,learnblock1,495.3000000715256,img/planet2_right.png,2,Community 3,NA,TRUE,j,j,NA,NA,NA,3,6,"8,10,1,12,9,7,6,3,14,4,2,13,5,15,11"
14719,commdev-image-keyboard-response,141,828563,learnblock1,576.8000000715256,img/planet15_left.png,15,Community 3,NA,TRUE,f,f,NA,NA,NA,3,6,"8,10,1,12,9,7,6,3,14,4,2,13,5,15,11"
14719,commdev-image-keyboard-response,142,829816,learnblock1,720.1999999284744,img/planet5_left.png,5,Community 3,NA,TRUE,f,f,NA,NA,NA,3,6,"8,10,1,12,9,7,6,3,14,4,2,13,5,15,11"
14719,commdev-image-keyboard-response,143,831069,learnblock1,535.6999999284744,img/planet11_left.png,11,Community 3,NA,TRUE,f,f,NA,NA,NA,3,6,"8,10,1,12,9,7,6,3,14,4,2,13,5,15,11"
14719,commdev-image-keyboard-response,144,832322,learnblock1,504.5,img/planet5_left.png,5,Community 3,NA,TRUE,f,f,NA,NA,NA,3,6,"8,10,1,12,9,7,6,3,14,4,2,13,5,15,11"
14719,commdev-image-keyboard-response,145,833574,learnblock1,599.3999999761581,img/planet11_right.png,11,Community 3,NA,TRUE,j,j,NA,NA,NA,3,6,"8,10,1,12,9,7,6,3,14,4,2,13,5,15,11"
14719,commdev-image-keyboard-response,146,834826,learnblock1,557.8999999761581,img/planet2_left.png,2,Community 3,NA,TRUE,f,f,NA,NA,NA,3,6,"8,10,1,12,9,7,6,3,14,4,2,13,5,15,11"
14719,commdev-image-keyboard-response,147,836078,learnblock1,631.2000000476837,img/planet9_right.png,9,Community 1,NA,TRUE,j,j,NA,NA,NA,3,6,"8,10,1,12,9,7,6,3,14,4,2,13,5,15,11"
14719,commdev-image-keyboard-response,148,837331,learnblock1,576.6000000238419,img/planet10_right.png,10,Community 1,NA,TRUE,j,j,NA,NA,NA,3,6,"8,10,1,12,9,7,6,3,14,4,2,13,5,15,11"
14719,commdev-image-keyboard-response,149,838584,learnblock1,609.7000000476837,img/planet1_left.png,1,Community 1,NA,TRUE,f,f,NA,NA,NA,3,6,"8,10,1,12,9,7,6,3,14,4,2,13,5,15,11"
14719,commdev-image-keyboard-response,150,839837,learnblock1,476.7000000476837,img/planet10_right.png,10,Community 1,NA,TRUE,j,j,NA,NA,NA,3,6,"8,10,1,12,9,7,6,3,14,4,2,13,5,15,11"
14719,commdev-image-keyboard-response,151,841090,learnblock1,780,img/planet8_right.png,8,Community 1,NA,TRUE,j,j,NA,NA,NA,3,6,"8,10,1,12,9,7,6,3,14,4,2,13,5,15,11"
14719,commdev-image-keyboard-response,152,842341,learnblock1,619.1999999284744,img/planet12_right.png,12,Community 1,NA,TRUE,j,j,NA,NA,NA,3,6,"8,10,1,12,9,7,6,3,14,4,2,13,5,15,11"
14719,commdev-image-keyboard-response,153,843594,learnblock1,540.1000000238419,img/planet10_right.png,10,Community 1,NA,TRUE,j,j,NA,NA,NA,3,6,"8,10,1,12,9,7,6,3,14,4,2,13,5,15,11"
14719,commdev-image-keyboard-response,154,844846,learnblock1,673.7000000476837,img/planet9_left.png,9,Community 1,NA,TRUE,f,f,NA,NA,NA,3,6,"8,10,1,12,9,7,6,3,14,4,2,13,5,15,11"
14719,commdev-image-keyboard-response,155,846099,learnblock1,685.8999999761581,img/planet2_left.png,2,Community 3,NA,TRUE,f,f,NA,NA,NA,3,6,"8,10,1,12,9,7,6,3,14,4,2,13,5,15,11"
14719,commdev-image-keyboard-response,156,847351,learnblock1,641.6999999284744,img/planet15_left.png,15,Community 3,NA,TRUE,f,f,NA,NA,NA,3,6,"8,10,1,12,9,7,6,3,14,4,2,13,5,15,11"
14719,commdev-image-keyboard-response,157,848604,learnblock1,625.1000000238419,img/planet13_left.png,13,Community 3,NA,TRUE,f,f,NA,NA,NA,3,6,"8,10,1,12,9,7,6,3,14,4,2,13,5,15,11"
14719,commdev-image-keyboard-response,158,849856,learnblock1,593.0999999046326,img/planet3_left.png,3,Community 2,NA,TRUE,f,f,NA,NA,NA,3,6,"8,10,1,12,9,7,6,3,14,4,2,13,5,15,11"
14719,commdev-image-keyboard-response,159,851110,learnblock1,497.5,img/planet13_left.png,13,Community 3,NA,TRUE,f,f,NA,NA,NA,3,6,"8,10,1,12,9,7,6,3,14,4,2,13,5,15,11"
14719,commdev-image-keyboard-response,160,852363,learnblock1,558.1000000238419,img/planet15_left.png,15,Community 3,NA,TRUE,f,f,NA,NA,NA,3,6,"8,10,1,12,9,7,6,3,14,4,2,13,5,15,11"
14719,commdev-image-keyboard-response,161,853616,learnblock1,496.40000009536743,img/planet13_left.png,13,Community 3,NA,TRUE,f,f,NA,NA,NA,3,6,"8,10,1,12,9,7,6,3,14,4,2,13,5,15,11"
14719,commdev-image-keyboard-response,162,854869,learnblock1,479,img/planet3_right.png,3,Community 2,NA,TRUE,j,j,NA,NA,NA,3,6,"8,10,1,12,9,7,6,3,14,4,2,13,5,15,11"
14719,commdev-image-keyboard-response,163,856121,learnblock1,549.5,img/planet4_right.png,4,Community 2,NA,TRUE,j,j,NA,NA,NA,3,6,"8,10,1,12,9,7,6,3,14,4,2,13,5,15,11"
14719,commdev-image-keyboard-response,164,857374,learnblock1,479.60000002384186,img/planet3_right.png,3,Community 2,NA,TRUE,j,j,NA,NA,NA,3,6,"8,10,1,12,9,7,6,3,14,4,2,13,5,15,11"
14719,commdev-image-keyboard-response,165,858626,learnblock1,572.6000000238419,img/planet13_left.png,13,Community 3,NA,TRUE,f,f,NA,NA,NA,3,6,"8,10,1,12,9,7,6,3,14,4,2,13,5,15,11"
14719,commdev-image-keyboard-response,166,859878,learnblock1,550.6000000238419,img/planet5_right.png,5,Community 3,NA,TRUE,j,j,NA,NA,NA,3,6,"8,10,1,12,9,7,6,3,14,4,2,13,5,15,11"
14719,commdev-image-keyboard-response,167,861131,learnblock1,509.39999997615814,img/planet11_left.png,11,Community 3,NA,TRUE,f,f,NA,NA,NA,3,6,"8,10,1,12,9,7,6,3,14,4,2,13,5,15,11"
14719,commdev-image-keyboard-response,168,862383,learnblock1,558,img/planet15_right.png,15,Community 3,NA,TRUE,j,j,NA,NA,NA,3,6,"8,10,1,12,9,7,6,3,14,4,2,13,5,15,11"
14719,commdev-image-keyboard-response,169,863636,learnblock1,609.7000000476837,img/planet5_right.png,5,Community 3,NA,TRUE,j,j,NA,NA,NA,3,6,"8,10,1,12,9,7,6,3,14,4,2,13,5,15,11"
14719,commdev-image-keyboard-response,170,864889,learnblock1,511.60000002384186,img/planet11_right.png,11,Community 3,NA,FALSE,f,j,NA,NA,NA,3,6,"8,10,1,12,9,7,6,3,14,4,2,13,5,15,11"
14719,commdev-image-keyboard-response,171,866141,learnblock1,672.7000000476837,img/planet5_left.png,5,Community 3,NA,TRUE,f,f,NA,NA,NA,3,6,"8,10,1,12,9,7,6,3,14,4,2,13,5,15,11"
14719,commdev-image-keyboard-response,172,867393,learnblock1,573.2000000476837,img/planet13_left.png,13,Community 3,NA,TRUE,f,f,NA,NA,NA,3,6,"8,10,1,12,9,7,6,3,14,4,2,13,5,15,11"
14719,commdev-image-keyboard-response,173,868646,learnblock1,567.5,img/planet5_left.png,5,Community 3,NA,TRUE,f,f,NA,NA,NA,3,6,"8,10,1,12,9,7,6,3,14,4,2,13,5,15,11"
14719,commdev-image-keyboard-response,174,869899,learnblock1,494.2000000476837,img/planet2_right.png,2,Community 3,NA,TRUE,j,j,NA,NA,NA,3,6,"8,10,1,12,9,7,6,3,14,4,2,13,5,15,11"
14719,commdev-image-keyboard-response,175,871151,learnblock1,517.5,img/planet5_right.png,5,Community 3,NA,TRUE,j,j,NA,NA,NA,3,6,"8,10,1,12,9,7,6,3,14,4,2,13,5,15,11"
14719,commdev-image-keyboard-response,176,872404,learnblock1,575,img/planet15_left.png,15,Community 3,NA,TRUE,f,f,NA,NA,NA,3,6,"8,10,1,12,9,7,6,3,14,4,2,13,5,15,11"
14719,commdev-image-keyboard-response,177,873656,learnblock1,560.8999999761581,img/planet13_left.png,13,Community 3,NA,TRUE,f,f,NA,NA,NA,3,6,"8,10,1,12,9,7,6,3,14,4,2,13,5,15,11"
14719,commdev-image-keyboard-response,178,874910,learnblock1,606.5,img/planet3_right.png,3,Community 2,NA,TRUE,j,j,NA,NA,NA,3,6,"8,10,1,12,9,7,6,3,14,4,2,13,5,15,11"
14719,commdev-image-keyboard-response,179,876162,learnblock1,556.8999999761581,img/planet6_left.png,6,Community 2,NA,TRUE,f,f,NA,NA,NA,3,6,"8,10,1,12,9,7,6,3,14,4,2,13,5,15,11"
14719,commdev-image-keyboard-response,180,877415,learnblock1,596.2999999523163,img/planet4_right.png,4,Community 2,NA,TRUE,j,j,NA,NA,NA,3,6,"8,10,1,12,9,7,6,3,14,4,2,13,5,15,11"
14719,commdev-image-keyboard-response,181,878667,learnblock1,589.7999999523163,img/planet6_right.png,6,Community 2,NA,TRUE,j,j,NA,NA,NA,3,6,"8,10,1,12,9,7,6,3,14,4,2,13,5,15,11"
14719,commdev-image-keyboard-response,182,879919,learnblock1,648,img/planet4_left.png,4,Community 2,NA,TRUE,f,f,NA,NA,NA,3,6,"8,10,1,12,9,7,6,3,14,4,2,13,5,15,11"
14719,commdev-image-keyboard-response,183,881171,learnblock1,582.0999999046326,img/planet3_left.png,3,Community 2,NA,TRUE,f,f,NA,NA,NA,3,6,"8,10,1,12,9,7,6,3,14,4,2,13,5,15,11"
14719,commdev-image-keyboard-response,184,882424,learnblock1,513.6000000238419,img/planet4_right.png,4,Community 2,NA,TRUE,j,j,NA,NA,NA,3,6,"8,10,1,12,9,7,6,3,14,4,2,13,5,15,11"
14719,commdev-image-keyboard-response,185,883677,learnblock1,713.6000000238419,img/planet3_right.png,3,Community 2,NA,TRUE,j,j,NA,NA,NA,3,6,"8,10,1,12,9,7,6,3,14,4,2,13,5,15,11"
14719,commdev-image-keyboard-response,186,884929,learnblock1,553.1000000238419,img/planet13_left.png,13,Community 3,NA,TRUE,f,f,NA,NA,NA,3,6,"8,10,1,12,9,7,6,3,14,4,2,13,5,15,11"
14719,commdev-image-keyboard-response,187,886181,learnblock1,564,img/planet5_right.png,5,Community 3,NA,TRUE,j,j,NA,NA,NA,3,6,"8,10,1,12,9,7,6,3,14,4,2,13,5,15,11"
14719,commdev-image-keyboard-response,188,887434,learnblock1,504.39999997615814,img/planet2_left.png,2,Community 3,NA,TRUE,f,f,NA,NA,NA,3,6,"8,10,1,12,9,7,6,3,14,4,2,13,5,15,11"
14719,commdev-image-keyboard-response,189,888686,learnblock1,505.39999997615814,img/planet9_left.png,9,Community 1,NA,FALSE,j,f,NA,NA,NA,3,6,"8,10,1,12,9,7,6,3,14,4,2,13,5,15,11"
14719,commdev-image-keyboard-response,190,889938,learnblock1,610.2000000476837,img/planet10_right.png,10,Community 1,NA,TRUE,j,j,NA,NA,NA,3,6,"8,10,1,12,9,7,6,3,14,4,2,13,5,15,11"
14719,commdev-image-keyboard-response,191,891190,learnblock1,588.6000000238419,img/planet1_left.png,1,Community 1,NA,TRUE,f,f,NA,NA,NA,3,6,"8,10,1,12,9,7,6,3,14,4,2,13,5,15,11"
14719,commdev-image-keyboard-response,192,892442,learnblock1,695.6000000238419,img/planet9_right.png,9,Community 1,NA,TRUE,j,j,NA,NA,NA,3,6,"8,10,1,12,9,7,6,3,14,4,2,13,5,15,11"
14719,commdev-image-keyboard-response,193,893694,learnblock1,619.2999999523163,img/planet2_left.png,2,Community 3,NA,TRUE,f,f,NA,NA,NA,3,6,"8,10,1,12,9,7,6,3,14,4,2,13,5,15,11"
14719,commdev-image-keyboard-response,194,894947,learnblock1,665.8999999761581,img/planet9_left.png,9,Community 1,NA,TRUE,f,f,NA,NA,NA,3,6,"8,10,1,12,9,7,6,3,14,4,2,13,5,15,11"
14719,commdev-image-keyboard-response,195,896199,learnblock1,504.40000009536743,img/planet2_right.png,2,Community 3,NA,TRUE,j,j,NA,NA,NA,3,6,"8,10,1,12,9,7,6,3,14,4,2,13,5,15,11"
14719,commdev-image-keyboard-response,196,897451,learnblock1,587.2999999523163,img/planet5_left.png,5,Community 3,NA,TRUE,f,f,NA,NA,NA,3,6,"8,10,1,12,9,7,6,3,14,4,2,13,5,15,11"
14719,commdev-image-keyboard-response,197,898704,learnblock1,640,img/planet11_left.png,11,Community 3,NA,TRUE,f,f,NA,NA,NA,3,6,"8,10,1,12,9,7,6,3,14,4,2,13,5,15,11"
14719,commdev-image-keyboard-response,198,899956,learnblock1,563.1999999284744,img/planet13_right.png,13,Community 3,NA,TRUE,j,j,NA,NA,NA,3,6,"8,10,1,12,9,7,6,3,14,4,2,13,5,15,11"
14719,commdev-image-keyboard-response,199,901208,learnblock1,625.1999999284744,img/planet3_left.png,3,Community 2,NA,TRUE,f,f,NA,NA,NA,3,6,"8,10,1,12,9,7,6,3,14,4,2,13,5,15,11"
14719,commdev-image-keyboard-response,200,902460,learnblock1,530.4000000953674,img/planet6_left.png,6,Community 2,NA,TRUE,f,f,NA,NA,NA,3,6,"8,10,1,12,9,7,6,3,14,4,2,13,5,15,11"
14719,commdev-image-keyboard-response,201,903713,learnblock1,513.7999999523163,img/planet4_left.png,4,Community 2,NA,TRUE,f,f,NA,NA,NA,3,6,"8,10,1,12,9,7,6,3,14,4,2,13,5,15,11"
14719,commdev-image-keyboard-response,202,904965,learnblock1,562.2999999523163,img/planet7_right.png,7,Community 2,NA,TRUE,j,j,NA,NA,NA,3,6,"8,10,1,12,9,7,6,3,14,4,2,13,5,15,11"
14719,commdev-image-keyboard-response,203,906218,learnblock1,542.8999999761581,img/planet12_left.png,12,Community 1,NA,TRUE,f,f,NA,NA,NA,3,6,"8,10,1,12,9,7,6,3,14,4,2,13,5,15,11"
14719,commdev-image-keyboard-response,204,907470,learnblock1,542.1999999284744,img/planet10_left.png,10,Community 1,NA,TRUE,f,f,NA,NA,NA,3,6,"8,10,1,12,9,7,6,3,14,4,2,13,5,15,11"
14719,commdev-image-keyboard-response,205,908723,learnblock1,619.8000000715256,img/planet9_right.png,9,Community 1,NA,TRUE,j,j,NA,NA,NA,3,6,"8,10,1,12,9,7,6,3,14,4,2,13,5,15,11"
14719,commdev-image-keyboard-response,206,909976,learnblock1,null,img/planet8_right.png,8,Community 1,NA,FALSE,null,j,NA,NA,NA,3,6,"8,10,1,12,9,7,6,3,14,4,2,13,5,15,11"
14719,commdev-image-keyboard-response,207,911229,learnblock1,198.09999990463257,img/planet10_left.png,10,Community 1,NA,FALSE,j,f,NA,NA,NA,3,6,"8,10,1,12,9,7,6,3,14,4,2,13,5,15,11"
14719,commdev-image-keyboard-response,208,912481,learnblock1,676.1000000238419,img/planet1_left.png,1,Community 1,NA,TRUE,f,f,NA,NA,NA,3,6,"8,10,1,12,9,7,6,3,14,4,2,13,5,15,11"
14719,commdev-image-keyboard-response,209,913733,learnblock1,546.7999999523163,img/planet10_right.png,10,Community 1,NA,TRUE,j,j,NA,NA,NA,3,6,"8,10,1,12,9,7,6,3,14,4,2,13,5,15,11"
14719,commdev-image-keyboard-response,210,914985,learnblock1,566.2000000476837,img/planet9_left.png,9,Community 1,NA,TRUE,f,f,NA,NA,NA,3,6,"8,10,1,12,9,7,6,3,14,4,2,13,5,15,11"
14719,commdev-image-keyboard-response,211,916237,learnblock1,644.6999999284744,img/planet1_left.png,1,Community 1,NA,TRUE,f,f,NA,NA,NA,3,6,"8,10,1,12,9,7,6,3,14,4,2,13,5,15,11"
14719,commdev-image-keyboard-response,212,917490,learnblock1,565.6000000238419,img/planet10_left.png,10,Community 1,NA,TRUE,f,f,NA,NA,NA,3,6,"8,10,1,12,9,7,6,3,14,4,2,13,5,15,11"
14719,commdev-image-keyboard-response,213,918742,learnblock1,643.5,img/planet1_right.png,1,Community 1,NA,TRUE,j,j,NA,NA,NA,3,6,"8,10,1,12,9,7,6,3,14,4,2,13,5,15,11"
14719,commdev-image-keyboard-response,214,919995,learnblock1,547.6000000238419,img/planet10_left.png,10,Community 1,NA,TRUE,f,f,NA,NA,NA,3,6,"8,10,1,12,9,7,6,3,14,4,2,13,5,15,11"
14719,commdev-image-keyboard-response,215,921247,learnblock1,533.7000000476837,img/planet1_left.png,1,Community 1,NA,TRUE,f,f,NA,NA,NA,3,6,"8,10,1,12,9,7,6,3,14,4,2,13,5,15,11"
14719,commdev-image-keyboard-response,216,922498,learnblock1,542.2999999523163,img/planet9_left.png,9,Community 1,NA,TRUE,f,f,NA,NA,NA,3,6,"8,10,1,12,9,7,6,3,14,4,2,13,5,15,11"
14719,commdev-image-keyboard-response,217,923749,learnblock1,565.1999999284744,img/planet1_right.png,1,Community 1,NA,TRUE,j,j,NA,NA,NA,3,6,"8,10,1,12,9,7,6,3,14,4,2,13,5,15,11"
14719,commdev-image-keyboard-response,218,925001,learnblock1,526.9000000953674,img/planet9_right.png,9,Community 1,NA,TRUE,j,j,NA,NA,NA,3,6,"8,10,1,12,9,7,6,3,14,4,2,13,5,15,11"
14719,commdev-image-keyboard-response,219,926253,learnblock1,533,img/planet10_left.png,10,Community 1,NA,TRUE,f,f,NA,NA,NA,3,6,"8,10,1,12,9,7,6,3,14,4,2,13,5,15,11"
14719,commdev-image-keyboard-response,220,927506,learnblock1,656,img/planet8_right.png,8,Community 1,NA,TRUE,j,j,NA,NA,NA,3,6,"8,10,1,12,9,7,6,3,14,4,2,13,5,15,11"
14719,commdev-image-keyboard-response,221,928759,learnblock1,534.1000000238419,img/planet10_right.png,10,Community 1,NA,TRUE,j,j,NA,NA,NA,3,6,"8,10,1,12,9,7,6,3,14,4,2,13,5,15,11"
14719,commdev-image-keyboard-response,222,930012,learnblock1,617.3000000715256,img/planet8_right.png,8,Community 1,NA,TRUE,j,j,NA,NA,NA,3,6,"8,10,1,12,9,7,6,3,14,4,2,13,5,15,11"
14719,commdev-image-keyboard-response,223,931265,learnblock1,523.5,img/planet12_left.png,12,Community 1,NA,TRUE,f,f,NA,NA,NA,3,6,"8,10,1,12,9,7,6,3,14,4,2,13,5,15,11"
14719,commdev-image-keyboard-response,224,932517,learnblock1,621.4000000953674,img/planet7_right.png,7,Community 2,NA,TRUE,j,j,NA,NA,NA,3,6,"8,10,1,12,9,7,6,3,14,4,2,13,5,15,11"
14719,commdev-image-keyboard-response,225,933770,learnblock1,676.9000000953674,img/planet14_right.png,14,Community 2,NA,TRUE,j,j,NA,NA,NA,3,6,"8,10,1,12,9,7,6,3,14,4,2,13,5,15,11"
14719,commdev-image-keyboard-response,226,935022,learnblock1,620.5,img/planet7_left.png,7,Community 2,NA,TRUE,f,f,NA,NA,NA,3,6,"8,10,1,12,9,7,6,3,14,4,2,13,5,15,11"
14719,commdev-image-keyboard-response,227,936275,learnblock1,686,img/planet14_right.png,14,Community 2,NA,TRUE,j,j,NA,NA,NA,3,6,"8,10,1,12,9,7,6,3,14,4,2,13,5,15,11"
14719,commdev-image-keyboard-response,228,937528,learnblock1,549.8000000715256,img/planet7_right.png,7,Community 2,NA,TRUE,j,j,NA,NA,NA,3,6,"8,10,1,12,9,7,6,3,14,4,2,13,5,15,11"
14719,commdev-image-keyboard-response,229,938781,learnblock1,519.3000000715256,img/planet4_left.png,4,Community 2,NA,TRUE,f,f,NA,NA,NA,3,6,"8,10,1,12,9,7,6,3,14,4,2,13,5,15,11"
14719,commdev-image-keyboard-response,230,940033,learnblock1,633.3999999761581,img/planet7_left.png,7,Community 2,NA,TRUE,f,f,NA,NA,NA,3,6,"8,10,1,12,9,7,6,3,14,4,2,13,5,15,11"
14719,commdev-image-keyboard-response,231,941286,learnblock1,492.3000000715256,img/planet4_right.png,4,Community 2,NA,TRUE,j,j,NA,NA,NA,3,6,"8,10,1,12,9,7,6,3,14,4,2,13,5,15,11"
14719,commdev-image-keyboard-response,232,942539,learnblock1,594.2999999523163,img/planet7_right.png,7,Community 2,NA,TRUE,j,j,NA,NA,NA,3,6,"8,10,1,12,9,7,6,3,14,4,2,13,5,15,11"
14719,commdev-image-keyboard-response,233,943791,learnblock1,597.5,img/planet12_left.png,12,Community 1,NA,TRUE,f,f,NA,NA,NA,3,6,"8,10,1,12,9,7,6,3,14,4,2,13,5,15,11"
14719,commdev-image-keyboard-response,234,945043,learnblock1,568.5,img/planet1_left.png,1,Community 1,NA,TRUE,f,f,NA,NA,NA,3,6,"8,10,1,12,9,7,6,3,14,4,2,13,5,15,11"
14719,commdev-image-keyboard-response,235,946296,learnblock1,521.4000000953674,img/planet8_right.png,8,Community 1,NA,TRUE,j,j,NA,NA,NA,3,6,"8,10,1,12,9,7,6,3,14,4,2,13,5,15,11"
14719,commdev-image-keyboard-response,236,947548,learnblock1,528.6000000238419,img/planet12_right.png,12,Community 1,NA,TRUE,j,j,NA,NA,NA,3,6,"8,10,1,12,9,7,6,3,14,4,2,13,5,15,11"
14719,commdev-image-keyboard-response,237,948800,learnblock1,534.7999999523163,img/planet10_right.png,10,Community 1,NA,TRUE,j,j,NA,NA,NA,3,6,"8,10,1,12,9,7,6,3,14,4,2,13,5,15,11"
14719,commdev-image-keyboard-response,238,950054,learnblock1,516.1000000238419,img/planet9_left.png,9,Community 1,NA,TRUE,f,f,NA,NA,NA,3,6,"8,10,1,12,9,7,6,3,14,4,2,13,5,15,11"
14719,commdev-image-keyboard-response,239,951306,learnblock1,629.3999999761581,img/planet1_left.png,1,Community 1,NA,TRUE,f,f,NA,NA,NA,3,6,"8,10,1,12,9,7,6,3,14,4,2,13,5,15,11"
14719,commdev-image-keyboard-response,240,952560,learnblock1,551.1000000238419,img/planet12_right.png,12,Community 1,NA,TRUE,j,j,NA,NA,NA,3,6,"8,10,1,12,9,7,6,3,14,4,2,13,5,15,11"
14719,commdev-image-keyboard-response,241,953811,learnblock1,494.89999997615814,img/planet10_left.png,10,Community 1,NA,TRUE,f,f,NA,NA,NA,3,6,"8,10,1,12,9,7,6,3,14,4,2,13,5,15,11"
14719,commdev-image-keyboard-response,242,955065,learnblock1,583.5999999046326,img/planet9_left.png,9,Community 1,NA,TRUE,f,f,NA,NA,NA,3,6,"8,10,1,12,9,7,6,3,14,4,2,13,5,15,11"
14719,commdev-image-keyboard-response,243,956317,learnblock1,756,img/planet8_left.png,8,Community 1,NA,TRUE,f,f,NA,NA,NA,3,6,"8,10,1,12,9,7,6,3,14,4,2,13,5,15,11"
14719,commdev-image-keyboard-response,244,957569,learnblock1,542.6000000238419,img/planet12_right.png,12,Community 1,NA,TRUE,j,j,NA,NA,NA,3,6,"8,10,1,12,9,7,6,3,14,4,2,13,5,15,11"
14719,commdev-image-keyboard-response,245,958823,learnblock1,656.8999999761581,img/planet7_left.png,7,Community 2,NA,TRUE,f,f,NA,NA,NA,3,6,"8,10,1,12,9,7,6,3,14,4,2,13,5,15,11"
14719,commdev-image-keyboard-response,246,960075,learnblock1,608.5,img/planet4_right.png,4,Community 2,NA,FALSE,f,j,NA,NA,NA,3,6,"8,10,1,12,9,7,6,3,14,4,2,13,5,15,11"
14719,commdev-image-keyboard-response,247,961328,learnblock1,708.5,img/planet3_left.png,3,Community 2,NA,TRUE,f,f,NA,NA,NA,3,6,"8,10,1,12,9,7,6,3,14,4,2,13,5,15,11"
14719,commdev-image-keyboard-response,248,962580,learnblock1,787.2999999523163,img/planet6_right.png,6,Community 2,NA,TRUE,j,j,NA,NA,NA,3,6,"8,10,1,12,9,7,6,3,14,4,2,13,5,15,11"
14719,commdev-image-keyboard-response,249,963833,learnblock1,549.0999999046326,img/planet3_left.png,3,Community 2,NA,TRUE,f,f,NA,NA,NA,3,6,"8,10,1,12,9,7,6,3,14,4,2,13,5,15,11"
14719,commdev-image-keyboard-response,250,965085,learnblock1,533.6999999284744,img/planet6_right.png,6,Community 2,NA,TRUE,j,j,NA,NA,NA,3,6,"8,10,1,12,9,7,6,3,14,4,2,13,5,15,11"
14719,commdev-image-keyboard-response,251,966338,learnblock1,532.4000000953674,img/planet3_right.png,3,Community 2,NA,TRUE,j,j,NA,NA,NA,3,6,"8,10,1,12,9,7,6,3,14,4,2,13,5,15,11"
14719,commdev-image-keyboard-response,252,967591,learnblock1,596.2000000476837,img/planet14_right.png,14,Community 2,NA,TRUE,j,j,NA,NA,NA,3,6,"8,10,1,12,9,7,6,3,14,4,2,13,5,15,11"
14719,commdev-image-keyboard-response,253,968842,learnblock1,618.5,img/planet6_right.png,6,Community 2,NA,TRUE,j,j,NA,NA,NA,3,6,"8,10,1,12,9,7,6,3,14,4,2,13,5,15,11"
14719,commdev-image-keyboard-response,254,970095,learnblock1,570.7000000476837,img/planet14_left.png,14,Community 2,NA,TRUE,f,f,NA,NA,NA,3,6,"8,10,1,12,9,7,6,3,14,4,2,13,5,15,11"
14719,commdev-image-keyboard-response,255,971348,learnblock1,631.8999999761581,img/planet7_left.png,7,Community 2,NA,TRUE,f,f,NA,NA,NA,3,6,"8,10,1,12,9,7,6,3,14,4,2,13,5,15,11"
14719,commdev-image-keyboard-response,256,972600,learnblock1,708,img/planet4_left.png,4,Community 2,NA,TRUE,f,f,NA,NA,NA,3,6,"8,10,1,12,9,7,6,3,14,4,2,13,5,15,11"
14719,commdev-image-keyboard-response,257,973853,learnblock1,558.8000000715256,img/planet6_right.png,6,Community 2,NA,FALSE,f,j,NA,NA,NA,3,6,"8,10,1,12,9,7,6,3,14,4,2,13,5,15,11"
14719,commdev-image-keyboard-response,258,975105,learnblock1,734.7000000476837,img/planet14_left.png,14,Community 2,NA,TRUE,f,f,NA,NA,NA,3,6,"8,10,1,12,9,7,6,3,14,4,2,13,5,15,11"
14719,commdev-image-keyboard-response,259,976358,learnblock1,592,img/planet4_left.png,4,Community 2,NA,TRUE,f,f,NA,NA,NA,3,6,"8,10,1,12,9,7,6,3,14,4,2,13,5,15,11"
14719,commdev-image-keyboard-response,260,977611,learnblock1,656.8000000715256,img/planet14_right.png,14,Community 2,NA,TRUE,j,j,NA,NA,NA,3,6,"8,10,1,12,9,7,6,3,14,4,2,13,5,15,11"
14719,commdev-image-keyboard-response,261,978862,learnblock1,676.7000000476837,img/planet7_left.png,7,Community 2,NA,TRUE,f,f,NA,NA,NA,3,6,"8,10,1,12,9,7,6,3,14,4,2,13,5,15,11"
14719,commdev-image-keyboard-response,262,980113,learnblock1,549.8999999761581,img/planet12_right.png,12,Community 1,NA,TRUE,j,j,NA,NA,NA,3,6,"8,10,1,12,9,7,6,3,14,4,2,13,5,15,11"
14719,commdev-image-keyboard-response,263,981366,learnblock1,753,img/planet8_right.png,8,Community 1,NA,TRUE,j,j,NA,NA,NA,3,6,"8,10,1,12,9,7,6,3,14,4,2,13,5,15,11"
14719,commdev-image-keyboard-response,264,982618,learnblock1,597.2000000476837,img/planet1_left.png,1,Community 1,NA,TRUE,f,f,NA,NA,NA,3,6,"8,10,1,12,9,7,6,3,14,4,2,13,5,15,11"
14719,commdev-image-keyboard-response,265,983871,learnblock1,594.2999999523163,img/planet9_left.png,9,Community 1,NA,TRUE,f,f,NA,NA,NA,3,6,"8,10,1,12,9,7,6,3,14,4,2,13,5,15,11"
14719,commdev-image-keyboard-response,266,985124,learnblock1,841.7999999523163,img/planet1_left.png,1,Community 1,NA,TRUE,f,f,NA,NA,NA,3,6,"8,10,1,12,9,7,6,3,14,4,2,13,5,15,11"
14719,commdev-image-keyboard-response,267,986377,learnblock1,597.2999999523163,img/planet10_left.png,10,Community 1,NA,TRUE,f,f,NA,NA,NA,3,6,"8,10,1,12,9,7,6,3,14,4,2,13,5,15,11"
14719,commdev-image-keyboard-response,268,987629,learnblock1,541.3999999761581,img/planet12_right.png,12,Community 1,NA,TRUE,j,j,NA,NA,NA,3,6,"8,10,1,12,9,7,6,3,14,4,2,13,5,15,11"
14719,commdev-image-keyboard-response,269,988882,learnblock1,576.8999999761581,img/planet10_left.png,10,Community 1,NA,TRUE,f,f,NA,NA,NA,3,6,"8,10,1,12,9,7,6,3,14,4,2,13,5,15,11"
14719,commdev-image-keyboard-response,270,990135,learnblock1,624.8999999761581,img/planet8_left.png,8,Community 1,NA,TRUE,f,f,NA,NA,NA,3,6,"8,10,1,12,9,7,6,3,14,4,2,13,5,15,11"
14719,commdev-image-keyboard-response,271,991387,learnblock1,502.2999999523163,img/planet1_right.png,1,Community 1,NA,TRUE,j,j,NA,NA,NA,3,6,"8,10,1,12,9,7,6,3,14,4,2,13,5,15,11"
14719,commdev-image-keyboard-response,272,992640,learnblock1,734.6000000238419,img/planet8_right.png,8,Community 1,NA,TRUE,j,j,NA,NA,NA,3,6,"8,10,1,12,9,7,6,3,14,4,2,13,5,15,11"
14719,commdev-image-keyboard-response,273,993891,learnblock1,787.2999999523163,img/planet1_right.png,1,Community 1,NA,TRUE,j,j,NA,NA,NA,3,6,"8,10,1,12,9,7,6,3,14,4,2,13,5,15,11"
14719,commdev-image-keyboard-response,274,995144,learnblock1,500.2999999523163,img/planet10_right.png,10,Community 1,NA,TRUE,j,j,NA,NA,NA,3,6,"8,10,1,12,9,7,6,3,14,4,2,13,5,15,11"
14719,commdev-image-keyboard-response,275,996397,learnblock1,520.3999999761581,img/planet12_right.png,12,Community 1,NA,TRUE,j,j,NA,NA,NA,3,6,"8,10,1,12,9,7,6,3,14,4,2,13,5,15,11"
14719,commdev-image-keyboard-response,276,997648,learnblock1,535,img/planet1_right.png,1,Community 1,NA,TRUE,j,j,NA,NA,NA,3,6,"8,10,1,12,9,7,6,3,14,4,2,13,5,15,11"
14719,commdev-image-keyboard-response,277,998902,learnblock1,477.39999997615814,img/planet10_right.png,10,Community 1,NA,TRUE,j,j,NA,NA,NA,3,6,"8,10,1,12,9,7,6,3,14,4,2,13,5,15,11"
14719,commdev-image-keyboard-response,278,1000155,learnblock1,579,img/planet1_left.png,1,Community 1,NA,TRUE,f,f,NA,NA,NA,3,6,"8,10,1,12,9,7,6,3,14,4,2,13,5,15,11"
14719,commdev-image-keyboard-response,279,1001408,learnblock1,877.5,img/planet12_left.png,12,Community 1,NA,TRUE,f,f,NA,NA,NA,3,6,"8,10,1,12,9,7,6,3,14,4,2,13,5,15,11"
14719,commdev-image-keyboard-response,280,1002660,learnblock1,685.5,img/planet1_left.png,1,Community 1,NA,TRUE,f,f,NA,NA,NA,3,6,"8,10,1,12,9,7,6,3,14,4,2,13,5,15,11"
14719,commdev-image-keyboard-response,281,1003912,learnblock1,514.6000000238419,img/planet10_right.png,10,Community 1,NA,TRUE,j,j,NA,NA,NA,3,6,"8,10,1,12,9,7,6,3,14,4,2,13,5,15,11"
14719,commdev-image-keyboard-response,282,1005165,learnblock1,561.8999999761581,img/planet8_right.png,8,Community 1,NA,TRUE,j,j,NA,NA,NA,3,6,"8,10,1,12,9,7,6,3,14,4,2,13,5,15,11"
14719,commdev-image-keyboard-response,283,1006417,learnblock1,642.5,img/planet12_left.png,12,Community 1,NA,TRUE,f,f,NA,NA,NA,3,6,"8,10,1,12,9,7,6,3,14,4,2,13,5,15,11"
14719,commdev-image-keyboard-response,284,1007669,learnblock1,608.6999999284744,img/planet8_left.png,8,Community 1,NA,TRUE,f,f,NA,NA,NA,3,6,"8,10,1,12,9,7,6,3,14,4,2,13,5,15,11"
14719,commdev-image-keyboard-response,285,1008921,learnblock1,555.8999999761581,img/planet1_right.png,1,Community 1,NA,TRUE,j,j,NA,NA,NA,3,6,"8,10,1,12,9,7,6,3,14,4,2,13,5,15,11"
14719,commdev-image-keyboard-response,286,1010174,learnblock1,507.2000000476837,img/planet12_right.png,12,Community 1,NA,TRUE,j,j,NA,NA,NA,3,6,"8,10,1,12,9,7,6,3,14,4,2,13,5,15,11"
14719,commdev-image-keyboard-response,287,1011427,learnblock1,609.2999999523163,img/planet8_left.png,8,Community 1,NA,TRUE,f,f,NA,NA,NA,3,6,"8,10,1,12,9,7,6,3,14,4,2,13,5,15,11"
14719,commdev-image-keyboard-response,288,1012679,learnblock1,527.3000000715256,img/planet1_right.png,1,Community 1,NA,TRUE,j,j,NA,NA,NA,3,6,"8,10,1,12,9,7,6,3,14,4,2,13,5,15,11"
14719,commdev-image-keyboard-response,289,1013932,learnblock1,530.1000000238419,img/planet12_left.png,12,Community 1,NA,TRUE,f,f,NA,NA,NA,3,6,"8,10,1,12,9,7,6,3,14,4,2,13,5,15,11"
14719,commdev-image-keyboard-response,290,1015184,learnblock1,637.7999999523163,img/planet10_left.png,10,Community 1,NA,FALSE,j,f,NA,NA,NA,3,6,"8,10,1,12,9,7,6,3,14,4,2,13,5,15,11"
14719,commdev-image-keyboard-response,291,1016437,learnblock1,754.8000000715256,img/planet8_left.png,8,Community 1,NA,TRUE,f,f,NA,NA,NA,3,6,"8,10,1,12,9,7,6,3,14,4,2,13,5,15,11"
14719,commdev-image-keyboard-response,292,1017689,learnblock1,694,img/planet1_left.png,1,Community 1,NA,TRUE,f,f,NA,NA,NA,3,6,"8,10,1,12,9,7,6,3,14,4,2,13,5,15,11"
14719,commdev-image-keyboard-response,293,1018942,learnblock1,541.7000000476837,img/planet9_right.png,9,Community 1,NA,TRUE,j,j,NA,NA,NA,3,6,"8,10,1,12,9,7,6,3,14,4,2,13,5,15,11"
14719,commdev-image-keyboard-response,294,1020194,learnblock1,641.8999999761581,img/planet8_left.png,8,Community 1,NA,TRUE,f,f,NA,NA,NA,3,6,"8,10,1,12,9,7,6,3,14,4,2,13,5,15,11"
14719,commdev-image-keyboard-response,295,1021448,learnblock1,533.3999999761581,img/planet10_right.png,10,Community 1,NA,TRUE,j,j,NA,NA,NA,3,6,"8,10,1,12,9,7,6,3,14,4,2,13,5,15,11"
14719,commdev-image-keyboard-response,296,1022700,learnblock1,597.8999999761581,img/planet9_right.png,9,Community 1,NA,FALSE,f,j,NA,NA,NA,3,6,"8,10,1,12,9,7,6,3,14,4,2,13,5,15,11"
14719,commdev-image-keyboard-response,297,1023952,learnblock1,900.3999999761581,img/planet1_right.png,1,Community 1,NA,TRUE,j,j,NA,NA,NA,3,6,"8,10,1,12,9,7,6,3,14,4,2,13,5,15,11"
14719,commdev-image-keyboard-response,298,1025204,learnblock1,591.1000000238419,img/planet10_right.png,10,Community 1,NA,TRUE,j,j,NA,NA,NA,3,6,"8,10,1,12,9,7,6,3,14,4,2,13,5,15,11"
14719,commdev-image-keyboard-response,299,1026456,learnblock1,610.8999999761581,img/planet8_right.png,8,Community 1,NA,TRUE,j,j,NA,NA,NA,3,6,"8,10,1,12,9,7,6,3,14,4,2,13,5,15,11"
14719,commdev-image-keyboard-response,300,1027709,learnblock1,616.3999999761581,img/planet12_right.png,12,Community 1,NA,TRUE,j,j,NA,NA,NA,3,6,"8,10,1,12,9,7,6,3,14,4,2,13,5,15,11"
14719,commdev-image-keyboard-response,301,1028962,learnblock1,637.6000000238419,img/planet7_right.png,7,Community 2,NA,TRUE,j,j,NA,NA,NA,3,6,"8,10,1,12,9,7,6,3,14,4,2,13,5,15,11"
14719,commdev-image-keyboard-response,302,1030214,learnblock1,567.6000000238419,img/planet6_left.png,6,Community 2,NA,TRUE,f,f,NA,NA,NA,3,6,"8,10,1,12,9,7,6,3,14,4,2,13,5,15,11"
14719,commdev-image-keyboard-response,303,1031467,learnblock1,653.3000000715256,img/planet3_left.png,3,Community 2,NA,TRUE,f,f,NA,NA,NA,3,6,"8,10,1,12,9,7,6,3,14,4,2,13,5,15,11"
14719,commdev-image-keyboard-response,304,1032719,learnblock1,448.89999997615814,img/planet6_left.png,6,Community 2,NA,TRUE,f,f,NA,NA,NA,3,6,"8,10,1,12,9,7,6,3,14,4,2,13,5,15,11"
14719,commdev-image-keyboard-response,305,1033972,learnblock1,685.0999999046326,img/planet14_left.png,14,Community 2,NA,TRUE,f,f,NA,NA,NA,3,6,"8,10,1,12,9,7,6,3,14,4,2,13,5,15,11"
14719,commdev-image-keyboard-response,306,1035224,learnblock1,487.60000002384186,img/planet6_right.png,6,Community 2,NA,TRUE,j,j,NA,NA,NA,3,6,"8,10,1,12,9,7,6,3,14,4,2,13,5,15,11"
14719,commdev-image-keyboard-response,307,1036476,learnblock1,572,img/planet3_left.png,3,Community 2,NA,TRUE,f,f,NA,NA,NA,3,6,"8,10,1,12,9,7,6,3,14,4,2,13,5,15,11"
14719,commdev-image-keyboard-response,308,1037729,learnblock1,748.5,img/planet13_left.png,13,Community 3,NA,TRUE,f,f,NA,NA,NA,3,6,"8,10,1,12,9,7,6,3,14,4,2,13,5,15,11"
14719,commdev-image-keyboard-response,309,1038980,learnblock1,582.3999999761581,img/planet3_left.png,3,Community 2,NA,TRUE,f,f,NA,NA,NA,3,6,"8,10,1,12,9,7,6,3,14,4,2,13,5,15,11"
14719,commdev-image-keyboard-response,310,1040233,learnblock1,612.1999999284744,img/planet13_right.png,13,Community 3,NA,TRUE,j,j,NA,NA,NA,3,6,"8,10,1,12,9,7,6,3,14,4,2,13,5,15,11"
14719,commdev-image-keyboard-response,311,1041485,learnblock1,570.0999999046326,img/planet3_right.png,3,Community 2,NA,TRUE,j,j,NA,NA,NA,3,6,"8,10,1,12,9,7,6,3,14,4,2,13,5,15,11"
14719,commdev-image-keyboard-response,312,1042738,learnblock1,554.1999999284744,img/planet14_right.png,14,Community 2,NA,TRUE,j,j,NA,NA,NA,3,6,"8,10,1,12,9,7,6,3,14,4,2,13,5,15,11"
14719,commdev-image-keyboard-response,313,1043990,learnblock1,586.3999999761581,img/planet3_right.png,3,Community 2,NA,TRUE,j,j,NA,NA,NA,3,6,"8,10,1,12,9,7,6,3,14,4,2,13,5,15,11"
14719,commdev-image-keyboard-response,314,1045242,learnblock1,534.7000000476837,img/planet13_left.png,13,Community 3,NA,FALSE,j,f,NA,NA,NA,3,6,"8,10,1,12,9,7,6,3,14,4,2,13,5,15,11"
14719,commdev-image-keyboard-response,315,1046494,learnblock1,673.2999999523163,img/planet15_left.png,15,Community 3,NA,TRUE,f,f,NA,NA,NA,3,6,"8,10,1,12,9,7,6,3,14,4,2,13,5,15,11"
14719,commdev-image-keyboard-response,316,1047747,learnblock1,638.3000000715256,img/planet13_left.png,13,Community 3,NA,TRUE,f,f,NA,NA,NA,3,6,"8,10,1,12,9,7,6,3,14,4,2,13,5,15,11"
14719,commdev-image-keyboard-response,317,1049000,learnblock1,553,img/planet15_left.png,15,Community 3,NA,TRUE,f,f,NA,NA,NA,3,6,"8,10,1,12,9,7,6,3,14,4,2,13,5,15,11"
14719,commdev-image-keyboard-response,318,1050253,learnblock1,730.5999999046326,img/planet11_right.png,11,Community 3,NA,TRUE,j,j,NA,NA,NA,3,6,"8,10,1,12,9,7,6,3,14,4,2,13,5,15,11"
14719,commdev-image-keyboard-response,319,1051505,learnblock1,697.3999999761581,img/planet5_left.png,5,Community 3,NA,TRUE,f,f,NA,NA,NA,3,6,"8,10,1,12,9,7,6,3,14,4,2,13,5,15,11"
14719,commdev-image-keyboard-response,320,1052758,learnblock1,669.3999999761581,img/planet15_left.png,15,Community 3,NA,TRUE,f,f,NA,NA,NA,3,6,"8,10,1,12,9,7,6,3,14,4,2,13,5,15,11"
14719,commdev-image-keyboard-response,321,1054011,learnblock1,638.1000000238419,img/planet13_right.png,13,Community 3,NA,TRUE,j,j,NA,NA,NA,3,6,"8,10,1,12,9,7,6,3,14,4,2,13,5,15,11"
14719,commdev-image-keyboard-response,322,1055264,learnblock1,726.3999999761581,img/planet11_left.png,11,Community 3,NA,TRUE,f,f,NA,NA,NA,3,6,"8,10,1,12,9,7,6,3,14,4,2,13,5,15,11"
14719,commdev-image-keyboard-response,323,1056516,learnblock1,525.6000000238419,img/planet5_right.png,5,Community 3,NA,TRUE,j,j,NA,NA,NA,3,6,"8,10,1,12,9,7,6,3,14,4,2,13,5,15,11"
14719,commdev-image-keyboard-response,324,1057768,learnblock1,615.2999999523163,img/planet13_left.png,13,Community 3,NA,TRUE,f,f,NA,NA,NA,3,6,"8,10,1,12,9,7,6,3,14,4,2,13,5,15,11"
14719,commdev-image-keyboard-response,325,1059022,learnblock1,609,img/planet3_right.png,3,Community 2,NA,TRUE,j,j,NA,NA,NA,3,6,"8,10,1,12,9,7,6,3,14,4,2,13,5,15,11"
14719,commdev-image-keyboard-response,326,1060274,learnblock1,671,img/planet14_left.png,14,Community 2,NA,TRUE,f,f,NA,NA,NA,3,6,"8,10,1,12,9,7,6,3,14,4,2,13,5,15,11"
14719,commdev-image-keyboard-response,327,1061526,learnblock1,709.9000000953674,img/planet6_left.png,6,Community 2,NA,TRUE,f,f,NA,NA,NA,3,6,"8,10,1,12,9,7,6,3,14,4,2,13,5,15,11"
14719,commdev-image-keyboard-response,328,1062779,learnblock1,636.8999999761581,img/planet3_right.png,3,Community 2,NA,TRUE,j,j,NA,NA,NA,3,6,"8,10,1,12,9,7,6,3,14,4,2,13,5,15,11"
14719,commdev-image-keyboard-response,329,1064031,learnblock1,551.3999999761581,img/planet14_right.png,14,Community 2,NA,TRUE,j,j,NA,NA,NA,3,6,"8,10,1,12,9,7,6,3,14,4,2,13,5,15,11"
14719,commdev-image-keyboard-response,330,1065284,learnblock1,591.9000000953674,img/planet3_left.png,3,Community 2,NA,TRUE,f,f,NA,NA,NA,3,6,"8,10,1,12,9,7,6,3,14,4,2,13,5,15,11"
14719,commdev-image-keyboard-response,331,1066537,learnblock1,554.3000000715256,img/planet13_left.png,13,Community 3,NA,TRUE,f,f,NA,NA,NA,3,6,"8,10,1,12,9,7,6,3,14,4,2,13,5,15,11"
14719,commdev-image-keyboard-response,332,1067788,learnblock1,536.1999999284744,img/planet11_left.png,11,Community 3,NA,TRUE,f,f,NA,NA,NA,3,6,"8,10,1,12,9,7,6,3,14,4,2,13,5,15,11"
14719,commdev-image-keyboard-response,333,1069040,learnblock1,529,img/planet5_left.png,5,Community 3,NA,TRUE,f,f,NA,NA,NA,3,6,"8,10,1,12,9,7,6,3,14,4,2,13,5,15,11"
14719,commdev-image-keyboard-response,334,1070292,learnblock1,604.5,img/planet15_left.png,15,Community 3,NA,TRUE,f,f,NA,NA,NA,3,6,"8,10,1,12,9,7,6,3,14,4,2,13,5,15,11"
14719,commdev-image-keyboard-response,335,1071544,learnblock1,655.8999999761581,img/planet13_left.png,13,Community 3,NA,TRUE,f,f,NA,NA,NA,3,6,"8,10,1,12,9,7,6,3,14,4,2,13,5,15,11"
14719,commdev-image-keyboard-response,336,1072795,learnblock1,633.8999999761581,img/planet11_right.png,11,Community 3,NA,TRUE,j,j,NA,NA,NA,3,6,"8,10,1,12,9,7,6,3,14,4,2,13,5,15,11"
14719,commdev-image-keyboard-response,337,1074047,learnblock1,563.1000000238419,img/planet5_left.png,5,Community 3,NA,TRUE,f,f,NA,NA,NA,3,6,"8,10,1,12,9,7,6,3,14,4,2,13,5,15,11"
14719,commdev-image-keyboard-response,338,1075300,learnblock1,498,img/planet11_right.png,11,Community 3,NA,TRUE,j,j,NA,NA,NA,3,6,"8,10,1,12,9,7,6,3,14,4,2,13,5,15,11"
14719,commdev-image-keyboard-response,339,1076553,learnblock1,846.8999999761581,img/planet2_right.png,2,Community 3,NA,TRUE,j,j,NA,NA,NA,3,6,"8,10,1,12,9,7,6,3,14,4,2,13,5,15,11"
14719,commdev-image-keyboard-response,340,1077805,learnblock1,563,img/planet5_left.png,5,Community 3,NA,TRUE,f,f,NA,NA,NA,3,6,"8,10,1,12,9,7,6,3,14,4,2,13,5,15,11"
14719,commdev-image-keyboard-response,341,1079058,learnblock1,610,img/planet13_right.png,13,Community 3,NA,TRUE,j,j,NA,NA,NA,3,6,"8,10,1,12,9,7,6,3,14,4,2,13,5,15,11"
14719,commdev-image-keyboard-response,342,1080310,learnblock1,650.2999999523163,img/planet11_right.png,11,Community 3,NA,TRUE,j,j,NA,NA,NA,3,6,"8,10,1,12,9,7,6,3,14,4,2,13,5,15,11"
14719,commdev-image-keyboard-response,343,1081563,learnblock1,560.6000000238419,img/planet13_right.png,13,Community 3,NA,TRUE,j,j,NA,NA,NA,3,6,"8,10,1,12,9,7,6,3,14,4,2,13,5,15,11"
14719,commdev-image-keyboard-response,344,1082816,learnblock1,568.2999999523163,img/planet5_right.png,5,Community 3,NA,TRUE,j,j,NA,NA,NA,3,6,"8,10,1,12,9,7,6,3,14,4,2,13,5,15,11"
14719,commdev-image-keyboard-response,345,1084067,learnblock1,778.6000000238419,img/planet11_left.png,11,Community 3,NA,TRUE,f,f,NA,NA,NA,3,6,"8,10,1,12,9,7,6,3,14,4,2,13,5,15,11"
14719,commdev-image-keyboard-response,346,1085319,learnblock1,679.3999999761581,img/planet15_right.png,15,Community 3,NA,TRUE,j,j,NA,NA,NA,3,6,"8,10,1,12,9,7,6,3,14,4,2,13,5,15,11"
14719,commdev-image-keyboard-response,347,1086571,learnblock1,673.5,img/planet2_right.png,2,Community 3,NA,TRUE,j,j,NA,NA,NA,3,6,"8,10,1,12,9,7,6,3,14,4,2,13,5,15,11"
14719,commdev-image-keyboard-response,348,1087824,learnblock1,588.5999999046326,img/planet5_right.png,5,Community 3,NA,TRUE,j,j,NA,NA,NA,3,6,"8,10,1,12,9,7,6,3,14,4,2,13,5,15,11"
14719,commdev-image-keyboard-response,349,1089076,learnblock1,761.3999999761581,img/planet13_right.png,13,Community 3,NA,TRUE,j,j,NA,NA,NA,3,6,"8,10,1,12,9,7,6,3,14,4,2,13,5,15,11"
14719,commdev-image-keyboard-response,350,1090329,learnblock1,609.0999999046326,img/planet5_right.png,5,Community 3,NA,TRUE,j,j,NA,NA,NA,3,6,"8,10,1,12,9,7,6,3,14,4,2,13,5,15,11"
14719,commdev-image-keyboard-response,351,1091581,learnblock1,878.1000000238419,img/planet15_right.png,15,Community 3,NA,TRUE,j,j,NA,NA,NA,3,6,"8,10,1,12,9,7,6,3,14,4,2,13,5,15,11"
14719,commdev-image-keyboard-response,352,1092834,learnblock1,558.6999999284744,img/planet11_right.png,11,Community 3,NA,TRUE,j,j,NA,NA,NA,3,6,"8,10,1,12,9,7,6,3,14,4,2,13,5,15,11"
14719,commdev-image-keyboard-response,353,1094087,learnblock1,648.6000000238419,img/planet5_left.png,5,Community 3,NA,TRUE,f,f,NA,NA,NA,3,6,"8,10,1,12,9,7,6,3,14,4,2,13,5,15,11"
14719,commdev-image-keyboard-response,354,1095339,learnblock1,562.2999999523163,img/planet13_right.png,13,Community 3,NA,TRUE,j,j,NA,NA,NA,3,6,"8,10,1,12,9,7,6,3,14,4,2,13,5,15,11"
14719,commdev-image-keyboard-response,355,1096592,learnblock1,532,img/planet15_left.png,15,Community 3,NA,TRUE,f,f,NA,NA,NA,3,6,"8,10,1,12,9,7,6,3,14,4,2,13,5,15,11"
14719,commdev-image-keyboard-response,356,1097845,learnblock1,574.8999999761581,img/planet5_right.png,5,Community 3,NA,TRUE,j,j,NA,NA,NA,3,6,"8,10,1,12,9,7,6,3,14,4,2,13,5,15,11"
14719,commdev-image-keyboard-response,357,1099098,learnblock1,499.8000000715256,img/planet2_left.png,2,Community 3,NA,TRUE,f,f,NA,NA,NA,3,6,"8,10,1,12,9,7,6,3,14,4,2,13,5,15,11"
14719,commdev-image-keyboard-response,358,1100351,learnblock1,814.1999999284744,img/planet9_left.png,9,Community 1,NA,TRUE,f,f,NA,NA,NA,3,6,"8,10,1,12,9,7,6,3,14,4,2,13,5,15,11"
14719,commdev-image-keyboard-response,359,1101604,learnblock1,611.2999999523163,img/planet2_right.png,2,Community 3,NA,TRUE,j,j,NA,NA,NA,3,6,"8,10,1,12,9,7,6,3,14,4,2,13,5,15,11"
14719,commdev-image-keyboard-response,360,1102856,learnblock1,526.3999999761581,img/planet15_left.png,15,Community 3,NA,TRUE,f,f,NA,NA,NA,3,6,"8,10,1,12,9,7,6,3,14,4,2,13,5,15,11"
14719,commdev-image-keyboard-response,361,1104109,learnblock1,622.1000000238419,img/planet5_left.png,5,Community 3,NA,TRUE,f,f,NA,NA,NA,3,6,"8,10,1,12,9,7,6,3,14,4,2,13,5,15,11"
14719,commdev-image-keyboard-response,362,1105362,learnblock1,565.2000000476837,img/planet13_right.png,13,Community 3,NA,TRUE,j,j,NA,NA,NA,3,6,"8,10,1,12,9,7,6,3,14,4,2,13,5,15,11"
14719,commdev-image-keyboard-response,363,1106614,learnblock1,666.8000000715256,img/planet15_right.png,15,Community 3,NA,TRUE,j,j,NA,NA,NA,3,6,"8,10,1,12,9,7,6,3,14,4,2,13,5,15,11"
14719,commdev-image-keyboard-response,364,1107867,learnblock1,601.7999999523163,img/planet5_right.png,5,Community 3,NA,TRUE,j,j,NA,NA,NA,3,6,"8,10,1,12,9,7,6,3,14,4,2,13,5,15,11"
14719,commdev-image-keyboard-response,365,1109119,learnblock1,521.1000000238419,img/planet11_right.png,11,Community 3,NA,TRUE,j,j,NA,NA,NA,3,6,"8,10,1,12,9,7,6,3,14,4,2,13,5,15,11"
14719,commdev-image-keyboard-response,366,1110371,learnblock1,589.7000000476837,img/planet5_right.png,5,Community 3,NA,TRUE,j,j,NA,NA,NA,3,6,"8,10,1,12,9,7,6,3,14,4,2,13,5,15,11"
14719,commdev-image-keyboard-response,367,1111624,learnblock1,615.6000000238419,img/planet2_right.png,2,Community 3,NA,TRUE,j,j,NA,NA,NA,3,6,"8,10,1,12,9,7,6,3,14,4,2,13,5,15,11"
14719,commdev-image-keyboard-response,368,1112877,learnblock1,695.2000000476837,img/planet15_left.png,15,Community 3,NA,TRUE,f,f,NA,NA,NA,3,6,"8,10,1,12,9,7,6,3,14,4,2,13,5,15,11"
14719,commdev-image-keyboard-response,369,1114130,learnblock1,723.0999999046326,img/planet11_right.png,11,Community 3,NA,TRUE,j,j,NA,NA,NA,3,6,"8,10,1,12,9,7,6,3,14,4,2,13,5,15,11"
14719,commdev-image-keyboard-response,370,1115382,learnblock1,659.2999999523163,img/planet15_right.png,15,Community 3,NA,FALSE,f,j,NA,NA,NA,3,6,"8,10,1,12,9,7,6,3,14,4,2,13,5,15,11"
14719,commdev-image-keyboard-response,371,1116635,learnblock1,689.6000000238419,img/planet13_left.png,13,Community 3,NA,TRUE,f,f,NA,NA,NA,3,6,"8,10,1,12,9,7,6,3,14,4,2,13,5,15,11"
14719,commdev-image-keyboard-response,372,1117887,learnblock1,658.6999999284744,img/planet15_right.png,15,Community 3,NA,TRUE,j,j,NA,NA,NA,3,6,"8,10,1,12,9,7,6,3,14,4,2,13,5,15,11"
14719,commdev-image-keyboard-response,373,1119140,learnblock1,611.6999999284744,img/planet11_left.png,11,Community 3,NA,TRUE,f,f,NA,NA,NA,3,6,"8,10,1,12,9,7,6,3,14,4,2,13,5,15,11"
14719,commdev-image-keyboard-response,374,1120392,learnblock1,785.3999999761581,img/planet5_right.png,5,Community 3,NA,TRUE,j,j,NA,NA,NA,3,6,"8,10,1,12,9,7,6,3,14,4,2,13,5,15,11"
14719,commdev-image-keyboard-response,375,1121645,learnblock1,550.7999999523163,img/planet2_right.png,2,Community 3,NA,TRUE,j,j,NA,NA,NA,3,6,"8,10,1,12,9,7,6,3,14,4,2,13,5,15,11"
14719,commdev-image-keyboard-response,376,1122898,learnblock1,629.5,img/planet15_right.png,15,Community 3,NA,TRUE,j,j,NA,NA,NA,3,6,"8,10,1,12,9,7,6,3,14,4,2,13,5,15,11"
14719,commdev-image-keyboard-response,377,1124150,learnblock1,604.8999999761581,img/planet11_right.png,11,Community 3,NA,TRUE,j,j,NA,NA,NA,3,6,"8,10,1,12,9,7,6,3,14,4,2,13,5,15,11"
14719,commdev-image-keyboard-response,378,1125402,learnblock1,668.4000000953674,img/planet5_left.png,5,Community 3,NA,TRUE,f,f,NA,NA,NA,3,6,"8,10,1,12,9,7,6,3,14,4,2,13,5,15,11"
14719,commdev-image-keyboard-response,379,1126654,learnblock1,724.1000000238419,img/planet13_right.png,13,Community 3,NA,TRUE,j,j,NA,NA,NA,3,6,"8,10,1,12,9,7,6,3,14,4,2,13,5,15,11"
14719,commdev-image-keyboard-response,380,1127907,learnblock1,598.6000000238419,img/planet5_right.png,5,Community 3,NA,TRUE,j,j,NA,NA,NA,3,6,"8,10,1,12,9,7,6,3,14,4,2,13,5,15,11"
14719,commdev-image-keyboard-response,381,1129159,learnblock1,719.2999999523163,img/planet13_right.png,13,Community 3,NA,TRUE,j,j,NA,NA,NA,3,6,"8,10,1,12,9,7,6,3,14,4,2,13,5,15,11"
14719,commdev-image-keyboard-response,382,1130411,learnblock1,621.7999999523163,img/planet3_right.png,3,Community 2,NA,TRUE,j,j,NA,NA,NA,3,6,"8,10,1,12,9,7,6,3,14,4,2,13,5,15,11"
14719,commdev-image-keyboard-response,383,1131663,learnblock1,730.1000000238419,img/planet4_right.png,4,Community 2,NA,TRUE,j,j,NA,NA,NA,3,6,"8,10,1,12,9,7,6,3,14,4,2,13,5,15,11"
14719,commdev-image-keyboard-response,384,1132916,learnblock1,840.3999999761581,img/planet7_right.png,7,Community 2,NA,TRUE,j,j,NA,NA,NA,3,6,"8,10,1,12,9,7,6,3,14,4,2,13,5,15,11"
14719,commdev-image-keyboard-response,385,1134168,learnblock1,651.5,img/planet12_left.png,12,Community 1,NA,TRUE,f,f,NA,NA,NA,3,6,"8,10,1,12,9,7,6,3,14,4,2,13,5,15,11"
14719,commdev-image-keyboard-response,386,1135421,learnblock1,711.9000000953674,img/planet7_right.png,7,Community 2,NA,TRUE,j,j,NA,NA,NA,3,6,"8,10,1,12,9,7,6,3,14,4,2,13,5,15,11"
14719,commdev-image-keyboard-response,387,1136673,learnblock1,495.3000000715256,img/planet12_left.png,12,Community 1,NA,TRUE,f,f,NA,NA,NA,3,6,"8,10,1,12,9,7,6,3,14,4,2,13,5,15,11"
14719,commdev-image-keyboard-response,388,1137925,learnblock1,625.5,img/planet8_right.png,8,Community 1,NA,TRUE,j,j,NA,NA,NA,3,6,"8,10,1,12,9,7,6,3,14,4,2,13,5,15,11"
14719,commdev-image-keyboard-response,389,1139177,learnblock1,549.3999999761581,img/planet9_right.png,9,Community 1,NA,TRUE,j,j,NA,NA,NA,3,6,"8,10,1,12,9,7,6,3,14,4,2,13,5,15,11"
14719,commdev-image-keyboard-response,390,1140429,learnblock1,618.8999999761581,img/planet10_left.png,10,Community 1,NA,TRUE,f,f,NA,NA,NA,3,6,"8,10,1,12,9,7,6,3,14,4,2,13,5,15,11"
14719,commdev-image-keyboard-response,391,1141682,learnblock1,745,img/planet8_left.png,8,Community 1,NA,TRUE,f,f,NA,NA,NA,3,6,"8,10,1,12,9,7,6,3,14,4,2,13,5,15,11"
14719,commdev-image-keyboard-response,392,1142934,learnblock1,616.5,img/planet1_left.png,1,Community 1,NA,TRUE,f,f,NA,NA,NA,3,6,"8,10,1,12,9,7,6,3,14,4,2,13,5,15,11"
14719,commdev-image-keyboard-response,393,1144187,learnblock1,761.5,img/planet8_left.png,8,Community 1,NA,TRUE,f,f,NA,NA,NA,3,6,"8,10,1,12,9,7,6,3,14,4,2,13,5,15,11"
14719,commdev-image-keyboard-response,394,1145440,learnblock1,560.2999999523163,img/planet10_right.png,10,Community 1,NA,TRUE,j,j,NA,NA,NA,3,6,"8,10,1,12,9,7,6,3,14,4,2,13,5,15,11"
14719,commdev-image-keyboard-response,395,1146692,learnblock1,537.5,img/planet1_left.png,1,Community 1,NA,TRUE,f,f,NA,NA,NA,3,6,"8,10,1,12,9,7,6,3,14,4,2,13,5,15,11"
14719,commdev-image-keyboard-response,396,1147944,learnblock1,544,img/planet9_right.png,9,Community 1,NA,TRUE,j,j,NA,NA,NA,3,6,"8,10,1,12,9,7,6,3,14,4,2,13,5,15,11"
14719,commdev-image-keyboard-response,397,1149197,learnblock1,467.90000009536743,img/planet2_right.png,2,Community 3,NA,TRUE,j,j,NA,NA,NA,3,6,"8,10,1,12,9,7,6,3,14,4,2,13,5,15,11"
14719,commdev-image-keyboard-response,398,1150450,learnblock1,481.10000002384186,img/planet9_left.png,9,Community 1,NA,FALSE,j,f,NA,NA,NA,3,6,"8,10,1,12,9,7,6,3,14,4,2,13,5,15,11"
14719,commdev-image-keyboard-response,399,1151702,learnblock1,658.6999999284744,img/planet8_right.png,8,Community 1,NA,TRUE,j,j,NA,NA,NA,3,6,"8,10,1,12,9,7,6,3,14,4,2,13,5,15,11"
14719,commdev-image-keyboard-response,400,1152954,learnblock1,655.1000000238419,img/planet1_left.png,1,Community 1,NA,TRUE,f,f,NA,NA,NA,3,6,"8,10,1,12,9,7,6,3,14,4,2,13,5,15,11"
14719,commdev-image-keyboard-response,401,1154207,learnblock1,598.7000000476837,img/planet9_right.png,9,Community 1,NA,TRUE,j,j,NA,NA,NA,3,6,"8,10,1,12,9,7,6,3,14,4,2,13,5,15,11"
14719,commdev-image-keyboard-response,402,1155459,learnblock1,609.2999999523163,img/planet10_right.png,10,Community 1,NA,TRUE,j,j,NA,NA,NA,3,6,"8,10,1,12,9,7,6,3,14,4,2,13,5,15,11"
14719,commdev-image-keyboard-response,403,1156712,learnblock1,566.2000000476837,img/planet12_right.png,12,Community 1,NA,TRUE,j,j,NA,NA,NA,3,6,"8,10,1,12,9,7,6,3,14,4,2,13,5,15,11"
14719,commdev-image-keyboard-response,404,1157965,learnblock1,621.5999999046326,img/planet7_left.png,7,Community 2,NA,TRUE,f,f,NA,NA,NA,3,6,"8,10,1,12,9,7,6,3,14,4,2,13,5,15,11"
14719,commdev-image-keyboard-response,405,1159217,learnblock1,997.2000000476837,img/planet6_left.png,6,Community 2,NA,TRUE,f,f,NA,NA,NA,3,6,"8,10,1,12,9,7,6,3,14,4,2,13,5,15,11"
14719,commdev-image-keyboard-response,406,1160469,learnblock1,778.1000000238419,img/planet7_right.png,7,Community 2,NA,TRUE,j,j,NA,NA,NA,3,6,"8,10,1,12,9,7,6,3,14,4,2,13,5,15,11"
14719,commdev-image-keyboard-response,407,1161722,learnblock1,525.6000000238419,img/planet12_left.png,12,Community 1,NA,TRUE,f,f,NA,NA,NA,3,6,"8,10,1,12,9,7,6,3,14,4,2,13,5,15,11"
14719,commdev-image-keyboard-response,408,1162974,learnblock1,821.6999999284744,img/planet7_left.png,7,Community 2,NA,TRUE,f,f,NA,NA,NA,3,6,"8,10,1,12,9,7,6,3,14,4,2,13,5,15,11"
14719,commdev-image-keyboard-response,409,1164226,learnblock1,704.2000000476837,img/planet6_left.png,6,Community 2,NA,TRUE,f,f,NA,NA,NA,3,6,"8,10,1,12,9,7,6,3,14,4,2,13,5,15,11"
14719,commdev-image-keyboard-response,410,1165479,learnblock1,515.9000000953674,img/planet4_right.png,4,Community 2,NA,TRUE,j,j,NA,NA,NA,3,6,"8,10,1,12,9,7,6,3,14,4,2,13,5,15,11"
14719,commdev-image-keyboard-response,411,1166733,learnblock1,653.1000000238419,img/planet7_right.png,7,Community 2,NA,TRUE,j,j,NA,NA,NA,3,6,"8,10,1,12,9,7,6,3,14,4,2,13,5,15,11"
14719,commdev-image-keyboard-response,412,1167986,learnblock1,657.1999999284744,img/planet12_right.png,12,Community 1,NA,TRUE,j,j,NA,NA,NA,3,6,"8,10,1,12,9,7,6,3,14,4,2,13,5,15,11"
14719,commdev-image-keyboard-response,413,1169237,learnblock1,698.1000000238419,img/planet7_left.png,7,Community 2,NA,TRUE,f,f,NA,NA,NA,3,6,"8,10,1,12,9,7,6,3,14,4,2,13,5,15,11"
14719,commdev-image-keyboard-response,414,1170490,learnblock1,823,img/planet14_left.png,14,Community 2,NA,TRUE,f,f,NA,NA,NA,3,6,"8,10,1,12,9,7,6,3,14,4,2,13,5,15,11"
14719,commdev-image-keyboard-response,415,1171744,learnblock1,618.8999999761581,img/planet6_left.png,6,Community 2,NA,TRUE,f,f,NA,NA,NA,3,6,"8,10,1,12,9,7,6,3,14,4,2,13,5,15,11"
14719,commdev-image-keyboard-response,416,1172996,learnblock1,null,img/planet14_right.png,14,Community 2,NA,FALSE,null,j,NA,NA,NA,3,6,"8,10,1,12,9,7,6,3,14,4,2,13,5,15,11"
14719,commdev-image-keyboard-response,417,1174249,learnblock1,766.5999999046326,img/planet3_left.png,3,Community 2,NA,TRUE,f,f,NA,NA,NA,3,6,"8,10,1,12,9,7,6,3,14,4,2,13,5,15,11"
14719,commdev-image-keyboard-response,418,1175502,learnblock1,704.1000000238419,img/planet13_left.png,13,Community 3,NA,TRUE,f,f,NA,NA,NA,3,6,"8,10,1,12,9,7,6,3,14,4,2,13,5,15,11"
14719,commdev-image-keyboard-response,419,1176755,learnblock1,651.2999999523163,img/planet5_right.png,5,Community 3,NA,FALSE,f,j,NA,NA,NA,3,6,"8,10,1,12,9,7,6,3,14,4,2,13,5,15,11"
14719,commdev-image-keyboard-response,420,1178008,learnblock1,1182.6999999284744,img/planet15_right.png,15,Community 3,NA,TRUE,j,j,NA,NA,NA,3,6,"8,10,1,12,9,7,6,3,14,4,2,13,5,15,11"
14719,commdev-image-keyboard-response,421,1179261,learnblock1,860.2000000476837,img/planet13_left.png,13,Community 3,NA,TRUE,f,f,NA,NA,NA,3,6,"8,10,1,12,9,7,6,3,14,4,2,13,5,15,11"
14719,commdev-image-keyboard-response,422,1180514,learnblock1,865.7999999523163,img/planet15_left.png,15,Community 3,NA,TRUE,f,f,NA,NA,NA,3,6,"8,10,1,12,9,7,6,3,14,4,2,13,5,15,11"
14719,commdev-image-keyboard-response,423,1181767,learnblock1,896.5,img/planet13_left.png,13,Community 3,NA,TRUE,f,f,NA,NA,NA,3,6,"8,10,1,12,9,7,6,3,14,4,2,13,5,15,11"
14719,commdev-image-keyboard-response,424,1183020,learnblock1,606.2999999523163,img/planet15_left.png,15,Community 3,NA,TRUE,f,f,NA,NA,NA,3,6,"8,10,1,12,9,7,6,3,14,4,2,13,5,15,11"
14719,commdev-image-keyboard-response,425,1184272,learnblock1,616.5,img/planet2_left.png,2,Community 3,NA,TRUE,f,f,NA,NA,NA,3,6,"8,10,1,12,9,7,6,3,14,4,2,13,5,15,11"
14719,commdev-image-keyboard-response,426,1185525,learnblock1,523.1000000238419,img/planet5_right.png,5,Community 3,NA,TRUE,j,j,NA,NA,NA,3,6,"8,10,1,12,9,7,6,3,14,4,2,13,5,15,11"
14719,commdev-image-keyboard-response,427,1186778,learnblock1,849.3999999761581,img/planet11_right.png,11,Community 3,NA,TRUE,j,j,NA,NA,NA,3,6,"8,10,1,12,9,7,6,3,14,4,2,13,5,15,11"
14719,commdev-image-keyboard-response,428,1188031,learnblock1,648.3999999761581,img/planet2_right.png,2,Community 3,NA,TRUE,j,j,NA,NA,NA,3,6,"8,10,1,12,9,7,6,3,14,4,2,13,5,15,11"
14719,commdev-image-keyboard-response,429,1189284,learnblock1,645.3000000715256,img/planet15_right.png,15,Community 3,NA,TRUE,j,j,NA,NA,NA,3,6,"8,10,1,12,9,7,6,3,14,4,2,13,5,15,11"
14719,commdev-image-keyboard-response,433,1411652,learnblock2,707,img/planet9_left.png,9,Community 1,NA,TRUE,f,f,NA,NA,NA,3,6,"8,10,1,12,9,7,6,3,14,4,2,13,5,15,11"
14719,commdev-image-keyboard-response,434,1412904,learnblock2,485.60000002384186,img/planet2_left.png,2,Community 3,NA,TRUE,f,f,NA,NA,NA,3,6,"8,10,1,12,9,7,6,3,14,4,2,13,5,15,11"
14719,commdev-image-keyboard-response,435,1414157,learnblock2,470.2000000476837,img/planet9_left.png,9,Community 1,NA,TRUE,f,f,NA,NA,NA,3,6,"8,10,1,12,9,7,6,3,14,4,2,13,5,15,11"
14719,commdev-image-keyboard-response,436,1415410,learnblock2,448.90000009536743,img/planet10_left.png,10,Community 1,NA,TRUE,f,f,NA,NA,NA,3,6,"8,10,1,12,9,7,6,3,14,4,2,13,5,15,11"
14719,commdev-image-keyboard-response,437,1416663,learnblock2,441.7999999523163,img/planet9_right.png,9,Community 1,NA,TRUE,j,j,NA,NA,NA,3,6,"8,10,1,12,9,7,6,3,14,4,2,13,5,15,11"
14719,commdev-image-keyboard-response,438,1417916,learnblock2,574.8999999761581,img/planet8_left.png,8,Community 1,NA,TRUE,f,f,NA,NA,NA,3,6,"8,10,1,12,9,7,6,3,14,4,2,13,5,15,11"
14719,commdev-image-keyboard-response,439,1419169,learnblock2,451.2000000476837,img/planet9_right.png,9,Community 1,NA,FALSE,f,j,NA,NA,NA,3,6,"8,10,1,12,9,7,6,3,14,4,2,13,5,15,11"
14719,commdev-image-keyboard-response,440,1420422,learnblock2,733.8000000715256,img/planet8_right.png,8,Community 1,NA,TRUE,j,j,NA,NA,NA,3,6,"8,10,1,12,9,7,6,3,14,4,2,13,5,15,11"
14719,commdev-image-keyboard-response,441,1421676,learnblock2,573.3000000715256,img/planet1_right.png,1,Community 1,NA,TRUE,j,j,NA,NA,NA,3,6,"8,10,1,12,9,7,6,3,14,4,2,13,5,15,11"
14719,commdev-image-keyboard-response,442,1422929,learnblock2,531.1999999284744,img/planet10_left.png,10,Community 1,NA,TRUE,f,f,NA,NA,NA,3,6,"8,10,1,12,9,7,6,3,14,4,2,13,5,15,11"
14719,commdev-image-keyboard-response,443,1424181,learnblock2,562.5,img/planet12_left.png,12,Community 1,NA,TRUE,f,f,NA,NA,NA,3,6,"8,10,1,12,9,7,6,3,14,4,2,13,5,15,11"
14719,commdev-image-keyboard-response,444,1425433,learnblock2,573.7999999523163,img/planet7_left.png,7,Community 2,NA,TRUE,f,f,NA,NA,NA,3,6,"8,10,1,12,9,7,6,3,14,4,2,13,5,15,11"
14719,commdev-image-keyboard-response,445,1426686,learnblock2,483.89999997615814,img/planet14_right.png,14,Community 2,NA,TRUE,j,j,NA,NA,NA,3,6,"8,10,1,12,9,7,6,3,14,4,2,13,5,15,11"
14719,commdev-image-keyboard-response,446,1427940,learnblock2,511.89999997615814,img/planet7_left.png,7,Community 2,NA,TRUE,f,f,NA,NA,NA,3,6,"8,10,1,12,9,7,6,3,14,4,2,13,5,15,11"
14719,commdev-image-keyboard-response,447,1429193,learnblock2,605.7000000476837,img/planet12_left.png,12,Community 1,NA,TRUE,f,f,NA,NA,NA,3,6,"8,10,1,12,9,7,6,3,14,4,2,13,5,15,11"
14719,commdev-image-keyboard-response,448,1430445,learnblock2,609.5,img/planet7_left.png,7,Community 2,NA,TRUE,f,f,NA,NA,NA,3,6,"8,10,1,12,9,7,6,3,14,4,2,13,5,15,11"
14719,commdev-image-keyboard-response,449,1431698,learnblock2,597.5999999046326,img/planet6_left.png,6,Community 2,NA,FALSE,j,f,NA,NA,NA,3,6,"8,10,1,12,9,7,6,3,14,4,2,13,5,15,11"
14719,commdev-image-keyboard-response,450,1432950,learnblock2,744.7000000476837,img/planet3_left.png,3,Community 2,NA,TRUE,f,f,NA,NA,NA,3,6,"8,10,1,12,9,7,6,3,14,4,2,13,5,15,11"
14719,commdev-image-keyboard-response,451,1434203,learnblock2,618.6000000238419,img/planet14_left.png,14,Community 2,NA,TRUE,f,f,NA,NA,NA,3,6,"8,10,1,12,9,7,6,3,14,4,2,13,5,15,11"
14719,commdev-image-keyboard-response,452,1435455,learnblock2,581.7000000476837,img/planet4_right.png,4,Community 2,NA,TRUE,j,j,NA,NA,NA,3,6,"8,10,1,12,9,7,6,3,14,4,2,13,5,15,11"
14719,commdev-image-keyboard-response,453,1436709,learnblock2,550.6999999284744,img/planet7_left.png,7,Community 2,NA,TRUE,f,f,NA,NA,NA,3,6,"8,10,1,12,9,7,6,3,14,4,2,13,5,15,11"
14719,commdev-image-keyboard-response,454,1437961,learnblock2,660.2999999523163,img/planet12_right.png,12,Community 1,NA,TRUE,j,j,NA,NA,NA,3,6,"8,10,1,12,9,7,6,3,14,4,2,13,5,15,11"
14719,commdev-image-keyboard-response,455,1439214,learnblock2,548.8999999761581,img/planet10_right.png,10,Community 1,NA,TRUE,j,j,NA,NA,NA,3,6,"8,10,1,12,9,7,6,3,14,4,2,13,5,15,11"
14719,commdev-image-keyboard-response,456,1440466,learnblock2,515.6000000238419,img/planet12_right.png,12,Community 1,NA,TRUE,j,j,NA,NA,NA,3,6,"8,10,1,12,9,7,6,3,14,4,2,13,5,15,11"
14719,commdev-image-keyboard-response,457,1441719,learnblock2,508.39999997615814,img/planet1_right.png,1,Community 1,NA,TRUE,j,j,NA,NA,NA,3,6,"8,10,1,12,9,7,6,3,14,4,2,13,5,15,11"
14719,commdev-image-keyboard-response,458,1442972,learnblock2,553.5,img/planet8_left.png,8,Community 1,NA,TRUE,f,f,NA,NA,NA,3,6,"8,10,1,12,9,7,6,3,14,4,2,13,5,15,11"
14719,commdev-image-keyboard-response,459,1444224,learnblock2,580.5,img/planet9_right.png,9,Community 1,NA,TRUE,j,j,NA,NA,NA,3,6,"8,10,1,12,9,7,6,3,14,4,2,13,5,15,11"
14719,commdev-image-keyboard-response,460,1445477,learnblock2,556.5,img/planet2_right.png,2,Community 3,NA,TRUE,j,j,NA,NA,NA,3,6,"8,10,1,12,9,7,6,3,14,4,2,13,5,15,11"
14719,commdev-image-keyboard-response,461,1446729,learnblock2,508.7999999523163,img/planet5_left.png,5,Community 3,NA,TRUE,f,f,NA,NA,NA,3,6,"8,10,1,12,9,7,6,3,14,4,2,13,5,15,11"
14719,commdev-image-keyboard-response,462,1447981,learnblock2,649.3000000715256,img/planet11_left.png,11,Community 3,NA,TRUE,f,f,NA,NA,NA,3,6,"8,10,1,12,9,7,6,3,14,4,2,13,5,15,11"
14719,commdev-image-keyboard-response,463,1449233,learnblock2,506.5,img/planet5_left.png,5,Community 3,NA,TRUE,f,f,NA,NA,NA,3,6,"8,10,1,12,9,7,6,3,14,4,2,13,5,15,11"
14719,commdev-image-keyboard-response,464,1450485,learnblock2,569.3999999761581,img/planet13_right.png,13,Community 3,NA,TRUE,j,j,NA,NA,NA,3,6,"8,10,1,12,9,7,6,3,14,4,2,13,5,15,11"
14719,commdev-image-keyboard-response,465,1451738,learnblock2,525.3999999761581,img/planet11_left.png,11,Community 3,NA,TRUE,f,f,NA,NA,NA,3,6,"8,10,1,12,9,7,6,3,14,4,2,13,5,15,11"
14719,commdev-image-keyboard-response,466,1452990,learnblock2,543.5,img/planet15_right.png,15,Community 3,NA,TRUE,j,j,NA,NA,NA,3,6,"8,10,1,12,9,7,6,3,14,4,2,13,5,15,11"
14719,commdev-image-keyboard-response,467,1454243,learnblock2,447.39999997615814,img/planet2_left.png,2,Community 3,NA,TRUE,f,f,NA,NA,NA,3,6,"8,10,1,12,9,7,6,3,14,4,2,13,5,15,11"
14719,commdev-image-keyboard-response,468,1455496,learnblock2,557.6000000238419,img/planet5_left.png,5,Community 3,NA,TRUE,f,f,NA,NA,NA,3,6,"8,10,1,12,9,7,6,3,14,4,2,13,5,15,11"
14719,commdev-image-keyboard-response,469,1456748,learnblock2,498.90000009536743,img/planet13_left.png,13,Community 3,NA,TRUE,f,f,NA,NA,NA,3,6,"8,10,1,12,9,7,6,3,14,4,2,13,5,15,11"
14719,commdev-image-keyboard-response,470,1458001,learnblock2,521.3999999761581,img/planet11_right.png,11,Community 3,NA,TRUE,j,j,NA,NA,NA,3,6,"8,10,1,12,9,7,6,3,14,4,2,13,5,15,11"
14719,commdev-image-keyboard-response,471,1459253,learnblock2,567.2999999523163,img/planet15_left.png,15,Community 3,NA,TRUE,f,f,NA,NA,NA,3,6,"8,10,1,12,9,7,6,3,14,4,2,13,5,15,11"
14719,commdev-image-keyboard-response,472,1460505,learnblock2,447.7000000476837,img/planet5_left.png,5,Community 3,NA,TRUE,f,f,NA,NA,NA,3,6,"8,10,1,12,9,7,6,3,14,4,2,13,5,15,11"
14719,commdev-image-keyboard-response,473,1461759,learnblock2,525.7999999523163,img/planet15_right.png,15,Community 3,NA,TRUE,j,j,NA,NA,NA,3,6,"8,10,1,12,9,7,6,3,14,4,2,13,5,15,11"
14719,commdev-image-keyboard-response,474,1463011,learnblock2,487.7999999523163,img/planet13_left.png,13,Community 3,NA,TRUE,f,f,NA,NA,NA,3,6,"8,10,1,12,9,7,6,3,14,4,2,13,5,15,11"
14719,commdev-image-keyboard-response,475,1464263,learnblock2,620.7999999523163,img/planet3_left.png,3,Community 2,NA,TRUE,f,f,NA,NA,NA,3,6,"8,10,1,12,9,7,6,3,14,4,2,13,5,15,11"
14719,commdev-image-keyboard-response,476,1465515,learnblock2,547.8999999761581,img/planet13_right.png,13,Community 3,NA,TRUE,j,j,NA,NA,NA,3,6,"8,10,1,12,9,7,6,3,14,4,2,13,5,15,11"
14719,commdev-image-keyboard-response,477,1466768,learnblock2,459.10000002384186,img/planet3_left.png,3,Community 2,NA,TRUE,f,f,NA,NA,NA,3,6,"8,10,1,12,9,7,6,3,14,4,2,13,5,15,11"
14719,commdev-image-keyboard-response,478,1468020,learnblock2,436.39999997615814,img/planet4_left.png,4,Community 2,NA,TRUE,f,f,NA,NA,NA,3,6,"8,10,1,12,9,7,6,3,14,4,2,13,5,15,11"
14719,commdev-image-keyboard-response,479,1469274,learnblock2,482.60000002384186,img/planet7_left.png,7,Community 2,NA,TRUE,f,f,NA,NA,NA,3,6,"8,10,1,12,9,7,6,3,14,4,2,13,5,15,11"
14719,commdev-image-keyboard-response,480,1470526,learnblock2,505.3000000715256,img/planet12_left.png,12,Community 1,NA,TRUE,f,f,NA,NA,NA,3,6,"8,10,1,12,9,7,6,3,14,4,2,13,5,15,11"
14719,commdev-image-keyboard-response,481,1471779,learnblock2,527.8999999761581,img/planet7_right.png,7,Community 2,NA,FALSE,f,j,NA,NA,NA,3,6,"8,10,1,12,9,7,6,3,14,4,2,13,5,15,11"
14719,commdev-image-keyboard-response,482,1473031,learnblock2,570.1999999284744,img/planet12_left.png,12,Community 1,NA,TRUE,f,f,NA,NA,NA,3,6,"8,10,1,12,9,7,6,3,14,4,2,13,5,15,11"
14719,commdev-image-keyboard-response,483,1474284,learnblock2,592.8999999761581,img/planet7_left.png,7,Community 2,NA,TRUE,f,f,NA,NA,NA,3,6,"8,10,1,12,9,7,6,3,14,4,2,13,5,15,11"
14719,commdev-image-keyboard-response,484,1475537,learnblock2,594.7999999523163,img/planet14_right.png,14,Community 2,NA,TRUE,j,j,NA,NA,NA,3,6,"8,10,1,12,9,7,6,3,14,4,2,13,5,15,11"
14719,commdev-image-keyboard-response,485,1476790,learnblock2,541,img/planet4_left.png,4,Community 2,NA,TRUE,f,f,NA,NA,NA,3,6,"8,10,1,12,9,7,6,3,14,4,2,13,5,15,11"
14719,commdev-image-keyboard-response,486,1478043,learnblock2,586.1000000238419,img/planet3_left.png,3,Community 2,NA,TRUE,f,f,NA,NA,NA,3,6,"8,10,1,12,9,7,6,3,14,4,2,13,5,15,11"
14719,commdev-image-keyboard-response,487,1479295,learnblock2,537.1000000238419,img/planet13_right.png,13,Community 3,NA,TRUE,j,j,NA,NA,NA,3,6,"8,10,1,12,9,7,6,3,14,4,2,13,5,15,11"
14719,commdev-image-keyboard-response,488,1480547,learnblock2,533.8999999761581,img/planet15_left.png,15,Community 3,NA,FALSE,j,f,NA,NA,NA,3,6,"8,10,1,12,9,7,6,3,14,4,2,13,5,15,11"
14719,commdev-image-keyboard-response,489,1481800,learnblock2,541.4000000953674,img/planet2_right.png,2,Community 3,NA,TRUE,j,j,NA,NA,NA,3,6,"8,10,1,12,9,7,6,3,14,4,2,13,5,15,11"
14719,commdev-image-keyboard-response,490,1483053,learnblock2,616.5,img/planet5_right.png,5,Community 3,NA,TRUE,j,j,NA,NA,NA,3,6,"8,10,1,12,9,7,6,3,14,4,2,13,5,15,11"
14719,commdev-image-keyboard-response,491,1484305,learnblock2,497.7999999523163,img/planet15_left.png,15,Community 3,NA,TRUE,f,f,NA,NA,NA,3,6,"8,10,1,12,9,7,6,3,14,4,2,13,5,15,11"
14719,commdev-image-keyboard-response,492,1485557,learnblock2,547.8999999761581,img/planet13_right.png,13,Community 3,NA,TRUE,j,j,NA,NA,NA,3,6,"8,10,1,12,9,7,6,3,14,4,2,13,5,15,11"
14719,commdev-image-keyboard-response,493,1486810,learnblock2,578.3999999761581,img/planet11_right.png,11,Community 3,NA,TRUE,j,j,NA,NA,NA,3,6,"8,10,1,12,9,7,6,3,14,4,2,13,5,15,11"
14719,commdev-image-keyboard-response,494,1488063,learnblock2,567.5,img/planet5_right.png,5,Community 3,NA,TRUE,j,j,NA,NA,NA,3,6,"8,10,1,12,9,7,6,3,14,4,2,13,5,15,11"
14719,commdev-image-keyboard-response,495,1489316,learnblock2,542.6000000238419,img/planet15_left.png,15,Community 3,NA,TRUE,f,f,NA,NA,NA,3,6,"8,10,1,12,9,7,6,3,14,4,2,13,5,15,11"
14719,commdev-image-keyboard-response,496,1490567,learnblock2,572.2000000476837,img/planet2_right.png,2,Community 3,NA,TRUE,j,j,NA,NA,NA,3,6,"8,10,1,12,9,7,6,3,14,4,2,13,5,15,11"
14719,commdev-image-keyboard-response,497,1491819,learnblock2,675.5,img/planet15_left.png,15,Community 3,NA,TRUE,f,f,NA,NA,NA,3,6,"8,10,1,12,9,7,6,3,14,4,2,13,5,15,11"
14719,commdev-image-keyboard-response,498,1493071,learnblock2,523,img/planet5_right.png,5,Community 3,NA,TRUE,j,j,NA,NA,NA,3,6,"8,10,1,12,9,7,6,3,14,4,2,13,5,15,11"
14719,commdev-image-keyboard-response,499,1494324,learnblock2,563.3999999761581,img/planet2_left.png,2,Community 3,NA,TRUE,f,f,NA,NA,NA,3,6,"8,10,1,12,9,7,6,3,14,4,2,13,5,15,11"
14719,commdev-image-keyboard-response,500,1495576,learnblock2,458.09999990463257,img/planet5_right.png,5,Community 3,NA,TRUE,j,j,NA,NA,NA,3,6,"8,10,1,12,9,7,6,3,14,4,2,13,5,15,11"
14719,commdev-image-keyboard-response,501,1496828,learnblock2,615.6999999284744,img/planet2_right.png,2,Community 3,NA,TRUE,j,j,NA,NA,NA,3,6,"8,10,1,12,9,7,6,3,14,4,2,13,5,15,11"
14719,commdev-image-keyboard-response,502,1498082,learnblock2,487.89999997615814,img/planet11_left.png,11,Community 3,NA,TRUE,f,f,NA,NA,NA,3,6,"8,10,1,12,9,7,6,3,14,4,2,13,5,15,11"
14719,commdev-image-keyboard-response,503,1499335,learnblock2,480.10000002384186,img/planet15_right.png,15,Community 3,NA,TRUE,j,j,NA,NA,NA,3,6,"8,10,1,12,9,7,6,3,14,4,2,13,5,15,11"
14719,commdev-image-keyboard-response,504,1500588,learnblock2,474.7000000476837,img/planet11_left.png,11,Community 3,NA,TRUE,f,f,NA,NA,NA,3,6,"8,10,1,12,9,7,6,3,14,4,2,13,5,15,11"
14719,commdev-image-keyboard-response,505,1501841,learnblock2,551.3000000715256,img/planet5_right.png,5,Community 3,NA,TRUE,j,j,NA,NA,NA,3,6,"8,10,1,12,9,7,6,3,14,4,2,13,5,15,11"
14719,commdev-image-keyboard-response,506,1503094,learnblock2,477.40000009536743,img/planet11_left.png,11,Community 3,NA,TRUE,f,f,NA,NA,NA,3,6,"8,10,1,12,9,7,6,3,14,4,2,13,5,15,11"
14719,commdev-image-keyboard-response,507,1504348,learnblock2,460.09999990463257,img/planet5_right.png,5,Community 3,NA,TRUE,j,j,NA,NA,NA,3,6,"8,10,1,12,9,7,6,3,14,4,2,13,5,15,11"
14719,commdev-image-keyboard-response,508,1505600,learnblock2,511.60000002384186,img/planet13_right.png,13,Community 3,NA,FALSE,f,j,NA,NA,NA,3,6,"8,10,1,12,9,7,6,3,14,4,2,13,5,15,11"
14719,commdev-image-keyboard-response,509,1506852,learnblock2,579.3000000715256,img/planet5_right.png,5,Community 3,NA,TRUE,j,j,NA,NA,NA,3,6,"8,10,1,12,9,7,6,3,14,4,2,13,5,15,11"
14719,commdev-image-keyboard-response,510,1508105,learnblock2,515.2000000476837,img/planet15_right.png,15,Community 3,NA,TRUE,j,j,NA,NA,NA,3,6,"8,10,1,12,9,7,6,3,14,4,2,13,5,15,11"
14719,commdev-image-keyboard-response,511,1509358,learnblock2,532.8000000715256,img/planet11_right.png,11,Community 3,NA,TRUE,j,j,NA,NA,NA,3,6,"8,10,1,12,9,7,6,3,14,4,2,13,5,15,11"
14719,commdev-image-keyboard-response,512,1510610,learnblock2,562.4000000953674,img/planet13_right.png,13,Community 3,NA,TRUE,j,j,NA,NA,NA,3,6,"8,10,1,12,9,7,6,3,14,4,2,13,5,15,11"
14719,commdev-image-keyboard-response,513,1511863,learnblock2,672.2999999523163,img/planet5_left.png,5,Community 3,NA,TRUE,f,f,NA,NA,NA,3,6,"8,10,1,12,9,7,6,3,14,4,2,13,5,15,11"
14719,commdev-image-keyboard-response,514,1513116,learnblock2,511.2000000476837,img/planet2_right.png,2,Community 3,NA,TRUE,j,j,NA,NA,NA,3,6,"8,10,1,12,9,7,6,3,14,4,2,13,5,15,11"
14719,commdev-image-keyboard-response,515,1514369,learnblock2,674.1000000238419,img/planet15_right.png,15,Community 3,NA,TRUE,j,j,NA,NA,NA,3,6,"8,10,1,12,9,7,6,3,14,4,2,13,5,15,11"
14719,commdev-image-keyboard-response,516,1515620,learnblock2,660.9000000953674,img/planet11_left.png,11,Community 3,NA,TRUE,f,f,NA,NA,NA,3,6,"8,10,1,12,9,7,6,3,14,4,2,13,5,15,11"
14719,commdev-image-keyboard-response,517,1516872,learnblock2,531.1000000238419,img/planet13_left.png,13,Community 3,NA,TRUE,f,f,NA,NA,NA,3,6,"8,10,1,12,9,7,6,3,14,4,2,13,5,15,11"
14719,commdev-image-keyboard-response,518,1518124,learnblock2,568,img/planet5_right.png,5,Community 3,NA,TRUE,j,j,NA,NA,NA,3,6,"8,10,1,12,9,7,6,3,14,4,2,13,5,15,11"
14719,commdev-image-keyboard-response,519,1519377,learnblock2,527.1999999284744,img/planet11_left.png,11,Community 3,NA,TRUE,f,f,NA,NA,NA,3,6,"8,10,1,12,9,7,6,3,14,4,2,13,5,15,11"
14719,commdev-image-keyboard-response,520,1520631,learnblock2,621.8000000715256,img/planet5_right.png,5,Community 3,NA,TRUE,j,j,NA,NA,NA,3,6,"8,10,1,12,9,7,6,3,14,4,2,13,5,15,11"
14719,commdev-image-keyboard-response,521,1521883,learnblock2,733.6999999284744,img/planet15_left.png,15,Community 3,NA,TRUE,f,f,NA,NA,NA,3,6,"8,10,1,12,9,7,6,3,14,4,2,13,5,15,11"
14719,commdev-image-keyboard-response,522,1523136,learnblock2,562.7999999523163,img/planet5_right.png,5,Community 3,NA,TRUE,j,j,NA,NA,NA,3,6,"8,10,1,12,9,7,6,3,14,4,2,13,5,15,11"
14719,commdev-image-keyboard-response,523,1524389,learnblock2,713.6999999284744,img/planet15_left.png,15,Community 3,NA,TRUE,f,f,NA,NA,NA,3,6,"8,10,1,12,9,7,6,3,14,4,2,13,5,15,11"
14719,commdev-image-keyboard-response,524,1525641,learnblock2,674.6000000238419,img/planet11_left.png,11,Community 3,NA,TRUE,f,f,NA,NA,NA,3,6,"8,10,1,12,9,7,6,3,14,4,2,13,5,15,11"
14719,commdev-image-keyboard-response,525,1526892,learnblock2,543.5,img/planet2_right.png,2,Community 3,NA,TRUE,j,j,NA,NA,NA,3,6,"8,10,1,12,9,7,6,3,14,4,2,13,5,15,11"
14719,commdev-image-keyboard-response,526,1528146,learnblock2,494.39999997615814,img/planet11_left.png,11,Community 3,NA,TRUE,f,f,NA,NA,NA,3,6,"8,10,1,12,9,7,6,3,14,4,2,13,5,15,11"
14719,commdev-image-keyboard-response,527,1529397,learnblock2,583.5999999046326,img/planet5_left.png,5,Community 3,NA,TRUE,f,f,NA,NA,NA,3,6,"8,10,1,12,9,7,6,3,14,4,2,13,5,15,11"
14719,commdev-image-keyboard-response,528,1530648,learnblock2,543.3000000715256,img/planet11_right.png,11,Community 3,NA,TRUE,j,j,NA,NA,NA,3,6,"8,10,1,12,9,7,6,3,14,4,2,13,5,15,11"
14719,commdev-image-keyboard-response,529,1531901,learnblock2,488.3000000715256,img/planet5_right.png,5,Community 3,NA,TRUE,j,j,NA,NA,NA,3,6,"8,10,1,12,9,7,6,3,14,4,2,13,5,15,11"
14719,commdev-image-keyboard-response,530,1533153,learnblock2,672.9000000953674,img/planet13_left.png,13,Community 3,NA,TRUE,f,f,NA,NA,NA,3,6,"8,10,1,12,9,7,6,3,14,4,2,13,5,15,11"
14719,commdev-image-keyboard-response,531,1534406,learnblock2,566,img/planet11_right.png,11,Community 3,NA,TRUE,j,j,NA,NA,NA,3,6,"8,10,1,12,9,7,6,3,14,4,2,13,5,15,11"
14719,commdev-image-keyboard-response,532,1535658,learnblock2,527.3999999761581,img/planet15_left.png,15,Community 3,NA,TRUE,f,f,NA,NA,NA,3,6,"8,10,1,12,9,7,6,3,14,4,2,13,5,15,11"
14719,commdev-image-keyboard-response,533,1536910,learnblock2,574.9000000953674,img/planet5_right.png,5,Community 3,NA,TRUE,j,j,NA,NA,NA,3,6,"8,10,1,12,9,7,6,3,14,4,2,13,5,15,11"
14719,commdev-image-keyboard-response,534,1538162,learnblock2,543.8999999761581,img/planet2_right.png,2,Community 3,NA,TRUE,j,j,NA,NA,NA,3,6,"8,10,1,12,9,7,6,3,14,4,2,13,5,15,11"
14719,commdev-image-keyboard-response,535,1539415,learnblock2,545.7000000476837,img/planet11_right.png,11,Community 3,NA,FALSE,f,j,NA,NA,NA,3,6,"8,10,1,12,9,7,6,3,14,4,2,13,5,15,11"
14719,commdev-image-keyboard-response,536,1540668,learnblock2,542.6999999284744,img/planet2_left.png,2,Community 3,NA,TRUE,f,f,NA,NA,NA,3,6,"8,10,1,12,9,7,6,3,14,4,2,13,5,15,11"
14719,commdev-image-keyboard-response,537,1541921,learnblock2,566.7999999523163,img/planet15_right.png,15,Community 3,NA,TRUE,j,j,NA,NA,NA,3,6,"8,10,1,12,9,7,6,3,14,4,2,13,5,15,11"
14719,commdev-image-keyboard-response,538,1543173,learnblock2,538.6000000238419,img/planet5_left.png,5,Community 3,NA,TRUE,f,f,NA,NA,NA,3,6,"8,10,1,12,9,7,6,3,14,4,2,13,5,15,11"
14719,commdev-image-keyboard-response,539,1544426,learnblock2,726.1000000238419,img/planet15_right.png,15,Community 3,NA,TRUE,j,j,NA,NA,NA,3,6,"8,10,1,12,9,7,6,3,14,4,2,13,5,15,11"
14719,commdev-image-keyboard-response,540,1545679,learnblock2,622.8999999761581,img/planet5_left.png,5,Community 3,NA,TRUE,f,f,NA,NA,NA,3,6,"8,10,1,12,9,7,6,3,14,4,2,13,5,15,11"
14719,commdev-image-keyboard-response,541,1546932,learnblock2,509.2999999523163,img/planet2_right.png,2,Community 3,NA,TRUE,j,j,NA,NA,NA,3,6,"8,10,1,12,9,7,6,3,14,4,2,13,5,15,11"
14719,commdev-image-keyboard-response,542,1548184,learnblock2,551.5,img/planet11_left.png,11,Community 3,NA,TRUE,f,f,NA,NA,NA,3,6,"8,10,1,12,9,7,6,3,14,4,2,13,5,15,11"
14719,commdev-image-keyboard-response,543,1549436,learnblock2,562.2000000476837,img/planet15_left.png,15,Community 3,NA,TRUE,f,f,NA,NA,NA,3,6,"8,10,1,12,9,7,6,3,14,4,2,13,5,15,11"
14719,commdev-image-keyboard-response,544,1550690,learnblock2,587.8999999761581,img/planet13_left.png,13,Community 3,NA,TRUE,f,f,NA,NA,NA,3,6,"8,10,1,12,9,7,6,3,14,4,2,13,5,15,11"
14719,commdev-image-keyboard-response,545,1551942,learnblock2,605.8999999761581,img/planet3_left.png,3,Community 2,NA,TRUE,f,f,NA,NA,NA,3,6,"8,10,1,12,9,7,6,3,14,4,2,13,5,15,11"
14719,commdev-image-keyboard-response,546,1553194,learnblock2,756.4000000953674,img/planet6_left.png,6,Community 2,NA,TRUE,f,f,NA,NA,NA,3,6,"8,10,1,12,9,7,6,3,14,4,2,13,5,15,11"
14719,commdev-image-keyboard-response,547,1554447,learnblock2,513.6999999284744,img/planet3_left.png,3,Community 2,NA,TRUE,f,f,NA,NA,NA,3,6,"8,10,1,12,9,7,6,3,14,4,2,13,5,15,11"
14719,commdev-image-keyboard-response,548,1555699,learnblock2,476,img/planet13_left.png,13,Community 3,NA,TRUE,f,f,NA,NA,NA,3,6,"8,10,1,12,9,7,6,3,14,4,2,13,5,15,11"
14719,commdev-image-keyboard-response,549,1556951,learnblock2,667.1000000238419,img/planet5_right.png,5,Community 3,NA,TRUE,j,j,NA,NA,NA,3,6,"8,10,1,12,9,7,6,3,14,4,2,13,5,15,11"
14719,commdev-image-keyboard-response,550,1558204,learnblock2,638.8999999761581,img/planet2_left.png,2,Community 3,NA,TRUE,f,f,NA,NA,NA,3,6,"8,10,1,12,9,7,6,3,14,4,2,13,5,15,11"
14719,commdev-image-keyboard-response,551,1559457,learnblock2,514.5999999046326,img/planet15_right.png,15,Community 3,NA,TRUE,j,j,NA,NA,NA,3,6,"8,10,1,12,9,7,6,3,14,4,2,13,5,15,11"
14719,commdev-image-keyboard-response,552,1560710,learnblock2,695.8999999761581,img/planet2_left.png,2,Community 3,NA,TRUE,f,f,NA,NA,NA,3,6,"8,10,1,12,9,7,6,3,14,4,2,13,5,15,11"
14719,commdev-image-keyboard-response,553,1561962,learnblock2,664.8999999761581,img/planet11_right.png,11,Community 3,NA,TRUE,j,j,NA,NA,NA,3,6,"8,10,1,12,9,7,6,3,14,4,2,13,5,15,11"
14719,commdev-image-keyboard-response,554,1563213,learnblock2,585.7999999523163,img/planet13_right.png,13,Community 3,NA,TRUE,j,j,NA,NA,NA,3,6,"8,10,1,12,9,7,6,3,14,4,2,13,5,15,11"
14719,commdev-image-keyboard-response,555,1564466,learnblock2,570.1999999284744,img/planet5_right.png,5,Community 3,NA,TRUE,j,j,NA,NA,NA,3,6,"8,10,1,12,9,7,6,3,14,4,2,13,5,15,11"
14719,commdev-image-keyboard-response,556,1565719,learnblock2,492.2999999523163,img/planet11_left.png,11,Community 3,NA,TRUE,f,f,NA,NA,NA,3,6,"8,10,1,12,9,7,6,3,14,4,2,13,5,15,11"
14719,commdev-image-keyboard-response,557,1566971,learnblock2,607.2999999523163,img/planet13_right.png,13,Community 3,NA,TRUE,j,j,NA,NA,NA,3,6,"8,10,1,12,9,7,6,3,14,4,2,13,5,15,11"
14719,commdev-image-keyboard-response,558,1568223,learnblock2,485.1999999284744,img/planet15_right.png,15,Community 3,NA,FALSE,f,j,NA,NA,NA,3,6,"8,10,1,12,9,7,6,3,14,4,2,13,5,15,11"
14719,commdev-image-keyboard-response,559,1569476,learnblock2,624.3000000715256,img/planet11_left.png,11,Community 3,NA,TRUE,f,f,NA,NA,NA,3,6,"8,10,1,12,9,7,6,3,14,4,2,13,5,15,11"
14719,commdev-image-keyboard-response,560,1570728,learnblock2,527.2000000476837,img/planet13_left.png,13,Community 3,NA,TRUE,f,f,NA,NA,NA,3,6,"8,10,1,12,9,7,6,3,14,4,2,13,5,15,11"
14719,commdev-image-keyboard-response,561,1571980,learnblock2,580.6999999284744,img/planet11_left.png,11,Community 3,NA,TRUE,f,f,NA,NA,NA,3,6,"8,10,1,12,9,7,6,3,14,4,2,13,5,15,11"
14719,commdev-image-keyboard-response,562,1573233,learnblock2,485.5,img/planet15_left.png,15,Community 3,NA,TRUE,f,f,NA,NA,NA,3,6,"8,10,1,12,9,7,6,3,14,4,2,13,5,15,11"
14719,commdev-image-keyboard-response,563,1574486,learnblock2,516.6000000238419,img/planet13_left.png,13,Community 3,NA,TRUE,f,f,NA,NA,NA,3,6,"8,10,1,12,9,7,6,3,14,4,2,13,5,15,11"
14719,commdev-image-keyboard-response,564,1575738,learnblock2,564.5,img/planet15_right.png,15,Community 3,NA,TRUE,j,j,NA,NA,NA,3,6,"8,10,1,12,9,7,6,3,14,4,2,13,5,15,11"
14719,commdev-image-keyboard-response,565,1576990,learnblock2,538.6000000238419,img/planet11_right.png,11,Community 3,NA,TRUE,j,j,NA,NA,NA,3,6,"8,10,1,12,9,7,6,3,14,4,2,13,5,15,11"
14719,commdev-image-keyboard-response,566,1578243,learnblock2,511.5,img/planet2_right.png,2,Community 3,NA,TRUE,j,j,NA,NA,NA,3,6,"8,10,1,12,9,7,6,3,14,4,2,13,5,15,11"
14719,commdev-image-keyboard-response,567,1579495,learnblock2,497.6999999284744,img/planet11_left.png,11,Community 3,NA,FALSE,j,f,NA,NA,NA,3,6,"8,10,1,12,9,7,6,3,14,4,2,13,5,15,11"
14719,commdev-image-keyboard-response,568,1580748,learnblock2,515.3999999761581,img/planet15_right.png,15,Community 3,NA,TRUE,j,j,NA,NA,NA,3,6,"8,10,1,12,9,7,6,3,14,4,2,13,5,15,11"
14719,commdev-image-keyboard-response,569,1582001,learnblock2,647.8999999761581,img/planet5_right.png,5,Community 3,NA,TRUE,j,j,NA,NA,NA,3,6,"8,10,1,12,9,7,6,3,14,4,2,13,5,15,11"
14719,commdev-image-keyboard-response,570,1583253,learnblock2,506.2999999523163,img/planet13_right.png,13,Community 3,NA,TRUE,j,j,NA,NA,NA,3,6,"8,10,1,12,9,7,6,3,14,4,2,13,5,15,11"
14719,commdev-image-keyboard-response,571,1584506,learnblock2,519.7000000476837,img/planet11_left.png,11,Community 3,NA,TRUE,f,f,NA,NA,NA,3,6,"8,10,1,12,9,7,6,3,14,4,2,13,5,15,11"
14719,commdev-image-keyboard-response,572,1585758,learnblock2,691.8000000715256,img/planet15_right.png,15,Community 3,NA,TRUE,j,j,NA,NA,NA,3,6,"8,10,1,12,9,7,6,3,14,4,2,13,5,15,11"
14719,commdev-image-keyboard-response,573,1587011,learnblock2,539.8000000715256,img/planet2_left.png,2,Community 3,NA,TRUE,f,f,NA,NA,NA,3,6,"8,10,1,12,9,7,6,3,14,4,2,13,5,15,11"
14719,commdev-image-keyboard-response,574,1588265,learnblock2,534.1999999284744,img/planet5_right.png,5,Community 3,NA,TRUE,j,j,NA,NA,NA,3,6,"8,10,1,12,9,7,6,3,14,4,2,13,5,15,11"
14719,commdev-image-keyboard-response,575,1589517,learnblock2,531.1000000238419,img/planet2_left.png,2,Community 3,NA,TRUE,f,f,NA,NA,NA,3,6,"8,10,1,12,9,7,6,3,14,4,2,13,5,15,11"
14719,commdev-image-keyboard-response,576,1590770,learnblock2,478,img/planet5_right.png,5,Community 3,NA,TRUE,j,j,NA,NA,NA,3,6,"8,10,1,12,9,7,6,3,14,4,2,13,5,15,11"
14719,commdev-image-keyboard-response,577,1592022,learnblock2,738.1000000238419,img/planet11_right.png,11,Community 3,NA,TRUE,j,j,NA,NA,NA,3,6,"8,10,1,12,9,7,6,3,14,4,2,13,5,15,11"
14719,commdev-image-keyboard-response,578,1593275,learnblock2,534.8999999761581,img/planet5_left.png,5,Community 3,NA,TRUE,f,f,NA,NA,NA,3,6,"8,10,1,12,9,7,6,3,14,4,2,13,5,15,11"
14719,commdev-image-keyboard-response,579,1594529,learnblock2,539.3999999761581,img/planet2_left.png,2,Community 3,NA,TRUE,f,f,NA,NA,NA,3,6,"8,10,1,12,9,7,6,3,14,4,2,13,5,15,11"
14719,commdev-image-keyboard-response,580,1595780,learnblock2,532.2999999523163,img/planet5_left.png,5,Community 3,NA,TRUE,f,f,NA,NA,NA,3,6,"8,10,1,12,9,7,6,3,14,4,2,13,5,15,11"
14719,commdev-image-keyboard-response,581,1597033,learnblock2,528.2000000476837,img/planet2_left.png,2,Community 3,NA,TRUE,f,f,NA,NA,NA,3,6,"8,10,1,12,9,7,6,3,14,4,2,13,5,15,11"
14719,commdev-image-keyboard-response,582,1598284,learnblock2,586.1000000238419,img/planet9_right.png,9,Community 1,NA,TRUE,j,j,NA,NA,NA,3,6,"8,10,1,12,9,7,6,3,14,4,2,13,5,15,11"
14719,commdev-image-keyboard-response,583,1599537,learnblock2,624.2999999523163,img/planet10_left.png,10,Community 1,NA,TRUE,f,f,NA,NA,NA,3,6,"8,10,1,12,9,7,6,3,14,4,2,13,5,15,11"
14719,commdev-image-keyboard-response,584,1600789,learnblock2,533.7000000476837,img/planet9_left.png,9,Community 1,NA,TRUE,f,f,NA,NA,NA,3,6,"8,10,1,12,9,7,6,3,14,4,2,13,5,15,11"
14719,commdev-image-keyboard-response,585,1602041,learnblock2,546.2999999523163,img/planet2_right.png,2,Community 3,NA,TRUE,j,j,NA,NA,NA,3,6,"8,10,1,12,9,7,6,3,14,4,2,13,5,15,11"
14719,commdev-image-keyboard-response,586,1603294,learnblock2,625.5,img/planet15_right.png,15,Community 3,NA,TRUE,j,j,NA,NA,NA,3,6,"8,10,1,12,9,7,6,3,14,4,2,13,5,15,11"
14719,commdev-image-keyboard-response,587,1604548,learnblock2,581.8999999761581,img/planet2_left.png,2,Community 3,NA,TRUE,f,f,NA,NA,NA,3,6,"8,10,1,12,9,7,6,3,14,4,2,13,5,15,11"
14719,commdev-image-keyboard-response,588,1605799,learnblock2,569.8999999761581,img/planet15_right.png,15,Community 3,NA,TRUE,j,j,NA,NA,NA,3,6,"8,10,1,12,9,7,6,3,14,4,2,13,5,15,11"
14719,commdev-image-keyboard-response,589,1607052,learnblock2,727.8999999761581,img/planet5_right.png,5,Community 3,NA,TRUE,j,j,NA,NA,NA,3,6,"8,10,1,12,9,7,6,3,14,4,2,13,5,15,11"
14719,commdev-image-keyboard-response,590,1608305,learnblock2,568.3999999761581,img/planet15_left.png,15,Community 3,NA,TRUE,f,f,NA,NA,NA,3,6,"8,10,1,12,9,7,6,3,14,4,2,13,5,15,11"
14719,commdev-image-keyboard-response,591,1609557,learnblock2,655.1000000238419,img/planet11_right.png,11,Community 3,NA,TRUE,j,j,NA,NA,NA,3,6,"8,10,1,12,9,7,6,3,14,4,2,13,5,15,11"
14719,commdev-image-keyboard-response,592,1610809,learnblock2,621.2000000476837,img/planet13_left.png,13,Community 3,NA,TRUE,f,f,NA,NA,NA,3,6,"8,10,1,12,9,7,6,3,14,4,2,13,5,15,11"
14719,commdev-image-keyboard-response,593,1612062,learnblock2,685.6999999284744,img/planet11_left.png,11,Community 3,NA,TRUE,f,f,NA,NA,NA,3,6,"8,10,1,12,9,7,6,3,14,4,2,13,5,15,11"
14719,commdev-image-keyboard-response,594,1613316,learnblock2,599.7000000476837,img/planet13_left.png,13,Community 3,NA,TRUE,f,f,NA,NA,NA,3,6,"8,10,1,12,9,7,6,3,14,4,2,13,5,15,11"
14719,commdev-image-keyboard-response,595,1614569,learnblock2,585.2999999523163,img/planet3_right.png,3,Community 2,NA,TRUE,j,j,NA,NA,NA,3,6,"8,10,1,12,9,7,6,3,14,4,2,13,5,15,11"
14719,commdev-image-keyboard-response,596,1615820,learnblock2,527.3999999761581,img/planet13_right.png,13,Community 3,NA,FALSE,f,j,NA,NA,NA,3,6,"8,10,1,12,9,7,6,3,14,4,2,13,5,15,11"
14719,commdev-image-keyboard-response,597,1617072,learnblock2,599.5,img/planet3_right.png,3,Community 2,NA,TRUE,j,j,NA,NA,NA,3,6,"8,10,1,12,9,7,6,3,14,4,2,13,5,15,11"
14719,commdev-image-keyboard-response,598,1618325,learnblock2,735.9000000953674,img/planet13_left.png,13,Community 3,NA,TRUE,f,f,NA,NA,NA,3,6,"8,10,1,12,9,7,6,3,14,4,2,13,5,15,11"
14719,commdev-image-keyboard-response,599,1619577,learnblock2,507.1999999284744,img/planet5_left.png,5,Community 3,NA,TRUE,f,f,NA,NA,NA,3,6,"8,10,1,12,9,7,6,3,14,4,2,13,5,15,11"
14719,commdev-image-keyboard-response,600,1620831,learnblock2,604.5,img/planet2_right.png,2,Community 3,NA,TRUE,j,j,NA,NA,NA,3,6,"8,10,1,12,9,7,6,3,14,4,2,13,5,15,11"
14719,commdev-image-keyboard-response,601,1622084,learnblock2,604.5,img/planet15_right.png,15,Community 3,NA,TRUE,j,j,NA,NA,NA,3,6,"8,10,1,12,9,7,6,3,14,4,2,13,5,15,11"
14719,commdev-image-keyboard-response,602,1623337,learnblock2,679.1000000238419,img/planet13_left.png,13,Community 3,NA,TRUE,f,f,NA,NA,NA,3,6,"8,10,1,12,9,7,6,3,14,4,2,13,5,15,11"
14719,commdev-image-keyboard-response,603,1624589,learnblock2,649.5,img/planet3_right.png,3,Community 2,NA,TRUE,j,j,NA,NA,NA,3,6,"8,10,1,12,9,7,6,3,14,4,2,13,5,15,11"
14719,commdev-image-keyboard-response,604,1625842,learnblock2,811.8999999761581,img/planet4_left.png,4,Community 2,NA,TRUE,f,f,NA,NA,NA,3,6,"8,10,1,12,9,7,6,3,14,4,2,13,5,15,11"
14719,commdev-image-keyboard-response,605,1627094,learnblock2,673,img/planet14_left.png,14,Community 2,NA,TRUE,f,f,NA,NA,NA,3,6,"8,10,1,12,9,7,6,3,14,4,2,13,5,15,11"
14719,commdev-image-keyboard-response,606,1628346,learnblock2,563.6000000238419,img/planet7_left.png,7,Community 2,NA,TRUE,f,f,NA,NA,NA,3,6,"8,10,1,12,9,7,6,3,14,4,2,13,5,15,11"
14719,commdev-image-keyboard-response,607,1629599,learnblock2,499,img/planet6_left.png,6,Community 2,NA,TRUE,f,f,NA,NA,NA,3,6,"8,10,1,12,9,7,6,3,14,4,2,13,5,15,11"
14719,commdev-image-keyboard-response,608,1630853,learnblock2,558.8999999761581,img/planet7_left.png,7,Community 2,NA,TRUE,f,f,NA,NA,NA,3,6,"8,10,1,12,9,7,6,3,14,4,2,13,5,15,11"
14719,commdev-image-keyboard-response,609,1632106,learnblock2,596.0999999046326,img/planet4_right.png,4,Community 2,NA,TRUE,j,j,NA,NA,NA,3,6,"8,10,1,12,9,7,6,3,14,4,2,13,5,15,11"
14719,commdev-image-keyboard-response,610,1633357,learnblock2,579.5999999046326,img/planet6_right.png,6,Community 2,NA,TRUE,j,j,NA,NA,NA,3,6,"8,10,1,12,9,7,6,3,14,4,2,13,5,15,11"
14719,commdev-image-keyboard-response,611,1634608,learnblock2,620.1999999284744,img/planet4_right.png,4,Community 2,NA,TRUE,j,j,NA,NA,NA,3,6,"8,10,1,12,9,7,6,3,14,4,2,13,5,15,11"
14719,commdev-image-keyboard-response,612,1635860,learnblock2,846.3999999761581,img/planet7_left.png,7,Community 2,NA,TRUE,f,f,NA,NA,NA,3,6,"8,10,1,12,9,7,6,3,14,4,2,13,5,15,11"
14719,commdev-image-keyboard-response,613,1637112,learnblock2,732.5,img/planet14_left.png,14,Community 2,NA,TRUE,f,f,NA,NA,NA,3,6,"8,10,1,12,9,7,6,3,14,4,2,13,5,15,11"
14719,commdev-image-keyboard-response,614,1638364,learnblock2,496.7999999523163,img/planet4_left.png,4,Community 2,NA,TRUE,f,f,NA,NA,NA,3,6,"8,10,1,12,9,7,6,3,14,4,2,13,5,15,11"
14719,commdev-image-keyboard-response,615,1639616,learnblock2,619,img/planet3_left.png,3,Community 2,NA,TRUE,f,f,NA,NA,NA,3,6,"8,10,1,12,9,7,6,3,14,4,2,13,5,15,11"
14719,commdev-image-keyboard-response,616,1640869,learnblock2,800.5,img/planet4_right.png,4,Community 2,NA,TRUE,j,j,NA,NA,NA,3,6,"8,10,1,12,9,7,6,3,14,4,2,13,5,15,11"
14719,commdev-image-keyboard-response,617,1642121,learnblock2,899,img/planet3_left.png,3,Community 2,NA,TRUE,f,f,NA,NA,NA,3,6,"8,10,1,12,9,7,6,3,14,4,2,13,5,15,11"
14719,commdev-image-keyboard-response,618,1643373,learnblock2,549.3999999761581,img/planet6_left.png,6,Community 2,NA,TRUE,f,f,NA,NA,NA,3,6,"8,10,1,12,9,7,6,3,14,4,2,13,5,15,11"
14719,commdev-image-keyboard-response,619,1644625,learnblock2,599.3999999761581,img/planet3_left.png,3,Community 2,NA,TRUE,f,f,NA,NA,NA,3,6,"8,10,1,12,9,7,6,3,14,4,2,13,5,15,11"
14719,commdev-image-keyboard-response,620,1645877,learnblock2,849.7000000476837,img/planet6_left.png,6,Community 2,NA,TRUE,f,f,NA,NA,NA,3,6,"8,10,1,12,9,7,6,3,14,4,2,13,5,15,11"
14719,commdev-image-keyboard-response,621,1647130,learnblock2,693.2999999523163,img/planet7_left.png,7,Community 2,NA,TRUE,f,f,NA,NA,NA,3,6,"8,10,1,12,9,7,6,3,14,4,2,13,5,15,11"
14719,commdev-image-keyboard-response,622,1648382,learnblock2,966.3999999761581,img/planet12_left.png,12,Community 1,NA,TRUE,f,f,NA,NA,NA,3,6,"8,10,1,12,9,7,6,3,14,4,2,13,5,15,11"
14719,commdev-image-keyboard-response,623,1649634,learnblock2,870.7000000476837,img/planet8_left.png,8,Community 1,NA,TRUE,f,f,NA,NA,NA,3,6,"8,10,1,12,9,7,6,3,14,4,2,13,5,15,11"
14719,commdev-image-keyboard-response,624,1650886,learnblock2,653.1000000238419,img/planet1_left.png,1,Community 1,NA,TRUE,f,f,NA,NA,NA,3,6,"8,10,1,12,9,7,6,3,14,4,2,13,5,15,11"
14719,commdev-image-keyboard-response,625,1652140,learnblock2,542.2999999523163,img/planet9_right.png,9,Community 1,NA,TRUE,j,j,NA,NA,NA,3,6,"8,10,1,12,9,7,6,3,14,4,2,13,5,15,11"
14719,commdev-image-keyboard-response,626,1653392,learnblock2,594.8000000715256,img/planet10_right.png,10,Community 1,NA,TRUE,j,j,NA,NA,NA,3,6,"8,10,1,12,9,7,6,3,14,4,2,13,5,15,11"
14719,commdev-image-keyboard-response,627,1654645,learnblock2,886.1000000238419,img/planet12_left.png,12,Community 1,NA,FALSE,j,f,NA,NA,NA,3,6,"8,10,1,12,9,7,6,3,14,4,2,13,5,15,11"
14719,commdev-image-keyboard-response,628,1655898,learnblock2,592.8999999761581,img/planet8_right.png,8,Community 1,NA,TRUE,j,j,NA,NA,NA,3,6,"8,10,1,12,9,7,6,3,14,4,2,13,5,15,11"
14719,commdev-image-keyboard-response,629,1657150,learnblock2,580.8000000715256,img/planet1_left.png,1,Community 1,NA,TRUE,f,f,NA,NA,NA,3,6,"8,10,1,12,9,7,6,3,14,4,2,13,5,15,11"
14719,commdev-image-keyboard-response,630,1658403,learnblock2,600.2999999523163,img/planet8_left.png,8,Community 1,NA,TRUE,f,f,NA,NA,NA,3,6,"8,10,1,12,9,7,6,3,14,4,2,13,5,15,11"
14719,commdev-image-keyboard-response,631,1659654,learnblock2,504.7000000476837,img/planet9_left.png,9,Community 1,NA,TRUE,f,f,NA,NA,NA,3,6,"8,10,1,12,9,7,6,3,14,4,2,13,5,15,11"
14719,commdev-image-keyboard-response,632,1660906,learnblock2,601.1000000238419,img/planet2_left.png,2,Community 3,NA,TRUE,f,f,NA,NA,NA,3,6,"8,10,1,12,9,7,6,3,14,4,2,13,5,15,11"
14719,commdev-image-keyboard-response,633,1662159,learnblock2,722.3000000715256,img/planet11_left.png,11,Community 3,NA,TRUE,f,f,NA,NA,NA,3,6,"8,10,1,12,9,7,6,3,14,4,2,13,5,15,11"
14719,commdev-image-keyboard-response,634,1663412,learnblock2,431.2000000476837,img/planet2_left.png,2,Community 3,NA,TRUE,f,f,NA,NA,NA,3,6,"8,10,1,12,9,7,6,3,14,4,2,13,5,15,11"
14719,commdev-image-keyboard-response,635,1664664,learnblock2,527.8000000715256,img/planet15_right.png,15,Community 3,NA,FALSE,f,j,NA,NA,NA,3,6,"8,10,1,12,9,7,6,3,14,4,2,13,5,15,11"
14719,commdev-image-keyboard-response,636,1665917,learnblock2,478,img/planet2_left.png,2,Community 3,NA,TRUE,f,f,NA,NA,NA,3,6,"8,10,1,12,9,7,6,3,14,4,2,13,5,15,11"
14719,commdev-image-keyboard-response,637,1667170,learnblock2,586.3000000715256,img/planet11_left.png,11,Community 3,NA,TRUE,f,f,NA,NA,NA,3,6,"8,10,1,12,9,7,6,3,14,4,2,13,5,15,11"
14719,commdev-image-keyboard-response,638,1668423,learnblock2,1004.2999999523163,img/planet5_left.png,5,Community 3,NA,TRUE,f,f,NA,NA,NA,3,6,"8,10,1,12,9,7,6,3,14,4,2,13,5,15,11"
14719,commdev-image-keyboard-response,639,1669676,learnblock2,null,img/planet2_left.png,2,Community 3,NA,FALSE,null,f,NA,NA,NA,3,6,"8,10,1,12,9,7,6,3,14,4,2,13,5,15,11"
14719,commdev-image-keyboard-response,640,1670928,learnblock2,497.90000009536743,img/planet15_left.png,15,Community 3,NA,TRUE,f,f,NA,NA,NA,3,6,"8,10,1,12,9,7,6,3,14,4,2,13,5,15,11"
14719,commdev-image-keyboard-response,641,1672182,learnblock2,564.6999999284744,img/planet11_left.png,11,Community 3,NA,TRUE,f,f,NA,NA,NA,3,6,"8,10,1,12,9,7,6,3,14,4,2,13,5,15,11"
14719,commdev-image-keyboard-response,642,1673435,learnblock2,554.3000000715256,img/planet5_left.png,5,Community 3,NA,TRUE,f,f,NA,NA,NA,3,6,"8,10,1,12,9,7,6,3,14,4,2,13,5,15,11"
14719,commdev-image-keyboard-response,643,1674687,learnblock2,655.3000000715256,img/planet2_left.png,2,Community 3,NA,TRUE,f,f,NA,NA,NA,3,6,"8,10,1,12,9,7,6,3,14,4,2,13,5,15,11"
14719,commdev-image-keyboard-response,644,1675940,learnblock2,631.4000000953674,img/planet15_right.png,15,Community 3,NA,TRUE,j,j,NA,NA,NA,3,6,"8,10,1,12,9,7,6,3,14,4,2,13,5,15,11"
14719,commdev-image-keyboard-response,645,1677193,learnblock2,541.6000000238419,img/planet2_left.png,2,Community 3,NA,TRUE,f,f,NA,NA,NA,3,6,"8,10,1,12,9,7,6,3,14,4,2,13,5,15,11"
14719,commdev-image-keyboard-response,646,1678445,learnblock2,652.7000000476837,img/planet5_right.png,5,Community 3,NA,TRUE,j,j,NA,NA,NA,3,6,"8,10,1,12,9,7,6,3,14,4,2,13,5,15,11"
14719,commdev-image-keyboard-response,647,1679697,learnblock2,472.2000000476837,img/planet11_left.png,11,Community 3,NA,TRUE,f,f,NA,NA,NA,3,6,"8,10,1,12,9,7,6,3,14,4,2,13,5,15,11"
14719,commdev-image-keyboard-response,648,1680949,learnblock2,576.3999999761581,img/planet13_right.png,13,Community 3,NA,TRUE,j,j,NA,NA,NA,3,6,"8,10,1,12,9,7,6,3,14,4,2,13,5,15,11"
14719,commdev-image-keyboard-response,649,1682201,learnblock2,486.8000000715256,img/planet5_right.png,5,Community 3,NA,TRUE,j,j,NA,NA,NA,3,6,"8,10,1,12,9,7,6,3,14,4,2,13,5,15,11"
14719,commdev-image-keyboard-response,650,1683454,learnblock2,499.40000009536743,img/planet13_left.png,13,Community 3,NA,TRUE,f,f,NA,NA,NA,3,6,"8,10,1,12,9,7,6,3,14,4,2,13,5,15,11"
14719,commdev-image-keyboard-response,651,1684707,learnblock2,509.89999997615814,img/planet3_right.png,3,Community 2,NA,TRUE,j,j,NA,NA,NA,3,6,"8,10,1,12,9,7,6,3,14,4,2,13,5,15,11"
14719,commdev-image-keyboard-response,652,1685959,learnblock2,514.6000000238419,img/planet14_left.png,14,Community 2,NA,TRUE,f,f,NA,NA,NA,3,6,"8,10,1,12,9,7,6,3,14,4,2,13,5,15,11"
14719,commdev-image-keyboard-response,653,1687213,learnblock2,486.5,img/planet3_right.png,3,Community 2,NA,TRUE,j,j,NA,NA,NA,3,6,"8,10,1,12,9,7,6,3,14,4,2,13,5,15,11"
14719,commdev-image-keyboard-response,654,1688465,learnblock2,555,img/planet6_right.png,6,Community 2,NA,FALSE,f,j,NA,NA,NA,3,6,"8,10,1,12,9,7,6,3,14,4,2,13,5,15,11"
14719,commdev-image-keyboard-response,655,1689719,learnblock2,654.7999999523163,img/planet3_right.png,3,Community 2,NA,TRUE,j,j,NA,NA,NA,3,6,"8,10,1,12,9,7,6,3,14,4,2,13,5,15,11"
14719,commdev-image-keyboard-response,656,1690971,learnblock2,522.5,img/planet14_left.png,14,Community 2,NA,TRUE,f,f,NA,NA,NA,3,6,"8,10,1,12,9,7,6,3,14,4,2,13,5,15,11"
14719,commdev-image-keyboard-response,657,1692223,learnblock2,610.1000000238419,img/planet4_right.png,4,Community 2,NA,FALSE,f,j,NA,NA,NA,3,6,"8,10,1,12,9,7,6,3,14,4,2,13,5,15,11"
