subject_id,trial_type,trial_index,time_elapsed,block,rt,stimulus,planet,community,response,correct,key_press,learning_correct_response,parse,init_locations,final_locations,browser_interactions,num_comp,planet_map
14979,commdev-instructions,7,286148,NA,3717.099999997765,"<p>In this game, you are a scientist on board a space shuttle. </p><p> On each mission, you will visit planets all across the universe.</p><img src=""img/controlroom.jpg"" width=300vw>",NA,NA,NA,NA,NA,NA,NA,NA,NA,1,6,"9,14,3,7,10,12,1,15,8,2,13,5,4,6,11"
14979,commdev-instructions,8,289832,NA,1609.5999999977648,"<p>Here are a few planets you might see:</p><img src=""img/practice1.png"" width=200vw><img src=""img/practice2.png"" width=200vw><img src=""img/practice3.png"" width=200vw>",NA,NA,NA,NA,NA,NA,NA,NA,NA,1,6,"9,14,3,7,10,12,1,15,8,2,13,5,4,6,11"
14979,commdev-instructions,9,298946,NA,1710.5999999977648,"<p>Your job as a scientist is to record which direction the winds are moving on each planet.</p><p>There are two types of wind directions:</p><img src=""img/practice1_left.png"" width=200vw><img src=""img/practice1_right.png"" width=200vw>",NA,NA,NA,NA,NA,NA,NA,NA,NA,1,6,"9,14,3,7,10,12,1,15,8,2,13,5,4,6,11"
14979,commdev-instructions,10,305001,NA,1174.300000000745,"<p>If the winds are moving this way, press the letter <strong>F</strong> on the keyboard as fast as you can.</p><img src=""img/leftwind.png"" width=250vw>",NA,NA,NA,NA,NA,NA,NA,NA,NA,1,6,"9,14,3,7,10,12,1,15,8,2,13,5,4,6,11"
14979,commdev-instructions,11,310961,NA,1460.300000000745,"<p>If the winds are moving this way, press the letter <strong>J</strong> on the keyboard as fast as you can.</p><img src=""img/rightwind.png"" width=350vw>",NA,NA,NA,NA,NA,NA,NA,NA,NA,1,6,"9,14,3,7,10,12,1,15,8,2,13,5,4,6,11"
14979,commdev-instructions,12,325678,NA,10299.60000000149,<p>You will have 1 second to respond. Try to respond before the time runs out!,NA,NA,NA,NA,NA,NA,NA,NA,NA,1,6,"9,14,3,7,10,12,1,15,8,2,13,5,4,6,11"
14979,commdev-instructions,13,333811,NA,2700.199999999255,<p>The planets you will visit will look different from each other.</p><p>You should respond <strong>only</strong> based on wind direction.,NA,NA,NA,NA,NA,NA,NA,NA,NA,1,6,"9,14,3,7,10,12,1,15,8,2,13,5,4,6,11"
14979,commdev-instructions,14,368536,NA,29551.699999999255,"<p> Ready to start the practice round? </p><p> Remember, press <strong>F</strong> or <strong>J</strong> depending on the wind direction.<br><img src=""img/categorize_planet_example.png""",NA,NA,NA,NA,NA,NA,NA,NA,NA,1,6,"9,14,3,7,10,12,1,15,8,2,13,5,4,6,11"
14979,commdev-instructions,26,443805,NA,1647.7000000029802,"<p>Great, now try a short practice mission. </p><p> This time, you will have 1 second to respond and you won't know whether you pressed the right or wrong key for each planet.</p>",NA,NA,NA,NA,NA,NA,NA,NA,NA,1,6,"9,14,3,7,10,12,1,15,8,2,13,5,4,6,11"
14979,commdev-image-keyboard-response,27,445162,practice,927.8000000007451,img/practice3_left.png,NA,Number not found in mappings,NA,TRUE,f,f,NA,NA,NA,1,6,"9,14,3,7,10,12,1,15,8,2,13,5,4,6,11"
14979,commdev-image-keyboard-response,28,446416,practice,284.1000000014901,img/practice2_left.png,NA,Number not found in mappings,NA,FALSE,j,f,NA,NA,NA,1,6,"9,14,3,7,10,12,1,15,8,2,13,5,4,6,11"
14979,commdev-image-keyboard-response,29,447669,practice,567.0999999977648,img/practice4_right.png,NA,Number not found in mappings,NA,FALSE,f,j,NA,NA,NA,1,6,"9,14,3,7,10,12,1,15,8,2,13,5,4,6,11"
14979,commdev-image-keyboard-response,30,448922,practice,662.3000000007451,img/practice1_left.png,NA,Number not found in mappings,NA,FALSE,j,f,NA,NA,NA,1,6,"9,14,3,7,10,12,1,15,8,2,13,5,4,6,11"
14979,commdev-image-keyboard-response,31,450176,practice,576.4000000022352,img/practice2_left.png,NA,Number not found in mappings,NA,FALSE,j,f,NA,NA,NA,1,6,"9,14,3,7,10,12,1,15,8,2,13,5,4,6,11"
14979,commdev-image-keyboard-response,32,451429,practice,472.6000000014901,img/practice1_right.png,NA,Number not found in mappings,NA,FALSE,f,j,NA,NA,NA,1,6,"9,14,3,7,10,12,1,15,8,2,13,5,4,6,11"
14979,commdev-image-keyboard-response,33,452682,practice,947.1000000014901,img/practice4_left.png,NA,Number not found in mappings,NA,FALSE,j,f,NA,NA,NA,1,6,"9,14,3,7,10,12,1,15,8,2,13,5,4,6,11"
14979,commdev-image-keyboard-response,34,453935,practice,588.5,img/practice1_right.png,NA,Number not found in mappings,NA,FALSE,f,j,NA,NA,NA,1,6,"9,14,3,7,10,12,1,15,8,2,13,5,4,6,11"
14979,commdev-instructions,35,465566,NA,2076.5,"<p>Great job with the practice round.</p><p>During real missions, you won't know whether you pressed the right or wrong key for each planet.</p><p>But between missions, we will tell you how you did overall.</p>",NA,NA,NA,NA,NA,NA,NA,NA,NA,1,6,"9,14,3,7,10,12,1,15,8,2,13,5,4,6,11"
14979,commdev-instructions,36,474798,NA,993.6999999992549,<p>Try your best! You will be paid a bonus based on how many correct responses you make!</p><p>Responses that are too slow will not count toward your bonus.</p>,NA,NA,NA,NA,NA,NA,NA,NA,NA,1,6,"9,14,3,7,10,12,1,15,8,2,13,5,4,6,11"
14979,commdev-instructions,37,483266,NA,2261.2000000029802,"<p>You are almost ready to start the real game.</p><p> First, we are going to ask you some questions about how the game works.</p>",NA,NA,NA,NA,NA,NA,NA,NA,NA,1,6,"9,14,3,7,10,12,1,15,8,2,13,5,4,6,11"
14979,commdev-instructions,46,602393,NA,3574,"<p> Nice work! It is now time to start the real game.<p></p>You will go on two missions to record wind directions of different planets.<p></p>Each one will take about 5 minutes. You will get to take a break between missions.<p><p> Remember, press <strong>F</strong> or <strong>J</strong> depending on the wind direction. Good luck!<br><img src=""img/categorize_planet_example.png""",NA,NA,NA,NA,NA,NA,NA,NA,NA,1,6,"9,14,3,7,10,12,1,15,8,2,13,5,4,6,11"
14979,commdev-image-keyboard-response,48,608521,learnblock1,1127,img/planet12_right.png,12,Community 2,NA,TRUE,j,j,NA,NA,NA,1,6,"9,14,3,7,10,12,1,15,8,2,13,5,4,6,11"
14979,commdev-image-keyboard-response,49,609773,learnblock1,966.8000000007451,img/planet1_right.png,1,Community 2,NA,TRUE,j,j,NA,NA,NA,1,6,"9,14,3,7,10,12,1,15,8,2,13,5,4,6,11"
14979,commdev-image-keyboard-response,50,611025,learnblock1,732.1000000014901,img/planet15_left.png,15,Community 2,NA,TRUE,f,f,NA,NA,NA,1,6,"9,14,3,7,10,12,1,15,8,2,13,5,4,6,11"
14979,commdev-image-keyboard-response,51,612280,learnblock1,1145.300000000745,img/planet5_left.png,5,Community 3,NA,TRUE,f,f,NA,NA,NA,1,6,"9,14,3,7,10,12,1,15,8,2,13,5,4,6,11"
14979,commdev-image-keyboard-response,52,613531,learnblock1,null,img/planet4_left.png,4,Community 3,NA,FALSE,null,f,NA,NA,NA,1,6,"9,14,3,7,10,12,1,15,8,2,13,5,4,6,11"
14979,commdev-image-keyboard-response,53,614784,learnblock1,14.900000002235174,img/planet11_left.png,11,Community 3,NA,TRUE,f,f,NA,NA,NA,1,6,"9,14,3,7,10,12,1,15,8,2,13,5,4,6,11"
14979,commdev-image-keyboard-response,54,616037,learnblock1,603,img/planet4_left.png,4,Community 3,NA,FALSE,j,f,NA,NA,NA,1,6,"9,14,3,7,10,12,1,15,8,2,13,5,4,6,11"
14979,commdev-image-keyboard-response,55,617289,learnblock1,738.5999999977648,img/planet11_right.png,11,Community 3,NA,TRUE,j,j,NA,NA,NA,1,6,"9,14,3,7,10,12,1,15,8,2,13,5,4,6,11"
14979,commdev-image-keyboard-response,56,618542,learnblock1,455.5,img/planet13_left.png,13,Community 3,NA,TRUE,f,f,NA,NA,NA,1,6,"9,14,3,7,10,12,1,15,8,2,13,5,4,6,11"
14979,commdev-image-keyboard-response,57,619794,learnblock1,482.30000000074506,img/planet4_left.png,4,Community 3,NA,FALSE,j,f,NA,NA,NA,1,6,"9,14,3,7,10,12,1,15,8,2,13,5,4,6,11"
14979,commdev-image-keyboard-response,58,621047,learnblock1,954.6999999992549,img/planet5_right.png,5,Community 3,NA,TRUE,j,j,NA,NA,NA,1,6,"9,14,3,7,10,12,1,15,8,2,13,5,4,6,11"
14979,commdev-image-keyboard-response,59,622299,learnblock1,525.3999999985099,img/planet11_left.png,11,Community 3,NA,TRUE,f,f,NA,NA,NA,1,6,"9,14,3,7,10,12,1,15,8,2,13,5,4,6,11"
14979,commdev-image-keyboard-response,60,623552,learnblock1,514.3000000007451,img/planet5_right.png,5,Community 3,NA,TRUE,j,j,NA,NA,NA,1,6,"9,14,3,7,10,12,1,15,8,2,13,5,4,6,11"
14979,commdev-image-keyboard-response,61,624805,learnblock1,483.1000000014901,img/planet6_left.png,6,Community 3,NA,TRUE,f,f,NA,NA,NA,1,6,"9,14,3,7,10,12,1,15,8,2,13,5,4,6,11"
14979,commdev-image-keyboard-response,62,626058,learnblock1,536.5,img/planet13_left.png,13,Community 3,NA,FALSE,j,f,NA,NA,NA,1,6,"9,14,3,7,10,12,1,15,8,2,13,5,4,6,11"
14979,commdev-image-keyboard-response,63,627311,learnblock1,1135.1000000014901,img/planet11_left.png,11,Community 3,NA,TRUE,f,f,NA,NA,NA,1,6,"9,14,3,7,10,12,1,15,8,2,13,5,4,6,11"
14979,commdev-image-keyboard-response,64,628564,learnblock1,691.1999999992549,img/planet5_right.png,5,Community 3,NA,TRUE,j,j,NA,NA,NA,1,6,"9,14,3,7,10,12,1,15,8,2,13,5,4,6,11"
14979,commdev-image-keyboard-response,65,629817,learnblock1,445.80000000074506,img/planet15_left.png,15,Community 2,NA,TRUE,f,f,NA,NA,NA,1,6,"9,14,3,7,10,12,1,15,8,2,13,5,4,6,11"
14979,commdev-image-keyboard-response,66,631070,learnblock1,621.6999999992549,img/planet1_right.png,1,Community 2,NA,TRUE,j,j,NA,NA,NA,1,6,"9,14,3,7,10,12,1,15,8,2,13,5,4,6,11"
14979,commdev-image-keyboard-response,67,632322,learnblock1,516.5999999977648,img/planet8_right.png,8,Community 2,NA,FALSE,f,j,NA,NA,NA,1,6,"9,14,3,7,10,12,1,15,8,2,13,5,4,6,11"
14979,commdev-image-keyboard-response,68,633576,learnblock1,740.3000000007451,img/planet15_left.png,15,Community 2,NA,FALSE,j,f,NA,NA,NA,1,6,"9,14,3,7,10,12,1,15,8,2,13,5,4,6,11"
14979,commdev-image-keyboard-response,69,634828,learnblock1,600.8000000007451,img/planet2_left.png,2,Community 2,NA,TRUE,f,f,NA,NA,NA,1,6,"9,14,3,7,10,12,1,15,8,2,13,5,4,6,11"
14979,commdev-image-keyboard-response,70,636081,learnblock1,555.6999999992549,img/planet1_left.png,1,Community 2,NA,FALSE,j,f,NA,NA,NA,1,6,"9,14,3,7,10,12,1,15,8,2,13,5,4,6,11"
14979,commdev-image-keyboard-response,71,637333,learnblock1,757.3999999985099,img/planet12_left.png,12,Community 2,NA,TRUE,f,f,NA,NA,NA,1,6,"9,14,3,7,10,12,1,15,8,2,13,5,4,6,11"
14979,commdev-image-keyboard-response,72,638585,learnblock1,680.6999999992549,img/planet8_left.png,8,Community 2,NA,TRUE,f,f,NA,NA,NA,1,6,"9,14,3,7,10,12,1,15,8,2,13,5,4,6,11"
14979,commdev-image-keyboard-response,73,639838,learnblock1,556.3000000007451,img/planet2_left.png,2,Community 2,NA,TRUE,f,f,NA,NA,NA,1,6,"9,14,3,7,10,12,1,15,8,2,13,5,4,6,11"
14979,commdev-image-keyboard-response,74,641090,learnblock1,542.5999999977648,img/planet12_right.png,12,Community 2,NA,TRUE,j,j,NA,NA,NA,1,6,"9,14,3,7,10,12,1,15,8,2,13,5,4,6,11"
14979,commdev-image-keyboard-response,75,642343,learnblock1,730.6000000014901,img/planet2_right.png,2,Community 2,NA,TRUE,j,j,NA,NA,NA,1,6,"9,14,3,7,10,12,1,15,8,2,13,5,4,6,11"
14979,commdev-image-keyboard-response,76,643596,learnblock1,670,img/planet1_right.png,1,Community 2,NA,FALSE,f,j,NA,NA,NA,1,6,"9,14,3,7,10,12,1,15,8,2,13,5,4,6,11"
14979,commdev-image-keyboard-response,77,644849,learnblock1,893.1999999992549,img/planet15_left.png,15,Community 2,NA,FALSE,j,f,NA,NA,NA,1,6,"9,14,3,7,10,12,1,15,8,2,13,5,4,6,11"
14979,commdev-image-keyboard-response,78,646102,learnblock1,784,img/planet1_left.png,1,Community 2,NA,TRUE,f,f,NA,NA,NA,1,6,"9,14,3,7,10,12,1,15,8,2,13,5,4,6,11"
14979,commdev-image-keyboard-response,79,647355,learnblock1,578.7000000029802,img/planet15_left.png,15,Community 2,NA,TRUE,f,f,NA,NA,NA,1,6,"9,14,3,7,10,12,1,15,8,2,13,5,4,6,11"
14979,commdev-image-keyboard-response,80,648607,learnblock1,704.3999999985099,img/planet8_left.png,8,Community 2,NA,TRUE,f,f,NA,NA,NA,1,6,"9,14,3,7,10,12,1,15,8,2,13,5,4,6,11"
14979,commdev-image-keyboard-response,81,649860,learnblock1,594.7000000029802,img/planet2_left.png,2,Community 2,NA,TRUE,f,f,NA,NA,NA,1,6,"9,14,3,7,10,12,1,15,8,2,13,5,4,6,11"
14979,commdev-image-keyboard-response,82,651113,learnblock1,508.3999999985099,img/planet15_right.png,15,Community 2,NA,TRUE,j,j,NA,NA,NA,1,6,"9,14,3,7,10,12,1,15,8,2,13,5,4,6,11"
14979,commdev-image-keyboard-response,83,652366,learnblock1,null,img/planet8_right.png,8,Community 2,NA,FALSE,null,j,NA,NA,NA,1,6,"9,14,3,7,10,12,1,15,8,2,13,5,4,6,11"
14979,commdev-image-keyboard-response,84,653618,learnblock1,8.300000000745058,img/planet15_right.png,15,Community 2,NA,TRUE,j,j,NA,NA,NA,1,6,"9,14,3,7,10,12,1,15,8,2,13,5,4,6,11"
14979,commdev-image-keyboard-response,85,654871,learnblock1,958.8999999985099,img/planet5_right.png,5,Community 3,NA,TRUE,j,j,NA,NA,NA,1,6,"9,14,3,7,10,12,1,15,8,2,13,5,4,6,11"
14979,commdev-image-keyboard-response,86,656123,learnblock1,675.0999999977648,img/planet15_left.png,15,Community 2,NA,TRUE,f,f,NA,NA,NA,1,6,"9,14,3,7,10,12,1,15,8,2,13,5,4,6,11"
14979,commdev-image-keyboard-response,87,657376,learnblock1,841.5,img/planet8_left.png,8,Community 2,NA,TRUE,f,f,NA,NA,NA,1,6,"9,14,3,7,10,12,1,15,8,2,13,5,4,6,11"
14979,commdev-image-keyboard-response,88,658629,learnblock1,790.7999999970198,img/planet15_left.png,15,Community 2,NA,TRUE,f,f,NA,NA,NA,1,6,"9,14,3,7,10,12,1,15,8,2,13,5,4,6,11"
14979,commdev-image-keyboard-response,89,659881,learnblock1,651.8999999985099,img/planet1_left.png,1,Community 2,NA,TRUE,f,f,NA,NA,NA,1,6,"9,14,3,7,10,12,1,15,8,2,13,5,4,6,11"
14979,commdev-image-keyboard-response,90,661134,learnblock1,528.6999999992549,img/planet2_left.png,2,Community 2,NA,TRUE,f,f,NA,NA,NA,1,6,"9,14,3,7,10,12,1,15,8,2,13,5,4,6,11"
14979,commdev-image-keyboard-response,91,662386,learnblock1,751.9000000022352,img/planet15_right.png,15,Community 2,NA,FALSE,f,j,NA,NA,NA,1,6,"9,14,3,7,10,12,1,15,8,2,13,5,4,6,11"
14979,commdev-image-keyboard-response,92,663640,learnblock1,130.30000000074506,img/planet8_right.png,8,Community 2,NA,TRUE,j,j,NA,NA,NA,1,6,"9,14,3,7,10,12,1,15,8,2,13,5,4,6,11"
14979,commdev-image-keyboard-response,93,664893,learnblock1,null,img/planet15_right.png,15,Community 2,NA,FALSE,null,j,NA,NA,NA,1,6,"9,14,3,7,10,12,1,15,8,2,13,5,4,6,11"
14979,commdev-image-keyboard-response,94,666145,learnblock1,null,img/planet2_left.png,2,Community 2,NA,FALSE,null,f,NA,NA,NA,1,6,"9,14,3,7,10,12,1,15,8,2,13,5,4,6,11"
14979,commdev-image-keyboard-response,95,667397,learnblock1,297.5,img/planet8_right.png,8,Community 2,NA,FALSE,f,j,NA,NA,NA,1,6,"9,14,3,7,10,12,1,15,8,2,13,5,4,6,11"
14979,commdev-image-keyboard-response,96,668649,learnblock1,59.5,img/planet1_left.png,1,Community 2,NA,FALSE,j,f,NA,NA,NA,1,6,"9,14,3,7,10,12,1,15,8,2,13,5,4,6,11"
14979,commdev-image-keyboard-response,97,669902,learnblock1,447.6000000014901,img/planet8_left.png,8,Community 2,NA,TRUE,f,f,NA,NA,NA,1,6,"9,14,3,7,10,12,1,15,8,2,13,5,4,6,11"
14979,commdev-image-keyboard-response,98,671154,learnblock1,241.30000000074506,img/planet1_left.png,1,Community 2,NA,TRUE,f,f,NA,NA,NA,1,6,"9,14,3,7,10,12,1,15,8,2,13,5,4,6,11"
14979,commdev-image-keyboard-response,99,672406,learnblock1,267.0999999977648,img/planet12_right.png,12,Community 2,NA,FALSE,f,j,NA,NA,NA,1,6,"9,14,3,7,10,12,1,15,8,2,13,5,4,6,11"
14979,commdev-image-keyboard-response,100,673658,learnblock1,319.0999999977648,img/planet2_right.png,2,Community 2,NA,TRUE,j,j,NA,NA,NA,1,6,"9,14,3,7,10,12,1,15,8,2,13,5,4,6,11"
14979,commdev-image-keyboard-response,101,674911,learnblock1,453.5,img/planet15_left.png,15,Community 2,NA,TRUE,f,f,NA,NA,NA,1,6,"9,14,3,7,10,12,1,15,8,2,13,5,4,6,11"
14979,commdev-image-keyboard-response,102,676163,learnblock1,627.1000000014901,img/planet8_left.png,8,Community 2,NA,TRUE,f,f,NA,NA,NA,1,6,"9,14,3,7,10,12,1,15,8,2,13,5,4,6,11"
14979,commdev-image-keyboard-response,103,677416,learnblock1,476.30000000074506,img/planet1_left.png,1,Community 2,NA,TRUE,f,f,NA,NA,NA,1,6,"9,14,3,7,10,12,1,15,8,2,13,5,4,6,11"
14979,commdev-image-keyboard-response,104,678669,learnblock1,397,img/planet15_right.png,15,Community 2,NA,TRUE,j,j,NA,NA,NA,1,6,"9,14,3,7,10,12,1,15,8,2,13,5,4,6,11"
14979,commdev-image-keyboard-response,105,679921,learnblock1,297.69999999925494,img/planet1_left.png,1,Community 2,NA,TRUE,f,f,NA,NA,NA,1,6,"9,14,3,7,10,12,1,15,8,2,13,5,4,6,11"
14979,commdev-image-keyboard-response,106,681174,learnblock1,224.10000000149012,img/planet2_right.png,2,Community 2,NA,TRUE,j,j,NA,NA,NA,1,6,"9,14,3,7,10,12,1,15,8,2,13,5,4,6,11"
14979,commdev-image-keyboard-response,107,682426,learnblock1,267.1000000014901,img/planet15_right.png,15,Community 2,NA,FALSE,f,j,NA,NA,NA,1,6,"9,14,3,7,10,12,1,15,8,2,13,5,4,6,11"
14979,commdev-image-keyboard-response,108,683678,learnblock1,563.5,img/planet1_left.png,1,Community 2,NA,TRUE,f,f,NA,NA,NA,1,6,"9,14,3,7,10,12,1,15,8,2,13,5,4,6,11"
14979,commdev-image-keyboard-response,109,684930,learnblock1,595,img/planet2_left.png,2,Community 2,NA,TRUE,f,f,NA,NA,NA,1,6,"9,14,3,7,10,12,1,15,8,2,13,5,4,6,11"
14979,commdev-image-keyboard-response,110,686183,learnblock1,449.30000000074506,img/planet1_left.png,1,Community 2,NA,TRUE,f,f,NA,NA,NA,1,6,"9,14,3,7,10,12,1,15,8,2,13,5,4,6,11"
14979,commdev-image-keyboard-response,111,687435,learnblock1,459.9000000022352,img/planet15_right.png,15,Community 2,NA,TRUE,j,j,NA,NA,NA,1,6,"9,14,3,7,10,12,1,15,8,2,13,5,4,6,11"
14979,commdev-image-keyboard-response,112,688687,learnblock1,734.5,img/planet5_right.png,5,Community 3,NA,TRUE,j,j,NA,NA,NA,1,6,"9,14,3,7,10,12,1,15,8,2,13,5,4,6,11"
14979,commdev-image-keyboard-response,113,689940,learnblock1,925.4000000022352,img/planet4_right.png,4,Community 3,NA,TRUE,j,j,NA,NA,NA,1,6,"9,14,3,7,10,12,1,15,8,2,13,5,4,6,11"
14979,commdev-image-keyboard-response,114,691192,learnblock1,890.3999999985099,img/planet6_right.png,6,Community 3,NA,TRUE,j,j,NA,NA,NA,1,6,"9,14,3,7,10,12,1,15,8,2,13,5,4,6,11"
14979,commdev-image-keyboard-response,115,692445,learnblock1,540,img/planet11_left.png,11,Community 3,NA,FALSE,j,f,NA,NA,NA,1,6,"9,14,3,7,10,12,1,15,8,2,13,5,4,6,11"
14979,commdev-image-keyboard-response,116,693697,learnblock1,784.8000000007451,img/planet6_left.png,6,Community 3,NA,TRUE,f,f,NA,NA,NA,1,6,"9,14,3,7,10,12,1,15,8,2,13,5,4,6,11"
14979,commdev-image-keyboard-response,117,694950,learnblock1,950.3000000007451,img/planet13_right.png,13,Community 3,NA,TRUE,j,j,NA,NA,NA,1,6,"9,14,3,7,10,12,1,15,8,2,13,5,4,6,11"
14979,commdev-image-keyboard-response,118,696203,learnblock1,671,img/planet4_left.png,4,Community 3,NA,TRUE,f,f,NA,NA,NA,1,6,"9,14,3,7,10,12,1,15,8,2,13,5,4,6,11"
14979,commdev-image-keyboard-response,119,697455,learnblock1,679.1000000014901,img/planet11_right.png,11,Community 3,NA,TRUE,j,j,NA,NA,NA,1,6,"9,14,3,7,10,12,1,15,8,2,13,5,4,6,11"
14979,commdev-image-keyboard-response,120,698708,learnblock1,514.3000000007451,img/planet4_right.png,4,Community 3,NA,FALSE,f,j,NA,NA,NA,1,6,"9,14,3,7,10,12,1,15,8,2,13,5,4,6,11"
14979,commdev-image-keyboard-response,121,699960,learnblock1,574.6999999992549,img/planet11_right.png,11,Community 3,NA,FALSE,f,j,NA,NA,NA,1,6,"9,14,3,7,10,12,1,15,8,2,13,5,4,6,11"
14979,commdev-image-keyboard-response,122,701213,learnblock1,1025.4000000022352,img/planet6_right.png,6,Community 3,NA,TRUE,j,j,NA,NA,NA,1,6,"9,14,3,7,10,12,1,15,8,2,13,5,4,6,11"
14979,commdev-image-keyboard-response,123,702465,learnblock1,485.80000000074506,img/planet4_left.png,4,Community 3,NA,FALSE,j,f,NA,NA,NA,1,6,"9,14,3,7,10,12,1,15,8,2,13,5,4,6,11"
14979,commdev-image-keyboard-response,124,703717,learnblock1,609.4000000022352,img/planet6_left.png,6,Community 3,NA,FALSE,j,f,NA,NA,NA,1,6,"9,14,3,7,10,12,1,15,8,2,13,5,4,6,11"
14979,commdev-image-keyboard-response,125,704970,learnblock1,528.5,img/planet4_left.png,4,Community 3,NA,TRUE,f,f,NA,NA,NA,1,6,"9,14,3,7,10,12,1,15,8,2,13,5,4,6,11"
14979,commdev-image-keyboard-response,126,706223,learnblock1,839.9000000022352,img/planet5_left.png,5,Community 3,NA,TRUE,f,f,NA,NA,NA,1,6,"9,14,3,7,10,12,1,15,8,2,13,5,4,6,11"
14979,commdev-image-keyboard-response,127,707475,learnblock1,792,img/planet4_left.png,4,Community 3,NA,TRUE,f,f,NA,NA,NA,1,6,"9,14,3,7,10,12,1,15,8,2,13,5,4,6,11"
14979,commdev-image-keyboard-response,128,708727,learnblock1,526.8000000007451,img/planet13_right.png,13,Community 3,NA,TRUE,j,j,NA,NA,NA,1,6,"9,14,3,7,10,12,1,15,8,2,13,5,4,6,11"
14979,commdev-image-keyboard-response,129,709980,learnblock1,920.5,img/planet4_left.png,4,Community 3,NA,TRUE,f,f,NA,NA,NA,1,6,"9,14,3,7,10,12,1,15,8,2,13,5,4,6,11"
14979,commdev-image-keyboard-response,130,711232,learnblock1,603.6999999992549,img/planet5_right.png,5,Community 3,NA,TRUE,j,j,NA,NA,NA,1,6,"9,14,3,7,10,12,1,15,8,2,13,5,4,6,11"
14979,commdev-image-keyboard-response,131,712485,learnblock1,445.9000000022352,img/planet4_left.png,4,Community 3,NA,TRUE,f,f,NA,NA,NA,1,6,"9,14,3,7,10,12,1,15,8,2,13,5,4,6,11"
14979,commdev-image-keyboard-response,132,713737,learnblock1,463,img/planet5_left.png,5,Community 3,NA,FALSE,j,f,NA,NA,NA,1,6,"9,14,3,7,10,12,1,15,8,2,13,5,4,6,11"
14979,commdev-image-keyboard-response,133,714989,learnblock1,421,img/planet4_right.png,4,Community 3,NA,FALSE,f,j,NA,NA,NA,1,6,"9,14,3,7,10,12,1,15,8,2,13,5,4,6,11"
14979,commdev-image-keyboard-response,134,716242,learnblock1,658.6000000014901,img/planet13_right.png,13,Community 3,NA,TRUE,j,j,NA,NA,NA,1,6,"9,14,3,7,10,12,1,15,8,2,13,5,4,6,11"
14979,commdev-image-keyboard-response,135,717495,learnblock1,526.7000000029802,img/planet4_left.png,4,Community 3,NA,TRUE,f,f,NA,NA,NA,1,6,"9,14,3,7,10,12,1,15,8,2,13,5,4,6,11"
14979,commdev-image-keyboard-response,136,718748,learnblock1,500.5,img/planet13_right.png,13,Community 3,NA,TRUE,j,j,NA,NA,NA,1,6,"9,14,3,7,10,12,1,15,8,2,13,5,4,6,11"
14979,commdev-image-keyboard-response,137,720000,learnblock1,734,img/planet4_right.png,4,Community 3,NA,TRUE,j,j,NA,NA,NA,1,6,"9,14,3,7,10,12,1,15,8,2,13,5,4,6,11"
14979,commdev-image-keyboard-response,138,721253,learnblock1,627.3999999985099,img/planet5_left.png,5,Community 3,NA,TRUE,f,f,NA,NA,NA,1,6,"9,14,3,7,10,12,1,15,8,2,13,5,4,6,11"
14979,commdev-image-keyboard-response,139,722505,learnblock1,664.3000000007451,img/planet6_right.png,6,Community 3,NA,TRUE,j,j,NA,NA,NA,1,6,"9,14,3,7,10,12,1,15,8,2,13,5,4,6,11"
14979,commdev-image-keyboard-response,140,723757,learnblock1,461.5999999977648,img/planet13_left.png,13,Community 3,NA,TRUE,f,f,NA,NA,NA,1,6,"9,14,3,7,10,12,1,15,8,2,13,5,4,6,11"
14979,commdev-image-keyboard-response,141,725010,learnblock1,615.8000000007451,img/planet10_left.png,10,Community 1,NA,TRUE,f,f,NA,NA,NA,1,6,"9,14,3,7,10,12,1,15,8,2,13,5,4,6,11"
14979,commdev-image-keyboard-response,142,726263,learnblock1,543,img/planet13_right.png,13,Community 3,NA,TRUE,j,j,NA,NA,NA,1,6,"9,14,3,7,10,12,1,15,8,2,13,5,4,6,11"
14979,commdev-image-keyboard-response,143,727515,learnblock1,568,img/planet11_right.png,11,Community 3,NA,FALSE,f,j,NA,NA,NA,1,6,"9,14,3,7,10,12,1,15,8,2,13,5,4,6,11"
14979,commdev-image-keyboard-response,144,728768,learnblock1,618.8999999985099,img/planet5_right.png,5,Community 3,NA,TRUE,j,j,NA,NA,NA,1,6,"9,14,3,7,10,12,1,15,8,2,13,5,4,6,11"
14979,commdev-image-keyboard-response,145,730021,learnblock1,528.6999999992549,img/planet4_right.png,4,Community 3,NA,TRUE,j,j,NA,NA,NA,1,6,"9,14,3,7,10,12,1,15,8,2,13,5,4,6,11"
14979,commdev-image-keyboard-response,146,731273,learnblock1,567.8000000007451,img/planet13_left.png,13,Community 3,NA,TRUE,f,f,NA,NA,NA,1,6,"9,14,3,7,10,12,1,15,8,2,13,5,4,6,11"
14979,commdev-image-keyboard-response,147,732525,learnblock1,547.6999999992549,img/planet4_left.png,4,Community 3,NA,TRUE,f,f,NA,NA,NA,1,6,"9,14,3,7,10,12,1,15,8,2,13,5,4,6,11"
14979,commdev-image-keyboard-response,148,733778,learnblock1,488.9000000022352,img/planet6_left.png,6,Community 3,NA,FALSE,j,f,NA,NA,NA,1,6,"9,14,3,7,10,12,1,15,8,2,13,5,4,6,11"
14979,commdev-image-keyboard-response,149,735031,learnblock1,450.19999999925494,img/planet4_left.png,4,Community 3,NA,TRUE,f,f,NA,NA,NA,1,6,"9,14,3,7,10,12,1,15,8,2,13,5,4,6,11"
14979,commdev-image-keyboard-response,150,736283,learnblock1,808.5,img/planet11_right.png,11,Community 3,NA,TRUE,j,j,NA,NA,NA,1,6,"9,14,3,7,10,12,1,15,8,2,13,5,4,6,11"
14979,commdev-image-keyboard-response,151,737536,learnblock1,625.6999999992549,img/planet4_left.png,4,Community 3,NA,TRUE,f,f,NA,NA,NA,1,6,"9,14,3,7,10,12,1,15,8,2,13,5,4,6,11"
14979,commdev-image-keyboard-response,152,738788,learnblock1,660.3999999985099,img/planet6_right.png,6,Community 3,NA,TRUE,j,j,NA,NA,NA,1,6,"9,14,3,7,10,12,1,15,8,2,13,5,4,6,11"
14979,commdev-image-keyboard-response,153,740041,learnblock1,617.3000000007451,img/planet4_right.png,4,Community 3,NA,TRUE,j,j,NA,NA,NA,1,6,"9,14,3,7,10,12,1,15,8,2,13,5,4,6,11"
14979,commdev-image-keyboard-response,154,741294,learnblock1,746.5,img/planet5_left.png,5,Community 3,NA,TRUE,f,f,NA,NA,NA,1,6,"9,14,3,7,10,12,1,15,8,2,13,5,4,6,11"
14979,commdev-image-keyboard-response,155,742546,learnblock1,755.5,img/planet6_right.png,6,Community 3,NA,TRUE,j,j,NA,NA,NA,1,6,"9,14,3,7,10,12,1,15,8,2,13,5,4,6,11"
14979,commdev-image-keyboard-response,156,743799,learnblock1,917,img/planet13_left.png,13,Community 3,NA,TRUE,f,f,NA,NA,NA,1,6,"9,14,3,7,10,12,1,15,8,2,13,5,4,6,11"
14979,commdev-image-keyboard-response,157,745052,learnblock1,637.6000000014901,img/planet10_right.png,10,Community 1,NA,TRUE,j,j,NA,NA,NA,1,6,"9,14,3,7,10,12,1,15,8,2,13,5,4,6,11"
14979,commdev-image-keyboard-response,158,746305,learnblock1,849.6999999992549,img/planet3_right.png,3,Community 1,NA,TRUE,j,j,NA,NA,NA,1,6,"9,14,3,7,10,12,1,15,8,2,13,5,4,6,11"
14979,commdev-image-keyboard-response,159,747557,learnblock1,631.2999999970198,img/planet14_right.png,14,Community 1,NA,TRUE,j,j,NA,NA,NA,1,6,"9,14,3,7,10,12,1,15,8,2,13,5,4,6,11"
14979,commdev-image-keyboard-response,160,748810,learnblock1,637.0999999977648,img/planet9_right.png,9,Community 1,NA,TRUE,j,j,NA,NA,NA,1,6,"9,14,3,7,10,12,1,15,8,2,13,5,4,6,11"
14979,commdev-image-keyboard-response,161,750062,learnblock1,877.1999999992549,img/planet14_left.png,14,Community 1,NA,TRUE,f,f,NA,NA,NA,1,6,"9,14,3,7,10,12,1,15,8,2,13,5,4,6,11"
14979,commdev-image-keyboard-response,162,751314,learnblock1,836.4000000022352,img/planet10_left.png,10,Community 1,NA,TRUE,f,f,NA,NA,NA,1,6,"9,14,3,7,10,12,1,15,8,2,13,5,4,6,11"
14979,commdev-image-keyboard-response,163,752567,learnblock1,680.3000000007451,img/planet9_left.png,9,Community 1,NA,TRUE,f,f,NA,NA,NA,1,6,"9,14,3,7,10,12,1,15,8,2,13,5,4,6,11"
14979,commdev-image-keyboard-response,164,753819,learnblock1,531.2000000029802,img/planet7_right.png,7,Community 1,NA,TRUE,j,j,NA,NA,NA,1,6,"9,14,3,7,10,12,1,15,8,2,13,5,4,6,11"
14979,commdev-image-keyboard-response,165,755072,learnblock1,646.8000000007451,img/planet12_right.png,12,Community 2,NA,TRUE,j,j,NA,NA,NA,1,6,"9,14,3,7,10,12,1,15,8,2,13,5,4,6,11"
14979,commdev-image-keyboard-response,166,756325,learnblock1,561.1999999992549,img/planet7_left.png,7,Community 1,NA,FALSE,j,f,NA,NA,NA,1,6,"9,14,3,7,10,12,1,15,8,2,13,5,4,6,11"
14979,commdev-image-keyboard-response,167,757578,learnblock1,926.6999999992549,img/planet3_right.png,3,Community 1,NA,TRUE,j,j,NA,NA,NA,1,6,"9,14,3,7,10,12,1,15,8,2,13,5,4,6,11"
14979,commdev-image-keyboard-response,168,758830,learnblock1,648.7000000029802,img/planet9_right.png,9,Community 1,NA,TRUE,j,j,NA,NA,NA,1,6,"9,14,3,7,10,12,1,15,8,2,13,5,4,6,11"
14979,commdev-image-keyboard-response,169,760083,learnblock1,523.1000000014901,img/planet10_right.png,10,Community 1,NA,TRUE,j,j,NA,NA,NA,1,6,"9,14,3,7,10,12,1,15,8,2,13,5,4,6,11"
14979,commdev-image-keyboard-response,170,761336,learnblock1,613.8000000007451,img/planet9_right.png,9,Community 1,NA,TRUE,j,j,NA,NA,NA,1,6,"9,14,3,7,10,12,1,15,8,2,13,5,4,6,11"
14979,commdev-image-keyboard-response,171,762588,learnblock1,586,img/planet3_left.png,3,Community 1,NA,TRUE,f,f,NA,NA,NA,1,6,"9,14,3,7,10,12,1,15,8,2,13,5,4,6,11"
14979,commdev-image-keyboard-response,172,763841,learnblock1,758.5,img/planet14_left.png,14,Community 1,NA,TRUE,f,f,NA,NA,NA,1,6,"9,14,3,7,10,12,1,15,8,2,13,5,4,6,11"
14979,commdev-image-keyboard-response,173,765093,learnblock1,944.9000000022352,img/planet3_left.png,3,Community 1,NA,TRUE,f,f,NA,NA,NA,1,6,"9,14,3,7,10,12,1,15,8,2,13,5,4,6,11"
14979,commdev-image-keyboard-response,174,766346,learnblock1,621.3999999985099,img/planet10_left.png,10,Community 1,NA,TRUE,f,f,NA,NA,NA,1,6,"9,14,3,7,10,12,1,15,8,2,13,5,4,6,11"
14979,commdev-image-keyboard-response,175,767598,learnblock1,830.1999999992549,img/planet13_left.png,13,Community 3,NA,TRUE,f,f,NA,NA,NA,1,6,"9,14,3,7,10,12,1,15,8,2,13,5,4,6,11"
14979,commdev-image-keyboard-response,176,768851,learnblock1,967,img/planet10_right.png,10,Community 1,NA,TRUE,j,j,NA,NA,NA,1,6,"9,14,3,7,10,12,1,15,8,2,13,5,4,6,11"
14979,commdev-image-keyboard-response,177,770104,learnblock1,null,img/planet13_right.png,13,Community 3,NA,FALSE,null,j,NA,NA,NA,1,6,"9,14,3,7,10,12,1,15,8,2,13,5,4,6,11"
14979,commdev-image-keyboard-response,178,771357,learnblock1,1160.8999999985099,img/planet6_right.png,6,Community 3,NA,TRUE,j,j,NA,NA,NA,1,6,"9,14,3,7,10,12,1,15,8,2,13,5,4,6,11"
14979,commdev-image-keyboard-response,179,772610,learnblock1,null,img/planet11_left.png,11,Community 3,NA,FALSE,null,f,NA,NA,NA,1,6,"9,14,3,7,10,12,1,15,8,2,13,5,4,6,11"
14979,commdev-image-keyboard-response,180,773861,learnblock1,180.60000000149012,img/planet4_right.png,4,Community 3,NA,FALSE,f,j,NA,NA,NA,1,6,"9,14,3,7,10,12,1,15,8,2,13,5,4,6,11"
14979,commdev-image-keyboard-response,181,775114,learnblock1,572.1000000014901,img/planet11_left.png,11,Community 3,NA,TRUE,f,f,NA,NA,NA,1,6,"9,14,3,7,10,12,1,15,8,2,13,5,4,6,11"
14979,commdev-image-keyboard-response,182,776366,learnblock1,697.1999999992549,img/planet13_left.png,13,Community 3,NA,TRUE,f,f,NA,NA,NA,1,6,"9,14,3,7,10,12,1,15,8,2,13,5,4,6,11"
14979,commdev-image-keyboard-response,183,777619,learnblock1,664.2999999970198,img/planet6_left.png,6,Community 3,NA,TRUE,f,f,NA,NA,NA,1,6,"9,14,3,7,10,12,1,15,8,2,13,5,4,6,11"
14979,commdev-image-keyboard-response,184,778871,learnblock1,923.3999999985099,img/planet5_right.png,5,Community 3,NA,TRUE,j,j,NA,NA,NA,1,6,"9,14,3,7,10,12,1,15,8,2,13,5,4,6,11"
14979,commdev-image-keyboard-response,185,780123,learnblock1,586.9000000022352,img/planet6_left.png,6,Community 3,NA,TRUE,f,f,NA,NA,NA,1,6,"9,14,3,7,10,12,1,15,8,2,13,5,4,6,11"
14979,commdev-image-keyboard-response,186,781376,learnblock1,988.7000000029802,img/planet4_left.png,4,Community 3,NA,TRUE,f,f,NA,NA,NA,1,6,"9,14,3,7,10,12,1,15,8,2,13,5,4,6,11"
14979,commdev-image-keyboard-response,187,782628,learnblock1,568.8000000007451,img/planet6_right.png,6,Community 3,NA,TRUE,j,j,NA,NA,NA,1,6,"9,14,3,7,10,12,1,15,8,2,13,5,4,6,11"
14979,commdev-image-keyboard-response,188,783881,learnblock1,778.8999999985099,img/planet5_right.png,5,Community 3,NA,TRUE,j,j,NA,NA,NA,1,6,"9,14,3,7,10,12,1,15,8,2,13,5,4,6,11"
14979,commdev-image-keyboard-response,189,785133,learnblock1,473.69999999925494,img/planet6_left.png,6,Community 3,NA,TRUE,f,f,NA,NA,NA,1,6,"9,14,3,7,10,12,1,15,8,2,13,5,4,6,11"
14979,commdev-image-keyboard-response,190,786386,learnblock1,565.1000000014901,img/planet11_left.png,11,Community 3,NA,FALSE,j,f,NA,NA,NA,1,6,"9,14,3,7,10,12,1,15,8,2,13,5,4,6,11"
14979,commdev-image-keyboard-response,191,787638,learnblock1,644,img/planet13_left.png,13,Community 3,NA,FALSE,j,f,NA,NA,NA,1,6,"9,14,3,7,10,12,1,15,8,2,13,5,4,6,11"
14979,commdev-image-keyboard-response,192,788890,learnblock1,490.29999999701977,img/planet10_right.png,10,Community 1,NA,TRUE,j,j,NA,NA,NA,1,6,"9,14,3,7,10,12,1,15,8,2,13,5,4,6,11"
14979,commdev-image-keyboard-response,193,790142,learnblock1,546.3999999985099,img/planet9_right.png,9,Community 1,NA,TRUE,j,j,NA,NA,NA,1,6,"9,14,3,7,10,12,1,15,8,2,13,5,4,6,11"
14979,commdev-image-keyboard-response,194,791394,learnblock1,629.8999999985099,img/planet10_left.png,10,Community 1,NA,TRUE,f,f,NA,NA,NA,1,6,"9,14,3,7,10,12,1,15,8,2,13,5,4,6,11"
14979,commdev-image-keyboard-response,195,792646,learnblock1,1105.699999999255,img/planet14_right.png,14,Community 1,NA,TRUE,j,j,NA,NA,NA,1,6,"9,14,3,7,10,12,1,15,8,2,13,5,4,6,11"
14979,commdev-image-keyboard-response,196,793898,learnblock1,null,img/planet3_right.png,3,Community 1,NA,FALSE,null,j,NA,NA,NA,1,6,"9,14,3,7,10,12,1,15,8,2,13,5,4,6,11"
14979,commdev-image-keyboard-response,197,795151,learnblock1,491.5,img/planet9_left.png,9,Community 1,NA,FALSE,j,f,NA,NA,NA,1,6,"9,14,3,7,10,12,1,15,8,2,13,5,4,6,11"
14979,commdev-image-keyboard-response,198,796403,learnblock1,376.6000000014901,img/planet7_left.png,7,Community 1,NA,FALSE,j,f,NA,NA,NA,1,6,"9,14,3,7,10,12,1,15,8,2,13,5,4,6,11"
14979,commdev-image-keyboard-response,199,797656,learnblock1,749.5999999977648,img/planet12_right.png,12,Community 2,NA,FALSE,f,j,NA,NA,NA,1,6,"9,14,3,7,10,12,1,15,8,2,13,5,4,6,11"
14979,commdev-image-keyboard-response,200,798908,learnblock1,1167.699999999255,img/planet8_right.png,8,Community 2,NA,TRUE,j,j,NA,NA,NA,1,6,"9,14,3,7,10,12,1,15,8,2,13,5,4,6,11"
14979,commdev-image-keyboard-response,201,800161,learnblock1,761.6000000014901,img/planet2_right.png,2,Community 2,NA,TRUE,j,j,NA,NA,NA,1,6,"9,14,3,7,10,12,1,15,8,2,13,5,4,6,11"
14979,commdev-image-keyboard-response,202,801413,learnblock1,659.6999999992549,img/planet1_right.png,1,Community 2,NA,TRUE,j,j,NA,NA,NA,1,6,"9,14,3,7,10,12,1,15,8,2,13,5,4,6,11"
14979,commdev-image-keyboard-response,203,802666,learnblock1,561.1000000014901,img/planet12_right.png,12,Community 2,NA,TRUE,j,j,NA,NA,NA,1,6,"9,14,3,7,10,12,1,15,8,2,13,5,4,6,11"
14979,commdev-image-keyboard-response,204,803918,learnblock1,919.3999999985099,img/planet7_left.png,7,Community 1,NA,FALSE,j,f,NA,NA,NA,1,6,"9,14,3,7,10,12,1,15,8,2,13,5,4,6,11"
14979,commdev-image-keyboard-response,205,805171,learnblock1,375.30000000074506,img/planet12_left.png,12,Community 2,NA,TRUE,f,f,NA,NA,NA,1,6,"9,14,3,7,10,12,1,15,8,2,13,5,4,6,11"
14979,commdev-image-keyboard-response,206,806423,learnblock1,7,img/planet1_right.png,1,Community 2,NA,TRUE,j,j,NA,NA,NA,1,6,"9,14,3,7,10,12,1,15,8,2,13,5,4,6,11"
14979,commdev-image-keyboard-response,207,807676,learnblock1,null,img/planet15_left.png,15,Community 2,NA,FALSE,null,f,NA,NA,NA,1,6,"9,14,3,7,10,12,1,15,8,2,13,5,4,6,11"
14979,commdev-image-keyboard-response,208,808929,learnblock1,97.59999999776483,img/planet2_right.png,2,Community 2,NA,TRUE,j,j,NA,NA,NA,1,6,"9,14,3,7,10,12,1,15,8,2,13,5,4,6,11"
14979,commdev-image-keyboard-response,209,810181,learnblock1,200.60000000149012,img/planet12_right.png,12,Community 2,NA,TRUE,j,j,NA,NA,NA,1,6,"9,14,3,7,10,12,1,15,8,2,13,5,4,6,11"
14979,commdev-image-keyboard-response,210,811434,learnblock1,1083.8999999985099,img/planet1_right.png,1,Community 2,NA,TRUE,j,j,NA,NA,NA,1,6,"9,14,3,7,10,12,1,15,8,2,13,5,4,6,11"
14979,commdev-image-keyboard-response,211,812686,learnblock1,513.1999999992549,img/planet15_right.png,15,Community 2,NA,TRUE,j,j,NA,NA,NA,1,6,"9,14,3,7,10,12,1,15,8,2,13,5,4,6,11"
14979,commdev-image-keyboard-response,212,813938,learnblock1,493.20000000298023,img/planet8_left.png,8,Community 2,NA,FALSE,j,f,NA,NA,NA,1,6,"9,14,3,7,10,12,1,15,8,2,13,5,4,6,11"
14979,commdev-image-keyboard-response,213,815191,learnblock1,534.2999999970198,img/planet15_left.png,15,Community 2,NA,TRUE,f,f,NA,NA,NA,1,6,"9,14,3,7,10,12,1,15,8,2,13,5,4,6,11"
14979,commdev-image-keyboard-response,214,816443,learnblock1,443.80000000074506,img/planet2_right.png,2,Community 2,NA,TRUE,j,j,NA,NA,NA,1,6,"9,14,3,7,10,12,1,15,8,2,13,5,4,6,11"
14979,commdev-image-keyboard-response,215,817696,learnblock1,453.1000000014901,img/planet12_right.png,12,Community 2,NA,TRUE,j,j,NA,NA,NA,1,6,"9,14,3,7,10,12,1,15,8,2,13,5,4,6,11"
14979,commdev-image-keyboard-response,216,818948,learnblock1,565.5,img/planet1_left.png,1,Community 2,NA,TRUE,f,f,NA,NA,NA,1,6,"9,14,3,7,10,12,1,15,8,2,13,5,4,6,11"
14979,commdev-image-keyboard-response,217,820201,learnblock1,662.6000000014901,img/planet15_left.png,15,Community 2,NA,TRUE,f,f,NA,NA,NA,1,6,"9,14,3,7,10,12,1,15,8,2,13,5,4,6,11"
14979,commdev-image-keyboard-response,218,821453,learnblock1,697.2999999970198,img/planet2_left.png,2,Community 2,NA,TRUE,f,f,NA,NA,NA,1,6,"9,14,3,7,10,12,1,15,8,2,13,5,4,6,11"
14979,commdev-image-keyboard-response,219,822706,learnblock1,481.19999999925494,img/planet15_left.png,15,Community 2,NA,TRUE,f,f,NA,NA,NA,1,6,"9,14,3,7,10,12,1,15,8,2,13,5,4,6,11"
14979,commdev-image-keyboard-response,220,823959,learnblock1,536.5,img/planet5_right.png,5,Community 3,NA,TRUE,j,j,NA,NA,NA,1,6,"9,14,3,7,10,12,1,15,8,2,13,5,4,6,11"
14979,commdev-image-keyboard-response,221,825212,learnblock1,466.20000000298023,img/planet11_right.png,11,Community 3,NA,TRUE,j,j,NA,NA,NA,1,6,"9,14,3,7,10,12,1,15,8,2,13,5,4,6,11"
14979,commdev-image-keyboard-response,222,826464,learnblock1,744,img/planet5_left.png,5,Community 3,NA,TRUE,f,f,NA,NA,NA,1,6,"9,14,3,7,10,12,1,15,8,2,13,5,4,6,11"
14979,commdev-image-keyboard-response,223,827717,learnblock1,554.9000000022352,img/planet11_left.png,11,Community 3,NA,FALSE,j,f,NA,NA,NA,1,6,"9,14,3,7,10,12,1,15,8,2,13,5,4,6,11"
14979,commdev-image-keyboard-response,224,828970,learnblock1,760.8000000007451,img/planet5_left.png,5,Community 3,NA,TRUE,f,f,NA,NA,NA,1,6,"9,14,3,7,10,12,1,15,8,2,13,5,4,6,11"
14979,commdev-image-keyboard-response,225,830222,learnblock1,658.3000000007451,img/planet6_right.png,6,Community 3,NA,TRUE,j,j,NA,NA,NA,1,6,"9,14,3,7,10,12,1,15,8,2,13,5,4,6,11"
14979,commdev-image-keyboard-response,226,831474,learnblock1,591.1999999992549,img/planet13_right.png,13,Community 3,NA,FALSE,f,j,NA,NA,NA,1,6,"9,14,3,7,10,12,1,15,8,2,13,5,4,6,11"
14979,commdev-image-keyboard-response,227,832726,learnblock1,773.6999999992549,img/planet6_left.png,6,Community 3,NA,FALSE,j,f,NA,NA,NA,1,6,"9,14,3,7,10,12,1,15,8,2,13,5,4,6,11"
14979,commdev-image-keyboard-response,228,833979,learnblock1,508.80000000074506,img/planet13_right.png,13,Community 3,NA,TRUE,j,j,NA,NA,NA,1,6,"9,14,3,7,10,12,1,15,8,2,13,5,4,6,11"
14979,commdev-image-keyboard-response,229,835231,learnblock1,517.6999999992549,img/planet4_left.png,4,Community 3,NA,TRUE,f,f,NA,NA,NA,1,6,"9,14,3,7,10,12,1,15,8,2,13,5,4,6,11"
14979,commdev-image-keyboard-response,230,836484,learnblock1,630.8999999985099,img/planet11_right.png,11,Community 3,NA,TRUE,j,j,NA,NA,NA,1,6,"9,14,3,7,10,12,1,15,8,2,13,5,4,6,11"
14979,commdev-image-keyboard-response,231,837736,learnblock1,737.1999999992549,img/planet4_right.png,4,Community 3,NA,FALSE,f,j,NA,NA,NA,1,6,"9,14,3,7,10,12,1,15,8,2,13,5,4,6,11"
14979,commdev-image-keyboard-response,232,838989,learnblock1,575.4000000022352,img/planet13_left.png,13,Community 3,NA,TRUE,f,f,NA,NA,NA,1,6,"9,14,3,7,10,12,1,15,8,2,13,5,4,6,11"
14979,commdev-image-keyboard-response,233,840241,learnblock1,466.80000000074506,img/planet10_right.png,10,Community 1,NA,TRUE,j,j,NA,NA,NA,1,6,"9,14,3,7,10,12,1,15,8,2,13,5,4,6,11"
14979,commdev-image-keyboard-response,234,841494,learnblock1,459.4000000022352,img/planet3_left.png,3,Community 1,NA,TRUE,f,f,NA,NA,NA,1,6,"9,14,3,7,10,12,1,15,8,2,13,5,4,6,11"
14979,commdev-image-keyboard-response,235,842746,learnblock1,869.8999999985099,img/planet14_left.png,14,Community 1,NA,TRUE,f,f,NA,NA,NA,1,6,"9,14,3,7,10,12,1,15,8,2,13,5,4,6,11"
14979,commdev-image-keyboard-response,236,843999,learnblock1,707.6999999992549,img/planet10_right.png,10,Community 1,NA,TRUE,j,j,NA,NA,NA,1,6,"9,14,3,7,10,12,1,15,8,2,13,5,4,6,11"
14979,commdev-image-keyboard-response,237,845251,learnblock1,633,img/planet14_right.png,14,Community 1,NA,TRUE,j,j,NA,NA,NA,1,6,"9,14,3,7,10,12,1,15,8,2,13,5,4,6,11"
14979,commdev-image-keyboard-response,238,846504,learnblock1,618.6000000014901,img/planet9_right.png,9,Community 1,NA,TRUE,j,j,NA,NA,NA,1,6,"9,14,3,7,10,12,1,15,8,2,13,5,4,6,11"
14979,commdev-image-keyboard-response,239,847757,learnblock1,568,img/planet7_right.png,7,Community 1,NA,TRUE,j,j,NA,NA,NA,1,6,"9,14,3,7,10,12,1,15,8,2,13,5,4,6,11"
14979,commdev-image-keyboard-response,240,849009,learnblock1,502.19999999925494,img/planet9_right.png,9,Community 1,NA,TRUE,j,j,NA,NA,NA,1,6,"9,14,3,7,10,12,1,15,8,2,13,5,4,6,11"
14979,commdev-image-keyboard-response,241,850262,learnblock1,517.6999999992549,img/planet3_left.png,3,Community 1,NA,TRUE,f,f,NA,NA,NA,1,6,"9,14,3,7,10,12,1,15,8,2,13,5,4,6,11"
14979,commdev-image-keyboard-response,242,851514,learnblock1,392.29999999701977,img/planet14_left.png,14,Community 1,NA,FALSE,j,f,NA,NA,NA,1,6,"9,14,3,7,10,12,1,15,8,2,13,5,4,6,11"
14979,commdev-image-keyboard-response,243,852765,learnblock1,1031.5,img/planet3_left.png,3,Community 1,NA,TRUE,f,f,NA,NA,NA,1,6,"9,14,3,7,10,12,1,15,8,2,13,5,4,6,11"
14979,commdev-image-keyboard-response,244,854018,learnblock1,601.6999999992549,img/planet10_right.png,10,Community 1,NA,TRUE,j,j,NA,NA,NA,1,6,"9,14,3,7,10,12,1,15,8,2,13,5,4,6,11"
14979,commdev-image-keyboard-response,245,855271,learnblock1,473.30000000074506,img/planet14_left.png,14,Community 1,NA,TRUE,f,f,NA,NA,NA,1,6,"9,14,3,7,10,12,1,15,8,2,13,5,4,6,11"
14979,commdev-image-keyboard-response,246,856523,learnblock1,667,img/planet9_left.png,9,Community 1,NA,TRUE,f,f,NA,NA,NA,1,6,"9,14,3,7,10,12,1,15,8,2,13,5,4,6,11"
14979,commdev-image-keyboard-response,247,857776,learnblock1,610.1999999992549,img/planet10_left.png,10,Community 1,NA,TRUE,f,f,NA,NA,NA,1,6,"9,14,3,7,10,12,1,15,8,2,13,5,4,6,11"
14979,commdev-image-keyboard-response,248,859028,learnblock1,402.69999999925494,img/planet14_right.png,14,Community 1,NA,TRUE,j,j,NA,NA,NA,1,6,"9,14,3,7,10,12,1,15,8,2,13,5,4,6,11"
14979,commdev-image-keyboard-response,249,860281,learnblock1,483.8999999985099,img/planet7_left.png,7,Community 1,NA,TRUE,f,f,NA,NA,NA,1,6,"9,14,3,7,10,12,1,15,8,2,13,5,4,6,11"
14979,commdev-image-keyboard-response,250,861533,learnblock1,633.9000000022352,img/planet3_right.png,3,Community 1,NA,TRUE,j,j,NA,NA,NA,1,6,"9,14,3,7,10,12,1,15,8,2,13,5,4,6,11"
14979,commdev-image-keyboard-response,251,862785,learnblock1,1193.6000000014901,img/planet10_right.png,10,Community 1,NA,TRUE,j,j,NA,NA,NA,1,6,"9,14,3,7,10,12,1,15,8,2,13,5,4,6,11"
14979,commdev-image-keyboard-response,252,864037,learnblock1,null,img/planet13_left.png,13,Community 3,NA,FALSE,null,f,NA,NA,NA,1,6,"9,14,3,7,10,12,1,15,8,2,13,5,4,6,11"
14979,commdev-image-keyboard-response,253,865289,learnblock1,42.599999997764826,img/planet6_right.png,6,Community 3,NA,FALSE,f,j,NA,NA,NA,1,6,"9,14,3,7,10,12,1,15,8,2,13,5,4,6,11"
14979,commdev-image-keyboard-response,254,866541,learnblock1,521.6000000014901,img/planet5_left.png,5,Community 3,NA,TRUE,f,f,NA,NA,NA,1,6,"9,14,3,7,10,12,1,15,8,2,13,5,4,6,11"
14979,commdev-image-keyboard-response,255,867793,learnblock1,390.29999999701977,img/planet11_right.png,11,Community 3,NA,FALSE,f,j,NA,NA,NA,1,6,"9,14,3,7,10,12,1,15,8,2,13,5,4,6,11"
14979,commdev-image-keyboard-response,256,869046,learnblock1,584,img/planet5_right.png,5,Community 3,NA,TRUE,j,j,NA,NA,NA,1,6,"9,14,3,7,10,12,1,15,8,2,13,5,4,6,11"
14979,commdev-image-keyboard-response,257,870298,learnblock1,687.1999999992549,img/planet15_right.png,15,Community 2,NA,FALSE,f,j,NA,NA,NA,1,6,"9,14,3,7,10,12,1,15,8,2,13,5,4,6,11"
14979,commdev-image-keyboard-response,258,871551,learnblock1,916.6999999992549,img/planet8_right.png,8,Community 2,NA,TRUE,j,j,NA,NA,NA,1,6,"9,14,3,7,10,12,1,15,8,2,13,5,4,6,11"
14979,commdev-image-keyboard-response,259,872803,learnblock1,null,img/planet12_left.png,12,Community 2,NA,FALSE,null,f,NA,NA,NA,1,6,"9,14,3,7,10,12,1,15,8,2,13,5,4,6,11"
14979,commdev-image-keyboard-response,260,874056,learnblock1,425.1000000014901,img/planet2_right.png,2,Community 2,NA,FALSE,f,j,NA,NA,NA,1,6,"9,14,3,7,10,12,1,15,8,2,13,5,4,6,11"
14979,commdev-image-keyboard-response,261,875309,learnblock1,624.5,img/planet8_left.png,8,Community 2,NA,TRUE,f,f,NA,NA,NA,1,6,"9,14,3,7,10,12,1,15,8,2,13,5,4,6,11"
14979,commdev-image-keyboard-response,262,876561,learnblock1,395.19999999925494,img/planet15_right.png,15,Community 2,NA,TRUE,j,j,NA,NA,NA,1,6,"9,14,3,7,10,12,1,15,8,2,13,5,4,6,11"
14979,commdev-image-keyboard-response,263,877814,learnblock1,629.1000000014901,img/planet5_left.png,5,Community 3,NA,TRUE,f,f,NA,NA,NA,1,6,"9,14,3,7,10,12,1,15,8,2,13,5,4,6,11"
14979,commdev-image-keyboard-response,264,879066,learnblock1,662.5999999977648,img/planet4_right.png,4,Community 3,NA,TRUE,j,j,NA,NA,NA,1,6,"9,14,3,7,10,12,1,15,8,2,13,5,4,6,11"
14979,commdev-image-keyboard-response,265,880318,learnblock1,557.1999999992549,img/planet6_left.png,6,Community 3,NA,FALSE,j,f,NA,NA,NA,1,6,"9,14,3,7,10,12,1,15,8,2,13,5,4,6,11"
14979,commdev-image-keyboard-response,266,881571,learnblock1,665.0999999977648,img/planet13_left.png,13,Community 3,NA,FALSE,j,f,NA,NA,NA,1,6,"9,14,3,7,10,12,1,15,8,2,13,5,4,6,11"
14979,commdev-image-keyboard-response,267,882823,learnblock1,664.6999999992549,img/planet6_left.png,6,Community 3,NA,TRUE,f,f,NA,NA,NA,1,6,"9,14,3,7,10,12,1,15,8,2,13,5,4,6,11"
14979,commdev-image-keyboard-response,268,884076,learnblock1,794.5,img/planet4_right.png,4,Community 3,NA,FALSE,f,j,NA,NA,NA,1,6,"9,14,3,7,10,12,1,15,8,2,13,5,4,6,11"
14979,commdev-image-keyboard-response,269,885328,learnblock1,910.8000000007451,img/planet11_right.png,11,Community 3,NA,TRUE,j,j,NA,NA,NA,1,6,"9,14,3,7,10,12,1,15,8,2,13,5,4,6,11"
14979,commdev-image-keyboard-response,270,886580,learnblock1,475.5,img/planet5_right.png,5,Community 3,NA,FALSE,f,j,NA,NA,NA,1,6,"9,14,3,7,10,12,1,15,8,2,13,5,4,6,11"
14979,commdev-image-keyboard-response,271,887832,learnblock1,527.6000000014901,img/planet15_left.png,15,Community 2,NA,FALSE,j,f,NA,NA,NA,1,6,"9,14,3,7,10,12,1,15,8,2,13,5,4,6,11"
14979,commdev-image-keyboard-response,272,889085,learnblock1,566.9000000022352,img/planet1_right.png,1,Community 2,NA,TRUE,j,j,NA,NA,NA,1,6,"9,14,3,7,10,12,1,15,8,2,13,5,4,6,11"
14979,commdev-image-keyboard-response,273,890337,learnblock1,618.6999999992549,img/planet12_left.png,12,Community 2,NA,TRUE,f,f,NA,NA,NA,1,6,"9,14,3,7,10,12,1,15,8,2,13,5,4,6,11"
14979,commdev-image-keyboard-response,274,891590,learnblock1,700.8000000007451,img/planet7_right.png,7,Community 1,NA,TRUE,j,j,NA,NA,NA,1,6,"9,14,3,7,10,12,1,15,8,2,13,5,4,6,11"
14979,commdev-image-keyboard-response,275,892843,learnblock1,684.1999999992549,img/planet3_right.png,3,Community 1,NA,TRUE,j,j,NA,NA,NA,1,6,"9,14,3,7,10,12,1,15,8,2,13,5,4,6,11"
14979,commdev-image-keyboard-response,276,894095,learnblock1,1020.8999999985099,img/planet14_right.png,14,Community 1,NA,TRUE,j,j,NA,NA,NA,1,6,"9,14,3,7,10,12,1,15,8,2,13,5,4,6,11"
14979,commdev-image-keyboard-response,277,895348,learnblock1,null,img/planet7_right.png,7,Community 1,NA,FALSE,null,j,NA,NA,NA,1,6,"9,14,3,7,10,12,1,15,8,2,13,5,4,6,11"
14979,commdev-image-keyboard-response,278,896600,learnblock1,869.5999999977648,img/planet9_right.png,9,Community 1,NA,TRUE,j,j,NA,NA,NA,1,6,"9,14,3,7,10,12,1,15,8,2,13,5,4,6,11"
14979,commdev-image-keyboard-response,279,897852,learnblock1,867.5,img/planet10_right.png,10,Community 1,NA,TRUE,j,j,NA,NA,NA,1,6,"9,14,3,7,10,12,1,15,8,2,13,5,4,6,11"
14979,commdev-image-keyboard-response,280,899105,learnblock1,473.6000000014901,img/planet13_left.png,13,Community 3,NA,FALSE,j,f,NA,NA,NA,1,6,"9,14,3,7,10,12,1,15,8,2,13,5,4,6,11"
14979,commdev-image-keyboard-response,281,900357,learnblock1,586,img/planet10_right.png,10,Community 1,NA,TRUE,j,j,NA,NA,NA,1,6,"9,14,3,7,10,12,1,15,8,2,13,5,4,6,11"
14979,commdev-image-keyboard-response,282,901610,learnblock1,488,img/planet9_right.png,9,Community 1,NA,TRUE,j,j,NA,NA,NA,1,6,"9,14,3,7,10,12,1,15,8,2,13,5,4,6,11"
14979,commdev-image-keyboard-response,283,902862,learnblock1,599.7999999970198,img/planet10_left.png,10,Community 1,NA,TRUE,f,f,NA,NA,NA,1,6,"9,14,3,7,10,12,1,15,8,2,13,5,4,6,11"
14979,commdev-image-keyboard-response,284,904115,learnblock1,502.69999999925494,img/planet14_left.png,14,Community 1,NA,FALSE,j,f,NA,NA,NA,1,6,"9,14,3,7,10,12,1,15,8,2,13,5,4,6,11"
14979,commdev-image-keyboard-response,285,905367,learnblock1,null,img/planet3_left.png,3,Community 1,NA,FALSE,null,f,NA,NA,NA,1,6,"9,14,3,7,10,12,1,15,8,2,13,5,4,6,11"
14979,commdev-image-keyboard-response,286,906619,learnblock1,788.3999999985099,img/planet14_right.png,14,Community 1,NA,TRUE,j,j,NA,NA,NA,1,6,"9,14,3,7,10,12,1,15,8,2,13,5,4,6,11"
14979,commdev-image-keyboard-response,287,907871,learnblock1,null,img/planet7_left.png,7,Community 1,NA,FALSE,null,f,NA,NA,NA,1,6,"9,14,3,7,10,12,1,15,8,2,13,5,4,6,11"
14979,commdev-image-keyboard-response,288,909124,learnblock1,62.099999997764826,img/planet12_left.png,12,Community 2,NA,TRUE,f,f,NA,NA,NA,1,6,"9,14,3,7,10,12,1,15,8,2,13,5,4,6,11"
14979,commdev-image-keyboard-response,289,910376,learnblock1,632.1999999992549,img/planet8_left.png,8,Community 2,NA,FALSE,j,f,NA,NA,NA,1,6,"9,14,3,7,10,12,1,15,8,2,13,5,4,6,11"
14979,commdev-image-keyboard-response,290,911628,learnblock1,742.8000000007451,img/planet12_left.png,12,Community 2,NA,TRUE,f,f,NA,NA,NA,1,6,"9,14,3,7,10,12,1,15,8,2,13,5,4,6,11"
14979,commdev-image-keyboard-response,291,912880,learnblock1,461.19999999925494,img/planet7_right.png,7,Community 1,NA,TRUE,j,j,NA,NA,NA,1,6,"9,14,3,7,10,12,1,15,8,2,13,5,4,6,11"
14979,commdev-image-keyboard-response,292,914133,learnblock1,662.4000000022352,img/planet14_right.png,14,Community 1,NA,TRUE,j,j,NA,NA,NA,1,6,"9,14,3,7,10,12,1,15,8,2,13,5,4,6,11"
14979,commdev-image-keyboard-response,293,915385,learnblock1,578.9000000022352,img/planet10_right.png,10,Community 1,NA,TRUE,j,j,NA,NA,NA,1,6,"9,14,3,7,10,12,1,15,8,2,13,5,4,6,11"
14979,commdev-image-keyboard-response,294,916638,learnblock1,548.8000000007451,img/planet13_left.png,13,Community 3,NA,TRUE,f,f,NA,NA,NA,1,6,"9,14,3,7,10,12,1,15,8,2,13,5,4,6,11"
14979,commdev-image-keyboard-response,295,917890,learnblock1,408.5999999977648,img/planet6_right.png,6,Community 3,NA,TRUE,j,j,NA,NA,NA,1,6,"9,14,3,7,10,12,1,15,8,2,13,5,4,6,11"
14979,commdev-image-keyboard-response,296,919142,learnblock1,728.6999999992549,img/planet5_left.png,5,Community 3,NA,TRUE,f,f,NA,NA,NA,1,6,"9,14,3,7,10,12,1,15,8,2,13,5,4,6,11"
14979,commdev-image-keyboard-response,297,920395,learnblock1,526.6999999992549,img/planet6_right.png,6,Community 3,NA,TRUE,j,j,NA,NA,NA,1,6,"9,14,3,7,10,12,1,15,8,2,13,5,4,6,11"
14979,commdev-image-keyboard-response,298,921648,learnblock1,550.6999999992549,img/planet4_left.png,4,Community 3,NA,TRUE,f,f,NA,NA,NA,1,6,"9,14,3,7,10,12,1,15,8,2,13,5,4,6,11"
14979,commdev-image-keyboard-response,299,922900,learnblock1,693,img/planet13_right.png,13,Community 3,NA,TRUE,j,j,NA,NA,NA,1,6,"9,14,3,7,10,12,1,15,8,2,13,5,4,6,11"
14979,commdev-image-keyboard-response,300,924153,learnblock1,522.5,img/planet10_left.png,10,Community 1,NA,TRUE,f,f,NA,NA,NA,1,6,"9,14,3,7,10,12,1,15,8,2,13,5,4,6,11"
14979,commdev-image-keyboard-response,301,925406,learnblock1,780.9000000022352,img/planet14_right.png,14,Community 1,NA,TRUE,j,j,NA,NA,NA,1,6,"9,14,3,7,10,12,1,15,8,2,13,5,4,6,11"
14979,commdev-image-keyboard-response,302,926658,learnblock1,516.8000000007451,img/planet10_right.png,10,Community 1,NA,FALSE,f,j,NA,NA,NA,1,6,"9,14,3,7,10,12,1,15,8,2,13,5,4,6,11"
14979,commdev-image-keyboard-response,303,927911,learnblock1,731.2999999970198,img/planet9_left.png,9,Community 1,NA,TRUE,f,f,NA,NA,NA,1,6,"9,14,3,7,10,12,1,15,8,2,13,5,4,6,11"
14979,commdev-image-keyboard-response,304,929163,learnblock1,529.5,img/planet14_left.png,14,Community 1,NA,TRUE,f,f,NA,NA,NA,1,6,"9,14,3,7,10,12,1,15,8,2,13,5,4,6,11"
14979,commdev-image-keyboard-response,305,930416,learnblock1,615,img/planet9_right.png,9,Community 1,NA,TRUE,j,j,NA,NA,NA,1,6,"9,14,3,7,10,12,1,15,8,2,13,5,4,6,11"
14979,commdev-image-keyboard-response,306,931668,learnblock1,703.3000000007451,img/planet14_right.png,14,Community 1,NA,TRUE,j,j,NA,NA,NA,1,6,"9,14,3,7,10,12,1,15,8,2,13,5,4,6,11"
14979,commdev-image-keyboard-response,307,932921,learnblock1,577.1999999992549,img/planet9_left.png,9,Community 1,NA,TRUE,f,f,NA,NA,NA,1,6,"9,14,3,7,10,12,1,15,8,2,13,5,4,6,11"
14979,commdev-image-keyboard-response,308,934174,learnblock1,415.5999999977648,img/planet10_right.png,10,Community 1,NA,FALSE,f,j,NA,NA,NA,1,6,"9,14,3,7,10,12,1,15,8,2,13,5,4,6,11"
14979,commdev-image-keyboard-response,309,935426,learnblock1,452,img/planet13_left.png,13,Community 3,NA,TRUE,f,f,NA,NA,NA,1,6,"9,14,3,7,10,12,1,15,8,2,13,5,4,6,11"
14979,commdev-image-keyboard-response,310,936679,learnblock1,568.3999999985099,img/planet6_left.png,6,Community 3,NA,TRUE,f,f,NA,NA,NA,1,6,"9,14,3,7,10,12,1,15,8,2,13,5,4,6,11"
14979,commdev-image-keyboard-response,311,937931,learnblock1,595.6999999992549,img/planet5_left.png,5,Community 3,NA,TRUE,f,f,NA,NA,NA,1,6,"9,14,3,7,10,12,1,15,8,2,13,5,4,6,11"
14979,commdev-image-keyboard-response,312,939183,learnblock1,694.1000000014901,img/planet4_right.png,4,Community 3,NA,TRUE,j,j,NA,NA,NA,1,6,"9,14,3,7,10,12,1,15,8,2,13,5,4,6,11"
14979,commdev-image-keyboard-response,313,940436,learnblock1,471.9000000022352,img/planet5_left.png,5,Community 3,NA,FALSE,j,f,NA,NA,NA,1,6,"9,14,3,7,10,12,1,15,8,2,13,5,4,6,11"
14979,commdev-image-keyboard-response,314,941689,learnblock1,693.6000000014901,img/planet11_right.png,11,Community 3,NA,FALSE,f,j,NA,NA,NA,1,6,"9,14,3,7,10,12,1,15,8,2,13,5,4,6,11"
14979,commdev-image-keyboard-response,315,942941,learnblock1,1137.1000000014901,img/planet6_right.png,6,Community 3,NA,FALSE,f,j,NA,NA,NA,1,6,"9,14,3,7,10,12,1,15,8,2,13,5,4,6,11"
14979,commdev-image-keyboard-response,316,944193,learnblock1,49.80000000074506,img/planet13_right.png,13,Community 3,NA,TRUE,j,j,NA,NA,NA,1,6,"9,14,3,7,10,12,1,15,8,2,13,5,4,6,11"
14979,commdev-image-keyboard-response,317,945446,learnblock1,524.1999999992549,img/planet10_right.png,10,Community 1,NA,TRUE,j,j,NA,NA,NA,1,6,"9,14,3,7,10,12,1,15,8,2,13,5,4,6,11"
14979,commdev-image-keyboard-response,318,946699,learnblock1,497.1000000014901,img/planet3_left.png,3,Community 1,NA,FALSE,j,f,NA,NA,NA,1,6,"9,14,3,7,10,12,1,15,8,2,13,5,4,6,11"
14979,commdev-image-keyboard-response,319,947951,learnblock1,1180,img/planet10_right.png,10,Community 1,NA,TRUE,j,j,NA,NA,NA,1,6,"9,14,3,7,10,12,1,15,8,2,13,5,4,6,11"
14979,commdev-image-keyboard-response,320,949203,learnblock1,483.70000000298023,img/planet3_left.png,3,Community 1,NA,FALSE,j,f,NA,NA,NA,1,6,"9,14,3,7,10,12,1,15,8,2,13,5,4,6,11"
14979,commdev-image-keyboard-response,321,950456,learnblock1,649.0999999977648,img/planet7_left.png,7,Community 1,NA,FALSE,j,f,NA,NA,NA,1,6,"9,14,3,7,10,12,1,15,8,2,13,5,4,6,11"
14979,commdev-image-keyboard-response,322,951709,learnblock1,463.9000000022352,img/planet12_right.png,12,Community 2,NA,FALSE,f,j,NA,NA,NA,1,6,"9,14,3,7,10,12,1,15,8,2,13,5,4,6,11"
14979,commdev-image-keyboard-response,323,952961,learnblock1,1040.5,img/planet8_left.png,8,Community 2,NA,FALSE,j,f,NA,NA,NA,1,6,"9,14,3,7,10,12,1,15,8,2,13,5,4,6,11"
14979,commdev-image-keyboard-response,324,954214,learnblock1,1012.1999999992549,img/planet12_left.png,12,Community 2,NA,TRUE,f,f,NA,NA,NA,1,6,"9,14,3,7,10,12,1,15,8,2,13,5,4,6,11"
14979,commdev-image-keyboard-response,325,955466,learnblock1,535,img/planet1_left.png,1,Community 2,NA,TRUE,f,f,NA,NA,NA,1,6,"9,14,3,7,10,12,1,15,8,2,13,5,4,6,11"
14979,commdev-image-keyboard-response,326,956719,learnblock1,461.0999999977648,img/planet2_right.png,2,Community 2,NA,TRUE,j,j,NA,NA,NA,1,6,"9,14,3,7,10,12,1,15,8,2,13,5,4,6,11"
14979,commdev-image-keyboard-response,327,957972,learnblock1,762.5,img/planet15_left.png,15,Community 2,NA,FALSE,j,f,NA,NA,NA,1,6,"9,14,3,7,10,12,1,15,8,2,13,5,4,6,11"
14979,commdev-image-keyboard-response,328,959224,learnblock1,870,img/planet5_left.png,5,Community 3,NA,TRUE,f,f,NA,NA,NA,1,6,"9,14,3,7,10,12,1,15,8,2,13,5,4,6,11"
14979,commdev-image-keyboard-response,329,960476,learnblock1,612.1000000014901,img/planet6_left.png,6,Community 3,NA,TRUE,f,f,NA,NA,NA,1,6,"9,14,3,7,10,12,1,15,8,2,13,5,4,6,11"
14979,commdev-image-keyboard-response,330,961729,learnblock1,876.6999999992549,img/planet13_left.png,13,Community 3,NA,TRUE,f,f,NA,NA,NA,1,6,"9,14,3,7,10,12,1,15,8,2,13,5,4,6,11"
14979,commdev-image-keyboard-response,331,962981,learnblock1,545.1000000014901,img/planet11_right.png,11,Community 3,NA,TRUE,j,j,NA,NA,NA,1,6,"9,14,3,7,10,12,1,15,8,2,13,5,4,6,11"
14979,commdev-image-keyboard-response,332,964233,learnblock1,588.1999999992549,img/planet5_left.png,5,Community 3,NA,TRUE,f,f,NA,NA,NA,1,6,"9,14,3,7,10,12,1,15,8,2,13,5,4,6,11"
14979,commdev-image-keyboard-response,333,965486,learnblock1,446.4000000022352,img/planet4_left.png,4,Community 3,NA,FALSE,j,f,NA,NA,NA,1,6,"9,14,3,7,10,12,1,15,8,2,13,5,4,6,11"
14979,commdev-image-keyboard-response,334,966738,learnblock1,694.2999999970198,img/planet11_left.png,11,Community 3,NA,TRUE,f,f,NA,NA,NA,1,6,"9,14,3,7,10,12,1,15,8,2,13,5,4,6,11"
14979,commdev-image-keyboard-response,335,967991,learnblock1,588.6000000014901,img/planet6_left.png,6,Community 3,NA,TRUE,f,f,NA,NA,NA,1,6,"9,14,3,7,10,12,1,15,8,2,13,5,4,6,11"
14979,commdev-image-keyboard-response,336,969243,learnblock1,575.7999999970198,img/planet13_left.png,13,Community 3,NA,TRUE,f,f,NA,NA,NA,1,6,"9,14,3,7,10,12,1,15,8,2,13,5,4,6,11"
14979,commdev-image-keyboard-response,337,970495,learnblock1,605.3999999985099,img/planet10_left.png,10,Community 1,NA,TRUE,f,f,NA,NA,NA,1,6,"9,14,3,7,10,12,1,15,8,2,13,5,4,6,11"
14979,commdev-image-keyboard-response,338,971748,learnblock1,512.5,img/planet13_right.png,13,Community 3,NA,FALSE,f,j,NA,NA,NA,1,6,"9,14,3,7,10,12,1,15,8,2,13,5,4,6,11"
14979,commdev-image-keyboard-response,339,973000,learnblock1,955.6999999992549,img/planet11_left.png,11,Community 3,NA,TRUE,f,f,NA,NA,NA,1,6,"9,14,3,7,10,12,1,15,8,2,13,5,4,6,11"
14979,commdev-image-keyboard-response,340,974253,learnblock1,642.5999999977648,img/planet4_right.png,4,Community 3,NA,TRUE,j,j,NA,NA,NA,1,6,"9,14,3,7,10,12,1,15,8,2,13,5,4,6,11"
14979,commdev-image-keyboard-response,341,975506,learnblock1,543.5,img/planet6_right.png,6,Community 3,NA,TRUE,j,j,NA,NA,NA,1,6,"9,14,3,7,10,12,1,15,8,2,13,5,4,6,11"
14979,commdev-image-keyboard-response,342,976758,learnblock1,596.5,img/planet4_right.png,4,Community 3,NA,TRUE,j,j,NA,NA,NA,1,6,"9,14,3,7,10,12,1,15,8,2,13,5,4,6,11"
14979,commdev-image-keyboard-response,343,978010,learnblock1,757.3000000007451,img/planet13_right.png,13,Community 3,NA,TRUE,j,j,NA,NA,NA,1,6,"9,14,3,7,10,12,1,15,8,2,13,5,4,6,11"
14979,commdev-image-keyboard-response,344,979263,learnblock1,733.6999999992549,img/planet11_left.png,11,Community 3,NA,TRUE,f,f,NA,NA,NA,1,6,"9,14,3,7,10,12,1,15,8,2,13,5,4,6,11"
14979,commdev-image-keyboard-response,345,980515,learnblock1,565.6999999992549,img/planet6_right.png,6,Community 3,NA,FALSE,f,j,NA,NA,NA,1,6,"9,14,3,7,10,12,1,15,8,2,13,5,4,6,11"
14979,commdev-image-keyboard-response,346,981766,learnblock1,694,img/planet13_right.png,13,Community 3,NA,TRUE,j,j,NA,NA,NA,1,6,"9,14,3,7,10,12,1,15,8,2,13,5,4,6,11"
14979,commdev-image-keyboard-response,347,983018,learnblock1,646.1000000014901,img/planet4_left.png,4,Community 3,NA,TRUE,f,f,NA,NA,NA,1,6,"9,14,3,7,10,12,1,15,8,2,13,5,4,6,11"
14979,commdev-image-keyboard-response,351,1855296,learnblock2,729.5,img/planet2_right.png,2,Community 2,NA,TRUE,j,j,NA,NA,NA,1,6,"9,14,3,7,10,12,1,15,8,2,13,5,4,6,11"
14979,commdev-image-keyboard-response,352,1856549,learnblock2,276.8999999985099,img/planet15_left.png,15,Community 2,NA,TRUE,f,f,NA,NA,NA,1,6,"9,14,3,7,10,12,1,15,8,2,13,5,4,6,11"
14979,commdev-image-keyboard-response,353,1857801,learnblock2,390.69999999925494,img/planet1_right.png,1,Community 2,NA,TRUE,j,j,NA,NA,NA,1,6,"9,14,3,7,10,12,1,15,8,2,13,5,4,6,11"
14979,commdev-image-keyboard-response,354,1859053,learnblock2,577.1999999992549,img/planet15_right.png,15,Community 2,NA,FALSE,f,j,NA,NA,NA,1,6,"9,14,3,7,10,12,1,15,8,2,13,5,4,6,11"
14979,commdev-image-keyboard-response,355,1860306,learnblock2,720.0999999977648,img/planet5_right.png,5,Community 3,NA,TRUE,j,j,NA,NA,NA,1,6,"9,14,3,7,10,12,1,15,8,2,13,5,4,6,11"
14979,commdev-image-keyboard-response,356,1861559,learnblock2,621.1999999992549,img/planet6_right.png,6,Community 3,NA,TRUE,j,j,NA,NA,NA,1,6,"9,14,3,7,10,12,1,15,8,2,13,5,4,6,11"
14979,commdev-image-keyboard-response,357,1862812,learnblock2,522,img/planet5_left.png,5,Community 3,NA,TRUE,f,f,NA,NA,NA,1,6,"9,14,3,7,10,12,1,15,8,2,13,5,4,6,11"
14979,commdev-image-keyboard-response,358,1864065,learnblock2,583.3000000007451,img/planet15_left.png,15,Community 2,NA,FALSE,j,f,NA,NA,NA,1,6,"9,14,3,7,10,12,1,15,8,2,13,5,4,6,11"
14979,commdev-image-keyboard-response,359,1865317,learnblock2,603.6000000014901,img/planet1_right.png,1,Community 2,NA,TRUE,j,j,NA,NA,NA,1,6,"9,14,3,7,10,12,1,15,8,2,13,5,4,6,11"
14979,commdev-image-keyboard-response,360,1866570,learnblock2,438.19999999925494,img/planet2_right.png,2,Community 2,NA,TRUE,j,j,NA,NA,NA,1,6,"9,14,3,7,10,12,1,15,8,2,13,5,4,6,11"
14979,commdev-image-keyboard-response,361,1867822,learnblock2,545.8000000007451,img/planet15_left.png,15,Community 2,NA,TRUE,f,f,NA,NA,NA,1,6,"9,14,3,7,10,12,1,15,8,2,13,5,4,6,11"
14979,commdev-image-keyboard-response,362,1869074,learnblock2,481.3999999985099,img/planet2_left.png,2,Community 2,NA,TRUE,f,f,NA,NA,NA,1,6,"9,14,3,7,10,12,1,15,8,2,13,5,4,6,11"
14979,commdev-image-keyboard-response,363,1870327,learnblock2,564.5,img/planet15_right.png,15,Community 2,NA,TRUE,j,j,NA,NA,NA,1,6,"9,14,3,7,10,12,1,15,8,2,13,5,4,6,11"
14979,commdev-image-keyboard-response,364,1871580,learnblock2,515.5,img/planet8_left.png,8,Community 2,NA,TRUE,f,f,NA,NA,NA,1,6,"9,14,3,7,10,12,1,15,8,2,13,5,4,6,11"
14979,commdev-image-keyboard-response,365,1872832,learnblock2,466,img/planet1_left.png,1,Community 2,NA,FALSE,j,f,NA,NA,NA,1,6,"9,14,3,7,10,12,1,15,8,2,13,5,4,6,11"
14979,commdev-image-keyboard-response,366,1874085,learnblock2,725.3999999985099,img/planet12_left.png,12,Community 2,NA,TRUE,f,f,NA,NA,NA,1,6,"9,14,3,7,10,12,1,15,8,2,13,5,4,6,11"
14979,commdev-image-keyboard-response,367,1875338,learnblock2,560.9000000022352,img/planet8_right.png,8,Community 2,NA,TRUE,j,j,NA,NA,NA,1,6,"9,14,3,7,10,12,1,15,8,2,13,5,4,6,11"
14979,commdev-image-keyboard-response,368,1876590,learnblock2,529.5999999977648,img/planet15_left.png,15,Community 2,NA,TRUE,f,f,NA,NA,NA,1,6,"9,14,3,7,10,12,1,15,8,2,13,5,4,6,11"
14979,commdev-image-keyboard-response,369,1877843,learnblock2,538.1000000014901,img/planet5_right.png,5,Community 3,NA,TRUE,j,j,NA,NA,NA,1,6,"9,14,3,7,10,12,1,15,8,2,13,5,4,6,11"
14979,commdev-image-keyboard-response,370,1879095,learnblock2,541.0999999977648,img/planet11_left.png,11,Community 3,NA,TRUE,f,f,NA,NA,NA,1,6,"9,14,3,7,10,12,1,15,8,2,13,5,4,6,11"
14979,commdev-image-keyboard-response,371,1880348,learnblock2,654.3000000007451,img/planet13_right.png,13,Community 3,NA,TRUE,j,j,NA,NA,NA,1,6,"9,14,3,7,10,12,1,15,8,2,13,5,4,6,11"
14979,commdev-image-keyboard-response,372,1881601,learnblock2,697.4000000022352,img/planet4_left.png,4,Community 3,NA,TRUE,f,f,NA,NA,NA,1,6,"9,14,3,7,10,12,1,15,8,2,13,5,4,6,11"
14979,commdev-image-keyboard-response,373,1882854,learnblock2,601.8000000007451,img/planet13_left.png,13,Community 3,NA,TRUE,f,f,NA,NA,NA,1,6,"9,14,3,7,10,12,1,15,8,2,13,5,4,6,11"
14979,commdev-image-keyboard-response,374,1884107,learnblock2,616.0999999977648,img/planet11_left.png,11,Community 3,NA,TRUE,f,f,NA,NA,NA,1,6,"9,14,3,7,10,12,1,15,8,2,13,5,4,6,11"
14979,commdev-image-keyboard-response,375,1885359,learnblock2,742.2999999970198,img/planet4_left.png,4,Community 3,NA,TRUE,f,f,NA,NA,NA,1,6,"9,14,3,7,10,12,1,15,8,2,13,5,4,6,11"
14979,commdev-image-keyboard-response,376,1886611,learnblock2,773.8000000007451,img/planet11_right.png,11,Community 3,NA,TRUE,j,j,NA,NA,NA,1,6,"9,14,3,7,10,12,1,15,8,2,13,5,4,6,11"
14979,commdev-image-keyboard-response,377,1887864,learnblock2,630.3999999985099,img/planet13_left.png,13,Community 3,NA,TRUE,f,f,NA,NA,NA,1,6,"9,14,3,7,10,12,1,15,8,2,13,5,4,6,11"
14979,commdev-image-keyboard-response,378,1889116,learnblock2,549.5,img/planet11_right.png,11,Community 3,NA,TRUE,j,j,NA,NA,NA,1,6,"9,14,3,7,10,12,1,15,8,2,13,5,4,6,11"
14979,commdev-image-keyboard-response,379,1890368,learnblock2,541.7999999970198,img/planet4_right.png,4,Community 3,NA,FALSE,f,j,NA,NA,NA,1,6,"9,14,3,7,10,12,1,15,8,2,13,5,4,6,11"
14979,commdev-image-keyboard-response,380,1891621,learnblock2,638.8000000007451,img/planet6_right.png,6,Community 3,NA,TRUE,j,j,NA,NA,NA,1,6,"9,14,3,7,10,12,1,15,8,2,13,5,4,6,11"
14979,commdev-image-keyboard-response,381,1892873,learnblock2,659.9000000022352,img/planet11_right.png,11,Community 3,NA,TRUE,j,j,NA,NA,NA,1,6,"9,14,3,7,10,12,1,15,8,2,13,5,4,6,11"
14979,commdev-image-keyboard-response,382,1894125,learnblock2,856.3000000007451,img/planet5_left.png,5,Community 3,NA,TRUE,f,f,NA,NA,NA,1,6,"9,14,3,7,10,12,1,15,8,2,13,5,4,6,11"
14979,commdev-image-keyboard-response,383,1895378,learnblock2,692.2000000029802,img/planet11_right.png,11,Community 3,NA,TRUE,j,j,NA,NA,NA,1,6,"9,14,3,7,10,12,1,15,8,2,13,5,4,6,11"
14979,commdev-image-keyboard-response,384,1896631,learnblock2,659.1999999992549,img/planet4_right.png,4,Community 3,NA,TRUE,j,j,NA,NA,NA,1,6,"9,14,3,7,10,12,1,15,8,2,13,5,4,6,11"
14979,commdev-image-keyboard-response,385,1897883,learnblock2,708.9000000022352,img/planet6_left.png,6,Community 3,NA,TRUE,f,f,NA,NA,NA,1,6,"9,14,3,7,10,12,1,15,8,2,13,5,4,6,11"
14979,commdev-image-keyboard-response,386,1899136,learnblock2,623.6000000014901,img/planet13_left.png,13,Community 3,NA,TRUE,f,f,NA,NA,NA,1,6,"9,14,3,7,10,12,1,15,8,2,13,5,4,6,11"
14979,commdev-image-keyboard-response,387,1900388,learnblock2,507.6000000014901,img/planet10_right.png,10,Community 1,NA,TRUE,j,j,NA,NA,NA,1,6,"9,14,3,7,10,12,1,15,8,2,13,5,4,6,11"
14979,commdev-image-keyboard-response,388,1901641,learnblock2,667.2000000029802,img/planet3_right.png,3,Community 1,NA,TRUE,j,j,NA,NA,NA,1,6,"9,14,3,7,10,12,1,15,8,2,13,5,4,6,11"
14979,commdev-image-keyboard-response,389,1902894,learnblock2,567,img/planet10_left.png,10,Community 1,NA,TRUE,f,f,NA,NA,NA,1,6,"9,14,3,7,10,12,1,15,8,2,13,5,4,6,11"
14979,commdev-image-keyboard-response,390,1904146,learnblock2,488.8999999985099,img/planet9_right.png,9,Community 1,NA,TRUE,j,j,NA,NA,NA,1,6,"9,14,3,7,10,12,1,15,8,2,13,5,4,6,11"
14979,commdev-image-keyboard-response,391,1905398,learnblock2,581,img/planet3_left.png,3,Community 1,NA,TRUE,f,f,NA,NA,NA,1,6,"9,14,3,7,10,12,1,15,8,2,13,5,4,6,11"
14979,commdev-image-keyboard-response,392,1906651,learnblock2,556.1000000014901,img/planet10_left.png,10,Community 1,NA,TRUE,f,f,NA,NA,NA,1,6,"9,14,3,7,10,12,1,15,8,2,13,5,4,6,11"
14979,commdev-image-keyboard-response,393,1907903,learnblock2,582.6999999992549,img/planet13_left.png,13,Community 3,NA,TRUE,f,f,NA,NA,NA,1,6,"9,14,3,7,10,12,1,15,8,2,13,5,4,6,11"
14979,commdev-image-keyboard-response,394,1909155,learnblock2,696,img/planet6_left.png,6,Community 3,NA,TRUE,f,f,NA,NA,NA,1,6,"9,14,3,7,10,12,1,15,8,2,13,5,4,6,11"
14979,commdev-image-keyboard-response,395,1910408,learnblock2,662.1000000014901,img/planet5_right.png,5,Community 3,NA,TRUE,j,j,NA,NA,NA,1,6,"9,14,3,7,10,12,1,15,8,2,13,5,4,6,11"
14979,commdev-image-keyboard-response,396,1911661,learnblock2,585.9000000022352,img/planet15_left.png,15,Community 2,NA,TRUE,f,f,NA,NA,NA,1,6,"9,14,3,7,10,12,1,15,8,2,13,5,4,6,11"
14979,commdev-image-keyboard-response,397,1912913,learnblock2,null,img/planet2_right.png,2,Community 2,NA,FALSE,null,j,NA,NA,NA,1,6,"9,14,3,7,10,12,1,15,8,2,13,5,4,6,11"
14979,commdev-image-keyboard-response,398,1914166,learnblock2,97.19999999925494,img/planet15_left.png,15,Community 2,NA,FALSE,j,f,NA,NA,NA,1,6,"9,14,3,7,10,12,1,15,8,2,13,5,4,6,11"
14979,commdev-image-keyboard-response,399,1915419,learnblock2,630.6999999992549,img/planet8_left.png,8,Community 2,NA,FALSE,j,f,NA,NA,NA,1,6,"9,14,3,7,10,12,1,15,8,2,13,5,4,6,11"
14979,commdev-image-keyboard-response,400,1916671,learnblock2,525.6000000014901,img/planet15_right.png,15,Community 2,NA,TRUE,j,j,NA,NA,NA,1,6,"9,14,3,7,10,12,1,15,8,2,13,5,4,6,11"
14979,commdev-image-keyboard-response,401,1917924,learnblock2,583.5999999977648,img/planet2_left.png,2,Community 2,NA,TRUE,f,f,NA,NA,NA,1,6,"9,14,3,7,10,12,1,15,8,2,13,5,4,6,11"
14979,commdev-image-keyboard-response,402,1919177,learnblock2,507.8999999985099,img/planet12_right.png,12,Community 2,NA,TRUE,j,j,NA,NA,NA,1,6,"9,14,3,7,10,12,1,15,8,2,13,5,4,6,11"
14979,commdev-image-keyboard-response,403,1920429,learnblock2,793.5,img/planet8_right.png,8,Community 2,NA,TRUE,j,j,NA,NA,NA,1,6,"9,14,3,7,10,12,1,15,8,2,13,5,4,6,11"
14979,commdev-image-keyboard-response,404,1921682,learnblock2,535.5,img/planet2_right.png,2,Community 2,NA,TRUE,j,j,NA,NA,NA,1,6,"9,14,3,7,10,12,1,15,8,2,13,5,4,6,11"
14979,commdev-image-keyboard-response,405,1922934,learnblock2,665.7000000029802,img/planet8_left.png,8,Community 2,NA,TRUE,f,f,NA,NA,NA,1,6,"9,14,3,7,10,12,1,15,8,2,13,5,4,6,11"
14979,commdev-image-keyboard-response,406,1924187,learnblock2,678.0999999977648,img/planet2_left.png,2,Community 2,NA,FALSE,j,f,NA,NA,NA,1,6,"9,14,3,7,10,12,1,15,8,2,13,5,4,6,11"
14979,commdev-image-keyboard-response,407,1925439,learnblock2,611.8000000007451,img/planet8_left.png,8,Community 2,NA,TRUE,f,f,NA,NA,NA,1,6,"9,14,3,7,10,12,1,15,8,2,13,5,4,6,11"
14979,commdev-image-keyboard-response,408,1926692,learnblock2,694,img/planet2_right.png,2,Community 2,NA,TRUE,j,j,NA,NA,NA,1,6,"9,14,3,7,10,12,1,15,8,2,13,5,4,6,11"
14979,commdev-image-keyboard-response,409,1927944,learnblock2,668.5,img/planet12_right.png,12,Community 2,NA,TRUE,j,j,NA,NA,NA,1,6,"9,14,3,7,10,12,1,15,8,2,13,5,4,6,11"
14979,commdev-image-keyboard-response,410,1929197,learnblock2,691.3000000007451,img/planet2_right.png,2,Community 2,NA,TRUE,j,j,NA,NA,NA,1,6,"9,14,3,7,10,12,1,15,8,2,13,5,4,6,11"
14979,commdev-image-keyboard-response,411,1930450,learnblock2,796.3999999985099,img/planet8_left.png,8,Community 2,NA,TRUE,f,f,NA,NA,NA,1,6,"9,14,3,7,10,12,1,15,8,2,13,5,4,6,11"
14979,commdev-image-keyboard-response,412,1931703,learnblock2,948.1999999992549,img/planet2_left.png,2,Community 2,NA,TRUE,f,f,NA,NA,NA,1,6,"9,14,3,7,10,12,1,15,8,2,13,5,4,6,11"
14979,commdev-image-keyboard-response,413,1932955,learnblock2,567.7999999970198,img/planet15_right.png,15,Community 2,NA,TRUE,j,j,NA,NA,NA,1,6,"9,14,3,7,10,12,1,15,8,2,13,5,4,6,11"
14979,commdev-image-keyboard-response,414,1934208,learnblock2,568.8000000007451,img/planet8_left.png,8,Community 2,NA,TRUE,f,f,NA,NA,NA,1,6,"9,14,3,7,10,12,1,15,8,2,13,5,4,6,11"
14979,commdev-image-keyboard-response,415,1935461,learnblock2,414.9000000022352,img/planet2_left.png,2,Community 2,NA,TRUE,f,f,NA,NA,NA,1,6,"9,14,3,7,10,12,1,15,8,2,13,5,4,6,11"
14979,commdev-image-keyboard-response,416,1936714,learnblock2,427.80000000074506,img/planet8_left.png,8,Community 2,NA,FALSE,j,f,NA,NA,NA,1,6,"9,14,3,7,10,12,1,15,8,2,13,5,4,6,11"
14979,commdev-image-keyboard-response,417,1937967,learnblock2,596.1000000014901,img/planet1_right.png,1,Community 2,NA,FALSE,f,j,NA,NA,NA,1,6,"9,14,3,7,10,12,1,15,8,2,13,5,4,6,11"
14979,commdev-image-keyboard-response,418,1939219,learnblock2,610.1000000014901,img/planet2_right.png,2,Community 2,NA,TRUE,j,j,NA,NA,NA,1,6,"9,14,3,7,10,12,1,15,8,2,13,5,4,6,11"
14979,commdev-image-keyboard-response,419,1940472,learnblock2,643.5,img/planet15_left.png,15,Community 2,NA,TRUE,f,f,NA,NA,NA,1,6,"9,14,3,7,10,12,1,15,8,2,13,5,4,6,11"
14979,commdev-image-keyboard-response,420,1941724,learnblock2,573.7999999970198,img/planet2_right.png,2,Community 2,NA,TRUE,j,j,NA,NA,NA,1,6,"9,14,3,7,10,12,1,15,8,2,13,5,4,6,11"
14979,commdev-image-keyboard-response,421,1942977,learnblock2,854.3000000007451,img/planet1_left.png,1,Community 2,NA,TRUE,f,f,NA,NA,NA,1,6,"9,14,3,7,10,12,1,15,8,2,13,5,4,6,11"
14979,commdev-image-keyboard-response,422,1944230,learnblock2,641.1999999992549,img/planet8_left.png,8,Community 2,NA,TRUE,f,f,NA,NA,NA,1,6,"9,14,3,7,10,12,1,15,8,2,13,5,4,6,11"
14979,commdev-image-keyboard-response,423,1945482,learnblock2,1003.3999999985099,img/planet15_left.png,15,Community 2,NA,TRUE,f,f,NA,NA,NA,1,6,"9,14,3,7,10,12,1,15,8,2,13,5,4,6,11"
14979,commdev-image-keyboard-response,424,1946735,learnblock2,556.5,img/planet1_left.png,1,Community 2,NA,TRUE,f,f,NA,NA,NA,1,6,"9,14,3,7,10,12,1,15,8,2,13,5,4,6,11"
14979,commdev-image-keyboard-response,425,1947988,learnblock2,565.0999999977648,img/planet8_right.png,8,Community 2,NA,TRUE,j,j,NA,NA,NA,1,6,"9,14,3,7,10,12,1,15,8,2,13,5,4,6,11"
14979,commdev-image-keyboard-response,426,1949240,learnblock2,544.4000000022352,img/planet1_right.png,1,Community 2,NA,TRUE,j,j,NA,NA,NA,1,6,"9,14,3,7,10,12,1,15,8,2,13,5,4,6,11"
14979,commdev-image-keyboard-response,427,1950493,learnblock2,570.8999999985099,img/planet15_right.png,15,Community 2,NA,TRUE,j,j,NA,NA,NA,1,6,"9,14,3,7,10,12,1,15,8,2,13,5,4,6,11"
14979,commdev-image-keyboard-response,428,1951745,learnblock2,684.5,img/planet5_left.png,5,Community 3,NA,FALSE,j,f,NA,NA,NA,1,6,"9,14,3,7,10,12,1,15,8,2,13,5,4,6,11"
14979,commdev-image-keyboard-response,429,1952997,learnblock2,702.6999999992549,img/planet6_left.png,6,Community 3,NA,TRUE,f,f,NA,NA,NA,1,6,"9,14,3,7,10,12,1,15,8,2,13,5,4,6,11"
14979,commdev-image-keyboard-response,430,1954250,learnblock2,593.2999999970198,img/planet11_left.png,11,Community 3,NA,TRUE,f,f,NA,NA,NA,1,6,"9,14,3,7,10,12,1,15,8,2,13,5,4,6,11"
14979,commdev-image-keyboard-response,431,1955502,learnblock2,584.8999999985099,img/planet6_left.png,6,Community 3,NA,TRUE,f,f,NA,NA,NA,1,6,"9,14,3,7,10,12,1,15,8,2,13,5,4,6,11"
14979,commdev-image-keyboard-response,432,1956755,learnblock2,529.1999999992549,img/planet11_right.png,11,Community 3,NA,TRUE,j,j,NA,NA,NA,1,6,"9,14,3,7,10,12,1,15,8,2,13,5,4,6,11"
14979,commdev-image-keyboard-response,433,1958007,learnblock2,613.1000000014901,img/planet6_right.png,6,Community 3,NA,TRUE,j,j,NA,NA,NA,1,6,"9,14,3,7,10,12,1,15,8,2,13,5,4,6,11"
14979,commdev-image-keyboard-response,434,1959260,learnblock2,597.1999999992549,img/planet4_right.png,4,Community 3,NA,TRUE,j,j,NA,NA,NA,1,6,"9,14,3,7,10,12,1,15,8,2,13,5,4,6,11"
14979,commdev-image-keyboard-response,435,1960513,learnblock2,666.6000000014901,img/planet11_left.png,11,Community 3,NA,TRUE,f,f,NA,NA,NA,1,6,"9,14,3,7,10,12,1,15,8,2,13,5,4,6,11"
14979,commdev-image-keyboard-response,436,1961765,learnblock2,737.5999999977648,img/planet13_right.png,13,Community 3,NA,TRUE,j,j,NA,NA,NA,1,6,"9,14,3,7,10,12,1,15,8,2,13,5,4,6,11"
14979,commdev-image-keyboard-response,437,1963018,learnblock2,686.8000000007451,img/planet11_left.png,11,Community 3,NA,TRUE,f,f,NA,NA,NA,1,6,"9,14,3,7,10,12,1,15,8,2,13,5,4,6,11"
14979,commdev-image-keyboard-response,438,1964271,learnblock2,607.9000000022352,img/planet4_right.png,4,Community 3,NA,TRUE,j,j,NA,NA,NA,1,6,"9,14,3,7,10,12,1,15,8,2,13,5,4,6,11"
14979,commdev-image-keyboard-response,439,1965524,learnblock2,615.1000000014901,img/planet6_left.png,6,Community 3,NA,TRUE,f,f,NA,NA,NA,1,6,"9,14,3,7,10,12,1,15,8,2,13,5,4,6,11"
14979,commdev-image-keyboard-response,440,1966776,learnblock2,853.7999999970198,img/planet11_left.png,11,Community 3,NA,TRUE,f,f,NA,NA,NA,1,6,"9,14,3,7,10,12,1,15,8,2,13,5,4,6,11"
14979,commdev-image-keyboard-response,441,1968028,learnblock2,850.5999999977648,img/planet5_left.png,5,Community 3,NA,TRUE,f,f,NA,NA,NA,1,6,"9,14,3,7,10,12,1,15,8,2,13,5,4,6,11"
14979,commdev-image-keyboard-response,442,1969281,learnblock2,649.3000000007451,img/planet11_right.png,11,Community 3,NA,TRUE,j,j,NA,NA,NA,1,6,"9,14,3,7,10,12,1,15,8,2,13,5,4,6,11"
14979,commdev-image-keyboard-response,443,1970533,learnblock2,649.5999999977648,img/planet4_left.png,4,Community 3,NA,FALSE,j,f,NA,NA,NA,1,6,"9,14,3,7,10,12,1,15,8,2,13,5,4,6,11"
14979,commdev-image-keyboard-response,444,1971785,learnblock2,577.3999999985099,img/planet13_left.png,13,Community 3,NA,TRUE,f,f,NA,NA,NA,1,6,"9,14,3,7,10,12,1,15,8,2,13,5,4,6,11"
14979,commdev-image-keyboard-response,445,1973037,learnblock2,707.1999999992549,img/planet4_left.png,4,Community 3,NA,FALSE,j,f,NA,NA,NA,1,6,"9,14,3,7,10,12,1,15,8,2,13,5,4,6,11"
14979,commdev-image-keyboard-response,446,1974290,learnblock2,855.2999999970198,img/planet6_right.png,6,Community 3,NA,TRUE,j,j,NA,NA,NA,1,6,"9,14,3,7,10,12,1,15,8,2,13,5,4,6,11"
14979,commdev-image-keyboard-response,447,1975542,learnblock2,875.6999999992549,img/planet11_right.png,11,Community 3,NA,TRUE,j,j,NA,NA,NA,1,6,"9,14,3,7,10,12,1,15,8,2,13,5,4,6,11"
14979,commdev-image-keyboard-response,448,1976795,learnblock2,913.1999999992549,img/planet5_right.png,5,Community 3,NA,TRUE,j,j,NA,NA,NA,1,6,"9,14,3,7,10,12,1,15,8,2,13,5,4,6,11"
14979,commdev-image-keyboard-response,449,1978048,learnblock2,820.8999999985099,img/planet6_right.png,6,Community 3,NA,TRUE,j,j,NA,NA,NA,1,6,"9,14,3,7,10,12,1,15,8,2,13,5,4,6,11"
14979,commdev-image-keyboard-response,450,1979300,learnblock2,680.5999999977648,img/planet13_right.png,13,Community 3,NA,TRUE,j,j,NA,NA,NA,1,6,"9,14,3,7,10,12,1,15,8,2,13,5,4,6,11"
14979,commdev-image-keyboard-response,451,1980553,learnblock2,662.5,img/planet4_left.png,4,Community 3,NA,TRUE,f,f,NA,NA,NA,1,6,"9,14,3,7,10,12,1,15,8,2,13,5,4,6,11"
14979,commdev-image-keyboard-response,452,1981806,learnblock2,747.4000000022352,img/planet11_left.png,11,Community 3,NA,TRUE,f,f,NA,NA,NA,1,6,"9,14,3,7,10,12,1,15,8,2,13,5,4,6,11"
14979,commdev-image-keyboard-response,453,1983058,learnblock2,603.8999999985099,img/planet5_right.png,5,Community 3,NA,TRUE,j,j,NA,NA,NA,1,6,"9,14,3,7,10,12,1,15,8,2,13,5,4,6,11"
14979,commdev-image-keyboard-response,454,1984311,learnblock2,596.6999999992549,img/planet4_right.png,4,Community 3,NA,TRUE,j,j,NA,NA,NA,1,6,"9,14,3,7,10,12,1,15,8,2,13,5,4,6,11"
14979,commdev-image-keyboard-response,455,1985563,learnblock2,636.7000000029802,img/planet5_left.png,5,Community 3,NA,FALSE,j,f,NA,NA,NA,1,6,"9,14,3,7,10,12,1,15,8,2,13,5,4,6,11"
14979,commdev-image-keyboard-response,456,1986816,learnblock2,548.7999999970198,img/planet6_left.png,6,Community 3,NA,FALSE,j,f,NA,NA,NA,1,6,"9,14,3,7,10,12,1,15,8,2,13,5,4,6,11"
14979,commdev-image-keyboard-response,457,1988068,learnblock2,877.1000000014901,img/planet13_left.png,13,Community 3,NA,TRUE,f,f,NA,NA,NA,1,6,"9,14,3,7,10,12,1,15,8,2,13,5,4,6,11"
14979,commdev-image-keyboard-response,458,1989321,learnblock2,499.80000000074506,img/planet4_left.png,4,Community 3,NA,TRUE,f,f,NA,NA,NA,1,6,"9,14,3,7,10,12,1,15,8,2,13,5,4,6,11"
14979,commdev-image-keyboard-response,459,1990573,learnblock2,438.19999999925494,img/planet6_right.png,6,Community 3,NA,TRUE,j,j,NA,NA,NA,1,6,"9,14,3,7,10,12,1,15,8,2,13,5,4,6,11"
14979,commdev-image-keyboard-response,460,1991825,learnblock2,597.1000000014901,img/planet4_left.png,4,Community 3,NA,TRUE,f,f,NA,NA,NA,1,6,"9,14,3,7,10,12,1,15,8,2,13,5,4,6,11"
14979,commdev-image-keyboard-response,461,1993078,learnblock2,541.5,img/planet5_left.png,5,Community 3,NA,TRUE,f,f,NA,NA,NA,1,6,"9,14,3,7,10,12,1,15,8,2,13,5,4,6,11"
14979,commdev-image-keyboard-response,462,1994331,learnblock2,511.80000000074506,img/planet11_right.png,11,Community 3,NA,TRUE,j,j,NA,NA,NA,1,6,"9,14,3,7,10,12,1,15,8,2,13,5,4,6,11"
14979,commdev-image-keyboard-response,463,1995584,learnblock2,599.6000000014901,img/planet5_left.png,5,Community 3,NA,TRUE,f,f,NA,NA,NA,1,6,"9,14,3,7,10,12,1,15,8,2,13,5,4,6,11"
14979,commdev-image-keyboard-response,464,1996836,learnblock2,653.2999999970198,img/planet15_right.png,15,Community 2,NA,TRUE,j,j,NA,NA,NA,1,6,"9,14,3,7,10,12,1,15,8,2,13,5,4,6,11"
14979,commdev-image-keyboard-response,465,1998089,learnblock2,605.1000000014901,img/planet1_left.png,1,Community 2,NA,TRUE,f,f,NA,NA,NA,1,6,"9,14,3,7,10,12,1,15,8,2,13,5,4,6,11"
14979,commdev-image-keyboard-response,466,1999342,learnblock2,597.9000000022352,img/planet8_right.png,8,Community 2,NA,TRUE,j,j,NA,NA,NA,1,6,"9,14,3,7,10,12,1,15,8,2,13,5,4,6,11"
14979,commdev-image-keyboard-response,467,2000595,learnblock2,647.9000000022352,img/planet15_right.png,15,Community 2,NA,TRUE,j,j,NA,NA,NA,1,6,"9,14,3,7,10,12,1,15,8,2,13,5,4,6,11"
14979,commdev-image-keyboard-response,468,2001847,learnblock2,602.4000000022352,img/planet8_right.png,8,Community 2,NA,FALSE,f,j,NA,NA,NA,1,6,"9,14,3,7,10,12,1,15,8,2,13,5,4,6,11"
14979,commdev-image-keyboard-response,469,2003100,learnblock2,667.5999999977648,img/planet12_left.png,12,Community 2,NA,TRUE,f,f,NA,NA,NA,1,6,"9,14,3,7,10,12,1,15,8,2,13,5,4,6,11"
14979,commdev-image-keyboard-response,470,2004352,learnblock2,566.3000000007451,img/planet1_right.png,1,Community 2,NA,TRUE,j,j,NA,NA,NA,1,6,"9,14,3,7,10,12,1,15,8,2,13,5,4,6,11"
14979,commdev-image-keyboard-response,471,2005604,learnblock2,1077.800000000745,img/planet12_left.png,12,Community 2,NA,TRUE,f,f,NA,NA,NA,1,6,"9,14,3,7,10,12,1,15,8,2,13,5,4,6,11"
14979,commdev-image-keyboard-response,472,2006857,learnblock2,627.3999999985099,img/planet1_right.png,1,Community 2,NA,TRUE,j,j,NA,NA,NA,1,6,"9,14,3,7,10,12,1,15,8,2,13,5,4,6,11"
14979,commdev-image-keyboard-response,473,2008109,learnblock2,756.7000000029802,img/planet12_right.png,12,Community 2,NA,TRUE,j,j,NA,NA,NA,1,6,"9,14,3,7,10,12,1,15,8,2,13,5,4,6,11"
14979,commdev-image-keyboard-response,474,2009362,learnblock2,793.3000000007451,img/planet8_right.png,8,Community 2,NA,TRUE,j,j,NA,NA,NA,1,6,"9,14,3,7,10,12,1,15,8,2,13,5,4,6,11"
14979,commdev-image-keyboard-response,475,2010615,learnblock2,685.3000000007451,img/planet12_left.png,12,Community 2,NA,TRUE,f,f,NA,NA,NA,1,6,"9,14,3,7,10,12,1,15,8,2,13,5,4,6,11"
14979,commdev-image-keyboard-response,476,2011867,learnblock2,540.5,img/planet1_right.png,1,Community 2,NA,TRUE,j,j,NA,NA,NA,1,6,"9,14,3,7,10,12,1,15,8,2,13,5,4,6,11"
14979,commdev-image-keyboard-response,477,2013120,learnblock2,697,img/planet2_left.png,2,Community 2,NA,TRUE,f,f,NA,NA,NA,1,6,"9,14,3,7,10,12,1,15,8,2,13,5,4,6,11"
14979,commdev-image-keyboard-response,478,2014373,learnblock2,752.8999999985099,img/planet8_right.png,8,Community 2,NA,TRUE,j,j,NA,NA,NA,1,6,"9,14,3,7,10,12,1,15,8,2,13,5,4,6,11"
14979,commdev-image-keyboard-response,479,2015625,learnblock2,591,img/planet2_left.png,2,Community 2,NA,TRUE,f,f,NA,NA,NA,1,6,"9,14,3,7,10,12,1,15,8,2,13,5,4,6,11"
14979,commdev-image-keyboard-response,480,2016877,learnblock2,849.8000000007451,img/planet8_left.png,8,Community 2,NA,TRUE,f,f,NA,NA,NA,1,6,"9,14,3,7,10,12,1,15,8,2,13,5,4,6,11"
14979,commdev-image-keyboard-response,481,2018130,learnblock2,602.1000000014901,img/planet12_right.png,12,Community 2,NA,TRUE,j,j,NA,NA,NA,1,6,"9,14,3,7,10,12,1,15,8,2,13,5,4,6,11"
14979,commdev-image-keyboard-response,482,2019383,learnblock2,591.3000000007451,img/planet8_left.png,8,Community 2,NA,TRUE,f,f,NA,NA,NA,1,6,"9,14,3,7,10,12,1,15,8,2,13,5,4,6,11"
14979,commdev-image-keyboard-response,483,2020636,learnblock2,529.3000000007451,img/planet12_left.png,12,Community 2,NA,TRUE,f,f,NA,NA,NA,1,6,"9,14,3,7,10,12,1,15,8,2,13,5,4,6,11"
14979,commdev-image-keyboard-response,484,2021888,learnblock2,524.9000000022352,img/planet2_left.png,2,Community 2,NA,TRUE,f,f,NA,NA,NA,1,6,"9,14,3,7,10,12,1,15,8,2,13,5,4,6,11"
14979,commdev-image-keyboard-response,485,2023141,learnblock2,500.19999999925494,img/planet8_right.png,8,Community 2,NA,TRUE,j,j,NA,NA,NA,1,6,"9,14,3,7,10,12,1,15,8,2,13,5,4,6,11"
14979,commdev-image-keyboard-response,486,2024393,learnblock2,696.5,img/planet2_right.png,2,Community 2,NA,TRUE,j,j,NA,NA,NA,1,6,"9,14,3,7,10,12,1,15,8,2,13,5,4,6,11"
14979,commdev-image-keyboard-response,487,2025646,learnblock2,789.8000000007451,img/planet12_right.png,12,Community 2,NA,TRUE,j,j,NA,NA,NA,1,6,"9,14,3,7,10,12,1,15,8,2,13,5,4,6,11"
14979,commdev-image-keyboard-response,488,2026898,learnblock2,835.5,img/planet7_right.png,7,Community 1,NA,TRUE,j,j,NA,NA,NA,1,6,"9,14,3,7,10,12,1,15,8,2,13,5,4,6,11"
14979,commdev-image-keyboard-response,489,2028150,learnblock2,553.3000000007451,img/planet9_left.png,9,Community 1,NA,TRUE,f,f,NA,NA,NA,1,6,"9,14,3,7,10,12,1,15,8,2,13,5,4,6,11"
14979,commdev-image-keyboard-response,490,2029403,learnblock2,817.7000000029802,img/planet3_right.png,3,Community 1,NA,TRUE,j,j,NA,NA,NA,1,6,"9,14,3,7,10,12,1,15,8,2,13,5,4,6,11"
14979,commdev-image-keyboard-response,491,2030656,learnblock2,578,img/planet10_right.png,10,Community 1,NA,TRUE,j,j,NA,NA,NA,1,6,"9,14,3,7,10,12,1,15,8,2,13,5,4,6,11"
14979,commdev-image-keyboard-response,492,2031908,learnblock2,592.1000000014901,img/planet13_right.png,13,Community 3,NA,FALSE,f,j,NA,NA,NA,1,6,"9,14,3,7,10,12,1,15,8,2,13,5,4,6,11"
14979,commdev-image-keyboard-response,493,2033161,learnblock2,605.6000000014901,img/planet4_left.png,4,Community 3,NA,TRUE,f,f,NA,NA,NA,1,6,"9,14,3,7,10,12,1,15,8,2,13,5,4,6,11"
14979,commdev-image-keyboard-response,494,2034413,learnblock2,734.3000000007451,img/planet11_right.png,11,Community 3,NA,TRUE,j,j,NA,NA,NA,1,6,"9,14,3,7,10,12,1,15,8,2,13,5,4,6,11"
14979,commdev-image-keyboard-response,495,2035666,learnblock2,1088,img/planet13_left.png,13,Community 3,NA,TRUE,f,f,NA,NA,NA,1,6,"9,14,3,7,10,12,1,15,8,2,13,5,4,6,11"
14979,commdev-image-keyboard-response,496,2036918,learnblock2,710.8999999985099,img/planet6_right.png,6,Community 3,NA,TRUE,j,j,NA,NA,NA,1,6,"9,14,3,7,10,12,1,15,8,2,13,5,4,6,11"
14979,commdev-image-keyboard-response,497,2038171,learnblock2,454.1000000014901,img/planet11_left.png,11,Community 3,NA,TRUE,f,f,NA,NA,NA,1,6,"9,14,3,7,10,12,1,15,8,2,13,5,4,6,11"
14979,commdev-image-keyboard-response,498,2039423,learnblock2,708.8000000007451,img/planet13_left.png,13,Community 3,NA,TRUE,f,f,NA,NA,NA,1,6,"9,14,3,7,10,12,1,15,8,2,13,5,4,6,11"
14979,commdev-image-keyboard-response,499,2040676,learnblock2,396,img/planet4_right.png,4,Community 3,NA,TRUE,j,j,NA,NA,NA,1,6,"9,14,3,7,10,12,1,15,8,2,13,5,4,6,11"
14979,commdev-image-keyboard-response,500,2041928,learnblock2,560.2999999970198,img/planet6_right.png,6,Community 3,NA,TRUE,j,j,NA,NA,NA,1,6,"9,14,3,7,10,12,1,15,8,2,13,5,4,6,11"
14979,commdev-image-keyboard-response,501,2043180,learnblock2,442.69999999925494,img/planet11_right.png,11,Community 3,NA,TRUE,j,j,NA,NA,NA,1,6,"9,14,3,7,10,12,1,15,8,2,13,5,4,6,11"
14979,commdev-image-keyboard-response,502,2044433,learnblock2,411.1000000014901,img/planet6_right.png,6,Community 3,NA,TRUE,j,j,NA,NA,NA,1,6,"9,14,3,7,10,12,1,15,8,2,13,5,4,6,11"
14979,commdev-image-keyboard-response,503,2045686,learnblock2,611.1999999992549,img/planet5_left.png,5,Community 3,NA,TRUE,f,f,NA,NA,NA,1,6,"9,14,3,7,10,12,1,15,8,2,13,5,4,6,11"
14979,commdev-image-keyboard-response,504,2046938,learnblock2,566.1000000014901,img/planet11_left.png,11,Community 3,NA,TRUE,f,f,NA,NA,NA,1,6,"9,14,3,7,10,12,1,15,8,2,13,5,4,6,11"
14979,commdev-image-keyboard-response,505,2048190,learnblock2,687.2999999970198,img/planet6_left.png,6,Community 3,NA,FALSE,j,f,NA,NA,NA,1,6,"9,14,3,7,10,12,1,15,8,2,13,5,4,6,11"
14979,commdev-image-keyboard-response,506,2049443,learnblock2,589,img/planet4_right.png,4,Community 3,NA,TRUE,j,j,NA,NA,NA,1,6,"9,14,3,7,10,12,1,15,8,2,13,5,4,6,11"
14979,commdev-image-keyboard-response,507,2050695,learnblock2,531.5,img/planet13_left.png,13,Community 3,NA,TRUE,f,f,NA,NA,NA,1,6,"9,14,3,7,10,12,1,15,8,2,13,5,4,6,11"
14979,commdev-image-keyboard-response,508,2051948,learnblock2,646.3000000007451,img/planet6_left.png,6,Community 3,NA,TRUE,f,f,NA,NA,NA,1,6,"9,14,3,7,10,12,1,15,8,2,13,5,4,6,11"
14979,commdev-image-keyboard-response,509,2053201,learnblock2,892.8000000007451,img/planet4_left.png,4,Community 3,NA,TRUE,f,f,NA,NA,NA,1,6,"9,14,3,7,10,12,1,15,8,2,13,5,4,6,11"
14979,commdev-image-keyboard-response,510,2054454,learnblock2,892.1999999992549,img/planet13_left.png,13,Community 3,NA,TRUE,f,f,NA,NA,NA,1,6,"9,14,3,7,10,12,1,15,8,2,13,5,4,6,11"
14979,commdev-image-keyboard-response,511,2055707,learnblock2,736.5,img/planet4_left.png,4,Community 3,NA,TRUE,f,f,NA,NA,NA,1,6,"9,14,3,7,10,12,1,15,8,2,13,5,4,6,11"
14979,commdev-image-keyboard-response,512,2056960,learnblock2,689.3000000007451,img/planet11_right.png,11,Community 3,NA,TRUE,j,j,NA,NA,NA,1,6,"9,14,3,7,10,12,1,15,8,2,13,5,4,6,11"
14979,commdev-image-keyboard-response,513,2058212,learnblock2,1167.5,img/planet13_left.png,13,Community 3,NA,TRUE,f,f,NA,NA,NA,1,6,"9,14,3,7,10,12,1,15,8,2,13,5,4,6,11"
14979,commdev-image-keyboard-response,514,2059465,learnblock2,585.1000000014901,img/planet6_left.png,6,Community 3,NA,TRUE,f,f,NA,NA,NA,1,6,"9,14,3,7,10,12,1,15,8,2,13,5,4,6,11"
14979,commdev-image-keyboard-response,515,2060718,learnblock2,715,img/planet11_left.png,11,Community 3,NA,TRUE,f,f,NA,NA,NA,1,6,"9,14,3,7,10,12,1,15,8,2,13,5,4,6,11"
14979,commdev-image-keyboard-response,516,2061970,learnblock2,498.6000000014901,img/planet6_right.png,6,Community 3,NA,FALSE,f,j,NA,NA,NA,1,6,"9,14,3,7,10,12,1,15,8,2,13,5,4,6,11"
14979,commdev-image-keyboard-response,517,2063223,learnblock2,767.0999999977648,img/planet5_left.png,5,Community 3,NA,TRUE,f,f,NA,NA,NA,1,6,"9,14,3,7,10,12,1,15,8,2,13,5,4,6,11"
14979,commdev-image-keyboard-response,518,2064475,learnblock2,523.5,img/planet15_right.png,15,Community 2,NA,TRUE,j,j,NA,NA,NA,1,6,"9,14,3,7,10,12,1,15,8,2,13,5,4,6,11"
14979,commdev-image-keyboard-response,519,2065727,learnblock2,926.8000000007451,img/planet8_right.png,8,Community 2,NA,TRUE,j,j,NA,NA,NA,1,6,"9,14,3,7,10,12,1,15,8,2,13,5,4,6,11"
14979,commdev-image-keyboard-response,520,2066980,learnblock2,659,img/planet15_right.png,15,Community 2,NA,TRUE,j,j,NA,NA,NA,1,6,"9,14,3,7,10,12,1,15,8,2,13,5,4,6,11"
14979,commdev-image-keyboard-response,521,2068233,learnblock2,583.1999999992549,img/planet8_right.png,8,Community 2,NA,TRUE,j,j,NA,NA,NA,1,6,"9,14,3,7,10,12,1,15,8,2,13,5,4,6,11"
14979,commdev-image-keyboard-response,522,2069485,learnblock2,738.9000000022352,img/planet1_left.png,1,Community 2,NA,TRUE,f,f,NA,NA,NA,1,6,"9,14,3,7,10,12,1,15,8,2,13,5,4,6,11"
14979,commdev-image-keyboard-response,523,2070738,learnblock2,495.9000000022352,img/planet2_right.png,2,Community 2,NA,TRUE,j,j,NA,NA,NA,1,6,"9,14,3,7,10,12,1,15,8,2,13,5,4,6,11"
14979,commdev-image-keyboard-response,524,2071991,learnblock2,506.9000000022352,img/planet12_right.png,12,Community 2,NA,TRUE,j,j,NA,NA,NA,1,6,"9,14,3,7,10,12,1,15,8,2,13,5,4,6,11"
14979,commdev-image-keyboard-response,525,2073243,learnblock2,678.6000000014901,img/planet1_right.png,1,Community 2,NA,TRUE,j,j,NA,NA,NA,1,6,"9,14,3,7,10,12,1,15,8,2,13,5,4,6,11"
14979,commdev-image-keyboard-response,526,2074496,learnblock2,739.1999999992549,img/planet15_right.png,15,Community 2,NA,TRUE,j,j,NA,NA,NA,1,6,"9,14,3,7,10,12,1,15,8,2,13,5,4,6,11"
14979,commdev-image-keyboard-response,527,2075748,learnblock2,971.8999999985099,img/planet5_left.png,5,Community 3,NA,FALSE,j,f,NA,NA,NA,1,6,"9,14,3,7,10,12,1,15,8,2,13,5,4,6,11"
14979,commdev-image-keyboard-response,528,2077000,learnblock2,473.5,img/planet15_right.png,15,Community 2,NA,TRUE,j,j,NA,NA,NA,1,6,"9,14,3,7,10,12,1,15,8,2,13,5,4,6,11"
14979,commdev-image-keyboard-response,529,2078253,learnblock2,750,img/planet1_left.png,1,Community 2,NA,FALSE,j,f,NA,NA,NA,1,6,"9,14,3,7,10,12,1,15,8,2,13,5,4,6,11"
14979,commdev-image-keyboard-response,530,2079505,learnblock2,629.4000000022352,img/planet2_right.png,2,Community 2,NA,TRUE,j,j,NA,NA,NA,1,6,"9,14,3,7,10,12,1,15,8,2,13,5,4,6,11"
14979,commdev-image-keyboard-response,531,2080758,learnblock2,469.80000000074506,img/planet1_right.png,1,Community 2,NA,TRUE,j,j,NA,NA,NA,1,6,"9,14,3,7,10,12,1,15,8,2,13,5,4,6,11"
14979,commdev-image-keyboard-response,532,2082011,learnblock2,770.2999999970198,img/planet15_right.png,15,Community 2,NA,TRUE,j,j,NA,NA,NA,1,6,"9,14,3,7,10,12,1,15,8,2,13,5,4,6,11"
14979,commdev-image-keyboard-response,533,2083263,learnblock2,655.8000000007451,img/planet8_left.png,8,Community 2,NA,TRUE,f,f,NA,NA,NA,1,6,"9,14,3,7,10,12,1,15,8,2,13,5,4,6,11"
14979,commdev-image-keyboard-response,534,2084516,learnblock2,556.1000000014901,img/planet15_right.png,15,Community 2,NA,TRUE,j,j,NA,NA,NA,1,6,"9,14,3,7,10,12,1,15,8,2,13,5,4,6,11"
14979,commdev-image-keyboard-response,535,2085767,learnblock2,736,img/planet5_right.png,5,Community 3,NA,TRUE,j,j,NA,NA,NA,1,6,"9,14,3,7,10,12,1,15,8,2,13,5,4,6,11"
14979,commdev-image-keyboard-response,536,2087019,learnblock2,705.5,img/planet15_right.png,15,Community 2,NA,TRUE,j,j,NA,NA,NA,1,6,"9,14,3,7,10,12,1,15,8,2,13,5,4,6,11"
14979,commdev-image-keyboard-response,537,2088272,learnblock2,626,img/planet8_right.png,8,Community 2,NA,TRUE,j,j,NA,NA,NA,1,6,"9,14,3,7,10,12,1,15,8,2,13,5,4,6,11"
14979,commdev-image-keyboard-response,538,2089524,learnblock2,686.3000000007451,img/planet2_right.png,2,Community 2,NA,TRUE,j,j,NA,NA,NA,1,6,"9,14,3,7,10,12,1,15,8,2,13,5,4,6,11"
14979,commdev-image-keyboard-response,539,2090777,learnblock2,606.1000000014901,img/planet1_right.png,1,Community 2,NA,TRUE,j,j,NA,NA,NA,1,6,"9,14,3,7,10,12,1,15,8,2,13,5,4,6,11"
14979,commdev-image-keyboard-response,540,2092029,learnblock2,586.0999999977648,img/planet8_left.png,8,Community 2,NA,TRUE,f,f,NA,NA,NA,1,6,"9,14,3,7,10,12,1,15,8,2,13,5,4,6,11"
14979,commdev-image-keyboard-response,541,2093282,learnblock2,591.1000000014901,img/planet1_right.png,1,Community 2,NA,TRUE,j,j,NA,NA,NA,1,6,"9,14,3,7,10,12,1,15,8,2,13,5,4,6,11"
14979,commdev-image-keyboard-response,542,2094534,learnblock2,751.7999999970198,img/planet8_left.png,8,Community 2,NA,TRUE,f,f,NA,NA,NA,1,6,"9,14,3,7,10,12,1,15,8,2,13,5,4,6,11"
14979,commdev-image-keyboard-response,543,2095787,learnblock2,735.9000000022352,img/planet2_left.png,2,Community 2,NA,TRUE,f,f,NA,NA,NA,1,6,"9,14,3,7,10,12,1,15,8,2,13,5,4,6,11"
14979,commdev-image-keyboard-response,544,2097040,learnblock2,594.7000000029802,img/planet15_left.png,15,Community 2,NA,FALSE,j,f,NA,NA,NA,1,6,"9,14,3,7,10,12,1,15,8,2,13,5,4,6,11"
14979,commdev-image-keyboard-response,545,2098293,learnblock2,619.5999999977648,img/planet8_left.png,8,Community 2,NA,TRUE,f,f,NA,NA,NA,1,6,"9,14,3,7,10,12,1,15,8,2,13,5,4,6,11"
14979,commdev-image-keyboard-response,546,2099546,learnblock2,473.69999999925494,img/planet15_right.png,15,Community 2,NA,TRUE,j,j,NA,NA,NA,1,6,"9,14,3,7,10,12,1,15,8,2,13,5,4,6,11"
14979,commdev-image-keyboard-response,547,2100798,learnblock2,800.1999999992549,img/planet5_left.png,5,Community 3,NA,TRUE,f,f,NA,NA,NA,1,6,"9,14,3,7,10,12,1,15,8,2,13,5,4,6,11"
14979,commdev-image-keyboard-response,548,2102051,learnblock2,626.5,img/planet11_left.png,11,Community 3,NA,TRUE,f,f,NA,NA,NA,1,6,"9,14,3,7,10,12,1,15,8,2,13,5,4,6,11"
14979,commdev-image-keyboard-response,549,2103303,learnblock2,578.8999999985099,img/planet5_left.png,5,Community 3,NA,TRUE,f,f,NA,NA,NA,1,6,"9,14,3,7,10,12,1,15,8,2,13,5,4,6,11"
14979,commdev-image-keyboard-response,550,2104556,learnblock2,456.30000000074506,img/planet11_right.png,11,Community 3,NA,FALSE,f,j,NA,NA,NA,1,6,"9,14,3,7,10,12,1,15,8,2,13,5,4,6,11"
14979,commdev-image-keyboard-response,551,2105808,learnblock2,559.8999999985099,img/planet6_right.png,6,Community 3,NA,TRUE,j,j,NA,NA,NA,1,6,"9,14,3,7,10,12,1,15,8,2,13,5,4,6,11"
14979,commdev-image-keyboard-response,552,2107060,learnblock2,587,img/planet13_right.png,13,Community 3,NA,TRUE,j,j,NA,NA,NA,1,6,"9,14,3,7,10,12,1,15,8,2,13,5,4,6,11"
14979,commdev-image-keyboard-response,553,2108312,learnblock2,600.4000000022352,img/planet10_left.png,10,Community 1,NA,FALSE,j,f,NA,NA,NA,1,6,"9,14,3,7,10,12,1,15,8,2,13,5,4,6,11"
14979,commdev-image-keyboard-response,554,2109565,learnblock2,516.1999999992549,img/planet9_right.png,9,Community 1,NA,TRUE,j,j,NA,NA,NA,1,6,"9,14,3,7,10,12,1,15,8,2,13,5,4,6,11"
14979,commdev-image-keyboard-response,555,2110818,learnblock2,632,img/planet7_right.png,7,Community 1,NA,TRUE,j,j,NA,NA,NA,1,6,"9,14,3,7,10,12,1,15,8,2,13,5,4,6,11"
14979,commdev-image-keyboard-response,556,2112072,learnblock2,640.3999999985099,img/planet14_left.png,14,Community 1,NA,TRUE,f,f,NA,NA,NA,1,6,"9,14,3,7,10,12,1,15,8,2,13,5,4,6,11"
14979,commdev-image-keyboard-response,557,2113324,learnblock2,693.2000000029802,img/planet3_right.png,3,Community 1,NA,TRUE,j,j,NA,NA,NA,1,6,"9,14,3,7,10,12,1,15,8,2,13,5,4,6,11"
14979,commdev-image-keyboard-response,558,2114577,learnblock2,776.7999999970198,img/planet9_right.png,9,Community 1,NA,TRUE,j,j,NA,NA,NA,1,6,"9,14,3,7,10,12,1,15,8,2,13,5,4,6,11"
14979,commdev-image-keyboard-response,559,2115830,learnblock2,674.3000000007451,img/planet3_left.png,3,Community 1,NA,TRUE,f,f,NA,NA,NA,1,6,"9,14,3,7,10,12,1,15,8,2,13,5,4,6,11"
14979,commdev-image-keyboard-response,560,2117082,learnblock2,780.6000000014901,img/planet9_left.png,9,Community 1,NA,TRUE,f,f,NA,NA,NA,1,6,"9,14,3,7,10,12,1,15,8,2,13,5,4,6,11"
14979,commdev-image-keyboard-response,561,2118335,learnblock2,525.4000000022352,img/planet10_right.png,10,Community 1,NA,TRUE,j,j,NA,NA,NA,1,6,"9,14,3,7,10,12,1,15,8,2,13,5,4,6,11"
14979,commdev-image-keyboard-response,562,2119587,learnblock2,731.5999999977648,img/planet3_right.png,3,Community 1,NA,TRUE,j,j,NA,NA,NA,1,6,"9,14,3,7,10,12,1,15,8,2,13,5,4,6,11"
14979,commdev-image-keyboard-response,563,2120840,learnblock2,526.1999999992549,img/planet9_right.png,9,Community 1,NA,TRUE,j,j,NA,NA,NA,1,6,"9,14,3,7,10,12,1,15,8,2,13,5,4,6,11"
14979,commdev-image-keyboard-response,564,2122092,learnblock2,706.8000000007451,img/planet7_right.png,7,Community 1,NA,TRUE,j,j,NA,NA,NA,1,6,"9,14,3,7,10,12,1,15,8,2,13,5,4,6,11"
14979,commdev-image-keyboard-response,565,2123344,learnblock2,620.2999999970198,img/planet12_right.png,12,Community 2,NA,TRUE,j,j,NA,NA,NA,1,6,"9,14,3,7,10,12,1,15,8,2,13,5,4,6,11"
14979,commdev-image-keyboard-response,566,2124597,learnblock2,608.6000000014901,img/planet7_right.png,7,Community 1,NA,TRUE,j,j,NA,NA,NA,1,6,"9,14,3,7,10,12,1,15,8,2,13,5,4,6,11"
14979,commdev-image-keyboard-response,567,2125849,learnblock2,564.6999999992549,img/planet12_left.png,12,Community 2,NA,TRUE,f,f,NA,NA,NA,1,6,"9,14,3,7,10,12,1,15,8,2,13,5,4,6,11"
14979,commdev-image-keyboard-response,568,2127102,learnblock2,524.5999999977648,img/planet8_right.png,8,Community 2,NA,TRUE,j,j,NA,NA,NA,1,6,"9,14,3,7,10,12,1,15,8,2,13,5,4,6,11"
14979,commdev-image-keyboard-response,569,2128355,learnblock2,589.5,img/planet15_right.png,15,Community 2,NA,TRUE,j,j,NA,NA,NA,1,6,"9,14,3,7,10,12,1,15,8,2,13,5,4,6,11"
14979,commdev-image-keyboard-response,570,2129608,learnblock2,647.7000000029802,img/planet2_left.png,2,Community 2,NA,TRUE,f,f,NA,NA,NA,1,6,"9,14,3,7,10,12,1,15,8,2,13,5,4,6,11"
14979,commdev-image-keyboard-response,571,2130861,learnblock2,569.3000000007451,img/planet1_left.png,1,Community 2,NA,TRUE,f,f,NA,NA,NA,1,6,"9,14,3,7,10,12,1,15,8,2,13,5,4,6,11"
14979,commdev-image-keyboard-response,572,2132113,learnblock2,497.1000000014901,img/planet8_right.png,8,Community 2,NA,TRUE,j,j,NA,NA,NA,1,6,"9,14,3,7,10,12,1,15,8,2,13,5,4,6,11"
14979,commdev-image-keyboard-response,573,2133366,learnblock2,569.5999999977648,img/planet1_right.png,1,Community 2,NA,TRUE,j,j,NA,NA,NA,1,6,"9,14,3,7,10,12,1,15,8,2,13,5,4,6,11"
14979,commdev-image-keyboard-response,574,2134619,learnblock2,557.7000000029802,img/planet12_right.png,12,Community 2,NA,TRUE,j,j,NA,NA,NA,1,6,"9,14,3,7,10,12,1,15,8,2,13,5,4,6,11"
14979,commdev-image-keyboard-response,575,2135871,learnblock2,818.1000000014901,img/planet2_left.png,2,Community 2,NA,TRUE,f,f,NA,NA,NA,1,6,"9,14,3,7,10,12,1,15,8,2,13,5,4,6,11"
14979,commdev-image-keyboard-response,576,2137123,learnblock2,643.6000000014901,img/planet12_left.png,12,Community 2,NA,TRUE,f,f,NA,NA,NA,1,6,"9,14,3,7,10,12,1,15,8,2,13,5,4,6,11"
14979,commdev-image-keyboard-response,577,2138376,learnblock2,645,img/planet1_left.png,1,Community 2,NA,TRUE,f,f,NA,NA,NA,1,6,"9,14,3,7,10,12,1,15,8,2,13,5,4,6,11"
14979,commdev-image-keyboard-response,578,2139629,learnblock2,469.3999999985099,img/planet12_left.png,12,Community 2,NA,FALSE,j,f,NA,NA,NA,1,6,"9,14,3,7,10,12,1,15,8,2,13,5,4,6,11"
14979,commdev-image-keyboard-response,579,2140881,learnblock2,760,img/planet2_left.png,2,Community 2,NA,TRUE,f,f,NA,NA,NA,1,6,"9,14,3,7,10,12,1,15,8,2,13,5,4,6,11"
14979,commdev-image-keyboard-response,580,2142134,learnblock2,595.9000000022352,img/planet8_right.png,8,Community 2,NA,TRUE,j,j,NA,NA,NA,1,6,"9,14,3,7,10,12,1,15,8,2,13,5,4,6,11"
14979,commdev-image-keyboard-response,581,2143387,learnblock2,797.9000000022352,img/planet2_right.png,2,Community 2,NA,TRUE,j,j,NA,NA,NA,1,6,"9,14,3,7,10,12,1,15,8,2,13,5,4,6,11"
14979,commdev-image-keyboard-response,582,2144639,learnblock2,604.3999999985099,img/planet8_right.png,8,Community 2,NA,TRUE,j,j,NA,NA,NA,1,6,"9,14,3,7,10,12,1,15,8,2,13,5,4,6,11"
14979,commdev-image-keyboard-response,583,2145891,learnblock2,692.6000000014901,img/planet15_right.png,15,Community 2,NA,TRUE,j,j,NA,NA,NA,1,6,"9,14,3,7,10,12,1,15,8,2,13,5,4,6,11"
14979,commdev-image-keyboard-response,584,2147143,learnblock2,488.8999999985099,img/planet8_left.png,8,Community 2,NA,TRUE,f,f,NA,NA,NA,1,6,"9,14,3,7,10,12,1,15,8,2,13,5,4,6,11"
14979,commdev-image-keyboard-response,585,2148396,learnblock2,837.9000000022352,img/planet2_right.png,2,Community 2,NA,TRUE,j,j,NA,NA,NA,1,6,"9,14,3,7,10,12,1,15,8,2,13,5,4,6,11"
