subject_id,trial_type,trial_index,time_elapsed,block,rt,stimulus,planet,community,response,correct,key_press,learning_correct_response,parse,init_locations,final_locations,browser_interactions,num_comp,planet_map
14817,commdev-instructions,7,28587,NA,1487,"<p>In this game, you will be shown a 3x3 grid of patterns.</p> <p>The last one in the bottom right-hand corner, <strong>will be missing:</strong></p> <div style='width: 700px;'><div style='float: top;'><img style='width: 200px;' src='practice/p1_M1.png'></img><p class='small'>You need to select<strong> which of the four possible patterns </strong>along the bottom<strong> fits into the gap:</strong></p></div><div style='float: top;'><img style='width: 300px;' src='practice/p1_T1.png'></img></div><br>",NA,NA,NA,NA,NA,NA,NA,NA,NA,1,7,"10,14,8,12,2,9,1,6,4,5,11,15,3,7,13"
14817,commdev-instructions,8,48420,NA,1673,"<p>Try to be as fast and as accurate as you can be.</p> <p>If you cannot solve the puzzle then you should guess - you will not be penalised for an incorrect answer.</p> <p>The task contains a shuffled mix of easy, medium and hard puzzles.</p> <p>You will have <strong>30 seconds</strong> to complete each puzzle.</p><br>",NA,NA,NA,NA,NA,NA,NA,NA,NA,1,7,"10,14,8,12,2,9,1,6,4,5,11,15,3,7,13"
14817,commdev-instructions,17,89353,NA,1571,<p><strong>Success!</strong></p> <p>You seem to be getting the hang of this...</p> <p>Let's move on to the real trials.</p><br>,NA,NA,NA,NA,NA,NA,NA,NA,NA,1,7,"10,14,8,12,2,9,1,6,4,5,11,15,3,7,13"
14817,commdev-instructions,115,582504,NA,1276,"<p>In this game, you are a scientist on board a space shuttle. </p><p> On each mission, you will visit planets all across the universe.</p><img src=""img/controlroom.jpg"" width=300vw>",NA,NA,NA,NA,NA,NA,NA,NA,NA,1,7,"10,14,8,12,2,9,1,6,4,5,11,15,3,7,13"
14817,commdev-instructions,116,587703,NA,3129,"<p>Here are a few planets you might see:</p><img src=""img/practice1.png"" width=200vw><img src=""img/practice2.png"" width=200vw><img src=""img/practice3.png"" width=200vw>",NA,NA,NA,NA,NA,NA,NA,NA,NA,1,7,"10,14,8,12,2,9,1,6,4,5,11,15,3,7,13"
14817,commdev-instructions,117,596253,NA,1152,"<p>Your job as a scientist is to record which direction the winds are moving on each planet.</p><p>There are two types of wind directions:</p><img src=""img/practice1_left.png"" width=200vw><img src=""img/practice1_right.png"" width=200vw>",NA,NA,NA,NA,NA,NA,NA,NA,NA,1,7,"10,14,8,12,2,9,1,6,4,5,11,15,3,7,13"
14817,commdev-instructions,118,609803,NA,8671,"<p>If the winds are moving this way, press the letter <strong>F</strong> on the keyboard as fast as you can.</p><img src=""img/leftwind.png"" width=250vw>",NA,NA,NA,NA,NA,NA,NA,NA,NA,1,7,"10,14,8,12,2,9,1,6,4,5,11,15,3,7,13"
14817,commdev-instructions,119,632304,NA,18005,"<p>If the winds are moving this way, press the letter <strong>J</strong> on the keyboard as fast as you can.</p><img src=""img/rightwind.png"" width=350vw>",NA,NA,NA,NA,NA,NA,NA,NA,NA,1,7,"10,14,8,12,2,9,1,6,4,5,11,15,3,7,13"
14817,commdev-instructions,120,639504,NA,2777,<p>You will have 1 second to respond. Try to respond before the time runs out!,NA,NA,NA,NA,NA,NA,NA,NA,NA,1,7,"10,14,8,12,2,9,1,6,4,5,11,15,3,7,13"
14817,commdev-instructions,121,652587,NA,7652.000000000116,<p>The planets you will visit will look different from each other.</p><p>You should respond <strong>only</strong> based on wind direction.,NA,NA,NA,NA,NA,NA,NA,NA,NA,1,7,"10,14,8,12,2,9,1,6,4,5,11,15,3,7,13"
14817,commdev-instructions,122,666870,NA,9119,"<p> Ready to start the practice round? </p><p> Remember, press <strong>F</strong> or <strong>J</strong> depending on the wind direction.<br><img src=""img/categorize_planet_example.png""",NA,NA,NA,NA,NA,NA,NA,NA,NA,1,7,"10,14,8,12,2,9,1,6,4,5,11,15,3,7,13"
14817,commdev-instructions,134,750471,NA,2820,"<p>Great, now try a short practice mission. </p><p> This time, you will have 1 second to respond and you won't know whether you pressed the right or wrong key for each planet.</p>",NA,NA,NA,NA,NA,NA,NA,NA,NA,1,7,"10,14,8,12,2,9,1,6,4,5,11,15,3,7,13"
14817,commdev-image-keyboard-response,135,751825,practice,null,img/practice4_left.png,NA,Number not found in mappings,NA,FALSE,null,f,NA,NA,NA,1,7,"10,14,8,12,2,9,1,6,4,5,11,15,3,7,13"
14817,commdev-image-keyboard-response,136,753077,practice,133,img/practice2_right.png,NA,Number not found in mappings,NA,TRUE,j,j,NA,NA,NA,1,7,"10,14,8,12,2,9,1,6,4,5,11,15,3,7,13"
14817,commdev-image-keyboard-response,137,754329,practice,816,img/practice3_left.png,NA,Number not found in mappings,NA,FALSE,j,f,NA,NA,NA,1,7,"10,14,8,12,2,9,1,6,4,5,11,15,3,7,13"
14817,commdev-image-keyboard-response,138,755580,practice,906.0000000001164,img/practice4_right.png,NA,Number not found in mappings,NA,TRUE,j,j,NA,NA,NA,1,7,"10,14,8,12,2,9,1,6,4,5,11,15,3,7,13"
14817,commdev-image-keyboard-response,139,756831,practice,793,img/practice3_left.png,NA,Number not found in mappings,NA,FALSE,j,f,NA,NA,NA,1,7,"10,14,8,12,2,9,1,6,4,5,11,15,3,7,13"
14817,commdev-image-keyboard-response,140,758082,practice,810.9999999998836,img/practice4_right.png,NA,Number not found in mappings,NA,TRUE,j,j,NA,NA,NA,1,7,"10,14,8,12,2,9,1,6,4,5,11,15,3,7,13"
14817,commdev-image-keyboard-response,141,759333,practice,678,img/practice3_right.png,NA,Number not found in mappings,NA,TRUE,j,j,NA,NA,NA,1,7,"10,14,8,12,2,9,1,6,4,5,11,15,3,7,13"
14817,commdev-image-keyboard-response,142,760584,practice,834,img/practice1_right.png,NA,Number not found in mappings,NA,TRUE,j,j,NA,NA,NA,1,7,"10,14,8,12,2,9,1,6,4,5,11,15,3,7,13"
14817,commdev-instructions,143,772587,NA,2451,"<p>Great job with the practice round.</p><p>During real missions, you won't know whether you pressed the right or wrong key for each planet.</p><p>But between missions, we will tell you how you did overall.</p>",NA,NA,NA,NA,NA,NA,NA,NA,NA,1,7,"10,14,8,12,2,9,1,6,4,5,11,15,3,7,13"
14817,commdev-instructions,144,784821,NA,3993.9999999998836,<p>Try your best! You will be paid a bonus based on how many correct responses you make!</p><p>Responses that are too slow will not count toward your bonus.</p>,NA,NA,NA,NA,NA,NA,NA,NA,NA,1,7,"10,14,8,12,2,9,1,6,4,5,11,15,3,7,13"
14817,commdev-instructions,145,792221,NA,1201,"<p>You are almost ready to start the real game.</p><p> First, we are going to ask you some questions about how the game works.</p>",NA,NA,NA,NA,NA,NA,NA,NA,NA,1,7,"10,14,8,12,2,9,1,6,4,5,11,15,3,7,13"
14817,commdev-instructions,156,911605,NA,11120,"<p> Nice work! It is now time to start the real game.<p></p>You will go on two missions to record wind directions of different planets.<p></p>Each one will take about 5 minutes. You will get to take a break between missions.<p><p> Remember, press <strong>F</strong> or <strong>J</strong> depending on the wind direction. Good luck!<br><img src=""img/categorize_planet_example.png""",NA,NA,NA,NA,NA,NA,NA,NA,NA,1,7,"10,14,8,12,2,9,1,6,4,5,11,15,3,7,13"
14817,commdev-image-keyboard-response,158,915311,learnblock1,null,img/planet1_right.png,1,Community 2,NA,FALSE,null,j,NA,NA,NA,1,7,"10,14,8,12,2,9,1,6,4,5,11,15,3,7,13"
14817,commdev-image-keyboard-response,159,916562,learnblock1,853,img/planet9_right.png,9,Community 2,NA,TRUE,j,j,NA,NA,NA,1,7,"10,14,8,12,2,9,1,6,4,5,11,15,3,7,13"
14817,commdev-image-keyboard-response,160,917813,learnblock1,783,img/planet5_right.png,5,Community 2,NA,FALSE,f,j,NA,NA,NA,1,7,"10,14,8,12,2,9,1,6,4,5,11,15,3,7,13"
14817,commdev-image-keyboard-response,161,919064,learnblock1,1141.9999999998836,img/planet9_left.png,9,Community 2,NA,TRUE,f,f,NA,NA,NA,1,7,"10,14,8,12,2,9,1,6,4,5,11,15,3,7,13"
14817,commdev-image-keyboard-response,162,920315,learnblock1,1073,img/planet12_right.png,12,Community 1,NA,FALSE,f,j,NA,NA,NA,1,7,"10,14,8,12,2,9,1,6,4,5,11,15,3,7,13"
14817,commdev-image-keyboard-response,163,921566,learnblock1,1096,img/planet14_left.png,14,Community 1,NA,FALSE,j,f,NA,NA,NA,1,7,"10,14,8,12,2,9,1,6,4,5,11,15,3,7,13"
14817,commdev-image-keyboard-response,164,922817,learnblock1,1217,img/planet12_left.png,12,Community 1,NA,TRUE,f,f,NA,NA,NA,1,7,"10,14,8,12,2,9,1,6,4,5,11,15,3,7,13"
14817,commdev-image-keyboard-response,165,924068,learnblock1,null,img/planet14_left.png,14,Community 1,NA,FALSE,null,f,NA,NA,NA,1,7,"10,14,8,12,2,9,1,6,4,5,11,15,3,7,13"
14817,commdev-image-keyboard-response,166,925319,learnblock1,134.00000000011642,img/planet2_right.png,2,Community 1,NA,TRUE,j,j,NA,NA,NA,1,7,"10,14,8,12,2,9,1,6,4,5,11,15,3,7,13"
14817,commdev-image-keyboard-response,167,926570,learnblock1,794,img/planet8_left.png,8,Community 1,NA,FALSE,j,f,NA,NA,NA,1,7,"10,14,8,12,2,9,1,6,4,5,11,15,3,7,13"
14817,commdev-image-keyboard-response,168,927821,learnblock1,1008,img/planet14_left.png,14,Community 1,NA,TRUE,f,f,NA,NA,NA,1,7,"10,14,8,12,2,9,1,6,4,5,11,15,3,7,13"
14817,commdev-image-keyboard-response,169,929072,learnblock1,1094,img/planet12_right.png,12,Community 1,NA,FALSE,f,j,NA,NA,NA,1,7,"10,14,8,12,2,9,1,6,4,5,11,15,3,7,13"
14817,commdev-image-keyboard-response,170,930323,learnblock1,1136.9999999998836,img/planet14_left.png,14,Community 1,NA,FALSE,j,f,NA,NA,NA,1,7,"10,14,8,12,2,9,1,6,4,5,11,15,3,7,13"
14817,commdev-image-keyboard-response,171,931574,learnblock1,1177.0000000001164,img/planet10_left.png,10,Community 1,NA,FALSE,j,f,NA,NA,NA,1,7,"10,14,8,12,2,9,1,6,4,5,11,15,3,7,13"
14817,commdev-image-keyboard-response,172,932825,learnblock1,1184,img/planet14_right.png,14,Community 1,NA,TRUE,j,j,NA,NA,NA,1,7,"10,14,8,12,2,9,1,6,4,5,11,15,3,7,13"
14817,commdev-image-keyboard-response,173,934076,learnblock1,1071,img/planet2_right.png,2,Community 1,NA,FALSE,f,j,NA,NA,NA,1,7,"10,14,8,12,2,9,1,6,4,5,11,15,3,7,13"
14817,commdev-image-keyboard-response,174,935326,learnblock1,1194,img/planet11_left.png,11,Community 3,NA,FALSE,j,f,NA,NA,NA,1,7,"10,14,8,12,2,9,1,6,4,5,11,15,3,7,13"
14817,commdev-image-keyboard-response,175,936577,learnblock1,1097.9999999998836,img/planet7_left.png,7,Community 3,NA,TRUE,f,f,NA,NA,NA,1,7,"10,14,8,12,2,9,1,6,4,5,11,15,3,7,13"
14817,commdev-image-keyboard-response,176,937828,learnblock1,null,img/planet13_right.png,13,Community 3,NA,FALSE,null,j,NA,NA,NA,1,7,"10,14,8,12,2,9,1,6,4,5,11,15,3,7,13"
14817,commdev-image-keyboard-response,177,939079,learnblock1,49,img/planet3_left.png,3,Community 3,NA,TRUE,f,f,NA,NA,NA,1,7,"10,14,8,12,2,9,1,6,4,5,11,15,3,7,13"
14817,commdev-image-keyboard-response,178,940330,learnblock1,1105,img/planet7_right.png,7,Community 3,NA,FALSE,f,j,NA,NA,NA,1,7,"10,14,8,12,2,9,1,6,4,5,11,15,3,7,13"
14817,commdev-image-keyboard-response,179,941581,learnblock1,1055.0000000001164,img/planet3_right.png,3,Community 3,NA,TRUE,j,j,NA,NA,NA,1,7,"10,14,8,12,2,9,1,6,4,5,11,15,3,7,13"
14817,commdev-image-keyboard-response,180,942832,learnblock1,801.9999999998836,img/planet13_right.png,13,Community 3,NA,FALSE,f,j,NA,NA,NA,1,7,"10,14,8,12,2,9,1,6,4,5,11,15,3,7,13"
14817,commdev-image-keyboard-response,181,944083,learnblock1,704,img/planet3_left.png,3,Community 3,NA,FALSE,j,f,NA,NA,NA,1,7,"10,14,8,12,2,9,1,6,4,5,11,15,3,7,13"
14817,commdev-image-keyboard-response,182,945334,learnblock1,819,img/planet7_left.png,7,Community 3,NA,TRUE,f,f,NA,NA,NA,1,7,"10,14,8,12,2,9,1,6,4,5,11,15,3,7,13"
14817,commdev-image-keyboard-response,183,946585,learnblock1,1118,img/planet11_left.png,11,Community 3,NA,FALSE,j,f,NA,NA,NA,1,7,"10,14,8,12,2,9,1,6,4,5,11,15,3,7,13"
14817,commdev-image-keyboard-response,184,947836,learnblock1,1005,img/planet3_left.png,3,Community 3,NA,FALSE,j,f,NA,NA,NA,1,7,"10,14,8,12,2,9,1,6,4,5,11,15,3,7,13"
14817,commdev-image-keyboard-response,185,949087,learnblock1,738,img/planet7_left.png,7,Community 3,NA,TRUE,f,f,NA,NA,NA,1,7,"10,14,8,12,2,9,1,6,4,5,11,15,3,7,13"
14817,commdev-image-keyboard-response,186,950338,learnblock1,966,img/planet15_right.png,15,Community 3,NA,FALSE,f,j,NA,NA,NA,1,7,"10,14,8,12,2,9,1,6,4,5,11,15,3,7,13"
14817,commdev-image-keyboard-response,187,951589,learnblock1,1211,img/planet7_left.png,7,Community 3,NA,TRUE,f,f,NA,NA,NA,1,7,"10,14,8,12,2,9,1,6,4,5,11,15,3,7,13"
14817,commdev-image-keyboard-response,188,952840,learnblock1,851,img/planet3_left.png,3,Community 3,NA,FALSE,j,f,NA,NA,NA,1,7,"10,14,8,12,2,9,1,6,4,5,11,15,3,7,13"
14817,commdev-image-keyboard-response,189,954091,learnblock1,836,img/planet11_left.png,11,Community 3,NA,TRUE,f,f,NA,NA,NA,1,7,"10,14,8,12,2,9,1,6,4,5,11,15,3,7,13"
14817,commdev-image-keyboard-response,190,955342,learnblock1,990,img/planet3_left.png,3,Community 3,NA,FALSE,j,f,NA,NA,NA,1,7,"10,14,8,12,2,9,1,6,4,5,11,15,3,7,13"
14817,commdev-image-keyboard-response,191,956593,learnblock1,794,img/planet13_right.png,13,Community 3,NA,FALSE,f,j,NA,NA,NA,1,7,"10,14,8,12,2,9,1,6,4,5,11,15,3,7,13"
14817,commdev-image-keyboard-response,192,957844,learnblock1,907.0000000001164,img/planet7_right.png,7,Community 3,NA,FALSE,f,j,NA,NA,NA,1,7,"10,14,8,12,2,9,1,6,4,5,11,15,3,7,13"
14817,commdev-image-keyboard-response,193,959095,learnblock1,673,img/planet15_right.png,15,Community 3,NA,TRUE,j,j,NA,NA,NA,1,7,"10,14,8,12,2,9,1,6,4,5,11,15,3,7,13"
14817,commdev-image-keyboard-response,194,960346,learnblock1,1167,img/planet6_left.png,6,Community 2,NA,TRUE,f,f,NA,NA,NA,1,7,"10,14,8,12,2,9,1,6,4,5,11,15,3,7,13"
14817,commdev-image-keyboard-response,195,961597,learnblock1,null,img/planet5_left.png,5,Community 2,NA,FALSE,null,f,NA,NA,NA,1,7,"10,14,8,12,2,9,1,6,4,5,11,15,3,7,13"
14817,commdev-image-keyboard-response,196,962848,learnblock1,241,img/planet4_right.png,4,Community 2,NA,TRUE,j,j,NA,NA,NA,1,7,"10,14,8,12,2,9,1,6,4,5,11,15,3,7,13"
14817,commdev-image-keyboard-response,197,964099,learnblock1,883.0000000001164,img/planet9_right.png,9,Community 2,NA,FALSE,f,j,NA,NA,NA,1,7,"10,14,8,12,2,9,1,6,4,5,11,15,3,7,13"
14817,commdev-image-keyboard-response,198,965350,learnblock1,668,img/planet4_left.png,4,Community 2,NA,FALSE,j,f,NA,NA,NA,1,7,"10,14,8,12,2,9,1,6,4,5,11,15,3,7,13"
14817,commdev-image-keyboard-response,199,966601,learnblock1,915,img/planet5_right.png,5,Community 2,NA,FALSE,f,j,NA,NA,NA,1,7,"10,14,8,12,2,9,1,6,4,5,11,15,3,7,13"
14817,commdev-image-keyboard-response,200,967852,learnblock1,934.9999999998836,img/planet4_right.png,4,Community 2,NA,TRUE,j,j,NA,NA,NA,1,7,"10,14,8,12,2,9,1,6,4,5,11,15,3,7,13"
14817,commdev-image-keyboard-response,201,969103,learnblock1,945,img/planet9_right.png,9,Community 2,NA,TRUE,j,j,NA,NA,NA,1,7,"10,14,8,12,2,9,1,6,4,5,11,15,3,7,13"
14817,commdev-image-keyboard-response,202,970354,learnblock1,800,img/planet12_left.png,12,Community 1,NA,TRUE,f,f,NA,NA,NA,1,7,"10,14,8,12,2,9,1,6,4,5,11,15,3,7,13"
14817,commdev-image-keyboard-response,203,971605,learnblock1,1115,img/planet14_left.png,14,Community 1,NA,TRUE,f,f,NA,NA,NA,1,7,"10,14,8,12,2,9,1,6,4,5,11,15,3,7,13"
14817,commdev-image-keyboard-response,204,972856,learnblock1,null,img/planet2_right.png,2,Community 1,NA,FALSE,null,j,NA,NA,NA,1,7,"10,14,8,12,2,9,1,6,4,5,11,15,3,7,13"
14817,commdev-image-keyboard-response,205,974107,learnblock1,82.99999999988358,img/planet14_right.png,14,Community 1,NA,TRUE,j,j,NA,NA,NA,1,7,"10,14,8,12,2,9,1,6,4,5,11,15,3,7,13"
14817,commdev-image-keyboard-response,206,975358,learnblock1,639,img/planet12_left.png,12,Community 1,NA,TRUE,f,f,NA,NA,NA,1,7,"10,14,8,12,2,9,1,6,4,5,11,15,3,7,13"
14817,commdev-image-keyboard-response,207,976609,learnblock1,541.0000000001164,img/planet10_left.png,10,Community 1,NA,FALSE,j,f,NA,NA,NA,1,7,"10,14,8,12,2,9,1,6,4,5,11,15,3,7,13"
14817,commdev-image-keyboard-response,208,977860,learnblock1,600,img/planet12_right.png,12,Community 1,NA,FALSE,f,j,NA,NA,NA,1,7,"10,14,8,12,2,9,1,6,4,5,11,15,3,7,13"
14817,commdev-image-keyboard-response,209,979111,learnblock1,656,img/planet14_right.png,14,Community 1,NA,TRUE,j,j,NA,NA,NA,1,7,"10,14,8,12,2,9,1,6,4,5,11,15,3,7,13"
14817,commdev-image-keyboard-response,210,980362,learnblock1,707.9999999998836,img/planet12_left.png,12,Community 1,NA,TRUE,f,f,NA,NA,NA,1,7,"10,14,8,12,2,9,1,6,4,5,11,15,3,7,13"
14817,commdev-image-keyboard-response,211,981613,learnblock1,719,img/planet9_left.png,9,Community 2,NA,FALSE,j,f,NA,NA,NA,1,7,"10,14,8,12,2,9,1,6,4,5,11,15,3,7,13"
14817,commdev-image-keyboard-response,212,982864,learnblock1,800,img/planet4_right.png,4,Community 2,NA,FALSE,f,j,NA,NA,NA,1,7,"10,14,8,12,2,9,1,6,4,5,11,15,3,7,13"
14817,commdev-image-keyboard-response,213,984115,learnblock1,844,img/planet1_right.png,1,Community 2,NA,FALSE,f,j,NA,NA,NA,1,7,"10,14,8,12,2,9,1,6,4,5,11,15,3,7,13"
14817,commdev-image-keyboard-response,214,985366,learnblock1,1066,img/planet4_left.png,4,Community 2,NA,TRUE,f,f,NA,NA,NA,1,7,"10,14,8,12,2,9,1,6,4,5,11,15,3,7,13"
14817,commdev-image-keyboard-response,215,986617,learnblock1,null,img/planet6_left.png,6,Community 2,NA,FALSE,null,f,NA,NA,NA,1,7,"10,14,8,12,2,9,1,6,4,5,11,15,3,7,13"
14817,commdev-image-keyboard-response,216,987868,learnblock1,120,img/planet1_right.png,1,Community 2,NA,FALSE,f,j,NA,NA,NA,1,7,"10,14,8,12,2,9,1,6,4,5,11,15,3,7,13"
14817,commdev-image-keyboard-response,217,989118,learnblock1,1014,img/planet6_right.png,6,Community 2,NA,FALSE,f,j,NA,NA,NA,1,7,"10,14,8,12,2,9,1,6,4,5,11,15,3,7,13"
14817,commdev-image-keyboard-response,218,990370,learnblock1,869,img/planet1_right.png,1,Community 2,NA,TRUE,j,j,NA,NA,NA,1,7,"10,14,8,12,2,9,1,6,4,5,11,15,3,7,13"
14817,commdev-image-keyboard-response,219,991621,learnblock1,828.9999999998836,img/planet4_left.png,4,Community 2,NA,TRUE,f,f,NA,NA,NA,1,7,"10,14,8,12,2,9,1,6,4,5,11,15,3,7,13"
14817,commdev-image-keyboard-response,220,992872,learnblock1,1015,img/planet9_left.png,9,Community 2,NA,TRUE,f,f,NA,NA,NA,1,7,"10,14,8,12,2,9,1,6,4,5,11,15,3,7,13"
14817,commdev-image-keyboard-response,221,994122,learnblock1,752,img/planet4_left.png,4,Community 2,NA,TRUE,f,f,NA,NA,NA,1,7,"10,14,8,12,2,9,1,6,4,5,11,15,3,7,13"
14817,commdev-image-keyboard-response,222,995374,learnblock1,899,img/planet9_right.png,9,Community 2,NA,TRUE,j,j,NA,NA,NA,1,7,"10,14,8,12,2,9,1,6,4,5,11,15,3,7,13"
14817,commdev-image-keyboard-response,223,996625,learnblock1,1001.0000000001164,img/planet5_right.png,5,Community 2,NA,TRUE,j,j,NA,NA,NA,1,7,"10,14,8,12,2,9,1,6,4,5,11,15,3,7,13"
14817,commdev-image-keyboard-response,224,997876,learnblock1,853,img/planet1_right.png,1,Community 2,NA,TRUE,j,j,NA,NA,NA,1,7,"10,14,8,12,2,9,1,6,4,5,11,15,3,7,13"
14817,commdev-image-keyboard-response,225,999127,learnblock1,921,img/planet5_right.png,5,Community 2,NA,TRUE,j,j,NA,NA,NA,1,7,"10,14,8,12,2,9,1,6,4,5,11,15,3,7,13"
14817,commdev-image-keyboard-response,226,1000378,learnblock1,787,img/planet1_left.png,1,Community 2,NA,TRUE,f,f,NA,NA,NA,1,7,"10,14,8,12,2,9,1,6,4,5,11,15,3,7,13"
14817,commdev-image-keyboard-response,227,1001628,learnblock1,1070,img/planet9_left.png,9,Community 2,NA,TRUE,f,f,NA,NA,NA,1,7,"10,14,8,12,2,9,1,6,4,5,11,15,3,7,13"
14817,commdev-image-keyboard-response,228,1002879,learnblock1,803,img/planet4_right.png,4,Community 2,NA,TRUE,j,j,NA,NA,NA,1,7,"10,14,8,12,2,9,1,6,4,5,11,15,3,7,13"
14817,commdev-image-keyboard-response,229,1004130,learnblock1,647,img/planet9_left.png,9,Community 2,NA,TRUE,f,f,NA,NA,NA,1,7,"10,14,8,12,2,9,1,6,4,5,11,15,3,7,13"
14817,commdev-image-keyboard-response,230,1005381,learnblock1,723.9999999998836,img/planet4_right.png,4,Community 2,NA,TRUE,j,j,NA,NA,NA,1,7,"10,14,8,12,2,9,1,6,4,5,11,15,3,7,13"
14817,commdev-image-keyboard-response,231,1006632,learnblock1,724,img/planet1_right.png,1,Community 2,NA,TRUE,j,j,NA,NA,NA,1,7,"10,14,8,12,2,9,1,6,4,5,11,15,3,7,13"
14817,commdev-image-keyboard-response,232,1007883,learnblock1,802,img/planet9_right.png,9,Community 2,NA,TRUE,j,j,NA,NA,NA,1,7,"10,14,8,12,2,9,1,6,4,5,11,15,3,7,13"
14817,commdev-image-keyboard-response,233,1009134,learnblock1,777,img/planet5_left.png,5,Community 2,NA,TRUE,f,f,NA,NA,NA,1,7,"10,14,8,12,2,9,1,6,4,5,11,15,3,7,13"
14817,commdev-image-keyboard-response,234,1010385,learnblock1,792,img/planet9_right.png,9,Community 2,NA,TRUE,j,j,NA,NA,NA,1,7,"10,14,8,12,2,9,1,6,4,5,11,15,3,7,13"
14817,commdev-image-keyboard-response,235,1011636,learnblock1,793.9999999998836,img/planet5_right.png,5,Community 2,NA,TRUE,j,j,NA,NA,NA,1,7,"10,14,8,12,2,9,1,6,4,5,11,15,3,7,13"
14817,commdev-image-keyboard-response,236,1012888,learnblock1,913,img/planet6_right.png,6,Community 2,NA,TRUE,j,j,NA,NA,NA,1,7,"10,14,8,12,2,9,1,6,4,5,11,15,3,7,13"
14817,commdev-image-keyboard-response,237,1014140,learnblock1,867.0000000001164,img/planet5_right.png,5,Community 2,NA,TRUE,j,j,NA,NA,NA,1,7,"10,14,8,12,2,9,1,6,4,5,11,15,3,7,13"
14817,commdev-image-keyboard-response,238,1015392,learnblock1,772,img/planet1_left.png,1,Community 2,NA,TRUE,f,f,NA,NA,NA,1,7,"10,14,8,12,2,9,1,6,4,5,11,15,3,7,13"
14817,commdev-image-keyboard-response,239,1016643,learnblock1,1209.0000000001164,img/planet5_left.png,5,Community 2,NA,TRUE,f,f,NA,NA,NA,1,7,"10,14,8,12,2,9,1,6,4,5,11,15,3,7,13"
14817,commdev-image-keyboard-response,240,1017894,learnblock1,720,img/planet4_left.png,4,Community 2,NA,TRUE,f,f,NA,NA,NA,1,7,"10,14,8,12,2,9,1,6,4,5,11,15,3,7,13"
14817,commdev-image-keyboard-response,241,1019145,learnblock1,643.9999999998836,img/planet6_left.png,6,Community 2,NA,TRUE,f,f,NA,NA,NA,1,7,"10,14,8,12,2,9,1,6,4,5,11,15,3,7,13"
14817,commdev-image-keyboard-response,242,1020396,learnblock1,638,img/planet4_right.png,4,Community 2,NA,TRUE,j,j,NA,NA,NA,1,7,"10,14,8,12,2,9,1,6,4,5,11,15,3,7,13"
14817,commdev-image-keyboard-response,243,1021647,learnblock1,804,img/planet9_right.png,9,Community 2,NA,TRUE,j,j,NA,NA,NA,1,7,"10,14,8,12,2,9,1,6,4,5,11,15,3,7,13"
14817,commdev-image-keyboard-response,244,1022898,learnblock1,818,img/planet12_left.png,12,Community 1,NA,TRUE,f,f,NA,NA,NA,1,7,"10,14,8,12,2,9,1,6,4,5,11,15,3,7,13"
14817,commdev-image-keyboard-response,245,1024150,learnblock1,680,img/planet9_right.png,9,Community 2,NA,TRUE,j,j,NA,NA,NA,1,7,"10,14,8,12,2,9,1,6,4,5,11,15,3,7,13"
14817,commdev-image-keyboard-response,246,1025401,learnblock1,738.0000000001164,img/planet5_right.png,5,Community 2,NA,TRUE,j,j,NA,NA,NA,1,7,"10,14,8,12,2,9,1,6,4,5,11,15,3,7,13"
14817,commdev-image-keyboard-response,247,1026652,learnblock1,723.0000000002328,img/planet9_left.png,9,Community 2,NA,TRUE,f,f,NA,NA,NA,1,7,"10,14,8,12,2,9,1,6,4,5,11,15,3,7,13"
14817,commdev-image-keyboard-response,248,1027904,learnblock1,618.9999999998836,img/planet4_right.png,4,Community 2,NA,FALSE,f,j,NA,NA,NA,1,7,"10,14,8,12,2,9,1,6,4,5,11,15,3,7,13"
14817,commdev-image-keyboard-response,249,1029154,learnblock1,131.99999999976717,img/planet1_right.png,1,Community 2,NA,TRUE,j,j,NA,NA,NA,1,7,"10,14,8,12,2,9,1,6,4,5,11,15,3,7,13"
14817,commdev-image-keyboard-response,250,1030406,learnblock1,759,img/planet4_right.png,4,Community 2,NA,TRUE,j,j,NA,NA,NA,1,7,"10,14,8,12,2,9,1,6,4,5,11,15,3,7,13"
14817,commdev-image-keyboard-response,251,1031658,learnblock1,815.0000000001164,img/planet6_right.png,6,Community 2,NA,TRUE,j,j,NA,NA,NA,1,7,"10,14,8,12,2,9,1,6,4,5,11,15,3,7,13"
14817,commdev-image-keyboard-response,252,1032912,learnblock1,705.0000000001164,img/planet1_left.png,1,Community 2,NA,TRUE,f,f,NA,NA,NA,1,7,"10,14,8,12,2,9,1,6,4,5,11,15,3,7,13"
14817,commdev-image-keyboard-response,253,1034163,learnblock1,749,img/planet6_right.png,6,Community 2,NA,TRUE,j,j,NA,NA,NA,1,7,"10,14,8,12,2,9,1,6,4,5,11,15,3,7,13"
14817,commdev-image-keyboard-response,254,1035415,learnblock1,800.9999999998836,img/planet5_left.png,5,Community 2,NA,TRUE,f,f,NA,NA,NA,1,7,"10,14,8,12,2,9,1,6,4,5,11,15,3,7,13"
14817,commdev-image-keyboard-response,255,1036667,learnblock1,612.0000000001164,img/planet4_right.png,4,Community 2,NA,TRUE,j,j,NA,NA,NA,1,7,"10,14,8,12,2,9,1,6,4,5,11,15,3,7,13"
14817,commdev-image-keyboard-response,256,1037918,learnblock1,625,img/planet5_left.png,5,Community 2,NA,TRUE,f,f,NA,NA,NA,1,7,"10,14,8,12,2,9,1,6,4,5,11,15,3,7,13"
14817,commdev-image-keyboard-response,257,1039169,learnblock1,616.9999999998836,img/planet6_right.png,6,Community 2,NA,TRUE,j,j,NA,NA,NA,1,7,"10,14,8,12,2,9,1,6,4,5,11,15,3,7,13"
14817,commdev-image-keyboard-response,258,1040420,learnblock1,682.0000000001164,img/planet4_right.png,4,Community 2,NA,TRUE,j,j,NA,NA,NA,1,7,"10,14,8,12,2,9,1,6,4,5,11,15,3,7,13"
14817,commdev-image-keyboard-response,259,1041672,learnblock1,718.0000000001164,img/planet9_left.png,9,Community 2,NA,FALSE,j,f,NA,NA,NA,1,7,"10,14,8,12,2,9,1,6,4,5,11,15,3,7,13"
14817,commdev-image-keyboard-response,260,1042924,learnblock1,669.9999999998836,img/planet4_left.png,4,Community 2,NA,TRUE,f,f,NA,NA,NA,1,7,"10,14,8,12,2,9,1,6,4,5,11,15,3,7,13"
14817,commdev-image-keyboard-response,261,1044176,learnblock1,869,img/planet1_right.png,1,Community 2,NA,FALSE,f,j,NA,NA,NA,1,7,"10,14,8,12,2,9,1,6,4,5,11,15,3,7,13"
14817,commdev-image-keyboard-response,262,1045427,learnblock1,754.0000000001164,img/planet9_left.png,9,Community 2,NA,TRUE,f,f,NA,NA,NA,1,7,"10,14,8,12,2,9,1,6,4,5,11,15,3,7,13"
14817,commdev-image-keyboard-response,263,1046676,learnblock1,735.0000000001164,img/planet4_left.png,4,Community 2,NA,TRUE,f,f,NA,NA,NA,1,7,"10,14,8,12,2,9,1,6,4,5,11,15,3,7,13"
14817,commdev-image-keyboard-response,264,1047926,learnblock1,634,img/planet6_right.png,6,Community 2,NA,TRUE,j,j,NA,NA,NA,1,7,"10,14,8,12,2,9,1,6,4,5,11,15,3,7,13"
14817,commdev-image-keyboard-response,265,1049177,learnblock1,784.0000000001164,img/planet5_left.png,5,Community 2,NA,TRUE,f,f,NA,NA,NA,1,7,"10,14,8,12,2,9,1,6,4,5,11,15,3,7,13"
14817,commdev-image-keyboard-response,266,1050427,learnblock1,856.9999999997672,img/planet4_right.png,4,Community 2,NA,TRUE,j,j,NA,NA,NA,1,7,"10,14,8,12,2,9,1,6,4,5,11,15,3,7,13"
14817,commdev-image-keyboard-response,267,1051677,learnblock1,626,img/planet9_left.png,9,Community 2,NA,TRUE,f,f,NA,NA,NA,1,7,"10,14,8,12,2,9,1,6,4,5,11,15,3,7,13"
14817,commdev-image-keyboard-response,268,1052927,learnblock1,884,img/planet12_left.png,12,Community 1,NA,TRUE,f,f,NA,NA,NA,1,7,"10,14,8,12,2,9,1,6,4,5,11,15,3,7,13"
14817,commdev-image-keyboard-response,269,1054178,learnblock1,654,img/planet10_left.png,10,Community 1,NA,TRUE,f,f,NA,NA,NA,1,7,"10,14,8,12,2,9,1,6,4,5,11,15,3,7,13"
14817,commdev-image-keyboard-response,270,1055428,learnblock1,746.0000000002328,img/planet8_left.png,8,Community 1,NA,TRUE,f,f,NA,NA,NA,1,7,"10,14,8,12,2,9,1,6,4,5,11,15,3,7,13"
14817,commdev-image-keyboard-response,271,1056678,learnblock1,778,img/planet12_right.png,12,Community 1,NA,TRUE,j,j,NA,NA,NA,1,7,"10,14,8,12,2,9,1,6,4,5,11,15,3,7,13"
14817,commdev-image-keyboard-response,272,1057929,learnblock1,796,img/planet8_left.png,8,Community 1,NA,TRUE,f,f,NA,NA,NA,1,7,"10,14,8,12,2,9,1,6,4,5,11,15,3,7,13"
14817,commdev-image-keyboard-response,273,1059179,learnblock1,715,img/planet12_left.png,12,Community 1,NA,TRUE,f,f,NA,NA,NA,1,7,"10,14,8,12,2,9,1,6,4,5,11,15,3,7,13"
14817,commdev-image-keyboard-response,274,1060431,learnblock1,850,img/planet8_left.png,8,Community 1,NA,TRUE,f,f,NA,NA,NA,1,7,"10,14,8,12,2,9,1,6,4,5,11,15,3,7,13"
14817,commdev-image-keyboard-response,275,1061683,learnblock1,556,img/planet2_left.png,2,Community 1,NA,TRUE,f,f,NA,NA,NA,1,7,"10,14,8,12,2,9,1,6,4,5,11,15,3,7,13"
14817,commdev-image-keyboard-response,276,1062934,learnblock1,653,img/planet11_right.png,11,Community 3,NA,TRUE,j,j,NA,NA,NA,1,7,"10,14,8,12,2,9,1,6,4,5,11,15,3,7,13"
14817,commdev-image-keyboard-response,277,1064184,learnblock1,598,img/planet7_left.png,7,Community 3,NA,TRUE,f,f,NA,NA,NA,1,7,"10,14,8,12,2,9,1,6,4,5,11,15,3,7,13"
14817,commdev-image-keyboard-response,278,1065435,learnblock1,703,img/planet13_left.png,13,Community 3,NA,TRUE,f,f,NA,NA,NA,1,7,"10,14,8,12,2,9,1,6,4,5,11,15,3,7,13"
14817,commdev-image-keyboard-response,279,1066686,learnblock1,650,img/planet11_right.png,11,Community 3,NA,TRUE,j,j,NA,NA,NA,1,7,"10,14,8,12,2,9,1,6,4,5,11,15,3,7,13"
14817,commdev-image-keyboard-response,280,1067937,learnblock1,567,img/planet13_left.png,13,Community 3,NA,TRUE,f,f,NA,NA,NA,1,7,"10,14,8,12,2,9,1,6,4,5,11,15,3,7,13"
14817,commdev-image-keyboard-response,281,1069187,learnblock1,605,img/planet15_right.png,15,Community 3,NA,TRUE,j,j,NA,NA,NA,1,7,"10,14,8,12,2,9,1,6,4,5,11,15,3,7,13"
14817,commdev-image-keyboard-response,282,1070438,learnblock1,712.0000000002328,img/planet13_right.png,13,Community 3,NA,TRUE,j,j,NA,NA,NA,1,7,"10,14,8,12,2,9,1,6,4,5,11,15,3,7,13"
14817,commdev-image-keyboard-response,283,1071689,learnblock1,855.0000000002328,img/planet15_right.png,15,Community 3,NA,TRUE,j,j,NA,NA,NA,1,7,"10,14,8,12,2,9,1,6,4,5,11,15,3,7,13"
14817,commdev-image-keyboard-response,284,1072939,learnblock1,906,img/planet6_right.png,6,Community 2,NA,TRUE,j,j,NA,NA,NA,1,7,"10,14,8,12,2,9,1,6,4,5,11,15,3,7,13"
14817,commdev-image-keyboard-response,285,1074190,learnblock1,726,img/planet4_right.png,4,Community 2,NA,TRUE,j,j,NA,NA,NA,1,7,"10,14,8,12,2,9,1,6,4,5,11,15,3,7,13"
14817,commdev-image-keyboard-response,286,1075441,learnblock1,665,img/planet9_right.png,9,Community 2,NA,TRUE,j,j,NA,NA,NA,1,7,"10,14,8,12,2,9,1,6,4,5,11,15,3,7,13"
14817,commdev-image-keyboard-response,287,1076692,learnblock1,634,img/planet4_right.png,4,Community 2,NA,TRUE,j,j,NA,NA,NA,1,7,"10,14,8,12,2,9,1,6,4,5,11,15,3,7,13"
14817,commdev-image-keyboard-response,288,1077943,learnblock1,692,img/planet5_left.png,5,Community 2,NA,TRUE,f,f,NA,NA,NA,1,7,"10,14,8,12,2,9,1,6,4,5,11,15,3,7,13"
14817,commdev-image-keyboard-response,289,1079194,learnblock1,735.0000000002328,img/planet9_right.png,9,Community 2,NA,TRUE,j,j,NA,NA,NA,1,7,"10,14,8,12,2,9,1,6,4,5,11,15,3,7,13"
14817,commdev-image-keyboard-response,290,1080445,learnblock1,623,img/planet5_right.png,5,Community 2,NA,TRUE,j,j,NA,NA,NA,1,7,"10,14,8,12,2,9,1,6,4,5,11,15,3,7,13"
14817,commdev-image-keyboard-response,291,1081695,learnblock1,846,img/planet9_right.png,9,Community 2,NA,TRUE,j,j,NA,NA,NA,1,7,"10,14,8,12,2,9,1,6,4,5,11,15,3,7,13"
14817,commdev-image-keyboard-response,292,1082946,learnblock1,606,img/planet1_left.png,1,Community 2,NA,TRUE,f,f,NA,NA,NA,1,7,"10,14,8,12,2,9,1,6,4,5,11,15,3,7,13"
14817,commdev-image-keyboard-response,293,1084197,learnblock1,572.9999999997672,img/planet4_right.png,4,Community 2,NA,TRUE,j,j,NA,NA,NA,1,7,"10,14,8,12,2,9,1,6,4,5,11,15,3,7,13"
14817,commdev-image-keyboard-response,294,1085448,learnblock1,630,img/planet9_right.png,9,Community 2,NA,TRUE,j,j,NA,NA,NA,1,7,"10,14,8,12,2,9,1,6,4,5,11,15,3,7,13"
14817,commdev-image-keyboard-response,295,1086700,learnblock1,735,img/planet4_right.png,4,Community 2,NA,TRUE,j,j,NA,NA,NA,1,7,"10,14,8,12,2,9,1,6,4,5,11,15,3,7,13"
14817,commdev-image-keyboard-response,296,1087953,learnblock1,612,img/planet5_left.png,5,Community 2,NA,TRUE,f,f,NA,NA,NA,1,7,"10,14,8,12,2,9,1,6,4,5,11,15,3,7,13"
14817,commdev-image-keyboard-response,297,1089205,learnblock1,663,img/planet1_right.png,1,Community 2,NA,TRUE,j,j,NA,NA,NA,1,7,"10,14,8,12,2,9,1,6,4,5,11,15,3,7,13"
14817,commdev-image-keyboard-response,298,1090457,learnblock1,622.9999999997672,img/planet5_right.png,5,Community 2,NA,TRUE,j,j,NA,NA,NA,1,7,"10,14,8,12,2,9,1,6,4,5,11,15,3,7,13"
14817,commdev-image-keyboard-response,299,1091708,learnblock1,721,img/planet6_right.png,6,Community 2,NA,TRUE,j,j,NA,NA,NA,1,7,"10,14,8,12,2,9,1,6,4,5,11,15,3,7,13"
14817,commdev-image-keyboard-response,300,1092959,learnblock1,849,img/planet15_right.png,15,Community 3,NA,TRUE,j,j,NA,NA,NA,1,7,"10,14,8,12,2,9,1,6,4,5,11,15,3,7,13"
14817,commdev-image-keyboard-response,301,1094210,learnblock1,915,img/planet13_left.png,13,Community 3,NA,TRUE,f,f,NA,NA,NA,1,7,"10,14,8,12,2,9,1,6,4,5,11,15,3,7,13"
14817,commdev-image-keyboard-response,302,1095461,learnblock1,786,img/planet11_right.png,11,Community 3,NA,TRUE,j,j,NA,NA,NA,1,7,"10,14,8,12,2,9,1,6,4,5,11,15,3,7,13"
14817,commdev-image-keyboard-response,303,1096712,learnblock1,764,img/planet13_left.png,13,Community 3,NA,TRUE,f,f,NA,NA,NA,1,7,"10,14,8,12,2,9,1,6,4,5,11,15,3,7,13"
14817,commdev-image-keyboard-response,304,1097963,learnblock1,942,img/planet15_left.png,15,Community 3,NA,FALSE,j,f,NA,NA,NA,1,7,"10,14,8,12,2,9,1,6,4,5,11,15,3,7,13"
14817,commdev-image-keyboard-response,305,1099214,learnblock1,747,img/planet13_left.png,13,Community 3,NA,TRUE,f,f,NA,NA,NA,1,7,"10,14,8,12,2,9,1,6,4,5,11,15,3,7,13"
14817,commdev-image-keyboard-response,306,1100465,learnblock1,805.9999999997672,img/planet11_right.png,11,Community 3,NA,TRUE,j,j,NA,NA,NA,1,7,"10,14,8,12,2,9,1,6,4,5,11,15,3,7,13"
14817,commdev-image-keyboard-response,307,1101716,learnblock1,656,img/planet3_left.png,3,Community 3,NA,TRUE,f,f,NA,NA,NA,1,7,"10,14,8,12,2,9,1,6,4,5,11,15,3,7,13"
14817,commdev-image-keyboard-response,308,1102967,learnblock1,840,img/planet7_left.png,7,Community 3,NA,TRUE,f,f,NA,NA,NA,1,7,"10,14,8,12,2,9,1,6,4,5,11,15,3,7,13"
14817,commdev-image-keyboard-response,309,1104218,learnblock1,722,img/planet11_left.png,11,Community 3,NA,TRUE,f,f,NA,NA,NA,1,7,"10,14,8,12,2,9,1,6,4,5,11,15,3,7,13"
14817,commdev-image-keyboard-response,310,1105470,learnblock1,613,img/planet7_left.png,7,Community 3,NA,TRUE,f,f,NA,NA,NA,1,7,"10,14,8,12,2,9,1,6,4,5,11,15,3,7,13"
14817,commdev-image-keyboard-response,311,1106722,learnblock1,875,img/planet15_right.png,15,Community 3,NA,TRUE,j,j,NA,NA,NA,1,7,"10,14,8,12,2,9,1,6,4,5,11,15,3,7,13"
14817,commdev-image-keyboard-response,312,1107973,learnblock1,837,img/planet6_left.png,6,Community 2,NA,TRUE,f,f,NA,NA,NA,1,7,"10,14,8,12,2,9,1,6,4,5,11,15,3,7,13"
14817,commdev-image-keyboard-response,313,1109224,learnblock1,726,img/planet1_right.png,1,Community 2,NA,TRUE,j,j,NA,NA,NA,1,7,"10,14,8,12,2,9,1,6,4,5,11,15,3,7,13"
14817,commdev-image-keyboard-response,314,1110475,learnblock1,779,img/planet9_right.png,9,Community 2,NA,TRUE,j,j,NA,NA,NA,1,7,"10,14,8,12,2,9,1,6,4,5,11,15,3,7,13"
14817,commdev-image-keyboard-response,315,1111726,learnblock1,654,img/planet1_right.png,1,Community 2,NA,TRUE,j,j,NA,NA,NA,1,7,"10,14,8,12,2,9,1,6,4,5,11,15,3,7,13"
14817,commdev-image-keyboard-response,316,1112977,learnblock1,708,img/planet9_right.png,9,Community 2,NA,TRUE,j,j,NA,NA,NA,1,7,"10,14,8,12,2,9,1,6,4,5,11,15,3,7,13"
14817,commdev-image-keyboard-response,317,1114228,learnblock1,792,img/planet12_left.png,12,Community 1,NA,TRUE,f,f,NA,NA,NA,1,7,"10,14,8,12,2,9,1,6,4,5,11,15,3,7,13"
14817,commdev-image-keyboard-response,318,1115479,learnblock1,825,img/planet14_right.png,14,Community 1,NA,TRUE,j,j,NA,NA,NA,1,7,"10,14,8,12,2,9,1,6,4,5,11,15,3,7,13"
14817,commdev-image-keyboard-response,319,1116730,learnblock1,736,img/planet12_left.png,12,Community 1,NA,TRUE,f,f,NA,NA,NA,1,7,"10,14,8,12,2,9,1,6,4,5,11,15,3,7,13"
14817,commdev-image-keyboard-response,320,1117981,learnblock1,788,img/planet14_left.png,14,Community 1,NA,TRUE,f,f,NA,NA,NA,1,7,"10,14,8,12,2,9,1,6,4,5,11,15,3,7,13"
14817,commdev-image-keyboard-response,321,1119232,learnblock1,869,img/planet8_right.png,8,Community 1,NA,TRUE,j,j,NA,NA,NA,1,7,"10,14,8,12,2,9,1,6,4,5,11,15,3,7,13"
14817,commdev-image-keyboard-response,322,1120483,learnblock1,942,img/planet10_right.png,10,Community 1,NA,TRUE,j,j,NA,NA,NA,1,7,"10,14,8,12,2,9,1,6,4,5,11,15,3,7,13"
14817,commdev-image-keyboard-response,323,1121734,learnblock1,896,img/planet12_left.png,12,Community 1,NA,TRUE,f,f,NA,NA,NA,1,7,"10,14,8,12,2,9,1,6,4,5,11,15,3,7,13"
14817,commdev-image-keyboard-response,324,1122985,learnblock1,824.9999999997672,img/planet8_right.png,8,Community 1,NA,TRUE,j,j,NA,NA,NA,1,7,"10,14,8,12,2,9,1,6,4,5,11,15,3,7,13"
14817,commdev-image-keyboard-response,325,1124236,learnblock1,939,img/planet14_right.png,14,Community 1,NA,TRUE,j,j,NA,NA,NA,1,7,"10,14,8,12,2,9,1,6,4,5,11,15,3,7,13"
14817,commdev-image-keyboard-response,326,1125487,learnblock1,646,img/planet10_left.png,10,Community 1,NA,TRUE,f,f,NA,NA,NA,1,7,"10,14,8,12,2,9,1,6,4,5,11,15,3,7,13"
14817,commdev-image-keyboard-response,327,1126738,learnblock1,665,img/planet8_right.png,8,Community 1,NA,TRUE,j,j,NA,NA,NA,1,7,"10,14,8,12,2,9,1,6,4,5,11,15,3,7,13"
14817,commdev-image-keyboard-response,328,1127989,learnblock1,670,img/planet14_left.png,14,Community 1,NA,TRUE,f,f,NA,NA,NA,1,7,"10,14,8,12,2,9,1,6,4,5,11,15,3,7,13"
14817,commdev-image-keyboard-response,329,1129240,learnblock1,744,img/planet2_left.png,2,Community 1,NA,TRUE,f,f,NA,NA,NA,1,7,"10,14,8,12,2,9,1,6,4,5,11,15,3,7,13"
14817,commdev-image-keyboard-response,330,1130491,learnblock1,959,img/planet8_left.png,8,Community 1,NA,TRUE,f,f,NA,NA,NA,1,7,"10,14,8,12,2,9,1,6,4,5,11,15,3,7,13"
14817,commdev-image-keyboard-response,331,1131742,learnblock1,643,img/planet10_right.png,10,Community 1,NA,FALSE,f,j,NA,NA,NA,1,7,"10,14,8,12,2,9,1,6,4,5,11,15,3,7,13"
14817,commdev-image-keyboard-response,332,1132994,learnblock1,1015,img/planet14_right.png,14,Community 1,NA,TRUE,j,j,NA,NA,NA,1,7,"10,14,8,12,2,9,1,6,4,5,11,15,3,7,13"
14817,commdev-image-keyboard-response,333,1134246,learnblock1,751,img/planet8_left.png,8,Community 1,NA,TRUE,f,f,NA,NA,NA,1,7,"10,14,8,12,2,9,1,6,4,5,11,15,3,7,13"
14817,commdev-image-keyboard-response,334,1135497,learnblock1,816,img/planet14_right.png,14,Community 1,NA,TRUE,j,j,NA,NA,NA,1,7,"10,14,8,12,2,9,1,6,4,5,11,15,3,7,13"
14817,commdev-image-keyboard-response,335,1136748,learnblock1,654,img/planet2_right.png,2,Community 1,NA,TRUE,j,j,NA,NA,NA,1,7,"10,14,8,12,2,9,1,6,4,5,11,15,3,7,13"
14817,commdev-image-keyboard-response,336,1137999,learnblock1,781,img/planet10_right.png,10,Community 1,NA,TRUE,j,j,NA,NA,NA,1,7,"10,14,8,12,2,9,1,6,4,5,11,15,3,7,13"
14817,commdev-image-keyboard-response,337,1139251,learnblock1,705.0000000002328,img/planet8_left.png,8,Community 1,NA,TRUE,f,f,NA,NA,NA,1,7,"10,14,8,12,2,9,1,6,4,5,11,15,3,7,13"
14817,commdev-image-keyboard-response,338,1140502,learnblock1,728,img/planet14_right.png,14,Community 1,NA,TRUE,j,j,NA,NA,NA,1,7,"10,14,8,12,2,9,1,6,4,5,11,15,3,7,13"
14817,commdev-image-keyboard-response,339,1141753,learnblock1,1035,img/planet12_right.png,12,Community 1,NA,TRUE,j,j,NA,NA,NA,1,7,"10,14,8,12,2,9,1,6,4,5,11,15,3,7,13"
14817,commdev-image-keyboard-response,340,1143005,learnblock1,735.9999999997672,img/planet9_left.png,9,Community 2,NA,TRUE,f,f,NA,NA,NA,1,7,"10,14,8,12,2,9,1,6,4,5,11,15,3,7,13"
14817,commdev-image-keyboard-response,341,1144257,learnblock1,699,img/planet1_right.png,1,Community 2,NA,TRUE,j,j,NA,NA,NA,1,7,"10,14,8,12,2,9,1,6,4,5,11,15,3,7,13"
14817,commdev-image-keyboard-response,342,1145508,learnblock1,1049,img/planet6_right.png,6,Community 2,NA,TRUE,j,j,NA,NA,NA,1,7,"10,14,8,12,2,9,1,6,4,5,11,15,3,7,13"
14817,commdev-image-keyboard-response,343,1146759,learnblock1,733,img/planet1_left.png,1,Community 2,NA,TRUE,f,f,NA,NA,NA,1,7,"10,14,8,12,2,9,1,6,4,5,11,15,3,7,13"
14817,commdev-image-keyboard-response,344,1148010,learnblock1,606,img/planet9_right.png,9,Community 2,NA,TRUE,j,j,NA,NA,NA,1,7,"10,14,8,12,2,9,1,6,4,5,11,15,3,7,13"
14817,commdev-image-keyboard-response,345,1149261,learnblock1,850,img/planet4_right.png,4,Community 2,NA,TRUE,j,j,NA,NA,NA,1,7,"10,14,8,12,2,9,1,6,4,5,11,15,3,7,13"
14817,commdev-image-keyboard-response,346,1150512,learnblock1,752,img/planet6_left.png,6,Community 2,NA,TRUE,f,f,NA,NA,NA,1,7,"10,14,8,12,2,9,1,6,4,5,11,15,3,7,13"
14817,commdev-image-keyboard-response,347,1151763,learnblock1,777,img/planet4_left.png,4,Community 2,NA,TRUE,f,f,NA,NA,NA,1,7,"10,14,8,12,2,9,1,6,4,5,11,15,3,7,13"
14817,commdev-image-keyboard-response,348,1153014,learnblock1,654,img/planet6_right.png,6,Community 2,NA,TRUE,j,j,NA,NA,NA,1,7,"10,14,8,12,2,9,1,6,4,5,11,15,3,7,13"
14817,commdev-image-keyboard-response,349,1154265,learnblock1,687,img/planet1_left.png,1,Community 2,NA,TRUE,f,f,NA,NA,NA,1,7,"10,14,8,12,2,9,1,6,4,5,11,15,3,7,13"
14817,commdev-image-keyboard-response,350,1155516,learnblock1,610,img/planet9_right.png,9,Community 2,NA,TRUE,j,j,NA,NA,NA,1,7,"10,14,8,12,2,9,1,6,4,5,11,15,3,7,13"
14817,commdev-image-keyboard-response,351,1156768,learnblock1,702,img/planet4_right.png,4,Community 2,NA,FALSE,f,j,NA,NA,NA,1,7,"10,14,8,12,2,9,1,6,4,5,11,15,3,7,13"
14817,commdev-image-keyboard-response,352,1158020,learnblock1,607,img/planet9_left.png,9,Community 2,NA,TRUE,f,f,NA,NA,NA,1,7,"10,14,8,12,2,9,1,6,4,5,11,15,3,7,13"
14817,commdev-image-keyboard-response,353,1159272,learnblock1,809,img/planet4_right.png,4,Community 2,NA,TRUE,j,j,NA,NA,NA,1,7,"10,14,8,12,2,9,1,6,4,5,11,15,3,7,13"
14817,commdev-image-keyboard-response,354,1160523,learnblock1,697.9999999997672,img/planet1_right.png,1,Community 2,NA,TRUE,j,j,NA,NA,NA,1,7,"10,14,8,12,2,9,1,6,4,5,11,15,3,7,13"
14817,commdev-image-keyboard-response,355,1161775,learnblock1,736,img/planet5_right.png,5,Community 2,NA,TRUE,j,j,NA,NA,NA,1,7,"10,14,8,12,2,9,1,6,4,5,11,15,3,7,13"
14817,commdev-image-keyboard-response,356,1163027,learnblock1,665,img/planet1_right.png,1,Community 2,NA,TRUE,j,j,NA,NA,NA,1,7,"10,14,8,12,2,9,1,6,4,5,11,15,3,7,13"
14817,commdev-image-keyboard-response,357,1164278,learnblock1,709,img/planet5_right.png,5,Community 2,NA,TRUE,j,j,NA,NA,NA,1,7,"10,14,8,12,2,9,1,6,4,5,11,15,3,7,13"
14817,commdev-image-keyboard-response,358,1165529,learnblock1,762.0000000002328,img/planet9_right.png,9,Community 2,NA,TRUE,j,j,NA,NA,NA,1,7,"10,14,8,12,2,9,1,6,4,5,11,15,3,7,13"
14817,commdev-image-keyboard-response,359,1166780,learnblock1,584,img/planet1_right.png,1,Community 2,NA,TRUE,j,j,NA,NA,NA,1,7,"10,14,8,12,2,9,1,6,4,5,11,15,3,7,13"
14817,commdev-image-keyboard-response,360,1168031,learnblock1,679,img/planet6_left.png,6,Community 2,NA,TRUE,f,f,NA,NA,NA,1,7,"10,14,8,12,2,9,1,6,4,5,11,15,3,7,13"
14817,commdev-image-keyboard-response,361,1169282,learnblock1,740.9999999997672,img/planet1_right.png,1,Community 2,NA,TRUE,j,j,NA,NA,NA,1,7,"10,14,8,12,2,9,1,6,4,5,11,15,3,7,13"
14817,commdev-image-keyboard-response,362,1170533,learnblock1,815,img/planet5_left.png,5,Community 2,NA,TRUE,f,f,NA,NA,NA,1,7,"10,14,8,12,2,9,1,6,4,5,11,15,3,7,13"
14817,commdev-image-keyboard-response,363,1171784,learnblock1,802,img/planet4_left.png,4,Community 2,NA,TRUE,f,f,NA,NA,NA,1,7,"10,14,8,12,2,9,1,6,4,5,11,15,3,7,13"
14817,commdev-image-keyboard-response,364,1173036,learnblock1,732,img/planet6_right.png,6,Community 2,NA,TRUE,j,j,NA,NA,NA,1,7,"10,14,8,12,2,9,1,6,4,5,11,15,3,7,13"
14817,commdev-image-keyboard-response,365,1174287,learnblock1,607,img/planet1_right.png,1,Community 2,NA,TRUE,j,j,NA,NA,NA,1,7,"10,14,8,12,2,9,1,6,4,5,11,15,3,7,13"
14817,commdev-image-keyboard-response,366,1175539,learnblock1,677,img/planet4_left.png,4,Community 2,NA,TRUE,f,f,NA,NA,NA,1,7,"10,14,8,12,2,9,1,6,4,5,11,15,3,7,13"
14817,commdev-image-keyboard-response,367,1176791,learnblock1,768,img/planet5_left.png,5,Community 2,NA,TRUE,f,f,NA,NA,NA,1,7,"10,14,8,12,2,9,1,6,4,5,11,15,3,7,13"
14817,commdev-image-keyboard-response,368,1178043,learnblock1,761,img/planet9_left.png,9,Community 2,NA,FALSE,j,f,NA,NA,NA,1,7,"10,14,8,12,2,9,1,6,4,5,11,15,3,7,13"
14817,commdev-image-keyboard-response,369,1179296,learnblock1,663,img/planet1_right.png,1,Community 2,NA,TRUE,j,j,NA,NA,NA,1,7,"10,14,8,12,2,9,1,6,4,5,11,15,3,7,13"
14817,commdev-image-keyboard-response,370,1180547,learnblock1,859,img/planet9_right.png,9,Community 2,NA,TRUE,j,j,NA,NA,NA,1,7,"10,14,8,12,2,9,1,6,4,5,11,15,3,7,13"
14817,commdev-image-keyboard-response,371,1181798,learnblock1,853,img/planet4_right.png,4,Community 2,NA,TRUE,j,j,NA,NA,NA,1,7,"10,14,8,12,2,9,1,6,4,5,11,15,3,7,13"
14817,commdev-image-keyboard-response,372,1183049,learnblock1,756,img/planet6_right.png,6,Community 2,NA,TRUE,j,j,NA,NA,NA,1,7,"10,14,8,12,2,9,1,6,4,5,11,15,3,7,13"
14817,commdev-image-keyboard-response,373,1184300,learnblock1,826,img/planet5_right.png,5,Community 2,NA,TRUE,j,j,NA,NA,NA,1,7,"10,14,8,12,2,9,1,6,4,5,11,15,3,7,13"
14817,commdev-image-keyboard-response,374,1185551,learnblock1,675,img/planet1_left.png,1,Community 2,NA,TRUE,f,f,NA,NA,NA,1,7,"10,14,8,12,2,9,1,6,4,5,11,15,3,7,13"
14817,commdev-image-keyboard-response,375,1186803,learnblock1,976,img/planet9_left.png,9,Community 2,NA,TRUE,f,f,NA,NA,NA,1,7,"10,14,8,12,2,9,1,6,4,5,11,15,3,7,13"
14817,commdev-image-keyboard-response,376,1188055,learnblock1,818,img/planet5_right.png,5,Community 2,NA,TRUE,j,j,NA,NA,NA,1,7,"10,14,8,12,2,9,1,6,4,5,11,15,3,7,13"
14817,commdev-image-keyboard-response,377,1189307,learnblock1,729,img/planet9_left.png,9,Community 2,NA,TRUE,f,f,NA,NA,NA,1,7,"10,14,8,12,2,9,1,6,4,5,11,15,3,7,13"
14817,commdev-image-keyboard-response,378,1190558,learnblock1,794,img/planet4_right.png,4,Community 2,NA,TRUE,j,j,NA,NA,NA,1,7,"10,14,8,12,2,9,1,6,4,5,11,15,3,7,13"
14817,commdev-image-keyboard-response,379,1191808,learnblock1,793,img/planet5_left.png,5,Community 2,NA,TRUE,f,f,NA,NA,NA,1,7,"10,14,8,12,2,9,1,6,4,5,11,15,3,7,13"
14817,commdev-image-keyboard-response,380,1193060,learnblock1,632,img/planet1_left.png,1,Community 2,NA,TRUE,f,f,NA,NA,NA,1,7,"10,14,8,12,2,9,1,6,4,5,11,15,3,7,13"
14817,commdev-image-keyboard-response,381,1194312,learnblock1,659,img/planet4_right.png,4,Community 2,NA,TRUE,j,j,NA,NA,NA,1,7,"10,14,8,12,2,9,1,6,4,5,11,15,3,7,13"
14817,commdev-image-keyboard-response,382,1195564,learnblock1,762,img/planet9_right.png,9,Community 2,NA,TRUE,j,j,NA,NA,NA,1,7,"10,14,8,12,2,9,1,6,4,5,11,15,3,7,13"
14817,commdev-image-keyboard-response,383,1196815,learnblock1,640.0000000002328,img/planet1_left.png,1,Community 2,NA,TRUE,f,f,NA,NA,NA,1,7,"10,14,8,12,2,9,1,6,4,5,11,15,3,7,13"
14817,commdev-image-keyboard-response,384,1198066,learnblock1,826,img/planet9_left.png,9,Community 2,NA,TRUE,f,f,NA,NA,NA,1,7,"10,14,8,12,2,9,1,6,4,5,11,15,3,7,13"
14817,commdev-image-keyboard-response,385,1199317,learnblock1,678,img/planet1_right.png,1,Community 2,NA,TRUE,j,j,NA,NA,NA,1,7,"10,14,8,12,2,9,1,6,4,5,11,15,3,7,13"
14817,commdev-image-keyboard-response,386,1200568,learnblock1,698,img/planet5_left.png,5,Community 2,NA,TRUE,f,f,NA,NA,NA,1,7,"10,14,8,12,2,9,1,6,4,5,11,15,3,7,13"
14817,commdev-image-keyboard-response,387,1201819,learnblock1,619,img/planet4_right.png,4,Community 2,NA,TRUE,j,j,NA,NA,NA,1,7,"10,14,8,12,2,9,1,6,4,5,11,15,3,7,13"
14817,commdev-image-keyboard-response,388,1203070,learnblock1,627.9999999997672,img/planet6_left.png,6,Community 2,NA,TRUE,f,f,NA,NA,NA,1,7,"10,14,8,12,2,9,1,6,4,5,11,15,3,7,13"
14817,commdev-image-keyboard-response,389,1204321,learnblock1,644,img/planet15_right.png,15,Community 3,NA,TRUE,j,j,NA,NA,NA,1,7,"10,14,8,12,2,9,1,6,4,5,11,15,3,7,13"
14817,commdev-image-keyboard-response,390,1205572,learnblock1,605,img/planet13_left.png,13,Community 3,NA,TRUE,f,f,NA,NA,NA,1,7,"10,14,8,12,2,9,1,6,4,5,11,15,3,7,13"
14817,commdev-image-keyboard-response,391,1206823,learnblock1,599,img/planet15_right.png,15,Community 3,NA,TRUE,j,j,NA,NA,NA,1,7,"10,14,8,12,2,9,1,6,4,5,11,15,3,7,13"
14817,commdev-image-keyboard-response,392,1208074,learnblock1,656,img/planet3_right.png,3,Community 3,NA,TRUE,j,j,NA,NA,NA,1,7,"10,14,8,12,2,9,1,6,4,5,11,15,3,7,13"
14817,commdev-image-keyboard-response,393,1209325,learnblock1,738,img/planet13_right.png,13,Community 3,NA,TRUE,j,j,NA,NA,NA,1,7,"10,14,8,12,2,9,1,6,4,5,11,15,3,7,13"
14817,commdev-image-keyboard-response,394,1210576,learnblock1,1112,img/planet7_right.png,7,Community 3,NA,FALSE,f,j,NA,NA,NA,1,7,"10,14,8,12,2,9,1,6,4,5,11,15,3,7,13"
14817,commdev-image-keyboard-response,395,1211829,learnblock1,749,img/planet11_left.png,11,Community 3,NA,TRUE,f,f,NA,NA,NA,1,7,"10,14,8,12,2,9,1,6,4,5,11,15,3,7,13"
14817,commdev-image-keyboard-response,396,1213081,learnblock1,776.9999999997672,img/planet7_right.png,7,Community 3,NA,TRUE,j,j,NA,NA,NA,1,7,"10,14,8,12,2,9,1,6,4,5,11,15,3,7,13"
14817,commdev-image-keyboard-response,397,1214332,learnblock1,815.0000000002328,img/planet15_right.png,15,Community 3,NA,TRUE,j,j,NA,NA,NA,1,7,"10,14,8,12,2,9,1,6,4,5,11,15,3,7,13"
14817,commdev-image-keyboard-response,398,1215584,learnblock1,812,img/planet3_left.png,3,Community 3,NA,TRUE,f,f,NA,NA,NA,1,7,"10,14,8,12,2,9,1,6,4,5,11,15,3,7,13"
14817,commdev-image-keyboard-response,399,1216836,learnblock1,681,img/planet13_left.png,13,Community 3,NA,TRUE,f,f,NA,NA,NA,1,7,"10,14,8,12,2,9,1,6,4,5,11,15,3,7,13"
14817,commdev-image-keyboard-response,400,1218088,learnblock1,716,img/planet7_right.png,7,Community 3,NA,TRUE,j,j,NA,NA,NA,1,7,"10,14,8,12,2,9,1,6,4,5,11,15,3,7,13"
14817,commdev-image-keyboard-response,401,1219339,learnblock1,819.0000000002328,img/planet15_right.png,15,Community 3,NA,TRUE,j,j,NA,NA,NA,1,7,"10,14,8,12,2,9,1,6,4,5,11,15,3,7,13"
14817,commdev-image-keyboard-response,402,1220590,learnblock1,950.9999999997672,img/planet6_right.png,6,Community 2,NA,TRUE,j,j,NA,NA,NA,1,7,"10,14,8,12,2,9,1,6,4,5,11,15,3,7,13"
14817,commdev-image-keyboard-response,403,1221841,learnblock1,769.0000000002328,img/planet15_left.png,15,Community 3,NA,TRUE,f,f,NA,NA,NA,1,7,"10,14,8,12,2,9,1,6,4,5,11,15,3,7,13"
14817,commdev-image-keyboard-response,404,1223092,learnblock1,745,img/planet6_right.png,6,Community 2,NA,TRUE,j,j,NA,NA,NA,1,7,"10,14,8,12,2,9,1,6,4,5,11,15,3,7,13"
14817,commdev-image-keyboard-response,405,1224343,learnblock1,736,img/planet5_right.png,5,Community 2,NA,TRUE,j,j,NA,NA,NA,1,7,"10,14,8,12,2,9,1,6,4,5,11,15,3,7,13"
14817,commdev-image-keyboard-response,406,1225593,learnblock1,681,img/planet4_left.png,4,Community 2,NA,TRUE,f,f,NA,NA,NA,1,7,"10,14,8,12,2,9,1,6,4,5,11,15,3,7,13"
14817,commdev-image-keyboard-response,407,1226844,learnblock1,777,img/planet6_right.png,6,Community 2,NA,TRUE,j,j,NA,NA,NA,1,7,"10,14,8,12,2,9,1,6,4,5,11,15,3,7,13"
14817,commdev-image-keyboard-response,408,1228096,learnblock1,743,img/planet15_left.png,15,Community 3,NA,TRUE,f,f,NA,NA,NA,1,7,"10,14,8,12,2,9,1,6,4,5,11,15,3,7,13"
14817,commdev-image-keyboard-response,409,1229348,learnblock1,644,img/planet6_right.png,6,Community 2,NA,TRUE,j,j,NA,NA,NA,1,7,"10,14,8,12,2,9,1,6,4,5,11,15,3,7,13"
14817,commdev-image-keyboard-response,410,1230600,learnblock1,563.9999999997672,img/planet1_right.png,1,Community 2,NA,TRUE,j,j,NA,NA,NA,1,7,"10,14,8,12,2,9,1,6,4,5,11,15,3,7,13"
14817,commdev-image-keyboard-response,411,1231851,learnblock1,686,img/planet9_right.png,9,Community 2,NA,TRUE,j,j,NA,NA,NA,1,7,"10,14,8,12,2,9,1,6,4,5,11,15,3,7,13"
14817,commdev-image-keyboard-response,412,1233102,learnblock1,634,img/planet5_right.png,5,Community 2,NA,TRUE,j,j,NA,NA,NA,1,7,"10,14,8,12,2,9,1,6,4,5,11,15,3,7,13"
14817,commdev-image-keyboard-response,413,1234353,learnblock1,555,img/planet1_left.png,1,Community 2,NA,FALSE,j,f,NA,NA,NA,1,7,"10,14,8,12,2,9,1,6,4,5,11,15,3,7,13"
14817,commdev-image-keyboard-response,414,1235606,learnblock1,756,img/planet4_left.png,4,Community 2,NA,TRUE,f,f,NA,NA,NA,1,7,"10,14,8,12,2,9,1,6,4,5,11,15,3,7,13"
14817,commdev-image-keyboard-response,415,1236858,learnblock1,950,img/planet5_left.png,5,Community 2,NA,TRUE,f,f,NA,NA,NA,1,7,"10,14,8,12,2,9,1,6,4,5,11,15,3,7,13"
14817,commdev-image-keyboard-response,416,1238109,learnblock1,969.9999999997672,img/planet9_left.png,9,Community 2,NA,TRUE,f,f,NA,NA,NA,1,7,"10,14,8,12,2,9,1,6,4,5,11,15,3,7,13"
14817,commdev-image-keyboard-response,417,1239360,learnblock1,831,img/planet12_right.png,12,Community 1,NA,TRUE,j,j,NA,NA,NA,1,7,"10,14,8,12,2,9,1,6,4,5,11,15,3,7,13"
14817,commdev-image-keyboard-response,418,1240611,learnblock1,932,img/planet8_right.png,8,Community 1,NA,TRUE,j,j,NA,NA,NA,1,7,"10,14,8,12,2,9,1,6,4,5,11,15,3,7,13"
14817,commdev-image-keyboard-response,419,1241862,learnblock1,822,img/planet2_left.png,2,Community 1,NA,TRUE,f,f,NA,NA,NA,1,7,"10,14,8,12,2,9,1,6,4,5,11,15,3,7,13"
14817,commdev-image-keyboard-response,420,1243113,learnblock1,742,img/planet11_left.png,11,Community 3,NA,TRUE,f,f,NA,NA,NA,1,7,"10,14,8,12,2,9,1,6,4,5,11,15,3,7,13"
14817,commdev-image-keyboard-response,421,1244364,learnblock1,749,img/planet3_right.png,3,Community 3,NA,TRUE,j,j,NA,NA,NA,1,7,"10,14,8,12,2,9,1,6,4,5,11,15,3,7,13"
14817,commdev-image-keyboard-response,422,1245615,learnblock1,950,img/planet7_right.png,7,Community 3,NA,TRUE,j,j,NA,NA,NA,1,7,"10,14,8,12,2,9,1,6,4,5,11,15,3,7,13"
14817,commdev-image-keyboard-response,423,1246867,learnblock1,930,img/planet15_right.png,15,Community 3,NA,TRUE,j,j,NA,NA,NA,1,7,"10,14,8,12,2,9,1,6,4,5,11,15,3,7,13"
14817,commdev-image-keyboard-response,424,1248120,learnblock1,707.9999999997672,img/planet7_right.png,7,Community 3,NA,TRUE,j,j,NA,NA,NA,1,7,"10,14,8,12,2,9,1,6,4,5,11,15,3,7,13"
14817,commdev-image-keyboard-response,425,1249371,learnblock1,710,img/planet11_left.png,11,Community 3,NA,TRUE,f,f,NA,NA,NA,1,7,"10,14,8,12,2,9,1,6,4,5,11,15,3,7,13"
14817,commdev-image-keyboard-response,426,1250622,learnblock1,854,img/planet3_left.png,3,Community 3,NA,TRUE,f,f,NA,NA,NA,1,7,"10,14,8,12,2,9,1,6,4,5,11,15,3,7,13"
14817,commdev-image-keyboard-response,427,1251873,learnblock1,738,img/planet13_right.png,13,Community 3,NA,TRUE,j,j,NA,NA,NA,1,7,"10,14,8,12,2,9,1,6,4,5,11,15,3,7,13"
14817,commdev-image-keyboard-response,428,1253124,learnblock1,918.0000000002328,img/planet3_right.png,3,Community 3,NA,TRUE,j,j,NA,NA,NA,1,7,"10,14,8,12,2,9,1,6,4,5,11,15,3,7,13"
14817,commdev-image-keyboard-response,429,1254375,learnblock1,698,img/planet11_right.png,11,Community 3,NA,TRUE,j,j,NA,NA,NA,1,7,"10,14,8,12,2,9,1,6,4,5,11,15,3,7,13"
14817,commdev-image-keyboard-response,430,1255627,learnblock1,870,img/planet3_right.png,3,Community 3,NA,FALSE,f,j,NA,NA,NA,1,7,"10,14,8,12,2,9,1,6,4,5,11,15,3,7,13"
14817,commdev-image-keyboard-response,431,1256878,learnblock1,null,img/planet7_right.png,7,Community 3,NA,FALSE,null,j,NA,NA,NA,1,7,"10,14,8,12,2,9,1,6,4,5,11,15,3,7,13"
14817,commdev-image-keyboard-response,432,1258130,learnblock1,2.9999999997671694,img/planet11_left.png,11,Community 3,NA,FALSE,j,f,NA,NA,NA,1,7,"10,14,8,12,2,9,1,6,4,5,11,15,3,7,13"
14817,commdev-image-keyboard-response,433,1259381,learnblock1,667,img/planet2_right.png,2,Community 1,NA,TRUE,j,j,NA,NA,NA,1,7,"10,14,8,12,2,9,1,6,4,5,11,15,3,7,13"
14817,commdev-image-keyboard-response,434,1260632,learnblock1,901,img/planet14_right.png,14,Community 1,NA,TRUE,j,j,NA,NA,NA,1,7,"10,14,8,12,2,9,1,6,4,5,11,15,3,7,13"
14817,commdev-image-keyboard-response,435,1261883,learnblock1,644,img/planet10_right.png,10,Community 1,NA,TRUE,j,j,NA,NA,NA,1,7,"10,14,8,12,2,9,1,6,4,5,11,15,3,7,13"
14817,commdev-image-keyboard-response,436,1263134,learnblock1,568,img/planet2_right.png,2,Community 1,NA,TRUE,j,j,NA,NA,NA,1,7,"10,14,8,12,2,9,1,6,4,5,11,15,3,7,13"
14817,commdev-image-keyboard-response,437,1264385,learnblock1,511,img/planet10_left.png,10,Community 1,NA,FALSE,j,f,NA,NA,NA,1,7,"10,14,8,12,2,9,1,6,4,5,11,15,3,7,13"
14817,commdev-image-keyboard-response,438,1265636,learnblock1,796,img/planet8_right.png,8,Community 1,NA,TRUE,j,j,NA,NA,NA,1,7,"10,14,8,12,2,9,1,6,4,5,11,15,3,7,13"
14817,commdev-image-keyboard-response,439,1266887,learnblock1,647.9999999997672,img/planet14_left.png,14,Community 1,NA,TRUE,f,f,NA,NA,NA,1,7,"10,14,8,12,2,9,1,6,4,5,11,15,3,7,13"
14817,commdev-image-keyboard-response,440,1268138,learnblock1,782,img/planet12_left.png,12,Community 1,NA,TRUE,f,f,NA,NA,NA,1,7,"10,14,8,12,2,9,1,6,4,5,11,15,3,7,13"
14817,commdev-image-keyboard-response,441,1269389,learnblock1,922,img/planet9_right.png,9,Community 2,NA,TRUE,j,j,NA,NA,NA,1,7,"10,14,8,12,2,9,1,6,4,5,11,15,3,7,13"
14817,commdev-image-keyboard-response,442,1270640,learnblock1,684,img/planet1_left.png,1,Community 2,NA,TRUE,f,f,NA,NA,NA,1,7,"10,14,8,12,2,9,1,6,4,5,11,15,3,7,13"
14817,commdev-image-keyboard-response,443,1271891,learnblock1,917,img/planet4_right.png,4,Community 2,NA,TRUE,j,j,NA,NA,NA,1,7,"10,14,8,12,2,9,1,6,4,5,11,15,3,7,13"
14817,commdev-image-keyboard-response,444,1273142,learnblock1,1053.0000000002328,img/planet9_left.png,9,Community 2,NA,TRUE,f,f,NA,NA,NA,1,7,"10,14,8,12,2,9,1,6,4,5,11,15,3,7,13"
14817,commdev-image-keyboard-response,445,1274393,learnblock1,742,img/planet1_left.png,1,Community 2,NA,TRUE,f,f,NA,NA,NA,1,7,"10,14,8,12,2,9,1,6,4,5,11,15,3,7,13"
14817,commdev-image-keyboard-response,446,1275644,learnblock1,732,img/planet5_right.png,5,Community 2,NA,TRUE,j,j,NA,NA,NA,1,7,"10,14,8,12,2,9,1,6,4,5,11,15,3,7,13"
14817,commdev-image-keyboard-response,447,1276895,learnblock1,642,img/planet9_right.png,9,Community 2,NA,TRUE,j,j,NA,NA,NA,1,7,"10,14,8,12,2,9,1,6,4,5,11,15,3,7,13"
14817,commdev-image-keyboard-response,448,1278146,learnblock1,768,img/planet1_right.png,1,Community 2,NA,TRUE,j,j,NA,NA,NA,1,7,"10,14,8,12,2,9,1,6,4,5,11,15,3,7,13"
14817,commdev-image-keyboard-response,449,1279397,learnblock1,646.9999999997672,img/planet6_left.png,6,Community 2,NA,TRUE,f,f,NA,NA,NA,1,7,"10,14,8,12,2,9,1,6,4,5,11,15,3,7,13"
14817,commdev-image-keyboard-response,450,1280649,learnblock1,989.0000000002328,img/planet5_left.png,5,Community 2,NA,TRUE,f,f,NA,NA,NA,1,7,"10,14,8,12,2,9,1,6,4,5,11,15,3,7,13"
14817,commdev-image-keyboard-response,451,1281902,learnblock1,696,img/planet6_left.png,6,Community 2,NA,TRUE,f,f,NA,NA,NA,1,7,"10,14,8,12,2,9,1,6,4,5,11,15,3,7,13"
14817,commdev-image-keyboard-response,452,1283153,learnblock1,636,img/planet1_right.png,1,Community 2,NA,TRUE,j,j,NA,NA,NA,1,7,"10,14,8,12,2,9,1,6,4,5,11,15,3,7,13"
14817,commdev-image-keyboard-response,453,1284404,learnblock1,589.0000000002328,img/planet4_left.png,4,Community 2,NA,TRUE,f,f,NA,NA,NA,1,7,"10,14,8,12,2,9,1,6,4,5,11,15,3,7,13"
14817,commdev-image-keyboard-response,454,1285655,learnblock1,600,img/planet1_left.png,1,Community 2,NA,TRUE,f,f,NA,NA,NA,1,7,"10,14,8,12,2,9,1,6,4,5,11,15,3,7,13"
14817,commdev-image-keyboard-response,455,1286906,learnblock1,960,img/planet9_left.png,9,Community 2,NA,TRUE,f,f,NA,NA,NA,1,7,"10,14,8,12,2,9,1,6,4,5,11,15,3,7,13"
14817,commdev-image-keyboard-response,456,1288157,learnblock1,862.9999999997672,img/planet12_right.png,12,Community 1,NA,TRUE,j,j,NA,NA,NA,1,7,"10,14,8,12,2,9,1,6,4,5,11,15,3,7,13"
14817,commdev-image-keyboard-response,457,1289408,learnblock1,751,img/planet14_left.png,14,Community 1,NA,TRUE,f,f,NA,NA,NA,1,7,"10,14,8,12,2,9,1,6,4,5,11,15,3,7,13"
14817,commdev-image-keyboard-response,461,1350929,learnblock2,1021,img/planet6_left.png,6,Community 2,NA,TRUE,f,f,NA,NA,NA,1,7,"10,14,8,12,2,9,1,6,4,5,11,15,3,7,13"
14817,commdev-image-keyboard-response,462,1352180,learnblock2,763,img/planet4_left.png,4,Community 2,NA,TRUE,f,f,NA,NA,NA,1,7,"10,14,8,12,2,9,1,6,4,5,11,15,3,7,13"
14817,commdev-image-keyboard-response,463,1353431,learnblock2,941,img/planet5_left.png,5,Community 2,NA,TRUE,f,f,NA,NA,NA,1,7,"10,14,8,12,2,9,1,6,4,5,11,15,3,7,13"
14817,commdev-image-keyboard-response,464,1354681,learnblock2,614,img/planet1_left.png,1,Community 2,NA,TRUE,f,f,NA,NA,NA,1,7,"10,14,8,12,2,9,1,6,4,5,11,15,3,7,13"
14817,commdev-image-keyboard-response,465,1355932,learnblock2,755,img/planet5_left.png,5,Community 2,NA,TRUE,f,f,NA,NA,NA,1,7,"10,14,8,12,2,9,1,6,4,5,11,15,3,7,13"
14817,commdev-image-keyboard-response,466,1357184,learnblock2,583,img/planet4_left.png,4,Community 2,NA,TRUE,f,f,NA,NA,NA,1,7,"10,14,8,12,2,9,1,6,4,5,11,15,3,7,13"
14817,commdev-image-keyboard-response,467,1358434,learnblock2,549.0000000002328,img/planet1_left.png,1,Community 2,NA,TRUE,f,f,NA,NA,NA,1,7,"10,14,8,12,2,9,1,6,4,5,11,15,3,7,13"
14817,commdev-image-keyboard-response,468,1359685,learnblock2,525,img/planet4_left.png,4,Community 2,NA,TRUE,f,f,NA,NA,NA,1,7,"10,14,8,12,2,9,1,6,4,5,11,15,3,7,13"
14817,commdev-image-keyboard-response,469,1360936,learnblock2,852,img/planet9_left.png,9,Community 2,NA,TRUE,f,f,NA,NA,NA,1,7,"10,14,8,12,2,9,1,6,4,5,11,15,3,7,13"
14817,commdev-image-keyboard-response,470,1362187,learnblock2,760,img/planet5_right.png,5,Community 2,NA,TRUE,j,j,NA,NA,NA,1,7,"10,14,8,12,2,9,1,6,4,5,11,15,3,7,13"
14817,commdev-image-keyboard-response,471,1363438,learnblock2,637,img/planet1_right.png,1,Community 2,NA,TRUE,j,j,NA,NA,NA,1,7,"10,14,8,12,2,9,1,6,4,5,11,15,3,7,13"
14817,commdev-image-keyboard-response,472,1364689,learnblock2,751,img/planet9_right.png,9,Community 2,NA,TRUE,j,j,NA,NA,NA,1,7,"10,14,8,12,2,9,1,6,4,5,11,15,3,7,13"
14817,commdev-image-keyboard-response,473,1365940,learnblock2,604,img/planet1_right.png,1,Community 2,NA,TRUE,j,j,NA,NA,NA,1,7,"10,14,8,12,2,9,1,6,4,5,11,15,3,7,13"
14817,commdev-image-keyboard-response,474,1367191,learnblock2,574,img/planet4_left.png,4,Community 2,NA,TRUE,f,f,NA,NA,NA,1,7,"10,14,8,12,2,9,1,6,4,5,11,15,3,7,13"
14817,commdev-image-keyboard-response,475,1368442,learnblock2,755,img/planet9_right.png,9,Community 2,NA,TRUE,j,j,NA,NA,NA,1,7,"10,14,8,12,2,9,1,6,4,5,11,15,3,7,13"
14817,commdev-image-keyboard-response,476,1369693,learnblock2,649,img/planet5_left.png,5,Community 2,NA,TRUE,f,f,NA,NA,NA,1,7,"10,14,8,12,2,9,1,6,4,5,11,15,3,7,13"
14817,commdev-image-keyboard-response,477,1370944,learnblock2,889,img/planet9_left.png,9,Community 2,NA,TRUE,f,f,NA,NA,NA,1,7,"10,14,8,12,2,9,1,6,4,5,11,15,3,7,13"
14817,commdev-image-keyboard-response,478,1372195,learnblock2,815.9999999997672,img/planet12_left.png,12,Community 1,NA,TRUE,f,f,NA,NA,NA,1,7,"10,14,8,12,2,9,1,6,4,5,11,15,3,7,13"
14817,commdev-image-keyboard-response,479,1373446,learnblock2,729,img/planet8_left.png,8,Community 1,NA,TRUE,f,f,NA,NA,NA,1,7,"10,14,8,12,2,9,1,6,4,5,11,15,3,7,13"
14817,commdev-image-keyboard-response,480,1374697,learnblock2,675,img/planet14_right.png,14,Community 1,NA,TRUE,j,j,NA,NA,NA,1,7,"10,14,8,12,2,9,1,6,4,5,11,15,3,7,13"
14817,commdev-image-keyboard-response,481,1375948,learnblock2,726,img/planet10_right.png,10,Community 1,NA,TRUE,j,j,NA,NA,NA,1,7,"10,14,8,12,2,9,1,6,4,5,11,15,3,7,13"
14817,commdev-image-keyboard-response,482,1377199,learnblock2,705,img/planet14_left.png,14,Community 1,NA,TRUE,f,f,NA,NA,NA,1,7,"10,14,8,12,2,9,1,6,4,5,11,15,3,7,13"
14817,commdev-image-keyboard-response,483,1378450,learnblock2,652,img/planet10_left.png,10,Community 1,NA,TRUE,f,f,NA,NA,NA,1,7,"10,14,8,12,2,9,1,6,4,5,11,15,3,7,13"
14817,commdev-image-keyboard-response,484,1379701,learnblock2,838,img/planet14_right.png,14,Community 1,NA,TRUE,j,j,NA,NA,NA,1,7,"10,14,8,12,2,9,1,6,4,5,11,15,3,7,13"
14817,commdev-image-keyboard-response,485,1380952,learnblock2,680,img/planet10_right.png,10,Community 1,NA,TRUE,j,j,NA,NA,NA,1,7,"10,14,8,12,2,9,1,6,4,5,11,15,3,7,13"
14817,commdev-image-keyboard-response,486,1382203,learnblock2,993,img/planet8_right.png,8,Community 1,NA,TRUE,j,j,NA,NA,NA,1,7,"10,14,8,12,2,9,1,6,4,5,11,15,3,7,13"
14817,commdev-image-keyboard-response,487,1383454,learnblock2,734,img/planet14_right.png,14,Community 1,NA,TRUE,j,j,NA,NA,NA,1,7,"10,14,8,12,2,9,1,6,4,5,11,15,3,7,13"
14817,commdev-image-keyboard-response,488,1384705,learnblock2,917.9999999997672,img/planet8_right.png,8,Community 1,NA,TRUE,j,j,NA,NA,NA,1,7,"10,14,8,12,2,9,1,6,4,5,11,15,3,7,13"
14817,commdev-image-keyboard-response,489,1385956,learnblock2,1026,img/planet12_right.png,12,Community 1,NA,TRUE,j,j,NA,NA,NA,1,7,"10,14,8,12,2,9,1,6,4,5,11,15,3,7,13"
14817,commdev-image-keyboard-response,490,1387207,learnblock2,887,img/planet8_right.png,8,Community 1,NA,TRUE,j,j,NA,NA,NA,1,7,"10,14,8,12,2,9,1,6,4,5,11,15,3,7,13"
14817,commdev-image-keyboard-response,491,1388458,learnblock2,839,img/planet10_right.png,10,Community 1,NA,FALSE,f,j,NA,NA,NA,1,7,"10,14,8,12,2,9,1,6,4,5,11,15,3,7,13"
14817,commdev-image-keyboard-response,492,1389709,learnblock2,762,img/planet2_left.png,2,Community 1,NA,TRUE,f,f,NA,NA,NA,1,7,"10,14,8,12,2,9,1,6,4,5,11,15,3,7,13"
14817,commdev-image-keyboard-response,493,1390960,learnblock2,940,img/planet11_right.png,11,Community 3,NA,TRUE,j,j,NA,NA,NA,1,7,"10,14,8,12,2,9,1,6,4,5,11,15,3,7,13"
14817,commdev-image-keyboard-response,494,1392211,learnblock2,760,img/planet13_left.png,13,Community 3,NA,TRUE,f,f,NA,NA,NA,1,7,"10,14,8,12,2,9,1,6,4,5,11,15,3,7,13"
14817,commdev-image-keyboard-response,495,1393462,learnblock2,760,img/planet15_left.png,15,Community 3,NA,TRUE,f,f,NA,NA,NA,1,7,"10,14,8,12,2,9,1,6,4,5,11,15,3,7,13"
14817,commdev-image-keyboard-response,496,1394713,learnblock2,811,img/planet3_left.png,3,Community 3,NA,TRUE,f,f,NA,NA,NA,1,7,"10,14,8,12,2,9,1,6,4,5,11,15,3,7,13"
14817,commdev-image-keyboard-response,497,1395964,learnblock2,700.9999999997672,img/planet15_left.png,15,Community 3,NA,TRUE,f,f,NA,NA,NA,1,7,"10,14,8,12,2,9,1,6,4,5,11,15,3,7,13"
14817,commdev-image-keyboard-response,498,1397215,learnblock2,687,img/planet3_left.png,3,Community 3,NA,TRUE,f,f,NA,NA,NA,1,7,"10,14,8,12,2,9,1,6,4,5,11,15,3,7,13"
14817,commdev-image-keyboard-response,499,1398466,learnblock2,837,img/planet11_right.png,11,Community 3,NA,TRUE,j,j,NA,NA,NA,1,7,"10,14,8,12,2,9,1,6,4,5,11,15,3,7,13"
14817,commdev-image-keyboard-response,500,1399717,learnblock2,624,img/planet13_left.png,13,Community 3,NA,TRUE,f,f,NA,NA,NA,1,7,"10,14,8,12,2,9,1,6,4,5,11,15,3,7,13"
14817,commdev-image-keyboard-response,501,1400967,learnblock2,1049,img/planet15_left.png,15,Community 3,NA,TRUE,f,f,NA,NA,NA,1,7,"10,14,8,12,2,9,1,6,4,5,11,15,3,7,13"
14817,commdev-image-keyboard-response,502,1402218,learnblock2,957.0000000002328,img/planet7_right.png,7,Community 3,NA,TRUE,j,j,NA,NA,NA,1,7,"10,14,8,12,2,9,1,6,4,5,11,15,3,7,13"
14817,commdev-image-keyboard-response,503,1403469,learnblock2,717,img/planet13_right.png,13,Community 3,NA,TRUE,j,j,NA,NA,NA,1,7,"10,14,8,12,2,9,1,6,4,5,11,15,3,7,13"
14817,commdev-image-keyboard-response,504,1404720,learnblock2,618.0000000002328,img/planet3_left.png,3,Community 3,NA,TRUE,f,f,NA,NA,NA,1,7,"10,14,8,12,2,9,1,6,4,5,11,15,3,7,13"
14817,commdev-image-keyboard-response,505,1405971,learnblock2,732,img/planet11_right.png,11,Community 3,NA,TRUE,j,j,NA,NA,NA,1,7,"10,14,8,12,2,9,1,6,4,5,11,15,3,7,13"
14817,commdev-image-keyboard-response,506,1407222,learnblock2,730,img/planet13_right.png,13,Community 3,NA,TRUE,j,j,NA,NA,NA,1,7,"10,14,8,12,2,9,1,6,4,5,11,15,3,7,13"
14817,commdev-image-keyboard-response,507,1408473,learnblock2,638,img/planet3_left.png,3,Community 3,NA,TRUE,f,f,NA,NA,NA,1,7,"10,14,8,12,2,9,1,6,4,5,11,15,3,7,13"
14817,commdev-image-keyboard-response,508,1409724,learnblock2,648.9999999997672,img/planet11_right.png,11,Community 3,NA,TRUE,j,j,NA,NA,NA,1,7,"10,14,8,12,2,9,1,6,4,5,11,15,3,7,13"
14817,commdev-image-keyboard-response,509,1410975,learnblock2,611,img/planet7_left.png,7,Community 3,NA,TRUE,f,f,NA,NA,NA,1,7,"10,14,8,12,2,9,1,6,4,5,11,15,3,7,13"
14817,commdev-image-keyboard-response,510,1412226,learnblock2,673,img/planet11_left.png,11,Community 3,NA,TRUE,f,f,NA,NA,NA,1,7,"10,14,8,12,2,9,1,6,4,5,11,15,3,7,13"
14817,commdev-image-keyboard-response,511,1413477,learnblock2,642,img/planet7_left.png,7,Community 3,NA,TRUE,f,f,NA,NA,NA,1,7,"10,14,8,12,2,9,1,6,4,5,11,15,3,7,13"
14817,commdev-image-keyboard-response,512,1414728,learnblock2,641,img/planet11_left.png,11,Community 3,NA,TRUE,f,f,NA,NA,NA,1,7,"10,14,8,12,2,9,1,6,4,5,11,15,3,7,13"
14817,commdev-image-keyboard-response,513,1415979,learnblock2,799,img/planet2_left.png,2,Community 1,NA,FALSE,j,f,NA,NA,NA,1,7,"10,14,8,12,2,9,1,6,4,5,11,15,3,7,13"
14817,commdev-image-keyboard-response,514,1417230,learnblock2,748,img/planet14_right.png,14,Community 1,NA,TRUE,j,j,NA,NA,NA,1,7,"10,14,8,12,2,9,1,6,4,5,11,15,3,7,13"
14817,commdev-image-keyboard-response,515,1418481,learnblock2,642,img/planet10_left.png,10,Community 1,NA,TRUE,f,f,NA,NA,NA,1,7,"10,14,8,12,2,9,1,6,4,5,11,15,3,7,13"
14817,commdev-image-keyboard-response,516,1419732,learnblock2,838.0000000002328,img/planet8_left.png,8,Community 1,NA,TRUE,f,f,NA,NA,NA,1,7,"10,14,8,12,2,9,1,6,4,5,11,15,3,7,13"
14817,commdev-image-keyboard-response,517,1420983,learnblock2,675.9999999997672,img/planet14_right.png,14,Community 1,NA,TRUE,j,j,NA,NA,NA,1,7,"10,14,8,12,2,9,1,6,4,5,11,15,3,7,13"
14817,commdev-image-keyboard-response,518,1422234,learnblock2,1064.9999999997672,img/planet12_right.png,12,Community 1,NA,TRUE,j,j,NA,NA,NA,1,7,"10,14,8,12,2,9,1,6,4,5,11,15,3,7,13"
14817,commdev-image-keyboard-response,519,1423486,learnblock2,796.0000000002328,img/planet9_right.png,9,Community 2,NA,TRUE,j,j,NA,NA,NA,1,7,"10,14,8,12,2,9,1,6,4,5,11,15,3,7,13"
14817,commdev-image-keyboard-response,520,1424738,learnblock2,766,img/planet5_left.png,5,Community 2,NA,TRUE,f,f,NA,NA,NA,1,7,"10,14,8,12,2,9,1,6,4,5,11,15,3,7,13"
14817,commdev-image-keyboard-response,521,1425990,learnblock2,654,img/planet4_left.png,4,Community 2,NA,TRUE,f,f,NA,NA,NA,1,7,"10,14,8,12,2,9,1,6,4,5,11,15,3,7,13"
14817,commdev-image-keyboard-response,522,1427241,learnblock2,619,img/planet6_right.png,6,Community 2,NA,TRUE,j,j,NA,NA,NA,1,7,"10,14,8,12,2,9,1,6,4,5,11,15,3,7,13"
14817,commdev-image-keyboard-response,523,1428492,learnblock2,627,img/planet15_left.png,15,Community 3,NA,TRUE,f,f,NA,NA,NA,1,7,"10,14,8,12,2,9,1,6,4,5,11,15,3,7,13"
14817,commdev-image-keyboard-response,524,1429743,learnblock2,856,img/planet3_left.png,3,Community 3,NA,TRUE,f,f,NA,NA,NA,1,7,"10,14,8,12,2,9,1,6,4,5,11,15,3,7,13"
14817,commdev-image-keyboard-response,525,1430994,learnblock2,695,img/planet7_left.png,7,Community 3,NA,TRUE,f,f,NA,NA,NA,1,7,"10,14,8,12,2,9,1,6,4,5,11,15,3,7,13"
14817,commdev-image-keyboard-response,526,1432245,learnblock2,779,img/planet3_left.png,3,Community 3,NA,TRUE,f,f,NA,NA,NA,1,7,"10,14,8,12,2,9,1,6,4,5,11,15,3,7,13"
14817,commdev-image-keyboard-response,527,1433496,learnblock2,671,img/planet15_left.png,15,Community 3,NA,TRUE,f,f,NA,NA,NA,1,7,"10,14,8,12,2,9,1,6,4,5,11,15,3,7,13"
14817,commdev-image-keyboard-response,528,1434747,learnblock2,675,img/planet3_left.png,3,Community 3,NA,TRUE,f,f,NA,NA,NA,1,7,"10,14,8,12,2,9,1,6,4,5,11,15,3,7,13"
14817,commdev-image-keyboard-response,529,1435998,learnblock2,684,img/planet13_right.png,13,Community 3,NA,TRUE,j,j,NA,NA,NA,1,7,"10,14,8,12,2,9,1,6,4,5,11,15,3,7,13"
14817,commdev-image-keyboard-response,530,1437249,learnblock2,854,img/planet7_right.png,7,Community 3,NA,TRUE,j,j,NA,NA,NA,1,7,"10,14,8,12,2,9,1,6,4,5,11,15,3,7,13"
14817,commdev-image-keyboard-response,531,1438500,learnblock2,706,img/planet3_left.png,3,Community 3,NA,TRUE,f,f,NA,NA,NA,1,7,"10,14,8,12,2,9,1,6,4,5,11,15,3,7,13"
14817,commdev-image-keyboard-response,532,1439751,learnblock2,616,img/planet11_left.png,11,Community 3,NA,TRUE,f,f,NA,NA,NA,1,7,"10,14,8,12,2,9,1,6,4,5,11,15,3,7,13"
14817,commdev-image-keyboard-response,533,1441002,learnblock2,659,img/planet7_left.png,7,Community 3,NA,TRUE,f,f,NA,NA,NA,1,7,"10,14,8,12,2,9,1,6,4,5,11,15,3,7,13"
14817,commdev-image-keyboard-response,534,1442253,learnblock2,796.9999999997672,img/planet15_right.png,15,Community 3,NA,TRUE,j,j,NA,NA,NA,1,7,"10,14,8,12,2,9,1,6,4,5,11,15,3,7,13"
14817,commdev-image-keyboard-response,535,1443504,learnblock2,689,img/planet3_right.png,3,Community 3,NA,TRUE,j,j,NA,NA,NA,1,7,"10,14,8,12,2,9,1,6,4,5,11,15,3,7,13"
14817,commdev-image-keyboard-response,536,1444754,learnblock2,732,img/planet7_right.png,7,Community 3,NA,TRUE,j,j,NA,NA,NA,1,7,"10,14,8,12,2,9,1,6,4,5,11,15,3,7,13"
14817,commdev-image-keyboard-response,537,1446005,learnblock2,686,img/planet13_left.png,13,Community 3,NA,TRUE,f,f,NA,NA,NA,1,7,"10,14,8,12,2,9,1,6,4,5,11,15,3,7,13"
14817,commdev-image-keyboard-response,538,1447256,learnblock2,727.0000000002328,img/planet3_left.png,3,Community 3,NA,TRUE,f,f,NA,NA,NA,1,7,"10,14,8,12,2,9,1,6,4,5,11,15,3,7,13"
14817,commdev-image-keyboard-response,539,1448507,learnblock2,728,img/planet7_right.png,7,Community 3,NA,TRUE,j,j,NA,NA,NA,1,7,"10,14,8,12,2,9,1,6,4,5,11,15,3,7,13"
14817,commdev-image-keyboard-response,540,1449758,learnblock2,657.0000000002328,img/planet3_left.png,3,Community 3,NA,TRUE,f,f,NA,NA,NA,1,7,"10,14,8,12,2,9,1,6,4,5,11,15,3,7,13"
14817,commdev-image-keyboard-response,541,1451009,learnblock2,662,img/planet13_right.png,13,Community 3,NA,TRUE,j,j,NA,NA,NA,1,7,"10,14,8,12,2,9,1,6,4,5,11,15,3,7,13"
14817,commdev-image-keyboard-response,542,1452260,learnblock2,788,img/planet15_right.png,15,Community 3,NA,TRUE,j,j,NA,NA,NA,1,7,"10,14,8,12,2,9,1,6,4,5,11,15,3,7,13"
14817,commdev-image-keyboard-response,543,1453511,learnblock2,950,img/planet3_right.png,3,Community 3,NA,TRUE,j,j,NA,NA,NA,1,7,"10,14,8,12,2,9,1,6,4,5,11,15,3,7,13"
14817,commdev-image-keyboard-response,544,1454762,learnblock2,704.9999999997672,img/planet7_left.png,7,Community 3,NA,TRUE,f,f,NA,NA,NA,1,7,"10,14,8,12,2,9,1,6,4,5,11,15,3,7,13"
14817,commdev-image-keyboard-response,545,1456013,learnblock2,670,img/planet13_left.png,13,Community 3,NA,TRUE,f,f,NA,NA,NA,1,7,"10,14,8,12,2,9,1,6,4,5,11,15,3,7,13"
14817,commdev-image-keyboard-response,546,1457264,learnblock2,676,img/planet3_left.png,3,Community 3,NA,FALSE,j,f,NA,NA,NA,1,7,"10,14,8,12,2,9,1,6,4,5,11,15,3,7,13"
14817,commdev-image-keyboard-response,547,1458515,learnblock2,944,img/planet11_left.png,11,Community 3,NA,TRUE,f,f,NA,NA,NA,1,7,"10,14,8,12,2,9,1,6,4,5,11,15,3,7,13"
14817,commdev-image-keyboard-response,548,1459766,learnblock2,609,img/planet13_left.png,13,Community 3,NA,TRUE,f,f,NA,NA,NA,1,7,"10,14,8,12,2,9,1,6,4,5,11,15,3,7,13"
14817,commdev-image-keyboard-response,549,1461017,learnblock2,658,img/planet11_right.png,11,Community 3,NA,TRUE,j,j,NA,NA,NA,1,7,"10,14,8,12,2,9,1,6,4,5,11,15,3,7,13"
14817,commdev-image-keyboard-response,550,1462268,learnblock2,1057,img/planet7_right.png,7,Community 3,NA,TRUE,j,j,NA,NA,NA,1,7,"10,14,8,12,2,9,1,6,4,5,11,15,3,7,13"
14817,commdev-image-keyboard-response,551,1463519,learnblock2,765,img/planet3_left.png,3,Community 3,NA,TRUE,f,f,NA,NA,NA,1,7,"10,14,8,12,2,9,1,6,4,5,11,15,3,7,13"
14817,commdev-image-keyboard-response,552,1464770,learnblock2,707,img/planet7_left.png,7,Community 3,NA,TRUE,f,f,NA,NA,NA,1,7,"10,14,8,12,2,9,1,6,4,5,11,15,3,7,13"
14817,commdev-image-keyboard-response,553,1466021,learnblock2,779,img/planet13_left.png,13,Community 3,NA,TRUE,f,f,NA,NA,NA,1,7,"10,14,8,12,2,9,1,6,4,5,11,15,3,7,13"
14817,commdev-image-keyboard-response,554,1467272,learnblock2,728.9999999997672,img/planet11_right.png,11,Community 3,NA,TRUE,j,j,NA,NA,NA,1,7,"10,14,8,12,2,9,1,6,4,5,11,15,3,7,13"
14817,commdev-image-keyboard-response,555,1468523,learnblock2,782,img/planet7_left.png,7,Community 3,NA,TRUE,f,f,NA,NA,NA,1,7,"10,14,8,12,2,9,1,6,4,5,11,15,3,7,13"
14817,commdev-image-keyboard-response,556,1469774,learnblock2,770,img/planet15_right.png,15,Community 3,NA,TRUE,j,j,NA,NA,NA,1,7,"10,14,8,12,2,9,1,6,4,5,11,15,3,7,13"
14817,commdev-image-keyboard-response,557,1471025,learnblock2,700,img/planet7_right.png,7,Community 3,NA,TRUE,j,j,NA,NA,NA,1,7,"10,14,8,12,2,9,1,6,4,5,11,15,3,7,13"
14817,commdev-image-keyboard-response,558,1472276,learnblock2,706,img/planet13_right.png,13,Community 3,NA,TRUE,j,j,NA,NA,NA,1,7,"10,14,8,12,2,9,1,6,4,5,11,15,3,7,13"
14817,commdev-image-keyboard-response,559,1473527,learnblock2,671,img/planet7_right.png,7,Community 3,NA,TRUE,j,j,NA,NA,NA,1,7,"10,14,8,12,2,9,1,6,4,5,11,15,3,7,13"
14817,commdev-image-keyboard-response,560,1474778,learnblock2,781,img/planet3_right.png,3,Community 3,NA,TRUE,j,j,NA,NA,NA,1,7,"10,14,8,12,2,9,1,6,4,5,11,15,3,7,13"
14817,commdev-image-keyboard-response,561,1476029,learnblock2,666.0000000002328,img/planet13_right.png,13,Community 3,NA,TRUE,j,j,NA,NA,NA,1,7,"10,14,8,12,2,9,1,6,4,5,11,15,3,7,13"
14817,commdev-image-keyboard-response,562,1477280,learnblock2,631,img/planet15_left.png,15,Community 3,NA,TRUE,f,f,NA,NA,NA,1,7,"10,14,8,12,2,9,1,6,4,5,11,15,3,7,13"
14817,commdev-image-keyboard-response,563,1478531,learnblock2,734.9999999997672,img/planet3_left.png,3,Community 3,NA,TRUE,f,f,NA,NA,NA,1,7,"10,14,8,12,2,9,1,6,4,5,11,15,3,7,13"
14817,commdev-image-keyboard-response,564,1479782,learnblock2,615.9999999997672,img/planet13_left.png,13,Community 3,NA,TRUE,f,f,NA,NA,NA,1,7,"10,14,8,12,2,9,1,6,4,5,11,15,3,7,13"
14817,commdev-image-keyboard-response,565,1481033,learnblock2,725,img/planet3_left.png,3,Community 3,NA,TRUE,f,f,NA,NA,NA,1,7,"10,14,8,12,2,9,1,6,4,5,11,15,3,7,13"
14817,commdev-image-keyboard-response,566,1482286,learnblock2,668,img/planet7_left.png,7,Community 3,NA,TRUE,f,f,NA,NA,NA,1,7,"10,14,8,12,2,9,1,6,4,5,11,15,3,7,13"
14817,commdev-image-keyboard-response,567,1483537,learnblock2,775,img/planet11_right.png,11,Community 3,NA,TRUE,j,j,NA,NA,NA,1,7,"10,14,8,12,2,9,1,6,4,5,11,15,3,7,13"
14817,commdev-image-keyboard-response,568,1484789,learnblock2,876,img/planet7_right.png,7,Community 3,NA,TRUE,j,j,NA,NA,NA,1,7,"10,14,8,12,2,9,1,6,4,5,11,15,3,7,13"
14817,commdev-image-keyboard-response,569,1486041,learnblock2,1134,img/planet15_right.png,15,Community 3,NA,TRUE,j,j,NA,NA,NA,1,7,"10,14,8,12,2,9,1,6,4,5,11,15,3,7,13"
14817,commdev-image-keyboard-response,570,1487293,learnblock2,792,img/planet13_right.png,13,Community 3,NA,TRUE,j,j,NA,NA,NA,1,7,"10,14,8,12,2,9,1,6,4,5,11,15,3,7,13"
14817,commdev-image-keyboard-response,571,1488544,learnblock2,643,img/planet11_left.png,11,Community 3,NA,TRUE,f,f,NA,NA,NA,1,7,"10,14,8,12,2,9,1,6,4,5,11,15,3,7,13"
14817,commdev-image-keyboard-response,572,1489795,learnblock2,705,img/planet2_right.png,2,Community 1,NA,TRUE,j,j,NA,NA,NA,1,7,"10,14,8,12,2,9,1,6,4,5,11,15,3,7,13"
14817,commdev-image-keyboard-response,573,1491046,learnblock2,677.0000000002328,img/planet11_left.png,11,Community 3,NA,TRUE,f,f,NA,NA,NA,1,7,"10,14,8,12,2,9,1,6,4,5,11,15,3,7,13"
14817,commdev-image-keyboard-response,574,1492299,learnblock2,826,img/planet7_right.png,7,Community 3,NA,TRUE,j,j,NA,NA,NA,1,7,"10,14,8,12,2,9,1,6,4,5,11,15,3,7,13"
14817,commdev-image-keyboard-response,575,1493551,learnblock2,676,img/planet3_left.png,3,Community 3,NA,TRUE,f,f,NA,NA,NA,1,7,"10,14,8,12,2,9,1,6,4,5,11,15,3,7,13"
14817,commdev-image-keyboard-response,576,1494802,learnblock2,675,img/planet15_left.png,15,Community 3,NA,TRUE,f,f,NA,NA,NA,1,7,"10,14,8,12,2,9,1,6,4,5,11,15,3,7,13"
14817,commdev-image-keyboard-response,577,1496053,learnblock2,839,img/planet3_left.png,3,Community 3,NA,TRUE,f,f,NA,NA,NA,1,7,"10,14,8,12,2,9,1,6,4,5,11,15,3,7,13"
14817,commdev-image-keyboard-response,578,1497304,learnblock2,849,img/planet7_right.png,7,Community 3,NA,TRUE,j,j,NA,NA,NA,1,7,"10,14,8,12,2,9,1,6,4,5,11,15,3,7,13"
14817,commdev-image-keyboard-response,579,1498555,learnblock2,765.0000000002328,img/planet11_right.png,11,Community 3,NA,FALSE,f,j,NA,NA,NA,1,7,"10,14,8,12,2,9,1,6,4,5,11,15,3,7,13"
14817,commdev-image-keyboard-response,580,1499806,learnblock2,675,img/planet7_left.png,7,Community 3,NA,TRUE,f,f,NA,NA,NA,1,7,"10,14,8,12,2,9,1,6,4,5,11,15,3,7,13"
14817,commdev-image-keyboard-response,581,1501057,learnblock2,759,img/planet3_right.png,3,Community 3,NA,TRUE,j,j,NA,NA,NA,1,7,"10,14,8,12,2,9,1,6,4,5,11,15,3,7,13"
14817,commdev-image-keyboard-response,582,1502308,learnblock2,651,img/planet11_left.png,11,Community 3,NA,TRUE,f,f,NA,NA,NA,1,7,"10,14,8,12,2,9,1,6,4,5,11,15,3,7,13"
14817,commdev-image-keyboard-response,583,1503559,learnblock2,697,img/planet3_left.png,3,Community 3,NA,TRUE,f,f,NA,NA,NA,1,7,"10,14,8,12,2,9,1,6,4,5,11,15,3,7,13"
14817,commdev-image-keyboard-response,584,1504810,learnblock2,665.9999999997672,img/planet13_left.png,13,Community 3,NA,TRUE,f,f,NA,NA,NA,1,7,"10,14,8,12,2,9,1,6,4,5,11,15,3,7,13"
14817,commdev-image-keyboard-response,585,1506061,learnblock2,649,img/planet11_left.png,11,Community 3,NA,TRUE,f,f,NA,NA,NA,1,7,"10,14,8,12,2,9,1,6,4,5,11,15,3,7,13"
14817,commdev-image-keyboard-response,586,1507312,learnblock2,631,img/planet3_right.png,3,Community 3,NA,TRUE,j,j,NA,NA,NA,1,7,"10,14,8,12,2,9,1,6,4,5,11,15,3,7,13"
14817,commdev-image-keyboard-response,587,1508563,learnblock2,594.0000000002328,img/planet15_left.png,15,Community 3,NA,TRUE,f,f,NA,NA,NA,1,7,"10,14,8,12,2,9,1,6,4,5,11,15,3,7,13"
14817,commdev-image-keyboard-response,588,1509814,learnblock2,628,img/planet13_left.png,13,Community 3,NA,TRUE,f,f,NA,NA,NA,1,7,"10,14,8,12,2,9,1,6,4,5,11,15,3,7,13"
14817,commdev-image-keyboard-response,589,1511066,learnblock2,639.0000000002328,img/planet11_right.png,11,Community 3,NA,TRUE,j,j,NA,NA,NA,1,7,"10,14,8,12,2,9,1,6,4,5,11,15,3,7,13"
14817,commdev-image-keyboard-response,590,1512319,learnblock2,819.0000000002328,img/planet3_right.png,3,Community 3,NA,TRUE,j,j,NA,NA,NA,1,7,"10,14,8,12,2,9,1,6,4,5,11,15,3,7,13"
14817,commdev-image-keyboard-response,591,1513570,learnblock2,638.9999999997672,img/planet15_left.png,15,Community 3,NA,TRUE,f,f,NA,NA,NA,1,7,"10,14,8,12,2,9,1,6,4,5,11,15,3,7,13"
14817,commdev-image-keyboard-response,592,1514821,learnblock2,660,img/planet7_left.png,7,Community 3,NA,TRUE,f,f,NA,NA,NA,1,7,"10,14,8,12,2,9,1,6,4,5,11,15,3,7,13"
14817,commdev-image-keyboard-response,593,1516071,learnblock2,805,img/planet13_left.png,13,Community 3,NA,TRUE,f,f,NA,NA,NA,1,7,"10,14,8,12,2,9,1,6,4,5,11,15,3,7,13"
14817,commdev-image-keyboard-response,594,1517322,learnblock2,628,img/planet11_left.png,11,Community 3,NA,TRUE,f,f,NA,NA,NA,1,7,"10,14,8,12,2,9,1,6,4,5,11,15,3,7,13"
14817,commdev-image-keyboard-response,595,1518573,learnblock2,762,img/planet7_right.png,7,Community 3,NA,TRUE,j,j,NA,NA,NA,1,7,"10,14,8,12,2,9,1,6,4,5,11,15,3,7,13"
14817,commdev-image-keyboard-response,596,1519825,learnblock2,757,img/planet3_right.png,3,Community 3,NA,TRUE,j,j,NA,NA,NA,1,7,"10,14,8,12,2,9,1,6,4,5,11,15,3,7,13"
14817,commdev-image-keyboard-response,597,1521076,learnblock2,783.0000000002328,img/planet13_right.png,13,Community 3,NA,TRUE,j,j,NA,NA,NA,1,7,"10,14,8,12,2,9,1,6,4,5,11,15,3,7,13"
14817,commdev-image-keyboard-response,598,1522326,learnblock2,734,img/planet15_right.png,15,Community 3,NA,TRUE,j,j,NA,NA,NA,1,7,"10,14,8,12,2,9,1,6,4,5,11,15,3,7,13"
14817,commdev-image-keyboard-response,599,1523577,learnblock2,746,img/planet7_right.png,7,Community 3,NA,TRUE,j,j,NA,NA,NA,1,7,"10,14,8,12,2,9,1,6,4,5,11,15,3,7,13"
14817,commdev-image-keyboard-response,600,1524828,learnblock2,678,img/planet11_left.png,11,Community 3,NA,TRUE,f,f,NA,NA,NA,1,7,"10,14,8,12,2,9,1,6,4,5,11,15,3,7,13"
14817,commdev-image-keyboard-response,601,1526079,learnblock2,617.9999999997672,img/planet13_left.png,13,Community 3,NA,TRUE,f,f,NA,NA,NA,1,7,"10,14,8,12,2,9,1,6,4,5,11,15,3,7,13"
14817,commdev-image-keyboard-response,602,1527330,learnblock2,613,img/planet15_right.png,15,Community 3,NA,TRUE,j,j,NA,NA,NA,1,7,"10,14,8,12,2,9,1,6,4,5,11,15,3,7,13"
14817,commdev-image-keyboard-response,603,1528581,learnblock2,634,img/planet13_right.png,13,Community 3,NA,TRUE,j,j,NA,NA,NA,1,7,"10,14,8,12,2,9,1,6,4,5,11,15,3,7,13"
14817,commdev-image-keyboard-response,604,1529832,learnblock2,636,img/planet7_left.png,7,Community 3,NA,TRUE,f,f,NA,NA,NA,1,7,"10,14,8,12,2,9,1,6,4,5,11,15,3,7,13"
14817,commdev-image-keyboard-response,605,1531085,learnblock2,698.0000000002328,img/planet13_right.png,13,Community 3,NA,TRUE,j,j,NA,NA,NA,1,7,"10,14,8,12,2,9,1,6,4,5,11,15,3,7,13"
14817,commdev-image-keyboard-response,606,1532336,learnblock2,792.0000000002328,img/planet7_left.png,7,Community 3,NA,TRUE,f,f,NA,NA,NA,1,7,"10,14,8,12,2,9,1,6,4,5,11,15,3,7,13"
14817,commdev-image-keyboard-response,607,1533588,learnblock2,636.0000000002328,img/planet3_right.png,3,Community 3,NA,FALSE,f,j,NA,NA,NA,1,7,"10,14,8,12,2,9,1,6,4,5,11,15,3,7,13"
14817,commdev-image-keyboard-response,608,1534839,learnblock2,889.9999999997672,img/planet7_right.png,7,Community 3,NA,TRUE,j,j,NA,NA,NA,1,7,"10,14,8,12,2,9,1,6,4,5,11,15,3,7,13"
14817,commdev-image-keyboard-response,609,1536090,learnblock2,836.0000000002328,img/planet3_right.png,3,Community 3,NA,TRUE,j,j,NA,NA,NA,1,7,"10,14,8,12,2,9,1,6,4,5,11,15,3,7,13"
14817,commdev-image-keyboard-response,610,1537341,learnblock2,897,img/planet7_left.png,7,Community 3,NA,TRUE,f,f,NA,NA,NA,1,7,"10,14,8,12,2,9,1,6,4,5,11,15,3,7,13"
14817,commdev-image-keyboard-response,611,1538592,learnblock2,889,img/planet3_left.png,3,Community 3,NA,TRUE,f,f,NA,NA,NA,1,7,"10,14,8,12,2,9,1,6,4,5,11,15,3,7,13"
14817,commdev-image-keyboard-response,612,1539843,learnblock2,836,img/planet15_left.png,15,Community 3,NA,TRUE,f,f,NA,NA,NA,1,7,"10,14,8,12,2,9,1,6,4,5,11,15,3,7,13"
14817,commdev-image-keyboard-response,613,1541094,learnblock2,836,img/planet6_left.png,6,Community 2,NA,TRUE,f,f,NA,NA,NA,1,7,"10,14,8,12,2,9,1,6,4,5,11,15,3,7,13"
14817,commdev-image-keyboard-response,614,1542345,learnblock2,709,img/planet15_left.png,15,Community 3,NA,TRUE,f,f,NA,NA,NA,1,7,"10,14,8,12,2,9,1,6,4,5,11,15,3,7,13"
14817,commdev-image-keyboard-response,615,1543597,learnblock2,666,img/planet6_right.png,6,Community 2,NA,TRUE,j,j,NA,NA,NA,1,7,"10,14,8,12,2,9,1,6,4,5,11,15,3,7,13"
14817,commdev-image-keyboard-response,616,1544850,learnblock2,856.9999999997672,img/planet15_right.png,15,Community 3,NA,TRUE,j,j,NA,NA,NA,1,7,"10,14,8,12,2,9,1,6,4,5,11,15,3,7,13"
14817,commdev-image-keyboard-response,617,1546101,learnblock2,1179,img/planet7_right.png,7,Community 3,NA,TRUE,j,j,NA,NA,NA,1,7,"10,14,8,12,2,9,1,6,4,5,11,15,3,7,13"
14817,commdev-image-keyboard-response,618,1547352,learnblock2,692,img/planet11_right.png,11,Community 3,NA,TRUE,j,j,NA,NA,NA,1,7,"10,14,8,12,2,9,1,6,4,5,11,15,3,7,13"
14817,commdev-image-keyboard-response,619,1548603,learnblock2,1096,img/planet2_left.png,2,Community 1,NA,TRUE,f,f,NA,NA,NA,1,7,"10,14,8,12,2,9,1,6,4,5,11,15,3,7,13"
14817,commdev-image-keyboard-response,620,1549854,learnblock2,771,img/planet10_left.png,10,Community 1,NA,TRUE,f,f,NA,NA,NA,1,7,"10,14,8,12,2,9,1,6,4,5,11,15,3,7,13"
14817,commdev-image-keyboard-response,621,1551105,learnblock2,633,img/planet2_left.png,2,Community 1,NA,TRUE,f,f,NA,NA,NA,1,7,"10,14,8,12,2,9,1,6,4,5,11,15,3,7,13"
14817,commdev-image-keyboard-response,622,1552357,learnblock2,589.0000000002328,img/planet10_right.png,10,Community 1,NA,FALSE,f,j,NA,NA,NA,1,7,"10,14,8,12,2,9,1,6,4,5,11,15,3,7,13"
14817,commdev-image-keyboard-response,623,1553609,learnblock2,1153,img/planet12_right.png,12,Community 1,NA,TRUE,j,j,NA,NA,NA,1,7,"10,14,8,12,2,9,1,6,4,5,11,15,3,7,13"
14817,commdev-image-keyboard-response,624,1554860,learnblock2,645,img/planet9_right.png,9,Community 2,NA,TRUE,j,j,NA,NA,NA,1,7,"10,14,8,12,2,9,1,6,4,5,11,15,3,7,13"
14817,commdev-image-keyboard-response,625,1556111,learnblock2,564.0000000002328,img/planet1_right.png,1,Community 2,NA,FALSE,f,j,NA,NA,NA,1,7,"10,14,8,12,2,9,1,6,4,5,11,15,3,7,13"
14817,commdev-image-keyboard-response,626,1557362,learnblock2,831,img/planet5_right.png,5,Community 2,NA,TRUE,j,j,NA,NA,NA,1,7,"10,14,8,12,2,9,1,6,4,5,11,15,3,7,13"
14817,commdev-image-keyboard-response,627,1558613,learnblock2,670,img/planet6_left.png,6,Community 2,NA,TRUE,f,f,NA,NA,NA,1,7,"10,14,8,12,2,9,1,6,4,5,11,15,3,7,13"
14817,commdev-image-keyboard-response,628,1559864,learnblock2,969,img/planet5_left.png,5,Community 2,NA,TRUE,f,f,NA,NA,NA,1,7,"10,14,8,12,2,9,1,6,4,5,11,15,3,7,13"
14817,commdev-image-keyboard-response,629,1561115,learnblock2,713.0000000002328,img/planet6_left.png,6,Community 2,NA,TRUE,f,f,NA,NA,NA,1,7,"10,14,8,12,2,9,1,6,4,5,11,15,3,7,13"
14817,commdev-image-keyboard-response,630,1562366,learnblock2,658,img/planet1_right.png,1,Community 2,NA,FALSE,f,j,NA,NA,NA,1,7,"10,14,8,12,2,9,1,6,4,5,11,15,3,7,13"
14817,commdev-image-keyboard-response,631,1563617,learnblock2,700.9999999997672,img/planet5_right.png,5,Community 2,NA,TRUE,j,j,NA,NA,NA,1,7,"10,14,8,12,2,9,1,6,4,5,11,15,3,7,13"
14817,commdev-image-keyboard-response,632,1564868,learnblock2,594,img/planet1_right.png,1,Community 2,NA,TRUE,j,j,NA,NA,NA,1,7,"10,14,8,12,2,9,1,6,4,5,11,15,3,7,13"
14817,commdev-image-keyboard-response,633,1566119,learnblock2,903,img/planet6_right.png,6,Community 2,NA,TRUE,j,j,NA,NA,NA,1,7,"10,14,8,12,2,9,1,6,4,5,11,15,3,7,13"
14817,commdev-image-keyboard-response,634,1567370,learnblock2,700,img/planet1_right.png,1,Community 2,NA,TRUE,j,j,NA,NA,NA,1,7,"10,14,8,12,2,9,1,6,4,5,11,15,3,7,13"
14817,commdev-image-keyboard-response,635,1568621,learnblock2,789,img/planet9_left.png,9,Community 2,NA,TRUE,f,f,NA,NA,NA,1,7,"10,14,8,12,2,9,1,6,4,5,11,15,3,7,13"
14817,commdev-image-keyboard-response,636,1569872,learnblock2,825,img/planet12_left.png,12,Community 1,NA,TRUE,f,f,NA,NA,NA,1,7,"10,14,8,12,2,9,1,6,4,5,11,15,3,7,13"
14817,commdev-image-keyboard-response,637,1571123,learnblock2,615,img/planet14_left.png,14,Community 1,NA,TRUE,f,f,NA,NA,NA,1,7,"10,14,8,12,2,9,1,6,4,5,11,15,3,7,13"
14817,commdev-image-keyboard-response,638,1572374,learnblock2,657.0000000002328,img/planet8_right.png,8,Community 1,NA,TRUE,j,j,NA,NA,NA,1,7,"10,14,8,12,2,9,1,6,4,5,11,15,3,7,13"
14817,commdev-image-keyboard-response,639,1573625,learnblock2,654,img/planet10_right.png,10,Community 1,NA,TRUE,j,j,NA,NA,NA,1,7,"10,14,8,12,2,9,1,6,4,5,11,15,3,7,13"
14817,commdev-image-keyboard-response,640,1574877,learnblock2,606.0000000002328,img/planet2_right.png,2,Community 1,NA,TRUE,j,j,NA,NA,NA,1,7,"10,14,8,12,2,9,1,6,4,5,11,15,3,7,13"
14817,commdev-image-keyboard-response,641,1576130,learnblock2,710.0000000002328,img/planet8_left.png,8,Community 1,NA,TRUE,f,f,NA,NA,NA,1,7,"10,14,8,12,2,9,1,6,4,5,11,15,3,7,13"
14817,commdev-image-keyboard-response,642,1577381,learnblock2,609,img/planet10_right.png,10,Community 1,NA,FALSE,f,j,NA,NA,NA,1,7,"10,14,8,12,2,9,1,6,4,5,11,15,3,7,13"
14817,commdev-image-keyboard-response,643,1578632,learnblock2,744,img/planet2_right.png,2,Community 1,NA,TRUE,j,j,NA,NA,NA,1,7,"10,14,8,12,2,9,1,6,4,5,11,15,3,7,13"
14817,commdev-image-keyboard-response,644,1579883,learnblock2,685,img/planet8_left.png,8,Community 1,NA,TRUE,f,f,NA,NA,NA,1,7,"10,14,8,12,2,9,1,6,4,5,11,15,3,7,13"
14817,commdev-image-keyboard-response,645,1581134,learnblock2,619.0000000002328,img/planet10_left.png,10,Community 1,NA,TRUE,f,f,NA,NA,NA,1,7,"10,14,8,12,2,9,1,6,4,5,11,15,3,7,13"
14817,commdev-image-keyboard-response,646,1582385,learnblock2,611,img/planet2_left.png,2,Community 1,NA,TRUE,f,f,NA,NA,NA,1,7,"10,14,8,12,2,9,1,6,4,5,11,15,3,7,13"
14817,commdev-image-keyboard-response,647,1583637,learnblock2,668.9999999997672,img/planet11_left.png,11,Community 3,NA,TRUE,f,f,NA,NA,NA,1,7,"10,14,8,12,2,9,1,6,4,5,11,15,3,7,13"
14817,commdev-image-keyboard-response,648,1584889,learnblock2,553,img/planet7_left.png,7,Community 3,NA,TRUE,f,f,NA,NA,NA,1,7,"10,14,8,12,2,9,1,6,4,5,11,15,3,7,13"
14817,commdev-image-keyboard-response,649,1586140,learnblock2,722,img/planet13_right.png,13,Community 3,NA,TRUE,j,j,NA,NA,NA,1,7,"10,14,8,12,2,9,1,6,4,5,11,15,3,7,13"
14817,commdev-image-keyboard-response,650,1587391,learnblock2,788,img/planet7_left.png,7,Community 3,NA,TRUE,f,f,NA,NA,NA,1,7,"10,14,8,12,2,9,1,6,4,5,11,15,3,7,13"
14817,commdev-image-keyboard-response,651,1588642,learnblock2,661,img/planet11_right.png,11,Community 3,NA,TRUE,j,j,NA,NA,NA,1,7,"10,14,8,12,2,9,1,6,4,5,11,15,3,7,13"
14817,commdev-image-keyboard-response,652,1589893,learnblock2,662,img/planet3_left.png,3,Community 3,NA,TRUE,f,f,NA,NA,NA,1,7,"10,14,8,12,2,9,1,6,4,5,11,15,3,7,13"
14817,commdev-image-keyboard-response,653,1591144,learnblock2,758,img/planet13_right.png,13,Community 3,NA,TRUE,j,j,NA,NA,NA,1,7,"10,14,8,12,2,9,1,6,4,5,11,15,3,7,13"
14817,commdev-image-keyboard-response,654,1592396,learnblock2,712.0000000002328,img/planet3_right.png,3,Community 3,NA,TRUE,j,j,NA,NA,NA,1,7,"10,14,8,12,2,9,1,6,4,5,11,15,3,7,13"
14817,commdev-image-keyboard-response,655,1593648,learnblock2,693.9999999997672,img/planet15_left.png,15,Community 3,NA,TRUE,f,f,NA,NA,NA,1,7,"10,14,8,12,2,9,1,6,4,5,11,15,3,7,13"
14817,commdev-image-keyboard-response,656,1594900,learnblock2,717,img/planet6_left.png,6,Community 2,NA,TRUE,f,f,NA,NA,NA,1,7,"10,14,8,12,2,9,1,6,4,5,11,15,3,7,13"
14817,commdev-image-keyboard-response,657,1596151,learnblock2,723,img/planet1_right.png,1,Community 2,NA,TRUE,j,j,NA,NA,NA,1,7,"10,14,8,12,2,9,1,6,4,5,11,15,3,7,13"
14817,commdev-image-keyboard-response,658,1597402,learnblock2,766,img/planet4_right.png,4,Community 2,NA,TRUE,j,j,NA,NA,NA,1,7,"10,14,8,12,2,9,1,6,4,5,11,15,3,7,13"
14817,commdev-image-keyboard-response,659,1598653,learnblock2,701,img/planet1_left.png,1,Community 2,NA,TRUE,f,f,NA,NA,NA,1,7,"10,14,8,12,2,9,1,6,4,5,11,15,3,7,13"
14817,commdev-image-keyboard-response,660,1599904,learnblock2,698,img/planet5_right.png,5,Community 2,NA,TRUE,j,j,NA,NA,NA,1,7,"10,14,8,12,2,9,1,6,4,5,11,15,3,7,13"
14817,commdev-image-keyboard-response,661,1601155,learnblock2,770.9999999997672,img/planet4_right.png,4,Community 2,NA,TRUE,j,j,NA,NA,NA,1,7,"10,14,8,12,2,9,1,6,4,5,11,15,3,7,13"
14817,commdev-image-keyboard-response,662,1602406,learnblock2,613.9999999997672,img/planet1_right.png,1,Community 2,NA,TRUE,j,j,NA,NA,NA,1,7,"10,14,8,12,2,9,1,6,4,5,11,15,3,7,13"
14817,commdev-image-keyboard-response,663,1603657,learnblock2,980,img/planet6_right.png,6,Community 2,NA,TRUE,j,j,NA,NA,NA,1,7,"10,14,8,12,2,9,1,6,4,5,11,15,3,7,13"
14817,commdev-image-keyboard-response,664,1604908,learnblock2,696,img/planet1_left.png,1,Community 2,NA,TRUE,f,f,NA,NA,NA,1,7,"10,14,8,12,2,9,1,6,4,5,11,15,3,7,13"
14817,commdev-image-keyboard-response,665,1606159,learnblock2,781,img/planet4_left.png,4,Community 2,NA,TRUE,f,f,NA,NA,NA,1,7,"10,14,8,12,2,9,1,6,4,5,11,15,3,7,13"
14817,commdev-image-keyboard-response,666,1607411,learnblock2,662,img/planet1_right.png,1,Community 2,NA,TRUE,j,j,NA,NA,NA,1,7,"10,14,8,12,2,9,1,6,4,5,11,15,3,7,13"
14817,commdev-image-keyboard-response,667,1608664,learnblock2,642,img/planet5_right.png,5,Community 2,NA,TRUE,j,j,NA,NA,NA,1,7,"10,14,8,12,2,9,1,6,4,5,11,15,3,7,13"
14817,commdev-image-keyboard-response,668,1609915,learnblock2,680,img/planet4_left.png,4,Community 2,NA,TRUE,f,f,NA,NA,NA,1,7,"10,14,8,12,2,9,1,6,4,5,11,15,3,7,13"
14817,commdev-image-keyboard-response,669,1611166,learnblock2,796,img/planet9_left.png,9,Community 2,NA,TRUE,f,f,NA,NA,NA,1,7,"10,14,8,12,2,9,1,6,4,5,11,15,3,7,13"
14817,commdev-image-keyboard-response,670,1612417,learnblock2,644,img/planet4_right.png,4,Community 2,NA,TRUE,j,j,NA,NA,NA,1,7,"10,14,8,12,2,9,1,6,4,5,11,15,3,7,13"
14817,commdev-image-keyboard-response,671,1613668,learnblock2,937,img/planet6_right.png,6,Community 2,NA,TRUE,j,j,NA,NA,NA,1,7,"10,14,8,12,2,9,1,6,4,5,11,15,3,7,13"
14817,commdev-image-keyboard-response,672,1614919,learnblock2,748,img/planet5_left.png,5,Community 2,NA,TRUE,f,f,NA,NA,NA,1,7,"10,14,8,12,2,9,1,6,4,5,11,15,3,7,13"
14817,commdev-image-keyboard-response,673,1616170,learnblock2,630.0000000002328,img/planet1_right.png,1,Community 2,NA,TRUE,j,j,NA,NA,NA,1,7,"10,14,8,12,2,9,1,6,4,5,11,15,3,7,13"
14817,commdev-image-keyboard-response,674,1617422,learnblock2,734.0000000002328,img/planet5_left.png,5,Community 2,NA,TRUE,f,f,NA,NA,NA,1,7,"10,14,8,12,2,9,1,6,4,5,11,15,3,7,13"
14817,commdev-image-keyboard-response,675,1618674,learnblock2,736,img/planet1_left.png,1,Community 2,NA,TRUE,f,f,NA,NA,NA,1,7,"10,14,8,12,2,9,1,6,4,5,11,15,3,7,13"
14817,commdev-image-keyboard-response,676,1619925,learnblock2,792.9999999997672,img/planet5_left.png,5,Community 2,NA,TRUE,f,f,NA,NA,NA,1,7,"10,14,8,12,2,9,1,6,4,5,11,15,3,7,13"
14817,commdev-image-keyboard-response,677,1621176,learnblock2,562,img/planet1_left.png,1,Community 2,NA,TRUE,f,f,NA,NA,NA,1,7,"10,14,8,12,2,9,1,6,4,5,11,15,3,7,13"
14817,commdev-image-keyboard-response,678,1622427,learnblock2,611,img/planet6_right.png,6,Community 2,NA,TRUE,j,j,NA,NA,NA,1,7,"10,14,8,12,2,9,1,6,4,5,11,15,3,7,13"
14817,commdev-image-keyboard-response,679,1623678,learnblock2,646,img/planet15_left.png,15,Community 3,NA,TRUE,f,f,NA,NA,NA,1,7,"10,14,8,12,2,9,1,6,4,5,11,15,3,7,13"
14817,commdev-image-keyboard-response,680,1624929,learnblock2,618,img/planet3_right.png,3,Community 3,NA,TRUE,j,j,NA,NA,NA,1,7,"10,14,8,12,2,9,1,6,4,5,11,15,3,7,13"
14817,commdev-image-keyboard-response,681,1626180,learnblock2,639.0000000002328,img/planet13_right.png,13,Community 3,NA,FALSE,f,j,NA,NA,NA,1,7,"10,14,8,12,2,9,1,6,4,5,11,15,3,7,13"
14817,commdev-image-keyboard-response,682,1627431,learnblock2,686.0000000002328,img/planet3_left.png,3,Community 3,NA,TRUE,f,f,NA,NA,NA,1,7,"10,14,8,12,2,9,1,6,4,5,11,15,3,7,13"
14817,commdev-image-keyboard-response,683,1628682,learnblock2,673,img/planet7_right.png,7,Community 3,NA,TRUE,j,j,NA,NA,NA,1,7,"10,14,8,12,2,9,1,6,4,5,11,15,3,7,13"
14817,commdev-image-keyboard-response,684,1629933,learnblock2,708,img/planet11_left.png,11,Community 3,NA,TRUE,f,f,NA,NA,NA,1,7,"10,14,8,12,2,9,1,6,4,5,11,15,3,7,13"
14817,commdev-image-keyboard-response,685,1631184,learnblock2,674.9999999997672,img/planet13_left.png,13,Community 3,NA,TRUE,f,f,NA,NA,NA,1,7,"10,14,8,12,2,9,1,6,4,5,11,15,3,7,13"
14817,commdev-image-keyboard-response,686,1632435,learnblock2,700,img/planet3_left.png,3,Community 3,NA,FALSE,j,f,NA,NA,NA,1,7,"10,14,8,12,2,9,1,6,4,5,11,15,3,7,13"
14817,commdev-image-keyboard-response,687,1633686,learnblock2,719.0000000002328,img/planet15_right.png,15,Community 3,NA,TRUE,j,j,NA,NA,NA,1,7,"10,14,8,12,2,9,1,6,4,5,11,15,3,7,13"
14817,commdev-image-keyboard-response,688,1634937,learnblock2,692,img/planet3_right.png,3,Community 3,NA,TRUE,j,j,NA,NA,NA,1,7,"10,14,8,12,2,9,1,6,4,5,11,15,3,7,13"
14817,commdev-image-keyboard-response,689,1636188,learnblock2,1124,img/planet7_right.png,7,Community 3,NA,TRUE,j,j,NA,NA,NA,1,7,"10,14,8,12,2,9,1,6,4,5,11,15,3,7,13"
14817,commdev-image-keyboard-response,690,1637439,learnblock2,683,img/planet15_left.png,15,Community 3,NA,TRUE,f,f,NA,NA,NA,1,7,"10,14,8,12,2,9,1,6,4,5,11,15,3,7,13"
14817,commdev-image-keyboard-response,691,1638690,learnblock2,694,img/planet3_right.png,3,Community 3,NA,TRUE,j,j,NA,NA,NA,1,7,"10,14,8,12,2,9,1,6,4,5,11,15,3,7,13"
14817,commdev-image-keyboard-response,692,1639942,learnblock2,1020,img/planet11_right.png,11,Community 3,NA,TRUE,j,j,NA,NA,NA,1,7,"10,14,8,12,2,9,1,6,4,5,11,15,3,7,13"
14817,commdev-image-keyboard-response,693,1641195,learnblock2,749,img/planet7_right.png,7,Community 3,NA,TRUE,j,j,NA,NA,NA,1,7,"10,14,8,12,2,9,1,6,4,5,11,15,3,7,13"
14817,commdev-image-keyboard-response,694,1642446,learnblock2,857,img/planet13_right.png,13,Community 3,NA,TRUE,j,j,NA,NA,NA,1,7,"10,14,8,12,2,9,1,6,4,5,11,15,3,7,13"
14817,commdev-image-keyboard-response,695,1643697,learnblock2,1001,img/planet15_right.png,15,Community 3,NA,TRUE,j,j,NA,NA,NA,1,7,"10,14,8,12,2,9,1,6,4,5,11,15,3,7,13"
14817,commdev-image-keyboard-response,696,1644948,learnblock2,892,img/planet3_left.png,3,Community 3,NA,TRUE,f,f,NA,NA,NA,1,7,"10,14,8,12,2,9,1,6,4,5,11,15,3,7,13"
14817,commdev-image-keyboard-response,697,1646199,learnblock2,750,img/planet13_right.png,13,Community 3,NA,TRUE,j,j,NA,NA,NA,1,7,"10,14,8,12,2,9,1,6,4,5,11,15,3,7,13"
14817,commdev-image-keyboard-response,698,1647450,learnblock2,770,img/planet15_left.png,15,Community 3,NA,TRUE,f,f,NA,NA,NA,1,7,"10,14,8,12,2,9,1,6,4,5,11,15,3,7,13"
14817,commdev-image-keyboard-response,699,1648702,learnblock2,817,img/planet6_right.png,6,Community 2,NA,TRUE,j,j,NA,NA,NA,1,7,"10,14,8,12,2,9,1,6,4,5,11,15,3,7,13"
14817,commdev-image-keyboard-response,700,1649954,learnblock2,756.9999999997672,img/planet15_left.png,15,Community 3,NA,TRUE,f,f,NA,NA,NA,1,7,"10,14,8,12,2,9,1,6,4,5,11,15,3,7,13"
14817,commdev-image-keyboard-response,701,1651205,learnblock2,700.0000000002328,img/planet6_right.png,6,Community 2,NA,TRUE,j,j,NA,NA,NA,1,7,"10,14,8,12,2,9,1,6,4,5,11,15,3,7,13"
14817,commdev-image-keyboard-response,702,1652456,learnblock2,679,img/planet1_left.png,1,Community 2,NA,TRUE,f,f,NA,NA,NA,1,7,"10,14,8,12,2,9,1,6,4,5,11,15,3,7,13"
14817,commdev-image-keyboard-response,703,1653707,learnblock2,945,img/planet4_right.png,4,Community 2,NA,TRUE,j,j,NA,NA,NA,1,7,"10,14,8,12,2,9,1,6,4,5,11,15,3,7,13"
14817,commdev-image-keyboard-response,704,1654958,learnblock2,889,img/planet5_left.png,5,Community 2,NA,TRUE,f,f,NA,NA,NA,1,7,"10,14,8,12,2,9,1,6,4,5,11,15,3,7,13"
14817,commdev-image-keyboard-response,705,1656209,learnblock2,778,img/planet6_left.png,6,Community 2,NA,TRUE,f,f,NA,NA,NA,1,7,"10,14,8,12,2,9,1,6,4,5,11,15,3,7,13"
14817,commdev-image-keyboard-response,706,1657460,learnblock2,1115,img/planet4_left.png,4,Community 2,NA,TRUE,f,f,NA,NA,NA,1,7,"10,14,8,12,2,9,1,6,4,5,11,15,3,7,13"
14817,commdev-image-keyboard-response,707,1658712,learnblock2,721,img/planet6_left.png,6,Community 2,NA,TRUE,f,f,NA,NA,NA,1,7,"10,14,8,12,2,9,1,6,4,5,11,15,3,7,13"
14817,commdev-image-keyboard-response,708,1659963,learnblock2,675,img/planet5_right.png,5,Community 2,NA,TRUE,j,j,NA,NA,NA,1,7,"10,14,8,12,2,9,1,6,4,5,11,15,3,7,13"
14817,commdev-image-keyboard-response,709,1661216,learnblock2,572,img/planet1_left.png,1,Community 2,NA,TRUE,f,f,NA,NA,NA,1,7,"10,14,8,12,2,9,1,6,4,5,11,15,3,7,13"
14817,commdev-image-keyboard-response,710,1662467,learnblock2,959,img/planet4_left.png,4,Community 2,NA,TRUE,f,f,NA,NA,NA,1,7,"10,14,8,12,2,9,1,6,4,5,11,15,3,7,13"
14817,commdev-image-keyboard-response,711,1663718,learnblock2,732,img/planet9_left.png,9,Community 2,NA,TRUE,f,f,NA,NA,NA,1,7,"10,14,8,12,2,9,1,6,4,5,11,15,3,7,13"
14817,commdev-image-keyboard-response,712,1664969,learnblock2,1132,img/planet5_left.png,5,Community 2,NA,TRUE,f,f,NA,NA,NA,1,7,"10,14,8,12,2,9,1,6,4,5,11,15,3,7,13"
