subject_id,trial_type,trial_index,time_elapsed,block,rt,stimulus,planet,community,response,correct,key_press,learning_correct_response,parse,init_locations,final_locations,browser_interactions,num_comp,planet_map
14810,commdev-instructions,7,39047,NA,1300.3999999910593,"<p>In this game, you are a scientist on board a space shuttle. </p><p> On each mission, you will visit planets all across the universe.</p><img src=""img/controlroom.jpg"" width=300vw>",NA,NA,NA,NA,NA,NA,NA,NA,NA,1,6,"15,9,3,14,2,13,7,12,1,5,4,8,6,10,11"
14810,commdev-instructions,8,41536,NA,410.1000000089407,"<p>Here are a few planets you might see:</p><img src=""img/practice1.png"" width=200vw><img src=""img/practice2.png"" width=200vw><img src=""img/practice3.png"" width=200vw>",NA,NA,NA,NA,NA,NA,NA,NA,NA,1,6,"15,9,3,14,2,13,7,12,1,5,4,8,6,10,11"
14810,commdev-instructions,9,51964,NA,3027.2999999970198,"<p>Your job as a scientist is to record which direction the winds are moving on each planet.</p><p>There are two types of wind directions:</p><img src=""img/practice1_left.png"" width=200vw><img src=""img/practice1_right.png"" width=200vw>",NA,NA,NA,NA,NA,NA,NA,NA,NA,1,6,"15,9,3,14,2,13,7,12,1,5,4,8,6,10,11"
14810,commdev-instructions,10,58918,NA,2057.0999999940395,"<p>If the winds are moving this way, press the letter <strong>F</strong> on the keyboard as fast as you can.</p><img src=""img/leftwind.png"" width=250vw>",NA,NA,NA,NA,NA,NA,NA,NA,NA,1,6,"15,9,3,14,2,13,7,12,1,5,4,8,6,10,11"
14810,commdev-instructions,11,65301,NA,1890.4000000059605,"<p>If the winds are moving this way, press the letter <strong>J</strong> on the keyboard as fast as you can.</p><img src=""img/rightwind.png"" width=350vw>",NA,NA,NA,NA,NA,NA,NA,NA,NA,1,6,"15,9,3,14,2,13,7,12,1,5,4,8,6,10,11"
14810,commdev-instructions,12,74214,NA,4494.5,<p>You will have 1 second to respond. Try to respond before the time runs out!,NA,NA,NA,NA,NA,NA,NA,NA,NA,1,6,"15,9,3,14,2,13,7,12,1,5,4,8,6,10,11"
14810,commdev-instructions,13,80500,NA,850.7000000029802,<p>The planets you will visit will look different from each other.</p><p>You should respond <strong>only</strong> based on wind direction.,NA,NA,NA,NA,NA,NA,NA,NA,NA,1,6,"15,9,3,14,2,13,7,12,1,5,4,8,6,10,11"
14810,commdev-instructions,14,89999,NA,4328.399999991059,"<p> Ready to start the practice round? </p><p> Remember, press <strong>F</strong> or <strong>J</strong> depending on the wind direction.<br><img src=""img/categorize_planet_example.png""",NA,NA,NA,NA,NA,NA,NA,NA,NA,1,6,"15,9,3,14,2,13,7,12,1,5,4,8,6,10,11"
14810,commdev-instructions,26,158905,NA,4722.699999988079,"<p>Great, now try a short practice mission. </p><p> This time, you will have 1 second to respond and you won't know whether you pressed the right or wrong key for each planet.</p>",NA,NA,NA,NA,NA,NA,NA,NA,NA,1,6,"15,9,3,14,2,13,7,12,1,5,4,8,6,10,11"
14810,commdev-image-keyboard-response,27,160278,practice,924.2000000029802,img/practice2_right.png,NA,Number not found in mappings,NA,FALSE,f,j,NA,NA,NA,1,6,"15,9,3,14,2,13,7,12,1,5,4,8,6,10,11"
14810,commdev-image-keyboard-response,28,161536,practice,845.9000000059605,img/practice3_left.png,NA,Number not found in mappings,NA,FALSE,j,f,NA,NA,NA,1,6,"15,9,3,14,2,13,7,12,1,5,4,8,6,10,11"
14810,commdev-image-keyboard-response,29,162794,practice,735.2999999970198,img/practice4_right.png,NA,Number not found in mappings,NA,FALSE,f,j,NA,NA,NA,1,6,"15,9,3,14,2,13,7,12,1,5,4,8,6,10,11"
14810,commdev-image-keyboard-response,30,164054,practice,1216.4000000059605,img/practice1_right.png,NA,Number not found in mappings,NA,FALSE,f,j,NA,NA,NA,1,6,"15,9,3,14,2,13,7,12,1,5,4,8,6,10,11"
14810,commdev-image-keyboard-response,31,165306,practice,1181.3999999910593,img/practice4_left.png,NA,Number not found in mappings,NA,TRUE,f,f,NA,NA,NA,1,6,"15,9,3,14,2,13,7,12,1,5,4,8,6,10,11"
14810,commdev-image-keyboard-response,32,166573,practice,null,img/practice3_right.png,NA,Number not found in mappings,NA,FALSE,null,j,NA,NA,NA,1,6,"15,9,3,14,2,13,7,12,1,5,4,8,6,10,11"
14810,commdev-image-keyboard-response,33,167831,practice,199.29999999701977,img/practice4_left.png,NA,Number not found in mappings,NA,TRUE,f,f,NA,NA,NA,1,6,"15,9,3,14,2,13,7,12,1,5,4,8,6,10,11"
14810,commdev-image-keyboard-response,34,169094,practice,9.400000005960464,img/practice2_left.png,NA,Number not found in mappings,NA,TRUE,f,f,NA,NA,NA,1,6,"15,9,3,14,2,13,7,12,1,5,4,8,6,10,11"
14810,commdev-instructions,35,181097,NA,2444.5,"<p>Great job with the practice round.</p><p>During real missions, you won't know whether you pressed the right or wrong key for each planet.</p><p>But between missions, we will tell you how you did overall.</p>",NA,NA,NA,NA,NA,NA,NA,NA,NA,1,6,"15,9,3,14,2,13,7,12,1,5,4,8,6,10,11"
14810,commdev-instructions,36,191690,NA,2338,<p>Try your best! You will be paid a bonus based on how many correct responses you make!</p><p>Responses that are too slow will not count toward your bonus.</p>,NA,NA,NA,NA,NA,NA,NA,NA,NA,1,6,"15,9,3,14,2,13,7,12,1,5,4,8,6,10,11"
14810,commdev-instructions,37,199574,NA,1671.699999988079,"<p>You are almost ready to start the real game.</p><p> First, we are going to ask you some questions about how the game works.</p>",NA,NA,NA,NA,NA,NA,NA,NA,NA,1,6,"15,9,3,14,2,13,7,12,1,5,4,8,6,10,11"
14810,commdev-instructions,46,278455,NA,692.2000000029802,"<p> Nice work! It is now time to start the real game.<p></p>You will go on two missions to record wind directions of different planets.<p></p>Each one will take about 5 minutes. You will get to take a break between missions.<p><p> Remember, press <strong>F</strong> or <strong>J</strong> depending on the wind direction. Good luck!<br><img src=""img/categorize_planet_example.png""",NA,NA,NA,NA,NA,NA,NA,NA,NA,1,6,"15,9,3,14,2,13,7,12,1,5,4,8,6,10,11"
14810,commdev-image-keyboard-response,48,282465,learnblock1,null,img/planet7_left.png,7,Community 2,NA,FALSE,null,f,NA,NA,NA,1,6,"15,9,3,14,2,13,7,12,1,5,4,8,6,10,11"
14810,commdev-image-keyboard-response,49,283732,learnblock1,280.5,img/planet13_left.png,13,Community 2,NA,TRUE,f,f,NA,NA,NA,1,6,"15,9,3,14,2,13,7,12,1,5,4,8,6,10,11"
14810,commdev-image-keyboard-response,50,284997,learnblock1,94.79999999701977,img/planet7_right.png,7,Community 2,NA,FALSE,f,j,NA,NA,NA,1,6,"15,9,3,14,2,13,7,12,1,5,4,8,6,10,11"
14810,commdev-image-keyboard-response,51,286263,learnblock1,22.799999997019768,img/planet12_left.png,12,Community 2,NA,FALSE,j,f,NA,NA,NA,1,6,"15,9,3,14,2,13,7,12,1,5,4,8,6,10,11"
14810,commdev-image-keyboard-response,52,287516,learnblock1,935.2000000029802,img/planet5_left.png,5,Community 2,NA,FALSE,j,f,NA,NA,NA,1,6,"15,9,3,14,2,13,7,12,1,5,4,8,6,10,11"
14810,commdev-image-keyboard-response,53,288778,learnblock1,952.8000000119209,img/planet13_right.png,13,Community 2,NA,TRUE,j,j,NA,NA,NA,1,6,"15,9,3,14,2,13,7,12,1,5,4,8,6,10,11"
14810,commdev-image-keyboard-response,54,290032,learnblock1,1198.5999999940395,img/planet7_right.png,7,Community 2,NA,FALSE,f,j,NA,NA,NA,1,6,"15,9,3,14,2,13,7,12,1,5,4,8,6,10,11"
14810,commdev-image-keyboard-response,55,291287,learnblock1,205.20000000298023,img/planet5_right.png,5,Community 2,NA,TRUE,j,j,NA,NA,NA,1,6,"15,9,3,14,2,13,7,12,1,5,4,8,6,10,11"
14810,commdev-image-keyboard-response,56,292541,learnblock1,698.9000000059605,img/planet1_left.png,1,Community 2,NA,TRUE,f,f,NA,NA,NA,1,6,"15,9,3,14,2,13,7,12,1,5,4,8,6,10,11"
14810,commdev-image-keyboard-response,57,293794,learnblock1,1106.7999999970198,img/planet12_right.png,12,Community 2,NA,TRUE,j,j,NA,NA,NA,1,6,"15,9,3,14,2,13,7,12,1,5,4,8,6,10,11"
14810,commdev-image-keyboard-response,58,295059,learnblock1,1207.9000000059605,img/planet7_left.png,7,Community 2,NA,TRUE,f,f,NA,NA,NA,1,6,"15,9,3,14,2,13,7,12,1,5,4,8,6,10,11"
14810,commdev-image-keyboard-response,59,296325,learnblock1,1013.7999999970198,img/planet5_left.png,5,Community 2,NA,TRUE,f,f,NA,NA,NA,1,6,"15,9,3,14,2,13,7,12,1,5,4,8,6,10,11"
14810,commdev-image-keyboard-response,60,297585,learnblock1,846,img/planet12_left.png,12,Community 2,NA,TRUE,f,f,NA,NA,NA,1,6,"15,9,3,14,2,13,7,12,1,5,4,8,6,10,11"
14810,commdev-image-keyboard-response,61,298847,learnblock1,644,img/planet8_right.png,8,Community 3,NA,TRUE,j,j,NA,NA,NA,1,6,"15,9,3,14,2,13,7,12,1,5,4,8,6,10,11"
14810,commdev-image-keyboard-response,62,300111,learnblock1,79.1000000089407,img/planet11_right.png,11,Community 3,NA,TRUE,j,j,NA,NA,NA,1,6,"15,9,3,14,2,13,7,12,1,5,4,8,6,10,11"
14810,commdev-image-keyboard-response,63,301365,learnblock1,151.40000000596046,img/planet6_right.png,6,Community 3,NA,TRUE,j,j,NA,NA,NA,1,6,"15,9,3,14,2,13,7,12,1,5,4,8,6,10,11"
14810,commdev-image-keyboard-response,64,302627,learnblock1,null,img/planet4_left.png,4,Community 3,NA,FALSE,null,f,NA,NA,NA,1,6,"15,9,3,14,2,13,7,12,1,5,4,8,6,10,11"
14810,commdev-image-keyboard-response,65,303883,learnblock1,1120.699999988079,img/planet10_left.png,10,Community 3,NA,TRUE,f,f,NA,NA,NA,1,6,"15,9,3,14,2,13,7,12,1,5,4,8,6,10,11"
14810,commdev-image-keyboard-response,66,305139,learnblock1,null,img/planet8_right.png,8,Community 3,NA,FALSE,null,j,NA,NA,NA,1,6,"15,9,3,14,2,13,7,12,1,5,4,8,6,10,11"
14810,commdev-image-keyboard-response,67,306406,learnblock1,5.200000002980232,img/planet10_left.png,10,Community 3,NA,TRUE,f,f,NA,NA,NA,1,6,"15,9,3,14,2,13,7,12,1,5,4,8,6,10,11"
14810,commdev-image-keyboard-response,68,307662,learnblock1,1182.4000000059605,img/planet11_right.png,11,Community 3,NA,TRUE,j,j,NA,NA,NA,1,6,"15,9,3,14,2,13,7,12,1,5,4,8,6,10,11"
14810,commdev-image-keyboard-response,69,308920,learnblock1,1093.199999988079,img/planet10_right.png,10,Community 3,NA,FALSE,f,j,NA,NA,NA,1,6,"15,9,3,14,2,13,7,12,1,5,4,8,6,10,11"
14810,commdev-image-keyboard-response,70,310179,learnblock1,null,img/planet8_right.png,8,Community 3,NA,FALSE,null,j,NA,NA,NA,1,6,"15,9,3,14,2,13,7,12,1,5,4,8,6,10,11"
14810,commdev-image-keyboard-response,71,311439,learnblock1,null,img/planet11_right.png,11,Community 3,NA,FALSE,null,j,NA,NA,NA,1,6,"15,9,3,14,2,13,7,12,1,5,4,8,6,10,11"
14810,commdev-image-keyboard-response,72,312695,learnblock1,null,img/planet4_left.png,4,Community 3,NA,FALSE,null,f,NA,NA,NA,1,6,"15,9,3,14,2,13,7,12,1,5,4,8,6,10,11"
14810,commdev-image-keyboard-response,73,313951,learnblock1,776.2999999970198,img/planet6_right.png,6,Community 3,NA,TRUE,j,j,NA,NA,NA,1,6,"15,9,3,14,2,13,7,12,1,5,4,8,6,10,11"
14810,commdev-image-keyboard-response,74,315209,learnblock1,1035.9000000059605,img/planet10_left.png,10,Community 3,NA,TRUE,f,f,NA,NA,NA,1,6,"15,9,3,14,2,13,7,12,1,5,4,8,6,10,11"
14810,commdev-image-keyboard-response,75,316462,learnblock1,1059.5,img/planet6_right.png,6,Community 3,NA,TRUE,j,j,NA,NA,NA,1,6,"15,9,3,14,2,13,7,12,1,5,4,8,6,10,11"
14810,commdev-image-keyboard-response,76,317717,learnblock1,946.5,img/planet10_left.png,10,Community 3,NA,TRUE,f,f,NA,NA,NA,1,6,"15,9,3,14,2,13,7,12,1,5,4,8,6,10,11"
14810,commdev-image-keyboard-response,77,318977,learnblock1,666.0999999940395,img/planet8_left.png,8,Community 3,NA,FALSE,j,f,NA,NA,NA,1,6,"15,9,3,14,2,13,7,12,1,5,4,8,6,10,11"
14810,commdev-image-keyboard-response,78,320232,learnblock1,1146.7000000029802,img/planet12_right.png,12,Community 2,NA,TRUE,j,j,NA,NA,NA,1,6,"15,9,3,14,2,13,7,12,1,5,4,8,6,10,11"
14810,commdev-image-keyboard-response,79,321491,learnblock1,920.5,img/planet8_left.png,8,Community 3,NA,TRUE,f,f,NA,NA,NA,1,6,"15,9,3,14,2,13,7,12,1,5,4,8,6,10,11"
14810,commdev-image-keyboard-response,80,322748,learnblock1,920.1000000089407,img/planet10_right.png,10,Community 3,NA,TRUE,j,j,NA,NA,NA,1,6,"15,9,3,14,2,13,7,12,1,5,4,8,6,10,11"
14810,commdev-image-keyboard-response,81,324006,learnblock1,740.9000000059605,img/planet6_left.png,6,Community 3,NA,TRUE,f,f,NA,NA,NA,1,6,"15,9,3,14,2,13,7,12,1,5,4,8,6,10,11"
14810,commdev-image-keyboard-response,82,325261,learnblock1,827.7999999970198,img/planet4_left.png,4,Community 3,NA,TRUE,f,f,NA,NA,NA,1,6,"15,9,3,14,2,13,7,12,1,5,4,8,6,10,11"
14810,commdev-image-keyboard-response,83,326519,learnblock1,845.2000000029802,img/planet2_left.png,2,Community 1,NA,TRUE,f,f,NA,NA,NA,1,6,"15,9,3,14,2,13,7,12,1,5,4,8,6,10,11"
14810,commdev-image-keyboard-response,84,327778,learnblock1,965.4000000059605,img/planet9_left.png,9,Community 1,NA,TRUE,f,f,NA,NA,NA,1,6,"15,9,3,14,2,13,7,12,1,5,4,8,6,10,11"
14810,commdev-image-keyboard-response,85,329044,learnblock1,null,img/planet3_right.png,3,Community 1,NA,FALSE,null,j,NA,NA,NA,1,6,"15,9,3,14,2,13,7,12,1,5,4,8,6,10,11"
14810,commdev-image-keyboard-response,86,330298,learnblock1,141,img/planet2_left.png,2,Community 1,NA,FALSE,j,f,NA,NA,NA,1,6,"15,9,3,14,2,13,7,12,1,5,4,8,6,10,11"
14810,commdev-image-keyboard-response,87,331561,learnblock1,886.5,img/planet9_right.png,9,Community 1,NA,TRUE,j,j,NA,NA,NA,1,6,"15,9,3,14,2,13,7,12,1,5,4,8,6,10,11"
14810,commdev-image-keyboard-response,88,332819,learnblock1,502,img/planet3_left.png,3,Community 1,NA,TRUE,f,f,NA,NA,NA,1,6,"15,9,3,14,2,13,7,12,1,5,4,8,6,10,11"
14810,commdev-image-keyboard-response,89,334075,learnblock1,537.0999999940395,img/planet15_left.png,15,Community 1,NA,FALSE,j,f,NA,NA,NA,1,6,"15,9,3,14,2,13,7,12,1,5,4,8,6,10,11"
14810,commdev-image-keyboard-response,90,335334,learnblock1,826.5999999940395,img/planet3_right.png,3,Community 1,NA,FALSE,f,j,NA,NA,NA,1,6,"15,9,3,14,2,13,7,12,1,5,4,8,6,10,11"
14810,commdev-image-keyboard-response,91,336602,learnblock1,651.2000000029802,img/planet9_left.png,9,Community 1,NA,FALSE,j,f,NA,NA,NA,1,6,"15,9,3,14,2,13,7,12,1,5,4,8,6,10,11"
14810,commdev-image-keyboard-response,92,337856,learnblock1,814.5,img/planet14_right.png,14,Community 1,NA,FALSE,f,j,NA,NA,NA,1,6,"15,9,3,14,2,13,7,12,1,5,4,8,6,10,11"
14810,commdev-image-keyboard-response,93,339113,learnblock1,854.4000000059605,img/planet9_left.png,9,Community 1,NA,FALSE,j,f,NA,NA,NA,1,6,"15,9,3,14,2,13,7,12,1,5,4,8,6,10,11"
14810,commdev-image-keyboard-response,94,340370,learnblock1,163.5,img/planet3_right.png,3,Community 1,NA,FALSE,f,j,NA,NA,NA,1,6,"15,9,3,14,2,13,7,12,1,5,4,8,6,10,11"
14810,commdev-image-keyboard-response,95,341624,learnblock1,128.40000000596046,img/planet2_right.png,2,Community 1,NA,TRUE,j,j,NA,NA,NA,1,6,"15,9,3,14,2,13,7,12,1,5,4,8,6,10,11"
14810,commdev-image-keyboard-response,96,342880,learnblock1,102.70000000298023,img/planet9_left.png,9,Community 1,NA,TRUE,f,f,NA,NA,NA,1,6,"15,9,3,14,2,13,7,12,1,5,4,8,6,10,11"
14810,commdev-image-keyboard-response,97,344138,learnblock1,122.29999999701977,img/planet2_right.png,2,Community 1,NA,TRUE,j,j,NA,NA,NA,1,6,"15,9,3,14,2,13,7,12,1,5,4,8,6,10,11"
14810,commdev-image-keyboard-response,98,345397,learnblock1,180,img/planet3_left.png,3,Community 1,NA,TRUE,f,f,NA,NA,NA,1,6,"15,9,3,14,2,13,7,12,1,5,4,8,6,10,11"
14810,commdev-image-keyboard-response,99,346652,learnblock1,53.900000005960464,img/planet9_right.png,9,Community 1,NA,FALSE,f,j,NA,NA,NA,1,6,"15,9,3,14,2,13,7,12,1,5,4,8,6,10,11"
14810,commdev-image-keyboard-response,100,347911,learnblock1,119.20000000298023,img/planet2_left.png,2,Community 1,NA,TRUE,f,f,NA,NA,NA,1,6,"15,9,3,14,2,13,7,12,1,5,4,8,6,10,11"
14810,commdev-image-keyboard-response,101,349166,learnblock1,153.29999999701977,img/planet4_left.png,4,Community 3,NA,FALSE,j,f,NA,NA,NA,1,6,"15,9,3,14,2,13,7,12,1,5,4,8,6,10,11"
14810,commdev-image-keyboard-response,102,350419,learnblock1,36.29999999701977,img/planet10_left.png,10,Community 3,NA,FALSE,j,f,NA,NA,NA,1,6,"15,9,3,14,2,13,7,12,1,5,4,8,6,10,11"
14810,commdev-image-keyboard-response,103,351676,learnblock1,26,img/planet4_right.png,4,Community 3,NA,FALSE,f,j,NA,NA,NA,1,6,"15,9,3,14,2,13,7,12,1,5,4,8,6,10,11"
14810,commdev-image-keyboard-response,104,352928,learnblock1,156.79999999701977,img/planet11_right.png,11,Community 3,NA,TRUE,j,j,NA,NA,NA,1,6,"15,9,3,14,2,13,7,12,1,5,4,8,6,10,11"
14810,commdev-image-keyboard-response,105,354183,learnblock1,92.09999999403954,img/planet6_right.png,6,Community 3,NA,FALSE,f,j,NA,NA,NA,1,6,"15,9,3,14,2,13,7,12,1,5,4,8,6,10,11"
14810,commdev-image-keyboard-response,106,355442,learnblock1,676.7999999970198,img/planet10_left.png,10,Community 3,NA,TRUE,f,f,NA,NA,NA,1,6,"15,9,3,14,2,13,7,12,1,5,4,8,6,10,11"
14810,commdev-image-keyboard-response,107,356699,learnblock1,114.5,img/planet6_right.png,6,Community 3,NA,FALSE,f,j,NA,NA,NA,1,6,"15,9,3,14,2,13,7,12,1,5,4,8,6,10,11"
14810,commdev-image-keyboard-response,108,357953,learnblock1,1108,img/planet10_right.png,10,Community 3,NA,FALSE,f,j,NA,NA,NA,1,6,"15,9,3,14,2,13,7,12,1,5,4,8,6,10,11"
14810,commdev-image-keyboard-response,109,359218,learnblock1,104.70000000298023,img/planet4_right.png,4,Community 3,NA,TRUE,j,j,NA,NA,NA,1,6,"15,9,3,14,2,13,7,12,1,5,4,8,6,10,11"
14810,commdev-image-keyboard-response,110,360470,learnblock1,630.2999999970198,img/planet10_right.png,10,Community 3,NA,TRUE,j,j,NA,NA,NA,1,6,"15,9,3,14,2,13,7,12,1,5,4,8,6,10,11"
14810,commdev-image-keyboard-response,111,361733,learnblock1,565.7999999970198,img/planet4_left.png,4,Community 3,NA,FALSE,j,f,NA,NA,NA,1,6,"15,9,3,14,2,13,7,12,1,5,4,8,6,10,11"
14810,commdev-image-keyboard-response,112,362985,learnblock1,700.3999999910593,img/planet2_right.png,2,Community 1,NA,TRUE,j,j,NA,NA,NA,1,6,"15,9,3,14,2,13,7,12,1,5,4,8,6,10,11"
14810,commdev-image-keyboard-response,113,364244,learnblock1,732.5,img/planet15_left.png,15,Community 1,NA,TRUE,f,f,NA,NA,NA,1,6,"15,9,3,14,2,13,7,12,1,5,4,8,6,10,11"
14810,commdev-image-keyboard-response,114,365500,learnblock1,693.0999999940395,img/planet3_left.png,3,Community 1,NA,FALSE,j,f,NA,NA,NA,1,6,"15,9,3,14,2,13,7,12,1,5,4,8,6,10,11"
14810,commdev-image-keyboard-response,115,366757,learnblock1,798.7000000029802,img/planet15_right.png,15,Community 1,NA,TRUE,j,j,NA,NA,NA,1,6,"15,9,3,14,2,13,7,12,1,5,4,8,6,10,11"
14810,commdev-image-keyboard-response,116,368013,learnblock1,774.0999999940395,img/planet14_left.png,14,Community 1,NA,TRUE,f,f,NA,NA,NA,1,6,"15,9,3,14,2,13,7,12,1,5,4,8,6,10,11"
14810,commdev-image-keyboard-response,117,369273,learnblock1,825.8999999910593,img/planet13_right.png,13,Community 2,NA,TRUE,j,j,NA,NA,NA,1,6,"15,9,3,14,2,13,7,12,1,5,4,8,6,10,11"
14810,commdev-image-keyboard-response,118,370542,learnblock1,963.5,img/planet5_right.png,5,Community 2,NA,TRUE,j,j,NA,NA,NA,1,6,"15,9,3,14,2,13,7,12,1,5,4,8,6,10,11"
14810,commdev-image-keyboard-response,119,371796,learnblock1,942.7000000029802,img/planet12_right.png,12,Community 2,NA,TRUE,j,j,NA,NA,NA,1,6,"15,9,3,14,2,13,7,12,1,5,4,8,6,10,11"
14810,commdev-image-keyboard-response,120,373049,learnblock1,647.0999999940395,img/planet7_right.png,7,Community 2,NA,FALSE,f,j,NA,NA,NA,1,6,"15,9,3,14,2,13,7,12,1,5,4,8,6,10,11"
14810,commdev-image-keyboard-response,121,374301,learnblock1,834,img/planet1_left.png,1,Community 2,NA,TRUE,f,f,NA,NA,NA,1,6,"15,9,3,14,2,13,7,12,1,5,4,8,6,10,11"
14810,commdev-image-keyboard-response,122,375558,learnblock1,946.2000000029802,img/planet7_left.png,7,Community 2,NA,TRUE,f,f,NA,NA,NA,1,6,"15,9,3,14,2,13,7,12,1,5,4,8,6,10,11"
14810,commdev-image-keyboard-response,123,376817,learnblock1,997.0999999940395,img/planet5_right.png,5,Community 2,NA,TRUE,j,j,NA,NA,NA,1,6,"15,9,3,14,2,13,7,12,1,5,4,8,6,10,11"
14810,commdev-image-keyboard-response,124,378073,learnblock1,955.4000000059605,img/planet7_left.png,7,Community 2,NA,TRUE,f,f,NA,NA,NA,1,6,"15,9,3,14,2,13,7,12,1,5,4,8,6,10,11"
14810,commdev-image-keyboard-response,125,379330,learnblock1,815.6000000089407,img/planet5_left.png,5,Community 2,NA,FALSE,j,f,NA,NA,NA,1,6,"15,9,3,14,2,13,7,12,1,5,4,8,6,10,11"
14810,commdev-image-keyboard-response,126,380584,learnblock1,1063.7999999970198,img/planet12_left.png,12,Community 2,NA,TRUE,f,f,NA,NA,NA,1,6,"15,9,3,14,2,13,7,12,1,5,4,8,6,10,11"
14810,commdev-image-keyboard-response,127,381849,learnblock1,1065.5,img/planet1_right.png,1,Community 2,NA,TRUE,j,j,NA,NA,NA,1,6,"15,9,3,14,2,13,7,12,1,5,4,8,6,10,11"
14810,commdev-image-keyboard-response,128,383107,learnblock1,1060.7999999970198,img/planet13_left.png,13,Community 2,NA,TRUE,f,f,NA,NA,NA,1,6,"15,9,3,14,2,13,7,12,1,5,4,8,6,10,11"
14810,commdev-image-keyboard-response,129,384361,learnblock1,957.2000000029802,img/planet7_left.png,7,Community 2,NA,FALSE,j,f,NA,NA,NA,1,6,"15,9,3,14,2,13,7,12,1,5,4,8,6,10,11"
14810,commdev-image-keyboard-response,130,385613,learnblock1,938.1000000089407,img/planet12_left.png,12,Community 2,NA,TRUE,f,f,NA,NA,NA,1,6,"15,9,3,14,2,13,7,12,1,5,4,8,6,10,11"
14810,commdev-image-keyboard-response,131,386869,learnblock1,1049,img/planet5_right.png,5,Community 2,NA,TRUE,j,j,NA,NA,NA,1,6,"15,9,3,14,2,13,7,12,1,5,4,8,6,10,11"
14810,commdev-image-keyboard-response,132,388128,learnblock1,1111.8999999910593,img/planet12_right.png,12,Community 2,NA,FALSE,f,j,NA,NA,NA,1,6,"15,9,3,14,2,13,7,12,1,5,4,8,6,10,11"
14810,commdev-image-keyboard-response,133,389385,learnblock1,121.59999999403954,img/planet8_right.png,8,Community 3,NA,TRUE,j,j,NA,NA,NA,1,6,"15,9,3,14,2,13,7,12,1,5,4,8,6,10,11"
14810,commdev-image-keyboard-response,134,390637,learnblock1,887.7999999970198,img/planet10_left.png,10,Community 3,NA,TRUE,f,f,NA,NA,NA,1,6,"15,9,3,14,2,13,7,12,1,5,4,8,6,10,11"
14810,commdev-image-keyboard-response,135,391902,learnblock1,null,img/planet4_left.png,4,Community 3,NA,FALSE,null,f,NA,NA,NA,1,6,"15,9,3,14,2,13,7,12,1,5,4,8,6,10,11"
14810,commdev-image-keyboard-response,136,393154,learnblock1,309.79999999701977,img/planet6_left.png,6,Community 3,NA,FALSE,j,f,NA,NA,NA,1,6,"15,9,3,14,2,13,7,12,1,5,4,8,6,10,11"
14810,commdev-image-keyboard-response,137,394406,learnblock1,1004.3999999910593,img/planet4_right.png,4,Community 3,NA,FALSE,f,j,NA,NA,NA,1,6,"15,9,3,14,2,13,7,12,1,5,4,8,6,10,11"
14810,commdev-image-keyboard-response,138,395667,learnblock1,null,img/planet11_left.png,11,Community 3,NA,FALSE,null,f,NA,NA,NA,1,6,"15,9,3,14,2,13,7,12,1,5,4,8,6,10,11"
14810,commdev-image-keyboard-response,139,396921,learnblock1,140.40000000596046,img/planet10_right.png,10,Community 3,NA,FALSE,f,j,NA,NA,NA,1,6,"15,9,3,14,2,13,7,12,1,5,4,8,6,10,11"
14810,commdev-image-keyboard-response,140,398179,learnblock1,954.5999999940395,img/planet4_left.png,4,Community 3,NA,TRUE,f,f,NA,NA,NA,1,6,"15,9,3,14,2,13,7,12,1,5,4,8,6,10,11"
14810,commdev-image-keyboard-response,141,399432,learnblock1,1103.800000011921,img/planet11_right.png,11,Community 3,NA,TRUE,j,j,NA,NA,NA,1,6,"15,9,3,14,2,13,7,12,1,5,4,8,6,10,11"
14810,commdev-image-keyboard-response,142,400687,learnblock1,1010.3999999910593,img/planet4_right.png,4,Community 3,NA,FALSE,f,j,NA,NA,NA,1,6,"15,9,3,14,2,13,7,12,1,5,4,8,6,10,11"
14810,commdev-image-keyboard-response,143,401947,learnblock1,null,img/planet10_left.png,10,Community 3,NA,FALSE,null,f,NA,NA,NA,1,6,"15,9,3,14,2,13,7,12,1,5,4,8,6,10,11"
14810,commdev-image-keyboard-response,144,403213,learnblock1,null,img/planet4_left.png,4,Community 3,NA,FALSE,null,f,NA,NA,NA,1,6,"15,9,3,14,2,13,7,12,1,5,4,8,6,10,11"
14810,commdev-image-keyboard-response,145,404466,learnblock1,1234.699999988079,img/planet6_left.png,6,Community 3,NA,TRUE,f,f,NA,NA,NA,1,6,"15,9,3,14,2,13,7,12,1,5,4,8,6,10,11"
14810,commdev-image-keyboard-response,146,405731,learnblock1,872.7000000029802,img/planet4_left.png,4,Community 3,NA,TRUE,f,f,NA,NA,NA,1,6,"15,9,3,14,2,13,7,12,1,5,4,8,6,10,11"
14810,commdev-image-keyboard-response,147,406991,learnblock1,804.3000000119209,img/planet11_left.png,11,Community 3,NA,TRUE,f,f,NA,NA,NA,1,6,"15,9,3,14,2,13,7,12,1,5,4,8,6,10,11"
14810,commdev-image-keyboard-response,148,408245,learnblock1,null,img/planet6_left.png,6,Community 3,NA,FALSE,null,f,NA,NA,NA,1,6,"15,9,3,14,2,13,7,12,1,5,4,8,6,10,11"
14810,commdev-image-keyboard-response,149,409512,learnblock1,727.7999999970198,img/planet8_right.png,8,Community 3,NA,TRUE,j,j,NA,NA,NA,1,6,"15,9,3,14,2,13,7,12,1,5,4,8,6,10,11"
14810,commdev-image-keyboard-response,150,410766,learnblock1,1012.2000000029802,img/planet11_left.png,11,Community 3,NA,TRUE,f,f,NA,NA,NA,1,6,"15,9,3,14,2,13,7,12,1,5,4,8,6,10,11"
14810,commdev-image-keyboard-response,151,412018,learnblock1,738,img/planet4_right.png,4,Community 3,NA,TRUE,j,j,NA,NA,NA,1,6,"15,9,3,14,2,13,7,12,1,5,4,8,6,10,11"
14810,commdev-image-keyboard-response,152,413277,learnblock1,844.8999999910593,img/planet2_left.png,2,Community 1,NA,TRUE,f,f,NA,NA,NA,1,6,"15,9,3,14,2,13,7,12,1,5,4,8,6,10,11"
14810,commdev-image-keyboard-response,153,414536,learnblock1,831,img/planet4_right.png,4,Community 3,NA,TRUE,j,j,NA,NA,NA,1,6,"15,9,3,14,2,13,7,12,1,5,4,8,6,10,11"
14810,commdev-image-keyboard-response,154,415799,learnblock1,938.5,img/planet10_left.png,10,Community 3,NA,TRUE,f,f,NA,NA,NA,1,6,"15,9,3,14,2,13,7,12,1,5,4,8,6,10,11"
14810,commdev-image-keyboard-response,155,417053,learnblock1,694.2000000029802,img/planet6_right.png,6,Community 3,NA,TRUE,j,j,NA,NA,NA,1,6,"15,9,3,14,2,13,7,12,1,5,4,8,6,10,11"
14810,commdev-image-keyboard-response,156,418305,learnblock1,796.2000000029802,img/planet10_left.png,10,Community 3,NA,TRUE,f,f,NA,NA,NA,1,6,"15,9,3,14,2,13,7,12,1,5,4,8,6,10,11"
14810,commdev-image-keyboard-response,157,419558,learnblock1,583.5999999940395,img/planet4_left.png,4,Community 3,NA,FALSE,j,f,NA,NA,NA,1,6,"15,9,3,14,2,13,7,12,1,5,4,8,6,10,11"
14810,commdev-image-keyboard-response,158,420818,learnblock1,1026.3999999910593,img/planet6_left.png,6,Community 3,NA,TRUE,f,f,NA,NA,NA,1,6,"15,9,3,14,2,13,7,12,1,5,4,8,6,10,11"
14810,commdev-image-keyboard-response,159,422077,learnblock1,958.7999999970198,img/planet8_left.png,8,Community 3,NA,TRUE,f,f,NA,NA,NA,1,6,"15,9,3,14,2,13,7,12,1,5,4,8,6,10,11"
14810,commdev-image-keyboard-response,160,423335,learnblock1,876.5,img/planet11_right.png,11,Community 3,NA,FALSE,f,j,NA,NA,NA,1,6,"15,9,3,14,2,13,7,12,1,5,4,8,6,10,11"
14810,commdev-image-keyboard-response,161,424597,learnblock1,791.0999999940395,img/planet10_left.png,10,Community 3,NA,TRUE,f,f,NA,NA,NA,1,6,"15,9,3,14,2,13,7,12,1,5,4,8,6,10,11"
14810,commdev-image-keyboard-response,162,425853,learnblock1,707.5,img/planet11_right.png,11,Community 3,NA,TRUE,j,j,NA,NA,NA,1,6,"15,9,3,14,2,13,7,12,1,5,4,8,6,10,11"
14810,commdev-image-keyboard-response,163,427105,learnblock1,886.4000000059605,img/planet6_right.png,6,Community 3,NA,TRUE,j,j,NA,NA,NA,1,6,"15,9,3,14,2,13,7,12,1,5,4,8,6,10,11"
14810,commdev-image-keyboard-response,164,428360,learnblock1,752.9000000059605,img/planet8_left.png,8,Community 3,NA,TRUE,f,f,NA,NA,NA,1,6,"15,9,3,14,2,13,7,12,1,5,4,8,6,10,11"
14810,commdev-image-keyboard-response,165,429614,learnblock1,904.7000000029802,img/planet12_left.png,12,Community 2,NA,TRUE,f,f,NA,NA,NA,1,6,"15,9,3,14,2,13,7,12,1,5,4,8,6,10,11"
14810,commdev-image-keyboard-response,166,430870,learnblock1,989,img/planet7_right.png,7,Community 2,NA,TRUE,j,j,NA,NA,NA,1,6,"15,9,3,14,2,13,7,12,1,5,4,8,6,10,11"
14810,commdev-image-keyboard-response,167,432129,learnblock1,1018.2000000029802,img/planet12_left.png,12,Community 2,NA,TRUE,f,f,NA,NA,NA,1,6,"15,9,3,14,2,13,7,12,1,5,4,8,6,10,11"
14810,commdev-image-keyboard-response,168,433382,learnblock1,1004.4000000059605,img/planet1_left.png,1,Community 2,NA,TRUE,f,f,NA,NA,NA,1,6,"15,9,3,14,2,13,7,12,1,5,4,8,6,10,11"
14810,commdev-image-keyboard-response,169,434643,learnblock1,741.0999999940395,img/planet7_right.png,7,Community 2,NA,TRUE,j,j,NA,NA,NA,1,6,"15,9,3,14,2,13,7,12,1,5,4,8,6,10,11"
14810,commdev-image-keyboard-response,170,435903,learnblock1,827,img/planet5_left.png,5,Community 2,NA,TRUE,f,f,NA,NA,NA,1,6,"15,9,3,14,2,13,7,12,1,5,4,8,6,10,11"
14810,commdev-image-keyboard-response,171,437161,learnblock1,966.2000000029802,img/planet1_right.png,1,Community 2,NA,TRUE,j,j,NA,NA,NA,1,6,"15,9,3,14,2,13,7,12,1,5,4,8,6,10,11"
14810,commdev-image-keyboard-response,172,438418,learnblock1,734,img/planet12_left.png,12,Community 2,NA,TRUE,f,f,NA,NA,NA,1,6,"15,9,3,14,2,13,7,12,1,5,4,8,6,10,11"
14810,commdev-image-keyboard-response,173,439674,learnblock1,251.40000000596046,img/planet8_left.png,8,Community 3,NA,TRUE,f,f,NA,NA,NA,1,6,"15,9,3,14,2,13,7,12,1,5,4,8,6,10,11"
14810,commdev-image-keyboard-response,174,440931,learnblock1,884.7999999970198,img/planet11_right.png,11,Community 3,NA,TRUE,j,j,NA,NA,NA,1,6,"15,9,3,14,2,13,7,12,1,5,4,8,6,10,11"
14810,commdev-image-keyboard-response,175,442184,learnblock1,1007.7000000029802,img/planet4_left.png,4,Community 3,NA,TRUE,f,f,NA,NA,NA,1,6,"15,9,3,14,2,13,7,12,1,5,4,8,6,10,11"
14810,commdev-image-keyboard-response,176,443439,learnblock1,958.9000000059605,img/planet10_right.png,10,Community 3,NA,TRUE,j,j,NA,NA,NA,1,6,"15,9,3,14,2,13,7,12,1,5,4,8,6,10,11"
14810,commdev-image-keyboard-response,177,444697,learnblock1,668.1000000089407,img/planet6_left.png,6,Community 3,NA,TRUE,f,f,NA,NA,NA,1,6,"15,9,3,14,2,13,7,12,1,5,4,8,6,10,11"
14810,commdev-image-keyboard-response,178,445956,learnblock1,null,img/planet8_left.png,8,Community 3,NA,FALSE,null,f,NA,NA,NA,1,6,"15,9,3,14,2,13,7,12,1,5,4,8,6,10,11"
14810,commdev-image-keyboard-response,179,447215,learnblock1,148.8999999910593,img/planet6_right.png,6,Community 3,NA,FALSE,f,j,NA,NA,NA,1,6,"15,9,3,14,2,13,7,12,1,5,4,8,6,10,11"
14810,commdev-image-keyboard-response,180,448470,learnblock1,804.5999999940395,img/planet4_right.png,4,Community 3,NA,FALSE,f,j,NA,NA,NA,1,6,"15,9,3,14,2,13,7,12,1,5,4,8,6,10,11"
14810,commdev-image-keyboard-response,181,449727,learnblock1,987.8999999910593,img/planet11_left.png,11,Community 3,NA,FALSE,j,f,NA,NA,NA,1,6,"15,9,3,14,2,13,7,12,1,5,4,8,6,10,11"
14810,commdev-image-keyboard-response,182,450980,learnblock1,null,img/planet6_left.png,6,Community 3,NA,FALSE,null,f,NA,NA,NA,1,6,"15,9,3,14,2,13,7,12,1,5,4,8,6,10,11"
14810,commdev-image-keyboard-response,183,452233,learnblock1,null,img/planet11_right.png,11,Community 3,NA,FALSE,null,j,NA,NA,NA,1,6,"15,9,3,14,2,13,7,12,1,5,4,8,6,10,11"
14810,commdev-image-keyboard-response,184,453490,learnblock1,671.1999999880791,img/planet4_left.png,4,Community 3,NA,TRUE,f,f,NA,NA,NA,1,6,"15,9,3,14,2,13,7,12,1,5,4,8,6,10,11"
14810,commdev-image-keyboard-response,185,454750,learnblock1,567.0999999940395,img/planet6_right.png,6,Community 3,NA,TRUE,j,j,NA,NA,NA,1,6,"15,9,3,14,2,13,7,12,1,5,4,8,6,10,11"
14810,commdev-image-keyboard-response,186,456008,learnblock1,652.6000000089407,img/planet11_left.png,11,Community 3,NA,TRUE,f,f,NA,NA,NA,1,6,"15,9,3,14,2,13,7,12,1,5,4,8,6,10,11"
14810,commdev-image-keyboard-response,187,457273,learnblock1,585.9000000059605,img/planet4_right.png,4,Community 3,NA,TRUE,j,j,NA,NA,NA,1,6,"15,9,3,14,2,13,7,12,1,5,4,8,6,10,11"
14810,commdev-image-keyboard-response,188,458534,learnblock1,765.5,img/planet2_right.png,2,Community 1,NA,FALSE,f,j,NA,NA,NA,1,6,"15,9,3,14,2,13,7,12,1,5,4,8,6,10,11"
14810,commdev-image-keyboard-response,189,459799,learnblock1,714.4000000059605,img/planet9_left.png,9,Community 1,NA,FALSE,j,f,NA,NA,NA,1,6,"15,9,3,14,2,13,7,12,1,5,4,8,6,10,11"
14810,commdev-image-keyboard-response,190,461052,learnblock1,748.1000000089407,img/planet14_right.png,14,Community 1,NA,FALSE,f,j,NA,NA,NA,1,6,"15,9,3,14,2,13,7,12,1,5,4,8,6,10,11"
14810,commdev-image-keyboard-response,191,462311,learnblock1,28.100000008940697,img/planet15_left.png,15,Community 1,NA,FALSE,j,f,NA,NA,NA,1,6,"15,9,3,14,2,13,7,12,1,5,4,8,6,10,11"
14810,commdev-image-keyboard-response,192,463563,learnblock1,141.90000000596046,img/planet3_right.png,3,Community 1,NA,TRUE,j,j,NA,NA,NA,1,6,"15,9,3,14,2,13,7,12,1,5,4,8,6,10,11"
14810,commdev-image-keyboard-response,193,464819,learnblock1,92.90000000596046,img/planet15_right.png,15,Community 1,NA,TRUE,j,j,NA,NA,NA,1,6,"15,9,3,14,2,13,7,12,1,5,4,8,6,10,11"
14810,commdev-image-keyboard-response,194,466077,learnblock1,2.8999999910593033,img/planet9_right.png,9,Community 1,NA,FALSE,f,j,NA,NA,NA,1,6,"15,9,3,14,2,13,7,12,1,5,4,8,6,10,11"
14810,commdev-image-keyboard-response,195,467331,learnblock1,23.400000005960464,img/planet15_left.png,15,Community 1,NA,FALSE,j,f,NA,NA,NA,1,6,"15,9,3,14,2,13,7,12,1,5,4,8,6,10,11"
14810,commdev-image-keyboard-response,196,468585,learnblock1,190.20000000298023,img/planet14_left.png,14,Community 1,NA,FALSE,j,f,NA,NA,NA,1,6,"15,9,3,14,2,13,7,12,1,5,4,8,6,10,11"
14810,commdev-image-keyboard-response,197,469839,learnblock1,137.8999999910593,img/planet9_left.png,9,Community 1,NA,FALSE,j,f,NA,NA,NA,1,6,"15,9,3,14,2,13,7,12,1,5,4,8,6,10,11"
14810,commdev-image-keyboard-response,198,471095,learnblock1,144.5,img/planet14_right.png,14,Community 1,NA,FALSE,f,j,NA,NA,NA,1,6,"15,9,3,14,2,13,7,12,1,5,4,8,6,10,11"
14810,commdev-image-keyboard-response,199,472355,learnblock1,192.29999999701977,img/planet3_right.png,3,Community 1,NA,TRUE,j,j,NA,NA,NA,1,6,"15,9,3,14,2,13,7,12,1,5,4,8,6,10,11"
14810,commdev-image-keyboard-response,200,473607,learnblock1,1.7999999970197678,img/planet2_right.png,2,Community 1,NA,TRUE,j,j,NA,NA,NA,1,6,"15,9,3,14,2,13,7,12,1,5,4,8,6,10,11"
14810,commdev-image-keyboard-response,201,474865,learnblock1,4.200000002980232,img/planet9_left.png,9,Community 1,NA,TRUE,f,f,NA,NA,NA,1,6,"15,9,3,14,2,13,7,12,1,5,4,8,6,10,11"
14810,commdev-image-keyboard-response,202,476117,learnblock1,249,img/planet14_left.png,14,Community 1,NA,FALSE,j,f,NA,NA,NA,1,6,"15,9,3,14,2,13,7,12,1,5,4,8,6,10,11"
14810,commdev-image-keyboard-response,203,477369,learnblock1,169.90000000596046,img/planet13_right.png,13,Community 2,NA,FALSE,f,j,NA,NA,NA,1,6,"15,9,3,14,2,13,7,12,1,5,4,8,6,10,11"
14810,commdev-image-keyboard-response,204,478622,learnblock1,82.40000000596046,img/planet1_left.png,1,Community 2,NA,FALSE,j,f,NA,NA,NA,1,6,"15,9,3,14,2,13,7,12,1,5,4,8,6,10,11"
14810,commdev-image-keyboard-response,205,479878,learnblock1,55.5,img/planet7_right.png,7,Community 2,NA,TRUE,j,j,NA,NA,NA,1,6,"15,9,3,14,2,13,7,12,1,5,4,8,6,10,11"
14810,commdev-image-keyboard-response,206,481133,learnblock1,71,img/planet12_right.png,12,Community 2,NA,TRUE,j,j,NA,NA,NA,1,6,"15,9,3,14,2,13,7,12,1,5,4,8,6,10,11"
14810,commdev-image-keyboard-response,207,482391,learnblock1,88.20000000298023,img/planet5_left.png,5,Community 2,NA,FALSE,j,f,NA,NA,NA,1,6,"15,9,3,14,2,13,7,12,1,5,4,8,6,10,11"
14810,commdev-image-keyboard-response,208,483647,learnblock1,2.800000011920929,img/planet7_right.png,7,Community 2,NA,FALSE,f,j,NA,NA,NA,1,6,"15,9,3,14,2,13,7,12,1,5,4,8,6,10,11"
14810,commdev-image-keyboard-response,209,484914,learnblock1,32.70000000298023,img/planet5_left.png,5,Community 2,NA,FALSE,j,f,NA,NA,NA,1,6,"15,9,3,14,2,13,7,12,1,5,4,8,6,10,11"
14810,commdev-image-keyboard-response,210,486173,learnblock1,101.79999999701977,img/planet7_left.png,7,Community 2,NA,TRUE,f,f,NA,NA,NA,1,6,"15,9,3,14,2,13,7,12,1,5,4,8,6,10,11"
14810,commdev-image-keyboard-response,211,487429,learnblock1,581.2000000029802,img/planet1_left.png,1,Community 2,NA,FALSE,j,f,NA,NA,NA,1,6,"15,9,3,14,2,13,7,12,1,5,4,8,6,10,11"
14810,commdev-image-keyboard-response,212,488696,learnblock1,722,img/planet5_right.png,5,Community 2,NA,FALSE,f,j,NA,NA,NA,1,6,"15,9,3,14,2,13,7,12,1,5,4,8,6,10,11"
14810,commdev-image-keyboard-response,213,489955,learnblock1,942.2000000029802,img/planet13_left.png,13,Community 2,NA,TRUE,f,f,NA,NA,NA,1,6,"15,9,3,14,2,13,7,12,1,5,4,8,6,10,11"
14810,commdev-image-keyboard-response,214,491208,learnblock1,338.79999999701977,img/planet14_left.png,14,Community 1,NA,FALSE,j,f,NA,NA,NA,1,6,"15,9,3,14,2,13,7,12,1,5,4,8,6,10,11"
14810,commdev-image-keyboard-response,215,492467,learnblock1,723,img/planet15_left.png,15,Community 1,NA,TRUE,f,f,NA,NA,NA,1,6,"15,9,3,14,2,13,7,12,1,5,4,8,6,10,11"
14810,commdev-image-keyboard-response,216,493724,learnblock1,562.0999999940395,img/planet14_left.png,14,Community 1,NA,TRUE,f,f,NA,NA,NA,1,6,"15,9,3,14,2,13,7,12,1,5,4,8,6,10,11"
14810,commdev-image-keyboard-response,217,494983,learnblock1,169.70000000298023,img/planet9_left.png,9,Community 1,NA,FALSE,j,f,NA,NA,NA,1,6,"15,9,3,14,2,13,7,12,1,5,4,8,6,10,11"
14810,commdev-image-keyboard-response,218,496242,learnblock1,126.90000000596046,img/planet2_left.png,2,Community 1,NA,FALSE,j,f,NA,NA,NA,1,6,"15,9,3,14,2,13,7,12,1,5,4,8,6,10,11"
14810,commdev-image-keyboard-response,219,497499,learnblock1,207.70000000298023,img/planet15_right.png,15,Community 1,NA,TRUE,j,j,NA,NA,NA,1,6,"15,9,3,14,2,13,7,12,1,5,4,8,6,10,11"
14810,commdev-image-keyboard-response,220,498751,learnblock1,256.70000000298023,img/planet3_right.png,3,Community 1,NA,FALSE,f,j,NA,NA,NA,1,6,"15,9,3,14,2,13,7,12,1,5,4,8,6,10,11"
14810,commdev-image-keyboard-response,221,500005,learnblock1,68.79999999701977,img/planet14_left.png,14,Community 1,NA,TRUE,f,f,NA,NA,NA,1,6,"15,9,3,14,2,13,7,12,1,5,4,8,6,10,11"
14810,commdev-image-keyboard-response,222,501265,learnblock1,13.100000008940697,img/planet9_right.png,9,Community 1,NA,FALSE,f,j,NA,NA,NA,1,6,"15,9,3,14,2,13,7,12,1,5,4,8,6,10,11"
14810,commdev-image-keyboard-response,223,502521,learnblock1,753.1000000089407,img/planet15_left.png,15,Community 1,NA,TRUE,f,f,NA,NA,NA,1,6,"15,9,3,14,2,13,7,12,1,5,4,8,6,10,11"
14810,commdev-image-keyboard-response,224,503775,learnblock1,671.9000000059605,img/planet2_right.png,2,Community 1,NA,TRUE,j,j,NA,NA,NA,1,6,"15,9,3,14,2,13,7,12,1,5,4,8,6,10,11"
14810,commdev-image-keyboard-response,225,505031,learnblock1,779.7000000029802,img/planet3_right.png,3,Community 1,NA,FALSE,f,j,NA,NA,NA,1,6,"15,9,3,14,2,13,7,12,1,5,4,8,6,10,11"
14810,commdev-image-keyboard-response,226,506284,learnblock1,1091.1000000089407,img/planet9_left.png,9,Community 1,NA,FALSE,j,f,NA,NA,NA,1,6,"15,9,3,14,2,13,7,12,1,5,4,8,6,10,11"
14810,commdev-image-keyboard-response,227,507540,learnblock1,null,img/planet15_right.png,15,Community 1,NA,FALSE,null,j,NA,NA,NA,1,6,"15,9,3,14,2,13,7,12,1,5,4,8,6,10,11"
14810,commdev-image-keyboard-response,228,508792,learnblock1,null,img/planet9_right.png,9,Community 1,NA,FALSE,null,j,NA,NA,NA,1,6,"15,9,3,14,2,13,7,12,1,5,4,8,6,10,11"
14810,commdev-image-keyboard-response,229,510052,learnblock1,null,img/planet14_left.png,14,Community 1,NA,FALSE,null,f,NA,NA,NA,1,6,"15,9,3,14,2,13,7,12,1,5,4,8,6,10,11"
14810,commdev-image-keyboard-response,230,511310,learnblock1,256.5,img/planet3_right.png,3,Community 1,NA,FALSE,f,j,NA,NA,NA,1,6,"15,9,3,14,2,13,7,12,1,5,4,8,6,10,11"
14810,commdev-image-keyboard-response,231,512563,learnblock1,8.799999997019768,img/planet2_left.png,2,Community 1,NA,FALSE,j,f,NA,NA,NA,1,6,"15,9,3,14,2,13,7,12,1,5,4,8,6,10,11"
14810,commdev-image-keyboard-response,232,513821,learnblock1,1256.9000000059605,img/planet4_left.png,4,Community 3,NA,TRUE,f,f,NA,NA,NA,1,6,"15,9,3,14,2,13,7,12,1,5,4,8,6,10,11"
14810,commdev-image-keyboard-response,233,515077,learnblock1,966.2000000029802,img/planet6_left.png,6,Community 3,NA,TRUE,f,f,NA,NA,NA,1,6,"15,9,3,14,2,13,7,12,1,5,4,8,6,10,11"
14810,commdev-image-keyboard-response,234,516336,learnblock1,549.8999999910593,img/planet10_left.png,10,Community 3,NA,FALSE,j,f,NA,NA,NA,1,6,"15,9,3,14,2,13,7,12,1,5,4,8,6,10,11"
14810,commdev-image-keyboard-response,235,517591,learnblock1,834.6000000089407,img/planet11_right.png,11,Community 3,NA,TRUE,j,j,NA,NA,NA,1,6,"15,9,3,14,2,13,7,12,1,5,4,8,6,10,11"
14810,commdev-image-keyboard-response,236,518847,learnblock1,640.2000000029802,img/planet4_right.png,4,Community 3,NA,FALSE,f,j,NA,NA,NA,1,6,"15,9,3,14,2,13,7,12,1,5,4,8,6,10,11"
14810,commdev-image-keyboard-response,237,520102,learnblock1,751.7000000029802,img/planet2_right.png,2,Community 1,NA,TRUE,j,j,NA,NA,NA,1,6,"15,9,3,14,2,13,7,12,1,5,4,8,6,10,11"
14810,commdev-image-keyboard-response,238,521360,learnblock1,590.4000000059605,img/planet4_left.png,4,Community 3,NA,TRUE,f,f,NA,NA,NA,1,6,"15,9,3,14,2,13,7,12,1,5,4,8,6,10,11"
14810,commdev-image-keyboard-response,239,522613,learnblock1,6.4000000059604645,img/planet11_right.png,11,Community 3,NA,TRUE,j,j,NA,NA,NA,1,6,"15,9,3,14,2,13,7,12,1,5,4,8,6,10,11"
14810,commdev-image-keyboard-response,240,523872,learnblock1,123.09999999403954,img/planet4_right.png,4,Community 3,NA,FALSE,f,j,NA,NA,NA,1,6,"15,9,3,14,2,13,7,12,1,5,4,8,6,10,11"
14810,commdev-image-keyboard-response,241,525125,learnblock1,264.09999999403954,img/planet11_right.png,11,Community 3,NA,TRUE,j,j,NA,NA,NA,1,6,"15,9,3,14,2,13,7,12,1,5,4,8,6,10,11"
14810,commdev-image-keyboard-response,242,526378,learnblock1,174.79999999701977,img/planet6_left.png,6,Community 3,NA,TRUE,f,f,NA,NA,NA,1,6,"15,9,3,14,2,13,7,12,1,5,4,8,6,10,11"
14810,commdev-image-keyboard-response,243,527630,learnblock1,63.8999999910593,img/planet10_left.png,10,Community 3,NA,FALSE,j,f,NA,NA,NA,1,6,"15,9,3,14,2,13,7,12,1,5,4,8,6,10,11"
14810,commdev-image-keyboard-response,244,528895,learnblock1,260.09999999403954,img/planet4_right.png,4,Community 3,NA,FALSE,f,j,NA,NA,NA,1,6,"15,9,3,14,2,13,7,12,1,5,4,8,6,10,11"
14810,commdev-image-keyboard-response,245,530148,learnblock1,null,img/planet2_left.png,2,Community 1,NA,FALSE,null,f,NA,NA,NA,1,6,"15,9,3,14,2,13,7,12,1,5,4,8,6,10,11"
14810,commdev-image-keyboard-response,246,531408,learnblock1,null,img/planet15_right.png,15,Community 1,NA,FALSE,null,j,NA,NA,NA,1,6,"15,9,3,14,2,13,7,12,1,5,4,8,6,10,11"
14810,commdev-image-keyboard-response,247,532676,learnblock1,null,img/planet2_right.png,2,Community 1,NA,FALSE,null,j,NA,NA,NA,1,6,"15,9,3,14,2,13,7,12,1,5,4,8,6,10,11"
14810,commdev-image-keyboard-response,248,533941,learnblock1,null,img/planet15_left.png,15,Community 1,NA,FALSE,null,f,NA,NA,NA,1,6,"15,9,3,14,2,13,7,12,1,5,4,8,6,10,11"
14810,commdev-image-keyboard-response,249,535202,learnblock1,null,img/planet9_left.png,9,Community 1,NA,FALSE,null,f,NA,NA,NA,1,6,"15,9,3,14,2,13,7,12,1,5,4,8,6,10,11"
14810,commdev-image-keyboard-response,250,536463,learnblock1,729.6000000089407,img/planet3_right.png,3,Community 1,NA,TRUE,j,j,NA,NA,NA,1,6,"15,9,3,14,2,13,7,12,1,5,4,8,6,10,11"
14810,commdev-image-keyboard-response,251,537728,learnblock1,760.6000000089407,img/planet14_right.png,14,Community 1,NA,TRUE,j,j,NA,NA,NA,1,6,"15,9,3,14,2,13,7,12,1,5,4,8,6,10,11"
14810,commdev-image-keyboard-response,252,538981,learnblock1,951.1000000089407,img/planet13_right.png,13,Community 2,NA,TRUE,j,j,NA,NA,NA,1,6,"15,9,3,14,2,13,7,12,1,5,4,8,6,10,11"
14810,commdev-image-keyboard-response,253,540233,learnblock1,752.3999999910593,img/planet14_left.png,14,Community 1,NA,TRUE,f,f,NA,NA,NA,1,6,"15,9,3,14,2,13,7,12,1,5,4,8,6,10,11"
14810,commdev-image-keyboard-response,254,541488,learnblock1,1138.7000000029802,img/planet3_left.png,3,Community 1,NA,TRUE,f,f,NA,NA,NA,1,6,"15,9,3,14,2,13,7,12,1,5,4,8,6,10,11"
14810,commdev-image-keyboard-response,255,542748,learnblock1,643.2000000029802,img/planet2_right.png,2,Community 1,NA,TRUE,j,j,NA,NA,NA,1,6,"15,9,3,14,2,13,7,12,1,5,4,8,6,10,11"
14810,commdev-image-keyboard-response,256,544006,learnblock1,936.9000000059605,img/planet3_left.png,3,Community 1,NA,FALSE,j,f,NA,NA,NA,1,6,"15,9,3,14,2,13,7,12,1,5,4,8,6,10,11"
14810,commdev-image-keyboard-response,257,545264,learnblock1,674.8999999910593,img/planet14_left.png,14,Community 1,NA,FALSE,j,f,NA,NA,NA,1,6,"15,9,3,14,2,13,7,12,1,5,4,8,6,10,11"
14810,commdev-image-keyboard-response,258,546518,learnblock1,614.6999999880791,img/planet13_right.png,13,Community 2,NA,FALSE,f,j,NA,NA,NA,1,6,"15,9,3,14,2,13,7,12,1,5,4,8,6,10,11"
14810,commdev-image-keyboard-response,259,547773,learnblock1,834.1000000089407,img/planet7_right.png,7,Community 2,NA,TRUE,j,j,NA,NA,NA,1,6,"15,9,3,14,2,13,7,12,1,5,4,8,6,10,11"
14810,commdev-image-keyboard-response,260,549030,learnblock1,887.2000000029802,img/planet5_right.png,5,Community 2,NA,FALSE,f,j,NA,NA,NA,1,6,"15,9,3,14,2,13,7,12,1,5,4,8,6,10,11"
14810,commdev-image-keyboard-response,261,550296,learnblock1,785.0999999940395,img/planet7_right.png,7,Community 2,NA,TRUE,j,j,NA,NA,NA,1,6,"15,9,3,14,2,13,7,12,1,5,4,8,6,10,11"
14810,commdev-image-keyboard-response,262,551548,learnblock1,664.2999999970198,img/planet5_left.png,5,Community 2,NA,FALSE,j,f,NA,NA,NA,1,6,"15,9,3,14,2,13,7,12,1,5,4,8,6,10,11"
14810,commdev-image-keyboard-response,263,552802,learnblock1,51.6000000089407,img/planet13_right.png,13,Community 2,NA,FALSE,f,j,NA,NA,NA,1,6,"15,9,3,14,2,13,7,12,1,5,4,8,6,10,11"
14810,commdev-image-keyboard-response,264,554060,learnblock1,48.29999999701977,img/planet7_left.png,7,Community 2,NA,FALSE,j,f,NA,NA,NA,1,6,"15,9,3,14,2,13,7,12,1,5,4,8,6,10,11"
14810,commdev-image-keyboard-response,265,555317,learnblock1,179.3999999910593,img/planet5_right.png,5,Community 2,NA,TRUE,j,j,NA,NA,NA,1,6,"15,9,3,14,2,13,7,12,1,5,4,8,6,10,11"
14810,commdev-image-keyboard-response,266,556576,learnblock1,62.20000000298023,img/planet1_right.png,1,Community 2,NA,FALSE,f,j,NA,NA,NA,1,6,"15,9,3,14,2,13,7,12,1,5,4,8,6,10,11"
14810,commdev-image-keyboard-response,267,557834,learnblock1,2,img/planet12_left.png,12,Community 2,NA,FALSE,j,f,NA,NA,NA,1,6,"15,9,3,14,2,13,7,12,1,5,4,8,6,10,11"
14810,commdev-image-keyboard-response,268,559089,learnblock1,22.799999997019768,img/planet7_left.png,7,Community 2,NA,FALSE,j,f,NA,NA,NA,1,6,"15,9,3,14,2,13,7,12,1,5,4,8,6,10,11"
14810,commdev-image-keyboard-response,269,560341,learnblock1,218,img/planet12_left.png,12,Community 2,NA,TRUE,f,f,NA,NA,NA,1,6,"15,9,3,14,2,13,7,12,1,5,4,8,6,10,11"
14810,commdev-image-keyboard-response,270,561599,learnblock1,155.90000000596046,img/planet7_left.png,7,Community 2,NA,TRUE,f,f,NA,NA,NA,1,6,"15,9,3,14,2,13,7,12,1,5,4,8,6,10,11"
14810,commdev-image-keyboard-response,271,562851,learnblock1,222.20000000298023,img/planet5_right.png,5,Community 2,NA,FALSE,f,j,NA,NA,NA,1,6,"15,9,3,14,2,13,7,12,1,5,4,8,6,10,11"
14810,commdev-image-keyboard-response,272,564110,learnblock1,94.5,img/planet1_right.png,1,Community 2,NA,TRUE,j,j,NA,NA,NA,1,6,"15,9,3,14,2,13,7,12,1,5,4,8,6,10,11"
14810,commdev-image-keyboard-response,273,565369,learnblock1,121.40000000596046,img/planet5_right.png,5,Community 2,NA,FALSE,f,j,NA,NA,NA,1,6,"15,9,3,14,2,13,7,12,1,5,4,8,6,10,11"
14810,commdev-image-keyboard-response,274,566626,learnblock1,39.5,img/planet13_right.png,13,Community 2,NA,FALSE,f,j,NA,NA,NA,1,6,"15,9,3,14,2,13,7,12,1,5,4,8,6,10,11"
14810,commdev-image-keyboard-response,275,567884,learnblock1,29.100000008940697,img/planet5_left.png,5,Community 2,NA,TRUE,f,f,NA,NA,NA,1,6,"15,9,3,14,2,13,7,12,1,5,4,8,6,10,11"
14810,commdev-image-keyboard-response,276,569140,learnblock1,178.69999998807907,img/planet1_left.png,1,Community 2,NA,TRUE,f,f,NA,NA,NA,1,6,"15,9,3,14,2,13,7,12,1,5,4,8,6,10,11"
14810,commdev-image-keyboard-response,277,570393,learnblock1,6.9000000059604645,img/planet7_left.png,7,Community 2,NA,TRUE,f,f,NA,NA,NA,1,6,"15,9,3,14,2,13,7,12,1,5,4,8,6,10,11"
14810,commdev-image-keyboard-response,278,571652,learnblock1,null,img/planet1_left.png,1,Community 2,NA,FALSE,null,f,NA,NA,NA,1,6,"15,9,3,14,2,13,7,12,1,5,4,8,6,10,11"
14810,commdev-image-keyboard-response,279,572912,learnblock1,null,img/planet7_left.png,7,Community 2,NA,FALSE,null,f,NA,NA,NA,1,6,"15,9,3,14,2,13,7,12,1,5,4,8,6,10,11"
14810,commdev-image-keyboard-response,280,574169,learnblock1,777.4000000059605,img/planet12_left.png,12,Community 2,NA,TRUE,f,f,NA,NA,NA,1,6,"15,9,3,14,2,13,7,12,1,5,4,8,6,10,11"
14810,commdev-image-keyboard-response,281,575426,learnblock1,168.19999998807907,img/planet5_right.png,5,Community 2,NA,FALSE,f,j,NA,NA,NA,1,6,"15,9,3,14,2,13,7,12,1,5,4,8,6,10,11"
14810,commdev-image-keyboard-response,282,576680,learnblock1,570.7000000029802,img/planet7_left.png,7,Community 2,NA,FALSE,j,f,NA,NA,NA,1,6,"15,9,3,14,2,13,7,12,1,5,4,8,6,10,11"
14810,commdev-image-keyboard-response,283,577937,learnblock1,111.90000000596046,img/planet5_left.png,5,Community 2,NA,FALSE,j,f,NA,NA,NA,1,6,"15,9,3,14,2,13,7,12,1,5,4,8,6,10,11"
14810,commdev-image-keyboard-response,284,579189,learnblock1,98.70000000298023,img/planet12_right.png,12,Community 2,NA,TRUE,j,j,NA,NA,NA,1,6,"15,9,3,14,2,13,7,12,1,5,4,8,6,10,11"
14810,commdev-image-keyboard-response,285,580445,learnblock1,416,img/planet7_left.png,7,Community 2,NA,TRUE,f,f,NA,NA,NA,1,6,"15,9,3,14,2,13,7,12,1,5,4,8,6,10,11"
14810,commdev-image-keyboard-response,286,581704,learnblock1,730.3999999910593,img/planet1_right.png,1,Community 2,NA,TRUE,j,j,NA,NA,NA,1,6,"15,9,3,14,2,13,7,12,1,5,4,8,6,10,11"
14810,commdev-image-keyboard-response,287,582962,learnblock1,32.70000000298023,img/planet13_right.png,13,Community 2,NA,FALSE,f,j,NA,NA,NA,1,6,"15,9,3,14,2,13,7,12,1,5,4,8,6,10,11"
14810,commdev-image-keyboard-response,288,584215,learnblock1,114.79999999701977,img/planet1_left.png,1,Community 2,NA,FALSE,j,f,NA,NA,NA,1,6,"15,9,3,14,2,13,7,12,1,5,4,8,6,10,11"
14810,commdev-image-keyboard-response,289,585472,learnblock1,null,img/planet12_left.png,12,Community 2,NA,FALSE,null,f,NA,NA,NA,1,6,"15,9,3,14,2,13,7,12,1,5,4,8,6,10,11"
14810,commdev-image-keyboard-response,290,586733,learnblock1,581.2999999970198,img/planet7_right.png,7,Community 2,NA,TRUE,j,j,NA,NA,NA,1,6,"15,9,3,14,2,13,7,12,1,5,4,8,6,10,11"
14810,commdev-image-keyboard-response,291,587991,learnblock1,688.8999999910593,img/planet12_left.png,12,Community 2,NA,TRUE,f,f,NA,NA,NA,1,6,"15,9,3,14,2,13,7,12,1,5,4,8,6,10,11"
14810,commdev-image-keyboard-response,292,589252,learnblock1,565.5,img/planet8_right.png,8,Community 3,NA,TRUE,j,j,NA,NA,NA,1,6,"15,9,3,14,2,13,7,12,1,5,4,8,6,10,11"
14810,commdev-image-keyboard-response,293,590505,learnblock1,435.29999999701977,img/planet12_left.png,12,Community 2,NA,TRUE,f,f,NA,NA,NA,1,6,"15,9,3,14,2,13,7,12,1,5,4,8,6,10,11"
14810,commdev-image-keyboard-response,294,591760,learnblock1,101.1000000089407,img/planet1_right.png,1,Community 2,NA,TRUE,j,j,NA,NA,NA,1,6,"15,9,3,14,2,13,7,12,1,5,4,8,6,10,11"
14810,commdev-image-keyboard-response,295,593018,learnblock1,22.5,img/planet13_left.png,13,Community 2,NA,FALSE,j,f,NA,NA,NA,1,6,"15,9,3,14,2,13,7,12,1,5,4,8,6,10,11"
14810,commdev-image-keyboard-response,296,594276,learnblock1,72.29999999701977,img/planet1_right.png,1,Community 2,NA,TRUE,j,j,NA,NA,NA,1,6,"15,9,3,14,2,13,7,12,1,5,4,8,6,10,11"
14810,commdev-image-keyboard-response,297,595542,learnblock1,174.3999999910593,img/planet13_left.png,13,Community 2,NA,FALSE,j,f,NA,NA,NA,1,6,"15,9,3,14,2,13,7,12,1,5,4,8,6,10,11"
14810,commdev-image-keyboard-response,298,596794,learnblock1,831.7999999970198,img/planet5_left.png,5,Community 2,NA,TRUE,f,f,NA,NA,NA,1,6,"15,9,3,14,2,13,7,12,1,5,4,8,6,10,11"
14810,commdev-image-keyboard-response,299,598052,learnblock1,701.3999999910593,img/planet13_left.png,13,Community 2,NA,TRUE,f,f,NA,NA,NA,1,6,"15,9,3,14,2,13,7,12,1,5,4,8,6,10,11"
14810,commdev-image-keyboard-response,300,599319,learnblock1,373.8999999910593,img/planet1_left.png,1,Community 2,NA,TRUE,f,f,NA,NA,NA,1,6,"15,9,3,14,2,13,7,12,1,5,4,8,6,10,11"
14810,commdev-image-keyboard-response,301,600587,learnblock1,680.2000000029802,img/planet13_left.png,13,Community 2,NA,TRUE,f,f,NA,NA,NA,1,6,"15,9,3,14,2,13,7,12,1,5,4,8,6,10,11"
14810,commdev-image-keyboard-response,302,601839,learnblock1,795.3999999910593,img/planet14_left.png,14,Community 1,NA,TRUE,f,f,NA,NA,NA,1,6,"15,9,3,14,2,13,7,12,1,5,4,8,6,10,11"
14810,commdev-image-keyboard-response,303,603098,learnblock1,641.2000000029802,img/planet15_right.png,15,Community 1,NA,FALSE,f,j,NA,NA,NA,1,6,"15,9,3,14,2,13,7,12,1,5,4,8,6,10,11"
14810,commdev-image-keyboard-response,304,604356,learnblock1,1093.2999999970198,img/planet2_right.png,2,Community 1,NA,TRUE,j,j,NA,NA,NA,1,6,"15,9,3,14,2,13,7,12,1,5,4,8,6,10,11"
14810,commdev-image-keyboard-response,305,605611,learnblock1,468.59999999403954,img/planet3_right.png,3,Community 1,NA,TRUE,j,j,NA,NA,NA,1,6,"15,9,3,14,2,13,7,12,1,5,4,8,6,10,11"
14810,commdev-image-keyboard-response,306,606878,learnblock1,94.6000000089407,img/planet9_right.png,9,Community 1,NA,TRUE,j,j,NA,NA,NA,1,6,"15,9,3,14,2,13,7,12,1,5,4,8,6,10,11"
14810,commdev-image-keyboard-response,307,608137,learnblock1,308.09999999403954,img/planet14_right.png,14,Community 1,NA,FALSE,f,j,NA,NA,NA,1,6,"15,9,3,14,2,13,7,12,1,5,4,8,6,10,11"
14810,commdev-image-keyboard-response,308,609389,learnblock1,155.69999998807907,img/planet9_left.png,9,Community 1,NA,FALSE,j,f,NA,NA,NA,1,6,"15,9,3,14,2,13,7,12,1,5,4,8,6,10,11"
14810,commdev-image-keyboard-response,309,610652,learnblock1,492.59999999403954,img/planet14_right.png,14,Community 1,NA,FALSE,f,j,NA,NA,NA,1,6,"15,9,3,14,2,13,7,12,1,5,4,8,6,10,11"
14810,commdev-image-keyboard-response,310,611910,learnblock1,98.19999998807907,img/planet13_right.png,13,Community 2,NA,TRUE,j,j,NA,NA,NA,1,6,"15,9,3,14,2,13,7,12,1,5,4,8,6,10,11"
14810,commdev-image-keyboard-response,311,613165,learnblock1,54.900000005960464,img/planet14_left.png,14,Community 1,NA,TRUE,f,f,NA,NA,NA,1,6,"15,9,3,14,2,13,7,12,1,5,4,8,6,10,11"
14810,commdev-image-keyboard-response,312,614425,learnblock1,554.2000000029802,img/planet9_right.png,9,Community 1,NA,FALSE,f,j,NA,NA,NA,1,6,"15,9,3,14,2,13,7,12,1,5,4,8,6,10,11"
14810,commdev-image-keyboard-response,313,615682,learnblock1,9.599999994039536,img/planet15_right.png,15,Community 1,NA,TRUE,j,j,NA,NA,NA,1,6,"15,9,3,14,2,13,7,12,1,5,4,8,6,10,11"
14810,commdev-image-keyboard-response,314,616939,learnblock1,188.6000000089407,img/planet2_left.png,2,Community 1,NA,FALSE,j,f,NA,NA,NA,1,6,"15,9,3,14,2,13,7,12,1,5,4,8,6,10,11"
14810,commdev-image-keyboard-response,315,618192,learnblock1,518.1000000089407,img/planet4_left.png,4,Community 3,NA,FALSE,j,f,NA,NA,NA,1,6,"15,9,3,14,2,13,7,12,1,5,4,8,6,10,11"
14810,commdev-image-keyboard-response,316,619445,learnblock1,670.8000000119209,img/planet6_right.png,6,Community 3,NA,TRUE,j,j,NA,NA,NA,1,6,"15,9,3,14,2,13,7,12,1,5,4,8,6,10,11"
14810,commdev-image-keyboard-response,317,620706,learnblock1,365,img/planet10_right.png,10,Community 3,NA,FALSE,f,j,NA,NA,NA,1,6,"15,9,3,14,2,13,7,12,1,5,4,8,6,10,11"
14810,commdev-image-keyboard-response,318,621966,learnblock1,862,img/planet4_right.png,4,Community 3,NA,FALSE,f,j,NA,NA,NA,1,6,"15,9,3,14,2,13,7,12,1,5,4,8,6,10,11"
14810,commdev-image-keyboard-response,319,623224,learnblock1,87.79999999701977,img/planet10_right.png,10,Community 3,NA,TRUE,j,j,NA,NA,NA,1,6,"15,9,3,14,2,13,7,12,1,5,4,8,6,10,11"
14810,commdev-image-keyboard-response,320,624476,learnblock1,423.6000000089407,img/planet6_left.png,6,Community 3,NA,FALSE,j,f,NA,NA,NA,1,6,"15,9,3,14,2,13,7,12,1,5,4,8,6,10,11"
14810,commdev-image-keyboard-response,321,625734,learnblock1,109,img/planet10_right.png,10,Community 3,NA,FALSE,f,j,NA,NA,NA,1,6,"15,9,3,14,2,13,7,12,1,5,4,8,6,10,11"
14810,commdev-image-keyboard-response,322,626986,learnblock1,148,img/planet4_right.png,4,Community 3,NA,TRUE,j,j,NA,NA,NA,1,6,"15,9,3,14,2,13,7,12,1,5,4,8,6,10,11"
14810,commdev-image-keyboard-response,323,628239,learnblock1,69.20000000298023,img/planet6_left.png,6,Community 3,NA,TRUE,f,f,NA,NA,NA,1,6,"15,9,3,14,2,13,7,12,1,5,4,8,6,10,11"
14810,commdev-image-keyboard-response,324,629497,learnblock1,1,img/planet4_right.png,4,Community 3,NA,TRUE,j,j,NA,NA,NA,1,6,"15,9,3,14,2,13,7,12,1,5,4,8,6,10,11"
14810,commdev-image-keyboard-response,325,630754,learnblock1,104.40000000596046,img/planet11_left.png,11,Community 3,NA,TRUE,f,f,NA,NA,NA,1,6,"15,9,3,14,2,13,7,12,1,5,4,8,6,10,11"
14810,commdev-image-keyboard-response,326,632013,learnblock1,56.5,img/planet4_left.png,4,Community 3,NA,TRUE,f,f,NA,NA,NA,1,6,"15,9,3,14,2,13,7,12,1,5,4,8,6,10,11"
14810,commdev-image-keyboard-response,327,633266,learnblock1,275.40000000596046,img/planet2_right.png,2,Community 1,NA,FALSE,f,j,NA,NA,NA,1,6,"15,9,3,14,2,13,7,12,1,5,4,8,6,10,11"
14810,commdev-image-keyboard-response,328,634527,learnblock1,30.200000002980232,img/planet15_right.png,15,Community 1,NA,TRUE,j,j,NA,NA,NA,1,6,"15,9,3,14,2,13,7,12,1,5,4,8,6,10,11"
14810,commdev-image-keyboard-response,329,635783,learnblock1,135.1000000089407,img/planet9_right.png,9,Community 1,NA,FALSE,f,j,NA,NA,NA,1,6,"15,9,3,14,2,13,7,12,1,5,4,8,6,10,11"
14810,commdev-image-keyboard-response,330,637041,learnblock1,1.7000000029802322,img/planet2_left.png,2,Community 1,NA,TRUE,f,f,NA,NA,NA,1,6,"15,9,3,14,2,13,7,12,1,5,4,8,6,10,11"
14810,commdev-image-keyboard-response,331,638300,learnblock1,163.20000000298023,img/planet4_right.png,4,Community 3,NA,TRUE,j,j,NA,NA,NA,1,6,"15,9,3,14,2,13,7,12,1,5,4,8,6,10,11"
14810,commdev-image-keyboard-response,332,639558,learnblock1,157.40000000596046,img/planet2_left.png,2,Community 1,NA,FALSE,j,f,NA,NA,NA,1,6,"15,9,3,14,2,13,7,12,1,5,4,8,6,10,11"
14810,commdev-image-keyboard-response,333,640822,learnblock1,138.6000000089407,img/planet15_right.png,15,Community 1,NA,TRUE,j,j,NA,NA,NA,1,6,"15,9,3,14,2,13,7,12,1,5,4,8,6,10,11"
14810,commdev-image-keyboard-response,334,642078,learnblock1,101.59999999403954,img/planet9_left.png,9,Community 1,NA,FALSE,j,f,NA,NA,NA,1,6,"15,9,3,14,2,13,7,12,1,5,4,8,6,10,11"
14810,commdev-image-keyboard-response,335,643336,learnblock1,null,img/planet14_left.png,14,Community 1,NA,FALSE,null,f,NA,NA,NA,1,6,"15,9,3,14,2,13,7,12,1,5,4,8,6,10,11"
14810,commdev-image-keyboard-response,336,644596,learnblock1,null,img/planet9_right.png,9,Community 1,NA,FALSE,null,j,NA,NA,NA,1,6,"15,9,3,14,2,13,7,12,1,5,4,8,6,10,11"
14810,commdev-image-keyboard-response,337,645850,learnblock1,287.29999999701977,img/planet14_right.png,14,Community 1,NA,TRUE,j,j,NA,NA,NA,1,6,"15,9,3,14,2,13,7,12,1,5,4,8,6,10,11"
14810,commdev-image-keyboard-response,338,647108,learnblock1,57.29999999701977,img/planet15_right.png,15,Community 1,NA,TRUE,j,j,NA,NA,NA,1,6,"15,9,3,14,2,13,7,12,1,5,4,8,6,10,11"
14810,commdev-image-keyboard-response,339,648365,learnblock1,136.70000000298023,img/planet2_left.png,2,Community 1,NA,TRUE,f,f,NA,NA,NA,1,6,"15,9,3,14,2,13,7,12,1,5,4,8,6,10,11"
14810,commdev-image-keyboard-response,340,649619,learnblock1,746,img/planet15_left.png,15,Community 1,NA,TRUE,f,f,NA,NA,NA,1,6,"15,9,3,14,2,13,7,12,1,5,4,8,6,10,11"
14810,commdev-image-keyboard-response,341,650871,learnblock1,null,img/planet2_right.png,2,Community 1,NA,FALSE,null,j,NA,NA,NA,1,6,"15,9,3,14,2,13,7,12,1,5,4,8,6,10,11"
14810,commdev-image-keyboard-response,342,652131,learnblock1,null,img/planet9_left.png,9,Community 1,NA,FALSE,null,f,NA,NA,NA,1,6,"15,9,3,14,2,13,7,12,1,5,4,8,6,10,11"
14810,commdev-image-keyboard-response,343,653391,learnblock1,null,img/planet2_left.png,2,Community 1,NA,FALSE,null,f,NA,NA,NA,1,6,"15,9,3,14,2,13,7,12,1,5,4,8,6,10,11"
14810,commdev-image-keyboard-response,344,654653,learnblock1,null,img/planet3_right.png,3,Community 1,NA,FALSE,null,j,NA,NA,NA,1,6,"15,9,3,14,2,13,7,12,1,5,4,8,6,10,11"
14810,commdev-image-keyboard-response,345,655912,learnblock1,null,img/planet14_right.png,14,Community 1,NA,FALSE,null,j,NA,NA,NA,1,6,"15,9,3,14,2,13,7,12,1,5,4,8,6,10,11"
14810,commdev-image-keyboard-response,346,657164,learnblock1,46.20000000298023,img/planet9_left.png,9,Community 1,NA,FALSE,j,f,NA,NA,NA,1,6,"15,9,3,14,2,13,7,12,1,5,4,8,6,10,11"
14810,commdev-image-keyboard-response,347,658418,learnblock1,null,img/planet14_right.png,14,Community 1,NA,FALSE,null,j,NA,NA,NA,1,6,"15,9,3,14,2,13,7,12,1,5,4,8,6,10,11"
14810,commdev-image-keyboard-response,351,715076,learnblock2,889.5999999940395,img/planet11_right.png,11,Community 3,NA,TRUE,j,j,NA,NA,NA,1,6,"15,9,3,14,2,13,7,12,1,5,4,8,6,10,11"
14810,commdev-image-keyboard-response,352,716331,learnblock2,769.2999999970198,img/planet8_right.png,8,Community 3,NA,TRUE,j,j,NA,NA,NA,1,6,"15,9,3,14,2,13,7,12,1,5,4,8,6,10,11"
14810,commdev-image-keyboard-response,353,717592,learnblock2,684,img/planet10_right.png,10,Community 3,NA,TRUE,j,j,NA,NA,NA,1,6,"15,9,3,14,2,13,7,12,1,5,4,8,6,10,11"
14810,commdev-image-keyboard-response,354,718848,learnblock2,689.0999999940395,img/planet6_right.png,6,Community 3,NA,TRUE,j,j,NA,NA,NA,1,6,"15,9,3,14,2,13,7,12,1,5,4,8,6,10,11"
14810,commdev-image-keyboard-response,355,720102,learnblock2,631.3999999910593,img/planet4_left.png,4,Community 3,NA,TRUE,f,f,NA,NA,NA,1,6,"15,9,3,14,2,13,7,12,1,5,4,8,6,10,11"
14810,commdev-image-keyboard-response,356,721357,learnblock2,492.5,img/planet11_left.png,11,Community 3,NA,FALSE,j,f,NA,NA,NA,1,6,"15,9,3,14,2,13,7,12,1,5,4,8,6,10,11"
14810,commdev-image-keyboard-response,357,722616,learnblock2,151.19999998807907,img/planet8_left.png,8,Community 3,NA,TRUE,f,f,NA,NA,NA,1,6,"15,9,3,14,2,13,7,12,1,5,4,8,6,10,11"
14810,commdev-image-keyboard-response,358,723879,learnblock2,178.20000000298023,img/planet10_right.png,10,Community 3,NA,TRUE,j,j,NA,NA,NA,1,6,"15,9,3,14,2,13,7,12,1,5,4,8,6,10,11"
14810,commdev-image-keyboard-response,359,725137,learnblock2,138.29999999701977,img/planet8_right.png,8,Community 3,NA,FALSE,f,j,NA,NA,NA,1,6,"15,9,3,14,2,13,7,12,1,5,4,8,6,10,11"
14810,commdev-image-keyboard-response,360,726393,learnblock2,223.20000000298023,img/planet12_left.png,12,Community 2,NA,FALSE,j,f,NA,NA,NA,1,6,"15,9,3,14,2,13,7,12,1,5,4,8,6,10,11"
14810,commdev-image-keyboard-response,361,727651,learnblock2,694.2999999970198,img/planet1_right.png,1,Community 2,NA,FALSE,f,j,NA,NA,NA,1,6,"15,9,3,14,2,13,7,12,1,5,4,8,6,10,11"
14810,commdev-image-keyboard-response,362,728911,learnblock2,834,img/planet5_left.png,5,Community 2,NA,TRUE,f,f,NA,NA,NA,1,6,"15,9,3,14,2,13,7,12,1,5,4,8,6,10,11"
14810,commdev-image-keyboard-response,363,730163,learnblock2,728.2000000029802,img/planet12_left.png,12,Community 2,NA,TRUE,f,f,NA,NA,NA,1,6,"15,9,3,14,2,13,7,12,1,5,4,8,6,10,11"
14810,commdev-image-keyboard-response,364,731422,learnblock2,673.3999999910593,img/planet5_right.png,5,Community 2,NA,TRUE,j,j,NA,NA,NA,1,6,"15,9,3,14,2,13,7,12,1,5,4,8,6,10,11"
14810,commdev-image-keyboard-response,365,732688,learnblock2,680.4000000059605,img/planet13_right.png,13,Community 2,NA,TRUE,j,j,NA,NA,NA,1,6,"15,9,3,14,2,13,7,12,1,5,4,8,6,10,11"
14810,commdev-image-keyboard-response,366,733941,learnblock2,686.8999999910593,img/planet5_right.png,5,Community 2,NA,TRUE,j,j,NA,NA,NA,1,6,"15,9,3,14,2,13,7,12,1,5,4,8,6,10,11"
14810,commdev-image-keyboard-response,367,735194,learnblock2,568.2999999970198,img/planet7_left.png,7,Community 2,NA,TRUE,f,f,NA,NA,NA,1,6,"15,9,3,14,2,13,7,12,1,5,4,8,6,10,11"
14810,commdev-image-keyboard-response,368,736453,learnblock2,559.7000000029802,img/planet5_right.png,5,Community 2,NA,TRUE,j,j,NA,NA,NA,1,6,"15,9,3,14,2,13,7,12,1,5,4,8,6,10,11"
14810,commdev-image-keyboard-response,369,737709,learnblock2,582.6000000089407,img/planet7_left.png,7,Community 2,NA,TRUE,f,f,NA,NA,NA,1,6,"15,9,3,14,2,13,7,12,1,5,4,8,6,10,11"
14810,commdev-image-keyboard-response,370,738963,learnblock2,715.4000000059605,img/planet12_left.png,12,Community 2,NA,TRUE,f,f,NA,NA,NA,1,6,"15,9,3,14,2,13,7,12,1,5,4,8,6,10,11"
14810,commdev-image-keyboard-response,371,740222,learnblock2,595.8999999910593,img/planet8_right.png,8,Community 3,NA,TRUE,j,j,NA,NA,NA,1,6,"15,9,3,14,2,13,7,12,1,5,4,8,6,10,11"
14810,commdev-image-keyboard-response,372,741479,learnblock2,333.70000000298023,img/planet10_right.png,10,Community 3,NA,FALSE,f,j,NA,NA,NA,1,6,"15,9,3,14,2,13,7,12,1,5,4,8,6,10,11"
14810,commdev-image-keyboard-response,373,742731,learnblock2,371.90000000596046,img/planet11_right.png,11,Community 3,NA,TRUE,j,j,NA,NA,NA,1,6,"15,9,3,14,2,13,7,12,1,5,4,8,6,10,11"
14810,commdev-image-keyboard-response,374,743990,learnblock2,63.80000001192093,img/planet10_right.png,10,Community 3,NA,TRUE,j,j,NA,NA,NA,1,6,"15,9,3,14,2,13,7,12,1,5,4,8,6,10,11"
14810,commdev-image-keyboard-response,375,745247,learnblock2,297.90000000596046,img/planet4_left.png,4,Community 3,NA,FALSE,j,f,NA,NA,NA,1,6,"15,9,3,14,2,13,7,12,1,5,4,8,6,10,11"
14810,commdev-image-keyboard-response,376,746506,learnblock2,39.19999998807907,img/planet6_left.png,6,Community 3,NA,TRUE,f,f,NA,NA,NA,1,6,"15,9,3,14,2,13,7,12,1,5,4,8,6,10,11"
14810,commdev-image-keyboard-response,377,747764,learnblock2,156.29999999701977,img/planet11_right.png,11,Community 3,NA,FALSE,f,j,NA,NA,NA,1,6,"15,9,3,14,2,13,7,12,1,5,4,8,6,10,11"
14810,commdev-image-keyboard-response,378,749018,learnblock2,56.20000000298023,img/planet6_right.png,6,Community 3,NA,TRUE,j,j,NA,NA,NA,1,6,"15,9,3,14,2,13,7,12,1,5,4,8,6,10,11"
14810,commdev-image-keyboard-response,379,750277,learnblock2,6.600000008940697,img/planet10_right.png,10,Community 3,NA,TRUE,j,j,NA,NA,NA,1,6,"15,9,3,14,2,13,7,12,1,5,4,8,6,10,11"
14810,commdev-image-keyboard-response,380,751534,learnblock2,178.5,img/planet6_left.png,6,Community 3,NA,FALSE,j,f,NA,NA,NA,1,6,"15,9,3,14,2,13,7,12,1,5,4,8,6,10,11"
14810,commdev-image-keyboard-response,381,752786,learnblock2,2.7000000029802322,img/planet4_left.png,4,Community 3,NA,TRUE,f,f,NA,NA,NA,1,6,"15,9,3,14,2,13,7,12,1,5,4,8,6,10,11"
14810,commdev-image-keyboard-response,382,754041,learnblock2,107.90000000596046,img/planet2_right.png,2,Community 1,NA,TRUE,j,j,NA,NA,NA,1,6,"15,9,3,14,2,13,7,12,1,5,4,8,6,10,11"
14810,commdev-image-keyboard-response,383,755294,learnblock2,248.70000000298023,img/planet9_left.png,9,Community 1,NA,TRUE,f,f,NA,NA,NA,1,6,"15,9,3,14,2,13,7,12,1,5,4,8,6,10,11"
14810,commdev-image-keyboard-response,384,756551,learnblock2,210.59999999403954,img/planet15_right.png,15,Community 1,NA,TRUE,j,j,NA,NA,NA,1,6,"15,9,3,14,2,13,7,12,1,5,4,8,6,10,11"
14810,commdev-image-keyboard-response,385,757816,learnblock2,32.099999994039536,img/planet14_right.png,14,Community 1,NA,TRUE,j,j,NA,NA,NA,1,6,"15,9,3,14,2,13,7,12,1,5,4,8,6,10,11"
14810,commdev-image-keyboard-response,386,759075,learnblock2,511.8999999910593,img/planet9_right.png,9,Community 1,NA,TRUE,j,j,NA,NA,NA,1,6,"15,9,3,14,2,13,7,12,1,5,4,8,6,10,11"
14810,commdev-image-keyboard-response,387,760327,learnblock2,64.90000000596046,img/planet2_right.png,2,Community 1,NA,TRUE,j,j,NA,NA,NA,1,6,"15,9,3,14,2,13,7,12,1,5,4,8,6,10,11"
14810,commdev-image-keyboard-response,388,761582,learnblock2,8.099999994039536,img/planet9_right.png,9,Community 1,NA,TRUE,j,j,NA,NA,NA,1,6,"15,9,3,14,2,13,7,12,1,5,4,8,6,10,11"
14810,commdev-image-keyboard-response,389,762839,learnblock2,158.09999999403954,img/planet3_left.png,3,Community 1,NA,FALSE,j,f,NA,NA,NA,1,6,"15,9,3,14,2,13,7,12,1,5,4,8,6,10,11"
14810,commdev-image-keyboard-response,390,764094,learnblock2,319.6000000089407,img/planet15_left.png,15,Community 1,NA,TRUE,f,f,NA,NA,NA,1,6,"15,9,3,14,2,13,7,12,1,5,4,8,6,10,11"
14810,commdev-image-keyboard-response,391,765348,learnblock2,28.700000002980232,img/planet14_right.png,14,Community 1,NA,FALSE,f,j,NA,NA,NA,1,6,"15,9,3,14,2,13,7,12,1,5,4,8,6,10,11"
14810,commdev-image-keyboard-response,392,766605,learnblock2,106.59999999403954,img/planet9_right.png,9,Community 1,NA,TRUE,j,j,NA,NA,NA,1,6,"15,9,3,14,2,13,7,12,1,5,4,8,6,10,11"
14810,commdev-image-keyboard-response,393,767859,learnblock2,6.899999991059303,img/planet15_right.png,15,Community 1,NA,TRUE,j,j,NA,NA,NA,1,6,"15,9,3,14,2,13,7,12,1,5,4,8,6,10,11"
14810,commdev-image-keyboard-response,394,769116,learnblock2,51.80000001192093,img/planet3_left.png,3,Community 1,NA,TRUE,f,f,NA,NA,NA,1,6,"15,9,3,14,2,13,7,12,1,5,4,8,6,10,11"
14810,commdev-image-keyboard-response,395,770375,learnblock2,264.3999999910593,img/planet9_right.png,9,Community 1,NA,TRUE,j,j,NA,NA,NA,1,6,"15,9,3,14,2,13,7,12,1,5,4,8,6,10,11"
14810,commdev-image-keyboard-response,396,771627,learnblock2,717.9000000059605,img/planet3_left.png,3,Community 1,NA,TRUE,f,f,NA,NA,NA,1,6,"15,9,3,14,2,13,7,12,1,5,4,8,6,10,11"
14810,commdev-image-keyboard-response,397,772887,learnblock2,470.3999999910593,img/planet2_left.png,2,Community 1,NA,FALSE,j,f,NA,NA,NA,1,6,"15,9,3,14,2,13,7,12,1,5,4,8,6,10,11"
14810,commdev-image-keyboard-response,398,774155,learnblock2,772.6000000089407,img/planet9_right.png,9,Community 1,NA,TRUE,j,j,NA,NA,NA,1,6,"15,9,3,14,2,13,7,12,1,5,4,8,6,10,11"
14810,commdev-image-keyboard-response,399,775412,learnblock2,526.0999999940395,img/planet3_left.png,3,Community 1,NA,TRUE,f,f,NA,NA,NA,1,6,"15,9,3,14,2,13,7,12,1,5,4,8,6,10,11"
14810,commdev-image-keyboard-response,400,776666,learnblock2,717.7999999970198,img/planet14_left.png,14,Community 1,NA,TRUE,f,f,NA,NA,NA,1,6,"15,9,3,14,2,13,7,12,1,5,4,8,6,10,11"
14810,commdev-image-keyboard-response,401,777923,learnblock2,419.29999999701977,img/planet3_left.png,3,Community 1,NA,TRUE,f,f,NA,NA,NA,1,6,"15,9,3,14,2,13,7,12,1,5,4,8,6,10,11"
14810,commdev-image-keyboard-response,402,779175,learnblock2,149.20000000298023,img/planet9_right.png,9,Community 1,NA,FALSE,f,j,NA,NA,NA,1,6,"15,9,3,14,2,13,7,12,1,5,4,8,6,10,11"
14810,commdev-image-keyboard-response,403,780431,learnblock2,16.400000005960464,img/planet3_right.png,3,Community 1,NA,TRUE,j,j,NA,NA,NA,1,6,"15,9,3,14,2,13,7,12,1,5,4,8,6,10,11"
14810,commdev-image-keyboard-response,404,781683,learnblock2,179.59999999403954,img/planet2_right.png,2,Community 1,NA,TRUE,j,j,NA,NA,NA,1,6,"15,9,3,14,2,13,7,12,1,5,4,8,6,10,11"
14810,commdev-image-keyboard-response,405,782937,learnblock2,2.1000000089406967,img/planet15_right.png,15,Community 1,NA,TRUE,j,j,NA,NA,NA,1,6,"15,9,3,14,2,13,7,12,1,5,4,8,6,10,11"
14810,commdev-image-keyboard-response,406,784196,learnblock2,335.79999999701977,img/planet2_right.png,2,Community 1,NA,TRUE,j,j,NA,NA,NA,1,6,"15,9,3,14,2,13,7,12,1,5,4,8,6,10,11"
14810,commdev-image-keyboard-response,407,785451,learnblock2,126.5,img/planet9_left.png,9,Community 1,NA,TRUE,f,f,NA,NA,NA,1,6,"15,9,3,14,2,13,7,12,1,5,4,8,6,10,11"
14810,commdev-image-keyboard-response,408,786704,learnblock2,214.40000000596046,img/planet3_right.png,3,Community 1,NA,FALSE,f,j,NA,NA,NA,1,6,"15,9,3,14,2,13,7,12,1,5,4,8,6,10,11"
14810,commdev-image-keyboard-response,409,787956,learnblock2,112.5,img/planet15_left.png,15,Community 1,NA,FALSE,j,f,NA,NA,NA,1,6,"15,9,3,14,2,13,7,12,1,5,4,8,6,10,11"
14810,commdev-image-keyboard-response,410,789222,learnblock2,63.79999999701977,img/planet3_left.png,3,Community 1,NA,FALSE,j,f,NA,NA,NA,1,6,"15,9,3,14,2,13,7,12,1,5,4,8,6,10,11"
14810,commdev-image-keyboard-response,411,790484,learnblock2,9.200000002980232,img/planet15_left.png,15,Community 1,NA,FALSE,j,f,NA,NA,NA,1,6,"15,9,3,14,2,13,7,12,1,5,4,8,6,10,11"
14810,commdev-image-keyboard-response,412,791742,learnblock2,218.40000000596046,img/planet14_right.png,14,Community 1,NA,TRUE,j,j,NA,NA,NA,1,6,"15,9,3,14,2,13,7,12,1,5,4,8,6,10,11"
14810,commdev-image-keyboard-response,413,792997,learnblock2,32.30000001192093,img/planet13_right.png,13,Community 2,NA,TRUE,j,j,NA,NA,NA,1,6,"15,9,3,14,2,13,7,12,1,5,4,8,6,10,11"
14810,commdev-image-keyboard-response,414,794255,learnblock2,127.20000000298023,img/planet14_left.png,14,Community 1,NA,FALSE,j,f,NA,NA,NA,1,6,"15,9,3,14,2,13,7,12,1,5,4,8,6,10,11"
14810,commdev-image-keyboard-response,415,795511,learnblock2,3.7000000029802322,img/planet13_right.png,13,Community 2,NA,TRUE,j,j,NA,NA,NA,1,6,"15,9,3,14,2,13,7,12,1,5,4,8,6,10,11"
14810,commdev-image-keyboard-response,416,796770,learnblock2,79.5,img/planet1_right.png,1,Community 2,NA,TRUE,j,j,NA,NA,NA,1,6,"15,9,3,14,2,13,7,12,1,5,4,8,6,10,11"
14810,commdev-image-keyboard-response,417,798037,learnblock2,238,img/planet5_right.png,5,Community 2,NA,TRUE,j,j,NA,NA,NA,1,6,"15,9,3,14,2,13,7,12,1,5,4,8,6,10,11"
14810,commdev-image-keyboard-response,418,799297,learnblock2,127.6000000089407,img/planet1_right.png,1,Community 2,NA,TRUE,j,j,NA,NA,NA,1,6,"15,9,3,14,2,13,7,12,1,5,4,8,6,10,11"
14810,commdev-image-keyboard-response,419,800554,learnblock2,63.79999999701977,img/planet13_left.png,13,Community 2,NA,FALSE,j,f,NA,NA,NA,1,6,"15,9,3,14,2,13,7,12,1,5,4,8,6,10,11"
14810,commdev-image-keyboard-response,420,801806,learnblock2,756,img/planet14_right.png,14,Community 1,NA,TRUE,j,j,NA,NA,NA,1,6,"15,9,3,14,2,13,7,12,1,5,4,8,6,10,11"
14810,commdev-image-keyboard-response,421,803065,learnblock2,133,img/planet13_left.png,13,Community 2,NA,FALSE,j,f,NA,NA,NA,1,6,"15,9,3,14,2,13,7,12,1,5,4,8,6,10,11"
14810,commdev-image-keyboard-response,422,804324,learnblock2,592.5999999940395,img/planet1_right.png,1,Community 2,NA,TRUE,j,j,NA,NA,NA,1,6,"15,9,3,14,2,13,7,12,1,5,4,8,6,10,11"
14810,commdev-image-keyboard-response,423,805582,learnblock2,775.5,img/planet12_right.png,12,Community 2,NA,FALSE,f,j,NA,NA,NA,1,6,"15,9,3,14,2,13,7,12,1,5,4,8,6,10,11"
14810,commdev-image-keyboard-response,424,806836,learnblock2,803.2999999970198,img/planet1_left.png,1,Community 2,NA,TRUE,f,f,NA,NA,NA,1,6,"15,9,3,14,2,13,7,12,1,5,4,8,6,10,11"
14810,commdev-image-keyboard-response,425,808100,learnblock2,635.4000000059605,img/planet13_right.png,13,Community 2,NA,TRUE,j,j,NA,NA,NA,1,6,"15,9,3,14,2,13,7,12,1,5,4,8,6,10,11"
14810,commdev-image-keyboard-response,426,809352,learnblock2,698.5,img/planet7_right.png,7,Community 2,NA,FALSE,f,j,NA,NA,NA,1,6,"15,9,3,14,2,13,7,12,1,5,4,8,6,10,11"
14810,commdev-image-keyboard-response,427,810612,learnblock2,688.1000000089407,img/planet13_right.png,13,Community 2,NA,TRUE,j,j,NA,NA,NA,1,6,"15,9,3,14,2,13,7,12,1,5,4,8,6,10,11"
14810,commdev-image-keyboard-response,428,811865,learnblock2,17.900000005960464,img/planet1_left.png,1,Community 2,NA,TRUE,f,f,NA,NA,NA,1,6,"15,9,3,14,2,13,7,12,1,5,4,8,6,10,11"
14810,commdev-image-keyboard-response,429,813117,learnblock2,13.200000002980232,img/planet7_right.png,7,Community 2,NA,TRUE,j,j,NA,NA,NA,1,6,"15,9,3,14,2,13,7,12,1,5,4,8,6,10,11"
14810,commdev-image-keyboard-response,430,814373,learnblock2,149.79999999701977,img/planet12_left.png,12,Community 2,NA,TRUE,f,f,NA,NA,NA,1,6,"15,9,3,14,2,13,7,12,1,5,4,8,6,10,11"
14810,commdev-image-keyboard-response,431,815632,learnblock2,216.6000000089407,img/planet7_right.png,7,Community 2,NA,FALSE,f,j,NA,NA,NA,1,6,"15,9,3,14,2,13,7,12,1,5,4,8,6,10,11"
14810,commdev-image-keyboard-response,432,816891,learnblock2,276.40000000596046,img/planet12_right.png,12,Community 2,NA,TRUE,j,j,NA,NA,NA,1,6,"15,9,3,14,2,13,7,12,1,5,4,8,6,10,11"
14810,commdev-image-keyboard-response,433,818147,learnblock2,283,img/planet8_left.png,8,Community 3,NA,TRUE,f,f,NA,NA,NA,1,6,"15,9,3,14,2,13,7,12,1,5,4,8,6,10,11"
14810,commdev-image-keyboard-response,434,819400,learnblock2,68.30000001192093,img/planet11_left.png,11,Community 3,NA,TRUE,f,f,NA,NA,NA,1,6,"15,9,3,14,2,13,7,12,1,5,4,8,6,10,11"
14810,commdev-image-keyboard-response,435,820655,learnblock2,194.79999999701977,img/planet10_right.png,10,Community 3,NA,FALSE,f,j,NA,NA,NA,1,6,"15,9,3,14,2,13,7,12,1,5,4,8,6,10,11"
14810,commdev-image-keyboard-response,436,821922,learnblock2,33.6000000089407,img/planet11_right.png,11,Community 3,NA,TRUE,j,j,NA,NA,NA,1,6,"15,9,3,14,2,13,7,12,1,5,4,8,6,10,11"
14810,commdev-image-keyboard-response,437,823179,learnblock2,143.19999998807907,img/planet10_left.png,10,Community 3,NA,TRUE,f,f,NA,NA,NA,1,6,"15,9,3,14,2,13,7,12,1,5,4,8,6,10,11"
14810,commdev-image-keyboard-response,438,824439,learnblock2,531.7000000029802,img/planet6_left.png,6,Community 3,NA,TRUE,f,f,NA,NA,NA,1,6,"15,9,3,14,2,13,7,12,1,5,4,8,6,10,11"
14810,commdev-image-keyboard-response,439,825696,learnblock2,114.1000000089407,img/planet10_right.png,10,Community 3,NA,TRUE,j,j,NA,NA,NA,1,6,"15,9,3,14,2,13,7,12,1,5,4,8,6,10,11"
14810,commdev-image-keyboard-response,440,826950,learnblock2,35.70000000298023,img/planet4_left.png,4,Community 3,NA,TRUE,f,f,NA,NA,NA,1,6,"15,9,3,14,2,13,7,12,1,5,4,8,6,10,11"
14810,commdev-image-keyboard-response,441,828208,learnblock2,37.20000000298023,img/planet11_left.png,11,Community 3,NA,TRUE,f,f,NA,NA,NA,1,6,"15,9,3,14,2,13,7,12,1,5,4,8,6,10,11"
14810,commdev-image-keyboard-response,442,829466,learnblock2,312.79999999701977,img/planet4_left.png,4,Community 3,NA,FALSE,j,f,NA,NA,NA,1,6,"15,9,3,14,2,13,7,12,1,5,4,8,6,10,11"
14810,commdev-image-keyboard-response,443,830722,learnblock2,252.40000000596046,img/planet10_right.png,10,Community 3,NA,TRUE,j,j,NA,NA,NA,1,6,"15,9,3,14,2,13,7,12,1,5,4,8,6,10,11"
14810,commdev-image-keyboard-response,444,831976,learnblock2,133.29999999701977,img/planet8_right.png,8,Community 3,NA,TRUE,j,j,NA,NA,NA,1,6,"15,9,3,14,2,13,7,12,1,5,4,8,6,10,11"
14810,commdev-image-keyboard-response,445,833228,learnblock2,215.40000000596046,img/planet11_left.png,11,Community 3,NA,FALSE,j,f,NA,NA,NA,1,6,"15,9,3,14,2,13,7,12,1,5,4,8,6,10,11"
14810,commdev-image-keyboard-response,446,834483,learnblock2,70.70000000298023,img/planet4_left.png,4,Community 3,NA,FALSE,j,f,NA,NA,NA,1,6,"15,9,3,14,2,13,7,12,1,5,4,8,6,10,11"
14810,commdev-image-keyboard-response,447,835738,learnblock2,733.6000000089407,img/planet6_right.png,6,Community 3,NA,FALSE,f,j,NA,NA,NA,1,6,"15,9,3,14,2,13,7,12,1,5,4,8,6,10,11"
14810,commdev-image-keyboard-response,448,836994,learnblock2,774.5,img/planet8_right.png,8,Community 3,NA,TRUE,j,j,NA,NA,NA,1,6,"15,9,3,14,2,13,7,12,1,5,4,8,6,10,11"
14810,commdev-image-keyboard-response,449,838251,learnblock2,517.5999999940395,img/planet10_left.png,10,Community 3,NA,TRUE,f,f,NA,NA,NA,1,6,"15,9,3,14,2,13,7,12,1,5,4,8,6,10,11"
14810,commdev-image-keyboard-response,450,839512,learnblock2,406.20000000298023,img/planet8_right.png,8,Community 3,NA,TRUE,j,j,NA,NA,NA,1,6,"15,9,3,14,2,13,7,12,1,5,4,8,6,10,11"
14810,commdev-image-keyboard-response,451,840766,learnblock2,691.7999999970198,img/planet11_left.png,11,Community 3,NA,TRUE,f,f,NA,NA,NA,1,6,"15,9,3,14,2,13,7,12,1,5,4,8,6,10,11"
14810,commdev-image-keyboard-response,452,842031,learnblock2,678.4000000059605,img/planet8_left.png,8,Community 3,NA,FALSE,j,f,NA,NA,NA,1,6,"15,9,3,14,2,13,7,12,1,5,4,8,6,10,11"
14810,commdev-image-keyboard-response,453,843283,learnblock2,641,img/planet12_right.png,12,Community 2,NA,FALSE,f,j,NA,NA,NA,1,6,"15,9,3,14,2,13,7,12,1,5,4,8,6,10,11"
14810,commdev-image-keyboard-response,454,844536,learnblock2,858.7999999970198,img/planet7_left.png,7,Community 2,NA,TRUE,f,f,NA,NA,NA,1,6,"15,9,3,14,2,13,7,12,1,5,4,8,6,10,11"
14810,commdev-image-keyboard-response,455,845794,learnblock2,682.7000000029802,img/planet12_left.png,12,Community 2,NA,TRUE,f,f,NA,NA,NA,1,6,"15,9,3,14,2,13,7,12,1,5,4,8,6,10,11"
14810,commdev-image-keyboard-response,456,847054,learnblock2,624.7000000029802,img/planet8_right.png,8,Community 3,NA,TRUE,j,j,NA,NA,NA,1,6,"15,9,3,14,2,13,7,12,1,5,4,8,6,10,11"
14810,commdev-image-keyboard-response,457,848313,learnblock2,600.5,img/planet6_left.png,6,Community 3,NA,TRUE,f,f,NA,NA,NA,1,6,"15,9,3,14,2,13,7,12,1,5,4,8,6,10,11"
14810,commdev-image-keyboard-response,458,849567,learnblock2,792.7999999970198,img/planet11_right.png,11,Community 3,NA,TRUE,j,j,NA,NA,NA,1,6,"15,9,3,14,2,13,7,12,1,5,4,8,6,10,11"
14810,commdev-image-keyboard-response,459,850822,learnblock2,861.6999999880791,img/planet10_right.png,10,Community 3,NA,FALSE,f,j,NA,NA,NA,1,6,"15,9,3,14,2,13,7,12,1,5,4,8,6,10,11"
14810,commdev-image-keyboard-response,460,852076,learnblock2,761.9000000059605,img/planet8_right.png,8,Community 3,NA,FALSE,f,j,NA,NA,NA,1,6,"15,9,3,14,2,13,7,12,1,5,4,8,6,10,11"
14810,commdev-image-keyboard-response,461,853328,learnblock2,636.4000000059605,img/planet6_right.png,6,Community 3,NA,FALSE,f,j,NA,NA,NA,1,6,"15,9,3,14,2,13,7,12,1,5,4,8,6,10,11"
14810,commdev-image-keyboard-response,462,854581,learnblock2,352.8999999910593,img/planet10_left.png,10,Community 3,NA,FALSE,j,f,NA,NA,NA,1,6,"15,9,3,14,2,13,7,12,1,5,4,8,6,10,11"
14810,commdev-image-keyboard-response,463,855840,learnblock2,null,img/planet8_left.png,8,Community 3,NA,FALSE,null,f,NA,NA,NA,1,6,"15,9,3,14,2,13,7,12,1,5,4,8,6,10,11"
14810,commdev-image-keyboard-response,464,857099,learnblock2,112.69999998807907,img/planet6_right.png,6,Community 3,NA,FALSE,f,j,NA,NA,NA,1,6,"15,9,3,14,2,13,7,12,1,5,4,8,6,10,11"
14810,commdev-image-keyboard-response,465,858357,learnblock2,1247.1000000089407,img/planet4_left.png,4,Community 3,NA,TRUE,f,f,NA,NA,NA,1,6,"15,9,3,14,2,13,7,12,1,5,4,8,6,10,11"
14810,commdev-image-keyboard-response,466,859610,learnblock2,251.20000000298023,img/planet2_right.png,2,Community 1,NA,TRUE,j,j,NA,NA,NA,1,6,"15,9,3,14,2,13,7,12,1,5,4,8,6,10,11"
14810,commdev-image-keyboard-response,467,860864,learnblock2,137.59999999403954,img/planet9_left.png,9,Community 1,NA,FALSE,j,f,NA,NA,NA,1,6,"15,9,3,14,2,13,7,12,1,5,4,8,6,10,11"
14810,commdev-image-keyboard-response,468,862122,learnblock2,69.8999999910593,img/planet14_right.png,14,Community 1,NA,FALSE,f,j,NA,NA,NA,1,6,"15,9,3,14,2,13,7,12,1,5,4,8,6,10,11"
14810,commdev-image-keyboard-response,469,863377,learnblock2,null,img/planet3_right.png,3,Community 1,NA,FALSE,null,j,NA,NA,NA,1,6,"15,9,3,14,2,13,7,12,1,5,4,8,6,10,11"
14810,commdev-image-keyboard-response,470,864630,learnblock2,946.0999999940395,img/planet15_right.png,15,Community 1,NA,TRUE,j,j,NA,NA,NA,1,6,"15,9,3,14,2,13,7,12,1,5,4,8,6,10,11"
14810,commdev-image-keyboard-response,471,865882,learnblock2,66.79999999701977,img/planet14_left.png,14,Community 1,NA,TRUE,f,f,NA,NA,NA,1,6,"15,9,3,14,2,13,7,12,1,5,4,8,6,10,11"
14810,commdev-image-keyboard-response,472,867137,learnblock2,88.69999998807907,img/planet9_right.png,9,Community 1,NA,TRUE,j,j,NA,NA,NA,1,6,"15,9,3,14,2,13,7,12,1,5,4,8,6,10,11"
14810,commdev-image-keyboard-response,473,868393,learnblock2,138.20000000298023,img/planet15_left.png,15,Community 1,NA,TRUE,f,f,NA,NA,NA,1,6,"15,9,3,14,2,13,7,12,1,5,4,8,6,10,11"
14810,commdev-image-keyboard-response,474,869651,learnblock2,61.3999999910593,img/planet2_right.png,2,Community 1,NA,TRUE,j,j,NA,NA,NA,1,6,"15,9,3,14,2,13,7,12,1,5,4,8,6,10,11"
14810,commdev-image-keyboard-response,475,870911,learnblock2,34.29999999701977,img/planet9_right.png,9,Community 1,NA,FALSE,f,j,NA,NA,NA,1,6,"15,9,3,14,2,13,7,12,1,5,4,8,6,10,11"
14810,commdev-image-keyboard-response,476,872168,learnblock2,85.5,img/planet14_right.png,14,Community 1,NA,FALSE,f,j,NA,NA,NA,1,6,"15,9,3,14,2,13,7,12,1,5,4,8,6,10,11"
14810,commdev-image-keyboard-response,477,873424,learnblock2,56.20000000298023,img/planet15_right.png,15,Community 1,NA,TRUE,j,j,NA,NA,NA,1,6,"15,9,3,14,2,13,7,12,1,5,4,8,6,10,11"
14810,commdev-image-keyboard-response,478,874681,learnblock2,76.09999999403954,img/planet3_right.png,3,Community 1,NA,TRUE,j,j,NA,NA,NA,1,6,"15,9,3,14,2,13,7,12,1,5,4,8,6,10,11"
14810,commdev-image-keyboard-response,479,875938,learnblock2,36.900000005960464,img/planet15_left.png,15,Community 1,NA,FALSE,j,f,NA,NA,NA,1,6,"15,9,3,14,2,13,7,12,1,5,4,8,6,10,11"
14810,commdev-image-keyboard-response,480,877198,learnblock2,157.1000000089407,img/planet3_right.png,3,Community 1,NA,FALSE,f,j,NA,NA,NA,1,6,"15,9,3,14,2,13,7,12,1,5,4,8,6,10,11"
14810,commdev-image-keyboard-response,481,878455,learnblock2,18.700000002980232,img/planet2_left.png,2,Community 1,NA,FALSE,j,f,NA,NA,NA,1,6,"15,9,3,14,2,13,7,12,1,5,4,8,6,10,11"
14810,commdev-image-keyboard-response,482,879707,learnblock2,76.1000000089407,img/planet9_right.png,9,Community 1,NA,TRUE,j,j,NA,NA,NA,1,6,"15,9,3,14,2,13,7,12,1,5,4,8,6,10,11"
14810,commdev-image-keyboard-response,483,880966,learnblock2,116.5,img/planet14_left.png,14,Community 1,NA,TRUE,f,f,NA,NA,NA,1,6,"15,9,3,14,2,13,7,12,1,5,4,8,6,10,11"
14810,commdev-image-keyboard-response,484,882218,learnblock2,null,img/planet9_left.png,9,Community 1,NA,FALSE,null,f,NA,NA,NA,1,6,"15,9,3,14,2,13,7,12,1,5,4,8,6,10,11"
14810,commdev-image-keyboard-response,485,883472,learnblock2,null,img/planet3_left.png,3,Community 1,NA,FALSE,null,f,NA,NA,NA,1,6,"15,9,3,14,2,13,7,12,1,5,4,8,6,10,11"
14810,commdev-image-keyboard-response,486,884731,learnblock2,null,img/planet15_left.png,15,Community 1,NA,FALSE,null,f,NA,NA,NA,1,6,"15,9,3,14,2,13,7,12,1,5,4,8,6,10,11"
14810,commdev-image-keyboard-response,487,885992,learnblock2,null,img/planet2_right.png,2,Community 1,NA,FALSE,null,j,NA,NA,NA,1,6,"15,9,3,14,2,13,7,12,1,5,4,8,6,10,11"
14810,commdev-image-keyboard-response,488,887247,learnblock2,null,img/planet15_left.png,15,Community 1,NA,FALSE,null,f,NA,NA,NA,1,6,"15,9,3,14,2,13,7,12,1,5,4,8,6,10,11"
14810,commdev-image-keyboard-response,489,888504,learnblock2,149.09999999403954,img/planet9_right.png,9,Community 1,NA,TRUE,j,j,NA,NA,NA,1,6,"15,9,3,14,2,13,7,12,1,5,4,8,6,10,11"
14810,commdev-image-keyboard-response,490,889761,learnblock2,125.79999999701977,img/planet2_left.png,2,Community 1,NA,FALSE,j,f,NA,NA,NA,1,6,"15,9,3,14,2,13,7,12,1,5,4,8,6,10,11"
14810,commdev-image-keyboard-response,491,891013,learnblock2,88.79999999701977,img/planet4_left.png,4,Community 3,NA,TRUE,f,f,NA,NA,NA,1,6,"15,9,3,14,2,13,7,12,1,5,4,8,6,10,11"
14810,commdev-image-keyboard-response,492,892266,learnblock2,146.79999999701977,img/planet11_left.png,11,Community 3,NA,FALSE,j,f,NA,NA,NA,1,6,"15,9,3,14,2,13,7,12,1,5,4,8,6,10,11"
14810,commdev-image-keyboard-response,493,893522,learnblock2,71.69999998807907,img/planet10_right.png,10,Community 3,NA,TRUE,j,j,NA,NA,NA,1,6,"15,9,3,14,2,13,7,12,1,5,4,8,6,10,11"
14810,commdev-image-keyboard-response,494,894776,learnblock2,31.900000005960464,img/planet6_left.png,6,Community 3,NA,TRUE,f,f,NA,NA,NA,1,6,"15,9,3,14,2,13,7,12,1,5,4,8,6,10,11"
14810,commdev-image-keyboard-response,495,896042,learnblock2,93.79999999701977,img/planet8_right.png,8,Community 3,NA,TRUE,j,j,NA,NA,NA,1,6,"15,9,3,14,2,13,7,12,1,5,4,8,6,10,11"
14810,commdev-image-keyboard-response,496,897299,learnblock2,119.5,img/planet6_left.png,6,Community 3,NA,TRUE,f,f,NA,NA,NA,1,6,"15,9,3,14,2,13,7,12,1,5,4,8,6,10,11"
14810,commdev-image-keyboard-response,497,898554,learnblock2,179.80000001192093,img/planet10_left.png,10,Community 3,NA,TRUE,f,f,NA,NA,NA,1,6,"15,9,3,14,2,13,7,12,1,5,4,8,6,10,11"
14810,commdev-image-keyboard-response,498,899809,learnblock2,51.599999994039536,img/planet11_left.png,11,Community 3,NA,FALSE,j,f,NA,NA,NA,1,6,"15,9,3,14,2,13,7,12,1,5,4,8,6,10,11"
14810,commdev-image-keyboard-response,499,901069,learnblock2,364.59999999403954,img/planet6_right.png,6,Community 3,NA,FALSE,f,j,NA,NA,NA,1,6,"15,9,3,14,2,13,7,12,1,5,4,8,6,10,11"
14810,commdev-image-keyboard-response,500,902337,learnblock2,30.100000008940697,img/planet4_right.png,4,Community 3,NA,FALSE,f,j,NA,NA,NA,1,6,"15,9,3,14,2,13,7,12,1,5,4,8,6,10,11"
14810,commdev-image-keyboard-response,501,903595,learnblock2,591.5999999940395,img/planet11_right.png,11,Community 3,NA,TRUE,j,j,NA,NA,NA,1,6,"15,9,3,14,2,13,7,12,1,5,4,8,6,10,11"
14810,commdev-image-keyboard-response,502,904849,learnblock2,544.2000000029802,img/planet6_right.png,6,Community 3,NA,TRUE,j,j,NA,NA,NA,1,6,"15,9,3,14,2,13,7,12,1,5,4,8,6,10,11"
14810,commdev-image-keyboard-response,503,906104,learnblock2,587.3999999910593,img/planet4_right.png,4,Community 3,NA,TRUE,j,j,NA,NA,NA,1,6,"15,9,3,14,2,13,7,12,1,5,4,8,6,10,11"
14810,commdev-image-keyboard-response,504,907362,learnblock2,448.5,img/planet10_left.png,10,Community 3,NA,TRUE,f,f,NA,NA,NA,1,6,"15,9,3,14,2,13,7,12,1,5,4,8,6,10,11"
14810,commdev-image-keyboard-response,505,908625,learnblock2,710.9000000059605,img/planet6_left.png,6,Community 3,NA,TRUE,f,f,NA,NA,NA,1,6,"15,9,3,14,2,13,7,12,1,5,4,8,6,10,11"
14810,commdev-image-keyboard-response,506,909881,learnblock2,875.5,img/planet11_right.png,11,Community 3,NA,TRUE,j,j,NA,NA,NA,1,6,"15,9,3,14,2,13,7,12,1,5,4,8,6,10,11"
14810,commdev-image-keyboard-response,507,911142,learnblock2,793.4000000059605,img/planet6_right.png,6,Community 3,NA,TRUE,j,j,NA,NA,NA,1,6,"15,9,3,14,2,13,7,12,1,5,4,8,6,10,11"
14810,commdev-image-keyboard-response,508,912400,learnblock2,742.5,img/planet4_left.png,4,Community 3,NA,TRUE,f,f,NA,NA,NA,1,6,"15,9,3,14,2,13,7,12,1,5,4,8,6,10,11"
14810,commdev-image-keyboard-response,509,913656,learnblock2,369.8999999910593,img/planet6_left.png,6,Community 3,NA,FALSE,j,f,NA,NA,NA,1,6,"15,9,3,14,2,13,7,12,1,5,4,8,6,10,11"
14810,commdev-image-keyboard-response,510,914910,learnblock2,19,img/planet11_right.png,11,Community 3,NA,TRUE,j,j,NA,NA,NA,1,6,"15,9,3,14,2,13,7,12,1,5,4,8,6,10,11"
14810,commdev-image-keyboard-response,511,916169,learnblock2,118.80000001192093,img/planet8_right.png,8,Community 3,NA,TRUE,j,j,NA,NA,NA,1,6,"15,9,3,14,2,13,7,12,1,5,4,8,6,10,11"
14810,commdev-image-keyboard-response,512,917425,learnblock2,87.70000000298023,img/planet10_right.png,10,Community 3,NA,FALSE,f,j,NA,NA,NA,1,6,"15,9,3,14,2,13,7,12,1,5,4,8,6,10,11"
14810,commdev-image-keyboard-response,513,918681,learnblock2,107,img/planet4_right.png,4,Community 3,NA,TRUE,j,j,NA,NA,NA,1,6,"15,9,3,14,2,13,7,12,1,5,4,8,6,10,11"
14810,commdev-image-keyboard-response,514,919933,learnblock2,13.099999994039536,img/planet6_left.png,6,Community 3,NA,TRUE,f,f,NA,NA,NA,1,6,"15,9,3,14,2,13,7,12,1,5,4,8,6,10,11"
14810,commdev-image-keyboard-response,515,921185,learnblock2,129.3999999910593,img/planet10_left.png,10,Community 3,NA,FALSE,j,f,NA,NA,NA,1,6,"15,9,3,14,2,13,7,12,1,5,4,8,6,10,11"
14810,commdev-image-keyboard-response,516,922439,learnblock2,241.79999999701977,img/planet11_left.png,11,Community 3,NA,TRUE,f,f,NA,NA,NA,1,6,"15,9,3,14,2,13,7,12,1,5,4,8,6,10,11"
14810,commdev-image-keyboard-response,517,923705,learnblock2,96.20000000298023,img/planet8_right.png,8,Community 3,NA,TRUE,j,j,NA,NA,NA,1,6,"15,9,3,14,2,13,7,12,1,5,4,8,6,10,11"
14810,commdev-image-keyboard-response,518,924961,learnblock2,106.5,img/planet10_right.png,10,Community 3,NA,FALSE,f,j,NA,NA,NA,1,6,"15,9,3,14,2,13,7,12,1,5,4,8,6,10,11"
14810,commdev-image-keyboard-response,519,926214,learnblock2,148.70000000298023,img/planet6_left.png,6,Community 3,NA,FALSE,j,f,NA,NA,NA,1,6,"15,9,3,14,2,13,7,12,1,5,4,8,6,10,11"
14810,commdev-image-keyboard-response,520,927470,learnblock2,163,img/planet11_right.png,11,Community 3,NA,FALSE,f,j,NA,NA,NA,1,6,"15,9,3,14,2,13,7,12,1,5,4,8,6,10,11"
14810,commdev-image-keyboard-response,521,928734,learnblock2,164.5,img/planet6_right.png,6,Community 3,NA,TRUE,j,j,NA,NA,NA,1,6,"15,9,3,14,2,13,7,12,1,5,4,8,6,10,11"
14810,commdev-image-keyboard-response,522,929992,learnblock2,106.6000000089407,img/planet8_left.png,8,Community 3,NA,TRUE,f,f,NA,NA,NA,1,6,"15,9,3,14,2,13,7,12,1,5,4,8,6,10,11"
14810,commdev-image-keyboard-response,523,931249,learnblock2,63.69999998807907,img/planet10_left.png,10,Community 3,NA,TRUE,f,f,NA,NA,NA,1,6,"15,9,3,14,2,13,7,12,1,5,4,8,6,10,11"
14810,commdev-image-keyboard-response,524,932506,learnblock2,48.29999999701977,img/planet4_right.png,4,Community 3,NA,FALSE,f,j,NA,NA,NA,1,6,"15,9,3,14,2,13,7,12,1,5,4,8,6,10,11"
14810,commdev-image-keyboard-response,525,933760,learnblock2,123.8999999910593,img/planet11_right.png,11,Community 3,NA,TRUE,j,j,NA,NA,NA,1,6,"15,9,3,14,2,13,7,12,1,5,4,8,6,10,11"
14810,commdev-image-keyboard-response,526,935016,learnblock2,102.79999999701977,img/planet4_left.png,4,Community 3,NA,FALSE,j,f,NA,NA,NA,1,6,"15,9,3,14,2,13,7,12,1,5,4,8,6,10,11"
14810,commdev-image-keyboard-response,527,936269,learnblock2,387.09999999403954,img/planet6_left.png,6,Community 3,NA,TRUE,f,f,NA,NA,NA,1,6,"15,9,3,14,2,13,7,12,1,5,4,8,6,10,11"
14810,commdev-image-keyboard-response,528,937521,learnblock2,6.799999997019768,img/planet4_left.png,4,Community 3,NA,FALSE,j,f,NA,NA,NA,1,6,"15,9,3,14,2,13,7,12,1,5,4,8,6,10,11"
14810,commdev-image-keyboard-response,529,938776,learnblock2,159.20000000298023,img/planet11_left.png,11,Community 3,NA,FALSE,j,f,NA,NA,NA,1,6,"15,9,3,14,2,13,7,12,1,5,4,8,6,10,11"
14810,commdev-image-keyboard-response,530,940030,learnblock2,233.79999999701977,img/planet6_left.png,6,Community 3,NA,FALSE,j,f,NA,NA,NA,1,6,"15,9,3,14,2,13,7,12,1,5,4,8,6,10,11"
14810,commdev-image-keyboard-response,531,941282,learnblock2,271,img/planet4_left.png,4,Community 3,NA,TRUE,f,f,NA,NA,NA,1,6,"15,9,3,14,2,13,7,12,1,5,4,8,6,10,11"
14810,commdev-image-keyboard-response,532,942534,learnblock2,48.79999999701977,img/planet2_left.png,2,Community 1,NA,TRUE,f,f,NA,NA,NA,1,6,"15,9,3,14,2,13,7,12,1,5,4,8,6,10,11"
14810,commdev-image-keyboard-response,533,943790,learnblock2,305,img/planet15_right.png,15,Community 1,NA,TRUE,j,j,NA,NA,NA,1,6,"15,9,3,14,2,13,7,12,1,5,4,8,6,10,11"
14810,commdev-image-keyboard-response,534,945045,learnblock2,222.8999999910593,img/planet9_right.png,9,Community 1,NA,TRUE,j,j,NA,NA,NA,1,6,"15,9,3,14,2,13,7,12,1,5,4,8,6,10,11"
14810,commdev-image-keyboard-response,535,946301,learnblock2,18.100000008940697,img/planet2_right.png,2,Community 1,NA,FALSE,f,j,NA,NA,NA,1,6,"15,9,3,14,2,13,7,12,1,5,4,8,6,10,11"
14810,commdev-image-keyboard-response,536,947559,learnblock2,71.79999999701977,img/planet4_right.png,4,Community 3,NA,TRUE,j,j,NA,NA,NA,1,6,"15,9,3,14,2,13,7,12,1,5,4,8,6,10,11"
14810,commdev-image-keyboard-response,537,948823,learnblock2,74.20000000298023,img/planet6_left.png,6,Community 3,NA,FALSE,j,f,NA,NA,NA,1,6,"15,9,3,14,2,13,7,12,1,5,4,8,6,10,11"
14810,commdev-image-keyboard-response,538,950081,learnblock2,122.3999999910593,img/planet11_right.png,11,Community 3,NA,FALSE,f,j,NA,NA,NA,1,6,"15,9,3,14,2,13,7,12,1,5,4,8,6,10,11"
14810,commdev-image-keyboard-response,539,951338,learnblock2,734.2999999970198,img/planet4_right.png,4,Community 3,NA,TRUE,j,j,NA,NA,NA,1,6,"15,9,3,14,2,13,7,12,1,5,4,8,6,10,11"
14810,commdev-image-keyboard-response,540,952595,learnblock2,332,img/planet10_left.png,10,Community 3,NA,TRUE,f,f,NA,NA,NA,1,6,"15,9,3,14,2,13,7,12,1,5,4,8,6,10,11"
14810,commdev-image-keyboard-response,541,953853,learnblock2,null,img/planet6_right.png,6,Community 3,NA,FALSE,null,j,NA,NA,NA,1,6,"15,9,3,14,2,13,7,12,1,5,4,8,6,10,11"
14810,commdev-image-keyboard-response,542,955109,learnblock2,674.6000000089407,img/planet4_left.png,4,Community 3,NA,FALSE,j,f,NA,NA,NA,1,6,"15,9,3,14,2,13,7,12,1,5,4,8,6,10,11"
14810,commdev-image-keyboard-response,543,956364,learnblock2,53.400000005960464,img/planet2_right.png,2,Community 1,NA,FALSE,f,j,NA,NA,NA,1,6,"15,9,3,14,2,13,7,12,1,5,4,8,6,10,11"
14810,commdev-image-keyboard-response,544,957620,learnblock2,623.5999999940395,img/planet15_right.png,15,Community 1,NA,TRUE,j,j,NA,NA,NA,1,6,"15,9,3,14,2,13,7,12,1,5,4,8,6,10,11"
14810,commdev-image-keyboard-response,545,958874,learnblock2,1043.2999999970198,img/planet14_left.png,14,Community 1,NA,TRUE,f,f,NA,NA,NA,1,6,"15,9,3,14,2,13,7,12,1,5,4,8,6,10,11"
14810,commdev-image-keyboard-response,546,960140,learnblock2,716.1999999880791,img/planet15_right.png,15,Community 1,NA,TRUE,j,j,NA,NA,NA,1,6,"15,9,3,14,2,13,7,12,1,5,4,8,6,10,11"
14810,commdev-image-keyboard-response,547,961396,learnblock2,439,img/planet2_right.png,2,Community 1,NA,TRUE,j,j,NA,NA,NA,1,6,"15,9,3,14,2,13,7,12,1,5,4,8,6,10,11"
14810,commdev-image-keyboard-response,548,962651,learnblock2,146.09999999403954,img/planet4_right.png,4,Community 3,NA,TRUE,j,j,NA,NA,NA,1,6,"15,9,3,14,2,13,7,12,1,5,4,8,6,10,11"
14810,commdev-image-keyboard-response,549,963911,learnblock2,680.7000000029802,img/planet6_right.png,6,Community 3,NA,TRUE,j,j,NA,NA,NA,1,6,"15,9,3,14,2,13,7,12,1,5,4,8,6,10,11"
14810,commdev-image-keyboard-response,550,965173,learnblock2,691.2999999970198,img/planet10_right.png,10,Community 3,NA,TRUE,j,j,NA,NA,NA,1,6,"15,9,3,14,2,13,7,12,1,5,4,8,6,10,11"
14810,commdev-image-keyboard-response,551,966433,learnblock2,596.7999999970198,img/planet8_right.png,8,Community 3,NA,FALSE,f,j,NA,NA,NA,1,6,"15,9,3,14,2,13,7,12,1,5,4,8,6,10,11"
14810,commdev-image-keyboard-response,552,967690,learnblock2,991.2000000029802,img/planet11_left.png,11,Community 3,NA,TRUE,f,f,NA,NA,NA,1,6,"15,9,3,14,2,13,7,12,1,5,4,8,6,10,11"
14810,commdev-image-keyboard-response,553,968951,learnblock2,825.7000000029802,img/planet6_right.png,6,Community 3,NA,TRUE,j,j,NA,NA,NA,1,6,"15,9,3,14,2,13,7,12,1,5,4,8,6,10,11"
14810,commdev-image-keyboard-response,554,970203,learnblock2,742.0999999940395,img/planet10_left.png,10,Community 3,NA,TRUE,f,f,NA,NA,NA,1,6,"15,9,3,14,2,13,7,12,1,5,4,8,6,10,11"
14810,commdev-image-keyboard-response,555,971459,learnblock2,574.5,img/planet11_right.png,11,Community 3,NA,TRUE,j,j,NA,NA,NA,1,6,"15,9,3,14,2,13,7,12,1,5,4,8,6,10,11"
14810,commdev-image-keyboard-response,556,972719,learnblock2,441.70000000298023,img/planet6_right.png,6,Community 3,NA,FALSE,f,j,NA,NA,NA,1,6,"15,9,3,14,2,13,7,12,1,5,4,8,6,10,11"
14810,commdev-image-keyboard-response,557,973972,learnblock2,487.19999998807907,img/planet4_left.png,4,Community 3,NA,FALSE,j,f,NA,NA,NA,1,6,"15,9,3,14,2,13,7,12,1,5,4,8,6,10,11"
14810,commdev-image-keyboard-response,558,975225,learnblock2,865.3000000119209,img/planet2_right.png,2,Community 1,NA,TRUE,j,j,NA,NA,NA,1,6,"15,9,3,14,2,13,7,12,1,5,4,8,6,10,11"
14810,commdev-image-keyboard-response,559,976478,learnblock2,104.29999999701977,img/planet4_left.png,4,Community 3,NA,TRUE,f,f,NA,NA,NA,1,6,"15,9,3,14,2,13,7,12,1,5,4,8,6,10,11"
14810,commdev-image-keyboard-response,560,977737,learnblock2,188.09999999403954,img/planet6_right.png,6,Community 3,NA,TRUE,j,j,NA,NA,NA,1,6,"15,9,3,14,2,13,7,12,1,5,4,8,6,10,11"
14810,commdev-image-keyboard-response,561,978997,learnblock2,151.79999999701977,img/planet10_left.png,10,Community 3,NA,TRUE,f,f,NA,NA,NA,1,6,"15,9,3,14,2,13,7,12,1,5,4,8,6,10,11"
14810,commdev-image-keyboard-response,562,980253,learnblock2,105.09999999403954,img/planet6_left.png,6,Community 3,NA,TRUE,f,f,NA,NA,NA,1,6,"15,9,3,14,2,13,7,12,1,5,4,8,6,10,11"
14810,commdev-image-keyboard-response,563,981519,learnblock2,149.5,img/planet4_right.png,4,Community 3,NA,TRUE,j,j,NA,NA,NA,1,6,"15,9,3,14,2,13,7,12,1,5,4,8,6,10,11"
14810,commdev-image-keyboard-response,564,982774,learnblock2,232.79999999701977,img/planet2_left.png,2,Community 1,NA,TRUE,f,f,NA,NA,NA,1,6,"15,9,3,14,2,13,7,12,1,5,4,8,6,10,11"
14810,commdev-image-keyboard-response,565,984035,learnblock2,181.59999999403954,img/planet3_left.png,3,Community 1,NA,FALSE,j,f,NA,NA,NA,1,6,"15,9,3,14,2,13,7,12,1,5,4,8,6,10,11"
14810,commdev-image-keyboard-response,566,985293,learnblock2,100.09999999403954,img/planet2_left.png,2,Community 1,NA,TRUE,f,f,NA,NA,NA,1,6,"15,9,3,14,2,13,7,12,1,5,4,8,6,10,11"
14810,commdev-image-keyboard-response,567,986548,learnblock2,256.79999999701977,img/planet4_left.png,4,Community 3,NA,FALSE,j,f,NA,NA,NA,1,6,"15,9,3,14,2,13,7,12,1,5,4,8,6,10,11"
14810,commdev-image-keyboard-response,568,987800,learnblock2,19.299999997019768,img/planet2_right.png,2,Community 1,NA,FALSE,f,j,NA,NA,NA,1,6,"15,9,3,14,2,13,7,12,1,5,4,8,6,10,11"
14810,commdev-image-keyboard-response,569,989053,learnblock2,145.90000000596046,img/planet4_right.png,4,Community 3,NA,FALSE,f,j,NA,NA,NA,1,6,"15,9,3,14,2,13,7,12,1,5,4,8,6,10,11"
14810,commdev-image-keyboard-response,570,990305,learnblock2,129.29999999701977,img/planet11_right.png,11,Community 3,NA,TRUE,j,j,NA,NA,NA,1,6,"15,9,3,14,2,13,7,12,1,5,4,8,6,10,11"
14810,commdev-image-keyboard-response,571,991562,learnblock2,10.5,img/planet4_right.png,4,Community 3,NA,FALSE,f,j,NA,NA,NA,1,6,"15,9,3,14,2,13,7,12,1,5,4,8,6,10,11"
14810,commdev-image-keyboard-response,572,992817,learnblock2,4.4000000059604645,img/planet10_left.png,10,Community 3,NA,TRUE,f,f,NA,NA,NA,1,6,"15,9,3,14,2,13,7,12,1,5,4,8,6,10,11"
14810,commdev-image-keyboard-response,573,994071,learnblock2,48,img/planet6_right.png,6,Community 3,NA,TRUE,j,j,NA,NA,NA,1,6,"15,9,3,14,2,13,7,12,1,5,4,8,6,10,11"
14810,commdev-image-keyboard-response,574,995323,learnblock2,180.5,img/planet8_right.png,8,Community 3,NA,TRUE,j,j,NA,NA,NA,1,6,"15,9,3,14,2,13,7,12,1,5,4,8,6,10,11"
14810,commdev-image-keyboard-response,575,996578,learnblock2,209.09999999403954,img/planet6_right.png,6,Community 3,NA,FALSE,f,j,NA,NA,NA,1,6,"15,9,3,14,2,13,7,12,1,5,4,8,6,10,11"
14810,commdev-image-keyboard-response,576,997846,learnblock2,null,img/planet10_right.png,10,Community 3,NA,FALSE,null,j,NA,NA,NA,1,6,"15,9,3,14,2,13,7,12,1,5,4,8,6,10,11"
14810,commdev-image-keyboard-response,577,999105,learnblock2,1171,img/planet4_left.png,4,Community 3,NA,FALSE,j,f,NA,NA,NA,1,6,"15,9,3,14,2,13,7,12,1,5,4,8,6,10,11"
14810,commdev-image-keyboard-response,578,1000365,learnblock2,181.20000000298023,img/planet2_right.png,2,Community 1,NA,FALSE,f,j,NA,NA,NA,1,6,"15,9,3,14,2,13,7,12,1,5,4,8,6,10,11"
14810,commdev-image-keyboard-response,579,1001625,learnblock2,53,img/planet15_left.png,15,Community 1,NA,FALSE,j,f,NA,NA,NA,1,6,"15,9,3,14,2,13,7,12,1,5,4,8,6,10,11"
14810,commdev-image-keyboard-response,580,1002882,learnblock2,147.20000000298023,img/planet3_left.png,3,Community 1,NA,FALSE,j,f,NA,NA,NA,1,6,"15,9,3,14,2,13,7,12,1,5,4,8,6,10,11"
14810,commdev-image-keyboard-response,581,1004136,learnblock2,220.40000000596046,img/planet14_right.png,14,Community 1,NA,TRUE,j,j,NA,NA,NA,1,6,"15,9,3,14,2,13,7,12,1,5,4,8,6,10,11"
14810,commdev-image-keyboard-response,582,1005391,learnblock2,13.099999994039536,img/planet9_right.png,9,Community 1,NA,FALSE,f,j,NA,NA,NA,1,6,"15,9,3,14,2,13,7,12,1,5,4,8,6,10,11"
14810,commdev-image-keyboard-response,583,1006645,learnblock2,938.3999999910593,img/planet3_right.png,3,Community 1,NA,FALSE,f,j,NA,NA,NA,1,6,"15,9,3,14,2,13,7,12,1,5,4,8,6,10,11"
14810,commdev-image-keyboard-response,584,1007904,learnblock2,89.90000000596046,img/planet14_right.png,14,Community 1,NA,TRUE,j,j,NA,NA,NA,1,6,"15,9,3,14,2,13,7,12,1,5,4,8,6,10,11"
14810,commdev-image-keyboard-response,585,1009162,learnblock2,71.40000000596046,img/planet13_left.png,13,Community 2,NA,TRUE,f,f,NA,NA,NA,1,6,"15,9,3,14,2,13,7,12,1,5,4,8,6,10,11"
