subject_id,trial_type,trial_index,time_elapsed,block,rt,stimulus,planet,community,response,correct,key_press,learning_correct_response,parse,init_locations,final_locations,browser_interactions,num_comp,planet_map
14095,commdev-instructions,7,25207,NA,3302.7000000029802,"<p>In this game, you are a scientist on board a space shuttle. </p><p> On each mission, you will visit planets all across the universe.</p><img src=""img/controlroom.jpg"" width=300vw>",NA,NA,NA,NA,NA,NA,NA,NA,NA,NA,6,"11,10,12,14,5,7,6,9,1,2,3,8,4,15,13"
14095,commdev-instructions,8,28090,NA,810.8999999985099,"<p>Here are a few planets you might see:</p><img src=""img/practice1.png"" width=200vw><img src=""img/practice2.png"" width=200vw><img src=""img/practice3.png"" width=200vw>",NA,NA,NA,NA,NA,NA,NA,NA,NA,NA,6,"11,10,12,14,5,7,6,9,1,2,3,8,4,15,13"
14095,commdev-instructions,9,36782,NA,1294.0999999940395,"<p>Your job as a scientist is to record which direction the winds are moving on each planet.</p><p>There are two types of wind directions:</p><img src=""img/practice1_left.png"" width=200vw><img src=""img/practice1_right.png"" width=200vw>",NA,NA,NA,NA,NA,NA,NA,NA,NA,NA,6,"11,10,12,14,5,7,6,9,1,2,3,8,4,15,13"
14095,commdev-instructions,10,43144,NA,1481.5,"<p>If the winds are moving this way, press the letter <strong>F</strong> on the keyboard as fast as you can.</p><img src=""img/leftwind.png"" width=250vw>",NA,NA,NA,NA,NA,NA,NA,NA,NA,NA,6,"11,10,12,14,5,7,6,9,1,2,3,8,4,15,13"
14095,commdev-instructions,11,48339,NA,699,"<p>If the winds are moving this way, press the letter <strong>J</strong> on the keyboard as fast as you can.</p><img src=""img/rightwind.png"" width=350vw>",NA,NA,NA,NA,NA,NA,NA,NA,NA,NA,6,"11,10,12,14,5,7,6,9,1,2,3,8,4,15,13"
14095,commdev-instructions,12,54356,NA,1595.3999999985099,<p>You will have 1 second to respond. Try to respond before the time runs out!,NA,NA,NA,NA,NA,NA,NA,NA,NA,NA,6,"11,10,12,14,5,7,6,9,1,2,3,8,4,15,13"
14095,commdev-instructions,13,60236,NA,452.30000000447035,<p>The planets you will visit will look different from each other.</p><p>You should respond <strong>only</strong> based on wind direction.,NA,NA,NA,NA,NA,NA,NA,NA,NA,NA,6,"11,10,12,14,5,7,6,9,1,2,3,8,4,15,13"
14095,commdev-instructions,14,66193,NA,787.7999999970198,"<p> Ready to start the practice round? </p><p> Remember, press <strong>F</strong> or <strong>J</strong> depending on the wind direction.<br><img src=""img/categorize_planet_example.png""",NA,NA,NA,NA,NA,NA,NA,NA,NA,NA,6,"11,10,12,14,5,7,6,9,1,2,3,8,4,15,13"
14095,commdev-instructions,26,123083,NA,3038.1999999955297,"<p>Great, now try a short practice mission. </p><p> This time, you will have 1 second to respond and you won't know whether you pressed the right or wrong key for each planet.</p>",NA,NA,NA,NA,NA,NA,NA,NA,NA,NA,6,"11,10,12,14,5,7,6,9,1,2,3,8,4,15,13"
14095,commdev-image-keyboard-response,27,124442,practice,784,img/practice3_left.png,NA,Number not found in mappings,NA,TRUE,f,f,NA,NA,NA,NA,6,"11,10,12,14,5,7,6,9,1,2,3,8,4,15,13"
14095,commdev-image-keyboard-response,28,125696,practice,null,img/practice2_right.png,NA,Number not found in mappings,NA,FALSE,null,j,NA,NA,NA,NA,6,"11,10,12,14,5,7,6,9,1,2,3,8,4,15,13"
14095,commdev-image-keyboard-response,29,126950,practice,186.19999999552965,img/practice4_right.png,NA,Number not found in mappings,NA,TRUE,j,j,NA,NA,NA,NA,6,"11,10,12,14,5,7,6,9,1,2,3,8,4,15,13"
14095,commdev-image-keyboard-response,30,128203,practice,323.3999999985099,img/practice3_right.png,NA,Number not found in mappings,NA,TRUE,j,j,NA,NA,NA,NA,6,"11,10,12,14,5,7,6,9,1,2,3,8,4,15,13"
14095,commdev-image-keyboard-response,31,129457,practice,815.8000000044703,img/practice4_right.png,NA,Number not found in mappings,NA,TRUE,j,j,NA,NA,NA,NA,6,"11,10,12,14,5,7,6,9,1,2,3,8,4,15,13"
14095,commdev-image-keyboard-response,32,130709,practice,606.1000000014901,img/practice2_left.png,NA,Number not found in mappings,NA,FALSE,j,f,NA,NA,NA,NA,6,"11,10,12,14,5,7,6,9,1,2,3,8,4,15,13"
14095,commdev-image-keyboard-response,33,131961,practice,452.30000000447035,img/practice1_left.png,NA,Number not found in mappings,NA,TRUE,f,f,NA,NA,NA,NA,6,"11,10,12,14,5,7,6,9,1,2,3,8,4,15,13"
14095,commdev-image-keyboard-response,34,133213,practice,384.20000000298023,img/practice3_left.png,NA,Number not found in mappings,NA,TRUE,f,f,NA,NA,NA,NA,6,"11,10,12,14,5,7,6,9,1,2,3,8,4,15,13"
14095,commdev-instructions,35,143372,NA,607.9000000059605,"<p>Great job with the practice round.</p><p>During real missions, you won't know whether you pressed the right or wrong key for each planet.</p><p>But between missions, we will tell you how you did overall.</p>",NA,NA,NA,NA,NA,NA,NA,NA,NA,NA,6,"11,10,12,14,5,7,6,9,1,2,3,8,4,15,13"
14095,commdev-instructions,36,152185,NA,572.7999999970198,<p>Try your best! You will be paid a bonus based on how many correct responses you make!</p><p>Responses that are too slow will not count toward your bonus.</p>,NA,NA,NA,NA,NA,NA,NA,NA,NA,NA,6,"11,10,12,14,5,7,6,9,1,2,3,8,4,15,13"
14095,commdev-instructions,37,158930,NA,550.1999999955297,"<p>You are almost ready to start the real game.</p><p> First, we are going to ask you some questions about how the game works.</p>",NA,NA,NA,NA,NA,NA,NA,NA,NA,NA,6,"11,10,12,14,5,7,6,9,1,2,3,8,4,15,13"
14095,commdev-instructions,46,235323,NA,1322,"<p> Nice work! It is now time to start the real game.<p></p>You will go on two missions to record wind directions of different planets.<p></p>Each one will take about 5 minutes. You will get to take a break between missions.<p><p> Remember, press <strong>F</strong> or <strong>J</strong> depending on the wind direction. Good luck!<br><img src=""img/categorize_planet_example.png""",NA,NA,NA,NA,NA,NA,NA,NA,NA,NA,6,"11,10,12,14,5,7,6,9,1,2,3,8,4,15,13"
14095,commdev-image-keyboard-response,48,239401,learnblock1,1069.7000000029802,img/planet3_left.png,3,Community 3,NA,FALSE,j,f,NA,NA,NA,NA,6,"11,10,12,14,5,7,6,9,1,2,3,8,4,15,13"
14095,commdev-image-keyboard-response,49,240654,learnblock1,1246.6999999955297,img/planet4_right.png,4,Community 3,NA,TRUE,j,j,NA,NA,NA,NA,6,"11,10,12,14,5,7,6,9,1,2,3,8,4,15,13"
14095,commdev-image-keyboard-response,50,241907,learnblock1,762.7999999970198,img/planet15_left.png,15,Community 3,NA,TRUE,f,f,NA,NA,NA,NA,6,"11,10,12,14,5,7,6,9,1,2,3,8,4,15,13"
14095,commdev-image-keyboard-response,51,243159,learnblock1,767,img/planet4_right.png,4,Community 3,NA,TRUE,j,j,NA,NA,NA,NA,6,"11,10,12,14,5,7,6,9,1,2,3,8,4,15,13"
14095,commdev-image-keyboard-response,52,244411,learnblock1,806.5,img/planet3_left.png,3,Community 3,NA,TRUE,f,f,NA,NA,NA,NA,6,"11,10,12,14,5,7,6,9,1,2,3,8,4,15,13"
14095,commdev-image-keyboard-response,53,245664,learnblock1,887,img/planet15_left.png,15,Community 3,NA,TRUE,f,f,NA,NA,NA,NA,6,"11,10,12,14,5,7,6,9,1,2,3,8,4,15,13"
14095,commdev-image-keyboard-response,54,246917,learnblock1,672.5,img/planet13_right.png,13,Community 3,NA,TRUE,j,j,NA,NA,NA,NA,6,"11,10,12,14,5,7,6,9,1,2,3,8,4,15,13"
14095,commdev-image-keyboard-response,55,248169,learnblock1,637.1000000014901,img/planet15_right.png,15,Community 3,NA,FALSE,f,j,NA,NA,NA,NA,6,"11,10,12,14,5,7,6,9,1,2,3,8,4,15,13"
14095,commdev-image-keyboard-response,56,249422,learnblock1,947.3999999985099,img/planet8_right.png,8,Community 3,NA,FALSE,f,j,NA,NA,NA,NA,6,"11,10,12,14,5,7,6,9,1,2,3,8,4,15,13"
14095,commdev-image-keyboard-response,57,250675,learnblock1,627.5,img/planet15_left.png,15,Community 3,NA,TRUE,f,f,NA,NA,NA,NA,6,"11,10,12,14,5,7,6,9,1,2,3,8,4,15,13"
14095,commdev-image-keyboard-response,58,251929,learnblock1,925.6000000014901,img/planet8_right.png,8,Community 3,NA,TRUE,j,j,NA,NA,NA,NA,6,"11,10,12,14,5,7,6,9,1,2,3,8,4,15,13"
14095,commdev-image-keyboard-response,59,253181,learnblock1,931.5999999940395,img/planet9_right.png,9,Community 2,NA,TRUE,j,j,NA,NA,NA,NA,6,"11,10,12,14,5,7,6,9,1,2,3,8,4,15,13"
14095,commdev-image-keyboard-response,60,254432,learnblock1,808.1000000014901,img/planet8_right.png,8,Community 3,NA,TRUE,j,j,NA,NA,NA,NA,6,"11,10,12,14,5,7,6,9,1,2,3,8,4,15,13"
14095,commdev-image-keyboard-response,61,255684,learnblock1,835,img/planet13_left.png,13,Community 3,NA,FALSE,j,f,NA,NA,NA,NA,6,"11,10,12,14,5,7,6,9,1,2,3,8,4,15,13"
14095,commdev-image-keyboard-response,62,256937,learnblock1,766.2999999970198,img/planet4_left.png,4,Community 3,NA,FALSE,j,f,NA,NA,NA,NA,6,"11,10,12,14,5,7,6,9,1,2,3,8,4,15,13"
14095,commdev-image-keyboard-response,63,258190,learnblock1,710.4000000059605,img/planet13_right.png,13,Community 3,NA,TRUE,j,j,NA,NA,NA,NA,6,"11,10,12,14,5,7,6,9,1,2,3,8,4,15,13"
14095,commdev-image-keyboard-response,64,259444,learnblock1,812.7000000029802,img/planet8_right.png,8,Community 3,NA,TRUE,j,j,NA,NA,NA,NA,6,"11,10,12,14,5,7,6,9,1,2,3,8,4,15,13"
14095,commdev-image-keyboard-response,65,260696,learnblock1,616.7000000029802,img/planet13_left.png,13,Community 3,NA,FALSE,j,f,NA,NA,NA,NA,6,"11,10,12,14,5,7,6,9,1,2,3,8,4,15,13"
14095,commdev-image-keyboard-response,66,261949,learnblock1,1079.6000000014901,img/planet8_left.png,8,Community 3,NA,TRUE,f,f,NA,NA,NA,NA,6,"11,10,12,14,5,7,6,9,1,2,3,8,4,15,13"
14095,commdev-image-keyboard-response,67,263201,learnblock1,941.5,img/planet4_left.png,4,Community 3,NA,TRUE,f,f,NA,NA,NA,NA,6,"11,10,12,14,5,7,6,9,1,2,3,8,4,15,13"
14095,commdev-image-keyboard-response,68,264454,learnblock1,685.5,img/planet13_right.png,13,Community 3,NA,TRUE,j,j,NA,NA,NA,NA,6,"11,10,12,14,5,7,6,9,1,2,3,8,4,15,13"
14095,commdev-image-keyboard-response,69,265707,learnblock1,823.5,img/planet8_right.png,8,Community 3,NA,TRUE,j,j,NA,NA,NA,NA,6,"11,10,12,14,5,7,6,9,1,2,3,8,4,15,13"
14095,commdev-image-keyboard-response,70,266959,learnblock1,634.5,img/planet15_right.png,15,Community 3,NA,FALSE,f,j,NA,NA,NA,NA,6,"11,10,12,14,5,7,6,9,1,2,3,8,4,15,13"
14095,commdev-image-keyboard-response,71,268212,learnblock1,703.0999999940395,img/planet13_left.png,13,Community 3,NA,FALSE,j,f,NA,NA,NA,NA,6,"11,10,12,14,5,7,6,9,1,2,3,8,4,15,13"
14095,commdev-image-keyboard-response,72,269466,learnblock1,1207.7999999970198,img/planet8_right.png,8,Community 3,NA,TRUE,j,j,NA,NA,NA,NA,6,"11,10,12,14,5,7,6,9,1,2,3,8,4,15,13"
14095,commdev-image-keyboard-response,73,270719,learnblock1,836.4000000059605,img/planet13_left.png,13,Community 3,NA,FALSE,j,f,NA,NA,NA,NA,6,"11,10,12,14,5,7,6,9,1,2,3,8,4,15,13"
14095,commdev-image-keyboard-response,74,271970,learnblock1,621.2999999970198,img/planet3_right.png,3,Community 3,NA,TRUE,j,j,NA,NA,NA,NA,6,"11,10,12,14,5,7,6,9,1,2,3,8,4,15,13"
14095,commdev-image-keyboard-response,75,273222,learnblock1,1198.6000000014901,img/planet5_right.png,5,Community 1,NA,TRUE,j,j,NA,NA,NA,NA,6,"11,10,12,14,5,7,6,9,1,2,3,8,4,15,13"
14095,commdev-image-keyboard-response,76,274475,learnblock1,723,img/planet3_left.png,3,Community 3,NA,FALSE,j,f,NA,NA,NA,NA,6,"11,10,12,14,5,7,6,9,1,2,3,8,4,15,13"
14095,commdev-image-keyboard-response,77,275728,learnblock1,465.20000000298023,img/planet15_left.png,15,Community 3,NA,TRUE,f,f,NA,NA,NA,NA,6,"11,10,12,14,5,7,6,9,1,2,3,8,4,15,13"
14095,commdev-image-keyboard-response,78,276981,learnblock1,617.5,img/planet3_right.png,3,Community 3,NA,TRUE,j,j,NA,NA,NA,NA,6,"11,10,12,14,5,7,6,9,1,2,3,8,4,15,13"
14095,commdev-image-keyboard-response,79,278232,learnblock1,826.2000000029802,img/planet4_right.png,4,Community 3,NA,TRUE,j,j,NA,NA,NA,NA,6,"11,10,12,14,5,7,6,9,1,2,3,8,4,15,13"
14095,commdev-image-keyboard-response,80,279486,learnblock1,646,img/planet15_right.png,15,Community 3,NA,FALSE,f,j,NA,NA,NA,NA,6,"11,10,12,14,5,7,6,9,1,2,3,8,4,15,13"
14095,commdev-image-keyboard-response,81,280739,learnblock1,619.8000000044703,img/planet4_left.png,4,Community 3,NA,FALSE,j,f,NA,NA,NA,NA,6,"11,10,12,14,5,7,6,9,1,2,3,8,4,15,13"
14095,commdev-image-keyboard-response,82,281992,learnblock1,472.5,img/planet13_right.png,13,Community 3,NA,FALSE,f,j,NA,NA,NA,NA,6,"11,10,12,14,5,7,6,9,1,2,3,8,4,15,13"
14095,commdev-image-keyboard-response,83,283246,learnblock1,674.8000000044703,img/planet15_left.png,15,Community 3,NA,TRUE,f,f,NA,NA,NA,NA,6,"11,10,12,14,5,7,6,9,1,2,3,8,4,15,13"
14095,commdev-image-keyboard-response,84,284499,learnblock1,456.70000000298023,img/planet13_right.png,13,Community 3,NA,TRUE,j,j,NA,NA,NA,NA,6,"11,10,12,14,5,7,6,9,1,2,3,8,4,15,13"
14095,commdev-image-keyboard-response,85,285752,learnblock1,777.8999999985099,img/planet8_left.png,8,Community 3,NA,FALSE,j,f,NA,NA,NA,NA,6,"11,10,12,14,5,7,6,9,1,2,3,8,4,15,13"
14095,commdev-image-keyboard-response,86,287005,learnblock1,924.8999999985099,img/planet4_right.png,4,Community 3,NA,TRUE,j,j,NA,NA,NA,NA,6,"11,10,12,14,5,7,6,9,1,2,3,8,4,15,13"
14095,commdev-image-keyboard-response,87,288258,learnblock1,598.8999999985099,img/planet3_left.png,3,Community 3,NA,FALSE,j,f,NA,NA,NA,NA,6,"11,10,12,14,5,7,6,9,1,2,3,8,4,15,13"
14095,commdev-image-keyboard-response,88,289511,learnblock1,528.7999999970198,img/planet13_right.png,13,Community 3,NA,TRUE,j,j,NA,NA,NA,NA,6,"11,10,12,14,5,7,6,9,1,2,3,8,4,15,13"
14095,commdev-image-keyboard-response,89,290765,learnblock1,503.30000000447035,img/planet15_left.png,15,Community 3,NA,TRUE,f,f,NA,NA,NA,NA,6,"11,10,12,14,5,7,6,9,1,2,3,8,4,15,13"
14095,commdev-image-keyboard-response,90,292018,learnblock1,487.90000000596046,img/planet13_left.png,13,Community 3,NA,FALSE,j,f,NA,NA,NA,NA,6,"11,10,12,14,5,7,6,9,1,2,3,8,4,15,13"
14095,commdev-image-keyboard-response,91,293271,learnblock1,585.9000000059605,img/planet3_left.png,3,Community 3,NA,FALSE,j,f,NA,NA,NA,NA,6,"11,10,12,14,5,7,6,9,1,2,3,8,4,15,13"
14095,commdev-image-keyboard-response,92,294522,learnblock1,524.8000000044703,img/planet15_right.png,15,Community 3,NA,FALSE,f,j,NA,NA,NA,NA,6,"11,10,12,14,5,7,6,9,1,2,3,8,4,15,13"
14095,commdev-image-keyboard-response,93,295775,learnblock1,452.1000000014901,img/planet3_right.png,3,Community 3,NA,TRUE,j,j,NA,NA,NA,NA,6,"11,10,12,14,5,7,6,9,1,2,3,8,4,15,13"
14095,commdev-image-keyboard-response,94,297028,learnblock1,532.2000000029802,img/planet13_right.png,13,Community 3,NA,TRUE,j,j,NA,NA,NA,NA,6,"11,10,12,14,5,7,6,9,1,2,3,8,4,15,13"
14095,commdev-image-keyboard-response,95,298281,learnblock1,609.6000000014901,img/planet4_left.png,4,Community 3,NA,FALSE,j,f,NA,NA,NA,NA,6,"11,10,12,14,5,7,6,9,1,2,3,8,4,15,13"
14095,commdev-image-keyboard-response,96,299534,learnblock1,569.7000000029802,img/planet15_left.png,15,Community 3,NA,TRUE,f,f,NA,NA,NA,NA,6,"11,10,12,14,5,7,6,9,1,2,3,8,4,15,13"
14095,commdev-image-keyboard-response,97,300787,learnblock1,647,img/planet13_left.png,13,Community 3,NA,FALSE,j,f,NA,NA,NA,NA,6,"11,10,12,14,5,7,6,9,1,2,3,8,4,15,13"
14095,commdev-image-keyboard-response,98,302040,learnblock1,722.5,img/planet8_right.png,8,Community 3,NA,TRUE,j,j,NA,NA,NA,NA,6,"11,10,12,14,5,7,6,9,1,2,3,8,4,15,13"
14095,commdev-image-keyboard-response,99,303293,learnblock1,585.5,img/planet13_right.png,13,Community 3,NA,TRUE,j,j,NA,NA,NA,NA,6,"11,10,12,14,5,7,6,9,1,2,3,8,4,15,13"
14095,commdev-image-keyboard-response,100,304545,learnblock1,484.5,img/planet3_right.png,3,Community 3,NA,TRUE,j,j,NA,NA,NA,NA,6,"11,10,12,14,5,7,6,9,1,2,3,8,4,15,13"
14095,commdev-image-keyboard-response,101,305798,learnblock1,461.30000000447035,img/planet13_left.png,13,Community 3,NA,FALSE,j,f,NA,NA,NA,NA,6,"11,10,12,14,5,7,6,9,1,2,3,8,4,15,13"
14095,commdev-image-keyboard-response,102,307050,learnblock1,416.3999999985099,img/planet8_right.png,8,Community 3,NA,TRUE,j,j,NA,NA,NA,NA,6,"11,10,12,14,5,7,6,9,1,2,3,8,4,15,13"
14095,commdev-image-keyboard-response,103,308302,learnblock1,535.1000000014901,img/planet9_right.png,9,Community 2,NA,TRUE,j,j,NA,NA,NA,NA,6,"11,10,12,14,5,7,6,9,1,2,3,8,4,15,13"
14095,commdev-image-keyboard-response,104,309555,learnblock1,1064.8999999985099,img/planet8_right.png,8,Community 3,NA,TRUE,j,j,NA,NA,NA,NA,6,"11,10,12,14,5,7,6,9,1,2,3,8,4,15,13"
14095,commdev-image-keyboard-response,105,310807,learnblock1,590.4000000059605,img/planet13_left.png,13,Community 3,NA,FALSE,j,f,NA,NA,NA,NA,6,"11,10,12,14,5,7,6,9,1,2,3,8,4,15,13"
14095,commdev-image-keyboard-response,106,312061,learnblock1,868.3999999985099,img/planet4_left.png,4,Community 3,NA,FALSE,j,f,NA,NA,NA,NA,6,"11,10,12,14,5,7,6,9,1,2,3,8,4,15,13"
14095,commdev-image-keyboard-response,107,313315,learnblock1,606.8999999985099,img/planet15_right.png,15,Community 3,NA,FALSE,f,j,NA,NA,NA,NA,6,"11,10,12,14,5,7,6,9,1,2,3,8,4,15,13"
14095,commdev-image-keyboard-response,108,314566,learnblock1,635.5,img/planet3_left.png,3,Community 3,NA,FALSE,j,f,NA,NA,NA,NA,6,"11,10,12,14,5,7,6,9,1,2,3,8,4,15,13"
14095,commdev-image-keyboard-response,109,315820,learnblock1,587.5,img/planet13_left.png,13,Community 3,NA,FALSE,j,f,NA,NA,NA,NA,6,"11,10,12,14,5,7,6,9,1,2,3,8,4,15,13"
14095,commdev-image-keyboard-response,110,317073,learnblock1,596,img/planet15_left.png,15,Community 3,NA,TRUE,f,f,NA,NA,NA,NA,6,"11,10,12,14,5,7,6,9,1,2,3,8,4,15,13"
14095,commdev-image-keyboard-response,111,318326,learnblock1,904.3000000044703,img/planet4_right.png,4,Community 3,NA,TRUE,j,j,NA,NA,NA,NA,6,"11,10,12,14,5,7,6,9,1,2,3,8,4,15,13"
14095,commdev-image-keyboard-response,112,319578,learnblock1,618.1000000014901,img/planet13_left.png,13,Community 3,NA,FALSE,j,f,NA,NA,NA,NA,6,"11,10,12,14,5,7,6,9,1,2,3,8,4,15,13"
14095,commdev-image-keyboard-response,113,320830,learnblock1,524,img/planet15_left.png,15,Community 3,NA,TRUE,f,f,NA,NA,NA,NA,6,"11,10,12,14,5,7,6,9,1,2,3,8,4,15,13"
14095,commdev-image-keyboard-response,114,322084,learnblock1,555.5,img/planet3_right.png,3,Community 3,NA,TRUE,j,j,NA,NA,NA,NA,6,"11,10,12,14,5,7,6,9,1,2,3,8,4,15,13"
14095,commdev-image-keyboard-response,115,323336,learnblock1,919,img/planet5_left.png,5,Community 1,NA,FALSE,j,f,NA,NA,NA,NA,6,"11,10,12,14,5,7,6,9,1,2,3,8,4,15,13"
14095,commdev-image-keyboard-response,116,324589,learnblock1,1046.7000000029802,img/planet12_left.png,12,Community 1,NA,FALSE,j,f,NA,NA,NA,NA,6,"11,10,12,14,5,7,6,9,1,2,3,8,4,15,13"
14095,commdev-image-keyboard-response,117,325842,learnblock1,1065,img/planet10_left.png,10,Community 1,NA,TRUE,f,f,NA,NA,NA,NA,6,"11,10,12,14,5,7,6,9,1,2,3,8,4,15,13"
14095,commdev-image-keyboard-response,118,327094,learnblock1,780.6999999955297,img/planet11_left.png,11,Community 1,NA,TRUE,f,f,NA,NA,NA,NA,6,"11,10,12,14,5,7,6,9,1,2,3,8,4,15,13"
14095,commdev-image-keyboard-response,119,328346,learnblock1,805.2000000029802,img/planet14_right.png,14,Community 1,NA,TRUE,j,j,NA,NA,NA,NA,6,"11,10,12,14,5,7,6,9,1,2,3,8,4,15,13"
14095,commdev-image-keyboard-response,120,329598,learnblock1,713,img/planet7_left.png,7,Community 2,NA,FALSE,j,f,NA,NA,NA,NA,6,"11,10,12,14,5,7,6,9,1,2,3,8,4,15,13"
14095,commdev-image-keyboard-response,121,330850,learnblock1,796,img/planet2_left.png,2,Community 2,NA,FALSE,j,f,NA,NA,NA,NA,6,"11,10,12,14,5,7,6,9,1,2,3,8,4,15,13"
14095,commdev-image-keyboard-response,122,332102,learnblock1,977.8999999985099,img/planet6_left.png,6,Community 2,NA,TRUE,f,f,NA,NA,NA,NA,6,"11,10,12,14,5,7,6,9,1,2,3,8,4,15,13"
14095,commdev-image-keyboard-response,123,333354,learnblock1,1019.7999999970198,img/planet2_left.png,2,Community 2,NA,FALSE,j,f,NA,NA,NA,NA,6,"11,10,12,14,5,7,6,9,1,2,3,8,4,15,13"
14095,commdev-image-keyboard-response,124,334606,learnblock1,835.1000000014901,img/planet6_right.png,6,Community 2,NA,FALSE,f,j,NA,NA,NA,NA,6,"11,10,12,14,5,7,6,9,1,2,3,8,4,15,13"
14095,commdev-image-keyboard-response,125,335859,learnblock1,969.1000000014901,img/planet7_right.png,7,Community 2,NA,TRUE,j,j,NA,NA,NA,NA,6,"11,10,12,14,5,7,6,9,1,2,3,8,4,15,13"
14095,commdev-image-keyboard-response,126,337111,learnblock1,851.2000000029802,img/planet14_left.png,14,Community 1,NA,TRUE,f,f,NA,NA,NA,NA,6,"11,10,12,14,5,7,6,9,1,2,3,8,4,15,13"
14095,commdev-image-keyboard-response,127,338364,learnblock1,628,img/planet7_left.png,7,Community 2,NA,TRUE,f,f,NA,NA,NA,NA,6,"11,10,12,14,5,7,6,9,1,2,3,8,4,15,13"
14095,commdev-image-keyboard-response,128,339617,learnblock1,843.2000000029802,img/planet2_left.png,2,Community 2,NA,TRUE,f,f,NA,NA,NA,NA,6,"11,10,12,14,5,7,6,9,1,2,3,8,4,15,13"
14095,commdev-image-keyboard-response,129,340870,learnblock1,590.5,img/planet6_right.png,6,Community 2,NA,FALSE,f,j,NA,NA,NA,NA,6,"11,10,12,14,5,7,6,9,1,2,3,8,4,15,13"
14095,commdev-image-keyboard-response,130,342122,learnblock1,576.7999999970198,img/planet7_right.png,7,Community 2,NA,FALSE,f,j,NA,NA,NA,NA,6,"11,10,12,14,5,7,6,9,1,2,3,8,4,15,13"
14095,commdev-image-keyboard-response,131,343374,learnblock1,863.8000000044703,img/planet1_right.png,1,Community 2,NA,FALSE,f,j,NA,NA,NA,NA,6,"11,10,12,14,5,7,6,9,1,2,3,8,4,15,13"
14095,commdev-image-keyboard-response,132,344625,learnblock1,null,img/planet9_right.png,9,Community 2,NA,FALSE,null,j,NA,NA,NA,NA,6,"11,10,12,14,5,7,6,9,1,2,3,8,4,15,13"
14095,commdev-image-keyboard-response,133,345877,learnblock1,131.69999999552965,img/planet2_right.png,2,Community 2,NA,TRUE,j,j,NA,NA,NA,NA,6,"11,10,12,14,5,7,6,9,1,2,3,8,4,15,13"
14095,commdev-image-keyboard-response,134,347129,learnblock1,185.79999999701977,img/planet1_left.png,1,Community 2,NA,FALSE,j,f,NA,NA,NA,NA,6,"11,10,12,14,5,7,6,9,1,2,3,8,4,15,13"
14095,commdev-image-keyboard-response,135,348381,learnblock1,1012.7000000029802,img/planet9_left.png,9,Community 2,NA,TRUE,f,f,NA,NA,NA,NA,6,"11,10,12,14,5,7,6,9,1,2,3,8,4,15,13"
14095,commdev-image-keyboard-response,136,349634,learnblock1,772.6000000014901,img/planet1_right.png,1,Community 2,NA,TRUE,j,j,NA,NA,NA,NA,6,"11,10,12,14,5,7,6,9,1,2,3,8,4,15,13"
14095,commdev-image-keyboard-response,137,350887,learnblock1,883.4000000059605,img/planet7_left.png,7,Community 2,NA,TRUE,f,f,NA,NA,NA,NA,6,"11,10,12,14,5,7,6,9,1,2,3,8,4,15,13"
14095,commdev-image-keyboard-response,138,352139,learnblock1,1142.1999999955297,img/planet14_left.png,14,Community 1,NA,TRUE,f,f,NA,NA,NA,NA,6,"11,10,12,14,5,7,6,9,1,2,3,8,4,15,13"
14095,commdev-image-keyboard-response,139,353391,learnblock1,1081.1999999955297,img/planet11_left.png,11,Community 1,NA,TRUE,f,f,NA,NA,NA,NA,6,"11,10,12,14,5,7,6,9,1,2,3,8,4,15,13"
14095,commdev-image-keyboard-response,140,354642,learnblock1,657.3999999985099,img/planet10_left.png,10,Community 1,NA,TRUE,f,f,NA,NA,NA,NA,6,"11,10,12,14,5,7,6,9,1,2,3,8,4,15,13"
14095,commdev-image-keyboard-response,141,355895,learnblock1,705.0999999940395,img/planet14_left.png,14,Community 1,NA,TRUE,f,f,NA,NA,NA,NA,6,"11,10,12,14,5,7,6,9,1,2,3,8,4,15,13"
14095,commdev-image-keyboard-response,142,357148,learnblock1,829,img/planet7_left.png,7,Community 2,NA,TRUE,f,f,NA,NA,NA,NA,6,"11,10,12,14,5,7,6,9,1,2,3,8,4,15,13"
14095,commdev-image-keyboard-response,143,358400,learnblock1,793.6000000014901,img/planet2_right.png,2,Community 2,NA,TRUE,j,j,NA,NA,NA,NA,6,"11,10,12,14,5,7,6,9,1,2,3,8,4,15,13"
14095,commdev-image-keyboard-response,144,359653,learnblock1,901.3000000044703,img/planet7_right.png,7,Community 2,NA,TRUE,j,j,NA,NA,NA,NA,6,"11,10,12,14,5,7,6,9,1,2,3,8,4,15,13"
14095,commdev-image-keyboard-response,145,360905,learnblock1,1058.1000000014901,img/planet2_left.png,2,Community 2,NA,TRUE,f,f,NA,NA,NA,NA,6,"11,10,12,14,5,7,6,9,1,2,3,8,4,15,13"
14095,commdev-image-keyboard-response,146,362158,learnblock1,765.7000000029802,img/planet6_left.png,6,Community 2,NA,TRUE,f,f,NA,NA,NA,NA,6,"11,10,12,14,5,7,6,9,1,2,3,8,4,15,13"
14095,commdev-image-keyboard-response,147,363410,learnblock1,681.8999999985099,img/planet2_left.png,2,Community 2,NA,TRUE,f,f,NA,NA,NA,NA,6,"11,10,12,14,5,7,6,9,1,2,3,8,4,15,13"
14095,commdev-image-keyboard-response,148,364661,learnblock1,603.6999999955297,img/planet1_left.png,1,Community 2,NA,TRUE,f,f,NA,NA,NA,NA,6,"11,10,12,14,5,7,6,9,1,2,3,8,4,15,13"
14095,commdev-image-keyboard-response,149,365913,learnblock1,541.5999999940395,img/planet2_right.png,2,Community 2,NA,TRUE,j,j,NA,NA,NA,NA,6,"11,10,12,14,5,7,6,9,1,2,3,8,4,15,13"
14095,commdev-image-keyboard-response,150,367165,learnblock1,862.6000000014901,img/planet6_right.png,6,Community 2,NA,TRUE,j,j,NA,NA,NA,NA,6,"11,10,12,14,5,7,6,9,1,2,3,8,4,15,13"
14095,commdev-image-keyboard-response,151,368418,learnblock1,856.5,img/planet1_right.png,1,Community 2,NA,TRUE,j,j,NA,NA,NA,NA,6,"11,10,12,14,5,7,6,9,1,2,3,8,4,15,13"
14095,commdev-image-keyboard-response,152,369671,learnblock1,737.0999999940395,img/planet6_left.png,6,Community 2,NA,TRUE,f,f,NA,NA,NA,NA,6,"11,10,12,14,5,7,6,9,1,2,3,8,4,15,13"
14095,commdev-image-keyboard-response,153,370923,learnblock1,1010.8999999985099,img/planet9_left.png,9,Community 2,NA,TRUE,f,f,NA,NA,NA,NA,6,"11,10,12,14,5,7,6,9,1,2,3,8,4,15,13"
14095,commdev-image-keyboard-response,154,372175,learnblock1,733.4000000059605,img/planet2_left.png,2,Community 2,NA,TRUE,f,f,NA,NA,NA,NA,6,"11,10,12,14,5,7,6,9,1,2,3,8,4,15,13"
14095,commdev-image-keyboard-response,155,373427,learnblock1,685.7000000029802,img/planet1_left.png,1,Community 2,NA,TRUE,f,f,NA,NA,NA,NA,6,"11,10,12,14,5,7,6,9,1,2,3,8,4,15,13"
14095,commdev-image-keyboard-response,156,374679,learnblock1,587,img/planet9_left.png,9,Community 2,NA,TRUE,f,f,NA,NA,NA,NA,6,"11,10,12,14,5,7,6,9,1,2,3,8,4,15,13"
14095,commdev-image-keyboard-response,157,375931,learnblock1,714.2999999970198,img/planet6_right.png,6,Community 2,NA,TRUE,j,j,NA,NA,NA,NA,6,"11,10,12,14,5,7,6,9,1,2,3,8,4,15,13"
14095,commdev-image-keyboard-response,158,377185,learnblock1,504.1000000014901,img/planet1_left.png,1,Community 2,NA,TRUE,f,f,NA,NA,NA,NA,6,"11,10,12,14,5,7,6,9,1,2,3,8,4,15,13"
14095,commdev-image-keyboard-response,159,378437,learnblock1,803.6000000014901,img/planet9_right.png,9,Community 2,NA,TRUE,j,j,NA,NA,NA,NA,6,"11,10,12,14,5,7,6,9,1,2,3,8,4,15,13"
14095,commdev-image-keyboard-response,160,379690,learnblock1,752.5,img/planet1_right.png,1,Community 2,NA,TRUE,j,j,NA,NA,NA,NA,6,"11,10,12,14,5,7,6,9,1,2,3,8,4,15,13"
14095,commdev-image-keyboard-response,161,380942,learnblock1,667.8999999985099,img/planet7_left.png,7,Community 2,NA,TRUE,f,f,NA,NA,NA,NA,6,"11,10,12,14,5,7,6,9,1,2,3,8,4,15,13"
14095,commdev-image-keyboard-response,162,382194,learnblock1,743.5999999940395,img/planet6_left.png,6,Community 2,NA,TRUE,f,f,NA,NA,NA,NA,6,"11,10,12,14,5,7,6,9,1,2,3,8,4,15,13"
14095,commdev-image-keyboard-response,163,383447,learnblock1,702.1999999955297,img/planet9_right.png,9,Community 2,NA,TRUE,j,j,NA,NA,NA,NA,6,"11,10,12,14,5,7,6,9,1,2,3,8,4,15,13"
14095,commdev-image-keyboard-response,164,384699,learnblock1,453.70000000298023,img/planet2_left.png,2,Community 2,NA,TRUE,f,f,NA,NA,NA,NA,6,"11,10,12,14,5,7,6,9,1,2,3,8,4,15,13"
14095,commdev-image-keyboard-response,165,385950,learnblock1,783.4000000059605,img/planet6_left.png,6,Community 2,NA,TRUE,f,f,NA,NA,NA,NA,6,"11,10,12,14,5,7,6,9,1,2,3,8,4,15,13"
14095,commdev-image-keyboard-response,166,387203,learnblock1,649.7999999970198,img/planet9_left.png,9,Community 2,NA,TRUE,f,f,NA,NA,NA,NA,6,"11,10,12,14,5,7,6,9,1,2,3,8,4,15,13"
14095,commdev-image-keyboard-response,167,388456,learnblock1,564,img/planet2_left.png,2,Community 2,NA,TRUE,f,f,NA,NA,NA,NA,6,"11,10,12,14,5,7,6,9,1,2,3,8,4,15,13"
14095,commdev-image-keyboard-response,168,389709,learnblock1,633.1000000014901,img/planet6_left.png,6,Community 2,NA,TRUE,f,f,NA,NA,NA,NA,6,"11,10,12,14,5,7,6,9,1,2,3,8,4,15,13"
14095,commdev-image-keyboard-response,169,390962,learnblock1,811.3999999985099,img/planet9_left.png,9,Community 2,NA,TRUE,f,f,NA,NA,NA,NA,6,"11,10,12,14,5,7,6,9,1,2,3,8,4,15,13"
14095,commdev-image-keyboard-response,170,392214,learnblock1,695.2999999970198,img/planet8_right.png,8,Community 3,NA,TRUE,j,j,NA,NA,NA,NA,6,"11,10,12,14,5,7,6,9,1,2,3,8,4,15,13"
14095,commdev-image-keyboard-response,171,393467,learnblock1,632.0999999940395,img/planet13_left.png,13,Community 3,NA,TRUE,f,f,NA,NA,NA,NA,6,"11,10,12,14,5,7,6,9,1,2,3,8,4,15,13"
14095,commdev-image-keyboard-response,172,394718,learnblock1,839.2999999970198,img/planet15_left.png,15,Community 3,NA,TRUE,f,f,NA,NA,NA,NA,6,"11,10,12,14,5,7,6,9,1,2,3,8,4,15,13"
14095,commdev-image-keyboard-response,173,395970,learnblock1,731.2999999970198,img/planet3_right.png,3,Community 3,NA,TRUE,j,j,NA,NA,NA,NA,6,"11,10,12,14,5,7,6,9,1,2,3,8,4,15,13"
14095,commdev-image-keyboard-response,174,397222,learnblock1,735.0999999940395,img/planet5_right.png,5,Community 1,NA,TRUE,j,j,NA,NA,NA,NA,6,"11,10,12,14,5,7,6,9,1,2,3,8,4,15,13"
14095,commdev-image-keyboard-response,175,398474,learnblock1,560.7999999970198,img/planet11_left.png,11,Community 1,NA,TRUE,f,f,NA,NA,NA,NA,6,"11,10,12,14,5,7,6,9,1,2,3,8,4,15,13"
14095,commdev-image-keyboard-response,176,399727,learnblock1,658.1999999955297,img/planet14_left.png,14,Community 1,NA,TRUE,f,f,NA,NA,NA,NA,6,"11,10,12,14,5,7,6,9,1,2,3,8,4,15,13"
14095,commdev-image-keyboard-response,177,400979,learnblock1,652.3999999985099,img/planet11_right.png,11,Community 1,NA,TRUE,j,j,NA,NA,NA,NA,6,"11,10,12,14,5,7,6,9,1,2,3,8,4,15,13"
14095,commdev-image-keyboard-response,178,402232,learnblock1,628.6000000014901,img/planet12_left.png,12,Community 1,NA,TRUE,f,f,NA,NA,NA,NA,6,"11,10,12,14,5,7,6,9,1,2,3,8,4,15,13"
14095,commdev-image-keyboard-response,179,403484,learnblock1,802.6000000014901,img/planet5_left.png,5,Community 1,NA,TRUE,f,f,NA,NA,NA,NA,6,"11,10,12,14,5,7,6,9,1,2,3,8,4,15,13"
14095,commdev-image-keyboard-response,180,404737,learnblock1,705.8000000044703,img/planet11_left.png,11,Community 1,NA,TRUE,f,f,NA,NA,NA,NA,6,"11,10,12,14,5,7,6,9,1,2,3,8,4,15,13"
14095,commdev-image-keyboard-response,181,405989,learnblock1,838.7999999970198,img/planet5_left.png,5,Community 1,NA,TRUE,f,f,NA,NA,NA,NA,6,"11,10,12,14,5,7,6,9,1,2,3,8,4,15,13"
14095,commdev-image-keyboard-response,182,407241,learnblock1,758.8999999985099,img/planet11_right.png,11,Community 1,NA,TRUE,j,j,NA,NA,NA,NA,6,"11,10,12,14,5,7,6,9,1,2,3,8,4,15,13"
14095,commdev-image-keyboard-response,183,408493,learnblock1,484.09999999403954,img/planet5_left.png,5,Community 1,NA,TRUE,f,f,NA,NA,NA,NA,6,"11,10,12,14,5,7,6,9,1,2,3,8,4,15,13"
14095,commdev-image-keyboard-response,184,409746,learnblock1,544.3999999985099,img/planet11_left.png,11,Community 1,NA,TRUE,f,f,NA,NA,NA,NA,6,"11,10,12,14,5,7,6,9,1,2,3,8,4,15,13"
14095,commdev-image-keyboard-response,185,410999,learnblock1,724.1000000014901,img/planet12_left.png,12,Community 1,NA,TRUE,f,f,NA,NA,NA,NA,6,"11,10,12,14,5,7,6,9,1,2,3,8,4,15,13"
14095,commdev-image-keyboard-response,186,412252,learnblock1,961.7999999970198,img/planet5_left.png,5,Community 1,NA,TRUE,f,f,NA,NA,NA,NA,6,"11,10,12,14,5,7,6,9,1,2,3,8,4,15,13"
14095,commdev-image-keyboard-response,187,413505,learnblock1,785.8999999985099,img/planet11_right.png,11,Community 1,NA,TRUE,j,j,NA,NA,NA,NA,6,"11,10,12,14,5,7,6,9,1,2,3,8,4,15,13"
14095,commdev-image-keyboard-response,188,414758,learnblock1,472.5,img/planet10_left.png,10,Community 1,NA,TRUE,f,f,NA,NA,NA,NA,6,"11,10,12,14,5,7,6,9,1,2,3,8,4,15,13"
14095,commdev-image-keyboard-response,189,416012,learnblock1,648.1000000014901,img/planet12_left.png,12,Community 1,NA,TRUE,f,f,NA,NA,NA,NA,6,"11,10,12,14,5,7,6,9,1,2,3,8,4,15,13"
14095,commdev-image-keyboard-response,190,417263,learnblock1,751,img/planet14_right.png,14,Community 1,NA,TRUE,j,j,NA,NA,NA,NA,6,"11,10,12,14,5,7,6,9,1,2,3,8,4,15,13"
14095,commdev-image-keyboard-response,191,418516,learnblock1,484.80000000447035,img/planet10_left.png,10,Community 1,NA,TRUE,f,f,NA,NA,NA,NA,6,"11,10,12,14,5,7,6,9,1,2,3,8,4,15,13"
14095,commdev-image-keyboard-response,192,419768,learnblock1,759.2000000029802,img/planet14_right.png,14,Community 1,NA,TRUE,j,j,NA,NA,NA,NA,6,"11,10,12,14,5,7,6,9,1,2,3,8,4,15,13"
14095,commdev-image-keyboard-response,193,421021,learnblock1,541,img/planet7_left.png,7,Community 2,NA,TRUE,f,f,NA,NA,NA,NA,6,"11,10,12,14,5,7,6,9,1,2,3,8,4,15,13"
14095,commdev-image-keyboard-response,194,422273,learnblock1,743.3999999985099,img/planet14_left.png,14,Community 1,NA,TRUE,f,f,NA,NA,NA,NA,6,"11,10,12,14,5,7,6,9,1,2,3,8,4,15,13"
14095,commdev-image-keyboard-response,195,423527,learnblock1,689.2000000029802,img/planet11_right.png,11,Community 1,NA,TRUE,j,j,NA,NA,NA,NA,6,"11,10,12,14,5,7,6,9,1,2,3,8,4,15,13"
14095,commdev-image-keyboard-response,196,424779,learnblock1,636.3000000044703,img/planet5_right.png,5,Community 1,NA,TRUE,j,j,NA,NA,NA,NA,6,"11,10,12,14,5,7,6,9,1,2,3,8,4,15,13"
14095,commdev-image-keyboard-response,197,426032,learnblock1,786.4000000059605,img/planet3_left.png,3,Community 3,NA,TRUE,f,f,NA,NA,NA,NA,6,"11,10,12,14,5,7,6,9,1,2,3,8,4,15,13"
14095,commdev-image-keyboard-response,198,427283,learnblock1,843.6000000014901,img/planet15_right.png,15,Community 3,NA,TRUE,j,j,NA,NA,NA,NA,6,"11,10,12,14,5,7,6,9,1,2,3,8,4,15,13"
14095,commdev-image-keyboard-response,199,428535,learnblock1,781.1000000014901,img/planet13_right.png,13,Community 3,NA,TRUE,j,j,NA,NA,NA,NA,6,"11,10,12,14,5,7,6,9,1,2,3,8,4,15,13"
14095,commdev-image-keyboard-response,200,429787,learnblock1,744,img/planet3_right.png,3,Community 3,NA,TRUE,j,j,NA,NA,NA,NA,6,"11,10,12,14,5,7,6,9,1,2,3,8,4,15,13"
14095,commdev-image-keyboard-response,201,431040,learnblock1,680,img/planet4_right.png,4,Community 3,NA,TRUE,j,j,NA,NA,NA,NA,6,"11,10,12,14,5,7,6,9,1,2,3,8,4,15,13"
14095,commdev-image-keyboard-response,202,432293,learnblock1,667.2999999970198,img/planet3_right.png,3,Community 3,NA,TRUE,j,j,NA,NA,NA,NA,6,"11,10,12,14,5,7,6,9,1,2,3,8,4,15,13"
14095,commdev-image-keyboard-response,203,433546,learnblock1,658.6000000014901,img/planet4_left.png,4,Community 3,NA,TRUE,f,f,NA,NA,NA,NA,6,"11,10,12,14,5,7,6,9,1,2,3,8,4,15,13"
14095,commdev-image-keyboard-response,204,434799,learnblock1,812.5,img/planet3_right.png,3,Community 3,NA,TRUE,j,j,NA,NA,NA,NA,6,"11,10,12,14,5,7,6,9,1,2,3,8,4,15,13"
14095,commdev-image-keyboard-response,205,436052,learnblock1,667.7999999970198,img/planet4_left.png,4,Community 3,NA,TRUE,f,f,NA,NA,NA,NA,6,"11,10,12,14,5,7,6,9,1,2,3,8,4,15,13"
14095,commdev-image-keyboard-response,206,437304,learnblock1,650.2000000029802,img/planet15_left.png,15,Community 3,NA,TRUE,f,f,NA,NA,NA,NA,6,"11,10,12,14,5,7,6,9,1,2,3,8,4,15,13"
14095,commdev-image-keyboard-response,207,438557,learnblock1,699.5,img/planet4_left.png,4,Community 3,NA,TRUE,f,f,NA,NA,NA,NA,6,"11,10,12,14,5,7,6,9,1,2,3,8,4,15,13"
14095,commdev-image-keyboard-response,208,439809,learnblock1,724.6000000014901,img/planet15_right.png,15,Community 3,NA,TRUE,j,j,NA,NA,NA,NA,6,"11,10,12,14,5,7,6,9,1,2,3,8,4,15,13"
14095,commdev-image-keyboard-response,209,441062,learnblock1,647.3999999985099,img/planet3_right.png,3,Community 3,NA,TRUE,j,j,NA,NA,NA,NA,6,"11,10,12,14,5,7,6,9,1,2,3,8,4,15,13"
14095,commdev-image-keyboard-response,210,442315,learnblock1,693.8999999985099,img/planet5_left.png,5,Community 1,NA,TRUE,f,f,NA,NA,NA,NA,6,"11,10,12,14,5,7,6,9,1,2,3,8,4,15,13"
14095,commdev-image-keyboard-response,211,443568,learnblock1,646.7000000029802,img/planet10_right.png,10,Community 1,NA,TRUE,j,j,NA,NA,NA,NA,6,"11,10,12,14,5,7,6,9,1,2,3,8,4,15,13"
14095,commdev-image-keyboard-response,212,444822,learnblock1,601.2999999970198,img/planet5_left.png,5,Community 1,NA,TRUE,f,f,NA,NA,NA,NA,6,"11,10,12,14,5,7,6,9,1,2,3,8,4,15,13"
14095,commdev-image-keyboard-response,213,446073,learnblock1,970.1000000014901,img/planet12_right.png,12,Community 1,NA,TRUE,j,j,NA,NA,NA,NA,6,"11,10,12,14,5,7,6,9,1,2,3,8,4,15,13"
14095,commdev-image-keyboard-response,214,447325,learnblock1,647.5,img/planet10_right.png,10,Community 1,NA,TRUE,j,j,NA,NA,NA,NA,6,"11,10,12,14,5,7,6,9,1,2,3,8,4,15,13"
14095,commdev-image-keyboard-response,215,448578,learnblock1,692.8000000044703,img/planet5_left.png,5,Community 1,NA,TRUE,f,f,NA,NA,NA,NA,6,"11,10,12,14,5,7,6,9,1,2,3,8,4,15,13"
14095,commdev-image-keyboard-response,216,449829,learnblock1,833.3999999985099,img/planet3_left.png,3,Community 3,NA,FALSE,j,f,NA,NA,NA,NA,6,"11,10,12,14,5,7,6,9,1,2,3,8,4,15,13"
14095,commdev-image-keyboard-response,217,451081,learnblock1,725.6999999955297,img/planet13_left.png,13,Community 3,NA,TRUE,f,f,NA,NA,NA,NA,6,"11,10,12,14,5,7,6,9,1,2,3,8,4,15,13"
14095,commdev-image-keyboard-response,218,452333,learnblock1,720.0999999940395,img/planet8_right.png,8,Community 3,NA,TRUE,j,j,NA,NA,NA,NA,6,"11,10,12,14,5,7,6,9,1,2,3,8,4,15,13"
14095,commdev-image-keyboard-response,219,453586,learnblock1,742.8000000044703,img/planet9_right.png,9,Community 2,NA,TRUE,j,j,NA,NA,NA,NA,6,"11,10,12,14,5,7,6,9,1,2,3,8,4,15,13"
14095,commdev-image-keyboard-response,220,454839,learnblock1,929.4000000059605,img/planet6_right.png,6,Community 2,NA,TRUE,j,j,NA,NA,NA,NA,6,"11,10,12,14,5,7,6,9,1,2,3,8,4,15,13"
14095,commdev-image-keyboard-response,221,456092,learnblock1,615.6000000014901,img/planet9_right.png,9,Community 2,NA,TRUE,j,j,NA,NA,NA,NA,6,"11,10,12,14,5,7,6,9,1,2,3,8,4,15,13"
14095,commdev-image-keyboard-response,222,457344,learnblock1,613,img/planet2_left.png,2,Community 2,NA,TRUE,f,f,NA,NA,NA,NA,6,"11,10,12,14,5,7,6,9,1,2,3,8,4,15,13"
14095,commdev-image-keyboard-response,223,458596,learnblock1,676.2000000029802,img/planet1_right.png,1,Community 2,NA,TRUE,j,j,NA,NA,NA,NA,6,"11,10,12,14,5,7,6,9,1,2,3,8,4,15,13"
14095,commdev-image-keyboard-response,224,459848,learnblock1,575.7000000029802,img/planet2_right.png,2,Community 2,NA,FALSE,f,j,NA,NA,NA,NA,6,"11,10,12,14,5,7,6,9,1,2,3,8,4,15,13"
14095,commdev-image-keyboard-response,225,461100,learnblock1,711.1999999955297,img/planet1_left.png,1,Community 2,NA,TRUE,f,f,NA,NA,NA,NA,6,"11,10,12,14,5,7,6,9,1,2,3,8,4,15,13"
14095,commdev-image-keyboard-response,226,462354,learnblock1,698.8999999985099,img/planet2_left.png,2,Community 2,NA,TRUE,f,f,NA,NA,NA,NA,6,"11,10,12,14,5,7,6,9,1,2,3,8,4,15,13"
14095,commdev-image-keyboard-response,227,463607,learnblock1,653.5,img/planet1_right.png,1,Community 2,NA,TRUE,j,j,NA,NA,NA,NA,6,"11,10,12,14,5,7,6,9,1,2,3,8,4,15,13"
14095,commdev-image-keyboard-response,228,464859,learnblock1,839.1000000014901,img/planet2_right.png,2,Community 2,NA,TRUE,j,j,NA,NA,NA,NA,6,"11,10,12,14,5,7,6,9,1,2,3,8,4,15,13"
14095,commdev-image-keyboard-response,229,466113,learnblock1,536.7999999970198,img/planet1_left.png,1,Community 2,NA,TRUE,f,f,NA,NA,NA,NA,6,"11,10,12,14,5,7,6,9,1,2,3,8,4,15,13"
14095,commdev-image-keyboard-response,230,467366,learnblock1,589.7000000029802,img/planet6_right.png,6,Community 2,NA,TRUE,j,j,NA,NA,NA,NA,6,"11,10,12,14,5,7,6,9,1,2,3,8,4,15,13"
14095,commdev-image-keyboard-response,231,468618,learnblock1,688.6000000014901,img/planet7_left.png,7,Community 2,NA,TRUE,f,f,NA,NA,NA,NA,6,"11,10,12,14,5,7,6,9,1,2,3,8,4,15,13"
14095,commdev-image-keyboard-response,232,469871,learnblock1,655.8000000044703,img/planet2_left.png,2,Community 2,NA,TRUE,f,f,NA,NA,NA,NA,6,"11,10,12,14,5,7,6,9,1,2,3,8,4,15,13"
14095,commdev-image-keyboard-response,233,471125,learnblock1,592.2999999970198,img/planet9_right.png,9,Community 2,NA,TRUE,j,j,NA,NA,NA,NA,6,"11,10,12,14,5,7,6,9,1,2,3,8,4,15,13"
14095,commdev-image-keyboard-response,234,472378,learnblock1,548.5,img/planet2_left.png,2,Community 2,NA,TRUE,f,f,NA,NA,NA,NA,6,"11,10,12,14,5,7,6,9,1,2,3,8,4,15,13"
14095,commdev-image-keyboard-response,235,473630,learnblock1,813.7999999970198,img/planet7_left.png,7,Community 2,NA,TRUE,f,f,NA,NA,NA,NA,6,"11,10,12,14,5,7,6,9,1,2,3,8,4,15,13"
14095,commdev-image-keyboard-response,236,474883,learnblock1,620.9000000059605,img/planet1_left.png,1,Community 2,NA,TRUE,f,f,NA,NA,NA,NA,6,"11,10,12,14,5,7,6,9,1,2,3,8,4,15,13"
14095,commdev-image-keyboard-response,237,476135,learnblock1,681.1999999955297,img/planet7_right.png,7,Community 2,NA,TRUE,j,j,NA,NA,NA,NA,6,"11,10,12,14,5,7,6,9,1,2,3,8,4,15,13"
14095,commdev-image-keyboard-response,238,477388,learnblock1,556.7000000029802,img/planet14_left.png,14,Community 1,NA,TRUE,f,f,NA,NA,NA,NA,6,"11,10,12,14,5,7,6,9,1,2,3,8,4,15,13"
14095,commdev-image-keyboard-response,239,478640,learnblock1,791.2999999970198,img/planet7_right.png,7,Community 2,NA,TRUE,j,j,NA,NA,NA,NA,6,"11,10,12,14,5,7,6,9,1,2,3,8,4,15,13"
14095,commdev-image-keyboard-response,240,479892,learnblock1,1174.6999999955297,img/planet14_right.png,14,Community 1,NA,TRUE,j,j,NA,NA,NA,NA,6,"11,10,12,14,5,7,6,9,1,2,3,8,4,15,13"
14095,commdev-image-keyboard-response,241,481144,learnblock1,735.3000000044703,img/planet7_left.png,7,Community 2,NA,TRUE,f,f,NA,NA,NA,NA,6,"11,10,12,14,5,7,6,9,1,2,3,8,4,15,13"
14095,commdev-image-keyboard-response,242,482396,learnblock1,763.6000000014901,img/planet6_left.png,6,Community 2,NA,TRUE,f,f,NA,NA,NA,NA,6,"11,10,12,14,5,7,6,9,1,2,3,8,4,15,13"
14095,commdev-image-keyboard-response,243,483649,learnblock1,570.7999999970198,img/planet1_left.png,1,Community 2,NA,TRUE,f,f,NA,NA,NA,NA,6,"11,10,12,14,5,7,6,9,1,2,3,8,4,15,13"
14095,commdev-image-keyboard-response,244,484900,learnblock1,556.0999999940395,img/planet7_left.png,7,Community 2,NA,TRUE,f,f,NA,NA,NA,NA,6,"11,10,12,14,5,7,6,9,1,2,3,8,4,15,13"
14095,commdev-image-keyboard-response,245,486152,learnblock1,703.8999999985099,img/planet14_left.png,14,Community 1,NA,TRUE,f,f,NA,NA,NA,NA,6,"11,10,12,14,5,7,6,9,1,2,3,8,4,15,13"
14095,commdev-image-keyboard-response,246,487404,learnblock1,661.5,img/planet10_right.png,10,Community 1,NA,TRUE,j,j,NA,NA,NA,NA,6,"11,10,12,14,5,7,6,9,1,2,3,8,4,15,13"
14095,commdev-image-keyboard-response,247,488656,learnblock1,634.2000000029802,img/planet12_left.png,12,Community 1,NA,TRUE,f,f,NA,NA,NA,NA,6,"11,10,12,14,5,7,6,9,1,2,3,8,4,15,13"
14095,commdev-image-keyboard-response,248,489909,learnblock1,607.7999999970198,img/planet10_right.png,10,Community 1,NA,TRUE,j,j,NA,NA,NA,NA,6,"11,10,12,14,5,7,6,9,1,2,3,8,4,15,13"
14095,commdev-image-keyboard-response,249,491162,learnblock1,698.3999999985099,img/planet11_left.png,11,Community 1,NA,TRUE,f,f,NA,NA,NA,NA,6,"11,10,12,14,5,7,6,9,1,2,3,8,4,15,13"
14095,commdev-image-keyboard-response,250,492415,learnblock1,631.6999999955297,img/planet10_left.png,10,Community 1,NA,TRUE,f,f,NA,NA,NA,NA,6,"11,10,12,14,5,7,6,9,1,2,3,8,4,15,13"
14095,commdev-image-keyboard-response,251,493668,learnblock1,682.1000000014901,img/planet12_right.png,12,Community 1,NA,TRUE,j,j,NA,NA,NA,NA,6,"11,10,12,14,5,7,6,9,1,2,3,8,4,15,13"
14095,commdev-image-keyboard-response,252,494919,learnblock1,739.7000000029802,img/planet14_right.png,14,Community 1,NA,FALSE,f,j,NA,NA,NA,NA,6,"11,10,12,14,5,7,6,9,1,2,3,8,4,15,13"
14095,commdev-image-keyboard-response,253,496170,learnblock1,843.5,img/planet7_left.png,7,Community 2,NA,TRUE,f,f,NA,NA,NA,NA,6,"11,10,12,14,5,7,6,9,1,2,3,8,4,15,13"
14095,commdev-image-keyboard-response,254,497422,learnblock1,733.9000000059605,img/planet6_left.png,6,Community 2,NA,TRUE,f,f,NA,NA,NA,NA,6,"11,10,12,14,5,7,6,9,1,2,3,8,4,15,13"
14095,commdev-image-keyboard-response,255,498675,learnblock1,645.8000000044703,img/planet2_right.png,2,Community 2,NA,TRUE,j,j,NA,NA,NA,NA,6,"11,10,12,14,5,7,6,9,1,2,3,8,4,15,13"
14095,commdev-image-keyboard-response,256,499927,learnblock1,792.7999999970198,img/planet1_right.png,1,Community 2,NA,TRUE,j,j,NA,NA,NA,NA,6,"11,10,12,14,5,7,6,9,1,2,3,8,4,15,13"
14095,commdev-image-keyboard-response,257,501179,learnblock1,668.5,img/planet9_left.png,9,Community 2,NA,TRUE,f,f,NA,NA,NA,NA,6,"11,10,12,14,5,7,6,9,1,2,3,8,4,15,13"
14095,commdev-image-keyboard-response,258,502431,learnblock1,622.1000000014901,img/planet1_left.png,1,Community 2,NA,TRUE,f,f,NA,NA,NA,NA,6,"11,10,12,14,5,7,6,9,1,2,3,8,4,15,13"
14095,commdev-image-keyboard-response,259,503683,learnblock1,761.5,img/planet7_left.png,7,Community 2,NA,TRUE,f,f,NA,NA,NA,NA,6,"11,10,12,14,5,7,6,9,1,2,3,8,4,15,13"
14095,commdev-image-keyboard-response,260,504935,learnblock1,601.5,img/planet1_left.png,1,Community 2,NA,TRUE,f,f,NA,NA,NA,NA,6,"11,10,12,14,5,7,6,9,1,2,3,8,4,15,13"
14095,commdev-image-keyboard-response,261,506187,learnblock1,703.7999999970198,img/planet6_left.png,6,Community 2,NA,TRUE,f,f,NA,NA,NA,NA,6,"11,10,12,14,5,7,6,9,1,2,3,8,4,15,13"
14095,commdev-image-keyboard-response,262,507440,learnblock1,700,img/planet1_right.png,1,Community 2,NA,TRUE,j,j,NA,NA,NA,NA,6,"11,10,12,14,5,7,6,9,1,2,3,8,4,15,13"
14095,commdev-image-keyboard-response,263,508693,learnblock1,791.1000000014901,img/planet9_right.png,9,Community 2,NA,TRUE,j,j,NA,NA,NA,NA,6,"11,10,12,14,5,7,6,9,1,2,3,8,4,15,13"
14095,commdev-image-keyboard-response,264,509946,learnblock1,872.2999999970198,img/planet6_left.png,6,Community 2,NA,TRUE,f,f,NA,NA,NA,NA,6,"11,10,12,14,5,7,6,9,1,2,3,8,4,15,13"
14095,commdev-image-keyboard-response,265,511199,learnblock1,638.2000000029802,img/planet9_left.png,9,Community 2,NA,TRUE,f,f,NA,NA,NA,NA,6,"11,10,12,14,5,7,6,9,1,2,3,8,4,15,13"
14095,commdev-image-keyboard-response,266,512451,learnblock1,537.5999999940395,img/planet2_left.png,2,Community 2,NA,TRUE,f,f,NA,NA,NA,NA,6,"11,10,12,14,5,7,6,9,1,2,3,8,4,15,13"
14095,commdev-image-keyboard-response,267,513705,learnblock1,694,img/planet7_left.png,7,Community 2,NA,TRUE,f,f,NA,NA,NA,NA,6,"11,10,12,14,5,7,6,9,1,2,3,8,4,15,13"
14095,commdev-image-keyboard-response,268,514956,learnblock1,520.2999999970198,img/planet1_left.png,1,Community 2,NA,TRUE,f,f,NA,NA,NA,NA,6,"11,10,12,14,5,7,6,9,1,2,3,8,4,15,13"
14095,commdev-image-keyboard-response,269,516209,learnblock1,677.1000000014901,img/planet7_left.png,7,Community 2,NA,TRUE,f,f,NA,NA,NA,NA,6,"11,10,12,14,5,7,6,9,1,2,3,8,4,15,13"
14095,commdev-image-keyboard-response,270,517461,learnblock1,562.5,img/planet6_left.png,6,Community 2,NA,TRUE,f,f,NA,NA,NA,NA,6,"11,10,12,14,5,7,6,9,1,2,3,8,4,15,13"
14095,commdev-image-keyboard-response,271,518714,learnblock1,511.29999999701977,img/planet2_right.png,2,Community 2,NA,TRUE,j,j,NA,NA,NA,NA,6,"11,10,12,14,5,7,6,9,1,2,3,8,4,15,13"
14095,commdev-image-keyboard-response,272,519967,learnblock1,664.1999999955297,img/planet1_right.png,1,Community 2,NA,TRUE,j,j,NA,NA,NA,NA,6,"11,10,12,14,5,7,6,9,1,2,3,8,4,15,13"
14095,commdev-image-keyboard-response,273,521221,learnblock1,553.3999999985099,img/planet2_right.png,2,Community 2,NA,TRUE,j,j,NA,NA,NA,NA,6,"11,10,12,14,5,7,6,9,1,2,3,8,4,15,13"
14095,commdev-image-keyboard-response,274,522474,learnblock1,599.8999999985099,img/planet9_right.png,9,Community 2,NA,TRUE,j,j,NA,NA,NA,NA,6,"11,10,12,14,5,7,6,9,1,2,3,8,4,15,13"
14095,commdev-image-keyboard-response,275,523726,learnblock1,867,img/planet8_right.png,8,Community 3,NA,TRUE,j,j,NA,NA,NA,NA,6,"11,10,12,14,5,7,6,9,1,2,3,8,4,15,13"
14095,commdev-image-keyboard-response,276,524978,learnblock1,644.1999999955297,img/planet4_left.png,4,Community 3,NA,TRUE,f,f,NA,NA,NA,NA,6,"11,10,12,14,5,7,6,9,1,2,3,8,4,15,13"
14095,commdev-image-keyboard-response,277,526230,learnblock1,1032.2999999970198,img/planet3_left.png,3,Community 3,NA,TRUE,f,f,NA,NA,NA,NA,6,"11,10,12,14,5,7,6,9,1,2,3,8,4,15,13"
14095,commdev-image-keyboard-response,278,527482,learnblock1,786.7999999970198,img/planet15_right.png,15,Community 3,NA,TRUE,j,j,NA,NA,NA,NA,6,"11,10,12,14,5,7,6,9,1,2,3,8,4,15,13"
14095,commdev-image-keyboard-response,279,528735,learnblock1,921.2000000029802,img/planet8_left.png,8,Community 3,NA,TRUE,f,f,NA,NA,NA,NA,6,"11,10,12,14,5,7,6,9,1,2,3,8,4,15,13"
14095,commdev-image-keyboard-response,280,529988,learnblock1,714.7000000029802,img/planet13_right.png,13,Community 3,NA,TRUE,j,j,NA,NA,NA,NA,6,"11,10,12,14,5,7,6,9,1,2,3,8,4,15,13"
14095,commdev-image-keyboard-response,281,531241,learnblock1,488.80000000447035,img/planet8_left.png,8,Community 3,NA,TRUE,f,f,NA,NA,NA,NA,6,"11,10,12,14,5,7,6,9,1,2,3,8,4,15,13"
14095,commdev-image-keyboard-response,282,532494,learnblock1,676.7000000029802,img/planet13_left.png,13,Community 3,NA,TRUE,f,f,NA,NA,NA,NA,6,"11,10,12,14,5,7,6,9,1,2,3,8,4,15,13"
14095,commdev-image-keyboard-response,283,533746,learnblock1,779.1000000014901,img/planet4_left.png,4,Community 3,NA,TRUE,f,f,NA,NA,NA,NA,6,"11,10,12,14,5,7,6,9,1,2,3,8,4,15,13"
14095,commdev-image-keyboard-response,284,534998,learnblock1,787.5,img/planet8_left.png,8,Community 3,NA,TRUE,f,f,NA,NA,NA,NA,6,"11,10,12,14,5,7,6,9,1,2,3,8,4,15,13"
14095,commdev-image-keyboard-response,285,536250,learnblock1,780.6000000014901,img/planet9_left.png,9,Community 2,NA,TRUE,f,f,NA,NA,NA,NA,6,"11,10,12,14,5,7,6,9,1,2,3,8,4,15,13"
14095,commdev-image-keyboard-response,286,537502,learnblock1,482.79999999701977,img/planet2_left.png,2,Community 2,NA,TRUE,f,f,NA,NA,NA,NA,6,"11,10,12,14,5,7,6,9,1,2,3,8,4,15,13"
14095,commdev-image-keyboard-response,287,538756,learnblock1,783,img/planet9_left.png,9,Community 2,NA,TRUE,f,f,NA,NA,NA,NA,6,"11,10,12,14,5,7,6,9,1,2,3,8,4,15,13"
14095,commdev-image-keyboard-response,288,540009,learnblock1,750.7999999970198,img/planet8_right.png,8,Community 3,NA,FALSE,f,j,NA,NA,NA,NA,6,"11,10,12,14,5,7,6,9,1,2,3,8,4,15,13"
14095,commdev-image-keyboard-response,289,541262,learnblock1,null,img/planet13_right.png,13,Community 3,NA,FALSE,null,j,NA,NA,NA,NA,6,"11,10,12,14,5,7,6,9,1,2,3,8,4,15,13"
14095,commdev-image-keyboard-response,290,542515,learnblock1,37,img/planet15_right.png,15,Community 3,NA,TRUE,j,j,NA,NA,NA,NA,6,"11,10,12,14,5,7,6,9,1,2,3,8,4,15,13"
14095,commdev-image-keyboard-response,291,543768,learnblock1,944.2999999970198,img/planet3_right.png,3,Community 3,NA,TRUE,j,j,NA,NA,NA,NA,6,"11,10,12,14,5,7,6,9,1,2,3,8,4,15,13"
14095,commdev-image-keyboard-response,292,545021,learnblock1,730,img/planet13_right.png,13,Community 3,NA,TRUE,j,j,NA,NA,NA,NA,6,"11,10,12,14,5,7,6,9,1,2,3,8,4,15,13"
14095,commdev-image-keyboard-response,293,546274,learnblock1,824.5,img/planet4_left.png,4,Community 3,NA,TRUE,f,f,NA,NA,NA,NA,6,"11,10,12,14,5,7,6,9,1,2,3,8,4,15,13"
14095,commdev-image-keyboard-response,294,547526,learnblock1,764.5,img/planet3_right.png,3,Community 3,NA,TRUE,j,j,NA,NA,NA,NA,6,"11,10,12,14,5,7,6,9,1,2,3,8,4,15,13"
14095,commdev-image-keyboard-response,295,548778,learnblock1,721,img/planet5_left.png,5,Community 1,NA,TRUE,f,f,NA,NA,NA,NA,6,"11,10,12,14,5,7,6,9,1,2,3,8,4,15,13"
14095,commdev-image-keyboard-response,296,550031,learnblock1,575.8999999985099,img/planet11_left.png,11,Community 1,NA,TRUE,f,f,NA,NA,NA,NA,6,"11,10,12,14,5,7,6,9,1,2,3,8,4,15,13"
14095,commdev-image-keyboard-response,297,551283,learnblock1,591.7000000029802,img/planet5_left.png,5,Community 1,NA,TRUE,f,f,NA,NA,NA,NA,6,"11,10,12,14,5,7,6,9,1,2,3,8,4,15,13"
14095,commdev-image-keyboard-response,298,552535,learnblock1,653.3999999985099,img/planet10_left.png,10,Community 1,NA,TRUE,f,f,NA,NA,NA,NA,6,"11,10,12,14,5,7,6,9,1,2,3,8,4,15,13"
14095,commdev-image-keyboard-response,299,553787,learnblock1,587,img/planet5_left.png,5,Community 1,NA,TRUE,f,f,NA,NA,NA,NA,6,"11,10,12,14,5,7,6,9,1,2,3,8,4,15,13"
14095,commdev-image-keyboard-response,300,555040,learnblock1,618.5999999940395,img/planet11_left.png,11,Community 1,NA,TRUE,f,f,NA,NA,NA,NA,6,"11,10,12,14,5,7,6,9,1,2,3,8,4,15,13"
14095,commdev-image-keyboard-response,301,556292,learnblock1,537.6000000014901,img/planet10_right.png,10,Community 1,NA,FALSE,f,j,NA,NA,NA,NA,6,"11,10,12,14,5,7,6,9,1,2,3,8,4,15,13"
14095,commdev-image-keyboard-response,302,557544,learnblock1,771.2000000029802,img/planet5_left.png,5,Community 1,NA,TRUE,f,f,NA,NA,NA,NA,6,"11,10,12,14,5,7,6,9,1,2,3,8,4,15,13"
14095,commdev-image-keyboard-response,303,558794,learnblock1,657.8000000044703,img/planet3_left.png,3,Community 3,NA,TRUE,f,f,NA,NA,NA,NA,6,"11,10,12,14,5,7,6,9,1,2,3,8,4,15,13"
14095,commdev-image-keyboard-response,304,560046,learnblock1,572.6999999955297,img/planet13_right.png,13,Community 3,NA,TRUE,j,j,NA,NA,NA,NA,6,"11,10,12,14,5,7,6,9,1,2,3,8,4,15,13"
14095,commdev-image-keyboard-response,305,561297,learnblock1,659.2999999970198,img/planet8_left.png,8,Community 3,NA,TRUE,f,f,NA,NA,NA,NA,6,"11,10,12,14,5,7,6,9,1,2,3,8,4,15,13"
14095,commdev-image-keyboard-response,306,562549,learnblock1,612.0999999940395,img/planet13_left.png,13,Community 3,NA,TRUE,f,f,NA,NA,NA,NA,6,"11,10,12,14,5,7,6,9,1,2,3,8,4,15,13"
14095,commdev-image-keyboard-response,307,563803,learnblock1,1112.5,img/planet3_left.png,3,Community 3,NA,TRUE,f,f,NA,NA,NA,NA,6,"11,10,12,14,5,7,6,9,1,2,3,8,4,15,13"
14095,commdev-image-keyboard-response,308,565056,learnblock1,635.4000000059605,img/planet13_left.png,13,Community 3,NA,TRUE,f,f,NA,NA,NA,NA,6,"11,10,12,14,5,7,6,9,1,2,3,8,4,15,13"
14095,commdev-image-keyboard-response,309,566309,learnblock1,766.2000000029802,img/planet15_right.png,15,Community 3,NA,TRUE,j,j,NA,NA,NA,NA,6,"11,10,12,14,5,7,6,9,1,2,3,8,4,15,13"
14095,commdev-image-keyboard-response,310,567562,learnblock1,709.2000000029802,img/planet3_right.png,3,Community 3,NA,TRUE,j,j,NA,NA,NA,NA,6,"11,10,12,14,5,7,6,9,1,2,3,8,4,15,13"
14095,commdev-image-keyboard-response,311,568815,learnblock1,671,img/planet5_left.png,5,Community 1,NA,TRUE,f,f,NA,NA,NA,NA,6,"11,10,12,14,5,7,6,9,1,2,3,8,4,15,13"
14095,commdev-image-keyboard-response,312,570067,learnblock1,1032.6000000014901,img/planet3_right.png,3,Community 3,NA,FALSE,f,j,NA,NA,NA,NA,6,"11,10,12,14,5,7,6,9,1,2,3,8,4,15,13"
14095,commdev-image-keyboard-response,313,571319,learnblock1,null,img/planet4_right.png,4,Community 3,NA,FALSE,null,j,NA,NA,NA,NA,6,"11,10,12,14,5,7,6,9,1,2,3,8,4,15,13"
14095,commdev-image-keyboard-response,314,572571,learnblock1,165.79999999701977,img/planet15_right.png,15,Community 3,NA,FALSE,f,j,NA,NA,NA,NA,6,"11,10,12,14,5,7,6,9,1,2,3,8,4,15,13"
14095,commdev-image-keyboard-response,315,573823,learnblock1,724.9000000059605,img/planet8_right.png,8,Community 3,NA,TRUE,j,j,NA,NA,NA,NA,6,"11,10,12,14,5,7,6,9,1,2,3,8,4,15,13"
14095,commdev-image-keyboard-response,316,575074,learnblock1,763.3999999985099,img/planet15_left.png,15,Community 3,NA,TRUE,f,f,NA,NA,NA,NA,6,"11,10,12,14,5,7,6,9,1,2,3,8,4,15,13"
14095,commdev-image-keyboard-response,317,576327,learnblock1,616.2999999970198,img/planet8_right.png,8,Community 3,NA,TRUE,j,j,NA,NA,NA,NA,6,"11,10,12,14,5,7,6,9,1,2,3,8,4,15,13"
14095,commdev-image-keyboard-response,318,577580,learnblock1,642.6000000014901,img/planet4_left.png,4,Community 3,NA,TRUE,f,f,NA,NA,NA,NA,6,"11,10,12,14,5,7,6,9,1,2,3,8,4,15,13"
14095,commdev-image-keyboard-response,319,578832,learnblock1,718.5,img/planet13_left.png,13,Community 3,NA,TRUE,f,f,NA,NA,NA,NA,6,"11,10,12,14,5,7,6,9,1,2,3,8,4,15,13"
14095,commdev-image-keyboard-response,320,580085,learnblock1,886.6000000014901,img/planet15_right.png,15,Community 3,NA,FALSE,f,j,NA,NA,NA,NA,6,"11,10,12,14,5,7,6,9,1,2,3,8,4,15,13"
14095,commdev-image-keyboard-response,321,581338,learnblock1,772.0999999940395,img/planet3_left.png,3,Community 3,NA,TRUE,f,f,NA,NA,NA,NA,6,"11,10,12,14,5,7,6,9,1,2,3,8,4,15,13"
14095,commdev-image-keyboard-response,322,582592,learnblock1,739.1000000014901,img/planet15_left.png,15,Community 3,NA,TRUE,f,f,NA,NA,NA,NA,6,"11,10,12,14,5,7,6,9,1,2,3,8,4,15,13"
14095,commdev-image-keyboard-response,323,583845,learnblock1,687.1999999955297,img/planet4_right.png,4,Community 3,NA,TRUE,j,j,NA,NA,NA,NA,6,"11,10,12,14,5,7,6,9,1,2,3,8,4,15,13"
14095,commdev-image-keyboard-response,324,585098,learnblock1,966.2000000029802,img/planet3_right.png,3,Community 3,NA,TRUE,j,j,NA,NA,NA,NA,6,"11,10,12,14,5,7,6,9,1,2,3,8,4,15,13"
14095,commdev-image-keyboard-response,325,586349,learnblock1,848,img/planet4_right.png,4,Community 3,NA,TRUE,j,j,NA,NA,NA,NA,6,"11,10,12,14,5,7,6,9,1,2,3,8,4,15,13"
14095,commdev-image-keyboard-response,326,587603,learnblock1,null,img/planet15_left.png,15,Community 3,NA,FALSE,null,f,NA,NA,NA,NA,6,"11,10,12,14,5,7,6,9,1,2,3,8,4,15,13"
14095,commdev-image-keyboard-response,327,588855,learnblock1,139.80000000447035,img/planet8_left.png,8,Community 3,NA,TRUE,f,f,NA,NA,NA,NA,6,"11,10,12,14,5,7,6,9,1,2,3,8,4,15,13"
14095,commdev-image-keyboard-response,328,590107,learnblock1,664.2000000029802,img/planet13_right.png,13,Community 3,NA,FALSE,f,j,NA,NA,NA,NA,6,"11,10,12,14,5,7,6,9,1,2,3,8,4,15,13"
14095,commdev-image-keyboard-response,329,591360,learnblock1,791.2000000029802,img/planet3_left.png,3,Community 3,NA,TRUE,f,f,NA,NA,NA,NA,6,"11,10,12,14,5,7,6,9,1,2,3,8,4,15,13"
14095,commdev-image-keyboard-response,330,592613,learnblock1,793.2999999970198,img/planet5_left.png,5,Community 1,NA,TRUE,f,f,NA,NA,NA,NA,6,"11,10,12,14,5,7,6,9,1,2,3,8,4,15,13"
14095,commdev-image-keyboard-response,331,593865,learnblock1,717.3999999985099,img/planet11_right.png,11,Community 1,NA,TRUE,j,j,NA,NA,NA,NA,6,"11,10,12,14,5,7,6,9,1,2,3,8,4,15,13"
14095,commdev-image-keyboard-response,332,595118,learnblock1,561.1000000014901,img/planet14_left.png,14,Community 1,NA,TRUE,f,f,NA,NA,NA,NA,6,"11,10,12,14,5,7,6,9,1,2,3,8,4,15,13"
14095,commdev-image-keyboard-response,333,596370,learnblock1,694,img/planet12_left.png,12,Community 1,NA,TRUE,f,f,NA,NA,NA,NA,6,"11,10,12,14,5,7,6,9,1,2,3,8,4,15,13"
14095,commdev-image-keyboard-response,334,597622,learnblock1,843.1999999955297,img/planet11_left.png,11,Community 1,NA,TRUE,f,f,NA,NA,NA,NA,6,"11,10,12,14,5,7,6,9,1,2,3,8,4,15,13"
14095,commdev-image-keyboard-response,335,598874,learnblock1,873,img/planet12_right.png,12,Community 1,NA,TRUE,j,j,NA,NA,NA,NA,6,"11,10,12,14,5,7,6,9,1,2,3,8,4,15,13"
14095,commdev-image-keyboard-response,336,600128,learnblock1,834.9000000059605,img/planet11_right.png,11,Community 1,NA,FALSE,f,j,NA,NA,NA,NA,6,"11,10,12,14,5,7,6,9,1,2,3,8,4,15,13"
14095,commdev-image-keyboard-response,337,601381,learnblock1,751.7000000029802,img/planet12_left.png,12,Community 1,NA,TRUE,f,f,NA,NA,NA,NA,6,"11,10,12,14,5,7,6,9,1,2,3,8,4,15,13"
14095,commdev-image-keyboard-response,338,602633,learnblock1,731,img/planet14_right.png,14,Community 1,NA,FALSE,f,j,NA,NA,NA,NA,6,"11,10,12,14,5,7,6,9,1,2,3,8,4,15,13"
14095,commdev-image-keyboard-response,339,603887,learnblock1,964.1999999955297,img/planet12_right.png,12,Community 1,NA,TRUE,j,j,NA,NA,NA,NA,6,"11,10,12,14,5,7,6,9,1,2,3,8,4,15,13"
14095,commdev-image-keyboard-response,340,605138,learnblock1,null,img/planet11_left.png,11,Community 1,NA,FALSE,null,f,NA,NA,NA,NA,6,"11,10,12,14,5,7,6,9,1,2,3,8,4,15,13"
14095,commdev-image-keyboard-response,341,606391,learnblock1,910,img/planet10_right.png,10,Community 1,NA,TRUE,j,j,NA,NA,NA,NA,6,"11,10,12,14,5,7,6,9,1,2,3,8,4,15,13"
14095,commdev-image-keyboard-response,342,607644,learnblock1,643.7000000029802,img/planet14_left.png,14,Community 1,NA,TRUE,f,f,NA,NA,NA,NA,6,"11,10,12,14,5,7,6,9,1,2,3,8,4,15,13"
14095,commdev-image-keyboard-response,343,608898,learnblock1,609.7999999970198,img/planet12_right.png,12,Community 1,NA,TRUE,j,j,NA,NA,NA,NA,6,"11,10,12,14,5,7,6,9,1,2,3,8,4,15,13"
14095,commdev-image-keyboard-response,344,610151,learnblock1,721.8999999985099,img/planet11_left.png,11,Community 1,NA,TRUE,f,f,NA,NA,NA,NA,6,"11,10,12,14,5,7,6,9,1,2,3,8,4,15,13"
14095,commdev-image-keyboard-response,345,611404,learnblock1,581.6999999955297,img/planet5_left.png,5,Community 1,NA,TRUE,f,f,NA,NA,NA,NA,6,"11,10,12,14,5,7,6,9,1,2,3,8,4,15,13"
14095,commdev-image-keyboard-response,346,612656,learnblock1,1153.5,img/planet10_left.png,10,Community 1,NA,TRUE,f,f,NA,NA,NA,NA,6,"11,10,12,14,5,7,6,9,1,2,3,8,4,15,13"
14095,commdev-image-keyboard-response,347,613908,learnblock1,571.6000000014901,img/planet5_right.png,5,Community 1,NA,TRUE,j,j,NA,NA,NA,NA,6,"11,10,12,14,5,7,6,9,1,2,3,8,4,15,13"
14095,commdev-image-keyboard-response,351,633928,learnblock2,733.9000000059605,img/planet12_left.png,12,Community 1,NA,TRUE,f,f,NA,NA,NA,NA,6,"11,10,12,14,5,7,6,9,1,2,3,8,4,15,13"
14095,commdev-image-keyboard-response,352,635181,learnblock2,604.5,img/planet5_left.png,5,Community 1,NA,TRUE,f,f,NA,NA,NA,NA,6,"11,10,12,14,5,7,6,9,1,2,3,8,4,15,13"
14095,commdev-image-keyboard-response,353,636433,learnblock2,646.7000000029802,img/planet12_left.png,12,Community 1,NA,TRUE,f,f,NA,NA,NA,NA,6,"11,10,12,14,5,7,6,9,1,2,3,8,4,15,13"
14095,commdev-image-keyboard-response,354,637686,learnblock2,543,img/planet10_right.png,10,Community 1,NA,TRUE,j,j,NA,NA,NA,NA,6,"11,10,12,14,5,7,6,9,1,2,3,8,4,15,13"
14095,commdev-image-keyboard-response,355,638938,learnblock2,638.3999999985099,img/planet5_left.png,5,Community 1,NA,TRUE,f,f,NA,NA,NA,NA,6,"11,10,12,14,5,7,6,9,1,2,3,8,4,15,13"
14095,commdev-image-keyboard-response,356,640190,learnblock2,646.3999999985099,img/planet10_right.png,10,Community 1,NA,TRUE,j,j,NA,NA,NA,NA,6,"11,10,12,14,5,7,6,9,1,2,3,8,4,15,13"
14095,commdev-image-keyboard-response,357,641443,learnblock2,699.2999999970198,img/planet11_left.png,11,Community 1,NA,TRUE,f,f,NA,NA,NA,NA,6,"11,10,12,14,5,7,6,9,1,2,3,8,4,15,13"
14095,commdev-image-keyboard-response,358,642695,learnblock2,543.6000000014901,img/planet12_left.png,12,Community 1,NA,TRUE,f,f,NA,NA,NA,NA,6,"11,10,12,14,5,7,6,9,1,2,3,8,4,15,13"
14095,commdev-image-keyboard-response,359,643948,learnblock2,561.0999999940395,img/planet5_right.png,5,Community 1,NA,TRUE,j,j,NA,NA,NA,NA,6,"11,10,12,14,5,7,6,9,1,2,3,8,4,15,13"
14095,commdev-image-keyboard-response,360,645201,learnblock2,581.6000000014901,img/planet3_right.png,3,Community 3,NA,TRUE,j,j,NA,NA,NA,NA,6,"11,10,12,14,5,7,6,9,1,2,3,8,4,15,13"
14095,commdev-image-keyboard-response,361,646453,learnblock2,786.7999999970198,img/planet15_right.png,15,Community 3,NA,TRUE,j,j,NA,NA,NA,NA,6,"11,10,12,14,5,7,6,9,1,2,3,8,4,15,13"
14095,commdev-image-keyboard-response,362,647704,learnblock2,616,img/planet8_left.png,8,Community 3,NA,TRUE,f,f,NA,NA,NA,NA,6,"11,10,12,14,5,7,6,9,1,2,3,8,4,15,13"
14095,commdev-image-keyboard-response,363,648956,learnblock2,744.3999999985099,img/planet15_left.png,15,Community 3,NA,FALSE,j,f,NA,NA,NA,NA,6,"11,10,12,14,5,7,6,9,1,2,3,8,4,15,13"
14095,commdev-image-keyboard-response,364,650208,learnblock2,749,img/planet8_left.png,8,Community 3,NA,TRUE,f,f,NA,NA,NA,NA,6,"11,10,12,14,5,7,6,9,1,2,3,8,4,15,13"
14095,commdev-image-keyboard-response,365,651460,learnblock2,633.6999999955297,img/planet13_left.png,13,Community 3,NA,TRUE,f,f,NA,NA,NA,NA,6,"11,10,12,14,5,7,6,9,1,2,3,8,4,15,13"
14095,commdev-image-keyboard-response,366,652712,learnblock2,616.6000000014901,img/planet3_left.png,3,Community 3,NA,TRUE,f,f,NA,NA,NA,NA,6,"11,10,12,14,5,7,6,9,1,2,3,8,4,15,13"
14095,commdev-image-keyboard-response,367,653966,learnblock2,536.2000000029802,img/planet5_left.png,5,Community 1,NA,TRUE,f,f,NA,NA,NA,NA,6,"11,10,12,14,5,7,6,9,1,2,3,8,4,15,13"
14095,commdev-image-keyboard-response,368,655219,learnblock2,488.40000000596046,img/planet10_right.png,10,Community 1,NA,FALSE,f,j,NA,NA,NA,NA,6,"11,10,12,14,5,7,6,9,1,2,3,8,4,15,13"
14095,commdev-image-keyboard-response,369,656472,learnblock2,571.1000000014901,img/planet12_left.png,12,Community 1,NA,TRUE,f,f,NA,NA,NA,NA,6,"11,10,12,14,5,7,6,9,1,2,3,8,4,15,13"
14095,commdev-image-keyboard-response,370,657724,learnblock2,655.2000000029802,img/planet5_left.png,5,Community 1,NA,TRUE,f,f,NA,NA,NA,NA,6,"11,10,12,14,5,7,6,9,1,2,3,8,4,15,13"
14095,commdev-image-keyboard-response,371,658977,learnblock2,870.4000000059605,img/planet3_left.png,3,Community 3,NA,TRUE,f,f,NA,NA,NA,NA,6,"11,10,12,14,5,7,6,9,1,2,3,8,4,15,13"
14095,commdev-image-keyboard-response,372,660230,learnblock2,696.6000000014901,img/planet4_left.png,4,Community 3,NA,TRUE,f,f,NA,NA,NA,NA,6,"11,10,12,14,5,7,6,9,1,2,3,8,4,15,13"
14095,commdev-image-keyboard-response,373,661483,learnblock2,561.6000000014901,img/planet13_right.png,13,Community 3,NA,TRUE,j,j,NA,NA,NA,NA,6,"11,10,12,14,5,7,6,9,1,2,3,8,4,15,13"
14095,commdev-image-keyboard-response,374,662735,learnblock2,593.0999999940395,img/planet3_left.png,3,Community 3,NA,TRUE,f,f,NA,NA,NA,NA,6,"11,10,12,14,5,7,6,9,1,2,3,8,4,15,13"
14095,commdev-image-keyboard-response,375,663988,learnblock2,638.8000000044703,img/planet5_left.png,5,Community 1,NA,TRUE,f,f,NA,NA,NA,NA,6,"11,10,12,14,5,7,6,9,1,2,3,8,4,15,13"
14095,commdev-image-keyboard-response,376,665241,learnblock2,671.6999999955297,img/planet12_right.png,12,Community 1,NA,TRUE,j,j,NA,NA,NA,NA,6,"11,10,12,14,5,7,6,9,1,2,3,8,4,15,13"
14095,commdev-image-keyboard-response,377,666493,learnblock2,895.6000000014901,img/planet11_right.png,11,Community 1,NA,TRUE,j,j,NA,NA,NA,NA,6,"11,10,12,14,5,7,6,9,1,2,3,8,4,15,13"
14095,commdev-image-keyboard-response,378,667746,learnblock2,572.7999999970198,img/planet14_left.png,14,Community 1,NA,TRUE,f,f,NA,NA,NA,NA,6,"11,10,12,14,5,7,6,9,1,2,3,8,4,15,13"
14095,commdev-image-keyboard-response,379,668998,learnblock2,527.2999999970198,img/planet10_right.png,10,Community 1,NA,TRUE,j,j,NA,NA,NA,NA,6,"11,10,12,14,5,7,6,9,1,2,3,8,4,15,13"
14095,commdev-image-keyboard-response,380,670250,learnblock2,733.6000000014901,img/planet14_right.png,14,Community 1,NA,TRUE,j,j,NA,NA,NA,NA,6,"11,10,12,14,5,7,6,9,1,2,3,8,4,15,13"
14095,commdev-image-keyboard-response,381,671503,learnblock2,805.1000000014901,img/planet12_right.png,12,Community 1,NA,TRUE,j,j,NA,NA,NA,NA,6,"11,10,12,14,5,7,6,9,1,2,3,8,4,15,13"
14095,commdev-image-keyboard-response,382,672755,learnblock2,609.5999999940395,img/planet14_left.png,14,Community 1,NA,TRUE,f,f,NA,NA,NA,NA,6,"11,10,12,14,5,7,6,9,1,2,3,8,4,15,13"
14095,commdev-image-keyboard-response,383,674009,learnblock2,601.2999999970198,img/planet10_left.png,10,Community 1,NA,TRUE,f,f,NA,NA,NA,NA,6,"11,10,12,14,5,7,6,9,1,2,3,8,4,15,13"
14095,commdev-image-keyboard-response,384,675261,learnblock2,727.8000000044703,img/planet11_left.png,11,Community 1,NA,TRUE,f,f,NA,NA,NA,NA,6,"11,10,12,14,5,7,6,9,1,2,3,8,4,15,13"
14095,commdev-image-keyboard-response,385,676514,learnblock2,702,img/planet10_right.png,10,Community 1,NA,TRUE,j,j,NA,NA,NA,NA,6,"11,10,12,14,5,7,6,9,1,2,3,8,4,15,13"
14095,commdev-image-keyboard-response,386,677767,learnblock2,591.6000000014901,img/planet14_left.png,14,Community 1,NA,TRUE,f,f,NA,NA,NA,NA,6,"11,10,12,14,5,7,6,9,1,2,3,8,4,15,13"
14095,commdev-image-keyboard-response,387,679018,learnblock2,663,img/planet10_left.png,10,Community 1,NA,TRUE,f,f,NA,NA,NA,NA,6,"11,10,12,14,5,7,6,9,1,2,3,8,4,15,13"
14095,commdev-image-keyboard-response,388,680270,learnblock2,532.5,img/planet14_right.png,14,Community 1,NA,TRUE,j,j,NA,NA,NA,NA,6,"11,10,12,14,5,7,6,9,1,2,3,8,4,15,13"
14095,commdev-image-keyboard-response,389,681524,learnblock2,791.7000000029802,img/planet11_right.png,11,Community 1,NA,TRUE,j,j,NA,NA,NA,NA,6,"11,10,12,14,5,7,6,9,1,2,3,8,4,15,13"
14095,commdev-image-keyboard-response,390,682776,learnblock2,698.1000000014901,img/planet12_right.png,12,Community 1,NA,TRUE,j,j,NA,NA,NA,NA,6,"11,10,12,14,5,7,6,9,1,2,3,8,4,15,13"
14095,commdev-image-keyboard-response,391,684029,learnblock2,974,img/planet11_right.png,11,Community 1,NA,TRUE,j,j,NA,NA,NA,NA,6,"11,10,12,14,5,7,6,9,1,2,3,8,4,15,13"
14095,commdev-image-keyboard-response,392,685281,learnblock2,643.4000000059605,img/planet12_left.png,12,Community 1,NA,TRUE,f,f,NA,NA,NA,NA,6,"11,10,12,14,5,7,6,9,1,2,3,8,4,15,13"
14095,commdev-image-keyboard-response,393,686534,learnblock2,530.6999999955297,img/planet5_right.png,5,Community 1,NA,TRUE,j,j,NA,NA,NA,NA,6,"11,10,12,14,5,7,6,9,1,2,3,8,4,15,13"
14095,commdev-image-keyboard-response,394,687787,learnblock2,643.2999999970198,img/planet3_left.png,3,Community 3,NA,TRUE,f,f,NA,NA,NA,NA,6,"11,10,12,14,5,7,6,9,1,2,3,8,4,15,13"
14095,commdev-image-keyboard-response,395,689040,learnblock2,710.2000000029802,img/planet5_left.png,5,Community 1,NA,TRUE,f,f,NA,NA,NA,NA,6,"11,10,12,14,5,7,6,9,1,2,3,8,4,15,13"
14095,commdev-image-keyboard-response,396,690292,learnblock2,623.6000000014901,img/planet10_right.png,10,Community 1,NA,TRUE,j,j,NA,NA,NA,NA,6,"11,10,12,14,5,7,6,9,1,2,3,8,4,15,13"
14095,commdev-image-keyboard-response,397,691545,learnblock2,680.1999999955297,img/planet5_left.png,5,Community 1,NA,TRUE,f,f,NA,NA,NA,NA,6,"11,10,12,14,5,7,6,9,1,2,3,8,4,15,13"
14095,commdev-image-keyboard-response,398,692798,learnblock2,682.5,img/planet12_right.png,12,Community 1,NA,TRUE,j,j,NA,NA,NA,NA,6,"11,10,12,14,5,7,6,9,1,2,3,8,4,15,13"
14095,commdev-image-keyboard-response,399,694050,learnblock2,588.6999999955297,img/planet11_right.png,11,Community 1,NA,TRUE,j,j,NA,NA,NA,NA,6,"11,10,12,14,5,7,6,9,1,2,3,8,4,15,13"
14095,commdev-image-keyboard-response,400,695304,learnblock2,621.3000000044703,img/planet10_right.png,10,Community 1,NA,TRUE,j,j,NA,NA,NA,NA,6,"11,10,12,14,5,7,6,9,1,2,3,8,4,15,13"
14095,commdev-image-keyboard-response,401,696557,learnblock2,733.8999999985099,img/planet14_right.png,14,Community 1,NA,TRUE,j,j,NA,NA,NA,NA,6,"11,10,12,14,5,7,6,9,1,2,3,8,4,15,13"
14095,commdev-image-keyboard-response,402,697810,learnblock2,571.6000000014901,img/planet10_left.png,10,Community 1,NA,TRUE,f,f,NA,NA,NA,NA,6,"11,10,12,14,5,7,6,9,1,2,3,8,4,15,13"
14095,commdev-image-keyboard-response,403,699062,learnblock2,627.6000000014901,img/planet14_left.png,14,Community 1,NA,TRUE,f,f,NA,NA,NA,NA,6,"11,10,12,14,5,7,6,9,1,2,3,8,4,15,13"
14095,commdev-image-keyboard-response,404,700315,learnblock2,547.9000000059605,img/planet10_right.png,10,Community 1,NA,TRUE,j,j,NA,NA,NA,NA,6,"11,10,12,14,5,7,6,9,1,2,3,8,4,15,13"
14095,commdev-image-keyboard-response,405,701567,learnblock2,585.8999999985099,img/planet12_left.png,12,Community 1,NA,TRUE,f,f,NA,NA,NA,NA,6,"11,10,12,14,5,7,6,9,1,2,3,8,4,15,13"
14095,commdev-image-keyboard-response,406,702820,learnblock2,564.8999999985099,img/planet14_right.png,14,Community 1,NA,TRUE,j,j,NA,NA,NA,NA,6,"11,10,12,14,5,7,6,9,1,2,3,8,4,15,13"
14095,commdev-image-keyboard-response,407,704071,learnblock2,560.4000000059605,img/planet10_left.png,10,Community 1,NA,TRUE,f,f,NA,NA,NA,NA,6,"11,10,12,14,5,7,6,9,1,2,3,8,4,15,13"
14095,commdev-image-keyboard-response,408,705324,learnblock2,787.5,img/planet14_left.png,14,Community 1,NA,TRUE,f,f,NA,NA,NA,NA,6,"11,10,12,14,5,7,6,9,1,2,3,8,4,15,13"
14095,commdev-image-keyboard-response,409,706577,learnblock2,664.1000000014901,img/planet7_right.png,7,Community 2,NA,TRUE,j,j,NA,NA,NA,NA,6,"11,10,12,14,5,7,6,9,1,2,3,8,4,15,13"
14095,commdev-image-keyboard-response,410,707830,learnblock2,650,img/planet1_left.png,1,Community 2,NA,TRUE,f,f,NA,NA,NA,NA,6,"11,10,12,14,5,7,6,9,1,2,3,8,4,15,13"
14095,commdev-image-keyboard-response,411,709082,learnblock2,622,img/planet9_right.png,9,Community 2,NA,TRUE,j,j,NA,NA,NA,NA,6,"11,10,12,14,5,7,6,9,1,2,3,8,4,15,13"
14095,commdev-image-keyboard-response,412,710334,learnblock2,644.1000000014901,img/planet6_left.png,6,Community 2,NA,TRUE,f,f,NA,NA,NA,NA,6,"11,10,12,14,5,7,6,9,1,2,3,8,4,15,13"
14095,commdev-image-keyboard-response,413,711587,learnblock2,824.7000000029802,img/planet9_left.png,9,Community 2,NA,TRUE,f,f,NA,NA,NA,NA,6,"11,10,12,14,5,7,6,9,1,2,3,8,4,15,13"
14095,commdev-image-keyboard-response,414,712840,learnblock2,694.8999999985099,img/planet2_left.png,2,Community 2,NA,TRUE,f,f,NA,NA,NA,NA,6,"11,10,12,14,5,7,6,9,1,2,3,8,4,15,13"
14095,commdev-image-keyboard-response,415,714093,learnblock2,645.5,img/planet1_right.png,1,Community 2,NA,TRUE,j,j,NA,NA,NA,NA,6,"11,10,12,14,5,7,6,9,1,2,3,8,4,15,13"
14095,commdev-image-keyboard-response,416,715346,learnblock2,806.1000000014901,img/planet9_right.png,9,Community 2,NA,TRUE,j,j,NA,NA,NA,NA,6,"11,10,12,14,5,7,6,9,1,2,3,8,4,15,13"
14095,commdev-image-keyboard-response,417,716598,learnblock2,671,img/planet6_left.png,6,Community 2,NA,TRUE,f,f,NA,NA,NA,NA,6,"11,10,12,14,5,7,6,9,1,2,3,8,4,15,13"
14095,commdev-image-keyboard-response,418,717851,learnblock2,554.2999999970198,img/planet9_right.png,9,Community 2,NA,TRUE,j,j,NA,NA,NA,NA,6,"11,10,12,14,5,7,6,9,1,2,3,8,4,15,13"
14095,commdev-image-keyboard-response,419,719102,learnblock2,790,img/planet6_right.png,6,Community 2,NA,TRUE,j,j,NA,NA,NA,NA,6,"11,10,12,14,5,7,6,9,1,2,3,8,4,15,13"
14095,commdev-image-keyboard-response,420,720355,learnblock2,788.2999999970198,img/planet7_left.png,7,Community 2,NA,TRUE,f,f,NA,NA,NA,NA,6,"11,10,12,14,5,7,6,9,1,2,3,8,4,15,13"
14095,commdev-image-keyboard-response,421,721608,learnblock2,571.2000000029802,img/planet6_right.png,6,Community 2,NA,TRUE,j,j,NA,NA,NA,NA,6,"11,10,12,14,5,7,6,9,1,2,3,8,4,15,13"
14095,commdev-image-keyboard-response,422,722860,learnblock2,586.6000000014901,img/planet1_left.png,1,Community 2,NA,TRUE,f,f,NA,NA,NA,NA,6,"11,10,12,14,5,7,6,9,1,2,3,8,4,15,13"
14095,commdev-image-keyboard-response,423,724113,learnblock2,592.1999999955297,img/planet2_right.png,2,Community 2,NA,TRUE,j,j,NA,NA,NA,NA,6,"11,10,12,14,5,7,6,9,1,2,3,8,4,15,13"
14095,commdev-image-keyboard-response,424,725366,learnblock2,627.5,img/planet9_left.png,9,Community 2,NA,TRUE,f,f,NA,NA,NA,NA,6,"11,10,12,14,5,7,6,9,1,2,3,8,4,15,13"
14095,commdev-image-keyboard-response,425,726619,learnblock2,645.1000000014901,img/planet2_left.png,2,Community 2,NA,TRUE,f,f,NA,NA,NA,NA,6,"11,10,12,14,5,7,6,9,1,2,3,8,4,15,13"
14095,commdev-image-keyboard-response,426,727870,learnblock2,596.1000000014901,img/planet6_left.png,6,Community 2,NA,TRUE,f,f,NA,NA,NA,NA,6,"11,10,12,14,5,7,6,9,1,2,3,8,4,15,13"
14095,commdev-image-keyboard-response,427,729123,learnblock2,588.2999999970198,img/planet1_left.png,1,Community 2,NA,TRUE,f,f,NA,NA,NA,NA,6,"11,10,12,14,5,7,6,9,1,2,3,8,4,15,13"
14095,commdev-image-keyboard-response,428,730376,learnblock2,710.8999999985099,img/planet7_right.png,7,Community 2,NA,TRUE,j,j,NA,NA,NA,NA,6,"11,10,12,14,5,7,6,9,1,2,3,8,4,15,13"
14095,commdev-image-keyboard-response,429,731629,learnblock2,803,img/planet6_right.png,6,Community 2,NA,TRUE,j,j,NA,NA,NA,NA,6,"11,10,12,14,5,7,6,9,1,2,3,8,4,15,13"
14095,commdev-image-keyboard-response,430,732882,learnblock2,584.3999999985099,img/planet1_right.png,1,Community 2,NA,TRUE,j,j,NA,NA,NA,NA,6,"11,10,12,14,5,7,6,9,1,2,3,8,4,15,13"
14095,commdev-image-keyboard-response,431,734136,learnblock2,772.5999999940395,img/planet7_right.png,7,Community 2,NA,TRUE,j,j,NA,NA,NA,NA,6,"11,10,12,14,5,7,6,9,1,2,3,8,4,15,13"
14095,commdev-image-keyboard-response,432,735388,learnblock2,600.1000000014901,img/planet6_left.png,6,Community 2,NA,TRUE,f,f,NA,NA,NA,NA,6,"11,10,12,14,5,7,6,9,1,2,3,8,4,15,13"
14095,commdev-image-keyboard-response,433,736641,learnblock2,767.5999999940395,img/planet2_left.png,2,Community 2,NA,TRUE,f,f,NA,NA,NA,NA,6,"11,10,12,14,5,7,6,9,1,2,3,8,4,15,13"
14095,commdev-image-keyboard-response,434,737894,learnblock2,748.8000000044703,img/planet7_left.png,7,Community 2,NA,TRUE,f,f,NA,NA,NA,NA,6,"11,10,12,14,5,7,6,9,1,2,3,8,4,15,13"
14095,commdev-image-keyboard-response,435,739147,learnblock2,555.3999999985099,img/planet2_left.png,2,Community 2,NA,TRUE,f,f,NA,NA,NA,NA,6,"11,10,12,14,5,7,6,9,1,2,3,8,4,15,13"
14095,commdev-image-keyboard-response,436,740401,learnblock2,593.7999999970198,img/planet1_right.png,1,Community 2,NA,TRUE,j,j,NA,NA,NA,NA,6,"11,10,12,14,5,7,6,9,1,2,3,8,4,15,13"
14095,commdev-image-keyboard-response,437,741653,learnblock2,674.2999999970198,img/planet6_right.png,6,Community 2,NA,TRUE,j,j,NA,NA,NA,NA,6,"11,10,12,14,5,7,6,9,1,2,3,8,4,15,13"
14095,commdev-image-keyboard-response,438,742906,learnblock2,520,img/planet1_right.png,1,Community 2,NA,TRUE,j,j,NA,NA,NA,NA,6,"11,10,12,14,5,7,6,9,1,2,3,8,4,15,13"
14095,commdev-image-keyboard-response,439,744159,learnblock2,558.6999999955297,img/planet6_right.png,6,Community 2,NA,TRUE,j,j,NA,NA,NA,NA,6,"11,10,12,14,5,7,6,9,1,2,3,8,4,15,13"
14095,commdev-image-keyboard-response,440,745413,learnblock2,654.5,img/planet7_left.png,7,Community 2,NA,TRUE,f,f,NA,NA,NA,NA,6,"11,10,12,14,5,7,6,9,1,2,3,8,4,15,13"
14095,commdev-image-keyboard-response,441,746665,learnblock2,582.1000000014901,img/planet1_left.png,1,Community 2,NA,TRUE,f,f,NA,NA,NA,NA,6,"11,10,12,14,5,7,6,9,1,2,3,8,4,15,13"
14095,commdev-image-keyboard-response,442,747917,learnblock2,596.6999999955297,img/planet9_right.png,9,Community 2,NA,TRUE,j,j,NA,NA,NA,NA,6,"11,10,12,14,5,7,6,9,1,2,3,8,4,15,13"
14095,commdev-image-keyboard-response,443,749170,learnblock2,693.6000000014901,img/planet2_right.png,2,Community 2,NA,TRUE,j,j,NA,NA,NA,NA,6,"11,10,12,14,5,7,6,9,1,2,3,8,4,15,13"
14095,commdev-image-keyboard-response,444,750423,learnblock2,597.6000000014901,img/planet9_left.png,9,Community 2,NA,TRUE,f,f,NA,NA,NA,NA,6,"11,10,12,14,5,7,6,9,1,2,3,8,4,15,13"
14095,commdev-image-keyboard-response,445,751675,learnblock2,722.1999999955297,img/planet6_left.png,6,Community 2,NA,TRUE,f,f,NA,NA,NA,NA,6,"11,10,12,14,5,7,6,9,1,2,3,8,4,15,13"
14095,commdev-image-keyboard-response,446,752928,learnblock2,854.7000000029802,img/planet9_right.png,9,Community 2,NA,TRUE,j,j,NA,NA,NA,NA,6,"11,10,12,14,5,7,6,9,1,2,3,8,4,15,13"
14095,commdev-image-keyboard-response,447,754181,learnblock2,749.8999999985099,img/planet2_right.png,2,Community 2,NA,FALSE,f,j,NA,NA,NA,NA,6,"11,10,12,14,5,7,6,9,1,2,3,8,4,15,13"
14095,commdev-image-keyboard-response,448,755434,learnblock2,1024.0999999940395,img/planet7_left.png,7,Community 2,NA,TRUE,f,f,NA,NA,NA,NA,6,"11,10,12,14,5,7,6,9,1,2,3,8,4,15,13"
14095,commdev-image-keyboard-response,449,756686,learnblock2,787.8999999985099,img/planet1_left.png,1,Community 2,NA,TRUE,f,f,NA,NA,NA,NA,6,"11,10,12,14,5,7,6,9,1,2,3,8,4,15,13"
14095,commdev-image-keyboard-response,450,757939,learnblock2,657.7999999970198,img/planet2_right.png,2,Community 2,NA,TRUE,j,j,NA,NA,NA,NA,6,"11,10,12,14,5,7,6,9,1,2,3,8,4,15,13"
14095,commdev-image-keyboard-response,451,759191,learnblock2,652.8999999985099,img/planet9_right.png,9,Community 2,NA,TRUE,j,j,NA,NA,NA,NA,6,"11,10,12,14,5,7,6,9,1,2,3,8,4,15,13"
14095,commdev-image-keyboard-response,452,760444,learnblock2,578.0999999940395,img/planet2_right.png,2,Community 2,NA,TRUE,j,j,NA,NA,NA,NA,6,"11,10,12,14,5,7,6,9,1,2,3,8,4,15,13"
14095,commdev-image-keyboard-response,453,761697,learnblock2,640.5,img/planet6_left.png,6,Community 2,NA,TRUE,f,f,NA,NA,NA,NA,6,"11,10,12,14,5,7,6,9,1,2,3,8,4,15,13"
14095,commdev-image-keyboard-response,454,762949,learnblock2,938.7000000029802,img/planet2_left.png,2,Community 2,NA,TRUE,f,f,NA,NA,NA,NA,6,"11,10,12,14,5,7,6,9,1,2,3,8,4,15,13"
14095,commdev-image-keyboard-response,455,764201,learnblock2,680,img/planet1_right.png,1,Community 2,NA,TRUE,j,j,NA,NA,NA,NA,6,"11,10,12,14,5,7,6,9,1,2,3,8,4,15,13"
14095,commdev-image-keyboard-response,456,765453,learnblock2,575.7000000029802,img/planet6_left.png,6,Community 2,NA,TRUE,f,f,NA,NA,NA,NA,6,"11,10,12,14,5,7,6,9,1,2,3,8,4,15,13"
14095,commdev-image-keyboard-response,457,766706,learnblock2,567.6999999955297,img/planet9_right.png,9,Community 2,NA,TRUE,j,j,NA,NA,NA,NA,6,"11,10,12,14,5,7,6,9,1,2,3,8,4,15,13"
14095,commdev-image-keyboard-response,458,767959,learnblock2,572.5,img/planet1_left.png,1,Community 2,NA,TRUE,f,f,NA,NA,NA,NA,6,"11,10,12,14,5,7,6,9,1,2,3,8,4,15,13"
14095,commdev-image-keyboard-response,459,769211,learnblock2,535.0999999940395,img/planet6_right.png,6,Community 2,NA,TRUE,j,j,NA,NA,NA,NA,6,"11,10,12,14,5,7,6,9,1,2,3,8,4,15,13"
14095,commdev-image-keyboard-response,460,770464,learnblock2,660,img/planet9_left.png,9,Community 2,NA,TRUE,f,f,NA,NA,NA,NA,6,"11,10,12,14,5,7,6,9,1,2,3,8,4,15,13"
14095,commdev-image-keyboard-response,461,771716,learnblock2,633.6000000014901,img/planet6_right.png,6,Community 2,NA,TRUE,j,j,NA,NA,NA,NA,6,"11,10,12,14,5,7,6,9,1,2,3,8,4,15,13"
14095,commdev-image-keyboard-response,462,772968,learnblock2,1087.8999999985099,img/planet7_right.png,7,Community 2,NA,TRUE,j,j,NA,NA,NA,NA,6,"11,10,12,14,5,7,6,9,1,2,3,8,4,15,13"
14095,commdev-image-keyboard-response,463,774220,learnblock2,727.5999999940395,img/planet14_left.png,14,Community 1,NA,TRUE,f,f,NA,NA,NA,NA,6,"11,10,12,14,5,7,6,9,1,2,3,8,4,15,13"
14095,commdev-image-keyboard-response,464,775473,learnblock2,1022.5,img/planet7_left.png,7,Community 2,NA,TRUE,f,f,NA,NA,NA,NA,6,"11,10,12,14,5,7,6,9,1,2,3,8,4,15,13"
14095,commdev-image-keyboard-response,465,776726,learnblock2,697.3999999985099,img/planet2_left.png,2,Community 2,NA,TRUE,f,f,NA,NA,NA,NA,6,"11,10,12,14,5,7,6,9,1,2,3,8,4,15,13"
14095,commdev-image-keyboard-response,466,777979,learnblock2,666.1000000014901,img/planet1_left.png,1,Community 2,NA,TRUE,f,f,NA,NA,NA,NA,6,"11,10,12,14,5,7,6,9,1,2,3,8,4,15,13"
14095,commdev-image-keyboard-response,467,779231,learnblock2,709,img/planet6_left.png,6,Community 2,NA,TRUE,f,f,NA,NA,NA,NA,6,"11,10,12,14,5,7,6,9,1,2,3,8,4,15,13"
14095,commdev-image-keyboard-response,468,780484,learnblock2,766.2000000029802,img/planet7_right.png,7,Community 2,NA,TRUE,j,j,NA,NA,NA,NA,6,"11,10,12,14,5,7,6,9,1,2,3,8,4,15,13"
14095,commdev-image-keyboard-response,469,781737,learnblock2,556.2999999970198,img/planet2_left.png,2,Community 2,NA,TRUE,f,f,NA,NA,NA,NA,6,"11,10,12,14,5,7,6,9,1,2,3,8,4,15,13"
14095,commdev-image-keyboard-response,470,782991,learnblock2,827.7999999970198,img/planet9_left.png,9,Community 2,NA,TRUE,f,f,NA,NA,NA,NA,6,"11,10,12,14,5,7,6,9,1,2,3,8,4,15,13"
14095,commdev-image-keyboard-response,471,784243,learnblock2,615.1999999955297,img/planet1_right.png,1,Community 2,NA,TRUE,j,j,NA,NA,NA,NA,6,"11,10,12,14,5,7,6,9,1,2,3,8,4,15,13"
14095,commdev-image-keyboard-response,472,785496,learnblock2,884.2000000029802,img/planet7_right.png,7,Community 2,NA,TRUE,j,j,NA,NA,NA,NA,6,"11,10,12,14,5,7,6,9,1,2,3,8,4,15,13"
14095,commdev-image-keyboard-response,473,786748,learnblock2,655.6999999955297,img/planet6_right.png,6,Community 2,NA,TRUE,j,j,NA,NA,NA,NA,6,"11,10,12,14,5,7,6,9,1,2,3,8,4,15,13"
14095,commdev-image-keyboard-response,474,788000,learnblock2,599.0999999940395,img/planet2_left.png,2,Community 2,NA,TRUE,f,f,NA,NA,NA,NA,6,"11,10,12,14,5,7,6,9,1,2,3,8,4,15,13"
14095,commdev-image-keyboard-response,475,789252,learnblock2,735.5,img/planet7_right.png,7,Community 2,NA,TRUE,j,j,NA,NA,NA,NA,6,"11,10,12,14,5,7,6,9,1,2,3,8,4,15,13"
14095,commdev-image-keyboard-response,476,790504,learnblock2,581.7000000029802,img/planet2_right.png,2,Community 2,NA,TRUE,j,j,NA,NA,NA,NA,6,"11,10,12,14,5,7,6,9,1,2,3,8,4,15,13"
14095,commdev-image-keyboard-response,477,791756,learnblock2,749.5,img/planet7_right.png,7,Community 2,NA,TRUE,j,j,NA,NA,NA,NA,6,"11,10,12,14,5,7,6,9,1,2,3,8,4,15,13"
14095,commdev-image-keyboard-response,478,793009,learnblock2,673.2999999970198,img/planet1_left.png,1,Community 2,NA,TRUE,f,f,NA,NA,NA,NA,6,"11,10,12,14,5,7,6,9,1,2,3,8,4,15,13"
14095,commdev-image-keyboard-response,479,794261,learnblock2,781.1000000014901,img/planet7_left.png,7,Community 2,NA,TRUE,f,f,NA,NA,NA,NA,6,"11,10,12,14,5,7,6,9,1,2,3,8,4,15,13"
14095,commdev-image-keyboard-response,480,795515,learnblock2,723.3999999985099,img/planet14_left.png,14,Community 1,NA,TRUE,f,f,NA,NA,NA,NA,6,"11,10,12,14,5,7,6,9,1,2,3,8,4,15,13"
14095,commdev-image-keyboard-response,481,796768,learnblock2,636.1000000014901,img/planet10_right.png,10,Community 1,NA,TRUE,j,j,NA,NA,NA,NA,6,"11,10,12,14,5,7,6,9,1,2,3,8,4,15,13"
14095,commdev-image-keyboard-response,482,798020,learnblock2,691.5,img/planet14_right.png,14,Community 1,NA,TRUE,j,j,NA,NA,NA,NA,6,"11,10,12,14,5,7,6,9,1,2,3,8,4,15,13"
14095,commdev-image-keyboard-response,483,799272,learnblock2,635.2000000029802,img/planet10_right.png,10,Community 1,NA,TRUE,j,j,NA,NA,NA,NA,6,"11,10,12,14,5,7,6,9,1,2,3,8,4,15,13"
14095,commdev-image-keyboard-response,484,800524,learnblock2,631.6000000014901,img/planet5_right.png,5,Community 1,NA,TRUE,j,j,NA,NA,NA,NA,6,"11,10,12,14,5,7,6,9,1,2,3,8,4,15,13"
14095,commdev-image-keyboard-response,485,801777,learnblock2,742.3000000044703,img/planet12_right.png,12,Community 1,NA,TRUE,j,j,NA,NA,NA,NA,6,"11,10,12,14,5,7,6,9,1,2,3,8,4,15,13"
14095,commdev-image-keyboard-response,486,803030,learnblock2,599.4000000059605,img/planet14_left.png,14,Community 1,NA,TRUE,f,f,NA,NA,NA,NA,6,"11,10,12,14,5,7,6,9,1,2,3,8,4,15,13"
14095,commdev-image-keyboard-response,487,804282,learnblock2,627.7999999970198,img/planet12_right.png,12,Community 1,NA,TRUE,j,j,NA,NA,NA,NA,6,"11,10,12,14,5,7,6,9,1,2,3,8,4,15,13"
14095,commdev-image-keyboard-response,488,805535,learnblock2,638.8999999985099,img/planet5_left.png,5,Community 1,NA,TRUE,f,f,NA,NA,NA,NA,6,"11,10,12,14,5,7,6,9,1,2,3,8,4,15,13"
14095,commdev-image-keyboard-response,489,806786,learnblock2,585.8999999985099,img/planet10_left.png,10,Community 1,NA,TRUE,f,f,NA,NA,NA,NA,6,"11,10,12,14,5,7,6,9,1,2,3,8,4,15,13"
14095,commdev-image-keyboard-response,490,808039,learnblock2,758.1999999955297,img/planet11_right.png,11,Community 1,NA,TRUE,j,j,NA,NA,NA,NA,6,"11,10,12,14,5,7,6,9,1,2,3,8,4,15,13"
14095,commdev-image-keyboard-response,491,809291,learnblock2,632.3999999985099,img/planet5_left.png,5,Community 1,NA,TRUE,f,f,NA,NA,NA,NA,6,"11,10,12,14,5,7,6,9,1,2,3,8,4,15,13"
14095,commdev-image-keyboard-response,492,810542,learnblock2,795.1000000014901,img/planet3_right.png,3,Community 3,NA,TRUE,j,j,NA,NA,NA,NA,6,"11,10,12,14,5,7,6,9,1,2,3,8,4,15,13"
14095,commdev-image-keyboard-response,493,811795,learnblock2,672,img/planet4_left.png,4,Community 3,NA,TRUE,f,f,NA,NA,NA,NA,6,"11,10,12,14,5,7,6,9,1,2,3,8,4,15,13"
14095,commdev-image-keyboard-response,494,813047,learnblock2,647.9000000059605,img/planet8_right.png,8,Community 3,NA,TRUE,j,j,NA,NA,NA,NA,6,"11,10,12,14,5,7,6,9,1,2,3,8,4,15,13"
14095,commdev-image-keyboard-response,495,814300,learnblock2,703.5999999940395,img/planet4_right.png,4,Community 3,NA,TRUE,j,j,NA,NA,NA,NA,6,"11,10,12,14,5,7,6,9,1,2,3,8,4,15,13"
14095,commdev-image-keyboard-response,496,815552,learnblock2,718.1999999955297,img/planet3_left.png,3,Community 3,NA,TRUE,f,f,NA,NA,NA,NA,6,"11,10,12,14,5,7,6,9,1,2,3,8,4,15,13"
14095,commdev-image-keyboard-response,497,816805,learnblock2,753.7999999970198,img/planet13_right.png,13,Community 3,NA,TRUE,j,j,NA,NA,NA,NA,6,"11,10,12,14,5,7,6,9,1,2,3,8,4,15,13"
14095,commdev-image-keyboard-response,498,818058,learnblock2,570.3000000044703,img/planet3_right.png,3,Community 3,NA,TRUE,j,j,NA,NA,NA,NA,6,"11,10,12,14,5,7,6,9,1,2,3,8,4,15,13"
14095,commdev-image-keyboard-response,499,819310,learnblock2,615.2999999970198,img/planet15_left.png,15,Community 3,NA,TRUE,f,f,NA,NA,NA,NA,6,"11,10,12,14,5,7,6,9,1,2,3,8,4,15,13"
14095,commdev-image-keyboard-response,500,820563,learnblock2,613.3999999985099,img/planet13_left.png,13,Community 3,NA,TRUE,f,f,NA,NA,NA,NA,6,"11,10,12,14,5,7,6,9,1,2,3,8,4,15,13"
14095,commdev-image-keyboard-response,501,821816,learnblock2,768.0999999940395,img/planet8_left.png,8,Community 3,NA,TRUE,f,f,NA,NA,NA,NA,6,"11,10,12,14,5,7,6,9,1,2,3,8,4,15,13"
14095,commdev-image-keyboard-response,502,823069,learnblock2,655.6000000014901,img/planet9_left.png,9,Community 2,NA,TRUE,f,f,NA,NA,NA,NA,6,"11,10,12,14,5,7,6,9,1,2,3,8,4,15,13"
14095,commdev-image-keyboard-response,503,824321,learnblock2,620.8000000044703,img/planet8_right.png,8,Community 3,NA,TRUE,j,j,NA,NA,NA,NA,6,"11,10,12,14,5,7,6,9,1,2,3,8,4,15,13"
14095,commdev-image-keyboard-response,504,825574,learnblock2,667.1000000014901,img/planet13_right.png,13,Community 3,NA,TRUE,j,j,NA,NA,NA,NA,6,"11,10,12,14,5,7,6,9,1,2,3,8,4,15,13"
14095,commdev-image-keyboard-response,505,826827,learnblock2,575.6000000014901,img/planet15_left.png,15,Community 3,NA,TRUE,f,f,NA,NA,NA,NA,6,"11,10,12,14,5,7,6,9,1,2,3,8,4,15,13"
14095,commdev-image-keyboard-response,506,828080,learnblock2,582.2999999970198,img/planet4_right.png,4,Community 3,NA,TRUE,j,j,NA,NA,NA,NA,6,"11,10,12,14,5,7,6,9,1,2,3,8,4,15,13"
14095,commdev-image-keyboard-response,507,829333,learnblock2,620.9000000059605,img/planet13_left.png,13,Community 3,NA,TRUE,f,f,NA,NA,NA,NA,6,"11,10,12,14,5,7,6,9,1,2,3,8,4,15,13"
14095,commdev-image-keyboard-response,508,830585,learnblock2,650.8999999985099,img/planet3_right.png,3,Community 3,NA,TRUE,j,j,NA,NA,NA,NA,6,"11,10,12,14,5,7,6,9,1,2,3,8,4,15,13"
14095,commdev-image-keyboard-response,509,831837,learnblock2,520.1999999955297,img/planet5_left.png,5,Community 1,NA,TRUE,f,f,NA,NA,NA,NA,6,"11,10,12,14,5,7,6,9,1,2,3,8,4,15,13"
14095,commdev-image-keyboard-response,510,833088,learnblock2,696.6000000014901,img/planet11_right.png,11,Community 1,NA,TRUE,j,j,NA,NA,NA,NA,6,"11,10,12,14,5,7,6,9,1,2,3,8,4,15,13"
14095,commdev-image-keyboard-response,511,834342,learnblock2,574.8999999985099,img/planet14_left.png,14,Community 1,NA,TRUE,f,f,NA,NA,NA,NA,6,"11,10,12,14,5,7,6,9,1,2,3,8,4,15,13"
14095,commdev-image-keyboard-response,512,835595,learnblock2,673.7999999970198,img/planet7_right.png,7,Community 2,NA,TRUE,j,j,NA,NA,NA,NA,6,"11,10,12,14,5,7,6,9,1,2,3,8,4,15,13"
14095,commdev-image-keyboard-response,513,836847,learnblock2,595.8000000044703,img/planet6_left.png,6,Community 2,NA,TRUE,f,f,NA,NA,NA,NA,6,"11,10,12,14,5,7,6,9,1,2,3,8,4,15,13"
14095,commdev-image-keyboard-response,514,838100,learnblock2,638.8999999985099,img/planet7_right.png,7,Community 2,NA,TRUE,j,j,NA,NA,NA,NA,6,"11,10,12,14,5,7,6,9,1,2,3,8,4,15,13"
14095,commdev-image-keyboard-response,515,839352,learnblock2,572.6000000014901,img/planet14_left.png,14,Community 1,NA,TRUE,f,f,NA,NA,NA,NA,6,"11,10,12,14,5,7,6,9,1,2,3,8,4,15,13"
14095,commdev-image-keyboard-response,516,840604,learnblock2,901.6000000014901,img/planet11_left.png,11,Community 1,NA,FALSE,j,f,NA,NA,NA,NA,6,"11,10,12,14,5,7,6,9,1,2,3,8,4,15,13"
14095,commdev-image-keyboard-response,517,841857,learnblock2,818,img/planet14_right.png,14,Community 1,NA,TRUE,j,j,NA,NA,NA,NA,6,"11,10,12,14,5,7,6,9,1,2,3,8,4,15,13"
14095,commdev-image-keyboard-response,518,843109,learnblock2,724.2999999970198,img/planet12_left.png,12,Community 1,NA,TRUE,f,f,NA,NA,NA,NA,6,"11,10,12,14,5,7,6,9,1,2,3,8,4,15,13"
14095,commdev-image-keyboard-response,519,844361,learnblock2,1017.6999999955297,img/planet5_left.png,5,Community 1,NA,FALSE,j,f,NA,NA,NA,NA,6,"11,10,12,14,5,7,6,9,1,2,3,8,4,15,13"
14095,commdev-image-keyboard-response,520,845614,learnblock2,722.7000000029802,img/planet10_left.png,10,Community 1,NA,TRUE,f,f,NA,NA,NA,NA,6,"11,10,12,14,5,7,6,9,1,2,3,8,4,15,13"
14095,commdev-image-keyboard-response,521,846868,learnblock2,649.3999999985099,img/planet11_right.png,11,Community 1,NA,TRUE,j,j,NA,NA,NA,NA,6,"11,10,12,14,5,7,6,9,1,2,3,8,4,15,13"
14095,commdev-image-keyboard-response,522,848119,learnblock2,1110,img/planet12_right.png,12,Community 1,NA,TRUE,j,j,NA,NA,NA,NA,6,"11,10,12,14,5,7,6,9,1,2,3,8,4,15,13"
14095,commdev-image-keyboard-response,523,849371,learnblock2,635.1999999955297,img/planet14_left.png,14,Community 1,NA,TRUE,f,f,NA,NA,NA,NA,6,"11,10,12,14,5,7,6,9,1,2,3,8,4,15,13"
14095,commdev-image-keyboard-response,524,850624,learnblock2,551,img/planet10_right.png,10,Community 1,NA,TRUE,j,j,NA,NA,NA,NA,6,"11,10,12,14,5,7,6,9,1,2,3,8,4,15,13"
14095,commdev-image-keyboard-response,525,851877,learnblock2,587,img/planet14_right.png,14,Community 1,NA,TRUE,j,j,NA,NA,NA,NA,6,"11,10,12,14,5,7,6,9,1,2,3,8,4,15,13"
14095,commdev-image-keyboard-response,526,853130,learnblock2,691.7000000029802,img/planet12_right.png,12,Community 1,NA,TRUE,j,j,NA,NA,NA,NA,6,"11,10,12,14,5,7,6,9,1,2,3,8,4,15,13"
14095,commdev-image-keyboard-response,527,854383,learnblock2,722.7999999970198,img/planet11_left.png,11,Community 1,NA,TRUE,f,f,NA,NA,NA,NA,6,"11,10,12,14,5,7,6,9,1,2,3,8,4,15,13"
14095,commdev-image-keyboard-response,528,855636,learnblock2,684.5,img/planet14_left.png,14,Community 1,NA,TRUE,f,f,NA,NA,NA,NA,6,"11,10,12,14,5,7,6,9,1,2,3,8,4,15,13"
14095,commdev-image-keyboard-response,529,856889,learnblock2,581.1000000014901,img/planet10_right.png,10,Community 1,NA,FALSE,f,j,NA,NA,NA,NA,6,"11,10,12,14,5,7,6,9,1,2,3,8,4,15,13"
14095,commdev-image-keyboard-response,530,858141,learnblock2,790,img/planet11_right.png,11,Community 1,NA,TRUE,j,j,NA,NA,NA,NA,6,"11,10,12,14,5,7,6,9,1,2,3,8,4,15,13"
14095,commdev-image-keyboard-response,531,859393,learnblock2,667.3000000044703,img/planet5_left.png,5,Community 1,NA,TRUE,f,f,NA,NA,NA,NA,6,"11,10,12,14,5,7,6,9,1,2,3,8,4,15,13"
14095,commdev-image-keyboard-response,532,860647,learnblock2,693.7999999970198,img/planet12_right.png,12,Community 1,NA,TRUE,j,j,NA,NA,NA,NA,6,"11,10,12,14,5,7,6,9,1,2,3,8,4,15,13"
14095,commdev-image-keyboard-response,533,861900,learnblock2,676.2999999970198,img/planet5_left.png,5,Community 1,NA,TRUE,f,f,NA,NA,NA,NA,6,"11,10,12,14,5,7,6,9,1,2,3,8,4,15,13"
14095,commdev-image-keyboard-response,534,863153,learnblock2,857.8999999985099,img/planet12_left.png,12,Community 1,NA,TRUE,f,f,NA,NA,NA,NA,6,"11,10,12,14,5,7,6,9,1,2,3,8,4,15,13"
14095,commdev-image-keyboard-response,535,864405,learnblock2,599.2999999970198,img/planet5_right.png,5,Community 1,NA,TRUE,j,j,NA,NA,NA,NA,6,"11,10,12,14,5,7,6,9,1,2,3,8,4,15,13"
14095,commdev-image-keyboard-response,536,865658,learnblock2,558.3999999985099,img/planet10_left.png,10,Community 1,NA,TRUE,f,f,NA,NA,NA,NA,6,"11,10,12,14,5,7,6,9,1,2,3,8,4,15,13"
14095,commdev-image-keyboard-response,537,866911,learnblock2,621.7999999970198,img/planet14_right.png,14,Community 1,NA,TRUE,j,j,NA,NA,NA,NA,6,"11,10,12,14,5,7,6,9,1,2,3,8,4,15,13"
14095,commdev-image-keyboard-response,538,868163,learnblock2,580.4000000059605,img/planet12_left.png,12,Community 1,NA,TRUE,f,f,NA,NA,NA,NA,6,"11,10,12,14,5,7,6,9,1,2,3,8,4,15,13"
14095,commdev-image-keyboard-response,539,869416,learnblock2,788.1000000014901,img/planet10_right.png,10,Community 1,NA,TRUE,j,j,NA,NA,NA,NA,6,"11,10,12,14,5,7,6,9,1,2,3,8,4,15,13"
14095,commdev-image-keyboard-response,540,870669,learnblock2,615.8000000044703,img/planet12_left.png,12,Community 1,NA,TRUE,f,f,NA,NA,NA,NA,6,"11,10,12,14,5,7,6,9,1,2,3,8,4,15,13"
14095,commdev-image-keyboard-response,541,871922,learnblock2,669.6999999955297,img/planet14_right.png,14,Community 1,NA,TRUE,j,j,NA,NA,NA,NA,6,"11,10,12,14,5,7,6,9,1,2,3,8,4,15,13"
14095,commdev-image-keyboard-response,542,873176,learnblock2,632.7000000029802,img/planet12_left.png,12,Community 1,NA,TRUE,f,f,NA,NA,NA,NA,6,"11,10,12,14,5,7,6,9,1,2,3,8,4,15,13"
14095,commdev-image-keyboard-response,543,874430,learnblock2,1066.3000000044703,img/planet11_left.png,11,Community 1,NA,TRUE,f,f,NA,NA,NA,NA,6,"11,10,12,14,5,7,6,9,1,2,3,8,4,15,13"
14095,commdev-image-keyboard-response,544,875682,learnblock2,710.1000000014901,img/planet5_left.png,5,Community 1,NA,TRUE,f,f,NA,NA,NA,NA,6,"11,10,12,14,5,7,6,9,1,2,3,8,4,15,13"
14095,commdev-image-keyboard-response,545,876934,learnblock2,732.0999999940395,img/planet3_right.png,3,Community 3,NA,TRUE,j,j,NA,NA,NA,NA,6,"11,10,12,14,5,7,6,9,1,2,3,8,4,15,13"
14095,commdev-image-keyboard-response,546,878186,learnblock2,661.7999999970198,img/planet5_left.png,5,Community 1,NA,TRUE,f,f,NA,NA,NA,NA,6,"11,10,12,14,5,7,6,9,1,2,3,8,4,15,13"
14095,commdev-image-keyboard-response,547,879438,learnblock2,596,img/planet10_right.png,10,Community 1,NA,TRUE,j,j,NA,NA,NA,NA,6,"11,10,12,14,5,7,6,9,1,2,3,8,4,15,13"
14095,commdev-image-keyboard-response,548,880691,learnblock2,684.6999999955297,img/planet11_left.png,11,Community 1,NA,TRUE,f,f,NA,NA,NA,NA,6,"11,10,12,14,5,7,6,9,1,2,3,8,4,15,13"
14095,commdev-image-keyboard-response,549,881942,learnblock2,704.1000000014901,img/planet5_left.png,5,Community 1,NA,TRUE,f,f,NA,NA,NA,NA,6,"11,10,12,14,5,7,6,9,1,2,3,8,4,15,13"
14095,commdev-image-keyboard-response,550,883196,learnblock2,699.3999999985099,img/planet12_right.png,12,Community 1,NA,TRUE,j,j,NA,NA,NA,NA,6,"11,10,12,14,5,7,6,9,1,2,3,8,4,15,13"
14095,commdev-image-keyboard-response,551,884448,learnblock2,658.2999999970198,img/planet11_left.png,11,Community 1,NA,TRUE,f,f,NA,NA,NA,NA,6,"11,10,12,14,5,7,6,9,1,2,3,8,4,15,13"
14095,commdev-image-keyboard-response,552,885700,learnblock2,836.5999999940395,img/planet14_right.png,14,Community 1,NA,TRUE,j,j,NA,NA,NA,NA,6,"11,10,12,14,5,7,6,9,1,2,3,8,4,15,13"
14095,commdev-image-keyboard-response,553,886954,learnblock2,594.8000000044703,img/planet10_right.png,10,Community 1,NA,TRUE,j,j,NA,NA,NA,NA,6,"11,10,12,14,5,7,6,9,1,2,3,8,4,15,13"
14095,commdev-image-keyboard-response,554,888207,learnblock2,622.6999999955297,img/planet14_left.png,14,Community 1,NA,TRUE,f,f,NA,NA,NA,NA,6,"11,10,12,14,5,7,6,9,1,2,3,8,4,15,13"
14095,commdev-image-keyboard-response,555,889461,learnblock2,624.2999999970198,img/planet10_left.png,10,Community 1,NA,TRUE,f,f,NA,NA,NA,NA,6,"11,10,12,14,5,7,6,9,1,2,3,8,4,15,13"
14095,commdev-image-keyboard-response,556,890714,learnblock2,725.7999999970198,img/planet11_left.png,11,Community 1,NA,TRUE,f,f,NA,NA,NA,NA,6,"11,10,12,14,5,7,6,9,1,2,3,8,4,15,13"
14095,commdev-image-keyboard-response,557,891966,learnblock2,571.3000000044703,img/planet14_left.png,14,Community 1,NA,TRUE,f,f,NA,NA,NA,NA,6,"11,10,12,14,5,7,6,9,1,2,3,8,4,15,13"
14095,commdev-image-keyboard-response,558,893219,learnblock2,619.7999999970198,img/planet7_right.png,7,Community 2,NA,TRUE,j,j,NA,NA,NA,NA,6,"11,10,12,14,5,7,6,9,1,2,3,8,4,15,13"
14095,commdev-image-keyboard-response,559,894472,learnblock2,663.5,img/planet14_left.png,14,Community 1,NA,TRUE,f,f,NA,NA,NA,NA,6,"11,10,12,14,5,7,6,9,1,2,3,8,4,15,13"
14095,commdev-image-keyboard-response,560,895725,learnblock2,703.7000000029802,img/planet7_right.png,7,Community 2,NA,TRUE,j,j,NA,NA,NA,NA,6,"11,10,12,14,5,7,6,9,1,2,3,8,4,15,13"
14095,commdev-image-keyboard-response,561,896977,learnblock2,606.8999999985099,img/planet1_left.png,1,Community 2,NA,TRUE,f,f,NA,NA,NA,NA,6,"11,10,12,14,5,7,6,9,1,2,3,8,4,15,13"
14095,commdev-image-keyboard-response,562,898230,learnblock2,663.9000000059605,img/planet6_left.png,6,Community 2,NA,TRUE,f,f,NA,NA,NA,NA,6,"11,10,12,14,5,7,6,9,1,2,3,8,4,15,13"
14095,commdev-image-keyboard-response,563,899483,learnblock2,578.7999999970198,img/planet7_right.png,7,Community 2,NA,TRUE,j,j,NA,NA,NA,NA,6,"11,10,12,14,5,7,6,9,1,2,3,8,4,15,13"
14095,commdev-image-keyboard-response,564,900735,learnblock2,575,img/planet14_left.png,14,Community 1,NA,TRUE,f,f,NA,NA,NA,NA,6,"11,10,12,14,5,7,6,9,1,2,3,8,4,15,13"
14095,commdev-image-keyboard-response,565,901988,learnblock2,573.5,img/planet12_right.png,12,Community 1,NA,TRUE,j,j,NA,NA,NA,NA,6,"11,10,12,14,5,7,6,9,1,2,3,8,4,15,13"
14095,commdev-image-keyboard-response,566,903241,learnblock2,723.6999999955297,img/planet10_right.png,10,Community 1,NA,TRUE,j,j,NA,NA,NA,NA,6,"11,10,12,14,5,7,6,9,1,2,3,8,4,15,13"
14095,commdev-image-keyboard-response,567,904493,learnblock2,613.1000000014901,img/planet11_left.png,11,Community 1,NA,TRUE,f,f,NA,NA,NA,NA,6,"11,10,12,14,5,7,6,9,1,2,3,8,4,15,13"
14095,commdev-image-keyboard-response,568,905746,learnblock2,660.2000000029802,img/planet10_left.png,10,Community 1,NA,TRUE,f,f,NA,NA,NA,NA,6,"11,10,12,14,5,7,6,9,1,2,3,8,4,15,13"
14095,commdev-image-keyboard-response,569,906998,learnblock2,786.1000000014901,img/planet12_left.png,12,Community 1,NA,TRUE,f,f,NA,NA,NA,NA,6,"11,10,12,14,5,7,6,9,1,2,3,8,4,15,13"
14095,commdev-image-keyboard-response,570,908251,learnblock2,676.5,img/planet11_left.png,11,Community 1,NA,TRUE,f,f,NA,NA,NA,NA,6,"11,10,12,14,5,7,6,9,1,2,3,8,4,15,13"
14095,commdev-image-keyboard-response,571,909503,learnblock2,623.1999999955297,img/planet5_left.png,5,Community 1,NA,TRUE,f,f,NA,NA,NA,NA,6,"11,10,12,14,5,7,6,9,1,2,3,8,4,15,13"
14095,commdev-image-keyboard-response,572,910755,learnblock2,539.6000000014901,img/planet12_right.png,12,Community 1,NA,TRUE,j,j,NA,NA,NA,NA,6,"11,10,12,14,5,7,6,9,1,2,3,8,4,15,13"
14095,commdev-image-keyboard-response,573,912008,learnblock2,690.7000000029802,img/planet14_right.png,14,Community 1,NA,TRUE,j,j,NA,NA,NA,NA,6,"11,10,12,14,5,7,6,9,1,2,3,8,4,15,13"
14095,commdev-image-keyboard-response,574,913260,learnblock2,644.6999999955297,img/planet11_left.png,11,Community 1,NA,TRUE,f,f,NA,NA,NA,NA,6,"11,10,12,14,5,7,6,9,1,2,3,8,4,15,13"
14095,commdev-image-keyboard-response,575,914513,learnblock2,774.1000000014901,img/planet5_left.png,5,Community 1,NA,TRUE,f,f,NA,NA,NA,NA,6,"11,10,12,14,5,7,6,9,1,2,3,8,4,15,13"
14095,commdev-image-keyboard-response,576,915766,learnblock2,701.0999999940395,img/planet11_left.png,11,Community 1,NA,TRUE,f,f,NA,NA,NA,NA,6,"11,10,12,14,5,7,6,9,1,2,3,8,4,15,13"
14095,commdev-image-keyboard-response,577,917019,learnblock2,533.1999999955297,img/planet10_left.png,10,Community 1,NA,TRUE,f,f,NA,NA,NA,NA,6,"11,10,12,14,5,7,6,9,1,2,3,8,4,15,13"
14095,commdev-image-keyboard-response,578,918272,learnblock2,727.8999999985099,img/planet5_left.png,5,Community 1,NA,TRUE,f,f,NA,NA,NA,NA,6,"11,10,12,14,5,7,6,9,1,2,3,8,4,15,13"
14095,commdev-image-keyboard-response,579,919525,learnblock2,512.7999999970198,img/planet11_left.png,11,Community 1,NA,TRUE,f,f,NA,NA,NA,NA,6,"11,10,12,14,5,7,6,9,1,2,3,8,4,15,13"
14095,commdev-image-keyboard-response,580,920777,learnblock2,718.1000000014901,img/planet12_right.png,12,Community 1,NA,TRUE,j,j,NA,NA,NA,NA,6,"11,10,12,14,5,7,6,9,1,2,3,8,4,15,13"
14095,commdev-image-keyboard-response,581,922029,learnblock2,624.2000000029802,img/planet5_right.png,5,Community 1,NA,TRUE,j,j,NA,NA,NA,NA,6,"11,10,12,14,5,7,6,9,1,2,3,8,4,15,13"
14095,commdev-image-keyboard-response,582,923281,learnblock2,790.5,img/planet11_right.png,11,Community 1,NA,TRUE,j,j,NA,NA,NA,NA,6,"11,10,12,14,5,7,6,9,1,2,3,8,4,15,13"
14095,commdev-image-keyboard-response,583,924534,learnblock2,731.8999999985099,img/planet12_right.png,12,Community 1,NA,TRUE,j,j,NA,NA,NA,NA,6,"11,10,12,14,5,7,6,9,1,2,3,8,4,15,13"
